onset	duration	sample	value	key	prompt_text
18.1665	8.7005	36333	prompt	n/a	the quick brown fox jumps over a lazy dog\n
20.429	0.135	40858	keystroke_t	t	n/a
20.519	0.105	41038	keystroke_h	h	n/a
20.639	0.105	41278	keystroke_e	e	n/a
20.999	0.12	41998	keystroke_Key.space	Key.space	n/a
21.674	0.12	43348	keystroke_q	q	n/a
21.779	0.15	43558	keystroke_u	u	n/a
21.839	0.12	43678	keystroke_i	i	n/a
22.004	0.09	44008	keystroke_c	c	n/a
22.109	0.135	44218	keystroke_k	k	n/a
22.229	0.1495	44458	keystroke_Key.space	Key.space	n/a
22.3635	0.091	44727	keystroke_b	b	n/a
22.4685	0.105	44937	keystroke_r	r	n/a
22.5885	0.135	45177	keystroke_o	o	n/a
22.6935	0.09	45387	keystroke_w	w	n/a
22.7985	0.075	45597	keystroke_n	n	n/a
22.9485	0.105	45897	keystroke_Key.space	Key.space	n/a
23.0685	0.091	46137	keystroke_f	f	n/a
23.1435	0.105	46287	keystroke_o	o	n/a
23.2795	0.105	46559	keystroke_x	x	n/a
23.3685	0.12	46737	keystroke_Key.space	Key.space	n/a
23.4735	0.09	46947	keystroke_j	j	n/a
23.6685	0.15	47337	keystroke_u	u	n/a
23.7885	0.15	47577	keystroke_m	m	n/a
23.8795	0.134	47759	keystroke_p	p	n/a
23.9835	0.09	47967	keystroke_s	s	n/a
24.1335	0.105	48267	keystroke_Key.space	Key.space	n/a
24.2535	0.105	48507	keystroke_o	o	n/a
24.3135	0.12	48627	keystroke_v	v	n/a
24.4935	0.15	48987	keystroke_e	e	n/a
24.5985	0.09	49197	keystroke_r	r	n/a
24.7035	0.12	49407	keystroke_Key.space	Key.space	n/a
24.8385	0.09	49677	keystroke_a	a	n/a
24.9435	0.09	49887	keystroke_Key.space	Key.space	n/a
25.0485	0.12	50097	keystroke_l	l	n/a
25.1545	0.149	50309	keystroke_a	a	n/a
25.2445	0.134	50489	keystroke_z	z	n/a
25.3345	0.089	50669	keystroke_y	y	n/a
25.3935	0.12	50787	keystroke_Key.space	Key.space	n/a
25.4845	0.104	50969	keystroke_d	d	n/a
25.5735	0.09	51147	keystroke_o	o	n/a
25.6945	0.074	51389	keystroke_g	g	n/a
26.7585	0.105	53517	keystroke_Key.enter	Key.enter	n/a
26.872	5.214	53744	prompt	n/a	bosnia absorption punch associations\n
27.8385	0.076	55677	keystroke_b	b	n/a
28.0795	0.12	56159	keystroke_o	o	n/a
28.1545	0.089	56309	keystroke_s	s	n/a
28.2745	0.119	56549	keystroke_n	n	n/a
28.3495	0.105	56699	keystroke_i	i	n/a
28.4245	0.074	56849	keystroke_a	a	n/a
28.5585	0.105	57117	keystroke_Key.space	Key.space	n/a
28.7245	0.119	57449	keystroke_a	a	n/a
28.8295	0.059	57659	keystroke_b	b	n/a
28.9045	0.12	57809	keystroke_s	s	n/a
29.0545	0.119	58109	keystroke_o	o	n/a
29.2045	0.09	58409	keystroke_r	r	n/a
29.3235	0.12	58647	keystroke_p	p	n/a
29.4735	0.106	58947	keystroke_t	t	n/a
29.5635	0.151	59127	keystroke_i	i	n/a
29.6245	0.119	59249	keystroke_o	o	n/a
29.6845	0.09	59369	keystroke_n	n	n/a
29.8495	0.089	59699	keystroke_Key.space	Key.space	n/a
30.1045	0.105	60209	keystroke_p	p	n/a
30.2245	0.15	60449	keystroke_u	u	n/a
30.3135	0.105	60627	keystroke_n	n	n/a
30.4045	0.119	60809	keystroke_c	c	n/a
30.5085	0.091	61017	keystroke_h	h	n/a
30.5835	0.105	61167	keystroke_Key.space	Key.space	n/a
30.6595	0.179	61319	keystroke_a	a	n/a
30.7795	0.104	61559	keystroke_s	s	n/a
30.9745	0.105	61949	keystroke_s	s	n/a
31.0635	0.105	62127	keystroke_o	o	n/a
31.1845	0.074	62369	keystroke_c	c	n/a
31.2595	0.134	62519	keystroke_i	i	n/a
31.3645	0.134	62729	keystroke_a	a	n/a
31.4845	0.09	62969	keystroke_t	t	n/a
31.5285	0.135	63057	keystroke_i	i	n/a
31.5885	0.135	63177	keystroke_o	o	n/a
31.6495	0.089	63299	keystroke_n	n	n/a
31.7535	0.076	63507	keystroke_s	s	n/a
32.0545	0.029	64109	keystroke_Key.enter	Key.enter	n/a
32.0905	0.1155	64181	prompt	n/a	addiction participated bulgarian greensboro\n
32.1885	0.015	64377	keystroke_Key.enter	Key.enter	n/a
32.21	13.092	64420	prompt	n/a	oecd faster selective dentists\n
34.1095	0.09	68219	keystroke_o	o	n/a
34.2295	0.104	68459	keystroke_e	e	n/a
34.3635	0.105	68727	keystroke_c	c	n/a
34.5895	0.104	69179	keystroke_d	d	n/a
34.8885	0.15	69777	keystroke_Key.space	Key.space	n/a
35.0245	0.119	70049	keystroke_f	f	n/a
35.1595	0.195	70319	keystroke_a	a	n/a
35.2495	0.164	70499	keystroke_s	s	n/a
35.3845	0.15	70769	keystroke_t	t	n/a
35.5185	0.12	71037	keystroke_e	e	n/a
35.6085	0.121	71217	keystroke_r	r	n/a
35.7435	0.075	71487	keystroke_Key.space	Key.space	n/a
35.8785	0.121	71757	keystroke_s	s	n/a
36.0895	0.104	72179	keystroke_l	l	n/a
36.1795	0.18	72359	keystroke_e	e	n/a
36.3135	0.091	72627	keystroke_c	c	n/a
36.5695	0.09	73139	keystroke_t	t	n/a
37.2295	0.089	74459	keystroke_Key.backspace	Key.backspace	n/a
37.4085	0.075	74817	keystroke_Key.backspace	Key.backspace	n/a
37.5585	0.075	75117	keystroke_Key.backspace	Key.backspace	n/a
37.9785	0.075	75957	keystroke_Key.backspace	Key.backspace	n/a
38.2785	0.076	76557	keystroke_Key.backspace	Key.backspace	n/a
41.8975	0.057	83795	keystroke_s	s	n/a
42.0745	0.105	84149	keystroke_e	e	n/a
42.1645	0.12	84329	keystroke_l	l	n/a
42.2545	0.105	84509	keystroke_e	e	n/a
42.3295	0.09	84659	keystroke_c	c	n/a
42.5245	0.09	85049	keystroke_t	t	n/a
42.7345	0.119	85469	keystroke_i	i	n/a
42.9295	0.15	85859	keystroke_v	v	n/a
43.2435	0.12	86487	keystroke_e	e	n/a
43.9785	0.135	87957	keystroke_Key.space	Key.space	n/a
44.1295	0.165	88259	keystroke_d	d	n/a
44.2795	0.12	88559	keystroke_e	e	n/a
44.3695	0.12	88739	keystroke_n	n	n/a
44.5195	0.135	89039	keystroke_t	t	n/a
44.6395	0.105	89279	keystroke_i	i	n/a
44.7135	0.166	89427	keystroke_s	s	n/a
44.8195	0.105	89639	keystroke_t	t	n/a
44.9245	0.105	89849	keystroke_s	s	n/a
45.2245	0.075	90449	keystroke_Key.enter	Key.enter	n/a
45.3075	4.704	90615	prompt	n/a	diagnostic debate partly industrial\n
45.914	0.135	91828	keystroke_d	d	n/a
46.034	0.106	92068	keystroke_i	i	n/a
46.109	0.165	92218	keystroke_a	a	n/a
46.259	0.09	92518	keystroke_g	g	n/a
46.334	0.135	92668	keystroke_n	n	n/a
46.424	0.15	92848	keystroke_o	o	n/a
46.529	0.15	93058	keystroke_s	s	n/a
46.619	0.135	93238	keystroke_t	t	n/a
46.724	0.105	93448	keystroke_i	i	n/a
46.979	0.09	93958	keystroke_c	c	n/a
47.294	0.105	94588	keystroke_Key.space	Key.space	n/a
47.414	0.15	94828	keystroke_d	d	n/a
47.474	0.15	94948	keystroke_e	e	n/a
47.579	0.12	95158	keystroke_b	b	n/a
47.714	0.12	95428	keystroke_a	a	n/a
47.789	0.105	95578	keystroke_t	t	n/a
47.864	0.105	95728	keystroke_e	e	n/a
47.939	0.135	95878	keystroke_Key.space	Key.space	n/a
48.044	0.12	96088	keystroke_p	p	n/a
48.119	0.105	96238	keystroke_a	a	n/a
48.179	0.09	96358	keystroke_r	r	n/a
48.344	0.09	96688	keystroke_t	t	n/a
48.419	0.135	96838	keystroke_l	l	n/a
48.509	0.105	97018	keystroke_y	y	n/a
48.584	0.09	97168	keystroke_Key.space	Key.space	n/a
48.779	0.12	97558	keystroke_i	i	n/a
48.854	0.105	97708	keystroke_n	n	n/a
48.929	0.105	97858	keystroke_d	d	n/a
49.049	0.09	98098	keystroke_u	u	n/a
49.124	0.105	98248	keystroke_s	s	n/a
49.214	0.105	98428	keystroke_t	t	n/a
49.394	0.105	98788	keystroke_r	r	n/a
49.454	0.09	98908	keystroke_i	i	n/a
49.559	0.105	99118	keystroke_a	a	n/a
49.634	0.09	99268	keystroke_l	l	n/a
49.919	0.09	99838	keystroke_Key.enter	Key.enter	n/a
50.0175	7.6305	100035	prompt	n/a	essence characterization attitudes watching\n
50.654	0.105	101308	keystroke_e	e	n/a
50.834	0.105	101668	keystroke_s	s	n/a
50.999	0.09	101998	keystroke_s	s	n/a
51.179	0.12	102358	keystroke_e	e	n/a
51.269	0.075	102538	keystroke_n	n	n/a
51.359	0.106	102718	keystroke_c	c	n/a
51.419	0.15	102838	keystroke_e	e	n/a
51.494	0.09	102988	keystroke_Key.space	Key.space	n/a
51.629	0.12	103258	keystroke_c	c	n/a
51.734	0.12	103468	keystroke_h	h	n/a
51.809	0.105	103618	keystroke_a	a	n/a
51.899	0.135	103798	keystroke_r	r	n/a
52.049	0.105	104098	keystroke_a	a	n/a
52.169	0.075	104338	keystroke_c	c	n/a
52.514	0.06	105028	keystroke_t	t	n/a
52.604	0.15	105208	keystroke_e	e	n/a
52.694	0.09	105388	keystroke_r	r	n/a
52.889	0.135	105778	keystroke_i	i	n/a
53.804	0.105	107608	keystroke_z	z	n/a
54.044	0.075	108088	keystroke_a	a	n/a
54.224	0.09	108448	keystroke_t	t	n/a
54.284	0.15	108568	keystroke_i	i	n/a
54.344	0.121	108688	keystroke_o	o	n/a
54.435	0.044	108870	keystroke_n	n	n/a
54.584	0.12	109168	keystroke_Key.space	Key.space	n/a
54.674	0.105	109348	keystroke_a	a	n/a
54.794	0.075	109588	keystroke_t	t	n/a
54.959	0.09	109918	keystroke_t	t	n/a
55.064	0.09	110128	keystroke_i	i	n/a
55.169	0.105	110338	keystroke_t	t	n/a
55.259	0.105	110518	keystroke_u	u	n/a
55.394	0.12	110788	keystroke_d	d	n/a
55.484	0.09	110968	keystroke_e	e	n/a
55.679	0.09	111358	keystroke_s	s	n/a
55.784	0.09	111568	keystroke_Key.space	Key.space	n/a
55.875	0.104	111750	keystroke_w	w	n/a
56.084	0.121	112168	keystroke_t	t	n/a
56.534	0.09	113068	keystroke_Key.backspace	Key.backspace	n/a
56.684	0.121	113368	keystroke_a	a	n/a
56.789	0.09	113578	keystroke_t	t	n/a
57.014	0.12	114028	keystroke_c	c	n/a
57.119	0.135	114238	keystroke_h	h	n/a
57.194	0.12	114388	keystroke_i	i	n/a
57.269	0.09	114538	keystroke_n	n	n/a
57.299	0.075	114598	keystroke_g	g	n/a
57.539	0.105	115078	keystroke_Key.enter	Key.enter	n/a
57.6525	4.0895	115305	prompt	n/a	standards were numerous left\n
58.289	0.165	116578	keystroke_s	s	n/a
58.559	0.09	117118	keystroke_t	t	n/a
58.679	0.12	117358	keystroke_a	a	n/a
58.769	0.106	117538	keystroke_n	n	n/a
58.889	0.105	117778	keystroke_d	d	n/a
59.009	0.12	118018	keystroke_a	a	n/a
59.099	0.076	118198	keystroke_r	r	n/a
59.294	0.106	118588	keystroke_d	d	n/a
59.339	0.105	118678	keystroke_s	s	n/a
59.534	0.09	119068	keystroke_Key.space	Key.space	n/a
59.654	0.09	119308	keystroke_w	w	n/a
59.834	0.091	119668	keystroke_e	e	n/a
59.909	0.09	119818	keystroke_r	r	n/a
59.984	0.105	119968	keystroke_e	e	n/a
60.104	0.105	120208	keystroke_Key.space	Key.space	n/a
60.359	0.135	120718	keystroke_n	n	n/a
60.479	0.18	120958	keystroke_u	u	n/a
60.63	0.12	121260	keystroke_m	m	n/a
60.734	0.121	121468	keystroke_e	e	n/a
60.809	0.09	121618	keystroke_r	r	n/a
60.839	0.105	121678	keystroke_o	o	n/a
60.885	0.104	121770	keystroke_u	u	n/a
61.004	0.09	122008	keystroke_s	s	n/a
61.109	0.105	122218	keystroke_Key.space	Key.space	n/a
61.169	0.136	122338	keystroke_l	l	n/a
61.259	0.135	122518	keystroke_e	e	n/a
61.334	0.105	122668	keystroke_f	f	n/a
61.544	0.09	123088	keystroke_t	t	n/a
61.649	0.09	123298	keystroke_Key.enter	Key.enter	n/a
61.7485	4.2075	123497	prompt	n/a	chester hazards islamic since\n
62.414	0.105	124828	keystroke_c	c	n/a
62.489	0.105	124978	keystroke_h	h	n/a
62.579	0.09	125158	keystroke_e	e	n/a
62.759	0.135	125518	keystroke_s	s	n/a
62.879	0.135	125758	keystroke_t	t	n/a
63	0.149	126000	keystroke_e	e	n/a
63.089	0.105	126178	keystroke_r	r	n/a
63.134	0.105	126268	keystroke_Key.space	Key.space	n/a
63.209	0.105	126418	keystroke_h	h	n/a
63.344	0.15	126688	keystroke_a	a	n/a
63.434	0.15	126868	keystroke_z	z	n/a
63.614	0.12	127228	keystroke_a	a	n/a
63.735	0.089	127470	keystroke_r	r	n/a
63.929	0.09	127858	keystroke_d	d	n/a
63.989	0.105	127978	keystroke_s	s	n/a
64.049	0.165	128098	keystroke_Key.space	Key.space	n/a
64.169	0.09	128338	keystroke_i	i	n/a
64.26	0.134	128520	keystroke_s	s	n/a
64.424	0.12	128848	keystroke_l	l	n/a
64.559	0.105	129118	keystroke_a	a	n/a
64.65	0.119	129300	keystroke_m	m	n/a
64.724	0.105	129448	keystroke_i	i	n/a
64.844	0.075	129688	keystroke_c	c	n/a
64.934	0.09	129868	keystroke_Key.space	Key.space	n/a
65.039	0.09	130078	keystroke_s	s	n/a
65.28	0.119	130560	keystroke_i	i	n/a
65.369	0.09	130738	keystroke_n	n	n/a
65.444	0.075	130888	keystroke_c	c	n/a
65.489	0.09	130978	keystroke_e	e	n/a
65.88	0.074	131760	keystroke_Key.enter	Key.enter	n/a
65.9605	3.7155	131921	prompt	n/a	slow lets roller billy\n
66.6	0.089	133200	keystroke_s	s	n/a
66.69	0.105	133380	keystroke_l	l	n/a
66.914	0.06	133828	keystroke_o	o	n/a
66.959	0.105	133918	keystroke_w	w	n/a
67.079	0.12	134158	keystroke_Key.space	Key.space	n/a
67.139	0.136	134278	keystroke_l	l	n/a
67.214	0.12	134428	keystroke_e	e	n/a
67.289	0.075	134578	keystroke_t	t	n/a
67.439	0.105	134878	keystroke_s	s	n/a
67.514	0.09	135028	keystroke_Key.space	Key.space	n/a
67.634	0.105	135268	keystroke_r	r	n/a
67.694	0.075	135388	keystroke_o	o	n/a
67.875	0.044	135750	keystroke_l	l	n/a
68.0245	0.045	136049	keystroke_l	l	n/a
68.2795	0.12	136559	keystroke_e	e	n/a
68.3545	0.105	136709	keystroke_r	r	n/a
68.4445	0.165	136889	keystroke_Key.space	Key.space	n/a
68.5795	0.105	137159	keystroke_b	b	n/a
68.8495	0.105	137699	keystroke_i	i	n/a
68.9095	0.105	137819	keystroke_l	l	n/a
69.0895	0.12	138179	keystroke_l	l	n/a
69.2845	0.075	138569	keystroke_y	y	n/a
69.5695	0.105	139139	keystroke_Key.enter	Key.enter	n/a
69.6795	9.868	139359	prompt	n/a	seeker hopkins radical waiver\n
75.2415	0.043	150483	keystroke_s	s	n/a
75.4195	0.075	150839	keystroke_e	e	n/a
75.5845	0.09	151169	keystroke_e	e	n/a
75.6595	0.09	151319	keystroke_k	k	n/a
75.7645	0.12	151529	keystroke_e	e	n/a
75.8395	0.09	151679	keystroke_r	r	n/a
75.9145	0.12	151829	keystroke_Key.space	Key.space	n/a
76.0795	0.09	152159	keystroke_h	h	n/a
76.6495	0.1505	153299	keystroke_o	o	n/a
76.7245	0.105	153449	keystroke_p	p	n/a
76.9645	0.075	153929	keystroke_k	k	n/a
77.1595	0.09	154319	keystroke_i	i	n/a
77.2345	0.09	154469	keystroke_n	n	n/a
77.3395	0.105	154679	keystroke_s	s	n/a
77.4595	0.09	154919	keystroke_Key.space	Key.space	n/a
77.7145	0.135	155429	keystroke_r	r	n/a
77.8345	0.105	155669	keystroke_a	a	n/a
78.0895	0.135	156179	keystroke_d	d	n/a
78.2395	0.075	156479	keystroke_i	i	n/a
78.3295	0.12	156659	keystroke_c	c	n/a
78.4195	0.135	156839	keystroke_a	a	n/a
78.4795	0.15	156959	keystroke_l	l	n/a
78.5855	0.104	157171	keystroke_Key.space	Key.space	n/a
78.7045	0.135	157409	keystroke_w	w	n/a
78.7645	0.12	157529	keystroke_a	a	n/a
78.8845	0.075	157769	keystroke_i	i	n/a
79.0045	0.09	158009	keystroke_v	v	n/a
79.1545	0.1345	158309	keystroke_e	e	n/a
79.26	0.09	158520	keystroke_r	r	n/a
79.454	0.09	158908	keystroke_Key.enter	Key.enter	n/a
79.5525	4.014	159105	prompt	n/a	resort forms modify weekly\n
80.174	0.136	160348	keystroke_r	r	n/a
80.264	0.121	160528	keystroke_e	e	n/a
80.459	0.106	160918	keystroke_s	s	n/a
80.58	0.12	161160	keystroke_o	o	n/a
80.685	0.12	161370	keystroke_r	r	n/a
80.894	0.0755	161788	keystroke_t	t	n/a
80.954	0.1505	161908	keystroke_Key.space	Key.space	n/a
81.1345	0.09	162269	keystroke_f	f	n/a
81.2395	0.09	162479	keystroke_o	o	n/a
81.3145	0.105	162629	keystroke_r	r	n/a
81.4045	0.135	162809	keystroke_m	m	n/a
81.5245	0.075	163049	keystroke_s	s	n/a
81.6145	0.09	163229	keystroke_Key.space	Key.space	n/a
81.8395	0.105	163679	keystroke_m	m	n/a
81.8995	0.135	163799	keystroke_o	o	n/a
82.0495	0.09	164099	keystroke_d	d	n/a
82.1095	0.075	164219	keystroke_i	i	n/a
82.2295	0.105	164459	keystroke_f	f	n/a
82.3495	0.06	164699	keystroke_y	y	n/a
82.3795	0.09	164759	keystroke_Key.space	Key.space	n/a
82.4995	0.135	164999	keystroke_w	w	n/a
82.7395	0.075	165479	keystroke_e	e	n/a
82.8745	0.06	165749	keystroke_e	e	n/a
82.9195	0.105	165839	keystroke_k	k	n/a
83.0845	0.135	166169	keystroke_l	l	n/a
83.1895	0.075	166379	keystroke_y	y	n/a
83.5045	0.06	167009	keystroke_Key.enter	Key.enter	n/a
83.57	5.0365	167140	prompt	n/a	bobby case newspapers wichita\n
84.1345	0.09	168269	keystroke_b	b	n/a
84.4345	0.105	168869	keystroke_o	o	n/a
84.5845	0.06	169169	keystroke_b	b	n/a
84.7195	0.075	169439	keystroke_b	b	n/a
84.9595	0.09	169919	keystroke_y	y	n/a
85.0195	0.12	170039	keystroke_Key.space	Key.space	n/a
85.1245	0.105	170249	keystroke_c	c	n/a
85.1995	0.075	170399	keystroke_a	a	n/a
85.2895	0.09	170579	keystroke_s	s	n/a
85.4845	0.09	170969	keystroke_e	e	n/a
85.5295	0.09	171059	keystroke_Key.space	Key.space	n/a
85.7545	0.09	171509	keystroke_n	n	n/a
85.8145	0.09	171629	keystroke_e	e	n/a
85.8595	0.09	171719	keystroke_w	w	n/a
86.0245	0.12	172049	keystroke_s	s	n/a
86.1295	0.09	172259	keystroke_p	p	n/a
86.2345	0.105	172469	keystroke_a	a	n/a
86.3245	0.09	172649	keystroke_p	p	n/a
86.4155	0.134	172831	keystroke_e	e	n/a
86.5195	0.06	173039	keystroke_r	r	n/a
86.6545	0.09	173309	keystroke_s	s	n/a
86.7295	0.12	173459	keystroke_Key.space	Key.space	n/a
86.8645	0.09	173729	keystroke_w	w	n/a
87.0305	0.134	174061	keystroke_i	i	n/a
87.1795	0.09	174359	keystroke_c	c	n/a
87.2245	0.135	174449	keystroke_h	h	n/a
87.3295	0.105	174659	keystroke_i	i	n/a
87.4045	0.09	174809	keystroke_t	t	n/a
87.5695	0.105	175139	keystroke_a	a	n/a
88.4845	0.12	176969	keystroke_Key.enter	Key.enter	n/a
88.6115	3.805	177223	prompt	n/a	bowling island markets deep\n
89.444	0.075	178888	keystroke_b	b	n/a
89.639	0.09	179278	keystroke_o	o	n/a
89.73	0.104	179460	keystroke_w	w	n/a
89.849	0.15	179698	keystroke_l	l	n/a
89.939	0.12	179878	keystroke_i	i	n/a
90.014	0.105	180028	keystroke_n	n	n/a
90.029	0.105	180058	keystroke_g	g	n/a
90.194	0.105	180388	keystroke_Key.space	Key.space	n/a
90.269	0.105	180538	keystroke_i	i	n/a
90.329	0.12	180658	keystroke_s	s	n/a
90.434	0.12	180868	keystroke_l	l	n/a
90.524	0.105	181048	keystroke_a	a	n/a
90.599	0.09	181198	keystroke_n	n	n/a
90.704	0.12	181408	keystroke_d	d	n/a
90.764	0.075	181528	keystroke_Key.space	Key.space	n/a
90.959	0.09	181918	keystroke_m	m	n/a
91.004	0.15	182008	keystroke_a	a	n/a
91.109	0.105	182218	keystroke_r	r	n/a
91.184	0.12	182368	keystroke_k	k	n/a
91.289	0.15	182578	keystroke_e	e	n/a
91.379	0.105	182758	keystroke_t	t	n/a
91.559	0.105	183118	keystroke_s	s	n/a
91.634	0.09	183268	keystroke_Key.space	Key.space	n/a
91.77	0.104	183540	keystroke_d	d	n/a
91.844	0.09	183688	keystroke_e	e	n/a
92.009	0.09	184018	keystroke_e	e	n/a
92.114	0.06	184228	keystroke_p	p	n/a
92.339	0.075	184678	keystroke_Key.enter	Key.enter	n/a
92.4205	3.8505	184841	prompt	n/a	asia sunshine inspector lost\n
92.969	0.165	185938	keystroke_a	a	n/a
93.089	0.09	186178	keystroke_s	s	n/a
93.2995	0.075	186599	keystroke_i	i	n/a
93.4795	0.12	186959	keystroke_a	a	n/a
93.6145	0.12	187229	keystroke_Key.space	Key.space	n/a
93.8545	0.09	187709	keystroke_s	s	n/a
93.9295	0.15	187859	keystroke_u	u	n/a
94.0195	0.105	188039	keystroke_n	n	n/a
94.1255	0.089	188251	keystroke_s	s	n/a
94.2295	0.06	188459	keystroke_h	h	n/a
94.4095	0.105	188819	keystroke_i	i	n/a
94.4695	0.075	188939	keystroke_n	n	n/a
94.4995	0.09	188999	keystroke_e	e	n/a
94.6335	0.09	189267	keystroke_Key.space	Key.space	n/a
94.7845	0.105	189569	keystroke_i	i	n/a
94.8295	0.105	189659	keystroke_n	n	n/a
94.9045	0.09	189809	keystroke_s	s	n/a
95.0095	0.12	190019	keystroke_p	p	n/a
95.0845	0.135	190169	keystroke_e	e	n/a
95.1595	0.105	190319	keystroke_c	c	n/a
95.3845	0.075	190769	keystroke_t	t	n/a
95.4745	0.105	190949	keystroke_o	o	n/a
95.5495	0.105	191099	keystroke_r	r	n/a
95.6835	0.121	191367	keystroke_Key.space	Key.space	n/a
95.7745	0.075	191549	keystroke_l	l	n/a
95.9545	0.075	191909	keystroke_o	o	n/a
95.9695	0.12	191939	keystroke_s	s	n/a
96.0595	0.075	192119	keystroke_t	t	n/a
96.1645	0.104	192329	keystroke_Key.enter	Key.enter	n/a
96.2745	3.8065	192549	prompt	n/a	politicians break johns islam\n
96.8395	0.075	193679	keystroke_p	p	n/a
97.0795	0.075	194159	keystroke_o	o	n/a
97.2745	0.135	194549	keystroke_l	l	n/a
97.3645	0.09	194729	keystroke_i	i	n/a
97.4245	0.105	194849	keystroke_t	t	n/a
97.5445	0.075	195089	keystroke_i	i	n/a
97.6645	0.105	195329	keystroke_c	c	n/a
97.7395	0.06	195479	keystroke_i	i	n/a
97.8295	0.135	195659	keystroke_a	a	n/a
97.9045	0.075	195809	keystroke_n	n	n/a
98.1445	0.09	196289	keystroke_s	s	n/a
98.2495	0.135	196499	keystroke_Key.space	Key.space	n/a
98.3695	0.09	196739	keystroke_b	b	n/a
98.4445	0.12	196889	keystroke_r	r	n/a
98.5045	0.135	197009	keystroke_e	e	n/a
98.5495	0.12	197099	keystroke_a	a	n/a
98.6095	0.135	197219	keystroke_k	k	n/a
98.7295	0.105	197459	keystroke_Key.space	Key.space	n/a
98.9095	0.165	197819	keystroke_j	j	n/a
99.0595	0.12	198119	keystroke_o	o	n/a
99.1495	0.135	198299	keystroke_h	h	n/a
99.2395	0.12	198479	keystroke_n	n	n/a
99.2995	0.12	198599	keystroke_s	s	n/a
99.4345	0.105	198869	keystroke_Key.space	Key.space	n/a
99.4945	0.135	198989	keystroke_i	i	n/a
99.5845	0.105	199169	keystroke_s	s	n/a
99.6745	0.105	199349	keystroke_l	l	n/a
99.7645	0.09	199529	keystroke_a	a	n/a
99.8395	0.105	199679	keystroke_m	m	n/a
100.0045	0.075	200009	keystroke_Key.enter	Key.enter	n/a
100.087	4.434	200174	prompt	n/a	tiny compensation gross tennessee\n
100.6645	0.09	201329	keystroke_t	t	n/a
100.7245	0.12	201449	keystroke_i	i	n/a
100.7995	0.09	201599	keystroke_n	n	n/a
100.9195	0.105	201839	keystroke_y	y	n/a
101.0245	0.105	202049	keystroke_Key.space	Key.space	n/a
101.0995	0.105	202199	keystroke_c	c	n/a
101.1895	0.105	202379	keystroke_o	o	n/a
101.2795	0.075	202559	keystroke_m	m	n/a
101.4445	0.075	202889	keystroke_p	p	n/a
101.5645	0.12	203129	keystroke_e	e	n/a
101.6545	0.135	203309	keystroke_n	n	n/a
101.8045	0.135	203609	keystroke_s	s	n/a
101.9545	0.12	203909	keystroke_a	a	n/a
102.0445	0.135	204089	keystroke_t	t	n/a
102.1195	0.135	204239	keystroke_i	i	n/a
102.1645	0.105	204329	keystroke_o	o	n/a
102.2395	0.09	204479	keystroke_n	n	n/a
102.3895	0.09	204779	keystroke_Key.space	Key.space	n/a
102.4945	0.06	204989	keystroke_g	g	n/a
102.6595	0.09	205319	keystroke_r	r	n/a
102.7195	0.105	205439	keystroke_o	o	n/a
102.8395	0.075	205679	keystroke_s	s	n/a
102.9895	0.105	205979	keystroke_s	s	n/a
103.0795	0.105	206159	keystroke_Key.space	Key.space	n/a
103.1995	0.09	206399	keystroke_t	t	n/a
103.3195	0.105	206639	keystroke_e	e	n/a
103.4395	0.105	206879	keystroke_n	n	n/a
103.6195	0.09	207239	keystroke_n	n	n/a
103.6945	0.09	207389	keystroke_e	e	n/a
103.8595	0.09	207719	keystroke_s	s	n/a
104.0095	0.105	208019	keystroke_s	s	n/a
104.1895	0.075	208379	keystroke_e	e	n/a
104.3395	0.075	208679	keystroke_e	e	n/a
104.4445	0.075	208889	keystroke_Key.enter	Key.enter	n/a
104.525	3.731	209050	prompt	n/a	stationery acids compute results\n
105.1645	0.15	210329	keystroke_s	s	n/a
105.2995	0.09	210599	keystroke_t	t	n/a
105.4045	0.15	210809	keystroke_a	a	n/a
105.5245	0.12	211049	keystroke_t	t	n/a
105.6145	0.195	211229	keystroke_i	i	n/a
105.6895	0.135	211379	keystroke_o	o	n/a
105.7495	0.12	211499	keystroke_n	n	n/a
105.8395	0.135	211679	keystroke_a	a	n/a
105.9445	0.135	211889	keystroke_r	r	n/a
106.0645	0.105	212129	keystroke_y	y	n/a
106.0945	0.105	212189	keystroke_Key.space	Key.space	n/a
106.1545	0.135	212309	keystroke_a	a	n/a
106.3045	0.12	212609	keystroke_c	c	n/a
106.4095	0.165	212819	keystroke_i	i	n/a
106.5445	0.105	213089	keystroke_d	d	n/a
106.6195	0.12	213239	keystroke_s	s	n/a
106.7095	0.12	213419	keystroke_Key.space	Key.space	n/a
106.8595	0.105	213719	keystroke_c	c	n/a
106.9345	0.105	213869	keystroke_o	o	n/a
107.0245	0.075	214049	keystroke_m	m	n/a
107.1445	0.105	214289	keystroke_p	p	n/a
107.2195	0.105	214439	keystroke_u	u	n/a
107.2795	0.09	214559	keystroke_t	t	n/a
107.3395	0.135	214679	keystroke_e	e	n/a
107.4295	0.105	214859	keystroke_Key.space	Key.space	n/a
107.4895	0.12	214979	keystroke_r	r	n/a
107.5945	0.09	215189	keystroke_e	e	n/a
107.7595	0.15	215519	keystroke_s	s	n/a
107.8195	0.105	215639	keystroke_u	u	n/a
107.8645	0.12	215729	keystroke_l	l	n/a
107.9395	0.075	215879	keystroke_t	t	n/a
108.0595	0.09	216119	keystroke_s	s	n/a
108.1645	0.0895	216329	keystroke_Key.enter	Key.enter	n/a
108.26	3.731	216520	prompt	n/a	adverse relax consumer players\n
108.764	0.121	217528	keystroke_a	a	n/a
108.885	0.104	217770	keystroke_d	d	n/a
109.079	0.09	218158	keystroke_v	v	n/a
109.199	0.15	218398	keystroke_e	e	n/a
109.305	0.09	218610	keystroke_r	r	n/a
109.499	0.09	218998	keystroke_s	s	n/a
109.664	0.105	219328	keystroke_e	e	n/a
109.739	0.136	219478	keystroke_Key.space	Key.space	n/a
109.844	0.076	219688	keystroke_r	r	n/a
109.904	0.121	219808	keystroke_e	e	n/a
110.009	0.12	220018	keystroke_l	l	n/a
110.1	0.134	220200	keystroke_a	a	n/a
110.204	0.105	220408	keystroke_x	x	n/a
110.324	0.09	220648	keystroke_Key.space	Key.space	n/a
110.489	0.105	220978	keystroke_c	c	n/a
110.534	0.136	221068	keystroke_o	o	n/a
110.609	0.12	221218	keystroke_n	n	n/a
110.684	0.106	221368	keystroke_s	s	n/a
110.775	0.134	221550	keystroke_u	u	n/a
110.864	0.1055	221728	keystroke_m	m	n/a
110.925	0.0895	221850	keystroke_e	e	n/a
110.9845	0.09	221969	keystroke_r	r	n/a
111.0595	0.105	222119	keystroke_Key.space	Key.space	n/a
111.1495	0.075	222299	keystroke_p	p	n/a
111.3445	0.09	222689	keystroke_l	l	n/a
111.3895	0.105	222779	keystroke_a	a	n/a
111.4645	0.105	222929	keystroke_y	y	n/a
111.5545	0.12	223109	keystroke_e	e	n/a
111.6595	0.09	223319	keystroke_r	r	n/a
111.7795	0.12	223559	keystroke_s	s	n/a
111.8845	0.105	223769	keystroke_Key.enter	Key.enter	n/a
111.995	3.1165	223990	prompt	n/a	leone vids placing stick\n
112.6195	0.105	225239	keystroke_l	l	n/a
112.7395	0.105	225479	keystroke_e	e	n/a
112.8295	0.135	225659	keystroke_o	o	n/a
112.8895	0.135	225779	keystroke_n	n	n/a
113.0395	0.06	226079	keystroke_e	e	n/a
113.2795	0.105	226559	keystroke_Key.space	Key.space	n/a
113.3855	0.104	226771	keystroke_v	v	n/a
113.5045	0.12	227009	keystroke_i	i	n/a
113.5945	0.105	227189	keystroke_d	d	n/a
113.6545	0.12	227309	keystroke_s	s	n/a
113.7295	0.105	227459	keystroke_Key.space	Key.space	n/a
113.8195	0.135	227639	keystroke_p	p	n/a
113.9245	0.12	227849	keystroke_l	l	n/a
114.0295	0.09	228059	keystroke_a	a	n/a
114.0895	0.12	228179	keystroke_c	c	n/a
114.1795	0.105	228359	keystroke_i	i	n/a
114.2545	0.06	228509	keystroke_n	n	n/a
114.2995	0.075	228599	keystroke_g	g	n/a
114.4195	0.105	228839	keystroke_Key.space	Key.space	n/a
114.4645	0.135	228929	keystroke_s	s	n/a
114.5545	0.105	229109	keystroke_t	t	n/a
114.6445	0.09	229289	keystroke_i	i	n/a
114.7945	0.075	229589	keystroke_c	c	n/a
114.8545	0.06	229709	keystroke_k	k	n/a
115.0345	0.075	230069	keystroke_Key.enter	Key.enter	n/a
115.1185	3.2325	230237	prompt	n/a	partly instance longer boards\n
115.6195	0.105	231239	keystroke_p	p	n/a
115.7095	0.135	231419	keystroke_a	a	n/a
115.7845	0.09	231569	keystroke_r	r	n/a
115.9495	0.09	231899	keystroke_t	t	n/a
116.0095	0.135	232019	keystroke_l	l	n/a
116.0845	0.105	232169	keystroke_y	y	n/a
116.1295	0.075	232259	keystroke_Key.space	Key.space	n/a
116.2645	0.12	232529	keystroke_i	i	n/a
116.3245	0.12	232649	keystroke_n	n	n/a
116.3545	0.165	232709	keystroke_s	s	n/a
116.4745	0.105	232949	keystroke_t	t	n/a
116.5645	0.12	233129	keystroke_a	a	n/a
116.6995	0.075	233399	keystroke_n	n	n/a
116.8045	0.105	233609	keystroke_c	c	n/a
116.8945	0.09	233789	keystroke_e	e	n/a
116.9245	0.12	233849	keystroke_Key.space	Key.space	n/a
117.0145	0.075	234029	keystroke_l	l	n/a
117.1945	0.075	234389	keystroke_o	o	n/a
117.2245	0.12	234449	keystroke_n	n	n/a
117.2845	0.075	234569	keystroke_g	g	n/a
117.3895	0.15	234779	keystroke_e	e	n/a
117.4945	0.105	234989	keystroke_r	r	n/a
117.5845	0.12	235169	keystroke_Key.space	Key.space	n/a
117.6595	0.075	235319	keystroke_b	b	n/a
117.8245	0.12	235649	keystroke_o	o	n/a
117.8845	0.12	235769	keystroke_a	a	n/a
117.9455	0.089	235891	keystroke_r	r	n/a
118.1395	0.09	236279	keystroke_d	d	n/a
118.1995	0.09	236399	keystroke_s	s	n/a
118.2745	0.075	236549	keystroke_Key.enter	Key.enter	n/a
118.3545	4.272	236709	prompt	n/a	becomes spatial collectible steam\n
118.9945	0.075	237989	keystroke_b	b	n/a
119.0845	0.12	238169	keystroke_e	e	n/a
119.2195	0.12	238439	keystroke_c	c	n/a
119.2795	0.12	238559	keystroke_o	o	n/a
119.3545	0.09	238709	keystroke_m	m	n/a
119.4295	0.075	238859	keystroke_e	e	n/a
119.5795	0.09	239159	keystroke_s	s	n/a
119.6545	0.09	239309	keystroke_Key.space	Key.space	n/a
119.7595	0.105	239519	keystroke_s	s	n/a
119.9245	0.105	239849	keystroke_p	p	n/a
120.0445	0.15	240089	keystroke_a	a	n/a
120.1795	0.105	240359	keystroke_t	t	n/a
120.2695	0.09	240539	keystroke_i	i	n/a
120.3755	0.1185	240751	keystroke_a	a	n/a
120.465	0.104	240930	keystroke_l	l	n/a
120.584	0.075	241168	keystroke_Key.space	Key.space	n/a
120.84	0.119	241680	keystroke_c	c	n/a
120.9	0.074	241800	keystroke_o	o	n/a
121.079	0.046	242158	keystroke_l	l	n/a
121.2	0.105	242400	keystroke_l	l	n/a
121.229	0.121	242458	keystroke_e	e	n/a
121.29	0.089	242580	keystroke_c	c	n/a
121.485	0.105	242970	keystroke_t	t	n/a
121.56	0.135	243120	keystroke_i	i	n/a
121.664	0.12	243328	keystroke_b	b	n/a
121.74	0.135	243480	keystroke_l	l	n/a
121.845	0.09	243690	keystroke_e	e	n/a
121.95	0.074	243900	keystroke_Key.space	Key.space	n/a
122.039	0.12	244078	keystroke_s	s	n/a
122.19	0.12	244380	keystroke_t	t	n/a
122.279	0.121	244558	keystroke_e	e	n/a
122.31	0.135	244620	keystroke_a	a	n/a
122.385	0.12	244770	keystroke_m	m	n/a
122.52	0.104	245040	keystroke_Key.enter	Key.enter	n/a
122.63	4.271	245260	prompt	n/a	tones cams education stick\n
123.225	0.104	246450	keystroke_t	t	n/a
123.3	0.119	246600	keystroke_o	o	n/a
123.345	0.104	246690	keystroke_n	n	n/a
123.435	0.075	246870	keystroke_e	e	n/a
123.585	0.12	247170	keystroke_s	s	n/a
123.689	0.106	247378	keystroke_Key.space	Key.space	n/a
123.824	0.121	247648	keystroke_c	c	n/a
123.914	0.15	247828	keystroke_a	a	n/a
124.065	0.089	248130	keystroke_m	m	n/a
124.185	0.12	248370	keystroke_s	s	n/a
124.425	0.12	248850	keystroke_Key.space	Key.space	n/a
124.605	0.134	249210	keystroke_e	e	n/a
124.725	0.21	249450	keystroke_d	d	n/a
124.98	0.104	249960	keystroke_u	u	n/a
125.07	0.105	250140	keystroke_c	c	n/a
125.145	0.164	250290	keystroke_a	a	n/a
125.325	0.104	250650	keystroke_t	t	n/a
125.385	0.149	250770	keystroke_i	i	n/a
125.445	0.119	250890	keystroke_o	o	n/a
125.52	0.06	251040	keystroke_n	n	n/a
125.699	0.121	251398	keystroke_Key.space	Key.space	n/a
125.759	0.15	251518	keystroke_s	s	n/a
125.865	0.105	251730	keystroke_t	t	n/a
125.939	0.091	251878	keystroke_i	i	n/a
126.15	0.15	252300	keystroke_c	c	n/a
126.239	0.091	252478	keystroke_k	k	n/a
126.78	0.119	253560	keystroke_Key.enter	Key.enter	n/a
126.906	5.696	253812	prompt	n/a	cardiff withdrawal accessibility facilities\n
127.575	0.105	255150	keystroke_c	c	n/a
127.695	0.134	255390	keystroke_a	a	n/a
127.814	0.106	255628	keystroke_r	r	n/a
128.01	0.105	256020	keystroke_d	d	n/a
128.13	0.105	256260	keystroke_i	i	n/a
128.25	0.075	256500	keystroke_f	f	n/a
128.4	0.075	256800	keystroke_f	f	n/a
128.489	0.075	256978	keystroke_Key.space	Key.space	n/a
128.61	0.105	257220	keystroke_w	w	n/a
128.715	0.09	257430	keystroke_i	i	n/a
128.79	0.09	257580	keystroke_t	t	n/a
128.909	0.105	257818	keystroke_h	h	n/a
129.045	0.075	258090	keystroke_d	d	n/a
129.209	0.106	258418	keystroke_r	r	n/a
129.285	0.135	258570	keystroke_a	a	n/a
129.404	0.106	258808	keystroke_w	w	n/a
129.48	0.15	258960	keystroke_a	a	n/a
129.614	0.135	259228	keystroke_l	l	n/a
129.765	0.134	259530	keystroke_Key.space	Key.space	n/a
129.855	0.165	259710	keystroke_a	a	n/a
129.99	0.089	259980	keystroke_c	c	n/a
130.154	0.091	260308	keystroke_c	c	n/a
130.229	0.105	260458	keystroke_e	e	n/a
130.41	0.075	260820	keystroke_s	s	n/a
130.559	0.061	261118	keystroke_s	s	n/a
130.605	0.15	261210	keystroke_i	i	n/a
130.71	0.135	261420	keystroke_b	b	n/a
130.86	0.105	261720	keystroke_i	i	n/a
130.95	0.165	261900	keystroke_l	l	n/a
131.054	0.105	262108	keystroke_i	i	n/a
131.13	0.104	262260	keystroke_t	t	n/a
131.22	0.105	262440	keystroke_y	y	n/a
131.294	0.136	262588	keystroke_Key.space	Key.space	n/a
131.385	0.105	262770	keystroke_f	f	n/a
131.46	0.165	262920	keystroke_a	a	n/a
131.595	0.12	263190	keystroke_c	c	n/a
131.7	0.105	263400	keystroke_i	i	n/a
131.76	0.165	263520	keystroke_l	l	n/a
131.895	0.09	263790	keystroke_i	i	n/a
132	0.12	264000	keystroke_t	t	n/a
132.12	0.09	264240	keystroke_i	i	n/a
132.21	0.089	264420	keystroke_e	e	n/a
132.405	0.075	264810	keystroke_s	s	n/a
132.54	0.06	265080	keystroke_Key.enter	Key.enter	n/a
132.608	5.573	265216	prompt	n/a	notifications investor mats helpful\n
133.725	0.15	267450	keystroke_n	n	n/a
133.875	0.075	267750	keystroke_o	o	n/a
133.935	0.105	267870	keystroke_t	t	n/a
134.265	0.09	268530	keystroke_i	i	n/a
134.4	0.09	268800	keystroke_f	f	n/a
134.505	0.09	269010	keystroke_i	i	n/a
134.61	0.105	269220	keystroke_c	c	n/a
134.7	0.165	269400	keystroke_a	a	n/a
134.85	0.09	269700	keystroke_t	t	n/a
134.91	0.15	269820	keystroke_i	i	n/a
134.955	0.165	269910	keystroke_o	o	n/a
135.03	0.105	270060	keystroke_n	n	n/a
135.075	0.075	270150	keystroke_s	s	n/a
135.225	0.089	270450	keystroke_Key.space	Key.space	n/a
135.345	0.12	270690	keystroke_i	i	n/a
135.435	0.09	270870	keystroke_n	n	n/a
135.51	0.09	271020	keystroke_v	v	n/a
135.555	0.105	271110	keystroke_e	e	n/a
135.75	0.135	271500	keystroke_s	s	n/a
135.885	0.09	271770	keystroke_t	t	n/a
135.945	0.12	271890	keystroke_o	o	n/a
136.08	0.09	272160	keystroke_r	r	n/a
136.125	0.105	272250	keystroke_y	y	n/a
136.2	0.075	272400	keystroke_Key.space	Key.space	n/a
136.41	0.09	272820	keystroke_m	m	n/a
136.485	0.135	272970	keystroke_a	a	n/a
136.59	0.075	273180	keystroke_t	t	n/a
136.725	0.105	273450	keystroke_s	s	n/a
136.8	0.15	273600	keystroke_Key.space	Key.space	n/a
136.965	0.105	273930	keystroke_h	h	n/a
137.1	0.09	274200	keystroke_e	e	n/a
137.205	0.075	274410	keystroke_l	l	n/a
137.4	0.09	274800	keystroke_p	p	n/a
137.52	0.09	275040	keystroke_f	f	n/a
137.625	0.075	275250	keystroke_u	u	n/a
137.67	0.135	275340	keystroke_l	l	n/a
138.075	0.105	276150	keystroke_Key.enter	Key.enter	n/a
138.186	4.195	276372	prompt	n/a	monitoring publicly depth april\n
138.75	0.12	277500	keystroke_m	m	n/a
138.825	0.12	277650	keystroke_o	o	n/a
138.96	0.12	277920	keystroke_n	n	n/a
139.035	0.12	278070	keystroke_i	i	n/a
139.11	0.09	278220	keystroke_t	t	n/a
139.215	0.105	278430	keystroke_o	o	n/a
139.305	0.105	278610	keystroke_r	r	n/a
139.38	0.12	278760	keystroke_i	i	n/a
139.47	0.135	278940	keystroke_n	n	n/a
139.53	0.06	279060	keystroke_g	g	n/a
139.875	0.09	279750	keystroke_Key.space	Key.space	n/a
139.995	0.105	279990	keystroke_p	p	n/a
140.145	0.15	280290	keystroke_u	u	n/a
140.28	0.135	280560	keystroke_b	b	n/a
140.43	0.15	280860	keystroke_l	l	n/a
140.535	0.105	281070	keystroke_i	i	n/a
140.625	0.105	281250	keystroke_c	c	n/a
140.745	0.12	281490	keystroke_l	l	n/a
140.82	0.105	281640	keystroke_y	y	n/a
140.895	0.135	281790	keystroke_Key.space	Key.space	n/a
141.015	0.135	282030	keystroke_d	d	n/a
141.105	0.105	282210	keystroke_e	e	n/a
141.18	0.075	282360	keystroke_p	p	n/a
141.3	0.105	282600	keystroke_t	t	n/a
141.375	0.09	282750	keystroke_h	h	n/a
141.45	0.105	282900	keystroke_Key.space	Key.space	n/a
141.57	0.135	283140	keystroke_a	a	n/a
141.675	0.12	283350	keystroke_p	p	n/a
141.78	0.09	283560	keystroke_r	r	n/a
141.9	0.15	283800	keystroke_i	i	n/a
142.02	0.105	284040	keystroke_l	l	n/a
142.29	0.09	284580	keystroke_Key.enter	Key.enter	n/a
142.3855	3.4605	284771	prompt	n/a	aqua patrick costs flame\n
142.9945	0.09	285989	keystroke_a	a	n/a
143.2045	0.105	286409	keystroke_q	q	n/a
143.34	0.0895	286680	keystroke_u	u	n/a
143.4745	0.09	286949	keystroke_a	a	n/a
143.5645	0.135	287129	keystroke_Key.space	Key.space	n/a
143.6845	0.12	287369	keystroke_p	p	n/a
143.7595	0.135	287519	keystroke_a	a	n/a
143.8645	0.09	287729	keystroke_t	t	n/a
144.0295	0.105	288059	keystroke_r	r	n/a
144.1195	0.06	288239	keystroke_i	i	n/a
144.2545	0.105	288509	keystroke_c	c	n/a
144.3145	0.105	288629	keystroke_k	k	n/a
144.3895	0.12	288779	keystroke_Key.space	Key.space	n/a
144.5395	0.135	289079	keystroke_c	c	n/a
144.7045	0.105	289409	keystroke_o	o	n/a
144.7795	0.165	289559	keystroke_s	s	n/a
144.9145	0.105	289829	keystroke_t	t	n/a
145.0345	0.12	290069	keystroke_s	s	n/a
145.1395	0.105	290279	keystroke_Key.space	Key.space	n/a
145.2595	0.09	290519	keystroke_f	f	n/a
145.3345	0.105	290669	keystroke_l	l	n/a
145.4245	0.09	290849	keystroke_a	a	n/a
145.4995	0.09	290999	keystroke_m	m	n/a
145.5895	0.09	291179	keystroke_e	e	n/a
145.7395	0.105	291479	keystroke_Key.enter	Key.enter	n/a
145.852	5.409	291704	prompt	n/a	updates exercise memories diagnosis\n
146.5645	0.105	293129	keystroke_u	u	n/a
146.6845	0.135	293369	keystroke_p	p	n/a
146.8045	0.105	293609	keystroke_d	d	n/a
146.8945	0.135	293789	keystroke_a	a	n/a
147.0145	0.105	294029	keystroke_t	t	n/a
147.0895	0.105	294179	keystroke_e	e	n/a
147.2695	0.12	294539	keystroke_s	s	n/a
147.3595	0.12	294719	keystroke_Key.space	Key.space	n/a
147.4945	0.09	294989	keystroke_e	e	n/a
147.7045	0.09	295409	keystroke_x	x	n/a
147.8695	0.135	295739	keystroke_e	e	n/a
147.9745	0.09	295949	keystroke_r	r	n/a
148.1695	0.105	296339	keystroke_c	c	n/a
148.2445	0.12	296489	keystroke_i	i	n/a
148.3645	0.09	296729	keystroke_s	s	n/a
148.5595	0.09	297119	keystroke_e	e	n/a
148.6195	0.09	297239	keystroke_Key.space	Key.space	n/a
148.8445	0.075	297689	keystroke_m	m	n/a
148.9345	0.105	297869	keystroke_e	e	n/a
149.0245	0.09	298049	keystroke_m	m	n/a
149.0545	0.15	298109	keystroke_o	o	n/a
149.2195	0.135	298439	keystroke_r	r	n/a
149.4445	0.12	298889	keystroke_i	i	n/a
149.5495	0.105	299099	keystroke_e	e	n/a
149.7295	0.12	299459	keystroke_s	s	n/a
149.8345	0.105	299669	keystroke_Key.space	Key.space	n/a
150.0295	0.12	300059	keystroke_d	d	n/a
150.1795	0.09	300359	keystroke_i	i	n/a
150.2845	0.12	300569	keystroke_a	a	n/a
150.4645	0.075	300929	keystroke_g	g	n/a
150.5545	0.12	301109	keystroke_n	n	n/a
150.6445	0.165	301289	keystroke_o	o	n/a
150.7645	0.09	301529	keystroke_s	s	n/a
150.8395	0.105	301679	keystroke_i	i	n/a
150.9595	0.06	301919	keystroke_s	s	n/a
151.1545	0.105	302309	keystroke_Key.enter	Key.enter	n/a
151.2645	3.8065	302529	prompt	n/a	heat grants situated counted\n
151.9495	0.03	303899	keystroke_h	h	n/a
151.9645	0.165	303929	keystroke_e	e	n/a
151.9945	0.12	303989	keystroke_a	a	n/a
152.0995	0.12	304199	keystroke_t	t	n/a
152.2645	0.12	304529	keystroke_Key.space	Key.space	n/a
152.3995	0.075	304799	keystroke_g	g	n/a
152.5795	0.105	305159	keystroke_r	r	n/a
152.6395	0.15	305279	keystroke_a	a	n/a
152.7295	0.12	305459	keystroke_n	n	n/a
152.8045	0.09	305609	keystroke_t	t	n/a
152.9395	0.12	305879	keystroke_s	s	n/a
153.1045	0.105	306209	keystroke_Key.space	Key.space	n/a
153.2395	0.12	306479	keystroke_s	s	n/a
153.3445	0.09	306689	keystroke_i	i	n/a
153.4945	0.135	306989	keystroke_t	t	n/a
153.6895	0.12	307379	keystroke_u	u	n/a
153.8245	0.105	307649	keystroke_a	a	n/a
153.9145	0.105	307829	keystroke_t	t	n/a
154.0045	0.165	308009	keystroke_e	e	n/a
154.1245	0.15	308249	keystroke_d	d	n/a
154.2295	0.09	308459	keystroke_Key.space	Key.space	n/a
154.3645	0.12	308729	keystroke_c	c	n/a
154.4545	0.135	308909	keystroke_o	o	n/a
154.5145	0.105	309029	keystroke_u	u	n/a
154.5445	0.105	309089	keystroke_n	n	n/a
154.6345	0.09	309269	keystroke_t	t	n/a
154.7395	0.135	309479	keystroke_e	e	n/a
154.8295	0.12	309659	keystroke_d	d	n/a
154.9645	0.105	309929	keystroke_Key.enter	Key.enter	n/a
155.075	5.036	310150	prompt	n/a	peninsula yard shuttle enhancements\n
155.8345	0.12	311669	keystroke_p	p	n/a
155.9845	0.135	311969	keystroke_e	e	n/a
156.0895	0.12	312179	keystroke_n	n	n/a
156.1945	0.15	312389	keystroke_i	i	n/a
156.3145	0.105	312629	keystroke_n	n	n/a
156.4195	0.12	312839	keystroke_s	s	n/a
156.5245	0.135	313049	keystroke_u	u	n/a
156.6145	0.135	313229	keystroke_l	l	n/a
156.7345	0.09	313469	keystroke_a	a	n/a
156.8995	0.12	313799	keystroke_Key.space	Key.space	n/a
157.3045	0.09	314609	keystroke_y	y	n/a
157.3645	0.12	314729	keystroke_a	a	n/a
157.4545	0.09	314909	keystroke_r	r	n/a
157.6495	0.09	315299	keystroke_d	d	n/a
157.7395	0.135	315479	keystroke_Key.space	Key.space	n/a
157.8895	0.12	315779	keystroke_s	s	n/a
157.9945	0.09	315989	keystroke_h	h	n/a
158.0545	0.105	316109	keystroke_u	u	n/a
158.1145	0.075	316229	keystroke_t	t	n/a
158.2495	0.105	316499	keystroke_t	t	n/a
158.3095	0.12	316619	keystroke_l	l	n/a
158.4145	0.12	316829	keystroke_e	e	n/a
158.5195	0.105	317039	keystroke_Key.space	Key.space	n/a
158.6395	0.12	317279	keystroke_e	e	n/a
158.7445	0.12	317489	keystroke_n	n	n/a
158.8945	0.09	317789	keystroke_h	h	n/a
158.9695	0.12	317939	keystroke_a	a	n/a
159.1045	0.09	318209	keystroke_n	n	n/a
159.1795	0.135	318359	keystroke_c	c	n/a
159.2995	0.09	318599	keystroke_e	e	n/a
159.3895	0.105	318779	keystroke_m	m	n/a
159.4795	0.165	318959	keystroke_e	e	n/a
159.6145	0.105	319229	keystroke_n	n	n/a
159.7345	0.075	319469	keystroke_t	t	n/a
159.8845	0.105	319769	keystroke_s	s	n/a
160.0195	0.09	320039	keystroke_Key.enter	Key.enter	n/a
160.1155	4.706	320231	prompt	n/a	mechanisms molecules plan talking\n
161.0845	0.09	322169	keystroke_m	m	n/a
161.1595	0.135	322319	keystroke_e	e	n/a
161.2795	0.12	322559	keystroke_c	c	n/a
161.3545	0.075	322709	keystroke_h	h	n/a
161.4445	0.105	322889	keystroke_a	a	n/a
161.5195	0.12	323039	keystroke_n	n	n/a
161.5795	0.135	323159	keystroke_i	i	n/a
161.6545	0.075	323309	keystroke_s	s	n/a
161.7745	0.09	323549	keystroke_m	m	n/a
161.8495	0.09	323699	keystroke_s	s	n/a
161.9545	0.075	323909	keystroke_Key.space	Key.space	n/a
162.1645	0.135	324329	keystroke_m	m	n/a
162.2395	0.105	324479	keystroke_o	o	n/a
162.4645	0.105	324929	keystroke_l	l	n/a
162.5095	0.135	325019	keystroke_e	e	n/a
162.6455	0.134	325291	keystroke_c	c	n/a
162.7345	0.165	325469	keystroke_u	u	n/a
162.8245	0.105	325649	keystroke_l	l	n/a
162.8545	0.12	325709	keystroke_e	e	n/a
163.1695	0.12	326339	keystroke_s	s	n/a
163.3645	0.105	326729	keystroke_Key.space	Key.space	n/a
163.4845	0.105	326969	keystroke_p	p	n/a
163.6645	0.12	327329	keystroke_l	l	n/a
163.7395	0.105	327479	keystroke_a	a	n/a
163.7995	0.105	327599	keystroke_n	n	n/a
163.9795	0.12	327959	keystroke_Key.space	Key.space	n/a
164.0545	0.105	328109	keystroke_t	t	n/a
164.1445	0.135	328289	keystroke_a	a	n/a
164.1895	0.105	328379	keystroke_l	l	n/a
164.2195	0.09	328439	keystroke_k	k	n/a
164.4595	0.045	328919	keystroke_i	i	n/a
164.4745	0.09	328949	keystroke_n	n	n/a
164.5195	0.06	329039	keystroke_g	g	n/a
164.7445	0.075	329489	keystroke_Key.enter	Key.enter	n/a
164.826	5.23	329652	prompt	n/a	axis introductory wire everyone's\n
165.3745	0.105	330749	keystroke_a	a	n/a
165.5845	0.12	331169	keystroke_x	x	n/a
165.7345	0.105	331469	keystroke_i	i	n/a
165.8545	0.075	331709	keystroke_s	s	n/a
165.9445	0.09	331889	keystroke_Key.space	Key.space	n/a
166.1095	0.135	332219	keystroke_i	i	n/a
166.2145	0.105	332429	keystroke_n	n	n/a
166.2895	0.09	332579	keystroke_t	t	n/a
166.4695	0.105	332939	keystroke_r	r	n/a
166.5295	0.12	333059	keystroke_o	o	n/a
166.6795	0.105	333359	keystroke_d	d	n/a
166.7545	0.105	333509	keystroke_u	u	n/a
166.9195	0.12	333839	keystroke_c	c	n/a
167.2345	0.09	334469	keystroke_t	t	n/a
167.3545	0.12	334709	keystroke_o	o	n/a
167.4595	0.09	334919	keystroke_r	r	n/a
167.5795	0.09	335159	keystroke_y	y	n/a
167.6545	0.075	335309	keystroke_Key.space	Key.space	n/a
167.7895	0.12	335579	keystroke_w	w	n/a
167.9245	0.075	335849	keystroke_i	i	n/a
167.9695	0.135	335939	keystroke_r	r	n/a
168.0745	0.135	336149	keystroke_e	e	n/a
168.1795	0.105	336359	keystroke_Key.space	Key.space	n/a
168.3145	0.165	336629	keystroke_e	e	n/a
168.4495	0.105	336899	keystroke_v	v	n/a
168.5845	0.135	337169	keystroke_e	e	n/a
168.6895	0.105	337379	keystroke_r	r	n/a
168.8245	0.12	337649	keystroke_y	y	n/a
168.8995	0.15	337799	keystroke_o	o	n/a
168.9895	0.105	337979	keystroke_n	n	n/a
169.1095	0.075	338219	keystroke_e	e	n/a
169.7095	0.045	339419	keystroke_'	'	n/a
169.7695	0.075	339539	keystroke_s	s	n/a
169.9495	0.105	339899	keystroke_Key.enter	Key.enter	n/a
170.063	13.7035	340126	prompt	n/a	hint they'll listprice shine\n
171.3595	0.06	342719	keystroke_h	h	n/a
171.5245	0.12	343049	keystroke_i	i	n/a
171.5995	0.09	343199	keystroke_n	n	n/a
171.6455	0.104	343291	keystroke_t	t	n/a
171.9445	0.015	343889	keystroke_Key.space	Key.space	n/a
172.0795	0.075	344159	keystroke_t	t	n/a
172.2145	0.06	344429	keystroke_h	h	n/a
172.3495	0.045	344699	keystroke_e	e	n/a
172.9645	0.075	345929	keystroke_'	'	n/a
173.1895	0.06	346379	keystroke_l	l	n/a
173.3245	0.09	346649	keystroke_l	l	n/a
173.4895	0.15	346979	keystroke_Key.space	Key.space	n/a
173.7445	0.09	347489	keystroke_l	l	n/a
174.2395	0.135	348479	keystroke_i	i	n/a
174.3295	0.165	348659	keystroke_s	s	n/a
174.4495	0.12	348899	keystroke_t	t	n/a
174.5545	0.12	349109	keystroke_p	p	n/a
174.6445	0.105	349289	keystroke_r	r	n/a
174.7645	0.075	349529	keystroke_i	i	n/a
174.8845	0.135	349769	keystroke_c	c	n/a
174.9595	0.135	349919	keystroke_e	e	n/a
175.1095	0.105	350219	keystroke_Key.space	Key.space	n/a
175.2445	0.09	350489	keystroke_s	s	n/a
175.3195	0.15	350639	keystroke_h	h	n/a
175.3795	0.15	350759	keystroke_i	i	n/a
175.4695	0.09	350939	keystroke_n	n	n/a
175.5445	0.075	351089	keystroke_e	e	n/a
176.6095	0.075	353219	keystroke_Key.backspace	Key.backspace	n/a
176.7895	0.045	353579	keystroke_Key.backspace	Key.backspace	n/a
176.9395	0.06	353879	keystroke_Key.backspace	Key.backspace	n/a
177.0895	0.06	354179	keystroke_Key.backspace	Key.backspace	n/a
177.2395	0.06	354479	keystroke_Key.backspace	Key.backspace	n/a
177.3895	0.06	354779	keystroke_Key.backspace	Key.backspace	n/a
177.5395	0.06	355079	keystroke_Key.backspace	Key.backspace	n/a
177.6895	0.045	355379	keystroke_Key.backspace	Key.backspace	n/a
177.8395	0.045	355679	keystroke_Key.backspace	Key.backspace	n/a
177.9745	0.06	355949	keystroke_Key.backspace	Key.backspace	n/a
178.1245	0.06	356249	keystroke_Key.backspace	Key.backspace	n/a
178.2745	0.075	356549	keystroke_Key.backspace	Key.backspace	n/a
178.4695	0.03	356939	keystroke_Key.backspace	Key.backspace	n/a
178.6045	0.075	357209	keystroke_Key.backspace	Key.backspace	n/a
178.7695	0.06	357539	keystroke_Key.backspace	Key.backspace	n/a
178.9195	0.075	357839	keystroke_Key.backspace	Key.backspace	n/a
179.0995	0.075	358199	keystroke_Key.backspace	Key.backspace	n/a
179.2795	0.06	358559	keystroke_Key.backspace	Key.backspace	n/a
179.5045	0.09	359009	keystroke_Key.backspace	Key.backspace	n/a
180.3745	0.03	360749	keystroke_y	y	n/a
180.9595	0.075	361919	keystroke_'	'	n/a
181.7845	0.075	363569	keystroke_l	l	n/a
181.9345	0.135	363869	keystroke_l	l	n/a
182.0705	0.119	364141	keystroke_Key.space	Key.space	n/a
182.2045	0.09	364409	keystroke_l	l	n/a
182.2795	0.105	364559	keystroke_i	i	n/a
182.3095	0.15	364619	keystroke_s	s	n/a
182.4295	0.12	364859	keystroke_t	t	n/a
182.5195	0.105	365039	keystroke_p	p	n/a
182.6395	0.105	365279	keystroke_r	r	n/a
182.7295	0.09	365459	keystroke_i	i	n/a
182.8795	0.12	365759	keystroke_c	c	n/a
182.9695	0.12	365939	keystroke_e	e	n/a
183.0145	0.135	366029	keystroke_Key.space	Key.space	n/a
183.1795	0.105	366359	keystroke_s	s	n/a
183.2245	0.15	366449	keystroke_h	h	n/a
183.2995	0.12	366599	keystroke_i	i	n/a
183.3895	0.105	366779	keystroke_n	n	n/a
183.4655	0.089	366931	keystroke_e	e	n/a
183.6745	0.09	367349	keystroke_Key.enter	Key.enter	n/a
183.772	3.3245	367544	prompt	n/a	arcade food tony lafayette\n
184.2745	0.12	368549	keystroke_a	a	n/a
184.3645	0.105	368729	keystroke_r	r	n/a
184.5745	0.12	369149	keystroke_c	c	n/a
184.6795	0.12	369359	keystroke_a	a	n/a
184.8005	0.104	369601	keystroke_d	d	n/a
184.8595	0.12	369719	keystroke_e	e	n/a
184.9495	0.12	369899	keystroke_Key.space	Key.space	n/a
185.0395	0.105	370079	keystroke_f	f	n/a
185.1455	0.074	370291	keystroke_o	o	n/a
185.3095	0.06	370619	keystroke_o	o	n/a
185.4445	0.12	370889	keystroke_d	d	n/a
185.5795	0.09	371159	keystroke_Key.space	Key.space	n/a
185.6845	0.09	371369	keystroke_t	t	n/a
185.7445	0.105	371489	keystroke_o	o	n/a
185.8195	0.105	371639	keystroke_n	n	n/a
185.9095	0.105	371819	keystroke_y	y	n/a
186.0145	0.135	372029	keystroke_Key.space	Key.space	n/a
186.1345	0.135	372269	keystroke_l	l	n/a
186.2095	0.105	372419	keystroke_a	a	n/a
186.2995	0.12	372599	keystroke_f	f	n/a
186.3895	0.105	372779	keystroke_a	a	n/a
186.4795	0.075	372959	keystroke_y	y	n/a
186.5845	0.15	373169	keystroke_e	e	n/a
186.6745	0.075	373349	keystroke_t	t	n/a
186.8245	0.075	373649	keystroke_t	t	n/a
186.8845	0.105	373769	keystroke_e	e	n/a
186.9745	0.12	373949	keystroke_Key.enter	Key.enter	n/a
187.101	5.0205	374202	prompt	n/a	bulk alarm infrastructure wedding\n
187.6945	0.12	375389	keystroke_b	b	n/a
187.9945	0.105	375989	keystroke_u	u	n/a
188.0845	0.18	376169	keystroke_l	l	n/a
188.2495	0.12	376499	keystroke_k	k	n/a
188.3705	0.104	376741	keystroke_Key.space	Key.space	n/a
188.5045	0.105	377009	keystroke_a	a	n/a
188.5945	0.12	377189	keystroke_l	l	n/a
188.6995	0.135	377399	keystroke_a	a	n/a
188.8195	0.105	377639	keystroke_r	r	n/a
188.8795	0.105	377759	keystroke_m	m	n/a
189.0895	0.12	378179	keystroke_Key.space	Key.space	n/a
189.2995	0.09	378599	keystroke_i	i	n/a
189.3595	0.106	378719	keystroke_n	n	n/a
189.4795	0.06	378959	keystroke_f	f	n/a
189.6595	0.09	379319	keystroke_r	r	n/a
189.7645	0.135	379529	keystroke_a	a	n/a
190.0045	0.12	380009	keystroke_s	s	n/a
190.1395	0.09	380279	keystroke_t	t	n/a
190.3195	0.075	380639	keystroke_r	r	n/a
190.4245	0.12	380849	keystroke_u	u	n/a
190.5295	0.09	381059	keystroke_c	c	n/a
190.7245	0.09	381449	keystroke_t	t	n/a
190.7995	0.075	381599	keystroke_u	u	n/a
190.9195	0.075	381839	keystroke_r	r	n/a
190.9645	0.135	381929	keystroke_e	e	n/a
191.0695	0.12	382139	keystroke_Key.space	Key.space	n/a
191.1745	0.105	382349	keystroke_w	w	n/a
191.3695	0.105	382739	keystroke_e	e	n/a
191.4595	0.075	382919	keystroke_d	d	n/a
191.6095	0.12	383219	keystroke_d	d	n/a
191.6995	0.09	383399	keystroke_i	i	n/a
191.7445	0.12	383489	keystroke_n	n	n/a
191.8795	0.06	383759	keystroke_g	g	n/a
192.0445	0.075	384089	keystroke_Key.enter	Key.enter	n/a
192.1255	3.806	384251	prompt	n/a	liked attached juice charlotte\n
192.7195	0.165	385439	keystroke_l	l	n/a
192.8245	0.075	385649	keystroke_i	i	n/a
193.0045	0.09	386009	keystroke_k	k	n/a
193.0345	0.15	386069	keystroke_e	e	n/a
193.1245	0.135	386249	keystroke_d	d	n/a
193.1995	0.12	386399	keystroke_Key.space	Key.space	n/a
193.3045	0.105	386609	keystroke_a	a	n/a
193.3795	0.09	386759	keystroke_t	t	n/a
193.5145	0.12	387029	keystroke_t	t	n/a
193.6195	0.15	387239	keystroke_a	a	n/a
193.7845	0.105	387569	keystroke_c	c	n/a
193.9045	0.09	387809	keystroke_h	h	n/a
193.9495	0.1655	387899	keystroke_e	e	n/a
194.0545	0.1205	388109	keystroke_d	d	n/a
194.19	0.09	388380	keystroke_Key.space	Key.space	n/a
194.265	0.075	388530	keystroke_j	j	n/a
194.43	0.134	388860	keystroke_u	u	n/a
194.505	0.12	389010	keystroke_i	i	n/a
194.58	0.12	389160	keystroke_c	c	n/a
194.64	0.12	389280	keystroke_e	e	n/a
194.714	0.136	389428	keystroke_Key.space	Key.space	n/a
194.895	0.104	389790	keystroke_c	c	n/a
195.015	0.06	390030	keystroke_h	h	n/a
195.059	0.12	390118	keystroke_a	a	n/a
195.15	0.105	390300	keystroke_r	r	n/a
195.225	0.075	390450	keystroke_l	l	n/a
195.39	0.09	390780	keystroke_o	o	n/a
195.42	0.09	390840	keystroke_t	t	n/a
195.585	0.105	391170	keystroke_t	t	n/a
195.705	0.105	391410	keystroke_e	e	n/a
195.84	0.09	391680	keystroke_Key.enter	Key.enter	n/a
195.9365	3.535	391873	prompt	n/a	wings amazon bother clearly\n
196.47	0.105	392940	keystroke_w	w	n/a
196.53	0.135	393060	keystroke_i	i	n/a
196.62	0.105	393240	keystroke_n	n	n/a
196.695	0.075	393390	keystroke_g	g	n/a
196.86	0.105	393720	keystroke_s	s	n/a
196.92	0.105	393840	keystroke_Key.space	Key.space	n/a
197.04	0.105	394080	keystroke_a	a	n/a
197.159	0.106	394318	keystroke_m	m	n/a
197.234	0.196	394468	keystroke_a	a	n/a
197.37	0.135	394740	keystroke_z	z	n/a
197.49	0.09	394980	keystroke_o	o	n/a
197.52	0.09	395040	keystroke_n	n	n/a
197.7	0.12	395400	keystroke_Key.space	Key.space	n/a
197.805	0.06	395610	keystroke_b	b	n/a
197.97	0.075	395940	keystroke_o	o	n/a
197.985	0.075	395970	keystroke_t	t	n/a
198.225	0.075	396450	keystroke_h	h	n/a
198.42	0.12	396840	keystroke_e	e	n/a
198.495	0.105	396990	keystroke_r	r	n/a
198.585	0.12	397170	keystroke_Key.space	Key.space	n/a
198.72	0.134	397440	keystroke_c	c	n/a
198.84	0.06	397680	keystroke_l	l	n/a
198.915	0.135	397830	keystroke_e	e	n/a
198.945	0.12	397890	keystroke_a	a	n/a
199.004	0.091	398008	keystroke_r	r	n/a
199.05	0.105	398100	keystroke_l	l	n/a
199.125	0.09	398250	keystroke_y	y	n/a
199.38	0.09	398760	keystroke_Key.enter	Key.enter	n/a
199.475	6.1915	398950	prompt	n/a	improvements verified indigenous increasing\n
200.1	0.135	400200	keystroke_i	i	n/a
200.205	0.15	400410	keystroke_m	m	n/a
200.325	0.12	400650	keystroke_p	p	n/a
200.415	0.105	400830	keystroke_r	r	n/a
200.505	0.12	401010	keystroke_o	o	n/a
200.625	0.105	401250	keystroke_v	v	n/a
200.7	0.105	401400	keystroke_e	e	n/a
200.775	0.075	401550	keystroke_m	m	n/a
200.88	0.135	401760	keystroke_e	e	n/a
200.97	0.105	401940	keystroke_n	n	n/a
201.045	0.09	402090	keystroke_t	t	n/a
201.21	0.09	402420	keystroke_s	s	n/a
201.27	0.105	402540	keystroke_Key.space	Key.space	n/a
201.45	0.075	402900	keystroke_v	v	n/a
201.585	0.105	403170	keystroke_e	e	n/a
201.66	0.12	403320	keystroke_r	r	n/a
201.765	0.09	403530	keystroke_i	i	n/a
201.87	0.09	403740	keystroke_f	f	n/a
201.945	0.105	403890	keystroke_i	i	n/a
202.035	0.105	404070	keystroke_e	e	n/a
202.11	0.105	404220	keystroke_d	d	n/a
202.185	0.09	404370	keystroke_Key.space	Key.space	n/a
202.32	0.12	404640	keystroke_i	i	n/a
202.41	0.105	404820	keystroke_n	n	n/a
202.65	0.105	405300	keystroke_d	d	n/a
202.815	0.09	405630	keystroke_i	i	n/a
202.95	0.12	405900	keystroke_g	g	n/a
203.055	0.045	406110	keystroke_e	e	n/a
203.76	0.105	407520	keystroke_n	n	n/a
203.88	0.15	407760	keystroke_o	o	n/a
203.97	0.12	407940	keystroke_u	u	n/a
204.015	0.105	408030	keystroke_s	s	n/a
204.15	0.105	408300	keystroke_Key.space	Key.space	n/a
204.285	0.135	408570	keystroke_i	i	n/a
204.375	0.12	408750	keystroke_n	n	n/a
204.421	0.059	408842	keystroke_c	c	n/a
204.6	0.12	409200	keystroke_r	r	n/a
204.66	0.12	409320	keystroke_e	e	n/a
204.705	0.18	409410	keystroke_a	a	n/a
204.87	0.12	409740	keystroke_s	s	n/a
204.915	0.12	409830	keystroke_i	i	n/a
204.991	0.089	409982	keystroke_n	n	n/a
205.11	0.075	410220	keystroke_g	g	n/a
205.575	0.09	411150	keystroke_Key.enter	Key.enter	n/a
205.671	5.3505	411342	prompt	n/a	mails cave username classes\n
206.4	0.105	412800	keystroke_m	m	n/a
206.505	0.105	413010	keystroke_a	a	n/a
206.58	0.12	413160	keystroke_i	i	n/a
206.625	0.15	413250	keystroke_l	l	n/a
206.73	0.12	413460	keystroke_s	s	n/a
206.82	0.12	413640	keystroke_Key.space	Key.space	n/a
206.925	0.12	413850	keystroke_c	c	n/a
207.03	0.105	414060	keystroke_a	a	n/a
207.165	0.135	414330	keystroke_v	v	n/a
207.255	0.105	414510	keystroke_e	e	n/a
207.315	0.15	414630	keystroke_Key.space	Key.space	n/a
207.435	0.105	414870	keystroke_u	u	n/a
207.51	0.09	415020	keystroke_s	s	n/a
207.69	0.105	415380	keystroke_e	e	n/a
207.75	0.12	415500	keystroke_r	r	n/a
207.855	0.045	415710	keystroke_Key.space	Key.space	n/a
207.855	0.06	415710	keystroke_n	n	n/a
207.96	0.105	415920	keystroke_a	a	n/a
208.83	0.105	417660	keystroke_Key.backspace	Key.backspace	n/a
209.025	0.06	418050	keystroke_Key.backspace	Key.backspace	n/a
209.37	0.105	418740	keystroke_a	a	n/a
209.505	0.12	419010	keystroke_m	m	n/a
209.595	0.105	419190	keystroke_e	e	n/a
209.85	0.119	419700	keystroke_Key.space	Key.space	n/a
209.94	0.104	419880	keystroke_c	c	n/a
210.06	0.105	420120	keystroke_l	l	n/a
210.149	0.15	420298	keystroke_a	a	n/a
210.254	0.106	420508	keystroke_s	s	n/a
210.42	0.089	420840	keystroke_s	s	n/a
210.615	0.06	421230	keystroke_e	e	n/a
210.794	0.075	421588	keystroke_s	s	n/a
210.899	0.12	421798	keystroke_Key.enter	Key.enter	n/a
211.0255	6.086	422051	prompt	n/a	who agricultural addressed greenhouse\n
211.694	0.091	423388	keystroke_w	w	n/a
211.77	0.134	423540	keystroke_h	h	n/a
211.844	0.166	423688	keystroke_o	o	n/a
211.934	0.12	423868	keystroke_Key.space	Key.space	n/a
212.115	0.089	424230	keystroke_a	a	n/a
212.265	0.059	424530	keystroke_g	g	n/a
212.444	0.091	424888	keystroke_r	r	n/a
212.49	0.105	424980	keystroke_i	i	n/a
212.729	0.165	425458	keystroke_c	c	n/a
212.774	0.075	425548	keystroke_u	u	n/a
213.449	0.105	426898	keystroke_l	l	n/a
213.599	0.121	427198	keystroke_t	t	n/a
213.735	0.105	427470	keystroke_u	u	n/a
214.08	0.119	428160	keystroke_r	r	n/a
214.245	0.12	428490	keystroke_a	a	n/a
214.32	0.12	428640	keystroke_l	l	n/a
214.454	0.091	428908	keystroke_Key.space	Key.space	n/a
214.53	0.12	429060	keystroke_a	a	n/a
214.635	0.119	429270	keystroke_d	d	n/a
214.815	0.104	429630	keystroke_d	d	n/a
215.04	0.105	430080	keystroke_r	r	n/a
215.115	0.09	430230	keystroke_e	e	n/a
215.31	0.06	430620	keystroke_s	s	n/a
215.445	0.075	430890	keystroke_s	s	n/a
215.624	0.105	431248	keystroke_e	e	n/a
215.685	0.12	431370	keystroke_d	d	n/a
215.79	0.089	431580	keystroke_Key.space	Key.space	n/a
215.91	0.105	431820	keystroke_g	g	n/a
216.105	0.075	432210	keystroke_r	r	n/a
216.165	0.075	432330	keystroke_e	e	n/a
216.3	0.105	432600	keystroke_e	e	n/a
216.39	0.105	432780	keystroke_n	n	n/a
216.51	0.18	433020	keystroke_h	h	n/a
216.554	0.181	433108	keystroke_o	o	n/a
216.675	0.09	433350	keystroke_u	u	n/a
216.72	0.09	433440	keystroke_s	s	n/a
216.915	0.06	433830	keystroke_e	e	n/a
217.02	0.089	434040	keystroke_Key.enter	Key.enter	n/a
217.1175	3.8485	434235	prompt	n/a	scoring places offer logan\n
217.649	0.106	435298	keystroke_s	s	n/a
217.785	0.105	435570	keystroke_c	c	n/a
217.875	0.09	435750	keystroke_o	o	n/a
217.994	0.106	435988	keystroke_r	r	n/a
218.055	0.105	436110	keystroke_i	i	n/a
218.13	0.09	436260	keystroke_n	n	n/a
218.205	0.09	436410	keystroke_g	g	n/a
218.37	0.104	436740	keystroke_Key.space	Key.space	n/a
218.625	0.135	437250	keystroke_p	p	n/a
218.865	0.045	437730	keystroke_l	l	n/a
219.21	0.12	438420	keystroke_a	a	n/a
219.36	0.134	438720	keystroke_c	c	n/a
219.465	0.105	438930	keystroke_e	e	n/a
219.63	0.119	439260	keystroke_s	s	n/a
219.705	0.105	439410	keystroke_Key.space	Key.space	n/a
219.764	0.12	439528	keystroke_o	o	n/a
219.84	0.075	439680	keystroke_f	f	n/a
220.005	0.105	440010	keystroke_f	f	n/a
220.094	0.121	440188	keystroke_e	e	n/a
220.185	0.105	440370	keystroke_r	r	n/a
220.245	0.12	440490	keystroke_Key.space	Key.space	n/a
220.335	0.105	440670	keystroke_l	l	n/a
220.53	0.105	441060	keystroke_o	o	n/a
220.575	0.075	441150	keystroke_g	g	n/a
220.695	0.12	441390	keystroke_a	a	n/a
220.77	0.105	441540	keystroke_n	n	n/a
220.89	0.074	441780	keystroke_Key.enter	Key.enter	n/a
220.971	6.6855	441942	prompt	n/a	hotel powerseller dictionary workshop\n
221.55	0.074	443100	keystroke_h	h	n/a
221.7	0.105	443400	keystroke_o	o	n/a
221.775	0.135	443550	keystroke_t	t	n/a
221.895	0.105	443790	keystroke_e	e	n/a
222.06	0.105	444120	keystroke_l	l	n/a
222.7785	0.136	445557	keystroke_Key.space	Key.space	n/a
223.1845	0.18	446369	keystroke_p	p	n/a
223.3045	0.135	446609	keystroke_o	o	n/a
223.3795	0.105	446759	keystroke_w	w	n/a
223.5445	0.149	447089	keystroke_e	e	n/a
223.6345	0.105	447269	keystroke_r	r	n/a
223.7985	0.091	447597	keystroke_s	s	n/a
223.9795	0.075	447959	keystroke_e	e	n/a
224.0395	0.075	448079	keystroke_l	l	n/a
224.1745	0.105	448349	keystroke_l	l	n/a
224.2345	0.105	448469	keystroke_e	e	n/a
224.2945	0.105	448589	keystroke_r	r	n/a
224.3845	0.105	448769	keystroke_Key.space	Key.space	n/a
224.6245	0.12	449249	keystroke_d	d	n/a
224.7295	0.09	449459	keystroke_i	i	n/a
225.4495	0.12	450899	keystroke_c	c	n/a
225.6895	0.09	451379	keystroke_t	t	n/a
225.7345	0.135	451469	keystroke_i	i	n/a
225.7645	0.12	451529	keystroke_o	o	n/a
225.8395	0.09	451679	keystroke_n	n	n/a
225.8995	0.105	451799	keystroke_a	a	n/a
225.9595	0.12	451919	keystroke_r	r	n/a
226.0645	0.105	452129	keystroke_y	y	n/a
226.1535	0.106	452307	keystroke_Key.space	Key.space	n/a
226.3195	0.12	452639	keystroke_w	w	n/a
226.4245	0.09	452849	keystroke_o	o	n/a
226.4695	0.105	452939	keystroke_r	r	n/a
226.6495	0.12	453299	keystroke_k	k	n/a
226.8145	0.105	453629	keystroke_s	s	n/a
226.9045	0.075	453809	keystroke_h	h	n/a
227.1595	0.15	454319	keystroke_o	o	n/a
227.2645	0.09	454529	keystroke_p	p	n/a
227.5645	0.09	455129	keystroke_Key.enter	Key.enter	n/a
227.663	6.548	455326	prompt	n/a	biggest location declare outline\n
229.8475	0.012	459695	keystroke_b	b	n/a
230.0095	0.09	460019	keystroke_i	i	n/a
230.0845	0.075	460169	keystroke_g	g	n/a
230.2195	0.09	460439	keystroke_g	g	n/a
230.2795	0.105	460559	keystroke_e	e	n/a
230.4745	0.12	460949	keystroke_s	s	n/a
230.5795	0.075	461159	keystroke_t	t	n/a
230.6245	0.12	461249	keystroke_Key.space	Key.space	n/a
230.7145	0.075	461429	keystroke_l	l	n/a
230.9395	0.12	461879	keystroke_o	o	n/a
231.8095	0.09	463619	keystroke_c	c	n/a
231.9595	0.135	463919	keystroke_a	a	n/a
232.1095	0.12	464219	keystroke_t	t	n/a
232.1695	0.135	464339	keystroke_i	i	n/a
232.2145	0.12	464429	keystroke_o	o	n/a
232.2895	0.09	464579	keystroke_n	n	n/a
232.4545	0.135	464909	keystroke_Key.space	Key.space	n/a
232.6045	0.105	465209	keystroke_d	d	n/a
232.6645	0.135	465329	keystroke_e	e	n/a
232.8295	0.12	465659	keystroke_c	c	n/a
232.9345	0.12	465869	keystroke_l	l	n/a
233.0245	0.105	466049	keystroke_a	a	n/a
233.1145	0.12	466229	keystroke_r	r	n/a
233.1895	0.135	466379	keystroke_e	e	n/a
233.2645	0.135	466529	keystroke_Key.space	Key.space	n/a
233.3545	0.135	466709	keystroke_o	o	n/a
233.4445	0.12	466889	keystroke_u	u	n/a
233.5195	0.105	467039	keystroke_t	t	n/a
233.6395	0.15	467279	keystroke_l	l	n/a
233.6995	0.15	467399	keystroke_i	i	n/a
233.7745	0.09	467549	keystroke_n	n	n/a
233.8795	0.09	467759	keystroke_e	e	n/a
234.1345	0.075	468269	keystroke_Key.enter	Key.enter	n/a
234.2145	5.7715	468429	prompt	n/a	prominent faqs scenic solving\n
234.8095	0.09	469619	keystroke_p	p	n/a
234.8995	0.105	469799	keystroke_r	r	n/a
234.9895	0.105	469979	keystroke_o	o	n/a
235.0795	0.105	470159	keystroke_m	m	n/a
235.1695	0.135	470339	keystroke_i	i	n/a
235.2895	0.105	470579	keystroke_n	n	n/a
235.3795	0.135	470759	keystroke_e	e	n/a
235.5595	0.075	471119	keystroke_n	n	n/a
235.6195	0.12	471239	keystroke_t	t	n/a
235.7845	0.12	471569	keystroke_Key.space	Key.space	n/a
235.9345	0.105	471869	keystroke_f	f	n/a
236.1895	0.105	472379	keystroke_a	a	n/a
236.5045	0.075	473009	keystroke_q	q	n/a
237.1795	0.09	474359	keystroke_s	s	n/a
237.3895	0.105	474779	keystroke_Key.space	Key.space	n/a
237.4955	0.119	474991	keystroke_s	s	n/a
237.6295	0.135	475259	keystroke_c	c	n/a
237.7345	0.12	475469	keystroke_e	e	n/a
237.8695	0.135	475739	keystroke_n	n	n/a
237.9895	0.12	475979	keystroke_i	i	n/a
238.3945	0.075	476789	keystroke_c	c	n/a
238.7845	0.12	477569	keystroke_Key.space	Key.space	n/a
238.8745	0.105	477749	keystroke_s	s	n/a
238.9495	0.09	477899	keystroke_o	o	n/a
239.1445	0.135	478289	keystroke_l	l	n/a
239.2945	0.09	478589	keystroke_v	v	n/a
239.3395	0.12	478679	keystroke_i	i	n/a
239.4295	0.075	478859	keystroke_n	n	n/a
239.5345	0.075	479069	keystroke_g	g	n/a
239.8645	0.12	479729	keystroke_Key.enter	Key.enter	n/a
239.99	7.736	479980	prompt	n/a	sleeps fast statistical graduation\n
243.9475	0.072	487895	keystroke_s	s	n/a
243.9745	0.15	487949	keystroke_l	l	n/a
244.1545	0.075	488309	keystroke_e	e	n/a
244.3045	0.105	488609	keystroke_e	e	n/a
244.3795	0.12	488759	keystroke_p	p	n/a
244.5295	0.09	489059	keystroke_s	s	n/a
244.6045	0.135	489209	keystroke_Key.space	Key.space	n/a
244.7245	0.045	489449	keystroke_f	f	n/a
244.8895	0.18	489779	keystroke_a	a	n/a
244.9945	0.165	489989	keystroke_s	s	n/a
245.1295	0.105	490259	keystroke_t	t	n/a
245.2045	0.135	490409	keystroke_Key.space	Key.space	n/a
245.3545	0.15	490709	keystroke_s	s	n/a
245.4595	0.075	490919	keystroke_t	t	n/a
245.5495	0.12	491099	keystroke_a	a	n/a
245.6395	0.09	491279	keystroke_t	t	n/a
245.7595	0.105	491519	keystroke_i	i	n/a
245.8195	0.1495	491639	keystroke_s	s	n/a
245.91	0.134	491820	keystroke_t	t	n/a
246.03	0.104	492060	keystroke_i	i	n/a
246.164	0.135	492328	keystroke_c	c	n/a
246.269	0.091	492538	keystroke_a	a	n/a
246.314	0.121	492628	keystroke_l	l	n/a
246.419	0.09	492838	keystroke_Key.space	Key.space	n/a
246.48	0.089	492960	keystroke_g	g	n/a
246.69	0.09	493380	keystroke_r	r	n/a
246.809	0.106	493618	keystroke_a	a	n/a
246.974	0.121	493948	keystroke_d	d	n/a
247.109	0.076	494218	keystroke_u	u	n/a
247.17	0.119	494340	keystroke_a	a	n/a
247.259	0.106	494518	keystroke_t	t	n/a
247.334	0.12	494668	keystroke_i	i	n/a
247.379	0.12	494758	keystroke_o	o	n/a
247.425	0.119	494850	keystroke_n	n	n/a
247.589	0.135	495178	keystroke_Key.enter	Key.enter	n/a
247.732	2.979	495464	prompt	n/a	adults heaven prozac world\n
248.19	0.149	496380	keystroke_a	a	n/a
248.309	0.105	496618	keystroke_d	d	n/a
248.385	0.134	496770	keystroke_u	u	n/a
248.445	0.149	496890	keystroke_l	l	n/a
248.505	0.074	497010	keystroke_t	t	n/a
248.639	0.106	497278	keystroke_s	s	n/a
248.714	0.105	497428	keystroke_Key.space	Key.space	n/a
248.775	0.105	497550	keystroke_h	h	n/a
248.835	0.164	497670	keystroke_e	e	n/a
248.894	0.136	497788	keystroke_a	a	n/a
249	0.135	498000	keystroke_v	v	n/a
249.09	0.135	498180	keystroke_e	e	n/a
249.149	0.106	498298	keystroke_n	n	n/a
249.329	0.105	498658	keystroke_Key.space	Key.space	n/a
249.405	0.119	498810	keystroke_p	p	n/a
249.479	0.12	498958	keystroke_r	r	n/a
249.615	0.104	499230	keystroke_o	o	n/a
249.705	0.149	499410	keystroke_z	z	n/a
249.869	0.121	499738	keystroke_a	a	n/a
249.974	0.091	499948	keystroke_c	c	n/a
250.049	0.105	500098	keystroke_Key.space	Key.space	n/a
250.17	0.09	500340	keystroke_w	w	n/a
250.245	0.09	500490	keystroke_o	o	n/a
250.319	0.091	500638	keystroke_r	r	n/a
250.424	0.076	500848	keystroke_l	l	n/a
250.529	0.09	501058	keystroke_d	d	n/a
250.649	0.06	501298	keystroke_Key.enter	Key.enter	n/a
250.716	3.4	501432	prompt	n/a	approve south matters gotta\n
251.189	0.106	502378	keystroke_a	a	n/a
251.309	0.0605	502618	keystroke_p	p	n/a
251.4295	0.105	502859	keystroke_p	p	n/a
251.5195	0.09	503039	keystroke_r	r	n/a
251.5945	0.12	503189	keystroke_o	o	n/a
251.7295	0.09	503459	keystroke_v	v	n/a
251.8045	0.105	503609	keystroke_e	e	n/a
251.8645	0.105	503729	keystroke_Key.space	Key.space	n/a
251.9995	0.12	503999	keystroke_s	s	n/a
252.0745	0.105	504149	keystroke_o	o	n/a
252.1345	0.105	504269	keystroke_u	u	n/a
252.2245	0.075	504449	keystroke_t	t	n/a
252.3295	0.09	504659	keystroke_h	h	n/a
252.3895	0.09	504779	keystroke_Key.space	Key.space	n/a
252.5845	0.105	505169	keystroke_m	m	n/a
252.6145	0.105	505229	keystroke_a	a	n/a
252.7345	0.105	505469	keystroke_t	t	n/a
252.8995	0.12	505799	keystroke_t	t	n/a
253.0045	0.15	506009	keystroke_e	e	n/a
253.1395	0.075	506279	keystroke_r	r	n/a
253.2745	0.135	506549	keystroke_s	s	n/a
253.3795	0.105	506759	keystroke_Key.space	Key.space	n/a
253.4995	0.075	506999	keystroke_g	g	n/a
253.5895	0.105	507179	keystroke_o	o	n/a
253.6795	0.06	507359	keystroke_t	t	n/a
253.8145	0.06	507629	keystroke_t	t	n/a
253.9045	0.105	507809	keystroke_a	a	n/a
254.0245	0.09	508049	keystroke_Key.enter	Key.enter	n/a
254.1265	3.365	508253	prompt	n/a	plate shine finds chrysler\n
254.6545	0.105	509309	keystroke_p	p	n/a
254.8345	0.105	509669	keystroke_l	l	n/a
254.8945	0.12	509789	keystroke_a	a	n/a
254.9995	0.105	509999	keystroke_t	t	n/a
255.0745	0.12	510149	keystroke_e	e	n/a
255.1345	0.105	510269	keystroke_Key.space	Key.space	n/a
255.2845	0.12	510569	keystroke_s	s	n/a
255.3445	0.135	510689	keystroke_h	h	n/a
255.4045	0.105	510809	keystroke_i	i	n/a
255.4495	0.105	510899	keystroke_n	n	n/a
255.5395	0.105	511079	keystroke_e	e	n/a
255.6445	0.135	511289	keystroke_Key.space	Key.space	n/a
255.7645	0.09	511529	keystroke_f	f	n/a
255.8245	0.105	511649	keystroke_i	i	n/a
255.8995	0.09	511799	keystroke_n	n	n/a
255.9595	0.12	511919	keystroke_d	d	n/a
256.0345	0.12	512069	keystroke_s	s	n/a
256.1245	0.12	512249	keystroke_Key.space	Key.space	n/a
256.2745	0.12	512549	keystroke_c	c	n/a
256.3495	0.075	512699	keystroke_h	h	n/a
256.4695	0.105	512939	keystroke_r	r	n/a
256.5595	0.075	513119	keystroke_y	y	n/a
256.6945	0.12	513389	keystroke_s	s	n/a
256.8295	0.12	513659	keystroke_l	l	n/a
256.9645	0.105	513929	keystroke_e	e	n/a
257.0095	0.12	514019	keystroke_r	r	n/a
257.3845	0.105	514769	keystroke_Key.enter	Key.enter	n/a
257.4975	4.1035	514995	prompt	n/a	largest cold blonde amounts\n
258.1945	0.135	516389	keystroke_l	l	n/a
258.2845	0.09	516569	keystroke_a	a	n/a
258.3595	0.075	516719	keystroke_r	r	n/a
258.5245	0.09	517049	keystroke_g	g	n/a
258.5995	0.105	517199	keystroke_e	e	n/a
258.8245	0.12	517649	keystroke_s	s	n/a
258.9145	0.12	517829	keystroke_t	t	n/a
259.2595	0.105	518519	keystroke_Key.space	Key.space	n/a
259.3795	0.105	518759	keystroke_c	c	n/a
259.4695	0.09	518939	keystroke_o	o	n/a
259.6645	0.105	519329	keystroke_l	l	n/a
259.7545	0.105	519509	keystroke_d	d	n/a
259.8445	0.105	519689	keystroke_Key.space	Key.space	n/a
259.9045	0.09	519809	keystroke_b	b	n/a
260.1145	0.105	520229	keystroke_l	l	n/a
260.3245	0.105	520649	keystroke_o	o	n/a
260.3695	0.105	520739	keystroke_n	n	n/a
260.4445	0.105	520889	keystroke_d	d	n/a
260.4895	0.105	520979	keystroke_e	e	n/a
260.6095	0.09	521219	keystroke_Key.space	Key.space	n/a
260.7145	0.09	521429	keystroke_a	a	n/a
260.9695	0.105	521939	keystroke_m	m	n/a
261.0895	0.105	522179	keystroke_o	o	n/a
261.1345	0.135	522269	keystroke_u	u	n/a
261.2095	0.105	522419	keystroke_n	n	n/a
261.2845	0.06	522569	keystroke_t	t	n/a
261.4195	0.105	522839	keystroke_s	s	n/a
261.5095	0.09	523019	keystroke_Key.enter	Key.enter	n/a
261.6055	4.2705	523211	prompt	n/a	canberra attach coverage georgia\n
262.2445	0.135	524489	keystroke_c	c	n/a
262.3045	0.12	524609	keystroke_a	a	n/a
262.5895	0.09	525179	keystroke_n	n	n/a
262.7845	0.105	525569	keystroke_b	b	n/a
262.8595	0.12	525719	keystroke_e	e	n/a
262.9645	0.06	525929	keystroke_r	r	n/a
263.0845	0.105	526169	keystroke_r	r	n/a
263.2045	0.12	526409	keystroke_a	a	n/a
263.2945	0.105	526589	keystroke_Key.space	Key.space	n/a
263.3845	0.12	526769	keystroke_a	a	n/a
263.4745	0.075	526949	keystroke_t	t	n/a
263.6245	0.105	527249	keystroke_t	t	n/a
263.7445	0.165	527489	keystroke_a	a	n/a
263.8795	0.105	527759	keystroke_c	c	n/a
263.9695	0.105	527939	keystroke_h	h	n/a
264.0445	0.105	528089	keystroke_Key.space	Key.space	n/a
264.1345	0.135	528269	keystroke_c	c	n/a
264.2395	0.12	528479	keystroke_o	o	n/a
264.2995	0.105	528599	keystroke_v	v	n/a
264.4345	0.135	528869	keystroke_e	e	n/a
264.5395	0.105	529079	keystroke_r	r	n/a
264.6295	0.12	529259	keystroke_a	a	n/a
264.7645	0.09	529529	keystroke_g	g	n/a
264.8245	0.105	529649	keystroke_e	e	n/a
264.8995	0.105	529799	keystroke_Key.space	Key.space	n/a
265.0345	0.105	530069	keystroke_g	g	n/a
265.1245	0.135	530249	keystroke_e	e	n/a
265.2445	0.06	530489	keystroke_o	o	n/a
265.3045	0.105	530609	keystroke_r	r	n/a
265.5145	0.075	531029	keystroke_g	g	n/a
265.5745	0.09	531149	keystroke_i	i	n/a
265.6645	0.09	531329	keystroke_a	a	n/a
265.7845	0.09	531569	keystroke_Key.enter	Key.enter	n/a
265.8795	3.6565	531759	prompt	n/a	penny fatty visited awful\n
266.5795	0.12	533159	keystroke_p	p	n/a
266.6995	0.09	533399	keystroke_e	e	n/a
266.7745	0.09	533549	keystroke_n	n	n/a
266.9245	0.105	533849	keystroke_n	n	n/a
267.0145	0.12	534029	keystroke_y	y	n/a
267.1195	0.105	534239	keystroke_Key.space	Key.space	n/a
267.1945	0.06	534389	keystroke_f	f	n/a
267.2845	0.135	534569	keystroke_a	a	n/a
267.3745	0.075	534749	keystroke_t	t	n/a
267.5245	0.105	535049	keystroke_t	t	n/a
267.5695	0.09	535139	keystroke_y	y	n/a
267.6445	0.105	535289	keystroke_Key.space	Key.space	n/a
267.8095	0.075	535619	keystroke_v	v	n/a
267.8995	0.075	535799	keystroke_i	i	n/a
268.0195	0.12	536039	keystroke_s	s	n/a
268.0945	0.12	536189	keystroke_i	i	n/a
268.2745	0.12	536549	keystroke_t	t	n/a
268.4095	0.15	536819	keystroke_e	e	n/a
268.5445	0.105	537089	keystroke_d	d	n/a
268.6645	0.105	537329	keystroke_Key.space	Key.space	n/a
268.7995	0.105	537599	keystroke_a	a	n/a
268.8745	0.12	537749	keystroke_w	w	n/a
269.0995	0.075	538199	keystroke_f	f	n/a
269.1145	0.09	538229	keystroke_u	u	n/a
269.1745	0.12	538349	keystroke_l	l	n/a
269.4445	0.09	538889	keystroke_Key.enter	Key.enter	n/a
269.54	4.4665	539080	prompt	n/a	jesus enhancing nominations camel\n
270.2245	0.105	540449	keystroke_j	j	n/a
270.3745	0.075	540749	keystroke_e	e	n/a
270.5395	0.105	541079	keystroke_s	s	n/a
270.5995	0.09	541199	keystroke_u	u	n/a
270.7195	0.075	541439	keystroke_s	s	n/a
270.8095	0.105	541619	keystroke_Key.space	Key.space	n/a
270.9445	0.12	541889	keystroke_e	e	n/a
271.0495	0.09	542099	keystroke_n	n	n/a
271.2145	0.09	542429	keystroke_h	h	n/a
271.3195	0.12	542639	keystroke_a	a	n/a
271.4095	0.105	542819	keystroke_n	n	n/a
271.4995	0.09	542999	keystroke_c	c	n/a
271.5445	0.12	543089	keystroke_i	i	n/a
271.6195	0.075	543239	keystroke_n	n	n/a
271.7095	0.09	543419	keystroke_g	g	n/a
271.7845	0.075	543569	keystroke_Key.space	Key.space	n/a
271.9645	0.18	543929	keystroke_n	n	n/a
272.0845	0.122	544169	keystroke_o	o	n/a
272.2795	0.135	544559	keystroke_m	m	n/a
272.4295	0.135	544859	keystroke_i	i	n/a
272.5345	0.12	545069	keystroke_n	n	n/a
272.6695	0.105	545339	keystroke_a	a	n/a
272.7445	0.12	545489	keystroke_t	t	n/a
272.8045	0.135	545609	keystroke_i	i	n/a
272.8655	0.134	545731	keystroke_o	o	n/a
272.8945	0.12	545789	keystroke_n	n	n/a
272.9845	0.105	545969	keystroke_s	s	n/a
273.2545	0.105	546509	keystroke_Key.space	Key.space	n/a
273.3605	0.119	546721	keystroke_c	c	n/a
273.4195	0.12	546839	keystroke_a	a	n/a
273.5095	0.075	547019	keystroke_m	m	n/a
273.6145	0.105	547229	keystroke_e	e	n/a
273.6745	0.09	547349	keystroke_l	l	n/a
273.9145	0.09	547829	keystroke_Key.enter	Key.enter	n/a
274.012	4.689	548024	prompt	n/a	scanned credit integrated deaths\n
274.6195	0.135	549239	keystroke_s	s	n/a
274.7695	0.09	549539	keystroke_c	c	n/a
274.8145	0.135	549629	keystroke_a	a	n/a
274.9045	0.075	549809	keystroke_n	n	n/a
275.0845	0.075	550169	keystroke_n	n	n/a
275.1295	0.105	550259	keystroke_e	e	n/a
275.2045	0.105	550409	keystroke_d	d	n/a
275.3245	0.105	550649	keystroke_Key.space	Key.space	n/a
275.4445	0.105	550889	keystroke_c	c	n/a
275.7145	0.09	551429	keystroke_r	r	n/a
275.8195	0.1655	551639	keystroke_e	e	n/a
275.925	0.135	551850	keystroke_d	d	n/a
276	0.135	552000	keystroke_i	i	n/a
276.165	0.105	552330	keystroke_t	t	n/a
276.255	0.12	552510	keystroke_Key.space	Key.space	n/a
276.376	0.134	552752	keystroke_i	i	n/a
276.48	0.135	552960	keystroke_n	n	n/a
276.75	0.105	553500	keystroke_t	t	n/a
276.87	0.15	553740	keystroke_e	e	n/a
277.035	0.075	554070	keystroke_g	g	n/a
277.23	0.105	554460	keystroke_r	r	n/a
277.32	0.12	554640	keystroke_a	a	n/a
277.44	0.075	554880	keystroke_t	t	n/a
277.515	0.195	555030	keystroke_e	e	n/a
277.665	0.09	555330	keystroke_d	d	n/a
277.8	0.12	555600	keystroke_Key.space	Key.space	n/a
277.89	0.12	555780	keystroke_d	d	n/a
277.965	0.225	555930	keystroke_e	e	n/a
278.04	0.165	556080	keystroke_a	a	n/a
278.175	0.09	556350	keystroke_t	t	n/a
278.28	0.075	556560	keystroke_h	h	n/a
278.37	0.105	556740	keystroke_s	s	n/a
278.625	0.075	557250	keystroke_Key.enter	Key.enter	n/a
278.7075	4.5385	557415	prompt	n/a	lime chris field includes\n
279.435	0.195	558870	keystroke_l	l	n/a
279.555	0.135	559110	keystroke_i	i	n/a
279.66	0.075	559320	keystroke_n	n	n/a
280.335	0.135	560670	keystroke_Key.backspace	Key.backspace	n/a
280.545	0.105	561090	keystroke_m	m	n/a
280.74	0.105	561480	keystroke_e	e	n/a
280.875	0.105	561750	keystroke_Key.space	Key.space	n/a
280.995	0.09	561990	keystroke_c	c	n/a
281.1	0.06	562200	keystroke_h	h	n/a
281.19	0.105	562380	keystroke_r	r	n/a
281.31	0.075	562620	keystroke_i	i	n/a
281.4	0.12	562800	keystroke_s	s	n/a
281.535	0.09	563070	keystroke_Key.space	Key.space	n/a
281.64	0.105	563280	keystroke_f	f	n/a
281.745	0.09	563490	keystroke_i	i	n/a
281.865	0.105	563730	keystroke_e	e	n/a
281.925	0.12	563850	keystroke_l	l	n/a
282.075	0.105	564150	keystroke_d	d	n/a
282.165	0.075	564330	keystroke_Key.space	Key.space	n/a
282.3	0.135	564600	keystroke_i	i	n/a
282.435	0.12	564870	keystroke_n	n	n/a
282.6	0.075	565200	keystroke_c	c	n/a
282.66	0.105	565320	keystroke_l	l	n/a
282.72	0.12	565440	keystroke_u	u	n/a
282.795	0.12	565590	keystroke_d	d	n/a
282.885	0.09	565770	keystroke_e	e	n/a
283.14	0.03	566280	keystroke_s	s	n/a
283.155	0.09	566310	keystroke_Key.enter	Key.enter	n/a
283.252	3.7595	566504	prompt	n/a	wild virginia exist requires\n
283.815	0.135	567630	keystroke_w	w	n/a
283.89	0.165	567780	keystroke_i	i	n/a
283.98	0.12	567960	keystroke_l	l	n/a
284.04	0.12	568080	keystroke_d	d	n/a
284.175	0.075	568350	keystroke_Key.space	Key.space	n/a
284.265	0.09	568530	keystroke_v	v	n/a
284.385	0.12	568770	keystroke_i	i	n/a
284.475	0.105	568950	keystroke_r	r	n/a
284.685	0.075	569370	keystroke_g	g	n/a
284.775	0.105	569550	keystroke_i	i	n/a
284.865	0.135	569730	keystroke_n	n	n/a
284.97	0.12	569940	keystroke_i	i	n/a
285.075	0.105	570150	keystroke_a	a	n/a
285.195	0.105	570390	keystroke_Key.space	Key.space	n/a
285.27	0.075	570540	keystroke_e	e	n/a
285.45	0.105	570900	keystroke_x	x	n/a
285.57	0.1045	571140	keystroke_i	i	n/a
285.6595	0.165	571319	keystroke_s	s	n/a
285.7945	0.105	571589	keystroke_t	t	n/a
285.8695	0.12	571739	keystroke_Key.space	Key.space	n/a
286.0195	0.09	572039	keystroke_r	r	n/a
286.0795	0.09	572159	keystroke_e	e	n/a
286.2895	0.09	572579	keystroke_q	q	n/a
286.3495	0.15	572699	keystroke_u	u	n/a
286.4245	0.135	572849	keystroke_i	i	n/a
286.5445	0.1205	573089	keystroke_r	r	n/a
286.62	0.1045	573240	keystroke_e	e	n/a
286.7995	0.09	573599	keystroke_s	s	n/a
286.9195	0.0905	573839	keystroke_Key.enter	Key.enter	n/a
287.016	5.65	574032	prompt	n/a	instruction monetary untitled hydrogen\n
287.6095	0.135	575219	keystroke_i	i	n/a
287.67	0.1195	575340	keystroke_n	n	n/a
287.7745	0.135	575549	keystroke_s	s	n/a
287.9545	0.09	575909	keystroke_t	t	n/a
288.1345	0.105	576269	keystroke_r	r	n/a
288.21	0.1045	576420	keystroke_u	u	n/a
288.375	0.12	576750	keystroke_c	c	n/a
288.6145	0.075	577229	keystroke_t	t	n/a
288.6595	0.135	577319	keystroke_i	i	n/a
288.6895	0.135	577379	keystroke_o	o	n/a
288.7495	0.105	577499	keystroke_n	n	n/a
288.9295	0.105	577859	keystroke_Key.space	Key.space	n/a
289.1545	0.105	578309	keystroke_m	m	n/a
289.215	0.1495	578430	keystroke_o	o	n/a
289.3345	0.12	578669	keystroke_n	n	n/a
289.3945	0.15	578789	keystroke_e	e	n/a
289.4995	0.135	578999	keystroke_t	t	n/a
289.6495	0.06	579299	keystroke_y	y	n/a
290.2645	0.075	580529	keystroke_Key.backspace	Key.backspace	n/a
290.5045	0.135	581009	keystroke_a	a	n/a
290.5645	0.135	581129	keystroke_r	r	n/a
290.6695	0.12	581339	keystroke_y	y	n/a
290.7745	0.12	581549	keystroke_Key.space	Key.space	n/a
290.9545	0.15	581909	keystroke_u	u	n/a
291.0445	0.105	582089	keystroke_n	n	n/a
291.1345	0.09	582269	keystroke_t	t	n/a
291.2395	0.09	582479	keystroke_i	i	n/a
291.2995	0.105	582599	keystroke_t	t	n/a
291.4195	0.12	582839	keystroke_l	l	n/a
291.4795	0.15	582959	keystroke_e	e	n/a
291.5995	0.105	583199	keystroke_d	d	n/a
291.6445	0.105	583289	keystroke_Key.space	Key.space	n/a
291.7195	0.075	583439	keystroke_h	h	n/a
291.8995	0.075	583799	keystroke_y	y	n/a
291.9445	0.075	583889	keystroke_d	d	n/a
292.0945	0.105	584189	keystroke_r	r	n/a
292.1695	0.105	584339	keystroke_o	o	n/a
292.2895	0.09	584579	keystroke_g	g	n/a
292.3645	0.12	584729	keystroke_e	e	n/a
292.3945	0.105	584789	keystroke_n	n	n/a
292.5445	0.12	585089	keystroke_Key.enter	Key.enter	n/a
292.6725	4.689	585345	prompt	n/a	plates rules yorkshire suits\n
293.2345	0.09	586469	keystroke_p	p	n/a
293.3995	0.105	586799	keystroke_l	l	n/a
293.4295	0.12	586859	keystroke_a	a	n/a
293.5195	0.135	587039	keystroke_t	t	n/a
293.6095	0.105	587219	keystroke_e	e	n/a
293.7895	0.12	587579	keystroke_s	s	n/a
293.8795	0.105	587759	keystroke_Key.space	Key.space	n/a
293.9995	0.12	587999	keystroke_r	r	n/a
294.0745	0.135	588149	keystroke_u	u	n/a
294.1345	0.165	588269	keystroke_l	l	n/a
294.2245	0.105	588449	keystroke_e	e	n/a
294.4195	0.105	588839	keystroke_s	s	n/a
294.4945	0.12	588989	keystroke_Key.space	Key.space	n/a
294.7345	0.105	589469	keystroke_y	y	n/a
294.9295	0.105	589859	keystroke_o	o	n/a
295.0045	0.105	590009	keystroke_r	r	n/a
295.1395	0.075	590279	keystroke_k	k	n/a
295.2295	0.135	590459	keystroke_s	s	n/a
295.3045	0.09	590609	keystroke_h	h	n/a
295.4695	0.12	590939	keystroke_i	i	n/a
295.5295	0.135	591059	keystroke_r	r	n/a
295.6345	0.15	591269	keystroke_e	e	n/a
295.9945	0.06	591989	keystroke_s	s	n/a
296.4295	0.075	592859	keystroke_Key.backspace	Key.backspace	n/a
296.5945	0.105	593189	keystroke_Key.space	Key.space	n/a
296.7145	0.135	593429	keystroke_s	s	n/a
296.7895	0.135	593579	keystroke_u	u	n/a
296.8645	0.135	593729	keystroke_i	i	n/a
296.9545	0.075	593909	keystroke_t	t	n/a
297.0745	0.12	594149	keystroke_s	s	n/a
297.2395	0.12	594479	keystroke_Key.enter	Key.enter	n/a
297.3665	4.7645	594733	prompt	n/a	tragedy toshiba andorra volkswagen\n
298.0045	0.09	596009	keystroke_t	t	n/a
298.1845	0.105	596369	keystroke_r	r	n/a
298.2745	0.12	596549	keystroke_a	a	n/a
298.4395	0.12	596879	keystroke_g	g	n/a
298.5595	0.165	597119	keystroke_e	e	n/a
298.6795	0.135	597359	keystroke_d	d	n/a
298.7845	0.09	597569	keystroke_y	y	n/a
298.8445	0.15	597689	keystroke_Key.space	Key.space	n/a
299.0095	0.105	598019	keystroke_t	t	n/a
299.1295	0.105	598259	keystroke_o	o	n/a
299.2495	0.105	598499	keystroke_s	s	n/a
299.3545	0.12	598709	keystroke_h	h	n/a
299.4895	0.18	598979	keystroke_i	i	n/a
299.5795	0.135	599159	keystroke_b	b	n/a
299.7445	0.12	599489	keystroke_a	a	n/a
299.8345	0.12	599669	keystroke_Key.space	Key.space	n/a
299.9695	0.12	599939	keystroke_a	a	n/a
300.0745	0.09	600149	keystroke_n	n	n/a
300.1655	0.089	600331	keystroke_d	d	n/a
300.2695	0.12	600539	keystroke_o	o	n/a
300.3595	0.06	600719	keystroke_r	r	n/a
300.4795	0.105	600959	keystroke_r	r	n/a
300.5695	0.12	601139	keystroke_a	a	n/a
300.6745	0.135	601349	keystroke_Key.space	Key.space	n/a
300.8395	0.105	601679	keystroke_v	v	n/a
300.9295	0.06	601859	keystroke_o	o	n/a
301.1095	0.105	602219	keystroke_l	l	n/a
301.1695	0.165	602339	keystroke_k	k	n/a
301.2595	0.105	602519	keystroke_s	s	n/a
301.4695	0.105	602939	keystroke_w	w	n/a
301.5445	0.12	603089	keystroke_a	a	n/a
301.6945	0.12	603389	keystroke_g	g	n/a
301.7995	0.105	603599	keystroke_e	e	n/a
301.8595	0.135	603719	keystroke_n	n	n/a
302.0245	0.105	604049	keystroke_Key.enter	Key.enter	n/a
302.136	5.7405	604272	prompt	n/a	renewable opens discs descriptions\n
302.6695	0.12	605339	keystroke_r	r	n/a
302.7445	0.135	605489	keystroke_e	e	n/a
302.8645	0.12	605729	keystroke_n	n	n/a
303.0745	0.135	606149	keystroke_e	e	n/a
303.1645	0.12	606329	keystroke_w	w	n/a
303.3445	0.135	606689	keystroke_a	a	n/a
303.4345	0.075	606869	keystroke_b	b	n/a
303.5845	0.12	607169	keystroke_l	l	n/a
303.6595	0.12	607319	keystroke_e	e	n/a
303.7495	0.105	607499	keystroke_Key.space	Key.space	n/a
303.8845	0.15	607769	keystroke_o	o	n/a
303.9445	0.135	607889	keystroke_p	p	n/a
304.0495	0.105	608099	keystroke_e	e	n/a
304.1555	0.119	608311	keystroke_n	n	n/a
304.2595	0.121	608519	keystroke_s	s	n/a
304.9195	0.12	609839	keystroke_Key.space	Key.space	n/a
305.0245	0.12	610049	keystroke_d	d	n/a
305.1595	0.135	610319	keystroke_i	i	n/a
305.2795	0.135	610559	keystroke_s	s	n/a
305.3695	0.135	610739	keystroke_c	c	n/a
305.4895	0.12	610979	keystroke_s	s	n/a
305.6245	0.15	611249	keystroke_Key.space	Key.space	n/a
305.7895	0.105	611579	keystroke_s	s	n/a
306.2245	0.09	612449	keystroke_Key.backspace	Key.backspace	n/a
306.3445	0.12	612689	keystroke_d	d	n/a
306.4045	0.105	612809	keystroke_e	e	n/a
306.5845	0.12	613169	keystroke_s	s	n/a
306.7195	0.12	613439	keystroke_c	c	n/a
306.9445	0.105	613889	keystroke_r	r	n/a
307.0045	0.12	614009	keystroke_i	i	n/a
307.0645	0.135	614129	keystroke_p	p	n/a
307.1845	0.09	614369	keystroke_t	t	n/a
307.2595	0.135	614519	keystroke_i	i	n/a
307.3195	0.135	614639	keystroke_o	o	n/a
307.3645	0.12	614729	keystroke_n	n	n/a
307.4395	0.105	614879	keystroke_s	s	n/a
307.7545	0.12	615509	keystroke_Key.enter	Key.enter	n/a
307.8815	4.0595	615763	prompt	n/a	graduated responded ascii cities\n
308.4295	0.09	616859	keystroke_g	g	n/a
308.5945	0.12	617189	keystroke_r	r	n/a
308.6995	0.135	617399	keystroke_a	a	n/a
308.8195	0.135	617639	keystroke_d	d	n/a
308.8945	0.12	617789	keystroke_u	u	n/a
308.9695	0.12	617939	keystroke_a	a	n/a
309.0745	0.09	618149	keystroke_t	t	n/a
309.1495	0.15	618299	keystroke_e	e	n/a
309.2695	0.105	618539	keystroke_d	d	n/a
309.3445	0.12	618689	keystroke_Key.space	Key.space	n/a
309.4945	0.12	618989	keystroke_r	r	n/a
309.5845	0.12	619169	keystroke_e	e	n/a
309.8095	0.105	619619	keystroke_s	s	n/a
309.8545	0.12	619709	keystroke_p	p	n/a
309.8995	0.12	619799	keystroke_o	o	n/a
309.9295	0.12	619859	keystroke_n	n	n/a
310.0345	0.12	620069	keystroke_d	d	n/a
310.1695	0.135	620339	keystroke_e	e	n/a
310.2595	0.135	620519	keystroke_d	d	n/a
310.3495	0.12	620699	keystroke_Key.space	Key.space	n/a
310.4705	0.104	620941	keystroke_a	a	n/a
310.5595	0.12	621119	keystroke_s	s	n/a
310.6945	0.12	621389	keystroke_c	c	n/a
310.7995	0.075	621599	keystroke_i	i	n/a
310.9645	0.105	621929	keystroke_i	i	n/a
311.0395	0.135	622079	keystroke_Key.space	Key.space	n/a
311.1895	0.09	622379	keystroke_c	c	n/a
311.3245	0.075	622649	keystroke_i	i	n/a
311.4145	0.09	622829	keystroke_t	t	n/a
311.4895	0.105	622979	keystroke_i	i	n/a
311.5645	0.105	623129	keystroke_e	e	n/a
311.7445	0.105	623489	keystroke_s	s	n/a
311.8645	0.075	623729	keystroke_Key.enter	Key.enter	n/a
311.946	5.2	623892	prompt	n/a	gloves hollow interaction privacy\n
312.5845	0.12	625169	keystroke_g	g	n/a
312.7195	0.105	625439	keystroke_l	l	n/a
312.9745	0.12	625949	keystroke_o	o	n/a
313.0495	0.105	626099	keystroke_v	v	n/a
313.1095	0.135	626219	keystroke_e	e	n/a
313.3195	0.105	626639	keystroke_s	s	n/a
313.3795	0.15	626759	keystroke_Key.space	Key.space	n/a
313.4995	0.135	626999	keystroke_h	h	n/a
313.5895	0.105	627179	keystroke_o	o	n/a
313.7695	0.09	627539	keystroke_l	l	n/a
313.9195	0.09	627839	keystroke_l	l	n/a
314.1145	0.075	628229	keystroke_o	o	n/a
314.1595	0.09	628319	keystroke_w	w	n/a
314.3095	0.15	628619	keystroke_Key.space	Key.space	n/a
314.5195	0.135	629039	keystroke_i	i	n/a
314.6245	0.09	629249	keystroke_n	n	n/a
314.6695	0.09	629339	keystroke_t	t	n/a
314.7745	0.135	629549	keystroke_e	e	n/a
314.8645	0.135	629729	keystroke_r	r	n/a
314.9845	0.135	629969	keystroke_a	a	n/a
315.1495	0.105	630299	keystroke_c	c	n/a
315.3745	0.09	630749	keystroke_t	t	n/a
315.3895	0.135	630779	keystroke_i	i	n/a
315.4195	0.12	630839	keystroke_o	o	n/a
315.4795	0.075	630959	keystroke_n	n	n/a
315.6445	0.135	631289	keystroke_Key.space	Key.space	n/a
315.9445	0.09	631889	keystroke_p	p	n/a
316.0945	0.105	632189	keystroke_r	r	n/a
316.2145	0.12	632429	keystroke_i	i	n/a
316.3495	0.105	632699	keystroke_v	v	n/a
316.4845	0.135	632969	keystroke_a	a	n/a
316.5895	0.12	633179	keystroke_c	c	n/a
316.6945	0.09	633389	keystroke_y	y	n/a
317.0395	0.105	634079	keystroke_Key.enter	Key.enter	n/a
317.1505	5.2605	634301	prompt	n/a	wage oxide insulation acrylic\n
318.7045	0.105	637409	keystroke_w	w	n/a
318.9445	0.105	637889	keystroke_a	a	n/a
319.0945	0.12	638189	keystroke_g	g	n/a
319.1695	0.12	638339	keystroke_e	e	n/a
319.2595	0.135	638519	keystroke_Key.space	Key.space	n/a
319.6645	0.09	639329	keystroke_o	o	n/a
319.7995	0.105	639599	keystroke_x	x	n/a
319.8895	0.135	639779	keystroke_i	i	n/a
320.0095	0.135	640019	keystroke_d	d	n/a
320.0995	0.12	640199	keystroke_e	e	n/a
320.1895	0.105	640379	keystroke_Key.space	Key.space	n/a
320.3695	0.165	640739	keystroke_i	i	n/a
320.4745	0.12	640949	keystroke_n	n	n/a
320.5795	0.12	641159	keystroke_s	s	n/a
320.7295	0.18	641459	keystroke_u	u	n/a
320.8795	0.135	641759	keystroke_l	l	n/a
320.9845	0.135	641969	keystroke_a	a	n/a
321.1045	0.105	642209	keystroke_t	t	n/a
321.1645	0.135	642329	keystroke_i	i	n/a
321.1945	0.135	642389	keystroke_o	o	n/a
321.2695	0.075	642539	keystroke_n	n	n/a
321.4345	0.105	642869	keystroke_Key.space	Key.space	n/a
321.4945	0.135	642989	keystroke_a	a	n/a
321.5995	0.09	643199	keystroke_c	c	n/a
321.7945	0.09	643589	keystroke_r	r	n/a
321.8545	0.045	643709	keystroke_y	y	n/a
321.9595	0.15	643919	keystroke_l	l	n/a
322.0345	0.12	644069	keystroke_i	i	n/a
322.1395	0.09	644279	keystroke_c	c	n/a
322.3345	0.075	644669	keystroke_Key.enter	Key.enter	n/a
322.415	3.7615	644830	prompt	n/a	specialized dream gentle smart\n
323.0395	0.12	646079	keystroke_s	s	n/a
323.1295	0.105	646259	keystroke_p	p	n/a
323.2495	0.105	646499	keystroke_e	e	n/a
323.3095	0.135	646619	keystroke_c	c	n/a
323.3695	0.12	646739	keystroke_i	i	n/a
323.5045	0.105	647009	keystroke_a	a	n/a
323.5795	0.15	647159	keystroke_l	l	n/a
323.6545	0.12	647309	keystroke_i	i	n/a
323.6995	0.12	647399	keystroke_z	z	n/a
323.9095	0.12	647819	keystroke_e	e	n/a
323.9845	0.12	647969	keystroke_d	d	n/a
324.0745	0.105	648149	keystroke_Key.space	Key.space	n/a
324.2545	0.135	648509	keystroke_d	d	n/a
324.4795	0.09	648959	keystroke_r	r	n/a
324.5245	0.15	649049	keystroke_e	e	n/a
324.5545	0.135	649109	keystroke_a	a	n/a
324.6445	0.075	649289	keystroke_m	m	n/a
324.8245	0.09	649649	keystroke_Key.space	Key.space	n/a
324.8995	0.09	649799	keystroke_g	g	n/a
324.9745	0.15	649949	keystroke_e	e	n/a
325.0795	0.09	650159	keystroke_n	n	n/a
325.1995	0.105	650399	keystroke_t	t	n/a
325.2895	0.12	650579	keystroke_l	l	n/a
325.3795	0.075	650759	keystroke_e	e	n/a
325.4395	0.105	650879	keystroke_Key.space	Key.space	n/a
325.5745	0.09	651149	keystroke_s	s	n/a
325.6795	0.09	651359	keystroke_m	m	n/a
325.7545	0.105	651509	keystroke_a	a	n/a
325.8445	0.075	651689	keystroke_r	r	n/a
325.9945	0.09	651989	keystroke_t	t	n/a
326.0845	0.09	652169	keystroke_Key.enter	Key.enter	n/a
326.181	5.305	652362	prompt	n/a	bankruptcy dist admin jazz\n
326.8195	0.075	653639	keystroke_b	b	n/a
326.9095	0.165	653819	keystroke_a	a	n/a
327.0145	0.135	654029	keystroke_n	n	n/a
327.3745	0.09	654749	keystroke_k	k	n/a
327.5545	0.105	655109	keystroke_r	r	n/a
327.6895	0.12	655379	keystroke_u	u	n/a
328.2145	0.121	656429	keystroke_p	p	n/a
328.3495	0.09	656699	keystroke_t	t	n/a
328.6495	0.12	657299	keystroke_c	c	n/a
329.0555	0.089	658111	keystroke_y	y	n/a
329.3695	0.135	658739	keystroke_Key.space	Key.space	n/a
329.5645	0.12	659129	keystroke_d	d	n/a
329.6395	0.12	659279	keystroke_i	i	n/a
329.7445	0.12	659489	keystroke_s	s	n/a
329.8495	0.12	659699	keystroke_t	t	n/a
329.9245	0.12	659849	keystroke_Key.space	Key.space	n/a
330.0895	0.15	660179	keystroke_a	a	n/a
330.2245	0.12	660449	keystroke_d	d	n/a
330.3295	0.105	660659	keystroke_m	m	n/a
330.4195	0.15	660839	keystroke_i	i	n/a
330.5395	0.105	661079	keystroke_n	n	n/a
330.7495	0.12	661499	keystroke_Key.space	Key.space	n/a
330.8545	0.105	661709	keystroke_j	j	n/a
330.9895	0.15	661979	keystroke_a	a	n/a
331.0945	0.12	662189	keystroke_z	z	n/a
331.2905	0.075	662581	keystroke_z	z	n/a
331.4095	0.075	662819	keystroke_Key.enter	Key.enter	n/a
331.491	4.195	662982	prompt	n/a	legs compression occur powerful\n
332.2645	0.12	664529	keystroke_l	l	n/a
332.3395	0.15	664679	keystroke_e	e	n/a
332.4445	0.105	664889	keystroke_g	g	n/a
332.6095	0.121	665219	keystroke_s	s	n/a
332.7145	0.12	665429	keystroke_Key.space	Key.space	n/a
332.8355	0.089	665671	keystroke_c	c	n/a
332.9545	0.135	665909	keystroke_o	o	n/a
333.0445	0.135	666089	keystroke_m	m	n/a
333.1345	0.12	666269	keystroke_p	p	n/a
333.1945	0.12	666389	keystroke_r	r	n/a
333.2695	0.136	666539	keystroke_e	e	n/a
333.4795	0.075	666959	keystroke_s	s	n/a
333.6295	0.105	667259	keystroke_s	s	n/a
333.6745	0.135	667349	keystroke_i	i	n/a
333.7045	0.12	667409	keystroke_o	o	n/a
333.7645	0.09	667529	keystroke_n	n	n/a
333.9595	0.12	667919	keystroke_Key.space	Key.space	n/a
334.0495	0.105	668099	keystroke_o	o	n/a
334.1395	0.046	668279	keystroke_c	c	n/a
334.2595	0.105	668519	keystroke_c	c	n/a
334.3795	0.09	668759	keystroke_u	u	n/a
334.4845	0.09	668969	keystroke_r	r	n/a
334.5895	0.105	669179	keystroke_Key.space	Key.space	n/a
334.6495	0.136	669299	keystroke_p	p	n/a
334.7095	0.135	669419	keystroke_o	o	n/a
334.7545	0.076	669509	keystroke_w	w	n/a
334.9205	0.104	669841	keystroke_e	e	n/a
334.9795	0.105	669959	keystroke_r	r	n/a
335.1895	0.105	670379	keystroke_f	f	n/a
335.2345	0.12	670469	keystroke_u	u	n/a
335.3095	0.106	670619	keystroke_l	l	n/a
335.5795	0.105	671159	keystroke_Key.enter	Key.enter	n/a
335.69	4.2865	671380	prompt	n/a	following virus declare allah\n
336.2995	0.12	672599	keystroke_f	f	n/a
336.4045	0.075	672809	keystroke_o	o	n/a
336.5855	0.059	673171	keystroke_l	l	n/a
336.7345	0.06	673469	keystroke_l	l	n/a
336.9005	0.089	673801	keystroke_o	o	n/a
336.9905	0.119	673981	keystroke_w	w	n/a
337.0795	0.105	674159	keystroke_i	i	n/a
337.3195	0.105	674639	keystroke_n	n	n/a
337.4395	0.075	674879	keystroke_g	g	n/a
337.5745	0.12	675149	keystroke_Key.space	Key.space	n/a
337.7545	0.12	675509	keystroke_v	v	n/a
337.8895	0.09	675779	keystroke_i	i	n/a
338.0095	0.09	676019	keystroke_r	r	n/a
338.0695	0.09	676139	keystroke_u	u	n/a
338.2045	0.121	676409	keystroke_s	s	n/a
338.2645	0.15	676529	keystroke_Key.space	Key.space	n/a
338.4445	0.12	676889	keystroke_d	d	n/a
338.5495	0.165	677099	keystroke_e	e	n/a
338.6845	0.12	677369	keystroke_c	c	n/a
338.7745	0.135	677549	keystroke_l	l	n/a
338.8645	0.105	677729	keystroke_a	a	n/a
338.9545	0.09	677909	keystroke_r	r	n/a
339.0145	0.12	678029	keystroke_e	e	n/a
339.0895	0.12	678179	keystroke_Key.space	Key.space	n/a
339.2245	0.105	678449	keystroke_a	a	n/a
339.3005	0.059	678601	keystroke_l	l	n/a
339.4195	0.106	678839	keystroke_l	l	n/a
339.5255	0.105	679051	keystroke_a	a	n/a
339.6145	0.075	679229	keystroke_h	h	n/a
339.8395	0.135	679679	keystroke_Key.enter	Key.enter	n/a
339.984	5.0775	679968	prompt	n/a	contains geographic visits demonstration\n
340.6345	0.105	681269	keystroke_c	c	n/a
340.7245	0.106	681449	keystroke_o	o	n/a
340.7845	0.135	681569	keystroke_n	n	n/a
340.8745	0.135	681749	keystroke_t	t	n/a
341.0245	0.12	682049	keystroke_a	a	n/a
341.0995	0.105	682199	keystroke_i	i	n/a
341.1595	0.09	682319	keystroke_n	n	n/a
341.2195	0.12	682439	keystroke_s	s	n/a
341.3545	0.12	682709	keystroke_Key.space	Key.space	n/a
341.4445	0.105	682889	keystroke_g	g	n/a
341.5345	0.121	683069	keystroke_e	e	n/a
341.6095	0.091	683219	keystroke_o	o	n/a
341.7155	0.074	683431	keystroke_g	g	n/a
341.8955	0.089	683791	keystroke_r	r	n/a
341.9545	0.105	683909	keystroke_a	a	n/a
342.0005	0.074	684001	keystroke_p	p	n/a
342.1495	0.15	684299	keystroke_h	h	n/a
342.2395	0.091	684479	keystroke_i	i	n/a
342.3145	0.076	684629	keystroke_c	c	n/a
342.4945	0.105	684989	keystroke_Key.space	Key.space	n/a
342.7505	0.09	685501	keystroke_v	v	n/a
342.8855	0.12	685771	keystroke_i	i	n/a
343.0345	0.12	686069	keystroke_s	s	n/a
343.1695	0.0745	686339	keystroke_i	i	n/a
343.3355	0.1035	686671	keystroke_t	t	n/a
343.454	0.121	686908	keystroke_s	s	n/a
343.5895	0.105	687179	keystroke_Key.space	Key.space	n/a
343.7095	0.1205	687419	keystroke_d	d	n/a
343.769	0.12	687538	keystroke_e	e	n/a
343.875	0.105	687750	keystroke_m	m	n/a
343.949	0.136	687898	keystroke_o	o	n/a
344.1	0.105	688200	keystroke_n	n	n/a
344.16	0.15	688320	keystroke_s	s	n/a
344.28	0.075	688560	keystroke_t	t	n/a
344.43	0.15	688860	keystroke_r	r	n/a
344.535	0.105	689070	keystroke_a	a	n/a
344.625	0.09	689250	keystroke_t	t	n/a
344.685	0.135	689370	keystroke_i	i	n/a
344.73	0.135	689460	keystroke_o	o	n/a
344.805	0.09	689610	keystroke_n	n	n/a
344.955	0.1045	689910	keystroke_Key.enter	Key.enter	n/a
345.066	4.6605	690132	prompt	n/a	japanese reading chemicals through\n
345.6295	0.09	691259	keystroke_j	j	n/a
345.735	0.1195	691470	keystroke_a	a	n/a
345.81	0.1195	691620	keystroke_p	p	n/a
345.9295	0.09	691859	keystroke_a	a	n/a
346.0345	0.12	692069	keystroke_n	n	n/a
346.11	0.1045	692220	keystroke_e	e	n/a
346.3045	0.1055	692609	keystroke_s	s	n/a
346.4845	0.09	692969	keystroke_e	e	n/a
346.5595	0.1355	693119	keystroke_Key.space	Key.space	n/a
346.6795	0.1055	693359	keystroke_r	r	n/a
346.74	0.2245	693480	keystroke_e	e	n/a
346.8	0.15	693600	keystroke_a	a	n/a
346.95	0.09	693900	keystroke_d	d	n/a
347.0095	0.12	694019	keystroke_i	i	n/a
347.0545	0.12	694109	keystroke_n	n	n/a
347.1445	0.09	694289	keystroke_g	g	n/a
347.2645	0.135	694529	keystroke_Key.space	Key.space	n/a
347.4145	0.12	694829	keystroke_c	c	n/a
347.5045	0.09	695009	keystroke_h	h	n/a
347.6095	0.12	695219	keystroke_e	e	n/a
347.6995	0.1505	695399	keystroke_m	m	n/a
347.7745	0.12	695549	keystroke_i	i	n/a
347.85	0.1045	695700	keystroke_c	c	n/a
347.9095	0.12	695819	keystroke_a	a	n/a
347.9995	0.105	695999	keystroke_l	l	n/a
348.1345	0.12	696269	keystroke_s	s	n/a
348.2695	0.12	696539	keystroke_Key.space	Key.space	n/a
348.4495	0.075	696899	keystroke_t	t	n/a
348.5695	0.06	697139	keystroke_h	h	n/a
348.7345	0.09	697469	keystroke_r	r	n/a
348.8845	0.105	697769	keystroke_o	o	n/a
349.0045	0.105	698009	keystroke_u	u	n/a
349.2295	0.09	698459	keystroke_g	g	n/a
349.2595	0.135	698519	keystroke_h	h	n/a
349.6345	0.09	699269	keystroke_Key.enter	Key.enter	n/a
349.731	4.3605	699462	prompt	n/a	narrative grade tutorials season\n
350.3245	0.09	700649	keystroke_n	n	n/a
350.3845	0.135	700769	keystroke_a	a	n/a
350.4745	0.09	700949	keystroke_r	r	n/a
350.6245	0.09	701249	keystroke_r	r	n/a
350.6845	0.12	701369	keystroke_a	a	n/a
350.8195	0.075	701639	keystroke_t	t	n/a
350.8795	0.12	701759	keystroke_i	i	n/a
351.0445	0.105	702089	keystroke_v	v	n/a
351.1045	0.12	702209	keystroke_e	e	n/a
351.1795	0.135	702359	keystroke_Key.space	Key.space	n/a
351.2995	0.15	702599	keystroke_g	g	n/a
351.7345	0.09	703469	keystroke_r	r	n/a
351.8395	0.136	703679	keystroke_a	a	n/a
351.9595	0.12	703919	keystroke_d	d	n/a
352.0345	0.12	704069	keystroke_e	e	n/a
352.1245	0.12	704249	keystroke_Key.space	Key.space	n/a
352.2745	0.135	704549	keystroke_t	t	n/a
352.3795	0.105	704759	keystroke_u	u	n/a
352.4995	0.075	704999	keystroke_t	t	n/a
352.5595	0.105	705119	keystroke_o	o	n/a
352.6795	0.09	705359	keystroke_r	r	n/a
352.7245	0.09	705449	keystroke_i	i	n/a
352.8445	0.105	705689	keystroke_a	a	n/a
352.9195	0.105	705839	keystroke_l	l	n/a
353.0095	0.105	706019	keystroke_s	s	n/a
353.1295	0.105	706259	keystroke_Key.space	Key.space	n/a
353.2195	0.09	706439	keystroke_s	s	n/a
353.4295	0.105	706859	keystroke_e	e	n/a
353.5045	0.18	707009	keystroke_a	a	n/a
353.6245	0.105	707249	keystroke_s	s	n/a
353.6695	0.1205	707339	keystroke_o	o	n/a
353.7595	0.09	707519	keystroke_n	n	n/a
353.9695	0.12	707939	keystroke_Key.enter	Key.enter	n/a
354.097	6.3095	708194	prompt	n/a	shortcuts military pokemon calculator\n
354.7195	0.135	709439	keystroke_s	s	n/a
354.8095	0.105	709619	keystroke_h	h	n/a
354.8555	0.149	709711	keystroke_o	o	n/a
354.9295	0.09	709859	keystroke_r	r	n/a
355.0945	0.105	710189	keystroke_t	t	n/a
355.3795	0.105	710759	keystroke_c	c	n/a
355.6345	0.135	711269	keystroke_u	u	n/a
355.7845	0.105	711569	keystroke_t	t	n/a
356.2795	0.09	712559	keystroke_s	s	n/a
356.4295	0.09	712859	keystroke_Key.space	Key.space	n/a
356.6395	0.12	713279	keystroke_m	m	n/a
356.7145	0.12	713429	keystroke_i	i	n/a
356.8645	0.135	713729	keystroke_l	l	n/a
356.9245	0.105	713849	keystroke_i	i	n/a
357.2545	0.075	714509	keystroke_t	t	n/a
357.4795	0.15	714959	keystroke_a	a	n/a
357.5695	0.12	715139	keystroke_r	r	n/a
357.6445	0.105	715289	keystroke_y	y	n/a
357.7045	0.1045	715409	keystroke_Key.space	Key.space	n/a
357.87	0.135	715740	keystroke_p	p	n/a
357.975	0.09	715950	keystroke_o	o	n/a
358.214	0.121	716428	keystroke_k	k	n/a
358.44	0.105	716880	keystroke_e	e	n/a
358.56	0.12	717120	keystroke_m	m	n/a
358.665	0.15	717330	keystroke_o	o	n/a
358.8	0.09	717600	keystroke_n	n	n/a
358.964	0.12	717928	keystroke_Key.space	Key.space	n/a
359.13	0.12	718260	keystroke_c	c	n/a
359.235	0.12	718470	keystroke_a	a	n/a
359.37	0.135	718740	keystroke_l	l	n/a
359.52	0.12	719040	keystroke_c	c	n/a
359.655	0.134	719310	keystroke_u	u	n/a
359.745	0.15	719490	keystroke_l	l	n/a
359.835	0.12	719670	keystroke_a	a	n/a
359.94	0.09	719880	keystroke_t	t	n/a
360.015	0.105	720030	keystroke_o	o	n/a
360.15	0.09	720300	keystroke_r	r	n/a
360.3	0.105	720600	keystroke_Key.enter	Key.enter	n/a
360.4105	4.511	720821	prompt	n/a	property burning thanksgiving chips\n
360.93	0.105	721860	keystroke_p	p	n/a
361.05	0.105	722100	keystroke_r	r	n/a
361.11	0.135	722220	keystroke_o	o	n/a
361.17	0.105	722340	keystroke_p	p	n/a
361.215	0.12	722430	keystroke_e	e	n/a
361.29	0.09	722580	keystroke_r	r	n/a
361.47	0.09	722940	keystroke_t	t	n/a
361.515	0.09	723030	keystroke_y	y	n/a
361.574	0.12	723148	keystroke_Key.space	Key.space	n/a
361.74	0.074	723480	keystroke_b	b	n/a
361.95	0.105	723900	keystroke_u	u	n/a
362.04	0.12	724080	keystroke_r	r	n/a
362.13	0.105	724260	keystroke_n	n	n/a
362.265	0.12	724530	keystroke_i	i	n/a
362.355	0.09	724710	keystroke_n	n	n/a
362.415	0.105	724830	keystroke_g	g	n/a
362.534	0.136	725068	keystroke_Key.space	Key.space	n/a
362.64	0.09	725280	keystroke_t	t	n/a
362.715	0.045	725430	keystroke_h	h	n/a
363.09	0.105	726180	keystroke_a	a	n/a
363.165	0.105	726330	keystroke_n	n	n/a
363.225	0.12	726450	keystroke_k	k	n/a
363.3	0.105	726600	keystroke_s	s	n/a
363.465	0.105	726930	keystroke_g	g	n/a
363.585	0.075	727170	keystroke_i	i	n/a
363.675	0.105	727350	keystroke_v	v	n/a
363.75	0.105	727500	keystroke_i	i	n/a
363.795	0.105	727590	keystroke_n	n	n/a
363.87	0.09	727740	keystroke_g	g	n/a
363.975	0.105	727950	keystroke_Key.space	Key.space	n/a
364.11	0.165	728220	keystroke_c	c	n/a
364.215	0.075	728430	keystroke_h	h	n/a
364.455	0.105	728910	keystroke_i	i	n/a
364.5	0.12	729000	keystroke_p	p	n/a
364.605	0.075	729210	keystroke_s	s	n/a
364.8	0.12	729600	keystroke_Key.enter	Key.enter	n/a
364.9275	8.094	729855	prompt	n/a	programmers incomplete classifieds expects\n
365.535	0.105	731070	keystroke_p	p	n/a
365.625	0.12	731250	keystroke_r	r	n/a
365.745	0.09	731490	keystroke_o	o	n/a
365.865	0.09	731730	keystroke_g	g	n/a
366.075	0.09	732150	keystroke_r	r	n/a
366.135	0.135	732270	keystroke_a	a	n/a
366.225	0.09	732450	keystroke_m	m	n/a
366.39	0.105	732780	keystroke_m	m	n/a
366.435	0.135	732870	keystroke_e	e	n/a
366.51	0.105	733020	keystroke_r	r	n/a
366.66	0.12	733320	keystroke_s	s	n/a
366.72	0.135	733440	keystroke_Key.space	Key.space	n/a
366.84	0.135	733680	keystroke_i	i	n/a
366.93	0.105	733860	keystroke_n	n	n/a
367.05	0.105	734100	keystroke_c	c	n/a
367.125	0.15	734250	keystroke_o	o	n/a
367.95	0.12	735900	keystroke_m	m	n/a
368.265	0.09	736530	keystroke_p	p	n/a
368.37	0.135	736740	keystroke_e	e	n/a
368.82	0.105	737640	keystroke_Key.backspace	Key.backspace	n/a
369.63	0.09	739260	keystroke_l	l	n/a
369.84	0.15	739680	keystroke_e	e	n/a
369.975	0.12	739950	keystroke_t	t	n/a
370.065	0.135	740130	keystroke_e	e	n/a
370.185	0.105	740370	keystroke_Key.space	Key.space	n/a
370.35	0.135	740700	keystroke_c	c	n/a
370.5	0.09	741000	keystroke_l	l	n/a
370.56	0.105	741120	keystroke_a	a	n/a
370.635	0.105	741270	keystroke_s	s	n/a
370.785	0.15	741570	keystroke_s	s	n/a
370.89	0.09	741780	keystroke_i	i	n/a
