onset	duration	sample	value	key	prompt_text
4.601	15.6315	9202	prompt	n/a	the quick brown fox jumps over a lazy dog\n
7.206	0.0795	14412	keystroke_t	t	n/a
7.3015	0.072	14603	keystroke_h	h	n/a
7.406	0.07	14812	keystroke_e	e	n/a
7.5125	0.0745	15025	keystroke_Key.space	Key.space	n/a
7.9645	0.1205	15929	keystroke_w	w	n/a
8.2375	0.1365	16475	keystroke_u	u	n/a
8.6225	0.0965	17245	keystroke_=	=	n/a
8.8155	0.08	17631	keystroke_=	=	n/a
9.9465	0.0805	19893	keystroke_Key.backspace	Key.backspace	n/a
10.1315	0.08	20263	keystroke_Key.backspace	Key.backspace	n/a
10.34	0.0645	20680	keystroke_Key.backspace	Key.backspace	n/a
10.6775	0.08	21355	keystroke_Key.backspace	Key.backspace	n/a
11.2875	0.1045	22575	keystroke_q	q	n/a
11.408	0.0725	22816	keystroke_u	u	n/a
11.5765	0.0805	23153	keystroke_i	i	n/a
11.689	0.0725	23378	keystroke_c	c	n/a
11.8015	0.08	23603	keystroke_k	k	n/a
11.97	0.072	23940	keystroke_Key.space	Key.space	n/a
12.2505	0.0725	24501	keystroke_b	b	n/a
12.4595	0.0725	24919	keystroke_r	r	n/a
12.564	0.08	25128	keystroke_o	o	n/a
12.6765	0.064	25353	keystroke_w	w	n/a
12.7885	0.0645	25577	keystroke_n	n	n/a
12.917	0.0885	25834	keystroke_Key.space	Key.space	n/a
13.198	0.072	26396	keystroke_f	f	n/a
13.294	0.0805	26588	keystroke_o	o	n/a
13.495	0.088	26990	keystroke_x	x	n/a
13.6315	0.088	27263	keystroke_Key.space	Key.space	n/a
13.896	0.0725	27792	keystroke_j	j	n/a
14.065	0.064	28130	keystroke_u	u	n/a
14.2335	0.064	28467	keystroke_m	m	n/a
14.386	0.08	28772	keystroke_p	p	n/a
14.5305	0.088	29061	keystroke_s	s	n/a
14.643	0.064	29286	keystroke_Key.space	Key.space	n/a
14.771	0.0645	29542	keystroke_o	o	n/a
14.8915	0.056	29783	keystroke_v	v	n/a
15.02	0.08	30040	keystroke_e	e	n/a
15.1485	0.088	30297	keystroke_r	r	n/a
15.2605	0.0725	30521	keystroke_Key.space	Key.space	n/a
15.373	0.0805	30746	keystroke_a	a	n/a
15.4535	0.0725	30907	keystroke_Key.space	Key.space	n/a
15.646	0.0725	31292	keystroke_l	l	n/a
15.8385	0.0805	31677	keystroke_a	a	n/a
16.0475	0.1045	32095	keystroke_z	z	n/a
16.3045	0.064	32609	keystroke_t	t	n/a
16.457	0.0805	32914	keystroke_Key.space	Key.space	n/a
16.9305	0.097	33861	keystroke_Key.backspace	Key.backspace	n/a
17.124	0.088	34248	keystroke_Key.backspace	Key.backspace	n/a
18.689	0.0805	37378	keystroke_y	y	n/a
18.8655	0.0805	37731	keystroke_Key.space	Key.space	n/a
19.139	0.088	38278	keystroke_d	d	n/a
19.267	0.0805	38534	keystroke_o	o	n/a
19.4355	0.0805	38871	keystroke_g	g	n/a
20.1665	0.064	40333	keystroke_Key.enter	Key.enter	n/a
20.239	10.703	40478	prompt	n/a	expansys holidays workshops optimize\n
21.2665	0.088	42533	keystroke_e	e	n/a
21.515	0.0805	43030	keystroke_x	x	n/a
21.676	0.096	43352	keystroke_p	p	n/a
21.8445	0.096	43689	keystroke_a	a	n/a
21.9805	0.0805	43961	keystroke_n	n	n/a
22.2055	0.0885	44411	keystroke_s	s	n/a
22.6955	0.072	45391	keystroke_y	y	n/a
23.137	0.08	46274	keystroke_s	s	n/a
23.522	0.0725	47044	keystroke_Key.space	Key.space	n/a
23.715	0.08	47430	keystroke_h	h	n/a
23.875	0.0805	47750	keystroke_o	o	n/a
24.068	0.0565	48136	keystroke_l	l	n/a
24.2205	0.064	48441	keystroke_i	i	n/a
24.3085	0.0965	48617	keystroke_d	d	n/a
24.485	0.081	48970	keystroke_a	a	n/a
25.096	0.088	50192	keystroke_y	y	n/a
25.4085	0.072	50817	keystroke_s	s	n/a
25.585	0.0725	51170	keystroke_Key.space	Key.space	n/a
25.9865	0.088	51973	keystroke_w	w	n/a
26.091	0.0885	52182	keystroke_o	o	n/a
26.2035	0.072	52407	keystroke_r	r	n/a
26.3315	0.0725	52663	keystroke_k	k	n/a
26.7815	0.088	53563	keystroke_s	s	n/a
26.9415	0.0725	53883	keystroke_h	h	n/a
27.094	0.0885	54188	keystroke_o	o	n/a
27.303	0.072	54606	keystroke_p	p	n/a
27.5355	0.089	55071	keystroke_s	s	n/a
28.3065	0.072	56613	keystroke_Key.space	Key.space	n/a
28.547	0.0965	57094	keystroke_o	o	n/a
28.772	0.08	57544	keystroke_p	p	n/a
28.9885	0.08	57977	keystroke_t	t	n/a
29.1255	0.096	58251	keystroke_i	i	n/a
29.494	0.0805	58988	keystroke_m	m	n/a
29.663	0.0805	59326	keystroke_i	i	n/a
29.8395	0.112	59679	keystroke_z	z	n/a
30.072	0.065	60144	keystroke_e	e	n/a
30.867	0.072	61734	keystroke_Key.enter	Key.enter	n/a
30.948	10.1295	61896	prompt	n/a	zealand construction existence melissa\n
31.718	0.096	63436	keystroke_z	z	n/a
31.9025	0.104	63805	keystroke_e	e	n/a
32.0865	0.097	64173	keystroke_a	a	n/a
32.32	0.08	64640	keystroke_l	l	n/a
32.488	0.08	64976	keystroke_a	a	n/a
32.625	0.08	65250	keystroke_n	n	n/a
32.729	0.0805	65458	keystroke_d	d	n/a
32.8815	0.088	65763	keystroke_Key.space	Key.space	n/a
33.1305	0.0805	66261	keystroke_c	c	n/a
33.219	0.072	66438	keystroke_o	o	n/a
33.339	0.072	66678	keystroke_n	n	n/a
33.4995	0.088	66999	keystroke_s	s	n/a
33.7085	0.08	67417	keystroke_t	t	n/a
34.117	0.081	68234	keystroke_r	r	n/a
34.262	0.0965	68524	keystroke_u	u	n/a
34.5105	0.1125	69021	keystroke_c	c	n/a
34.7995	0.0725	69599	keystroke_t	t	n/a
34.912	0.088	69824	keystroke_i	i	n/a
35.1205	0.1045	70241	keystroke_o	o	n/a
35.257	0.0885	70514	keystroke_n	n	n/a
35.4415	0.08	70883	keystroke_Key.space	Key.space	n/a
35.658	0.081	71316	keystroke_e	e	n/a
36.1555	0.097	72311	keystroke_x	x	n/a
36.4525	0.1125	72905	keystroke_i	i	n/a
36.6695	0.0965	73339	keystroke_s	s	n/a
37.512	0.088	75024	keystroke_t	t	n/a
38.339	0.096	76678	keystroke_e	e	n/a
38.467	0.0805	76934	keystroke_n	n	n/a
38.6035	0.104	77207	keystroke_c	c	n/a
38.7725	0.072	77545	keystroke_e	e	n/a
38.9325	0.08	77865	keystroke_Key.space	Key.space	n/a
39.133	0.072	78266	keystroke_m	m	n/a
39.2375	0.0805	78475	keystroke_e	e	n/a
39.374	0.08	78748	keystroke_l	l	n/a
39.5345	0.072	79069	keystroke_l	l	n/a
39.9435	0.0805	79887	keystroke_Key.backspace	Key.backspace	n/a
40.241	0.088	80482	keystroke_i	i	n/a
40.433	0.0805	80866	keystroke_s	s	n/a
40.5935	0.08	81187	keystroke_s	s	n/a
40.746	0.0885	81492	keystroke_a	a	n/a
40.995	0.08	81990	keystroke_Key.enter	Key.enter	n/a
41.083	7.4555	82166	prompt	n/a	brief generations muscle domestic\n
41.9255	0.1045	83851	keystroke_b	b	n/a
42.182	0.08	84364	keystroke_r	r	n/a
42.295	0.072	84590	keystroke_i	i	n/a
42.375	0.08	84750	keystroke_e	e	n/a
42.5755	0.072	85151	keystroke_f	f	n/a
43.338	0.08	86676	keystroke_Key.space	Key.space	n/a
43.7065	0.105	87413	keystroke_g	g	n/a
43.8915	0.08	87783	keystroke_e	e	n/a
43.9955	0.064	87991	keystroke_n	n	n/a
44.084	0.064	88168	keystroke_e	e	n/a
44.172	0.072	88344	keystroke_r	r	n/a
44.293	0.088	88586	keystroke_a	a	n/a
44.493	0.056	88986	keystroke_t	t	n/a
44.5655	0.096	89131	keystroke_i	i	n/a
44.7655	0.073	89531	keystroke_o	o	n/a
44.8545	0.08	89709	keystroke_n	n	n/a
44.9905	0.08	89981	keystroke_s	s	n/a
45.1185	0.0805	90237	keystroke_Key.space	Key.space	n/a
45.336	0.08	90672	keystroke_m	m	n/a
45.56	0.08	91120	keystroke_u	u	n/a
45.68	0.081	91360	keystroke_s	s	n/a
45.8975	0.08	91795	keystroke_c	c	n/a
45.9855	0.08	91971	keystroke_l	l	n/a
46.1295	0.064	92259	keystroke_e	e	n/a
46.635	0.104	93270	keystroke_Key.space	Key.space	n/a
46.844	0.112	93688	keystroke_d	d	n/a
46.9805	0.072	93961	keystroke_o	o	n/a
47.1005	0.08	94201	keystroke_m	m	n/a
47.2205	0.057	94441	keystroke_e	e	n/a
47.3895	0.096	94779	keystroke_s	s	n/a
47.598	0.056	95196	keystroke_t	t	n/a
47.718	0.089	95436	keystroke_i	i	n/a
48.1755	0.064	96351	keystroke_c	c	n/a
48.4645	0.072	96929	keystroke_Key.enter	Key.enter	n/a
48.5435	17.2045	97087	prompt	n/a	lawyer merger definitely archive\n
49.146	0.088	98292	keystroke_l	l	n/a
49.282	0.089	98564	keystroke_a	a	n/a
49.4915	0.08	98983	keystroke_t	t	n/a
50.133	0.08	100266	keystroke_Key.backspace	Key.backspace	n/a
50.277	0.097	100554	keystroke_r	r	n/a
50.6865	0.072	101373	keystroke_Key.backspace	Key.backspace	n/a
50.8225	0.081	101645	keystroke_t	t	n/a
52.09	0.0725	104180	keystroke_Key.backspace	Key.backspace	n/a
55.3065	0.104	110613	keystroke_w	w	n/a
55.7155	0.128	111431	keystroke_y	y	n/a
56.0365	0.1045	112073	keystroke_e	e	n/a
56.245	0.08	112490	keystroke_r	r	n/a
56.454	0.088	112908	keystroke_Key.space	Key.space	n/a
56.646	0.08	113292	keystroke_m	m	n/a
56.742	0.088	113484	keystroke_e	e	n/a
56.902	0.065	113804	keystroke_r	r	n/a
57.0955	0.088	114191	keystroke_g	g	n/a
57.2475	0.072	114495	keystroke_e	e	n/a
57.3675	0.064	114735	keystroke_r	r	n/a
58.536	0.096	117072	keystroke_Key.space	Key.space	n/a
58.864	0.064	117728	keystroke_f	f	n/a
59.2795	0.096	118559	keystroke_Key.backspace	Key.backspace	n/a
59.4155	0.0885	118831	keystroke_d	d	n/a
59.567	0.088	119134	keystroke_e	e	n/a
59.791	0.08	119582	keystroke_f	f	n/a
59.943	0.0795	119886	keystroke_i	i	n/a
60.0545	0.08	120109	keystroke_n	n	n/a
60.1585	0.0885	120317	keystroke_i	i	n/a
60.6945	0.08	121389	keystroke_t	t	n/a
60.8545	0.0965	121709	keystroke_i	i	n/a
62.4375	0.096	124875	keystroke_Key.backspace	Key.backspace	n/a
63.1085	0.0965	126217	keystroke_e	e	n/a
63.381	0.088	126762	keystroke_l	l	n/a
63.525	0.119	127050	keystroke_y	y	n/a
64.0045	0.088	128009	keystroke_Key.space	Key.space	n/a
64.236	0.104	128472	keystroke_a	a	n/a
64.428	0.088	128856	keystroke_r	r	n/a
64.6675	0.096	129335	keystroke_c	c	n/a
64.7715	0.0725	129543	keystroke_h	h	n/a
64.924	0.088	129848	keystroke_i	i	n/a
65.092	0.0715	130184	keystroke_v	v	n/a
65.2515	0.088	130503	keystroke_e	e	n/a
65.6755	0.0705	131351	keystroke_Key.enter	Key.enter	n/a
65.753	9.1645	131506	prompt	n/a	errors mint sustainability pokemon\n
66.9065	0.096	133813	keystroke_e	e	n/a
67.0825	0.08	134165	keystroke_r	r	n/a
67.25	0.08	134500	keystroke_r	r	n/a
67.354	0.072	134708	keystroke_o	o	n/a
67.466	0.064	134932	keystroke_r	r	n/a
67.922	0.072	135844	keystroke_s	s	n/a
68.242	0.071	136484	keystroke_Key.space	Key.space	n/a
68.385	0.0795	136770	keystroke_m	m	n/a
68.5285	0.0875	137057	keystroke_i	i	n/a
68.64	0.08	137280	keystroke_n	n	n/a
68.7905	0.08	137581	keystroke_t	t	n/a
68.966	0.0875	137932	keystroke_Key.space	Key.space	n/a
69.1495	0.0795	138299	keystroke_s	s	n/a
69.293	0.071	138586	keystroke_u	u	n/a
69.4675	0.08	138935	keystroke_s	s	n/a
69.707	0.0875	139414	keystroke_t	t	n/a
69.9455	0.08	139891	keystroke_a	a	n/a
70.089	0.08	140178	keystroke_i	i	n/a
70.2885	0.0875	140577	keystroke_n	n	n/a
70.591	0.0955	141182	keystroke_a	a	n/a
71.1565	0.104	142313	keystroke_v	v	n/a
71.6665	0.0795	143333	keystroke_Key.backspace	Key.backspace	n/a
71.778	0.072	143556	keystroke_b	b	n/a
71.9685	0.112	143937	keystroke_i	i	n/a
72.232	0.0955	144464	keystroke_l	l	n/a
72.4305	0.08	144861	keystroke_i	i	n/a
72.614	0.1035	145228	keystroke_t	t	n/a
72.8295	0.0785	145659	keystroke_y	y	n/a
73.442	0.1035	146884	keystroke_Key.space	Key.space	n/a
73.6575	0.0875	147315	keystroke_p	p	n/a
73.8645	0.079	147729	keystroke_o	o	n/a
74.0475	0.0795	148095	keystroke_k	k	n/a
74.151	0.08	148302	keystroke_e	e	n/a
74.239	0.0715	148478	keystroke_m	m	n/a
74.3825	0.0795	148765	keystroke_o	o	n/a
74.454	0.0715	148908	keystroke_n	n	n/a
74.837	0.0775	149674	keystroke_Key.enter	Key.enter	n/a
74.924	10.3895	149848	prompt	n/a	sitemap treo why's pieces\n
75.8635	0.0955	151727	keystroke_s	s	n/a
75.959	0.0795	151918	keystroke_i	i	n/a
76.1345	0.0715	152269	keystroke_t	t	n/a
76.27	0.0795	152540	keystroke_e	e	n/a
76.373	0.08	152746	keystroke_m	m	n/a
76.501	0.0635	153002	keystroke_a	a	n/a
76.6365	0.0795	153273	keystroke_p	p	n/a
76.907	0.0795	153814	keystroke_Key.space	Key.space	n/a
77.393	0.0875	154786	keystroke_t	t	n/a
77.616	0.08	155232	keystroke_r	r	n/a
77.7835	0.088	155567	keystroke_e	e	n/a
77.974	0.096	155948	keystroke_o	o	n/a
78.5635	0.079	157127	keystroke_Key.space	Key.space	n/a
78.8825	0.087	157765	keystroke_w	w	n/a
79.0175	0.056	158035	keystroke_h	h	n/a
79.193	0.072	158386	keystroke_t	t	n/a
79.5435	0.1115	159087	keystroke_'	'	n/a
80.2685	0.0955	160537	keystroke_Key.backspace	Key.backspace	n/a
81.1365	0.1195	162273	keystroke_Key.backspace	Key.backspace	n/a
81.631	0.0715	163262	keystroke_y	y	n/a
81.942	0.079	163884	keystroke_'	'	n/a
82.0925	0.088	164185	keystroke_s	s	n/a
82.618	0.104	165236	keystroke_Key.space	Key.space	n/a
83.104	0.12	166208	keystroke_p	p	n/a
83.3835	0.0795	166767	keystroke_i	i	n/a
83.4945	0.088	166989	keystroke_e	e	n/a
83.654	0.112	167308	keystroke_c	c	n/a
83.822	0.0795	167644	keystroke_e	e	n/a
84.0125	0.0795	168025	keystroke_s	s	n/a
85.2315	0.0795	170463	keystroke_Key.enter	Key.enter	n/a
85.323	8.467	170646	prompt	n/a	width studies hunger protected\n
86.1635	0.096	172327	keystroke_w	w	n/a
86.2675	0.0875	172535	keystroke_i	i	n/a
86.419	0.104	172838	keystroke_d	d	n/a
86.6815	0.088	173363	keystroke_t	t	n/a
86.849	0.08	173698	keystroke_h	h	n/a
87.214	0.089	174428	keystroke_Key.space	Key.space	n/a
87.3825	0.112	174765	keystroke_s	s	n/a
87.589	0.08	175178	keystroke_t	t	n/a
87.8205	0.104	175641	keystroke_i	i	n/a
88.3865	0.0715	176773	keystroke_Key.backspace	Key.backspace	n/a
88.832	0.064	177664	keystroke_u	u	n/a
89.1105	0.088	178221	keystroke_d	d	n/a
89.2305	0.0715	178461	keystroke_i	i	n/a
89.334	0.08	178668	keystroke_e	e	n/a
89.82	0.096	179640	keystroke_s	s	n/a
89.988	0.0795	179976	keystroke_Key.space	Key.space	n/a
90.1865	0.08	180373	keystroke_h	h	n/a
90.33	0.096	180660	keystroke_u	u	n/a
90.53	0.0795	181060	keystroke_n	n	n/a
91.032	0.0795	182064	keystroke_g	g	n/a
91.278	0.096	182556	keystroke_e	e	n/a
91.4695	0.08	182939	keystroke_r	r	n/a
91.6375	0.0865	183275	keystroke_Key.space	Key.space	n/a
91.908	0.1025	183816	keystroke_p	p	n/a
92.0515	0.088	184103	keystroke_r	r	n/a
92.219	0.071	184438	keystroke_o	o	n/a
92.4095	0.072	184819	keystroke_t	t	n/a
92.5855	0.0875	185171	keystroke_e	e	n/a
92.8155	0.104	185631	keystroke_c	c	n/a
93.039	0.072	186078	keystroke_t	t	n/a
93.191	0.0625	186382	keystroke_e	e	n/a
93.3415	0.08	186683	keystroke_d	d	n/a
93.7085	0.079	187417	keystroke_Key.enter	Key.enter	n/a
93.796	10.2245	187592	prompt	n/a	samba cardiac considerations limitations\n
94.6645	0.095	189329	keystroke_s	s	n/a
94.8555	0.088	189711	keystroke_a	a	n/a
94.967	0.08	189934	keystroke_m	m	n/a
95.191	0.086	190382	keystroke_b	b	n/a
95.373	0.0875	190746	keystroke_a	a	n/a
95.4995	0.089	190999	keystroke_Key.space	Key.space	n/a
95.6845	0.1105	191369	keystroke_c	c	n/a
95.867	0.1355	191734	keystroke_a	a	n/a
96.225	0.12	192450	keystroke_r	r	n/a
96.5925	0.1025	193185	keystroke_d	d	n/a
96.782	0.081	193564	keystroke_i	i	n/a
96.855	0.0955	193710	keystroke_a	a	n/a
97.0785	0.08	194157	keystroke_c	c	n/a
97.5395	0.089	195079	keystroke_Key.space	Key.space	n/a
98.0425	0.096	196085	keystroke_c	c	n/a
98.1625	0.0715	196325	keystroke_o	o	n/a
98.281	0.0795	196562	keystroke_n	n	n/a
98.4245	0.088	196849	keystroke_s	s	n/a
98.5445	0.0715	197089	keystroke_i	i	n/a
98.664	0.103	197328	keystroke_d	d	n/a
98.839	0.087	197678	keystroke_e	e	n/a
98.9985	0.112	197997	keystroke_r	r	n/a
99.557	0.1035	199114	keystroke_a	a	n/a
99.811	0.072	199622	keystroke_t	t	n/a
99.9695	0.097	199939	keystroke_i	i	n/a
100.1785	0.0715	200357	keystroke_o	o	n/a
100.322	0.0625	200644	keystroke_n	n	n/a
100.687	0.081	201374	keystroke_s	s	n/a
101.0385	0.0875	202077	keystroke_Key.space	Key.space	n/a
101.278	0.095	202556	keystroke_l	l	n/a
101.4605	0.08	202921	keystroke_i	i	n/a
101.6125	0.064	203225	keystroke_m	m	n/a
101.748	0.072	203496	keystroke_i	i	n/a
101.8905	0.088	203781	keystroke_t	t	n/a
102.0745	0.088	204149	keystroke_a	a	n/a
102.242	0.072	204484	keystroke_t	t	n/a
102.346	0.087	204692	keystroke_i	i	n/a
102.5285	0.096	205057	keystroke_o	o	n/a
102.6325	0.0635	205265	keystroke_n	n	n/a
103.5565	0.056	207113	keystroke_s	s	n/a
103.9475	0.071	207895	keystroke_Key.enter	Key.enter	n/a
104.026	7.756	208052	prompt	n/a	projects eagles comic sarah\n
104.6965	0.0875	209393	keystroke_p	p	n/a
104.896	0.088	209792	keystroke_r	r	n/a
104.991	0.088	209982	keystroke_o	o	n/a
105.549	0.1045	211098	keystroke_j	j	n/a
105.7655	0.072	211531	keystroke_e	e	n/a
105.908	0.105	211816	keystroke_c	c	n/a
106.141	0.072	212282	keystroke_t	t	n/a
106.3485	0.12	212697	keystroke_s	s	n/a
106.8435	0.097	213687	keystroke_Key.space	Key.space	n/a
107.164	0.104	214328	keystroke_e	e	n/a
107.364	0.1045	214728	keystroke_a	a	n/a
107.652	0.064	215304	keystroke_g	g	n/a
107.788	0.0875	215576	keystroke_l	l	n/a
107.9075	0.081	215815	keystroke_e	e	n/a
108.716	0.096	217432	keystroke_s	s	n/a
108.8755	0.104	217751	keystroke_Key.space	Key.space	n/a
109.068	0.096	218136	keystroke_c	c	n/a
109.148	0.096	218296	keystroke_o	o	n/a
109.292	0.0715	218584	keystroke_m	m	n/a
109.4515	0.081	218903	keystroke_i	i	n/a
109.692	0.088	219384	keystroke_c	c	n/a
109.86	0.0955	219720	keystroke_Key.space	Key.space	n/a
110.14	0.088	220280	keystroke_s	s	n/a
110.332	0.0875	220664	keystroke_a	a	n/a
110.668	0.08	221336	keystroke_r	r	n/a
110.876	0.0635	221752	keystroke_a	a	n/a
110.9955	0.081	221991	keystroke_h	h	n/a
111.7085	0.072	223417	keystroke_Key.enter	Key.enter	n/a
111.7865	7.732	223573	prompt	n/a	induction flame currently slim\n
112.3965	0.0875	224793	keystroke_i	i	n/a
112.572	0.0725	225144	keystroke_n	n	n/a
112.7405	0.088	225481	keystroke_d	d	n/a
112.852	0.08	225704	keystroke_u	u	n/a
112.98	0.096	225960	keystroke_c	c	n/a
113.1885	0.064	226377	keystroke_t	t	n/a
113.2765	0.0955	226553	keystroke_i	i	n/a
113.452	0.096	226904	keystroke_o	o	n/a
113.612	0.0885	227224	keystroke_n	n	n/a
113.7325	0.0955	227465	keystroke_Key.space	Key.space	n/a
113.932	0.072	227864	keystroke_g	g	n/a
114.044	0.0875	228088	keystroke_l	l	n/a
114.2525	0.0635	228505	keystroke_a	a	n/a
114.476	0.096	228952	keystroke_Key.backspace	Key.backspace	n/a
114.6515	0.081	229303	keystroke_Key.backspace	Key.backspace	n/a
114.8045	0.0795	229609	keystroke_Key.backspace	Key.backspace	n/a
115.4365	0.0795	230873	keystroke_f	f	n/a
115.524	0.088	231048	keystroke_l	l	n/a
115.628	0.0885	231256	keystroke_a	a	n/a
115.7645	0.064	231529	keystroke_m	m	n/a
116.476	0.072	232952	keystroke_e	e	n/a
116.652	0.0885	233304	keystroke_Key.space	Key.space	n/a
117.052	0.096	234104	keystroke_c	c	n/a
117.156	0.072	234312	keystroke_u	u	n/a
117.3245	0.072	234649	keystroke_r	r	n/a
117.476	0.064	234952	keystroke_r	r	n/a
117.572	0.088	235144	keystroke_e	e	n/a
117.676	0.08	235352	keystroke_n	n	n/a
117.78	0.0805	235560	keystroke_t	t	n/a
117.9565	0.088	235913	keystroke_l	l	n/a
118.092	0.048	236184	keystroke_y	y	n/a
118.676	0.056	237352	keystroke_Key.space	Key.space	n/a
118.8285	0.08	237657	keystroke_s	s	n/a
118.9165	0.08	237833	keystroke_l	l	n/a
119.092	0.12	238184	keystroke_i	i	n/a
119.204	0.08	238408	keystroke_m	m	n/a
119.444	0.072	238888	keystroke_Key.enter	Key.enter	n/a
119.5235	10.7	239047	prompt	n/a	biggest bible sometimes anniversary\n
120.332	0.088	240664	keystroke_b	b	n/a
120.436	0.072	240872	keystroke_i	i	n/a
120.7315	0.088	241463	keystroke_g	g	n/a
121.14	0.08	242280	keystroke_g	g	n/a
121.3635	0.0645	242727	keystroke_e	e	n/a
121.54	0.088	243080	keystroke_s	s	n/a
121.732	0.0635	243464	keystroke_t	t	n/a
121.8995	0.0885	243799	keystroke_Key.space	Key.space	n/a
122.268	0.08	244536	keystroke_b	b	n/a
122.4115	0.0805	244823	keystroke_i	i	n/a
122.556	0.072	245112	keystroke_b	b	n/a
122.692	0.096	245384	keystroke_l	l	n/a
122.812	0.0715	245624	keystroke_e	e	n/a
122.9485	0.0715	245897	keystroke_Key.space	Key.space	n/a
123.596	0.104	247192	keystroke_s	s	n/a
123.724	0.096	247448	keystroke_o	o	n/a
123.844	0.0795	247688	keystroke_m	m	n/a
123.9395	0.0805	247879	keystroke_e	e	n/a
124.092	0.064	248184	keystroke_t	t	n/a
124.34	0.048	248680	keystroke_i	i	n/a
124.668	0.072	249336	keystroke_Key.backspace	Key.backspace	n/a
125.3795	0.04	250759	keystroke_m	m	n/a
125.4675	0.1045	250935	keystroke_i	i	n/a
125.7875	0.096	251575	keystroke_Key.backspace	Key.backspace	n/a
125.9635	0.0885	251927	keystroke_Key.backspace	Key.backspace	n/a
126.268	0.088	252536	keystroke_i	i	n/a
126.4835	0.0805	252967	keystroke_m	m	n/a
126.644	0.08	253288	keystroke_e	e	n/a
126.836	0.08	253672	keystroke_s	s	n/a
127.028	0.0885	254056	keystroke_Key.space	Key.space	n/a
127.276	0.096	254552	keystroke_a	a	n/a
127.428	0.064	254856	keystroke_n	n	n/a
127.5805	0.0555	255161	keystroke_n	n	n/a
127.676	0.088	255352	keystroke_i	i	n/a
127.876	0.08	255752	keystroke_v	v	n/a
128.06	0.088	256120	keystroke_e	e	n/a
128.22	0.08	256440	keystroke_r	r	n/a
128.388	0.112	256776	keystroke_s	s	n/a
128.58	0.096	257160	keystroke_a	a	n/a
128.772	0.072	257544	keystroke_t	t	n/a
129.26	0.088	258520	keystroke_Key.backspace	Key.backspace	n/a
129.38	0.0955	258760	keystroke_r	r	n/a
129.652	0.096	259304	keystroke_y	y	n/a
130.14	0.08	260280	keystroke_Key.enter	Key.enter	n/a
130.2315	10.679	260463	prompt	n/a	eleven benefit gamecube refine\n
130.996	0.096	261992	keystroke_e	e	n/a
131.132	0.104	262264	keystroke_l	l	n/a
131.364	0.096	262728	keystroke_e	e	n/a
131.5795	0.081	263159	keystroke_v	v	n/a
131.7485	0.0635	263497	keystroke_e	e	n/a
131.884	0.08	263768	keystroke_n	n	n/a
132.292	0.096	264584	keystroke_Key.space	Key.space	n/a
132.748	0.104	265496	keystroke_b	b	n/a
132.964	0.072	265928	keystroke_e	e	n/a
133.084	0.072	266168	keystroke_n	n	n/a
133.188	0.0805	266376	keystroke_e	e	n/a
133.6765	0.032	267353	keystroke_g	g	n/a
134.1	0.08	268200	keystroke_Key.backspace	Key.backspace	n/a
134.236	0.072	268472	keystroke_f	f	n/a
134.396	0.08	268792	keystroke_i	i	n/a
134.6835	0.0405	269367	keystroke_t	t	n/a
135.34	0.104	270680	keystroke_Key.space	Key.space	n/a
135.7	0.088	271400	keystroke_g	g	n/a
136.028	0.104	272056	keystroke_a	a	n/a
136.164	0.08	272328	keystroke_m	m	n/a
136.3	0.08	272600	keystroke_e	e	n/a
136.58	0.096	273160	keystroke_c	c	n/a
136.684	0.08	273368	keystroke_u	u	n/a
137.0755	0.0885	274151	keystroke_e	e	n/a
137.516	0.072	275032	keystroke_Key.backspace	Key.backspace	n/a
137.604	0.072	275208	keystroke_b	b	n/a
137.756	0.088	275512	keystroke_e	e	n/a
138.18	0.112	276360	keystroke_Key.space	Key.space	n/a
138.548	0.0955	277096	keystroke_r	r	n/a
139.2205	0.0875	278441	keystroke_e	e	n/a
139.516	0.088	279032	keystroke_f	f	n/a
139.8445	0.1355	279689	keystroke_i	i	n/a
139.964	0.08	279928	keystroke_n	n	n/a
140.572	0.096	281144	keystroke_e	e	n/a
140.828	0.08	281656	keystroke_Key.enter	Key.enter	n/a
140.916	9.506	281832	prompt	n/a	cooperative stupid librarian burns\n
141.748	0.096	283496	keystroke_c	c	n/a
141.852	0.08	283704	keystroke_o	o	n/a
142.012	0.072	284024	keystroke_o	o	n/a
142.2045	0.0715	284409	keystroke_p	p	n/a
142.332	0.08	284664	keystroke_e	e	n/a
142.476	0.088	284952	keystroke_r	r	n/a
142.644	0.088	285288	keystroke_a	a	n/a
142.828	0.064	285656	keystroke_t	t	n/a
142.948	0.072	285896	keystroke_i	i	n/a
143.14	0.104	286280	keystroke_v	v	n/a
143.364	0.064	286728	keystroke_e	e	n/a
143.612	0.096	287224	keystroke_Key.space	Key.space	n/a
143.924	0.088	287848	keystroke_s	s	n/a
144.132	0.0715	288264	keystroke_t	t	n/a
144.2595	0.0885	288519	keystroke_u	u	n/a
144.692	0.064	289384	keystroke_f	f	n/a
145.084	0.104	290168	keystroke_Key.backspace	Key.backspace	n/a
145.356	0.104	290712	keystroke_p	p	n/a
145.644	0.088	291288	keystroke_i	i	n/a
145.892	0.104	291784	keystroke_d	d	n/a
146.22	0.08	292440	keystroke_Key.space	Key.space	n/a
146.412	0.088	292824	keystroke_l	l	n/a
146.596	0.08	293192	keystroke_i	i	n/a
147.012	0.152	294024	keystroke_b	b	n/a
147.404	0.12	294808	keystroke_r	r	n/a
147.692	0.12	295384	keystroke_a	a	n/a
148.116	0.088	296232	keystroke_r	r	n/a
148.26	0.0875	296520	keystroke_i	i	n/a
148.372	0.08	296744	keystroke_a	a	n/a
148.484	0.072	296968	keystroke_n	n	n/a
148.94	0.096	297880	keystroke_Key.space	Key.space	n/a
149.356	0.096	298712	keystroke_b	b	n/a
149.476	0.096	298952	keystroke_u	u	n/a
149.62	0.072	299240	keystroke_r	r	n/a
149.7315	0.064	299463	keystroke_n	n	n/a
150.028	0.088	300056	keystroke_s	s	n/a
150.348	0.072	300696	keystroke_Key.enter	Key.enter	n/a
150.4285	18.049	300857	prompt	n/a	conscious flag rank audit\n
151.2195	0.0955	302439	keystroke_c	c	n/a
151.4595	0.105	302919	keystroke_o	o	n/a
151.7315	0.0875	303463	keystroke_n	n	n/a
152.2205	0.111	304441	keystroke_s	s	n/a
152.7565	0.088	305513	keystroke_i	i	n/a
152.964	0.08	305928	keystroke_o	o	n/a
153.1085	0.063	306217	keystroke_u	u	n/a
153.2525	0.096	306505	keystroke_c	c	n/a
153.4925	0.088	306985	keystroke_e	e	n/a
154.0755	0.096	308151	keystroke_Key.backspace	Key.backspace	n/a
154.2915	0.088	308583	keystroke_Key.backspace	Key.backspace	n/a
154.6675	0.08	309335	keystroke_s	s	n/a
155.3235	0.1045	310647	keystroke_Key.space	Key.space	n/a
155.6355	0.088	311271	keystroke_g	g	n/a
156.6275	0.112	313255	keystroke_Key.backspace	Key.backspace	n/a
156.8835	0.072	313767	keystroke_Key.backspace	Key.backspace	n/a
157.0995	0.064	314199	keystroke_Key.backspace	Key.backspace	n/a
157.3235	0.08	314647	keystroke_Key.backspace	Key.backspace	n/a
157.5635	0.08	315127	keystroke_Key.backspace	Key.backspace	n/a
161.188	0.1035	322376	keystroke_Key.backspace	Key.backspace	n/a
162.133	0.096	324266	keystroke_c	c	n/a
162.301	0.103	324602	keystroke_i	i	n/a
162.5485	0.079	325097	keystroke_o	o	n/a
162.6915	0.065	325383	keystroke_u	u	n/a
162.8195	0.072	325639	keystroke_s	s	n/a
163.1635	0.096	326327	keystroke_Key.space	Key.space	n/a
163.7715	0.08	327543	keystroke_f	f	n/a
163.8685	0.072	327737	keystroke_l	l	n/a
163.9805	0.088	327961	keystroke_a	a	n/a
164.1635	0.057	328327	keystroke_g	g	n/a
164.419	0.0965	328838	keystroke_Key.space	Key.space	n/a
164.7885	0.088	329577	keystroke_r	r	n/a
164.9565	0.08	329913	keystroke_a	a	n/a
165.0515	0.088	330103	keystroke_n	n	n/a
165.2595	0.081	330519	keystroke_k	k	n/a
165.4195	0.08	330839	keystroke_Key.space	Key.space	n/a
165.675	0.112	331350	keystroke_a	a	n/a
166.1645	0.104	332329	keystroke_u	u	n/a
166.411	0.1215	332822	keystroke_f	f	n/a
166.5795	0.08	333159	keystroke_i	i	n/a
166.8275	0.0395	333655	keystroke_t	t	n/a
167.0435	0.088	334087	keystroke_Key.backspace	Key.backspace	n/a
167.211	0.088	334422	keystroke_Key.backspace	Key.backspace	n/a
167.371	0.072	334742	keystroke_Key.backspace	Key.backspace	n/a
167.467	0.0885	334934	keystroke_d	d	n/a
167.6845	0.079	335369	keystroke_i	i	n/a
167.8675	0.072	335735	keystroke_t	t	n/a
168.403	0.072	336806	keystroke_Key.enter	Key.enter	n/a
168.484	7.202	336968	prompt	n/a	bristol arrange handbook amino\n
169.2435	0.096	338487	keystroke_b	b	n/a
169.491	0.0885	338982	keystroke_r	r	n/a
169.6435	0.073	339287	keystroke_i	i	n/a
169.7475	0.097	339495	keystroke_s	s	n/a
169.947	0.088	339894	keystroke_t	t	n/a
170.1155	0.104	340231	keystroke_o	o	n/a
170.3555	0.088	340711	keystroke_l	l	n/a
170.5795	0.08	341159	keystroke_Key.space	Key.space	n/a
170.8435	0.12	341687	keystroke_a	a	n/a
171.0525	0.087	342105	keystroke_r	r	n/a
171.2275	0.08	342455	keystroke_r	r	n/a
171.3715	0.096	342743	keystroke_a	a	n/a
171.4605	0.072	342921	keystroke_n	n	n/a
171.9405	0.08	343881	keystroke_g	g	n/a
172.1005	0.08	344201	keystroke_e	e	n/a
172.5875	0.072	345175	keystroke_Key.space	Key.space	n/a
172.8675	0.081	345735	keystroke_h	h	n/a
172.9635	0.112	345927	keystroke_a	a	n/a
173.0835	0.064	346167	keystroke_n	n	n/a
173.1965	0.095	346393	keystroke_d	d	n/a
173.5635	0.072	347127	keystroke_b	b	n/a
173.7635	0.056	347527	keystroke_o	o	n/a
173.9075	0.089	347815	keystroke_o	o	n/a
174.0915	0.097	348183	keystroke_k	k	n/a
174.3155	0.088	348631	keystroke_Key.space	Key.space	n/a
174.5315	0.096	349063	keystroke_a	a	n/a
174.8035	0.096	349607	keystroke_m	m	n/a
174.9875	0.0965	349975	keystroke_i	i	n/a
175.0755	0.08	350151	keystroke_n	n	n/a
175.2515	0.08	350503	keystroke_o	o	n/a
175.6115	0.072	351223	keystroke_Key.enter	Key.enter	n/a
175.692	9.09	351384	prompt	n/a	thermal ford incentive harder\n
176.5795	0.104	353159	keystroke_t	t	n/a
176.8195	0.073	353639	keystroke_h	h	n/a
176.9235	0.104	353847	keystroke_e	e	n/a
177.1155	0.073	354231	keystroke_r	r	n/a
177.2595	0.081	354519	keystroke_m	m	n/a
177.3715	0.089	354743	keystroke_a	a	n/a
177.5075	0.073	355015	keystroke_l	l	n/a
177.6755	0.08	355351	keystroke_Key.space	Key.space	n/a
178.2115	0.113	356423	keystroke_g	g	n/a
178.7075	0.08	357415	keystroke_Key.backspace	Key.backspace	n/a
178.9395	0.065	357879	keystroke_f	f	n/a
179.3555	0.08	358711	keystroke_o	o	n/a
179.7475	0.096	359495	keystroke_r	r	n/a
179.9795	0.104	359959	keystroke_d	d	n/a
180.5875	0.12	361175	keystroke_Key.space	Key.space	n/a
180.9485	0.088	361897	keystroke_i	i	n/a
181.1005	0.072	362201	keystroke_n	n	n/a
181.2435	0.08	362487	keystroke_c	c	n/a
181.4045	0.088	362809	keystroke_e	e	n/a
181.5075	0.073	363015	keystroke_n	n	n/a
181.6285	0.079	363257	keystroke_t	t	n/a
181.7715	0.088	363543	keystroke_i	i	n/a
182.0835	0.088	364167	keystroke_v	v	n/a
183.0685	0.087	366137	keystroke_e	e	n/a
183.1955	0.072	366391	keystroke_Key.space	Key.space	n/a
183.3875	0.073	366775	keystroke_h	h	n/a
183.4605	0.103	366921	keystroke_a	a	n/a
183.6365	0.087	367273	keystroke_r	r	n/a
184.0755	0.128	368151	keystroke_d	d	n/a
184.3395	0.104	368679	keystroke_e	e	n/a
184.4995	0.08	368999	keystroke_r	r	n/a
184.6995	0.08	369399	keystroke_Key.enter	Key.enter	n/a
184.7895	8.4085	369579	prompt	n/a	suse mechanical vault trunk\n
185.6195	0.088	371239	keystroke_s	s	n/a
185.7155	0.081	371431	keystroke_u	u	n/a
186.0755	0.096	372151	keystroke_s	s	n/a
186.8355	0.073	373671	keystroke_e	e	n/a
186.9395	0.088	373879	keystroke_Key.space	Key.space	n/a
187.2035	0.105	374407	keystroke_m	m	n/a
187.3155	0.088	374631	keystroke_e	e	n/a
187.4995	0.097	374999	keystroke_c	c	n/a
187.5875	0.08	375175	keystroke_h	h	n/a
187.6995	0.072	375399	keystroke_a	a	n/a
187.8035	0.072	375607	keystroke_n	n	n/a
188.1075	0.088	376215	keystroke_i	i	n/a
188.3395	0.128	376679	keystroke_c	c	n/a
188.5955	0.104	377191	keystroke_a	a	n/a
189.1315	0.112	378263	keystroke_l	l	n/a
189.3635	0.088	378727	keystroke_Key.space	Key.space	n/a
189.7635	0.097	379527	keystroke_v	v	n/a
190.1155	0.096	380231	keystroke_a	a	n/a
190.3075	0.096	380615	keystroke_u	u	n/a
190.5635	0.096	381127	keystroke_l	l	n/a
190.7715	0.048	381543	keystroke_t	t	n/a
191.2595	0.088	382519	keystroke_Key.space	Key.space	n/a
191.4995	0.064	382999	keystroke_t	t	n/a
191.6835	0.08	383367	keystroke_r	r	n/a
191.8675	0.08	383735	keystroke_u	u	n/a
192.4435	0.1285	384887	keystroke_n	n	n/a
192.6435	0.096	385287	keystroke_k	k	n/a
193.116	0.08	386232	keystroke_Key.enter	Key.enter	n/a
193.205	20.8565	386410	prompt	n/a	examining constitution radiation assuming\n
193.9885	0.0875	387977	keystroke_e	e	n/a
194.2275	0.088	388455	keystroke_x	x	n/a
194.4515	0.096	388903	keystroke_a	a	n/a
194.9715	0.1205	389943	keystroke_m	m	n/a
196.3715	0.112	392743	keystroke_i	i	n/a
196.5715	0.072	393143	keystroke_n	n	n/a
196.6915	0.08	393383	keystroke_i	i	n/a
196.7555	0.088	393511	keystroke_n	n	n/a
196.9165	0.104	393833	keystroke_g	g	n/a
197.0755	0.096	394151	keystroke_Key.space	Key.space	n/a
198.0595	0.088	396119	keystroke_c	c	n/a
198.2835	0.096	396567	keystroke_o	o	n/a
198.4755	0.072	396951	keystroke_n	n	n/a
198.7315	0.096	397463	keystroke_s	s	n/a
199.0125	0.095	398025	keystroke_t	t	n/a
199.1875	0.12	398375	keystroke_i	i	n/a
200.0035	0.088	400007	keystroke_t	t	n/a
202.0115	0.112	404023	keystroke_u	u	n/a
202.4675	0.104	404935	keystroke_i	i	n/a
202.9155	0.104	405831	keystroke_Key.backspace	Key.backspace	n/a
204.5155	0.104	409031	keystroke_Key.backspace	Key.backspace	n/a
207.1395	0.08	414279	keystroke_u	u	n/a
207.3005	0.071	414601	keystroke_t	t	n/a
207.3955	0.089	414791	keystroke_i	i	n/a
207.5715	0.08	415143	keystroke_o	o	n/a
207.7075	0.064	415415	keystroke_n	n	n/a
209.6675	0.08	419335	keystroke_Key.space	Key.space	n/a
210.1235	0.096	420247	keystroke_r	r	n/a
210.7715	0.12	421543	keystroke_a	a	n/a
211.5395	0.088	423079	keystroke_d	d	n/a
211.6355	0.073	423271	keystroke_i	i	n/a
211.7155	0.088	423431	keystroke_a	a	n/a
211.9075	0.072	423815	keystroke_t	t	n/a
211.9955	0.08	423991	keystroke_i	i	n/a
212.1635	0.088	424327	keystroke_o	o	n/a
212.2925	0.079	424585	keystroke_n	n	n/a
212.4035	0.096	424807	keystroke_Key.space	Key.space	n/a
212.6595	0.096	425319	keystroke_a	a	n/a
212.8355	0.088	425671	keystroke_s	s	n/a
212.9875	0.088	425975	keystroke_s	s	n/a
213.0915	0.096	426183	keystroke_u	u	n/a
213.3085	0.072	426617	keystroke_m	m	n/a
213.4675	0.104	426935	keystroke_i	i	n/a
213.5875	0.072	427175	keystroke_n	n	n/a
213.7235	0.08	427447	keystroke_g	g	n/a
213.9795	0.08	427959	keystroke_Key.enter	Key.enter	n/a
214.065	10.454	428130	prompt	n/a	vendors advise mortality donors\n
214.7875	0.096	429575	keystroke_b	b	n/a
215.0115	0.136	430023	keystroke_e	e	n/a
215.4355	0.08	430871	keystroke_Key.backspace	Key.backspace	n/a
215.5875	0.088	431175	keystroke_Key.backspace	Key.backspace	n/a
215.6685	0.096	431337	keystroke_v	v	n/a
215.8275	0.08	431655	keystroke_e	e	n/a
215.9395	0.08	431879	keystroke_n	n	n/a
216.3075	0.112	432615	keystroke_d	d	n/a
216.4515	0.08	432903	keystroke_o	o	n/a
216.6435	0.08	433287	keystroke_r	r	n/a
216.8275	0.072	433655	keystroke_s	s	n/a
217.2195	0.088	434439	keystroke_Key.space	Key.space	n/a
217.4675	0.168	434935	keystroke_a	a	n/a
217.7235	0.128	435447	keystroke_d	d	n/a
218.1395	0.104	436279	keystroke_v	v	n/a
218.3555	0.08	436711	keystroke_i	i	n/a
218.5315	0.032	437063	keystroke_c	c	n/a
218.8275	0.072	437655	keystroke_Key.backspace	Key.backspace	n/a
218.9245	0.079	437849	keystroke_s	s	n/a
219.0915	0.064	438183	keystroke_e	e	n/a
219.2275	0.08	438455	keystroke_Key.space	Key.space	n/a
219.8195	0.088	439639	keystroke_m	m	n/a
219.9795	0.088	439959	keystroke_o	o	n/a
220.1155	0.081	440231	keystroke_r	r	n/a
220.3235	0.072	440647	keystroke_t	t	n/a
220.4995	0.08	440999	keystroke_a	a	n/a
220.9475	0.136	441895	keystroke_l	l	n/a
221.2595	0.088	442519	keystroke_i	i	n/a
221.5235	0.096	443047	keystroke_t	t	n/a
221.7475	0.072	443495	keystroke_y	y	n/a
222.5315	0.096	445063	keystroke_Key.space	Key.space	n/a
222.7475	0.088	445495	keystroke_d	d	n/a
222.8515	0.072	445703	keystroke_o	o	n/a
222.9955	0.072	445991	keystroke_n	n	n/a
223.1555	0.08	446311	keystroke_e	e	n/a
223.5075	0.08	447015	keystroke_Key.backspace	Key.backspace	n/a
223.7325	0.095	447465	keystroke_o	o	n/a
223.8595	0.08	447719	keystroke_r	r	n/a
224.0515	0.096	448103	keystroke_s	s	n/a
224.4355	0.08	448871	keystroke_Key.enter	Key.enter	n/a
224.525	10.569	449050	prompt	n/a	puerto reflect headed latino\n
225.1795	0.112	450359	keystroke_p	p	n/a
225.4755	0.0645	450951	keystroke_u	u	n/a
225.796	0.088	451592	keystroke_e	e	n/a
225.972	0.0955	451944	keystroke_r	r	n/a
226.2035	0.064	452407	keystroke_t	t	n/a
226.8675	0.096	453735	keystroke_o	o	n/a
227.2995	0.096	454599	keystroke_Key.space	Key.space	n/a
227.8835	0.088	455767	keystroke_r	r	n/a
228.0755	0.112	456151	keystroke_e	e	n/a
228.6275	0.088	457255	keystroke_g	g	n/a
229.2675	0.088	458535	keystroke_Key.backspace	Key.backspace	n/a
229.5475	0.112	459095	keystroke_f	f	n/a
230.7235	0.088	461447	keystroke_l	l	n/a
230.9395	0.096	461879	keystroke_e	e	n/a
231.1555	0.12	462311	keystroke_c	c	n/a
231.635	0.08	463270	keystroke_t	t	n/a
231.763	0.112	463526	keystroke_Key.space	Key.space	n/a
232.0195	0.0795	464039	keystroke_h	h	n/a
232.155	0.0885	464310	keystroke_e	e	n/a
232.3245	0.095	464649	keystroke_a	a	n/a
232.483	0.113	464966	keystroke_d	d	n/a
232.691	0.08	465382	keystroke_e	e	n/a
232.875	0.088	465750	keystroke_d	d	n/a
233.083	0.08	466166	keystroke_Key.space	Key.space	n/a
233.6515	0.104	467303	keystroke_l	l	n/a
233.9155	0.104	467831	keystroke_a	a	n/a
234.155	0.088	468310	keystroke_t	t	n/a
234.2995	0.096	468599	keystroke_i	i	n/a
234.3795	0.081	468759	keystroke_n	n	n/a
234.6595	0.056	469319	keystroke_o	o	n/a
235.0115	0.08	470023	keystroke_Key.enter	Key.enter	n/a
235.0995	11.5145	470199	prompt	n/a	custom depends investigated pockets\n
236.2605	0.111	472521	keystroke_c	c	n/a
236.4595	0.096	472919	keystroke_u	u	n/a
236.7715	0.096	473543	keystroke_s	s	n/a
237.0835	0.072	474167	keystroke_t	t	n/a
237.3555	0.12	474711	keystroke_o	o	n/a
237.6355	0.12	475271	keystroke_m	m	n/a
237.9395	0.088	475879	keystroke_Key.space	Key.space	n/a
238.3715	0.104	476743	keystroke_d	d	n/a
238.5635	0.08	477127	keystroke_e	e	n/a
238.7235	0.088	477447	keystroke_p	p	n/a
238.8515	0.064	477703	keystroke_e	e	n/a
238.9795	0.072	477959	keystroke_n	n	n/a
239.1475	0.088	478295	keystroke_d	d	n/a
239.3075	0.088	478615	keystroke_s	s	n/a
239.6115	0.088	479223	keystroke_Key.space	Key.space	n/a
239.7955	0.088	479591	keystroke_i	i	n/a
239.8915	0.088	479783	keystroke_n	n	n/a
240.1955	0.096	480391	keystroke_v	v	n/a
240.4195	0.072	480839	keystroke_e	e	n/a
240.6435	0.12	481287	keystroke_s	s	n/a
241.147	0.088	482294	keystroke_t	t	n/a
241.379	0.088	482758	keystroke_i	i	n/a
241.891	0.104	483782	keystroke_g	g	n/a
242.219	0.12	484438	keystroke_a	a	n/a
242.531	0.064	485062	keystroke_t	t	n/a
242.771	0.104	485542	keystroke_e	e	n/a
243.003	0.096	486006	keystroke_d	d	n/a
243.315	0.112	486630	keystroke_Key.space	Key.space	n/a
243.515	0.096	487030	keystroke_p	p	n/a
243.771	0.104	487542	keystroke_o	o	n/a
244.035	0.0885	488070	keystroke_c	c	n/a
244.1715	0.128	488343	keystroke_k	k	n/a
244.4035	0.112	488807	keystroke_e	e	n/a
244.6115	0.12	489223	keystroke_r	r	n/a
245.1635	0.12	490327	keystroke_Key.backspace	Key.backspace	n/a
245.3155	0.072	490631	keystroke_t	t	n/a
246.1555	0.088	492311	keystroke_s	s	n/a
246.5395	0.072	493079	keystroke_Key.enter	Key.enter	n/a
246.619	10.362	493238	prompt	n/a	retain trying produce featuring\n
247.6035	0.104	495207	keystroke_r	r	n/a
247.7635	0.104	495527	keystroke_e	e	n/a
248.0675	0.08	496135	keystroke_t	t	n/a
248.243	0.072	496486	keystroke_a	a	n/a
248.355	0.088	496710	keystroke_i	i	n/a
248.491	0.096	496982	keystroke_n	n	n/a
248.651	0.0965	497302	keystroke_Key.space	Key.space	n/a
248.8515	0.096	497703	keystroke_t	t	n/a
249.0035	0.096	498007	keystroke_r	r	n/a
249.2275	0.04	498455	keystroke_y	y	n/a
249.3075	0.096	498615	keystroke_i	i	n/a
249.3795	0.112	498759	keystroke_n	n	n/a
249.6275	0.1035	499255	keystroke_g	g	n/a
250.1395	0.104	500279	keystroke_Key.space	Key.space	n/a
250.3875	0.088	500775	keystroke_p	p	n/a
250.5875	0.096	501175	keystroke_r	r	n/a
250.94	0.08	501880	keystroke_o	o	n/a
251.268	0.111	502536	keystroke_j	j	n/a
251.692	0.079	503384	keystroke_Key.backspace	Key.backspace	n/a
251.82	0.088	503640	keystroke_f	f	n/a
252.42	0.104	504840	keystroke_Key.backspace	Key.backspace	n/a
252.835	0.089	505670	keystroke_d	d	n/a
252.988	0.088	505976	keystroke_u	u	n/a
253.22	0.095	506440	keystroke_c	c	n/a
253.924	0.111	507848	keystroke_e	e	n/a
254.084	0.079	508168	keystroke_Key.space	Key.space	n/a
254.588	0.1115	509176	keystroke_f	f	n/a
255.0355	0.088	510071	keystroke_e	e	n/a
255.2995	0.12	510599	keystroke_a	a	n/a
255.5635	0.096	511127	keystroke_t	t	n/a
255.6915	0.096	511383	keystroke_u	u	n/a
255.7955	0.088	511591	keystroke_r	r	n/a
255.9315	0.104	511863	keystroke_i	i	n/a
256.0275	0.088	512055	keystroke_n	n	n/a
256.1555	0.072	512311	keystroke_g	g	n/a
256.8995	0.08	513799	keystroke_Key.enter	Key.enter	n/a
256.9855	9.0755	513971	prompt	n/a	survive southeast sorry silicon\n
257.6435	0.112	515287	keystroke_s	s	n/a
257.7635	0.096	515527	keystroke_u	u	n/a
257.9715	0.088	515943	keystroke_r	r	n/a
258.3875	0.08	516775	keystroke_i	i	n/a
258.7635	0.072	517527	keystroke_Key.backspace	Key.backspace	n/a
258.8995	0.08	517799	keystroke_v	v	n/a
259.0275	0.08	518055	keystroke_i	i	n/a
259.2915	0.08	518583	keystroke_v	v	n/a
260.0515	0.096	520103	keystroke_e	e	n/a
260.2355	0.088	520471	keystroke_Key.space	Key.space	n/a
260.4275	0.096	520855	keystroke_s	s	n/a
260.5395	0.064	521079	keystroke_o	o	n/a
260.6755	0.096	521351	keystroke_u	u	n/a
260.8755	0.0795	521751	keystroke_t	t	n/a
261.0115	0.088	522023	keystroke_h	h	n/a
261.6915	0.088	523383	keystroke_e	e	n/a
261.9075	0.0885	523815	keystroke_a	a	n/a
262.075	0.097	524150	keystroke_s	s	n/a
262.348	0.0795	524696	keystroke_t	t	n/a
262.6185	0.088	525237	keystroke_Key.space	Key.space	n/a
262.82	0.0875	525640	keystroke_s	s	n/a
262.9155	0.08	525831	keystroke_o	o	n/a
263.0675	0.096	526135	keystroke_r	r	n/a
263.644	0.103	527288	keystroke_r	r	n/a
263.988	0.087	527976	keystroke_y	y	n/a
264.508	0.095	529016	keystroke_Key.space	Key.space	n/a
264.723	0.081	529446	keystroke_s	s	n/a
264.852	0.096	529704	keystroke_i	i	n/a
265.084	0.088	530168	keystroke_l	l	n/a
265.268	0.096	530536	keystroke_i	i	n/a
265.492	0.079	530984	keystroke_c	c	n/a
265.579	0.089	531158	keystroke_o	o	n/a
265.684	0.079	531368	keystroke_n	n	n/a
265.987	0.072	531974	keystroke_Key.enter	Key.enter	n/a
266.0665	11.171	532133	prompt	n/a	attacks rhythm hormone excel\n
266.788	0.087	533576	keystroke_a	a	n/a
267.019	0.065	534038	keystroke_t	t	n/a
267.172	0.071	534344	keystroke_t	t	n/a
267.315	0.081	534630	keystroke_a	a	n/a
267.475	0.088	534950	keystroke_c	c	n/a
267.604	0.087	535208	keystroke_k	k	n/a
267.763	0.081	535526	keystroke_s	s	n/a
267.955	0.08	535910	keystroke_Key.space	Key.space	n/a
269.108	0.08	538216	keystroke_r	r	n/a
269.251	0.073	538502	keystroke_h	h	n/a
269.404	0.071	538808	keystroke_y	y	n/a
269.596	0.063	539192	keystroke_t	t	n/a
269.82	0.096	539640	keystroke_u	u	n/a
270.355	0.112	540710	keystroke_Key.backspace	Key.backspace	n/a
271.5	0.024	543000	keystroke_j	j	n/a
272.035	0.096	544070	keystroke_Key.backspace	Key.backspace	n/a
272.444	0.071	544888	keystroke_h	h	n/a
272.6915	0.079	545383	keystroke_m	m	n/a
273.435	0.081	546870	keystroke_Key.space	Key.space	n/a
273.659	0.081	547318	keystroke_h	h	n/a
273.804	0.112	547608	keystroke_o	o	n/a
273.932	0.08	547864	keystroke_r	r	n/a
274.228	0.088	548456	keystroke_m	m	n/a
274.476	0.096	548952	keystroke_o	o	n/a
274.7	0.071	549400	keystroke_n	n	n/a
274.948	0.08	549896	keystroke_e	e	n/a
275.091	0.0875	550182	keystroke_Key.space	Key.space	n/a
275.2835	0.079	550567	keystroke_e	e	n/a
275.5235	0.088	551047	keystroke_x	x	n/a
275.7315	0.087	551463	keystroke_c	c	n/a
275.9155	0.072	551831	keystroke_e	e	n/a
276.0745	0.105	552149	keystroke_l	l	n/a
277.164	0.071	554328	keystroke_Key.enter	Key.enter	n/a
277.243	16.9945	554486	prompt	n/a	shouldn't've fellowship chemistry employee\n
278.292	0.087	556584	keystroke_s	s	n/a
278.42	0.08	556840	keystroke_h	h	n/a
278.563	0.081	557126	keystroke_o	o	n/a
278.651	0.081	557302	keystroke_u	u	n/a
278.86	0.088	557720	keystroke_l	l	n/a
279.004	0.08	558008	keystroke_d	d	n/a
279.131	0.073	558262	keystroke_n	n	n/a
279.659	0.121	559318	keystroke_'	'	n/a
283.1	0.087	566200	keystroke_t	t	n/a
284.396	0.072	568792	keystroke_'	'	n/a
284.803	0.08	569606	keystroke_v	v	n/a
285.22	0.088	570440	keystroke_e	e	n/a
285.355	0.088	570710	keystroke_Key.space	Key.space	n/a
285.716	0.08	571432	keystroke_g	g	n/a
286.179	0.096	572358	keystroke_Key.backspace	Key.backspace	n/a
286.812	0.079	573624	keystroke_f	f	n/a
286.987	0.08	573974	keystroke_e	e	n/a
287.252	0.095	574504	keystroke_l	l	n/a
287.459	0.08	574918	keystroke_l	l	n/a
287.628	0.079	575256	keystroke_o	o	n/a
287.747	0.073	575494	keystroke_w	w	n/a
287.947	0.072	575894	keystroke_s	s	n/a
288.012	0.072	576024	keystroke_h	h	n/a
288.1	0.111	576200	keystroke_i	i	n/a
288.348	0.079	576696	keystroke_p	p	n/a
288.499	0.088	576998	keystroke_Key.space	Key.space	n/a
288.667	0.089	577334	keystroke_c	c	n/a
288.764	0.072	577528	keystroke_h	h	n/a
288.868	0.071	577736	keystroke_e	e	n/a
288.988	0.08	577976	keystroke_m	m	n/a
289.156	0.071	578312	keystroke_i	i	n/a
289.251	0.088	578502	keystroke_s	s	n/a
289.459	0.096	578918	keystroke_t	t	n/a
290.764	0.096	581528	keystroke_r	r	n/a
290.972	0.072	581944	keystroke_y	y	n/a
291.612	0.079	583224	keystroke_Key.space	Key.space	n/a
291.788	0.072	583576	keystroke_e	e	n/a
291.907	0.089	583814	keystroke_m	m	n/a
292.123	0.097	584246	keystroke_p	p	n/a
292.299	0.08	584598	keystroke_l	l	n/a
292.475	0.08	584950	keystroke_o	o	n/a
292.667	0.048	585334	keystroke_t	t	n/a
293.1315	0.08	586263	keystroke_Key.backspace	Key.backspace	n/a
293.2835	0.104	586567	keystroke_y	y	n/a
293.5475	0.088	587095	keystroke_e	e	n/a
293.7475	0.096	587495	keystroke_e	e	n/a
294.1235	0.112	588247	keystroke_Key.enter	Key.enter	n/a
294.2445	8.4725	588489	prompt	n/a	fisher periodically there entity\n
295.3555	0.072	590711	keystroke_f	f	n/a
295.4515	0.072	590903	keystroke_i	i	n/a
295.5395	0.08	591079	keystroke_s	s	n/a
295.6275	0.056	591255	keystroke_h	h	n/a
295.7315	0.08	591463	keystroke_e	e	n/a
295.8915	0.072	591783	keystroke_r	r	n/a
296.0195	0.08	592039	keystroke_Key.space	Key.space	n/a
296.3715	0.104	592743	keystroke_p	p	n/a
296.5795	0.096	593159	keystroke_r	r	n/a
296.9075	0.064	593815	keystroke_Key.backspace	Key.backspace	n/a
296.9875	0.08	593975	keystroke_e	e	n/a
297.1235	0.072	594247	keystroke_r	r	n/a
297.2435	0.088	594487	keystroke_i	i	n/a
297.4515	0.064	594903	keystroke_o	o	n/a
297.8035	0.104	595607	keystroke_d	d	n/a
298.3075	0.104	596615	keystroke_i	i	n/a
298.5715	0.096	597143	keystroke_c	c	n/a
298.7075	0.096	597415	keystroke_a	a	n/a
298.7955	0.064	597591	keystroke_l	l	n/a
298.9315	0.08	597863	keystroke_l	l	n/a
299.0755	0.072	598151	keystroke_y	y	n/a
299.2515	0.08	598503	keystroke_Key.space	Key.space	n/a
299.6595	0.088	599319	keystroke_t	t	n/a
299.7795	0.08	599559	keystroke_h	h	n/a
299.8755	0.072	599751	keystroke_e	e	n/a
299.9715	0.08	599943	keystroke_r	r	n/a
300.0275	0.072	600055	keystroke_e	e	n/a
300.1635	0.072	600327	keystroke_Key.space	Key.space	n/a
300.4675	0.08	600935	keystroke_e	e	n/a
300.5635	0.072	601127	keystroke_n	n	n/a
300.8835	0.056	601767	keystroke_t	t	n/a
301.5155	0.096	603031	keystroke_i	i	n/a
301.7955	0.096	603591	keystroke_t	t	n/a
302.0835	0.088	604167	keystroke_y	y	n/a
302.6275	0.088	605255	keystroke_Key.enter	Key.enter	n/a
302.723	13.482	605446	prompt	n/a	sport bufing revolution metabolism\n
303.4835	0.08	606967	keystroke_s	s	n/a
303.6195	0.104	607239	keystroke_p	p	n/a
304.2995	0.08	608599	keystroke_o	o	n/a
304.7715	0.152	609543	keystroke_t	t	n/a
305.3235	0.096	610647	keystroke_Key.backspace	Key.backspace	n/a
305.4515	0.096	610903	keystroke_r	r	n/a
305.7235	0.096	611447	keystroke_t	t	n/a
306.1635	0.104	612327	keystroke_Key.space	Key.space	n/a
306.4995	0.072	612999	keystroke_b	b	n/a
306.6355	0.088	613271	keystroke_u	u	n/a
308.4915	0.064	616983	keystroke_f	f	n/a
308.596	0.104	617192	keystroke_i	i	n/a
308.6915	0.096	617383	keystroke_n	n	n/a
308.836	0.064	617672	keystroke_g	g	n/a
309.2355	0.064	618471	keystroke_Key.space	Key.space	n/a
310.1475	0.096	620295	keystroke_r	r	n/a
310.3075	0.08	620615	keystroke_e	e	n/a
310.6515	0.096	621303	keystroke_v	v	n/a
310.8435	0.088	621687	keystroke_o	o	n/a
311.0515	0.072	622103	keystroke_l	l	n/a
311.3475	0.104	622695	keystroke_u	u	n/a
311.5475	0.08	623095	keystroke_t	t	n/a
311.7155	0.16	623431	keystroke_i	i	n/a
311.9235	0.096	623847	keystroke_o	o	n/a
312.0835	0.08	624167	keystroke_n	n	n/a
312.6515	0.072	625303	keystroke_Key.space	Key.space	n/a
312.8355	0.08	625671	keystroke_m	m	n/a
312.9235	0.088	625847	keystroke_e	e	n/a
313.0995	0.088	626199	keystroke_t	t	n/a
313.2915	0.088	626583	keystroke_a	a	n/a
314.1955	0.088	628391	keystroke_v	v	n/a
314.4435	0.12	628887	keystroke_o	o	n/a
314.7715	0.072	629543	keystroke_Key.backspace	Key.backspace	n/a
314.8995	0.088	629799	keystroke_Key.backspace	Key.backspace	n/a
314.9635	0.088	629927	keystroke_b	b	n/a
315.1475	0.096	630295	keystroke_o	o	n/a
315.3555	0.08	630711	keystroke_l	l	n/a
315.5475	0.08	631095	keystroke_i	i	n/a
315.6675	0.072	631335	keystroke_s	s	n/a
315.7875	0.072	631575	keystroke_m	m	n/a
316.1315	0.072	632263	keystroke_Key.enter	Key.enter	n/a
316.2135	15.5835	632427	prompt	n/a	decisions bedford suicide humans\n
316.8675	0.088	633735	keystroke_d	d	n/a
317.0195	0.088	634039	keystroke_e	e	n/a
317.2515	0.08	634503	keystroke_c	c	n/a
317.3635	0.072	634727	keystroke_i	i	n/a
317.6515	0.096	635303	keystroke_s	s	n/a
318.0755	0.112	636151	keystroke_i	i	n/a
318.3875	0.12	636775	keystroke_o	o	n/a
318.6755	0.104	637351	keystroke_n	n	n/a
318.8675	0.096	637735	keystroke_s	s	n/a
318.9955	0.088	637991	keystroke_Key.space	Key.space	n/a
319.4195	0.112	638839	keystroke_b	b	n/a
319.6275	0.104	639255	keystroke_e	e	n/a
319.7795	0.104	639559	keystroke_f	f	n/a
320.0035	0.096	640007	keystroke_o	o	n/a
320.1875	0.112	640375	keystroke_r	r	n/a
320.4435	0.104	640887	keystroke_d	d	n/a
320.8755	0.096	641751	keystroke_Key.backspace	Key.backspace	n/a
321.2595	0.088	642519	keystroke_Key.backspace	Key.backspace	n/a
321.4355	0.088	642871	keystroke_Key.backspace	Key.backspace	n/a
321.6115	0.08	643223	keystroke_Key.backspace	Key.backspace	n/a
322.4035	0.064	644807	keystroke_d	d	n/a
322.5795	0.08	645159	keystroke_f	f	n/a
322.6675	0.056	645335	keystroke_o	o	n/a
322.8035	0.088	645607	keystroke_r	r	n/a
323.7555	0.088	647511	keystroke_d	d	n/a
323.8755	0.088	647751	keystroke_Key.space	Key.space	n/a
324.0675	0.08	648135	keystroke_s	s	n/a
324.1635	0.096	648327	keystroke_u	u	n/a
324.3555	0.096	648711	keystroke_i	i	n/a
324.4675	0.088	648935	keystroke_c	c	n/a
324.9715	0.088	649943	keystroke_i	i	n/a
325.4515	0.152	650903	keystroke_d	d	n/a
326.0275	0.104	652055	keystroke_e	e	n/a
326.196	0.0715	652392	keystroke_Key.space	Key.space	n/a
326.4755	0.088	652951	keystroke_h	h	n/a
326.7155	0.088	653431	keystroke_a	a	n/a
326.8755	0.088	653751	keystroke_m	m	n/a
327.2595	0.072	654519	keystroke_a	a	n/a
327.3555	0.08	654711	keystroke_n	n	n/a
327.6995	0.088	655399	keystroke_Key.backspace	Key.backspace	n/a
327.8835	0.088	655767	keystroke_Key.backspace	Key.backspace	n/a
328.0515	0.08	656103	keystroke_Key.backspace	Key.backspace	n/a
328.2435	0.088	656487	keystroke_Key.backspace	Key.backspace	n/a
328.4435	0.048	656887	keystroke_Key.backspace	Key.backspace	n/a
329.3795	0.072	658759	keystroke_h	h	n/a
329.5715	0.056	659143	keystroke_u	u	n/a
329.7555	0.056	659511	keystroke_m	m	n/a
329.8355	0.096	659671	keystroke_a	a	n/a
329.9155	0.056	659831	keystroke_n	n	n/a
330.0595	0.04	660119	keystroke_d	d	n/a
330.3795	0.08	660759	keystroke_Key.backspace	Key.backspace	n/a
330.4835	0.072	660967	keystroke_s	s	n/a
331.7235	0.072	663447	keystroke_Key.enter	Key.enter	n/a
331.8005	12.189	663601	prompt	n/a	stability nickname assistance fascinating\n
332.5715	0.088	665143	keystroke_s	s	n/a
332.7555	0.1045	665511	keystroke_t	t	n/a
332.916	0.088	665832	keystroke_a	a	n/a
333.124	0.072	666248	keystroke_b	b	n/a
333.22	0.096	666440	keystroke_i	i	n/a
333.452	0.088	666904	keystroke_l	l	n/a
333.628	0.072	667256	keystroke_i	i	n/a
333.756	0.104	667512	keystroke_t	t	n/a
333.956	0.072	667912	keystroke_y	y	n/a
334.484	0.088	668968	keystroke_Key.space	Key.space	n/a
334.828	0.0715	669656	keystroke_n	n	n/a
334.9635	0.0885	669927	keystroke_i	i	n/a
335.076	0.088	670152	keystroke_c	c	n/a
335.204	0.088	670408	keystroke_k	k	n/a
335.5795	0.096	671159	keystroke_n	n	n/a
335.7075	0.096	671415	keystroke_a	a	n/a
335.8195	0.072	671639	keystroke_m	m	n/a
335.9315	0.072	671863	keystroke_e	e	n/a
336.092	0.096	672184	keystroke_Key.space	Key.space	n/a
336.684	0.089	673368	keystroke_a	a	n/a
336.852	0.0875	673704	keystroke_s	s	n/a
337.0035	0.08	674007	keystroke_s	s	n/a
337.1315	0.072	674263	keystroke_i	i	n/a
337.6515	0.096	675303	keystroke_s	s	n/a
338.2035	0.088	676407	keystroke_t	t	n/a
338.4115	0.08	676823	keystroke_a	a	n/a
338.5475	0.072	677095	keystroke_n	n	n/a
338.6835	0.08	677367	keystroke_c	c	n/a
338.8195	0.072	677639	keystroke_e	e	n/a
339.3395	0.096	678679	keystroke_Key.space	Key.space	n/a
339.8035	0.088	679607	keystroke_f	f	n/a
340.132	0.096	680264	keystroke_a	a	n/a
340.692	0.112	681384	keystroke_s	s	n/a
341.14	0.088	682280	keystroke_c	c	n/a
341.34	0.088	682680	keystroke_i	i	n/a
341.58	0.112	683160	keystroke_n	n	n/a
342.572	0.12	685144	keystroke_a	a	n/a
342.836	0.08	685672	keystroke_t	t	n/a
343.028	0.088	686056	keystroke_i	i	n/a
343.204	0.088	686408	keystroke_n	n	n/a
343.316	0.088	686632	keystroke_g	g	n/a
343.9	0.088	687800	keystroke_Key.enter	Key.enter	n/a
343.996	18.5695	687992	prompt	n/a	russian spiritual displayed racing\n
344.7715	0.064	689543	keystroke_r	r	n/a
345.4115	0.088	690823	keystroke_u	u	n/a
345.6195	0.08	691239	keystroke_s	s	n/a
345.9635	0.088	691927	keystroke_s	s	n/a
346.1235	0.088	692247	keystroke_i	i	n/a
346.2675	0.072	692535	keystroke_a	a	n/a
346.3715	0.096	692743	keystroke_n	n	n/a
346.9955	0.087	693991	keystroke_Key.space	Key.space	n/a
347.2035	0.072	694407	keystroke_s	s	n/a
347.3235	0.1035	694647	keystroke_p	p	n/a
347.563	0.088	695126	keystroke_i	i	n/a
349.1395	0.119	698279	keystroke_r	r	n/a
349.6355	0.144	699271	keystroke_i	i	n/a
350.6505	0.096	701301	keystroke_Key.backspace	Key.backspace	n/a
350.8595	0.0805	701719	keystroke_t	t	n/a
351.2595	0.136	702519	keystroke_u	u	n/a
351.804	0.096	703608	keystroke_a	a	n/a
351.956	0.1515	703912	keystroke_l	l	n/a
354.1395	0.112	708279	keystroke_=	=	n/a
354.9545	0.08	709909	keystroke_Key.backspace	Key.backspace	n/a
355.1305	0.072	710261	keystroke_Key.backspace	Key.backspace	n/a
355.2905	0.072	710581	keystroke_Key.backspace	Key.backspace	n/a
355.4515	0.071	710903	keystroke_Key.backspace	Key.backspace	n/a
355.6265	0.088	711253	keystroke_Key.backspace	Key.backspace	n/a
356.7395	0.08	713479	keystroke_i	i	n/a
356.98	0.0785	713960	keystroke_t	t	n/a
357.0995	0.0715	714199	keystroke_u	u	n/a
357.204	0.079	714408	keystroke_a	a	n/a
357.356	0.08	714712	keystroke_l	l	n/a
358.251	0.096	716502	keystroke_Key.space	Key.space	n/a
358.42	0.104	716840	keystroke_d	d	n/a
358.827	0.08	717654	keystroke_i	i	n/a
359.035	0.097	718070	keystroke_s	s	n/a
359.2995	0.1205	718599	keystroke_p	p	n/a
359.476	0.087	718952	keystroke_l	l	n/a
359.652	0.095	719304	keystroke_a	a	n/a
359.892	0.048	719784	keystroke_y	y	n/a
360.0755	0.032	720151	keystroke_e	e	n/a
360.2915	0.048	720583	keystroke_e	e	n/a
360.8115	0.072	721623	keystroke_Key.backspace	Key.backspace	n/a
360.9075	0.072	721815	keystroke_d	d	n/a
361.1075	0.08	722215	keystroke_Key.space	Key.space	n/a
361.4995	0.104	722999	keystroke_r	r	n/a
361.6755	0.088	723351	keystroke_a	a	n/a
361.851	0.088	723702	keystroke_c	c	n/a
361.987	0.08	723974	keystroke_i	i	n/a
362.059	0.08	724118	keystroke_n	n	n/a
362.1555	0.0635	724311	keystroke_g	g	n/a
362.4915	0.072	724983	keystroke_Key.enter	Key.enter	n/a
362.5715	6.898	725143	prompt	n/a	trial asking brass adrian\n
363.4035	0.088	726807	keystroke_t	t	n/a
363.5635	0.088	727127	keystroke_r	r	n/a
363.6915	0.088	727383	keystroke_i	i	n/a
363.7875	0.072	727575	keystroke_a	a	n/a
363.9395	0.08	727879	keystroke_l	l	n/a
364.1955	0.08	728391	keystroke_Key.space	Key.space	n/a
364.3715	0.096	728743	keystroke_a	a	n/a
364.5395	0.088	729079	keystroke_s	s	n/a
364.7475	0.104	729495	keystroke_k	k	n/a
364.9395	0.096	729879	keystroke_i	i	n/a
365.0285	0.071	730057	keystroke_n	n	n/a
365.1315	0.08	730263	keystroke_g	g	n/a
365.3955	0.096	730791	keystroke_Key.space	Key.space	n/a
365.9475	0.096	731895	keystroke_b	b	n/a
366.1635	0.088	732327	keystroke_r	r	n/a
366.7555	0.088	733511	keystroke_a	a	n/a
366.9555	0.088	733911	keystroke_s	s	n/a
367.1235	0.072	734247	keystroke_s	s	n/a
367.4995	0.08	734999	keystroke_Key.space	Key.space	n/a
367.7875	0.112	735575	keystroke_a	a	n/a
368.0515	0.104	736103	keystroke_d	d	n/a
368.6115	0.096	737223	keystroke_r	r	n/a
368.7875	0.088	737575	keystroke_i	i	n/a
368.8915	0.072	737783	keystroke_a	a	n/a
369.0275	0.072	738055	keystroke_n	n	n/a
369.4035	0.064	738807	keystroke_Key.enter	Key.enter	n/a
369.4755	13.5215	738951	prompt	n/a	approximately midi wizard benjamin\n
370.1875	0.08	740375	keystroke_a	a	n/a
370.2835	0.088	740567	keystroke_p	p	n/a
370.4675	0.096	740935	keystroke_p	p	n/a
370.6195	0.088	741239	keystroke_r	r	n/a
370.7395	0.088	741479	keystroke_o	o	n/a
371.2915	0.096	742583	keystroke_x	x	n/a
371.4915	0.112	742983	keystroke_i	i	n/a
371.7715	0.096	743543	keystroke_m	m	n/a
372.5315	0.12	745063	keystroke_a	a	n/a
372.8035	0.104	745607	keystroke_t	t	n/a
372.9955	0.088	745991	keystroke_e	e	n/a
373.1235	0.056	746247	keystroke_l	l	n/a
373.3555	0.08	746711	keystroke_y	y	n/a
373.5235	0.08	747047	keystroke_Key.space	Key.space	n/a
373.7155	0.088	747431	keystroke_m	m	n/a
373.867	0.088	747734	keystroke_i	i	n/a
374.259	0.112	748518	keystroke_d	d	n/a
374.419	0.088	748838	keystroke_i	i	n/a
375.059	0.088	750118	keystroke_Key.space	Key.space	n/a
375.515	0.128	751030	keystroke_w	w	n/a
375.899	0.104	751798	keystroke_i	i	n/a
376.171	0.104	752342	keystroke_a	a	n/a
376.611	0.096	753222	keystroke_Key.backspace	Key.backspace	n/a
376.723	0.081	753446	keystroke_z	z	n/a
377.051	0.088	754102	keystroke_e	e	n/a
377.419	0.088	754838	keystroke_Key.backspace	Key.backspace	n/a
377.523	0.088	755046	keystroke_a	a	n/a
377.699	0.104	755398	keystroke_e	e	n/a
378.1945	0.0805	756389	keystroke_Key.backspace	Key.backspace	n/a
378.292	0.095	756584	keystroke_r	r	n/a
378.531	0.0805	757062	keystroke_d	d	n/a
379.1225	0.096	758245	keystroke_Key.space	Key.space	n/a
379.396	0.0875	758792	keystroke_b	b	n/a
379.6195	0.119	759239	keystroke_e	e	n/a
379.8195	0.103	759639	keystroke_n	n	n/a
380.1305	0.064	760261	keystroke_h	h	n/a
380.6505	0.088	761301	keystroke_Key.backspace	Key.backspace	n/a
380.868	0.087	761736	keystroke_j	j	n/a
381.219	0.088	762438	keystroke_a	a	n/a
381.371	0.056	762742	keystroke_m	m	n/a
381.627	0.136	763254	keystroke_i	i	n/a
381.755	0.081	763510	keystroke_n	n	n/a
382.923	0.072	765846	keystroke_Key.enter	Key.enter	n/a
383.004	9.5055	766008	prompt	n/a	reporter obituaries selected tough\n
383.78	0.095	767560	keystroke_r	r	n/a
383.915	0.088	767830	keystroke_e	e	n/a
384.076	0.096	768152	keystroke_p	p	n/a
384.283	0.08	768566	keystroke_o	o	n/a
384.772	0.103	769544	keystroke_r	r	n/a
385.179	0.088	770358	keystroke_t	t	n/a
385.443	0.089	770886	keystroke_e	e	n/a
385.611	0.08	771222	keystroke_r	r	n/a
385.779	0.088	771558	keystroke_Key.space	Key.space	n/a
386.123	0.088	772246	keystroke_o	o	n/a
386.347	0.104	772694	keystroke_b	b	n/a
386.603	0.104	773206	keystroke_i	i	n/a
386.867	0.08	773734	keystroke_t	t	n/a
387.036	0.095	774072	keystroke_u	u	n/a
387.179	0.088	774358	keystroke_a	a	n/a
387.571	0.097	775142	keystroke_r	r	n/a
387.771	0.104	775542	keystroke_i	i	n/a
388.188	0.088	776376	keystroke_e	e	n/a
388.403	0.088	776806	keystroke_s	s	n/a
388.6745	0.088	777349	keystroke_Key.space	Key.space	n/a
388.9235	0.064	777847	keystroke_s	s	n/a
389.0915	0.08	778183	keystroke_e	e	n/a
389.1955	0.08	778391	keystroke_l	l	n/a
389.3635	0.072	778727	keystroke_e	e	n/a
389.5475	0.08	779095	keystroke_c	c	n/a
389.7715	0.056	779543	keystroke_t	t	n/a
389.9075	0.08	779815	keystroke_e	e	n/a
390.1075	0.08	780215	keystroke_d	d	n/a
390.2995	0.08	780599	keystroke_Key.space	Key.space	n/a
390.7555	0.08	781511	keystroke_t	t	n/a
390.8995	0.08	781799	keystroke_o	o	n/a
391.083	0.096	782166	keystroke_u	u	n/a
391.259	0.088	782518	keystroke_g	g	n/a
391.355	0.072	782710	keystroke_h	h	n/a
392.4355	0.072	784871	keystroke_Key.enter	Key.enter	n/a
392.5145	10.739	785029	prompt	n/a	currencies forests imagine vessel\n
393.411	0.128	786822	keystroke_c	c	n/a
393.5475	0.08	787095	keystroke_u	u	n/a
393.6995	0.0795	787399	keystroke_r	r	n/a
393.859	0.088	787718	keystroke_r	r	n/a
394.003	0.088	788006	keystroke_e	e	n/a
394.115	0.08	788230	keystroke_n	n	n/a
394.643	0.072	789286	keystroke_c	c	n/a
394.819	0.096	789638	keystroke_i	i	n/a
394.971	0.088	789942	keystroke_e	e	n/a
395.179	0.08	790358	keystroke_s	s	n/a
395.339	0.088	790678	keystroke_Key.space	Key.space	n/a
395.643	0.112	791286	keystroke_f	f	n/a
395.779	0.088	791558	keystroke_o	o	n/a
395.923	0.104	791846	keystroke_r	r	n/a
396.363	0.097	792726	keystroke_e	e	n/a
396.595	0.096	793190	keystroke_s	s	n/a
396.835	0.089	793670	keystroke_t	t	n/a
397.307	0.088	794614	keystroke_s	s	n/a
397.595	0.08	795190	keystroke_Key.space	Key.space	n/a
397.7875	0.0955	795575	keystroke_i	i	n/a
397.971	0.072	795942	keystroke_m	m	n/a
398.0675	0.12	796135	keystroke_a	a	n/a
398.371	0.0805	796742	keystroke_g	g	n/a
398.491	0.096	796982	keystroke_i	i	n/a
398.571	0.0965	797142	keystroke_n	n	n/a
398.851	0.0805	797702	keystroke_Key.space	Key.space	n/a
399.1715	0.104	798343	keystroke_v	v	n/a
399.3715	0.088	798743	keystroke_e	e	n/a
399.8355	0.096	799671	keystroke_Key.backspace	Key.backspace	n/a
400.0035	0.096	800007	keystroke_Key.backspace	Key.backspace	n/a
400.1795	0.08	800359	keystroke_Key.backspace	Key.backspace	n/a
400.4995	0.072	800999	keystroke_e	e	n/a
400.6675	0.08	801335	keystroke_Key.space	Key.space	n/a
401.5155	0.08	803031	keystroke_v	v	n/a
401.6915	0.072	803383	keystroke_e	e	n/a
401.907	0.096	803814	keystroke_s	s	n/a
402.163	0.056	804326	keystroke_s	s	n/a
402.499	0.08	804998	keystroke_e	e	n/a
402.675	0.096	805350	keystroke_l	l	n/a
403.171	0.08	806342	keystroke_Key.enter	Key.enter	n/a
403.2615	6.76	806523	prompt	n/a	explore fold manual used\n
404.043	0.096	808086	keystroke_e	e	n/a
404.267	0.088	808534	keystroke_x	x	n/a
404.347	0.12	808694	keystroke_p	p	n/a
404.451	0.104	808902	keystroke_l	l	n/a
404.659	0.096	809318	keystroke_o	o	n/a
404.819	0.1125	809638	keystroke_r	r	n/a
404.9715	0.096	809943	keystroke_e	e	n/a
405.2595	0.072	810519	keystroke_Key.space	Key.space	n/a
405.4915	0.096	810983	keystroke_f	f	n/a
405.6195	0.072	811239	keystroke_o	o	n/a
405.7795	0.096	811559	keystroke_l	l	n/a
405.8835	0.08	811767	keystroke_d	d	n/a
406.0115	0.08	812023	keystroke_Key.space	Key.space	n/a
406.1955	0.096	812391	keystroke_m	m	n/a
406.3235	0.096	812647	keystroke_a	a	n/a
406.4755	0.08	812951	keystroke_n	n	n/a
406.667	0.088	813334	keystroke_u	u	n/a
406.9075	0.056	813815	keystroke_a	a	n/a
407.387	0.112	814774	keystroke_l	l	n/a
408.8995	0.072	817799	keystroke_Key.space	Key.space	n/a
409.3235	0.08	818647	keystroke_u	u	n/a
409.4115	0.08	818823	keystroke_s	s	n/a
409.5795	0.072	819159	keystroke_e	e	n/a
409.7395	0.072	819479	keystroke_d	d	n/a
409.9475	0.072	819895	keystroke_Key.enter	Key.enter	n/a
410.0295	9.3435	820059	prompt	n/a	charity disney syndication push\n
410.6755	0.096	821351	keystroke_c	c	n/a
410.8035	0.064	821607	keystroke_h	h	n/a
410.8995	0.08	821799	keystroke_a	a	n/a
411.0755	0.088	822151	keystroke_r	r	n/a
411.235	0.08	822470	keystroke_i	i	n/a
412.1395	0.096	824279	keystroke_t	t	n/a
412.4515	0.08	824903	keystroke_y	y	n/a
412.6515	0.048	825303	keystroke_Key.space	Key.space	n/a
412.9635	0.056	825927	keystroke_d	d	n/a
413.0435	0.088	826087	keystroke_i	i	n/a
413.5075	0.088	827015	keystroke_s	s	n/a
413.6915	0.072	827383	keystroke_n	n	n/a
413.8675	0.096	827735	keystroke_e	e	n/a
414.155	0.08	828310	keystroke_y	y	n/a
414.8035	0.096	829607	keystroke_Key.space	Key.space	n/a
415.0595	0.0795	830119	keystroke_s	s	n/a
415.459	0.096	830918	keystroke_t	t	n/a
415.9715	0.088	831943	keystroke_Key.backspace	Key.backspace	n/a
416.0835	0.0715	832167	keystroke_y	y	n/a
416.227	0.0725	832454	keystroke_n	n	n/a
416.779	0.096	833558	keystroke_d	d	n/a
416.915	0.088	833830	keystroke_i	i	n/a
417.163	0.096	834326	keystroke_c	c	n/a
417.315	0.104	834630	keystroke_a	a	n/a
417.515	0.064	835030	keystroke_t	t	n/a
417.587	0.072	835174	keystroke_i	i	n/a
417.747	0.088	835494	keystroke_o	o	n/a
417.8515	0.0875	835703	keystroke_n	n	n/a
418.019	0.08	836038	keystroke_Key.space	Key.space	n/a
418.171	0.096	836342	keystroke_p	p	n/a
418.667	0.072	837334	keystroke_u	u	n/a
418.811	0.072	837622	keystroke_s	s	n/a
418.907	0.08	837814	keystroke_h	h	n/a
419.299	0.072	838598	keystroke_Key.enter	Key.enter	n/a
419.378	17.0825	838756	prompt	n/a	architectural aggregate routine valley\n
420.235	0.096	840470	keystroke_a	a	n/a
420.707	0.112	841414	keystroke_r	r	n/a
421.427	0.096	842854	keystroke_c	c	n/a
421.683	0.096	843366	keystroke_h	h	n/a
421.939	0.096	843878	keystroke_i	i	n/a
422.291	0.096	844582	keystroke_t	t	n/a
422.5235	0.087	845047	keystroke_e	e	n/a
422.7705	0.12	845541	keystroke_c	c	n/a
423.1145	0.072	846229	keystroke_t	t	n/a
423.3945	0.089	846789	keystroke_u	u	n/a
423.4985	0.0815	846997	keystroke_a	a	n/a
423.6355	0.08	847271	keystroke_l	l	n/a
424.7945	0.104	849589	keystroke_Key.backspace	Key.backspace	n/a
425.6985	0.112	851397	keystroke_Key.backspace	Key.backspace	n/a
425.9075	0.103	851815	keystroke_r	r	n/a
426.0915	0.088	852183	keystroke_a	a	n/a
426.1875	0.08	852375	keystroke_l	l	n/a
426.8745	0.088	853749	keystroke_Key.space	Key.space	n/a
427.5625	0.081	855125	keystroke_a	a	n/a
427.7955	0.079	855591	keystroke_f	f	n/a
428.3545	0.08	856709	keystroke_Key.backspace	Key.backspace	n/a
428.4665	0.065	856933	keystroke_g	g	n/a
428.6195	0.071	857239	keystroke_g	g	n/a
429.0105	0.105	858021	keystroke_r	r	n/a
429.2915	0.096	858583	keystroke_e	e	n/a
430.4665	0.112	860933	keystroke_f	f	n/a
431.0025	0.08	862005	keystroke_Key.backspace	Key.backspace	n/a
431.0995	0.095	862199	keystroke_g	g	n/a
431.3715	0.103	862743	keystroke_a	a	n/a
431.6585	0.089	863317	keystroke_t	t	n/a
431.915	0.088	863830	keystroke_e	e	n/a
432.643	0.088	865286	keystroke_Key.space	Key.space	n/a
433.035	0.112	866070	keystroke_r	r	n/a
433.219	0.072	866438	keystroke_o	o	n/a
433.355	0.072	866710	keystroke_u	u	n/a
433.459	0.064	866918	keystroke_g	g	n/a
433.907	0.072	867814	keystroke_Key.backspace	Key.backspace	n/a
434.027	0.064	868054	keystroke_t	t	n/a
434.139	0.088	868278	keystroke_i	i	n/a
434.259	0.088	868518	keystroke_n	n	n/a
434.451	0.088	868902	keystroke_e	e	n/a
434.675	0.096	869350	keystroke_Key.space	Key.space	n/a
435.091	0.104	870182	keystroke_v	v	n/a
435.411	0.088	870822	keystroke_a	a	n/a
435.595	0.08	871190	keystroke_l	l	n/a
435.755	0.08	871510	keystroke_l	l	n/a
435.836	0.063	871672	keystroke_e	e	n/a
436.027	0.056	872054	keystroke_y	y	n/a
436.395	0.064	872790	keystroke_Key.enter	Key.enter	n/a
436.468	15.466	872936	prompt	n/a	shopping vault blind boulevard\n
437.075	0.072	874150	keystroke_s	s	n/a
437.171	0.072	874342	keystroke_h	h	n/a
437.347	0.08	874694	keystroke_o	o	n/a
437.659	0.088	875318	keystroke_p	p	n/a
437.835	0.064	875670	keystroke_p	p	n/a
438.019	0.088	876038	keystroke_i	i	n/a
438.091	0.08	876182	keystroke_n	n	n/a
438.227	0.072	876454	keystroke_g	g	n/a
438.339	0.08	876678	keystroke_Key.space	Key.space	n/a
438.643	0.08	877286	keystroke_b	b	n/a
438.883	0.08	877766	keystroke_a	a	n/a
439.171	0.072	878342	keystroke_Key.backspace	Key.backspace	n/a
439.323	0.088	878646	keystroke_Key.backspace	Key.backspace	n/a
439.443	0.08	878886	keystroke_b	b	n/a
439.819	0.08	879638	keystroke_Key.backspace	Key.backspace	n/a
439.931	0.088	879862	keystroke_v	v	n/a
440.283	0.104	880566	keystroke_a	a	n/a
440.595	0.096	881190	keystroke_u	u	n/a
440.859	0.072	881718	keystroke_l	l	n/a
441.259	0.08	882518	keystroke_t	t	n/a
441.979	0.096	883958	keystroke_Key.space	Key.space	n/a
442.659	0.136	885318	keystroke_v	v	n/a
443.283	0.096	886566	keystroke_Key.backspace	Key.backspace	n/a
443.395	0.104	886790	keystroke_c	c	n/a
443.6035	0.112	887207	keystroke_l	l	n/a
444.0915	0.104	888183	keystroke_Key.backspace	Key.backspace	n/a
444.299	0.072	888598	keystroke_Key.backspace	Key.backspace	n/a
444.5475	0.064	889095	keystroke_b	b	n/a
444.6355	0.088	889271	keystroke_l	l	n/a
444.851	0.096	889702	keystroke_i	i	n/a
444.923	0.088	889846	keystroke_n	n	n/a
445.075	0.08	890150	keystroke_d	d	n/a
445.891	0.104	891782	keystroke_Key.space	Key.space	n/a
446.203	0.088	892406	keystroke_b	b	n/a
446.331	0.064	892662	keystroke_o	o	n/a
446.451	0.08	892902	keystroke_u	u	n/a
446.643	0.096	893286	keystroke_l	l	n/a
446.843	0.088	893686	keystroke_d	d	n/a
447.011	0.128	894022	keystroke_i	i	n/a
447.595	0.0885	895190	keystroke_Key.backspace	Key.backspace	n/a
447.7475	0.088	895495	keystroke_Key.backspace	Key.backspace	n/a
448.051	0.096	896102	keystroke_i	i	n/a
449.0835	0.08	898167	keystroke_Key.backspace	Key.backspace	n/a
449.2035	0.08	898407	keystroke_e	e	n/a
450.1635	0.088	900327	keystroke_v	v	n/a
450.3795	0.088	900759	keystroke_a	a	n/a
450.6915	0.088	901383	keystroke_r	r	n/a
450.9235	0.08	901847	keystroke_d	d	n/a
451.8675	0.064	903735	keystroke_Key.enter	Key.enter	n/a
451.9395	7.6655	903879	prompt	n/a	hans streaming finland written\n
452.7875	0.072	905575	keystroke_h	h	n/a
452.8835	0.096	905767	keystroke_a	a	n/a
452.9795	0.064	905959	keystroke_n	n	n/a
453.1155	0.096	906231	keystroke_s	s	n/a
453.3075	0.088	906615	keystroke_Key.space	Key.space	n/a
453.5075	0.112	907015	keystroke_s	s	n/a
453.7235	0.088	907447	keystroke_t	t	n/a
453.8595	0.088	907719	keystroke_e	e	n/a
454.0115	0.072	908023	keystroke_a	a	n/a
454.0995	0.08	908199	keystroke_m	m	n/a
454.2675	0.096	908535	keystroke_i	i	n/a
454.3555	0.064	908711	keystroke_n	n	n/a
454.4355	0.072	908871	keystroke_g	g	n/a
454.9315	0.08	909863	keystroke_Key.space	Key.space	n/a
455.4195	0.112	910839	keystroke_d	d	n/a
455.8355	0.096	911671	keystroke_Key.backspace	Key.backspace	n/a
455.9475	0.08	911895	keystroke_f	f	n/a
456.0755	0.104	912151	keystroke_i	i	n/a
456.1715	0.08	912343	keystroke_n	n	n/a
456.7635	0.088	913527	keystroke_l	l	n/a
456.9155	0.088	913831	keystroke_a	a	n/a
457.0355	0.072	914071	keystroke_n	n	n/a
457.2275	0.08	914455	keystroke_d	d	n/a
457.7955	0.088	915591	keystroke_Key.space	Key.space	n/a
458.0515	0.1115	916103	keystroke_w	w	n/a
458.388	0.127	916776	keystroke_r	r	n/a
458.627	0.088	917254	keystroke_i	i	n/a
458.763	0.072	917526	keystroke_t	t	n/a
458.915	0.073	917830	keystroke_t	t	n/a
459.043	0.089	918086	keystroke_e	e	n/a
459.155	0.064	918310	keystroke_n	n	n/a
459.531	0.072	919062	keystroke_Key.enter	Key.enter	n/a
459.6105	9.0825	919221	prompt	n/a	closure partnerships contamination post\n
460.6035	0.104	921207	keystroke_c	c	n/a
460.7235	0.072	921447	keystroke_l	l	n/a
460.8755	0.064	921751	keystroke_o	o	n/a
460.9795	0.103	921959	keystroke_s	s	n/a
461.1305	0.073	922261	keystroke_u	u	n/a
461.2995	0.096	922599	keystroke_r	r	n/a
461.4025	0.081	922805	keystroke_e	e	n/a
461.9155	0.087	923831	keystroke_Key.space	Key.space	n/a
462.1065	0.081	924213	keystroke_p	p	n/a
462.2515	0.104	924503	keystroke_a	a	n/a
462.4115	0.104	924823	keystroke_r	r	n/a
462.6515	0.072	925303	keystroke_t	t	n/a
463.9635	0.088	927927	keystroke_n	n	n/a
464.1075	0.088	928215	keystroke_e	e	n/a
464.2595	0.08	928519	keystroke_r	r	n/a
464.4275	0.095	928855	keystroke_s	s	n/a
464.5155	0.079	929031	keystroke_h	h	n/a
464.6195	0.096	929239	keystroke_i	i	n/a
464.8195	0.088	929639	keystroke_p	p	n/a
464.9555	0.08	929911	keystroke_s	s	n/a
465.1545	0.08	930309	keystroke_Key.space	Key.space	n/a
465.4195	0.08	930839	keystroke_c	c	n/a
465.5235	0.079	931047	keystroke_o	o	n/a
465.6595	0.072	931319	keystroke_n	n	n/a
465.8345	0.089	931669	keystroke_t	t	n/a
466.0275	0.071	932055	keystroke_a	a	n/a
466.3305	0.105	932661	keystroke_m	m	n/a
466.5065	0.08	933013	keystroke_i	i	n/a
466.6025	0.072	933205	keystroke_n	n	n/a
466.7705	0.097	933541	keystroke_a	a	n/a
466.9625	0.072	933925	keystroke_t	t	n/a
467.0355	0.08	934071	keystroke_i	i	n/a
467.1875	0.096	934375	keystroke_o	o	n/a
467.2995	0.095	934599	keystroke_n	n	n/a
467.5385	0.08	935077	keystroke_Key.space	Key.space	n/a
467.8435	0.088	935687	keystroke_p	p	n/a
468.0435	0.079	936087	keystroke_o	o	n/a
468.1315	0.088	936263	keystroke_s	s	n/a
468.3075	0.088	936615	keystroke_t	t	n/a
468.6195	0.072	937239	keystroke_Key.enter	Key.enter	n/a
468.699	9.3385	937398	prompt	n/a	receptors sara focus sessions\n
469.3635	0.095	938727	keystroke_r	r	n/a
469.5395	0.08	939079	keystroke_e	e	n/a
469.7545	0.089	939509	keystroke_c	c	n/a
469.9385	0.089	939877	keystroke_e	e	n/a
470.0995	0.104	940199	keystroke_p	p	n/a
470.3475	0.087	940695	keystroke_t	t	n/a
470.7395	0.088	941479	keystroke_o	o	n/a
470.9705	0.097	941941	keystroke_r	r	n/a
471.2505	0.089	942501	keystroke_s	s	n/a
471.4185	0.073	942837	keystroke_Key.space	Key.space	n/a
471.6505	0.096	943301	keystroke_s	s	n/a
471.8195	0.088	943639	keystroke_a	a	n/a
472.0265	0.081	944053	keystroke_r	r	n/a
472.2595	0.08	944519	keystroke_a	a	n/a
472.6265	0.096	945253	keystroke_Key.space	Key.space	n/a
473.0995	0.095	946199	keystroke_g	g	n/a
473.6025	0.088	947205	keystroke_Key.backspace	Key.backspace	n/a
473.6835	0.064	947367	keystroke_f	f	n/a
474.0995	0.0715	948199	keystroke_o	o	n/a
474.411	0.081	948822	keystroke_c	c	n/a
474.596	0.095	949192	keystroke_u	u	n/a
474.956	0.08	949912	keystroke_s	s	n/a
475.492	0.095	950984	keystroke_Key.space	Key.space	n/a
476.044	0.08	952088	keystroke_s	s	n/a
476.236	0.088	952472	keystroke_e	e	n/a
476.427	0.065	952854	keystroke_s	s	n/a
476.556	0.08	953112	keystroke_s	s	n/a
476.684	0.079	953368	keystroke_i	i	n/a
476.852	0.112	953704	keystroke_o	o	n/a
476.948	0.08	953896	keystroke_n	n	n/a
477.668	0.088	955336	keystroke_s	s	n/a
477.963	0.072	955926	keystroke_Key.enter	Key.enter	n/a
478.042	10.2195	956084	prompt	n/a	strike quoted providers engines\n
478.859	0.112	957718	keystroke_s	s	n/a
479.075	0.096	958150	keystroke_t	t	n/a
479.203	0.089	958406	keystroke_r	r	n/a
479.34	0.103	958680	keystroke_i	i	n/a
479.62	0.095	959240	keystroke_k	k	n/a
479.739	0.089	959478	keystroke_e	e	n/a
480.147	0.0875	960294	keystroke_Key.space	Key.space	n/a
480.7785	0.112	961557	keystroke_q	q	n/a
481.4835	0.143	962967	keystroke_u	u	n/a
482.0185	0.104	964037	keystroke_o	o	n/a
482.3795	0.104	964759	keystroke_t	t	n/a
482.6035	0.071	965207	keystroke_e	e	n/a
482.7475	0.095	965495	keystroke_d	d	n/a
483.5635	0.087	967127	keystroke_Key.space	Key.space	n/a
483.7715	0.103	967543	keystroke_p	p	n/a
483.9305	0.096	967861	keystroke_r	r	n/a
484.1385	0.096	968277	keystroke_o	o	n/a
484.4835	0.112	968967	keystroke_v	v	n/a
484.6435	0.096	969287	keystroke_i	i	n/a
484.7875	0.111	969575	keystroke_d	d	n/a
485.0035	0.095	970007	keystroke_e	e	n/a
485.1795	0.088	970359	keystroke_r	r	n/a
485.4915	0.08	970983	keystroke_s	s	n/a
485.7065	0.097	971413	keystroke_Key.space	Key.space	n/a
485.9945	0.104	971989	keystroke_e	e	n/a
486.1385	0.081	972277	keystroke_n	n	n/a
486.3545	0.0805	972709	keystroke_g	g	n/a
486.9635	0.119	973927	keystroke_i	i	n/a
487.0595	0.088	974119	keystroke_n	n	n/a
487.2675	0.087	974535	keystroke_e	e	n/a
488.0115	0.072	976023	keystroke_s	s	n/a
488.1705	0.088	976341	keystroke_Key.enter	Key.enter	n/a
488.267	9.098	976534	prompt	n/a	reed sacred symphony bathroom\n
489.0595	0.088	978119	keystroke_r	r	n/a
489.1555	0.104	978311	keystroke_e	e	n/a
489.3875	0.104	978775	keystroke_e	e	n/a
489.6035	0.08	979207	keystroke_d	d	n/a
489.7555	0.096	979511	keystroke_Key.space	Key.space	n/a
489.9795	0.104	979959	keystroke_s	s	n/a
490.2195	0.12	980439	keystroke_a	a	n/a
490.5395	0.1195	981079	keystroke_c	c	n/a
491.059	0.113	982118	keystroke_r	r	n/a
491.211	0.104	982422	keystroke_e	e	n/a
491.459	0.104	982918	keystroke_d	d	n/a
491.7945	0.088	983589	keystroke_Key.space	Key.space	n/a
491.9625	0.105	983925	keystroke_s	s	n/a
492.2985	0.112	984597	keystroke_t	t	n/a
492.539	0.12	985078	keystroke_m	m	n/a
492.827	0.056	985654	keystroke_Key.backspace	Key.backspace	n/a
492.939	0.08	985878	keystroke_Key.backspace	Key.backspace	n/a
493.035	0.072	986070	keystroke_y	y	n/a
493.147	0.08	986294	keystroke_m	m	n/a
493.603	0.128	987206	keystroke_p	p	n/a
493.827	0.088	987654	keystroke_h	h	n/a
493.947	0.12	987894	keystroke_o	o	n/a
494.043	0.088	988086	keystroke_n	n	n/a
494.195	0.096	988390	keystroke_y	y	n/a
494.835	0.08	989670	keystroke_Key.space	Key.space	n/a
495.107	0.088	990214	keystroke_b	b	n/a
495.299	0.08	990598	keystroke_a	a	n/a
495.451	0.072	990902	keystroke_t	t	n/a
495.547	0.08	991094	keystroke_h	h	n/a
495.779	0.08	991558	keystroke_r	r	n/a
495.899	0.08	991798	keystroke_o	o	n/a
496.067	0.096	992134	keystroke_o	o	n/a
496.299	0.072	992598	keystroke_m	m	n/a
496.507	0.088	993014	keystroke_s	s	n/a
496.923	0.08	993846	keystroke_Key.backspace	Key.backspace	n/a
497.291	0.072	994582	keystroke_Key.enter	Key.enter	n/a
497.3695	5.8115	994739	prompt	n/a	cage isle imported habits\n
498.219	0.096	996438	keystroke_c	c	n/a
498.363	0.096	996726	keystroke_a	a	n/a
498.571	0.064	997142	keystroke_g	g	n/a
498.667	0.08	997334	keystroke_e	e	n/a
498.883	0.08	997766	keystroke_Key.space	Key.space	n/a
499.155	0.104	998310	keystroke_i	i	n/a
499.419	0.104	998838	keystroke_s	s	n/a
499.651	0.08	999302	keystroke_l	l	n/a
499.747	0.088	999494	keystroke_e	e	n/a
500.227	0.072	1000454	keystroke_Key.space	Key.space	n/a
500.443	0.096	1000886	keystroke_i	i	n/a
500.627	0.064	1001254	keystroke_m	m	n/a
500.779	0.08	1001558	keystroke_p	p	n/a
500.955	0.072	1001910	keystroke_o	o	n/a
501.099	0.072	1002198	keystroke_r	r	n/a
501.267	0.072	1002534	keystroke_t	t	n/a
501.411	0.088	1002822	keystroke_e	e	n/a
501.803	0.08	1003606	keystroke_d	d	n/a
501.971	0.072	1003942	keystroke_Key.space	Key.space	n/a
502.187	0.072	1004374	keystroke_h	h	n/a
502.275	0.088	1004550	keystroke_a	a	n/a
502.491	0.08	1004982	keystroke_b	b	n/a
502.587	0.08	1005174	keystroke_i	i	n/a
502.739	0.072	1005478	keystroke_t	t	n/a
502.947	0.072	1005894	keystroke_s	s	n/a
503.107	0.072	1006214	keystroke_Key.enter	Key.enter	n/a
503.188	8.873	1006376	prompt	n/a	tower saves somebody answering\n
503.939	0.088	1007878	keystroke_t	t	n/a
504.091	0.08	1008182	keystroke_o	o	n/a
504.235	0.08	1008470	keystroke_w	w	n/a
504.379	0.088	1008758	keystroke_e	e	n/a
504.563	0.064	1009126	keystroke_r	r	n/a
504.699	0.072	1009398	keystroke_Key.space	Key.space	n/a
504.835	0.096	1009670	keystroke_s	s	n/a
505.011	0.08	1010022	keystroke_a	a	n/a
505.187	0.08	1010374	keystroke_v	v	n/a
505.355	0.072	1010710	keystroke_e	e	n/a
505.8265	0.073	1011653	keystroke_s	s	n/a
505.9625	0.072	1011925	keystroke_Key.space	Key.space	n/a
506.2355	0.088	1012471	keystroke_s	s	n/a
506.3875	0.079	1012775	keystroke_o	o	n/a
506.5315	0.072	1013063	keystroke_m	m	n/a
506.6435	0.08	1013287	keystroke_e	e	n/a
507.0275	0.104	1014055	keystroke_b	b	n/a
507.3075	0.088	1014615	keystroke_o	o	n/a
507.6185	0.097	1015237	keystroke_f	f	n/a
508.1545	0.08	1016309	keystroke_Key.backspace	Key.backspace	n/a
508.2595	0.088	1016519	keystroke_f	f	n/a
508.7065	0.072	1017413	keystroke_Key.backspace	Key.backspace	n/a
508.7955	0.112	1017591	keystroke_d	d	n/a
509.1635	0.095	1018327	keystroke_y	y	n/a
509.8345	0.081	1019669	keystroke_Key.space	Key.space	n/a
509.9785	0.105	1019957	keystroke_a	a	n/a
510.0995	0.072	1020199	keystroke_n	n	n/a
510.2915	0.104	1020583	keystroke_s	s	n/a
510.4995	0.112	1020999	keystroke_w	w	n/a
510.7305	0.097	1021461	keystroke_e	e	n/a
510.9715	0.064	1021943	keystroke_r	r	n/a
511.2435	0.12	1022487	keystroke_i	i	n/a
511.3155	0.071	1022631	keystroke_n	n	n/a
511.4115	0.08	1022823	keystroke_g	g	n/a
511.9715	0.087	1023943	keystroke_Key.enter	Key.enter	n/a
512.0675	7.53	1024135	prompt	n/a	merely utilization social success\n
512.8035	0.104	1025607	keystroke_m	m	n/a
513.0195	0.096	1026039	keystroke_e	e	n/a
513.1955	0.096	1026391	keystroke_r	r	n/a
513.2995	0.104	1026599	keystroke_e	e	n/a
513.4355	0.095	1026871	keystroke_l	l	n/a
513.6195	0.064	1027239	keystroke_y	y	n/a
514.0025	0.065	1028005	keystroke_Key.space	Key.space	n/a
514.2835	0.095	1028567	keystroke_u	u	n/a
514.5155	0.072	1029031	keystroke_t	t	n/a
514.6515	0.104	1029303	keystroke_i	i	n/a
515.0035	0.104	1030007	keystroke_l	l	n/a
515.3715	0.104	1030743	keystroke_i	i	n/a
515.7075	0.08	1031415	keystroke_z	z	n/a
515.9235	0.104	1031847	keystroke_a	a	n/a
516.1715	0.072	1032343	keystroke_t	t	n/a
516.2665	0.081	1032533	keystroke_i	i	n/a
516.4355	0.088	1032871	keystroke_o	o	n/a
516.5865	0.113	1033173	keystroke_n	n	n/a
516.7075	0.087	1033415	keystroke_Key.space	Key.space	n/a
516.8745	0.097	1033749	keystroke_s	s	n/a
516.9625	0.097	1033925	keystroke_o	o	n/a
517.1395	0.088	1034279	keystroke_c	c	n/a
517.2505	0.089	1034501	keystroke_i	i	n/a
517.3795	0.08	1034759	keystroke_a	a	n/a
517.5465	0.096	1035093	keystroke_l	l	n/a
517.7555	0.079	1035511	keystroke_Key.space	Key.space	n/a
518.0115	0.096	1036023	keystroke_s	s	n/a
518.1545	0.088	1036309	keystroke_u	u	n/a
518.3635	0.088	1036727	keystroke_c	c	n/a
518.5225	0.081	1037045	keystroke_c	c	n/a
518.7075	0.071	1037415	keystroke_e	e	n/a
518.884	0.0795	1037768	keystroke_s	s	n/a
519.131	0.0875	1038262	keystroke_s	s	n/a
519.5155	0.079	1039031	keystroke_Key.enter	Key.enter	n/a
519.603	10.13	1039206	prompt	n/a	brook recently lectures conclusion\n
520.3395	0.096	1040679	keystroke_b	b	n/a
520.5545	0.072	1041109	keystroke_r	r	n/a
520.6505	0.08	1041301	keystroke_o	o	n/a
520.8035	0.087	1041607	keystroke_o	o	n/a
520.9635	0.095	1041927	keystroke_k	k	n/a
521.1225	0.08	1042245	keystroke_Key.space	Key.space	n/a
521.2595	0.095	1042519	keystroke_r	r	n/a
521.3875	0.087	1042775	keystroke_e	e	n/a
521.5635	0.08	1043127	keystroke_c	c	n/a
521.6995	0.08	1043399	keystroke_n	n	n/a
521.7075	0.088	1043415	keystroke_e	e	n/a
522.3065	0.08	1044613	keystroke_Key.backspace	Key.backspace	n/a
522.5545	0.072	1045109	keystroke_Key.backspace	Key.backspace	n/a
522.9075	0.104	1045815	keystroke_e	e	n/a
523.0435	0.096	1046087	keystroke_n	n	n/a
523.4915	0.072	1046983	keystroke_t	t	n/a
523.8035	0.088	1047607	keystroke_l	l	n/a
523.9395	0.095	1047879	keystroke_y	y	n/a
524.4665	0.113	1048933	keystroke_Key.space	Key.space	n/a
524.7545	0.121	1049509	keystroke_l	l	n/a
524.8675	0.104	1049735	keystroke_e	e	n/a
525.0585	0.096	1050117	keystroke_c	c	n/a
525.2675	0.071	1050535	keystroke_t	t	n/a
525.3545	0.073	1050709	keystroke_u	u	n/a
525.4435	0.072	1050887	keystroke_r	r	n/a
525.5155	0.08	1051031	keystroke_e	e	n/a
525.6835	0.071	1051367	keystroke_s	s	n/a
525.8025	0.088	1051605	keystroke_Key.space	Key.space	n/a
525.9875	0.08	1051975	keystroke_c	c	n/a
526.0515	0.08	1052103	keystroke_o	o	n/a
526.3625	0.096	1052725	keystroke_n	n	n/a
526.9875	0.112	1053975	keystroke_c	c	n/a
527.1395	0.079	1054279	keystroke_l	l	n/a
527.3545	0.08	1054709	keystroke_u	u	n/a
527.4515	0.079	1054903	keystroke_s	s	n/a
527.7875	0.136	1055575	keystroke_i	i	n/a
528.1065	0.16	1056213	keystroke_o	o	n/a
528.4195	0.096	1056839	keystroke_n	n	n/a
529.6585	0.072	1059317	keystroke_Key.enter	Key.enter	n/a
529.7405	13.4645	1059481	prompt	n/a	civilization apollo length automobile\n
530.6665	0.096	1061333	keystroke_c	c	n/a
530.8115	0.096	1061623	keystroke_i	i	n/a
531.0265	0.081	1062053	keystroke_v	v	n/a
531.1155	0.079	1062231	keystroke_i	i	n/a
531.3155	0.071	1062631	keystroke_l	l	n/a
531.4755	0.071	1062951	keystroke_i	i	n/a
531.6355	0.096	1063271	keystroke_a	a	n/a
531.9625	0.08	1063925	keystroke_Key.backspace	Key.backspace	n/a
532.0915	0.088	1064183	keystroke_z	z	n/a
532.2745	0.112	1064549	keystroke_a	a	n/a
532.7545	0.081	1065509	keystroke_t	t	n/a
532.8995	0.08	1065799	keystroke_i	i	n/a
533.0755	0.095	1066151	keystroke_o	o	n/a
533.2435	0.087	1066487	keystroke_n	n	n/a
533.4425	0.096	1066885	keystroke_Key.space	Key.space	n/a
533.6915	0.096	1067383	keystroke_a	a	n/a
533.8185	0.081	1067637	keystroke_p	p	n/a
533.9875	0.08	1067975	keystroke_p	p	n/a
534.1555	0.087	1068311	keystroke_o	o	n/a
534.5065	0.073	1069013	keystroke_Key.backspace	Key.backspace	n/a
534.6505	0.096	1069301	keystroke_Key.backspace	Key.backspace	n/a
535.0755	0.112	1070151	keystroke_p	p	n/a
535.5865	0.088	1071173	keystroke_Key.backspace	Key.backspace	n/a
535.8275	0.096	1071655	keystroke_o	o	n/a
536.0835	0.079	1072167	keystroke_l	l	n/a
536.2595	0.08	1072519	keystroke_l	l	n/a
537.0275	0.08	1074055	keystroke_o	o	n/a
537.1865	0.08	1074373	keystroke_Key.space	Key.space	n/a
537.3545	0.089	1074709	keystroke_l	l	n/a
537.4515	0.088	1074903	keystroke_e	e	n/a
537.5865	0.073	1075173	keystroke_n	n	n/a
538.8025	0.105	1077605	keystroke_g	g	n/a
539.1075	0.087	1078215	keystroke_t	t	n/a
539.2425	0.097	1078485	keystroke_h	h	n/a
540.0425	0.088	1080085	keystroke_Key.space	Key.space	n/a
540.2505	0.113	1080501	keystroke_a	a	n/a
540.4195	0.096	1080839	keystroke_u	u	n/a
540.9395	0.087	1081879	keystroke_t	t	n/a
541.0675	0.096	1082135	keystroke_o	o	n/a
541.3875	0.08	1082775	keystroke_m	m	n/a
541.5155	0.095	1083031	keystroke_o	o	n/a
541.8195	0.088	1083639	keystroke_b	b	n/a
541.9235	0.079	1083847	keystroke_i	i	n/a
542.1385	0.08	1084277	keystroke_l	l	n/a
542.3955	0.08	1084791	keystroke_e	e	n/a
543.1395	0.063	1086279	keystroke_Key.enter	Key.enter	n/a
543.2115	10.098	1086423	prompt	n/a	trademarks carried preferences newton\n
543.8995	0.032	1087799	keystroke_t	t	n/a
544.1155	0.104	1088231	keystroke_r	r	n/a
544.3395	0.119	1088679	keystroke_a	a	n/a
544.5705	0.121	1089141	keystroke_d	d	n/a
545.1235	0.087	1090247	keystroke_e	e	n/a
545.3235	0.088	1090647	keystroke_m	m	n/a
545.5715	0.087	1091143	keystroke_a	a	n/a
545.7875	0.071	1091575	keystroke_r	r	n/a
545.9465	0.137	1091893	keystroke_k	k	n/a
546.2435	0.072	1092487	keystroke_s	s	n/a
546.4185	0.0965	1092837	keystroke_Key.space	Key.space	n/a
546.683	0.104	1093366	keystroke_c	c	n/a
546.827	0.096	1093654	keystroke_a	a	n/a
547.027	0.104	1094054	keystroke_r	r	n/a
547.211	0.08	1094422	keystroke_r	r	n/a
547.355	0.08	1094710	keystroke_i	i	n/a
547.443	0.072	1094886	keystroke_e	e	n/a
547.619	0.08	1095238	keystroke_d	d	n/a
548.811	0.064	1097622	keystroke_Key.space	Key.space	n/a
549.019	0.096	1098038	keystroke_p	p	n/a
549.227	0.112	1098454	keystroke_r	r	n/a
549.363	0.112	1098726	keystroke_e	e	n/a
549.715	0.128	1099430	keystroke_f	f	n/a
550.051	0.112	1100102	keystroke_e	e	n/a
550.235	0.104	1100470	keystroke_r	r	n/a
550.34	0.095	1100680	keystroke_e	e	n/a
550.459	0.072	1100918	keystroke_n	n	n/a
550.587	0.064	1101174	keystroke_c	c	n/a
550.691	0.088	1101382	keystroke_e	e	n/a
550.859	0.072	1101718	keystroke_s	s	n/a
551.011	0.088	1102022	keystroke_Key.space	Key.space	n/a
551.235	0.08	1102470	keystroke_n	n	n/a
551.331	0.096	1102662	keystroke_e	e	n/a
551.539	0.12	1103078	keystroke_w	w	n/a
551.875	0.08	1103750	keystroke_t	t	n/a
552.067	0.096	1104134	keystroke_o	o	n/a
552.259	0.08	1104518	keystroke_m	m	n/a
552.6985	0.088	1105397	keystroke_Key.backspace	Key.backspace	n/a
552.8995	0.071	1105799	keystroke_n	n	n/a
553.2345	0.072	1106469	keystroke_Key.enter	Key.enter	n/a
553.3155	5.8245	1106631	prompt	n/a	jeep able suppose cooking\n
554.0275	0.103	1108055	keystroke_j	j	n/a
554.1955	0.088	1108391	keystroke_e	e	n/a
554.5785	0.081	1109157	keystroke_e	e	n/a
554.7465	0.096	1109493	keystroke_p	p	n/a
555.0025	0.08	1110005	keystroke_Key.space	Key.space	n/a
555.1715	0.072	1110343	keystroke_a	a	n/a
555.3785	0.081	1110757	keystroke_b	b	n/a
555.4505	0.081	1110901	keystroke_l	l	n/a
555.5625	0.08	1111125	keystroke_e	e	n/a
555.7225	0.072	1111445	keystroke_Key.space	Key.space	n/a
556.2505	0.088	1112501	keystroke_s	s	n/a
556.3795	0.0875	1112759	keystroke_u	u	n/a
556.5545	0.097	1113109	keystroke_p	p	n/a
556.7305	0.072	1113461	keystroke_p	p	n/a
556.8825	0.089	1113765	keystroke_o	o	n/a
556.9795	0.064	1113959	keystroke_s	s	n/a
557.1305	0.089	1114261	keystroke_e	e	n/a
557.7785	0.088	1115557	keystroke_Key.space	Key.space	n/a
557.9795	0.079	1115959	keystroke_c	c	n/a
558.0665	0.065	1116133	keystroke_o	o	n/a
558.2105	0.081	1116421	keystroke_o	o	n/a
558.3625	0.08	1116725	keystroke_k	k	n/a
558.5225	0.096	1117045	keystroke_i	i	n/a
558.5945	0.08	1117189	keystroke_n	n	n/a
558.7385	0.081	1117477	keystroke_g	g	n/a
559.0745	0.064	1118149	keystroke_Key.enter	Key.enter	n/a
559.1445	10.116	1118289	prompt	n/a	lovely gabriel marriott commons\n
559.7395	0.103	1119479	keystroke_l	l	n/a
559.9625	0.073	1119925	keystroke_o	o	n/a
560.1625	0.105	1120325	keystroke_v	v	n/a
560.3385	0.096	1120677	keystroke_e	e	n/a
560.4505	0.072	1120901	keystroke_l	l	n/a
560.6425	0.032	1121285	keystroke_y	y	n/a
561.1065	0.096	1122213	keystroke_Key.space	Key.space	n/a
561.5315	0.119	1123063	keystroke_g	g	n/a
561.9225	0.104	1123845	keystroke_a	a	n/a
562.5785	0.104	1125157	keystroke_b	b	n/a
562.8835	0.079	1125767	keystroke_r	r	n/a
563.0425	0.08	1126085	keystroke_i	i	n/a
563.1305	0.0725	1126261	keystroke_e	e	n/a
563.291	0.072	1126582	keystroke_l	l	n/a
564.419	0.072	1128838	keystroke_Key.space	Key.space	n/a
564.6185	0.088	1129237	keystroke_m	m	n/a
564.7625	0.112	1129525	keystroke_a	a	n/a
565.2105	0.12	1130421	keystroke_r	r	n/a
565.6275	0.087	1131255	keystroke_r	r	n/a
565.7865	0.088	1131573	keystroke_i	i	n/a
565.9705	0.072	1131941	keystroke_o	o	n/a
566.979	0.072	1133958	keystroke_t	t	n/a
567.1475	0.0795	1134295	keystroke_t	t	n/a
567.483	0.08	1134966	keystroke_Key.space	Key.space	n/a
567.659	0.088	1135318	keystroke_c	c	n/a
567.747	0.08	1135494	keystroke_o	o	n/a
567.907	0.064	1135814	keystroke_m	m	n/a
568.051	0.064	1136102	keystroke_m	m	n/a
568.163	0.08	1136326	keystroke_o	o	n/a
568.251	0.072	1136502	keystroke_n	n	n/a
568.403	0.072	1136806	keystroke_s	s	n/a
569.195	0.064	1138390	keystroke_Key.enter	Key.enter	n/a
569.2685	11.1765	1138537	prompt	n/a	gambling vsnet brings railway\n
570.236	0.127	1140472	keystroke_g	g	n/a
570.475	0.088	1140950	keystroke_a	a	n/a
570.595	0.08	1141190	keystroke_m	m	n/a
571.259	0.104	1142518	keystroke_b	b	n/a
571.875	0.104	1143750	keystroke_l	l	n/a
572.099	0.104	1144198	keystroke_i	i	n/a
572.179	0.088	1144358	keystroke_n	n	n/a
572.331	0.08	1144662	keystroke_g	g	n/a
572.483	0.096	1144966	keystroke_Key.space	Key.space	n/a
573.027	0.168	1146054	keystroke_b	b	n/a
573.555	0.088	1147110	keystroke_Key.backspace	Key.backspace	n/a
573.651	0.104	1147302	keystroke_v	v	n/a
574.107	0.096	1148214	keystroke_s	s	n/a
574.603	0.104	1149206	keystroke_n	n	n/a
574.747	0.096	1149494	keystroke_e	e	n/a
574.971	0.056	1149942	keystroke_y	y	n/a
575.435	0.08	1150870	keystroke_Key.backspace	Key.backspace	n/a
575.507	0.088	1151014	keystroke_t	t	n/a
576.219	0.088	1152438	keystroke_Key.space	Key.space	n/a
576.4435	0.079	1152887	keystroke_b	b	n/a
576.6515	0.08	1153303	keystroke_r	r	n/a
576.7545	0.089	1153509	keystroke_i	i	n/a
576.8115	0.08	1153623	keystroke_n	n	n/a
576.9075	0.064	1153815	keystroke_g	g	n/a
577.0915	0.072	1154183	keystroke_s	s	n/a
578.0425	0.088	1156085	keystroke_Key.space	Key.space	n/a
578.3395	0.111	1156679	keystroke_r	r	n/a
578.5225	0.08	1157045	keystroke_a	a	n/a
578.6355	0.096	1157271	keystroke_i	i	n/a
578.8505	0.089	1157701	keystroke_l	l	n/a
579.1305	0.105	1158261	keystroke_w	w	n/a
579.3235	0.095	1158647	keystroke_a	a	n/a
579.5395	0.079	1159079	keystroke_y	y	n/a
580.3785	0.064	1160757	keystroke_Key.enter	Key.enter	n/a
580.453	9.448	1160906	prompt	n/a	tennis supplement router combination\n
581.1785	0.096	1162357	keystroke_t	t	n/a
581.3155	0.08	1162631	keystroke_r	r	n/a
581.4435	0.072	1162887	keystroke_n	n	n/a
581.5955	0.064	1163191	keystroke_n	n	n/a
581.7075	0.095	1163415	keystroke_i	i	n/a
582.0425	0.088	1164085	keystroke_Key.backspace	Key.backspace	n/a
582.2025	0.088	1164405	keystroke_Key.backspace	Key.backspace	n/a
582.3705	0.08	1164741	keystroke_Key.backspace	Key.backspace	n/a
582.5305	0.072	1165061	keystroke_Key.backspace	Key.backspace	n/a
583.1715	0.072	1166343	keystroke_e	e	n/a
583.2835	0.055	1166567	keystroke_n	n	n/a
583.4275	0.055	1166855	keystroke_n	n	n/a
583.5475	0.079	1167095	keystroke_i	i	n/a
583.6835	0.08	1167367	keystroke_s	s	n/a
583.9625	0.08	1167925	keystroke_Key.space	Key.space	n/a
584.1475	0.079	1168295	keystroke_s	s	n/a
584.2585	0.073	1168517	keystroke_u	u	n/a
584.4345	0.089	1168869	keystroke_p	p	n/a
584.6035	0.072	1169207	keystroke_p	p	n/a
584.7555	0.08	1169511	keystroke_l	l	n/a
584.8995	0.079	1169799	keystroke_e	e	n/a
585.1545	0.081	1170309	keystroke_m	m	n/a
585.2755	0.08	1170551	keystroke_e	e	n/a
585.3625	0.056	1170725	keystroke_n	n	n/a
585.4905	0.08	1170981	keystroke_t	t	n/a
585.7945	0.0885	1171589	keystroke_Key.space	Key.space	n/a
586.0515	0.103	1172103	keystroke_r	r	n/a
586.2115	0.072	1172423	keystroke_o	o	n/a
586.3545	0.064	1172709	keystroke_u	u	n/a
586.6265	0.096	1173253	keystroke_t	t	n/a
586.8265	0.089	1173653	keystroke_e	e	n/a
587.0035	0.071	1174007	keystroke_r	r	n/a
587.2505	0.08	1174501	keystroke_Key.space	Key.space	n/a
587.4185	0.096	1174837	keystroke_c	c	n/a
587.5075	0.079	1175015	keystroke_o	o	n/a
587.6435	0.079	1175287	keystroke_m	m	n/a
587.8585	0.089	1175717	keystroke_b	b	n/a
587.9795	0.096	1175959	keystroke_i	i	n/a
588.0755	0.088	1176151	keystroke_n	n	n/a
588.2195	0.104	1176439	keystroke_a	a	n/a
588.5235	0.072	1177047	keystroke_t	t	n/a
588.6425	0.097	1177285	keystroke_i	i	n/a
588.9235	0.103	1177847	keystroke_o	o	n/a
589.0355	0.079	1178071	keystroke_n	n	n/a
589.8275	0.071	1179655	keystroke_Key.enter	Key.enter	n/a
589.905	8.4355	1179810	prompt	n/a	trust questions separation roland\n
590.4995	0.096	1180999	keystroke_t	t	n/a
590.7145	0.088	1181429	keystroke_r	r	n/a
590.8515	0.071	1181703	keystroke_u	u	n/a
590.9635	0.104	1181927	keystroke_s	s	n/a
591.1795	0.071	1182359	keystroke_t	t	n/a
591.3955	0.079	1182791	keystroke_Key.space	Key.space	n/a
591.8595	0.119	1183719	keystroke_q	q	n/a
591.9805	0.087	1183961	keystroke_u	u	n/a
592.1065	0.121	1184213	keystroke_e	e	n/a
592.4745	0.08	1184949	keystroke_s	s	n/a
592.8345	0.104	1185669	keystroke_t	t	n/a
593.2275	0.1025	1186455	keystroke_i	i	n/a
593.443	0.088	1186886	keystroke_o	o	n/a
593.643	0.072	1187286	keystroke_n	n	n/a
593.81	0.064	1187620	keystroke_Key.space	Key.space	n/a
593.923	0.08	1187846	keystroke_s	s	n/a
594.147	0.144	1188294	keystroke_e	e	n/a
594.434	0.104	1188868	keystroke_p	p	n/a
594.803	0.111	1189606	keystroke_a	a	n/a
595.1075	0.1115	1190215	keystroke_r	r	n/a
595.491	0.095	1190982	keystroke_a	a	n/a
595.715	0.072	1191430	keystroke_t	t	n/a
595.819	0.088	1191638	keystroke_i	i	n/a
596.0025	0.089	1192005	keystroke_o	o	n/a
596.1465	0.081	1192293	keystroke_n	n	n/a
596.6825	0.072	1193365	keystroke_Key.space	Key.space	n/a
597.0115	0.096	1194023	keystroke_r	r	n/a
597.1875	0.104	1194375	keystroke_o	o	n/a
597.4675	0.103	1194935	keystroke_l	l	n/a
597.6195	0.096	1195239	keystroke_a	a	n/a
597.7305	0.065	1195461	keystroke_n	n	n/a
597.9075	0.087	1195815	keystroke_d	d	n/a
598.2745	0.064	1196549	keystroke_Key.enter	Key.enter	n/a
598.3445	13.6835	1196689	prompt	n/a	assault editorial green youth\n
599.0665	0.08	1198133	keystroke_a	a	n/a
599.4585	0.097	1198917	keystroke_s	s	n/a
599.6515	0.096	1199303	keystroke_s	s	n/a
600.2665	0.096	1200533	keystroke_a	a	n/a
600.6995	0.127	1201399	keystroke_u	u	n/a
600.9705	0.096	1201941	keystroke_l	l	n/a
601.4105	0.097	1202821	keystroke_y	y	n/a
601.9705	0.088	1203941	keystroke_Key.backspace	Key.backspace	n/a
602.0505	0.105	1204101	keystroke_t	t	n/a
602.6425	0.072	1205285	keystroke_Key.space	Key.space	n/a
603.4355	0.111	1206871	keystroke_d	d	n/a
603.8345	0.104	1207669	keystroke_Key.backspace	Key.backspace	n/a
603.9785	0.088	1207957	keystroke_e	e	n/a
604.1305	0.128	1208261	keystroke_d	d	n/a
604.5225	0.12	1209045	keystroke_i	i	n/a
604.7305	0.096	1209461	keystroke_t	t	n/a
605.0905	0.12	1210181	keystroke_o	o	n/a
605.2585	0.104	1210517	keystroke_r	r	n/a
605.3865	0.096	1210773	keystroke_i	i	n/a
605.4915	0.079	1210983	keystroke_a	a	n/a
605.6505	0.08	1211301	keystroke_l	l	n/a
605.8185	0.096	1211637	keystroke_Key.space	Key.space	n/a
606.5305	0.112	1213061	keystroke_g	g	n/a
606.9465	0.104	1213893	keystroke_r	r	n/a
607.1865	0.096	1214373	keystroke_e	e	n/a
607.3625	0.08	1214725	keystroke_e	e	n/a
607.4905	0.08	1214981	keystroke_n	n	n/a
607.7705	0.088	1215541	keystroke_Key.space	Key.space	n/a
608.1705	0.032	1216341	keystroke_t	t	n/a
608.2425	0.072	1216485	keystroke_o	o	n/a
608.5065	0.08	1217013	keystroke_u	u	n/a
608.7385	0.096	1217477	keystroke_Key.backspace	Key.backspace	n/a
608.9065	0.064	1217813	keystroke_Key.backspace	Key.backspace	n/a
609.0345	0.048	1218069	keystroke_Key.backspace	Key.backspace	n/a
609.9225	0.088	1219845	keystroke_y	y	n/a
610.0505	0.128	1220101	keystroke_o	o	n/a
610.2825	0.096	1220565	keystroke_u	u	n/a
610.4105	0.088	1220821	keystroke_g	g	n/a
610.5225	0.072	1221045	keystroke_h	h	n/a
610.8985	0.08	1221797	keystroke_Key.backspace	Key.backspace	n/a
611.0505	0.072	1222101	keystroke_Key.backspace	Key.backspace	n/a
611.1705	0.072	1222341	keystroke_t	t	n/a
611.2745	0.056	1222549	keystroke_h	h	n/a
611.8985	0.064	1223797	keystroke_Key.enter	Key.enter	n/a
612.028	12.096	1224056	prompt	n/a	idaho economies mattress quad\n
612.6665	0.112	1225333	keystroke_i	i	n/a
613.0665	0.12	1226133	keystroke_d	d	n/a
613.4505	0.0955	1226901	keystroke_a	a	n/a
613.6745	0.088	1227349	keystroke_h	h	n/a
613.8505	0.096	1227701	keystroke_o	o	n/a
614.45	0.096	1228900	keystroke_Key.space	Key.space	n/a
614.674	0.105	1229348	keystroke_e	e	n/a
614.931	0.0875	1229862	keystroke_c	c	n/a
615.0345	0.088	1230069	keystroke_o	o	n/a
616.1145	0.12	1232229	keystroke_n	n	n/a
617.4825	0.104	1234965	keystroke_o	o	n/a
617.6585	0.064	1235317	keystroke_m	m	n/a
617.8105	0.08	1235621	keystroke_i	i	n/a
617.9225	0.088	1235845	keystroke_e	e	n/a
618.0985	0.096	1236197	keystroke_s	s	n/a
618.2025	0.072	1236405	keystroke_Key.space	Key.space	n/a
618.3625	0.072	1236725	keystroke_m	m	n/a
618.4665	0.08	1236933	keystroke_a	a	n/a
618.6425	0.104	1237285	keystroke_t	t	n/a
618.7945	0.072	1237589	keystroke_r	r	n/a
619.491	0.096	1238982	keystroke_Key.backspace	Key.backspace	n/a
619.675	0.096	1239350	keystroke_t	t	n/a
620.547	0.12	1241094	keystroke_r	r	n/a
620.795	0.096	1241590	keystroke_e	e	n/a
621.0745	0.088	1242149	keystroke_s	s	n/a
621.2265	0.104	1242453	keystroke_s	s	n/a
621.755	0.104	1243510	keystroke_Key.space	Key.space	n/a
622.4265	0.0965	1244853	keystroke_q	q	n/a
623.0745	0.104	1246149	keystroke_u	u	n/a
623.4425	0.096	1246885	keystroke_a	a	n/a
623.6665	0.096	1247333	keystroke_d	d	n/a
624.0425	0.08	1248085	keystroke_Key.enter	Key.enter	n/a
624.1285	12.052	1248257	prompt	n/a	departments annually navigator fluid\n
624.827	0.0955	1249654	keystroke_d	d	n/a
624.9865	0.088	1249973	keystroke_e	e	n/a
625.1225	0.096	1250245	keystroke_p	p	n/a
625.275	0.096	1250550	keystroke_a	a	n/a
625.467	0.112	1250934	keystroke_r	r	n/a
625.843	0.088	1251686	keystroke_t	t	n/a
625.979	0.096	1251958	keystroke_m	m	n/a
626.115	0.096	1252230	keystroke_e	e	n/a
626.227	0.072	1252454	keystroke_n	n	n/a
626.371	0.08	1252742	keystroke_t	t	n/a
626.915	0.096	1253830	keystroke_Key.space	Key.space	n/a
627.235	0.096	1254470	keystroke_a	a	n/a
627.387	0.064	1254774	keystroke_n	n	n/a
627.539	0.072	1255078	keystroke_n	n	n/a
627.723	0.096	1255446	keystroke_u	u	n/a
627.851	0.112	1255702	keystroke_a	a	n/a
628.019	0.096	1256038	keystroke_l	l	n/a
628.195	0.104	1256390	keystroke_l	l	n/a
628.339	0.088	1256678	keystroke_y	y	n/a
628.475	0.088	1256950	keystroke_Key.space	Key.space	n/a
628.731	0.08	1257462	keystroke_n	n	n/a
628.867	0.112	1257734	keystroke_a	a	n/a
629.323	0.128	1258646	keystroke_v	v	n/a
629.595	0.096	1259190	keystroke_i	i	n/a
629.955	0.096	1259910	keystroke_g	g	n/a
630.147	0.08	1260294	keystroke_a	a	n/a
630.323	0.08	1260646	keystroke_t	t	n/a
630.499	0.088	1260998	keystroke_o	o	n/a
630.627	0.072	1261254	keystroke_r	r	n/a
631.6745	0.096	1263349	keystroke_Key.space	Key.space	n/a
631.9945	0.088	1263989	keystroke_d	d	n/a
632.1545	0.08	1264309	keystroke_l	l	n/a
632.4105	0.072	1264821	keystroke_u	u	n/a
632.6745	0.088	1265349	keystroke_Key.backspace	Key.backspace	n/a
632.8425	0.096	1265685	keystroke_Key.backspace	Key.backspace	n/a
633.2985	0.072	1266597	keystroke_Key.backspace	Key.backspace	n/a
633.3785	0.088	1266757	keystroke_f	f	n/a
634.3705	0.088	1268741	keystroke_l	l	n/a
634.6025	0.08	1269205	keystroke_u	u	n/a
634.7545	0.072	1269509	keystroke_i	i	n/a
634.8985	0.064	1269797	keystroke_f	f	n/a
635.2825	0.072	1270565	keystroke_Key.backspace	Key.backspace	n/a
635.3865	0.064	1270773	keystroke_d	d	n/a
636.1145	0.064	1272229	keystroke_Key.enter	Key.enter	n/a
636.1895	6.8865	1272379	prompt	n/a	silver whale counted applicable\n
636.858	0.089	1273716	keystroke_s	s	n/a
636.963	0.087	1273926	keystroke_i	i	n/a
637.17	0.08	1274340	keystroke_l	l	n/a
637.346	0.096	1274692	keystroke_v	v	n/a
637.522	0.096	1275044	keystroke_e	e	n/a
637.69	0.072	1275380	keystroke_r	r	n/a
637.802	0.08	1275604	keystroke_Key.space	Key.space	n/a
638.002	0.08	1276004	keystroke_w	w	n/a
638.186	0.064	1276372	keystroke_h	h	n/a
638.33	0.096	1276660	keystroke_a	a	n/a
638.57	0.08	1277140	keystroke_l	l	n/a
638.698	0.08	1277396	keystroke_e	e	n/a
638.858	0.088	1277716	keystroke_Key.space	Key.space	n/a
639.082	0.096	1278164	keystroke_c	c	n/a
639.186	0.081	1278372	keystroke_o	o	n/a
639.41	0.089	1278820	keystroke_u	u	n/a
639.594	0.08	1279188	keystroke_n	n	n/a
639.723	0.095	1279446	keystroke_t	t	n/a
639.899	0.08	1279798	keystroke_e	e	n/a
640.106	0.073	1280212	keystroke_d	d	n/a
640.322	0.088	1280644	keystroke_Key.space	Key.space	n/a
640.539	0.08	1281078	keystroke_a	a	n/a
640.731	0.088	1281462	keystroke_p	p	n/a
640.922	0.073	1281844	keystroke_p	p	n/a
641.083	0.088	1282166	keystroke_l	l	n/a
641.291	0.08	1282582	keystroke_i	i	n/a
641.458	0.096	1282916	keystroke_c	c	n/a
641.618	0.113	1283236	keystroke_a	a	n/a
642.035	0.071	1284070	keystroke_b	b	n/a
642.227	0.08	1284454	keystroke_l	l	n/a
642.33	0.089	1284660	keystroke_e	e	n/a
643.002	0.072	1286004	keystroke_Key.enter	Key.enter	n/a
643.081	8.763	1286162	prompt	n/a	next proof roulette scored\n
643.779	0.071	1287558	keystroke_n	n	n/a
643.939	0.08	1287878	keystroke_e	e	n/a
644.123	0.103	1288246	keystroke_x	x	n/a
644.322	0.072	1288644	keystroke_t	t	n/a
644.41	0.08	1288820	keystroke_Key.space	Key.space	n/a
644.578	0.097	1289156	keystroke_p	p	n/a
644.89	0.089	1289780	keystroke_r	r	n/a
645.219	0.087	1290438	keystroke_o	o	n/a
645.41	0.089	1290820	keystroke_o	o	n/a
645.714	0.081	1291428	keystroke_f	f	n/a
646.434	0.088	1292868	keystroke_Key.space	Key.space	n/a
646.947	0.095	1293894	keystroke_t	t	n/a
647.538	0.088	1295076	keystroke_Key.backspace	Key.backspace	n/a
647.65	0.08	1295300	keystroke_r	r	n/a
647.802	0.088	1295604	keystroke_o	o	n/a
648.067	0.071	1296134	keystroke_u	u	n/a
648.402	0.081	1296804	keystroke_l	l	n/a
648.626	0.097	1297252	keystroke_e	e	n/a
649.426	0.088	1298852	keystroke_t	t	n/a
649.61	0.08	1299220	keystroke_t	t	n/a
649.81	0.08	1299620	keystroke_e	e	n/a
650.474	0.088	1300948	keystroke_Key.space	Key.space	n/a
650.754	0.088	1301508	keystroke_s	s	n/a
650.947	0.103	1301894	keystroke_c	c	n/a
651.075	0.071	1302150	keystroke_o	o	n/a
651.202	0.088	1302404	keystroke_r	r	n/a
651.314	0.088	1302628	keystroke_e	e	n/a
651.474	0.08	1302948	keystroke_d	d	n/a
651.762	0.08	1303524	keystroke_Key.enter	Key.enter	n/a
651.8505	12.1055	1303701	prompt	n/a	flying modified massachusetts bizrate\n
652.818	0.088	1305636	keystroke_f	f	n/a
652.97	0.088	1305940	keystroke_l	l	n/a
653.675	0.119	1307350	keystroke_y	y	n/a
653.842	0.104	1307684	keystroke_i	i	n/a
653.922	0.088	1307844	keystroke_n	n	n/a
654.05	0.08	1308100	keystroke_g	g	n/a
