onset	duration	sample	value	key	prompt_text
6.913	9.2085	13826	prompt	n/a	the quick brown fox jumps over a lazy dog\n
8.185	0.043	16370	keystroke	t	n/a
8.363	0.075	16726	keystroke	h	n/a
8.498	0.12	16996	keystroke	e	n/a
8.648	0.135	17296	keystroke	Key.space	n/a
8.843	0.12	17686	keystroke	q	n/a
9.038	0.12	18076	keystroke	u	n/a
9.248	0.09	18496	keystroke	i	n/a
9.458	0.105	18916	keystroke	c	n/a
9.638	0.135	19276	keystroke	k	n/a
9.758	0.105	19516	keystroke	Key.space	n/a
9.9675	0.075	19935	keystroke	b	n/a
10.1625	0.075	20325	keystroke	r	n/a
10.3125	0.12	20625	keystroke	o	n/a
10.4775	0.1055	20955	keystroke	w	n/a
10.628	0.135	21256	keystroke	n	n/a
10.748	0.12	21496	keystroke	Key.space	n/a
10.883	0.105	21766	keystroke	f	n/a
11.048	0.1345	22096	keystroke	o	n/a
11.1975	0.12	22395	keystroke	x	n/a
11.3625	0.1195	22725	keystroke	Key.space	n/a
11.572	0.09	23144	keystroke	j	n/a
11.798	0.075	23596	keystroke	u	n/a
12.008	0.15	24016	keystroke	m	n/a
12.128	0.12	24256	keystroke	p	n/a
12.353	0.12	24706	keystroke	s	n/a
12.443	0.105	24886	keystroke	Key.space	n/a
12.653	0.105	25306	keystroke	o	n/a
12.758	0.06	25516	keystroke	v	n/a
12.908	0.165	25816	keystroke	e	n/a
12.998	0.18	25996	keystroke	r	n/a
13.163	0.12	26326	keystroke	Key.space	n/a
13.493	0.135	26986	keystroke	a	n/a
13.628	0.09	27256	keystroke	Key.space	n/a
13.898	0.105	27796	keystroke	l	n/a
14.063	0.119	28126	keystroke	a	n/a
14.3175	0.105	28635	keystroke	z	n/a
14.6775	0.12	29355	keystroke	y	n/a
14.903	0.1045	29806	keystroke	Key.space	n/a
15.053	0.09	30106	keystroke	d	n/a
15.203	0.105	30406	keystroke	o	n/a
15.338	0.075	30676	keystroke	g	n/a
16.0125	0.105	32025	keystroke	Key.enter	n/a
16.129	6.2155	32258	prompt	n/a	intel sorry buys polished\n
16.958	0.135	33916	keystroke	i	n/a
17.048	0.105	34096	keystroke	n	n/a
17.183	0.105	34366	keystroke	t	n/a
17.258	0.105	34516	keystroke	e	n/a
17.468	0.105	34936	keystroke	l	n/a
17.603	0.105	35206	keystroke	Key.space	n/a
17.738	0.12	35476	keystroke	s	n/a
17.888	0.12	35776	keystroke	o	n/a
18.023	0.045	36046	keystroke	r	n/a
18.173	0.075	36346	keystroke	r	n/a
18.3375	0.0905	36675	keystroke	y	n/a
18.443	0.09	36886	keystroke	Key.space	n/a
18.652	0.0765	37304	keystroke	b	n/a
19.0135	0.119	38027	keystroke	u	n/a
19.3275	0.0905	38655	keystroke	y	n/a
19.583	0.105	39166	keystroke	s	n/a
19.658	0.1195	39316	keystroke	Key.space	n/a
19.9725	0.21	39945	keystroke	p	n/a
20.1675	0.1505	40335	keystroke	o	n/a
20.468	0.1795	40936	keystroke	l	n/a
20.6175	0.135	41235	keystroke	i	n/a
20.9025	0.09	41805	keystroke	s	n/a
21.0375	0.12	42075	keystroke	h	n/a
21.1875	0.075	42375	keystroke	e	n/a
21.3975	0.0755	42795	keystroke	d	n/a
22.298	0.045	44596	keystroke	Key.enter	n/a
22.348	8.3965	44696	prompt	n/a	western debt assurance likelihood\n
22.958	0.15	45916	keystroke	w	n/a
23.078	0.135	46156	keystroke	e	n/a
23.273	0.135	46546	keystroke	s	n/a
23.393	0.09	46786	keystroke	t	n/a
23.513	0.12	47026	keystroke	e	n/a
23.618	0.09	47236	keystroke	r	n/a
23.738	0.09	47476	keystroke	n	n/a
23.843	0.105	47686	keystroke	Key.space	n/a
24.068	0.06	48136	keystroke	d	n/a
24.218	0.06	48436	keystroke	e	n/a
24.398	0.06	48796	keystroke	b	n/a
24.638	0.06	49276	keystroke	t	n/a
24.757	0.09	49514	keystroke	Key.space	n/a
24.938	0.119	49876	keystroke	a	n/a
25.073	0.075	50146	keystroke	s	n/a
25.252	0.091	50504	keystroke	s	n/a
25.403	0.075	50806	keystroke	u	n/a
25.523	0.0745	51046	keystroke	r	n/a
25.643	0.1195	51286	keystroke	a	n/a
25.7485	0.074	51497	keystroke	n	n/a
25.9125	0.0605	51825	keystroke	c	n/a
26.092	0.09	52184	keystroke	e	n/a
26.167	0.105	52334	keystroke	Key.space	n/a
26.3775	0.165	52755	keystroke	l	n/a
26.5275	0.09	53055	keystroke	i	n/a
26.7525	0.12	53505	keystroke	k	n/a
26.9325	0.09	53865	keystroke	e	n/a
27.7575	0.195	55515	keystroke	l	n/a
27.9375	0.12	55875	keystroke	i	n/a
28.6425	0.12	57285	keystroke	h	n/a
28.7775	0.1055	57555	keystroke	o	n/a
28.958	0.105	57916	keystroke	o	n/a
29.318	0.0745	58636	keystroke	d	n/a
30.638	0.105	61276	keystroke	Key.enter	n/a
30.748	7.617	61496	prompt	n/a	link searched alien venezuela\n
31.373	0.1795	62746	keystroke	l	n/a
31.5075	0.1055	63015	keystroke	i	n/a
31.703	0.135	63406	keystroke	n	n/a
31.808	0.105	63616	keystroke	k	n/a
31.988	0.105	63976	keystroke	Key.space	n/a
32.138	0.105	64276	keystroke	s	n/a
32.318	0.135	64636	keystroke	e	n/a
32.423	0.135	64846	keystroke	a	n/a
32.483	0.135	64966	keystroke	r	n/a
32.753	0.075	65506	keystroke	c	n/a
32.888	0.075	65776	keystroke	h	n/a
33.008	0.06	66016	keystroke	e	n/a
33.188	0.075	66376	keystroke	d	n/a
33.233	0.12	66466	keystroke	Key.space	n/a
33.368	0.135	66736	keystroke	a	n/a
33.488	0.165	66976	keystroke	l	n/a
33.608	0.12	67216	keystroke	i	n/a
33.773	0.105	67546	keystroke	e	n/a
33.908	0.105	67816	keystroke	n	n/a
34.523	0.105	69046	keystroke	Key.space	n/a
34.853	0.059	69706	keystroke	v	n/a
35.017	0.061	70034	keystroke	e	n/a
35.122	0.09	70244	keystroke	n	n/a
35.197	0.09	70394	keystroke	e	n/a
35.5425	0.12	71085	keystroke	z	n/a
35.797	0.06	71594	keystroke	u	n/a
36.172	0.121	72344	keystroke	a	n/a
36.607	0.076	73214	keystroke	Key.backspace	n/a
36.713	0.074	73426	keystroke	e	n/a
36.892	0.105	73784	keystroke	l	n/a
37.283	0.135	74566	keystroke	a	n/a
38.288	0.075	76576	keystroke	Key.enter	n/a
38.368	7.3165	76736	prompt	n/a	optimal balloon positions killer\n
39.158	0.1795	78316	keystroke	o	n/a
39.293	0.1345	78586	keystroke	p	n/a
39.5025	0.0905	79005	keystroke	t	n/a
39.6525	0.1055	79305	keystroke	i	n/a
39.7275	0.15	79455	keystroke	m	n/a
39.863	0.15	79726	keystroke	a	n/a
40.1025	0.1205	80205	keystroke	l	n/a
40.537	0.105	81074	keystroke	Key.space	n/a
41.048	0.09	82096	keystroke	b	n/a
41.153	0.12	82306	keystroke	a	n/a
41.258	0.09	82516	keystroke	l	n/a
41.438	0.105	82876	keystroke	l	n/a
41.768	0.075	83536	keystroke	o	n/a
41.933	0.105	83866	keystroke	o	n/a
42.263	0.1195	84526	keystroke	n	n/a
42.7125	0.12	85425	keystroke	Key.space	n/a
43.0875	0.15	86175	keystroke	p	n/a
43.2225	0.165	86445	keystroke	o	n/a
43.4325	0.12	86865	keystroke	s	n/a
43.5375	0.105	87075	keystroke	i	n/a
43.6725	0.0905	87345	keystroke	t	n/a
43.733	0.24	87466	keystroke	i	n/a
43.853	0.15	87706	keystroke	o	n/a
43.943	0.165	87886	keystroke	n	n/a
44.093	0.135	88186	keystroke	s	n/a
44.183	0.15	88366	keystroke	Key.space	n/a
44.408	0.105	88816	keystroke	k	n/a
44.648	0.075	89296	keystroke	i	n/a
44.828	0.075	89656	keystroke	l	n/a
44.993	0.0895	89986	keystroke	l	n/a
45.113	0.15	90226	keystroke	e	n/a
45.2175	0.1055	90435	keystroke	r	n/a
45.6075	0.075	91215	keystroke	Key.enter	n/a
45.688	10.242	91376	prompt	n/a	numbers developed suzuki quarterly\n
46.3135	0.09	92627	keystroke	n	n/a
46.5375	0.075	93075	keystroke	u	n/a
46.7475	0.09	93495	keystroke	m	n/a
46.8825	0.06	93765	keystroke	b	n/a
47.0475	0.225	94095	keystroke	e	n/a
47.1225	0.135	94245	keystroke	r	n/a
47.2125	0.15	94425	keystroke	s	n/a
47.3175	0.12	94635	keystroke	Key.space	n/a
47.5875	0.06	95175	keystroke	d	n/a
47.753	0.075	95506	keystroke	e	n/a
47.918	0.09	95836	keystroke	v	n/a
47.993	0.09	95986	keystroke	e	n/a
48.068	0.15	96136	keystroke	l	n/a
48.383	0.135	96766	keystroke	o	n/a
48.503	0.12	97006	keystroke	p	n/a
48.743	0.0595	97486	keystroke	e	n/a
48.9375	0.09	97875	keystroke	d	n/a
49.223	0.09	98446	keystroke	Key.space	n/a
49.568	0.075	99136	keystroke	s	n/a
50.483	0.0745	100966	keystroke	u	n/a
50.8885	0.179	101777	keystroke	z	n/a
51.5325	0.045	103065	keystroke	u	n/a
51.893	0.045	103786	keystroke	k	n/a
52.073	0.075	104146	keystroke	i	n/a
52.388	0.12	104776	keystroke	Key.space	n/a
52.8825	0.075	105765	keystroke	q	n/a
53.0025	0.09	106005	keystroke	u	n/a
53.1225	0.165	106245	keystroke	a	n/a
53.2725	0.075	106545	keystroke	r	n/a
53.4675	0.09	106935	keystroke	t	n/a
53.7225	0.105	107445	keystroke	l	n/a
54.0525	0.075	108105	keystroke	y	n/a
54.443	0.075	108886	keystroke	Key.backspace	n/a
54.683	0.015	109366	keystroke	Key.backspace	n/a
54.743	0.135	109486	keystroke	e	n/a
54.818	0.12	109636	keystroke	r	n/a
54.983	0.12	109966	keystroke	l	n/a
55.223	0.06	110446	keystroke	y	n/a
55.8225	0.105	111645	keystroke	Key.enter	n/a
55.9335	7.753	111867	prompt	n/a	assignment pocket enables returning\n
56.753	0.015	113506	keystroke	a	n/a
56.783	0.06	113566	keystroke	s	n/a
56.933	0.09	113866	keystroke	s	n/a
57.053	0.09	114106	keystroke	i	n/a
57.203	0.075	114406	keystroke	g	n/a
57.338	0.09	114676	keystroke	n	n/a
57.893	0.12	115786	keystroke	m	n/a
58.043	0.105	116086	keystroke	e	n/a
58.178	0.075	116356	keystroke	n	n/a
58.2675	0.1355	116535	keystroke	t	n/a
58.448	0.135	116896	keystroke	Key.space	n/a
58.943	0.15	117886	keystroke	p	n/a
59.078	0.135	118156	keystroke	o	n/a
59.363	0.075	118726	keystroke	c	n/a
59.483	0.105	118966	keystroke	k	n/a
59.618	0.15	119236	keystroke	e	n/a
59.738	0.135	119476	keystroke	t	n/a
59.903	0.09	119806	keystroke	Key.space	n/a
60.1885	0.089	120377	keystroke	e	n/a
60.3825	0.121	120765	keystroke	n	n/a
60.5625	0.136	121125	keystroke	a	n/a
60.9085	0.059	121817	keystroke	b	n/a
61.1175	0.09	122235	keystroke	l	n/a
61.2225	0.15	122445	keystroke	e	n/a
61.3435	0.1195	122687	keystroke	s	n/a
61.478	0.1195	122956	keystroke	Key.space	n/a
61.8075	0.105	123615	keystroke	r	n/a
61.8675	0.165	123735	keystroke	e	n/a
62.1225	0.09	124245	keystroke	t	n/a
62.3175	0.06	124635	keystroke	u	n/a
62.3925	0.091	124785	keystroke	r	n/a
62.5735	0.164	125147	keystroke	n	n/a
62.9625	0.135	125925	keystroke	i	n/a
63.0825	0.12	126165	keystroke	n	n/a
63.1425	0.12	126285	keystroke	g	n/a
63.5925	0.09	127185	keystroke	Key.enter	n/a
63.693	6.891	127386	prompt	n/a	decide quote outcome munich\n
64.253	0.075	128506	keystroke	d	n/a
64.4635	0.06	128927	keystroke	e	n/a
64.658	0.0755	129316	keystroke	c	n/a
64.778	0.075	129556	keystroke	i	n/a
64.898	0.06	129796	keystroke	d	n/a
65.078	0.075	130156	keystroke	e	n/a
65.333	0.089	130666	keystroke	Key.space	n/a
65.6025	0.09	131205	keystroke	q	n/a
65.7375	0.105	131475	keystroke	u	n/a
65.9625	0.105	131925	keystroke	o	n/a
66.0825	0.09	132165	keystroke	t	n/a
66.1425	0.15	132285	keystroke	e	n/a
66.3075	0.105	132615	keystroke	Key.space	n/a
66.623	0.15	133246	keystroke	o	n/a
66.758	0.105	133516	keystroke	u	n/a
66.879	0.089	133758	keystroke	t	n/a
67.118	0.0745	134236	keystroke	c	n/a
67.2375	0.15	134475	keystroke	o	n/a
67.3435	0.119	134687	keystroke	m	n/a
67.4925	0.12	134985	keystroke	e	n/a
67.5675	0.12	135135	keystroke	Key.space	n/a
68.5875	0.09	137175	keystroke	m	n/a
68.8275	0.075	137655	keystroke	u	n/a
69.0675	0.135	138135	keystroke	n	n/a
69.1875	0.105	138375	keystroke	i	n/a
69.4125	0.076	138825	keystroke	c	n/a
69.608	0.075	139216	keystroke	h	n/a
70.493	0.09	140986	keystroke	Key.enter	n/a
70.588	6.821	141176	prompt	n/a	basement choosing baking bible\n
71.153	0.09	142306	keystroke	d	n/a
71.573	0.045	143146	keystroke	a	n/a
71.633	0.075	143266	keystroke	b	n/a
71.8575	0.03	143715	keystroke	s	n/a
72.2175	0.075	144435	keystroke	Key.backspace	n/a
72.3975	0.045	144795	keystroke	Key.backspace	n/a
72.5325	0.06	145065	keystroke	Key.backspace	n/a
72.6675	0.09	145335	keystroke	Key.backspace	n/a
72.8625	0.091	145725	keystroke	b	n/a
73.0275	0.165	146055	keystroke	a	n/a
73.1625	0.105	146325	keystroke	s	n/a
73.3425	0.09	146685	keystroke	e	n/a
73.5675	0.075	147135	keystroke	m	n/a
73.6575	0.105	147315	keystroke	e	n/a
73.7775	0.075	147555	keystroke	n	n/a
73.8675	0.105	147735	keystroke	t	n/a
74.0475	0.09	148095	keystroke	Key.space	n/a
74.3025	0.075	148605	keystroke	c	n/a
74.4075	0.09	148815	keystroke	h	n/a
74.5125	0.09	149025	keystroke	o	n/a
74.798	0.015	149596	keystroke	o	n/a
74.828	0.09	149656	keystroke	s	n/a
74.948	0.1505	149896	keystroke	i	n/a
75.0675	0.105	150135	keystroke	n	n/a
75.1425	0.12	150285	keystroke	g	n/a
75.2325	0.12	150465	keystroke	Key.space	n/a
75.4275	0.075	150855	keystroke	b	n/a
75.5325	0.15	151065	keystroke	a	n/a
75.6975	0.0905	151395	keystroke	k	n/a
75.893	0.105	151786	keystroke	i	n/a
75.983	0.12	151966	keystroke	n	n/a
76.058	0.12	152116	keystroke	g	n/a
76.133	0.135	152266	keystroke	Key.space	n/a
76.358	0.09	152716	keystroke	b	n/a
76.508	0.075	153016	keystroke	i	n/a
76.598	0.075	153196	keystroke	b	n/a
76.793	0.105	153586	keystroke	l	n/a
76.973	0.09	153946	keystroke	e	n/a
77.333	0.075	154666	keystroke	Key.enter	n/a
77.413	5.771	154826	prompt	n/a	submitted washer generators none\n
78.2785	0.089	156557	keystroke	s	n/a
78.4275	0.06	156855	keystroke	u	n/a
78.5175	0.075	157035	keystroke	b	n/a
78.6535	0.104	157307	keystroke	m	n/a
78.7275	0.09	157455	keystroke	i	n/a
78.8625	0.06	157725	keystroke	t	n/a
79.0285	0.074	158057	keystroke	t	n/a
79.133	0.075	158266	keystroke	e	n/a
79.328	0.09	158656	keystroke	d	n/a
79.448	0.135	158896	keystroke	Key.space	n/a
79.568	0.105	159136	keystroke	w	n/a
79.733	0.1355	159466	keystroke	a	n/a
79.8375	0.135	159675	keystroke	s	n/a
80.0635	0.09	160127	keystroke	h	n/a
80.1975	0.165	160395	keystroke	e	n/a
80.3175	0.12	160635	keystroke	r	n/a
80.4525	0.0905	160905	keystroke	Key.space	n/a
80.693	0.075	161386	keystroke	g	n/a
80.873	0.09	161746	keystroke	e	n/a
81.008	0.09	162016	keystroke	n	n/a
81.083	0.135	162166	keystroke	e	n/a
81.203	0.09	162406	keystroke	r	n/a
81.308	0.195	162616	keystroke	a	n/a
81.488	0.105	162976	keystroke	t	n/a
81.668	0.0895	163336	keystroke	o	n/a
81.7725	0.09	163545	keystroke	r	n/a
81.8925	0.136	163785	keystroke	s	n/a
82.0125	0.106	164025	keystroke	Key.space	n/a
82.1775	0.121	164355	keystroke	n	n/a
82.2675	0.15	164535	keystroke	o	n/a
82.4325	0.09	164865	keystroke	n	n/a
82.5675	0.09	165135	keystroke	e	n/a
83.0925	0.09	166185	keystroke	Key.enter	n/a
83.188	6.8365	166376	prompt	n/a	camel underground hugh telling\n
83.828	0.075	167656	keystroke	c	n/a
83.933	0.135	167866	keystroke	a	n/a
84.053	0.09	168106	keystroke	m	n/a
84.173	0.075	168346	keystroke	e	n/a
84.323	0.12	168646	keystroke	l	n/a
84.728	0.105	169456	keystroke	Key.space	n/a
85.118	0.09	170236	keystroke	u	n/a
85.343	0.105	170686	keystroke	n	n/a
85.463	0.06	170926	keystroke	d	n/a
85.643	0.1205	171286	keystroke	e	n/a
85.703	0.1045	171406	keystroke	r	n/a
85.973	0.09	171946	keystroke	g	n/a
86.333	0.09	172666	keystroke	r	n/a
86.483	0.15	172966	keystroke	o	n/a
86.588	0.1055	173176	keystroke	u	n/a
86.8725	0.075	173745	keystroke	n	n/a
86.9925	0.12	173985	keystroke	d	n/a
87.1275	0.12	174255	keystroke	Key.space	n/a
87.623	0.075	175246	keystroke	h	n/a
87.8025	0.075	175605	keystroke	u	n/a
87.9085	0.074	175817	keystroke	g	n/a
88.0125	0.09	176025	keystroke	h	n/a
88.1325	0.09	176265	keystroke	Key.space	n/a
88.3725	0.1055	176745	keystroke	t	n/a
88.4475	0.1055	176895	keystroke	e	n/a
88.568	0.075	177136	keystroke	l	n/a
88.733	0.15	177466	keystroke	l	n/a
88.898	0.12	177796	keystroke	i	n/a
88.988	0.12	177976	keystroke	n	n/a
89.123	0.09	178246	keystroke	g	n/a
89.9475	0.075	179895	keystroke	Key.enter	n/a
90.029	8.3955	180058	prompt	n/a	sealed yamaha scratch generates\n
90.623	0.09	181246	keystroke	s	n/a
90.773	0.135	181546	keystroke	e	n/a
90.893	0.135	181786	keystroke	a	n/a
90.998	0.12	181996	keystroke	l	n/a
91.163	0.075	182326	keystroke	e	n/a
91.358	0.105	182716	keystroke	d	n/a
91.448	0.12	182896	keystroke	Key.space	n/a
91.793	0.089	183586	keystroke	y	n/a
91.928	0.12	183856	keystroke	a	n/a
92.168	0.12	184336	keystroke	m	n/a
92.348	0.12	184696	keystroke	a	n/a
92.603	0.075	185206	keystroke	h	n/a
92.798	0.105	185596	keystroke	a	n/a
93.293	0.105	186586	keystroke	Key.space	n/a
93.503	0.075	187006	keystroke	s	n/a
93.7575	0.075	187515	keystroke	c	n/a
93.9825	0.09	187965	keystroke	r	n/a
94.0875	0.15	188175	keystroke	a	n/a
94.5825	0.075	189165	keystroke	t	n/a
94.7925	0.09	189585	keystroke	c	n/a
94.9425	0.075	189885	keystroke	h	n/a
95.1975	0.09	190395	keystroke	Key.space	n/a
95.6175	0.06	191235	keystroke	g	n/a
95.768	0.119	191536	keystroke	e	n/a
95.962	0.076	191924	keystroke	n	n/a
96.008	0.014	192016	keystroke	e	n/a
96.997	0.09	193994	keystroke	r	n/a
97.297	0.151	194594	keystroke	a	n/a
97.433	0.105	194866	keystroke	t	n/a
97.582	0.151	195164	keystroke	e	n/a
97.717	0.106	195434	keystroke	s	n/a
98.332	0.09	196664	keystroke	Key.enter	n/a
98.428	10.391	196856	prompt	n/a	invest genealogy newfoundland gordon\n
99.038	0.134	198076	keystroke	i	n/a
99.157	0.106	198314	keystroke	n	n/a
99.277	0.075	198554	keystroke	v	n/a
99.382	0.165	198764	keystroke	e	n/a
99.532	0.1805	199064	keystroke	s	n/a
99.6675	0.12	199335	keystroke	t	n/a
99.7875	0.12	199575	keystroke	Key.space	n/a
100.4625	0.1345	200925	keystroke	n	n/a
100.702	0.0905	201404	keystroke	e	n/a
101.678	0.0595	203356	keystroke	Key.backspace	n/a
101.828	0.075	203656	keystroke	Key.backspace	n/a
101.933	0.075	203866	keystroke	g	n/a
102.038	0.075	204076	keystroke	e	n/a
102.173	0.09	204346	keystroke	n	n/a
102.3225	0.09	204645	keystroke	e	n/a
102.9675	0.105	205935	keystroke	o	n/a
103.6425	0.0895	207285	keystroke	Key.backspace	n/a
103.747	0.105	207494	keystroke	a	n/a
104.002	0.12	208004	keystroke	l	n/a
104.242	0.075	208484	keystroke	o	n/a
104.363	0.09	208726	keystroke	g	n/a
104.543	0.074	209086	keystroke	y	n/a
105.0675	0.09	210135	keystroke	Key.space	n/a
105.5925	0.12	211185	keystroke	n	n/a
105.6975	0.15	211395	keystroke	e	n/a
105.8025	0.12	211605	keystroke	w	n/a
106.1175	0.09	212235	keystroke	f	n/a
106.2825	0.1205	212565	keystroke	o	n/a
106.3425	0.1205	212685	keystroke	u	n/a
106.598	0.105	213196	keystroke	n	n/a
106.718	0.06	213436	keystroke	d	n/a
106.883	0.09	213766	keystroke	l	n/a
106.973	0.12	213946	keystroke	a	n/a
107.108	0.09	214216	keystroke	n	n/a
107.258	0.1045	214516	keystroke	d	n/a
107.4675	0.105	214935	keystroke	Key.space	n/a
107.6775	0.075	215355	keystroke	g	n/a
107.7975	0.09	215595	keystroke	o	n/a
107.9325	0.075	215865	keystroke	r	n/a
108.1275	0.09	216255	keystroke	d	n/a
108.2475	0.15	216495	keystroke	o	n/a
108.3675	0.12	216735	keystroke	n	n/a
108.7425	0.075	217485	keystroke	Key.enter	n/a
108.823	7.346	217646	prompt	n/a	dropped nvidia investments throws\n
109.5675	0.09	219135	keystroke	d	n/a
109.7475	0.09	219495	keystroke	r	n/a
109.9125	0.165	219825	keystroke	o	n/a
110.1075	0.09	220215	keystroke	p	n/a
110.2575	0.105	220515	keystroke	p	n/a
110.3925	0.09	220785	keystroke	e	n/a
110.5875	0.12	221175	keystroke	d	n/a
110.6925	0.12	221385	keystroke	Key.space	n/a
110.9625	0.09	221925	keystroke	n	n/a
111.2175	0.075	222435	keystroke	v	n/a
111.3675	0.09	222735	keystroke	i	n/a
111.5475	0.075	223095	keystroke	d	n/a
111.6675	0.075	223335	keystroke	i	n/a
111.8625	0.105	223725	keystroke	a	n/a
112.1175	0.09	224235	keystroke	Key.space	n/a
112.4775	0.12	224955	keystroke	i	n/a
112.5675	0.12	225135	keystroke	n	n/a
112.7175	0.075	225435	keystroke	v	n/a
112.8825	0.165	225765	keystroke	e	n/a
112.9875	0.15	225975	keystroke	s	n/a
113.0925	0.105	226185	keystroke	t	n/a
113.302	0.1055	226604	keystroke	m	n/a
113.4225	0.106	226845	keystroke	e	n/a
113.5875	0.09	227175	keystroke	n	n/a
113.6775	0.105	227355	keystroke	t	n/a
113.8725	0.105	227745	keystroke	s	n/a
114.0825	0.1055	228165	keystroke	Key.space	n/a
114.352	0.075	228704	keystroke	t	n/a
114.532	0.0905	229064	keystroke	h	n/a
114.547	0.0905	229094	keystroke	r	n/a
114.8175	0.105	229635	keystroke	o	n/a
114.9975	0.09	229995	keystroke	w	n/a
115.2975	0.075	230595	keystroke	s	n/a
116.0925	0.075	232185	keystroke	Key.enter	n/a
116.172	6.1475	232344	prompt	n/a	stamp revolutionary matt period\n
116.7675	0.105	233535	keystroke	s	n/a
116.8875	0.09	233775	keystroke	t	n/a
116.9925	0.12	233985	keystroke	a	n/a
117.0975	0.12	234195	keystroke	m	n/a
117.3675	0.12	234735	keystroke	p	n/a
117.5625	0.12	235125	keystroke	Key.space	n/a
117.9375	0.105	235875	keystroke	r	n/a
118.0275	0.09	236055	keystroke	e	n/a
118.2375	0.09	236475	keystroke	v	n/a
118.4175	0.105	236835	keystroke	o	n/a
118.6725	0.135	237345	keystroke	l	n/a
118.8225	0.09	237645	keystroke	u	n/a
118.9725	0.09	237945	keystroke	t	n/a
119.1075	0.195	238215	keystroke	i	n/a
119.1975	0.12	238395	keystroke	o	n/a
119.2725	0.105	238545	keystroke	n	n/a
119.4075	0.15	238815	keystroke	a	n/a
119.5275	0.105	239055	keystroke	r	n/a
119.6925	0.0745	239385	keystroke	y	n/a
119.842	0.09	239684	keystroke	Key.space	n/a
120.068	0.089	240136	keystroke	m	n/a
120.173	0.119	240346	keystroke	a	n/a
120.247	0.09	240494	keystroke	t	n/a
120.443	0.09	240886	keystroke	t	n/a
120.592	0.12	241184	keystroke	Key.space	n/a
120.802	0.106	241604	keystroke	p	n/a
120.923	0.104	241846	keystroke	e	n/a
120.967	0.12	241934	keystroke	r	n/a
121.103	0.119	242206	keystroke	i	n/a
121.207	0.15	242414	keystroke	o	n/a
121.478	0.09	242956	keystroke	d	n/a
122.242	0.075	244484	keystroke	Key.enter	n/a
122.323	9.881	244646	prompt	n/a	threads quantity leadership birth\n
122.992	0.09	245984	keystroke	t	n/a
123.202	0.075	246404	keystroke	h	n/a
123.292	0.151	246584	keystroke	r	n/a
123.382	0.135	246764	keystroke	e	n/a
123.487	0.195	246974	keystroke	a	n/a
123.727	0.1505	247454	keystroke	d	n/a
124.1175	0.12	248235	keystroke	s	n/a
124.2075	0.15	248415	keystroke	Key.space	n/a
124.4775	0.09	248955	keystroke	q	n/a
124.6125	0.075	249225	keystroke	u	n/a
124.7175	0.15	249435	keystroke	a	n/a
124.8825	0.1355	249765	keystroke	n	n/a
125.138	0.075	250276	keystroke	t	n/a
125.153	0.105	250306	keystroke	i	n/a
126.0075	0.075	252015	keystroke	t	n/a
126.1575	0.075	252315	keystroke	y	n/a
126.6825	0.09	253365	keystroke	Key.space	n/a
126.953	0.12	253906	keystroke	l	n/a
127.058	0.075	254116	keystroke	e	n/a
127.268	0.06	254536	keystroke	d	n/a
127.463	0.165	254926	keystroke	e	n/a
127.523	0.12	255046	keystroke	r	n/a
127.598	0.12	255196	keystroke	s	n/a
127.748	0.09	255496	keystroke	h	n/a
127.793	0.15	255586	keystroke	i	n/a
127.913	0.105	255826	keystroke	p	n/a
128.513	0.06	257026	keystroke	Key.backspace	n/a
128.663	0.06	257326	keystroke	Key.backspace	n/a
128.798	0.06	257596	keystroke	Key.backspace	n/a
128.948	0.06	257896	keystroke	Key.backspace	n/a
129.098	0.06	258196	keystroke	Key.backspace	n/a
129.308	0.015	258616	keystroke	Key.backspace	n/a
129.383	0.09	258766	keystroke	Key.backspace	n/a
129.518	0.1345	259036	keystroke	a	n/a
129.6825	0.075	259365	keystroke	d	n/a
129.9225	0.12	259845	keystroke	e	n/a
130.0125	0.135	260025	keystroke	r	n/a
130.1925	0.09	260385	keystroke	s	n/a
130.2825	0.12	260565	keystroke	h	n/a
130.3585	0.164	260717	keystroke	i	n/a
130.4775	0.12	260955	keystroke	p	n/a
130.8675	0.1045	261735	keystroke	Key.space	n/a
131.257	0.076	262514	keystroke	b	n/a
131.423	0.074	262846	keystroke	i	n/a
131.528	0.06	263056	keystroke	r	n/a
131.708	0.075	263416	keystroke	t	n/a
131.798	0.06	263596	keystroke	h	n/a
132.128	0.074	264256	keystroke	Key.enter	n/a
132.2075	9.5065	264415	prompt	n/a	supervision cultures hydrogen switching\n
132.7725	0.12	265545	keystroke	s	n/a
132.9375	0.075	265875	keystroke	u	n/a
133.102	0.105	266204	keystroke	p	n/a
133.237	0.12	266474	keystroke	e	n/a
133.297	0.105	266594	keystroke	r	n/a
133.522	0.075	267044	keystroke	v	n/a
133.628	0.09	267256	keystroke	i	n/a
133.793	0.074	267586	keystroke	s	n/a
133.868	0.225	267736	keystroke	i	n/a
133.988	0.135	267976	keystroke	o	n/a
134.077	0.106	268154	keystroke	n	n/a
134.243	0.089	268486	keystroke	Key.space	n/a
134.602	0.075	269204	keystroke	c	n/a
134.753	0.09	269506	keystroke	u	n/a
134.978	0.1045	269956	keystroke	l	n/a
135.0975	0.09	270195	keystroke	t	n/a
135.2325	0.075	270465	keystroke	u	n/a
135.3525	0.15	270705	keystroke	r	n/a
135.4125	0.15	270825	keystroke	e	n/a
135.5175	0.165	271035	keystroke	s	n/a
135.6675	0.0895	271335	keystroke	Key.space	n/a
135.968	0.074	271936	keystroke	h	n/a
136.192	0.06	272384	keystroke	y	n/a
136.3725	0.09	272745	keystroke	d	n/a
136.5825	0.075	273165	keystroke	r	n/a
137.2275	0.165	274455	keystroke	o	n/a
137.7525	0.06	275505	keystroke	g	n/a
137.857	0.09	275714	keystroke	e	n/a
138.023	0.119	276046	keystroke	n	n/a
138.187	0.06	276374	keystroke	Key.space	n/a
138.398	0.075	276796	keystroke	s	n/a
138.562	0.03	277124	keystroke	e	n/a
138.622	0.135	277244	keystroke	w	n/a
139.132	0.075	278264	keystroke	Key.backspace	n/a
139.297	0.0755	278594	keystroke	Key.backspace	n/a
139.4625	0.075	278925	keystroke	w	n/a
139.5675	0.075	279135	keystroke	i	n/a
139.7025	0.075	279405	keystroke	t	n/a
139.9425	0.075	279885	keystroke	c	n/a
140.0625	0.09	280125	keystroke	h	n/a
140.4375	0.1055	280875	keystroke	i	n/a
140.512	0.105	281024	keystroke	n	n/a
140.648	0.104	281296	keystroke	g	n/a
140.767	0.075	281534	keystroke	Key.space	n/a
141.3075	0.09	282615	keystroke	Key.backspace	n/a
141.6375	0.075	283275	keystroke	Key.enter	n/a
141.7175	13.7515	283435	prompt	n/a	acquire remark reproductive concerning\n
142.8525	0.105	285705	keystroke	a	n/a
143.107	0.075	286214	keystroke	c	n/a
143.4225	0.09	286845	keystroke	q	n/a
143.5425	0.075	287085	keystroke	u	n/a
143.752	0.105	287504	keystroke	i	n/a
143.917	0.135	287834	keystroke	r	n/a
144.022	0.105	288044	keystroke	e	n/a
144.5925	0.12	289185	keystroke	Key.space	n/a
144.7875	0.09	289575	keystroke	r	n/a
144.8325	0.09	289665	keystroke	e	n/a
144.9975	0.09	289995	keystroke	m	n/a
145.1625	0.165	290325	keystroke	a	n/a
145.3425	0.105	290685	keystroke	r	n/a
145.5375	0.105	291075	keystroke	k	n/a
145.7615	0.09	291523	keystroke	Key.space	n/a
146.092	0.09	292184	keystroke	r	n/a
146.167	0.105	292334	keystroke	e	n/a
146.4965	0.091	292993	keystroke	p	n/a
146.6465	0.106	293293	keystroke	o	n/a
146.7675	0.074	293535	keystroke	r	n/a
147.0825	0.0745	294165	keystroke	d	n/a
147.278	0.074	294556	keystroke	u	n/a
147.458	0.059	294916	keystroke	c	n/a
147.697	0.075	295394	keystroke	t	n/a
147.997	0.075	295994	keystroke	i	n/a
148.118	0.074	296236	keystroke	v	n/a
148.567	0.075	297134	keystroke	e	n/a
149.062	0.075	298124	keystroke	Key.backspace	n/a
149.242	0.06	298484	keystroke	Key.backspace	n/a
149.407	0.06	298814	keystroke	Key.backspace	n/a
149.557	0.0605	299114	keystroke	Key.backspace	n/a
149.7225	0.0595	299445	keystroke	Key.backspace	n/a
149.887	0.06	299774	keystroke	Key.backspace	n/a
150.4125	0.06	300825	keystroke	Key.backspace	n/a
150.5925	0.06	301185	keystroke	Key.backspace	n/a
150.7575	0.06	301515	keystroke	Key.backspace	n/a
151.0725	0.075	302145	keystroke	r	n/a
151.2075	0.105	302415	keystroke	o	n/a
151.5225	0.075	303045	keystroke	d	n/a
151.6575	0.075	303315	keystroke	u	n/a
151.763	0.074	303526	keystroke	c	n/a
151.942	0.06	303884	keystroke	t	n/a
152.048	0.09	304096	keystroke	i	n/a
152.167	0.075	304334	keystroke	v	n/a
152.302	0.075	304604	keystroke	e	n/a
153.052	0.105	306104	keystroke	Key.space	n/a
153.3665	0.076	306733	keystroke	c	n/a
153.4715	0.136	306943	keystroke	o	n/a
153.5775	0.105	307155	keystroke	n	n/a
153.742	0.06	307484	keystroke	c	n/a
153.967	0.1505	307934	keystroke	e	n/a
154.3875	0.09	308775	keystroke	r	n/a
154.5375	0.15	309075	keystroke	n	n/a
154.6725	0.12	309345	keystroke	i	n/a
154.7925	0.09	309585	keystroke	n	n/a
154.8975	0.105	309795	keystroke	g	n/a
155.3775	0.0895	310755	keystroke	Key.enter	n/a
155.474	12.1	310948	prompt	n/a	mother construct electronics outlet\n
156.2925	0.105	312585	keystroke	m	n/a
156.4275	0.12	312855	keystroke	o	n/a
156.5925	0.09	313185	keystroke	t	n/a
156.6675	0.09	313335	keystroke	h	n/a
156.8175	0.12	313635	keystroke	e	n/a
156.8615	0.136	313723	keystroke	r	n/a
156.9665	0.09	313933	keystroke	Key.space	n/a
157.1925	0.059	314385	keystroke	c	n/a
157.2675	0.149	314535	keystroke	o	n/a
157.3725	0.105	314745	keystroke	n	n/a
157.5075	0.09	315015	keystroke	s	n/a
157.6575	0.09	315315	keystroke	t	n/a
157.9125	0.0445	315825	keystroke	u	n/a
158.3775	0.1045	316755	keystroke	Key.backspace	n/a
158.617	0.09	317234	keystroke	r	n/a
158.842	0.075	317684	keystroke	u	n/a
159.007	0.075	318014	keystroke	c	n/a
159.262	0.09	318524	keystroke	t	n/a
159.382	0.09	318764	keystroke	Key.space	n/a
159.7575	0.06	319515	keystroke	e	n/a
159.9675	0.06	319935	keystroke	c	n/a
160.2525	0.105	320505	keystroke	t	n/a
160.8665	0.106	321733	keystroke	r	n/a
161.1525	0.09	322305	keystroke	o	n/a
161.3025	0.105	322605	keystroke	n	n/a
161.5125	0.09	323025	keystroke	i	n/a
161.6625	0.075	323325	keystroke	c	n/a
162.2025	0.0745	324405	keystroke	Key.backspace	n/a
162.367	0.06	324734	keystroke	Key.backspace	n/a
162.5175	0.06	325035	keystroke	Key.backspace	n/a
162.6675	0.06	325335	keystroke	Key.backspace	n/a
162.8175	0.06	325635	keystroke	Key.backspace	n/a
162.9825	0.045	325965	keystroke	Key.backspace	n/a
163.1175	0.075	326235	keystroke	Key.backspace	n/a
163.3575	0.135	326715	keystroke	l	n/a
163.4625	0.075	326925	keystroke	e	n/a
163.6715	0.061	327343	keystroke	c	n/a
163.837	0.06	327674	keystroke	t	n/a
163.987	0.09	327974	keystroke	r	n/a
164.122	0.12	328244	keystroke	o	n/a
164.2575	0.135	328515	keystroke	n	n/a
164.5125	0.09	329025	keystroke	i	n/a
164.7675	0.075	329535	keystroke	c	n/a
165.1425	0.09	330285	keystroke	s	n/a
165.3225	0.09	330645	keystroke	Key.space	n/a
165.6375	0.135	331275	keystroke	o	n/a
165.7425	0.105	331485	keystroke	u	n/a
165.8925	0.075	331785	keystroke	t	n/a
166.0575	0.135	332115	keystroke	l	n/a
166.822	0.1055	333644	keystroke	e	n/a
166.9725	0.09	333945	keystroke	t	n/a
167.4975	0.0745	334995	keystroke	Key.enter	n/a
167.5775	5.576	335155	prompt	n/a	drinking mortality going patch\n
168.217	0.09	336434	keystroke	d	n/a
168.382	0.105	336764	keystroke	r	n/a
168.472	0.105	336944	keystroke	i	n/a
168.592	0.15	337184	keystroke	n	n/a
168.727	0.105	337454	keystroke	k	n/a
168.922	0.12	337844	keystroke	i	n/a
169.027	0.1045	338054	keystroke	n	n/a
169.1625	0.134	338325	keystroke	g	n/a
169.2665	0.135	338533	keystroke	Key.space	n/a
169.4915	0.121	338983	keystroke	m	n/a
169.5815	0.12	339163	keystroke	o	n/a
169.7175	0.075	339435	keystroke	r	n/a
169.9275	0.06	339855	keystroke	t	n/a
170.0025	0.12	340005	keystroke	a	n/a
170.1825	0.165	340365	keystroke	l	n/a
170.2875	0.135	340575	keystroke	i	n/a
170.4675	0.105	340935	keystroke	t	n/a
170.6325	0.09	341265	keystroke	y	n/a
170.7525	0.105	341505	keystroke	Key.space	n/a
170.9475	0.075	341895	keystroke	g	n/a
171.0525	0.18	342105	keystroke	o	n/a
171.1725	0.1945	342345	keystroke	i	n/a
171.292	0.12	342584	keystroke	n	n/a
171.427	0.12	342854	keystroke	g	n/a
171.517	0.12	343034	keystroke	Key.space	n/a
172.1175	0.045	344235	keystroke	p	n/a
172.1775	0.18	344355	keystroke	a	n/a
172.3425	0.105	344685	keystroke	t	n/a
172.6125	0.075	345225	keystroke	c	n/a
172.7325	0.105	345465	keystroke	h	n/a
173.0775	0.075	346155	keystroke	Key.enter	n/a
173.158	6.146	346316	prompt	n/a	custom starring gone ascii\n
173.782	0.0755	347564	keystroke	c	n/a
173.932	0.075	347864	keystroke	u	n/a
174.037	0.12	348074	keystroke	s	n/a
174.127	0.105	348254	keystroke	t	n/a
174.262	0.12	348524	keystroke	o	n/a
174.337	0.12	348674	keystroke	m	n/a
174.487	0.105	348974	keystroke	Key.space	n/a
174.6365	0.135	349273	keystroke	s	n/a
174.802	0.075	349604	keystroke	t	n/a
174.908	0.149	349816	keystroke	a	n/a
175.012	0.075	350024	keystroke	r	n/a
175.207	0.06	350414	keystroke	r	n/a
175.7775	0.12	351555	keystroke	i	n/a
175.8675	0.1045	351735	keystroke	n	n/a
175.957	0.12	351914	keystroke	g	n/a
176.107	0.12	352214	keystroke	Key.space	n/a
176.602	0.075	353204	keystroke	g	n/a
176.722	0.105	353444	keystroke	o	n/a
176.797	0.105	353594	keystroke	n	n/a
176.932	0.105	353864	keystroke	e	n/a
177.037	0.09	354074	keystroke	Key.space	n/a
177.217	0.1655	354434	keystroke	a	n/a
177.3675	0.105	354735	keystroke	s	n/a
177.6375	0.075	355275	keystroke	c	n/a
177.862	0.105	355724	keystroke	i	n/a
178.117	0.0605	356234	keystroke	e	n/a
178.5825	0.105	357165	keystroke	Key.backspace	n/a
178.8225	0.075	357645	keystroke	i	n/a
179.2275	0.075	358455	keystroke	Key.enter	n/a
179.307	6.4165	358614	prompt	n/a	click picture grain bobby\n
179.8425	0.074	359685	keystroke	c	n/a
180.067	0.165	360134	keystroke	l	n/a
180.202	0.09	360404	keystroke	i	n/a
180.352	0.09	360704	keystroke	c	n/a
180.487	0.09	360974	keystroke	k	n/a
180.622	0.1055	361244	keystroke	Key.space	n/a
180.8625	0.105	361725	keystroke	p	n/a
181.1475	0.075	362295	keystroke	i	n/a
181.2975	0.0745	362595	keystroke	c	n/a
181.507	0.075	363014	keystroke	t	n/a
181.687	0.09	363374	keystroke	u	n/a
181.822	0.135	363644	keystroke	r	n/a
181.882	0.12	363764	keystroke	e	n/a
181.972	0.12	363944	keystroke	Key.space	n/a
182.227	0.06	364454	keystroke	g	n/a
182.407	0.09	364814	keystroke	r	n/a
182.467	0.18	364934	keystroke	a	n/a
182.632	0.135	365264	keystroke	i	n/a
182.752	0.105	365504	keystroke	n	n/a
182.902	0.105	365804	keystroke	Key.space	n/a
183.292	0.075	366584	keystroke	b	n/a
183.442	0.105	366884	keystroke	o	n/a
183.562	0.09	367124	keystroke	b	n/a
183.667	0.105	367334	keystroke	o	n/a
184.117	0.09	368234	keystroke	Key.backspace	n/a
184.252	0.09	368504	keystroke	b	n/a
184.507	0.105	369014	keystroke	y	n/a
185.6325	0.089	371265	keystroke	Key.enter	n/a
185.7265	9.927	371453	prompt	n/a	belgium movers cardiff synopsis\n
186.3375	0.075	372675	keystroke	b	n/a
186.847	0.06	373694	keystroke	e	n/a
186.9975	0.105	373995	keystroke	l	n/a
187.297	0.091	374594	keystroke	g	n/a
187.732	0.105	375464	keystroke	i	n/a
188.107	0.105	376214	keystroke	u	n/a
188.407	0.12	376814	keystroke	m	n/a
188.677	0.09	377354	keystroke	Key.space	n/a
189.037	0.135	378074	keystroke	m	n/a
189.142	0.12	378284	keystroke	o	n/a
189.292	0.06	378584	keystroke	v	n/a
189.442	0.1645	378884	keystroke	e	n/a
189.9515	0.075	379903	keystroke	r	n/a
190.1925	0.104	380385	keystroke	s	n/a
190.4315	0.0905	380863	keystroke	Key.space	n/a
190.777	0.06	381554	keystroke	c	n/a
190.897	0.165	381794	keystroke	a	n/a
191.032	0.075	382064	keystroke	r	n/a
191.182	0.09	382364	keystroke	d	n/a
191.467	0.075	382934	keystroke	i	n/a
191.602	0.06	383204	keystroke	f	n/a
191.7665	0.075	383533	keystroke	f	n/a
192.2165	0.09	384433	keystroke	Key.space	n/a
192.6225	0.09	385245	keystroke	s	n/a
192.8915	0.09	385783	keystroke	y	n/a
193.1915	0.135	386383	keystroke	n	n/a
193.5365	0.1505	387073	keystroke	o	n/a
194.062	0.105	388124	keystroke	p	n/a
194.377	0.09	388754	keystroke	s	n/a
194.767	0.105	389534	keystroke	i	n/a
195.187	0.0905	390374	keystroke	s	n/a
195.577	0.075	391154	keystroke	Key.enter	n/a
195.6585	6.73	391317	prompt	n/a	advance annual validity myanmar\n
196.312	0.1355	392624	keystroke	a	n/a
196.4765	0.076	392953	keystroke	d	n/a
196.672	0.06	393344	keystroke	v	n/a
196.762	0.135	393524	keystroke	a	n/a
196.912	0.075	393824	keystroke	n	n/a
197.002	0.075	394004	keystroke	c	n/a
197.197	0.09	394394	keystroke	e	n/a
197.302	0.105	394604	keystroke	Key.space	n/a
197.437	0.12	394874	keystroke	a	n/a
197.572	0.0755	395144	keystroke	n	n/a
197.7675	0.06	395535	keystroke	n	n/a
197.977	0.0755	395954	keystroke	u	n/a
198.1275	0.12	396255	keystroke	a	n/a
198.2925	0.09	396585	keystroke	l	n/a
198.4265	0.105	396853	keystroke	Key.space	n/a
198.6665	0.075	397333	keystroke	v	n/a
198.8015	0.12	397603	keystroke	a	n/a
198.9215	0.165	397843	keystroke	l	n/a
199.0725	0.09	398145	keystroke	i	n/a
199.2215	0.076	398443	keystroke	d	n/a
199.3715	0.076	398743	keystroke	i	n/a
199.5825	0.089	399165	keystroke	t	n/a
199.8375	0.09	399675	keystroke	y	n/a
199.9715	0.105	399943	keystroke	Key.space	n/a
200.6015	0.075	401203	keystroke	m	n/a
200.8875	0.06	401775	keystroke	y	n/a
201.0965	0.121	402193	keystroke	a	n/a
201.2915	0.106	402583	keystroke	n	n/a
201.6515	0.076	403303	keystroke	m	n/a
201.772	0.165	403544	keystroke	a	n/a
201.892	0.09	403784	keystroke	r	n/a
202.312	0.075	404624	keystroke	Key.enter	n/a
202.392	10.7215	404784	prompt	n/a	civilian match partnership afterwards\n
205.0295	0.028	410059	keystroke	c	n/a
205.2525	0.09	410505	keystroke	i	n/a
205.3875	0.09	410775	keystroke	v	n/a
205.5225	0.09	411045	keystroke	i	n/a
205.9565	0.195	411913	keystroke	l	n/a
206.1065	0.12	412213	keystroke	i	n/a
206.2415	0.121	412483	keystroke	a	n/a
206.4215	0.105	412843	keystroke	n	n/a
207.0965	0.105	414193	keystroke	Key.space	n/a
207.3965	0.105	414793	keystroke	m	n/a
207.4875	0.149	414975	keystroke	a	n/a
207.5915	0.09	415183	keystroke	t	n/a
207.8315	0.06	415663	keystroke	c	n/a
207.9665	0.091	415933	keystroke	h	n/a
208.0715	0.09	416143	keystroke	Key.space	n/a
208.3565	0.105	416713	keystroke	m	n/a
208.7925	0.0895	417585	keystroke	Key.backspace	n/a
209.047	0.105	418094	keystroke	p	n/a
209.122	0.165	418244	keystroke	a	n/a
209.227	0.09	418454	keystroke	r	n/a
209.422	0.075	418844	keystroke	t	n/a
209.662	0.075	419324	keystroke	n	n/a
210.187	0.15	420374	keystroke	e	n/a
210.277	0.105	420554	keystroke	r	n/a
210.532	0.09	421064	keystroke	s	n/a
210.607	0.135	421214	keystroke	h	n/a
210.682	0.18	421364	keystroke	i	n/a
210.832	0.105	421664	keystroke	p	n/a
211.042	0.105	422084	keystroke	Key.space	n/a
211.282	0.1205	422564	keystroke	a	n/a
211.4175	0.09	422835	keystroke	f	n/a
211.6425	0.06	423285	keystroke	t	n/a
211.7465	0.12	423493	keystroke	e	n/a
211.8515	0.09	423703	keystroke	r	n/a
212.1215	0.075	424243	keystroke	w	n/a
212.2715	0.1505	424543	keystroke	a	n/a
212.377	0.09	424754	keystroke	r	n/a
212.602	0.09	425204	keystroke	d	n/a
212.782	0.09	425564	keystroke	s	n/a
213.022	0.09	426044	keystroke	Key.enter	n/a
213.117	9.1915	426234	prompt	n/a	stack transfer integrity entertainment\n
213.727	0.1045	427454	keystroke	s	n/a
213.9215	0.09	427843	keystroke	t	n/a
214.0115	0.105	428023	keystroke	a	n/a
214.192	0.09	428384	keystroke	k	n/a
214.627	0.09	429254	keystroke	Key.backspace	n/a
214.792	0.075	429584	keystroke	c	n/a
214.912	0.09	429824	keystroke	k	n/a
215.062	0.12	430124	keystroke	Key.space	n/a
215.632	0.075	431264	keystroke	t	n/a
215.8125	0.09	431625	keystroke	r	n/a
215.8875	0.119	431775	keystroke	a	n/a
216.0215	0.105	432043	keystroke	n	n/a
216.1715	0.106	432343	keystroke	s	n/a
216.4575	0.074	432915	keystroke	f	n/a
216.6525	0.1345	433305	keystroke	e	n/a
216.7565	0.1055	433513	keystroke	r	n/a
216.877	0.09	433754	keystroke	Key.space	n/a
217.057	0.12	434114	keystroke	i	n/a
217.1475	0.1045	434295	keystroke	n	n/a
217.267	0.045	434534	keystroke	e	n/a
217.9715	0.105	435943	keystroke	Key.backspace	n/a
218.1675	0.06	436335	keystroke	t	n/a
218.3325	0.075	436665	keystroke	e	n/a
218.5275	0.06	437055	keystroke	g	n/a
218.7525	0.075	437505	keystroke	r	n/a
218.9175	0.09	437835	keystroke	i	n/a
219.1425	0.09	438285	keystroke	t	n/a
219.352	0.075	438704	keystroke	y	n/a
219.6815	0.1055	439363	keystroke	Key.space	n/a
220.147	0.075	440294	keystroke	e	n/a
220.222	0.12	440444	keystroke	n	n/a
220.357	0.075	440714	keystroke	t	n/a
220.507	0.12	441014	keystroke	e	n/a
220.582	0.105	441164	keystroke	r	n/a
220.9265	0.09	441853	keystroke	t	n/a
221.0475	0.149	442095	keystroke	a	n/a
221.1815	0.12	442363	keystroke	i	n/a
221.2565	0.12	442513	keystroke	n	n/a
221.5715	0.0905	443143	keystroke	m	n/a
221.6765	0.106	443353	keystroke	e	n/a
221.8265	0.075	443653	keystroke	n	n/a
221.9165	0.075	443833	keystroke	t	n/a
222.2315	0.0755	444463	keystroke	Key.enter	n/a
222.312	9.6415	444624	prompt	n/a	bunch weird mysimon careers\n
223.012	0.075	446024	keystroke	b	n/a
223.177	0.075	446354	keystroke	u	n/a
223.387	0.09	446774	keystroke	n	n/a
223.537	0.09	447074	keystroke	c	n/a
223.687	0.0895	447374	keystroke	h	n/a
223.7615	0.12	447523	keystroke	Key.space	n/a
223.9715	0.105	447943	keystroke	w	n/a
224.5715	0.105	449143	keystroke	e	n/a
224.9315	0.0905	449863	keystroke	i	n/a
225.217	0.105	450434	keystroke	r	n/a
225.457	0.09	450914	keystroke	d	n/a
225.682	0.12	451364	keystroke	Key.space	n/a
226.117	0.09	452234	keystroke	m	n/a
226.417	0.09	452834	keystroke	y	n/a
227.062	0.075	454124	keystroke	s	n/a
227.182	0.121	454364	keystroke	i	n/a
227.347	0.12	454694	keystroke	m	n/a
227.782	0.165	455564	keystroke	o	n/a
228.3375	0.119	456675	keystroke	n	n/a
228.9065	0.1205	457813	keystroke	Key.space	n/a
229.507	0.075	459014	keystroke	c	n/a
229.672	0.165	459344	keystroke	a	n/a
229.792	0.105	459584	keystroke	r	n/a
230.032	0.075	460064	keystroke	e	n/a
230.197	0.12	460394	keystroke	e	n/a
230.332	0.09	460664	keystroke	r	n/a
230.5415	0.09	461083	keystroke	s	n/a
231.8615	0.0905	463723	keystroke	Key.enter	n/a
231.9575	7.451	463915	prompt	n/a	entrepreneur soon concerts edge\n
232.5515	0.09	465103	keystroke	e	n/a
232.8375	0.03	465675	keystroke	n	n/a
232.8525	0.0595	465705	keystroke	t	n/a
233.032	0.105	466064	keystroke	r	n/a
233.092	0.12	466184	keystroke	e	n/a
233.4825	0.09	466965	keystroke	p	n/a
233.5865	0.12	467173	keystroke	r	n/a
233.6465	0.12	467293	keystroke	e	n/a
234.1115	0.12	468223	keystroke	n	n/a
234.4265	0.09	468853	keystroke	e	n/a
234.7715	0.106	469543	keystroke	u	n/a
235.0865	0.09	470173	keystroke	r	n/a
235.5515	0.0755	471103	keystroke	Key.space	n/a
235.8815	0.0755	471763	keystroke	s	n/a
236.1215	0.075	472243	keystroke	o	n/a
236.3015	0.09	472603	keystroke	o	n/a
236.4965	0.105	472993	keystroke	n	n/a
236.5865	0.105	473173	keystroke	Key.space	n/a
236.8715	0.076	473743	keystroke	c	n/a
236.9615	0.12	473923	keystroke	o	n/a
237.0375	0.119	474075	keystroke	n	n/a
237.1865	0.09	474373	keystroke	c	n/a
237.6365	0.15	475273	keystroke	e	n/a
237.7415	0.105	475483	keystroke	r	n/a
237.9815	0.075	475963	keystroke	t	n/a
238.2065	0.105	476413	keystroke	s	n/a
238.3565	0.135	476713	keystroke	Key.space	n/a
238.4925	0.089	476985	keystroke	e	n/a
238.7015	0.075	477403	keystroke	d	n/a
238.8665	0.0755	477733	keystroke	g	n/a
239.002	0.09	478004	keystroke	e	n/a
239.317	0.0895	478634	keystroke	Key.enter	n/a
239.4125	6.461	478825	prompt	n/a	mart green tramadol moral\n
240.007	0.075	480014	keystroke	m	n/a
240.112	0.195	480224	keystroke	a	n/a
240.292	0.075	480584	keystroke	r	n/a
240.502	0.09	481004	keystroke	t	n/a
240.712	0.09	481424	keystroke	Key.space	n/a
241.237	0.06	482474	keystroke	g	n/a
241.4315	0.091	482863	keystroke	r	n/a
241.5065	0.075	483013	keystroke	e	n/a
241.6865	0.09	483373	keystroke	e	n/a
241.8815	0.09	483763	keystroke	n	n/a
242.0765	0.091	484153	keystroke	Key.space	n/a
242.3625	0.074	484725	keystroke	g	n/a
242.7965	0.075	485593	keystroke	Key.backspace	n/a
242.9465	0.09	485893	keystroke	t	n/a
243.1115	0.105	486223	keystroke	r	n/a
243.1865	0.105	486373	keystroke	a	n/a
243.3815	0.09	486763	keystroke	m	n/a
243.5015	0.105	487003	keystroke	a	n/a
243.7865	0.075	487573	keystroke	d	n/a
244.042	0.12	488084	keystroke	o	n/a
244.312	0.105	488624	keystroke	l	n/a
244.477	0.09	488954	keystroke	Key.space	n/a
244.762	0.105	489524	keystroke	m	n/a
244.927	0.105	489854	keystroke	o	n/a
245.062	0.075	490124	keystroke	r	n/a
245.197	0.135	490394	keystroke	a	n/a
245.347	0.12	490694	keystroke	l	n/a
245.7815	0.09	491563	keystroke	Key.enter	n/a
245.879	12.9995	491758	prompt	n/a	routes facilitate dramatic conversations\n
246.5315	0.09	493063	keystroke	r	n/a
246.6365	0.121	493273	keystroke	o	n/a
246.7265	0.1055	493453	keystroke	u	n/a
246.952	0.0745	493904	keystroke	t	n/a
247.1165	0.12	494233	keystroke	e	n/a
247.2965	0.135	494593	keystroke	s	n/a
247.4615	0.09	494923	keystroke	Key.space	n/a
247.6865	0.0905	495373	keystroke	f	n/a
247.792	0.105	495584	keystroke	a	n/a
248.077	0.075	496154	keystroke	c	n/a
248.497	0.104	496994	keystroke	m	n/a
248.916	0.076	497832	keystroke	Key.backspace	n/a
249.127	0.09	498254	keystroke	i	n/a
249.367	0.2095	498734	keystroke	l	n/a
249.502	0.1045	499004	keystroke	i	n/a
249.7115	0.09	499423	keystroke	t	n/a
249.8765	0.165	499753	keystroke	a	n/a
249.9815	0.105	499963	keystroke	t	n/a
250.4915	0.091	500983	keystroke	e	n/a
250.8365	0.12	501673	keystroke	Key.space	n/a
251.0765	0.075	502153	keystroke	f	n/a
251.2715	0.0905	502543	keystroke	r	n/a
251.392	0.12	502784	keystroke	a	n/a
251.467	0.105	502934	keystroke	m	n/a
252.3665	0.045	504733	keystroke	Key.backspace	n/a
252.5315	0.045	505063	keystroke	Key.backspace	n/a
252.6815	0.06	505363	keystroke	Key.backspace	n/a
252.8315	0.06	505663	keystroke	Key.backspace	n/a
253.0565	0.105	506113	keystroke	d	n/a
253.2065	0.12	506413	keystroke	r	n/a
253.3115	0.195	506623	keystroke	a	n/a
253.6865	0.135	507373	keystroke	m	n/a
253.8665	0.2255	507733	keystroke	a	n/a
254.062	0.09	508124	keystroke	t	n/a
254.557	0.105	509114	keystroke	i	n/a
254.737	0.105	509474	keystroke	c	n/a
254.887	0.119	509774	keystroke	Key.space	n/a
255.141	0.076	510282	keystroke	c	n/a
255.202	0.12	510404	keystroke	o	n/a
255.307	0.089	510614	keystroke	n	n/a
255.397	0.074	510794	keystroke	v	n/a
255.592	0.1495	511184	keystroke	e	n/a
255.7275	0.09	511455	keystroke	r	n/a
256.4165	0.09	512833	keystroke	s	n/a
256.5965	0.166	513193	keystroke	a	n/a
256.7315	0.105	513463	keystroke	t	n/a
256.8665	0.195	513733	keystroke	i	n/a
256.9575	0.12	513915	keystroke	o	n/a
257.0325	0.119	514065	keystroke	n	n/a
257.2715	0.105	514543	keystroke	s	n/a
258.7715	0.105	517543	keystroke	Key.enter	n/a
258.8825	6.942	517765	prompt	n/a	dozens county power dist\n
259.6265	0.075	519253	keystroke	d	n/a
259.7475	0.105	519495	keystroke	o	n/a
259.8965	0.1355	519793	keystroke	z	n/a
260.092	0.09	520184	keystroke	e	n/a
260.242	0.105	520484	keystroke	n	n/a
260.362	0.12	520724	keystroke	s	n/a
260.647	0.09	521294	keystroke	Key.space	n/a
260.947	0.075	521894	keystroke	c	n/a
261.112	0.135	522224	keystroke	o	n/a
261.217	0.09	522434	keystroke	u	n/a
261.442	0.075	522884	keystroke	n	n/a
261.562	0.09	523124	keystroke	t	n/a
261.817	0.075	523634	keystroke	r	n/a
262.537	0.075	525074	keystroke	Key.backspace	n/a
262.777	0.075	525554	keystroke	y	n/a
262.972	0.105	525944	keystroke	Key.space	n/a
263.3615	0.121	526723	keystroke	p	n/a
263.4515	0.165	526903	keystroke	o	n/a
263.5715	0.135	527143	keystroke	w	n/a
263.6465	0.1645	527293	keystroke	e	n/a
263.752	0.15	527504	keystroke	r	n/a
263.872	0.104	527744	keystroke	Key.space	n/a
264.1265	0.0755	528253	keystroke	d	n/a
264.2465	0.105	528493	keystroke	i	n/a
264.3665	0.12	528733	keystroke	s	n/a
265.1465	0.09	530293	keystroke	t	n/a
265.7315	0.09	531463	keystroke	Key.enter	n/a
265.8295	5.379	531659	prompt	n/a	finest lessons exchange pays\n
266.407	0.0895	532814	keystroke	f	n/a
266.5265	0.105	533053	keystroke	i	n/a
266.6325	0.089	533265	keystroke	n	n/a
266.7515	0.106	533503	keystroke	e	n/a
266.8575	0.149	533715	keystroke	s	n/a
267.0375	0.105	534075	keystroke	t	n/a
267.1565	0.105	534313	keystroke	Key.space	n/a
267.3665	0.12	534733	keystroke	l	n/a
267.4565	0.105	534913	keystroke	e	n/a
267.5465	0.105	535093	keystroke	s	n/a
267.7565	0.105	535513	keystroke	s	n/a
267.9515	0.1355	535903	keystroke	o	n/a
268.057	0.135	536114	keystroke	n	n/a
268.207	0.105	536414	keystroke	s	n/a
268.282	0.15	536564	keystroke	Key.space	n/a
268.477	0.075	536954	keystroke	e	n/a
268.972	0.12	537944	keystroke	x	n/a
269.288	0.074	538576	keystroke	c	n/a
269.542	0.075	539084	keystroke	h	n/a
269.647	0.12	539294	keystroke	a	n/a
269.782	0.09	539564	keystroke	n	n/a
269.902	0.06	539804	keystroke	g	n/a
270.067	0.09	540134	keystroke	e	n/a
270.172	0.12	540344	keystroke	Key.space	n/a
270.367	0.105	540734	keystroke	p	n/a
270.473	0.119	540946	keystroke	a	n/a
270.667	0.075	541334	keystroke	y	n/a
270.802	0.105	541604	keystroke	s	n/a
271.132	0.075	542264	keystroke	Key.enter	n/a
271.214	5.9975	542428	prompt	n/a	nutritional producer cast title\n
271.9115	0.091	543823	keystroke	n	n/a
272.167	0.0745	544334	keystroke	u	n/a
272.3015	0.075	544603	keystroke	t	n/a
272.4675	0.074	544935	keystroke	r	n/a
272.5715	0.075	545143	keystroke	i	n/a
272.707	0.105	545414	keystroke	t	n/a
272.797	0.18	545594	keystroke	i	n/a
272.917	0.165	545834	keystroke	o	n/a
273.052	0.105	546104	keystroke	n	n/a
273.142	0.15	546284	keystroke	a	n/a
273.367	0.105	546734	keystroke	l	n/a
273.487	0.09	546974	keystroke	Key.space	n/a
273.742	0.105	547484	keystroke	p	n/a
273.877	0.09	547754	keystroke	r	n/a
273.982	0.12	547964	keystroke	o	n/a
274.147	0.075	548294	keystroke	d	n/a
274.327	0.075	548654	keystroke	u	n/a
274.447	0.075	548894	keystroke	c	n/a
274.732	0.12	549464	keystroke	e	n/a
274.942	0.12	549884	keystroke	r	n/a
275.077	0.09	550154	keystroke	Key.space	n/a
275.287	0.075	550574	keystroke	c	n/a
275.4525	0.164	550905	keystroke	a	n/a
275.5575	0.149	551115	keystroke	s	n/a
275.767	0.105	551534	keystroke	t	n/a
276.052	0.09	552104	keystroke	Key.space	n/a
276.292	0.09	552584	keystroke	t	n/a
276.4715	0.075	552943	keystroke	i	n/a
276.5915	0.105	553183	keystroke	t	n/a
276.7565	0.1055	553513	keystroke	l	n/a
276.877	0.105	553754	keystroke	e	n/a
277.132	0.075	554264	keystroke	Key.enter	n/a
277.2115	12.2525	554423	prompt	n/a	maryland competing arthritis bahrain\n
278.1065	0.0745	556213	keystroke	m	n/a
278.196	0.151	556392	keystroke	a	n/a
278.286	0.09	556572	keystroke	r	n/a
278.452	0.075	556904	keystroke	y	n/a
278.706	0.106	557412	keystroke	l	n/a
278.781	0.136	557562	keystroke	a	n/a
278.931	0.076	557862	keystroke	n	n/a
279.082	0.105	558164	keystroke	d	n/a
279.202	0.104	558404	keystroke	Key.space	n/a
279.442	0.075	558884	keystroke	c	n/a
279.562	0.27	559124	keystroke	o	n/a
279.682	0.104	559364	keystroke	m	n/a
280.731	0.12	561462	keystroke	m	n/a
280.867	0.105	561734	keystroke	p	n/a
280.986	0.151	561972	keystroke	e	n/a
281.107	0.135	562214	keystroke	t	n/a
282.201	0.046	564402	keystroke	Key.backspace	n/a
282.292	0.06	564584	keystroke	Key.backspace	n/a
282.457	0.045	564914	keystroke	Key.backspace	n/a
282.607	0.045	565214	keystroke	Key.backspace	n/a
283.012	0.105	566024	keystroke	p	n/a
283.162	0.15	566324	keystroke	e	n/a
283.282	0.12	566564	keystroke	t	n/a
283.417	0.135	566834	keystroke	i	n/a
283.537	0.1045	567074	keystroke	n	n/a
284.0915	0.135	568183	keystroke	g	n/a
284.5865	0.105	569173	keystroke	Key.space	n/a
284.8115	0.2105	569623	keystroke	a	n/a
284.977	0.09	569954	keystroke	t	n/a
285.397	0.09	570794	keystroke	Key.backspace	n/a
285.532	0.075	571064	keystroke	r	n/a
285.727	0.09	571454	keystroke	t	n/a
285.802	0.09	571604	keystroke	h	n/a
285.967	0.105	571934	keystroke	r	n/a
286.102	0.09	572204	keystroke	i	n/a
286.282	0.0895	572564	keystroke	t	n/a
286.4315	0.105	572863	keystroke	i	n/a
286.6415	0.09	573283	keystroke	s	n/a
286.9865	0.09	573973	keystroke	Key.space	n/a
287.6015	0.12	575203	keystroke	b	n/a
287.7365	0.12	575473	keystroke	a	n/a
288.0065	0.09	576013	keystroke	h	n/a
288.4265	0.075	576853	keystroke	r	n/a
288.5315	0.135	577063	keystroke	a	n/a
288.7115	0.105	577423	keystroke	i	n/a
288.8915	0.105	577783	keystroke	n	n/a
289.3875	0.074	578775	keystroke	Key.enter	n/a
289.4675	12.5055	578935	prompt	n/a	collectors glasgow bibliography medicaid\n
290.1515	0.0905	580303	keystroke	c	n/a
290.257	0.075	580514	keystroke	o	n/a
290.437	0.09	580874	keystroke	l	n/a
290.602	0.09	581204	keystroke	l	n/a
290.647	0.075	581294	keystroke	e	n/a
290.872	0.075	581744	keystroke	c	n/a
291.067	0.075	582134	keystroke	t	n/a
291.172	0.105	582344	keystroke	o	n/a
291.517	0.105	583034	keystroke	s	n/a
292.267	0.06	584534	keystroke	Key.backspace	n/a
292.387	0.09	584774	keystroke	r	n/a
292.867	0.12	585734	keystroke	s	n/a
293.002	0.105	586004	keystroke	Key.space	n/a
293.2415	0.075	586483	keystroke	g	n/a
293.4365	0.105	586873	keystroke	l	n/a
293.4975	0.1645	586995	keystroke	a	n/a
293.6015	0.12	587203	keystroke	s	n/a
294.037	0.0895	588074	keystroke	g	n/a
294.2165	0.105	588433	keystroke	o	n/a
294.652	0.09	589304	keystroke	w	n/a
294.9965	0.0905	589993	keystroke	Key.space	n/a
295.3865	0.09	590773	keystroke	b	n/a
295.597	0.09	591194	keystroke	i	n/a
295.8215	0.09	591643	keystroke	b	n/a
296.7365	0.21	593473	keystroke	l	n/a
296.9015	0.12	593803	keystroke	i	n/a
297.1425	0.1345	594285	keystroke	o	n/a
297.577	0.075	595154	keystroke	g	n/a
297.772	0.105	595544	keystroke	r	n/a
297.982	0.09	595964	keystroke	p	n/a
298.7915	0.015	597583	keystroke	Key.backspace	n/a
298.8215	0.06	597643	keystroke	a	n/a
298.9265	0.135	597853	keystroke	p	n/a
299.137	0.09	598274	keystroke	h	n/a
299.407	0.06	598814	keystroke	y	n/a
299.946	0.105	599892	keystroke	Key.space	n/a
300.412	0.119	600824	keystroke	m	n/a
300.502	0.074	601004	keystroke	e	n/a
300.681	0.075	601362	keystroke	d	n/a
300.816	0.076	601632	keystroke	i	n/a
300.967	0.059	601934	keystroke	c	n/a
301.086	0.15	602172	keystroke	a	n/a
301.281	0.09	602562	keystroke	i	n/a
301.431	0.091	602862	keystroke	d	n/a
301.896	0.075	603792	keystroke	Key.enter	n/a
301.977	9.177	603954	prompt	n/a	architect gzip photoshop start\n
302.511	0.165	605022	keystroke	a	n/a
302.646	0.075	605292	keystroke	r	n/a
302.871	0.076	605742	keystroke	c	n/a
302.991	0.105	605982	keystroke	h	n/a
303.081	0.105	606162	keystroke	i	n/a
303.336	0.135	606672	keystroke	t	n/a
303.456	0.09	606912	keystroke	e	n/a
303.697	0.0595	607394	keystroke	c	n/a
303.9065	0.0895	607813	keystroke	t	n/a
304.0715	0.1055	608143	keystroke	Key.space	n/a
305.077	0.105	610154	keystroke	g	n/a
305.407	0.135	610814	keystroke	z	n/a
305.9765	0.03	611953	keystroke	i	n/a
306.3815	0.1195	612763	keystroke	p	n/a
306.907	0.135	613814	keystroke	Key.space	n/a
307.3415	0.12	614683	keystroke	p	n/a
307.4915	0.15	614983	keystroke	h	n/a
307.6565	0.1055	615313	keystroke	o	n/a
307.822	0.105	615644	keystroke	t	n/a
307.987	0.12	615974	keystroke	o	n/a
308.287	0.105	616574	keystroke	s	n/a
308.377	0.105	616754	keystroke	h	n/a
308.452	0.24	616904	keystroke	o	n/a
308.647	0.105	617294	keystroke	p	n/a
308.857	0.09	617714	keystroke	Key.space	n/a
309.052	0.105	618104	keystroke	s	n/a
309.202	0.074	618404	keystroke	t	n/a
309.322	0.15	618644	keystroke	a	n/a
309.427	0.075	618854	keystroke	r	n/a
309.622	0.104	619244	keystroke	t	n/a
311.077	0.075	622154	keystroke	Key.enter	n/a
311.157	7.331	622314	prompt	n/a	processing suffer stands circuit\n
311.752	0.104	623504	keystroke	p	n/a
311.871	0.075	623742	keystroke	r	n/a
311.962	0.119	623924	keystroke	o	n/a
312.141	0.075	624282	keystroke	c	n/a
312.351	0.106	624702	keystroke	e	n/a
312.411	0.121	624822	keystroke	s	n/a
312.621	0.105	625242	keystroke	s	n/a
312.757	0.149	625514	keystroke	i	n/a
312.876	0.135	625752	keystroke	n	n/a
313.056	0.135	626112	keystroke	g	n/a
313.251	0.105	626502	keystroke	Key.space	n/a
313.641	0.09	627282	keystroke	s	n/a
313.777	0.074	627554	keystroke	u	n/a
313.896	0.06	627792	keystroke	f	n/a
314.046	0.09	628092	keystroke	f	n/a
314.286	0.151	628572	keystroke	e	n/a
314.391	0.12	628782	keystroke	r	n/a
314.526	0.09	629052	keystroke	Key.space	n/a
314.691	0.165	629382	keystroke	s	n/a
314.857	0.104	629714	keystroke	t	n/a
314.902	0.164	629804	keystroke	a	n/a
315.082	0.09	630164	keystroke	n	n/a
315.246	0.121	630492	keystroke	d	n/a
315.382	0.149	630764	keystroke	s	n/a
315.486	0.105	630972	keystroke	Key.space	n/a
315.9965	0.09	631993	keystroke	c	n/a
316.1765	0.105	632353	keystroke	i	n/a
316.717	0.06	633434	keystroke	r	n/a
316.941	0.0755	633882	keystroke	c	n/a
317.1815	0.09	634363	keystroke	u	n/a
317.3915	0.105	634783	keystroke	i	n/a
317.6015	0.105	635203	keystroke	t	n/a
318.396	0.09	636792	keystroke	Key.enter	n/a
318.492	8.5615	636984	prompt	n/a	neither jury each supported\n
319.2065	0.105	638413	keystroke	n	n/a
319.2965	0.09	638593	keystroke	e	n/a
319.4315	0.09	638863	keystroke	i	n/a
319.5365	0.09	639073	keystroke	g	n/a
319.6715	0.075	639343	keystroke	h	n/a
319.7915	0.135	639583	keystroke	t	n/a
319.9715	0.15	639943	keystroke	e	n/a
320.181	0.045	640362	keystroke	r	n/a
320.5115	0.06	641023	keystroke	Key.backspace	n/a
320.6615	0.075	641323	keystroke	Key.backspace	n/a
320.8265	0.06	641653	keystroke	Key.backspace	n/a
320.9765	0.075	641953	keystroke	Key.backspace	n/a
321.1565	0.075	642313	keystroke	Key.backspace	n/a
322.117	0.09	644234	keystroke	t	n/a
322.222	0.075	644444	keystroke	h	n/a
322.327	0.105	644654	keystroke	e	n/a
322.387	0.12	644774	keystroke	r	n/a
322.986	0.12	645972	keystroke	Key.space	n/a
323.3015	0.09	646603	keystroke	j	n/a
323.511	0.075	647022	keystroke	u	n/a
323.602	0.09	647204	keystroke	r	n/a
323.7965	0.0745	647593	keystroke	y	n/a
323.916	0.105	647832	keystroke	Key.space	n/a
324.2465	0.06	648493	keystroke	e	n/a
324.4115	0.12	648823	keystroke	a	n/a
324.6065	0.075	649213	keystroke	c	n/a
324.7565	0.09	649513	keystroke	h	n/a
324.8165	0.12	649633	keystroke	Key.space	n/a
324.9965	0.09	649993	keystroke	s	n/a
325.1165	0.09	650233	keystroke	u	n/a
325.4165	0.015	650833	keystroke	p	n/a
325.5065	0.0905	651013	keystroke	p	n/a
325.687	0.119	651374	keystroke	o	n/a
325.822	0.0745	651644	keystroke	r	n/a
326.0165	0.075	652033	keystroke	t	n/a
326.1365	0.09	652273	keystroke	e	n/a
326.3615	0.105	652723	keystroke	d	n/a
326.9615	0.09	653923	keystroke	Key.enter	n/a
327.0565	11.6965	654113	prompt	n/a	antarctica communicate spokesman tone\n
327.771	0.15	655542	keystroke	a	n/a
327.861	0.09	655722	keystroke	r	n/a
328.356	0.075	656712	keystroke	Key.backspace	n/a
328.761	0.105	657522	keystroke	n	n/a
328.9565	0.075	657913	keystroke	t	n/a
329.1215	0.165	658243	keystroke	a	n/a
329.2715	0.09	658543	keystroke	r	n/a
330.382	0.074	660764	keystroke	c	n/a
330.607	0.105	661214	keystroke	t	n/a
330.8765	0.09	661753	keystroke	i	n/a
331.0415	0.045	662083	keystroke	c	n/a
331.1465	0.1505	662293	keystroke	a	n/a
331.9865	0.12	663973	keystroke	Key.space	n/a
332.1665	0.09	664333	keystroke	c	n/a
332.2715	0.15	664543	keystroke	o	n/a
332.4065	0.0905	664813	keystroke	m	n/a
332.602	0.0895	665204	keystroke	m	n/a
332.8415	0.075	665683	keystroke	u	n/a
333.0365	0.12	666073	keystroke	n	n/a
333.1265	0.105	666253	keystroke	i	n/a
333.2615	0.09	666523	keystroke	c	n/a
333.3665	0.195	666733	keystroke	a	n/a
333.5165	0.12	667033	keystroke	t	n/a
333.6215	0.1205	667243	keystroke	e	n/a
334.6265	0.135	669253	keystroke	Key.space	n/a
334.7465	0.1055	669493	keystroke	s	n/a
334.927	0.12	669854	keystroke	p	n/a
335.167	0.12	670334	keystroke	o	n/a
335.6315	0.12	671263	keystroke	k	n/a
335.7665	0.105	671533	keystroke	e	n/a
336.4865	0.105	672973	keystroke	s	n/a
336.891	0.09	673782	keystroke	m	n/a
336.996	0.12	673992	keystroke	a	n/a
337.117	0.089	674234	keystroke	n	n/a
337.461	0.166	674922	keystroke	Key.space	n/a
337.581	0.105	675162	keystroke	t	n/a
337.746	0.12	675492	keystroke	o	n/a
337.851	0.105	675702	keystroke	n	n/a
338.4665	0.075	676933	keystroke	e	n/a
338.6615	0.09	677323	keystroke	Key.enter	n/a
338.7585	7.1645	677517	prompt	n/a	craps latest lynn sauce\n
339.741	0.09	679482	keystroke	r	n/a
340.1315	0.1045	680263	keystroke	Key.backspace	n/a
340.386	0.0905	680772	keystroke	c	n/a
340.5815	0.105	681163	keystroke	r	n/a
340.6715	0.135	681343	keystroke	a	n/a
340.791	0.12	681582	keystroke	p	n/a
341.0015	0.105	682003	keystroke	s	n/a
341.4515	0.09	682903	keystroke	Key.space	n/a
341.751	0.12	683502	keystroke	l	n/a
341.841	0.1655	683682	keystroke	a	n/a
341.976	0.0905	683952	keystroke	t	n/a
342.0815	0.12	684163	keystroke	e	n/a
342.2765	0.15	684553	keystroke	s	n/a
342.4415	0.105	684883	keystroke	t	n/a
342.5765	0.105	685153	keystroke	Key.space	n/a
342.7865	0.135	685573	keystroke	l	n/a
342.9815	0.105	685963	keystroke	y	n/a
343.2215	0.09	686443	keystroke	n	n/a
343.4315	0.075	686863	keystroke	n	n/a
343.5215	0.1495	687043	keystroke	Key.space	n/a
343.656	0.105	687312	keystroke	s	n/a
343.911	0.135	687822	keystroke	a	n/a
344.631	0.105	689262	keystroke	u	n/a
344.796	0.076	689592	keystroke	c	n/a
345.352	0.074	690704	keystroke	e	n/a
345.8315	0.09	691663	keystroke	Key.enter	n/a
345.928	6.19	691856	prompt	n/a	astrology mentor mechanical anime\n
346.6865	0.15	693373	keystroke	a	n/a
346.8815	0.105	693763	keystroke	s	n/a
347.0015	0.075	694003	keystroke	t	n/a
347.1515	0.12	694303	keystroke	r	n/a
347.2865	0.105	694573	keystroke	o	n/a
347.4965	0.1045	694993	keystroke	l	n/a
347.7065	0.105	695413	keystroke	o	n/a
347.8265	0.105	695653	keystroke	g	n/a
348.0065	0.09	696013	keystroke	y	n/a
348.1415	0.105	696283	keystroke	Key.space	n/a
348.4265	0.12	696853	keystroke	m	n/a
348.5315	0.105	697063	keystroke	e	n/a
348.6815	0.09	697363	keystroke	n	n/a
348.7565	0.09	697513	keystroke	t	n/a
348.9215	0.1055	697843	keystroke	o	n/a
349.087	0.119	698174	keystroke	r	n/a
349.176	0.136	698352	keystroke	Key.space	n/a
349.476	0.135	698952	keystroke	m	n/a
349.626	0.061	699252	keystroke	e	n/a
349.8365	0.0745	699673	keystroke	c	n/a
349.956	0.075	699912	keystroke	h	n/a
350.091	0.135	700182	keystroke	a	n/a
350.242	0.105	700484	keystroke	n	n/a
350.3765	0.09	700753	keystroke	i	n/a
350.5115	0.09	701023	keystroke	c	n/a
350.6315	0.15	701263	keystroke	a	n/a
350.7965	0.12	701593	keystroke	l	n/a
350.9615	0.105	701923	keystroke	Key.space	n/a
351.0965	0.135	702193	keystroke	a	n/a
351.2465	0.09	702493	keystroke	n	n/a
351.4115	0.12	702823	keystroke	i	n/a
351.5915	0.105	703183	keystroke	m	n/a
351.786	0.09	703572	keystroke	e	n/a
352.026	0.09	704052	keystroke	Key.enter	n/a
352.121	5.637	704242	prompt	n/a	victor bucks along wave\n
352.806	0.075	705612	keystroke	v	n/a
352.926	0.075	705852	keystroke	i	n/a
353.061	0.045	706122	keystroke	c	n/a
353.541	0.09	707082	keystroke	c	n/a
354.1115	0.105	708223	keystroke	Key.backspace	n/a
354.3815	0.09	708763	keystroke	t	n/a
354.5165	0.105	709033	keystroke	o	n/a
354.6515	0.105	709303	keystroke	r	n/a
354.8615	0.0895	709723	keystroke	Key.space	n/a
355.221	0.075	710442	keystroke	b	n/a
355.356	0.09	710712	keystroke	u	n/a
355.521	0.0755	711042	keystroke	c	n/a
355.6565	0.0905	711313	keystroke	k	n/a
355.791	0.09	711582	keystroke	s	n/a
355.896	0.105	711792	keystroke	Key.space	n/a
356.016	0.135	712032	keystroke	a	n/a
356.166	0.105	712332	keystroke	l	n/a
356.391	0.15	712782	keystroke	o	n/a
356.526	0.12	713052	keystroke	n	n/a
356.706	0.105	713412	keystroke	g	n/a
356.781	0.165	713562	keystroke	Key.space	n/a
356.931	0.105	713862	keystroke	w	n/a
357.067	0.149	714134	keystroke	a	n/a
357.231	0.09	714462	keystroke	v	n/a
357.366	0.09	714732	keystroke	e	n/a
357.681	0.0755	715362	keystroke	Key.enter	n/a
357.762	6.731	715524	prompt	n/a	banned intimate cologne deficit\n
358.3415	0.075	716683	keystroke	b	n/a
358.4315	0.12	716863	keystroke	a	n/a
358.5365	0.0895	717073	keystroke	n	n/a
358.746	0.09	717492	keystroke	n	n/a
358.881	0.075	717762	keystroke	e	n/a
359.091	0.09	718182	keystroke	d	n/a
359.196	0.12	718392	keystroke	Key.space	n/a
359.376	0.165	718752	keystroke	i	n/a
359.526	0.135	719052	keystroke	n	n/a
359.8115	0.09	719623	keystroke	t	n/a
359.961	0.135	719922	keystroke	i	n/a
360.067	0.134	720134	keystroke	m	n/a
360.186	0.136	720372	keystroke	a	n/a
360.306	0.105	720612	keystroke	t	n/a
360.381	0.12	720762	keystroke	e	n/a
360.561	0.105	721122	keystroke	Key.space	n/a
360.817	0.09	721634	keystroke	c	n/a
360.921	0.12	721842	keystroke	o	n/a
361.146	0.121	722292	keystroke	l	n/a
361.416	0.105	722832	keystroke	o	n/a
361.611	0.075	723222	keystroke	g	n/a
361.9115	0.105	723823	keystroke	n	n/a
362.0915	0.075	724183	keystroke	e	n/a
362.3765	0.075	724753	keystroke	Key.space	n/a
362.5715	0.0745	725143	keystroke	d	n/a
362.8115	0.09	725623	keystroke	e	n/a
362.9765	0.105	725953	keystroke	f	n/a
363.1565	0.105	726313	keystroke	i	n/a
363.4415	0.06	726883	keystroke	c	n/a
363.5315	0.09	727063	keystroke	i	n/a
363.7415	0.09	727483	keystroke	t	n/a
364.4165	0.075	728833	keystroke	Key.enter	n/a
364.4965	6.656	728993	prompt	n/a	attempt completing come emacs\n
365.016	0.15	730032	keystroke	a	n/a
365.167	0.0745	730334	keystroke	t	n/a
365.3315	0.0895	730663	keystroke	t	n/a
365.451	0.09	730902	keystroke	e	n/a
365.601	0.195	731202	keystroke	m	n/a
365.767	0.104	731534	keystroke	p	n/a
365.946	0.12	731892	keystroke	t	n/a
366.067	0.104	732134	keystroke	Key.space	n/a
366.351	0.075	732702	keystroke	c	n/a
366.471	0.195	732942	keystroke	o	n/a
366.621	0.1355	733242	keystroke	m	n/a
366.7565	0.09	733513	keystroke	p	n/a
366.8315	0.12	733663	keystroke	l	n/a
366.9215	0.135	733843	keystroke	e	n/a
367.0415	0.135	734083	keystroke	t	n/a
367.1615	0.03	734323	keystroke	e	n/a
368.241	0.09	736482	keystroke	Key.backspace	n/a
368.451	0.09	736902	keystroke	i	n/a
368.571	0.12	737142	keystroke	n	n/a
368.706	0.12	737412	keystroke	g	n/a
368.811	0.09	737622	keystroke	Key.space	n/a
368.991	0.09	737982	keystroke	c	n/a
369.066	0.135	738132	keystroke	o	n/a
369.156	0.12	738312	keystroke	m	n/a
369.322	0.104	738644	keystroke	e	n/a
369.396	0.1055	738792	keystroke	Key.space	n/a
369.7565	0.075	739513	keystroke	e	n/a
369.9365	0.105	739873	keystroke	m	n/a
370.0715	0.135	740143	keystroke	a	n/a
370.3565	0.06	740713	keystroke	c	n/a
370.5965	0.075	741193	keystroke	s	n/a
371.0765	0.075	742153	keystroke	Key.enter	n/a
371.157	6.821	742314	prompt	n/a	minister earned maiden tomatoes\n
371.842	0.149	743684	keystroke	m	n/a
371.961	0.12	743922	keystroke	i	n/a
372.097	0.104	744194	keystroke	n	n/a
372.171	0.135	744342	keystroke	i	n/a
372.321	0.135	744642	keystroke	s	n/a
372.426	0.075	744852	keystroke	t	n/a
372.771	0.12	745542	keystroke	e	n/a
372.831	0.12	745662	keystroke	r	n/a
372.966	0.09	745932	keystroke	Key.space	n/a
373.6115	0.105	747223	keystroke	e	n/a
373.761	0.165	747522	keystroke	a	n/a
373.881	0.135	747762	keystroke	r	n/a
374.092	0.09	748184	keystroke	n	n/a
374.151	0.09	748302	keystroke	e	n/a
374.362	0.105	748724	keystroke	d	n/a
374.451	0.135	748902	keystroke	Key.space	n/a
374.647	0.074	749294	keystroke	m	n/a
374.737	0.134	749474	keystroke	a	n/a
374.901	0.075	749802	keystroke	i	n/a
375.006	0.06	750012	keystroke	d	n/a
375.186	0.075	750372	keystroke	e	n/a
375.291	0.1055	750582	keystroke	n	n/a
375.4115	0.09	750823	keystroke	Key.space	n/a
375.5765	0.09	751153	keystroke	t	n/a
375.741	0.1505	751482	keystroke	o	n/a
375.8765	0.105	751753	keystroke	m	n/a
376.0415	0.165	752083	keystroke	a	n/a
376.2215	0.1055	752443	keystroke	t	n/a
377.167	0.134	754334	keystroke	o	n/a
377.256	0.12	754512	keystroke	e	n/a
377.331	0.121	754662	keystroke	s	n/a
377.9015	0.075	755803	keystroke	Key.enter	n/a
377.9815	10.9465	755963	prompt	n/a	gordon impact we'll stop\n
382.718	0.028	765436	keystroke	g	n/a
382.806	0.105	765612	keystroke	o	n/a
382.881	0.105	765762	keystroke	r	n/a
383.031	0.1205	766062	keystroke	d	n/a
383.1525	0.149	766305	keystroke	o	n/a
383.2715	0.12	766543	keystroke	n	n/a
383.9915	0.09	767983	keystroke	Key.space	n/a
384.2165	0.12	768433	keystroke	i	n/a
384.3065	0.15	768613	keystroke	m	n/a
384.471	0.105	768942	keystroke	p	n/a
384.981	0.0755	769962	keystroke	Key.backspace	n/a
385.5515	0.1195	771103	keystroke	p	n/a
385.731	0.1055	771462	keystroke	a	n/a
385.8815	0.09	771763	keystroke	c	n/a
386.1365	0.075	772273	keystroke	t	n/a
386.332	0.09	772664	keystroke	Key.space	n/a
386.692	0.105	773384	keystroke	w	n/a
386.871	0.075	773742	keystroke	e	n/a
387.006	0.135	774012	keystroke	'	n/a
387.262	0.119	774524	keystroke	l	n/a
387.532	0.105	775064	keystroke	l	n/a
387.7865	0.135	775573	keystroke	Key.space	n/a
387.9065	0.165	775813	keystroke	s	n/a
388.0415	0.105	776083	keystroke	t	n/a
388.1615	0.165	776323	keystroke	o	n/a
388.2815	0.12	776563	keystroke	p	n/a
388.851	0.075	777702	keystroke	Key.enter	n/a
388.933	7.645	777866	prompt	n/a	won't cookbook volkswagen dressed\n
389.512	0.09	779024	keystroke	w	n/a
389.616	0.105	779232	keystroke	o	n/a
389.706	0.1055	779412	keystroke	n	n/a
389.916	0.105	779832	keystroke	'	n/a
390.0665	0.12	780133	keystroke	t	n/a
390.1715	0.09	780343	keystroke	Key.space	n/a
390.3815	0.075	780763	keystroke	c	n/a
390.4715	0.075	780943	keystroke	o	n/a
390.6365	0.105	781273	keystroke	o	n/a
390.8915	0.09	781783	keystroke	k	n/a
391.0565	0.09	782113	keystroke	b	n/a
391.2365	0.09	782473	keystroke	o	n/a
391.4315	0.105	782863	keystroke	o	n/a
391.6865	0.105	783373	keystroke	k	n/a
391.8065	0.075	783613	keystroke	Key.space	n/a
392.0015	0.075	784003	keystroke	v	n/a
392.1365	0.105	784273	keystroke	o	n/a
392.3915	0.105	784783	keystroke	l	n/a
392.646	0.075	785292	keystroke	k	n/a
392.886	0.091	785772	keystroke	s	n/a
393.396	0.12	786792	keystroke	w	n/a
393.622	0.134	787244	keystroke	a	n/a
393.816	0.091	787632	keystroke	g	n/a
393.9965	0.0745	787993	keystroke	e	n/a
394.176	0.09	788352	keystroke	n	n/a
394.776	0.09	789552	keystroke	Key.space	n/a
395.346	0.09	790692	keystroke	d	n/a
395.571	0.106	791142	keystroke	r	n/a
395.631	0.135	791262	keystroke	e	n/a
395.7365	0.1045	791473	keystroke	s	n/a
395.931	0.09	791862	keystroke	s	n/a
396.066	0.09	792132	keystroke	e	n/a
396.276	0.0755	792552	keystroke	d	n/a
396.4865	0.09	792973	keystroke	Key.enter	n/a
396.5815	9.5965	793163	prompt	n/a	destinations screenshots subsidiary staff\n
397.2515	0.075	794503	keystroke	d	n/a
397.4615	0.06	794923	keystroke	e	n/a
397.4765	0.1945	794953	keystroke	s	n/a
398.3165	0.09	796633	keystroke	t	n/a
398.4365	0.12	796873	keystroke	i	n/a
398.5715	0.105	797143	keystroke	n	n/a
398.6765	0.15	797353	keystroke	a	n/a
398.7965	0.1055	797593	keystroke	t	n/a
398.916	0.165	797832	keystroke	i	n/a
399.006	0.121	798012	keystroke	o	n/a
399.066	0.12	798132	keystroke	n	n/a
399.292	0.104	798584	keystroke	s	n/a
399.6365	0.09	799273	keystroke	Key.space	n/a
399.9815	0.09	799963	keystroke	s	n/a
400.2065	0.09	800413	keystroke	c	n/a
400.4615	0.15	800923	keystroke	r	n/a
400.6115	0.06	801223	keystroke	e	n/a
400.7915	0.06	801583	keystroke	e	n/a
401.0015	0.09	802003	keystroke	n	n/a
401.2115	0.09	802423	keystroke	s	n/a
401.3315	0.15	802663	keystroke	h	n/a
401.4515	0.12	802903	keystroke	i	n/a
401.9615	0.075	803923	keystroke	Key.backspace	n/a
402.1415	0.105	804283	keystroke	o	n/a
402.3215	0.075	804643	keystroke	t	n/a
402.5165	0.12	805033	keystroke	s	n/a
402.7565	0.09	805513	keystroke	Key.space	n/a
403.0115	0.09	806023	keystroke	s	n/a
403.2065	0.09	806413	keystroke	u	n/a
403.4315	0.075	806863	keystroke	b	n/a
403.7465	0.075	807493	keystroke	s	n/a
403.8515	0.075	807703	keystroke	i	n/a
404.091	0.06	808182	keystroke	d	n/a
404.271	0.075	808542	keystroke	i	n/a
404.391	0.136	808782	keystroke	a	n/a
404.632	0.089	809264	keystroke	r	n/a
404.856	0.0605	809712	keystroke	y	n/a
404.9765	0.09	809953	keystroke	Key.space	n/a
405.0365	0.2095	810073	keystroke	s	n/a
405.231	0.12	810462	keystroke	t	n/a
405.397	0.164	810794	keystroke	a	n/a
405.546	0.09	811092	keystroke	f	n/a
405.7415	0.075	811483	keystroke	f	n/a
406.0865	0.09	812173	keystroke	Key.enter	n/a
406.181	7.4815	812362	prompt	n/a	springfield parish winter screening\n
406.7615	0.12	813523	keystroke	s	n/a
406.9715	0.105	813943	keystroke	p	n/a
407.1365	0.09	814273	keystroke	r	n/a
407.2115	0.105	814423	keystroke	i	n/a
407.3315	0.105	814663	keystroke	n	n/a
407.4815	0.09	814963	keystroke	g	n/a
408.561	0.105	817122	keystroke	f	n/a
408.711	0.09	817422	keystroke	i	n/a
408.831	0.075	817662	keystroke	e	n/a
408.966	0.105	817932	keystroke	l	n/a
409.251	0.09	818502	keystroke	d	n/a
409.536	0.09	819072	keystroke	Key.space	n/a
409.821	0.075	819642	keystroke	p	n/a
409.911	0.15	819822	keystroke	a	n/a
410.001	0.105	820002	keystroke	r	n/a
410.151	0.075	820302	keystroke	i	n/a
410.301	0.105	820602	keystroke	s	n/a
410.451	0.075	820902	keystroke	h	n/a
410.661	0.105	821322	keystroke	Key.space	n/a
410.946	0.105	821892	keystroke	w	n/a
411.066	0.12	822132	keystroke	i	n/a
411.171	0.09	822342	keystroke	n	n/a
411.276	0.075	822552	keystroke	t	n/a
411.456	0.15	822912	keystroke	e	n/a
411.576	0.135	823152	keystroke	r	n/a
411.8155	0.106	823631	keystroke	Key.space	n/a
411.9815	0.105	823963	keystroke	s	n/a
412.2215	0.075	824443	keystroke	c	n/a
412.4165	0.12	824833	keystroke	r	n/a
412.4765	0.09	824953	keystroke	e	n/a
412.6715	0.09	825343	keystroke	e	n/a
412.8065	0.12	825613	keystroke	n	n/a
412.9715	0.1495	825943	keystroke	i	n/a
413.091	0.105	826182	keystroke	n	n/a
413.211	0.105	826422	keystroke	g	n/a
413.556	0.105	827112	keystroke	Key.enter	n/a
413.6655	8.8475	827331	prompt	n/a	refresh fraction oriented muscle\n
414.366	0.135	828732	keystroke	r	n/a
415.2665	0.09	830533	keystroke	e	n/a
415.5215	0.0895	831043	keystroke	f	n/a
415.761	0.121	831522	keystroke	r	n/a
415.836	0.105	831672	keystroke	e	n/a
416.226	0.105	832452	keystroke	s	n/a
416.437	0.074	832874	keystroke	h	n/a
416.8865	0.105	833773	keystroke	Key.space	n/a
417.1415	0.09	834283	keystroke	f	n/a
417.3365	0.09	834673	keystroke	r	n/a
417.4115	0.09	834823	keystroke	a	n/a
417.6215	0.075	835243	keystroke	c	n/a
417.816	0.075	835632	keystroke	t	n/a
417.937	0.209	835874	keystroke	i	n/a
418.027	0.134	836054	keystroke	o	n/a
418.131	0.12	836262	keystroke	n	n/a
418.236	0.12	836472	keystroke	Key.space	n/a
418.446	0.12	836892	keystroke	o	n/a
418.551	0.075	837102	keystroke	r	n/a
418.716	0.075	837432	keystroke	i	n/a
418.806	0.105	837612	keystroke	e	n/a
418.957	0.074	837914	keystroke	n	n/a
419.047	0.089	838094	keystroke	t	n/a
419.121	0.105	838242	keystroke	e	n/a
419.361	0.075	838722	keystroke	d	n/a
419.437	0.134	838874	keystroke	Key.space	n/a
419.661	0.06	839322	keystroke	m	n/a
419.8565	0.0595	839713	keystroke	u	n/a
419.961	0.075	839922	keystroke	s	n/a
420.156	0.075	840312	keystroke	c	n/a
420.2915	0.105	840583	keystroke	i	n/a
420.6365	0.12	841273	keystroke	l	n/a
421.1165	0.075	842233	keystroke	Key.backspace	n/a
421.296	0.075	842592	keystroke	Key.backspace	n/a
421.521	0.12	843042	keystroke	l	n/a
421.716	0.09	843432	keystroke	e	n/a
422.376	0.135	844752	keystroke	Key.enter	n/a
422.5195	6.383	845039	prompt	n/a	letter besides sides charged\n
423.1115	0.09	846223	keystroke	l	n/a
423.2015	0.12	846403	keystroke	e	n/a
423.3515	0.09	846703	keystroke	t	n/a
423.516	0.075	847032	keystroke	t	n/a
423.712	0.119	847424	keystroke	e	n/a
423.786	0.15	847572	keystroke	r	n/a
423.966	0.09	847932	keystroke	Key.space	n/a
424.446	0.06	848892	keystroke	b	n/a
424.791	0.12	849582	keystroke	e	n/a
424.881	0.135	849762	keystroke	s	n/a
425.046	0.076	850092	keystroke	i	n/a
425.196	0.075	850392	keystroke	d	n/a
425.4365	0.105	850873	keystroke	e	n/a
425.4965	0.12	850993	keystroke	s	n/a
425.991	0.105	851982	keystroke	Key.space	n/a
426.246	0.09	852492	keystroke	s	n/a
426.366	0.09	852732	keystroke	i	n/a
426.486	0.075	852972	keystroke	d	n/a
426.681	0.12	853362	keystroke	e	n/a
426.756	0.105	853512	keystroke	s	n/a
427.296	0.015	854592	keystroke	Key.space	n/a
427.521	0.075	855042	keystroke	c	n/a
427.716	0.06	855432	keystroke	h	n/a
427.791	0.151	855582	keystroke	a	n/a
427.896	0.105	855792	keystroke	r	n/a
428.122	0.059	856244	keystroke	g	n/a
428.271	0.075	856542	keystroke	e	n/a
428.481	0.075	856962	keystroke	d	n/a
428.826	0.075	857652	keystroke	Key.enter	n/a
428.907	9.2065	857814	prompt	n/a	franchise respiratory insert manitoba\n
429.576	0.075	859152	keystroke	f	n/a
429.756	0.09	859512	keystroke	r	n/a
429.876	0.045	859752	keystroke	a	n/a
429.906	0.105	859812	keystroke	n	n/a
430.236	0.06	860472	keystroke	c	n/a
430.386	0.1055	860772	keystroke	h	n/a
430.521	0.09	861042	keystroke	i	n/a
430.626	0.135	861252	keystroke	s	n/a
430.716	0.105	861432	keystroke	e	n/a
431.136	0.09	862272	keystroke	Key.space	n/a
431.421	0.12	862842	keystroke	r	n/a
431.481	0.165	862962	keystroke	e	n/a
431.616	0.1205	863232	keystroke	s	n/a
431.8115	0.12	863623	keystroke	p	n/a
432.0215	0.075	864043	keystroke	i	n/a
432.1265	0.09	864253	keystroke	r	n/a
432.276	0.1655	864552	keystroke	a	n/a
432.426	0.0905	864852	keystroke	t	n/a
432.6065	0.09	865213	keystroke	o	n/a
432.7265	0.105	865453	keystroke	r	n/a
432.9065	0.075	865813	keystroke	y	n/a
433.131	0.105	866262	keystroke	Key.space	n/a
433.536	0.1205	867072	keystroke	i	n/a
433.6415	0.1195	867283	keystroke	n	n/a
433.746	0.1945	867492	keystroke	s	n/a
433.9115	0.1495	867823	keystroke	t	n/a
434.6755	0.075	869351	keystroke	Key.backspace	n/a
434.841	0.1195	869682	keystroke	e	n/a
434.947	0.09	869894	keystroke	r	n/a
435.1865	0.0745	870373	keystroke	t	n/a
435.591	0.09	871182	keystroke	Key.space	n/a
435.9365	0.09	871873	keystroke	m	n/a
436.0415	0.135	872083	keystroke	a	n/a
436.1915	0.105	872383	keystroke	n	n/a
436.3565	0.105	872713	keystroke	i	n/a
437.0465	0.09	874093	keystroke	t	n/a
437.2115	0.12	874423	keystroke	o	n/a
437.6165	0.0745	875233	keystroke	b	n/a
437.781	0.105	875562	keystroke	a	n/a
438.021	0.09	876042	keystroke	Key.enter	n/a
438.117	10.781	876234	prompt	n/a	conditional edges warriors assumes\n
438.726	0.06	877452	keystroke	c	n/a
438.816	0.12	877632	keystroke	o	n/a
438.921	0.09	877842	keystroke	n	n/a
438.996	0.105	877992	keystroke	d	n/a
439.176	0.075	878352	keystroke	i	n/a
439.266	0.09	878532	keystroke	t	n/a
439.371	0.18	878742	keystroke	i	n/a
439.431	0.1345	878862	keystroke	o	n/a
439.536	0.1045	879072	keystroke	n	n/a
439.6115	0.134	879223	keystroke	a	n/a
439.8065	0.135	879613	keystroke	l	n/a
439.9555	0.075	879911	keystroke	Key.space	n/a
440.2405	0.076	880481	keystroke	e	n/a
440.4955	0.105	880991	keystroke	d	n/a
441.351	0.075	882702	keystroke	g	n/a
441.531	0.105	883062	keystroke	e	n/a
441.682	0.1345	883364	keystroke	s	n/a
442.5965	0.105	885193	keystroke	Key.space	n/a
442.8665	0.12	885733	keystroke	w	n/a
443.0315	0.165	886063	keystroke	a	n/a
443.1665	0.09	886333	keystroke	r	n/a
443.3465	0.09	886693	keystroke	r	n/a
443.4965	0.089	886993	keystroke	i	n/a
443.6005	0.1505	887201	keystroke	e	n/a
443.7065	0.1045	887413	keystroke	r	n/a
444.1865	0.075	888373	keystroke	Key.backspace	n/a
444.351	0.0755	888702	keystroke	Key.backspace	n/a
444.501	0.09	889002	keystroke	o	n/a
444.606	0.09	889212	keystroke	r	n/a
444.757	0.09	889514	keystroke	s	n/a
445.176	0.09	890352	keystroke	Key.space	n/a
445.446	0.105	890892	keystroke	a	n/a
445.536	0.105	891072	keystroke	s	n/a
445.7465	0.09	891493	keystroke	s	n/a
445.8965	0.075	891793	keystroke	u	n/a
446.1065	0.09	892213	keystroke	m	n/a
446.2565	0.09	892513	keystroke	e	n/a
446.8865	0.075	893773	keystroke	Key.backspace	n/a
447.1115	0.059	894223	keystroke	s	n/a
447.876	0.075	895752	keystroke	Key.backspace	n/a
447.966	0.105	895932	keystroke	e	n/a
448.027	0.105	896054	keystroke	s	n/a
448.791	0.105	897582	keystroke	Key.enter	n/a
448.901	7.797	897802	prompt	n/a	matthew taste freedom friendship\n
449.721	0.09	899442	keystroke	m	n/a
449.796	0.1655	899592	keystroke	a	n/a
449.9465	0.09	899893	keystroke	t	n/a
450.141	0.105	900282	keystroke	t	n/a
450.456	0.106	900912	keystroke	h	n/a
450.651	0.165	901302	keystroke	e	n/a
450.786	0.135	901572	keystroke	w	n/a
451.011	0.12	902022	keystroke	Key.space	n/a
451.2665	0.0745	902533	keystroke	t	n/a
451.386	0.18	902772	keystroke	a	n/a
451.536	0.165	903072	keystroke	s	n/a
451.731	0.12	903462	keystroke	t	n/a
451.867	0.104	903734	keystroke	e	n/a
452.106	0.09	904212	keystroke	Key.space	n/a
452.8265	0.075	905653	keystroke	f	n/a
453.0215	0.12	906043	keystroke	r	n/a
453.0965	0.105	906193	keystroke	e	n/a
453.3065	0.075	906613	keystroke	e	n/a
453.5465	0.075	907093	keystroke	d	n/a
453.7115	0.1045	907423	keystroke	o	n/a
453.786	0.135	907572	keystroke	m	n/a
454.356	0.1345	908712	keystroke	Key.space	n/a
454.5055	0.09	909011	keystroke	f	n/a
454.7455	0.1055	909491	keystroke	r	n/a
455.0005	0.0905	910001	keystroke	i	n/a
455.1365	0.09	910273	keystroke	e	n/a
455.2705	0.106	910541	keystroke	n	n/a
455.4365	0.045	910873	keystroke	d	n/a
455.5865	0.12	911173	keystroke	s	n/a
455.7215	0.1495	911443	keystroke	h	n/a
455.797	0.18	911594	keystroke	i	n/a
455.946	0.121	911892	keystroke	p	n/a
456.606	0.09	913212	keystroke	Key.enter	n/a
456.7015	4.931	913403	prompt	n/a	retired level choice iran\n
457.2515	0.104	914503	keystroke	r	n/a
457.3415	0.104	914683	keystroke	e	n/a
457.5505	0.106	915101	keystroke	t	n/a
457.7755	0.076	915551	keystroke	i	n/a
457.8655	0.106	915731	keystroke	r	n/a
457.9265	0.09	915853	keystroke	e	n/a
458.1365	0.09	916273	keystroke	d	n/a
458.2565	0.12	916513	keystroke	Key.space	n/a
458.4365	0.12	916873	keystroke	l	n/a
458.5715	0.075	917143	keystroke	e	n/a
458.7215	0.105	917443	keystroke	v	n/a
458.8115	0.105	917623	keystroke	e	n/a
458.9315	0.09	917863	keystroke	l	n/a
459.0965	0.105	918193	keystroke	Key.space	n/a
459.622	0.089	919244	keystroke	c	n/a
459.741	0.1055	919482	keystroke	h	n/a
459.8615	0.12	919723	keystroke	o	n/a
460.0715	0.105	920143	keystroke	i	n/a
460.2215	0.075	920443	keystroke	c	n/a
460.4165	0.09	920833	keystroke	e	n/a
460.5365	0.09	921073	keystroke	Key.space	n/a
460.6865	0.0895	921373	keystroke	i	n/a
460.791	0.09	921582	keystroke	r	n/a
460.926	0.165	921852	keystroke	a	n/a
461.061	0.105	922122	keystroke	n	n/a
461.526	0.105	923052	keystroke	Key.enter	n/a
461.6365	6.791	923273	prompt	n/a	diagram trek pools analyzed\n
462.3815	0.075	924763	keystroke	d	n/a
462.5465	0.09	925093	keystroke	i	n/a
462.6215	0.18	925243	keystroke	a	n/a
462.7865	0.105	925573	keystroke	g	n/a
462.9965	0.09	925993	keystroke	r	n/a
463.1015	0.165	926203	keystroke	a	n/a
463.2815	0.075	926563	keystroke	m	n/a
463.4015	0.105	926803	keystroke	Key.space	n/a
463.6115	0.075	927223	keystroke	t	n/a
463.791	0.12	927582	keystroke	r	n/a
463.881	0.105	927762	keystroke	e	n/a
464.061	0.105	928122	keystroke	k	n/a
464.316	0.09	928632	keystroke	Key.space	n/a
464.6615	0.12	929323	keystroke	p	n/a
464.886	0.1055	929772	keystroke	o	n/a
465.0965	0.09	930193	keystroke	o	n/a
465.3665	0.15	930733	keystroke	l	n/a
465.6065	0.1945	931213	keystroke	s	n/a
465.756	0.12	931512	keystroke	Key.space	n/a
466.026	0.135	932052	keystroke	a	n/a
466.146	0.09	932292	keystroke	n	n/a
466.281	0.12	932562	keystroke	a	n/a
466.761	0.1505	933522	keystroke	l	n/a
467.031	0.105	934062	keystroke	y	n/a
467.556	0.0905	935112	keystroke	z	n/a
467.7815	0.075	935563	keystroke	e	n/a
467.9605	0.091	935921	keystroke	d	n/a
468.3355	0.091	936671	keystroke	Key.enter	n/a
468.4415	9.602	936883	prompt	n/a	garbage personals applicant reproduced\n
469.2355	0.091	938471	keystroke	g	n/a
469.4155	0.151	938831	keystroke	a	n/a
469.5215	0.075	939043	keystroke	r	n/a
469.746	0.075	939492	keystroke	b	n/a
469.881	0.195	939762	keystroke	a	n/a
470.061	0.075	940122	keystroke	g	n/a
470.271	0.1055	940542	keystroke	e	n/a
470.3915	0.105	940783	keystroke	Key.space	n/a
470.6315	0.09	941263	keystroke	p	n/a
470.7065	0.2095	941413	keystroke	e	n/a
470.7665	0.1345	941533	keystroke	r	n/a
470.871	0.12	941742	keystroke	s	n/a
470.976	0.135	941952	keystroke	o	n/a
471.081	0.135	942162	keystroke	n	n/a
471.186	0.1355	942372	keystroke	a	n/a
471.3665	0.12	942733	keystroke	l	n/a
471.5155	0.135	943031	keystroke	s	n/a
471.6655	0.105	943331	keystroke	Key.space	n/a
471.8605	0.12	943721	keystroke	a	n/a
472.0105	0.09	944021	keystroke	p	n/a
472.1755	0.105	944351	keystroke	p	n/a
472.3855	0.136	944771	keystroke	l	n/a
472.4905	0.12	944981	keystroke	i	n/a
472.6265	0.074	945253	keystroke	c	n/a
472.7165	0.164	945433	keystroke	a	n/a
472.9115	0.104	945823	keystroke	n	n/a
473.0465	0.12	946093	keystroke	t	n/a
473.1815	0.09	946363	keystroke	Key.space	n/a
473.3605	0.106	946721	keystroke	r	n/a
473.4205	0.105	946841	keystroke	e	n/a
473.5865	0.104	947173	keystroke	p	n/a
473.751	0.12	947502	keystroke	o	n/a
473.901	0.105	947802	keystroke	r	n/a
474.276	0.075	948552	keystroke	d	n/a
474.471	0.06	948942	keystroke	u	n/a
474.606	0.06	949212	keystroke	c	n/a
474.816	0.075	949632	keystroke	e	n/a
475.401	0.075	950802	keystroke	Key.backspace	n/a
475.566	0.06	951132	keystroke	Key.backspace	n/a
475.716	0.06	951432	keystroke	Key.backspace	n/a
475.866	0.06	951732	keystroke	Key.backspace	n/a
476.016	0.06	952032	keystroke	Key.backspace	n/a
476.151	0.075	952302	keystroke	Key.backspace	n/a
476.241	0.075	952482	keystroke	r	n/a
476.406	0.075	952812	keystroke	o	n/a
476.541	0.075	953082	keystroke	d	n/a
476.766	0.06	953532	keystroke	u	n/a
476.901	0.06	953802	keystroke	c	n/a
477.261	0.075	954522	keystroke	e	n/a
477.501	0.06	955002	keystroke	d	n/a
477.9515	0.09	955903	keystroke	Key.enter	n/a
478.047	8.6505	956094	prompt	n/a	article discount indexes mightn't\n
478.5665	0.165	957133	keystroke	a	n/a
478.6705	0.09	957341	keystroke	r	n/a
478.8655	0.076	957731	keystroke	t	n/a
478.9565	0.075	957913	keystroke	i	n/a
479.0915	0.089	958183	keystroke	c	n/a
479.2715	0.09	958543	keystroke	l	n/a
479.871	0.12	959742	keystroke	e	n/a
480.006	0.09	960012	keystroke	Key.space	n/a
480.306	0.06	960612	keystroke	d	n/a
480.696	0.09	961392	keystroke	i	n/a
480.861	0.0755	961722	keystroke	s	n/a
481.0565	0.075	962113	keystroke	c	n/a
481.1465	0.134	962293	keystroke	o	n/a
481.2505	0.09	962501	keystroke	u	n/a
481.4755	0.09	962951	keystroke	n	n/a
481.6405	0.1055	963281	keystroke	t	n/a
481.821	0.105	963642	keystroke	Key.space	n/a
482.271	0.06	964542	keystroke	i	n/a
482.376	0.09	964752	keystroke	n	n/a
482.481	0.075	964962	keystroke	d	n/a
482.6605	0.061	965321	keystroke	e	n/a
482.8855	0.09	965771	keystroke	x	n/a
483.0965	0.074	966193	keystroke	e	n/a
483.3805	0.0755	966761	keystroke	s	n/a
483.576	0.105	967152	keystroke	Key.space	n/a
483.9205	0.105	967841	keystroke	m	n/a
484.011	0.1055	968022	keystroke	i	n/a
484.161	0.0745	968322	keystroke	g	n/a
484.296	0.09	968592	keystroke	h	n/a
484.4455	0.1055	968891	keystroke	t	n/a
484.971	0.1345	969942	keystroke	n	n/a
485.2105	0.1355	970421	keystroke	'	n/a
485.511	0.105	971022	keystroke	t	n/a
486.6055	0.0905	973211	keystroke	Key.enter	n/a
486.7015	6.491	973403	prompt	n/a	outside artistic noble prepaid\n
487.371	0.12	974742	keystroke	o	n/a
487.506	0.075	975012	keystroke	u	n/a
487.566	0.105	975132	keystroke	t	n/a
487.701	0.105	975402	keystroke	s	n/a
487.866	0.06	975732	keystroke	i	n/a
487.956	0.075	975912	keystroke	d	n/a
488.1355	0.076	976271	keystroke	e	n/a
488.2705	0.105	976541	keystroke	Key.space	n/a
488.5405	0.135	977081	keystroke	a	n/a
488.6155	0.091	977231	keystroke	r	n/a
488.8105	0.09	977621	keystroke	t	n/a
488.9605	0.09	977921	keystroke	i	n/a
489.261	0.195	978522	keystroke	s	n/a
489.426	0.105	978852	keystroke	t	n/a
489.621	0.105	979242	keystroke	i	n/a
489.8455	0.061	979691	keystroke	c	n/a
490.1015	0.089	980203	keystroke	Key.space	n/a
490.7755	0.12	981551	keystroke	n	n/a
490.9115	0.12	981823	keystroke	o	n/a
491.1065	0.105	982213	keystroke	b	n/a
491.2705	0.105	982541	keystroke	l	n/a
491.3765	0.089	982753	keystroke	e	n/a
491.4805	0.105	982961	keystroke	Key.space	n/a
491.856	0.105	983712	keystroke	p	n/a
491.946	0.12	983892	keystroke	r	n/a
492.006	0.105	984012	keystroke	e	n/a
492.381	0.09	984762	keystroke	p	n/a
492.486	0.12	984972	keystroke	a	n/a
492.621	0.075	985242	keystroke	i	n/a
492.771	0.075	985542	keystroke	d	n/a
493.086	0.105	986172	keystroke	Key.enter	n/a
493.1955	5.757	986391	prompt	n/a	decline opinions mount plate\n
494.1955	0.09	988391	keystroke	d	n/a
494.4055	0.045	988811	keystroke	e	n/a
494.6005	0.06	989201	keystroke	c	n/a
494.7815	0.179	989563	keystroke	l	n/a
494.9005	0.135	989801	keystroke	i	n/a
495.0205	0.105	990041	keystroke	n	n/a
495.0655	0.12	990131	keystroke	e	n/a
495.1555	0.12	990311	keystroke	Key.space	n/a
495.4105	0.18	990821	keystroke	o	n/a
495.5455	0.15	991091	keystroke	p	n/a
495.7555	0.166	991511	keystroke	i	n/a
495.8905	0.1655	991781	keystroke	n	n/a
496.011	0.15	992022	keystroke	i	n/a
496.071	0.15	992142	keystroke	o	n/a
496.176	0.1195	992352	keystroke	n	n/a
496.3405	0.135	992681	keystroke	s	n/a
496.4905	0.09	992981	keystroke	Key.space	n/a
496.7905	0.09	993581	keystroke	m	n/a
496.8655	0.165	993731	keystroke	o	n/a
497.0005	0.09	994001	keystroke	u	n/a
497.2255	0.09	994451	keystroke	n	n/a
497.3305	0.105	994661	keystroke	t	n/a
497.4365	0.089	994873	keystroke	Key.space	n/a
497.631	0.105	995262	keystroke	p	n/a
497.751	0.12	995502	keystroke	l	n/a
497.886	0.165	995772	keystroke	a	n/a
498.036	0.105	996072	keystroke	t	n/a
498.156	0.105	996312	keystroke	e	n/a
498.8755	0.075	997751	keystroke	Key.enter	n/a
498.9565	12.4305	997913	prompt	n/a	italiano recording compound balanced\n
499.6415	0.09	999283	keystroke	i	n/a
499.8955	0.075	999791	keystroke	t	n/a
500.0165	0.149	1000033	keystroke	a	n/a
500.2255	0.195	1000451	keystroke	l	n/a
500.346	0.135	1000692	keystroke	i	n/a
500.541	0.135	1001082	keystroke	a	n/a
500.735	0.136	1001470	keystroke	n	n/a
500.915	0.136	1001830	keystroke	o	n/a
501.216	0.09	1002432	keystroke	Key.space	n/a
501.426	0.105	1002852	keystroke	r	n/a
501.486	0.09	1002972	keystroke	e	n/a
501.725	0.076	1003450	keystroke	c	n/a
502.401	0.105	1004802	keystroke	o	n/a
502.521	0.105	1005042	keystroke	r	n/a
502.626	0.12	1005252	keystroke	d	n/a
502.896	0.15	1005792	keystroke	i	n/a
503.031	0.135	1006062	keystroke	n	n/a
503.691	0.0895	1007382	keystroke	g	n/a
506.3635	0.027	1012727	keystroke	Key.space	n/a
506.556	0.09	1013112	keystroke	c	n/a
506.691	0.225	1013382	keystroke	o	n/a
506.841	0.105	1013682	keystroke	m	n/a
506.901	0.21	1013802	keystroke	p	n/a
508.041	0.15	1016082	keystroke	o	n/a
508.146	0.105	1016292	keystroke	u	n/a
508.386	0.105	1016772	keystroke	n	n/a
508.536	0.075	1017072	keystroke	d	n/a
509.046	0.105	1018092	keystroke	Key.space	n/a
509.316	0.06	1018632	keystroke	d	n/a
509.676	0.0745	1019352	keystroke	Key.backspace	n/a
509.7955	0.06	1019591	keystroke	b	n/a
509.9005	0.121	1019801	keystroke	a	n/a
510.0055	0.09	1020011	keystroke	l	n/a
510.1405	0.105	1020281	keystroke	a	n/a
510.2455	0.09	1020491	keystroke	n	n/a
510.3955	0.075	1020791	keystroke	c	n/a
510.6055	0.076	1021211	keystroke	e	n/a
510.8305	0.075	1021661	keystroke	d	n/a
511.296	0.09	1022592	keystroke	Key.enter	n/a
511.391	6.5665	1022782	prompt	n/a	random began tactics determines\n
512.0605	0.09	1024121	keystroke	r	n/a
512.1665	0.119	1024333	keystroke	a	n/a
512.2255	0.105	1024451	keystroke	n	n/a
512.3755	0.076	1024751	keystroke	d	n/a
512.4955	0.15	1024991	keystroke	o	n/a
512.6315	0.104	1025263	keystroke	m	n/a
512.7655	0.105	1025531	keystroke	Key.space	n/a
513.0205	0.075	1026041	keystroke	b	n/a
513.2015	0.09	1026403	keystroke	e	n/a
513.3055	0.105	1026611	keystroke	g	n/a
513.5155	0.135	1027031	keystroke	a	n/a
513.6355	0.105	1027271	keystroke	n	n/a
514.116	0.135	1028232	keystroke	Key.space	n/a
514.341	0.09	1028682	keystroke	t	n/a
514.446	0.105	1028892	keystroke	a	n/a
514.626	0.075	1029252	keystroke	c	n/a
514.836	0.075	1029672	keystroke	t	n/a
514.971	0.09	1029942	keystroke	i	n/a
515.106	0.075	1030212	keystroke	c	n/a
515.346	0.09	1030692	keystroke	s	n/a
515.496	0.1355	1030992	keystroke	Key.space	n/a
515.8705	0.046	1031741	keystroke	d	n/a
516.0355	0.12	1032071	keystroke	e	n/a
516.1405	0.105	1032281	keystroke	t	n/a
516.2905	0.12	1032581	keystroke	e	n/a
516.3815	0.104	1032763	keystroke	r	n/a
516.5305	0.121	1033061	keystroke	m	n/a
516.6205	0.1655	1033241	keystroke	i	n/a
516.801	0.105	1033602	keystroke	n	n/a
517.641	0.105	1035282	keystroke	e	n/a
517.731	0.03	1035462	keystroke	s	n/a
517.866	0.09	1035732	keystroke	Key.enter	n/a
517.9625	7.165	1035925	prompt	n/a	hidden ourselves animation hammer\n
518.676	0.09	1037352	keystroke	h	n/a
518.871	0.09	1037742	keystroke	i	n/a
518.976	0.06	1037952	keystroke	d	n/a
519.111	0.075	1038222	keystroke	d	n/a
519.276	0.075	1038552	keystroke	e	n/a
519.381	0.105	1038762	keystroke	n	n/a
519.501	0.12	1039002	keystroke	Key.space	n/a
519.681	0.1345	1039362	keystroke	o	n/a
519.7855	0.12	1039571	keystroke	u	n/a
519.8905	0.12	1039781	keystroke	r	n/a
519.9955	0.18	1039991	keystroke	s	n/a
520.1605	0.09	1040321	keystroke	e	n/a
520.2655	0.135	1040531	keystroke	l	n/a
521.1205	0.09	1042241	keystroke	v	n/a
521.3605	0.151	1042721	keystroke	e	n/a
521.4655	0.12	1042931	keystroke	s	n/a
522.096	0.09	1044192	keystroke	Key.space	n/a
522.231	0.12	1044462	keystroke	a	n/a
522.366	0.09	1044732	keystroke	n	n/a
522.486	0.105	1044972	keystroke	i	n/a
522.621	0.12	1045242	keystroke	m	n/a
522.786	0.165	1045572	keystroke	a	n/a
522.906	0.12	1045812	keystroke	t	n/a
523.011	0.195	1046022	keystroke	i	n/a
523.101	0.135	1046202	keystroke	o	n/a
523.176	0.12	1046352	keystroke	n	n/a
523.326	0.12	1046652	keystroke	Key.space	n/a
523.5355	0.105	1047071	keystroke	h	n/a
523.6555	0.12	1047311	keystroke	a	n/a
523.8055	0.09	1047611	keystroke	m	n/a
524.0005	0.075	1048001	keystroke	m	n/a
524.1955	0.135	1048391	keystroke	e	n/a
524.2705	0.12	1048541	keystroke	r	n/a
525.036	0.09	1050072	keystroke	Key.enter	n/a
525.131	5.6065	1050262	prompt	n/a	poly social horse sega\n
526.341	0.09	1052682	keystroke	p	n/a
526.581	0.105	1053162	keystroke	o	n/a
526.821	0.15	1053642	keystroke	l	n/a
527.076	0.089	1054152	keystroke	y	n/a
527.3005	0.12	1054601	keystroke	Key.space	n/a
527.5105	0.1055	1055021	keystroke	s	n/a
527.601	0.09	1055202	keystroke	o	n/a
527.7955	0.06	1055591	keystroke	c	n/a
527.8565	0.105	1055713	keystroke	i	n/a
528.0505	0.12	1056101	keystroke	a	n/a
528.1855	0.105	1056371	keystroke	l	n/a
528.2915	0.104	1056583	keystroke	Key.space	n/a
528.5005	0.09	1057001	keystroke	h	n/a
528.6215	0.119	1057243	keystroke	o	n/a
528.8305	0.12	1057661	keystroke	r	n/a
528.9965	0.179	1057993	keystroke	s	n/a
529.1305	0.09	1058261	keystroke	e	n/a
529.2805	0.12	1058561	keystroke	Key.space	n/a
529.4155	0.15	1058831	keystroke	s	n/a
529.5665	0.134	1059133	keystroke	e	n/a
529.7905	0.09	1059581	keystroke	g	n/a
529.9715	0.119	1059943	keystroke	a	n/a
530.6455	0.09	1061291	keystroke	Key.enter	n/a
530.741	6.6715	1061482	prompt	n/a	render monitoring dose newspapers\n
531.3805	0.12	1062761	keystroke	r	n/a
531.4405	0.12	1062881	keystroke	e	n/a
531.5905	0.1055	1063181	keystroke	n	n/a
531.711	0.06	1063422	keystroke	d	n/a
531.906	0.12	1063812	keystroke	e	n/a
531.981	0.135	1063962	keystroke	r	n/a
532.131	0.0895	1064262	keystroke	Key.space	n/a
532.4005	0.165	1064801	keystroke	m	n/a
532.5355	0.09	1065071	keystroke	i	n/a
533.0905	0.09	1066181	keystroke	Key.backspace	n/a
533.3015	0.1195	1066603	keystroke	o	n/a
533.406	0.135	1066812	keystroke	n	n/a
533.571	0.09	1067142	keystroke	i	n/a
533.7655	0.105	1067531	keystroke	t	n/a
533.9305	0.105	1067861	keystroke	o	n/a
534.0655	0.12	1068131	keystroke	r	n/a
534.2905	0.1355	1068581	keystroke	i	n/a
534.3805	0.15	1068761	keystroke	n	n/a
534.5455	0.1205	1069091	keystroke	g	n/a
534.62	0.1355	1069240	keystroke	Key.space	n/a
534.815	0.09	1069630	keystroke	d	n/a
534.9355	0.1205	1069871	keystroke	o	n/a
535.086	0.1795	1070172	keystroke	s	n/a
535.2355	0.121	1070471	keystroke	e	n/a
535.3705	0.12	1070741	keystroke	Key.space	n/a
535.6255	0.1355	1071251	keystroke	n	n/a
535.7155	0.1055	1071431	keystroke	e	n/a
535.791	0.135	1071582	keystroke	w	n/a
536.046	0.09	1072092	keystroke	s	n/a
536.301	0.06	1072602	keystroke	p	n/a
536.376	0.135	1072752	keystroke	a	n/a
536.526	0.09	1073052	keystroke	p	n/a
536.691	0.24	1073382	keystroke	e	n/a
536.811	0.12	1073622	keystroke	r	n/a
536.901	0.12	1073802	keystroke	s	n/a
537.3655	0.045	1074731	keystroke	Key.enter	n/a
537.416	9.476	1074832	prompt	n/a	pittsburgh misc wishlist clone\n
538.2515	0.134	1076503	keystroke	p	n/a
538.4455	0.105	1076891	keystroke	i	n/a
538.6705	0.075	1077341	keystroke	t	n/a
538.8505	0.09	1077701	keystroke	t	n/a
539.436	0.09	1078872	keystroke	s	n/a
539.931	0.06	1079862	keystroke	b	n/a
540.066	0.075	1080132	keystroke	u	n/a
540.171	0.075	1080342	keystroke	r	n/a
540.366	0.075	1080732	keystroke	g	n/a
540.816	0.075	1081632	keystroke	h	n/a
541.401	0.089	1082802	keystroke	Key.space	n/a
541.701	0.135	1083402	keystroke	m	n/a
541.8055	0.1205	1083611	keystroke	i	n/a
541.9405	0.075	1083881	keystroke	s	n/a
542.136	0.0745	1084272	keystroke	c	n/a
542.7955	0.105	1085591	keystroke	Key.space	n/a
543.1255	0.225	1086251	keystroke	m	n/a
543.3055	0.135	1086611	keystroke	i	n/a
543.906	0.045	1087812	keystroke	Key.backspace	n/a
544.056	0.075	1088112	keystroke	Key.backspace	n/a
544.176	0.09	1088352	keystroke	w	n/a
544.251	0.09	1088502	keystroke	i	n/a
544.401	0.09	1088802	keystroke	s	n/a
544.506	0.09	1089012	keystroke	h	n/a
544.851	0.165	1089702	keystroke	l	n/a
544.956	0.105	1089912	keystroke	i	n/a
545.091	0.18	1090182	keystroke	s	n/a
545.211	0.12	1090422	keystroke	t	n/a
545.676	0.105	1091352	keystroke	Key.space	n/a
545.961	0.06	1091922	keystroke	c	n/a
546.036	0.075	1092072	keystroke	l	n/a
546.231	0.12	1092462	keystroke	o	n/a
546.321	0.15	1092642	keystroke	n	n/a
546.516	0.12	1093032	keystroke	e	n/a
546.8005	0.09	1093601	keystroke	Key.enter	n/a
546.896	8.681	1093792	prompt	n/a	sympathy along bibliographic respond\n
547.5505	0.06	1095101	keystroke	s	n/a
547.7455	0.075	1095491	keystroke	y	n/a
547.9715	0.179	1095943	keystroke	m	n/a
548.1205	0.12	1096241	keystroke	p	n/a
548.3605	0.181	1096721	keystroke	a	n/a
548.4955	0.09	1096991	keystroke	t	n/a
548.6005	0.105	1097201	keystroke	h	n/a
548.8705	0.075	1097741	keystroke	y	n/a
549.201	0.105	1098402	keystroke	Key.space	n/a
549.411	0.12	1098822	keystroke	a	n/a
549.516	0.09	1099032	keystroke	l	n/a
549.711	0.12	1099422	keystroke	o	n/a
549.801	0.12	1099602	keystroke	n	n/a
549.951	0.135	1099902	keystroke	g	n/a
550.056	0.12	1100112	keystroke	Key.space	n/a
550.506	0.075	1101012	keystroke	b	n/a
550.7	0.0905	1101400	keystroke	i	n/a
550.9105	0.105	1101821	keystroke	b	n/a
551.9755	0.195	1103951	keystroke	l	n/a
552.1555	0.105	1104311	keystroke	i	n/a
552.3955	0.12	1104791	keystroke	o	n/a
552.741	0.075	1105482	keystroke	g	n/a
552.936	0.105	1105872	keystroke	r	n/a
553.026	0.135	1106052	keystroke	a	n/a
553.131	0.15	1106262	keystroke	p	n/a
553.296	0.12	1106592	keystroke	h	n/a
553.505	0.105	1107010	keystroke	i	n/a
553.7155	0.0905	1107431	keystroke	c	n/a
554.196	0.105	1108392	keystroke	Key.space	n/a
554.4505	0.135	1108901	keystroke	r	n/a
554.4955	0.15	1108991	keystroke	e	n/a
554.6005	0.135	1109201	keystroke	s	n/a
554.7805	0.045	1109561	keystroke	p	n/a
554.8105	0.2105	1109621	keystroke	o	n/a
554.976	0.135	1109952	keystroke	n	n/a
555.156	0.09	1110312	keystroke	d	n/a
555.485	0.09	1110970	keystroke	Key.enter	n/a
555.58	5.7575	1111160	prompt	n/a	lights barrel tracks import\n
556.281	0.209	1112562	keystroke	l	n/a
556.4305	0.1195	1112861	keystroke	i	n/a
556.5655	0.06	1113131	keystroke	g	n/a
556.7	0.09	1113400	keystroke	h	n/a
556.835	0.106	1113670	keystroke	t	n/a
556.956	0.134	1113912	keystroke	s	n/a
557.091	0.0895	1114182	keystroke	Key.space	n/a
557.315	0.06	1114630	keystroke	b	n/a
557.421	0.165	1114842	keystroke	a	n/a
557.571	0.075	1115142	keystroke	r	n/a
557.751	0.075	1115502	keystroke	r	n/a
557.976	0.105	1115952	keystroke	e	n/a
558.171	0.105	1116342	keystroke	l	n/a
558.306	0.105	1116612	keystroke	Key.space	n/a
558.531	0.09	1117062	keystroke	t	n/a
558.711	0.075	1117422	keystroke	r	n/a
558.756	0.105	1117512	keystroke	a	n/a
558.9955	0.045	1117991	keystroke	c	n/a
559.1015	0.09	1118203	keystroke	k	n/a
559.2355	0.105	1118471	keystroke	s	n/a
559.3105	0.135	1118621	keystroke	Key.space	n/a
559.7005	0.1505	1119401	keystroke	i	n/a
559.821	0.18	1119642	keystroke	m	n/a
559.986	0.12	1119972	keystroke	p	n/a
560.076	0.135	1120152	keystroke	o	n/a
560.226	0.0745	1120452	keystroke	r	n/a
560.4205	0.09	1120841	keystroke	t	n/a
561.246	0.089	1122492	keystroke	Key.enter	n/a
561.3405	6.268	1122681	prompt	n/a	early feet denmark eddie\n
561.9955	0.15	1123991	keystroke	e	n/a
562.1005	0.165	1124201	keystroke	a	n/a
562.1755	0.12	1124351	keystroke	r	n/a
562.3555	0.105	1124711	keystroke	l	n/a
562.5955	0.075	1125191	keystroke	y	n/a
562.6855	0.15	1125371	keystroke	Key.space	n/a
562.8205	0.105	1125641	keystroke	f	n/a
563.001	0.0745	1126002	keystroke	e	n/a
563.1505	0.105	1126301	keystroke	e	n/a
563.3155	0.135	1126631	keystroke	t	n/a
563.4655	0.09	1126931	keystroke	Key.space	n/a
563.9005	0.06	1127801	keystroke	d	n/a
564.0655	0.09	1128131	keystroke	e	n/a
564.1705	0.09	1128341	keystroke	n	n/a
564.396	0.1045	1128792	keystroke	m	n/a
564.711	0.1645	1129422	keystroke	a	n/a
564.8455	0.1045	1129691	keystroke	r	n/a
565.055	0.09	1130110	keystroke	k	n/a
565.235	0.09	1130470	keystroke	Key.space	n/a
565.43	0.075	1130860	keystroke	e	n/a
565.6105	0.0745	1131221	keystroke	d	n/a
565.7605	0.105	1131521	keystroke	d	n/a
567.0355	0.106	1134071	keystroke	i	n/a
567.231	0.075	1134462	keystroke	e	n/a
567.531	0.075	1135062	keystroke	Key.enter	n/a
567.6115	9.3415	1135223	prompt	n/a	mysimon scoop regarding transferred\n
568.506	0.12	1137012	keystroke	m	n/a
568.851	0.075	1137702	keystroke	y	n/a
569.241	0.105	1138482	keystroke	s	n/a
569.436	0.135	1138872	keystroke	i	n/a
569.601	0.15	1139202	keystroke	m	n/a
569.811	0.195	1139622	keystroke	o	n/a
570.021	0.105	1140042	keystroke	n	n/a
570.441	0.09	1140882	keystroke	Key.space	n/a
570.756	0.09	1141512	keystroke	s	n/a
570.966	0.09	1141932	keystroke	c	n/a
571.086	0.12	1142172	keystroke	o	n/a
571.296	0.165	1142592	keystroke	o	n/a
571.566	0.105	1143132	keystroke	p	n/a
571.731	0.105	1143462	keystroke	Key.space	n/a
572.001	0.105	1144002	keystroke	r	n/a
572.061	0.105	1144122	keystroke	e	n/a
572.286	0.075	1144572	keystroke	g	n/a
572.466	0.12	1144932	keystroke	a	n/a
572.511	0.105	1145022	keystroke	r	n/a
572.706	0.09	1145412	keystroke	d	n/a
572.841	0.135	1145682	keystroke	i	n/a
572.961	0.09	1145922	keystroke	n	n/a
573.066	0.135	1146132	keystroke	g	n/a
573.561	0.105	1147122	keystroke	Key.space	n/a
574.236	0.12	1148472	keystroke	t	n/a
574.521	0.12	1149042	keystroke	r	n/a
574.611	0.165	1149222	keystroke	a	n/a
575.226	0.15	1150452	keystroke	n	n/a
575.391	0.105	1150782	keystroke	s	n/a
575.586	0.06	1151172	keystroke	f	n/a
575.751	0.15	1151502	keystroke	e	n/a
575.946	0.06	1151892	keystroke	r	n/a
576.096	0.075	1152192	keystroke	r	n/a
576.306	0.075	1152612	keystroke	e	n/a
576.501	0.09	1153002	keystroke	d	n/a
576.861	0.09	1153722	keystroke	Key.enter	n/a
576.956	9.6865	1153912	prompt	n/a	jews simpsons promoting rate\n
579.098	0.028	1158196	keystroke	j	n/a
579.098	0.223	1158196	keystroke	e	n/a
579.246	0.12	1158492	keystroke	w	n/a
579.456	0.105	1158912	keystroke	s	n/a
579.636	0.1195	1159272	keystroke	Key.space	n/a
579.8305	0.105	1159661	keystroke	s	n/a
579.9655	0.15	1159931	keystroke	i	n/a
580.0705	0.195	1160141	keystroke	m	n/a
580.2205	0.12	1160441	keystroke	p	n/a
580.3105	0.12	1160621	keystroke	o	n/a
581.001	0.105	1162002	keystroke	Key.backspace	n/a
581.151	0.09	1162302	keystroke	s	n/a
581.256	0.15	1162512	keystroke	o	n/a
581.376	0.12	1162752	keystroke	n	n/a
581.7805	0.136	1163561	keystroke	s	n/a
582.0205	0.1205	1164041	keystroke	Key.space	n/a
582.786	0.09	1165572	keystroke	p	n/a
582.891	0.045	1165782	keystroke	r	n/a
582.951	0.105	1165902	keystroke	o	n/a
583.161	0.135	1166322	keystroke	o	n/a
583.281	0.15	1166562	keystroke	m	n/a
583.881	0.075	1167762	keystroke	Key.backspace	n/a
584.121	0.045	1168242	keystroke	Key.backspace	n/a
584.241	0.18	1168482	keystroke	m	n/a
584.9155	0.12	1169831	keystroke	o	n/a
585.0805	0.106	1170161	keystroke	t	n/a
585.2455	0.165	1170491	keystroke	i	n/a
585.3655	0.135	1170731	keystroke	n	n/a
585.5155	0.136	1171031	keystroke	g	n/a
585.6655	0.1345	1171331	keystroke	Key.space	n/a
585.815	0.106	1171630	keystroke	r	n/a
585.936	0.18	1171872	keystroke	a	n/a
586.085	0.105	1172170	keystroke	t	n/a
586.2055	0.15	1172411	keystroke	e	n/a
