onset	duration	sample	value	key	prompt_text
12.447	11.512	24894	prompt	n/a	the quick brown fox jumps over a lazy dog\n
14.8845	0.012	29769	keystroke	t	n/a
14.9565	0.09	29913	keystroke	h	n/a
15.4365	0.045	30873	keystroke	e	n/a
15.6765	0.15	31353	keystroke	Key.space	n/a
15.9315	0.105	31863	keystroke	q	n/a
16.8615	0.12	33723	keystroke	u	n/a
17.0415	0.09	34083	keystroke	i	n/a
17.1915	0.09	34383	keystroke	c	n/a
17.2965	0.135	34593	keystroke	k	n/a
17.4015	0.18	34803	keystroke	Key.space	n/a
17.5965	0.09	35193	keystroke	b	n/a
17.8365	0.09	35673	keystroke	r	n/a
17.9115	0.09	35823	keystroke	o	n/a
18.0465	0.09	36093	keystroke	w	n/a
18.1375	0.179	36275	keystroke	n	n/a
18.2415	0.12	36483	keystroke	Key.space	n/a
18.3015	0.075	36603	keystroke	f	n/a
18.4365	0.09	36873	keystroke	o	n/a
18.5565	0.105	37113	keystroke	x	n/a
18.6765	0.18	37353	keystroke	Key.space	n/a
18.7965	0.12	37593	keystroke	j	n/a
19.0215	0.075	38043	keystroke	u	n/a
19.2465	0.165	38493	keystroke	m	n/a
19.3665	0.12	38733	keystroke	p	n/a
19.4715	0.105	38943	keystroke	s	n/a
19.6215	0.135	39243	keystroke	Key.space	n/a
19.8465	0.09	39693	keystroke	o	n/a
19.9815	0.09	39963	keystroke	v	n/a
20.1615	0.15	40323	keystroke	e	n/a
20.2365	0.12	40473	keystroke	r	n/a
20.3415	0.135	40683	keystroke	Key.space	n/a
20.5065	0.15	41013	keystroke	a	n/a
20.5815	0.12	41163	keystroke	Key.space	n/a
20.6865	0.09	41373	keystroke	l	n/a
20.8665	0.12	41733	keystroke	a	n/a
21.2415	0.119	42483	keystroke	z	n/a
21.6455	0.15	43291	keystroke	y	n/a
21.7655	0.135	43531	keystroke	Key.space	n/a
22.1255	0.09	44251	keystroke	d	n/a
22.2305	0.09	44461	keystroke	o	n/a
22.4555	0.06	44911	keystroke	g	n/a
23.8355	0.12	47671	keystroke	Key.enter	n/a
23.965	5.558	47930	prompt	n/a	stem repair lesson generators\n
25.0505	0.135	50101	keystroke	s	n/a
25.2155	0.12	50431	keystroke	t	n/a
25.3055	0.09	50611	keystroke	e	n/a
25.4705	0.135	50941	keystroke	m	n/a
25.5755	0.135	51151	keystroke	Key.space	n/a
25.7855	0.105	51571	keystroke	r	n/a
25.9055	0.09	51811	keystroke	e	n/a
26.0405	0.12	52081	keystroke	p	n/a
26.1605	0.105	52321	keystroke	a	n/a
26.2805	0.09	52561	keystroke	i	n/a
26.4605	0.09	52921	keystroke	r	n/a
26.5805	0.12	53161	keystroke	Key.space	n/a
26.7905	0.091	53581	keystroke	l	n/a
26.8655	0.09	53731	keystroke	e	n/a
27.0605	0.075	54121	keystroke	s	n/a
27.2105	0.09	54421	keystroke	s	n/a
27.3305	0.15	54661	keystroke	o	n/a
27.4205	0.18	54841	keystroke	n	n/a
27.5255	0.135	55051	keystroke	Key.space	n/a
27.6905	0.06	55381	keystroke	g	n/a
27.8405	0.075	55681	keystroke	e	n/a
27.9455	0.135	55891	keystroke	n	n/a
28.0505	0.135	56101	keystroke	e	n/a
28.1405	0.105	56281	keystroke	r	n/a
28.2905	0.15	56581	keystroke	a	n/a
28.3805	0.09	56761	keystroke	t	n/a
28.5005	0.09	57001	keystroke	o	n/a
28.6205	0.15	57241	keystroke	r	n/a
28.7855	0.105	57571	keystroke	s	n/a
29.3705	0.15	58741	keystroke	Key.enter	n/a
29.5275	6.97	59055	prompt	n/a	fist sword producers territory\n
30.3905	0.09	60781	keystroke	f	n/a
30.5405	0.105	61081	keystroke	i	n/a
30.6465	0.149	61293	keystroke	s	n/a
30.7655	0.09	61531	keystroke	t	n/a
30.8855	0.12	61771	keystroke	Key.space	n/a
31.0205	0.105	62041	keystroke	s	n/a
31.2605	0.09	62521	keystroke	w	n/a
31.4855	0.09	62971	keystroke	o	n/a
32.0105	0.075	64021	keystroke	r	n/a
32.2655	0.09	64531	keystroke	d	n/a
33.1355	0.135	66271	keystroke	Key.space	n/a
33.5255	0.105	67051	keystroke	p	n/a
33.6605	0.09	67321	keystroke	r	n/a
33.7655	0.075	67531	keystroke	o	n/a
33.8555	0.105	67711	keystroke	d	n/a
33.9905	0.135	67981	keystroke	u	n/a
34.1105	0.09	68221	keystroke	c	n/a
34.3505	0.15	68701	keystroke	e	n/a
34.4255	0.181	68851	keystroke	r	n/a
34.5905	0.105	69181	keystroke	s	n/a
34.7705	0.135	69541	keystroke	Key.space	n/a
34.9355	0.09	69871	keystroke	t	n/a
35.0105	0.15	70021	keystroke	e	n/a
35.1455	0.09	70291	keystroke	r	n/a
35.3105	0.105	70621	keystroke	r	n/a
35.4005	0.105	70801	keystroke	i	n/a
35.5355	0.075	71071	keystroke	t	n/a
35.6405	0.09	71281	keystroke	o	n/a
35.7755	0.09	71551	keystroke	r	n/a
35.8955	0.105	71791	keystroke	y	n/a
36.3755	0.12	72751	keystroke	Key.enter	n/a
36.503	6.6255	73006	prompt	n/a	recipes conferences pulling main\n
37.6805	0.075	75361	keystroke	r	n/a
37.8605	0.075	75721	keystroke	e	n/a
38.5055	0.09	77011	keystroke	c	n/a
38.6105	0.135	77221	keystroke	i	n/a
38.8205	0.09	77641	keystroke	p	n/a
38.8955	0.09	77791	keystroke	e	n/a
39.1055	0.105	78211	keystroke	s	n/a
39.2255	0.135	78451	keystroke	Key.space	n/a
39.4205	0.105	78841	keystroke	c	n/a
39.5405	0.105	79081	keystroke	o	n/a
39.6305	0.135	79261	keystroke	n	n/a
39.7505	0.075	79501	keystroke	f	n/a
39.8555	0.105	79711	keystroke	e	n/a
39.9455	0.135	79891	keystroke	r	n/a
40.0505	0.09	80101	keystroke	e	n/a
40.1855	0.135	80371	keystroke	n	n/a
40.2755	0.105	80551	keystroke	c	n/a
40.5005	0.15	81001	keystroke	e	n/a
40.5755	0.135	81151	keystroke	s	n/a
40.7255	0.18	81451	keystroke	Key.space	n/a
40.9355	0.135	81871	keystroke	p	n/a
41.1155	0.105	82231	keystroke	u	n/a
41.4905	0.075	82981	keystroke	l	n/a
41.6555	0.105	83311	keystroke	l	n/a
41.8205	0.18	83641	keystroke	i	n/a
41.9405	0.18	83881	keystroke	n	n/a
42.0305	0.12	84061	keystroke	g	n/a
42.1055	0.12	84211	keystroke	Key.space	n/a
42.2105	0.135	84421	keystroke	m	n/a
42.3605	0.105	84721	keystroke	a	n/a
42.4505	0.165	84901	keystroke	i	n/a
42.5555	0.135	85111	keystroke	n	n/a
43.0205	0.105	86041	keystroke	Key.enter	n/a
43.1335	10.195	86267	prompt	n/a	conditional rather cartridge scenarios\n
44.0555	0.09	88111	keystroke	c	n/a
44.1755	0.135	88351	keystroke	o	n/a
44.2655	0.135	88531	keystroke	n	n/a
44.4155	0.105	88831	keystroke	d	n/a
44.5215	0.074	89043	keystroke	i	n/a
44.7305	0.12	89461	keystroke	i	n/a
44.8205	0.135	89641	keystroke	o	n/a
44.9405	0.105	89881	keystroke	n	n/a
45.2255	0.06	90451	keystroke	Key.backspace	n/a
45.3905	0.09	90781	keystroke	Key.backspace	n/a
45.8855	0.075	91771	keystroke	Key.backspace	n/a
46.5605	0.075	93121	keystroke	t	n/a
46.7705	0.12	93541	keystroke	i	n/a
46.9505	0.15	93901	keystroke	o	n/a
47.0555	0.15	94111	keystroke	n	n/a
47.2805	0.105	94561	keystroke	a	n/a
47.4305	0.12	94861	keystroke	l	n/a
47.5355	0.135	95071	keystroke	Key.space	n/a
47.9705	0.09	95941	keystroke	r	n/a
48.1205	0.135	96241	keystroke	a	n/a
48.2405	0.105	96481	keystroke	t	n/a
48.3155	0.135	96631	keystroke	h	n/a
48.4365	0.119	96873	keystroke	e	n/a
48.5255	0.105	97051	keystroke	r	n/a
48.5855	0.135	97171	keystroke	Key.space	n/a
48.8705	0.105	97741	keystroke	c	n/a
49.1105	0.135	98221	keystroke	a	n/a
49.4105	0.075	98821	keystroke	r	n/a
49.6355	0.075	99271	keystroke	t	n/a
49.9355	0.075	99871	keystroke	r	n/a
50.1455	0.09	100291	keystroke	i	n/a
50.4755	0.105	100951	keystroke	d	n/a
50.7305	0.075	101461	keystroke	g	n/a
50.9255	0.075	101851	keystroke	e	n/a
51.0605	0.12	102121	keystroke	Key.space	n/a
51.2105	0.105	102421	keystroke	s	n/a
51.4205	0.075	102841	keystroke	c	n/a
51.6155	0.075	103231	keystroke	e	n/a
51.7055	0.12	103411	keystroke	n	n/a
51.8405	0.135	103681	keystroke	a	n/a
52.2755	0.091	104551	keystroke	r	n/a
52.3515	0.209	104703	keystroke	i	n/a
52.4855	0.15	104971	keystroke	o	n/a
52.6655	0.09	105331	keystroke	s	n/a
53.2055	0.12	106411	keystroke	Key.enter	n/a
53.334	11.0345	106668	prompt	n/a	supplement uploaded nebraska madison\n
54.1805	0.075	108361	keystroke	s	n/a
54.3755	0.12	108751	keystroke	u	n/a
54.7505	0.09	109501	keystroke	p	n/a
54.9455	0.106	109891	keystroke	p	n/a
55.1855	0.105	110371	keystroke	l	n/a
55.4115	0.089	110823	keystroke	e	n/a
55.5605	0.136	111121	keystroke	m	n/a
55.7105	0.061	111421	keystroke	e	n/a
55.8905	0.105	111781	keystroke	n	n/a
56.1015	0.074	112203	keystroke	t	n/a
56.2505	0.15	112501	keystroke	Key.space	n/a
56.5515	0.105	113103	keystroke	u	n/a
57.2555	0.181	114511	keystroke	p	n/a
57.5255	0.105	115051	keystroke	l	n/a
57.7505	0.106	115501	keystroke	o	n/a
57.9015	0.089	115803	keystroke	a	n/a
58.0955	0.091	116191	keystroke	d	n/a
58.2905	0.061	116581	keystroke	e	n/a
58.4565	0.089	116913	keystroke	d	n/a
58.5605	0.12	117121	keystroke	Key.space	n/a
58.7555	0.12	117511	keystroke	n	n/a
58.8455	0.09	117691	keystroke	e	n/a
59.0855	0.075	118171	keystroke	b	n/a
59.3115	0.12	118623	keystroke	r	n/a
59.4465	0.149	118893	keystroke	a	n/a
59.5655	0.076	119131	keystroke	s	n/a
59.6565	0.089	119313	keystroke	k	n/a
60.5705	0.091	121141	keystroke	a	n/a
60.7805	0.135	121561	keystroke	Key.space	n/a
62.0855	0.121	124171	keystroke	m	n/a
62.2365	0.074	124473	keystroke	a	n/a
62.3865	0.104	124773	keystroke	d	n/a
62.5055	0.121	125011	keystroke	i	n/a
62.6115	0.105	125223	keystroke	s	n/a
62.7765	0.165	125553	keystroke	o	n/a
62.8955	0.151	125791	keystroke	n	n/a
64.2315	0.134	128463	keystroke	Key.enter	n/a
64.374	8.979	128748	prompt	n/a	complaint msgstr alpha traveler\n
65.4765	0.09	130953	keystroke	c	n/a
65.7165	0.18	131433	keystroke	o	n/a
65.8665	0.195	131733	keystroke	m	n/a
66.0465	0.15	132093	keystroke	p	n/a
66.1515	0.135	132303	keystroke	l	n/a
66.5415	0.12	133083	keystroke	a	n/a
66.6905	0.166	133381	keystroke	i	n/a
66.8115	0.165	133623	keystroke	n	n/a
66.9915	0.075	133983	keystroke	t	n/a
67.1865	0.134	134373	keystroke	Key.space	n/a
67.8615	0.105	135723	keystroke	m	n/a
68.1015	0.105	136203	keystroke	s	n/a
68.5215	0.075	137043	keystroke	g	n/a
68.7465	0.105	137493	keystroke	s	n/a
69.1065	0.075	138213	keystroke	t	n/a
69.3315	0.09	138663	keystroke	r	n/a
69.5705	0.12	139141	keystroke	Key.space	n/a
69.7665	0.12	139533	keystroke	a	n/a
69.9155	0.106	139831	keystroke	l	n/a
70.2615	0.075	140523	keystroke	p	n/a
70.4565	0.09	140913	keystroke	h	n/a
70.6065	0.09	141213	keystroke	a	n/a
70.8765	0.119	141753	keystroke	Key.space	n/a
71.1765	0.045	142353	keystroke	t	n/a
71.4015	0.135	142803	keystroke	r	n/a
71.6265	0.165	143253	keystroke	a	n/a
71.9115	0.09	143823	keystroke	v	n/a
72.1215	0.06	144243	keystroke	e	n/a
72.2715	0.105	144543	keystroke	l	n/a
72.3915	0.195	144783	keystroke	e	n/a
72.5715	0.105	145143	keystroke	r	n/a
73.2315	0.12	146463	keystroke	Key.enter	n/a
73.36	9.023	146720	prompt	n/a	but bibliography champion champion\n
74.2815	0.105	148563	keystroke	b	n/a
74.5665	0.09	149133	keystroke	u	n/a
74.7915	0.075	149583	keystroke	t	n/a
75.0015	0.119	150003	keystroke	Key.space	n/a
75.5715	0.105	151143	keystroke	b	n/a
75.8565	0.105	151713	keystroke	i	n/a
76.5015	0.09	153003	keystroke	b	n/a
76.6665	0.135	153333	keystroke	l	n/a
76.9365	0.12	153873	keystroke	i	n/a
77.1315	0.105	154263	keystroke	o	n/a
77.5065	0.075	155013	keystroke	g	n/a
77.7015	0.12	155403	keystroke	r	n/a
78.0465	0.12	156093	keystroke	a	n/a
78.2415	0.135	156483	keystroke	p	n/a
78.4815	0.135	156963	keystroke	h	n/a
78.7515	0.165	157503	keystroke	y	n/a
78.8865	0.135	157773	keystroke	Key.space	n/a
79.2015	0.075	158403	keystroke	c	n/a
79.2465	0.09	158493	keystroke	h	n/a
79.4415	0.105	158883	keystroke	a	n/a
79.5315	0.15	159063	keystroke	m	n/a
79.6665	0.12	159333	keystroke	p	n/a
79.9215	0.18	159843	keystroke	i	n/a
80.0865	0.15	160173	keystroke	o	n/a
80.1915	0.195	160383	keystroke	n	n/a
80.3265	0.135	160653	keystroke	Key.space	n/a
80.4765	0.09	160953	keystroke	c	n/a
80.5815	0.075	161163	keystroke	h	n/a
80.7165	0.105	161433	keystroke	a	n/a
80.8365	0.15	161673	keystroke	m	n/a
80.9715	0.135	161943	keystroke	p	n/a
81.1965	0.195	162393	keystroke	i	n/a
81.3615	0.18	162723	keystroke	o	n/a
81.5265	0.135	163053	keystroke	n	n/a
82.2465	0.135	164493	keystroke	Key.enter	n/a
82.388	6.055	164776	prompt	n/a	celtic suffering debt comments\n
83.3715	0.09	166743	keystroke	c	n/a
83.5965	0.075	167193	keystroke	e	n/a
83.6565	0.105	167313	keystroke	l	n/a
83.8225	0.059	167645	keystroke	t	n/a
83.9265	0.075	167853	keystroke	i	n/a
84.0465	0.105	168093	keystroke	c	n/a
84.1965	0.135	168393	keystroke	Key.space	n/a
84.3165	0.105	168633	keystroke	s	n/a
84.4665	0.105	168933	keystroke	u	n/a
84.6015	0.06	169203	keystroke	f	n/a
84.7515	0.09	169503	keystroke	f	n/a
84.9015	0.12	169803	keystroke	e	n/a
84.9915	0.135	169983	keystroke	r	n/a
85.1115	0.15	170223	keystroke	i	n/a
85.2015	0.165	170403	keystroke	n	n/a
85.3815	0.075	170763	keystroke	g	n/a
85.7715	0.12	171543	keystroke	Key.space	n/a
86.0415	0.075	172083	keystroke	d	n/a
86.2965	0.09	172593	keystroke	e	n/a
86.5215	0.09	173043	keystroke	b	n/a
86.7915	0.09	173583	keystroke	t	n/a
86.8965	0.12	173793	keystroke	Key.space	n/a
87.0315	0.12	174063	keystroke	c	n/a
87.1215	0.06	174243	keystroke	o	n/a
87.3165	0.09	174633	keystroke	m	n/a
87.5115	0.09	175023	keystroke	m	n/a
87.5415	0.105	175083	keystroke	e	n/a
87.7365	0.135	175473	keystroke	n	n/a
87.8565	0.12	175713	keystroke	t	n/a
87.9465	0.105	175893	keystroke	s	n/a
88.3215	0.12	176643	keystroke	Key.enter	n/a
88.448	6.52	176896	prompt	n/a	government palm open validation\n
89.2965	0.06	178593	keystroke	g	n/a
89.4165	0.105	178833	keystroke	o	n/a
89.4915	0.09	178983	keystroke	v	n/a
89.6415	0.12	179283	keystroke	e	n/a
89.7315	0.09	179463	keystroke	r	n/a
89.8515	0.09	179703	keystroke	n	n/a
90.0765	0.105	180153	keystroke	m	n/a
90.1815	0.09	180363	keystroke	e	n/a
90.3015	0.12	180603	keystroke	n	n/a
90.4365	0.075	180873	keystroke	t	n/a
90.5565	0.135	181113	keystroke	Key.space	n/a
91.0815	0.12	182163	keystroke	p	n/a
91.3215	0.075	182643	keystroke	a	n/a
91.4115	0.105	182823	keystroke	l	n/a
91.5765	0.15	183153	keystroke	m	n/a
91.7565	0.135	183513	keystroke	Key.space	n/a
92.2215	0.075	184443	keystroke	o	n/a
92.4165	0.12	184833	keystroke	p	n/a
92.5515	0.075	185103	keystroke	e	n/a
92.6865	0.15	185373	keystroke	n	n/a
92.8065	0.135	185613	keystroke	Key.space	n/a
93.0165	0.09	186033	keystroke	v	n/a
93.2265	0.075	186453	keystroke	a	n/a
93.3315	0.135	186663	keystroke	l	n/a
93.4215	0.12	186843	keystroke	i	n/a
93.5565	0.105	187113	keystroke	d	n/a
93.7215	0.15	187443	keystroke	a	n/a
93.8115	0.12	187623	keystroke	t	n/a
93.9165	0.135	187833	keystroke	i	n/a
94.0065	0.18	188013	keystroke	o	n/a
94.1415	0.15	188283	keystroke	n	n/a
94.8315	0.135	189663	keystroke	Key.enter	n/a
94.9725	8.1265	189945	prompt	n/a	harvest burns purchased pending\n
96.1365	0.105	192273	keystroke	h	n/a
96.3765	0.12	192753	keystroke	a	n/a
96.4515	0.09	192903	keystroke	r	n/a
96.7215	0.105	193443	keystroke	v	n/a
96.8715	0.165	193743	keystroke	e	n/a
97.0215	0.12	194043	keystroke	s	n/a
97.0815	0.12	194163	keystroke	t	n/a
97.2465	0.135	194493	keystroke	Key.space	n/a
97.7115	0.105	195423	keystroke	b	n/a
97.8315	0.105	195663	keystroke	u	n/a
97.9665	0.09	195933	keystroke	r	n/a
98.0865	0.12	196173	keystroke	n	n/a
98.2215	0.09	196443	keystroke	s	n/a
98.7615	0.15	197523	keystroke	Key.space	n/a
99.0465	0.075	198093	keystroke	p	n/a
99.1815	0.09	198363	keystroke	r	n/a
99.7065	0.075	199413	keystroke	Key.backspace	n/a
100.3065	0.12	200613	keystroke	u	n/a
100.4865	0.075	200973	keystroke	r	n/a
100.6965	0.09	201393	keystroke	c	n/a
100.8015	0.105	201603	keystroke	h	n/a
100.9215	0.15	201843	keystroke	a	n/a
100.9515	0.15	201903	keystroke	s	n/a
101.0715	0.105	202143	keystroke	e	n/a
101.3115	0.075	202623	keystroke	d	n/a
101.4015	0.135	202803	keystroke	Key.space	n/a
101.9715	0.105	203943	keystroke	p	n/a
102.0915	0.06	204183	keystroke	e	n/a
102.1965	0.12	204393	keystroke	n	n/a
102.2865	0.105	204573	keystroke	d	n/a
102.4065	0.15	204813	keystroke	i	n/a
102.4965	0.135	204993	keystroke	n	n/a
102.6165	0.075	205233	keystroke	g	n/a
102.9765	0.12	205953	keystroke	Key.enter	n/a
103.1045	8.169	206209	prompt	n/a	songs browser gotta diabetes\n
104.0265	0.105	208053	keystroke	s	n/a
104.1465	0.135	208293	keystroke	o	n/a
104.2365	0.15	208473	keystroke	n	n/a
104.3715	0.12	208743	keystroke	g	n/a
104.4615	0.105	208923	keystroke	s	n/a
104.9715	0.135	209943	keystroke	Key.space	n/a
105.1515	0.075	210303	keystroke	b	n/a
105.3765	0.09	210753	keystroke	r	n/a
105.5115	0.09	211023	keystroke	o	n/a
105.5715	0.09	211143	keystroke	w	n/a
106.1265	0.12	212253	keystroke	s	n/a
106.5315	0.15	213063	keystroke	e	n/a
106.6665	0.105	213333	keystroke	r	n/a
106.8915	0.135	213783	keystroke	Key.space	n/a
107.3115	0.09	214623	keystroke	g	n/a
107.4315	0.09	214863	keystroke	o	n/a
107.5515	0.075	215103	keystroke	t	n/a
107.7015	0.105	215403	keystroke	t	n/a
107.9415	0.105	215883	keystroke	a	n/a
108.0765	0.12	216153	keystroke	Key.space	n/a
108.2115	0.09	216423	keystroke	d	n/a
108.4515	0.075	216903	keystroke	e	n/a
108.9765	0.09	217953	keystroke	Key.backspace	n/a
109.5615	0.09	219123	keystroke	i	n/a
109.7115	0.105	219423	keystroke	a	n/a
109.9665	0.09	219933	keystroke	b	n/a
110.2065	0.09	220413	keystroke	e	n/a
110.3865	0.151	220773	keystroke	t	n/a
110.5065	0.12	221013	keystroke	e	n/a
110.7915	0.09	221583	keystroke	s	n/a
111.1365	0.135	222273	keystroke	Key.enter	n/a
111.2795	7.5835	222559	prompt	n/a	hospital analysts roots enemies\n
112.1115	0.09	224223	keystroke	h	n/a
112.2765	0.105	224553	keystroke	o	n/a
112.4265	0.105	224853	keystroke	s	n/a
112.5615	0.105	225123	keystroke	p	n/a
112.7265	0.09	225453	keystroke	i	n/a
112.9965	0.075	225993	keystroke	t	n/a
113.2365	0.12	226473	keystroke	a	n/a
113.3715	0.135	226743	keystroke	l	n/a
113.4915	0.135	226983	keystroke	Key.space	n/a
113.9115	0.09	227823	keystroke	a	n/a
114.0165	0.105	228033	keystroke	n	n/a
114.1515	0.075	228303	keystroke	a	n/a
114.3015	0.105	228603	keystroke	l	n/a
115.0215	0.12	230043	keystroke	y	n/a
115.1865	0.105	230373	keystroke	s	n/a
115.4715	0.165	230943	keystroke	t	n/a
115.6065	0.105	231213	keystroke	s	n/a
115.7715	0.165	231543	keystroke	Key.space	n/a
116.0865	0.075	232173	keystroke	r	n/a
116.1915	0.075	232383	keystroke	o	n/a
116.3565	0.09	232713	keystroke	o	n/a
116.4915	0.135	232983	keystroke	t	n/a
116.5965	0.12	233193	keystroke	s	n/a
116.7465	0.105	233493	keystroke	Key.space	n/a
116.8665	0.075	233733	keystroke	e	n/a
116.9565	0.135	233913	keystroke	n	n/a
117.1515	0.105	234303	keystroke	e	n/a
117.3765	0.105	234753	keystroke	m	n/a
117.9315	0.12	235863	keystroke	i	n/a
118.0365	0.075	236073	keystroke	e	n/a
118.2315	0.09	236463	keystroke	s	n/a
118.7555	0.105	237511	keystroke	Key.enter	n/a
118.869	10.374	237738	prompt	n/a	persian mechanism circuits flavor\n
119.8055	0.12	239611	keystroke	p	n/a
119.9105	0.105	239821	keystroke	e	n/a
119.9705	0.15	239941	keystroke	r	n/a
120.1355	0.105	240271	keystroke	s	n/a
120.2555	0.105	240511	keystroke	i	n/a
120.4655	0.09	240931	keystroke	a	n/a
120.5405	0.135	241081	keystroke	n	n/a
120.6455	0.12	241291	keystroke	Key.space	n/a
120.8555	0.12	241711	keystroke	m	n/a
120.9455	0.09	241891	keystroke	e	n/a
121.1555	0.09	242311	keystroke	c	n/a
121.2755	0.075	242551	keystroke	h	n/a
121.3805	0.12	242761	keystroke	a	n/a
121.5605	0.135	243121	keystroke	n	n/a
121.8305	0.075	243661	keystroke	i	n/a
121.9505	0.09	243901	keystroke	s	n/a
122.0855	0.135	244171	keystroke	m	n/a
122.4755	0.135	244951	keystroke	Key.space	n/a
122.6405	0.105	245281	keystroke	c	n/a
122.7905	0.09	245581	keystroke	i	n/a
122.9855	0.075	245971	keystroke	r	n/a
123.1955	0.105	246391	keystroke	c	n/a
123.3305	0.135	246661	keystroke	u	n/a
123.5105	0.105	247021	keystroke	i	n/a
123.6905	0.12	247381	keystroke	t	n/a
123.7955	0.105	247591	keystroke	s	n/a
125.8205	0.135	251641	keystroke	Key.space	n/a
125.9855	0.105	251971	keystroke	f	n/a
126.1055	0.105	252211	keystroke	l	n/a
126.2405	0.105	252481	keystroke	a	n/a
126.4055	0.12	252811	keystroke	v	n/a
126.5555	0.075	253111	keystroke	o	n/a
126.7355	0.09	253471	keystroke	r	n/a
129.1835	0.057	258367	keystroke	Key.enter	n/a
129.248	10.2695	258496	prompt	n/a	structural massage guitar western\n
130.1555	0.091	260311	keystroke	s	n/a
130.3805	0.045	260761	keystroke	t	n/a
130.5455	0.075	261091	keystroke	r	n/a
130.6805	0.105	261361	keystroke	u	n/a
130.7705	0.105	261541	keystroke	c	n/a
131.0105	0.06	262021	keystroke	t	n/a
131.1905	0.12	262381	keystroke	u	n/a
131.2965	0.089	262593	keystroke	r	n/a
131.4905	0.12	262981	keystroke	a	n/a
131.5955	0.135	263191	keystroke	l	n/a
131.7005	0.18	263401	keystroke	Key.space	n/a
132.2405	0.09	264481	keystroke	m	n/a
132.3465	0.119	264693	keystroke	a	n/a
132.6155	0.075	265231	keystroke	s	n/a
132.7805	0.105	265561	keystroke	s	n/a
133.0205	0.12	266041	keystroke	a	n/a
133.2605	0.09	266521	keystroke	g	n/a
133.4405	0.06	266881	keystroke	e	n/a
133.9805	0.135	267961	keystroke	Key.space	n/a
134.1605	0.09	268321	keystroke	g	n/a
134.3405	0.165	268681	keystroke	u	n/a
134.4905	0.105	268981	keystroke	i	n/a
134.7155	0.075	269431	keystroke	t	n/a
135.1055	0.12	270211	keystroke	a	n/a
135.5405	0.06	271081	keystroke	r	n/a
136.4255	0.12	272851	keystroke	Key.space	n/a
136.8155	0.09	273631	keystroke	w	n/a
137.0855	0.075	274171	keystroke	e	n/a
137.3705	0.12	274741	keystroke	s	n/a
137.5805	0.075	275161	keystroke	t	n/a
137.7155	0.15	275431	keystroke	e	n/a
137.8515	0.104	275703	keystroke	r	n/a
138.0755	0.12	276151	keystroke	n	n/a
139.3955	0.12	278791	keystroke	Key.enter	n/a
139.522	7.5705	279044	prompt	n/a	enjoy must've initiated satellite\n
140.5215	0.059	281043	keystroke	e	n/a
140.6255	0.105	281251	keystroke	n	n/a
140.8505	0.12	281701	keystroke	j	n/a
141.1205	0.06	282241	keystroke	o	n/a
141.3005	0.135	282601	keystroke	y	n/a
141.4955	0.135	282991	keystroke	Key.space	n/a
141.7365	0.104	283473	keystroke	m	n/a
141.9765	0.134	283953	keystroke	u	n/a
142.1255	0.136	284251	keystroke	s	n/a
142.2155	0.075	284431	keystroke	t	n/a
142.4555	0.105	284911	keystroke	'	n/a
142.6365	0.119	285273	keystroke	v	n/a
142.7255	0.121	285451	keystroke	e	n/a
142.8305	0.135	285661	keystroke	Key.space	n/a
143.3715	0.089	286743	keystroke	i	n/a
143.5955	0.09	287191	keystroke	n	n/a
143.7465	0.074	287493	keystroke	i	n/a
143.8655	0.091	287731	keystroke	t	n/a
143.9715	0.089	287943	keystroke	i	n/a
144.1515	0.149	288303	keystroke	a	n/a
144.3305	0.121	288661	keystroke	t	n/a
144.4055	0.09	288811	keystroke	e	n/a
144.6155	0.09	289231	keystroke	d	n/a
144.6755	0.135	289351	keystroke	Key.space	n/a
145.2465	0.104	290493	keystroke	s	n/a
145.5155	0.09	291031	keystroke	a	n/a
145.6965	0.075	291393	keystroke	t	n/a
145.8605	0.075	291721	keystroke	e	n/a
145.9655	0.076	291931	keystroke	l	n/a
146.1465	0.15	292293	keystroke	l	n/a
146.2805	0.121	292561	keystroke	i	n/a
146.4315	0.12	292863	keystroke	t	n/a
146.5365	0.089	293073	keystroke	e	n/a
146.9855	0.105	293971	keystroke	Key.enter	n/a
147.0975	6.071	294195	prompt	n/a	monday fake towards sullivan\n
147.8715	0.119	295743	keystroke	m	n/a
148.0365	0.12	296073	keystroke	o	n/a
148.1255	0.136	296251	keystroke	n	n/a
148.2305	0.091	296461	keystroke	d	n/a
148.3815	0.105	296763	keystroke	a	n/a
148.5155	0.15	297031	keystroke	y	n/a
148.6205	0.135	297241	keystroke	Key.space	n/a
148.8465	0.12	297693	keystroke	f	n/a
148.9515	0.09	297903	keystroke	a	n/a
149.0555	0.091	298111	keystroke	k	n/a
149.1905	0.075	298381	keystroke	e	n/a
150.0905	0.135	300181	keystroke	Key.space	n/a
150.5105	0.091	301021	keystroke	t	n/a
150.6305	0.091	301261	keystroke	o	n/a
150.7365	0.09	301473	keystroke	w	n/a
150.9165	0.135	301833	keystroke	a	n/a
151.0065	0.209	302013	keystroke	r	n/a
151.1415	0.105	302283	keystroke	d	n/a
151.1715	0.12	302343	keystroke	s	n/a
151.3365	0.119	302673	keystroke	Key.space	n/a
151.7555	0.091	303511	keystroke	s	n/a
151.8905	0.091	303781	keystroke	u	n/a
152.0865	0.075	304173	keystroke	l	n/a
152.2665	0.12	304533	keystroke	l	n/a
152.3415	0.1345	304683	keystroke	i	n/a
152.491	0.1055	304982	keystroke	v	n/a
152.626	0.1205	305252	keystroke	a	n/a
152.716	0.135	305432	keystroke	n	n/a
153.076	0.09	306152	keystroke	Key.enter	n/a
153.1745	8.663	306349	prompt	n/a	cleanup teddy operations chelsea\n
154.471	0.09	308942	keystroke	c	n/a
154.546	0.09	309092	keystroke	l	n/a
154.681	0.09	309362	keystroke	e	n/a
154.876	0.105	309752	keystroke	a	n/a
154.936	0.15	309872	keystroke	n	n/a
155.251	0.195	310502	keystroke	u	n/a
155.401	0.09	310802	keystroke	p	n/a
155.9715	0.1335	311943	keystroke	Key.space	n/a
156.196	0.06	312392	keystroke	t	n/a
156.346	0.075	312692	keystroke	e	n/a
156.556	0.075	313112	keystroke	d	n/a
156.706	0.09	313412	keystroke	d	n/a
156.946	0.12	313892	keystroke	Key.space	n/a
157.411	0.075	314822	keystroke	Key.backspace	n/a
158.056	0.15	316112	keystroke	y	n/a
158.161	0.135	316322	keystroke	Key.space	n/a
158.341	0.075	316682	keystroke	o	n/a
158.566	0.09	317132	keystroke	p	n/a
158.671	0.15	317342	keystroke	e	n/a
158.746	0.18	317492	keystroke	r	n/a
158.926	0.165	317852	keystroke	a	n/a
159.046	0.105	318092	keystroke	t	n/a
159.136	0.135	318272	keystroke	i	n/a
159.226	0.15	318452	keystroke	o	n/a
159.361	0.12	318722	keystroke	n	n/a
159.466	0.075	318932	keystroke	s	n/a
160.006	0.135	320012	keystroke	Key.space	n/a
160.246	0.075	320492	keystroke	c	n/a
160.366	0.06	320732	keystroke	h	n/a
160.471	0.06	320942	keystroke	e	n/a
160.561	0.105	321122	keystroke	l	n/a
160.831	0.075	321662	keystroke	s	n/a
161.041	0.075	322082	keystroke	e	n/a
161.191	0.075	322382	keystroke	a	n/a
161.716	0.119	323432	keystroke	Key.enter	n/a
161.845	6.099	323690	prompt	n/a	regard howto cheats butterfly\n
162.706	0.06	325412	keystroke	r	n/a
162.811	0.09	325622	keystroke	e	n/a
163.051	0.105	326102	keystroke	g	n/a
163.231	0.18	326462	keystroke	a	n/a
163.351	0.18	326702	keystroke	r	n/a
163.456	0.105	326912	keystroke	d	n/a
163.591	0.105	327182	keystroke	Key.space	n/a
163.831	0.165	327662	keystroke	h	n/a
163.981	0.09	327962	keystroke	o	n/a
164.176	0.105	328352	keystroke	w	n/a
164.431	0.06	328862	keystroke	t	n/a
164.521	0.09	329042	keystroke	o	n/a
164.806	0.12	329612	keystroke	Key.space	n/a
164.971	0.075	329942	keystroke	c	n/a
165.076	0.105	330152	keystroke	h	n/a
165.196	0.135	330392	keystroke	e	n/a
165.316	0.135	330632	keystroke	a	n/a
165.436	0.165	330872	keystroke	t	n/a
165.556	0.12	331112	keystroke	s	n/a
165.661	0.135	331322	keystroke	Key.space	n/a
165.826	0.12	331652	keystroke	b	n/a
165.976	0.105	331952	keystroke	u	n/a
166.156	0.075	332312	keystroke	t	n/a
166.306	0.09	332612	keystroke	t	n/a
166.471	0.12	332942	keystroke	e	n/a
166.606	0.045	333212	keystroke	r	n/a
166.861	0.09	333722	keystroke	f	n/a
166.966	0.165	333932	keystroke	l	n/a
167.161	0.105	334322	keystroke	y	n/a
167.821	0.12	335642	keystroke	Key.enter	n/a
167.949	7.628	335898	prompt	n/a	scenic commissioner quebec playback\n
168.721	0.075	337442	keystroke	s	n/a
168.931	0.06	337862	keystroke	c	n/a
169.111	0.075	338222	keystroke	e	n/a
169.186	0.135	338372	keystroke	n	n/a
169.291	0.15	338582	keystroke	i	n/a
169.426	0.105	338852	keystroke	c	n/a
169.606	0.135	339212	keystroke	Key.space	n/a
169.816	0.1045	339632	keystroke	c	n/a
169.9055	0.09	339811	keystroke	o	n/a
170.1455	0.06	340291	keystroke	m	n/a
170.2955	0.105	340591	keystroke	m	n/a
170.5055	0.06	341011	keystroke	i	n/a
170.6255	0.06	341251	keystroke	s	n/a
170.7905	0.09	341581	keystroke	s	n/a
170.8955	0.165	341791	keystroke	i	n/a
171.0305	0.18	342061	keystroke	o	n/a
171.1505	0.135	342301	keystroke	n	n/a
171.2855	0.135	342571	keystroke	e	n/a
171.3905	0.105	342781	keystroke	r	n/a
171.5705	0.135	343141	keystroke	Key.space	n/a
171.9305	0.09	343861	keystroke	q	n/a
172.0055	0.12	344011	keystroke	u	n/a
172.1405	0.09	344281	keystroke	e	n/a
172.3655	0.09	344731	keystroke	b	n/a
172.5755	0.06	345151	keystroke	e	n/a
172.8305	0.105	345661	keystroke	c	n/a
173.1755	0.135	346351	keystroke	Key.space	n/a
173.4455	0.105	346891	keystroke	p	n/a
173.5355	0.12	347071	keystroke	l	n/a
173.7005	0.105	347401	keystroke	a	n/a
173.8505	0.105	347701	keystroke	y	n/a
174.0905	0.105	348181	keystroke	b	n/a
174.2855	0.09	348571	keystroke	a	n/a
174.4355	0.105	348871	keystroke	c	n/a
174.5105	0.105	349021	keystroke	k	n/a
175.4555	0.12	350911	keystroke	Key.enter	n/a
175.5815	5.9205	351163	prompt	n/a	optical actual sufficiently arms\n
176.6405	0.09	353281	keystroke	o	n/a
176.8655	0.105	353731	keystroke	p	n/a
177.0305	0.075	354061	keystroke	t	n/a
177.1655	0.09	354331	keystroke	i	n/a
177.3005	0.075	354601	keystroke	c	n/a
177.4205	0.12	354841	keystroke	a	n/a
177.5255	0.135	355051	keystroke	l	n/a
177.6755	0.105	355351	keystroke	Key.space	n/a
178.0055	0.075	356011	keystroke	a	n/a
178.1405	0.09	356281	keystroke	c	n/a
178.3355	0.105	356671	keystroke	t	n/a
178.4555	0.09	356911	keystroke	u	n/a
178.6055	0.09	357211	keystroke	a	n/a
178.6505	0.15	357301	keystroke	l	n/a
178.7855	0.105	357571	keystroke	Key.space	n/a
178.9505	0.09	357901	keystroke	s	n/a
179.1005	0.09	358201	keystroke	u	n/a
179.2055	0.06	358411	keystroke	f	n/a
179.3555	0.09	358711	keystroke	f	n/a
179.5055	0.09	359011	keystroke	i	n/a
179.6255	0.105	359251	keystroke	c	n/a
179.8055	0.06	359611	keystroke	i	n/a
179.8805	0.09	359761	keystroke	e	n/a
180.0005	0.12	360001	keystroke	n	n/a
180.1505	0.075	360301	keystroke	t	n/a
180.2705	0.18	360541	keystroke	l	n/a
180.3755	0.15	360751	keystroke	y	n/a
180.4805	0.135	360961	keystroke	Key.space	n/a
180.7055	0.135	361411	keystroke	a	n/a
180.8105	0.105	361621	keystroke	r	n/a
180.9305	0.105	361861	keystroke	m	n/a
181.0655	0.09	362131	keystroke	s	n/a
181.3805	0.12	362761	keystroke	Key.enter	n/a
181.5065	7.242	363013	prompt	n/a	removal shape nightmare fridge\n
183.1955	0.06	366391	keystroke	r	n/a
183.3455	0.075	366691	keystroke	e	n/a
183.4505	0.15	366901	keystroke	m	n/a
183.6005	0.105	367201	keystroke	o	n/a
183.7355	0.105	367471	keystroke	v	n/a
183.8705	0.09	367741	keystroke	a	n/a
183.9755	0.12	367951	keystroke	l	n/a
184.1105	0.135	368221	keystroke	Key.space	n/a
184.6805	0.12	369361	keystroke	s	n/a
184.8005	0.105	369601	keystroke	h	n/a
184.9355	0.12	369871	keystroke	a	n/a
185.0705	0.075	370141	keystroke	p	n/a
185.1905	0.075	370381	keystroke	e	n/a
185.7005	0.12	371401	keystroke	Key.space	n/a
185.8355	0.165	371671	keystroke	n	n/a
185.9405	0.105	371881	keystroke	i	n/a
186.0305	0.075	372061	keystroke	g	n/a
186.1355	0.12	372271	keystroke	h	n/a
186.2405	0.075	372481	keystroke	t	n/a
186.3905	0.135	372781	keystroke	m	n/a
186.5855	0.12	373171	keystroke	a	n/a
186.6455	0.165	373291	keystroke	r	n/a
186.7655	0.105	373531	keystroke	e	n/a
187.1855	0.12	374371	keystroke	Key.space	n/a
187.4705	0.105	374941	keystroke	f	n/a
187.7105	0.09	375421	keystroke	r	n/a
187.8455	0.075	375691	keystroke	i	n/a
187.9505	0.09	375901	keystroke	d	n/a
188.1605	0.12	376321	keystroke	g	n/a
188.2505	0.09	376501	keystroke	e	n/a
188.6105	0.135	377221	keystroke	Key.enter	n/a
188.7535	4.4785	377507	prompt	n/a	food tried earned gives\n
189.6155	0.075	379231	keystroke	f	n/a
189.7655	0.06	379531	keystroke	o	n/a
189.9305	0.105	379861	keystroke	o	n/a
190.0955	0.075	380191	keystroke	d	n/a
190.1855	0.135	380371	keystroke	Key.space	n/a
190.3805	0.06	380761	keystroke	t	n/a
190.5605	0.09	381121	keystroke	r	n/a
190.6655	0.075	381331	keystroke	i	n/a
190.7255	0.075	381451	keystroke	e	n/a
190.9205	0.075	381841	keystroke	d	n/a
191.0105	0.12	382021	keystroke	Key.space	n/a
191.1605	0.09	382321	keystroke	e	n/a
191.4605	0.135	382921	keystroke	a	n/a
191.5505	0.09	383101	keystroke	r	n/a
191.7155	0.15	383431	keystroke	n	n/a
191.8205	0.075	383641	keystroke	e	n/a
192.0455	0.075	384091	keystroke	d	n/a
192.1355	0.135	384271	keystroke	Key.space	n/a
192.4505	0.06	384901	keystroke	g	n/a
192.5255	0.105	385051	keystroke	i	n/a
192.6755	0.135	385351	keystroke	v	n/a
192.7955	0.105	385591	keystroke	e	n/a
192.8555	0.12	385711	keystroke	s	n/a
193.1105	0.12	386221	keystroke	Key.enter	n/a
193.236	6.2475	386472	prompt	n/a	supplies clip gate offering\n
193.9955	0.105	387991	keystroke	s	n/a
194.1605	0.105	388321	keystroke	u	n/a
194.6105	0.105	389221	keystroke	p	n/a
194.8055	0.091	389611	keystroke	p	n/a
195.0155	0.18	390031	keystroke	l	n/a
195.1505	0.12	390301	keystroke	i	n/a
195.3005	0.105	390601	keystroke	e	n/a
195.4355	0.105	390871	keystroke	s	n/a
195.6455	0.135	391291	keystroke	Key.space	n/a
195.9755	0.12	391951	keystroke	c	n/a
196.0805	0.135	392161	keystroke	l	n/a
196.2455	0.105	392491	keystroke	i	n/a
196.4405	0.09	392881	keystroke	p	n/a
196.7705	0.165	393541	keystroke	Key.space	n/a
196.9505	0.075	393901	keystroke	g	n/a
197.1455	0.12	394291	keystroke	a	n/a
197.2955	0.105	394591	keystroke	t	n/a
197.3705	0.09	394741	keystroke	e	n/a
197.5505	0.105	395101	keystroke	Key.space	n/a
197.7155	0.105	395431	keystroke	o	n/a
197.8505	0.09	395701	keystroke	f	n/a
198.0605	0.12	396121	keystroke	f	n/a
198.3155	0.09	396631	keystroke	e	n/a
198.3755	0.12	396751	keystroke	r	n/a
198.4805	0.165	396961	keystroke	i	n/a
198.6005	0.165	397201	keystroke	n	n/a
198.7205	0.075	397441	keystroke	g	n/a
199.3505	0.12	398701	keystroke	Key.enter	n/a
199.492	9.55	398984	prompt	n/a	niagara funds blake stevens\n
200.6855	0.09	401371	keystroke	n	n/a
200.8355	0.105	401671	keystroke	i	n/a
201.0155	0.105	402031	keystroke	a	n/a
201.3305	0.075	402661	keystroke	g	n/a
201.7055	0.105	403411	keystroke	a	n/a
201.9455	0.09	403891	keystroke	r	n/a
202.1555	0.105	404311	keystroke	a	n/a
202.2755	0.135	404551	keystroke	Key.space	n/a
203.6255	0.09	407251	keystroke	f	n/a
203.7905	0.075	407581	keystroke	u	n/a
204.0005	0.135	408001	keystroke	n	n/a
204.1055	0.15	408211	keystroke	d	n/a
204.1955	0.135	408391	keystroke	s	n/a
204.7355	0.15	409471	keystroke	Key.space	n/a
205.1105	0.105	410221	keystroke	b	n/a
205.1855	0.12	410371	keystroke	l	n/a
205.3655	0.105	410731	keystroke	a	n/a
205.485	0.1055	410970	keystroke	k	n/a
205.6805	0.0745	411361	keystroke	e	n/a
205.875	0.105	411750	keystroke	Key.space	n/a
206.0555	0.0895	412111	keystroke	s	n/a
206.31	0.06	412620	keystroke	t	n/a
206.445	0.09	412890	keystroke	e	n/a
206.67	0.12	413340	keystroke	v	n/a
206.805	0.105	413610	keystroke	e	n/a
207.075	0.105	414150	keystroke	n	n/a
207.255	0.075	414510	keystroke	s	n/a
208.905	0.135	417810	keystroke	Key.enter	n/a
209.047	10.42	418094	prompt	n/a	resorts array consistently circus\n
209.925	0.075	419850	keystroke	r	n/a
209.985	0.09	419970	keystroke	e	n/a
210.165	0.135	420330	keystroke	s	n/a
210.315	0.03	420630	keystroke	t	n/a
210.405	0.075	420810	keystroke	o	n/a
210.555	0.12	421110	keystroke	r	n/a
211.095	0.045	422190	keystroke	Key.backspace	n/a
211.26	0.075	422520	keystroke	Key.backspace	n/a
211.635	0.09	423270	keystroke	Key.backspace	n/a
212.385	0.09	424770	keystroke	o	n/a
212.535	0.09	425070	keystroke	r	n/a
212.745	0.09	425490	keystroke	t	n/a
212.85	0.105	425700	keystroke	s	n/a
213.69	0.135	427380	keystroke	Key.space	n/a
213.84	0.105	427680	keystroke	a	n/a
213.96	0.06	427920	keystroke	r	n/a
214.11	0.135	428220	keystroke	r	n/a
214.23	0.12	428460	keystroke	a	n/a
214.395	0.165	428790	keystroke	y	n/a
214.515	0.135	429030	keystroke	Key.space	n/a
214.86	0.075	429720	keystroke	c	n/a
214.98	0.12	429960	keystroke	o	n/a
215.04	0.15	430080	keystroke	n	n/a
215.22	0.09	430440	keystroke	s	n/a
215.34	0.105	430680	keystroke	i	n/a
215.46	0.09	430920	keystroke	s	n/a
215.715	0.075	431430	keystroke	t	n/a
215.896	0.074	431792	keystroke	e	n/a
216.03	0.12	432060	keystroke	n	n/a
216.225	0.06	432450	keystroke	t	n/a
216.435	0.105	432870	keystroke	l	n/a
216.72	0.135	433440	keystroke	y	n/a
216.825	0.12	433650	keystroke	Key.space	n/a
217.275	0.105	434550	keystroke	c	n/a
217.56	0.045	435120	keystroke	i	n/a
218.28	0.09	436560	keystroke	r	n/a
218.551	0.104	437102	keystroke	c	n/a
218.7	0.12	437400	keystroke	u	n/a
218.85	0.09	437700	keystroke	s	n/a
219.345	0.12	438690	keystroke	Key.enter	n/a
219.472	9.07	438944	prompt	n/a	atmospheric reliance apache lazy\n
220.516	0.105	441032	keystroke	a	n/a
220.815	0.06	441630	keystroke	t	n/a
221.1	0.09	442200	keystroke	m	n/a
221.25	0.105	442500	keystroke	o	n/a
221.446	0.104	442892	keystroke	s	n/a
221.61	0.105	443220	keystroke	p	n/a
221.805	0.12	443610	keystroke	h	n/a
221.94	0.135	443880	keystroke	e	n/a
222.06	0.105	444120	keystroke	r	n/a
222.12	0.09	444240	keystroke	i	n/a
222.316	0.119	444632	keystroke	c	n/a
222.48	0.135	444960	keystroke	Key.space	n/a
223.2	0.105	446400	keystroke	r	n/a
223.32	0.09	446640	keystroke	e	n/a
223.44	0.165	446880	keystroke	l	n/a
223.56	0.12	447120	keystroke	i	n/a
223.725	0.105	447450	keystroke	a	n/a
223.845	0.135	447690	keystroke	n	n/a
223.905	0.106	447810	keystroke	c	n/a
224.175	0.075	448350	keystroke	e	n/a
224.28	0.135	448560	keystroke	Key.space	n/a
224.55	0.105	449100	keystroke	a	n/a
224.64	0.09	449280	keystroke	p	n/a
225.18	0.105	450360	keystroke	a	n/a
225.405	0.105	450810	keystroke	c	n/a
225.555	0.105	451110	keystroke	h	n/a
225.69	0.061	451380	keystroke	e	n/a
226.305	0.105	452610	keystroke	Key.space	n/a
226.515	0.09	453030	keystroke	l	n/a
226.65	0.09	453300	keystroke	a	n/a
226.92	0.105	453840	keystroke	z	n/a
227.175	0.105	454350	keystroke	y	n/a
228.42	0.12	456840	keystroke	Key.enter	n/a
228.547	10.3885	457094	prompt	n/a	instrumental toner relatively actress\n
229.531	0.134	459062	keystroke	i	n/a
229.635	0.1945	459270	keystroke	n	n/a
229.7405	0.119	459481	keystroke	s	n/a
229.8895	0.06	459779	keystroke	t	n/a
230.0545	0.106	460109	keystroke	r	n/a
230.1895	0.076	460379	keystroke	u	n/a
230.3995	0.105	460799	keystroke	m	n/a
230.4895	0.105	460979	keystroke	e	n/a
230.6095	0.105	461219	keystroke	n	n/a
230.7155	0.089	461431	keystroke	t	n/a
230.9395	0.09	461879	keystroke	a	n/a
231.0445	0.12	462089	keystroke	l	n/a
231.1795	0.105	462359	keystroke	Key.space	n/a
231.6745	0.061	463349	keystroke	t	n/a
231.7795	0.0745	463559	keystroke	o	n/a
231.989	0.12	463978	keystroke	n	n/a
232.694	0.09	465388	keystroke	d	n/a
233.174	0.12	466348	keystroke	Key.backspace	n/a
233.61	0.149	467220	keystroke	e	n/a
233.729	0.09	467458	keystroke	r	n/a
234.0435	0.15	468087	keystroke	Key.space	n/a
234.3285	0.121	468657	keystroke	r	n/a
234.5845	0.09	469169	keystroke	l	n/a
234.9585	0.075	469917	keystroke	Key.backspace	n/a
235.0485	0.09	470097	keystroke	e	n/a
235.2435	0.09	470487	keystroke	l	n/a
235.4535	0.165	470907	keystroke	a	n/a
236.0095	0.06	472019	keystroke	t	n/a
236.1145	0.12	472229	keystroke	i	n/a
236.2645	0.1495	472529	keystroke	v	n/a
236.383	0.106	472766	keystroke	e	n/a
236.548	0.225	473096	keystroke	l	n/a
236.698	0.15	473396	keystroke	y	n/a
236.788	0.135	473576	keystroke	Key.space	n/a
237.343	0.15	474686	keystroke	a	n/a
237.553	0.106	475106	keystroke	c	n/a
237.824	0.045	475648	keystroke	t	n/a
238.003	0.136	476006	keystroke	r	n/a
238.154	0.074	476308	keystroke	e	n/a
238.334	0.104	476668	keystroke	s	n/a
238.528	0.0745	477056	keystroke	s	n/a
238.8125	0.12	477625	keystroke	Key.enter	n/a
238.94	5.724	477880	prompt	n/a	champions beginning fill singing\n
239.8035	0.09	479607	keystroke	c	n/a
239.9385	0.104	479877	keystroke	h	n/a
240.1475	0.091	480295	keystroke	a	n/a
240.2535	0.149	480507	keystroke	m	n/a
240.3885	0.089	480777	keystroke	p	n/a
240.5385	0.165	481077	keystroke	i	n/a
240.6725	0.166	481345	keystroke	o	n/a
240.7935	0.149	481587	keystroke	n	n/a
240.9135	0.105	481827	keystroke	s	n/a
241.1375	0.1345	482275	keystroke	Key.space	n/a
241.377	0.046	482754	keystroke	b	n/a
241.543	0.059	483086	keystroke	e	n/a
241.723	0.074	483446	keystroke	g	n/a
241.798	0.06	483596	keystroke	i	n/a
242.008	0.06	484016	keystroke	n	n/a
242.173	0.135	484346	keystroke	n	n/a
242.308	0.165	484616	keystroke	i	n/a
242.413	0.209	484826	keystroke	n	n/a
242.502	0.091	485004	keystroke	g	n/a
242.607	0.135	485214	keystroke	Key.space	n/a
242.787	0.106	485574	keystroke	f	n/a
242.877	0.061	485754	keystroke	i	n/a
243.058	0.06	486116	keystroke	l	n/a
243.223	0.135	486446	keystroke	l	n/a
243.342	0.106	486684	keystroke	Key.space	n/a
243.478	0.089	486956	keystroke	s	n/a
243.553	0.135	487106	keystroke	i	n/a
243.643	0.149	487286	keystroke	n	n/a
243.808	0.059	487616	keystroke	g	n/a
243.883	0.135	487766	keystroke	i	n/a
243.958	0.15	487916	keystroke	n	n/a
244.092	0.061	488184	keystroke	g	n/a
244.5265	0.1355	489053	keystroke	Key.enter	n/a
244.669	8.3365	489338	prompt	n/a	anyone symbol projector measures\n
245.5325	0.12	491065	keystroke	a	n/a
245.6675	0.09	491335	keystroke	n	n/a
245.9225	0.09	491845	keystroke	y	n/a
246.0725	0.165	492145	keystroke	o	n/a
246.1925	0.12	492385	keystroke	n	n/a
246.2825	0.075	492565	keystroke	e	n/a
246.6125	0.134	493225	keystroke	Key.space	n/a
246.7625	0.12	493525	keystroke	s	n/a
246.9275	0.075	493855	keystroke	y	n/a
247.1975	0.12	494395	keystroke	m	n/a
247.4225	0.075	494845	keystroke	b	n/a
247.4975	0.09	494995	keystroke	o	n/a
247.7225	0.135	495445	keystroke	l	n/a
247.8715	0.15	495743	keystroke	Key.space	n/a
248.1575	0.09	496315	keystroke	p	n/a
248.2925	0.105	496585	keystroke	r	n/a
248.4425	0.165	496885	keystroke	o	n/a
248.5775	0.15	497155	keystroke	j	n/a
248.7575	0.06	497515	keystroke	e	n/a
248.9675	0.09	497935	keystroke	c	n/a
249.2375	0.075	498475	keystroke	t	n/a
249.3725	0.075	498745	keystroke	o	n/a
249.5075	0.105	499015	keystroke	r	n/a
249.6265	0.136	499253	keystroke	Key.space	n/a
251.1725	0.12	502345	keystroke	m	n/a
251.3375	0.1045	502675	keystroke	e	n/a
251.5775	0.09	503155	keystroke	a	n/a
251.7875	0.09	503575	keystroke	s	n/a
251.9675	0.12	503935	keystroke	u	n/a
252.0875	0.195	504175	keystroke	r	n/a
252.1925	0.12	504385	keystroke	e	n/a
252.2525	0.12	504505	keystroke	s	n/a
252.8825	0.12	505765	keystroke	Key.enter	n/a
253.014	7.19	506028	prompt	n/a	fired linda meters metallica\n
254.0525	0.06	508105	keystroke	f	n/a
254.1275	0.12	508255	keystroke	i	n/a
254.2625	0.135	508525	keystroke	r	n/a
254.3825	0.09	508765	keystroke	e	n/a
254.6225	0.06	509245	keystroke	d	n/a
254.952	0.105	509904	keystroke	Key.space	n/a
255.1625	0.09	510325	keystroke	l	n/a
255.3575	0.1195	510715	keystroke	i	n/a
255.432	0.15	510864	keystroke	n	n/a
255.567	0.12	511134	keystroke	d	n/a
255.717	0.105	511434	keystroke	a	n/a
255.882	0.12	511764	keystroke	Key.space	n/a
256.167	0.105	512334	keystroke	m	n/a
256.287	0.105	512574	keystroke	e	n/a
256.452	0.105	512904	keystroke	t	n/a
256.602	0.12	513204	keystroke	e	n/a
256.707	0.15	513414	keystroke	r	n/a
256.827	0.12	513654	keystroke	s	n/a
256.962	0.15	513924	keystroke	Key.space	n/a
257.652	0.135	515304	keystroke	m	n/a
257.787	0.12	515574	keystroke	e	n/a
257.982	0.075	515964	keystroke	t	n/a
258.102	0.15	516204	keystroke	a	n/a
258.237	0.09	516474	keystroke	l	n/a
258.432	0.165	516864	keystroke	l	n/a
258.552	0.12	517104	keystroke	i	n/a
258.672	0.09	517344	keystroke	c	n/a
258.822	0.12	517644	keystroke	a	n/a
260.082	0.1205	520164	keystroke	Key.enter	n/a
260.208	8.0355	520416	prompt	n/a	above laura necessity threats\n
262.9055	0.072	525811	keystroke	a	n/a
263.097	0.06	526194	keystroke	b	n/a
263.262	0.0755	526524	keystroke	o	n/a
263.3525	0.135	526705	keystroke	v	n/a
263.5025	0.105	527005	keystroke	e	n/a
263.6225	0.12	527245	keystroke	Key.space	n/a
263.6975	0.105	527395	keystroke	l	n/a
263.7875	0.135	527575	keystroke	a	n/a
263.9975	0.12	527995	keystroke	u	n/a
264.1475	0.09	528295	keystroke	r	n/a
264.6575	0.12	529315	keystroke	a	n/a
264.9125	0.12	529825	keystroke	Key.space	n/a
265.1675	0.15	530335	keystroke	n	n/a
265.2575	0.075	530515	keystroke	e	n/a
265.4675	0.105	530935	keystroke	c	n/a
265.7075	0.045	531415	keystroke	e	n/a
265.8725	0.045	531745	keystroke	s	n/a
266.0075	0.09	532015	keystroke	s	n/a
266.1275	0.09	532255	keystroke	i	n/a
266.3075	0.06	532615	keystroke	t	n/a
266.4425	0.135	532885	keystroke	y	n/a
266.7125	0.12	533425	keystroke	Key.space	n/a
266.9375	0.06	533875	keystroke	t	n/a
267.0275	0.105	534055	keystroke	h	n/a
267.1475	0.12	534295	keystroke	r	n/a
267.2375	0.09	534475	keystroke	e	n/a
267.3875	0.12	534775	keystroke	a	n/a
267.5675	0.165	535135	keystroke	t	n/a
267.7175	0.105	535435	keystroke	s	n/a
268.1225	0.12	536245	keystroke	Key.enter	n/a
268.248	6.4455	536496	prompt	n/a	scanner speeches what've marks\n
269.367	0.09	538734	keystroke	s	n/a
269.577	0.06	539154	keystroke	c	n/a
269.682	0.105	539364	keystroke	a	n/a
269.772	0.09	539544	keystroke	n	n/a
269.937	0.135	539874	keystroke	n	n/a
270.087	0.165	540174	keystroke	e	n/a
270.207	0.12	540414	keystroke	r	n/a
270.342	0.135	540684	keystroke	Key.space	n/a
270.822	0.105	541644	keystroke	s	n/a
271.032	0.09	542064	keystroke	p	n/a
271.107	0.075	542214	keystroke	e	n/a
271.257	0.09	542514	keystroke	e	n/a
271.497	0.09	542994	keystroke	c	n/a
271.632	0.09	543264	keystroke	h	n/a
271.752	0.135	543504	keystroke	e	n/a
271.842	0.135	543684	keystroke	s	n/a
271.962	0.12	543924	keystroke	Key.space	n/a
272.517	0.105	545034	keystroke	w	n/a
272.607	0.135	545214	keystroke	h	n/a
272.742	0.15	545484	keystroke	a	n/a
272.832	0.075	545664	keystroke	t	n/a
272.967	0.135	545934	keystroke	'	n/a
273.267	0.09	546534	keystroke	v	n/a
273.342	0.105	546684	keystroke	e	n/a
273.477	0.12	546954	keystroke	Key.space	n/a
273.582	0.135	547164	keystroke	m	n/a
273.702	0.15	547404	keystroke	a	n/a
273.792	0.135	547584	keystroke	r	n/a
273.912	0.105	547824	keystroke	k	n/a
274.047	0.105	548094	keystroke	s	n/a
274.602	0.09	549204	keystroke	Key.enter	n/a
274.6975	7.2115	549395	prompt	n/a	adjustment amber pictures nonprofit\n
275.397	0.075	550794	keystroke	a	n/a
275.832	0.06	551664	keystroke	d	n/a
275.982	0.105	551964	keystroke	j	n/a
276.207	0.105	552414	keystroke	u	n/a
276.417	0.105	552834	keystroke	s	n/a
276.657	0.045	553314	keystroke	t	n/a
276.777	0.135	553554	keystroke	m	n/a
276.927	0.06	553854	keystroke	e	n/a
277.017	0.12	554034	keystroke	n	n/a
277.152	0.06	554304	keystroke	t	n/a
277.332	0.1505	554664	keystroke	Key.space	n/a
277.6775	0.09	555355	keystroke	a	n/a
277.7825	0.1195	555565	keystroke	m	n/a
277.932	0.105	555864	keystroke	b	n/a
278.172	0.18	556344	keystroke	e	n/a
278.262	0.165	556524	keystroke	r	n/a
278.397	0.1655	556794	keystroke	Key.space	n/a
278.6975	0.075	557395	keystroke	p	n/a
278.7875	0.105	557575	keystroke	i	n/a
278.8775	0.105	557755	keystroke	c	n/a
279.1025	0.075	558205	keystroke	t	n/a
279.1775	0.12	558355	keystroke	u	n/a
279.3125	0.18	558625	keystroke	r	n/a
279.3575	0.165	558715	keystroke	e	n/a
279.4475	0.1195	558895	keystroke	s	n/a
279.597	0.135	559194	keystroke	Key.space	n/a
280.317	0.12	560634	keystroke	n	n/a
280.497	0.15	560994	keystroke	o	n/a
280.602	0.135	561204	keystroke	n	n/a
280.842	0.075	561684	keystroke	p	n/a
280.947	0.09	561894	keystroke	r	n/a
281.052	0.09	562104	keystroke	o	n/a
281.202	0.105	562404	keystroke	f	n/a
281.292	0.105	562584	keystroke	i	n/a
281.487	0.075	562974	keystroke	t	n/a
281.787	0.12	563574	keystroke	Key.enter	n/a
281.9145	7.884	563829	prompt	n/a	vehicle frames recommendation copying\n
283.452	0.105	566904	keystroke	v	n/a
283.692	0.06	567384	keystroke	e	n/a
283.962	0.105	567924	keystroke	h	n/a
284.112	0.12	568224	keystroke	i	n/a
284.247	0.105	568494	keystroke	c	n/a
284.427	0.075	568854	keystroke	l	n/a
284.637	0.045	569274	keystroke	e	n/a
284.877	0.15	569754	keystroke	Key.space	n/a
285.042	0.075	570084	keystroke	f	n/a
285.237	0.15	570474	keystroke	r	n/a
285.297	0.135	570594	keystroke	a	n/a
285.402	0.12	570804	keystroke	m	n/a
285.552	0.12	571104	keystroke	e	n/a
285.642	0.09	571284	keystroke	s	n/a
285.747	0.12	571494	keystroke	Key.space	n/a
286.197	0.09	572394	keystroke	r	n/a
286.317	0.06	572634	keystroke	e	n/a
286.512	0.09	573024	keystroke	c	n/a
286.557	0.075	573114	keystroke	o	n/a
286.767	0.06	573534	keystroke	m	n/a
286.932	0.09	573864	keystroke	m	n/a
287.022	0.075	574044	keystroke	e	n/a
287.172	0.105	574344	keystroke	n	n/a
287.262	0.09	574524	keystroke	d	n/a
287.442	0.15	574884	keystroke	a	n/a
287.547	0.09	575094	keystroke	t	n/a
287.607	0.12	575214	keystroke	i	n/a
287.697	0.18	575394	keystroke	o	n/a
287.832	0.18	575664	keystroke	n	n/a
287.937	0.165	575874	keystroke	Key.space	n/a
288.537	0.09	577074	keystroke	c	n/a
288.627	0.075	577254	keystroke	o	n/a
288.837	0.075	577674	keystroke	p	n/a
289.032	0.12	578064	keystroke	y	n/a
289.182	0.21	578364	keystroke	i	n/a
289.332	0.15	578664	keystroke	n	n/a
289.497	0.075	578994	keystroke	g	n/a
289.677	0.1195	579354	keystroke	Key.enter	n/a
289.803	4.676	579606	prompt	n/a	condo grades votes rank\n
290.5915	0.075	581183	keystroke	c	n/a
290.6815	0.12	581363	keystroke	o	n/a
290.7715	0.105	581543	keystroke	n	n/a
290.8465	0.09	581693	keystroke	d	n/a
290.9815	0.105	581963	keystroke	o	n/a
291.1015	0.135	582203	keystroke	Key.space	n/a
291.3265	0.075	582653	keystroke	g	n/a
291.5215	0.15	583043	keystroke	r	n/a
291.6565	0.09	583313	keystroke	a	n/a
291.7315	0.105	583463	keystroke	d	n/a
291.9565	0.135	583913	keystroke	e	n/a
292.0315	0.105	584063	keystroke	s	n/a
292.5265	0.12	585053	keystroke	Key.space	n/a
292.7815	0.09	585563	keystroke	v	n/a
292.8865	0.0905	585773	keystroke	o	n/a
293.022	0.195	586044	keystroke	t	n/a
293.142	0.195	586284	keystroke	e	n/a
293.247	0.12	586494	keystroke	s	n/a
293.397	0.15	586794	keystroke	Key.space	n/a
293.727	0.18	587454	keystroke	r	n/a
293.862	0.135	587724	keystroke	a	n/a
293.937	0.135	587874	keystroke	n	n/a
294.057	0.135	588114	keystroke	k	n/a
294.372	0.105	588744	keystroke	Key.enter	n/a
294.4835	6.5805	588967	prompt	n/a	total wolf inter underground\n
295.422	0.06	590844	keystroke	t	n/a
295.497	0.135	590994	keystroke	o	n/a
295.617	0.105	591234	keystroke	t	n/a
295.767	0.135	591534	keystroke	a	n/a
295.857	0.15	591714	keystroke	l	n/a
295.992	0.105	591984	keystroke	Key.space	n/a
296.142	0.12	592284	keystroke	w	n/a
296.247	0.075	592494	keystroke	o	n/a
296.442	0.105	592884	keystroke	l	n/a
296.517	0.105	593034	keystroke	d	n/a
297.192	0.12	594384	keystroke	Key.backspace	n/a
297.267	0.09	594534	keystroke	f	n/a
297.612	0.135	595224	keystroke	Key.space	n/a
297.972	0.105	595944	keystroke	i	n/a
298.032	0.135	596064	keystroke	n	n/a
298.122	0.09	596244	keystroke	t	n/a
298.227	0.15	596454	keystroke	e	n/a
298.378	0.104	596756	keystroke	r	n/a
298.752	0.135	597504	keystroke	Key.space	n/a
299.172	0.105	598344	keystroke	u	n/a
299.412	0.15	598824	keystroke	n	n/a
299.562	0.045	599124	keystroke	d	n/a
299.712	0.165	599424	keystroke	e	n/a
299.832	0.075	599664	keystroke	r	n/a
300.042	0.075	600084	keystroke	g	n/a
300.222	0.105	600444	keystroke	r	n/a
300.297	0.165	600594	keystroke	o	n/a
300.417	0.105	600834	keystroke	u	n/a
300.657	0.12	601314	keystroke	n	n/a
300.702	0.105	601404	keystroke	d	n/a
300.942	0.12	601884	keystroke	Key.enter	n/a
301.069	6.865	602138	prompt	n/a	avenue scotland mining earliest\n
301.842	0.105	603684	keystroke	a	n/a
302.052	0.09	604104	keystroke	v	n/a
302.157	0.105	604314	keystroke	e	n/a
302.277	0.09	604554	keystroke	n	n/a
302.5165	0.105	605033	keystroke	u	n/a
302.6365	0.075	605273	keystroke	e	n/a
302.7565	0.135	605513	keystroke	Key.space	n/a
302.9965	0.09	605993	keystroke	s	n/a
303.2365	0.075	606473	keystroke	c	n/a
303.4465	0.0755	606893	keystroke	o	n/a
303.822	0.06	607644	keystroke	t	n/a
304.0015	0.0905	608003	keystroke	l	n/a
304.182	0.105	608364	keystroke	a	n/a
304.317	0.09	608634	keystroke	n	n/a
304.467	0.06	608934	keystroke	d	n/a
304.992	0.12	609984	keystroke	Key.space	n/a
305.262	0.09	610524	keystroke	m	n/a
305.412	0.105	610824	keystroke	i	n/a
305.502	0.15	611004	keystroke	n	n/a
305.637	0.18	611274	keystroke	i	n/a
305.742	0.18	611484	keystroke	n	n/a
305.907	0.06	611814	keystroke	g	n/a
306.012	0.135	612024	keystroke	Key.space	n/a
306.492	0.12	612984	keystroke	e	n/a
306.732	0.135	613464	keystroke	a	n/a
306.777	0.12	613554	keystroke	r	n/a
307.002	0.15	614004	keystroke	l	n/a
307.077	0.15	614154	keystroke	i	n/a
307.182	0.09	614364	keystroke	e	n/a
307.392	0.165	614784	keystroke	s	n/a
307.512	0.075	615024	keystroke	t	n/a
307.797	0.135	615594	keystroke	Key.enter	n/a
307.94	6.264	615880	prompt	n/a	tune universe kevin buses\n
308.862	0.09	617724	keystroke	t	n/a
309.027	0.105	618054	keystroke	u	n/a
309.267	0.21	618534	keystroke	n	n/a
309.327	0.105	618654	keystroke	e	n/a
309.462	0.135	618924	keystroke	Key.space	n/a
309.927	0.075	619854	keystroke	u	n/a
310.1815	0.135	620363	keystroke	n	n/a
310.2865	0.12	620573	keystroke	i	n/a
310.4525	0.074	620905	keystroke	v	n/a
310.6165	0.165	621233	keystroke	e	n/a
310.6915	0.135	621383	keystroke	r	n/a
310.9015	0.15	621803	keystroke	s	n/a
311.0365	0.105	622073	keystroke	e	n/a
311.2015	0.165	622403	keystroke	Key.space	n/a
311.877	0.135	623754	keystroke	k	n/a
311.952	0.075	623904	keystroke	e	n/a
312.282	0.09	624564	keystroke	v	n/a
312.387	0.135	624774	keystroke	i	n/a
312.478	0.2085	624956	keystroke	n	n/a
312.642	0.1345	625284	keystroke	Key.space	n/a
313.1365	0.105	626273	keystroke	b	n/a
313.2565	0.12	626513	keystroke	u	n/a
313.4815	0.075	626963	keystroke	s	n/a
313.6315	0.15	627263	keystroke	e	n/a
313.7365	0.12	627473	keystroke	s	n/a
314.0815	0.12	628163	keystroke	Key.enter	n/a
314.2085	8.5455	628417	prompt	n/a	daddy constitution amanda smtp\n
315.0565	0.105	630113	keystroke	d	n/a
315.2215	0.106	630443	keystroke	a	n/a
315.4015	0.06	630803	keystroke	d	n/a
315.5665	0.09	631133	keystroke	d	n/a
315.6715	0.15	631343	keystroke	y	n/a
315.7765	0.15	631553	keystroke	Key.space	n/a
316.0465	0.106	632093	keystroke	c	n/a
316.1215	0.15	632243	keystroke	o	n/a
316.2115	0.135	632423	keystroke	n	n/a
316.4065	0.09	632813	keystroke	s	n/a
316.6015	0.09	633203	keystroke	t	n/a
316.7815	0.105	633563	keystroke	i	n/a
317.0525	0.074	634105	keystroke	t	n/a
317.2915	0.12	634583	keystroke	u	n/a
317.5315	0.09	635063	keystroke	t	n/a
317.6825	0.1495	635365	keystroke	i	n/a
317.787	0.195	635574	keystroke	o	n/a
317.922	0.195	635844	keystroke	n	n/a
318.057	0.15	636114	keystroke	Key.space	n/a
318.852	0.075	637704	keystroke	a	n/a
318.942	0.12	637884	keystroke	m	n/a
319.182	0.09	638364	keystroke	n	n/a
319.572	0.105	639144	keystroke	Key.backspace	n/a
319.812	0.091	639624	keystroke	a	n/a
319.932	0.09	639864	keystroke	n	n/a
320.053	0.104	640106	keystroke	d	n/a
320.217	0.105	640434	keystroke	a	n/a
320.382	0.15	640764	keystroke	Key.space	n/a
320.787	0.09	641574	keystroke	s	n/a
321.117	0.18	642234	keystroke	m	n/a
321.897	0.09	643794	keystroke	t	n/a
322.092	0.1045	644184	keystroke	p	n/a
322.6015	0.15	645203	keystroke	Key.enter	n/a
322.7585	9.4455	645517	prompt	n/a	fear bulletin rainbow mysql\n
323.6525	0.104	647305	keystroke	f	n/a
323.8465	0.15	647693	keystroke	e	n/a
323.9815	0.165	647963	keystroke	a	n/a
324.1475	0.09	648295	keystroke	r	n/a
325.7215	0.15	651443	keystroke	Key.space	n/a
325.9465	0.106	651893	keystroke	b	n/a
326.0825	0.075	652165	keystroke	u	n/a
326.2465	0.075	652493	keystroke	l	n/a
326.3965	0.105	652793	keystroke	l	n/a
326.5025	0.119	653005	keystroke	e	n/a
326.6365	0.091	653273	keystroke	t	n/a
326.9815	0.15	653963	keystroke	i	n/a
327.6725	0.135	655345	keystroke	n	n/a
327.8365	0.12	655673	keystroke	Key.space	n/a
328.7075	0.195	657415	keystroke	r	n/a
328.8715	0.12	657743	keystroke	a	n/a
328.9615	0.15	657923	keystroke	i	n/a
329.0365	0.15	658073	keystroke	n	n/a
329.2015	0.076	658403	keystroke	b	n/a
329.3215	0.075	658643	keystroke	o	n/a
329.4865	0.091	658973	keystroke	w	n/a
329.9065	0.12	659813	keystroke	Key.space	n/a
330.2365	0.121	660473	keystroke	m	n/a
330.6115	0.091	661223	keystroke	y	n/a
330.9865	0.12	661973	keystroke	s	n/a
331.4815	0.09	662963	keystroke	q	n/a
331.6775	0.104	663355	keystroke	l	n/a
332.0965	0.105	664193	keystroke	Key.enter	n/a
332.211	7.658	664422	prompt	n/a	keep dinner selective requirement\n
333.073	0.105	666146	keystroke	k	n/a
333.238	0.075	666476	keystroke	e	n/a
333.417	0.075	666834	keystroke	e	n/a
333.508	0.12	667016	keystroke	p	n/a
333.642	0.12	667284	keystroke	Key.space	n/a
333.778	0.075	667556	keystroke	d	n/a
333.868	0.06	667736	keystroke	i	n/a
334.063	0.059	668126	keystroke	n	n/a
334.213	0.12	668426	keystroke	n	n/a
334.363	0.15	668726	keystroke	e	n/a
334.453	0.135	668906	keystroke	r	n/a
334.602	0.105	669204	keystroke	Key.space	n/a
334.872	0.061	669744	keystroke	s	n/a
335.083	0.075	670166	keystroke	e	n/a
335.203	0.105	670406	keystroke	l	n/a
335.293	0.075	670586	keystroke	e	n/a
335.533	0.06	671066	keystroke	c	n/a
335.713	0.0445	671426	keystroke	t	n/a
335.8175	0.09	671635	keystroke	i	n/a
335.9225	0.12	671845	keystroke	v	n/a
336.0125	0.09	672025	keystroke	e	n/a
336.2065	0.121	672413	keystroke	Key.space	n/a
336.4025	0.12	672805	keystroke	r	n/a
336.7775	0.075	673555	keystroke	q	n/a
337.1665	0.105	674333	keystroke	Key.backspace	n/a
337.3625	0.135	674725	keystroke	e	n/a
337.6325	0.09	675265	keystroke	q	n/a
337.7675	0.165	675535	keystroke	u	n/a
337.8875	0.135	675775	keystroke	i	n/a
338.0075	0.105	676015	keystroke	r	n/a
338.3525	0.105	676705	keystroke	e	n/a
338.5325	0.135	677065	keystroke	m	n/a
338.6375	0.12	677275	keystroke	e	n/a
338.7725	0.15	677545	keystroke	n	n/a
338.9375	0.075	677875	keystroke	t	n/a
339.7325	0.134	679465	keystroke	Key.enter	n/a
339.874	6.1305	679748	prompt	n/a	harris beans australia norm\n
340.8125	0.12	681625	keystroke	h	n/a
340.8725	0.135	681745	keystroke	a	n/a
340.9925	0.075	681985	keystroke	r	n/a
341.1425	0.105	682285	keystroke	r	n/a
341.2625	0.075	682525	keystroke	i	n/a
341.3675	0.105	682735	keystroke	s	n/a
341.4875	0.135	682975	keystroke	Key.space	n/a
341.8175	0.105	683635	keystroke	b	n/a
342.0275	0.135	684055	keystroke	e	n/a
342.1175	0.105	684235	keystroke	a	n/a
342.2375	0.105	684475	keystroke	n	n/a
342.3725	0.09	684745	keystroke	s	n/a
342.9275	0.12	685855	keystroke	Key.space	n/a
343.1225	0.12	686245	keystroke	a	n/a
343.3175	0.12	686635	keystroke	u	n/a
343.4675	0.18	686935	keystroke	s	n/a
343.6175	0.06	687235	keystroke	t	n/a
343.7825	0.15	687565	keystroke	r	n/a
343.8875	0.12	687775	keystroke	a	n/a
344.0675	0.12	688135	keystroke	l	n/a
344.2925	0.105	688585	keystroke	i	n/a
344.4725	0.09	688945	keystroke	a	n/a
344.6375	0.105	689275	keystroke	Key.space	n/a
344.9075	0.15	689815	keystroke	n	n/a
345.1175	0.075	690235	keystroke	o	n/a
345.2975	0.075	690595	keystroke	r	n/a
345.3575	0.09	690715	keystroke	m	n/a
345.8675	0.135	691735	keystroke	Key.enter	n/a
346.0095	7.465	692019	prompt	n/a	antenna recently messages tower\n
346.8425	0.09	693685	keystroke	a	n/a
347.4875	0.105	694975	keystroke	n	n/a
347.6225	0.075	695245	keystroke	t	n/a
347.8025	0.075	695605	keystroke	e	n/a
347.9825	0.09	695965	keystroke	n	n/a
348.1475	0.135	696295	keystroke	n	n/a
348.3875	0.105	696775	keystroke	a	n/a
348.8225	0.105	697645	keystroke	Key.space	n/a
349.0625	0.135	698125	keystroke	r	n/a
349.1675	0.12	698335	keystroke	e	n/a
349.4225	0.075	698845	keystroke	c	n/a
349.6175	0.075	699235	keystroke	e	n/a
349.6775	0.135	699355	keystroke	n	n/a
349.8575	0.075	699715	keystroke	t	n/a
350.0075	0.24	700015	keystroke	l	n/a
350.1875	0.12	700375	keystroke	y	n/a
350.2625	0.135	700525	keystroke	Key.space	n/a
350.7725	0.135	701545	keystroke	m	n/a
350.8925	0.075	701785	keystroke	e	n/a
351.0875	0.09	702175	keystroke	s	n/a
351.2675	0.09	702535	keystroke	s	n/a
351.4625	0.12	702925	keystroke	a	n/a
351.6125	0.165	703225	keystroke	g	n/a
351.7475	0.12	703495	keystroke	e	n/a
351.8075	0.105	703615	keystroke	s	n/a
351.9425	0.15	703885	keystroke	Key.space	n/a
352.1525	0.09	704305	keystroke	t	n/a
352.5725	0.12	705145	keystroke	o	n/a
352.7375	0.1345	705475	keystroke	w	n/a
352.947	0.18	705894	keystroke	e	n/a
353.0825	0.12	706165	keystroke	r	n/a
353.3675	0.105	706735	keystroke	Key.enter	n/a
353.48	6.4445	706960	prompt	n/a	roman develop defence loving\n
354.3125	0.09	708625	keystroke	r	n/a
354.4475	0.165	708895	keystroke	o	n/a
354.5975	0.12	709195	keystroke	m	n/a
354.7475	0.075	709495	keystroke	a	n/a
354.9725	0.15	709945	keystroke	n	n/a
355.0925	0.135	710185	keystroke	Key.space	n/a
355.8125	0.09	711625	keystroke	d	n/a
356.0075	0.075	712015	keystroke	e	n/a
356.1575	0.15	712315	keystroke	v	n/a
356.2925	0.075	712585	keystroke	e	n/a
356.4275	0.12	712855	keystroke	l	n/a
356.6975	0.06	713395	keystroke	o	n/a
356.8925	0.09	713785	keystroke	p	n/a
357.2825	0.135	714565	keystroke	Key.space	n/a
357.4625	0.075	714925	keystroke	d	n/a
357.6875	0.105	715375	keystroke	e	n/a
357.8075	0.15	715615	keystroke	f	n/a
357.9275	0.12	715855	keystroke	e	n/a
358.1525	0.12	716305	keystroke	n	n/a
358.2125	0.105	716425	keystroke	c	n/a
358.4525	0.09	716905	keystroke	e	n/a
358.5575	0.135	717115	keystroke	Key.space	n/a
358.6625	0.09	717325	keystroke	l	n/a
359.0525	0.075	718105	keystroke	o	n/a
359.1875	0.09	718375	keystroke	v	n/a
359.3075	0.165	718615	keystroke	i	n/a
359.4125	0.135	718825	keystroke	n	n/a
359.5325	0.06	719065	keystroke	g	n/a
359.7875	0.135	719575	keystroke	Key.enter	n/a
359.9295	10.705	719859	prompt	n/a	brazilian distributed athens expressions\n
360.9275	0.09	721855	keystroke	b	n/a
361.2575	0.105	722515	keystroke	r	n/a
361.4675	0.09	722935	keystroke	a	n/a
361.7525	0.135	723505	keystroke	z	n/a
362.2175	0.135	724435	keystroke	i	n/a
362.5025	0.105	725005	keystroke	l	n/a
362.7575	0.09	725515	keystroke	i	n/a
362.9825	0.09	725965	keystroke	a	n/a
363.1325	0.195	726265	keystroke	n	n/a
363.2525	0.165	726505	keystroke	Key.space	n/a
363.5375	0.06	727075	keystroke	d	n/a
363.7025	0.105	727405	keystroke	i	n/a
363.7925	0.12	727585	keystroke	s	n/a
363.9425	0.03	727885	keystroke	s	n/a
363.9575	0.06	727915	keystroke	t	n/a
364.1225	0.105	728245	keystroke	r	n/a
364.2125	0.09	728425	keystroke	i	n/a
364.6325	0.075	729265	keystroke	Key.backspace	n/a
364.7975	0.075	729595	keystroke	Key.backspace	n/a
364.9775	0.09	729955	keystroke	Key.backspace	n/a
365.3975	0.09	730795	keystroke	Key.backspace	n/a
365.9225	0.06	731845	keystroke	t	n/a
366.1025	0.12	732205	keystroke	r	n/a
366.2675	0.09	732535	keystroke	i	n/a
366.4775	0.105	732955	keystroke	b	n/a
366.5975	0.12	733195	keystroke	u	n/a
366.7625	0.105	733525	keystroke	t	n/a
366.8825	0.09	733765	keystroke	e	n/a
367.1225	0.09	734245	keystroke	d	n/a
367.1975	0.135	734395	keystroke	Key.space	n/a
367.9325	0.075	735865	keystroke	a	n/a
368.0825	0.09	736165	keystroke	t	n/a
368.2175	0.06	736435	keystroke	h	n/a
368.3075	0.075	736615	keystroke	e	n/a
368.4125	0.12	736825	keystroke	n	n/a
368.5175	0.09	737035	keystroke	s	n/a
368.6225	0.105	737245	keystroke	Key.space	n/a
368.8025	0.075	737605	keystroke	e	n/a
369.0425	0.12	738085	keystroke	x	n/a
369.1325	0.105	738265	keystroke	p	n/a
369.2975	0.135	738595	keystroke	r	n/a
369.3875	0.12	738775	keystroke	e	n/a
369.5375	0.09	739075	keystroke	s	n/a
369.7025	0.105	739405	keystroke	s	n/a
369.8225	0.15	739645	keystroke	i	n/a
369.9425	0.195	739885	keystroke	o	n/a
370.0775	0.165	740155	keystroke	n	n/a
370.1825	0.105	740365	keystroke	s	n/a
370.5275	0.105	741055	keystroke	Key.enter	n/a
370.6385	8.156	741277	prompt	n/a	introductory spectrum solid printer\n
371.4575	0.165	742915	keystroke	i	n/a
371.5475	0.15	743095	keystroke	n	n/a
371.6825	0.06	743365	keystroke	t	n/a
371.8475	0.09	743695	keystroke	r	n/a
371.8925	0.09	743785	keystroke	o	n/a
372.1025	0.06	744205	keystroke	c	n/a
372.1625	0.12	744325	keystroke	u	n/a
372.8975	0.075	745795	keystroke	Key.backspace	n/a
373.3775	0.09	746755	keystroke	Key.backspace	n/a
373.9175	0.09	747835	keystroke	d	n/a
374.0525	0.12	748105	keystroke	u	n/a
374.1875	0.06	748375	keystroke	c	n/a
374.3825	0.09	748765	keystroke	t	n/a
374.4875	0.105	748975	keystroke	o	n/a
374.6225	0.09	749245	keystroke	r	n/a
374.7875	0.135	749575	keystroke	y	n/a
374.8775	0.135	749755	keystroke	Key.space	n/a
375.4025	0.075	750805	keystroke	s	n/a
375.4925	0.105	750985	keystroke	p	n/a
375.5825	0.075	751165	keystroke	e	n/a
375.7775	0.075	751555	keystroke	c	n/a
375.9875	0.045	751975	keystroke	t	n/a
376.1675	0.09	752335	keystroke	r	n/a
376.3025	0.12	752605	keystroke	u	n/a
376.6025	0.165	753205	keystroke	m	n/a
376.7225	0.15	753445	keystroke	Key.space	n/a
377.0375	0.105	754075	keystroke	s	n/a
377.1275	0.09	754255	keystroke	o	n/a
377.3375	0.15	754675	keystroke	l	n/a
377.4275	0.135	754855	keystroke	i	n/a
377.5025	0.105	755005	keystroke	d	n/a
377.6225	0.12	755245	keystroke	Key.space	n/a
377.7275	0.075	755455	keystroke	p	n/a
377.8175	0.075	755635	keystroke	r	n/a
377.9375	0.165	755875	keystroke	i	n/a
378.0425	0.165	756085	keystroke	n	n/a
378.1625	0.09	756325	keystroke	t	n/a
378.2375	0.165	756475	keystroke	e	n/a
378.3875	0.09	756775	keystroke	r	n/a
378.6725	0.12	757345	keystroke	Key.enter	n/a
378.7995	5.364	757599	prompt	n/a	poly vacation jeep fields\n
379.6925	0.09	759385	keystroke	p	n/a
379.8875	0.09	759775	keystroke	o	n/a
380.4425	0.105	760885	keystroke	l	n/a
380.7425	0.165	761485	keystroke	y	n/a
380.8775	0.135	761755	keystroke	Key.space	n/a
381.1475	0.105	762295	keystroke	v	n/a
381.3125	0.09	762625	keystroke	a	n/a
381.5075	0.06	763015	keystroke	c	n/a
381.6575	0.105	763315	keystroke	a	n/a
381.7325	0.105	763465	keystroke	t	n/a
381.8525	0.135	763705	keystroke	i	n/a
381.9575	0.195	763915	keystroke	o	n/a
382.1075	0.15	764215	keystroke	n	n/a
382.2275	0.15	764455	keystroke	Key.space	n/a
382.3785	0.149	764757	keystroke	j	n/a
382.5275	0.075	765055	keystroke	e	n/a
382.6925	0.105	765385	keystroke	e	n/a
382.812	0.15	765624	keystroke	p	n/a
382.947	0.1205	765894	keystroke	Key.space	n/a
383.0675	0.0745	766135	keystroke	f	n/a
383.1575	0.0895	766315	keystroke	i	n/a
383.2325	0.0745	766465	keystroke	e	n/a
383.352	0.105	766704	keystroke	l	n/a
383.442	0.15	766884	keystroke	d	n/a
383.547	0.12	767094	keystroke	s	n/a
384.042	0.12	768084	keystroke	Key.enter	n/a
384.168	7.541	768336	prompt	n/a	transform missed competitions former\n
385.032	0.045	770064	keystroke	t	n/a
385.197	0.135	770394	keystroke	r	n/a
385.272	0.135	770544	keystroke	a	n/a
385.392	0.12	770784	keystroke	n	n/a
385.527	0.09	771054	keystroke	s	n/a
385.707	0.09	771414	keystroke	f	n/a
385.827	0.105	771654	keystroke	o	n/a
385.962	0.09	771924	keystroke	r	n/a
386.127	0.18	772254	keystroke	m	n/a
386.262	0.135	772524	keystroke	Key.space	n/a
386.562	0.18	773124	keystroke	m	n/a
386.727	0.105	773454	keystroke	i	n/a
386.862	0.06	773724	keystroke	s	n/a
387.012	0.105	774024	keystroke	s	n/a
387.207	0.06	774414	keystroke	e	n/a
387.372	0.09	774744	keystroke	d	n/a
387.477	0.12	774954	keystroke	Key.space	n/a
387.642	0.09	775284	keystroke	c	n/a
387.747	0.12	775494	keystroke	o	n/a
387.868	0.149	775736	keystroke	m	n/a
387.972	0.105	775944	keystroke	p	n/a
388.152	0.15	776304	keystroke	e	n/a
388.392	0.09	776784	keystroke	t	n/a
388.542	0.105	777084	keystroke	i	n/a
388.662	0.09	777324	keystroke	t	n/a
388.767	0.105	777534	keystroke	i	n/a
388.827	0.21	777654	keystroke	o	n/a
388.977	0.15	777954	keystroke	n	n/a
389.112	0.09	778224	keystroke	s	n/a
389.322	0.135	778644	keystroke	Key.space	n/a
389.607	0.075	779214	keystroke	f	n/a
389.757	0.09	779514	keystroke	o	n/a
389.862	0.075	779724	keystroke	r	n/a
389.997	0.12	779994	keystroke	m	n/a
390.102	0.165	780204	keystroke	e	n/a
390.222	0.105	780444	keystroke	r	n/a
391.602	0.105	783204	keystroke	Key.enter	n/a
391.7145	5.6495	783429	prompt	n/a	kills treasure encourages bowl\n
392.502	0.075	785004	keystroke	k	n/a
392.667	0.075	785334	keystroke	i	n/a
392.862	0.045	785724	keystroke	l	n/a
393.012	0.105	786024	keystroke	l	n/a
393.118	0.119	786236	keystroke	s	n/a
393.192	0.165	786384	keystroke	Key.space	n/a
393.372	0.075	786744	keystroke	t	n/a
393.567	0.12	787134	keystroke	r	n/a
393.657	0.135	787314	keystroke	e	n/a
393.777	0.105	787554	keystroke	a	n/a
393.987	0.105	787974	keystroke	s	n/a
394.137	0.12	788274	keystroke	u	n/a
394.272	0.105	788544	keystroke	r	n/a
394.332	0.105	788664	keystroke	e	n/a
394.722	0.105	789444	keystroke	Key.space	n/a
394.902	0.075	789804	keystroke	e	n/a
395.037	0.09	790074	keystroke	n	n/a
395.142	0.09	790284	keystroke	c	n/a
395.322	0.105	790644	keystroke	o	n/a
395.412	0.135	790824	keystroke	u	n/a
395.532	0.135	791064	keystroke	r	n/a
395.697	0.135	791394	keystroke	a	n/a
395.877	0.135	791754	keystroke	g	n/a
395.937	0.15	791874	keystroke	e	n/a
396.057	0.09	792114	keystroke	s	n/a
396.177	0.12	792354	keystroke	Key.space	n/a
396.357	0.105	792714	keystroke	b	n/a
396.522	0.105	793044	keystroke	o	n/a
396.792	0.09	793584	keystroke	w	n/a
396.897	0.135	793794	keystroke	l	n/a
397.242	0.12	794484	keystroke	Key.enter	n/a
397.3685	7.7205	794737	prompt	n/a	threatening pete spatial we\n
398.142	0.06	796284	keystroke	t	n/a
398.322	0.12	796644	keystroke	r	n/a
398.382	0.09	796764	keystroke	h	n/a
398.952	0.045	797904	keystroke	Key.backspace	n/a
399.102	0.075	798204	keystroke	Key.backspace	n/a
399.357	0.105	798714	keystroke	h	n/a
399.702	0.09	799404	keystroke	r	n/a
399.852	0.09	799704	keystroke	e	n/a
400.017	0.12	800034	keystroke	a	n/a
400.302	0.06	800604	keystroke	t	n/a
400.452	0.09	800904	keystroke	e	n/a
400.572	0.12	801144	keystroke	n	n/a
400.707	0.18	801414	keystroke	i	n/a
400.827	0.24	801654	keystroke	n	n/a
400.962	0.075	801924	keystroke	g	n/a
401.052	0.165	802104	keystroke	Key.space	n/a
401.367	0.09	802734	keystroke	p	n/a
401.487	0.12	802974	keystroke	e	n/a
401.682	0.135	803364	keystroke	t	n/a
401.802	0.105	803604	keystroke	e	n/a
401.937	0.12	803874	keystroke	Key.space	n/a
402.207	0.105	804414	keystroke	s	n/a
402.342	0.105	804684	keystroke	p	n/a
402.492	0.06	804984	keystroke	a	n/a
402.687	0.075	805374	keystroke	t	n/a
402.807	0.075	805614	keystroke	i	n/a
402.942	0.09	805884	keystroke	a	n/a
403.047	0.135	806094	keystroke	l	n/a
403.183	0.119	806366	keystroke	Key.space	n/a
403.407	0.075	806814	keystroke	w	n/a
403.602	0.09	807204	keystroke	e	n/a
404.937	0.15	809874	keystroke	Key.enter	n/a
405.094	5.5155	810188	prompt	n/a	published teacher forming purse\n
406.002	0.105	812004	keystroke	p	n/a
406.152	0.121	812304	keystroke	u	n/a
406.302	0.075	812604	keystroke	b	n/a
406.392	0.18	812784	keystroke	l	n/a
406.497	0.12	812994	keystroke	i	n/a
406.587	0.105	813174	keystroke	s	n/a
406.737	0.135	813474	keystroke	h	n/a
406.797	0.06	813594	keystroke	e	n/a
406.993	0.089	813986	keystroke	d	n/a
407.097	0.12	814194	keystroke	Key.space	n/a
407.352	0.075	814704	keystroke	t	n/a
407.547	0.09	815094	keystroke	e	n/a
407.652	0.09	815304	keystroke	a	n/a
407.832	0.105	815664	keystroke	c	n/a
407.952	0.105	815904	keystroke	h	n/a
408.102	0.135	816204	keystroke	e	n/a
408.192	0.12	816384	keystroke	r	n/a
408.297	0.12	816594	keystroke	Key.space	n/a
408.432	0.075	816864	keystroke	f	n/a
408.537	0.075	817074	keystroke	o	n/a
408.628	0.089	817256	keystroke	r	n/a
408.732	0.09	817464	keystroke	m	n/a
408.867	0.181	817734	keystroke	i	n/a
408.987	0.21	817974	keystroke	n	n/a
409.092	0.12	818184	keystroke	g	n/a
409.167	0.15	818334	keystroke	Key.space	n/a
409.318	0.12	818636	keystroke	p	n/a
409.468	0.134	818936	keystroke	u	n/a
409.677	0.045	819354	keystroke	r	n/a
409.932	0.165	819864	keystroke	s	n/a
410.082	0.105	820164	keystroke	e	n/a
410.502	0.105	821004	keystroke	Key.enter	n/a
410.6145	5.4405	821229	prompt	n/a	feeling sudden nickname nodes\n
411.343	0.074	822686	keystroke	f	n/a
411.522	0.06	823044	keystroke	e	n/a
411.687	0.09	823374	keystroke	e	n/a
411.807	0.211	823614	keystroke	l	n/a
411.912	0.135	823824	keystroke	i	n/a
411.987	0.24	823974	keystroke	n	n/a
412.077	0.075	824154	keystroke	g	n/a
412.167	0.135	824334	keystroke	Key.space	n/a
412.317	0.091	824634	keystroke	s	n/a
412.467	0.105	824934	keystroke	u	n/a
412.542	0.075	825084	keystroke	d	n/a
412.707	0.06	825414	keystroke	d	n/a
412.917	0.045	825834	keystroke	e	n/a
413.112	0.12	826224	keystroke	n	n/a
413.367	0.105	826734	keystroke	Key.space	n/a
413.638	0.149	827276	keystroke	n	n/a
413.773	0.104	827546	keystroke	i	n/a
413.907	0.105	827814	keystroke	c	n/a
414.057	0.105	828114	keystroke	k	n/a
414.312	0.091	828624	keystroke	n	n/a
414.447	0.09	828894	keystroke	a	n/a
414.552	0.105	829104	keystroke	m	n/a
414.718	0.074	829436	keystroke	e	n/a
414.867	0.12	829734	keystroke	Key.space	n/a
415.047	0.151	830094	keystroke	n	n/a
415.167	0.12	830334	keystroke	o	n/a
415.273	0.09	830546	keystroke	d	n/a
415.482	0.136	830964	keystroke	e	n/a
415.543	0.135	831086	keystroke	s	n/a
415.902	0.15	831804	keystroke	Key.enter	n/a
416.065	6.244	832130	prompt	n/a	prize where've domestic sleeps\n
417.058	0.09	834116	keystroke	p	n/a
417.223	0.105	834446	keystroke	r	n/a
417.343	0.105	834686	keystroke	i	n/a
417.493	0.105	834986	keystroke	z	n/a
417.733	0.06	835466	keystroke	e	n/a
417.927	0.12	835854	keystroke	Key.space	n/a
418.183	0.075	836366	keystroke	w	n/a
418.318	0.119	836636	keystroke	h	n/a
418.408	0.12	836816	keystroke	e	n/a
418.513	0.149	837026	keystroke	r	n/a
419.082	0.075	838164	keystroke	e	n/a
419.307	0.106	838614	keystroke	'	n/a
419.488	0.105	838976	keystroke	v	n/a
419.577	0.091	839154	keystroke	e	n/a
419.742	0.15	839484	keystroke	Key.space	n/a
420.013	0.105	840026	keystroke	d	n/a
420.177	0.076	840354	keystroke	o	n/a
420.313	0.135	840626	keystroke	m	n/a
420.418	0.09	840836	keystroke	e	n/a
420.628	0.134	841256	keystroke	s	n/a
420.703	0.09	841406	keystroke	t	n/a
420.853	0.075	841706	keystroke	i	n/a
420.973	0.12	841946	keystroke	c	n/a
421.137	0.12	842274	keystroke	Key.space	n/a
421.287	0.091	842574	keystroke	s	n/a
421.408	0.12	842816	keystroke	l	n/a
421.543	0.075	843086	keystroke	e	n/a
421.707	0.075	843414	keystroke	e	n/a
421.798	0.15	843596	keystroke	p	n/a
421.932	0.091	843864	keystroke	s	n/a
422.172	0.135	844344	keystroke	Key.enter	n/a
422.3125	6.3265	844625	prompt	n/a	forced adopt voltage bacteria\n
423.268	0.075	846536	keystroke	f	n/a
423.508	0.09	847016	keystroke	o	n/a
423.702	0.06	847404	keystroke	r	n/a
423.913	0.09	847826	keystroke	c	n/a
424.123	0.06	848246	keystroke	e	n/a
424.303	0.0895	848606	keystroke	d	n/a
424.377	0.1205	848754	keystroke	Key.space	n/a
424.5425	0.075	849085	keystroke	a	n/a
424.708	0.09	849416	keystroke	d	n/a
424.828	0.0445	849656	keystroke	o	n/a
425.0075	0.105	850015	keystroke	p	n/a
425.2025	0.075	850405	keystroke	t	n/a
425.3365	0.121	850673	keystroke	Key.space	n/a
425.5775	0.09	851155	keystroke	v	n/a
425.6825	0.045	851365	keystroke	o	n/a
425.8475	0.09	851695	keystroke	l	n/a
426.0425	0.105	852085	keystroke	t	n/a
426.1325	0.15	852265	keystroke	a	n/a
426.3275	0.15	852655	keystroke	g	n/a
426.4625	0.075	852925	keystroke	e	n/a
426.5975	0.135	853195	keystroke	Key.space	n/a
427.1375	0.12	854275	keystroke	b	n/a
427.3475	0.12	854695	keystroke	a	n/a
427.5125	0.09	855025	keystroke	c	n/a
427.7375	0.105	855475	keystroke	t	n/a
427.8275	0.15	855655	keystroke	e	n/a
427.9625	0.12	855925	keystroke	r	n/a
428.1275	0.12	856255	keystroke	i	n/a
428.2625	0.105	856525	keystroke	a	n/a
428.5175	0.119	857035	keystroke	Key.enter	n/a
428.644	9.9255	857288	prompt	n/a	remove y'all norm different\n
429.5975	0.09	859195	keystroke	r	n/a
429.7025	0.105	859405	keystroke	e	n/a
429.8675	0.12	859735	keystroke	m	n/a
430.1525	0.105	860305	keystroke	o	n/a
430.3475	0.015	860695	keystroke	v	n/a
430.4225	0.06	860845	keystroke	e	n/a
430.993	0.119	861986	keystroke	Key.space	n/a
431.338	0.09	862676	keystroke	y	n/a
431.473	0.075	862946	keystroke	a	n/a
431.623	0.12	863246	keystroke	'	n/a
432.133	0.104	864266	keystroke	Key.backspace	n/a
432.373	0.089	864746	keystroke	Key.backspace	n/a
433.108	0.12	866216	keystroke	'	n/a
433.333	0.09	866666	keystroke	a	n/a
434.068	0.06	868136	keystroke	l	n/a
434.218	0.15	868436	keystroke	l	n/a
434.353	0.104	868706	keystroke	Key.space	n/a
434.533	0.12	869066	keystroke	n	n/a
434.638	0.075	869276	keystroke	o	n/a
434.728	0.075	869456	keystroke	r	n/a
434.893	0.165	869786	keystroke	m	n/a
435.013	0.135	870026	keystroke	Key.space	n/a
435.838	0.06	871676	keystroke	d	n/a
435.913	0.09	871826	keystroke	i	n/a
436.033	0.075	872066	keystroke	f	n/a
436.198	0.105	872396	keystroke	f	n/a
436.363	0.09	872726	keystroke	e	n/a
436.468	0.12	872936	keystroke	r	n/a
436.573	0.06	873146	keystroke	e	n/a
436.678	0.135	873356	keystroke	n	n/a
436.828	0.075	873656	keystroke	c	n/a
437.248	0.09	874496	keystroke	Key.backspace	n/a
437.398	0.09	874796	keystroke	t	n/a
438.4325	0.135	876865	keystroke	Key.enter	n/a
438.5735	7.466	877147	prompt	n/a	they're locked coupon northwest\n
439.4675	0.06	878935	keystroke	t	n/a
439.5425	0.09	879085	keystroke	h	n/a
439.6475	0.06	879295	keystroke	e	n/a
439.7525	0.09	879505	keystroke	y	n/a
439.9025	0.15	879805	keystroke	'	n/a
439.9925	0.135	879985	keystroke	r	n/a
440.1125	0.09	880225	keystroke	e	n/a
440.1575	0.135	880315	keystroke	Key.space	n/a
440.2775	0.09	880555	keystroke	l	n/a
440.4725	0.075	880945	keystroke	o	n/a
440.5325	0.105	881065	keystroke	c	n/a
440.6525	0.105	881305	keystroke	k	n/a
440.7575	0.06	881515	keystroke	e	n/a
440.9375	0.075	881875	keystroke	d	n/a
441.0275	0.135	882055	keystroke	Key.space	n/a
442.4975	0.09	884995	keystroke	c	n/a
442.6025	0.105	885205	keystroke	o	n/a
442.6925	0.18	885385	keystroke	u	n/a
442.8425	0.12	885685	keystroke	p	n/a
443.0975	0.12	886195	keystroke	o	n/a
443.1725	0.195	886345	keystroke	n	n/a
443.3375	0.12	886675	keystroke	Key.space	n/a
443.7875	0.12	887575	keystroke	n	n/a
444.0875	0.09	888175	keystroke	o	n/a
444.2375	0.09	888475	keystroke	r	n/a
444.4325	0.06	888865	keystroke	t	n/a
444.5075	0.09	889015	keystroke	h	n/a
444.7625	0.09	889525	keystroke	w	n/a
444.9575	0.105	889915	keystroke	e	n/a
445.1225	0.12	890245	keystroke	s	n/a
445.1825	0.09	890365	keystroke	t	n/a
445.9175	0.12	891835	keystroke	Key.enter	n/a
446.044	7.765	892088	prompt	n/a	publicly bolivia virus ralph\n
447.1325	0.12	894265	keystroke	p	n/a
447.8375	0.12	895675	keystroke	u	n/a
448.0025	0.09	896005	keystroke	b	n/a
448.1675	0.18	896335	keystroke	l	n/a
448.2875	0.12	896575	keystroke	i	n/a
448.3925	0.09	896785	keystroke	c	n/a
448.9925	0.12	897985	keystroke	l	n/a
449.3075	0.15	898615	keystroke	y	n/a
449.4125	0.15	898825	keystroke	Key.space	n/a
449.6975	0.09	899395	keystroke	b	n/a
449.9225	0.06	899845	keystroke	o	n/a
450.1475	0.15	900295	keystroke	l	n/a
450.3275	0.09	900655	keystroke	i	n/a
450.5375	0.105	901075	keystroke	v	n/a
450.6275	0.09	901255	keystroke	i	n/a
450.9875	0.09	901975	keystroke	a	n/a
451.0625	0.15	902125	keystroke	Key.space	n/a
451.3625	0.075	902725	keystroke	v	n/a
451.4525	0.06	902905	keystroke	i	n/a
451.5575	0.075	903115	keystroke	r	n/a
451.6625	0.12	903325	keystroke	u	n/a
451.7975	0.105	903595	keystroke	s	n/a
451.9775	0.135	903955	keystroke	Key.space	n/a
452.6525	0.105	905305	keystroke	r	n/a
452.8325	0.135	905665	keystroke	a	n/a
452.9375	0.12	905875	keystroke	l	n/a
453.1925	0.12	906385	keystroke	p	n/a
453.4175	0.09	906835	keystroke	h	n/a
453.7025	0.105	907405	keystroke	Key.enter	n/a
453.8145	10.78	907629	prompt	n/a	strings origins arbitration allowance\n
456.6905	0.057	913381	keystroke	s	n/a
456.8225	0.075	913645	keystroke	t	n/a
457.0025	0.09	914005	keystroke	r	n/a
457.0625	0.15	914125	keystroke	i	n/a
457.1525	0.15	914305	keystroke	n	n/a
457.2725	0.135	914545	keystroke	g	n/a
457.4075	0.09	914815	keystroke	s	n/a
458.1125	0.12	916225	keystroke	Key.space	n/a
458.4125	0.135	916825	keystroke	o	n/a
458.6675	0.09	917335	keystroke	r	n/a
458.8625	0.06	917725	keystroke	i	n/a
458.9375	0.105	917875	keystroke	g	n/a
459.0575	0.12	918115	keystroke	i	n/a
459.1325	0.15	918265	keystroke	n	n/a
459.3425	0.09	918685	keystroke	s	n/a
460.3475	0.12	920695	keystroke	Key.space	n/a
460.6025	0.12	921205	keystroke	a	n/a
460.9175	0.075	921835	keystroke	r	n/a
461.2025	0.105	922405	keystroke	b	n/a
461.3525	0.12	922705	keystroke	i	n/a
461.6225	0.075	923245	keystroke	t	n/a
461.8325	0.135	923665	keystroke	r	n/a
461.9525	0.135	923905	keystroke	a	n/a
462.1025	0.09	924205	keystroke	t	n/a
462.2075	0.12	924415	keystroke	i	n/a
462.2975	0.18	924595	keystroke	o	n/a
462.4325	0.165	924865	keystroke	n	n/a
462.5375	0.15	925075	keystroke	Key.space	n/a
463.0475	0.09	926095	keystroke	a	n/a
463.1225	0.075	926245	keystroke	l	n/a
463.3025	0.06	926605	keystroke	l	n/a
463.4825	0.075	926965	keystroke	o	n/a
463.5425	0.09	927085	keystroke	w	n/a
463.7675	0.105	927535	keystroke	a	n/a
463.8575	0.105	927715	keystroke	n	n/a
463.9775	0.105	927955	keystroke	c	n/a
464.2325	0.06	928465	keystroke	e	n/a
464.4575	0.135	928915	keystroke	Key.enter	n/a
464.599	8.1555	929198	prompt	n/a	conclude impression fortune maldives\n
465.6275	0.09	931255	keystroke	c	n/a
465.6875	0.135	931375	keystroke	o	n/a
465.7925	0.12	931585	keystroke	n	n/a
465.8975	0.09	931795	keystroke	c	n/a
466.0625	0.18	932125	keystroke	l	n/a
466.1825	0.165	932365	keystroke	u	n/a
466.3175	0.09	932635	keystroke	d	n/a
466.5275	0.075	933055	keystroke	e	n/a
466.6325	0.15	933265	keystroke	Key.space	n/a
466.9475	0.15	933895	keystroke	i	n/a
467.0375	0.225	934075	keystroke	m	n/a
467.2025	0.09	934405	keystroke	p	n/a
467.3225	0.12	934645	keystroke	r	n/a
467.5325	0.105	935065	keystroke	s	n/a
467.9225	0.105	935845	keystroke	Key.backspace	n/a
468.0125	0.105	936025	keystroke	e	n/a
468.2525	0.06	936505	keystroke	s	n/a
468.3875	0.12	936775	keystroke	s	n/a
468.4775	0.135	936955	keystroke	i	n/a
468.5825	0.195	937165	keystroke	o	n/a
468.7175	0.18	937435	keystroke	n	n/a
468.8375	0.165	937675	keystroke	Key.space	n/a
469.6175	0.06	939235	keystroke	f	n/a
469.7675	0.075	939535	keystroke	o	n/a
469.8425	0.09	939685	keystroke	r	n/a
470.0525	0.06	940105	keystroke	t	n/a
470.1275	0.12	940255	keystroke	u	n/a
470.3825	0.15	940765	keystroke	n	n/a
470.4725	0.09	940945	keystroke	e	n/a
470.6225	0.105	941245	keystroke	Key.space	n/a
470.8775	0.12	941755	keystroke	m	n/a
471.0275	0.105	942055	keystroke	a	n/a
471.4475	0.105	942895	keystroke	l	n/a
471.7325	0.09	943465	keystroke	d	n/a
471.8975	0.09	943795	keystroke	i	n/a
472.0325	0.135	944065	keystroke	v	n/a
472.1375	0.15	944275	keystroke	e	n/a
472.3025	0.135	944605	keystroke	s	n/a
472.6175	0.135	945235	keystroke	Key.enter	n/a
472.759	8.785	945518	prompt	n/a	future restrict committees properties\n
473.6825	0.09	947365	keystroke	f	n/a
473.8175	0.12	947635	keystroke	u	n/a
473.9525	0.06	947905	keystroke	t	n/a
474.0875	0.105	948175	keystroke	u	n/a
474.1475	0.15	948295	keystroke	r	n/a
474.2675	0.12	948535	keystroke	e	n/a
474.4025	0.12	948805	keystroke	Key.space	n/a
474.8375	0.105	949675	keystroke	r	n/a
475.0025	0.09	950005	keystroke	e	n/a
475.2125	0.135	950425	keystroke	s	n/a
475.3175	0.06	950635	keystroke	t	n/a
475.5275	0.09	951055	keystroke	r	n/a
475.6625	0.135	951325	keystroke	i	n/a
475.8275	0.105	951655	keystroke	c	n/a
476.1125	0.045	952225	keystroke	t	n/a
476.2775	0.12	952555	keystroke	Key.space	n/a
476.6975	0.105	953395	keystroke	c	n/a
476.7875	0.075	953575	keystroke	o	n/a
476.9975	0.09	953995	keystroke	m	n/a
477.1925	0.15	954385	keystroke	m	n/a
477.3275	0.105	954655	keystroke	i	n/a
477.4475	0.06	954895	keystroke	t	n/a
477.5825	0.09	955165	keystroke	t	n/a
477.8985	0.059	955797	keystroke	e	n/a
478.0475	0.09	956095	keystroke	e	n/a
478.3475	0.09	956695	keystroke	s	n/a
478.5125	0.135	957025	keystroke	Key.space	n/a
478.8725	0.09	957745	keystroke	r	n/a
479.3675	0.105	958735	keystroke	Key.backspace	n/a
479.8025	0.12	959605	keystroke	p	n/a
479.9825	0.1045	959965	keystroke	r	n/a
480.117	0.09	960234	keystroke	o	n/a
480.3725	0.0895	960745	keystroke	p	n/a
480.537	0.12	961074	keystroke	e	n/a
480.612	0.09	961224	keystroke	r	n/a
480.822	0.09	961644	keystroke	t	n/a
480.927	0.09	961854	keystroke	i	n/a
481.032	0.12	962064	keystroke	e	n/a
481.107	0.12	962214	keystroke	s	n/a
481.422	0.12	962844	keystroke	Key.enter	n/a
481.549	6.7155	963098	prompt	n/a	nails itunes educators august\n
482.472	0.09	964944	keystroke	n	n/a
482.563	0.089	965126	keystroke	a	n/a
482.682	0.18	965364	keystroke	i	n/a
482.817	0.15	965634	keystroke	l	n/a
482.937	0.105	965874	keystroke	s	n/a
483.027	0.135	966054	keystroke	Key.space	n/a
483.612	0.09	967224	keystroke	i	n/a
483.822	0.075	967644	keystroke	t	n/a
483.927	0.09	967854	keystroke	u	n/a
484.167	0.12	968334	keystroke	n	n/a
484.242	0.135	968484	keystroke	e	n/a
484.392	0.12	968784	keystroke	s	n/a
484.572	0.12	969144	keystroke	Key.space	n/a
485.112	0.06	970224	keystroke	e	n/a
485.322	0.075	970644	keystroke	d	n/a
485.457	0.135	970914	keystroke	u	n/a
485.532	0.105	971064	keystroke	c	n/a
485.817	0.105	971634	keystroke	a	n/a
485.997	0.06	971994	keystroke	t	n/a
486.102	0.09	972204	keystroke	o	n/a
486.207	0.12	972414	keystroke	r	n/a
486.402	0.105	972804	keystroke	s	n/a
486.912	0.105	973824	keystroke	Key.space	n/a
487.062	0.09	974124	keystroke	a	n/a
487.467	0.075	974934	keystroke	u	n/a
487.572	0.075	975144	keystroke	g	n/a
487.662	0.135	975324	keystroke	u	n/a
487.812	0.15	975624	keystroke	s	n/a
487.902	0.09	975804	keystroke	t	n/a
488.127	0.135	976254	keystroke	Key.enter	n/a
488.2705	4.4785	976541	prompt	n/a	speaks largely he triple\n
489.237	0.105	978474	keystroke	s	n/a
489.3275	0.1345	978655	keystroke	p	n/a
489.447	0.12	978894	keystroke	e	n/a
489.507	0.12	979014	keystroke	a	n/a
489.628	0.119	979256	keystroke	k	n/a
489.717	0.12	979434	keystroke	s	n/a
489.822	0.12	979644	keystroke	Key.space	n/a
489.957	0.12	979914	keystroke	l	n/a
490.092	0.15	980184	keystroke	a	n/a
490.167	0.09	980334	keystroke	r	n/a
490.392	0.105	980784	keystroke	g	n/a
490.527	0.135	981054	keystroke	e	n/a
490.707	0.255	981414	keystroke	l	n/a
490.857	0.15	981714	keystroke	y	n/a
490.947	0.15	981894	keystroke	Key.space	n/a
491.457	0.105	982914	keystroke	h	n/a
491.532	0.12	983064	keystroke	e	n/a
491.667	0.15	983334	keystroke	Key.space	n/a
491.772	0.06	983544	keystroke	t	n/a
491.937	0.105	983874	keystroke	r	n/a
492.012	0.135	984024	keystroke	i	n/a
492.132	0.18	984264	keystroke	p	n/a
492.267	0.15	984534	keystroke	l	n/a
492.387	0.09	984774	keystroke	e	n/a
492.612	0.135	985224	keystroke	Key.enter	n/a
492.7655	5.429	985531	prompt	n/a	dollar decline stunning grade\n
493.467	0.076	986934	keystroke	d	n/a
493.692	0.075	987384	keystroke	o	n/a
493.902	0.061	987804	keystroke	l	n/a
494.052	0.12	988104	keystroke	l	n/a
494.262	0.166	988524	keystroke	a	n/a
494.337	0.135	988674	keystroke	r	n/a
494.487	0.105	988974	keystroke	Key.space	n/a
494.712	0.09	989424	keystroke	d	n/a
494.922	0.075	989844	keystroke	e	n/a
495.132	0.105	990264	keystroke	c	n/a
495.252	0.225	990504	keystroke	l	n/a
495.372	0.165	990744	keystroke	i	n/a
495.462	0.225	990924	keystroke	n	n/a
495.552	0.105	991104	keystroke	e	n/a
495.672	0.15	991344	keystroke	Key.space	n/a
495.852	0.15	991704	keystroke	s	n/a
495.972	0.105	991944	keystroke	t	n/a
496.107	0.105	992214	keystroke	u	n/a
496.377	0.045	992754	keystroke	n	n/a
496.512	0.135	993024	keystroke	n	n/a
496.662	0.165	993324	keystroke	i	n/a
496.767	0.181	993534	keystroke	n	n/a
496.887	0.09	993774	keystroke	g	n/a
496.917	0.18	993834	keystroke	Key.space	n/a
497.217	0.075	994434	keystroke	g	n/a
497.458	0.149	994916	keystroke	r	n/a
497.577	0.105	995154	keystroke	a	n/a
497.772	0.075	995544	keystroke	d	n/a
497.967	0.105	995934	keystroke	e	n/a
498.057	0.135	996114	keystroke	Key.enter	n/a
498.199	8.018	996398	prompt	n/a	nevada referenced allan reprint\n
499.107	0.12	998214	keystroke	n	n/a
499.212	0.06	998424	keystroke	e	n/a
499.407	0.12	998814	keystroke	v	n/a
499.572	0.075	999144	keystroke	a	n/a
499.752	0.075	999504	keystroke	d	n/a
499.977	0.12	999954	keystroke	a	n/a
500.157	0.135	1000314	keystroke	Key.space	n/a
500.742	0.075	1001484	keystroke	r	n/a
500.907	0.105	1001814	keystroke	e	n/a
501.117	0.121	1002234	keystroke	f	n/a
501.252	0.105	1002504	keystroke	e	n/a
501.358	0.134	1002716	keystroke	r	n/a
501.477	0.075	1002954	keystroke	e	n/a
501.567	0.15	1003134	keystroke	n	n/a
501.702	0.105	1003404	keystroke	c	n/a
501.942	0.06	1003884	keystroke	e	n/a
502.138	0.074	1004276	keystroke	d	n/a
502.242	0.12	1004484	keystroke	Key.space	n/a
502.497	0.121	1004994	keystroke	a	n/a
502.737	0.12	1005474	keystroke	l	n/a
502.947	0.12	1005894	keystroke	l	n/a
503.172	0.105	1006344	keystroke	a	n/a
503.263	0.194	1006526	keystroke	n	n/a
503.412	0.15	1006824	keystroke	Key.space	n/a
503.697	0.091	1007394	keystroke	r	n/a
504.162	0.135	1008324	keystroke	e	n/a
504.357	0.12	1008714	keystroke	p	n/a
504.552	0.09	1009104	keystroke	r	n/a
504.702	0.18	1009404	keystroke	i	n/a
504.807	0.165	1009614	keystroke	n	n/a
505.167	0.076	1010334	keystroke	t	n/a
506.067	0.135	1012134	keystroke	Key.enter	n/a
506.225	6.1295	1012450	prompt	n/a	rest ballot wealth brussels\n
507.177	0.136	1014354	keystroke	r	n/a
507.268	0.194	1014536	keystroke	e	n/a
507.432	0.166	1014864	keystroke	s	n/a
507.522	0.091	1015044	keystroke	t	n/a
507.627	0.12	1015254	keystroke	Key.space	n/a
507.792	0.135	1015584	keystroke	b	n/a
507.958	0.119	1015916	keystroke	a	n/a
508.078	0.074	1016156	keystroke	l	n/a
508.227	0.15	1016454	keystroke	l	n/a
508.543	0.09	1017086	keystroke	o	n/a
508.723	0.059	1017446	keystroke	t	n/a
508.887	0.135	1017774	keystroke	Key.space	n/a
509.038	0.119	1018076	keystroke	w	n/a
509.202	0.165	1018404	keystroke	e	n/a
509.322	0.151	1018644	keystroke	a	n/a
509.443	0.12	1018886	keystroke	l	n/a
509.638	0.075	1019276	keystroke	t	n/a
509.758	0.164	1019516	keystroke	h	n/a
509.877	0.15	1019754	keystroke	Key.space	n/a
510.313	0.119	1020626	keystroke	b	n/a
510.732	0.106	1021464	keystroke	r	n/a
510.898	0.134	1021796	keystroke	u	n/a
511.153	0.03	1022306	keystroke	s	n/a
511.273	0.09	1022546	keystroke	s	n/a
511.603	0.09	1023206	keystroke	e	n/a
511.813	0.089	1023626	keystroke	l	n/a
511.948	0.09	1023896	keystroke	s	n/a
512.217	0.135	1024434	keystroke	Key.enter	n/a
512.3585	6.896	1024717	prompt	n/a	citizen route screensaver composed\n
513.283	0.105	1026566	keystroke	c	n/a
513.433	0.105	1026866	keystroke	i	n/a
513.523	0.09	1027046	keystroke	t	n/a
513.643	0.105	1027286	keystroke	i	n/a
513.763	0.105	1027526	keystroke	z	n/a
513.988	0.075	1027976	keystroke	e	n/a
514.063	0.165	1028126	keystroke	n	n/a
514.182	0.135	1028364	keystroke	Key.space	n/a
514.588	0.09	1029176	keystroke	r	n/a
514.723	0.135	1029446	keystroke	o	n/a
514.813	0.15	1029626	keystroke	u	n/a
514.918	0.135	1029836	keystroke	t	n/a
514.993	0.12	1029986	keystroke	e	n/a
515.142	0.121	1030284	keystroke	Key.space	n/a
515.353	0.12	1030706	keystroke	s	n/a
515.578	0.09	1031156	keystroke	c	n/a
515.788	0.075	1031576	keystroke	r	n/a
516.013	0.09	1032026	keystroke	e	n/a
516.193	0.105	1032386	keystroke	e	n/a
516.538	0.105	1033076	keystroke	n	n/a
516.688	0.09	1033376	keystroke	s	n/a
516.898	0.105	1033796	keystroke	a	n/a
517.108	0.105	1034216	keystroke	v	n/a
517.288	0.18	1034576	keystroke	e	n/a
517.393	0.15	1034786	keystroke	r	n/a
517.722	0.12	1035444	keystroke	Key.space	n/a
517.903	0.105	1035806	keystroke	c	n/a
517.993	0.135	1035986	keystroke	o	n/a
518.113	0.15	1036226	keystroke	m	n/a
518.248	0.09	1036496	keystroke	p	n/a
518.458	0.09	1036916	keystroke	o	n/a
518.563	0.09	1037126	keystroke	s	n/a
518.728	0.075	1037456	keystroke	e	n/a
518.923	0.075	1037846	keystroke	d	n/a
519.133	0.12	1038266	keystroke	Key.enter	n/a
519.2585	9.7905	1038517	prompt	n/a	mustn't consoles swap intimate\n
520.1825	0.105	1040365	keystroke	m	n/a
520.4525	0.12	1040905	keystroke	u	n/a
520.5875	0.09	1041175	keystroke	s	n/a
521.6225	0.075	1043245	keystroke	t	n/a
522.0575	0.12	1044115	keystroke	n	n/a
522.3575	0.135	1044715	keystroke	'	n/a
522.6275	0.06	1045255	keystroke	t	n/a
522.7325	0.135	1045465	keystroke	Key.space	n/a
523.7825	0.09	1047565	keystroke	c	n/a
523.8875	0.135	1047775	keystroke	o	n/a
524.053	0.09	1048106	keystroke	s	n/a
524.578	0.09	1049156	keystroke	Key.backspace	n/a
524.863	0.12	1049726	keystroke	n	n/a
525.178	0.09	1050356	keystroke	s	n/a
525.298	0.075	1050596	keystroke	o	n/a
525.493	0.09	1050986	keystroke	l	n/a
525.583	0.075	1051166	keystroke	e	n/a
525.868	0.105	1051736	keystroke	s	n/a
526.123	0.135	1052246	keystroke	Key.space	n/a
526.573	0.09	1053146	keystroke	s	n/a
526.783	0.12	1053566	keystroke	w	n/a
526.918	0.105	1053836	keystroke	a	n/a
527.128	0.12	1054256	keystroke	p	n/a
527.263	0.12	1054526	keystroke	Key.space	n/a
527.473	0.15	1054946	keystroke	i	n/a
527.563	0.15	1055126	keystroke	n	n/a
527.728	0.045	1055456	keystroke	t	n/a
527.788	0.165	1055576	keystroke	i	n/a
527.893	0.15	1055786	keystroke	m	n/a
527.983	0.15	1055966	keystroke	a	n/a
528.073	0.12	1056146	keystroke	t	n/a
528.163	0.105	1056326	keystroke	e	n/a
528.928	0.12	1057856	keystroke	Key.enter	n/a
529.0545	12.462	1058109	prompt	n/a	collectible admission charging openings\n
529.903	0.075	1059806	keystroke	c	n/a
530.128	0.06	1060256	keystroke	o	n/a
530.308	0.045	1060616	keystroke	l	n/a
530.443	0.09	1060886	keystroke	l	n/a
530.548	0.09	1061096	keystroke	e	n/a
530.7885	0.075	1061577	keystroke	c	n/a
530.9685	0.06	1061937	keystroke	t	n/a
531.0585	0.105	1062117	keystroke	i	n/a
531.1935	0.09	1062387	keystroke	b	n/a
531.5235	0.075	1063047	keystroke	l	n/a
531.8085	0.135	1063617	keystroke	Key.space	n/a
532.2285	0.105	1064457	keystroke	Key.backspace	n/a
532.3635	0.09	1064727	keystroke	e	n/a
532.5585	0.15	1065117	keystroke	Key.space	n/a
532.9335	0.075	1065867	keystroke	a	n/a
533.1135	0.105	1066227	keystroke	d	n/a
533.2335	0.1505	1066467	keystroke	m	n/a
533.354	0.12	1066708	keystroke	i	n/a
533.459	0.09	1066918	keystroke	s	n/a
533.609	0.105	1067218	keystroke	s	n/a
533.684	0.135	1067368	keystroke	i	n/a
533.774	0.195	1067548	keystroke	o	n/a
533.924	0.21	1067848	keystroke	n	n/a
533.984	0.09	1067968	keystroke	s	n/a
534.104	0.135	1068208	keystroke	Key.space	n/a
534.284	0.12	1068568	keystroke	c	n/a
534.419	0.105	1068838	keystroke	h	n/a
534.524	0.12	1069048	keystroke	a	n/a
534.599	0.105	1069198	keystroke	r	n/a
535.079	0.09	1070158	keystroke	Key.backspace	n/a
535.244	0.075	1070488	keystroke	Key.backspace	n/a
535.424	0.06	1070848	keystroke	Key.backspace	n/a
535.589	0.045	1071178	keystroke	Key.backspace	n/a
535.799	0.12	1071598	keystroke	Key.backspace	n/a
536.3995	0.09	1072799	keystroke	Key.backspace	n/a
537.0595	0.12	1074119	keystroke	Key.space	n/a
537.2095	0.105	1074419	keystroke	c	n/a
537.2995	0.105	1074599	keystroke	h	n/a
537.6745	0.105	1075349	keystroke	a	n/a
537.9595	0.06	1075919	keystroke	r	n/a
538.2445	0.045	1076489	keystroke	g	n/a
538.6195	0.09	1077239	keystroke	i	n/a
538.8295	0.105	1077659	keystroke	n	n/a
539.0545	0.075	1078109	keystroke	g	n/a
539.37	0.12	1078740	keystroke	Key.space	n/a
539.85	0.06	1079700	keystroke	o	n/a
540.03	0.09	1080060	keystroke	p	n/a
540.15	0.09	1080300	keystroke	e	n/a
540.255	0.09	1080510	keystroke	n	n/a
540.36	0.18	1080720	keystroke	i	n/a
540.465	0.18	1080930	keystroke	n	n/a
540.585	0.135	1081170	keystroke	g	n/a
540.675	0.09	1081350	keystroke	s	n/a
541.38	0.135	1082760	keystroke	Key.enter	n/a
541.5215	4.3915	1083043	prompt	n/a	rate town talking civic\n
542.3855	0.075	1084771	keystroke	r	n/a
542.5505	0.165	1085101	keystroke	a	n/a
542.6705	0.12	1085341	keystroke	t	n/a
542.7755	0.105	1085551	keystroke	e	n/a
542.8955	0.135	1085791	keystroke	Key.space	n/a
543.1655	0.06	1086331	keystroke	t	n/a
543.2555	0.09	1086511	keystroke	o	n/a
543.3755	0.105	1086751	keystroke	w	n/a
543.5255	0.15	1087051	keystroke	n	n/a
543.6305	0.135	1087261	keystroke	Key.space	n/a
543.7805	0.15	1087561	keystroke	t	n/a
543.9005	0.12	1087801	keystroke	a	n/a
543.9755	0.18	1087951	keystroke	l	n/a
544.0805	0.105	1088161	keystroke	k	n/a
544.2755	0.15	1088551	keystroke	i	n/a
544.3655	0.24	1088731	keystroke	n	n/a
544.4705	0.075	1088941	keystroke	g	n/a
544.5755	0.135	1089151	keystroke	Key.space	n/a
544.8605	0.075	1089721	keystroke	c	n/a
544.9505	0.06	1089901	keystroke	i	n/a
545.0855	0.09	1090171	keystroke	v	n/a
545.2055	0.1055	1090411	keystroke	i	n/a
545.581	0.105	1091162	keystroke	c	n/a
545.776	0.135	1091552	keystroke	Key.enter	n/a
545.917	5.3815	1091834	prompt	n/a	yale stadium posted dozens\n
546.736	0.09	1093472	keystroke	y	n/a
546.856	0.09	1093712	keystroke	a	n/a
546.961	0.075	1093922	keystroke	l	n/a
547.066	0.09	1094132	keystroke	e	n/a
547.186	0.165	1094372	keystroke	Key.space	n/a
547.321	0.09	1094642	keystroke	s	n/a
547.471	0.09	1094942	keystroke	t	n/a
547.936	0.105	1095872	keystroke	a	n/a
548.266	0.09	1096532	keystroke	d	n/a
548.386	0.1055	1096772	keystroke	i	n/a
548.6115	0.09	1097223	keystroke	u	n/a
548.8965	0.15	1097793	keystroke	m	n/a
549.0015	0.15	1098003	keystroke	Key.space	n/a
549.3015	0.075	1098603	keystroke	p	n/a
549.4815	0.105	1098963	keystroke	o	n/a
549.6015	0.15	1099203	keystroke	s	n/a
549.6915	0.15	1099383	keystroke	t	n/a
549.7965	0.06	1099593	keystroke	e	n/a
549.9915	0.09	1099983	keystroke	d	n/a
550.0665	0.105	1100133	keystroke	Key.space	n/a
550.2015	0.09	1100403	keystroke	d	n/a
550.2915	0.075	1100583	keystroke	o	n/a
550.4415	0.105	1100883	keystroke	z	n/a
550.6665	0.06	1101333	keystroke	e	n/a
550.7415	0.135	1101483	keystroke	n	n/a
550.8615	0.09	1101723	keystroke	s	n/a
551.1765	0.12	1102353	keystroke	Key.enter	n/a
551.304	7.841	1102608	prompt	n/a	profit killed determining state\n
552.152	0.09	1104304	keystroke	p	n/a
552.317	0.075	1104634	keystroke	r	n/a
552.393	0.089	1104786	keystroke	o	n/a
552.542	0.105	1105084	keystroke	f	n/a
552.632	0.09	1105264	keystroke	i	n/a
552.782	0.09	1105564	keystroke	t	n/a
552.902	0.135	1105804	keystroke	Key.space	n/a
553.427	0.09	1106854	keystroke	k	n/a
553.592	0.075	1107184	keystroke	i	n/a
553.772	0.045	1107544	keystroke	l	n/a
553.892	0.12	1107784	keystroke	l	n/a
554.027	0.075	1108054	keystroke	e	n/a
554.237	0.09	1108474	keystroke	d	n/a
554.357	0.12	1108714	keystroke	Key.space	n/a
554.507	0.09	1109014	keystroke	d	n/a
554.732	0.09	1109464	keystroke	e	n/a
555.0325	0.075	1110065	keystroke	t	n/a
555.2725	0.18	1110545	keystroke	e	n/a
555.4075	0.135	1110815	keystroke	r	n/a
555.6175	0.105	1111235	keystroke	m	n/a
555.9175	0.09	1111835	keystroke	i	n/a
556.2025	0.105	1112405	keystroke	n	n/a
556.3825	0.195	1112765	keystroke	i	n/a
556.5175	0.165	1113035	keystroke	n	n/a
556.6375	0.09	1113275	keystroke	g	n/a
556.8325	0.135	1113665	keystroke	Key.space	n/a
557.2525	0.135	1114505	keystroke	s	n/a
557.3885	0.074	1114777	keystroke	t	n/a
557.5825	0.135	1115165	keystroke	a	n/a
557.7025	0.135	1115405	keystroke	t	n/a
557.7925	0.105	1115585	keystroke	e	n/a
559.023	0.12	1118046	keystroke	Key.enter	n/a
559.1505	6.265	1118301	prompt	n/a	repairs ocean sculpture vids\n
559.803	0.105	1119606	keystroke	r	n/a
559.923	0.105	1119846	keystroke	e	n/a
560.043	0.105	1120086	keystroke	p	n/a
560.163	0.105	1120326	keystroke	a	n/a
560.283	0.075	1120566	keystroke	i	n/a
560.403	0.12	1120806	keystroke	r	n/a
560.478	0.105	1120956	keystroke	s	n/a
560.613	0.135	1121226	keystroke	Key.space	n/a
560.898	0.075	1121796	keystroke	o	n/a
561.048	0.09	1122096	keystroke	c	n/a
561.273	0.195	1122546	keystroke	e	n/a
561.423	0.12	1122846	keystroke	a	n/a
561.513	0.165	1123026	keystroke	n	n/a
561.648	0.135	1123296	keystroke	Key.space	n/a
561.858	0.045	1123716	keystroke	s	n/a
562.4585	0.06	1124917	keystroke	c	n/a
562.5785	0.105	1125157	keystroke	u	n/a
562.8785	0.135	1125757	keystroke	l	n/a
563.1485	0.12	1126297	keystroke	p	n/a
563.3885	0.09	1126777	keystroke	t	n/a
563.5085	0.12	1127017	keystroke	u	n/a
563.6435	0.135	1127287	keystroke	r	n/a
563.7485	0.105	1127497	keystroke	e	n/a
564.3635	0.135	1128727	keystroke	Key.space	n/a
564.5585	0.105	1129117	keystroke	v	n/a
564.6785	0.12	1129357	keystroke	i	n/a
564.7835	0.105	1129567	keystroke	d	n/a
564.9635	0.105	1129927	keystroke	s	n/a
565.2935	0.12	1130587	keystroke	Key.enter	n/a
565.42	7.1065	1130840	prompt	n/a	belize oscar steve heather\n
566.6435	0.075	1133287	keystroke	b	n/a
566.8685	0.075	1133737	keystroke	e	n/a
566.9735	0.1805	1133947	keystroke	l	n/a
567.094	0.135	1134188	keystroke	i	n/a
567.289	0.105	1134578	keystroke	z	n/a
567.544	0.075	1135088	keystroke	e	n/a
567.694	0.12	1135388	keystroke	Key.space	n/a
568.054	0.105	1136108	keystroke	o	n/a
568.189	0.105	1136378	keystroke	s	n/a
568.399	0.09	1136798	keystroke	c	n/a
568.564	0.195	1137128	keystroke	a	n/a
568.729	0.105	1137458	keystroke	r	n/a
568.864	0.15	1137728	keystroke	Key.space	n/a
569.794	0.12	1139588	keystroke	s	n/a
570.004	0.105	1140008	keystroke	t	n/a
570.094	0.105	1140188	keystroke	e	n/a
570.274	0.135	1140548	keystroke	v	n/a
570.379	0.09	1140758	keystroke	e	n/a
570.919	0.12	1141838	keystroke	Key.space	n/a
571.204	0.12	1142408	keystroke	h	n/a
571.249	0.1655	1142498	keystroke	e	n/a
571.399	0.1505	1142798	keystroke	a	n/a
571.5345	0.09	1143069	keystroke	t	n/a
571.6095	0.12	1143219	keystroke	h	n/a
571.7145	0.105	1143429	keystroke	e	n/a
571.7895	0.12	1143579	keystroke	r	n/a
572.3895	0.135	1144779	keystroke	Key.enter	n/a
572.531	12.6255	1145062	prompt	n/a	nomination difficulty claire earthquake\n
573.3945	0.12	1146789	keystroke	n	n/a
573.5745	0.09	1147149	keystroke	o	n/a
573.8145	0.075	1147629	keystroke	m	n/a
573.9795	0.075	1147959	keystroke	i	n/a
574.1745	0.12	1148349	keystroke	n	n/a
574.3245	0.15	1148649	keystroke	a	n/a
574.3995	0.105	1148799	keystroke	t	n/a
574.4755	0.149	1148951	keystroke	i	n/a
574.5795	0.195	1149159	keystroke	o	n/a
574.7295	0.195	1149459	keystroke	n	n/a
574.8495	0.165	1149699	keystroke	Key.space	n/a
575.8095	0.075	1151619	keystroke	d	n/a
575.9295	0.06	1151859	keystroke	i	n/a
576.0045	0.075	1152009	keystroke	f	n/a
576.1545	0.105	1152309	keystroke	f	n/a
576.2745	0.12	1152549	keystroke	i	n/a
576.4545	0.09	1152909	keystroke	c	n/a
576.6645	0.165	1153329	keystroke	u	n/a
576.8145	0.12	1153629	keystroke	l	n/a
576.9945	0.075	1153989	keystroke	t	n/a
577.1745	0.12	1154349	keystroke	y	n/a
577.8195	0.075	1155639	keystroke	Key.backspace	n/a
578.9595	0.106	1157919	keystroke	y	n/a
579.3195	0.1505	1158639	keystroke	Key.space	n/a
580.3095	0.105	1160619	keystroke	c	n/a
580.3845	0.106	1160769	keystroke	l	n/a
580.5195	0.09	1161039	keystroke	a	n/a
580.6245	0.09	1161249	keystroke	i	n/a
580.7445	0.12	1161489	keystroke	r	n/a
580.8195	0.12	1161639	keystroke	e	n/a
580.9695	0.15	1161939	keystroke	Key.space	n/a
581.3295	0.105	1162659	keystroke	e	n/a
582.4395	0.12	1164879	keystroke	a	n/a
582.8445	0.105	1165689	keystroke	r	n/a
583.0695	0.075	1166139	keystroke	t	n/a
583.1595	0.105	1166319	keystroke	h	n/a
583.5495	0.105	1167099	keystroke	q	n/a
583.6095	0.105	1167219	keystroke	u	n/a
583.8345	0.135	1167669	keystroke	a	n/a
583.9845	0.135	1167969	keystroke	k	n/a
584.1345	0.09	1168269	keystroke	e	n/a
585.0195	0.135	1170039	keystroke	Key.enter	n/a
585.1615	6.3845	1170323	prompt	n/a	sept nikon expensive moment\n
586.1745	0.091	1172349	keystroke	s	n/a
586.3845	0.09	1172769	keystroke	e	n/a
586.5045	0.12	1173009	keystroke	p	n/a
586.7155	0.059	1173431	keystroke	t	n/a
586.8795	0.12	1173759	keystroke	Key.space	n/a
587.2095	0.135	1174419	keystroke	n	n/a
587.3145	0.09	1174629	keystroke	i	n/a
587.5245	0.075	1175049	keystroke	k	n/a
587.7195	0.165	1175439	keystroke	o	n/a
587.8545	0.195	1175709	keystroke	n	n/a
587.9745	0.165	1175949	keystroke	Key.space	n/a
588.4405	0.075	1176881	keystroke	e	n/a
588.6655	0.089	1177331	keystroke	x	n/a
588.7555	0.104	1177511	keystroke	p	n/a
588.9045	0.075	1177809	keystroke	e	n/a
589.0095	0.12	1178019	keystroke	n	n/a
