onset	duration	sample	value	key	prompt_text
51.4725	0.087	102945	keystroke_2	2	n/a
103.0285	0.105	206057	keystroke_a	a	n/a
103.1785	0.1355	206357	keystroke_d	d	n/a
103.8395	0.074	207679	keystroke_a	a	n/a
104.0485	0.0905	208097	keystroke_m	m	n/a
104.1835	0.0755	208367	keystroke_b	b	n/a
108.4735	0.1055	216947	keystroke_Key.cmd	Key.cmd	n/a
108.5335	0.0905	217067	keystroke_1	1	n/a
111.834	0.375	223668	keystroke_Key.cmd	Key.cmd	n/a
112.1035	0.1205	224207	keystroke_2	2	n/a
113.619	0.15	227238	keystroke_o	o	n/a
113.7245	0.075	227449	keystroke_n	n	n/a
113.8745	0.165	227749	keystroke_Key.shift	Key.shift	n/a
113.964	0.09	227928	keystroke__	_	n/a
114.4445	0.075	228889	keystroke_e	e	n/a
115.389	0.09	230778	keystroke_Key.backspace	Key.backspace	n/a
115.9745	0.0595	231949	keystroke_k	k	n/a
116.0795	0.0745	232159	keystroke_e	e	n/a
116.2445	0.0445	232489	keystroke_y	y	n/a
116.3195	0.075	232639	keystroke_b	b	n/a
116.515	0.0595	233030	keystroke_o	o	n/a
116.5595	0.1045	233119	keystroke_a	a	n/a
116.6195	0.06	233239	keystroke_r	r	n/a
116.814	0.0755	233628	keystroke_d	d	n/a
116.9045	0.105	233809	keystroke_Key.space	Key.space	n/a
117.1445	0.075	234289	keystroke_p	p	n/a
117.234	0.0755	234468	keystroke_r	r	n/a
117.3245	0.045	234649	keystroke_o	o	n/a
117.4145	0.075	234829	keystroke_t	t	n/a
117.4895	0.09	234979	keystroke_o	o	n/a
117.6245	0.09	235249	keystroke_c	c	n/a
117.6995	0.06	235399	keystroke_o	o	n/a
117.834	0.1505	235668	keystroke_l	l	n/a
117.9695	0.09	235939	keystroke_Key.space	Key.space	n/a
118.5845	0.045	237169	keystroke_6	6	n/a
118.7045	0.0895	237409	keystroke_.	.	n/a
118.8995	0.075	237799	keystroke_3	3	n/a
123.9245	9.4225	247849	prompt	n/a	the quick brown fox jumps over a lazy dog\n
125.98	0.0745	251960	keystroke_t	t	n/a
126.085	0.0595	252170	keystroke_h	h	n/a
126.13	0.06	252260	keystroke_e	e	n/a
126.2345	0.1055	252469	keystroke_Key.space	Key.space	n/a
126.4145	0.0755	252829	keystroke_q	q	n/a
126.5345	0.106	253069	keystroke_u	u	n/a
126.655	0.06	253310	keystroke_i	i	n/a
126.715	0.1345	253430	keystroke_c	c	n/a
127.015	0.1195	254030	keystroke_k	k	n/a
127.12	0.15	254240	keystroke_Key.space	Key.space	n/a
127.3	0.091	254600	keystroke_b	b	n/a
127.495	0.09	254990	keystroke_r	r	n/a
127.6	0.0745	255200	keystroke_o	o	n/a
127.6895	0.0905	255379	keystroke_w	w	n/a
127.795	0.046	255590	keystroke_n	n	n/a
127.825	0.12	255650	keystroke_Key.space	Key.space	n/a
128.17	0.06	256340	keystroke_f	f	n/a
128.29	0.0895	256580	keystroke_o	o	n/a
128.56	0.0745	257120	keystroke_Key.space	Key.space	n/a
128.6495	0.1055	257299	keystroke_j	j	n/a
129.04	0.06	258080	keystroke_Key.backspace	Key.backspace	n/a
129.145	0.0895	258290	keystroke_Key.backspace	Key.backspace	n/a
129.28	0.15	258560	keystroke_x	x	n/a
129.8495	0.1055	259699	keystroke_Key.space	Key.space	n/a
130.06	0.045	260120	keystroke_j	j	n/a
130.18	0.0595	260360	keystroke_u	u	n/a
130.42	0.0445	260840	keystroke_m	m	n/a
130.57	0.075	261140	keystroke_p	p	n/a
130.72	0.075	261440	keystroke_s	s	n/a
130.84	0.075	261680	keystroke_Key.space	Key.space	n/a
130.9605	0.104	261921	keystroke_o	o	n/a
131.0805	0.1045	262161	keystroke_v	v	n/a
131.261	0.119	262522	keystroke_e	e	n/a
131.3345	0.0765	262669	keystroke_r	r	n/a
131.425	0.136	262850	keystroke_Key.space	Key.space	n/a
131.575	0.0745	263150	keystroke_a	a	n/a
131.68	0.09	263360	keystroke_Key.space	Key.space	n/a
131.815	0.1195	263630	keystroke_l	l	n/a
131.89	0.09	263780	keystroke_a	a	n/a
132.145	0.0895	264290	keystroke_z	z	n/a
132.4445	0.0455	264889	keystroke_y	y	n/a
132.52	0.12	265040	keystroke_Key.space	Key.space	n/a
132.76	0.0745	265520	keystroke_d	d	n/a
132.88	0.135	265760	keystroke_o	o	n/a
133.015	0.075	266030	keystroke_g	g	n/a
133.285	0.06	266570	keystroke_Key.enter	Key.enter	n/a
133.35	6.5965	266700	prompt	n/a	footage spell styles libs\n
134.185	0.0605	268370	keystroke_f	f	n/a
134.3495	0.0605	268699	keystroke_o	o	n/a
134.455	0.075	268910	keystroke_o	o	n/a
134.546	0.059	269092	keystroke_r	r	n/a
134.98	0.0905	269960	keystroke_t	t	n/a
135.1905	0.105	270381	keystroke_a	a	n/a
135.37	0.0455	270740	keystroke_g	g	n/a
135.6405	0.045	271281	keystroke_Key.backspace	Key.backspace	n/a
135.7605	0.0745	271521	keystroke_Key.backspace	Key.backspace	n/a
135.9105	0.0445	271821	keystroke_Key.backspace	Key.backspace	n/a
136.0455	0.06	272091	keystroke_Key.backspace	Key.backspace	n/a
136.165	0.0605	272330	keystroke_t	t	n/a
136.3905	0.105	272781	keystroke_a	a	n/a
136.5855	0.105	273171	keystroke_g	g	n/a
136.735	0.0755	273470	keystroke_e	e	n/a
136.8555	0.15	273711	keystroke_Key.space	Key.space	n/a
136.9905	0.09	273981	keystroke_s	s	n/a
137.0955	0.105	274191	keystroke_p	p	n/a
137.2605	0.0745	274521	keystroke_e	e	n/a
137.65	0.045	275300	keystroke_l	l	n/a
137.8305	0.1195	275661	keystroke_l	l	n/a
137.935	0.1205	275870	keystroke_Key.space	Key.space	n/a
138.1305	0.075	276261	keystroke_s	s	n/a
138.2805	0.075	276561	keystroke_t	t	n/a
138.4305	0.075	276861	keystroke_y	y	n/a
138.6555	0.105	277311	keystroke_l	l	n/a
138.7605	0.0745	277521	keystroke_e	e	n/a
138.9255	0.075	277851	keystroke_s	s	n/a
139.0605	0.12	278121	keystroke_Key.space	Key.space	n/a
139.3005	0.09	278601	keystroke_l	l	n/a
139.3455	0.0895	278691	keystroke_i	i	n/a
139.4805	0.105	278961	keystroke_b	b	n/a
139.7205	0.09	279441	keystroke_s	s	n/a
139.855	0.0905	279710	keystroke_Key.enter	Key.enter	n/a
139.9505	6.027	279901	prompt	n/a	abraham deadline brand blocking\n
140.77	0.1355	281540	keystroke_a	a	n/a
141.0105	0.045	282021	keystroke_b	b	n/a
141.1605	0.0745	282321	keystroke_r	r	n/a
141.25	0.1055	282500	keystroke_a	a	n/a
141.4755	0.06	282951	keystroke_h	h	n/a
141.5205	0.09	283041	keystroke_a	a	n/a
141.686	0.135	283372	keystroke_m	m	n/a
141.821	0.1195	283642	keystroke_Key.space	Key.space	n/a
142.061	0.015	284122	keystroke_d	d	n/a
142.1505	0.0755	284301	keystroke_e	e	n/a
142.2705	0.121	284541	keystroke_a	a	n/a
142.376	0.0895	284752	keystroke_d	d	n/a
142.631	0.119	285262	keystroke_l	l	n/a
142.706	0.1345	285412	keystroke_i	i	n/a
142.7955	0.135	285591	keystroke_n	n	n/a
142.8555	0.0905	285711	keystroke_e	e	n/a
142.961	0.104	285922	keystroke_Key.space	Key.space	n/a
143.1105	0.075	286221	keystroke_b	b	n/a
143.5005	0.06	287001	keystroke_r	r	n/a
143.695	0.0755	287390	keystroke_a	a	n/a
143.8605	0.12	287721	keystroke_n	n	n/a
143.965	0.1055	287930	keystroke_d	d	n/a
144.1155	0.1495	288231	keystroke_Key.space	Key.space	n/a
144.4905	0.09	288981	keystroke_b	b	n/a
144.6105	0.09	289221	keystroke_l	l	n/a
144.8055	0.0445	289611	keystroke_o	o	n/a
144.8955	0.0745	289791	keystroke_c	c	n/a
145.3455	0.075	290691	keystroke_k	k	n/a
145.5105	0.165	291021	keystroke_i	i	n/a
145.6	0.1055	291200	keystroke_n	n	n/a
145.7355	0.09	291471	keystroke_g	g	n/a
145.9005	0.0755	291801	keystroke_Key.enter	Key.enter	n/a
145.9815	5.65	291963	prompt	n/a	savannah music bahrain winds\n
146.6805	0.0905	293361	keystroke_s	s	n/a
146.846	0.1345	293692	keystroke_a	a	n/a
146.996	0.12	293992	keystroke_v	v	n/a
147.101	0.09	294202	keystroke_a	a	n/a
147.5655	0.0455	295131	keystroke_n	n	n/a
147.7155	0.045	295431	keystroke_n	n	n/a
147.8355	0.15	295671	keystroke_a	a	n/a
148.1505	0.09	296301	keystroke_h	h	n/a
148.241	0.1195	296482	keystroke_Key.space	Key.space	n/a
148.4205	0.136	296841	keystroke_m	m	n/a
148.631	0.0755	297262	keystroke_u	u	n/a
148.721	0.0895	297442	keystroke_s	s	n/a
148.796	0.12	297592	keystroke_i	i	n/a
148.931	0.1195	297862	keystroke_c	c	n/a
149.0355	0.09	298071	keystroke_Key.space	Key.space	n/a
149.6355	0.015	299271	keystroke_b	b	n/a
149.726	0.105	299452	keystroke_a	a	n/a
149.8455	0.09	299691	keystroke_h	h	n/a
150.056	0.075	300112	keystroke_r	r	n/a
150.1915	0.0895	300383	keystroke_a	a	n/a
150.326	0.105	300652	keystroke_i	i	n/a
150.5355	0.1205	301071	keystroke_n	n	n/a
150.641	0.12	301282	keystroke_Key.space	Key.space	n/a
150.776	0.105	301552	keystroke_w	w	n/a
150.896	0.09	301792	keystroke_i	i	n/a
151.016	0.18	302032	keystroke_n	n	n/a
151.211	0.045	302422	keystroke_d	d	n/a
151.376	0.0895	302752	keystroke_s	s	n/a
151.556	0.075	303112	keystroke_Key.enter	Key.enter	n/a
151.6345	7.858	303269	prompt	n/a	suzuki preliminary designation mechanism\n
152.501	0.09	305002	keystroke_s	s	n/a
152.6355	0.0755	305271	keystroke_u	u	n/a
152.846	0.1345	305692	keystroke_z	z	n/a
152.9955	0.1055	305991	keystroke_u	u	n/a
153.401	0.075	306802	keystroke_k	k	n/a
153.581	0.105	307162	keystroke_i	i	n/a
153.701	0.12	307402	keystroke_Key.space	Key.space	n/a
154.256	0.09	308512	keystroke_p	p	n/a
154.3615	0.104	308723	keystroke_r	r	n/a
154.4355	0.1055	308871	keystroke_e	e	n/a
155.096	0.1195	310192	keystroke_l	l	n/a
155.171	0.12	310342	keystroke_i	i	n/a
155.276	0.105	310552	keystroke_m	m	n/a
155.396	0.165	310792	keystroke_i	i	n/a
155.501	0.105	311002	keystroke_n	n	n/a
155.681	0.105	311362	keystroke_a	a	n/a
155.801	0.105	311602	keystroke_r	r	n/a
155.9355	0.135	311871	keystroke_y	y	n/a
156.176	0.0745	312352	keystroke_Key.space	Key.space	n/a
156.386	0.0305	312772	keystroke_d	d	n/a
156.4905	0.0905	312981	keystroke_e	e	n/a
156.626	0.12	313252	keystroke_s	s	n/a
156.7615	0.0595	313523	keystroke_i	i	n/a
156.8355	0.076	313671	keystroke_g	g	n/a
156.926	0.1055	313852	keystroke_n	n	n/a
157.106	0.12	314212	keystroke_a	a	n/a
157.211	0.09	314422	keystroke_t	t	n/a
157.346	0.18	314692	keystroke_i	i	n/a
157.421	0.1495	314842	keystroke_o	o	n/a
157.541	0.106	315082	keystroke_n	n	n/a
157.7215	0.1195	315443	keystroke_Key.space	Key.space	n/a
158.0965	0.1045	316193	keystroke_m	m	n/a
158.216	0.045	316432	keystroke_e	e	n/a
158.3355	0.1355	316671	keystroke_c	c	n/a
158.426	0.09	316852	keystroke_h	h	n/a
158.531	0.1045	317062	keystroke_a	a	n/a
158.7415	0.135	317483	keystroke_n	n	n/a
158.891	0.105	317782	keystroke_i	i	n/a
159.056	0.076	318112	keystroke_s	s	n/a
159.146	0.136	318292	keystroke_m	m	n/a
159.341	0.15	318682	keystroke_Key.enter	Key.enter	n/a
159.4955	4.572	318991	prompt	n/a	young covers inter happened\n
160.211	0.06	320422	keystroke_y	y	n/a
160.3765	0.135	320753	keystroke_o	o	n/a
160.4665	0.06	320933	keystroke_u	u	n/a
160.631	0.105	321262	keystroke_n	n	n/a
160.7215	0.09	321443	keystroke_g	g	n/a
160.7965	0.1205	321593	keystroke_Key.space	Key.space	n/a
160.961	0.1055	321922	keystroke_c	c	n/a
161.051	0.0905	322102	keystroke_o	o	n/a
161.1565	0.105	322313	keystroke_v	v	n/a
161.3965	0.15	322793	keystroke_e	e	n/a
161.5015	0.1195	323003	keystroke_r	r	n/a
161.6965	0.12	323393	keystroke_s	s	n/a
161.8315	0.1045	323663	keystroke_Key.space	Key.space	n/a
161.9965	0.15	323993	keystroke_i	i	n/a
162.0715	0.135	324143	keystroke_n	n	n/a
162.1915	0.0595	324383	keystroke_t	t	n/a
162.4465	0.165	324893	keystroke_e	e	n/a
162.5215	0.105	325043	keystroke_r	r	n/a
162.7015	0.09	325403	keystroke_Key.space	Key.space	n/a
162.851	0.09	325702	keystroke_h	h	n/a
162.9265	0.12	325853	keystroke_a	a	n/a
163.0915	0.0445	326183	keystroke_p	p	n/a
163.2415	0.075	326483	keystroke_p	p	n/a
163.4815	0.075	326963	keystroke_e	e	n/a
163.6165	0.1355	327233	keystroke_n	n	n/a
163.6765	0.0895	327353	keystroke_e	e	n/a
163.8715	0.09	327743	keystroke_d	d	n/a
164.0065	0.0595	328013	keystroke_Key.enter	Key.enter	n/a
164.0725	6.7605	328145	prompt	n/a	ronald ventures security roll\n
164.7115	0.0895	329423	keystroke_r	r	n/a
164.7865	0.09	329573	keystroke_o	o	n/a
164.951	0.136	329902	keystroke_n	n	n/a
165.087	0.1045	330174	keystroke_a	a	n/a
165.236	0.1055	330472	keystroke_o	o	n/a
165.4165	0.1195	330833	keystroke_l	l	n/a
165.4915	0.09	330983	keystroke_d	d	n/a
165.6265	0.135	331253	keystroke_Key.space	Key.space	n/a
166.0615	0.0445	332123	keystroke_Key.backspace	Key.backspace	n/a
166.1965	0.045	332393	keystroke_Key.backspace	Key.backspace	n/a
166.3465	0.045	332693	keystroke_Key.backspace	Key.backspace	n/a
166.4965	0.045	332993	keystroke_Key.backspace	Key.backspace	n/a
166.7065	0.0895	333413	keystroke_l	l	n/a
166.781	0.1205	333562	keystroke_d	d	n/a
166.9165	0.105	333833	keystroke_Key.space	Key.space	n/a
167.2915	0.1045	334583	keystroke_v	v	n/a
167.441	0.1205	334882	keystroke_e	e	n/a
167.5465	0.0895	335093	keystroke_n	n	n/a
167.6815	0.045	335363	keystroke_t	t	n/a
167.8015	0.105	335603	keystroke_u	u	n/a
167.8915	0.1195	335783	keystroke_r	r	n/a
167.9965	0.195	335993	keystroke_e	e	n/a
168.3265	0.06	336653	keystroke_s	s	n/a
168.4615	0.0895	336923	keystroke_Key.space	Key.space	n/a
168.5965	0.09	337193	keystroke_s	s	n/a
168.671	0.0605	337342	keystroke_e	e	n/a
168.882	0.12	337764	keystroke_c	c	n/a
168.9865	0.0605	337973	keystroke_u	u	n/a
169.0915	0.135	338183	keystroke_r	r	n/a
169.2115	0.09	338423	keystroke_i	i	n/a
169.3165	0.12	338633	keystroke_t	t	n/a
169.4665	0.1055	338933	keystroke_y	y	n/a
169.617	0.1045	339234	keystroke_Key.space	Key.space	n/a
169.7665	0.06	339533	keystroke_r	r	n/a
169.8415	0.0605	339683	keystroke_o	o	n/a
170.0215	0.045	340043	keystroke_l	l	n/a
170.1715	0.075	340343	keystroke_l	l	n/a
170.758	0.0735	341516	keystroke_Key.enter	Key.enter	n/a
170.837	6.026	341674	prompt	n/a	medicaid seat pleasant candy\n
172.572	0.0745	345144	keystroke_m	m	n/a
172.6615	0.12	345323	keystroke_e	e	n/a
172.827	0.12	345654	keystroke_d	d	n/a
172.9315	0.09	345863	keystroke_i	i	n/a
173.0365	0.1045	346073	keystroke_c	c	n/a
173.217	0.105	346434	keystroke_a	a	n/a
173.427	0.075	346854	keystroke_i	i	n/a
173.517	0.06	347034	keystroke_d	d	n/a
173.622	0.12	347244	keystroke_Key.space	Key.space	n/a
173.9365	0.015	347873	keystroke_s	s	n/a
174.207	0.105	348414	keystroke_e	e	n/a
174.327	0.15	348654	keystroke_a	a	n/a
174.4315	0.105	348863	keystroke_t	t	n/a
174.597	0.15	349194	keystroke_Key.space	Key.space	n/a
174.8515	0.1055	349703	keystroke_p	p	n/a
175.0165	0.12	350033	keystroke_l	l	n/a
175.092	0.0745	350184	keystroke_e	e	n/a
175.228	0.1785	350456	keystroke_a	a	n/a
175.362	0.1195	350724	keystroke_s	s	n/a
175.602	0.0755	351204	keystroke_a	a	n/a
175.722	0.0745	351444	keystroke_n	n	n/a
175.842	0.0745	351684	keystroke_t	t	n/a
175.917	0.09	351834	keystroke_Key.space	Key.space	n/a
176.082	0.1045	352164	keystroke_c	c	n/a
176.142	0.12	352284	keystroke_a	a	n/a
176.3365	0.076	352673	keystroke_n	n	n/a
176.427	0.12	352854	keystroke_d	d	n/a
176.592	0.0595	353184	keystroke_y	y	n/a
176.817	0.045	353634	keystroke_Key.enter	Key.enter	n/a
176.867	6.476	353734	prompt	n/a	ages acceptable pdas career\n
177.477	0.135	354954	keystroke_a	a	n/a
177.657	0.075	355314	keystroke_g	g	n/a
177.777	0.105	355554	keystroke_e	e	n/a
177.957	0.09	355914	keystroke_s	s	n/a
178.092	0.1205	356184	keystroke_Key.space	Key.space	n/a
178.227	0.105	356454	keystroke_a	a	n/a
178.347	0.1045	356694	keystroke_c	c	n/a
178.527	0.12	357054	keystroke_c	c	n/a
178.602	0.12	357204	keystroke_e	e	n/a
178.7365	0.1055	357473	keystroke_p	p	n/a
178.842	0.075	357684	keystroke_t	t	n/a
178.992	0.135	357984	keystroke_a	a	n/a
179.0975	0.1045	358195	keystroke_b	b	n/a
179.487	0.105	358974	keystroke_l	l	n/a
179.607	0.0595	359214	keystroke_e	e	n/a
179.712	0.15	359424	keystroke_Key.space	Key.space	n/a
180.057	0.1045	360114	keystroke_p	p	n/a
180.1765	0.1055	360353	keystroke_d	d	n/a
180.582	0.075	361164	keystroke_s	s	n/a
181.122	0.075	362244	keystroke_Key.backspace	Key.backspace	n/a
181.227	0.09	362454	keystroke_a	a	n/a
181.4515	0.06	362903	keystroke_s	s	n/a
181.587	0.12	363174	keystroke_Key.space	Key.space	n/a
182.007	0.12	364014	keystroke_c	c	n/a
182.157	0.105	364314	keystroke_a	a	n/a
182.3515	0.1055	364703	keystroke_r	r	n/a
182.532	0.1045	365064	keystroke_e	e	n/a
182.7415	0.0605	365483	keystroke_e	e	n/a
183.132	0.015	366264	keystroke_r	r	n/a
183.2665	0.0755	366533	keystroke_Key.enter	Key.enter	n/a
183.3455	5.5025	366691	prompt	n/a	investors biggest formats centres\n
184.1515	0.0905	368303	keystroke_i	i	n/a
184.227	0.0905	368454	keystroke_n	n	n/a
184.3175	0.1045	368635	keystroke_v	v	n/a
184.497	0.075	368994	keystroke_e	e	n/a
184.6615	0.09	369323	keystroke_s	s	n/a
184.7365	0.0605	369473	keystroke_t	t	n/a
184.842	0.105	369684	keystroke_o	o	n/a
184.962	0.1045	369924	keystroke_r	r	n/a
185.142	0.105	370284	keystroke_s	s	n/a
185.262	0.135	370524	keystroke_Key.space	Key.space	n/a
185.412	0.105	370824	keystroke_b	b	n/a
185.532	0.1045	371064	keystroke_i	i	n/a
185.682	0.075	371364	keystroke_g	g	n/a
185.862	0.045	371724	keystroke_g	g	n/a
185.9815	0.0905	371963	keystroke_e	e	n/a
186.147	0.1195	372294	keystroke_s	s	n/a
186.282	0.045	372564	keystroke_t	t	n/a
186.372	0.105	372744	keystroke_Key.space	Key.space	n/a
186.492	0.0745	372984	keystroke_f	f	n/a
186.5815	0.121	373163	keystroke_o	o	n/a
186.717	0.045	373434	keystroke_r	r	n/a
186.777	0.12	373554	keystroke_m	m	n/a
186.912	0.12	373824	keystroke_a	a	n/a
186.972	0.12	373944	keystroke_t	t	n/a
187.197	0.09	374394	keystroke_s	s	n/a
187.302	0.12	374604	keystroke_Key.space	Key.space	n/a
187.497	0.12	374994	keystroke_c	c	n/a
187.602	0.12	375204	keystroke_e	e	n/a
187.7365	0.0755	375473	keystroke_n	n	n/a
187.827	0.075	375654	keystroke_t	t	n/a
188.172	0.09	376344	keystroke_r	r	n/a
188.322	0.105	376644	keystroke_e	e	n/a
188.562	0.075	377124	keystroke_s	s	n/a
188.742	0.105	377484	keystroke_Key.enter	Key.enter	n/a
188.8505	6.1625	377701	prompt	n/a	voip sprint visibility cold\n
189.5965	0.0755	379193	keystroke_v	v	n/a
189.807	0.0595	379614	keystroke_o	o	n/a
189.8515	0.1055	379703	keystroke_i	i	n/a
190.2125	0.1345	380425	keystroke_p	p	n/a
190.362	0.1045	380724	keystroke_Key.space	Key.space	n/a
190.602	0.075	381204	keystroke_s	s	n/a
190.707	0.075	381414	keystroke_p	p	n/a
190.812	0.12	381624	keystroke_r	r	n/a
190.9775	0.119	381955	keystroke_i	i	n/a
191.023	0.134	382046	keystroke_n	n	n/a
191.142	0.09	382284	keystroke_t	t	n/a
191.3075	0.0895	382615	keystroke_Key.space	Key.space	n/a
191.637	0.0905	383274	keystroke_v	v	n/a
191.758	0.089	383516	keystroke_i	i	n/a
191.832	0.1195	383664	keystroke_s	s	n/a
191.967	0.09	383934	keystroke_i	i	n/a
192.042	0.09	384084	keystroke_b	b	n/a
193.1515	0.1065	386303	keystroke_i	i	n/a
193.317	0.1495	386634	keystroke_l	l	n/a
193.392	0.12	386784	keystroke_i	i	n/a
193.5575	0.1045	387115	keystroke_t	t	n/a
193.662	0.0745	387324	keystroke_y	y	n/a
193.782	0.105	387564	keystroke_Key.space	Key.space	n/a
193.992	0.12	387984	keystroke_c	c	n/a
194.262	0.045	388524	keystroke_o	o	n/a
194.442	0.12	388884	keystroke_l	l	n/a
194.547	0.06	389094	keystroke_d	d	n/a
194.922	0.09	389844	keystroke_Key.enter	Key.enter	n/a
195.016	7.5565	390032	prompt	n/a	stakeholders viking villas jewel\n
196.887	0.045	393774	keystroke_s	s	n/a
197.082	0.046	394164	keystroke_t	t	n/a
197.532	0.06	395064	keystroke_a	a	n/a
197.6365	0.1355	395273	keystroke_k	k	n/a
197.787	0.06	395574	keystroke_e	e	n/a
198.012	0.12	396024	keystroke_h	h	n/a
198.0865	0.0605	396173	keystroke_o	o	n/a
198.2365	0.0905	396473	keystroke_l	l	n/a
198.312	0.12	396624	keystroke_d	d	n/a
198.478	0.15	396956	keystroke_e	e	n/a
198.582	0.12	397164	keystroke_r	r	n/a
198.8075	0.0745	397615	keystroke_s	s	n/a
198.957	0.105	397914	keystroke_Key.space	Key.space	n/a
199.362	0.0745	398724	keystroke_v	v	n/a
199.482	0.105	398964	keystroke_i	i	n/a
199.692	0.0445	399384	keystroke_k	k	n/a
199.782	0.1655	399564	keystroke_i	i	n/a
199.902	0.105	399804	keystroke_n	n	n/a
199.992	0.09	399984	keystroke_g	g	n/a
200.097	0.135	400194	keystroke_Key.space	Key.space	n/a
200.2465	0.09	400493	keystroke_v	v	n/a
200.322	0.075	400644	keystroke_i	i	n/a
200.502	0.075	401004	keystroke_l	l	n/a
200.6365	0.0905	401273	keystroke_l	l	n/a
200.742	0.1355	401484	keystroke_a	a	n/a
200.922	0.12	401844	keystroke_s	s	n/a
201.057	0.1505	402114	keystroke_Key.space	Key.space	n/a
201.282	0.105	402564	keystroke_j	j	n/a
201.432	0.1655	402864	keystroke_e	e	n/a
201.642	0.165	403284	keystroke_w	w	n/a
202.182	0.09	404364	keystroke_e	e	n/a
202.2725	0.12	404545	keystroke_l	l	n/a
202.467	0.105	404934	keystroke_Key.enter	Key.enter	n/a
202.5755	5.9675	405151	prompt	n/a	operators maine herbal armor\n
203.427	0.1655	406854	keystroke_o	o	n/a
203.5775	0.12	407155	keystroke_p	p	n/a
203.7125	0.1495	407425	keystroke_e	e	n/a
203.833	0.1495	407666	keystroke_r	r	n/a
203.9225	0.2105	407845	keystroke_a	a	n/a
204.1025	0.12	408205	keystroke_t	t	n/a
204.237	0.105	408474	keystroke_o	o	n/a
204.357	0.135	408714	keystroke_r	r	n/a
204.537	0.1355	409074	keystroke_s	s	n/a
204.687	0.1055	409374	keystroke_Key.space	Key.space	n/a
204.867	0.12	409734	keystroke_m	m	n/a
205.002	0.0905	410004	keystroke_a	a	n/a
205.167	0.1205	410334	keystroke_i	i	n/a
205.2125	0.12	410425	keystroke_n	n	n/a
205.3475	0.1045	410695	keystroke_e	e	n/a
205.4975	0.105	410995	keystroke_Key.space	Key.space	n/a
205.7675	0.1045	411535	keystroke_h	h	n/a
205.917	0.1505	411834	keystroke_e	e	n/a
206.007	0.12	412014	keystroke_r	r	n/a
206.247	0.105	412494	keystroke_b	b	n/a
206.367	0.1055	412734	keystroke_a	a	n/a
206.5625	0.1345	413125	keystroke_l	l	n/a
206.892	0.135	413784	keystroke_Key.space	Key.space	n/a
207.702	0.06	415404	keystroke_a	a	n/a
207.822	0.09	415644	keystroke_r	r	n/a
207.957	0.135	415914	keystroke_m	m	n/a
208.137	0.135	416274	keystroke_o	o	n/a
208.287	0.09	416574	keystroke_r	r	n/a
208.422	0.12	416844	keystroke_Key.enter	Key.enter	n/a
208.546	5.8475	417092	prompt	n/a	amendment treating disagree seminars\n
209.337	0.09	418674	keystroke_m	m	n/a
209.712	0.06	419424	keystroke_Key.backspace	Key.backspace	n/a
209.803	0.0745	419606	keystroke_a	a	n/a
209.937	0.0755	419874	keystroke_m	m	n/a
210.117	0.075	420234	keystroke_e	e	n/a
210.237	0.1055	420474	keystroke_n	n	n/a
210.3425	0.105	420685	keystroke_d	d	n/a
210.5825	0.09	421165	keystroke_m	m	n/a
210.6575	0.09	421315	keystroke_e	e	n/a
210.7625	0.1345	421525	keystroke_n	n	n/a
210.882	0.0605	421764	keystroke_t	t	n/a
210.9575	0.105	421915	keystroke_Key.space	Key.space	n/a
211.1075	0.075	422215	keystroke_t	t	n/a
211.3025	0.1345	422605	keystroke_r	r	n/a
211.3625	0.15	422725	keystroke_e	e	n/a
211.5725	0.135	423145	keystroke_a	a	n/a
211.6625	0.1045	423325	keystroke_t	t	n/a
211.7825	0.135	423565	keystroke_i	i	n/a
211.8575	0.105	423715	keystroke_n	n	n/a
211.8725	0.1645	423745	keystroke_g	g	n/a
212.0075	0.1195	424015	keystroke_Key.space	Key.space	n/a
212.1125	0.105	424225	keystroke_d	d	n/a
212.2625	0.0895	424525	keystroke_i	i	n/a
212.337	0.0605	424674	keystroke_s	s	n/a
212.4725	0.105	424945	keystroke_a	a	n/a
212.6225	0.09	425245	keystroke_g	g	n/a
212.832	0.0905	425664	keystroke_r	r	n/a
212.8775	0.0595	425755	keystroke_e	e	n/a
213.0125	0.075	426025	keystroke_e	e	n/a
213.1325	0.15	426265	keystroke_Key.space	Key.space	n/a
213.237	0.1055	426474	keystroke_s	s	n/a
213.3275	0.09	426655	keystroke_e	e	n/a
213.4325	0.1045	426865	keystroke_m	m	n/a
213.552	0.121	427104	keystroke_i	i	n/a
213.6275	0.12	427255	keystroke_n	n	n/a
213.7625	0.15	427525	keystroke_a	a	n/a
213.9575	0.1345	427915	keystroke_r	r	n/a
214.167	0.106	428334	keystroke_s	s	n/a
214.2875	0.105	428575	keystroke_Key.enter	Key.enter	n/a
214.396	5.457	428792	prompt	n/a	oasis commerce painful translator\n
215.097	0.1205	430194	keystroke_o	o	n/a
215.2175	0.09	430435	keystroke_a	a	n/a
215.337	0.1505	430674	keystroke_s	s	n/a
215.532	0.12	431064	keystroke_i	i	n/a
215.6075	0.09	431215	keystroke_s	s	n/a
215.7425	0.135	431485	keystroke_Key.space	Key.space	n/a
216.1325	0.1195	432265	keystroke_c	c	n/a
216.1775	0.0745	432355	keystroke_o	o	n/a
216.3575	0.075	432715	keystroke_m	m	n/a
216.4825	0.1	432965	keystroke_m	m	n/a
216.5975	0.15	433195	keystroke_e	e	n/a
216.7325	0.06	433465	keystroke_r	r	n/a
216.9425	0.1505	433885	keystroke_c	c	n/a
217.0175	0.1195	434035	keystroke_e	e	n/a
217.2125	0.0745	434425	keystroke_Key.space	Key.space	n/a
217.302	0.1055	434604	keystroke_p	p	n/a
217.3775	0.12	434755	keystroke_a	a	n/a
217.5125	0.15	435025	keystroke_i	i	n/a
217.6175	0.105	435235	keystroke_n	n	n/a
217.767	0.1355	435534	keystroke_f	f	n/a
217.9775	0.105	435955	keystroke_u	u	n/a
218.1275	0.12	436255	keystroke_l	l	n/a
218.2175	0.1345	436435	keystroke_Key.space	Key.space	n/a
218.3975	0.075	436795	keystroke_t	t	n/a
218.5175	0.0745	437035	keystroke_r	r	n/a
218.6075	0.09	437215	keystroke_a	a	n/a
218.6825	0.12	437365	keystroke_n	n	n/a
218.8325	0.1045	437665	keystroke_s	s	n/a
219.0275	0.105	438055	keystroke_l	l	n/a
219.1475	0.1045	438295	keystroke_a	a	n/a
219.267	0.1355	438534	keystroke_t	t	n/a
219.4775	0.12	438955	keystroke_o	o	n/a
219.5825	0.09	439165	keystroke_r	r	n/a
219.7775	0.0745	439555	keystroke_Key.enter	Key.enter	n/a
219.856	5.6375	439712	prompt	n/a	duke established minimal mariah\n
220.677	0.075	441354	keystroke_d	d	n/a
220.7975	0.075	441595	keystroke_u	u	n/a
220.9775	0.105	441955	keystroke_k	k	n/a
221.052	0.1355	442104	keystroke_e	e	n/a
221.2025	0.105	442405	keystroke_Key.space	Key.space	n/a
221.3225	0.06	442645	keystroke_e	e	n/a
221.4575	0.075	442915	keystroke_s	s	n/a
221.5475	0.0895	443095	keystroke_t	t	n/a
221.713	0.1645	443426	keystroke_a	a	n/a
221.8925	0.0745	443785	keystroke_b	b	n/a
222.0135	0.1495	444027	keystroke_l	l	n/a
222.0875	0.12	444175	keystroke_i	i	n/a
222.2075	0.105	444415	keystroke_s	s	n/a
222.3275	0.1045	444655	keystroke_h	h	n/a
222.4475	0.075	444895	keystroke_e	e	n/a
222.5975	0.105	445195	keystroke_d	d	n/a
222.7175	0.105	445435	keystroke_Key.space	Key.space	n/a
222.8975	0.1495	445795	keystroke_m	m	n/a
223.047	0.09	446094	keystroke_i	i	n/a
223.1225	0.105	446245	keystroke_n	n	n/a
223.213	0.1195	446426	keystroke_i	i	n/a
223.737	0.0905	447474	keystroke_m	m	n/a
223.8575	0.12	447715	keystroke_a	a	n/a
224.0825	0.15	448165	keystroke_l	l	n/a
224.1875	0.105	448375	keystroke_Key.space	Key.space	n/a
224.4575	0.12	448915	keystroke_m	m	n/a
224.5625	0.1045	449125	keystroke_a	a	n/a
224.6225	0.09	449245	keystroke_r	r	n/a
224.7275	0.135	449455	keystroke_i	i	n/a
224.8775	0.0895	449755	keystroke_a	a	n/a
225.1775	0.0745	450355	keystroke_h	h	n/a
225.3875	0.105	450775	keystroke_Key.enter	Key.enter	n/a
225.497	6.9115	450994	prompt	n/a	decide partners association prague\n
226.152	0.09	452304	keystroke_d	d	n/a
226.3325	0.045	452665	keystroke_e	e	n/a
226.8425	0.09	453685	keystroke_c	c	n/a
226.9175	0.09	453835	keystroke_i	i	n/a
227.0225	0.075	454045	keystroke_d	d	n/a
227.1725	0.075	454345	keystroke_e	e	n/a
227.3075	0.105	454615	keystroke_Key.space	Key.space	n/a
227.5175	0.105	455035	keystroke_p	p	n/a
227.637	0.03	455274	keystroke_a	a	n/a
227.652	0.0905	455304	keystroke_r	r	n/a
227.9975	0.075	455995	keystroke_t	t	n/a
228.2075	0.105	456415	keystroke_n	n	n/a
228.3275	0.105	456655	keystroke_e	e	n/a
228.4475	0.075	456895	keystroke_r	r	n/a
228.6575	0.105	457315	keystroke_s	s	n/a
228.7775	0.135	457555	keystroke_Key.space	Key.space	n/a
228.9275	0.105	457855	keystroke_a	a	n/a
229.137	0.0455	458274	keystroke_s	s	n/a
229.2275	0.195	458455	keystroke_s	s	n/a
229.768	0.0745	459536	keystroke_o	o	n/a
229.9775	0.1045	459955	keystroke_c	c	n/a
230.097	0.075	460194	keystroke_i	i	n/a
230.2175	0.1195	460435	keystroke_a	a	n/a
230.3225	0.105	460645	keystroke_t	t	n/a
230.5175	0.255	461035	keystroke_i	i	n/a
230.5925	0.165	461185	keystroke_o	o	n/a
230.7125	0.15	461425	keystroke_n	n	n/a
231.2075	0.105	462415	keystroke_Key.space	Key.space	n/a
231.6275	0.06	463255	keystroke_p	p	n/a
231.672	0.0905	463344	keystroke_r	r	n/a
231.8075	0.12	463615	keystroke_a	a	n/a
231.9125	0.1195	463825	keystroke_g	g	n/a
232.0925	0.0745	464185	keystroke_u	u	n/a
232.1825	0.045	464365	keystroke_e	e	n/a
232.3025	0.105	464605	keystroke_Key.enter	Key.enter	n/a
232.4145	7.298	464829	prompt	n/a	isolated exploration closest sampling\n
233.3825	0.09	466765	keystroke_i	i	n/a
233.5175	0.0895	467035	keystroke_s	s	n/a
234.1925	0.0455	468385	keystroke_o	o	n/a
234.597	0.0455	469194	keystroke_l	l	n/a
234.6425	0.15	469285	keystroke_a	a	n/a
234.7775	0.105	469555	keystroke_t	t	n/a
234.837	0.0605	469674	keystroke_e	e	n/a
235.0025	0.075	470005	keystroke_d	d	n/a
235.122	0.105	470244	keystroke_Key.space	Key.space	n/a
235.4825	0.06	470965	keystroke_e	e	n/a
235.6475	0.0895	471295	keystroke_x	x	n/a
235.767	0.075	471534	keystroke_p	p	n/a
235.9475	0.045	471895	keystroke_l	l	n/a
236.0825	0.105	472165	keystroke_o	o	n/a
236.1425	0.15	472285	keystroke_r	r	n/a
236.3075	0.12	472615	keystroke_a	a	n/a
236.3825	0.1195	472765	keystroke_t	t	n/a
236.5775	0.21	473155	keystroke_i	i	n/a
236.6225	0.18	473245	keystroke_o	o	n/a
236.7425	0.135	473485	keystroke_n	n	n/a
236.8625	0.12	473725	keystroke_Key.space	Key.space	n/a
237.0875	0.135	474175	keystroke_c	c	n/a
237.237	0.0755	474474	keystroke_l	l	n/a
237.3875	0.105	474775	keystroke_o	o	n/a
237.508	0.1495	475016	keystroke_s	s	n/a
237.7475	0.0895	475495	keystroke_e	e	n/a
237.9125	0.09	475825	keystroke_s	s	n/a
238.0175	0.0905	476035	keystroke_t	t	n/a
238.137	0.1505	476274	keystroke_Key.space	Key.space	n/a
238.3325	0.165	476665	keystroke_s	s	n/a
238.5125	0.075	477025	keystroke_a	a	n/a
238.6325	0.1195	477265	keystroke_m	m	n/a
238.708	0.1495	477416	keystroke_p	p	n/a
238.9325	0.1645	477865	keystroke_l	l	n/a
239.008	0.1645	478016	keystroke_i	i	n/a
239.2775	0.105	478555	keystroke_n	n	n/a
239.458	0.1045	478916	keystroke_g	g	n/a
239.6075	0.1045	479215	keystroke_Key.enter	Key.enter	n/a
239.7165	6.8515	479433	prompt	n/a	difficult contest brooks terrace\n
240.3425	0.075	480685	keystroke_d	d	n/a
240.4625	0.1045	480925	keystroke_i	i	n/a
240.5825	0.045	481165	keystroke_f	f	n/a
240.7325	0.1045	481465	keystroke_f	f	n/a
241.1225	0.1205	482245	keystroke_i	i	n/a
241.4225	0.105	482845	keystroke_c	c	n/a
241.5875	0.1495	483175	keystroke_u	u	n/a
241.7225	0.12	483445	keystroke_l	l	n/a
241.8875	0.105	483775	keystroke_t	t	n/a
242.052	0.1505	484104	keystroke_Key.space	Key.space	n/a
242.5175	0.1345	485035	keystroke_c	c	n/a
242.6075	0.0595	485215	keystroke_o	o	n/a
242.7125	0.135	485425	keystroke_n	n	n/a
242.8625	0.135	485725	keystroke_t	t	n/a
243.252	0.1205	486504	keystroke_s	s	n/a
243.4025	0.09	486805	keystroke_t	t	n/a
243.6125	0.135	487225	keystroke_Key.space	Key.space	n/a
243.9425	0.075	487885	keystroke_b	b	n/a
244.137	0.0755	488274	keystroke_r	r	n/a
244.2275	0.0445	488455	keystroke_o	o	n/a
244.3925	0.09	488785	keystroke_o	o	n/a
244.5575	0.1055	489115	keystroke_k	k	n/a
244.6325	0.1195	489265	keystroke_s	s	n/a
244.767	0.1355	489534	keystroke_Key.space	Key.space	n/a
245.0075	0.09	490015	keystroke_t	t	n/a
245.2325	0.045	490465	keystroke_e	e	n/a
245.3825	0.045	490765	keystroke_r	r	n/a
245.5175	0.075	491035	keystroke_r	r	n/a
245.637	0.0755	491274	keystroke_a	a	n/a
245.967	0.1655	491934	keystroke_c	c	n/a
246.102	0.1055	492204	keystroke_e	e	n/a
246.4625	0.1045	492925	keystroke_Key.enter	Key.enter	n/a
246.571	7.242	493142	prompt	n/a	expired wise currencies precise\n
247.2875	0.045	494575	keystroke_e	e	n/a
247.467	0.1505	494934	keystroke_x	x	n/a
247.7225	0.135	495445	keystroke_p	p	n/a
248.022	0.0755	496044	keystroke_i	i	n/a
248.2925	0.12	496585	keystroke_r	r	n/a
248.367	0.0905	496734	keystroke_e	e	n/a
248.5625	0.1045	497125	keystroke_d	d	n/a
248.7275	0.105	497455	keystroke_Key.space	Key.space	n/a
249.132	0.0755	498264	keystroke_w	w	n/a
249.282	0.1055	498564	keystroke_i	i	n/a
249.4025	0.105	498805	keystroke_s	s	n/a
249.5825	0.09	499165	keystroke_e	e	n/a
249.7175	0.1345	499435	keystroke_Key.space	Key.space	n/a
249.8225	0.135	499645	keystroke_c	c	n/a
249.9725	0.061	499945	keystroke_u	u	n/a
250.0475	0.06	500095	keystroke_r	r	n/a
250.183	0.0895	500366	keystroke_r	r	n/a
250.3175	0.105	500635	keystroke_e	e	n/a
250.437	0.1055	500874	keystroke_n	n	n/a
250.572	0.1055	501144	keystroke_c	c	n/a
250.8125	0.105	501625	keystroke_i	i	n/a
250.9325	0.075	501865	keystroke_e	e	n/a
251.0975	0.1195	502195	keystroke_s	s	n/a
251.3675	0.105	502735	keystroke_Key.space	Key.space	n/a
251.6975	0.09	503395	keystroke_p	p	n/a
251.7725	0.0745	503545	keystroke_r	r	n/a
252.2825	0.075	504565	keystroke_e	e	n/a
252.4325	0.1345	504865	keystroke_c	c	n/a
252.9125	0.12	505825	keystroke_i	i	n/a
253.0175	0.1495	506035	keystroke_s	s	n/a
253.182	0.0755	506364	keystroke_e	e	n/a
253.7225	0.09	507445	keystroke_Key.enter	Key.enter	n/a
253.8165	6.2515	507633	prompt	n/a	neck reviewing exhibits focusing\n
254.547	0.0605	509094	keystroke_n	n	n/a
254.7125	0.075	509425	keystroke_e	e	n/a
254.8925	0.1795	509785	keystroke_c	c	n/a
255.057	0.1205	510114	keystroke_k	k	n/a
255.2075	0.105	510415	keystroke_Key.space	Key.space	n/a
255.9875	0.09	511975	keystroke_r	r	n/a
256.0325	0.06	512065	keystroke_e	e	n/a
256.1975	0.0745	512395	keystroke_v	v	n/a
256.3025	0.09	512605	keystroke_i	i	n/a
256.4075	0.12	512815	keystroke_e	e	n/a
256.4825	0.12	512965	keystroke_w	w	n/a
256.752	0.1505	513504	keystroke_i	i	n/a
256.8275	0.18	513655	keystroke_n	n	n/a
256.962	0.105	513924	keystroke_g	g	n/a
257.0825	0.135	514165	keystroke_Key.space	Key.space	n/a
257.5175	0.015	515035	keystroke_e	e	n/a
257.7575	0.105	515515	keystroke_x	x	n/a
257.937	0.0755	515874	keystroke_h	h	n/a
258.0125	0.15	516025	keystroke_i	i	n/a
258.282	0.0755	516564	keystroke_b	b	n/a
258.3725	0.105	516745	keystroke_i	i	n/a
258.4925	0.0745	516985	keystroke_t	t	n/a
258.6725	0.105	517345	keystroke_s	s	n/a
258.7925	0.165	517585	keystroke_Key.space	Key.space	n/a
258.9725	0.015	517945	keystroke_f	f	n/a
259.0325	0.091	518065	keystroke_o	o	n/a
259.1075	0.12	518215	keystroke_c	c	n/a
259.2425	0.075	518485	keystroke_u	u	n/a
259.3625	0.1045	518725	keystroke_s	s	n/a
259.5125	0.18	519025	keystroke_i	i	n/a
259.6175	0.1195	519235	keystroke_n	n	n/a
259.752	0.1055	519504	keystroke_g	g	n/a
259.9775	0.0895	519955	keystroke_Key.enter	Key.enter	n/a
260.071	11.817	520142	prompt	n/a	retailer austria limousines oils\n
260.922	0.1055	521844	keystroke_r	r	n/a
261.0125	0.06	522025	keystroke_e	e	n/a
261.5225	0.075	523045	keystroke_t	t	n/a
261.6725	0.0745	523345	keystroke_a	a	n/a
261.837	0.1055	523674	keystroke_i	i	n/a
261.957	0.075	523914	keystroke_r	r	n/a
262.138	0.1345	524276	keystroke_l	l	n/a
262.2875	0.09	524575	keystroke_e	e	n/a
262.3625	0.06	524725	keystroke_r	r	n/a
262.497	0.135	524994	keystroke_Key.space	Key.space	n/a
262.962	0.045	525924	keystroke_Key.backspace	Key.backspace	n/a
263.0975	0.075	526195	keystroke_Key.backspace	Key.backspace	n/a
263.2475	0.0595	526495	keystroke_Key.backspace	Key.backspace	n/a
263.4125	0.075	526825	keystroke_Key.backspace	Key.backspace	n/a
263.5625	0.0745	527125	keystroke_Key.backspace	Key.backspace	n/a
263.802	0.0755	527604	keystroke_l	l	n/a
264.1775	0.1195	528355	keystroke_e	e	n/a
264.282	0.12	528564	keystroke_r	r	n/a
264.507	0.1205	529014	keystroke_Key.space	Key.space	n/a
265.182	0.1045	530364	keystroke_a	a	n/a
265.302	0.105	530604	keystroke_u	u	n/a
265.4515	0.0455	530903	keystroke_d	d	n/a
265.917	0.045	531834	keystroke_s	s	n/a
266.0365	0.1355	532073	keystroke_s	s	n/a
266.217	0.015	532434	keystroke_s	s	n/a
266.307	0.075	532614	keystroke_Key.backspace	Key.backspace	n/a
266.442	0.075	532884	keystroke_Key.backspace	Key.backspace	n/a
266.5915	0.045	533183	keystroke_Key.backspace	Key.backspace	n/a
266.757	0.06	533514	keystroke_Key.backspace	Key.backspace	n/a
266.802	0.09	533604	keystroke_s	s	n/a
266.9665	0.0755	533933	keystroke_t	t	n/a
267.2065	0.0905	534413	keystroke_r	r	n/a
267.3725	0.1195	534745	keystroke_i	i	n/a
267.477	0.12	534954	keystroke_a	a	n/a
267.672	0.1645	535344	keystroke_Key.space	Key.space	n/a
268.7965	0.0455	537593	keystroke_l	l	n/a
268.827	0.1045	537654	keystroke_i	i	n/a
269.097	0.0445	538194	keystroke_m	m	n/a
269.3365	0.1205	538673	keystroke_o	o	n/a
269.382	0.09	538764	keystroke_u	u	n/a
269.817	0.075	539634	keystroke_s	s	n/a
269.9975	0.119	539995	keystroke_i	i	n/a
270.0715	0.135	540143	keystroke_n	n	n/a
270.1915	0.0595	540383	keystroke_e	e	n/a
270.327	0.1345	540654	keystroke_s	s	n/a
270.507	0.135	541014	keystroke_Key.space	Key.space	n/a
271.1965	0.0915	542393	keystroke_o	o	n/a
271.2715	0.12	542543	keystroke_i	i	n/a
271.482	0.12	542964	keystroke_l	l	n/a
271.587	0.0895	543174	keystroke_s	s	n/a
271.812	0.0745	543624	keystroke_Key.enter	Key.enter	n/a
271.8915	7.406	543783	prompt	n/a	plymouth reid extending logs\n
272.6365	0.1205	545273	keystroke_p	p	n/a
272.8165	0.1795	545633	keystroke_l	l	n/a
272.922	0.09	545844	keystroke_u	u	n/a
273.1915	0.091	546383	keystroke_m	m	n/a
273.3265	0.075	546653	keystroke_o	o	n/a
273.7015	0.075	547403	keystroke_Key.backspace	Key.backspace	n/a
273.851	0.0455	547702	keystroke_Key.backspace	Key.backspace	n/a
273.972	0.0745	547944	keystroke_Key.backspace	Key.backspace	n/a
274.182	0.0445	548364	keystroke_y	y	n/a
274.4215	0.135	548843	keystroke_m	m	n/a
274.6315	0.15	549263	keystroke_o	o	n/a
274.7365	0.09	549473	keystroke_u	u	n/a
274.932	0.1045	549864	keystroke_t	t	n/a
275.0515	0.12	550103	keystroke_h	h	n/a
275.2165	0.135	550433	keystroke_Key.space	Key.space	n/a
275.5315	0.0755	551063	keystroke_r	r	n/a
275.802	0.0745	551604	keystroke_e	e	n/a
276.3115	0.0905	552623	keystroke_i	i	n/a
276.3865	0.1355	552773	keystroke_d	d	n/a
276.536	0.136	553072	keystroke_Key.space	Key.space	n/a
276.717	0.0745	553434	keystroke_e	e	n/a
277.0465	0.12	554093	keystroke_x	x	n/a
277.3025	0.074	554605	keystroke_t	t	n/a
277.4815	0.075	554963	keystroke_e	e	n/a
277.602	0.12	555204	keystroke_n	n	n/a
277.7065	0.0905	555413	keystroke_d	d	n/a
277.842	0.12	555684	keystroke_i	i	n/a
277.917	0.1195	555834	keystroke_n	n	n/a
277.977	0.074	555954	keystroke_g	g	n/a
278.0665	0.136	556133	keystroke_Key.space	Key.space	n/a
278.3065	0.09	556613	keystroke_l	l	n/a
278.712	0.0745	557424	keystroke_o	o	n/a
278.8315	0.105	557663	keystroke_g	g	n/a
278.9815	0.1055	557963	keystroke_s	s	n/a
279.2515	0.045	558503	keystroke_Key.enter	Key.enter	n/a
279.301	4.917	558602	prompt	n/a	spain tide kirk underwear\n
279.9715	0.12	559943	keystroke_s	s	n/a
280.107	0.1045	560214	keystroke_p	p	n/a
280.197	0.12	560394	keystroke_a	a	n/a
280.4215	0.075	560843	keystroke_i	i	n/a
280.512	0.1195	561024	keystroke_n	n	n/a
280.6165	0.135	561233	keystroke_Key.space	Key.space	n/a
280.7965	0.1055	561593	keystroke_t	t	n/a
280.917	0.105	561834	keystroke_i	i	n/a
281.051	0.0755	562102	keystroke_d	d	n/a
281.2315	0.075	562463	keystroke_e	e	n/a
281.3515	0.1355	562703	keystroke_Key.space	Key.space	n/a
281.5315	0.075	563063	keystroke_k	k	n/a
281.7115	0.105	563423	keystroke_i	i	n/a
281.8315	0.1345	563663	keystroke_r	r	n/a
281.9815	0.165	563963	keystroke_k	k	n/a
282.1615	0.165	564323	keystroke_Key.space	Key.space	n/a
282.672	0.0895	565344	keystroke_u	u	n/a
282.8815	0.091	565763	keystroke_n	n	n/a
282.927	0.0595	565854	keystroke_d	d	n/a
283.0615	0.12	566123	keystroke_e	e	n/a
283.1665	0.12	566333	keystroke_r	r	n/a
283.4515	0.105	566903	keystroke_w	w	n/a
283.572	0.225	567144	keystroke_e	e	n/a
283.7815	0.1505	567563	keystroke_a	a	n/a
283.857	0.1195	567714	keystroke_r	r	n/a
284.112	0.105	568224	keystroke_Key.enter	Key.enter	n/a
284.2215	8.231	568443	prompt	n/a	pepper international mauritius organizer\n
284.9365	0.1055	569873	keystroke_p	p	n/a
285.117	0.0595	570234	keystroke_e	e	n/a
285.3865	0.0755	570773	keystroke_p	p	n/a
285.5365	0.09	571073	keystroke_p	p	n/a
285.612	0.105	571224	keystroke_e	e	n/a
285.6715	0.135	571343	keystroke_r	r	n/a
285.7915	0.105	571583	keystroke_Key.space	Key.space	n/a
285.9425	0.119	571885	keystroke_i	i	n/a
286.0465	0.075	572093	keystroke_n	n	n/a
286.0765	0.0895	572153	keystroke_t	t	n/a
286.2715	0.09	572543	keystroke_e	e	n/a
286.3165	0.105	572633	keystroke_r	r	n/a
286.4815	0.105	572963	keystroke_n	n	n/a
286.5715	0.1945	573143	keystroke_a	a	n/a
286.722	0.0895	573444	keystroke_t	t	n/a
286.9165	0.1645	573833	keystroke_i	i	n/a
286.932	0.195	573864	keystroke_o	o	n/a
287.0365	0.195	574073	keystroke_n	n	n/a
287.2015	0.135	574403	keystroke_a	a	n/a
287.3515	0.1505	574703	keystroke_l	l	n/a
287.487	0.149	574974	keystroke_Key.space	Key.space	n/a
287.8015	0.1055	575603	keystroke_m	m	n/a
288.012	0.1195	576024	keystroke_a	a	n/a
288.1465	0.105	576293	keystroke_u	u	n/a
288.312	0.1045	576624	keystroke_r	r	n/a
288.462	0.15	576924	keystroke_i	i	n/a
288.747	0.0745	577494	keystroke_t	t	n/a
288.9275	0.1195	577855	keystroke_i	i	n/a
289.0015	0.12	578003	keystroke_u	u	n/a
289.136	0.1055	578272	keystroke_s	s	n/a
289.287	0.1345	578574	keystroke_Key.space	Key.space	n/a
289.7965	0.075	579593	keystroke_o	o	n/a
290.6365	0.0905	581273	keystroke_r	r	n/a
290.8015	0.0755	581603	keystroke_g	g	n/a
290.9065	0.105	581813	keystroke_a	a	n/a
291.042	0.09	582084	keystroke_n	n	n/a
291.117	0.1195	582234	keystroke_i	i	n/a
291.5515	0.135	583103	keystroke_z	z	n/a
291.9115	0.075	583823	keystroke_e	e	n/a
292.1365	0.1205	584273	keystroke_r	r	n/a
292.347	0.1045	584694	keystroke_Key.enter	Key.enter	n/a
292.4555	4.9635	584911	prompt	n/a	sierra plane insulin charlie\n
293.1565	0.0605	586313	keystroke_s	s	n/a
293.248	0.0885	586496	keystroke_i	i	n/a
293.3515	0.09	586703	keystroke_e	e	n/a
293.4565	0.0755	586913	keystroke_r	r	n/a
293.607	0.09	587214	keystroke_r	r	n/a
293.697	0.12	587394	keystroke_a	a	n/a
293.832	0.1195	587664	keystroke_Key.space	Key.space	n/a
294.132	0.075	588264	keystroke_p	p	n/a
294.312	0.1345	588624	keystroke_l	l	n/a
294.507	0.1045	589014	keystroke_a	a	n/a
295.0315	0.0905	590063	keystroke_n	n	n/a
295.1365	0.0755	590273	keystroke_e	e	n/a
295.197	0.15	590394	keystroke_Key.space	Key.space	n/a
295.4515	0.15	590903	keystroke_i	i	n/a
295.587	0.0295	591174	keystroke_n	n	n/a
295.7065	0.045	591413	keystroke_s	s	n/a
295.7965	0.105	591593	keystroke_u	u	n/a
295.9165	0.105	591833	keystroke_l	l	n/a
296.1865	0.12	592373	keystroke_i	i	n/a
296.2615	0.135	592523	keystroke_n	n	n/a
296.3815	0.1205	592763	keystroke_Key.space	Key.space	n/a
296.5765	0.135	593153	keystroke_c	c	n/a
296.667	0.0895	593334	keystroke_h	h	n/a
296.7715	0.135	593543	keystroke_a	a	n/a
296.8615	0.12	593723	keystroke_r	r	n/a
297.0565	0.165	594113	keystroke_l	l	n/a
297.117	0.1195	594234	keystroke_i	i	n/a
297.2365	0.12	594473	keystroke_e	e	n/a
297.3715	0.0465	594743	keystroke_Key.enter	Key.enter	n/a
297.4225	5.185	594845	prompt	n/a	filtering identical chance toddler\n
298.1065	0.12	596213	keystroke_f	f	n/a
298.2415	0.0905	596483	keystroke_i	i	n/a
298.377	0.135	596754	keystroke_l	l	n/a
298.527	0.075	597054	keystroke_t	t	n/a
298.707	0.12	597414	keystroke_e	e	n/a
298.782	0.09	597564	keystroke_r	r	n/a
298.962	0.15	597924	keystroke_i	i	n/a
299.0515	0.1055	598103	keystroke_n	n	n/a
299.097	0.075	598194	keystroke_g	g	n/a
299.187	0.135	598374	keystroke_Key.space	Key.space	n/a
299.427	0.09	598854	keystroke_i	i	n/a
299.503	0.059	599006	keystroke_d	d	n/a
299.6525	0.1195	599305	keystroke_e	e	n/a
299.727	0.1195	599454	keystroke_n	n	n/a
299.8465	0.09	599693	keystroke_t	t	n/a
299.907	0.135	599814	keystroke_i	i	n/a
300.057	0.1795	600114	keystroke_c	c	n/a
300.222	0.135	600444	keystroke_a	a	n/a
300.4025	0.1195	600805	keystroke_l	l	n/a
300.4915	0.1655	600983	keystroke_Key.space	Key.space	n/a
300.702	0.12	601404	keystroke_c	c	n/a
300.777	0.0895	601554	keystroke_h	h	n/a
300.8665	0.1055	601733	keystroke_a	a	n/a
300.987	0.1045	601974	keystroke_n	n	n/a
301.107	0.2095	602214	keystroke_c	c	n/a
301.2415	0.09	602483	keystroke_e	e	n/a
301.3465	0.165	602693	keystroke_Key.space	Key.space	n/a
301.5565	0.075	603113	keystroke_t	t	n/a
301.6615	0.0895	603323	keystroke_o	o	n/a
301.8115	0.12	603623	keystroke_d	d	n/a
301.9765	0.0745	603953	keystroke_d	d	n/a
302.0965	0.1205	604193	keystroke_l	l	n/a
302.217	0.1795	604434	keystroke_e	e	n/a
302.382	0.09	604764	keystroke_r	r	n/a
302.5315	0.075	605063	keystroke_Key.enter	Key.enter	n/a
302.6105	4.7225	605221	prompt	n/a	speech offices tapes you've\n
303.4015	0.0605	606803	keystroke_s	s	n/a
303.507	0.1045	607014	keystroke_p	p	n/a
303.6265	0.0455	607253	keystroke_e	e	n/a
303.7765	0.075	607553	keystroke_e	e	n/a
303.9265	0.1505	607853	keystroke_c	c	n/a
304.032	0.1045	608064	keystroke_h	h	n/a
304.122	0.06	608244	keystroke_Key.space	Key.space	n/a
304.2265	0.105	608453	keystroke_o	o	n/a
304.3315	0.075	608663	keystroke_f	f	n/a
304.482	0.0745	608964	keystroke_f	f	n/a
304.5725	0.1195	609145	keystroke_i	i	n/a
304.677	0.195	609354	keystroke_c	c	n/a
304.797	0.09	609594	keystroke_e	e	n/a
304.9915	0.075	609983	keystroke_s	s	n/a
305.1115	0.1205	610223	keystroke_Key.space	Key.space	n/a
305.247	0.075	610494	keystroke_t	t	n/a
305.397	0.105	610794	keystroke_a	a	n/a
305.517	0.0895	611034	keystroke_p	p	n/a
305.592	0.09	611184	keystroke_e	e	n/a
305.772	0.105	611544	keystroke_s	s	n/a
305.892	0.0745	611784	keystroke_Key.space	Key.space	n/a
306.072	0.075	612144	keystroke_y	y	n/a
306.222	0.12	612444	keystroke_o	o	n/a
306.2665	0.0905	612533	keystroke_u	u	n/a
306.462	0.045	612924	keystroke_'	'	n/a
306.5215	0.0905	613043	keystroke_v	v	n/a
306.717	0.1045	613434	keystroke_e	e	n/a
307.257	0.075	614514	keystroke_Key.enter	Key.enter	n/a
307.3365	8.412	614673	prompt	n/a	organisations born joined aruba\n
308.397	0.12	616794	keystroke_o	o	n/a
308.577	0.0745	617154	keystroke_r	r	n/a
308.757	0.09	617514	keystroke_g	g	n/a
308.892	0.0745	617784	keystroke_a	a	n/a
309.012	0.12	618024	keystroke_n	n	n/a
309.117	0.105	618234	keystroke_i	i	n/a
309.207	0.09	618414	keystroke_z	z	n/a
309.4615	0.105	618923	keystroke_a	a	n/a
309.7925	0.044	619585	keystroke_Key.backspace	Key.backspace	n/a
309.927	0.075	619854	keystroke_Key.backspace	Key.backspace	n/a
309.987	0.1045	619974	keystroke_s	s	n/a
310.1365	0.1355	620273	keystroke_a	a	n/a
310.317	0.1345	620634	keystroke_t	t	n/a
310.4665	0.2105	620933	keystroke_i	i	n/a
310.572	0.12	621144	keystroke_o	o	n/a
310.632	0.1345	621264	keystroke_n	n	n/a
310.7515	0.0905	621503	keystroke_s	s	n/a
310.887	0.12	621774	keystroke_Key.space	Key.space	n/a
311.262	0.015	622524	keystroke_b	b	n/a
311.292	0.1355	622584	keystroke_o	o	n/a
311.442	0.105	622884	keystroke_r	r	n/a
311.562	0.165	623124	keystroke_n	n	n/a
312.0115	0.1355	624023	keystroke_Key.space	Key.space	n/a
312.2515	0.0605	624503	keystroke_j	j	n/a
312.387	0.195	624774	keystroke_o	o	n/a
312.582	0.2545	625164	keystroke_i	i	n/a
312.822	0.0295	625644	keystroke_n	n	n/a
313.3625	0.074	626725	keystroke_e	e	n/a
313.512	0.075	627024	keystroke_d	d	n/a
313.632	0.09	627264	keystroke_Key.space	Key.space	n/a
313.7365	0.0905	627473	keystroke_s	s	n/a
313.902	0.1345	627804	keystroke_r	r	n/a
314.0515	0.0755	628103	keystroke_u	u	n/a
314.217	0.105	628434	keystroke_b	b	n/a
314.472	0.045	628944	keystroke_Key.backspace	Key.backspace	n/a
314.5915	0.045	629183	keystroke_Key.backspace	Key.backspace	n/a
314.742	0.045	629484	keystroke_Key.backspace	Key.backspace	n/a
314.862	0.06	629724	keystroke_Key.backspace	Key.backspace	n/a
314.892	0.135	629784	keystroke_a	a	n/a
314.982	0.105	629964	keystroke_r	r	n/a
315.162	0.1045	630324	keystroke_u	u	n/a
315.342	0.105	630684	keystroke_b	b	n/a
315.522	0.135	631044	keystroke_a	a	n/a
315.6715	0.0755	631343	keystroke_Key.enter	Key.enter	n/a
315.7515	11.306	631503	prompt	n/a	insects latina html transmit\n
316.317	0.1345	632634	keystroke_i	i	n/a
316.407	0.1045	632814	keystroke_n	n	n/a
316.4815	0.0605	632963	keystroke_s	s	n/a
316.587	0.075	633174	keystroke_e	e	n/a
316.7665	0.0905	633533	keystroke_c	c	n/a
317.232	0.075	634464	keystroke_t	t	n/a
317.412	0.075	634824	keystroke_s	s	n/a
317.562	0.1045	635124	keystroke_Key.space	Key.space	n/a
317.8165	0.0595	635633	keystroke_l	l	n/a
317.8615	0.121	635723	keystroke_a	a	n/a
318.057	0.075	636114	keystroke_t	t	n/a
318.177	0.1055	636354	keystroke_i	i	n/a
318.2515	0.0605	636503	keystroke_n	n	n/a
318.297	0.09	636594	keystroke_e	e	n/a
318.897	0.045	637794	keystroke_Key.backspace	Key.backspace	n/a
318.942	0.091	637884	keystroke_a	a	n/a
319.092	0.09	638184	keystroke_Key.space	Key.space	n/a
324.102	0.105	648204	keystroke_h	h	n/a
324.177	0.045	648354	keystroke_t	t	n/a
324.2815	0.1505	648563	keystroke_m	m	n/a
324.4015	0.1055	648803	keystroke_l	l	n/a
324.492	0.105	648984	keystroke_Key.space	Key.space	n/a
324.972	0.075	649944	keystroke_t	t	n/a
325.122	0.06	650244	keystroke_r	r	n/a
325.1365	0.1205	650273	keystroke_a	a	n/a
325.272	0.105	650544	keystroke_n	n	n/a
325.362	0.1045	650724	keystroke_s	s	n/a
325.527	0.03	651054	keystroke_i	i	n/a
326.0815	0.0455	652163	keystroke_Key.backspace	Key.backspace	n/a
326.6515	0.1205	653303	keystroke_m	m	n/a
326.757	0.0895	653514	keystroke_i	i	n/a
326.862	0.0745	653724	keystroke_t	t	n/a
326.9815	0.075	653963	keystroke_Key.enter	Key.enter	n/a
327.063	7.045	654126	prompt	n/a	processor markers cowboy played\n
327.7165	0.0755	655433	keystroke_p	p	n/a
327.777	0.0595	655554	keystroke_r	r	n/a
327.8665	0.0905	655733	keystroke_o	o	n/a
327.942	0.15	655884	keystroke_c	c	n/a
328.0015	0.135	656003	keystroke_e	e	n/a
328.182	0.075	656364	keystroke_s	s	n/a
328.332	0.075	656664	keystroke_s	s	n/a
328.422	0.15	656844	keystroke_o	o	n/a
328.557	0.03	657114	keystroke_r	r	n/a
328.602	0.105	657204	keystroke_Key.space	Key.space	n/a
328.7515	0.1205	657503	keystroke_m	m	n/a
328.857	0.09	657714	keystroke_a	a	n/a
328.962	0.0745	657924	keystroke_r	r	n/a
329.082	0.09	658164	keystroke_k	k	n/a
329.172	0.15	658344	keystroke_e	e	n/a
329.2775	0.1195	658555	keystroke_r	r	n/a
329.472	0.075	658944	keystroke_s	s	n/a
329.592	0.0745	659184	keystroke_Key.space	Key.space	n/a
331.6015	0.1055	663203	keystroke_c	c	n/a
331.722	0.075	663444	keystroke_o	o	n/a
331.812	0.135	663624	keystroke_w	w	n/a
332.0515	0.0905	664103	keystroke_b	b	n/a
332.157	0.105	664314	keystroke_o	o	n/a
332.3665	0.0605	664733	keystroke_y	y	n/a
332.4725	0.1195	664945	keystroke_Key.space	Key.space	n/a
332.757	0.0745	665514	keystroke_p	p	n/a
332.907	0.09	665814	keystroke_l	l	n/a
332.9515	0.0905	665903	keystroke_a	a	n/a
333.1465	0.0755	666293	keystroke_y	y	n/a
333.2515	0.1055	666503	keystroke_e	e	n/a
333.462	0.045	666924	keystroke_d	d	n/a
334.002	0.105	668004	keystroke_Key.enter	Key.enter	n/a
334.111	8.967	668222	prompt	n/a	available agreement disturbed its\n
334.7965	0.0905	669593	keystroke_a	a	n/a
334.932	0.1045	669864	keystroke_v	v	n/a
335.0515	0.0905	670103	keystroke_a	a	n/a
335.322	0.075	670644	keystroke_i	i	n/a
335.3515	0.1505	670703	keystroke_l	l	n/a
335.6365	0.1205	671273	keystroke_a	a	n/a
335.9215	0.045	671843	keystroke_b	b	n/a
336.057	0.105	672114	keystroke_l	l	n/a
336.147	0.075	672294	keystroke_e	e	n/a
336.2665	0.0905	672533	keystroke_Key.space	Key.space	n/a
336.402	0.105	672804	keystroke_a	a	n/a
336.5665	0.0155	673133	keystroke_g	g	n/a
336.717	0.075	673434	keystroke_r	r	n/a
336.762	0.06	673524	keystroke_e	e	n/a
336.897	0.12	673794	keystroke_e	e	n/a
337.032	0.09	674064	keystroke_m	m	n/a
337.107	0.0905	674214	keystroke_e	e	n/a
337.227	0.105	674454	keystroke_n	n	n/a
337.3475	0.0745	674695	keystroke_t	t	n/a
337.4365	0.1205	674873	keystroke_Key.space	Key.space	n/a
339.8355	0.076	679671	keystroke_d	d	n/a
339.9265	0.0755	679853	keystroke_i	i	n/a
339.9865	0.0905	679973	keystroke_s	s	n/a
340.107	0.2255	680214	keystroke_t	t	n/a
340.7365	0.075	681473	keystroke_u	u	n/a
340.8265	0.0755	681653	keystroke_r	r	n/a
341.007	0.09	682014	keystroke_b	b	n/a
341.202	0.075	682404	keystroke_e	e	n/a
341.382	0.0895	682764	keystroke_d	d	n/a
341.487	0.135	682974	keystroke_Key.space	Key.space	n/a
341.6665	0.1955	683333	keystroke_l	l	n/a
341.7415	0.1355	683483	keystroke_i	i	n/a
342.1015	0.0605	684203	keystroke_Key.backspace	Key.backspace	n/a
342.2675	0.0445	684535	keystroke_Key.backspace	Key.backspace	n/a
342.507	0.105	685014	keystroke_i	i	n/a
342.657	0.0605	685314	keystroke_t	t	n/a
342.8515	0.0905	685703	keystroke_s	s	n/a
343.002	0.075	686004	keystroke_Key.enter	Key.enter	n/a
343.081	6.386	686162	prompt	n/a	relationship monster logo poland\n
343.6915	0.1205	687383	keystroke_r	r	n/a
343.7665	0.0905	687533	keystroke_e	e	n/a
343.9175	0.104	687835	keystroke_l	l	n/a
344.0515	0.1355	688103	keystroke_a	a	n/a
344.127	0.09	688254	keystroke_t	t	n/a
344.202	0.1345	688404	keystroke_i	i	n/a
344.322	0.1805	688644	keystroke_o	o	n/a
344.517	0.075	689034	keystroke_n	n	n/a
344.6815	0.0755	689363	keystroke_s	s	n/a
344.7715	0.0755	689543	keystroke_h	h	n/a
344.9365	0.1205	689873	keystroke_i	i	n/a
345.0415	0.1205	690083	keystroke_p	p	n/a
345.582	0.15	691164	keystroke_Key.space	Key.space	n/a
345.8365	0.1355	691673	keystroke_m	m	n/a
346.047	0.15	692094	keystroke_o	o	n/a
346.1515	0.12	692303	keystroke_n	n	n/a
346.317	0.105	692634	keystroke_s	s	n/a
346.4365	0.0755	692873	keystroke_t	t	n/a
346.797	0.045	693594	keystroke_e	e	n/a
346.947	0.1045	693894	keystroke_r	r	n/a
347.097	0.15	694194	keystroke_Key.space	Key.space	n/a
347.262	0.0745	694524	keystroke_l	l	n/a
347.412	0.12	694824	keystroke_o	o	n/a
347.517	0.06	695034	keystroke_g	g	n/a
347.832	0.1055	695664	keystroke_o	o	n/a
347.9515	0.135	695903	keystroke_Key.space	Key.space	n/a
348.222	0.0745	696444	keystroke_p	p	n/a
348.402	0.075	696804	keystroke_o	o	n/a
348.6115	0.1355	697223	keystroke_l	l	n/a
348.762	0.104	697524	keystroke_a	a	n/a
348.8815	0.1195	697763	keystroke_n	n	n/a
348.9865	0.0895	697973	keystroke_d	d	n/a
349.392	0.0745	698784	keystroke_Key.enter	Key.enter	n/a
349.47	9.0575	698940	prompt	n/a	class second verify whereas\n
350.0815	0.1505	700163	keystroke_c	c	n/a
350.187	0.105	700374	keystroke_l	l	n/a
350.2765	0.105	700553	keystroke_a	a	n/a
350.3365	0.09	700673	keystroke_s	s	n/a
350.532	0.075	701064	keystroke_s	s	n/a
350.6515	0.165	701303	keystroke_Key.space	Key.space	n/a
350.832	0.0895	701664	keystroke_s	s	n/a
350.8765	0.09	701753	keystroke_e	e	n/a
351.102	0.1345	702204	keystroke_c	c	n/a
351.297	0.0895	702594	keystroke_o	o	n/a
351.492	0.09	702984	keystroke_n	n	n/a
351.5365	0.09	703073	keystroke_d	d	n/a
351.6565	0.1355	703313	keystroke_Key.space	Key.space	n/a
351.807	0.105	703614	keystroke_v	v	n/a
352.1665	0.0755	704333	keystroke_e	e	n/a
352.212	0.1195	704424	keystroke_r	r	n/a
352.377	0.0895	704754	keystroke_i	i	n/a
352.482	0.105	704964	keystroke_f	f	n/a
352.602	0.09	705204	keystroke_y	y	n/a
352.917	0.1495	705834	keystroke_Key.space	Key.space	n/a
353.382	0.075	706764	keystroke_w	w	n/a
353.502	0.1045	707004	keystroke_h	h	n/a
353.562	0.15	707124	keystroke_e	e	n/a
353.802	0.1495	707604	keystroke_r	r	n/a
354.3265	0.0455	708653	keystroke_Key.backspace	Key.backspace	n/a
354.792	0.15	709584	keystroke_r	r	n/a
354.8965	0.1355	709793	keystroke_e	e	n/a
355.1665	0.1355	710333	keystroke_a	a	n/a
355.347	0.1045	710694	keystroke_s	s	n/a
358.4515	0.075	716903	keystroke_Key.enter	Key.enter	n/a
358.531	5.053	717062	prompt	n/a	blame navy major alternative\n
359.3065	0.1355	718613	keystroke_b	b	n/a
359.4115	0.0905	718823	keystroke_l	l	n/a
359.487	0.12	718974	keystroke_a	a	n/a
359.592	0.12	719184	keystroke_m	m	n/a
359.727	0.06	719454	keystroke_e	e	n/a
359.802	0.1345	719604	keystroke_Key.space	Key.space	n/a
360.132	0.06	720264	keystroke_n	n	n/a
360.177	0.09	720354	keystroke_a	a	n/a
360.282	0.105	720564	keystroke_v	v	n/a
360.402	0.105	720804	keystroke_y	y	n/a
360.5515	0.0455	721103	keystroke_Key.space	Key.space	n/a
360.6415	0.12	721283	keystroke_m	m	n/a
360.7475	0.119	721495	keystroke_a	a	n/a
360.882	0.12	721764	keystroke_j	j	n/a
360.987	0.105	721974	keystroke_o	o	n/a
361.077	0.1045	722154	keystroke_r	r	n/a
361.1975	0.1195	722395	keystroke_Key.space	Key.space	n/a
361.7665	0.0605	723533	keystroke_a	a	n/a
361.812	0.0895	723624	keystroke_l	l	n/a
362.457	0.045	724914	keystroke_t	t	n/a
362.607	0.09	725214	keystroke_e	e	n/a
362.6825	0.1045	725365	keystroke_r	r	n/a
362.772	0.075	725544	keystroke_n	n	n/a
362.862	0.12	725724	keystroke_a	a	n/a
362.9365	0.1205	725873	keystroke_t	t	n/a
363.072	0.12	726144	keystroke_i	i	n/a
363.177	0.15	726354	keystroke_v	v	n/a
363.342	0.075	726684	keystroke_e	e	n/a
363.492	0.0905	726984	keystroke_Key.enter	Key.enter	n/a
363.587	6.1615	727174	prompt	n/a	figured explicit neutral wolf\n
364.317	0.09	728634	keystroke_f	f	n/a
364.392	0.1045	728784	keystroke_i	i	n/a
364.5115	0.0755	729023	keystroke_g	g	n/a
364.602	0.075	729204	keystroke_u	u	n/a
364.7515	0.1205	729503	keystroke_r	r	n/a
364.827	0.105	729654	keystroke_e	e	n/a
365.0365	0.105	730073	keystroke_d	d	n/a
365.217	0.105	730434	keystroke_Key.space	Key.space	n/a
365.3365	0.0755	730673	keystroke_e	e	n/a
365.6515	0.0455	731303	keystroke_x	x	n/a
365.802	0.105	731604	keystroke_p	p	n/a
366.012	0.15	732024	keystroke_l	l	n/a
366.087	0.12	732174	keystroke_i	i	n/a
366.2515	0.1505	732503	keystroke_c	c	n/a
366.357	0.09	732714	keystroke_i	i	n/a
366.522	0.075	733044	keystroke_t	t	n/a
366.7015	0.15	733403	keystroke_Key.space	Key.space	n/a
367.182	0.135	734364	keystroke_n	n	n/a
367.302	0.09	734604	keystroke_e	e	n/a
367.4365	0.1055	734873	keystroke_u	u	n/a
367.587	0.1045	735174	keystroke_t	t	n/a
367.7665	0.1055	735533	keystroke_r	r	n/a
367.887	0.12	735774	keystroke_a	a	n/a
368.082	0.1495	736164	keystroke_l	l	n/a
368.217	0.1345	736434	keystroke_Key.space	Key.space	n/a
368.427	0.075	736854	keystroke_w	w	n/a
368.532	0.105	737064	keystroke_o	o	n/a
368.742	0.075	737484	keystroke_l	l	n/a
368.9515	0.1055	737903	keystroke_f	f	n/a
369.642	0.105	739284	keystroke_Key.enter	Key.enter	n/a
369.7515	6.1315	739503	prompt	n/a	advisor july larry pastor\n
370.4065	0.0905	740813	keystroke_a	a	n/a
370.542	0.09	741084	keystroke_d	d	n/a
370.7365	0.0905	741473	keystroke_v	v	n/a
370.872	0.09	741744	keystroke_i	i	n/a
370.947	0.0895	741894	keystroke_s	s	n/a
371.097	0.09	742194	keystroke_o	o	n/a
371.172	0.075	742344	keystroke_r	r	n/a
371.262	0.1495	742524	keystroke_Key.space	Key.space	n/a
371.457	0.045	742914	keystroke_j	j	n/a
371.607	0.075	743214	keystroke_u	u	n/a
371.727	0.105	743454	keystroke_l	l	n/a
371.9225	0.0745	743845	keystroke_y	y	n/a
372.102	0.0895	744204	keystroke_Key.space	Key.space	n/a
372.432	0.09	744864	keystroke_p	p	n/a
372.762	0.0445	745524	keystroke_Key.backspace	Key.backspace	n/a
373.002	0.045	746004	keystroke_l	l	n/a
373.122	0.075	746244	keystroke_a	a	n/a
373.362	0.0745	746724	keystroke_r	r	n/a
373.5115	0.0905	747023	keystroke_r	r	n/a
373.587	0.06	747174	keystroke_y	y	n/a
373.9915	0.105	747983	keystroke_Key.space	Key.space	n/a
374.262	0.135	748524	keystroke_p	p	n/a
374.412	0.075	748824	keystroke_a	a	n/a
374.6665	0.0905	749333	keystroke_s	s	n/a
374.817	0.105	749634	keystroke_t	t	n/a
374.9365	0.1205	749873	keystroke_o	o	n/a
375.072	0.105	750144	keystroke_r	r	n/a
375.807	0.075	751614	keystroke_Key.enter	Key.enter	n/a
375.8855	14.3525	751771	prompt	n/a	struck fifteen joining object\n
382.7365	0.0755	765473	keystroke_s	s	n/a
382.857	0.075	765714	keystroke_t	t	n/a
383.697	0.075	767394	keystroke_r	r	n/a
383.8175	0.075	767635	keystroke_u	u	n/a
383.967	0.0905	767934	keystroke_c	c	n/a
384.1025	0.134	768205	keystroke_k	k	n/a
384.252	0.105	768504	keystroke_Key.space	Key.space	n/a
384.522	0.075	769044	keystroke_f	f	n/a
384.642	0.075	769284	keystroke_i	i	n/a
384.912	0.0595	769824	keystroke_t	t	n/a
385.512	0.06	771024	keystroke_Key.backspace	Key.backspace	n/a
385.647	0.045	771294	keystroke_f	f	n/a
385.797	0.075	771594	keystroke_t	t	n/a
385.9625	0.0445	771925	keystroke_e	e	n/a
386.142	0.015	772284	keystroke_e	e	n/a
386.202	0.09	772404	keystroke_n	n	n/a
386.277	0.135	772554	keystroke_Key.space	Key.space	n/a
386.607	0.105	773214	keystroke_j	j	n/a
386.9675	0.1345	773935	keystroke_i	i	n/a
387.387	0.09	774774	keystroke_Key.backspace	Key.backspace	n/a
387.7025	0.1045	775405	keystroke_o	o	n/a
387.8975	0.1195	775795	keystroke_i	i	n/a
388.0025	0.09	776005	keystroke_n	n	n/a
388.137	0.1655	776274	keystroke_i	i	n/a
388.2425	0.105	776485	keystroke_n	n	n/a
388.3925	0.0445	776785	keystroke_g	g	n/a
389.052	0.09	778104	keystroke_Key.space	Key.space	n/a
389.277	0.105	778554	keystroke_o	o	n/a
389.427	0.075	778854	keystroke_b	b	n/a
389.577	0.12	779154	keystroke_j	j	n/a
389.682	0.0605	779364	keystroke_e	e	n/a
389.7875	0.105	779575	keystroke_c	c	n/a
389.997	0.075	779994	keystroke_t	t	n/a
390.1625	0.0745	780325	keystroke_Key.enter	Key.enter	n/a
390.2405	5.338	780481	prompt	n/a	seafood advisory bags cement\n
391.107	0.105	782214	keystroke_s	s	n/a
391.1975	0.0745	782395	keystroke_e	e	n/a
391.2875	0.1045	782575	keystroke_a	a	n/a
391.557	0.1055	783114	keystroke_f	f	n/a
391.677	0.0605	783354	keystroke_o	o	n/a
391.8275	0.075	783655	keystroke_o	o	n/a
391.888	0.0595	783776	keystroke_d	d	n/a
391.9625	0.135	783925	keystroke_Key.space	Key.space	n/a
392.1125	0.09	784225	keystroke_a	a	n/a
392.2175	0.075	784435	keystroke_d	d	n/a
392.652	0.0755	785304	keystroke_v	v	n/a
392.788	0.1195	785576	keystroke_i	i	n/a
392.937	0.1055	785874	keystroke_s	s	n/a
393.1475	0.075	786295	keystroke_o	o	n/a
393.267	0.1055	786534	keystroke_r	r	n/a
393.388	0.0745	786776	keystroke_y	y	n/a
393.537	0.1205	787074	keystroke_Key.space	Key.space	n/a
393.7325	0.075	787465	keystroke_b	b	n/a
393.942	0.0605	787884	keystroke_a	a	n/a
393.9875	0.105	787975	keystroke_g	g	n/a
394.167	0.1055	788334	keystroke_s	s	n/a
394.3175	0.09	788635	keystroke_Key.space	Key.space	n/a
394.572	0.1505	789144	keystroke_c	c	n/a
394.6775	0.0745	789355	keystroke_e	e	n/a
394.767	0.1355	789534	keystroke_m	m	n/a
395.067	0.135	790134	keystroke_e	e	n/a
395.2475	0.1045	790495	keystroke_n	n	n/a
395.337	0.0905	790674	keystroke_t	t	n/a
395.4725	0.105	790945	keystroke_Key.enter	Key.enter	n/a
395.5815	6.192	791163	prompt	n/a	assignments acquisition tiles undertake\n
396.2825	0.09	792565	keystroke_a	a	n/a
396.4325	0.09	792865	keystroke_s	s	n/a
396.5975	0.12	793195	keystroke_s	s	n/a
396.7025	0.09	793405	keystroke_i	i	n/a
396.808	0.0895	793616	keystroke_g	g	n/a
396.8825	0.09	793765	keystroke_n	n	n/a
397.0475	0.0745	794095	keystroke_m	m	n/a
397.137	0.0905	794274	keystroke_e	e	n/a
397.2425	0.105	794485	keystroke_n	n	n/a
397.3625	0.045	794725	keystroke_t	t	n/a
397.5125	0.09	795025	keystroke_s	s	n/a
397.6475	0.1195	795295	keystroke_Key.space	Key.space	n/a
397.7225	0.09	795445	keystroke_a	a	n/a
397.9775	0.12	795955	keystroke_c	c	n/a
398.1725	0.075	796345	keystroke_q	q	n/a
398.2925	0.15	796585	keystroke_u	u	n/a
398.382	0.075	796764	keystroke_i	i	n/a
398.5025	0.075	797005	keystroke_s	s	n/a
398.593	0.059	797186	keystroke_i	i	n/a
398.7125	0.09	797425	keystroke_t	t	n/a
398.7875	0.2695	797575	keystroke_i	i	n/a
398.8775	0.1945	797755	keystroke_o	o	n/a
399.0125	0.15	798025	keystroke_n	n	n/a
399.1775	0.195	798355	keystroke_Key.space	Key.space	n/a
399.4175	0.015	798835	keystroke_t	t	n/a
399.7175	0.1195	799435	keystroke_i	i	n/a
399.793	0.1495	799586	keystroke_l	l	n/a
399.8975	0.105	799795	keystroke_e	e	n/a
400.0925	0.12	800185	keystroke_s	s	n/a
400.3175	0.105	800635	keystroke_Key.space	Key.space	n/a
400.5725	0.045	801145	keystroke_u	u	n/a
400.7075	0.105	801415	keystroke_n	n	n/a
400.7825	0.075	801565	keystroke_d	d	n/a
400.9325	0.09	801865	keystroke_e	e	n/a
401.0075	0.075	802015	keystroke_r	r	n/a
401.1725	0.075	802345	keystroke_t	t	n/a
401.3075	0.075	802615	keystroke_a	a	n/a
401.428	0.1195	802856	keystroke_k	k	n/a
401.5625	0.0745	803125	keystroke_e	e	n/a
401.652	0.1205	803304	keystroke_Key.enter	Key.enter	n/a
401.7765	6.747	803553	prompt	n/a	marvel grain equality connections\n
402.479	0.073	804958	keystroke_m	m	n/a
402.567	0.0905	805134	keystroke_a	a	n/a
402.6425	0.06	805285	keystroke_r	r	n/a
402.837	0.1055	805674	keystroke_v	v	n/a
403.0175	0.105	806035	keystroke_e	e	n/a
403.137	0.1355	806274	keystroke_l	l	n/a
403.2425	0.105	806485	keystroke_Key.space	Key.space	n/a
403.4825	0.105	806965	keystroke_g	g	n/a
403.6625	0.0745	807325	keystroke_r	r	n/a
403.7225	0.105	807445	keystroke_a	a	n/a
403.8875	0.12	807775	keystroke_i	i	n/a
403.9475	0.135	807895	keystroke_n	n	n/a
404.067	0.12	808134	keystroke_Key.space	Key.space	n/a
404.263	0.074	808526	keystroke_e	e	n/a
404.4725	0.0905	808945	keystroke_q	q	n/a
405.1475	0.0895	810295	keystroke_u	u	n/a
405.2225	0.09	810445	keystroke_a	a	n/a
405.4925	0.195	810985	keystroke_l	l	n/a
405.7175	0.165	811435	keystroke_i	i	n/a
406.0175	0.105	812035	keystroke_t	t	n/a
406.092	0.135	812184	keystroke_y	y	n/a
406.3325	0.1345	812665	keystroke_Key.space	Key.space	n/a
406.6775	0.1195	813355	keystroke_c	c	n/a
406.722	0.0905	813444	keystroke_o	o	n/a
406.8875	0.105	813775	keystroke_n	n	n/a
407.0075	0.135	814015	keystroke_n	n	n/a
407.1725	0.03	814345	keystroke_e	e	n/a
407.652	0.1055	815304	keystroke_c	c	n/a
407.8625	0.0745	815725	keystroke_t	t	n/a
407.952	0.2105	815904	keystroke_i	i	n/a
408.0425	0.15	816085	keystroke_o	o	n/a
408.1325	0.1505	816265	keystroke_n	n	n/a
408.297	0.0605	816594	keystroke_s	s	n/a
408.4175	0.105	816835	keystroke_Key.enter	Key.enter	n/a
408.5265	8.292	817053	prompt	n/a	fossil campaigns victory therapist\n
409.4225	0.075	818845	keystroke_f	f	n/a
409.4975	0.105	818995	keystroke_o	o	n/a
409.7075	0.0445	819415	keystroke_s	s	n/a
409.9775	0.0745	819955	keystroke_i	i	n/a
410.322	0.0755	820644	keystroke_Key.backspace	Key.backspace	n/a
410.4125	0.106	820825	keystroke_s	s	n/a
410.562	0.1505	821124	keystroke_i	i	n/a
410.6685	0.15	821337	keystroke_l	l	n/a
410.8025	0.1495	821605	keystroke_Key.space	Key.space	n/a
411.0275	0.1795	822055	keystroke_c	c	n/a
411.1475	0.165	822295	keystroke_a	a	n/a
411.3875	0.12	822775	keystroke_m	m	n/a
411.702	0.1055	823404	keystroke_p	p	n/a
411.8225	0.0745	823645	keystroke_a	a	n/a
411.9875	0.12	823975	keystroke_i	i	n/a
412.2275	0.105	824455	keystroke_g	g	n/a
412.3475	0.1495	824695	keystroke_n	n	n/a
412.512	0.1055	825024	keystroke_s	s	n/a
413.1275	0.12	826255	keystroke_Key.space	Key.space	n/a
413.3825	0.075	826765	keystroke_v	v	n/a
413.7275	0.105	827455	keystroke_i	i	n/a
413.8475	0.105	827695	keystroke_c	c	n/a
414.058	0.0745	828116	keystroke_t	t	n/a
414.1775	0.105	828355	keystroke_o	o	n/a
414.2975	0.1045	828595	keystroke_r	r	n/a
414.4475	0.1045	828895	keystroke_y	y	n/a
414.6575	0.135	829315	keystroke_Key.space	Key.space	n/a
414.9575	0.105	829915	keystroke_t	t	n/a
415.062	0.075	830124	keystroke_h	h	n/a
415.1825	0.09	830365	keystroke_e	e	n/a
415.2275	0.12	830455	keystroke_r	r	n/a
415.7975	0.105	831595	keystroke_a	a	n/a
416.0975	0.105	832195	keystroke_p	p	n/a
416.3075	0.135	832615	keystroke_i	i	n/a
416.4275	0.105	832855	keystroke_s	s	n/a
416.5025	0.105	833005	keystroke_t	t	n/a
416.7425	0.075	833485	keystroke_Key.enter	Key.enter	n/a
416.8235	6.1145	833647	prompt	n/a	runtime comparison hunger personal\n
417.6875	0.12	835375	keystroke_r	r	n/a
417.7775	0.09	835555	keystroke_u	u	n/a
417.973	0.0595	835946	keystroke_n	n	n/a
418.0175	0.0905	836035	keystroke_t	t	n/a
418.1225	0.15	836245	keystroke_i	i	n/a
418.198	0.1045	836396	keystroke_m	m	n/a
418.2875	0.0905	836575	keystroke_e	e	n/a
418.3925	0.1655	836785	keystroke_Key.space	Key.space	n/a
418.543	0.135	837086	keystroke_c	c	n/a
418.7225	0.195	837445	keystroke_o	o	n/a
418.7975	0.135	837595	keystroke_m	m	n/a
418.902	0.135	837804	keystroke_p	p	n/a
419.0825	0.09	838165	keystroke_a	a	n/a
419.1575	0.09	838315	keystroke_r	r	n/a
419.2925	0.105	838585	keystroke_i	i	n/a
419.4725	0.105	838945	keystroke_s	s	n/a
419.7875	0.12	839575	keystroke_o	o	n/a
419.8625	0.135	839725	keystroke_n	n	n/a
419.9825	0.15	839965	keystroke_Key.space	Key.space	n/a
420.4475	0.075	840895	keystroke_h	h	n/a
420.5975	0.075	841195	keystroke_u	u	n/a
420.807	0.0905	841614	keystroke_n	n	n/a
420.943	0.0745	841886	keystroke_g	g	n/a
421.137	0.1205	842274	keystroke_e	e	n/a
421.2275	0.105	842455	keystroke_r	r	n/a
421.3475	0.1345	842695	keystroke_Key.space	Key.space	n/a
421.5575	0.105	843115	keystroke_p	p	n/a
421.6325	0.09	843265	keystroke_e	e	n/a
421.693	0.1045	843386	keystroke_r	r	n/a
421.8425	0.135	843685	keystroke_s	s	n/a
422.052	0.1055	844104	keystroke_o	o	n/a
422.1425	0.105	844285	keystroke_n	n	n/a
422.3075	0.105	844615	keystroke_a	a	n/a
422.5475	0.1195	845095	keystroke_l	l	n/a
422.8325	0.1045	845665	keystroke_Key.enter	Key.enter	n/a
422.941	8.5325	845882	prompt	n/a	coaching centres delete admin\n
426.7775	0.135	853555	keystroke_c	c	n/a
426.8975	0.1055	853795	keystroke_o	o	n/a
426.9275	0.135	853855	keystroke_a	a	n/a
427.198	0.1195	854396	keystroke_c	c	n/a
427.273	0.076	854546	keystroke_h	h	n/a
427.378	0.1495	854756	keystroke_i	i	n/a
427.4675	0.1205	854935	keystroke_n	n	n/a
427.5425	0.09	855085	keystroke_g	g	n/a
427.648	0.1495	855296	keystroke_Key.space	Key.space	n/a
427.933	0.0895	855866	keystroke_c	c	n/a
428.0525	0.1055	856105	keystroke_e	e	n/a
428.1725	0.09	856345	keystroke_n	n	n/a
428.2485	0.0885	856497	keystroke_t	t	n/a
428.4425	0.12	856885	keystroke_r	r	n/a
428.5175	0.1195	857035	keystroke_e	e	n/a
428.7125	0.075	857425	keystroke_s	s	n/a
428.8925	0.12	857785	keystroke_Key.space	Key.space	n/a
429.0575	0.06	858115	keystroke_d	d	n/a
429.1925	0.0745	858385	keystroke_e	e	n/a
429.3125	0.12	858625	keystroke_l	l	n/a
429.3575	0.09	858715	keystroke_e	e	n/a
429.552	0.0605	859104	keystroke_t	t	n/a
429.567	0.0905	859134	keystroke_e	e	n/a
430.3475	0.1195	860695	keystroke_Key.space	Key.space	n/a
430.7825	0.105	861565	keystroke_a	a	n/a
430.9025	0.09	861805	keystroke_d	d	n/a
431.0075	0.105	862015	keystroke_m	m	n/a
431.1425	0.165	862285	keystroke_i	i	n/a
431.2325	0.09	862465	keystroke_n	n	n/a
431.3825	0.09	862765	keystroke_Key.enter	Key.enter	n/a
431.476	6.5375	862952	prompt	n/a	harvey butler argued plates\n
432.1925	0.09	864385	keystroke_h	h	n/a
432.2975	0.075	864595	keystroke_a	a	n/a
432.3275	0.091	864655	keystroke_r	r	n/a
432.537	0.1055	865074	keystroke_v	v	n/a
432.718	0.0445	865436	keystroke_e	e	n/a
433.0925	0.0745	866185	keystroke_y	y	n/a
433.3025	0.09	866605	keystroke_Key.space	Key.space	n/a
433.7225	0.0905	867445	keystroke_b	b	n/a
433.828	0.0595	867656	keystroke_u	u	n/a
433.933	0.0895	867866	keystroke_t	t	n/a
434.353	0.089	868706	keystroke_l	l	n/a
434.427	0.0905	868854	keystroke_e	e	n/a
434.4875	0.105	868975	keystroke_r	r	n/a
435.508	0.1045	871016	keystroke_Key.space	Key.space	n/a
435.7475	0.075	871495	keystroke_a	a	n/a
435.867	0.0455	871734	keystroke_r	r	n/a
436.0325	0.075	872065	keystroke_g	g	n/a
436.0925	0.0895	872185	keystroke_u	u	n/a
436.2275	0.075	872455	keystroke_e	e	n/a
436.3925	0.105	872785	keystroke_d	d	n/a
436.5125	0.135	873025	keystroke_Key.space	Key.space	n/a
436.798	0.0895	873596	keystroke_p	p	n/a
436.9925	0.09	873985	keystroke_l	l	n/a
437.067	0.1505	874134	keystroke_a	a	n/a
437.263	0.1195	874526	keystroke_t	t	n/a
437.3675	0.09	874735	keystroke_e	e	n/a
437.5625	0.1045	875125	keystroke_s	s	n/a
437.9075	0.105	875815	keystroke_Key.enter	Key.enter	n/a
438.0165	6.9425	876033	prompt	n/a	norway worst framing strings\n
438.9125	0.06	877825	keystroke_r	r	n/a
439.2575	0.06	878515	keystroke_Key.backspace	Key.backspace	n/a
439.4825	0.0905	878965	keystroke_n	n	n/a
439.5575	0.105	879115	keystroke_o	o	n/a
439.6325	0.091	879265	keystroke_r	r	n/a
439.8275	0.06	879655	keystroke_w	w	n/a
439.9775	0.0745	879955	keystroke_a	a	n/a
440.0825	0.0905	880165	keystroke_y	y	n/a
440.352	0.1655	880704	keystroke_Key.space	Key.space	n/a
441.1625	0.09	882325	keystroke_o	o	n/a
441.4925	0.0445	882985	keystroke_Key.backspace	Key.backspace	n/a
441.5825	0.06	883165	keystroke_w	w	n/a
441.7025	0.12	883405	keystroke_o	o	n/a
441.867	0.1055	883734	keystroke_r	r	n/a
442.0475	0.135	884095	keystroke_s	s	n/a
442.1825	0.075	884365	keystroke_t	t	n/a
442.3625	0.075	884725	keystroke_Key.space	Key.space	n/a
442.4525	0.107	884905	keystroke_f	f	n/a
442.618	0.1205	885236	keystroke_r	r	n/a
442.723	0.0895	885446	keystroke_a	a	n/a
442.859	0.134	885718	keystroke_m	m	n/a
443.0525	0.165	886105	keystroke_i	i	n/a
443.173	0.1645	886346	keystroke_n	n	n/a
443.293	0.09	886586	keystroke_g	g	n/a
443.4275	0.12	886855	keystroke_Key.space	Key.space	n/a
443.5775	0.12	887155	keystroke_s	s	n/a
443.743	0.075	887486	keystroke_t	t	n/a
443.923	0.075	887846	keystroke_r	r	n/a
444.118	0.1495	888236	keystroke_i	i	n/a
444.2525	0.0905	888505	keystroke_n	n	n/a
444.463	0.0895	888926	keystroke_g	g	n/a
444.6575	0.09	889315	keystroke_s	s	n/a
444.8675	0.0905	889735	keystroke_Key.enter	Key.enter	n/a
444.963	6.0865	889926	prompt	n/a	sometimes surgeon justin reduction\n
445.6625	0.0745	891325	keystroke_s	s	n/a
445.7975	0.09	891595	keystroke_o	o	n/a
445.873	0.1495	891746	keystroke_m	m	n/a
446.008	0.0295	892016	keystroke_e	e	n/a
446.1425	0.0755	892285	keystroke_t	t	n/a
446.2625	0.1355	892525	keystroke_i	i	n/a
446.3375	0.18	892675	keystroke_m	m	n/a
446.5025	0.06	893005	keystroke_e	e	n/a
446.728	0.105	893456	keystroke_s	s	n/a
446.908	0.1345	893816	keystroke_Key.space	Key.space	n/a
447.178	0.105	894356	keystroke_s	s	n/a
447.298	0.075	894596	keystroke_u	u	n/a
447.388	0.09	894776	keystroke_r	r	n/a
447.598	0.075	895196	keystroke_g	g	n/a
447.763	0.1045	895526	keystroke_e	e	n/a
447.8975	0.1055	895795	keystroke_o	o	n/a
448.123	0.0895	896246	keystroke_n	n	n/a
448.198	0.12	896396	keystroke_Key.space	Key.space	n/a
448.378	0.0745	896756	keystroke_j	j	n/a
448.558	0.0895	897116	keystroke_u	u	n/a
448.678	0.1045	897356	keystroke_s	s	n/a
448.828	0.1195	897656	keystroke_t	t	n/a
449.0975	0.135	898195	keystroke_i	i	n/a
449.3075	0.106	898615	keystroke_n	n	n/a
449.4275	0.075	898855	keystroke_Key.space	Key.space	n/a
449.548	0.1195	899096	keystroke_r	r	n/a
449.6375	0.09	899275	keystroke_e	e	n/a
449.833	0.1045	899666	keystroke_d	d	n/a
449.9525	0.09	899905	keystroke_u	u	n/a
450.0575	0.12	900115	keystroke_c	c	n/a
450.2825	0.075	900565	keystroke_t	t	n/a
450.4025	0.2405	900805	keystroke_i	i	n/a
450.5075	0.195	901015	keystroke_o	o	n/a
450.6575	0.12	901315	keystroke_n	n	n/a
450.928	0.1195	901856	keystroke_Key.enter	Key.enter	n/a
451.052	10.496	902104	prompt	n/a	diet bureau unified using\n
451.7975	0.09	903595	keystroke_d	d	n/a
451.9025	0.12	903805	keystroke_i	i	n/a
451.978	0.1045	903956	keystroke_e	e	n/a
452.1875	0.075	904375	keystroke_t	t	n/a
452.6225	0.135	905245	keystroke_Key.space	Key.space	n/a
452.9225	0.0445	905845	keystroke_b	b	n/a
452.9825	0.075	905965	keystroke_u	u	n/a
453.2825	0.12	906565	keystroke_r	r	n/a
453.3875	0.1495	906775	keystroke_e	e	n/a
453.613	0.1045	907226	keystroke_a	a	n/a
453.8525	0.105	907705	keystroke_u	u	n/a
457.033	0.0295	914066	keystroke_u	u	n/a
457.1675	0.1055	914335	keystroke_n	n	n/a
457.2875	0.0755	914575	keystroke_i	i	n/a
457.4525	0.1055	914905	keystroke_f	f	n/a
457.6175	0.0905	915235	keystroke_i	i	n/a
457.693	0.09	915386	keystroke_e	e	n/a
458.0225	0.0605	916045	keystroke_Key.backspace	Key.backspace	n/a
458.158	0.075	916316	keystroke_Key.backspace	Key.backspace	n/a
458.308	0.075	916616	keystroke_Key.backspace	Key.backspace	n/a
458.458	0.09	916916	keystroke_Key.backspace	Key.backspace	n/a
458.623	0.075	917246	keystroke_Key.backspace	Key.backspace	n/a
458.878	0.0895	917756	keystroke_Key.backspace	Key.backspace	n/a
459.133	0.1345	918266	keystroke_Key.space	Key.space	n/a
459.448	0.045	918896	keystroke_u	u	n/a
459.598	0.105	919196	keystroke_n	n	n/a
459.688	0.105	919376	keystroke_i	i	n/a
459.838	0.0895	919676	keystroke_f	f	n/a
459.958	0.105	919916	keystroke_i	i	n/a
460.048	0.09	920096	keystroke_e	e	n/a
460.213	0.1045	920426	keystroke_d	d	n/a
460.363	0.1195	920726	keystroke_Key.space	Key.space	n/a
460.5885	0.0595	921177	keystroke_u	u	n/a
460.8875	0.0605	921775	keystroke_s	s	n/a
461.023	0.1045	922046	keystroke_i	i	n/a
461.203	0.105	922406	keystroke_n	n	n/a
461.3675	0.0605	922735	keystroke_g	g	n/a
461.473	0.0745	922946	keystroke_Key.enter	Key.enter	n/a
461.551	5.7275	923102	prompt	n/a	mary happens organic skills\n
462.223	0.12	924446	keystroke_m	m	n/a
462.298	0.09	924596	keystroke_a	a	n/a
462.4475	0.09	924895	keystroke_r	r	n/a
462.583	0.12	925166	keystroke_y	y	n/a
462.688	0.06	925376	keystroke_Key.space	Key.space	n/a
462.793	0.105	925586	keystroke_h	h	n/a
462.9425	0.0755	925885	keystroke_a	a	n/a
463.0325	0.0605	926065	keystroke_p	p	n/a
463.1675	0.0905	926335	keystroke_p	p	n/a
463.318	0.075	926636	keystroke_e	e	n/a
463.4675	0.0755	926935	keystroke_n	n	n/a
463.588	0.075	927176	keystroke_s	s	n/a
463.7075	0.0905	927415	keystroke_Key.space	Key.space	n/a
463.933	0.075	927866	keystroke_o	o	n/a
464.023	0.06	928046	keystroke_r	r	n/a
464.188	0.075	928376	keystroke_g	g	n/a
464.2775	0.09	928555	keystroke_a	a	n/a
464.4585	0.1195	928917	keystroke_n	n	n/a
464.563	0.0895	929126	keystroke_i	i	n/a
464.818	0.105	929636	keystroke_x	x	n/a
465.493	0.0745	930986	keystroke_Key.backspace	Key.backspace	n/a
465.5525	0.1205	931105	keystroke_c	c	n/a
465.748	0.1045	931496	keystroke_Key.space	Key.space	n/a
466.1525	0.0755	932305	keystroke_s	s	n/a
466.243	0.045	932486	keystroke_k	k	n/a
466.423	0.0445	932846	keystroke_i	i	n/a
466.573	0.045	933146	keystroke_l	l	n/a
466.723	0.12	933446	keystroke_l	l	n/a
466.8125	0.075	933625	keystroke_s	s	n/a
467.203	0.075	934406	keystroke_Key.enter	Key.enter	n/a
467.2815	8.143	934563	prompt	n/a	integrating satisfied syndication hardwood\n
467.9825	0.1205	935965	keystroke_i	i	n/a
468.058	0.1045	936116	keystroke_n	n	n/a
468.148	0.06	936296	keystroke_t	t	n/a
468.283	0.075	936566	keystroke_e	e	n/a
468.433	0.0745	936866	keystroke_g	g	n/a
468.583	0.12	937166	keystroke_r	r	n/a
468.6875	0.165	937375	keystroke_a	a	n/a
468.8375	0.06	937675	keystroke_t	t	n/a
468.913	0.1345	937826	keystroke_i	i	n/a
468.988	0.105	937976	keystroke_n	n	n/a
469.063	0.1045	938126	keystroke_g	g	n/a
469.1675	0.1205	938335	keystroke_Key.space	Key.space	n/a
469.2725	0.0905	938545	keystroke_s	s	n/a
469.4675	0.1355	938935	keystroke_a	a	n/a
469.588	0.0905	939176	keystroke_t	t	n/a
469.7525	0.076	939505	keystroke_i	i	n/a
469.858	0.0895	939716	keystroke_s	s	n/a
470.023	0.1345	940046	keystroke_f	f	n/a
470.1725	0.0905	940345	keystroke_i	i	n/a
470.263	0.0745	940526	keystroke_e	e	n/a
470.398	0.12	940796	keystroke_d	d	n/a
470.503	0.06	941006	keystroke_Key.space	Key.space	n/a
472.7525	0.061	945505	keystroke_s	s	n/a
472.843	0.075	945686	keystroke_y	y	n/a
473.008	0.075	946016	keystroke_n	n	n/a
473.0675	0.09	946135	keystroke_d	d	n/a
473.188	0.09	946376	keystroke_i	i	n/a
473.263	0.165	946526	keystroke_c	c	n/a
473.473	0.15	946946	keystroke_a	a	n/a
473.6675	0.0755	947335	keystroke_t	t	n/a
473.758	0.12	947516	keystroke_i	i	n/a
473.863	0.1355	947726	keystroke_o	o	n/a
473.9525	0.1205	947905	keystroke_n	n	n/a
474.043	0.12	948086	keystroke_Key.space	Key.space	n/a
474.2375	0.0755	948475	keystroke_h	h	n/a
474.358	0.105	948716	keystroke_a	a	n/a
474.478	0.0745	948956	keystroke_r	r	n/a
474.628	0.105	949256	keystroke_d	d	n/a
474.808	0.075	949616	keystroke_w	w	n/a
474.958	0.045	949916	keystroke_o	o	n/a
475.108	0.09	950216	keystroke_o	o	n/a
475.1525	0.0905	950305	keystroke_d	d	n/a
475.348	0.075	950696	keystroke_Key.enter	Key.enter	n/a
475.4285	8.21	950857	prompt	n/a	fourth pipe lindsay handle\n
476.3665	0.0615	952733	keystroke_f	f	n/a
476.5325	0.119	953065	keystroke_o	o	n/a
476.607	0.06	953214	keystroke_u	u	n/a
477.1025	0.075	954205	keystroke_t	t	n/a
477.4325	0.0895	954865	keystroke_Key.backspace	Key.backspace	n/a
477.507	0.09	955014	keystroke_r	r	n/a
477.6725	0.089	955345	keystroke_t	t	n/a
477.747	0.105	955494	keystroke_h	h	n/a
477.8365	0.1505	955673	keystroke_Key.space	Key.space	n/a
478.2125	0.1345	956425	keystroke_p	p	n/a
478.362	0.135	956724	keystroke_i	i	n/a
478.5125	0.1045	957025	keystroke_p	p	n/a
478.6765	0.075	957353	keystroke_e	e	n/a
478.797	0.105	957594	keystroke_Key.space	Key.space	n/a
480.6675	0.135	961335	keystroke_l	l	n/a
480.7275	0.135	961455	keystroke_i	i	n/a
480.8175	0.0755	961635	keystroke_n	n	n/a
480.878	0.089	961756	keystroke_s	s	n/a
481.102	0.1045	962204	keystroke_d	d	n/a
481.2215	0.136	962443	keystroke_a	a	n/a
481.4025	0.075	962805	keystroke_y	y	n/a
481.5525	0.1055	963105	keystroke_Key.space	Key.space	n/a
481.8525	0.09	963705	keystroke_h	h	n/a
481.9275	0.1055	963855	keystroke_a	a	n/a
482.0475	0.12	964095	keystroke_n	n	n/a
482.1525	0.0895	964305	keystroke_d	d	n/a
482.2875	0.0745	964575	keystroke_l	l	n/a
482.4075	0.076	964815	keystroke_e	e	n/a
483.547	0.0905	967094	keystroke_Key.enter	Key.enter	n/a
483.642	9.162	967284	prompt	n/a	honey norton whenever alternative\n
484.4925	0.075	968985	keystroke_n	n	n/a
484.8215	0.076	969643	keystroke_Key.backspace	Key.backspace	n/a
485.032	0.1055	970064	keystroke_h	h	n/a
485.1525	0.135	970305	keystroke_o	o	n/a
485.302	0.0755	970604	keystroke_n	n	n/a
485.4825	0.12	970965	keystroke_e	e	n/a
485.6775	0.075	971355	keystroke_y	y	n/a
485.7975	0.075	971595	keystroke_Key.space	Key.space	n/a
485.9175	0.09	971835	keystroke_n	n	n/a
485.9925	0.15	971985	keystroke_o	o	n/a
486.1575	0.045	972315	keystroke_r	r	n/a
486.382	0.0455	972764	keystroke_t	t	n/a
486.562	0.106	973124	keystroke_o	o	n/a
486.803	0.1195	973606	keystroke_n	n	n/a
486.9375	0.12	973875	keystroke_Key.space	Key.space	n/a
489.7725	0.0745	979545	keystroke_w	w	n/a
489.862	0.0905	979724	keystroke_h	h	n/a
489.9675	0.0455	979935	keystroke_e	e	n/a
490.0575	0.0745	980115	keystroke_n	n	n/a
490.1475	0.06	980295	keystroke_e	e	n/a
490.3275	0.105	980655	keystroke_v	v	n/a
490.508	0.1195	981016	keystroke_e	e	n/a
490.613	0.0895	981226	keystroke_r	r	n/a
490.7175	0.105	981435	keystroke_Key.space	Key.space	n/a
491.3775	0.1055	982755	keystroke_a	a	n/a
491.498	0.0755	982996	keystroke_l	l	n/a
491.588	0.074	983176	keystroke_t	t	n/a
491.768	0.0895	983536	keystroke_e	e	n/a
491.813	0.09	983626	keystroke_r	r	n/a
491.978	0.0895	983956	keystroke_n	n	n/a
492.053	0.09	984106	keystroke_a	a	n/a
492.113	0.075	984226	keystroke_t	t	n/a
492.218	0.135	984436	keystroke_i	i	n/a
492.368	0.105	984736	keystroke_v	v	n/a
492.4875	0.075	984975	keystroke_e	e	n/a
492.713	0.09	985426	keystroke_Key.enter	Key.enter	n/a
492.8065	4.588	985613	prompt	n/a	lauren soon seeks dollars\n
493.523	0.09	987046	keystroke_l	l	n/a
493.583	0.09	987166	keystroke_a	a	n/a
493.7925	0.0905	987585	keystroke_u	u	n/a
493.913	0.105	987826	keystroke_r	r	n/a
494.3925	0.0905	988785	keystroke_e	e	n/a
494.498	0.105	988996	keystroke_n	n	n/a
494.573	0.15	989146	keystroke_Key.space	Key.space	n/a
494.753	0.09	989506	keystroke_s	s	n/a
494.828	0.06	989656	keystroke_o	o	n/a
494.993	0.12	989986	keystroke_o	o	n/a
495.083	0.135	990166	keystroke_n	n	n/a
495.173	0.135	990346	keystroke_Key.space	Key.space	n/a
495.353	0.0745	990706	keystroke_s	s	n/a
495.5625	0.0455	991125	keystroke_e	e	n/a
495.713	0.075	991426	keystroke_e	e	n/a
495.8325	0.1355	991665	keystroke_k	k	n/a
495.983	0.075	991966	keystroke_s	s	n/a
496.073	0.135	992146	keystroke_Key.space	Key.space	n/a
496.283	0.09	992566	keystroke_d	d	n/a
496.358	0.0745	992716	keystroke_o	o	n/a
496.568	0.015	993136	keystroke_l	l	n/a
496.658	0.1045	993316	keystroke_l	l	n/a
496.778	0.1495	993556	keystroke_a	a	n/a
496.913	0.075	993826	keystroke_r	r	n/a
497.138	0.105	994276	keystroke_s	s	n/a
497.288	0.105	994576	keystroke_Key.enter	Key.enter	n/a
497.398	10.196	994796	prompt	n/a	arrival correlation handmade prerequisite\n
498.023	0.09	996046	keystroke_a	a	n/a
498.2325	0.06	996465	keystroke_r	r	n/a
498.368	0.075	996736	keystroke_r	r	n/a
498.473	0.12	996946	keystroke_i	i	n/a
498.578	0.12	997156	keystroke_v	v	n/a
498.773	0.1045	997546	keystroke_a	a	n/a
498.923	0.09	997846	keystroke_l	l	n/a
498.998	0.1495	997996	keystroke_Key.space	Key.space	n/a
499.7475	0.1355	999495	keystroke_c	c	n/a
499.868	0.045	999736	keystroke_o	o	n/a
500.093	0.0745	1000186	keystroke_r	r	n/a
500.678	0.1355	1001356	keystroke_r	r	n/a
501.038	0.105	1002076	keystroke_e	e	n/a
501.353	0.135	1002706	keystroke_l	l	n/a
501.488	0.0745	1002976	keystroke_a	a	n/a
501.638	0.12	1003276	keystroke_t	t	n/a
501.803	0.15	1003606	keystroke_i	i	n/a
502.058	0.12	1004116	keystroke_o	o	n/a
502.2385	0.18	1004477	keystroke_n	n	n/a
502.463	0.1055	1004926	keystroke_Key.space	Key.space	n/a
502.673	0.076	1005346	keystroke_h	h	n/a
502.793	0.075	1005586	keystroke_a	a	n/a
502.928	0.105	1005856	keystroke_n	n	n/a
503.0485	0.105	1006097	keystroke_d	d	n/a
503.303	0.105	1006606	keystroke_m	m	n/a
503.423	0.135	1006846	keystroke_a	a	n/a
503.6325	0.0755	1007265	keystroke_d	d	n/a
503.8125	0.045	1007625	keystroke_e	e	n/a
503.932	0.1355	1007864	keystroke_Key.space	Key.space	n/a
504.1735	0.074	1008347	keystroke_p	p	n/a
504.2625	0.1205	1008525	keystroke_r	r	n/a
504.338	0.0895	1008676	keystroke_e	e	n/a
504.728	0.09	1009456	keystroke_r	r	n/a
505.1625	0.135	1010325	keystroke_e	e	n/a
505.373	0.0745	1010746	keystroke_q	q	n/a
505.598	0.195	1011196	keystroke_u	u	n/a
505.7475	0.1055	1011495	keystroke_i	i	n/a
505.898	0.105	1011796	keystroke_s	s	n/a
506.018	0.09	1012036	keystroke_i	i	n/a
506.213	0.015	1012426	keystroke_t	t	n/a
506.273	0.0745	1012546	keystroke_i	i	n/a
506.738	0.045	1013476	keystroke_e	e	n/a
507.053	0.045	1014106	keystroke_Key.backspace	Key.backspace	n/a
507.173	0.0455	1014346	keystroke_Key.backspace	Key.backspace	n/a
507.2325	0.1055	1014465	keystroke_e	e	n/a
507.503	0.09	1015006	keystroke_Key.enter	Key.enter	n/a
507.5965	6.373	1015193	prompt	n/a	bent cards stomach wellness\n
509.5275	0.0905	1019055	keystroke_b	b	n/a
509.723	0.09	1019446	keystroke_e	e	n/a
509.873	0.135	1019746	keystroke_n	n	n/a
510.023	0.045	1020046	keystroke_t	t	n/a
510.143	0.1045	1020286	keystroke_Key.space	Key.space	n/a
510.368	0.105	1020736	keystroke_c	c	n/a
510.518	0.136	1021036	keystroke_a	a	n/a
510.608	0.09	1021216	keystroke_r	r	n/a
510.818	0.12	1021636	keystroke_d	d	n/a
510.923	0.09	1021846	keystroke_s	s	n/a
511.0575	0.1355	1022115	keystroke_Key.space	Key.space	n/a
511.298	0.0905	1022596	keystroke_s	s	n/a
511.403	0.105	1022806	keystroke_t	t	n/a
511.523	0.105	1023046	keystroke_o	o	n/a
511.703	0.1355	1023406	keystroke_m	m	n/a
511.823	0.105	1023646	keystroke_a	a	n/a
512.018	0.1505	1024036	keystroke_c	c	n/a
512.183	0.1345	1024366	keystroke_h	h	n/a
512.3175	0.1055	1024635	keystroke_Key.space	Key.space	n/a
512.4985	0.0745	1024997	keystroke_w	w	n/a
512.647	0.1055	1025294	keystroke_e	e	n/a
512.7975	0.045	1025595	keystroke_l	l	n/a
512.9475	0.0755	1025895	keystroke_l	l	n/a
513.218	0.075	1026436	keystroke_n	n	n/a
513.308	0.075	1026616	keystroke_e	e	n/a
513.4885	0.0895	1026977	keystroke_s	s	n/a
513.6535	0.105	1027307	keystroke_s	s	n/a
513.8935	0.075	1027787	keystroke_Key.enter	Key.enter	n/a
513.974	8.4255	1027948	prompt	n/a	certificates mitchell ladder resolved\n
514.643	0.0895	1029286	keystroke_c	c	n/a
514.808	0.12	1029616	keystroke_e	e	n/a
514.8825	0.0755	1029765	keystroke_r	r	n/a
515.0625	0.0755	1030125	keystroke_t	t	n/a
515.183	0.091	1030366	keystroke_i	i	n/a
515.288	0.136	1030576	keystroke_f	f	n/a
515.438	0.105	1030876	keystroke_i	i	n/a
515.648	0.15	1031296	keystroke_c	c	n/a
515.843	0.075	1031686	keystroke_a	a	n/a
516.083	0.105	1032166	keystroke_t	t	n/a
516.293	0.075	1032586	keystroke_e	e	n/a
516.473	0.0895	1032946	keystroke_s	s	n/a
516.7285	0.1045	1033457	keystroke_Key.space	Key.space	n/a
517.2085	0.1045	1034417	keystroke_m	m	n/a
517.3285	0.1045	1034657	keystroke_i	i	n/a
517.448	0.1055	1034896	keystroke_t	t	n/a
517.6585	0.1495	1035317	keystroke_c	c	n/a
517.763	0.0905	1035526	keystroke_h	h	n/a
517.8685	0.075	1035737	keystroke_e	e	n/a
518.348	0.1055	1036696	keystroke_l	l	n/a
518.528	0.1805	1037056	keystroke_l	l	n/a
518.694	0.1195	1037388	keystroke_Key.space	Key.space	n/a
518.888	0.0905	1037776	keystroke_l	l	n/a
518.963	0.0755	1037926	keystroke_a	a	n/a
519.1135	0.09	1038227	keystroke_d	d	n/a
519.3235	0.0445	1038647	keystroke_d	d	n/a
519.638	0.1805	1039276	keystroke_e	e	n/a
519.8935	0.045	1039787	keystroke_r	r	n/a
521.048	0.1205	1042096	keystroke_Key.space	Key.space	n/a
521.2435	0.0895	1042487	keystroke_r	r	n/a
521.3795	0.074	1042759	keystroke_e	e	n/a
521.5285	0.1195	1043057	keystroke_s	s	n/a
521.633	0.0605	1043266	keystroke_o	o	n/a
521.7835	0.12	1043567	keystroke_l	l	n/a
521.829	0.119	1043658	keystroke_v	v	n/a
522.0235	0.075	1044047	keystroke_e	e	n/a
522.2035	0.075	1044407	keystroke_d	d	n/a
522.2935	0.105	1044587	keystroke_Key.enter	Key.enter	n/a
522.4025	4.257	1044805	prompt	n/a	lock formed analog bruce\n
523.043	0.09	1046086	keystroke_l	l	n/a
523.1785	0.12	1046357	keystroke_o	o	n/a
523.3135	0.1345	1046627	keystroke_c	c	n/a
523.4185	0.135	1046837	keystroke_k	k	n/a
523.5235	0.105	1047047	keystroke_Key.space	Key.space	n/a
523.6435	0.135	1047287	keystroke_f	f	n/a
523.764	0.089	1047528	keystroke_o	o	n/a
523.8685	0.105	1047737	keystroke_r	r	n/a
524.048	0.09	1048096	keystroke_m	m	n/a
524.0935	0.105	1048187	keystroke_e	e	n/a
524.2735	0.12	1048547	keystroke_d	d	n/a
524.4085	0.1045	1048817	keystroke_Key.space	Key.space	n/a
524.5585	0.0475	1049117	keystroke_a	a	n/a
524.6185	0.12	1049237	keystroke_n	n	n/a
524.7235	0.105	1049447	keystroke_a	a	n/a
524.8585	0.09	1049717	keystroke_l	l	n/a
525.0385	0.135	1050077	keystroke_o	o	n/a
525.1885	0.0745	1050377	keystroke_g	g	n/a
525.2785	0.135	1050557	keystroke_Key.space	Key.space	n/a
525.5785	0.075	1051157	keystroke_b	b	n/a
525.758	0.075	1051516	keystroke_r	r	n/a
525.8785	0.075	1051757	keystroke_u	u	n/a
525.999	0.2095	1051998	keystroke_c	c	n/a
526.2835	0.1195	1052567	keystroke_e	e	n/a
526.5535	0.105	1053107	keystroke_Key.enter	Key.enter	n/a
526.6625	6.9575	1053325	prompt	n/a	degree paste appliance calculated\n
527.4985	0.03	1054997	keystroke_d	d	n/a
527.663	0.0455	1055326	keystroke_e	e	n/a
527.784	0.0895	1055568	keystroke_g	g	n/a
527.9785	0.105	1055957	keystroke_r	r	n/a
528.0235	0.09	1056047	keystroke_e	e	n/a
528.1885	0.105	1056377	keystroke_e	e	n/a
528.4435	0.1195	1056887	keystroke_Key.space	Key.space	n/a
528.848	0.0905	1057696	keystroke_p	p	n/a
528.9235	0.15	1057847	keystroke_a	a	n/a
529.0585	0.1045	1058117	keystroke_s	s	n/a
529.3135	0.045	1058627	keystroke_t	t	n/a
529.463	0.1055	1058926	keystroke_e	e	n/a
529.7035	0.075	1059407	keystroke_Key.space	Key.space	n/a
529.9585	0.0745	1059917	keystroke_a	a	n/a
530.048	0.0755	1060096	keystroke_p	p	n/a
530.2285	0.075	1060457	keystroke_p	p	n/a
530.3935	0.135	1060787	keystroke_l	l	n/a
530.4695	0.134	1060939	keystroke_i	i	n/a
530.6185	0.075	1061237	keystroke_a	a	n/a
530.7385	0.165	1061477	keystroke_n	n	n/a
531.0235	0.2095	1062047	keystroke_c	c	n/a
531.1885	0.09	1062377	keystroke_e	e	n/a
531.3835	0.105	1062767	keystroke_Key.space	Key.space	n/a
531.563	0.1505	1063126	keystroke_c	c	n/a
531.6685	0.15	1063337	keystroke_a	a	n/a
531.863	0.0755	1063726	keystroke_l	l	n/a
532.163	0.151	1064326	keystroke_c	c	n/a
532.2985	0.106	1064597	keystroke_u	u	n/a
532.3885	0.105	1064777	keystroke_l	l	n/a
532.479	0.1195	1064958	keystroke_a	a	n/a
532.6135	0.091	1065227	keystroke_t	t	n/a
532.7785	0.12	1065557	keystroke_e	e	n/a
533.214	0.0905	1066428	keystroke_d	d	n/a
533.5735	0.045	1067147	keystroke_Key.enter	Key.enter	n/a
533.624	5.666	1067248	prompt	n/a	garage others dubai liability\n
534.3835	0.09	1068767	keystroke_g	g	n/a
534.5485	0.0895	1069097	keystroke_a	a	n/a
534.624	0.0895	1069248	keystroke_r	r	n/a
534.759	0.1195	1069518	keystroke_a	a	n/a
534.954	0.1495	1069908	keystroke_g	g	n/a
535.0895	0.089	1070179	keystroke_e	e	n/a
535.2395	0.119	1070479	keystroke_Key.space	Key.space	n/a
535.4485	0.1205	1070897	keystroke_o	o	n/a
535.5535	0.0605	1071107	keystroke_t	t	n/a
535.6285	0.1195	1071257	keystroke_h	h	n/a
535.733	0.1655	1071466	keystroke_e	e	n/a
535.8235	0.15	1071647	keystroke_r	r	n/a
536.0785	0.105	1072157	keystroke_s	s	n/a
536.2285	0.1345	1072457	keystroke_Key.space	Key.space	n/a
536.6185	0.0895	1073237	keystroke_d	d	n/a
536.724	0.0895	1073448	keystroke_u	u	n/a
536.8435	0.1195	1073687	keystroke_b	b	n/a
537.0085	0.105	1074017	keystroke_a	a	n/a
537.159	0.1195	1074318	keystroke_i	i	n/a
537.2935	0.0905	1074587	keystroke_Key.space	Key.space	n/a
537.414	0.165	1074828	keystroke_l	l	n/a
537.504	0.105	1075008	keystroke_i	i	n/a
537.669	0.12	1075338	keystroke_a	a	n/a
538.044	0.06	1076088	keystroke_b	b	n/a
538.239	0.0745	1076478	keystroke_i	i	n/a
538.404	0.135	1076808	keystroke_l	l	n/a
538.524	0.09	1077048	keystroke_i	i	n/a
538.629	0.075	1077258	keystroke_t	t	n/a
538.7485	0.0755	1077497	keystroke_y	y	n/a
539.244	0.045	1078488	keystroke_Key.enter	Key.enter	n/a
539.293	6.537	1078586	prompt	n/a	heavy stones nutritional accent\n
541.254	0.06	1082508	keystroke_h	h	n/a
541.284	0.12	1082568	keystroke_e	e	n/a
541.4635	0.1205	1082927	keystroke_a	a	n/a
541.5685	0.1055	1083137	keystroke_v	v	n/a
541.7335	0.0755	1083467	keystroke_y	y	n/a
541.824	0.075	1083648	keystroke_Key.space	Key.space	n/a
541.989	0.0745	1083978	keystroke_s	s	n/a
542.0785	0.0905	1084157	keystroke_t	t	n/a
542.184	0.12	1084368	keystroke_o	o	n/a
542.319	0.1045	1084638	keystroke_n	n	n/a
542.439	0.0745	1084878	keystroke_e	e	n/a
542.589	0.105	1085178	keystroke_s	s	n/a
542.709	0.075	1085418	keystroke_Key.space	Key.space	n/a
542.829	0.075	1085658	keystroke_n	n	n/a
543.024	0.045	1086048	keystroke_u	u	n/a
543.324	0.09	1086648	keystroke_t	t	n/a
543.474	0.105	1086948	keystroke_r	r	n/a
543.594	0.045	1087188	keystroke_i	i	n/a
543.8635	0.0905	1087727	keystroke_t	t	n/a
543.969	0.15	1087938	keystroke_i	i	n/a
544.044	0.1355	1088088	keystroke_o	o	n/a
544.1335	0.1355	1088267	keystroke_n	n	n/a
544.254	0.105	1088508	keystroke_a	a	n/a
544.419	0.075	1088838	keystroke_l	l	n/a
544.6135	0.15	1089227	keystroke_Key.space	Key.space	n/a
544.869	0.075	1089738	keystroke_a	a	n/a
545.0485	0.0755	1090097	keystroke_c	c	n/a
545.199	0.21	1090398	keystroke_c	c	n/a
545.3335	0.1355	1090667	keystroke_e	e	n/a
545.484	0.105	1090968	keystroke_n	n	n/a
545.6035	0.1055	1091207	keystroke_t	t	n/a
545.754	0.075	1091508	keystroke_Key.enter	Key.enter	n/a
545.8335	9.9265	1091667	prompt	n/a	police trader remarkable comply\n
548.079	0.135	1096158	keystroke_p	p	n/a
548.6185	0.1055	1097237	keystroke_o	o	n/a
548.889	0.06	1097778	keystroke_l	l	n/a
548.904	0.09	1097808	keystroke_i	i	n/a
549.054	0.105	1098108	keystroke_c	c	n/a
549.189	0.12	1098378	keystroke_e	e	n/a
549.324	0.105	1098648	keystroke_Key.space	Key.space	n/a
549.579	0.075	1099158	keystroke_t	t	n/a
549.789	0.105	1099578	keystroke_r	r	n/a
549.909	0.1045	1099818	keystroke_a	a	n/a
550.0735	0.1055	1100147	keystroke_d	d	n/a
550.284	0.12	1100568	keystroke_e	e	n/a
550.419	0.09	1100838	keystroke_r	r	n/a
550.584	0.12	1101168	keystroke_Key.space	Key.space	n/a
550.794	0.105	1101588	keystroke_r	r	n/a
550.8845	0.0745	1101769	keystroke_e	e	n/a
551.124	0.061	1102248	keystroke_m	m	n/a
551.139	0.105	1102278	keystroke_a	a	n/a
551.259	0.1045	1102518	keystroke_r	r	n/a
551.409	0.075	1102818	keystroke_k	k	n/a
551.769	0.06	1103538	keystroke_a	a	n/a
551.8885	0.0905	1103777	keystroke_b	b	n/a
552.3385	0.0455	1104677	keystroke_l	l	n/a
552.444	0.1045	1104888	keystroke_e	e	n/a
552.6535	0.0755	1105307	keystroke_Key.space	Key.space	n/a
552.954	0.12	1105908	keystroke_c	c	n/a
553.029	0.09	1106058	keystroke_o	o	n/a
553.1635	0.12	1106327	keystroke_m	m	n/a
553.239	0.15	1106478	keystroke_p	p	n/a
553.4635	0.2405	1106927	keystroke_l	l	n/a
553.659	0.0895	1107318	keystroke_y	y	n/a
553.8085	0.0905	1107617	keystroke_Key.space	Key.space	n/a
555.6545	0.1045	1111309	keystroke_Key.enter	Key.enter	n/a
555.763	10.482	1111526	prompt	n/a	dozens crucial inexpensive nature\n
556.584	0.075	1113168	keystroke_d	d	n/a
556.7635	0.0755	1113527	keystroke_o	o	n/a
556.914	0.105	1113828	keystroke_z	z	n/a
557.154	0.045	1114308	keystroke_e	e	n/a
557.274	0.0745	1114548	keystroke_n	n	n/a
557.394	0.09	1114788	keystroke_s	s	n/a
557.469	0.105	1114938	keystroke_Key.space	Key.space	n/a
557.7685	0.0905	1115537	keystroke_c	c	n/a
560.154	0.1205	1120308	keystroke_c	c	n/a
560.649	0.075	1121298	keystroke_Key.backspace	Key.backspace	n/a
560.7995	0.075	1121599	keystroke_r	r	n/a
560.889	0.075	1121778	keystroke_u	u	n/a
561.084	0.1355	1122168	keystroke_c	c	n/a
561.234	0.0755	1122468	keystroke_i	i	n/a
561.3095	0.1045	1122619	keystroke_a	a	n/a
561.489	0.105	1122978	keystroke_l	l	n/a
561.6095	0.1045	1123219	keystroke_Key.space	Key.space	n/a
561.9545	0.12	1123909	keystroke_i	i	n/a
562.029	0.09	1124058	keystroke_n	n	n/a
562.149	0.061	1124298	keystroke_e	e	n/a
562.3445	0.1045	1124689	keystroke_z	z	n/a
562.464	0.12	1124928	keystroke_p	p	n/a
562.9895	0.0445	1125979	keystroke_Key.backspace	Key.backspace	n/a
563.1095	0.045	1126219	keystroke_Key.backspace	Key.backspace	n/a
563.2295	0.06	1126459	keystroke_x	x	n/a
563.8595	0.135	1127719	keystroke_p	p	n/a
564.0095	0.045	1128019	keystroke_e	e	n/a
564.1295	0.1045	1128259	keystroke_n	n	n/a
564.249	0.0755	1128498	keystroke_s	s	n/a
564.3395	0.105	1128679	keystroke_i	i	n/a
564.4595	0.12	1128919	keystroke_v	v	n/a
564.6395	0.09	1129279	keystroke_e	e	n/a
564.819	0.1355	1129638	keystroke_Key.space	Key.space	n/a
565.239	0.1205	1130478	keystroke_n	n	n/a
565.3445	0.045	1130689	keystroke_a	a	n/a
565.449	0.0755	1130898	keystroke_t	t	n/a
565.5995	0.105	1131199	keystroke_u	u	n/a
565.749	0.1355	1131498	keystroke_r	r	n/a
565.9595	0.0895	1131919	keystroke_e	e	n/a
566.1245	0.12	1132249	keystroke_Key.enter	Key.enter	n/a
566.249	5.6815	1132498	prompt	n/a	longest whenever fist diploma\n
566.874	0.06	1133748	keystroke_l	l	n/a
567.0095	0.09	1134019	keystroke_o	o	n/a
567.0545	0.09	1134109	keystroke_n	n	n/a
567.1595	0.0745	1134319	keystroke_g	g	n/a
567.3095	0.0745	1134619	keystroke_e	e	n/a
567.4595	0.105	1134919	keystroke_s	s	n/a
567.5795	0.105	1135159	keystroke_t	t	n/a
567.6995	0.105	1135399	keystroke_Key.space	Key.space	n/a
567.849	0.0755	1135698	keystroke_w	w	n/a
568.269	0.1055	1136538	keystroke_h	h	n/a
568.4195	0.075	1136839	keystroke_e	e	n/a
568.5245	0.105	1137049	keystroke_n	n	n/a
568.7795	0.045	1137559	keystroke_e	e	n/a
568.9595	0.0895	1137919	keystroke_v	v	n/a
569.1545	0.105	1138309	keystroke_e	e	n/a
569.2445	0.0895	1138489	keystroke_r	r	n/a
569.3795	0.12	1138759	keystroke_Key.space	Key.space	n/a
569.4845	0.09	1138969	keystroke_f	f	n/a
569.6045	0.09	1139209	keystroke_i	i	n/a
569.6795	0.0895	1139359	keystroke_r	r	n/a
569.8445	0.21	1139689	keystroke_s	s	n/a
569.979	0.0905	1139958	keystroke_t	t	n/a
570.1145	0.1345	1140229	keystroke_Key.space	Key.space	n/a
570.3245	0.0755	1140649	keystroke_d	d	n/a
570.534	0.0755	1141068	keystroke_i	i	n/a
570.7295	0.1045	1141459	keystroke_p	p	n/a
570.9395	0.06	1141879	keystroke_l	l	n/a
571.1045	0.075	1142209	keystroke_o	o	n/a
571.224	0.1355	1142448	keystroke_m	m	n/a
571.3745	0.135	1142749	keystroke_a	a	n/a
571.854	0.0755	1143708	keystroke_Key.enter	Key.enter	n/a
571.933	7.9625	1143866	prompt	n/a	britannica certificates reuters zope\n
572.664	0.0755	1145328	keystroke_b	b	n/a
572.8295	0.105	1145659	keystroke_r	r	n/a
572.9795	0.09	1145959	keystroke_i	i	n/a
573.0245	0.0895	1146049	keystroke_t	t	n/a
573.2195	0.105	1146439	keystroke_a	a	n/a
573.3695	0.075	1146739	keystroke_n	n	n/a
573.5195	0.105	1147039	keystroke_n	n	n/a
573.6395	0.1345	1147279	keystroke_i	i	n/a
573.7895	0.18	1147579	keystroke_c	c	n/a
573.9545	0.12	1147909	keystroke_a	a	n/a
574.2095	0.075	1148419	keystroke_Key.space	Key.space	n/a
574.4945	0.12	1148989	keystroke_c	c	n/a
574.6595	0.12	1149319	keystroke_e	e	n/a
574.749	0.0905	1149498	keystroke_r	r	n/a
574.9145	0.09	1149829	keystroke_t	t	n/a
575.0195	0.105	1150039	keystroke_i	i	n/a
575.1395	0.105	1150279	keystroke_f	f	n/a
575.8745	0.105	1151749	keystroke_i	i	n/a
576.1445	0.135	1152289	keystroke_c	c	n/a
576.2945	0.18	1152589	keystroke_a	a	n/a
576.4295	0.1195	1152859	keystroke_t	t	n/a
576.564	0.0905	1153128	keystroke_e	e	n/a
576.7595	0.0745	1153519	keystroke_s	s	n/a
576.8795	0.1045	1153759	keystroke_Key.space	Key.space	n/a
577.0295	0.1045	1154059	keystroke_r	r	n/a
577.0895	0.09	1154179	keystroke_e	e	n/a
577.5095	0.075	1155019	keystroke_u	u	n/a
577.6445	0.0895	1155289	keystroke_t	t	n/a
577.8845	0.1495	1155769	keystroke_e	e	n/a
578.1095	0.105	1156219	keystroke_r	r	n/a
578.349	0.1055	1156698	keystroke_s	s	n/a
578.5895	0.09	1157179	keystroke_Key.space	Key.space	n/a
578.9945	0.105	1157989	keystroke_z	z	n/a
579.1895	0.15	1158379	keystroke_o	o	n/a
579.3545	0.1645	1158709	keystroke_p	p	n/a
579.564	0.1055	1159128	keystroke_e	e	n/a
579.8045	0.09	1159609	keystroke_Key.enter	Key.enter	n/a
579.901	5.2745	1159802	prompt	n/a	experienced woman at described\n
580.644	0.0605	1161288	keystroke_e	e	n/a
580.8405	0.059	1161681	keystroke_x	x	n/a
580.8995	0.195	1161799	keystroke_p	p	n/a
581.0795	0.061	1162159	keystroke_e	e	n/a
581.1545	0.105	1162309	keystroke_r	r	n/a
581.679	0.0755	1163358	keystroke_i	i	n/a
581.7395	0.06	1163479	keystroke_e	e	n/a
581.8445	0.135	1163689	keystroke_n	n	n/a
581.9945	0.15	1163989	keystroke_c	c	n/a
582.0695	0.1055	1164139	keystroke_e	e	n/a
582.2795	0.105	1164559	keystroke_d	d	n/a
582.3995	0.1645	1164799	keystroke_Key.space	Key.space	n/a
582.6845	0.075	1165369	keystroke_w	w	n/a
582.7595	0.1045	1165519	keystroke_o	o	n/a
582.9095	0.135	1165819	keystroke_m	m	n/a
583.0595	0.0745	1166119	keystroke_a	a	n/a
583.1795	0.075	1166359	keystroke_n	n	n/a
583.2695	0.1045	1166539	keystroke_Key.space	Key.space	n/a
583.3895	0.105	1166779	keystroke_a	a	n/a
583.5395	0.045	1167079	keystroke_t	t	n/a
583.6295	0.1045	1167259	keystroke_Key.space	Key.space	n/a
583.749	0.1055	1167498	keystroke_d	d	n/a
583.9895	0.0745	1167979	keystroke_e	e	n/a
584.1995	0.12	1168399	keystroke_s	s	n/a
584.2745	0.0895	1168549	keystroke_c	c	n/a
584.4545	0.075	1168909	keystroke_r	r	n/a
584.5445	0.1045	1169089	keystroke_i	i	n/a
584.664	0.1055	1169328	keystroke_b	b	n/a
584.8745	0.0745	1169749	keystroke_e	e	n/a
585.0545	0.06	1170109	keystroke_d	d	n/a
585.0995	0.075	1170199	keystroke_Key.enter	Key.enter	n/a
585.179	7.302	1170358	prompt	n/a	neither responsibility navy witness\n
585.7895	0.075	1171579	keystroke_n	n	n/a
585.8645	0.12	1171729	keystroke_e	e	n/a
585.9995	0.075	1171999	keystroke_i	i	n/a
586.149	0.1355	1172298	keystroke_t	t	n/a
586.2995	0.105	1172599	keystroke_h	h	n/a
586.434	0.15	1172868	keystroke_e	e	n/a
586.5395	0.09	1173079	keystroke_r	r	n/a
586.6745	0.15	1173349	keystroke_Key.space	Key.space	n/a
586.9895	0.12	1173979	keystroke_r	r	n/a
587.064	0.0605	1174128	keystroke_e	e	n/a
587.2295	0.075	1174459	keystroke_s	s	n/a
587.3195	0.135	1174639	keystroke_p	p	n/a
587.6195	0.09	1175239	keystroke_o	o	n/a
587.6645	0.12	1175329	keystroke_n	n	n/a
588.2645	0.0905	1176529	keystroke_s	s	n/a
588.3845	0.075	1176769	keystroke_i	i	n/a
588.489	0.1355	1176978	keystroke_b	b	n/a
588.6095	0.06	1177219	keystroke_i	i	n/a
588.7745	0.0895	1177549	keystroke_l	l	n/a
588.8195	0.09	1177639	keystroke_i	i	n/a
588.9095	0.075	1177819	keystroke_t	t	n/a
589.1945	0.105	1178389	keystroke_y	y	n/a
589.464	0.0755	1178928	keystroke_Key.space	Key.space	n/a
