onset	duration	sample	value	key	prompt_text
11.971	13.5115	23942	prompt	n/a	the quick brown fox jumps over a lazy dog\n
14.3065	0.001	28613	keystroke	t	n/a
14.3485	0.09	28697	keystroke	h	n/a
14.4535	0.06	28907	keystroke	e	n/a
14.5585	0.15	29117	keystroke	Key.space	n/a
15.2935	0.075	30587	keystroke	q	n/a
15.4595	0.119	30919	keystroke	u	n/a
15.5185	0.091	31037	keystroke	i	n/a
15.6685	0.06	31337	keystroke	c	n/a
15.7735	0.09	31547	keystroke	k	n/a
16.0135	0.105	32027	keystroke	Key.space	n/a
16.2845	0.089	32569	keystroke	b	n/a
16.3885	0.06	32777	keystroke	r	n/a
16.4935	0.091	32987	keystroke	o	n/a
16.6285	0.075	33257	keystroke	w	n/a
16.7335	0.076	33467	keystroke	n	n/a
16.9135	0.09	33827	keystroke	Key.space	n/a
17.2145	0.075	34429	keystroke	f	n/a
17.4235	0.075	34847	keystroke	o	n/a
17.6035	0.075	35207	keystroke	x	n/a
18.2335	0.09	36467	keystroke	Key.space	n/a
18.3535	0.12	36707	keystroke	j	n/a
18.5485	0.061	37097	keystroke	u	n/a
18.7135	0.151	37427	keystroke	m	n/a
18.8485	0.12	37697	keystroke	p	n/a
18.9985	0.09	37997	keystroke	s	n/a
19.1635	0.105	38327	keystroke	Key.space	n/a
19.3145	0.104	38629	keystroke	o	n/a
19.6595	0.104	39319	keystroke	e	n/a
19.9895	0.045	39979	keystroke	r	n/a
20.4085	0.06	40817	keystroke	Key.backspace	n/a
20.7985	0.06	41597	keystroke	Key.backspace	n/a
21.1435	0.03	42287	keystroke	v	n/a
21.6685	0.135	43337	keystroke	e	n/a
21.7885	0.06	43577	keystroke	r	n/a
22.3285	0.09	44657	keystroke	Key.space	n/a
22.5695	0.074	45139	keystroke	a	n/a
22.6585	0.12	45317	keystroke	Key.space	n/a
22.8095	0.075	45619	keystroke	l	n/a
22.9285	0.06	45857	keystroke	a	n/a
23.2735	0.076	46547	keystroke	z	n/a
23.4095	0.06	46819	keystroke	y	n/a
24.2485	0.105	48497	keystroke	Key.space	n/a
24.5785	0.061	49157	keystroke	d	n/a
24.6695	0.075	49339	keystroke	o	n/a
24.8495	0.015	49699	keystroke	g	n/a
25.4045	0.074	50809	keystroke	Key.enter	n/a
25.488	7.4325	50976	prompt	n/a	slovak disco dubai marathon\n
26.6345	0.045	53269	keystroke	s	n/a
26.7245	0.09	53449	keystroke	l	n/a
26.8745	0.075	53749	keystroke	o	n/a
27.0245	0.06	54049	keystroke	v	n/a
27.2495	0.06	54499	keystroke	a	n/a
27.3245	0.075	54649	keystroke	k	n/a
27.9395	0.09	55879	keystroke	Key.space	n/a
28.0895	0.06	56179	keystroke	d	n/a
28.1795	0.075	56359	keystroke	i	n/a
28.2695	0.075	56539	keystroke	s	n/a
28.5095	0.06	57019	keystroke	c	n/a
28.6145	0.075	57229	keystroke	o	n/a
29.2595	0.105	58519	keystroke	Key.space	n/a
29.5595	0.06	59119	keystroke	d	n/a
29.8445	0.06	59689	keystroke	u	n/a
30.0245	0.06	60049	keystroke	b	n/a
30.2345	0.075	60469	keystroke	a	n/a
30.3395	0.06	60679	keystroke	i	n/a
30.8945	0.105	61789	keystroke	Key.space	n/a
31.0295	0.09	62059	keystroke	m	n/a
31.1345	0.09	62269	keystroke	a	n/a
31.2695	0.075	62539	keystroke	r	n/a
31.4045	0.075	62809	keystroke	a	n/a
31.7495	0.06	63499	keystroke	t	n/a
31.8395	0.135	63679	keystroke	h	n/a
31.9595	0.09	63919	keystroke	o	n/a
32.1245	0.075	64249	keystroke	n	n/a
32.8295	0.09	65659	keystroke	Key.enter	n/a
32.924	17.2025	65848	prompt	n/a	sandwich championship homeless kennedy\n
33.8345	0.06	67669	keystroke	s	n/a
34.0295	0.06	68059	keystroke	a	n/a
34.1645	0.06	68329	keystroke	n	n/a
34.2395	0.06	68479	keystroke	d	n/a
34.5095	0.075	69019	keystroke	w	n/a
34.6145	0.135	69229	keystroke	h	n/a
34.7045	0.12	69409	keystroke	i	n/a
34.8095	0.075	69619	keystroke	c	n/a
34.9295	0.06	69859	keystroke	h	n/a
35.3345	0.105	70669	keystroke	Key.space	n/a
35.4695	0.075	70939	keystroke	c	n/a
35.8295	0.06	71659	keystroke	h	n/a
38.442	0	76884	keystroke	Key.backspace	n/a
38.529	0.06	77058	keystroke	Key.backspace	n/a
38.709	0.06	77418	keystroke	Key.backspace	n/a
38.904	0.075	77808	keystroke	Key.backspace	n/a
39.144	0.06	78288	keystroke	Key.backspace	n/a
39.324	0.06	78648	keystroke	Key.backspace	n/a
39.549	0.06	79098	keystroke	Key.backspace	n/a
40.389	0.09	80778	keystroke	i	n/a
40.539	0.075	81078	keystroke	c	n/a
40.644	0.045	81288	keystroke	h	n/a
41.049	0.105	82098	keystroke	Key.space	n/a
41.169	0.09	82338	keystroke	c	n/a
41.26	0.074	82520	keystroke	h	n/a
41.424	0.06	82848	keystroke	a	n/a
41.499	0.15	82998	keystroke	m	n/a
41.664	0.075	83328	keystroke	p	n/a
41.904	0.15	83808	keystroke	i	n/a
41.994	0.09	83988	keystroke	o	n/a
42.159	0.075	84318	keystroke	n	n/a
42.279	0.06	84558	keystroke	s	n/a
42.369	0.06	84738	keystroke	h	n/a
42.549	0.045	85098	keystroke	i	n/a
42.729	0.06	85458	keystroke	p	n/a
45.8665	0.028	91733	keystroke	Key.space	n/a
45.9395	0.09	91879	keystroke	h	n/a
46.0445	0.075	92089	keystroke	o	n/a
46.1945	0.105	92389	keystroke	m	n/a
46.2845	0.06	92569	keystroke	e	n/a
46.5245	0.09	93049	keystroke	l	n/a
46.7195	0.06	93439	keystroke	e	n/a
46.8995	0.06	93799	keystroke	s	n/a
47.0495	0.075	94099	keystroke	s	n/a
47.5295	0.09	95059	keystroke	Key.space	n/a
47.6795	0.105	95359	keystroke	k	n/a
47.8295	0.03	95659	keystroke	e	n/a
48.5495	0.075	97099	keystroke	n	n/a
48.7145	0.06	97429	keystroke	n	n/a
48.8345	0.075	97669	keystroke	e	n/a
49.0595	0.06	98119	keystroke	d	n/a
49.2695	0.075	98539	keystroke	y	n/a
50.0645	0.06	100129	keystroke	Key.enter	n/a
50.1295	6.222	100259	prompt	n/a	drum drug reserved story\n
50.9345	0.06	101869	keystroke	d	n/a
51.1895	0.06	102379	keystroke	r	n/a
51.3245	0.075	102649	keystroke	u	n/a
51.6245	0.06	103249	keystroke	m	n/a
52.0145	0.09	104029	keystroke	Key.space	n/a
52.0895	0.075	104179	keystroke	d	n/a
52.3445	0.06	104689	keystroke	r	n/a
52.4945	0.045	104989	keystroke	u	n/a
52.6445	0.045	105289	keystroke	g	n/a
53.0645	0.09	106129	keystroke	Key.space	n/a
53.3645	0.045	106729	keystroke	r	n/a
53.4545	0.075	106909	keystroke	e	n/a
53.6795	0.075	107359	keystroke	s	n/a
54.0845	0.075	108169	keystroke	e	n/a
54.2345	0.075	108469	keystroke	r	n/a
54.5045	0.045	109009	keystroke	v	n/a
54.6545	0.045	109309	keystroke	e	n/a
54.8195	0.06	109639	keystroke	d	n/a
54.9095	0.12	109819	keystroke	Key.space	n/a
54.9995	0.075	109999	keystroke	s	n/a
55.1795	0.06	110359	keystroke	t	n/a
55.599	0.105	111198	keystroke	o	n/a
55.81	0.059	111620	keystroke	r	n/a
55.929	0.075	111858	keystroke	y	n/a
56.289	0.06	112578	keystroke	Key.enter	n/a
56.3545	12.4615	112709	prompt	n/a	hourly rugby montana barely\n
57.52	0.119	115040	keystroke	h	n/a
57.609	0.09	115218	keystroke	o	n/a
57.744	0.045	115488	keystroke	r	n/a
57.849	0.061	115698	keystroke	u	n/a
58.06	0.059	116120	keystroke	l	n/a
58.329	0.06	116658	keystroke	y	n/a
58.539	0.075	117078	keystroke	Key.space	n/a
58.659	0.06	117318	keystroke	r	n/a
58.779	0.09	117558	keystroke	u	n/a
59.424	0.06	118848	keystroke	Key.backspace	n/a
59.754	0.075	119508	keystroke	Key.backspace	n/a
59.919	0.075	119838	keystroke	Key.backspace	n/a
60.099	0.075	120198	keystroke	Key.backspace	n/a
60.309	0.075	120618	keystroke	Key.backspace	n/a
60.549	0.075	121098	keystroke	Key.backspace	n/a
60.729	0.075	121458	keystroke	Key.backspace	n/a
61.735	0.059	123470	keystroke	u	n/a
61.885	0.045	123770	keystroke	r	n/a
61.989	0.091	123978	keystroke	l	n/a
62.319	0.061	124638	keystroke	y	n/a
62.71	0.104	125420	keystroke	Key.space	n/a
63.369	0.061	126738	keystroke	r	n/a
63.475	0.075	126950	keystroke	u	n/a
63.579	0.046	127158	keystroke	g	n/a
63.79	0.06	127580	keystroke	b	n/a
64	0.044	128000	keystroke	y	n/a
64.254	0.09	128508	keystroke	Key.space	n/a
64.434	0.106	128868	keystroke	m	n/a
64.554	0.106	129108	keystroke	o	n/a
64.675	0.089	129350	keystroke	n	n/a
64.885	0.06	129770	keystroke	t	n/a
65.05	0.09	130100	keystroke	a	n/a
65.32	0.059	130640	keystroke	n	n/a
65.485	0.044	130970	keystroke	a	n/a
65.725	0.089	131450	keystroke	Key.space	n/a
65.919	0.061	131838	keystroke	b	n/a
66.04	0.089	132080	keystroke	a	n/a
67.72	0.06	135440	keystroke	r	n/a
67.855	0.06	135710	keystroke	e	n/a
68.08	0.09	136160	keystroke	l	n/a
68.335	0.06	136670	keystroke	y	n/a
68.755	0.06	137510	keystroke	Key.enter	n/a
68.8195	8.8765	137639	prompt	n/a	lodging expectations serial weight\n
69.685	0.075	139370	keystroke	l	n/a
69.895	0.06	139790	keystroke	o	n/a
70.045	0.09	140090	keystroke	d	n/a
70.39	0.06	140780	keystroke	g	n/a
70.465	0.075	140930	keystroke	i	n/a
70.645	0.06	141290	keystroke	n	n/a
71.11	0.06	142220	keystroke	g	n/a
71.365	0.075	142730	keystroke	Key.space	n/a
71.545	0.075	143090	keystroke	d	n/a
71.935	0.09	143870	keystroke	Key.backspace	n/a
72.1	0.06	144200	keystroke	e	n/a
72.43	0.105	144860	keystroke	x	n/a
72.91	0.045	145820	keystroke	p	n/a
72.985	0.075	145970	keystroke	e	n/a
73.165	0.075	146330	keystroke	c	n/a
73.465	0.045	146930	keystroke	t	n/a
73.6	0.12	147200	keystroke	a	n/a
73.735	0.06	147470	keystroke	t	n/a
74.305	0.135	148610	keystroke	i	n/a
74.365	0.105	148730	keystroke	o	n/a
74.545	0.075	149090	keystroke	n	n/a
74.98	0.075	149960	keystroke	s	n/a
75.115	0.105	150230	keystroke	Key.space	n/a
75.25	0.06	150500	keystroke	s	n/a
75.415	0.09	150830	keystroke	e	n/a
75.52	0.06	151040	keystroke	r	n/a
75.625	0.045	151250	keystroke	i	n/a
75.67	0.09	151340	keystroke	a	n/a
75.79	0.09	151580	keystroke	l	n/a
75.94	0.12	151880	keystroke	Key.space	n/a
76.105	0.0745	152210	keystroke	w	n/a
76.6595	0.06	153319	keystroke	e	n/a
76.9295	0.06	153859	keystroke	i	n/a
77.0945	0.03	154189	keystroke	g	n/a
77.1845	0.045	154369	keystroke	h	n/a
77.3495	0.045	154699	keystroke	t	n/a
77.6495	0.045	155299	keystroke	Key.enter	n/a
77.7005	8.1715	155401	prompt	n/a	belongs discussions subsequently control\n
78.6545	0.06	157309	keystroke	b	n/a
78.7295	0.045	157459	keystroke	e	n/a
78.8345	0.09	157669	keystroke	l	n/a
79.0145	0.06	158029	keystroke	o	n/a
79.1345	0.075	158269	keystroke	n	n/a
79.2245	0.06	158449	keystroke	g	n/a
79.3895	0.09	158779	keystroke	s	n/a
79.5245	0.105	159049	keystroke	Key.space	n/a
79.6745	0.075	159349	keystroke	d	n/a
79.7945	0.045	159589	keystroke	i	n/a
79.9595	0.105	159919	keystroke	s	n/a
80.3195	0.06	160639	keystroke	c	n/a
80.4395	0.075	160879	keystroke	u	n/a
80.5745	0.06	161149	keystroke	s	n/a
80.7245	0.06	161449	keystroke	s	n/a
80.8295	0.135	161659	keystroke	i	n/a
80.8895	0.105	161779	keystroke	o	n/a
81.0695	0.06	162139	keystroke	n	n/a
81.2345	0.09	162469	keystroke	Key.space	n/a
81.3545	0.075	162709	keystroke	s	n/a
81.4895	0.075	162979	keystroke	u	n/a
81.6545	0.06	163309	keystroke	b	n/a
82.2545	0.09	164509	keystroke	s	n/a
82.4945	0.06	164989	keystroke	e	n/a
83.064	0.075	166128	keystroke	q	n/a
83.169	0.075	166338	keystroke	u	n/a
83.274	0.075	166548	keystroke	e	n/a
83.439	0.075	166878	keystroke	n	n/a
83.619	0.045	167238	keystroke	t	n/a
83.739	0.075	167478	keystroke	l	n/a
84.009	0.06	168018	keystroke	y	n/a
84.369	0.09	168738	keystroke	Key.space	n/a
84.594	0.075	169188	keystroke	c	n/a
84.684	0.09	169368	keystroke	o	n/a
84.819	0.075	169638	keystroke	n	n/a
84.955	0.059	169910	keystroke	t	n/a
85.119	0.075	170238	keystroke	r	n/a
85.209	0.06	170418	keystroke	o	n/a
85.405	0.119	170810	keystroke	l	n/a
85.809	0.06	171618	keystroke	Key.enter	n/a
85.875	12.521	171750	prompt	n/a	drawings bouquet buyers adjustments\n
86.994	0.075	173988	keystroke	d	n/a
87.189	0.06	174378	keystroke	r	n/a
87.339	0.06	174678	keystroke	a	n/a
87.489	0.075	174978	keystroke	w	n/a
87.609	0.06	175218	keystroke	i	n/a
87.744	0.09	175488	keystroke	n	n/a
87.819	0.061	175638	keystroke	g	n/a
87.984	0.075	175968	keystroke	s	n/a
88.089	0.0895	176178	keystroke	Key.space	n/a
88.2835	0.06	176567	keystroke	b	n/a
88.434	0.09	176868	keystroke	o	n/a
88.63	0.044	177260	keystroke	u	n/a
91.377	0	182754	keystroke	q	n/a
91.434	0.06	182868	keystroke	u	n/a
91.75	0.075	183500	keystroke	e	n/a
92.005	0.044	184010	keystroke	t	n/a
93.759	0.09	187518	keystroke	Key.space	n/a
94.12	0.045	188240	keystroke	b	n/a
94.225	0.074	188450	keystroke	u	n/a
94.435	0.045	188870	keystroke	y	n/a
94.509	0.106	189018	keystroke	e	n/a
94.615	0.06	189230	keystroke	r	n/a
94.809	0.061	189618	keystroke	s	n/a
95.065	0.104	190130	keystroke	Key.space	n/a
95.2	0.06	190400	keystroke	a	n/a
95.349	0.045	190698	keystroke	d	n/a
95.469	0.076	190938	keystroke	j	n/a
95.71	0.045	191420	keystroke	e	n/a
96.324	0.06	192648	keystroke	Key.backspace	n/a
96.61	0.12	193220	keystroke	u	n/a
96.91	0.105	193820	keystroke	s	n/a
97.195	0.03	194390	keystroke	t	n/a
97.435	0.09	194870	keystroke	m	n/a
97.6	0.06	195200	keystroke	e	n/a
97.72	0.06	195440	keystroke	n	n/a
97.81	0.045	195620	keystroke	t	n/a
98.035	0.06	196070	keystroke	s	n/a
98.35	0.044	196700	keystroke	Key.enter	n/a
98.399	7.317	196798	prompt	n/a	google relations government browsing\n
99.6845	0.06	199369	keystroke	g	n/a
99.7895	0.06	199579	keystroke	o	n/a
99.9245	0.075	199849	keystroke	o	n/a
100.0445	0.045	200089	keystroke	g	n/a
100.1495	0.06	200299	keystroke	l	n/a
100.2545	0.045	200509	keystroke	e	n/a
100.4195	0.105	200839	keystroke	Key.space	n/a
100.5995	0.045	201199	keystroke	r	n/a
100.7495	0.03	201499	keystroke	e	n/a
100.8245	0.09	201649	keystroke	l	n/a
101.0645	0.06	202129	keystroke	a	n/a
101.1845	0.075	202369	keystroke	t	n/a
101.3495	0.135	202699	keystroke	i	n/a
101.4095	0.105	202819	keystroke	o	n/a
101.7845	0.075	203569	keystroke	n	n/a
101.9045	0.075	203809	keystroke	s	n/a
102.2045	0.105	204409	keystroke	Key.space	n/a
102.5495	0.045	205099	keystroke	g	n/a
102.6245	0.075	205249	keystroke	o	n/a
102.7445	0.105	205489	keystroke	v	n/a
102.9845	0.12	205969	keystroke	e	n/a
103.1195	0.03	206239	keystroke	r	n/a
103.3145	0.03	206629	keystroke	n	n/a
103.5695	0.06	207139	keystroke	m	n/a
103.6445	0.06	207289	keystroke	e	n/a
103.7645	0.06	207529	keystroke	n	n/a
103.8695	0.075	207739	keystroke	t	n/a
104.0345	0.105	208069	keystroke	Key.space	n/a
104.2445	0.075	208489	keystroke	b	n/a
104.3495	0.06	208699	keystroke	r	n/a
104.4845	0.075	208969	keystroke	o	n/a
104.6195	0.09	209239	keystroke	w	n/a
104.9645	0.075	209929	keystroke	s	n/a
105.0545	0.075	210109	keystroke	i	n/a
105.2045	0.09	210409	keystroke	n	n/a
105.3245	0.06	210649	keystroke	g	n/a
105.6395	0.075	211279	keystroke	Key.enter	n/a
105.7195	11.3815	211439	prompt	n/a	moreover americans flowers possibilities\n
106.4195	0.135	212839	keystroke	m	n/a
106.5995	0.075	213199	keystroke	o	n/a
107.1545	0.075	214309	keystroke	r	n/a
107.3195	0.045	214639	keystroke	e	n/a
108.0095	0.06	216019	keystroke	o	n/a
108.0995	0.075	216199	keystroke	v	n/a
108.3395	0.105	216679	keystroke	e	n/a
108.4295	0.06	216859	keystroke	r	n/a
108.6545	0.09	217309	keystroke	Key.space	n/a
108.7595	0.075	217519	keystroke	a	n/a
108.8495	0.09	217699	keystroke	m	n/a
109.1195	0.135	218239	keystroke	e	n/a
109.2395	0.06	218479	keystroke	r	n/a
109.5095	0.015	219019	keystroke	i	n/a
109.9145	0.09	219829	keystroke	c	n/a
110.1695	0.075	220339	keystroke	a	n/a
110.3795	0.06	220759	keystroke	s	n/a
110.9195	0.0745	221839	keystroke	Key.space	n/a
111.879	0.06	223758	keystroke	Key.backspace	n/a
112.044	0.06	224088	keystroke	Key.backspace	n/a
112.389	0.09	224778	keystroke	n	n/a
112.599	0.06	225198	keystroke	s	n/a
112.9145	0.12	225829	keystroke	Key.space	n/a
113.0945	0.075	226189	keystroke	f	n/a
113.1995	0.105	226399	keystroke	l	n/a
113.4095	0.06	226819	keystroke	o	n/a
113.5895	0.06	227179	keystroke	w	n/a
113.6645	0.12	227329	keystroke	e	n/a
113.7695	0.075	227539	keystroke	r	n/a
114.0245	0.06	228049	keystroke	s	n/a
114.4145	0.075	228829	keystroke	Key.space	n/a
114.5645	0.075	229129	keystroke	p	n/a
114.7745	0.03	229549	keystroke	o	n/a
114.8345	0.09	229669	keystroke	s	n/a
114.9995	0.075	229999	keystroke	s	n/a
115.1045	0.075	230209	keystroke	i	n/a
115.4495	0.075	230899	keystroke	b	n/a
115.6295	0.045	231259	keystroke	i	n/a
115.7795	0.09	231559	keystroke	l	n/a
115.9445	0.09	231889	keystroke	i	n/a
116.2295	0.075	232459	keystroke	t	n/a
116.4095	0.06	232819	keystroke	i	n/a
116.5145	0.075	233029	keystroke	e	n/a
116.7095	0.075	233419	keystroke	s	n/a
117.0545	0.045	234109	keystroke	Key.enter	n/a
117.105	8.021	234210	prompt	n/a	tracked employ held achieved\n
118.1495	0.045	236299	keystroke	t	n/a
118.2545	0.09	236509	keystroke	r	n/a
118.3745	0.075	236749	keystroke	a	n/a
118.6145	0.06	237229	keystroke	c	n/a
118.6895	0.075	237379	keystroke	k	n/a
119.0495	0.09	238099	keystroke	Key.space	n/a
119.1695	0.06	238339	keystroke	e	n/a
119.2595	0.12	238519	keystroke	m	n/a
119.4095	0.09	238819	keystroke	p	n/a
120.0545	0.075	240109	keystroke	l	n/a
120.2495	0.06	240499	keystroke	o	n/a
120.5345	0.06	241069	keystroke	y	n/a
120.8495	0.075	241699	keystroke	Key.space	n/a
121.0295	0.075	242059	keystroke	h	n/a
121.1195	0.045	242239	keystroke	e	n/a
121.3895	0.09	242779	keystroke	l	n/a
121.4945	0.09	242989	keystroke	d	n/a
121.7045	0.045	243409	keystroke	Key.space	n/a
122.0945	0.09	244189	keystroke	a	n/a
122.3045	0.09	244609	keystroke	c	n/a
122.4395	0.12	244879	keystroke	h	n/a
122.5455	0.074	245091	keystroke	i	n/a
122.9045	0.06	245809	keystroke	e	n/a
123.3395	0.045	246679	keystroke	v	n/a
123.5495	0.06	247099	keystroke	e	n/a
123.7445	0.06	247489	keystroke	d	n/a
125.079	0.045	250158	keystroke	Key.enter	n/a
125.1295	7.076	250259	prompt	n/a	surface brings danish valley\n
126.069	0.075	252138	keystroke	s	n/a
126.234	0.045	252468	keystroke	u	n/a
126.309	0.06	252618	keystroke	r	n/a
127.254	0.105	254508	keystroke	f	n/a
127.434	0.0755	254868	keystroke	a	n/a
127.599	0.09	255198	keystroke	c	n/a
127.779	0.06	255558	keystroke	e	n/a
127.899	0.12	255798	keystroke	Key.space	n/a
128.169	0.075	256338	keystroke	b	n/a
128.259	0.06	256518	keystroke	r	n/a
128.379	0.06	256758	keystroke	i	n/a
128.514	0.105	257028	keystroke	n	n/a
128.634	0.045	257268	keystroke	g	n/a
128.814	0.075	257628	keystroke	s	n/a
128.934	0.12	257868	keystroke	Key.space	n/a
129.069	0.09	258138	keystroke	d	n/a
129.279	0.06	258558	keystroke	a	n/a
129.384	0.075	258768	keystroke	n	n/a
129.549	0.09	259098	keystroke	i	n/a
129.669	0.075	259338	keystroke	s	n/a
129.834	0.075	259668	keystroke	h	n/a
130.2385	0.1045	260477	keystroke	Key.space	n/a
130.4175	0.0765	260835	keystroke	v	n/a
130.6435	0.06	261287	keystroke	a	n/a
130.7185	0.075	261437	keystroke	l	n/a
130.8835	0.09	261767	keystroke	l	n/a
131.394	0.075	262788	keystroke	e	n/a
131.529	0.09	263058	keystroke	y	n/a
132.1435	0.06	264287	keystroke	Key.enter	n/a
132.2095	7.706	264419	prompt	n/a	cameras lifetime stretch nerve\n
133.0585	0.091	266117	keystroke	c	n/a
133.2535	0.046	266507	keystroke	a	n/a
133.3285	0.0905	266657	keystroke	m	n/a
133.4635	0.12	266927	keystroke	e	n/a
133.6745	0.074	267349	keystroke	r	n/a
134.2135	0.061	268427	keystroke	a	n/a
134.484	0.0745	268968	keystroke	s	n/a
134.7385	0.1055	269477	keystroke	Key.space	n/a
134.874	0.12	269748	keystroke	l	n/a
135.054	0.0595	270108	keystroke	i	n/a
135.1285	0.06	270257	keystroke	f	n/a
135.279	0.045	270558	keystroke	e	n/a
135.6235	0.0605	271247	keystroke	t	n/a
135.7135	0.0605	271427	keystroke	i	n/a
135.879	0.075	271758	keystroke	m	n/a
135.969	0.045	271938	keystroke	e	n/a
136.119	0.1045	272238	keystroke	Key.space	n/a
136.2245	0.089	272449	keystroke	s	n/a
136.4335	0.06	272867	keystroke	t	n/a
136.5995	0.059	273199	keystroke	r	n/a
137.2135	0.06	274427	keystroke	e	n/a
137.4535	0.06	274907	keystroke	t	n/a
137.7995	0.059	275599	keystroke	c	n/a
137.9035	0.06	275807	keystroke	h	n/a
138.1135	0.09	276227	keystroke	Key.space	n/a
138.3085	0.075	276617	keystroke	n	n/a
138.4135	0.106	276827	keystroke	e	n/a
138.6085	0.061	277217	keystroke	r	n/a
138.9385	0.045	277877	keystroke	v	n/a
139.1335	0.045	278267	keystroke	e	n/a
139.8835	0.03	279767	keystroke	Key.enter	n/a
139.9185	8.892	279837	prompt	n/a	environments lawsuit seal cottages\n
140.7245	0.045	281449	keystroke	e	n/a
140.8285	0.091	281657	keystroke	n	n/a
141.8785	0.045	283757	keystroke	v	n/a
141.9985	0.06	283997	keystroke	i	n/a
142.1785	0.046	284357	keystroke	r	n/a
142.2835	0.12	284567	keystroke	o	n/a
142.5235	0.046	285047	keystroke	n	n/a
142.7195	0.059	285439	keystroke	m	n/a
142.8235	0.046	285647	keystroke	e	n/a
142.9135	0.0595	285827	keystroke	n	n/a
143.063	0.0755	286126	keystroke	t	n/a
143.304	0.09	286608	keystroke	s	n/a
143.423	0.1345	286846	keystroke	Key.space	n/a
143.5725	0.105	287145	keystroke	l	n/a
143.7695	0.029	287539	keystroke	a	n/a
144.2635	0.045	288527	keystroke	w	n/a
145.0585	0.061	290117	keystroke	s	n/a
145.1945	0.15	290389	keystroke	u	n/a
145.2995	0.089	290599	keystroke	i	n/a
145.4785	0.061	290957	keystroke	t	n/a
145.7485	0.105	291497	keystroke	Key.space	n/a
146.2285	0.076	292457	keystroke	s	n/a
146.3945	0.059	292789	keystroke	e	n/a
146.5585	0.091	293117	keystroke	a	n/a
146.6645	0.089	293329	keystroke	l	n/a
146.8885	0.09	293777	keystroke	Key.space	n/a
147.1135	0.061	294227	keystroke	c	n/a
147.2335	0.061	294467	keystroke	o	n/a
147.4435	0.06	294887	keystroke	t	n/a
147.5785	0.075	295157	keystroke	t	n/a
147.7145	0.09	295429	keystroke	a	n/a
147.8635	0.076	295727	keystroke	g	n/a
148.0595	0.03	296119	keystroke	e	n/a
148.1795	0.075	296359	keystroke	s	n/a
148.7335	0.076	297467	keystroke	Key.enter	n/a
148.8135	8.6075	297627	prompt	n/a	kitchen yugoslavia vendor holdem\n
149.7095	0.059	299419	keystroke	k	n/a
149.8885	0.061	299777	keystroke	i	n/a
149.9795	0.105	299959	keystroke	t	n/a
150.3545	0.06	300709	keystroke	c	n/a
150.4445	0.06	300889	keystroke	h	n/a
150.6245	0.03	301249	keystroke	e	n/a
150.7145	0.075	301429	keystroke	n	n/a
150.9245	0.044	301849	keystroke	Key.space	n/a
151.584	0.075	303168	keystroke	y	n/a
151.749	0.105	303498	keystroke	u	n/a
151.884	0.0595	303768	keystroke	g	n/a
151.9885	0.09	303977	keystroke	o	n/a
152.4685	0.06	304937	keystroke	s	n/a
152.5585	0.09	305117	keystroke	l	n/a
152.7385	0.09	305477	keystroke	a	n/a
152.9185	0.06	305837	keystroke	v	n/a
153.0985	0.06	306197	keystroke	i	n/a
153.22	0.0585	306440	keystroke	a	n/a
153.4585	0.105	306917	keystroke	Key.space	n/a
153.7135	0.03	307427	keystroke	v	n/a
154.9285	0.045	309857	keystroke	e	n/a
155.0185	0.075	310037	keystroke	n	n/a
155.1835	0.045	310367	keystroke	d	n/a
155.304	0.06	310608	keystroke	o	n/a
155.424	0.06	310848	keystroke	r	n/a
155.604	0.09	311208	keystroke	Key.space	n/a
155.8435	0.1355	311687	keystroke	h	n/a
155.9335	0.0905	311867	keystroke	o	n/a
156.6385	0.09	313277	keystroke	l	n/a
156.7435	0.076	313487	keystroke	d	n/a
156.939	0.045	313878	keystroke	e	n/a
157.014	0.09	314028	keystroke	m	n/a
157.359	0.0595	314718	keystroke	Key.enter	n/a
157.4255	5.8905	314851	prompt	n/a	worn relation vice judy\n
158.4235	0.06	316847	keystroke	w	n/a
158.5135	0.09	317027	keystroke	o	n/a
158.6185	0.045	317237	keystroke	r	n/a
158.7085	0.075	317417	keystroke	n	n/a
159.0235	0.075	318047	keystroke	Key.space	n/a
159.2635	0.045	318527	keystroke	r	n/a
159.4285	0.03	318857	keystroke	e	n/a
159.5935	0.06	319187	keystroke	l	n/a
159.8035	0.06	319607	keystroke	a	n/a
159.9235	0.06	319847	keystroke	t	n/a
160.0285	0.165	320057	keystroke	i	n/a
160.1335	0.105	320267	keystroke	o	n/a
160.3135	0.075	320627	keystroke	n	n/a
160.6135	0.12	321227	keystroke	Key.space	n/a
160.7945	0.044	321589	keystroke	v	n/a
160.8685	0.06	321737	keystroke	i	n/a
161.6335	0.12	323267	keystroke	c	n/a
161.7985	0.06	323597	keystroke	e	n/a
161.9485	0.075	323897	keystroke	Key.space	n/a
162.0985	0.105	324197	keystroke	j	n/a
162.2785	0.075	324557	keystroke	u	n/a
162.3695	0.074	324739	keystroke	d	n/a
162.7585	0.061	325517	keystroke	y	n/a
163.2535	0.06	326507	keystroke	Key.enter	n/a
163.3205	14.0955	326641	prompt	n/a	corrections tune circuit michael\n
164.1535	0.105	328307	keystroke	c	n/a
164.2435	0.06	328487	keystroke	o	n/a
164.4535	0.03	328907	keystroke	r	n/a
164.5735	0.046	329147	keystroke	r	n/a
164.6785	0.075	329357	keystroke	e	n/a
164.9185	0.09	329837	keystroke	c	n/a
165.2195	0.075	330439	keystroke	t	n/a
165.2785	0.165	330557	keystroke	i	n/a
165.3685	0.09	330737	keystroke	o	n/a
165.5485	0.06	331097	keystroke	n	n/a
165.6245	0.074	331249	keystroke	s	n/a
165.9835	0.075	331967	keystroke	Key.space	n/a
166.1785	0.061	332357	keystroke	r	n/a
166.2835	0.061	332567	keystroke	u	n/a
166.4195	0.075	332839	keystroke	n	n/a
166.5085	0.06	333017	keystroke	e	n/a
167.1385	0.06	334277	keystroke	Key.backspace	n/a
167.3035	0.075	334607	keystroke	Key.backspace	n/a
167.4685	0.06	334937	keystroke	Key.backspace	n/a
167.6485	0.045	335297	keystroke	Key.backspace	n/a
168.3385	0.06	336677	keystroke	t	n/a
168.4145	0.059	336829	keystroke	u	n/a
168.5485	0.09	337097	keystroke	n	n/a
168.6535	0.03	337307	keystroke	e	n/a
169.2085	0.105	338417	keystroke	Key.space	n/a
169.4645	0.059	338929	keystroke	c	n/a
169.5535	0.06	339107	keystroke	i	n/a
169.6735	0.09	339347	keystroke	r	n/a
169.9285	0.06	339857	keystroke	c	n/a
170.0185	0.105	340037	keystroke	u	n/a
170.1535	0.03	340307	keystroke	u	n/a
170.1695	0.089	340339	keystroke	i	n/a
170.3195	0.029	340639	keystroke	t	n/a
170.6785	0.091	341357	keystroke	Key.space	n/a
170.8285	0.105	341657	keystroke	m	n/a
171.0395	0.059	342079	keystroke	i	n/a
171.1145	0.089	342229	keystroke	c	n/a
171.2335	0.061	342467	keystroke	h	n/a
172.1635	0.06	344327	keystroke	Key.backspace	n/a
172.3285	0.075	344657	keystroke	Key.backspace	n/a
172.4785	0.091	344957	keystroke	Key.backspace	n/a
172.6445	0.075	345289	keystroke	Key.backspace	n/a
172.8235	0.06	345647	keystroke	Key.backspace	n/a
172.9885	0.09	345977	keystroke	Key.backspace	n/a
173.1695	0.059	346339	keystroke	Key.backspace	n/a
173.4235	0.075	346847	keystroke	Key.backspace	n/a
173.8445	0.09	347689	keystroke	i	n/a
174.0545	0.06	348109	keystroke	t	n/a
174.2645	0.119	348529	keystroke	Key.space	n/a
174.7595	0.105	349519	keystroke	m	n/a
174.9245	0.075	349849	keystroke	i	n/a
175.0285	0.106	350057	keystroke	c	n/a
175.5545	0.105	351109	keystroke	h	n/a
176.0795	0.06	352159	keystroke	a	n/a
176.2895	0.015	352579	keystroke	e	n/a
176.9645	0.09	353929	keystroke	l	n/a
177.3695	0.045	354739	keystroke	Key.enter	n/a
177.4195	18.2215	354839	prompt	n/a	coleman fifth bizrate asbestos\n
180.3415	0.013	360683	keystroke	c	n/a
180.4145	0.075	360829	keystroke	o	n/a
180.6695	0.105	361339	keystroke	l	n/a
180.7895	0.075	361579	keystroke	e	n/a
180.9245	0.09	361849	keystroke	m	n/a
181.5545	0.075	363109	keystroke	a	n/a
181.6595	0.06	363319	keystroke	n	n/a
181.8845	0.105	363769	keystroke	Key.space	n/a
182.0495	0.075	364099	keystroke	i	n/a
182.1545	0.075	364309	keystroke	f	n/a
183.4145	0.0745	366829	keystroke	Key.backspace	n/a
183.6245	0.06	367249	keystroke	Key.backspace	n/a
184.1345	0.06	368269	keystroke	f	n/a
184.2695	0.03	368539	keystroke	i	n/a
184.464	0.015	368928	keystroke	f	n/a
184.929	0.075	369858	keystroke	t	n/a
185.064	0.075	370128	keystroke	h	n/a
185.619	0.06	371238	keystroke	Key.space	n/a
185.844	0.045	371688	keystroke	b	n/a
186.159	0.045	372318	keystroke	i	n/a
186.849	0.06	373698	keystroke	z	n/a
188.0935	0.045	376187	keystroke	r	n/a
188.4535	0.075	376907	keystroke	a	n/a
188.6035	0.06	377207	keystroke	t	n/a
188.7985	0.045	377597	keystroke	e	n/a
189.2485	0.105	378497	keystroke	Key.space	n/a
189.6685	0.045	379337	keystroke	a	n/a
189.8335	0.06	379667	keystroke	s	n/a
193.1365	0.001	386273	keystroke	b	n/a
193.1645	0.074	386329	keystroke	e	n/a
193.3145	0.104	386629	keystroke	s	n/a
193.4935	0.075	386987	keystroke	t	n/a
193.5985	0.091	387197	keystroke	o	n/a
193.7035	0.075	387407	keystroke	s	n/a
195.564	0.075	391128	keystroke	Key.enter	n/a
195.644	8.9515	391288	prompt	n/a	commonly spirituality dealt humor\n
196.614	0.06	393228	keystroke	c	n/a
196.704	0.06	393408	keystroke	o	n/a
196.884	0.045	393768	keystroke	m	n/a
197.034	0.06	394068	keystroke	m	n/a
197.199	0.075	394398	keystroke	o	n/a
197.319	0.105	394638	keystroke	n	n/a
197.469	0.105	394938	keystroke	l	n/a
197.769	0.075	395538	keystroke	y	n/a
197.979	0.12	395958	keystroke	Key.space	n/a
198.114	0.06	396228	keystroke	s	n/a
198.204	0.12	396408	keystroke	p	n/a
199.029	0.045	398058	keystroke	i	n/a
199.494	0.045	398988	keystroke	r	n/a
199.794	0.045	399588	keystroke	i	n/a
200.094	0.06	400188	keystroke	t	n/a
200.304	0.09	400608	keystroke	u	n/a
200.559	0.09	401118	keystroke	a	n/a
200.634	0.075	401268	keystroke	l	n/a
200.784	0.075	401568	keystroke	l	n/a
201.054	0.075	402108	keystroke	y	n/a
201.324	0.12	402648	keystroke	Key.space	n/a
201.459	0.075	402918	keystroke	d	n/a
201.639	0.06	403278	keystroke	e	n/a
201.819	0.06	403638	keystroke	a	n/a
201.924	0.075	403848	keystroke	l	n/a
202.164	0.045	404328	keystroke	t	n/a
202.389	0.09	404778	keystroke	Key.space	n/a
202.614	0.09	405228	keystroke	h	n/a
202.884	0.1045	405768	keystroke	m	n/a
203.364	0.06	406728	keystroke	Key.backspace	n/a
203.664	0.075	407328	keystroke	u	n/a
203.934	0.135	407868	keystroke	m	n/a
204.054	0.09	408108	keystroke	o	n/a
204.174	0.06	408348	keystroke	r	n/a
204.534	0.06	409068	keystroke	Key.enter	n/a
204.5985	6.702	409197	prompt	n/a	products belt socket canal\n
205.419	0.09	410838	keystroke	p	n/a
205.674	0.06	411348	keystroke	r	n/a
205.794	0.09	411588	keystroke	o	n/a
206.319	0.105	412638	keystroke	d	n/a
206.439	0.075	412878	keystroke	u	n/a
206.529	0.105	413058	keystroke	c	n/a
206.919	0.0595	413838	keystroke	t	n/a
207.1135	0.09	414227	keystroke	s	n/a
207.3985	0.105	414797	keystroke	Key.space	n/a
207.684	0.0445	415368	keystroke	b	n/a
207.7435	0.06	415487	keystroke	e	n/a
207.8785	0.09	415757	keystroke	l	n/a
208.0895	0.029	416179	keystroke	t	n/a
208.4785	0.105	416957	keystroke	Key.space	n/a
208.5985	0.105	417197	keystroke	s	n/a
208.7185	0.075	417437	keystroke	o	n/a
208.8235	0.075	417647	keystroke	c	n/a
209.0185	0.06	418037	keystroke	k	n/a
209.1395	0.089	418279	keystroke	e	n/a
209.349	0.0745	418698	keystroke	t	n/a
209.6035	0.105	419207	keystroke	Key.space	n/a
209.8285	0.09	419657	keystroke	c	n/a
210.0985	0.06	420197	keystroke	a	n/a
210.1735	0.06	420347	keystroke	n	n/a
210.3085	0.06	420617	keystroke	a	n/a
210.6535	0.09	421307	keystroke	l	n/a
211.2385	0.06	422477	keystroke	Key.enter	n/a
211.304	9.1615	422608	prompt	n/a	described chancellor omissions obviously\n
212.0645	0.059	424129	keystroke	d	n/a
212.2285	0.045	424457	keystroke	e	n/a
212.3645	0.104	424729	keystroke	s	n/a
212.5585	0.075	425117	keystroke	c	n/a
212.7835	0.06	425567	keystroke	r	n/a
212.8895	0.089	425779	keystroke	i	n/a
213.0835	0.075	426167	keystroke	b	n/a
213.1735	0.075	426347	keystroke	e	n/a
213.3835	0.06	426767	keystroke	d	n/a
213.5485	0.09	427097	keystroke	Key.space	n/a
213.6985	0.091	427397	keystroke	c	n/a
213.8185	0.075	427637	keystroke	h	n/a
214.5985	0.045	429197	keystroke	a	n/a
214.6445	0.074	429289	keystroke	n	n/a
214.7785	0.105	429557	keystroke	c	n/a
214.9895	0.029	429979	keystroke	e	n/a
215.1085	0.06	430217	keystroke	l	n/a
215.2435	0.09	430487	keystroke	l	n/a
215.4395	0.104	430879	keystroke	o	n/a
215.5145	0.089	431029	keystroke	r	n/a
215.6785	0.12	431357	keystroke	Key.space	n/a
215.8285	0.105	431657	keystroke	o	n/a
215.9935	0.09	431987	keystroke	m	n/a
216.1895	0.059	432379	keystroke	i	n/a
216.4145	0.059	432829	keystroke	s	n/a
216.5645	0.059	433129	keystroke	s	n/a
216.6545	0.164	433309	keystroke	i	n/a
216.7435	0.105	433487	keystroke	o	n/a
216.9235	0.06	433847	keystroke	n	n/a
216.9985	0.075	433997	keystroke	s	n/a
217.6585	0.105	435317	keystroke	Key.space	n/a
217.8395	0.104	435679	keystroke	o	n/a
218.0935	0.046	436187	keystroke	b	n/a
218.5145	0.03	437029	keystroke	v	n/a
218.6035	0.12	437207	keystroke	i	n/a
218.7085	0.12	437417	keystroke	o	n/a
218.9645	0.059	437929	keystroke	u	n/a
219.3235	0.045	438647	keystroke	s	n/a
219.4145	0.104	438829	keystroke	l	n/a
219.7145	0.075	439429	keystroke	y	n/a
220.4185	0.046	440837	keystroke	Key.enter	n/a
220.469	9.567	440938	prompt	n/a	manga slideshow naples chan\n
220.8545	0.014	441709	keystroke	d	n/a
221.4685	0.075	442937	keystroke	Key.backspace	n/a
222.0845	0.075	444169	keystroke	m	n/a
222.2045	0.06	444409	keystroke	a	n/a
222.3095	0.045	444619	keystroke	n	n/a
222.8485	0.046	445697	keystroke	g	n/a
223.3445	0.09	446689	keystroke	a	n/a
223.9735	0.121	447947	keystroke	Key.space	n/a
224.1545	0.075	448309	keystroke	s	n/a
224.4245	0.09	448849	keystroke	l	n/a
224.6045	0.075	449209	keystroke	i	n/a
224.7545	0.09	449509	keystroke	d	n/a
225.0395	0.06	450079	keystroke	e	n/a
225.6695	0.075	451339	keystroke	s	n/a
225.7595	0.135	451519	keystroke	h	n/a
225.8495	0.09	451699	keystroke	o	n/a
226.0145	0.045	452029	keystroke	w	n/a
227.6195	0.075	455239	keystroke	Key.space	n/a
227.7695	0.075	455539	keystroke	n	n/a
227.8895	0.06	455779	keystroke	a	n/a
228.0245	0.09	456049	keystroke	p	n/a
228.2495	0.09	456499	keystroke	l	n/a
228.3545	0.06	456709	keystroke	e	n/a
228.5945	0.06	457189	keystroke	s	n/a
228.8045	0.09	457609	keystroke	Key.space	n/a
228.9845	0.09	457969	keystroke	c	n/a
229.1045	0.06	458209	keystroke	h	n/a
229.2395	0.09	458479	keystroke	a	n/a
229.3445	0.045	458689	keystroke	n	n/a
229.9595	0.075	459919	keystroke	Key.enter	n/a
230.039	17.652	460078	prompt	n/a	heater include ambassador deliver\n
231.7445	0.06	463489	keystroke	h	n/a
231.8345	0.075	463669	keystroke	e	n/a
232.4045	0.06	464809	keystroke	a	n/a
232.5995	0.06	465199	keystroke	t	n/a
232.8395	0.105	465679	keystroke	e	n/a
232.9145	0.075	465829	keystroke	r	n/a
233.1995	0.09	466399	keystroke	Key.space	n/a
233.3345	0.09	466669	keystroke	i	n/a
233.4995	0.075	466999	keystroke	n	n/a
233.6045	0.06	467209	keystroke	c	n/a
233.6795	0.12	467359	keystroke	l	n/a
233.9345	0.045	467869	keystroke	u	n/a
234.0545	0.075	468109	keystroke	d	n/a
234.2795	0.045	468559	keystroke	e	n/a
234.8645	0.105	469729	keystroke	Key.space	n/a
235.0295	0.045	470059	keystroke	a	n/a
235.1045	0.06	470209	keystroke	m	n/a
235.2095	0.075	470419	keystroke	a	n/a
235.5845	0.06	471169	keystroke	b	n/a
235.7495	0.09	471499	keystroke	a	n/a
236.0045	0.015	472009	keystroke	s	n/a
236.1395	0.09	472279	keystroke	s	n/a
236.4245	0.045	472849	keystroke	a	n/a
236.6645	0.06	473329	keystroke	d	n/a
236.8895	0.075	473779	keystroke	o	n/a
237.0245	0.06	474049	keystroke	r	n/a
237.2345	0.105	474469	keystroke	Key.space	n/a
237.3545	0.075	474709	keystroke	d	n/a
237.5345	0.06	475069	keystroke	e	n/a
237.6695	0.105	475339	keystroke	l	n/a
240.7615	0	481523	keystroke	Key.backspace	n/a
240.8645	0.075	481729	keystroke	Key.backspace	n/a
241.0145	0.06	482029	keystroke	Key.backspace	n/a
241.1795	0.06	482359	keystroke	Key.backspace	n/a
241.3445	0.045	482689	keystroke	Key.backspace	n/a
241.5245	0.045	483049	keystroke	Key.backspace	n/a
241.6895	0.045	483379	keystroke	Key.backspace	n/a
241.8545	0.06	483709	keystroke	Key.backspace	n/a
242.0345	0.045	484069	keystroke	Key.backspace	n/a
242.1995	0.045	484399	keystroke	Key.backspace	n/a
242.3795	0.06	484759	keystroke	Key.backspace	n/a
242.5445	0.045	485089	keystroke	Key.backspace	n/a
242.7095	0.045	485419	keystroke	Key.backspace	n/a
243.6095	0.03	487219	keystroke	b	n/a
243.7295	0.075	487459	keystroke	a	n/a
243.9095	0.06	487819	keystroke	s	n/a
244.0595	0.09	488119	keystroke	s	n/a
245.739	0.06	491478	keystroke	a	n/a
245.919	0.09	491838	keystroke	d	n/a
246.085	0.075	492170	keystroke	o	n/a
246.19	0.06	492380	keystroke	r	n/a
246.414	0.09	492828	keystroke	Key.space	n/a
246.519	0.091	493038	keystroke	d	n/a
246.744	0.045	493488	keystroke	e	n/a
246.849	0.105	493698	keystroke	l	n/a
247.044	0.06	494088	keystroke	i	n/a
247.119	0.061	494238	keystroke	v	n/a
247.329	0.121	494658	keystroke	e	n/a
247.435	0.059	494870	keystroke	r	n/a
247.629	0.06	495258	keystroke	Key.enter	n/a
247.694	11.382	495388	prompt	n/a	gardening assessing biodiversity mailing\n
250.842	0.013	501684	keystroke	g	n/a
250.915	0.06	501830	keystroke	a	n/a
251.08	0.06	502160	keystroke	r	n/a
251.305	0.075	502610	keystroke	d	n/a
251.47	0.06	502940	keystroke	e	n/a
251.56	0.09	503120	keystroke	n	n/a
251.755	0.06	503510	keystroke	i	n/a
251.875	0.075	503750	keystroke	n	n/a
251.98	0.06	503960	keystroke	g	n/a
252.085	0.119	504170	keystroke	Key.space	n/a
252.415	0.09	504830	keystroke	a	n/a
252.61	0.045	505220	keystroke	s	n/a
252.91	0.075	505820	keystroke	s	n/a
253.1045	0.045	506209	keystroke	e	n/a
253.2545	0.06	506509	keystroke	s	n/a
253.4045	0.075	506809	keystroke	s	n/a
253.525	0.06	507050	keystroke	i	n/a
253.6595	0.09	507319	keystroke	n	n/a
253.7645	0.06	507529	keystroke	g	n/a
253.8395	0.09	507679	keystroke	Key.space	n/a
254.0345	0.075	508069	keystroke	b	n/a
254.2145	0.15	508429	keystroke	i	n/a
254.3495	0.075	508699	keystroke	o	n/a
254.8745	0.06	509749	keystroke	d	n/a
255.0695	0.015	510139	keystroke	e	n/a
255.5045	0.045	511009	keystroke	Key.backspace	n/a
255.7595	0.06	511519	keystroke	i	n/a
255.9095	0.09	511819	keystroke	v	n/a
256.1345	0.12	512269	keystroke	e	n/a
256.2395	0.06	512479	keystroke	r	n/a
256.4345	0.075	512869	keystroke	s	n/a
256.5245	0.06	513049	keystroke	i	n/a
256.6745	0.06	513349	keystroke	t	n/a
256.8245	0.075	513649	keystroke	y	n/a
257.0945	0.09	514189	keystroke	Key.space	n/a
257.2745	0.075	514549	keystroke	m	n/a
257.4695	0.09	514939	keystroke	a	n/a
257.5745	0.075	515149	keystroke	i	n/a
257.7695	0.09	515539	keystroke	l	n/a
257.9345	0.06	515869	keystroke	i	n/a
258.0995	0.06	516199	keystroke	n	n/a
258.2045	0.06	516409	keystroke	g	n/a
258.9995	0.075	517999	keystroke	Key.enter	n/a
259.0805	11.3055	518161	prompt	n/a	advisor jelsoft bands cambodia\n
260.0195	0.06	520039	keystroke	a	n/a
260.1845	0.075	520369	keystroke	d	n/a
260.4995	0.06	520999	keystroke	v	n/a
260.6345	0.06	521269	keystroke	i	n/a
260.9045	0.06	521809	keystroke	s	n/a
261.1595	0.045	522319	keystroke	t	n/a
261.2645	0.075	522529	keystroke	o	n/a
261.3545	0.045	522709	keystroke	r	n/a
262.1045	0.045	524209	keystroke	Key.backspace	n/a
262.2545	0.075	524509	keystroke	Key.backspace	n/a
262.5545	0.06	525109	keystroke	Key.backspace	n/a
262.8395	0.06	525679	keystroke	o	n/a
262.9745	0.06	525949	keystroke	r	n/a
263.6645	0.105	527329	keystroke	Key.space	n/a
263.8295	0.09	527659	keystroke	j	n/a
263.9795	0.045	527959	keystroke	e	n/a
264.1445	0.06	528289	keystroke	l	n/a
264.2645	0.09	528529	keystroke	s	n/a
264.4595	0.06	528919	keystroke	o	n/a
264.5945	0.06	529189	keystroke	f	n/a
264.8645	0.045	529729	keystroke	t	n/a
265.0145	0.09	530029	keystroke	Key.space	n/a
265.2695	0.075	530539	keystroke	b	n/a
265.4345	0.075	530869	keystroke	a	n/a
267.3095	0.06	534619	keystroke	n	n/a
267.4295	0.06	534859	keystroke	d	n/a
267.6095	0.045	535219	keystroke	s	n/a
268.0295	0.09	536059	keystroke	Key.space	n/a
268.4495	0.09	536899	keystroke	c	n/a
268.9145	0.045	537829	keystroke	a	n/a
269.0195	0.045	538039	keystroke	m	n/a
269.2445	0.06	538489	keystroke	b	n/a
269.4245	0.06	538849	keystroke	o	n/a
269.7845	0.06	539569	keystroke	d	n/a
269.8745	0.045	539749	keystroke	i	n/a
270.0095	0.075	540019	keystroke	a	n/a
270.3245	0.06	540649	keystroke	Key.enter	n/a
270.389	7.812	540778	prompt	n/a	french departments accessories zones\n
271.2245	0.075	542449	keystroke	f	n/a
271.5095	0.06	543019	keystroke	r	n/a
271.6145	0.06	543229	keystroke	e	n/a
271.7945	0.075	543589	keystroke	n	n/a
271.9445	0.075	543889	keystroke	c	n/a
272.0645	0.06	544129	keystroke	h	n/a
272.2145	0.12	544429	keystroke	Key.space	n/a
272.3195	0.06	544639	keystroke	d	n/a
272.544	0.015	545088	keystroke	e	n/a
272.859	0.06	545718	keystroke	p	n/a
273.099	0.09	546198	keystroke	a	n/a
273.264	0.0905	546528	keystroke	r	n/a
273.4145	0.075	546829	keystroke	t	n/a
273.7295	0.09	547459	keystroke	m	n/a
273.8495	0.045	547699	keystroke	e	n/a
274.0745	0.045	548149	keystroke	n	n/a
274.2095	0.06	548419	keystroke	t	n/a
274.4045	0.075	548809	keystroke	s	n/a
274.5545	0.09	549109	keystroke	Key.space	n/a
274.6595	0.075	549319	keystroke	a	n/a
274.8845	0.06	549769	keystroke	c	n/a
275.0345	0.06	550069	keystroke	c	n/a
275.1845	0.075	550369	keystroke	e	n/a
275.3645	0.075	550729	keystroke	s	n/a
275.5145	0.09	551029	keystroke	s	n/a
275.6645	0.06	551329	keystroke	o	n/a
275.7845	0.06	551569	keystroke	r	n/a
275.9045	0.075	551809	keystroke	i	n/a
275.9945	0.06	551989	keystroke	e	n/a
276.1595	0.0595	552319	keystroke	s	n/a
276.324	0.1055	552648	keystroke	Key.space	n/a
276.7295	0.09	553459	keystroke	z	n/a
276.9095	0.075	553819	keystroke	o	n/a
277.0295	0.09	554059	keystroke	n	n/a
277.1195	0.075	554239	keystroke	e	n/a
277.3295	0.06	554659	keystroke	s	n/a
278.124	0.075	556248	keystroke	Key.enter	n/a
278.206	7.96	556412	prompt	n/a	cleanup plane inspired dancing\n
279.1895	0.0745	558379	keystroke	c	n/a
279.294	0.09	558588	keystroke	l	n/a
279.414	0.0455	558828	keystroke	e	n/a
279.609	0.06	559218	keystroke	a	n/a
280.044	0.075	560088	keystroke	n	n/a
280.5995	0.0595	561199	keystroke	u	n/a
280.794	0.075	561588	keystroke	p	n/a
280.944	0.105	561888	keystroke	Key.space	n/a
281.139	0.075	562278	keystroke	p	n/a
281.304	0.105	562608	keystroke	l	n/a
281.454	0.045	562908	keystroke	a	n/a
281.544	0.06	563088	keystroke	n	n/a
282.279	0.045	564558	keystroke	e	n/a
282.474	0.09	564948	keystroke	Key.space	n/a
282.654	0.06	565308	keystroke	i	n/a
282.774	0.06	565548	keystroke	n	n/a
282.864	0.045	565728	keystroke	s	n/a
283.044	0.09	566088	keystroke	p	n/a
283.239	0.06	566478	keystroke	i	n/a
283.689	0.075	567378	keystroke	r	n/a
283.929	0.03	567858	keystroke	e	n/a
284.124	0.045	568248	keystroke	d	n/a
284.274	0.105	568548	keystroke	Key.space	n/a
284.514	0.075	569028	keystroke	d	n/a
284.679	0.075	569358	keystroke	a	n/a
284.769	0.075	569538	keystroke	n	n/a
285.069	0.075	570138	keystroke	c	n/a
285.159	0.06	570318	keystroke	i	n/a
285.309	0.075	570618	keystroke	n	n/a
285.414	0.06	570828	keystroke	g	n/a
286.089	0.075	572178	keystroke	Key.enter	n/a
286.169	8.757	572338	prompt	n/a	hope skype edwards headline\n
287.425	0.059	574850	keystroke	h	n/a
287.604	0.165	575208	keystroke	o	n/a
287.694	0.09	575388	keystroke	p	n/a
288.084	0.06	576168	keystroke	e	n/a
288.354	0.09	576708	keystroke	Key.space	n/a
288.564	0.06	577128	keystroke	s	n/a
288.639	0.09	577278	keystroke	k	n/a
288.939	0.06	577878	keystroke	y	n/a
289.299	0.09	578598	keystroke	p	n/a
289.449	0.06	578898	keystroke	e	n/a
290.004	0.09	580008	keystroke	Key.space	n/a
290.199	0.045	580398	keystroke	e	n/a
290.409	0.045	580818	keystroke	d	n/a
291.489	0.06	582978	keystroke	w	n/a
291.999	0.075	583998	keystroke	a	n/a
292.119	0.09	584238	keystroke	r	n/a
292.344	0.075	584688	keystroke	d	n/a
292.48	0.074	584960	keystroke	s	n/a
292.674	0.105	585348	keystroke	Key.space	n/a
292.899	0.09	585798	keystroke	h	n/a
292.974	0.09	585948	keystroke	e	n/a
293.169	0.045	586338	keystroke	a	n/a
293.514	0.06	587028	keystroke	d	n/a
293.949	0.075	587898	keystroke	l	n/a
294.13	0.059	588260	keystroke	i	n/a
294.264	0.075	588528	keystroke	n	n/a
294.355	0.044	588710	keystroke	e	n/a
294.879	0.045	589758	keystroke	Key.enter	n/a
294.929	11.0225	589858	prompt	n/a	steady power convicted inserted\n
295.824	0.135	591648	keystroke	s	n/a
296.049	0.06	592098	keystroke	t	n/a
296.169	0.061	592338	keystroke	e	n/a
296.544	0.061	593088	keystroke	a	n/a
297.309	0.06	594618	keystroke	d	n/a
297.534	0.075	595068	keystroke	y	n/a
297.744	0.105	595488	keystroke	Key.space	n/a
297.894	0.105	595788	keystroke	p	n/a
298.134	0.06	596268	keystroke	o	n/a
298.359	0.045	596718	keystroke	w	n/a
298.509	0.105	597018	keystroke	e	n/a
298.615	0.074	597230	keystroke	r	n/a
298.974	0.09	597948	keystroke	Key.space	n/a
299.23	0.059	598460	keystroke	c	n/a
299.319	0.061	598638	keystroke	o	n/a
299.439	0.0905	598878	keystroke	n	n/a
299.7245	0.045	599449	keystroke	v	n/a
299.8595	0.03	599719	keystroke	i	n/a
300.0395	0.03	600079	keystroke	c	n/a
300.3545	0.09	600709	keystroke	t	n/a
300.6545	0.06	601309	keystroke	r	n/a
300.8645	0.045	601729	keystroke	e	n/a
301.0595	0.045	602119	keystroke	d	n/a
301.2845	0.075	602569	keystroke	Key.space	n/a
301.4195	0.06	602839	keystroke	i	n/a
301.5545	0.09	603109	keystroke	n	n/a
301.7045	0.09	603409	keystroke	s	n/a
302.5445	0.075	605089	keystroke	Key.backspace	n/a
302.7095	0.075	605419	keystroke	Key.backspace	n/a
302.859	0.075	605718	keystroke	Key.backspace	n/a
303.009	0.09	606018	keystroke	Key.backspace	n/a
303.174	0.09	606348	keystroke	Key.backspace	n/a
303.355	0.074	606710	keystroke	Key.backspace	n/a
303.744	0.075	607488	keystroke	Key.backspace	n/a
303.939	0.045	607878	keystroke	e	n/a
304.134	0.046	608268	keystroke	d	n/a
304.224	0.12	608448	keystroke	Key.space	n/a
304.464	0.075	608928	keystroke	i	n/a
304.6	0.075	609200	keystroke	n	n/a
304.704	0.091	609408	keystroke	s	n/a
304.915	0.119	609830	keystroke	e	n/a
305.02	0.104	610040	keystroke	r	n/a
305.244	0.061	610488	keystroke	t	n/a
305.364	0.061	610728	keystroke	e	n/a
305.545	0.075	611090	keystroke	d	n/a
305.874	0.075	611748	keystroke	Key.enter	n/a
305.954	11.682	611908	prompt	n/a	rich vsnet usgs warranties\n
308.307	0	616614	keystroke	r	n/a
308.38	0.075	616760	keystroke	i	n/a
308.53	0.075	617060	keystroke	c	n/a
308.65	0.045	617300	keystroke	h	n/a
308.965	0.105	617930	keystroke	Key.space	n/a
309.76	0.06	619520	keystroke	v	n/a
309.985	0.075	619970	keystroke	s	n/a
311.02	0.06	622040	keystroke	n	n/a
311.215	0.09	622430	keystroke	e	n/a
311.56	0.06	623120	keystroke	t	n/a
311.74	0.105	623480	keystroke	Key.space	n/a
312.25	0.06	624500	keystroke	u	n/a
312.355	0.105	624710	keystroke	s	n/a
312.55	0.075	625100	keystroke	g	n/a
312.775	0.045	625550	keystroke	s	n/a
313.87	0.105	627740	keystroke	Key.space	n/a
314.185	0.075	628370	keystroke	w	n/a
314.56	0.045	629120	keystroke	r	n/a
314.98	0.075	629960	keystroke	Key.backspace	n/a
315.175	0.09	630350	keystroke	a	n/a
315.535	0.06	631070	keystroke	r	n/a
315.67	0.09	631340	keystroke	r	n/a
315.835	0.09	631670	keystroke	a	n/a
315.955	0.075	631910	keystroke	n	n/a
316.45	0.075	632900	keystroke	t	n/a
316.54	0.06	633080	keystroke	i	n/a
316.72	0.06	633440	keystroke	e	n/a
316.87	0.075	633740	keystroke	s	n/a
317.56	0.075	635120	keystroke	Key.enter	n/a
317.639	7.617	635278	prompt	n/a	radiation zones graduation rights\n
318.505	0.075	637010	keystroke	r	n/a
318.655	0.075	637310	keystroke	a	n/a
318.85	0.075	637700	keystroke	d	n/a
318.97	0.06	637940	keystroke	i	n/a
319.225	0.06	638450	keystroke	a	n/a
319.36	0.075	638720	keystroke	t	n/a
319.45	0.135	638900	keystroke	i	n/a
319.51	0.105	639020	keystroke	o	n/a
319.735	0.045	639470	keystroke	n	n/a
320.155	0.09	640310	keystroke	Key.space	n/a
320.515	0.06	641030	keystroke	z	n/a
320.62	0.075	641240	keystroke	o	n/a
320.755	0.06	641510	keystroke	n	n/a
320.83	0.075	641660	keystroke	e	n/a
321.025	0.045	642050	keystroke	s	n/a
321.175	0.105	642350	keystroke	Key.space	n/a
322	0.045	644000	keystroke	g	n/a
322.075	0.105	644150	keystroke	r	n/a
322.21	0.12	644420	keystroke	a	n/a
322.525	0.075	645050	keystroke	d	n/a
323.005	0.06	646010	keystroke	u	n/a
323.185	0.12	646370	keystroke	a	n/a
323.35	0.09	646700	keystroke	t	n/a
323.395	0.15	646790	keystroke	i	n/a
323.515	0.06	647030	keystroke	o	n/a
324.01	0.075	648020	keystroke	n	n/a
324.175	0.09	648350	keystroke	Key.space	n/a
324.325	0.06	648650	keystroke	r	n/a
324.4	0.09	648800	keystroke	i	n/a
324.475	0.09	648950	keystroke	g	n/a
324.565	0.105	649130	keystroke	h	n/a
324.7	0.045	649400	keystroke	t	n/a
324.895	0.09	649790	keystroke	s	n/a
325.225	0.03	650450	keystroke	Key.enter	n/a
325.2595	11.127	650519	prompt	n/a	anderson works exhaust wood\n
326.47	0.075	652940	keystroke	a	n/a
326.575	0.075	653150	keystroke	n	n/a
326.695	0.105	653390	keystroke	d	n/a
327.1	0.12	654200	keystroke	e	n/a
327.19	0.075	654380	keystroke	r	n/a
327.415	0.06	654830	keystroke	s	n/a
327.76	0.075	655520	keystroke	o	n/a
327.88	0.09	655760	keystroke	n	n/a
328	0.06	656000	keystroke	s	n/a
328.8695	0.075	657739	keystroke	Key.space	n/a
328.9595	0.075	657919	keystroke	w	n/a
329.0195	0.106	658039	keystroke	o	n/a
329.1545	0.075	658309	keystroke	r	n/a
329.2755	0.059	658551	keystroke	k	n/a
329.4255	0.044	658851	keystroke	s	n/a
330.9545	0.06	661909	keystroke	Key.backspace	n/a
331.1195	0.075	662239	keystroke	Key.backspace	n/a
331.2845	0.075	662569	keystroke	Key.backspace	n/a
331.4505	0.104	662901	keystroke	Key.backspace	n/a
331.6295	0.06	663259	keystroke	Key.backspace	n/a
331.7945	0.075	663589	keystroke	Key.backspace	n/a
332.1255	0.059	664251	keystroke	Key.backspace	n/a
332.3795	0.121	664759	keystroke	Key.space	n/a
332.5595	0.075	665119	keystroke	w	n/a
332.6195	0.09	665239	keystroke	o	n/a
332.7695	0.06	665539	keystroke	r	n/a
332.8895	0.046	665779	keystroke	k	n/a
332.9955	0.045	665991	keystroke	s	n/a
333.7145	0.09	667429	keystroke	Key.space	n/a
333.8645	0.076	667729	keystroke	e	n/a
334.1345	0.091	668269	keystroke	x	n/a
334.3005	0.075	668601	keystroke	h	n/a
334.5255	0.06	669051	keystroke	a	n/a
334.6305	0.059	669261	keystroke	u	n/a
334.8095	0.061	669619	keystroke	s	n/a
335.0355	0.045	670071	keystroke	t	n/a
335.2595	0.075	670519	keystroke	Key.space	n/a
335.3655	0.075	670731	keystroke	w	n/a
335.4855	0.074	670971	keystroke	o	n/a
335.6205	0.089	671241	keystroke	o	n/a
335.8605	0.06	671721	keystroke	d	n/a
336.3255	0.06	672651	keystroke	Key.enter	n/a
336.39	10.707	672780	prompt	n/a	verify available drawings vocational\n
337.7355	0.045	675471	keystroke	v	n/a
337.9605	0.105	675921	keystroke	e	n/a
338.0505	0.09	676101	keystroke	r	n/a
338.5005	0.045	677001	keystroke	i	n/a
338.8005	0.045	677601	keystroke	f	n/a
338.9955	0.075	677991	keystroke	y	n/a
339.2195	0.106	678439	keystroke	Key.space	n/a
339.4455	0.074	678891	keystroke	a	n/a
339.5805	0.105	679161	keystroke	v	n/a
339.7905	0.075	679581	keystroke	a	n/a
340.1055	0.075	680211	keystroke	i	n/a
340.7505	0.105	681501	keystroke	l	n/a
340.8855	0.06	681771	keystroke	a	n/a
340.9905	0.075	681981	keystroke	b	n/a
341.1555	0.105	682311	keystroke	l	n/a
341.2605	0.06	682521	keystroke	e	n/a
341.3955	0.105	682791	keystroke	Key.space	n/a
341.6055	0.075	683211	keystroke	d	n/a
341.8155	0.075	683631	keystroke	r	n/a
342.0405	0.06	684081	keystroke	a	n/a
342.2055	0.09	684411	keystroke	w	n/a
342.3255	0.06	684651	keystroke	i	n/a
342.4605	0.09	684921	keystroke	n	n/a
342.5655	0.09	685131	keystroke	g	n/a
342.7305	0.075	685461	keystroke	s	n/a
342.8655	0.105	685731	keystroke	Key.space	n/a
343.6605	0.06	687321	keystroke	v	n/a
343.7955	0.06	687591	keystroke	o	n/a
343.9305	0.06	687861	keystroke	c	n/a
344.1855	0.06	688371	keystroke	a	n/a
344.3355	0.075	688671	keystroke	t	n/a
344.3805	0.165	688761	keystroke	i	n/a
344.4555	0.105	688911	keystroke	o	n/a
344.6355	0.09	689271	keystroke	n	n/a
345.295	0.075	690590	keystroke	a	n/a
345.445	0.06	690890	keystroke	l	n/a
347.035	0.06	694070	keystroke	Key.enter	n/a
347.0995	6.1925	694199	prompt	n/a	demanding played resist anger\n
347.725	0.075	695450	keystroke	d	n/a
347.92	0.045	695840	keystroke	e	n/a
347.995	0.075	695990	keystroke	m	n/a
348.16	0.09	696320	keystroke	a	n/a
348.82	0.06	697640	keystroke	n	n/a
348.91	0.06	697820	keystroke	d	n/a
349	0.075	698000	keystroke	i	n/a
349.15	0.105	698300	keystroke	n	n/a
349.27	0.06	698540	keystroke	g	n/a
349.315	0.09	698630	keystroke	Key.space	n/a
349.45	0.06	698900	keystroke	p	n/a
349.63	0.105	699260	keystroke	l	n/a
349.78	0.075	699560	keystroke	a	n/a
349.915	0.075	699830	keystroke	y	n/a
350.11	0.045	700220	keystroke	e	n/a
350.29	0.075	700580	keystroke	d	n/a
350.41	0.105	700820	keystroke	Key.space	n/a
350.65	0.06	701300	keystroke	r	n/a
350.755	0.075	701510	keystroke	e	n/a
350.965	0.045	701930	keystroke	s	n/a
351.07	0.045	702140	keystroke	i	n/a
351.145	0.09	702290	keystroke	s	n/a
351.4445	0.09	702889	keystroke	t	n/a
352.0295	0.12	704059	keystroke	Key.space	n/a
352.2845	0.075	704569	keystroke	a	n/a
352.3745	0.06	704749	keystroke	n	n/a
352.5245	0.075	705049	keystroke	g	n/a
352.7045	0.12	705409	keystroke	e	n/a
352.7795	0.105	705559	keystroke	r	n/a
353.2295	0.06	706459	keystroke	Key.enter	n/a
353.2945	15.5225	706589	prompt	n/a	neighborhood acoustic inquire introduces\n
354.4745	0.06	708949	keystroke	n	n/a
354.6395	0.015	709279	keystroke	e	n/a
354.6845	0.06	709369	keystroke	i	n/a
354.8345	0.061	709669	keystroke	g	n/a
354.9245	0.045	709849	keystroke	h	n/a
355.1045	0.046	710209	keystroke	t	n/a
355.3895	0.06	710779	keystroke	b	n/a
355.5395	0.075	711079	keystroke	o	n/a
355.9895	0.06	711979	keystroke	Key.backspace	n/a
356.1395	0.06	712279	keystroke	Key.backspace	n/a
356.2895	0.075	712579	keystroke	Key.backspace	n/a
356.6505	0.045	713301	keystroke	b	n/a
356.7995	0.075	713599	keystroke	o	n/a
357.3245	0.045	714649	keystroke	r	n/a
357.5645	0.165	715129	keystroke	h	n/a
358.0895	0.045	716179	keystroke	o	n/a
358.2245	0.075	716449	keystroke	o	n/a
358.3455	0.075	716691	keystroke	d	n/a
358.5395	0.105	717079	keystroke	Key.space	n/a
358.7495	0.075	717499	keystroke	a	n/a
358.9455	0.089	717891	keystroke	c	n/a
359.0205	0.104	718041	keystroke	o	n/a
359.1995	0.046	718399	keystroke	u	n/a
359.2895	0.061	718579	keystroke	r	n/a
359.4545	0.091	718909	keystroke	s	n/a
359.7095	0.076	719419	keystroke	t	n/a
359.7995	0.09	719599	keystroke	i	n/a
360.0395	0.046	720079	keystroke	c	n/a
360.1295	0.105	720259	keystroke	Key.space	n/a
360.2805	0.074	720561	keystroke	i	n/a
360.4455	0.075	720891	keystroke	n	n/a
361.2705	0.059	722541	keystroke	Key.backspace	n/a
361.4345	0.061	722869	keystroke	Key.backspace	n/a
361.5845	0.076	723169	keystroke	Key.backspace	n/a
361.7645	0.075	723529	keystroke	Key.backspace	n/a
361.9145	0.091	723829	keystroke	Key.backspace	n/a
362.0795	0.076	724159	keystroke	Key.backspace	n/a
362.2595	0.075	724519	keystroke	Key.backspace	n/a
362.4995	0.09	724999	keystroke	Key.backspace	n/a
363.0105	0.06	726021	keystroke	s	n/a
363.4455	0.075	726891	keystroke	t	n/a
363.5655	0.044	727131	keystroke	i	n/a
363.7755	0.045	727551	keystroke	c	n/a
364.1795	0.12	728359	keystroke	Key.space	n/a
364.5995	0.046	729199	keystroke	i	n/a
364.7805	0.029	729561	keystroke	n	n/a
364.9755	0.105	729951	keystroke	q	n/a
365.0955	0.15	730191	keystroke	u	n/a
365.2005	0.09	730401	keystroke	i	n/a
365.3355	0.06	730671	keystroke	r	n/a
365.4545	0.061	730909	keystroke	e	n/a
366.0845	0.105	732169	keystroke	Key.space	n/a
366.3255	0.06	732651	keystroke	i	n/a
366.4605	0.075	732921	keystroke	n	n/a
366.5805	0.045	733161	keystroke	t	n/a
366.7155	0.06	733431	keystroke	r	n/a
366.9105	0.03	733821	keystroke	o	n/a
367.2555	0.06	734511	keystroke	d	n/a
367.3605	0.075	734721	keystroke	u	n/a
367.4505	0.075	734901	keystroke	c	n/a
367.6755	0.045	735351	keystroke	e	n/a
367.8255	0.06	735651	keystroke	s	n/a
368.7405	0.075	737481	keystroke	Key.enter	n/a
368.8195	10.527	737639	prompt	n/a	regions cisco incorporated catalog\n
371.2175	0	742435	keystroke	r	n/a
371.2605	0.06	742521	keystroke	e	n/a
371.4555	0.075	742911	keystroke	g	n/a
371.5455	0.12	743091	keystroke	i	n/a
371.6055	0.105	743211	keystroke	o	n/a
371.7705	0.075	743541	keystroke	n	n/a
371.8455	0.075	743691	keystroke	s	n/a
372.7305	0.12	745461	keystroke	Key.space	n/a
372.94	0.075	745880	keystroke	c	n/a
373.03	0.045	746060	keystroke	i	n/a
373.1655	0.0745	746331	keystroke	s	n/a
373.6155	0.075	747231	keystroke	c	n/a
373.81	0.06	747620	keystroke	o	n/a
374.11	0.09	748220	keystroke	Key.space	n/a
374.26	0.09	748520	keystroke	i	n/a
374.41	0.09	748820	keystroke	n	n/a
374.575	0.09	749150	keystroke	c	n/a
375.625	0.075	751250	keystroke	o	n/a
375.73	0.075	751460	keystroke	r	n/a
375.955	0.0905	751910	keystroke	p	n/a
376.2705	0.0745	752541	keystroke	o	n/a
376.45	0.075	752900	keystroke	r	n/a
376.735	0.06	753470	keystroke	a	n/a
376.945	0.075	753890	keystroke	t	n/a
377.095	0.09	754190	keystroke	e	n/a
377.29	0.09	754580	keystroke	d	n/a
377.395	0.105	754790	keystroke	Key.space	n/a
377.53	0.09	755060	keystroke	c	n/a
377.77	0.06	755540	keystroke	a	n/a
377.905	0.075	755810	keystroke	t	n/a
378.055	0.06	756110	keystroke	a	n/a
378.25	0.105	756500	keystroke	l	n/a
378.445	0.075	756890	keystroke	o	n/a
378.535	0.075	757070	keystroke	g	n/a
379.27	0.075	758540	keystroke	Key.enter	n/a
379.3495	8.472	758699	prompt	n/a	typical documented selling piece\n
381.597	0.028	763194	keystroke	t	n/a
381.67	0.075	763340	keystroke	y	n/a
381.895	0.09	763790	keystroke	p	n/a
382.09	0.075	764180	keystroke	i	n/a
382.18	0.06	764360	keystroke	c	n/a
382.405	0.045	764810	keystroke	a	n/a
382.525	0.075	765050	keystroke	l	n/a
383.395	0.12	766790	keystroke	Key.space	n/a
383.605	0.075	767210	keystroke	d	n/a
383.725	0.0895	767450	keystroke	o	n/a
383.8895	0.075	767779	keystroke	c	n/a
383.9795	0.06	767959	keystroke	u	n/a
384.1745	0.09	768349	keystroke	m	n/a
384.2795	0.06	768559	keystroke	e	n/a
384.4145	0.045	768829	keystroke	n	n/a
384.5795	0.06	769159	keystroke	t	n/a
384.6995	0.075	769399	keystroke	e	n/a
384.9095	0.061	769819	keystroke	d	n/a
385.0595	0.105	770119	keystroke	Key.space	n/a
385.2245	0.075	770449	keystroke	s	n/a
385.4645	0.06	770929	keystroke	e	n/a
385.6445	0.06	771289	keystroke	l	n/a
385.8105	0.06	771621	keystroke	l	n/a
385.9745	0.06	771949	keystroke	i	n/a
386.1105	0.089	772221	keystroke	n	n/a
386.2155	0.059	772431	keystroke	g	n/a
386.2895	0.075	772579	keystroke	Key.space	n/a
386.4395	0.06	772879	keystroke	p	n/a
386.7845	0.075	773569	keystroke	i	n/a
386.8895	0.06	773779	keystroke	e	n/a
387.1155	0.089	774231	keystroke	c	n/a
387.3095	0.045	774619	keystroke	e	n/a
387.7595	0.06	775519	keystroke	Key.enter	n/a
387.8265	9.9105	775653	prompt	n/a	snowboard advanced adjustment pupils\n
388.8705	0.075	777741	keystroke	s	n/a
388.9755	0.105	777951	keystroke	n	n/a
389.1255	0.074	778251	keystroke	o	n/a
389.2445	0.076	778489	keystroke	w	n/a
390.3105	0.075	780621	keystroke	b	n/a
390.4455	0.074	780891	keystroke	o	n/a
390.6105	0.105	781221	keystroke	a	n/a
390.7755	0.074	781551	keystroke	r	n/a
390.9995	0.046	781999	keystroke	d	n/a
391.3295	0.135	782659	keystroke	Key.space	n/a
391.4955	0.09	782991	keystroke	a	n/a
391.6445	0.091	783289	keystroke	d	n/a
392.2905	0.104	784581	keystroke	v	n/a
392.6205	0.075	785241	keystroke	n	n/a
393.0555	0.06	786111	keystroke	Key.backspace	n/a
393.3705	0.09	786741	keystroke	a	n/a
393.6405	0.06	787281	keystroke	n	n/a
393.7455	0.105	787491	keystroke	c	n/a
393.9245	0.076	787849	keystroke	e	n/a
394.1205	0.075	788241	keystroke	d	n/a
394.2545	0.091	788509	keystroke	Key.space	n/a
394.5255	0.06	789051	keystroke	a	n/a
394.6605	0.06	789321	keystroke	d	n/a
394.8105	0.075	789621	keystroke	j	n/a
394.9905	0.06	789981	keystroke	u	n/a
395.0655	0.105	790131	keystroke	s	n/a
395.3205	0.06	790641	keystroke	t	n/a
395.4705	0.06	790941	keystroke	m	n/a
395.5905	0.045	791181	keystroke	e	n/a
395.6805	0.06	791361	keystroke	n	n/a
395.7995	0.046	791599	keystroke	t	n/a
395.9205	0.105	791841	keystroke	Key.space	n/a
396.1005	0.09	792201	keystroke	p	n/a
396.3855	0.045	792771	keystroke	u	n/a
396.5955	0.075	793191	keystroke	p	n/a
396.9105	0.06	793821	keystroke	i	n/a
397.0755	0.075	794151	keystroke	l	n/a
397.1955	0.075	794391	keystroke	s	n/a
397.6605	0.075	795321	keystroke	Key.enter	n/a
397.7395	9.552	795479	prompt	n/a	uncertainty zshops isbn limit\n
398.6055	0.075	797211	keystroke	u	n/a
398.7855	0.09	797571	keystroke	n	n/a
399.0855	0.09	798171	keystroke	c	n/a
399.3705	0.105	798741	keystroke	e	n/a
399.4605	0.105	798921	keystroke	r	n/a
399.7005	0.045	799401	keystroke	t	n/a
399.8805	0.06	799761	keystroke	a	n/a
400.0005	0.075	800001	keystroke	i	n/a
400.4355	0.09	800871	keystroke	n	n/a
400.6905	0.045	801381	keystroke	t	n/a
400.7805	0.09	801561	keystroke	y	n/a
401.0205	0.105	802041	keystroke	Key.space	n/a
402.0255	0.09	804051	keystroke	z	n/a
402.2955	0.06	804591	keystroke	s	n/a
402.4005	0.075	804801	keystroke	h	n/a
402.8355	0.15	805671	keystroke	o	n/a
402.9105	0.12	805821	keystroke	p	n/a
403.0905	0.09	806181	keystroke	s	n/a
403.3455	0.105	806691	keystroke	Key.space	n/a
403.5405	0.075	807081	keystroke	i	n/a
403.6455	0.075	807291	keystroke	s	n/a
404.4855	0.075	808971	keystroke	b	n/a
404.9955	0.045	809991	keystroke	n	n/a
405.2955	0.105	810591	keystroke	Key.space	n/a
405.4455	0.105	810891	keystroke	l	n/a
405.6255	0.09	811251	keystroke	i	n/a
405.8205	0.105	811641	keystroke	m	n/a
405.9705	0.075	811941	keystroke	i	n/a
406.7955	0.03	813591	keystroke	t	n/a
407.2155	0.0745	814431	keystroke	Key.enter	n/a
407.2945	6.8375	814589	prompt	n/a	grave logs attendance guinea\n
408.355	0.075	816710	keystroke	g	n/a
408.46	0.105	816920	keystroke	r	n/a
408.58	0.105	817160	keystroke	a	n/a
408.715	0.075	817430	keystroke	v	n/a
408.91	0.045	817820	keystroke	e	n/a
409.03	0.105	818060	keystroke	Key.space	n/a
409.165	0.105	818330	keystroke	l	n/a
409.36	0.06	818720	keystroke	o	n/a
409.45	0.091	818900	keystroke	g	n/a
409.63	0.075	819260	keystroke	s	n/a
409.99	0.12	819980	keystroke	Key.space	n/a
410.245	0.06	820490	keystroke	a	n/a
410.44	0.075	820880	keystroke	t	n/a
410.575	0.06	821150	keystroke	t	n/a
410.905	0.045	821810	keystroke	e	n/a
411.04	0.045	822080	keystroke	n	n/a
411.205	0.045	822410	keystroke	d	n/a
411.595	0.09	823190	keystroke	a	n/a
411.7	0.06	823400	keystroke	n	n/a
411.805	0.12	823610	keystroke	c	n/a
412.015	0.045	824030	keystroke	e	n/a
412.12	0.075	824240	keystroke	Key.space	n/a
412.375	0.06	824750	keystroke	g	n/a
412.465	0.18	824930	keystroke	u	n/a
412.6	0.09	825200	keystroke	i	n/a
412.87	0.075	825740	keystroke	n	n/a
413.065	0.075	826130	keystroke	e	n/a
413.23	0.06	826460	keystroke	a	n/a
414.055	0.075	828110	keystroke	Key.enter	n/a
414.1345	7.362	828269	prompt	n/a	behavior windsor push partly\n
415.015	0.075	830030	keystroke	b	n/a
415.15	0.06	830300	keystroke	e	n/a
415.285	0.105	830570	keystroke	h	n/a
415.645	0.06	831290	keystroke	a	n/a
415.825	0.09	831650	keystroke	v	n/a
415.975	0.15	831950	keystroke	i	n/a
416.08	0.105	832160	keystroke	o	n/a
416.23	0.06	832460	keystroke	r	n/a
416.53	0.09	833060	keystroke	Key.space	n/a
416.875	0.075	833750	keystroke	w	n/a
416.965	0.06	833930	keystroke	i	n/a
417.085	0.09	834170	keystroke	n	n/a
417.19	0.075	834380	keystroke	d	n/a
417.415	0.09	834830	keystroke	s	n/a
417.685	0.06	835370	keystroke	o	n/a
417.79	0.06	835580	keystroke	r	n/a
418	0.06	836000	keystroke	Key.space	n/a
418.15	0.105	836300	keystroke	p	n/a
418.39	0.075	836780	keystroke	u	n/a
419.125	0.075	838250	keystroke	s	n/a
419.245	0.075	838490	keystroke	h	n/a
419.5	0.075	839000	keystroke	Key.space	n/a
419.725	0.09	839450	keystroke	p	n/a
419.905	0.075	839810	keystroke	a	n/a
420.13	0.075	840260	keystroke	r	n/a
420.355	0.03	840710	keystroke	t	n/a
420.535	0.12	841070	keystroke	l	n/a
420.85	0.06	841700	keystroke	y	n/a
421.42	0.075	842840	keystroke	Key.enter	n/a
421.4995	9.9125	842999	prompt	n/a	china versus halloween policies\n
422.4995	0.075	844999	keystroke	c	n/a
422.5595	0.105	845119	keystroke	h	n/a
422.6345	0.075	845269	keystroke	i	n/a
422.7995	0.09	845599	keystroke	n	n/a
423.2195	0.075	846439	keystroke	a	n/a
423.4895	0.09	846979	keystroke	Key.space	n/a
425.2595	0.06	850519	keystroke	v	n/a
425.485	0.105	850970	keystroke	e	n/a
425.605	0.12	851210	keystroke	r	n/a
425.92	0.06	851840	keystroke	s	n/a
426.025	0.06	852050	keystroke	u	n/a
426.13	0.075	852260	keystroke	s	n/a
426.7	0.075	853400	keystroke	Key.space	n/a
426.9545	0.075	853909	keystroke	h	n/a
427.1195	0.075	854239	keystroke	a	n/a
427.2395	0.06	854479	keystroke	l	n/a
427.3745	0.09	854749	keystroke	l	n/a
427.6145	0.06	855229	keystroke	o	n/a
427.93	0.09	855860	keystroke	w	n/a
428.365	0.06	856730	keystroke	e	n/a
428.5155	0.06	857031	keystroke	e	n/a
428.6505	0.075	857301	keystroke	n	n/a
428.9805	0.09	857961	keystroke	Key.space	n/a
429.1305	0.09	858261	keystroke	p	n/a
429.3405	0.06	858681	keystroke	o	n/a
429.5205	0.105	859041	keystroke	l	n/a
429.7155	0.06	859431	keystroke	i	n/a
430.2105	0.075	860421	keystroke	c	n/a
430.3005	0.09	860601	keystroke	i	n/a
430.4205	0.105	860841	keystroke	e	n/a
430.6155	0.075	861231	keystroke	s	n/a
431.3355	0.075	862671	keystroke	Key.enter	n/a
431.4145	8.847	862829	prompt	n/a	sandy darkness cruises applicable\n
432.7905	0.075	865581	keystroke	s	n/a
433	0.045	866000	keystroke	a	n/a
433.09	0.045	866180	keystroke	n	n/a
433.21	0.105	866420	keystroke	d	n/a
433.525	0.09	867050	keystroke	y	n/a
433.735	0.105	867470	keystroke	Key.space	n/a
433.855	0.105	867710	keystroke	d	n/a
434.035	0.09	868070	keystroke	a	n/a
434.215	0.075	868430	keystroke	r	n/a
434.365	0.06	868730	keystroke	k	n/a
434.6195	0.06	869239	keystroke	n	n/a
434.7095	0.09	869419	keystroke	e	n/a
435.205	0.0445	870410	keystroke	s	n/a
435.3695	0.06	870739	keystroke	s	n/a
435.6245	0.075	871249	keystroke	Key.space	n/a
435.9845	0.105	871969	keystroke	c	n/a
436.2095	0.105	872419	keystroke	r	n/a
436.3295	0.06	872659	keystroke	u	n/a
436.4945	0.06	872989	keystroke	i	n/a
436.5995	0.09	873199	keystroke	s	n/a
436.8105	0.044	873621	keystroke	e	n/a
436.9605	0.075	873921	keystroke	s	n/a
437.1095	0.135	874219	keystroke	Key.space	n/a
437.3495	0.061	874699	keystroke	a	n/a
437.3945	0.091	874789	keystroke	p	n/a
437.7695	0.045	875539	keystroke	p	n/a
437.9355	0.119	875871	keystroke	l	n/a
438.1295	0.075	876259	keystroke	i	n/a
438.2645	0.075	876529	keystroke	c	n/a
438.4895	0.09	876979	keystroke	a	n/a
438.6245	0.09	877249	keystroke	b	n/a
439.0145	0.09	878029	keystroke	l	n/a
439.1355	0.059	878271	keystroke	e	n/a
440.1695	0.09	880339	keystroke	Key.enter	n/a
440.265	8.4715	880530	prompt	n/a	consistently arrested intranet driving\n
441.2945	0.075	882589	keystroke	c	n/a
441.3705	0.09	882741	keystroke	o	n/a
441.5045	0.09	883009	keystroke	n	n/a
441.6395	0.06	883279	keystroke	s	n/a
441.8045	0.045	883609	keystroke	i	n/a
441.9245	0.105	883849	keystroke	s	n/a
442.2105	0.044	884421	keystroke	t	n/a
442.3445	0.045	884689	keystroke	e	n/a
442.4355	0.089	884871	keystroke	n	n/a
442.5405	0.059	885081	keystroke	t	n/a
442.6295	0.106	885259	keystroke	l	n/a
442.8995	0.045	885799	keystroke	y	n/a
443.0345	0.135	886069	keystroke	Key.space	n/a
443.2445	0.075	886489	keystroke	a	n/a
443.3795	0.075	886759	keystroke	r	n/a
443.8745	0.061	887749	keystroke	r	n/a
443.9945	0.075	887989	keystroke	e	n/a
444.1745	0.105	888349	keystroke	s	n/a
444.3995	0.061	888799	keystroke	t	n/a
444.5195	0.091	889039	keystroke	e	n/a
444.7145	0.075	889429	keystroke	d	n/a
444.8355	0.089	889671	keystroke	Key.space	n/a
445.1355	0.059	890271	keystroke	i	n/a
445.2695	0.091	890539	keystroke	n	n/a
445.4195	0.061	890839	keystroke	t	n/a
445.5545	0.09	891109	keystroke	r	n/a
445.7355	0.075	891471	keystroke	a	n/a
446.1245	0.075	892249	keystroke	n	n/a
446.2295	0.09	892459	keystroke	e	n/a
446.4245	0.061	892849	keystroke	t	n/a
446.6795	0.106	893359	keystroke	Key.space	n/a
446.8445	0.075	893689	keystroke	d	n/a
447.3395	0.075	894679	keystroke	r	n/a
447.504	0.075	895008	keystroke	i	n/a
447.654	0.06	895308	keystroke	v	n/a
447.744	0.06	895488	keystroke	i	n/a
447.8805	0.0885	895761	keystroke	n	n/a
447.985	0.075	895970	keystroke	g	n/a
448.66	0.075	897320	keystroke	Key.enter	n/a
448.74	9.476	897480	prompt	n/a	departmental volunteer flows reader\n
449.635	0.075	899270	keystroke	d	n/a
449.815	0.045	899630	keystroke	e	n/a
449.935	0.06	899870	keystroke	p	n/a
450.489	0.06	900978	keystroke	e	n/a
450.924	0.09	901848	keystroke	Key.backspace	n/a
451.18	0.059	902360	keystroke	a	n/a
451.39	0.059	902780	keystroke	r	n/a
451.569	0.045	903138	keystroke	t	n/a
451.9	0.089	903800	keystroke	m	n/a
452.004	0.061	904008	keystroke	e	n/a
452.11	0.059	904220	keystroke	n	n/a
452.214	0.061	904428	keystroke	t	n/a
452.439	0.046	904878	keystroke	a	n/a
452.5	0.105	905000	keystroke	l	n/a
452.664	0.105	905328	keystroke	Key.space	n/a
453.01	0.075	906020	keystroke	v	n/a
453.444	0.06	906888	keystroke	o	n/a
453.625	0.105	907250	keystroke	l	n/a
453.864	0.046	907728	keystroke	u	n/a
454.015	0.09	908030	keystroke	n	n/a
454.81	0.059	909620	keystroke	t	n/a
454.975	0.06	909950	keystroke	e	n/a
455.14	0.09	910280	keystroke	e	n/a
455.32	0.075	910640	keystroke	r	n/a
455.514	0.121	911028	keystroke	Key.space	n/a
455.905	0.09	911810	keystroke	f	n/a
456.085	0.075	912170	keystroke	l	n/a
456.25	0.075	912500	keystroke	o	n/a
456.385	0.03	912770	keystroke	w	n/a
456.565	0.09	913130	keystroke	s	n/a
456.775	0.074	913550	keystroke	Key.space	n/a
457.03	0.06	914060	keystroke	r	n/a
457.135	0.09	914270	keystroke	e	n/a
457.285	0.09	914570	keystroke	a	n/a
457.435	0.0905	914870	keystroke	d	n/a
457.63	0.12	915260	keystroke	e	n/a
457.705	0.12	915410	keystroke	r	n/a
458.125	0.09	916250	keystroke	Key.enter	n/a
458.2195	8.6665	916439	prompt	n/a	modified deferred tank hampshire\n
458.965	0.135	917930	keystroke	m	n/a
459.1	0.075	918200	keystroke	o	n/a
459.16	0.075	918320	keystroke	d	n/a
459.28	0.06	918560	keystroke	i	n/a
459.445	0.075	918890	keystroke	f	n/a
459.565	0.06	919130	keystroke	i	n/a
459.715	0.06	919430	keystroke	e	n/a
460.3	0.045	920600	keystroke	d	n/a
460.495	0.09	920990	keystroke	Key.space	n/a
460.72	0.06	921440	keystroke	d	n/a
460.9	0.06	921800	keystroke	e	n/a
461.035	0.09	922070	keystroke	f	n/a
461.275	0.075	922550	keystroke	e	n/a
461.545	0.06	923090	keystroke	r	n/a
461.695	0.06	923390	keystroke	r	n/a
461.815	0.075	923630	keystroke	e	n/a
462.01	0.075	924020	keystroke	d	n/a
462.16	0.09	924320	keystroke	Key.space	n/a
462.895	0.06	925790	keystroke	t	n/a
463.045	0.06	926090	keystroke	a	n/a
463.12	0.12	926240	keystroke	n	n/a
463.24	0.09	926480	keystroke	k	n/a
463.45	0.09	926900	keystroke	Key.space	n/a
464.215	0.06	928430	keystroke	h	n/a
464.545	0.075	929090	keystroke	a	n/a
464.665	0.12	929330	keystroke	m	n/a
464.815	0.09	929630	keystroke	p	n/a
465.985	0.06	931970	keystroke	s	n/a
466.06	0.15	932120	keystroke	h	n/a
466.165	0.09	932330	keystroke	i	n/a
466.36	0.06	932720	keystroke	r	n/a
466.48	0.06	932960	keystroke	e	n/a
466.855	0.03	933710	keystroke	Key.enter	n/a
466.8895	6.342	933779	prompt	n/a	lucas wheels clubs sunset\n
467.83	0.09	935660	keystroke	l	n/a
468.055	0.06	936110	keystroke	u	n/a
468.16	0.12	936320	keystroke	c	n/a
468.73	0.075	937460	keystroke	a	n/a
468.865	0.09	937730	keystroke	s	n/a
469	0.105	938000	keystroke	Key.space	n/a
469.285	0.075	938570	keystroke	w	n/a
469.435	0.075	938870	keystroke	h	n/a
469.6	0.075	939200	keystroke	e	n/a
469.93	0.06	939860	keystroke	e	n/a
470.05	0.09	940100	keystroke	l	n/a
470.17	0.09	940340	keystroke	s	n/a
470.32	0.075	940640	keystroke	Key.space	n/a
470.635	0.09	941270	keystroke	c	n/a
470.74	0.075	941480	keystroke	l	n/a
470.92	0.075	941840	keystroke	u	n/a
471.085	0.075	942170	keystroke	b	n/a
471.55	0.045	943100	keystroke	s	n/a
471.82	0.12	943640	keystroke	Key.space	n/a
472.165	0.045	944330	keystroke	s	n/a
472.255	0.06	944510	keystroke	u	n/a
472.39	0.075	944780	keystroke	n	n/a
472.51	0.09	945020	keystroke	s	n/a
472.735	0.06	945470	keystroke	e	n/a
472.9	0.06	945800	keystroke	t	n/a
473.155	0.075	946310	keystroke	Key.enter	n/a
473.2345	10.7065	946469	prompt	n/a	performed vault cheapest treasurer\n
473.965	0.075	947930	keystroke	p	n/a
474.055	0.075	948110	keystroke	e	n/a
474.145	0.09	948290	keystroke	r	n/a
474.415	0.045	948830	keystroke	f	n/a
474.49	0.105	948980	keystroke	o	n/a
474.58	0.06	949160	keystroke	r	n/a
474.715	0.075	949430	keystroke	m	n/a
474.985	0.045	949970	keystroke	e	n/a
475.165	0.075	950330	keystroke	d	n/a
475.33	0.09	950660	keystroke	Key.space	n/a
475.555	0.09	951110	keystroke	v	n/a
475.765	0.075	951530	keystroke	a	n/a
476.125	0.06	952250	keystroke	u	n/a
476.305	0.0745	952610	keystroke	l	n/a
476.4245	0.045	952849	keystroke	t	n/a
476.4995	0.09	952999	keystroke	Key.space	n/a
476.7995	0.075	953599	keystroke	c	n/a
476.8895	0.075	953779	keystroke	h	n/a
477.0395	0.075	954079	keystroke	e	n/a
477.2645	0.045	954529	keystroke	a	n/a
477.3695	0.06	954739	keystroke	p	n/a
477.4745	0.075	954949	keystroke	e	n/a
477.6395	0.09	955279	keystroke	s	n/a
477.8645	0.06	955729	keystroke	t	n/a
477.9395	0.09	955879	keystroke	Key.space	n/a
478.1645	0.09	956329	keystroke	t	n/a
478.2995	0.09	956599	keystroke	r	n/a
478.7945	0.075	957589	keystroke	e	n/a
478.9595	0.045	957919	keystroke	a	n/a
479.1095	0.09	958219	keystroke	s	n/a
479.2295	0.075	958459	keystroke	u	n/a
481.3765	0.001	962753	keystroke	t	n/a
481.6595	0.12	963319	keystroke	e	n/a
481.7495	0.075	963499	keystroke	r	n/a
482.1995	0.075	964399	keystroke	Key.backspace	n/a
482.3645	0.06	964729	keystroke	Key.backspace	n/a
482.6195	0.09	965239	keystroke	Key.backspace	n/a
482.9795	0.075	965959	keystroke	r	n/a
483.2045	0.12	966409	keystroke	e	n/a
483.3395	0.06	966679	keystroke	r	n/a
483.8645	0.075	967729	keystroke	Key.enter	n/a
483.946	9.1	967892	prompt	n/a	bestsellers joke unique genuine\n
484.7945	0.105	969589	keystroke	b	n/a
485.0645	0.06	970129	keystroke	e	n/a
485.2295	0.075	970459	keystroke	s	n/a
485.4395	0.075	970879	keystroke	t	n/a
485.6195	0.12	971239	keystroke	e	n/a
486.4595	0.075	972919	keystroke	Key.backspace	n/a
486.5795	0.09	973159	keystroke	s	n/a
486.9845	0.045	973969	keystroke	e	n/a
487.1495	0.06	974299	keystroke	l	n/a
487.2995	0.06	974599	keystroke	l	n/a
487.4495	0.135	974899	keystroke	e	n/a
487.5995	0.045	975199	keystroke	r	n/a
487.7795	0.09	975559	keystroke	s	n/a
487.9145	0.09	975829	keystroke	Key.space	n/a
488.0645	0.135	976129	keystroke	j	n/a
488.2295	0.075	976459	keystroke	o	n/a
488.4245	0.09	976849	keystroke	k	n/a
488.5445	0.045	977089	keystroke	e	n/a
488.7245	0.09	977449	keystroke	Key.space	n/a
488.935	0.075	977870	keystroke	u	n/a
489.1	0.09	978200	keystroke	n	n/a
489.385	0.06	978770	keystroke	i	n/a
489.79	0.06	979580	keystroke	q	n/a
489.88	0.075	979760	keystroke	u	n/a
490.435	0.06	980870	keystroke	e	n/a
490.72	0.075	981440	keystroke	Key.space	n/a
491.035	0.06	982070	keystroke	g	n/a
491.2	0.045	982400	keystroke	e	n/a
491.275	0.09	982550	keystroke	n	n/a
491.53	0.09	983060	keystroke	u	n/a
492.01	0.045	984020	keystroke	i	n/a
492.13	0.09	984260	keystroke	n	n/a
492.25	0.045	984500	keystroke	e	n/a
492.97	0.075	985940	keystroke	Key.enter	n/a
493.0505	9.2055	986101	prompt	n/a	float gave lost bibliographic\n
493.87	0.075	987740	keystroke	f	n/a
493.96	0.09	987920	keystroke	l	n/a
494.26	0.06	988520	keystroke	o	n/a
494.515	0.105	989030	keystroke	a	n/a
494.7545	0.06	989509	keystroke	t	n/a
494.9945	0.105	989989	keystroke	Key.space	n/a
495.4295	0.075	990859	keystroke	g	n/a
495.6095	0.06	991219	keystroke	a	n/a
495.7305	0.059	991461	keystroke	v	n/a
495.9695	0.045	991939	keystroke	e	n/a
496.0595	0.09	992119	keystroke	Key.space	n/a
496.1945	0.075	992389	keystroke	l	n/a
496.3595	0.105	992719	keystroke	o	n/a
496.4805	0.074	992961	keystroke	s	n/a
496.7195	0.075	993439	keystroke	t	n/a
496.7795	0.09	993559	keystroke	Key.space	n/a
497.0345	0.075	994069	keystroke	b	n/a
497.1995	0.075	994399	keystroke	i	n/a
497.7555	0.044	995511	keystroke	b	n/a
498.2945	0.09	996589	keystroke	l	n/a
498.4895	0.1495	996979	keystroke	i	n/a
498.594	0.09	997188	keystroke	o	n/a
498.8805	0.029	997761	keystroke	g	n/a
498.9845	0.075	997969	keystroke	r	n/a
499.3745	0.09	998749	keystroke	a	n/a
499.4945	0.09	998989	keystroke	p	n/a
499.6895	0.105	999379	keystroke	h	n/a
499.7805	0.074	999561	keystroke	i	n/a
499.9145	0.075	999829	keystroke	c	n/a
502.2425	0.0115	1004485	keystroke	Key.enter	n/a
502.259	9.8975	1004518	prompt	n/a	photographic coins fabrics fewer\n
503.095	0.0895	1006190	keystroke	p	n/a
503.3055	0.1035	1006611	keystroke	h	n/a
503.394	0.076	1006788	keystroke	o	n/a
503.695	0.03	1007390	keystroke	t	n/a
504.084	0.061	1008168	keystroke	o	n/a
504.414	0.06	1008828	keystroke	g	n/a
504.535	0.074	1009070	keystroke	r	n/a
504.714	0.061	1009428	keystroke	a	n/a
504.819	0.09	1009638	keystroke	p	n/a
505.015	0.09	1010030	keystroke	h	n/a
505.105	0.074	1010210	keystroke	i	n/a
505.239	0.075	1010478	keystroke	c	n/a
505.689	0.12	1011378	keystroke	Key.space	n/a
505.884	0.105	1011768	keystroke	c	n/a
506.05	0.089	1012100	keystroke	o	n/a
506.169	0.106	1012338	keystroke	i	n/a
506.364	0.075	1012728	keystroke	n	n/a
506.755	0.075	1013510	keystroke	s	n/a
506.98	0.119	1013960	keystroke	Key.space	n/a
507.88	0.089	1015760	keystroke	f	n/a
507.984	0.091	1015968	keystroke	a	n/a
508.78	0.075	1017560	keystroke	b	n/a
509.365	0.059	1018730	keystroke	r	n/a
509.484	0.061	1018968	keystroke	i	n/a
509.634	0.06	1019268	keystroke	c	n/a
509.875	0.075	1019750	keystroke	s	n/a
510.069	0.105	1020138	keystroke	Key.space	n/a
510.25	0.074	1020500	keystroke	f	n/a
510.654	0.076	1021308	keystroke	e	n/a
510.9255	0.0735	1021851	keystroke	w	n/a
511.075	0.12	1022150	keystroke	e	n/a
511.18	0.06	1022360	keystroke	r	n/a
512.095	0.06	1024190	keystroke	Key.enter	n/a
512.1595	12.192	1024319	prompt	n/a	poetry british secretary letters\n
514.045	0.075	1028090	keystroke	p	n/a
514.165	0.09	1028330	keystroke	e	n/a
514.525	0.045	1029050	keystroke	r	n/a
515.02	0.045	1030040	keystroke	Key.backspace	n/a
515.155	0.059	1030310	keystroke	Key.backspace	n/a
515.845	0.06	1031690	keystroke	o	n/a
515.965	0.09	1031930	keystroke	e	n/a
516.205	0.06	1032410	keystroke	t	n/a
516.37	0.06	1032740	keystroke	r	n/a
516.46	0.09	1032920	keystroke	y	n/a
516.85	0.09	1033700	keystroke	Key.space	n/a
517.075	0.075	1034150	keystroke	b	n/a
517.195	0.06	1034390	keystroke	r	n/a
517.315	0.075	1034630	keystroke	i	n/a
517.42	0.06	1034840	keystroke	s	n/a
518.38	0.075	1036760	keystroke	Key.backspace	n/a
518.545	0.06	1037090	keystroke	t	n/a
518.665	0.075	1037330	keystroke	i	n/a
518.8	0.06	1037600	keystroke	s	n/a
518.9205	0.0595	1037841	keystroke	h	n/a
519.58	0.12	1039160	keystroke	Key.space	n/a
519.82	0.09	1039640	keystroke	s	n/a
520	0.06	1040000	keystroke	e	n/a
520.195	0.06	1040390	keystroke	c	n/a
521.5	0.075	1043000	keystroke	r	n/a
522.04	0.06	1044080	keystroke	e	n/a
522.37	0.075	1044740	keystroke	t	n/a
522.505	0.09	1045010	keystroke	a	n/a
522.685	0.045	1045370	keystroke	r	n/a
522.85	0.06	1045700	keystroke	y	n/a
523	0.105	1046000	keystroke	Key.space	n/a
523.12	0.09	1046240	keystroke	l	n/a
523.225	0.105	1046450	keystroke	e	n/a
523.435	0.06	1046870	keystroke	t	n/a
523.57	0.09	1047140	keystroke	t	n/a
523.72	0.09	1047440	keystroke	e	n/a
523.795	0.075	1047590	keystroke	r	n/a
523.99	0.075	1047980	keystroke	s	n/a
524.29	0.06	1048580	keystroke	Key.enter	n/a
524.3545	7.452	1048709	prompt	n/a	bear operation describe dvds\n
525.13	0.06	1050260	keystroke	b	n/a
525.19	0.105	1050380	keystroke	e	n/a
525.67	0.09	1051340	keystroke	a	n/a
525.835	0.06	1051670	keystroke	r	n/a
526.33	0.09	1052660	keystroke	Key.space	n/a
526.615	0.045	1053230	keystroke	o	n/a
526.63	0.105	1053260	keystroke	p	n/a
526.81	0.105	1053620	keystroke	e	n/a
526.945	0.075	1053890	keystroke	r	n/a
527.35	0.045	1054700	keystroke	a	n/a
527.455	0.075	1054910	keystroke	t	n/a
527.515	0.165	1055030	keystroke	i	n/a
527.605	0.12	1055210	keystroke	o	n/a
527.815	0.045	1055630	keystroke	n	n/a
528.595	0.09	1057190	keystroke	Key.space	n/a
528.73	0.075	1057460	keystroke	d	n/a
528.91	0.06	1057820	keystroke	e	n/a
529.06	0.105	1058120	keystroke	s	n/a
529.27	0.09	1058540	keystroke	c	n/a
529.495	0.075	1058990	keystroke	r	n/a
529.585	0.09	1059170	keystroke	i	n/a
529.795	0.075	1059590	keystroke	b	n/a
529.9	0.06	1059800	keystroke	e	n/a
530.185	0.105	1060370	keystroke	Key.space	n/a
530.275	0.105	1060550	keystroke	d	n/a
530.755	0.09	1061510	keystroke	v	n/a
531.25	0.075	1062500	keystroke	d	n/a
531.475	0.06	1062950	keystroke	s	n/a
531.76	0.045	1063520	keystroke	Key.enter	n/a
531.8095	10.5125	1063619	prompt	n/a	rewards helps procedure freight\n
532.615	0.06	1065230	keystroke	r	n/a
532.735	0.045	1065470	keystroke	e	n/a
533.26	0.09	1066520	keystroke	w	n/a
533.515	0.06	1067030	keystroke	a	n/a
533.62	0.075	1067240	keystroke	r	n/a
533.845	0.075	1067690	keystroke	d	n/a
533.98	0.09	1067960	keystroke	s	n/a
534.37	0.075	1068740	keystroke	Key.space	n/a
534.52	0.105	1069040	keystroke	h	n/a
534.58	0.075	1069160	keystroke	e	n/a
534.715	0.09	1069430	keystroke	l	n/a
534.895	0.09	1069790	keystroke	p	n/a
534.97	0.075	1069940	keystroke	s	n/a
536.305	0.105	1072610	keystroke	Key.space	n/a
536.47	0.075	1072940	keystroke	p	n/a
536.695	0.045	1073390	keystroke	r	n/a
536.785	0.075	1073570	keystroke	o	n/a
536.965	0.06	1073930	keystroke	c	n/a
537.46	0.045	1074920	keystroke	e	n/a
537.655	0.045	1075310	keystroke	d	n/a
537.76	0.075	1075520	keystroke	u	n/a
538.15	0.045	1076300	keystroke	r	n/a
538.27	0.06	1076540	keystroke	e	n/a
538.69	0.09	1077380	keystroke	Key.space	n/a
538.975	0.06	1077950	keystroke	f	n/a
539.14	0.06	1078280	keystroke	r	n/a
540.685	0.045	1081370	keystroke	i	n/a
541.06	0.075	1082120	keystroke	Key.backspace	n/a
541.165	0.06	1082330	keystroke	e	n/a
541.315	0.06	1082630	keystroke	i	n/a
541.48	0.015	1082960	keystroke	g	n/a
541.765	0.045	1083530	keystroke	h	n/a
541.84	0.06	1083680	keystroke	t	n/a
542.305	0.015	1084610	keystroke	Key.enter	n/a
542.3255	11.7715	1084651	prompt	n/a	nonprofit missile may centres\n
543.175	0.09	1086350	keystroke	n	n/a
543.295	0.09	1086590	keystroke	o	n/a
543.415	0.075	1086830	keystroke	n	n/a
543.715	0.075	1087430	keystroke	p	n/a
543.895	0.03	1087790	keystroke	r	n/a
543.985	0.075	1087970	keystroke	o	n/a
544.315	0.075	1088630	keystroke	f	n/a
544.435	0.075	1088870	keystroke	i	n/a
544.57	0.06	1089140	keystroke	t	n/a
544.735	0.09	1089470	keystroke	Key.space	n/a
545.14	0.09	1090280	keystroke	m	n/a
545.275	0.06	1090550	keystroke	i	n/a
545.35	0.075	1090700	keystroke	s	n/a
545.515	0.075	1091030	keystroke	s	n/a
545.605	0.09	1091210	keystroke	l	n/a
545.755	0.06	1091510	keystroke	e	n/a
545.89	0.105	1091780	keystroke	Key.space	n/a
546.025	0.12	1092050	keystroke	m	n/a
546.49	0.135	1092980	keystroke	a	n/a
546.64	0.075	1093280	keystroke	y	n/a
547.03	0.075	1094060	keystroke	Key.space	n/a
548.89	0.06	1097780	keystroke	Key.backspace	n/a
549.04	0.075	1098080	keystroke	Key.backspace	n/a
549.19	0.09	1098380	keystroke	Key.backspace	n/a
549.355	0.09	1098710	keystroke	Key.backspace	n/a
549.52	0.075	1099040	keystroke	Key.backspace	n/a
549.685	0.09	1099370	keystroke	Key.backspace	n/a
549.85	0.075	1099700	keystroke	Key.backspace	n/a
550.51	0.09	1101020	keystroke	i	n/a
550.69	0.075	1101380	keystroke	l	n/a
550.78	0.075	1101560	keystroke	e	n/a
551.08	0.105	1102160	keystroke	Key.space	n/a
551.5295	0.12	1103059	keystroke	m	n/a
551.7695	0.075	1103539	keystroke	a	n/a
551.8895	0.075	1103779	keystroke	y	n/a
552.0545	0.12	1104109	keystroke	Key.space	n/a
552.2195	0.075	1104439	keystroke	c	n/a
552.5645	0.045	1105129	keystroke	e	n/a
552.6545	0.075	1105309	keystroke	n	n/a
552.7895	0.075	1105579	keystroke	t	n/a
552.9695	0.06	1105939	keystroke	r	n/a
553.3745	0.06	1106749	keystroke	e	n/a
553.5705	0.059	1107141	keystroke	s	n/a
554.0645	0.03	1108129	keystroke	Key.enter	n/a
554.1	12.4015	1108200	prompt	n/a	integrity swaziland karen overseas\n
554.9345	0.075	1109869	keystroke	i	n/a
555.1745	0.015	1110349	keystroke	n	n/a
555.2495	0.09	1110499	keystroke	t	n/a
555.4595	0.06	1110919	keystroke	e	n/a
555.6395	0.09	1111279	keystroke	g	n/a
555.8195	0.06	1111639	keystroke	r	n/a
556.0745	0.075	1112149	keystroke	i	n/a
556.2395	0.06	1112479	keystroke	t	n/a
556.3595	0.075	1112719	keystroke	y	n/a
556.5545	0.105	1113109	keystroke	Key.space	n/a
556.6605	0.104	1113321	keystroke	s	n/a
557.0195	0.075	1114039	keystroke	w	n/a
557.2295	0.06	1114459	keystroke	a	n/a
557.8445	0.09	1115689	keystroke	z	n/a
558.0245	0.06	1116049	keystroke	i	n/a
558.5205	0.075	1117041	keystroke	l	n/a
558.6395	0.06	1117279	keystroke	a	n/a
558.7445	0.075	1117489	keystroke	n	n/a
558.8345	0.075	1117669	keystroke	d	n/a
559.0145	0.105	1118029	keystroke	Key.space	n/a
559.1795	0.075	1118359	keystroke	k	n/a
559.3595	0.06	1118719	keystroke	a	n/a
559.5395	0.06	1119079	keystroke	r	n/a
559.6595	0.061	1119319	keystroke	e	n/a
559.7945	0.045	1119589	keystroke	n	n/a
562.8875	0.058	1125775	keystroke	Key.space	n/a
563.0045	0.091	1126009	keystroke	o	n/a
563.2455	0.075	1126491	keystroke	v	n/a
563.4855	0.119	1126971	keystroke	e	n/a
563.5745	0.09	1127149	keystroke	r	n/a
564.4145	0.076	1128829	keystroke	s	n/a
564.6095	0.075	1129219	keystroke	e	n/a
564.7745	0.106	1129549	keystroke	a	n/a
564.9705	0.075	1129941	keystroke	s	n/a
566.4245	0.075	1132849	keystroke	Key.enter	n/a
566.504	8.6075	1133008	prompt	n/a	limits totals cloth retirement\n
567.8655	0.09	1135731	keystroke	l	n/a
568.0455	0.09	1136091	keystroke	i	n/a
568.2255	0.135	1136451	keystroke	m	n/a
568.3455	0.09	1136691	keystroke	i	n/a
568.4805	0.06	1136961	keystroke	t	n/a
568.7955	0.075	1137591	keystroke	s	n/a
569.005	0.0905	1138010	keystroke	Key.space	n/a
569.5005	0.06	1139001	keystroke	t	n/a
569.5755	0.075	1139151	keystroke	o	n/a
569.8605	0.075	1139721	keystroke	t	n/a
570.1305	0.045	1140261	keystroke	a	n/a
570.2055	0.0895	1140411	keystroke	l	n/a
570.324	0.076	1140648	keystroke	s	n/a
570.9095	0.106	1141819	keystroke	Key.space	n/a
571.1355	0.0745	1142271	keystroke	c	n/a
571.225	0.045	1142450	keystroke	l	n/a
571.39	0.075	1142780	keystroke	o	n/a
571.5105	0.0295	1143021	keystroke	t	n/a
571.57	0.075	1143140	keystroke	h	n/a
571.81	0.12	1143620	keystroke	Key.space	n/a
571.96	0.06	1143920	keystroke	r	n/a
572.38	0.045	1144760	keystroke	e	n/a
572.7255	0.06	1145451	keystroke	t	n/a
572.8155	0.075	1145631	keystroke	i	n/a
572.9205	0.06	1145841	keystroke	r	n/a
573.07	0.045	1146140	keystroke	e	n/a
573.34	0.075	1146680	keystroke	m	n/a
573.55	0.06	1147100	keystroke	e	n/a
574.18	0.09	1148360	keystroke	n	n/a
574.345	0.045	1148690	keystroke	t	n/a
575.035	0.075	1150070	keystroke	Key.enter	n/a
575.1155	16.241	1150231	prompt	n/a	compact preservation dylan specific\n
576.01	0.045	1152020	keystroke	c	n/a
576.07	0.075	1152140	keystroke	o	n/a
576.205	0.105	1152410	keystroke	m	n/a
576.28	0.105	1152560	keystroke	p	n/a
576.46	0.09	1152920	keystroke	a	n/a
576.625	0.09	1153250	keystroke	c	n/a
576.97	0.045	1153940	keystroke	t	n/a
577.255	0.12	1154510	keystroke	Key.space	n/a
577.435	0.09	1154870	keystroke	p	n/a
577.54	0.06	1155080	keystroke	r	n/a
577.675	0.075	1155350	keystroke	e	n/a
579.07	0.06	1158140	keystroke	s	n/a
579.265	0.06	1158530	keystroke	e	n/a
580.555	0.105	1161110	keystroke	r	n/a
580.825	0.06	1161650	keystroke	v	n/a
581.1395	0.075	1162279	keystroke	a	n/a
581.3345	0.075	1162669	keystroke	t	n/a
581.3945	0.135	1162789	keystroke	i	n/a
581.455	0.12	1162910	keystroke	o	n/a
581.6495	0.0605	1163299	keystroke	n	n/a
581.8295	0.1055	1163659	keystroke	Key.space	n/a
582.085	0.0745	1164170	keystroke	d	n/a
582.2945	0.09	1164589	keystroke	y	n/a
582.5945	0.1055	1165189	keystroke	l	n/a
582.7595	0.09	1165519	keystroke	a	n/a
582.8645	0.06	1165729	keystroke	n	n/a
583.3595	0.105	1166719	keystroke	Key.space	n/a
583.5845	0.105	1167169	keystroke	s	n/a
583.705	0.0745	1167410	keystroke	p	n/a
583.8245	0.06	1167649	keystroke	e	n/a
584.0795	0.06	1168159	keystroke	c	n/a
587.1725	0	1174345	keystroke	i	n/a
588.9705	0.059	1177941	keystroke	f	n/a
589.5845	0.075	1179169	keystroke	i	n/a
589.7345	0.015	1179469	keystroke	c	n/a
591.2945	0.06	1182589	keystroke	Key.enter	n/a
591.362	12.8955	1182724	prompt	n/a	permits latvia dimension revolutionary\n
592.3745	0.09	1184749	keystroke	p	n/a
592.6145	0.106	1185229	keystroke	e	n/a
592.7645	0.075	1185529	keystroke	r	n/a
592.9745	0.105	1185949	keystroke	m	n/a
593.1705	0.059	1186341	keystroke	i	n/a
593.2745	0.075	1186549	keystroke	t	n/a
594.1745	0.09	1188349	keystroke	s	n/a
594.5195	0.06	1189039	keystroke	Key.space	n/a
594.6545	0.075	1189309	keystroke	l	n/a
595.1655	0.075	1190331	keystroke	a	n/a
595.2855	0.105	1190571	keystroke	t	n/a
595.6755	0.06	1191351	keystroke	v	n/a
595.7655	0.06	1191531	keystroke	i	n/a
595.9455	0.075	1191891	keystroke	a	n/a
596.6345	0.106	1193269	keystroke	Key.space	n/a
596.8155	0.09	1193631	keystroke	d	n/a
596.9355	0.075	1193871	keystroke	i	n/a
597.1155	0.06	1194231	keystroke	m	n/a
597.2355	0.06	1194471	keystroke	e	n/a
597.4295	0.046	1194859	keystroke	n	n/a
597.7155	0.089	1195431	keystroke	s	n/a
597.7905	0.15	1195581	keystroke	i	n/a
597.8795	0.09	1195759	keystroke	o	n/a
598.4205	0.074	1196841	keystroke	n	n/a
598.6155	0.104	1197231	keystroke	Key.space	n/a
600.4155	0.105	1200831	keystroke	r	n/a
600.5355	0.06	1201071	keystroke	e	n/a
600.9105	0.075	1201821	keystroke	v	n/a
601.0305	0.075	1202061	keystroke	o	n/a
601.2255	0.105	1202451	keystroke	l	n/a
602.6805	0.075	1205361	keystroke	u	n/a
602.8005	0.09	1205601	keystroke	t	n/a
602.8755	0.15	1205751	keystroke	i	n/a
602.9505	0.09	1205901	keystroke	o	n/a
603.0705	0.105	1206141	keystroke	n	n/a
603.2205	0.06	1206441	keystroke	a	n/a
603.3705	0.075	1206741	keystroke	r	n/a
603.4905	0.075	1206981	keystroke	y	n/a
604.1955	0.059	1208391	keystroke	Key.enter	n/a
604.261	9.8355	1208522	prompt	n/a	searched mother cognitive sampling\n
605.14	0.075	1210280	keystroke	s	n/a
605.305	0.075	1210610	keystroke	e	n/a
605.47	0.12	1210940	keystroke	a	n/a
605.665	0.105	1211330	keystroke	r	n/a
606.055	0.03	1212110	keystroke	c	n/a
606.16	0.06	1212320	keystroke	h	n/a
606.31	0.06	1212620	keystroke	e	n/a
606.505	0.045	1213010	keystroke	d	n/a
606.7	0.075	1213400	keystroke	Key.space	n/a
606.865	0.105	1213730	keystroke	m	n/a
607.015	0.075	1214030	keystroke	o	n/a
607.091	0.074	1214182	keystroke	t	n/a
607.18	0.09	1214360	keystroke	h	n/a
607.315	0.105	1214630	keystroke	e	n/a
607.39	0.075	1214780	keystroke	r	n/a
608.17	0.105	1216340	keystroke	Key.space	n/a
608.425	0.075	1216850	keystroke	c	n/a
608.53	0.075	1217060	keystroke	o	n/a
608.755	0.045	1217510	keystroke	g	n/a
609.01	0.075	1218020	keystroke	n	n/a
609.25	0.045	1218500	keystroke	i	n/a
610.21	0.06	1220420	keystroke	t	n/a
610.39	0.045	1220780	keystroke	i	n/a
610.855	0.045	1221710	keystroke	v	n/a
611.14	0.06	1222280	keystroke	e	n/a
611.65	0.105	1223300	keystroke	Key.space	n/a
611.77	0.09	1223540	keystroke	s	n/a
612.04	0.09	1224080	keystroke	a	n/a
612.145	0.105	1224290	keystroke	m	n/a
612.265	0.105	1224530	keystroke	p	n/a
612.505	0.09	1225010	keystroke	l	n/a
612.715	0.075	1225430	keystroke	i	n/a
612.895	0.06	1225790	keystroke	n	n/a
612.985	0.06	1225970	keystroke	g	n/a
614.0495	0.045	1228099	keystroke	Key.enter	n/a
614.099	8.5775	1228198	prompt	n/a	mars bookings annual respect\n
614.98	0.0595	1229960	keystroke	m	n/a
615.1295	0.09	1230259	keystroke	a	n/a
615.3095	0.06	1230619	keystroke	r	n/a
615.8945	0.06	1231789	keystroke	s	n/a
616.2095	0.105	1232419	keystroke	Key.space	n/a
616.4645	0.09	1232929	keystroke	b	n/a
616.6745	0.045	1233349	keystroke	o	n/a
616.8245	0.045	1233649	keystroke	o	n/a
616.9895	0.075	1233979	keystroke	k	n/a
617.1845	0.06	1234369	keystroke	i	n/a
617.3345	0.075	1234669	keystroke	n	n/a
617.4395	0.06	1234879	keystroke	g	n/a
617.9495	0.075	1235899	keystroke	s	n/a
618.1295	0.09	1236259	keystroke	Key.space	n/a
618.3545	0.09	1236709	keystroke	a	n/a
618.4595	0.045	1236919	keystroke	n	n/a
618.5945	0.075	1237189	keystroke	n	n/a
618.8945	0.075	1237789	keystroke	a	n/a
619.6595	0.06	1239319	keystroke	Key.backspace	n/a
620.4095	0.075	1240819	keystroke	u	n/a
620.5595	0.075	1241119	keystroke	a	n/a
620.6655	0.089	1241331	keystroke	l	n/a
620.9645	0.09	1241929	keystroke	Key.space	n/a
621.4295	0.075	1242859	keystroke	r	n/a
621.5195	0.09	1243039	keystroke	e	n/a
621.6855	0.074	1243371	keystroke	s	n/a
621.7905	0.074	1243581	keystroke	p	n/a
621.8945	0.06	1243789	keystroke	e	n/a
622.0745	0.075	1244149	keystroke	c	n/a
622.3595	0.075	1244719	keystroke	t	n/a
622.5845	0.09	1245169	keystroke	Key.enter	n/a
622.6805	7.616	1245361	prompt	n/a	porter catalyst tyler everything\n
623.7405	0.089	1247481	keystroke	p	n/a
623.9495	0.06	1247899	keystroke	o	n/a
624.0395	0.076	1248079	keystroke	r	n/a
624.1745	0.105	1248349	keystroke	t	n/a
624.3705	0.089	1248741	keystroke	e	n/a
624.4295	0.09	1248859	keystroke	r	n/a
624.9845	0.105	1249969	keystroke	Key.space	n/a
625.2095	0.09	1250419	keystroke	c	n/a
625.4045	0.106	1250809	keystroke	a	n/a
625.5545	0.09	1251109	keystroke	t	n/a
626.2445	0.09	1252489	keystroke	a	n/a
626.4105	0.089	1252821	keystroke	l	n/a
626.7405	0.075	1253481	keystroke	y	n/a
626.9805	0.06	1253961	keystroke	s	n/a
627.4595	0.06	1254919	keystroke	t	n/a
628.2555	0.104	1256511	keystroke	Key.space	n/a
628.6005	0.045	1257201	keystroke	e	n/a
628.7945	0.091	1257589	keystroke	v	n/a
629.0205	0.105	1258041	keystroke	e	n/a
629.0955	0.09	1258191	keystroke	r	n/a
629.2455	0.059	1258491	keystroke	y	n/a
629.3655	0.059	1258731	keystroke	t	n/a
629.4255	0.15	1258851	keystroke	h	n/a
629.5455	0.09	1259091	keystroke	i	n/a
629.7105	0.09	1259421	keystroke	n	n/a
629.8155	0.06	1259631	keystroke	g	n/a
630.2055	0.09	1260411	keystroke	Key.enter	n/a
630.299	8.3225	1260598	prompt	n/a	dance concerns insulin stakeholders\n
631.06	0.105	1262120	keystroke	d	n/a
631.24	0.09	1262480	keystroke	a	n/a
631.6	0.075	1263200	keystroke	n	n/a
631.69	0.09	1263380	keystroke	c	n/a
631.825	0.06	1263650	keystroke	e	n/a
631.945	0.12	1263890	keystroke	Key.space	n/a
632.215	0.09	1264430	keystroke	c	n/a
632.32	0.075	1264640	keystroke	o	n/a
632.455	0.06	1264910	keystroke	n	n/a
632.56	0.09	1265120	keystroke	c	n/a
632.74	0.12	1265480	keystroke	e	n/a
632.845	0.09	1265690	keystroke	r	n/a
632.995	0.06	1265990	keystroke	n	n/a
633.07	0.075	1266140	keystroke	s	n/a
633.4	0.09	1266800	keystroke	Key.space	n/a
633.535	0.075	1267070	keystroke	i	n/a
633.715	0.06	1267430	keystroke	n	n/a
633.79	0.075	1267580	keystroke	s	n/a
633.925	0.06	1267850	keystroke	u	n/a
634.135	0.12	1268270	keystroke	l	n/a
635.305	0.075	1270610	keystroke	i	n/a
635.5	0.045	1271000	keystroke	n	n/a
636.01	0.09	1272020	keystroke	Key.space	n/a
636.16	0.075	1272320	keystroke	s	n/a
636.355	0.06	1272710	keystroke	t	n/a
636.49	0.075	1272980	keystroke	a	n/a
637.03	0.045	1274060	keystroke	k	n/a
637.09	0.046	1274180	keystroke	e	n/a
637.36	0.12	1274720	keystroke	h	n/a
637.451	0.089	1274902	keystroke	o	n/a
637.66	0.105	1275320	keystroke	l	n/a
637.78	0.075	1275560	keystroke	d	n/a
637.96	0.15	1275920	keystroke	e	n/a
638.095	0.03	1276190	keystroke	r	n/a
638.215	0.075	1276430	keystroke	s	n/a
638.545	0.075	1277090	keystroke	Key.enter	n/a
638.6245	7.7075	1277249	prompt	n/a	tend shows construction anyway\n
639.595	0.075	1279190	keystroke	t	n/a
639.73	0.075	1279460	keystroke	e	n/a
639.85	0.075	1279700	keystroke	n	n/a
639.9545	0.0755	1279909	keystroke	d	n/a
640.0745	0.135	1280149	keystroke	Key.space	n/a
640.255	0.0895	1280510	keystroke	s	n/a
640.3595	0.1055	1280719	keystroke	h	n/a
640.4345	0.09	1280869	keystroke	o	n/a
640.5695	0.06	1281139	keystroke	w	n/a
640.7655	0.074	1281531	keystroke	s	n/a
641.7245	0.105	1283449	keystroke	Key.space	n/a
641.8895	0.075	1283779	keystroke	c	n/a
641.9355	0.074	1283871	keystroke	o	n/a
642.0995	0.061	1284199	keystroke	n	n/a
642.3245	0.075	1284649	keystroke	s	n/a
642.5195	0.045	1285039	keystroke	t	n/a
642.6395	0.06	1285279	keystroke	r	n/a
642.8945	0.045	1285789	keystroke	u	n/a
643.6295	0.06	1287259	keystroke	c	n/a
643.8995	0.09	1287799	keystroke	t	n/a
644.0045	0.15	1288009	keystroke	i	n/a
644.0645	0.12	1288129	keystroke	o	n/a
644.2895	0.06	1288579	keystroke	n	n/a
644.6195	0.105	1289239	keystroke	Key.space	n/a
644.8595	0.076	1289719	keystroke	a	n/a
644.9355	0.089	1289871	keystroke	n	n/a
645.1895	0.045	1290379	keystroke	y	n/a
645.6245	0.061	1291249	keystroke	w	n/a
645.7745	0.105	1291549	keystroke	a	n/a
645.8495	0.105	1291699	keystroke	y	n/a
646.2545	0.075	1292509	keystroke	Key.enter	n/a
646.3345	10.917	1292669	prompt	n/a	congress york terror geological\n
647.2895	0.09	1294579	keystroke	c	n/a
647.4395	0.075	1294879	keystroke	o	n/a
647.5745	0.09	1295149	keystroke	n	n/a
648.4745	0.045	1296949	keystroke	g	n/a
648.5795	0.075	1297159	keystroke	r	n/a
648.7295	0.12	1297459	keystroke	o	n/a
649.4645	0.06	1298929	keystroke	Key.backspace	n/a
649.6445	0.06	1299289	keystroke	e	n/a
649.8245	0.061	1299649	keystroke	s	n/a
649.9745	0.075	1299949	keystroke	s	n/a
650.3045	0.12	1300609	keystroke	Key.space	n/a
651.1445	0.045	1302289	keystroke	t	n/a
651.5945	0.091	1303189	keystroke	Key.backspace	n/a
651.7605	0.075	1303521	keystroke	y	n/a
651.9105	0.059	1303821	keystroke	o	n/a
652.0305	0.059	1304061	keystroke	r	n/a
652.1355	0.059	1304271	keystroke	k	n/a
652.8995	0.12	1305799	keystroke	Key.space	n/a
653.1695	0.091	1306339	keystroke	t	n/a
653.3645	0.09	1306729	keystroke	e	n/a
653.4855	0.089	1306971	keystroke	r	n/a
653.6645	0.076	1307329	keystroke	r	n/a
653.7695	0.076	1307539	keystroke	o	n/a
653.8605	0.059	1307721	keystroke	r	n/a
654.0855	0.104	1308171	keystroke	Key.space	n/a
654.5505	0.09	1309101	keystroke	g	n/a
654.7745	0.046	1309549	keystroke	e	n/a
655.4955	0.06	1310991	keystroke	o	n/a
655.6605	0.089	1311321	keystroke	l	n/a
655.9005	0.075	1311801	keystroke	o	n/a
656.0945	0.061	1312189	keystroke	g	n/a
656.1705	0.075	1312341	keystroke	i	n/a
656.3655	0.09	1312731	keystroke	c	n/a
656.6205	0.09	1313241	keystroke	a	n/a
656.6955	0.105	1313391	keystroke	l	n/a
657.2355	0.014	1314471	keystroke	Key.enter	n/a
657.2545	13.887	1314509	prompt	n/a	balloon robin developed cassette\n
658.0905	0.075	1316181	keystroke	b	n/a
658.2555	0.075	1316511	keystroke	a	n/a
658.3455	0.06	1316691	keystroke	l	n/a
658.4955	0.09	1316991	keystroke	l	n/a
658.6905	0.06	1317381	keystroke	o	n/a
658.8705	0.06	1317741	keystroke	n	n/a
659.0355	0.104	1318071	keystroke	Key.space	n/a
659.9355	0.06	1319871	keystroke	Key.backspace	n/a
660.1005	0.06	1320201	keystroke	Key.backspace	n/a
660.2505	0.074	1320501	keystroke	Key.backspace	n/a
660.4305	0.09	1320861	keystroke	Key.backspace	n/a
660.8055	0.075	1321611	keystroke	o	n/a
660.9705	0.045	1321941	keystroke	o	n/a
661.1205	0.06	1322241	keystroke	n	n/a
661.3605	0.105	1322721	keystroke	Key.space	n/a
661.7055	0.075	1323411	keystroke	r	n/a
661.7955	0.09	1323591	keystroke	o	n/a
661.9755	0.045	1323951	keystroke	b	n/a
662.1255	0.075	1324251	keystroke	i	n/a
662.3205	0.06	1324641	keystroke	n	n/a
662.9355	0.045	1325871	keystroke	Key.backspace	n/a
663.0855	0.06	1326171	keystroke	Key.backspace	n/a
663.2355	0.075	1326471	keystroke	Key.backspace	n/a
663.4155	0.06	1326831	keystroke	Key.backspace	n/a
663.5805	0.06	1327161	keystroke	Key.backspace	n/a
663.7455	0.0895	1327491	keystroke	Key.backspace	n/a
663.91	0.075	1327820	keystroke	Key.backspace	n/a
664.09	0.0605	1328180	keystroke	Key.backspace	n/a
664.2555	0.1045	1328511	keystroke	Key.backspace	n/a
664.855	0.09	1329710	keystroke	l	n/a
665.11	0.06	1330220	keystroke	o	n/a
665.2455	0.105	1330491	keystroke	o	n/a
665.56	0.09	1331120	keystroke	n	n/a
665.7705	0.1045	1331541	keystroke	Key.space	n/a
666.265	0.075	1332530	keystroke	r	n/a
666.385	0.075	1332770	keystroke	o	n/a
666.52	0.075	1333040	keystroke	b	n/a
666.715	0.06	1333430	keystroke	i	n/a
666.865	0.075	1333730	keystroke	n	n/a
667.435	0.09	1334870	keystroke	Key.space	n/a
667.54	0.075	1335080	keystroke	d	n/a
667.72	0.075	1335440	keystroke	e	n/a
667.93	0.075	1335860	keystroke	v	n/a
668.14	0.06	1336280	keystroke	e	n/a
668.305	0.075	1336610	keystroke	l	n/a
668.56	0.15	1337120	keystroke	o	n/a
668.635	0.135	1337270	keystroke	p	n/a
668.845	0.09	1337690	keystroke	e	n/a
669.07	0.045	1338140	keystroke	d	n/a
669.205	0.105	1338410	keystroke	Key.space	n/a
669.43	0.105	1338860	keystroke	c	n/a
669.625	0.06	1339250	keystroke	a	n/a
669.805	0.075	1339610	keystroke	s	n/a
669.97	0.075	1339940	keystroke	s	n/a
670.165	0.09	1340330	keystroke	e	n/a
670.36	0.06	1340720	keystroke	t	n/a
670.525	0.045	1341050	keystroke	e	n/a
670.645	0.075	1341290	keystroke	e	n/a
671.065	0.075	1342130	keystroke	Key.enter	n/a
671.1445	11.7265	1342289	prompt	n/a	bonus screensavers retreat routes\n
672.775	0.045	1345550	keystroke	b	n/a
672.955	0.09	1345910	keystroke	o	n/a
673.09	0.105	1346180	keystroke	n	n/a
673.3	0.075	1346600	keystroke	u	n/a
673.48	0.06	1346960	keystroke	s	n/a
675.25	0.105	1350500	keystroke	Key.space	n/a
675.34	0.105	1350680	keystroke	s	n/a
675.475	0.15	1350950	keystroke	c	n/a
675.76	0.075	1351520	keystroke	r	n/a
675.88	0.075	1351760	keystroke	e	n/a
676.15	0.09	1352300	keystroke	e	n/a
676.33	0.075	1352660	keystroke	n	n/a
676.57	0.09	1353140	keystroke	s	n/a
676.765	0.06	1353530	keystroke	a	n/a
676.9	0.09	1353800	keystroke	v	n/a
677.125	0.09	1354250	keystroke	e	n/a
677.2	0.075	1354400	keystroke	r	n/a
677.365	0.075	1354730	keystroke	s	n/a
677.56	0.12	1355120	keystroke	Key.space	n/a
677.71	0.075	1355420	keystroke	r	n/a
677.83	0.075	1355660	keystroke	e	n/a
678.04	0.075	1356080	keystroke	t	n/a
678.265	0.06	1356530	keystroke	r	n/a
678.4	0.075	1356800	keystroke	e	n/a
678.565	0.105	1357130	keystroke	a	n/a
678.7	0.09	1357400	keystroke	t	n/a
679.39	0.105	1358780	keystroke	Key.space	n/a
680.275	0.075	1360550	keystroke	r	n/a
680.455	0.09	1360910	keystroke	o	n/a
681.115	0.06	1362230	keystroke	u	n/a
681.445	0.06	1362890	keystroke	t	n/a
681.595	0.09	1363190	keystroke	e	n/a
681.79	0.06	1363580	keystroke	s	n/a
682.81	0.06	1365620	keystroke	Key.enter	n/a
682.8745	14.637	1365749	prompt	n/a	adaptor cosmetic conferences intermediate\n
683.845	0.075	1367690	keystroke	a	n/a
683.995	0.075	1367990	keystroke	d	n/a
684.175	0.06	1368350	keystroke	a	n/a
684.34	0.09	1368680	keystroke	p	n/a
684.565	0.06	1369130	keystroke	t	n/a
684.67	0.09	1369340	keystroke	i	n/a
685.3145	0.06	1370629	keystroke	Key.backspace	n/a
685.5855	0.045	1371171	keystroke	o	n/a
685.6755	0.059	1371351	keystroke	r	n/a
686.4105	0.105	1372821	keystroke	Key.space	n/a
686.6205	0.075	1373241	keystroke	c	n/a
686.7105	0.075	1373421	keystroke	o	n/a
686.8155	0.105	1373631	keystroke	s	n/a
686.9805	0.09	1373961	keystroke	m	n/a
687.2055	0.06	1374411	keystroke	e	n/a
687.3555	0.06	1374711	keystroke	t	n/a
687.4605	0.075	1374921	keystroke	i	n/a
687.6405	0.06	1375281	keystroke	c	n/a
687.7595	0.105	1375519	keystroke	Key.space	n/a
687.9555	0.075	1375911	keystroke	c	n/a
688.0605	0.075	1376121	keystroke	o	n/a
688.1655	0.075	1376331	keystroke	n	n/a
689.4105	0.06	1378821	keystroke	g	n/a
689.6655	0.12	1379331	keystroke	e	n/a
689.7705	0.09	1379541	keystroke	r	n/a
689.9055	0.09	1379811	keystroke	e	n/a
691.1505	0.06	1382301	keystroke	Key.backspace	n/a
691.3155	0.09	1382631	keystroke	Key.backspace	n/a
691.5705	0.075	1383141	keystroke	Key.backspace	n/a
691.7505	0.075	1383501	keystroke	Key.backspace	n/a
693.4005	0.09	1386801	keystroke	f	n/a
693.5655	0.09	1387131	keystroke	e	n/a
693.6705	0.075	1387341	keystroke	r	n/a
693.7905	0.075	1387581	keystroke	e	n/a
694.1955	0.045	1388391	keystroke	n	n/a
694.3005	0.105	1388601	keystroke	c	n/a
694.4805	0.06	1388961	keystroke	e	n/a
694.6605	0.075	1389321	keystroke	s	n/a
694.9155	0.075	1389831	keystroke	Key.space	n/a
695.0505	0.09	1390101	keystroke	i	n/a
695.2005	0.09	1390401	keystroke	n	n/a
695.3205	0.09	1390641	keystroke	t	n/a
695.4705	0.12	1390941	keystroke	e	n/a
695.5455	0.09	1391091	keystroke	r	n/a
695.8155	0.135	1391631	keystroke	m	n/a
696.1455	0.06	1392291	keystroke	e	n/a
696.3405	0.075	1392681	keystroke	d	n/a
