onset	duration	sample	value	key	prompt_text
1.691	19.9025	3382	prompt	n/a	the quick brown fox jumps over a lazy dog\n
5.865	0.134	11730	keystroke_t	t	n/a
6.0315	0.255	12063	keystroke_h	h	n/a
6.2415	0.255	12483	keystroke_e	e	n/a
6.5905	0.225	13181	keystroke_Key.space	Key.space	n/a
7.0695	0.24	14139	keystroke_q	q	n/a
7.3245	0.255	14649	keystroke_u	u	n/a
7.5045	0.256	15009	keystroke_i	i	n/a
7.8795	0.195	15759	keystroke_c	c	n/a
8.0895	0.225	16179	keystroke_k	k	n/a
8.5545	0.18	17109	keystroke_Key.space	Key.space	n/a
9.0345	0.255	18069	keystroke_b	b	n/a
9.2745	0.21	18549	keystroke_r	r	n/a
9.4995	0.285	18999	keystroke_o	o	n/a
9.7255	0.194	19451	keystroke_w	w	n/a
9.9795	0.21	19959	keystroke_n	n	n/a
10.3695	0.27	20739	keystroke_Key.space	Key.space	n/a
10.6095	0.255	21219	keystroke_f	f	n/a
10.8045	0.316	21609	keystroke_o	o	n/a
11.1795	0.225	22359	keystroke_x	x	n/a
11.4495	0.225	22899	keystroke_Key.space	Key.space	n/a
11.9595	0.195	23919	keystroke_j	j	n/a
12.3205	0.179	24641	keystroke_u	u	n/a
12.8745	0.285	25749	keystroke_m	m	n/a
13.2945	0.315	26589	keystroke_p	p	n/a
13.4445	0.225	26889	keystroke_s	s	n/a
13.9095	0.225	27819	keystroke_Key.space	Key.space	n/a
14.3745	0.225	28749	keystroke_o	o	n/a
14.6295	0.225	29259	keystroke_v	v	n/a
14.8995	0.24	29799	keystroke_e	e	n/a
15.0955	0.194	30191	keystroke_r	r	n/a
15.1555	0.224	30311	keystroke_Key.space	Key.space	n/a
15.6355	0.284	31271	keystroke_a	a	n/a
15.9345	0.225	31869	keystroke_Key.space	Key.space	n/a
16.2945	0.2405	32589	keystroke_l	l	n/a
16.4155	0.1795	32831	keystroke_a	a	n/a
16.895	0.12	33790	keystroke_s	s	n/a
17.09	0.105	34180	keystroke_z	z	n/a
17.225	0.21	34450	keystroke_y	y	n/a
17.795	0.135	35590	keystroke_Key.backspace	Key.backspace	n/a
18.05	0.12	36100	keystroke_Key.backspace	Key.backspace	n/a
18.26	0.045	36520	keystroke_Key.backspace	Key.backspace	n/a
19.25	0.225	38500	keystroke_z	z	n/a
19.82	0.225	39640	keystroke_y	y	n/a
20.33	0.33	40660	keystroke_Key.space	Key.space	n/a
20.661	0.194	41322	keystroke_d	d	n/a
20.84	0.3	41680	keystroke_o	o	n/a
21.095	0.165	42190	keystroke_g	g	n/a
21.395	0.195	42790	keystroke_Key.enter	Key.enter	n/a
21.599	11.454	43198	prompt	n/a	amber playstation relates we're\n
22.34	0.225	44680	keystroke_a	a	n/a
22.58	0.225	45160	keystroke_m	m	n/a
23.15	0.24	46300	keystroke_b	b	n/a
23.51	0.18	47020	keystroke_e	e	n/a
23.645	0.18	47290	keystroke_r	r	n/a
24.365	0.18	48730	keystroke_Key.space	Key.space	n/a
24.755	0.18	49510	keystroke_p	p	n/a
25.16	0.33	50320	keystroke_l	l	n/a
25.385	0.27	50770	keystroke_a	a	n/a
25.73	0.255	51460	keystroke_y	y	n/a
26.045	0.24	52090	keystroke_s	s	n/a
26.465	0.225	52930	keystroke_t	t	n/a
26.72	0.285	53440	keystroke_a	a	n/a
26.975	0.18	53950	keystroke_t	t	n/a
27.215	0.255	54430	keystroke_i	i	n/a
27.425	0.255	54850	keystroke_o	o	n/a
27.515	0.21	55030	keystroke_n	n	n/a
28.5055	0.24	57011	keystroke_Key.space	Key.space	n/a
28.8655	0.24	57731	keystroke_r	r	n/a
29.4655	0.195	58931	keystroke_e	e	n/a
29.7355	0.27	59471	keystroke_l	l	n/a
30.0655	0.315	60131	keystroke_a	a	n/a
30.3955	0.33	60791	keystroke_t	t	n/a
30.6355	0.27	61271	keystroke_e	e	n/a
30.9205	0.15	61841	keystroke_s	s	n/a
31.3555	0.24	62711	keystroke_Key.space	Key.space	n/a
31.7	0.1505	63400	keystroke_w	w	n/a
31.7755	0.18	63551	keystroke_e	e	n/a
32.1655	0.225	64331	keystroke_'	'	n/a
32.4055	0.255	64811	keystroke_r	r	n/a
32.6005	0.15	65201	keystroke_e	e	n/a
32.8705	0.18	65741	keystroke_Key.enter	Key.enter	n/a
33.0585	15.699	66117	prompt	n/a	which's gravity austria core\n
34.1905	0.195	68381	keystroke_w	w	n/a
34.4755	0.3	68951	keystroke_h	h	n/a
34.6405	0.255	69281	keystroke_i	i	n/a
34.9405	0.2095	69881	keystroke_c	c	n/a
35.1655	0.24	70331	keystroke_h	h	n/a
35.5705	0.24	71141	keystroke_'	'	n/a
35.9755	0.165	71951	keystroke_s	s	n/a
36.1705	0.225	72341	keystroke_Key.space	Key.space	n/a
36.3965	0.209	72793	keystroke_g	g	n/a
36.8005	0.27	73601	keystroke_r	r	n/a
36.9805	0.075	73961	keystroke_e	e	n/a
37.7005	0.15	75401	keystroke_Key.backspace	Key.backspace	n/a
37.9705	0.255	75941	keystroke_a	a	n/a
38.3905	0.21	76781	keystroke_v	v	n/a
38.5555	0.24	77111	keystroke_i	i	n/a
39.3805	0.195	78761	keystroke_i	i	n/a
39.6355	0.195	79271	keystroke_t	t	n/a
40.1455	0.12	80291	keystroke_Key.backspace	Key.backspace	n/a
40.4005	0.105	80801	keystroke_Key.backspace	Key.backspace	n/a
41.4205	0.21	82841	keystroke_t	t	n/a
41.6905	0.225	83381	keystroke_y	y	n/a
42.0955	0.24	84191	keystroke_Key.space	Key.space	n/a
43.2505	0.255	86501	keystroke_a	a	n/a
43.5955	0.21	87191	keystroke_u	u	n/a
43.7305	0.21	87461	keystroke_s	s	n/a
43.9855	0.195	87971	keystroke_t	t	n/a
44.3905	0.21	88781	keystroke_r	r	n/a
44.7505	0.255	89501	keystroke_u	u	n/a
45.5605	0.165	91121	keystroke_Key.backspace	Key.backspace	n/a
46.1905	0.18	92381	keystroke_i	i	n/a
46.9105	0.255	93821	keystroke_a	a	n/a
47.2255	0.255	94451	keystroke_Key.space	Key.space	n/a
47.6305	0.24	95261	keystroke_c	c	n/a
47.9005	0.285	95801	keystroke_o	o	n/a
48.1405	0.225	96281	keystroke_r	r	n/a
48.2915	0.209	96583	keystroke_e	e	n/a
48.5755	0.18	97151	keystroke_Key.enter	Key.enter	n/a
48.7635	11.665	97527	prompt	n/a	is oven nvidia statement\n
49.6555	0.18	99311	keystroke_i	i	n/a
49.9405	0.165	99881	keystroke_s	s	n/a
50.1655	0.195	100331	keystroke_Key.space	Key.space	n/a
50.4355	0.27	100871	keystroke_o	o	n/a
50.7205	0.15	101441	keystroke_v	v	n/a
50.8855	0.3	101771	keystroke_e	e	n/a
52.1005	0.195	104201	keystroke_n	n	n/a
52.6405	0.165	105281	keystroke_Key.space	Key.space	n/a
52.9855	0.18	105971	keystroke_n	n	n/a
53.4355	0.195	106871	keystroke_v	v	n/a
53.6455	0.21	107291	keystroke_i	i	n/a
53.8415	0.179	107683	keystroke_d	d	n/a
54.0655	0.24	108131	keystroke_i	i	n/a
54.8005	0.18	109601	keystroke_e	e	n/a
55.5805	0.165	111161	keystroke_Key.backspace	Key.backspace	n/a
55.7615	0.224	111523	keystroke_a	a	n/a
56.4205	0.195	112841	keystroke_Key.space	Key.space	n/a
57.0815	0.209	114163	keystroke_s	s	n/a
57.3365	0.269	114673	keystroke_t	t	n/a
57.5455	0.21	115091	keystroke_a	a	n/a
58.0255	0.345	116051	keystroke_t	t	n/a
58.4455	0.21	116891	keystroke_e	e	n/a
58.9705	0.24	117941	keystroke_m	m	n/a
59.2265	0.179	118453	keystroke_e	e	n/a
59.4515	0.225	118903	keystroke_n	n	n/a
59.7815	0.254	119563	keystroke_t	t	n/a
60.2005	0.225	120401	keystroke_Key.enter	Key.enter	n/a
60.435	19.9595	120870	prompt	n/a	diagnosis clips productive hotel\n
61.5365	0.209	123073	keystroke_d	d	n/a
61.8655	0.226	123731	keystroke_i	i	n/a
62.5265	0.239	125053	keystroke_a	a	n/a
63.2315	0.194	126463	keystroke_g	g	n/a
63.6965	0.27	127393	keystroke_n	n	n/a
63.9515	0.225	127903	keystroke_o	o	n/a
64.2365	0.165	128473	keystroke_s	s	n/a
64.5055	0.211	129011	keystroke_i	i	n/a
64.6565	0.18	129313	keystroke_s	s	n/a
65.1055	0.21	130211	keystroke_Key.space	Key.space	n/a
65.6615	0.165	131323	keystroke_c	c	n/a
65.8105	0.225	131621	keystroke_l	l	n/a
65.9765	0.239	131953	keystroke_i	i	n/a
66.6515	0.18	133303	keystroke_p	p	n/a
67.1015	0.18	134203	keystroke_s	s	n/a
67.5815	0.194	135163	keystroke_Key.space	Key.space	n/a
68.3465	0.24	136693	keystroke_p	p	n/a
68.6005	0.226	137201	keystroke_r	r	n/a
69.3815	0.18	138763	keystroke_o	o	n/a
69.9215	0.21	139843	keystroke_u	u	n/a
70.1015	0.194	140203	keystroke_d	d	n/a
70.6265	0.195	141253	keystroke_c	c	n/a
73.3595	0.057	146719	keystroke_Key.backspace	Key.backspace	n/a
73.5965	0.24	147193	keystroke_Key.backspace	Key.backspace	n/a
74.1665	0.12	148333	keystroke_Key.backspace	Key.backspace	n/a
75.3515	0.18	150703	keystroke_d	d	n/a
77.4365	0.21	154873	keystroke_u	u	n/a
77.6315	0.15	155263	keystroke_c	c	n/a
78.0365	0.195	156073	keystroke_t	t	n/a
78.2465	0.195	156493	keystroke_i	i	n/a
78.4565	0.255	156913	keystroke_v	v	n/a
78.6965	0.225	157393	keystroke_e	e	n/a
78.9065	0.21	157813	keystroke_Key.space	Key.space	n/a
79.4015	0.24	158803	keystroke_h	h	n/a
79.5365	0.225	159073	keystroke_o	o	n/a
79.7465	0.21	159493	keystroke_t	t	n/a
79.9265	0.165	159853	keystroke_e	e	n/a
80.2265	0.165	160453	keystroke_Key.enter	Key.enter	n/a
80.4025	14.765	160805	prompt	n/a	moments tries gets bhutan\n
82.0865	0.195	164173	keystroke_m	m	n/a
82.3415	0.24	164683	keystroke_o	o	n/a
82.4915	0.18	164983	keystroke_m	m	n/a
82.7015	0.195	165403	keystroke_e	e	n/a
83.1065	0.225	166213	keystroke_m	m	n/a
83.7065	0.165	167413	keystroke_Key.backspace	Key.backspace	n/a
84.4415	0.195	168883	keystroke_n	n	n/a
84.7415	0.285	169483	keystroke_t	t	n/a
84.9815	0.21	169963	keystroke_s	s	n/a
85.6565	0.195	171313	keystroke_Key.space	Key.space	n/a
86.0765	0.18	172153	keystroke_t	t	n/a
86.4215	0.224	172843	keystroke_r	r	n/a
86.7955	0.301	173591	keystroke_i	i	n/a
86.9605	0.256	173921	keystroke_e	e	n/a
87.1415	0.195	174283	keystroke_s	s	n/a
87.5605	0.18	175121	keystroke_Key.space	Key.space	n/a
87.9355	0.24	175871	keystroke_g	g	n/a
88.1605	0.24	176321	keystroke_e	e	n/a
88.3855	0.225	176771	keystroke_t	t	n/a
88.5355	0.1955	177071	keystroke_s	s	n/a
88.821	0.225	177642	keystroke_Key.space	Key.space	n/a
89.586	0.18	179172	keystroke_b	b	n/a
90.066	0.24	180132	keystroke_j	j	n/a
91.19	0.15	182380	keystroke_Key.backspace	Key.backspace	n/a
91.986	0.195	183972	keystroke_h	h	n/a
92.751	0.195	185502	keystroke_u	u	n/a
93.201	0.195	186402	keystroke_t	t	n/a
93.891	0.24	187782	keystroke_a	a	n/a
94.326	0.195	188652	keystroke_n	n	n/a
95.001	0.165	190002	keystroke_Key.enter	Key.enter	n/a
95.1755	14.8885	190351	prompt	n/a	omaha airline associate samsung\n
97.4935	0.237	194987	keystroke_o	o	n/a
97.6855	0.165	195371	keystroke_m	m	n/a
98.3005	0.24	196601	keystroke_a	a	n/a
99.1555	0.21	198311	keystroke_h	h	n/a
99.3205	0.255	198641	keystroke_a	a	n/a
99.7855	0.24	199571	keystroke_Key.space	Key.space	n/a
100.0105	0.225	200021	keystroke_a	a	n/a
100.2365	0.239	200473	keystroke_i	i	n/a
100.6855	0.21	201371	keystroke_r	r	n/a
101.4205	0.24	202841	keystroke_l	l	n/a
101.7655	0.3	203531	keystroke_i	i	n/a
101.9005	0.24	203801	keystroke_n	n	n/a
102.0805	0.15	204161	keystroke_e	e	n/a
102.5605	0.24	205121	keystroke_Key.space	Key.space	n/a
102.8755	0.3	205751	keystroke_a	a	n/a
103.1155	0.165	206231	keystroke_s	s	n/a
103.3705	0.24	206741	keystroke_s	s	n/a
103.8655	0.301	207731	keystroke_o	o	n/a
104.0905	0.256	208181	keystroke_c	c	n/a
105.0055	0.21	210011	keystroke_i	i	n/a
105.2315	0.314	210463	keystroke_a	a	n/a
105.6055	0.24	211211	keystroke_t	t	n/a
105.8015	0.239	211603	keystroke_e	e	n/a
106.2505	0.21	212501	keystroke_Key.space	Key.space	n/a
107.0165	0.255	214033	keystroke_s	s	n/a
107.2405	0.286	214481	keystroke_a	a	n/a
107.6465	0.195	215293	keystroke_m	m	n/a
108.3655	0.195	216731	keystroke_s	s	n/a
108.6965	0.179	217393	keystroke_u	u	n/a
109.1755	0.211	218351	keystroke_n	n	n/a
109.4755	0.165	218951	keystroke_g	g	n/a
109.9265	0.134	219853	keystroke_Key.enter	Key.enter	n/a
110.0715	9.787	220143	prompt	n/a	citation validation find teaches\n
111.0965	0.194	222193	keystroke_c	c	n/a
111.5915	0.3	223183	keystroke_i	i	n/a
112.0565	0.225	224113	keystroke_t	t	n/a
112.2965	0.209	224593	keystroke_a	a	n/a
112.4605	0.211	224921	keystroke_t	t	n/a
112.6715	0.209	225343	keystroke_i	i	n/a
112.8515	0.225	225703	keystroke_o	o	n/a
113.0165	0.239	226033	keystroke_n	n	n/a
113.3465	0.209	226693	keystroke_Key.space	Key.space	n/a
113.6915	0.239	227383	keystroke_v	v	n/a
113.8715	0.225	227743	keystroke_a	a	n/a
114.0355	0.286	228071	keystroke_l	l	n/a
114.2305	0.241	228461	keystroke_i	i	n/a
114.4415	0.225	228883	keystroke_d	d	n/a
114.6965	0.225	229393	keystroke_a	a	n/a
114.9355	0.181	229871	keystroke_t	t	n/a
115.1315	0.179	230263	keystroke_i	i	n/a
115.2365	0.314	230473	keystroke_o	o	n/a
115.3865	0.21	230773	keystroke_n	n	n/a
115.8505	0.21	231701	keystroke_Key.space	Key.space	n/a
116.0755	0.211	232151	keystroke_f	f	n/a
116.4665	0.315	232933	keystroke_i	i	n/a
116.6005	0.196	233201	keystroke_n	n	n/a
116.8565	0.195	233713	keystroke_d	d	n/a
117.1555	0.211	234311	keystroke_Key.space	Key.space	n/a
117.9365	0.24	235873	keystroke_t	t	n/a
118.1165	0.21	236233	keystroke_e	e	n/a
118.3115	0.285	236623	keystroke_a	a	n/a
118.5665	0.18	237133	keystroke_c	c	n/a
118.7315	0.225	237463	keystroke_h	h	n/a
118.9255	0.211	237851	keystroke_e	e	n/a
119.0765	0.225	238153	keystroke_s	s	n/a
119.6915	0.164	239383	keystroke_Key.enter	Key.enter	n/a
119.864	12.5795	239728	prompt	n/a	howard automobile sprint suitable\n
120.8015	0.24	241603	keystroke_h	h	n/a
120.9365	0.18	241873	keystroke_o	o	n/a
121.1465	0.3	242293	keystroke_w	w	n/a
121.9415	0.3	243883	keystroke_a	a	n/a
122.3165	0.18	244633	keystroke_r	r	n/a
122.7515	0.195	245503	keystroke_d	d	n/a
123.1415	0.225	246283	keystroke_Key.space	Key.space	n/a
123.4265	0.24	246853	keystroke_a	a	n/a
123.8465	0.18	247693	keystroke_u	u	n/a
124.6115	0.195	249223	keystroke_t	t	n/a
125.0765	0.165	250153	keystroke_o	o	n/a
125.8115	0.24	251623	keystroke_m	m	n/a
126.0365	0.21	252073	keystroke_o	o	n/a
126.3515	0.27	252703	keystroke_b	b	n/a
126.6965	0.165	253393	keystroke_i	i	n/a
126.8465	0.24	253693	keystroke_l	l	n/a
127.1915	0.225	254383	keystroke_e	e	n/a
127.7015	0.21	255403	keystroke_Key.space	Key.space	n/a
128.1815	0.27	256363	keystroke_s	s	n/a
128.5865	0.24	257173	keystroke_p	p	n/a
128.8565	0.21	257713	keystroke_r	r	n/a
129.1565	0.33	258313	keystroke_i	i	n/a
129.3515	0.195	258703	keystroke_n	n	n/a
129.5915	0.195	259183	keystroke_g	g	n/a
129.8615	0.21	259723	keystroke_Key.space	Key.space	n/a
130.1465	0.18	260293	keystroke_s	s	n/a
130.4165	0.225	260833	keystroke_u	u	n/a
130.5515	0.255	261103	keystroke_i	i	n/a
130.7915	0.21	261583	keystroke_t	t	n/a
131.1815	0.21	262363	keystroke_a	a	n/a
131.4065	0.255	262813	keystroke_b	b	n/a
131.6015	0.255	263203	keystroke_l	l	n/a
131.8715	0.195	263743	keystroke_e	e	n/a
132.2765	0.165	264553	keystroke_Key.enter	Key.enter	n/a
132.45	24.7735	264900	prompt	n/a	analyzed applications immunology proposition\n
133.7015	0.24	267403	keystroke_a	a	n/a
134.0615	0.225	268123	keystroke_n	n	n/a
134.3615	0.225	268723	keystroke_a	a	n/a
136.0865	0.21	272173	keystroke_l	l	n/a
136.6115	0.21	273223	keystroke_y	y	n/a
136.9415	0.225	273883	keystroke_z	z	n/a
137.5415	0.225	275083	keystroke_e	e	n/a
138.1265	0.165	276253	keystroke_d	d	n/a
139.1015	0.225	278203	keystroke_Key.space	Key.space	n/a
141.097	0.24	282194	keystroke_a	a	n/a
141.592	0.15	283184	keystroke_p	p	n/a
141.937	0.209	283874	keystroke_p	p	n/a
142.522	0.269	285044	keystroke_l	l	n/a
142.836	0.241	285672	keystroke_i	i	n/a
143.107	0.195	286214	keystroke_c	c	n/a
143.302	0.27	286604	keystroke_a	a	n/a
143.616	0.181	287232	keystroke_t	t	n/a
143.677	0.24	287354	keystroke_i	i	n/a
143.902	0.225	287804	keystroke_o	o	n/a
144.052	0.255	288104	keystroke_n	n	n/a
144.382	0.195	288764	keystroke_s	s	n/a
144.801	0.225	289602	keystroke_Key.space	Key.space	n/a
145.072	0.21	290144	keystroke_i	i	n/a
145.237	0.18	290474	keystroke_m	m	n/a
145.522	0.165	291044	keystroke_m	m	n/a
146.347	0.195	292694	keystroke_u	u	n/a
146.797	0.27	293594	keystroke_n	n	n/a
147.052	0.165	294104	keystroke_o	o	n/a
147.667	0.21	295334	keystroke_l	l	n/a
148.072	0.255	296144	keystroke_o	o	n/a
148.312	0.21	296624	keystroke_g	g	n/a
148.687	0.225	297374	keystroke_y	y	n/a
149.332	0.21	298664	keystroke_Key.space	Key.space	n/a
150.817	0.24	301634	keystroke_p	p	n/a
151.027	0.195	302054	keystroke_r	r	n/a
151.207	0.24	302414	keystroke_o	o	n/a
151.372	0.21	302744	keystroke_p	p	n/a
152.332	0.33	304664	keystroke_o	o	n/a
152.782	0.21	305564	keystroke_s	s	n/a
152.977	0.195	305954	keystroke_t	t	n/a
153.967	0.12	307934	keystroke_i	i	n/a
154.357	0.165	308714	keystroke_Key.backspace	Key.backspace	n/a
154.657	0.135	309314	keystroke_Key.backspace	Key.backspace	n/a
155.302	0.3	310604	keystroke_i	i	n/a
155.557	0.225	311114	keystroke_t	t	n/a
155.797	0.225	311594	keystroke_i	i	n/a
155.992	0.285	311984	keystroke_o	o	n/a
156.172	0.27	312344	keystroke_n	n	n/a
156.9965	0.225	313993	keystroke_Key.enter	Key.enter	n/a
157.23	17.964	314460	prompt	n/a	anything cruises epinions malaysia\n
158.1965	0.225	316393	keystroke_a	a	n/a
158.3915	0.21	316783	keystroke_n	n	n/a
158.9315	0.225	317863	keystroke_t	t	n/a
159.3365	0.165	318673	keystroke_y	y	n/a
159.8015	0.15	319603	keystroke_Key.backspace	Key.backspace	n/a
160.0715	0.105	320143	keystroke_Key.backspace	Key.backspace	n/a
160.7615	0.21	321523	keystroke_y	y	n/a
161.2565	0.196	322513	keystroke_t	t	n/a
161.5115	0.255	323023	keystroke_h	h	n/a
161.8715	0.405	323743	keystroke_i	i	n/a
162.0515	0.21	324103	keystroke_n	n	n/a
162.1415	0.18	324283	keystroke_g	g	n/a
162.4715	0.285	324943	keystroke_Key.space	Key.space	n/a
162.7125	0.164	325425	keystroke_c	c	n/a
163.2365	0.225	326473	keystroke_r	r	n/a
163.7625	0.254	327525	keystroke_u	u	n/a
164.0015	0.331	328003	keystroke_s	s	n/a
165.0815	0.18	330163	keystroke_Key.backspace	Key.backspace	n/a
165.7265	0.225	331453	keystroke_i	i	n/a
165.9215	0.241	331843	keystroke_s	s	n/a
166.0875	0.224	332175	keystroke_e	e	n/a
166.2675	0.225	332535	keystroke_s	s	n/a
166.8365	0.27	333673	keystroke_Key.space	Key.space	n/a
167.3015	0.211	334603	keystroke_e	e	n/a
167.7825	0.21	335565	keystroke_p	p	n/a
168.2025	0.24	336405	keystroke_i	i	n/a
168.6075	0.329	337215	keystroke_n	n	n/a
168.9675	0.224	337935	keystroke_i	i	n/a
169.1165	0.33	338233	keystroke_o	o	n/a
169.3265	0.211	338653	keystroke_n	n	n/a
169.4765	0.075	338953	keystroke_o	o	n/a
169.4775	0.21	338955	keystroke_s	s	n/a
169.8665	0.24	339733	keystroke_Key.space	Key.space	n/a
170.7525	0.27	341505	keystroke_m	m	n/a
171.1425	0.27	342285	keystroke_a	a	n/a
171.4865	0.48	342973	keystroke_l	l	n/a
171.6815	0.256	343363	keystroke_a	a	n/a
173.3625	0.255	346725	keystroke_y	y	n/a
173.8425	0.18	347685	keystroke_s	s	n/a
174.0375	0.225	348075	keystroke_i	i	n/a
174.3975	0.27	348795	keystroke_a	a	n/a
174.9525	0.24	349905	keystroke_Key.enter	Key.enter	n/a
175.2005	12.414	350401	prompt	n/a	thumb film cigarette pension\n
176.5125	0.21	353025	keystroke_t	t	n/a
176.7375	0.255	353475	keystroke_h	h	n/a
177.2625	0.24	354525	keystroke_u	u	n/a
178.0265	0.226	356053	keystroke_m	m	n/a
178.6275	0.255	357255	keystroke_b	b	n/a
179.2265	0.241	358453	keystroke_Key.space	Key.space	n/a
179.7525	0.255	359505	keystroke_f	f	n/a
179.9475	0.18	359895	keystroke_i	i	n/a
180.0665	0.346	360133	keystroke_l	l	n/a
180.3525	0.195	360705	keystroke_m	m	n/a
180.7125	0.284	361425	keystroke_Key.space	Key.space	n/a
181.207	0.195	362414	keystroke_c	c	n/a
181.327	0.315	362654	keystroke_i	i	n/a
181.8225	0.4045	363645	keystroke_g	g	n/a
182.272	0.3	364544	keystroke_a	a	n/a
182.707	0.225	365414	keystroke_r	r	n/a
183.097	0.21	366194	keystroke_e	e	n/a
183.457	0.15	366914	keystroke_t	t	n/a
183.757	0.225	367514	keystroke_t	t	n/a
183.922	0.225	367844	keystroke_e	e	n/a
184.372	0.24	368744	keystroke_Key.space	Key.space	n/a
185.197	0.075	370394	keystroke_p	p	n/a
185.827	0.225	371654	keystroke_e	e	n/a
186.172	0.225	372344	keystroke_n	n	n/a
186.502	0.225	373004	keystroke_s	s	n/a
186.667	0.21	373334	keystroke_i	i	n/a
186.817	0.33	373634	keystroke_o	o	n/a
186.982	0.18	373964	keystroke_n	n	n/a
187.447	0.165	374894	keystroke_Key.enter	Key.enter	n/a
187.619	15.3855	375238	prompt	n/a	invited nitrogen referrals readings\n
188.842	0.3	377684	keystroke_i	i	n/a
189.037	0.24	378074	keystroke_n	n	n/a
189.667	0.21	379334	keystroke_v	v	n/a
189.817	0.285	379634	keystroke_i	i	n/a
190.312	0.24	380624	keystroke_t	t	n/a
190.537	0.225	381074	keystroke_e	e	n/a
190.957	0.24	381914	keystroke_d	d	n/a
191.407	0.225	382814	keystroke_Key.space	Key.space	n/a
191.797	0.225	383594	keystroke_n	n	n/a
192.547	0.21	385094	keystroke_i	i	n/a
193.207	0.195	386414	keystroke_t	t	n/a
193.672	0.255	387344	keystroke_r	r	n/a
193.912	0.315	387824	keystroke_o	o	n/a
194.497	0.24	388994	keystroke_g	g	n/a
194.977	0.225	389954	keystroke_e	e	n/a
195.307	0.225	390614	keystroke_n	n	n/a
195.967	0.27	391934	keystroke_Key.space	Key.space	n/a
196.522	0.255	393044	keystroke_r	r	n/a
196.732	0.225	393464	keystroke_e	e	n/a
197.257	0.24	394514	keystroke_f	f	n/a
197.452	0.135	394904	keystroke_e	e	n/a
198.727	0.195	397454	keystroke_r	r	n/a
199.057	0.18	398114	keystroke_r	r	n/a
199.552	0.285	399104	keystroke_a	a	n/a
199.747	0.24	399494	keystroke_l	l	n/a
200.152	0.195	400304	keystroke_s	s	n/a
200.377	0.255	400754	keystroke_Key.space	Key.space	n/a
201.007	0.225	402014	keystroke_r	r	n/a
201.127	0.2395	402254	keystroke_e	e	n/a
201.3365	0.225	402673	keystroke_a	a	n/a
201.6665	0.375	403333	keystroke_i	i	n/a
201.8465	0.255	403693	keystroke_n	n	n/a
201.9815	0.255	403963	keystroke_d	d	n/a
202.1915	0.255	404383	keystroke_s	s	n/a
202.7615	0.24	405523	keystroke_Key.enter	Key.enter	n/a
203.0105	28.149	406021	prompt	n/a	develops conclusion sort lodging\n
205.3295	0.087	410659	keystroke_d	d	n/a
205.6415	0.24	411283	keystroke_e	e	n/a
206.0615	0.285	412123	keystroke_v	v	n/a
206.3165	0.21	412633	keystroke_e	e	n/a
206.6165	0.195	413233	keystroke_l	l	n/a
207.4265	0.315	414853	keystroke_p	p	n/a
208.1165	0.21	416233	keystroke_[	[	n/a
209.1365	0.24	418273	keystroke_Key.backspace	Key.backspace	n/a
209.5265	0.165	419053	keystroke_Key.backspace	Key.backspace	n/a
210.3665	0.15	420733	keystroke_Key.backspace	Key.backspace	n/a
212.4665	0.21	424933	keystroke_l	l	n/a
212.9315	0.315	425863	keystroke_o	o	n/a
213.2615	0.3	426523	keystroke_p	p	n/a
213.4875	0.195	426975	keystroke_s	s	n/a
213.8915	0.24	427783	keystroke_Key.space	Key.space	n/a
214.2215	0.211	428443	keystroke_c	c	n/a
214.3715	0.405	428743	keystroke_o	o	n/a
214.5215	0.24	429043	keystroke_n	n	n/a
214.9265	0.195	429853	keystroke_c	c	n/a
215.4965	0.316	430993	keystroke_l	l	n/a
216.1565	0.24	432313	keystroke_u	u	n/a
216.4865	0.285	432973	keystroke_s	s	n/a
216.9065	0.196	433813	keystroke_t	t	n/a
217.2215	0.241	434443	keystroke_i	i	n/a
217.4625	0.344	434925	keystroke_o	o	n/a
217.7325	0.089	435465	keystroke_n	n	n/a
218.1065	0.195	436213	keystroke_Key.backspace	Key.backspace	n/a
218.4815	0.09	436963	keystroke_Key.backspace	Key.backspace	n/a
218.6765	0.12	437353	keystroke_Key.backspace	Key.backspace	n/a
219.4575	0.224	438915	keystroke_i	i	n/a
219.9965	0.15	439993	keystroke_Key.backspace	Key.backspace	n/a
220.2815	0.135	440563	keystroke_Key.backspace	Key.backspace	n/a
220.9575	0.254	441915	keystroke_i	i	n/a
221.3165	0.195	442633	keystroke_o	o	n/a
221.4375	0.284	442875	keystroke_n	n	n/a
222.1865	0.195	444373	keystroke_Key.space	Key.space	n/a
223.1025	0.225	446205	keystroke_s	s	n/a
223.3425	0.299	446685	keystroke_o	o	n/a
223.5975	0.21	447195	keystroke_r	r	n/a
224.0325	0.209	448065	keystroke_t	t	n/a
224.4365	0.21	448873	keystroke_Key.space	Key.space	n/a
224.8725	0.24	449745	keystroke_l	l	n/a
225.1875	0.24	450375	keystroke_d	d	n/a
225.6525	0.3	451305	keystroke_o	o	n/a
226.3415	0.166	452683	keystroke_Key.backspace	Key.backspace	n/a
226.7465	0.135	453493	keystroke_Key.backspace	Key.backspace	n/a
228.3825	0.3	456765	keystroke_o	o	n/a
228.6225	0.194	457245	keystroke_d	d	n/a
229.1175	0.15	458235	keystroke_g	g	n/a
229.4475	0.33	458895	keystroke_i	i	n/a
229.6725	0.18	459345	keystroke_n	n	n/a
229.8815	0.196	459763	keystroke_g	g	n/a
230.8725	0.285	461745	keystroke_Key.enter	Key.enter	n/a
231.1655	30.099	462331	prompt	n/a	hurricane technologies prospect northeast\n
234.6705	0.147	469341	keystroke_h	h	n/a
235.2525	0.21	470505	keystroke_u	u	n/a
235.4925	0.18	470985	keystroke_r	r	n/a
235.7625	0.195	471525	keystroke_r	r	n/a
236.0175	0.255	472035	keystroke_i	i	n/a
236.2875	0.24	472575	keystroke_c	c	n/a
236.4675	0.24	472935	keystroke_a	a	n/a
236.8425	0.18	473685	keystroke_n	n	n/a
236.9925	0.315	473985	keystroke_e	e	n/a
238.9725	0.24	477945	keystroke_Key.space	Key.space	n/a
240.2025	0.285	480405	keystroke_y	y	n/a
240.6825	0.075	481365	keystroke_r	r	n/a
241.0875	0.165	482175	keystroke_Key.backspace	Key.backspace	n/a
241.3725	0.15	482745	keystroke_Key.backspace	Key.backspace	n/a
241.6125	0.09	483225	keystroke_Key.backspace	Key.backspace	n/a
242.6325	0.255	485265	keystroke_Key.space	Key.space	n/a
243.3375	0.225	486675	keystroke_t	t	n/a
243.7275	0.27	487455	keystroke_e	e	n/a
244.2975	0.18	488595	keystroke_c	c	n/a
244.5225	0.225	489045	keystroke_h	h	n/a
245.0325	0.285	490065	keystroke_n	n	n/a
245.2425	0.255	490485	keystroke_o	o	n/a
245.5725	0.255	491145	keystroke_l	l	n/a
245.9475	0.255	491895	keystroke_o	o	n/a
246.2035	0.224	492407	keystroke_g	g	n/a
246.4725	0.3	492945	keystroke_i	i	n/a
246.6975	0.24	493395	keystroke_e	e	n/a
246.7575	0.075	493515	keystroke_l	l	n/a
246.8625	0.165	493725	keystroke_s	s	n/a
247.7025	0.15	495405	keystroke_Key.backspace	Key.backspace	n/a
247.9725	0.165	495945	keystroke_Key.backspace	Key.backspace	n/a
248.1385	0.164	496277	keystroke_s	s	n/a
249.4125	0.225	498825	keystroke_Key.space	Key.space	n/a
250.0575	0.27	500115	keystroke_p	p	n/a
250.2525	0.24	500505	keystroke_r	r	n/a
251.1075	0.225	502215	keystroke_o	o	n/a
251.3025	0.195	502605	keystroke_s	s	n/a
251.8125	0.3	503625	keystroke_p	p	n/a
251.9175	0.18	503835	keystroke_s	s	n/a
252.1275	0.15	504255	keystroke_e	e	n/a
252.5325	0.12	505065	keystroke_Key.backspace	Key.backspace	n/a
252.7875	0.105	505575	keystroke_Key.backspace	Key.backspace	n/a
253.0125	0.075	506025	keystroke_Key.backspace	Key.backspace	n/a
254.6475	0.285	509295	keystroke_p	p	n/a
254.8425	0.21	509685	keystroke_e	e	n/a
255.2325	0.21	510465	keystroke_c	c	n/a
255.7575	0.18	511515	keystroke_t	t	n/a
256.1325	0.27	512265	keystroke_Key.space	Key.space	n/a
256.8225	0.27	513645	keystroke_n	n	n/a
257.0475	0.255	514095	keystroke_o	o	n/a
257.1825	0.21	514365	keystroke_r	r	n/a
257.5425	0.24	515085	keystroke_t	t	n/a
257.7675	0.27	515535	keystroke_h	h	n/a
257.9625	0.3	515925	keystroke_e	e	n/a
258.4125	0.24	516825	keystroke_e	e	n/a
258.4275	0.03	516855	keystroke_w	w	n/a
258.6375	0.255	517275	keystroke_a	a	n/a
259.1775	0.15	518355	keystroke_Key.backspace	Key.backspace	n/a
259.4625	0.105	518925	keystroke_Key.backspace	Key.backspace	n/a
259.5975	0.18	519195	keystroke_Key.backspace	Key.backspace	n/a
259.8375	0.24	519675	keystroke_a	a	n/a
260.0175	0.3	520035	keystroke_s	s	n/a
260.3025	0.165	520605	keystroke_t	t	n/a
261.0675	0.195	522135	keystroke_Key.enter	Key.enter	n/a
261.27	19.3885	522540	prompt	n/a	dayton tear attractions enrollment\n
262.2825	0.3	524565	keystroke_d	d	n/a
262.5675	0.255	525135	keystroke_a	a	n/a
262.8675	0.211	525735	keystroke_y	y	n/a
263.3025	0.24	526605	keystroke_t	t	n/a
263.5875	0.42	527175	keystroke_o	o	n/a
263.8725	0.195	527745	keystroke_n	n	n/a
264.2475	0.255	528495	keystroke_Key.space	Key.space	n/a
264.4725	0.225	528945	keystroke_t	t	n/a
264.6985	0.299	529397	keystroke_e	e	n/a
264.9675	0.3	529935	keystroke_a	a	n/a
265.2525	0.105	530505	keystroke_r	r	n/a
265.4925	0.24	530985	keystroke_Key.space	Key.space	n/a
266.4075	0.21	532815	keystroke_a	a	n/a
266.8425	0.195	533685	keystroke_t	t	n/a
267.2625	0.316	534525	keystroke_t	t	n/a
267.7425	0.255	535485	keystroke_r	r	n/a
267.9685	0.3	535937	keystroke_a	a	n/a
268.4025	0.24	536805	keystroke_c	c	n/a
269.1075	0.12	538215	keystroke_r	r	n/a
269.9925	0.18	539985	keystroke_Key.backspace	Key.backspace	n/a
270.7725	0.18	541545	keystroke_t	t	n/a
271.0735	0.179	542147	keystroke_i	i	n/a
274.271	0.282	548542	keystroke_o	o	n/a
274.462	0.21	548924	keystroke_n	n	n/a
274.642	0.211	549284	keystroke_s	s	n/a
275.122	0.255	550244	keystroke_Key.space	Key.space	n/a
275.783	0.195	551566	keystroke_e	e	n/a
276.037	0.226	552074	keystroke_n	n	n/a
276.668	0.224	553336	keystroke_r	r	n/a
276.878	0.21	553756	keystroke_o	o	n/a
277.267	0.061	554534	keystroke_l	l	n/a
277.508	0.224	555016	keystroke_l	l	n/a
278.378	0.24	556756	keystroke_m	m	n/a
278.873	0.255	557746	keystroke_e	e	n/a
279.473	0.18	558946	keystroke_n	n	n/a
279.848	0.1795	559696	keystroke_t	t	n/a
280.4025	0.254	560805	keystroke_Key.enter	Key.enter	n/a
280.6635	10.6455	561327	prompt	n/a	dare listing need rarely\n
281.5425	0.239	563085	keystroke_d	d	n/a
281.8725	0.284	563745	keystroke_a	a	n/a
282.1725	0.24	564345	keystroke_r	r	n/a
282.3225	0.315	564645	keystroke_e	e	n/a
282.6525	0.284	565305	keystroke_Key.space	Key.space	n/a
283.1315	0.301	566263	keystroke_l	l	n/a
283.3575	0.225	566715	keystroke_i	i	n/a
283.5065	0.45	567013	keystroke_s	s	n/a
284.0175	0.3	568035	keystroke_t	t	n/a
284.7975	0.405	569595	keystroke_i	i	n/a
285.0525	0.225	570105	keystroke_n	n	n/a
285.4275	0.3	570855	keystroke_g	g	n/a
285.8015	0.316	571603	keystroke_Key.space	Key.space	n/a
286.9575	0.27	573915	keystroke_n	n	n/a
287.1975	0.135	574395	keystroke_e	e	n/a
287.4525	0.195	574905	keystroke_e	e	n/a
287.8275	0.21	575655	keystroke_d	d	n/a
288.0665	0.3	576133	keystroke_Key.space	Key.space	n/a
288.8475	0.27	577695	keystroke_r	r	n/a
289.1775	0.39	578355	keystroke_a	a	n/a
289.5525	0.285	579105	keystroke_r	r	n/a
289.7625	0.21	579525	keystroke_e	e	n/a
289.9425	0.27	579885	keystroke_l	l	n/a
290.4825	0.195	580965	keystroke_y	y	n/a
291.0975	0.21	582195	keystroke_Key.enter	Key.enter	n/a
291.3145	18.67	582629	prompt	n/a	coding controllers swap officials\n
294.0705	0.177	588141	keystroke_c	c	n/a
294.2775	0.255	588555	keystroke_o	o	n/a
294.5175	0.24	589035	keystroke_d	d	n/a
294.8475	0.36	589695	keystroke_i	i	n/a
295.0725	0.165	590145	keystroke_n	n	n/a
295.3575	0.21	590715	keystroke_g	g	n/a
295.6425	0.255	591285	keystroke_Key.space	Key.space	n/a
296.0775	0.12	592155	keystroke_c	c	n/a
296.1675	0.42	592335	keystroke_o	o	n/a
296.4075	0.195	592815	keystroke_n	n	n/a
296.7675	0.21	593535	keystroke_t	t	n/a
297.1275	0.225	594255	keystroke_r	r	n/a
297.3075	0.165	594615	keystroke_o	o	n/a
297.6075	0.135	595215	keystroke_l	l	n/a
297.8325	0.225	595665	keystroke_l	l	n/a
298.0125	0.255	596025	keystroke_e	e	n/a
298.2075	0.24	596415	keystroke_r	r	n/a
298.3725	0.285	596745	keystroke_s	s	n/a
298.7925	0.255	597585	keystroke_Key.space	Key.space	n/a
299.0625	0.165	598125	keystroke_s	s	n/a
299.4075	0.285	598815	keystroke_w	w	n/a
299.6175	0.255	599235	keystroke_a	a	n/a
300.0975	0.24	600195	keystroke_p	p	n/a
300.4875	0.27	600975	keystroke_Key.space	Key.space	n/a
300.8325	0.315	601665	keystroke_o	o	n/a
301.1025	0.195	602205	keystroke_d	d	n/a
301.4775	0.315	602955	keystroke_d	d	n/a
302.2125	0.165	604425	keystroke_Key.backspace	Key.backspace	n/a
302.5275	0.15	605055	keystroke_Key.backspace	Key.backspace	n/a
302.9025	0.21	605805	keystroke_f	f	n/a
303.3525	0.165	606705	keystroke_Key.backspace	Key.backspace	n/a
303.6525	0.135	607305	keystroke_Key.backspace	Key.backspace	n/a
304.0575	0.255	608115	keystroke_f	f	n/a
304.7175	0.15	609435	keystroke_Key.backspace	Key.backspace	n/a
307.2855	0.132	614571	keystroke_o	o	n/a
307.4775	0.18	614955	keystroke_f	f	n/a
307.7925	0.21	615585	keystroke_f	f	n/a
308.1225	0.2395	616245	keystroke_i	i	n/a
308.333	0.21	616666	keystroke_c	c	n/a
308.633	0.24	617266	keystroke_i	i	n/a
308.797	0.255	617594	keystroke_a	a	n/a
309.068	0.24	618136	keystroke_l	l	n/a
309.277	0.286	618554	keystroke_s	s	n/a
309.743	0.239	619486	keystroke_Key.enter	Key.enter	n/a
309.992	24.338	619984	prompt	n/a	surge reserved wiley opposite\n
311.033	0.179	622066	keystroke_s	s	n/a
311.378	0.225	622756	keystroke_u	u	n/a
311.527	0.21	623054	keystroke_r	r	n/a
311.978	0.27	623956	keystroke_g	g	n/a
312.218	0.24	624436	keystroke_e	e	n/a
312.743	0.194	625486	keystroke_Key.space	Key.space	n/a
313.222	0.301	626444	keystroke_r	r	n/a
313.433	0.24	626866	keystroke_e	e	n/a
313.627	0.361	627254	keystroke_s	s	n/a
313.943	0.3	627886	keystroke_e	e	n/a
314.213	0.195	628426	keystroke_r	r	n/a
314.783	0.225	629566	keystroke_v	v	n/a
314.993	0.21	629986	keystroke_e	e	n/a
315.413	0.285	630826	keystroke_d	d	n/a
315.892	0.24	631784	keystroke_Key.space	Key.space	n/a
316.298	0.285	632596	keystroke_w	w	n/a
316.943	0.255	633886	keystroke_i	i	n/a
317.168	0.27	634336	keystroke_l	l	n/a
319.616	0.132	639232	keystroke_e	e	n/a
319.898	0.195	639796	keystroke_y	y	n/a
322.796	0.117	645592	keystroke_.	.	n/a
323.528	0.195	647056	keystroke_Key.space	Key.space	n/a
325.478	0.3	650956	keystroke_p	p	n/a
325.808	0.03	651616	keystroke_p	p	n/a
328.556	0.057	657112	keystroke_Key.backspace	Key.backspace	n/a
328.763	0.135	657526	keystroke_Key.backspace	Key.backspace	n/a
331.662	0.146	663324	keystroke_o	o	n/a
332.1375	0.15	664275	keystroke_p	p	n/a
332.3925	0.18	664785	keystroke_p	p	n/a
332.6625	0.3	665325	keystroke_o	o	n/a
332.9175	0.2405	665835	keystroke_s	s	n/a
333.278	0.3	666556	keystroke_i	i	n/a
333.6225	0.225	667245	keystroke_t	t	n/a
333.8175	0.195	667635	keystroke_e	e	n/a
334.1325	0.195	668265	keystroke_Key.enter	Key.enter	n/a
334.335	13.915	668670	prompt	n/a	believes soul pillow inspired\n
335.498	0.2245	670996	keystroke_b	b	n/a
335.7075	0.0455	671415	keystroke_l	l	n/a
335.7075	0.24	671415	keystroke_e	e	n/a
336.788	0.2395	673576	keystroke_i	i	n/a
337.013	0.1945	674026	keystroke_e	e	n/a
337.2825	0.2705	674565	keystroke_v	v	n/a
337.5225	0.195	675045	keystroke_e	e	n/a
337.5675	0.135	675135	keystroke_r	r	n/a
337.6725	0.21	675345	keystroke_s	s	n/a
338.0175	0.225	676035	keystroke_Key.space	Key.space	n/a
338.7075	0.21	677415	keystroke_s	s	n/a
339.128	0.3895	678256	keystroke_o	o	n/a
339.4875	0.18	678975	keystroke_u	u	n/a
340.1025	0.15	680205	keystroke_l	l	n/a
340.8975	0.255	681795	keystroke_Key.space	Key.space	n/a
341.5425	0.27	683085	keystroke_p	p	n/a
342.1875	0.21	684375	keystroke_i	i	n/a
342.4875	0.195	684975	keystroke_l	l	n/a
342.8175	0.165	685635	keystroke_l	l	n/a
343.1325	0.24	686265	keystroke_o	o	n/a
343.3125	0.18	686625	keystroke_w	w	n/a
343.5975	0.225	687195	keystroke_Key.space	Key.space	n/a
343.9725	0.195	687945	keystroke_i	i	n/a
344.0175	0.225	688035	keystroke_n	n	n/a
344.2725	0.195	688545	keystroke_s	s	n/a
344.7075	0.27	689415	keystroke_p	p	n/a
344.9625	0.21	689925	keystroke_r	r	n/a
345.6825	0.15	691365	keystroke_Key.backspace	Key.backspace	n/a
346.6575	0.21	693315	keystroke_i	i	n/a
346.8375	0.27	693675	keystroke_r	r	n/a
347.0325	0.21	694065	keystroke_e	e	n/a
347.4825	0.225	694965	keystroke_d	d	n/a
348.0375	0.21	696075	keystroke_Key.enter	Key.enter	n/a
348.256	20.53	696512	prompt	n/a	destination personnel citizen plug\n
349.2375	0.21	698475	keystroke_d	d	n/a
349.7025	0.225	699405	keystroke_e	e	n/a
349.7185	0.029	699437	keystroke_f	f	n/a
349.8975	0.285	699795	keystroke_s	s	n/a
350.4225	0.165	700845	keystroke_Key.backspace	Key.backspace	n/a
350.7075	0.135	701415	keystroke_Key.backspace	Key.backspace	n/a
350.8575	0.24	701715	keystroke_s	s	n/a
351.3225	0.24	702645	keystroke_t	t	n/a
351.8175	0.33	703635	keystroke_i	i	n/a
352.0435	0.195	704087	keystroke_n	n	n/a
352.2225	0.225	704445	keystroke_a	a	n/a
352.4175	0.18	704835	keystroke_t	t	n/a
352.5825	0.225	705165	keystroke_i	i	n/a
352.7475	0.271	705495	keystroke_o	o	n/a
352.8375	0.21	705675	keystroke_n	n	n/a
353.3025	0.315	706605	keystroke_Key.space	Key.space	n/a
353.9175	0.271	707835	keystroke_p	p	n/a
354.1425	0.24	708285	keystroke_e	e	n/a
354.3075	0.285	708615	keystroke_r	r	n/a
354.7735	0.24	709547	keystroke_s	s	n/a
354.9685	0.299	709937	keystroke_o	o	n/a
355.2225	0.166	710445	keystroke_n	n	n/a
355.4625	0.226	710925	keystroke_n	n	n/a
355.8525	0.255	711705	keystroke_e	e	n/a
356.1375	0.225	712275	keystroke_l	l	n/a
356.5425	0.21	713085	keystroke_Key.space	Key.space	n/a
356.8435	0.239	713687	keystroke_c	c	n/a
357.1135	0.239	714227	keystroke_i	i	n/a
357.3385	0.134	714677	keystroke_w	w	n/a
357.4575	0.256	714915	keystroke_t	t	n/a
358.0425	0.15	716085	keystroke_Key.backspace	Key.backspace	n/a
358.3125	0.15	716625	keystroke_Key.backspace	Key.backspace	n/a
358.5075	0.271	717015	keystroke_t	t	n/a
359.0475	0.241	718095	keystroke_i	i	n/a
359.3035	0.21	718607	keystroke_z	z	n/a
359.3185	0.044	718637	keystroke_i	i	n/a
359.6025	0.24	719205	keystroke_e	e	n/a
359.8135	0.195	719627	keystroke_n	n	n/a
360.9675	0.12	721935	keystroke_Key.backspace	Key.backspace	n/a
361.2075	0.3	722415	keystroke_Key.backspace	Key.backspace	n/a
361.5835	0.255	723167	keystroke_e	e	n/a
362.2575	0.031	724515	keystroke_Key.backspace	Key.backspace	n/a
362.4075	0.105	724815	keystroke_Key.backspace	Key.backspace	n/a
363.0225	0.135	726045	keystroke_Key.backspace	Key.backspace	n/a
364.2975	0.286	728595	keystroke_z	z	n/a
365.2275	0.225	730455	keystroke_e	e	n/a
365.6485	0.21	731297	keystroke_n	n	n/a
366.2025	0.27	732405	keystroke_Key.space	Key.space	n/a
366.9225	0.241	733845	keystroke_p	p	n/a
367.3435	0.284	734687	keystroke_l	l	n/a
367.8385	0.24	735677	keystroke_u	u	n/a
368.2285	0.195	736457	keystroke_g	g	n/a
368.6025	0.181	737205	keystroke_Key.enter	Key.enter	n/a
368.7905	34.885	737581	prompt	n/a	guess eventually formed evaluated\n
375.6715	0.147	751343	keystroke_g	g	n/a
375.8935	0.195	751787	keystroke_u	u	n/a
376.1035	0.24	752207	keystroke_e	e	n/a
376.2535	0.21	752507	keystroke_s	s	n/a
376.5385	0.24	753077	keystroke_s	s	n/a
377.0935	0.255	754187	keystroke_Key.space	Key.space	n/a
377.5435	0.15	755087	keystroke_e	e	n/a
377.7985	0.21	755597	keystroke_v	v	n/a
377.9785	0.255	755957	keystroke_e	e	n/a
378.2335	0.21	756467	keystroke_n	n	n/a
378.8635	0.225	757727	keystroke_t	t	n/a
379.1035	0.24	758207	keystroke_u	u	n/a
379.3585	0.27	758717	keystroke_a	a	n/a
379.5835	0.105	759167	keystroke_l	l	n/a
379.8085	0.165	759617	keystroke_l	l	n/a
380.1685	0.225	760337	keystroke_y	y	n/a
380.4985	0.195	760997	keystroke_Key.space	Key.space	n/a
380.9485	0.195	761897	keystroke_f	f	n/a
381.2035	0.255	762407	keystroke_i	i	n/a
381.4435	0.18	762887	keystroke_r	r	n/a
381.7135	0.21	763427	keystroke_n	n	n/a
381.9385	0.18	763877	keystroke_e	e	n/a
382.3735	0.195	764747	keystroke_d	d	n/a
382.5385	0.285	765077	keystroke_Key.space	Key.space	n/a
382.8385	0.1645	765677	keystroke_e	e	n/a
383.243	0.301	766486	keystroke_v	v	n/a
385.463	0.135	770926	keystroke_Key.backspace	Key.backspace	n/a
385.718	0.135	771436	keystroke_Key.backspace	Key.backspace	n/a
385.973	0.135	771946	keystroke_Key.backspace	Key.backspace	n/a
386.198	0.135	772396	keystroke_Key.backspace	Key.backspace	n/a
386.453	0.105	772906	keystroke_Key.backspace	Key.backspace	n/a
386.828	0.225	773656	keystroke_Key.backspace	Key.backspace	n/a
387.234	0.239	774468	keystroke_Key.backspace	Key.backspace	n/a
387.773	0.18	775546	keystroke_Key.backspace	Key.backspace	n/a
391.302	0.001	782604	keystroke_o	o	n/a
391.344	0.195	782688	keystroke_r	r	n/a
391.734	0.12	783468	keystroke_n	n	n/a
392.259	0.195	784518	keystroke_e	e	n/a
394.239	0.135	788478	keystroke_Key.backspace	Key.backspace	n/a
394.479	0.21	788958	keystroke_Key.backspace	Key.backspace	n/a
395.979	0.165	791958	keystroke_m	m	n/a
396.129	0.18	792258	keystroke_e	e	n/a
396.474	0.18	792948	keystroke_d	d	n/a
396.953	0.181	793906	keystroke_Key.space	Key.space	n/a
397.419	0.255	794838	keystroke_e	e	n/a
397.794	0.225	795588	keystroke_v	v	n/a
398.829	0.225	797658	keystroke_a	a	n/a
399.594	0.24	799188	keystroke_l	l	n/a
399.9835	0.12	799967	keystroke_s	s	n/a
400.1635	0.2405	800327	keystroke_u	u	n/a
400.7335	0.15	801467	keystroke_Key.backspace	Key.backspace	n/a
401.0035	0.1505	802007	keystroke_Key.backspace	Key.backspace	n/a
401.559	0.2245	803118	keystroke_u	u	n/a
401.8285	0.2855	803657	keystroke_a	a	n/a
402.1585	0.21	804317	keystroke_t	t	n/a
402.3535	0.2105	804707	keystroke_e	e	n/a
402.8035	0.2105	805607	keystroke_d	d	n/a
403.374	0.2995	806748	keystroke_Key.enter	Key.enter	n/a
403.681	36.325	807362	prompt	n/a	wooden vegetables revolution christina\n
404.8285	0.075	809657	keystroke_v	v	n/a
405.0685	0.1655	810137	keystroke_w	w	n/a
405.3685	0.15	810737	keystroke_Key.backspace	Key.backspace	n/a
405.6235	0.225	811247	keystroke_Key.backspace	Key.backspace	n/a
405.9085	0.36	811817	keystroke_w	w	n/a
406.0285	0.045	812057	keystroke_p	p	n/a
406.4335	0.135	812867	keystroke_o	o	n/a
406.8985	0.165	813797	keystroke_Key.backspace	Key.backspace	n/a
407.3335	0.15	814667	keystroke_Key.backspace	Key.backspace	n/a
410.9365	0.103	821873	keystroke_o	o	n/a
411.1285	0.195	822257	keystroke_o	o	n/a
411.4285	0.24	822857	keystroke_d	d	n/a
411.9385	0.27	823877	keystroke_e	e	n/a
412.1635	0.21	824327	keystroke_n	n	n/a
412.5385	0.195	825077	keystroke_Key.space	Key.space	n/a
412.8685	0.241	825737	keystroke_v	v	n/a
413.1235	0.241	826247	keystroke_e	e	n/a
413.6795	0.239	827359	keystroke_g	g	n/a
413.9035	0.24	827807	keystroke_e	e	n/a
414.2935	0.316	828587	keystroke_t	t	n/a
414.5935	0.27	829187	keystroke_a	a	n/a
415.1485	0.165	830297	keystroke_b	b	n/a
415.5095	0.405	831019	keystroke_l	l	n/a
415.7645	0.209	831529	keystroke_e	e	n/a
415.8985	0.21	831797	keystroke_s	s	n/a
416.3645	0.209	832729	keystroke_Key.space	Key.space	n/a
417.2345	0.194	834469	keystroke_r	r	n/a
417.3685	0.166	834737	keystroke_e	e	n/a
417.6985	0.2095	835397	keystroke_v	v	n/a
417.8335	0.1505	835667	keystroke_o	o	n/a
418.1935	0.33	836387	keystroke_l	l	n/a
418.5095	0.18	837019	keystroke_i	i	n/a
418.5385	0.105	837077	keystroke_u	u	n/a
419.2135	0.15	838427	keystroke_Key.backspace	Key.backspace	n/a
419.4835	0.105	838967	keystroke_Key.backspace	Key.backspace	n/a
420.1745	0.149	840349	keystroke_u	u	n/a
420.3685	0.061	840737	keystroke_w	w	n/a
420.3845	0.209	840769	keystroke_t	t	n/a
421.2235	0.166	842447	keystroke_Key.backspace	Key.backspace	n/a
421.5095	0.149	843019	keystroke_Key.backspace	Key.backspace	n/a
421.7785	0.211	843557	keystroke_t	t	n/a
422.1985	0.256	844397	keystroke_i	i	n/a
422.4845	0.3895	844969	keystroke_o	o	n/a
422.693	0.181	845386	keystroke_n	n	n/a
422.8895	0.0595	845779	keystroke_o	o	n/a
424.418	0.196	848836	keystroke_Key.backspace	Key.backspace	n/a
424.898	0.211	849796	keystroke_Key.backspace	Key.backspace	n/a
425.738	0.166	851476	keystroke_Key.backspace	Key.backspace	n/a
430.107	0.147	860214	keystroke_o	o	n/a
430.479	0.225	860958	keystroke_n	n	n/a
430.989	0.195	861978	keystroke_Key.space	Key.space	n/a
432.369	0.165	864738	keystroke_c	c	n/a
433.599	0.195	867198	keystroke_h	h	n/a
433.839	0.24	867678	keystroke_r	r	n/a
434.034	0.21	868068	keystroke_i	i	n/a
434.229	0.255	868458	keystroke_s	s	n/a
434.514	0.21	869028	keystroke_t	t	n/a
434.769	0.225	869538	keystroke_o	o	n/a
434.934	0.165	869868	keystroke_n	n	n/a
435.309	0.135	870618	keystroke_a	a	n/a
436.839	0.12	873678	keystroke_Key.backspace	Key.backspace	n/a
437.094	0.12	874188	keystroke_Key.backspace	Key.backspace	n/a
437.334	0.105	874668	keystroke_Key.backspace	Key.backspace	n/a
438.729	0.18	877458	keystroke_i	i	n/a
439.119	0.195	878238	keystroke_n	n	n/a
439.315	0.224	878630	keystroke_a	a	n/a
439.824	0.18	879648	keystroke_Key.enter	Key.enter	n/a
440.012	23.484	880024	prompt	n/a	environments precision help researcher\n
441.144	0.195	882288	keystroke_e	e	n/a
441.5785	0.135	883157	keystroke_v	v	n/a
442.164	0.1645	884328	keystroke_Key.backspace	Key.backspace	n/a
442.809	0.21	885618	keystroke_n	n	n/a
443.0935	0.135	886187	keystroke_e	e	n/a
443.7835	0.165	887567	keystroke_Key.backspace	Key.backspace	n/a
443.7985	0.255	887597	keystroke_v	v	n/a
444.5635	0.195	889127	keystroke_i	i	n/a
444.7595	0.254	889519	keystroke_r	r	n/a
446.4085	0.435	892817	keystroke_o	o	n/a
446.6485	0.21	893297	keystroke_n	n	n/a
446.8885	0.21	893777	keystroke_e	e	n/a
447.8935	0.18	895787	keystroke_Key.backspace	Key.backspace	n/a
448.6585	0.21	897317	keystroke_m	m	n/a
448.7785	0.24	897557	keystroke_e	e	n/a
449.3635	0.21	898727	keystroke_n	n	n/a
451.2835	0.33	902567	keystroke_t	t	n/a
451.5535	0.195	903107	keystroke_s	s	n/a
452.3335	0.225	904667	keystroke_Key.space	Key.space	n/a
453.3085	0.255	906617	keystroke_p	p	n/a
453.4735	0.225	906947	keystroke_r	r	n/a
453.6085	0.225	907217	keystroke_e	e	n/a
454.1035	0.225	908207	keystroke_c	c	n/a
454.7185	0.24	909437	keystroke_i	i	n/a
454.9135	0.195	909827	keystroke_s	s	n/a
455.0635	0.24	910127	keystroke_i	i	n/a
455.2585	0.33	910517	keystroke_o	o	n/a
455.4685	0.24	910937	keystroke_n	n	n/a
455.8435	0.195	911687	keystroke_Key.space	Key.space	n/a
456.5485	0.24	913097	keystroke_h	h	n/a
456.7435	0.24	913487	keystroke_e	e	n/a
456.9235	0.225	913847	keystroke_l	l	n/a
457.4485	0.27	914897	keystroke_p	p	n/a
458.1835	0.225	916367	keystroke_Key.space	Key.space	n/a
458.5885	0.255	917177	keystroke_r	r	n/a
458.7235	0.24	917447	keystroke_e	e	n/a
458.9485	0.18	917897	keystroke_a	a	n/a
459.0835	0.12	918167	keystroke_s	s	n/a
459.864	0.255	919728	keystroke_Key.backspace	Key.backspace	n/a
460.254	0.165	920508	keystroke_Key.backspace	Key.backspace	n/a
460.599	0.27	921198	keystroke_s	s	n/a
460.764	0.225	921528	keystroke_e	e	n/a
461.109	0.225	922218	keystroke_a	a	n/a
461.319	0.135	922638	keystroke_r	r	n/a
461.979	0.195	923958	keystroke_c	c	n/a
462.399	0.24	924798	keystroke_h	h	n/a
462.624	0.195	925248	keystroke_e	e	n/a
462.744	0.18	925488	keystroke_r	r	n/a
463.284	0.21	926568	keystroke_Key.enter	Key.enter	n/a
463.5015	12.6995	927003	prompt	n/a	discovery shuttle born linking\n
464.634	0.18	929268	keystroke_d	d	n/a
464.844	0.24	929688	keystroke_i	i	n/a
465.039	0.285	930078	keystroke_s	s	n/a
466.104	0.225	932208	keystroke_c	c	n/a
466.314	0.24	932628	keystroke_o	o	n/a
466.629	0.225	933258	keystroke_v	v	n/a
466.899	0.225	933798	keystroke_e	e	n/a
467.079	0.165	934158	keystroke_r	r	n/a
467.289	0.165	934578	keystroke_y	y	n/a
467.844	0.36	935688	keystroke_Key.space	Key.space	n/a
468.534	0.225	937068	keystroke_s	s	n/a
469.104	0.24	938208	keystroke_h	h	n/a
469.734	0.225	939468	keystroke_u	u	n/a
470.034	0.21	940068	keystroke_t	t	n/a
470.349	0.195	940698	keystroke_t	t	n/a
470.574	0.285	941148	keystroke_l	l	n/a
470.844	0.18	941688	keystroke_e	e	n/a
471.084	0.195	942168	keystroke_Key.space	Key.space	n/a
471.504	0.27	943008	keystroke_b	b	n/a
471.834	0.405	943668	keystroke_o	o	n/a
472.179	0.21	944358	keystroke_r	r	n/a
472.494	0.255	944988	keystroke_n	n	n/a
472.809	0.33	945618	keystroke_Key.space	Key.space	n/a
473.409	0.375	946818	keystroke_l	l	n/a
473.724	0.27	947448	keystroke_i	i	n/a
474.204	0.3	948408	keystroke_n	n	n/a
474.354	0.27	948708	keystroke_k	k	n/a
474.8185	0.3605	949637	keystroke_i	i	n/a
475.0285	0.2405	950057	keystroke_n	n	n/a
475.419	0.18	950838	keystroke_g	g	n/a
475.884	0.315	951768	keystroke_Key.enter	Key.enter	n/a
476.2065	15.279	952413	prompt	n/a	practice recognize penalty allied\n
477.759	0.255	955518	keystroke_p	p	n/a
478.119	0.285	956238	keystroke_r	r	n/a
478.389	0.255	956778	keystroke_a	a	n/a
478.764	0.18	957528	keystroke_c	c	n/a
479.259	0.195	958518	keystroke_t	t	n/a
479.844	0.27	959688	keystroke_i	i	n/a
480.099	0.27	960198	keystroke_c	c	n/a
480.339	0.21	960678	keystroke_e	e	n/a
480.579	0.3	961158	keystroke_Key.space	Key.space	n/a
481.179	0.27	962358	keystroke_p	p	n/a
481.404	0.24	962808	keystroke_r	r	n/a
481.854	0.1495	963708	keystroke_Key.backspace	Key.backspace	n/a
482.1385	0.18	964277	keystroke_Key.backspace	Key.backspace	n/a
482.4835	0.2105	964967	keystroke_r	r	n/a
482.649	0.2095	965298	keystroke_e	e	n/a
483.0835	0.1655	966167	keystroke_c	c	n/a
483.309	0.36	966618	keystroke_o	o	n/a
483.9535	0.225	967907	keystroke_g	g	n/a
484.4485	0.375	968897	keystroke_n	n	n/a
484.7785	0.225	969557	keystroke_i	i	n/a
485.0485	0.285	970097	keystroke_z	z	n/a
485.4385	0.225	970877	keystroke_e	e	n/a
485.6335	0.21	971267	keystroke_Key.space	Key.space	n/a
486.1435	0.3	972287	keystroke_p	p	n/a
486.3085	0.255	972617	keystroke_e	e	n/a
486.7435	0.286	973487	keystroke_n	n	n/a
487.0135	0.255	974027	keystroke_a	a	n/a
487.8835	0.27	975767	keystroke_l	l	n/a
488.3345	0.209	976669	keystroke_t	t	n/a
488.5735	0.21	977147	keystroke_y	y	n/a
488.9335	0.315	977867	keystroke_Key.space	Key.space	n/a
489.6985	0.225	979397	keystroke_a	a	n/a
489.8635	0.165	979727	keystroke_l	l	n/a
490.1335	0.3	980267	keystroke_l	l	n/a
490.3735	0.285	980747	keystroke_i	i	n/a
490.5835	0.21	981167	keystroke_e	e	n/a
490.9435	0.195	981887	keystroke_d	d	n/a
491.2435	0.24	982487	keystroke_Key.enter	Key.enter	n/a
491.49	29.771	982980	prompt	n/a	promising attacked hayes november\n
492.4585	0.255	984917	keystroke_p	p	n/a
492.8785	0.21	985757	keystroke_r	r	n/a
493.0735	0.39	986147	keystroke_o	o	n/a
493.3135	0.316	986627	keystroke_m	m	n/a
493.7185	0.42	987437	keystroke_i	i	n/a
494.0185	0.225	988037	keystroke_n	n	n/a
494.8285	0.24	989657	keystroke_Key.backspace	Key.backspace	n/a
495.3385	0.241	990677	keystroke_s	s	n/a
495.7585	0.36	991517	keystroke_i	i	n/a
495.9995	0.299	991999	keystroke_n	n	n/a
496.4935	0.33	992987	keystroke_g	g	n/a
497.0635	0.18	994127	keystroke_Key.space	Key.space	n/a
497.8145	0.254	995629	keystroke_a	a	n/a
498.1285	0.135	996257	keystroke_t	t	n/a
498.4135	0.24	996827	keystroke_t	t	n/a
498.7135	0.24	997427	keystroke_a	a	n/a
499.0135	0.241	998027	keystroke_c	c	n/a
499.4045	0.254	998809	keystroke_k	k	n/a
499.5985	0.226	999197	keystroke_e	e	n/a
500.3645	0.194	1000729	keystroke_Key.space	Key.space	n/a
500.9485	0.18	1001897	keystroke_Key.backspace	Key.backspace	n/a
501.1595	0.224	1002319	keystroke_d	d	n/a
501.6235	0.255	1003247	keystroke_Key.space	Key.space	n/a
502.9885	0.286	1005977	keystroke_h	h	n/a
503.3795	0.225	1006759	keystroke_a	a	n/a
503.6185	0.226	1007237	keystroke_y	y	n/a
503.9195	0.255	1007839	keystroke_e	e	n/a
504.1145	0.195	1008229	keystroke_s	s	n/a
504.2795	0.239	1008559	keystroke_Key.space	Key.space	n/a
504.7295	0.285	1009459	keystroke_n	n	n/a
504.9995	0.27	1009999	keystroke_o	o	n/a
505.7935	0.09	1011587	keystroke_Key.space	Key.space	n/a
506.7095	0.15	1013419	keystroke_=	=	n/a
507.3085	0.225	1014617	keystroke_Key.backspace	Key.backspace	n/a
507.7445	0.165	1015489	keystroke_Key.backspace	Key.backspace	n/a
508.2835	0.165	1016567	keystroke_Key.backspace	Key.backspace	n/a
508.5985	0.24	1017197	keystroke_Key.space	Key.space	n/a
509.2885	0.211	1018577	keystroke_Key.backspace	Key.backspace	n/a
509.7685	0.165	1019537	keystroke_Key.backspace	Key.backspace	n/a
512.4875	0.237	1024975	keystroke_n	n	n/a
512.6495	0.225	1025299	keystroke_o	o	n/a
513.0245	0.225	1026049	keystroke_v	v	n/a
513.2795	0.255	1026559	keystroke_e	e	n/a
513.4895	0.24	1026979	keystroke_m	m	n/a
514.1045	0.27	1028209	keystroke_b	b	n/a
514.2845	0.3	1028569	keystroke_e	e	n/a
514.5395	0.195	1029079	keystroke_r	r	n/a
515.1245	0.225	1030249	keystroke_'	'	n/a
518.8175	0.086	1037635	keystroke_Key.right	Key.right	n/a
519.6535	0.165	1039307	keystroke_Key.backspace	Key.backspace	n/a
521.1535	0.105	1042307	keystroke_Key.enter	Key.enter	n/a
521.2655	31.211	1042531	prompt	n/a	university peripherals pencil funny\n
526.2725	0.117	1052545	keystroke_u	u	n/a
526.6895	0.285	1053379	keystroke_n	n	n/a
526.9295	0.285	1053859	keystroke_i	i	n/a
527.1395	0.255	1054279	keystroke_v	v	n/a
527.7995	0.225	1055599	keystroke_e	e	n/a
527.9945	0.24	1055989	keystroke_r	r	n/a
528.3845	0.225	1056769	keystroke_i	i	n/a
528.5345	0.255	1057069	keystroke_s	s	n/a
528.8045	0.195	1057609	keystroke_t	t	n/a
529.0145	0.21	1058029	keystroke_y	y	n/a
529.4945	0.195	1058989	keystroke_Key.space	Key.space	n/a
530.3345	0.105	1060669	keystroke_Key.backspace	Key.backspace	n/a
530.6645	0.15	1061329	keystroke_Key.backspace	Key.backspace	n/a
530.9195	0.09	1061839	keystroke_Key.backspace	Key.backspace	n/a
531.1445	0.33	1062289	keystroke_Key.backspace	Key.backspace	n/a
531.6095	0.15	1063219	keystroke_Key.backspace	Key.backspace	n/a
531.8945	0.09	1063789	keystroke_Key.backspace	Key.backspace	n/a
532.4645	0.24	1064929	keystroke_r	r	n/a
532.8395	0.225	1065679	keystroke_s	s	n/a
535.4225	0.162	1070845	keystroke_i	i	n/a
535.6295	0.18	1071259	keystroke_t	t	n/a
535.8545	0.225	1071709	keystroke_y	y	n/a
536.2445	0.21	1072489	keystroke_Key.space	Key.space	n/a
536.8895	0.255	1073779	keystroke_p	p	n/a
537.0695	0.255	1074139	keystroke_e	e	n/a
537.2795	0.165	1074559	keystroke_r	r	n/a
537.6545	0.21	1075309	keystroke_p	p	n/a
538.2695	0.165	1076539	keystroke_Key.backspace	Key.backspace	n/a
538.9295	0.1655	1077859	keystroke_i	i	n/a
539.665	0.224	1079330	keystroke_p	p	n/a
539.92	0.12	1079840	keystroke_e	e	n/a
540.054	0.166	1080108	keystroke_g	g	n/a
540.759	0.045	1081518	keystroke_Key.backspace	Key.backspace	n/a
541.435	0.104	1082870	keystroke_-	-	n/a
542.184	0.165	1084368	keystroke_Key.backspace	Key.backspace	n/a
542.514	0.12	1085028	keystroke_Key.backspace	Key.backspace	n/a
542.739	0.075	1085478	keystroke_Key.backspace	Key.backspace	n/a
544.465	0.255	1088930	keystroke_p	p	n/a
544.749	0.241	1089498	keystroke_h	h	n/a
544.899	0.165	1089798	keystroke_e	e	n/a
545.035	0.24	1090070	keystroke_r	r	n/a
545.26	0.24	1090520	keystroke_a	a	n/a
545.53	0.254	1091060	keystroke_l	l	n/a
545.71	0.18	1091420	keystroke_s	s	n/a
546.085	0.18	1092170	keystroke_Key.space	Key.space	n/a
546.759	0.226	1093518	keystroke_p	p	n/a
547.54	0.105	1095080	keystroke_i	i	n/a
548.139	0.181	1096278	keystroke_Key.backspace	Key.backspace	n/a
548.335	0.21	1096670	keystroke_e	e	n/a
548.724	0.211	1097448	keystroke_n	n	n/a
548.965	0.195	1097930	keystroke_c	c	n/a
549.145	0.285	1098290	keystroke_i	i	n/a
549.325	0.45	1098650	keystroke_l	l	n/a
549.865	0.209	1099730	keystroke_Key.space	Key.space	n/a
550.165	0.21	1100330	keystroke_f	f	n/a
550.48	0.165	1100960	keystroke_u	u	n/a
550.9	0.135	1101800	keystroke_n	n	n/a
551.185	0.21	1102370	keystroke_n	n	n/a
551.725	0.195	1103450	keystroke_y	y	n/a
552.325	0.15	1104650	keystroke_Key.enter	Key.enter	n/a
552.483	23.9935	1104966	prompt	n/a	novelty gathering fathers york\n
554.41	0.255	1108820	keystroke_n	n	n/a
554.56	0.225	1109120	keystroke_o	o	n/a
554.74	0.21	1109480	keystroke_v	v	n/a
554.995	0.18	1109990	keystroke_e	e	n/a
555.295	0.21	1110590	keystroke_l	l	n/a
555.94	0.18	1111880	keystroke_t	t	n/a
556.36	0.21	1112720	keystroke_y	y	n/a
556.9	0.045	1113800	keystroke_s	s	n/a
557.605	0.195	1115210	keystroke_Key.backspace	Key.backspace	n/a
558.19	0.24	1116380	keystroke_Key.space	Key.space	n/a
558.595	0.24	1117190	keystroke_g	g	n/a
558.805	0.27	1117610	keystroke_a	a	n/a
559.09	0.18	1118180	keystroke_t	t	n/a
559.39	0.195	1118780	keystroke_j	j	n/a
560.395	0.285	1120790	keystroke_Key.backspace	Key.backspace	n/a
563.233	0.177	1126466	keystroke_h	h	n/a
563.38	0.195	1126760	keystroke_e	e	n/a
563.695	0.15	1127390	keystroke_t	t	n/a
564.745	0.21	1129490	keystroke_Key.backspace	Key.backspace	n/a
565.12	0.225	1130240	keystroke_r	r	n/a
565.5995	0.42	1131199	keystroke_i	i	n/a
565.8545	0.21	1131709	keystroke_n	n	n/a
566.1095	0.195	1132219	keystroke_g	g	n/a
566.3795	0.21	1132759	keystroke_Key.space	Key.space	n/a
566.7995	0.33	1133599	keystroke_f	f	n/a
567.1145	0.315	1134229	keystroke_a	a	n/a
567.4895	0.165	1134979	keystroke_t	t	n/a
567.9245	0.255	1135849	keystroke_h	h	n/a
567.9545	0.045	1135909	keystroke_Key.space	Key.space	n/a
568.0895	0.27	1136179	keystroke_e	e	n/a
568.2845	0.195	1136569	keystroke_r	r	n/a
568.5845	0.315	1137169	keystroke_Key.backspace	Key.backspace	n/a
569.0045	0.105	1138009	keystroke_Key.backspace	Key.backspace	n/a
569.2145	0.135	1138429	keystroke_Key.backspace	Key.backspace	n/a
569.7995	0.225	1139599	keystroke_e	e	n/a
569.8145	0.105	1139629	keystroke_w	w	n/a
569.9345	0.18	1139869	keystroke_r	r	n/a
570.7445	0.15	1141489	keystroke_Key.backspace	Key.backspace	n/a
571.0295	0.195	1142059	keystroke_Key.backspace	Key.backspace	n/a
572.3495	0.24	1144699	keystroke_r	r	n/a
572.6495	0.15	1145299	keystroke_s	s	n/a
573.8645	0.3	1147729	keystroke_Key.space	Key.space	n/a
574.7645	0.18	1149529	keystroke_y	y	n/a
575.0645	0.315	1150129	keystroke_o	o	n/a
575.4845	0.18	1150969	keystroke_r	r	n/a
575.6945	0.24	1151389	keystroke_k	k	n/a
576.2495	0.225	1152499	keystroke_Key.enter	Key.enter	n/a
576.481	17.2315	1152962	prompt	n/a	tract attend hacker configurations\n
582.6275	0.117	1165255	keystroke_t	t	n/a
582.8795	0.225	1165759	keystroke_r	r	n/a
583.0895	0.27	1166179	keystroke_a	a	n/a
583.4495	0.09	1166899	keystroke_c	c	n/a
583.9455	0.209	1167891	keystroke_t	t	n/a
584.2745	0.255	1168549	keystroke_Key.space	Key.space	n/a
584.7105	0.269	1169421	keystroke_a	a	n/a
584.9355	0.119	1169871	keystroke_t	t	n/a
585.1745	0.27	1170349	keystroke_t	t	n/a
585.4305	0.21	1170861	keystroke_e	e	n/a
585.6245	0.24	1171249	keystroke_n	n	n/a
585.8955	0.179	1171791	keystroke_d	d	n/a
586.1045	0.1805	1172209	keystroke_Key.space	Key.space	n/a
586.72	0.21	1173440	keystroke_h	h	n/a
586.915	0.21	1173830	keystroke_a	a	n/a
587.2	0.225	1174400	keystroke_c	c	n/a
587.395	0.33	1174790	keystroke_k	k	n/a
587.665	0.21	1175330	keystroke_e	e	n/a
587.845	0.165	1175690	keystroke_r	r	n/a
587.965	0.315	1175930	keystroke_Key.space	Key.space	n/a
588.295	0.195	1176590	keystroke_c	c	n/a
588.505	0.36	1177010	keystroke_o	o	n/a
588.655	0.225	1177310	keystroke_n	n	n/a
588.835	0.225	1177670	keystroke_f	f	n/a
589.105	0.27	1178210	keystroke_i	i	n/a
589.6	0.21	1179200	keystroke_g	g	n/a
589.885	0.21	1179770	keystroke_u	u	n/a
590.215	0.33	1180430	keystroke_a	a	n/a
591.07	0.1955	1182140	keystroke_Key.backspace	Key.backspace	n/a
591.401	0.2095	1182802	keystroke_r	r	n/a
591.8055	0.224	1183611	keystroke_a	a	n/a
592.0445	0.18	1184089	keystroke_t	t	n/a
592.2395	0.225	1184479	keystroke_i	i	n/a
592.4205	0.315	1184841	keystroke_o	o	n/a
592.6145	0.211	1185229	keystroke_n	n	n/a
592.8695	0.211	1185739	keystroke_s	s	n/a
593.4995	0.21	1186999	keystroke_Key.enter	Key.enter	n/a
593.717	17.981	1187434	prompt	n/a	clouds detect locks corporation\n
595.9185	0.132	1191837	keystroke_c	c	n/a
596.0355	0.21	1192071	keystroke_l	l	n/a
596.4255	0.27	1192851	keystroke_o	o	n/a
596.6355	0.225	1193271	keystroke_u	u	n/a
597.4305	0.344	1194861	keystroke_d	d	n/a
597.7895	0.21	1195579	keystroke_s	s	n/a
598.1055	0.224	1196211	keystroke_Key.space	Key.space	n/a
599.0955	0.225	1198191	keystroke_d	d	n/a
599.4405	0.195	1198881	keystroke_e	e	n/a
599.6805	0.285	1199361	keystroke_t	t	n/a
599.9055	0.224	1199811	keystroke_e	e	n/a
600.3405	0.195	1200681	keystroke_c	c	n/a
600.8795	0.166	1201759	keystroke_t	t	n/a
601.4505	0.255	1202901	keystroke_Key.space	Key.space	n/a
602.1255	0.21	1204251	keystroke_l	l	n/a
602.5755	0.255	1205151	keystroke_o	o	n/a
602.5905	0.12	1205181	keystroke_p	p	n/a
602.9355	0.21	1205871	keystroke_c	c	n/a
603.1605	0.24	1206321	keystroke_k	k	n/a
603.8045	0.181	1207609	keystroke_Key.backspace	Key.backspace	n/a
604.1055	0.389	1208211	keystroke_Key.backspace	Key.backspace	n/a
604.7655	0.165	1209531	keystroke_Key.backspace	Key.backspace	n/a
606.0555	0.195	1212111	keystroke_c	c	n/a
606.2655	0.285	1212531	keystroke_k	k	n/a
606.5655	0.24	1213131	keystroke_s	s	n/a
607.1805	0.24	1214361	keystroke_Key.space	Key.space	n/a
608.1255	0.195	1216251	keystroke_c	c	n/a
608.2455	0.36	1216491	keystroke_o	o	n/a
608.6505	0.195	1217301	keystroke_r	r	n/a
609.1305	0.195	1218261	keystroke_p	p	n/a
609.2655	0.36	1218531	keystroke_o	o	n/a
609.6105	0.255	1219221	keystroke_r	r	n/a
609.9105	0.255	1219821	keystroke_a	a	n/a
610.1355	0.195	1220271	keystroke_t	t	n/a
610.3005	0.33	1220601	keystroke_i	i	n/a
610.5105	0.225	1221021	keystroke_o	o	n/a
610.7055	0.27	1221411	keystroke_n	n	n/a
611.4105	0.12	1222821	keystroke_s	s	n/a
611.4405	0.255	1222881	keystroke_Key.enter	Key.enter	n/a
611.703	15.819	1223406	prompt	n/a	containers comes mess quality\n
613.0755	0.27	1226151	keystroke_c	c	n/a
613.2705	0.405	1226541	keystroke_o	o	n/a
613.4805	0.24	1226961	keystroke_n	n	n/a
614.1105	0.27	1228221	keystroke_t	t	n/a
614.3655	0.195	1228731	keystroke_a	a	n/a
614.5155	0.33	1229031	keystroke_i	i	n/a
614.6655	0.21	1229331	keystroke_n	n	n/a
614.8005	0.285	1229601	keystroke_e	e	n/a
614.9955	0.3	1229991	keystroke_r	r	n/a
615.1605	0.255	1230321	keystroke_s	s	n/a
615.4305	0.24	1230861	keystroke_Key.space	Key.space	n/a
615.8205	0.345	1231641	keystroke_c	c	n/a
616.2405	0.345	1232481	keystroke_o	o	n/a
616.7055	0.255	1233411	keystroke_m	m	n/a
616.9455	0.27	1233891	keystroke_e	e	n/a
617.1405	0.21	1234281	keystroke_s	s	n/a
617.4855	0.21	1234971	keystroke_Key.space	Key.space	n/a
617.9655	0.21	1235931	keystroke_m	m	n/a
618.1905	0.21	1236381	keystroke_e	e	n/a
618.3255	0.45	1236651	keystroke_s	s	n/a
618.9555	0.075	1237911	keystroke_s	s	n/a
619.9305	0.315	1239861	keystroke_Key.space	Key.space	n/a
620.3205	0.27	1240641	keystroke_q	q	n/a
620.6955	0.225	1241391	keystroke_u	u	n/a
620.8755	0.255	1241751	keystroke_a	a	n/a
621.0705	0.285	1242141	keystroke_l	l	n/a
621.2355	0.255	1242471	keystroke_i	i	n/a
621.3705	0.075	1242741	keystroke_l	l	n/a
621.5055	0.21	1243011	keystroke_t	t	n/a
621.8505	0.165	1243701	keystroke_y	y	n/a
623.0955	0.225	1246191	keystroke_Key.backspace	Key.backspace	n/a
623.5905	0.165	1247181	keystroke_Key.backspace	Key.backspace	n/a
626.5785	0.117	1253157	keystroke_y	y	n/a
627.3105	0.21	1254621	keystroke_Key.enter	Key.enter	n/a
627.528	29.2895	1255056	prompt	n/a	immediately direct court airfare\n
630.2235	0.222	1260447	keystroke_i	i	n/a
630.3555	0.18	1260711	keystroke_m	m	n/a
630.9405	0.285	1261881	keystroke_e	e	n/a
631.5255	0.165	1263051	keystroke_Key.backspace	Key.backspace	n/a
632.4105	0.24	1264821	keystroke_m	m	n/a
632.6805	0.196	1265361	keystroke_e	e	n/a
633.5955	0.21	1267191	keystroke_d	d	n/a
633.6255	0.075	1267251	keystroke_s	s	n/a
634.5705	0.18	1269141	keystroke_Key.backspace	Key.backspace	n/a
637.0785	0.177	1274157	keystroke_i	i	n/a
637.2405	0.285	1274481	keystroke_a	a	n/a
637.6305	0.255	1275261	keystroke_t	t	n/a
637.8405	0.21	1275681	keystroke_e	e	n/a
638.2315	0.224	1276463	keystroke_l	l	n/a
638.8155	0.15	1277631	keystroke_y	y	n/a
639.2805	0.225	1278561	keystroke_Key.space	Key.space	n/a
639.9705	0.195	1279941	keystroke_d	d	n/a
640.4355	0.256	1280871	keystroke_r	r	n/a
640.6455	0.15	1281291	keystroke_e	e	n/a
640.9755	0.226	1281951	keystroke_c	c	n/a
641.6205	0.09	1283241	keystroke_w	w	n/a
641.6655	0.18	1283331	keystroke_t	t	n/a
642.2505	0.135	1284501	keystroke_Key.backspace	Key.backspace	n/a
642.5055	0.075	1285011	keystroke_Key.backspace	Key.backspace	n/a
642.7005	0.105	1285401	keystroke_Key.backspace	Key.backspace	n/a
642.8805	0.105	1285761	keystroke_Key.backspace	Key.backspace	n/a
643.1055	0.12	1286211	keystroke_Key.backspace	Key.backspace	n/a
644.3665	0.194	1288733	keystroke_i	i	n/a
644.9515	0.165	1289903	keystroke_r	r	n/a
645.3555	0.21	1290711	keystroke_c	c	n/a
645.5505	0.166	1291101	keystroke_e	e	n/a
645.9705	0.136	1291941	keystroke_=	=	n/a
646.2415	0.089	1292483	keystroke_=	=	n/a
646.4815	0.059	1292963	keystroke_=	=	n/a
646.9455	0.195	1293891	keystroke_Key.backspace	Key.backspace	n/a
647.5755	0.075	1295151	keystroke_Key.backspace	Key.backspace	n/a
647.8005	0.15	1295601	keystroke_Key.backspace	Key.backspace	n/a
648.0855	0.12	1296171	keystroke_Key.backspace	Key.backspace	n/a
648.3405	0.105	1296681	keystroke_Key.backspace	Key.backspace	n/a
648.5215	0.24	1297043	keystroke_e	e	n/a
648.9705	0.255	1297941	keystroke_c	c	n/a
649.4665	0.21	1298933	keystroke_t	t	n/a
649.7955	0.225	1299591	keystroke_Key.space	Key.space	n/a
650.936	0.1955	1301872	keystroke_x	x	n/a
651.731	0.209	1303462	keystroke_Key.backspace	Key.backspace	n/a
652.9015	0.1945	1305803	keystroke_c	c	n/a
653.1115	0.3445	1306223	keystroke_o	o	n/a
653.291	0.1805	1306582	keystroke_u	u	n/a
653.4865	0.2245	1306973	keystroke_r	r	n/a
653.86	0.226	1307720	keystroke_t	t	n/a
654.086	0.224	1308172	keystroke_Key.space	Key.space	n/a
654.3865	0.2095	1308773	keystroke_a	a	n/a
654.566	0.2555	1309132	keystroke_i	i	n/a
654.791	0.194	1309582	keystroke_r	r	n/a
655.151	0.33	1310302	keystroke_f	f	n/a
655.436	0.254	1310872	keystroke_a	a	n/a
656.036	0.2255	1312072	keystroke_r	r	n/a
656.186	0.165	1312372	keystroke_e	e	n/a
656.621	0.194	1313242	keystroke_Key.enter	Key.enter	n/a
656.8235	15.955	1313647	prompt	n/a	perceived previously cams imperial\n
658.151	0.239	1316302	keystroke_p	p	n/a
658.346	0.195	1316692	keystroke_e	e	n/a
658.481	0.15	1316962	keystroke_r	r	n/a
658.856	0.24	1317712	keystroke_c	c	n/a
659.081	0.18	1318162	keystroke_e	e	n/a
659.29	0.256	1318580	keystroke_i	i	n/a
659.636	0.285	1319272	keystroke_v	v	n/a
659.936	0.225	1319872	keystroke_e	e	n/a
660.356	0.24	1320712	keystroke_d	d	n/a
660.6565	0.2245	1321313	keystroke_Key.space	Key.space	n/a
661.451	0.21	1322902	keystroke_p	p	n/a
661.601	0.3	1323202	keystroke_r	r	n/a
661.811	0.21	1323622	keystroke_e	e	n/a
662.246	0.225	1324492	keystroke_v	v	n/a
662.516	0.165	1325032	keystroke_u	u	n/a
662.606	0.06	1325212	keystroke_i	i	n/a
663.386	0.18	1326772	keystroke_Key.backspace	Key.backspace	n/a
663.701	0.135	1327402	keystroke_Key.backspace	Key.backspace	n/a
665.141	0.225	1330282	keystroke_i	i	n/a
665.381	0.285	1330762	keystroke_o	o	n/a
665.591	0.195	1331182	keystroke_u	u	n/a
665.966	0.18	1331932	keystroke_s	s	n/a
666.371	0.195	1332742	keystroke_l	l	n/a
666.851	0.21	1333702	keystroke_y	y	n/a
667.391	0.285	1334782	keystroke_Key.space	Key.space	n/a
667.541	0.12	1335082	keystroke_w	w	n/a
668.186	0.21	1336372	keystroke_Key.backspace	Key.backspace	n/a
668.516	0.33	1337032	keystroke_c	c	n/a
668.831	0.255	1337662	keystroke_a	a	n/a
669.191	0.225	1338382	keystroke_m	m	n/a
669.386	0.21	1338772	keystroke_s	s	n/a
669.866	0.24	1339732	keystroke_Key.space	Key.space	n/a
670.136	0.36	1340272	keystroke_i	i	n/a
670.346	0.24	1340692	keystroke_m	m	n/a
670.991	0.3	1341982	keystroke_p	p	n/a
671.156	0.18	1342312	keystroke_e	e	n/a
671.306	0.195	1342612	keystroke_r	r	n/a
671.561	0.24	1343122	keystroke_i	i	n/a
671.741	0.255	1343482	keystroke_a	a	n/a
671.936	0.2395	1343872	keystroke_l	l	n/a
672.5205	0.255	1345041	keystroke_Key.enter	Key.enter	n/a
672.7835	29.44	1345567	prompt	n/a	embassy slideshow cached physiology\n
673.7655	0.211	1347531	keystroke_e	e	n/a
674.1105	0.15	1348221	keystroke_m	m	n/a
674.6205	0.211	1349241	keystroke_b	b	n/a
674.8755	0.315	1349751	keystroke_a	a	n/a
675.3115	0.059	1350623	keystroke_s	s	n/a
675.4455	0.106	1350891	keystroke_s	s	n/a
675.7015	0.104	1351403	keystroke_s	s	n/a
676.2855	0.18	1352571	keystroke_Key.backspace	Key.backspace	n/a
676.9005	0.165	1353801	keystroke_y	y	n/a
677.4855	0.3	1354971	keystroke_Key.space	Key.space	n/a
677.8915	0.179	1355783	keystroke_s	s	n/a
678.0865	0.27	1356173	keystroke_l	l	n/a
678.2655	0.211	1356531	keystroke_i	i	n/a
678.3865	0.165	1356773	keystroke_d	d	n/a
678.6705	0.195	1357341	keystroke_e	e	n/a
679.0465	0.194	1358093	keystroke_d	d	n/a
679.6905	0.166	1359381	keystroke_Key.backspace	Key.backspace	n/a
679.8115	0.209	1359623	keystroke_s	s	n/a
680.3205	0.241	1360641	keystroke_h	h	n/a
680.5905	0.241	1361181	keystroke_o	o	n/a
680.6815	0.18	1361363	keystroke_w	w	n/a
681.4015	0.194	1362803	keystroke_Key.space	Key.space	n/a
681.8065	0.27	1363613	keystroke_c	c	n/a
682.0765	0.225	1364153	keystroke_a	a	n/a
682.4965	0.18	1364993	keystroke_c	c	n/a
682.7665	0.21	1365533	keystroke_h	h	n/a
682.9615	0.15	1365923	keystroke_4	4	n/a
684.3855	0.195	1368771	keystroke_Key.backspace	Key.backspace	n/a
686.0515	0.195	1372103	keystroke_e	e	n/a
687.0865	0.06	1374173	keystroke_f	f	n/a
687.8965	0.21	1375793	keystroke_Key.backspace	Key.backspace	n/a
688.2115	0.195	1376423	keystroke_d	d	n/a
689.0215	0.315	1378043	keystroke_Key.space	Key.space	n/a
691.1365	0.21	1382273	keystroke_[	[	n/a
693.9145	0.177	1387829	keystroke_Key.backspace	Key.backspace	n/a
695.5315	0.165	1391063	keystroke_p	p	n/a
696.4015	0.135	1392803	keystroke_h	h	n/a
696.8215	0.135	1393643	keystroke_y	y	n/a
697.2115	0.165	1394423	keystroke_s	s	n/a
698.8315	0.225	1397663	keystroke_i	i	n/a
699.1315	0.24	1398263	keystroke_o	o	n/a
700.2115	0.18	1400423	keystroke_l	l	n/a
700.7365	0.285	1401473	keystroke_o	o	n/a
700.9615	0.21	1401923	keystroke_g	g	n/a
701.3515	0.195	1402703	keystroke_y	y	n/a
702.0265	0.195	1404053	keystroke_Key.enter	Key.enter	n/a
702.229	3.5945	1404458	prompt	n/a	army 'twas gamespot defensive\n
703.5865	0.27	1407173	keystroke_a	a	n/a
703.8115	0.195	1407623	keystroke_r	r	n/a
704.0215	0.195	1408043	keystroke_m	m	n/a
704.5615	0.255	1409123	keystroke_y	y	n/a
704.9965	0.3	1409993	keystroke_Key.space	Key.space	n/a
705.5815	0.24	1411163	keystroke_Key.enter	Key.enter	n/a
705.8365	25.817	1411673	prompt	n/a	ministry taken alliance proposals\n
705.8815	0.3	1411763	keystroke_w	w	n/a
706.1965	0.27	1412393	keystroke_a	a	n/a
708.6445	0.057	1417289	keystroke_Key.backspace	Key.backspace	n/a
708.8065	0.36	1417613	keystroke_Key.backspace	Key.backspace	n/a
709.3165	0.15	1418633	keystroke_Key.backspace	Key.backspace	n/a
709.5715	0.12	1419143	keystroke_Key.backspace	Key.backspace	n/a
709.8415	0.15	1419683	keystroke_Key.backspace	Key.backspace	n/a
714.8095	0.177	1429619	keystroke_m	m	n/a
715.0915	0.18	1430183	keystroke_i	i	n/a
715.1815	0.345	1430363	keystroke_n	n	n/a
715.4365	0.27	1430873	keystroke_i	i	n/a
715.6165	0.315	1431233	keystroke_s	s	n/a
715.9015	0.195	1431803	keystroke_t	t	n/a
716.2465	0.195	1432493	keystroke_r	r	n/a
716.3965	0.21	1432793	keystroke_y	y	n/a
716.7265	0.315	1433453	keystroke_Key.space	Key.space	n/a
717.5975	0.074	1435195	keystroke_s	s	n/a
717.7465	0.27	1435493	keystroke_t	t	n/a
718.2415	0.135	1436483	keystroke_Key.backspace	Key.backspace	n/a
718.4965	0.12	1436993	keystroke_Key.backspace	Key.backspace	n/a
718.6615	0.255	1437323	keystroke_t	t	n/a
718.8565	0.24	1437713	keystroke_a	a	n/a
719.2015	0.24	1438403	keystroke_k	k	n/a
719.3815	0.225	1438763	keystroke_e	e	n/a
719.6965	0.225	1439393	keystroke_n	n	n/a
720.0565	0.18	1440113	keystroke_Key.space	Key.space	n/a
720.3865	0.255	1440773	keystroke_Key.shift	Key.shift	n/a
720.5975	0.15	1441195	keystroke_L	L	n/a
720.8515	0.36	1441703	keystroke_l	l	n/a
721.0315	0.225	1442063	keystroke_i	i	n/a
721.5565	0.165	1443113	keystroke_Key.backspace	Key.backspace	n/a
721.8265	0.135	1443653	keystroke_Key.backspace	Key.backspace	n/a
722.0515	0.27	1444103	keystroke_Key.shift	Key.shift	n/a
722.4565	0.18	1444913	keystroke_Key.backspace	Key.backspace	n/a
723.686	0.2705	1447372	keystroke_a	a	n/a
724.0615	0.105	1448123	keystroke_l	l	n/a
724.287	0.194	1448574	keystroke_l	l	n/a
724.6915	0.24	1449383	keystroke_i	i	n/a
724.917	0.225	1449834	keystroke_a	a	n/a
725.157	0.2395	1450314	keystroke_n	n	n/a
725.381	0.255	1450762	keystroke_c	c	n/a
725.561	0.211	1451122	keystroke_e	e	n/a
725.801	0.27	1451602	keystroke_Key.space	Key.space	n/a
726.806	0.2255	1453612	keystroke_p	p	n/a
727.406	0.225	1454812	keystroke_r	r	n/a
728.486	0.2255	1456972	keystroke_o	o	n/a
729.206	0.271	1458412	keystroke_p	p	n/a
729.522	0.3	1459044	keystroke_o	o	n/a
729.881	0.15	1459762	keystroke_s	s	n/a
730.256	0.211	1460512	keystroke_a	a	n/a
730.572	0.24	1461144	keystroke_l	l	n/a
730.826	0.18	1461652	keystroke_s	s	n/a
731.397	0.254	1462794	keystroke_Key.enter	Key.enter	n/a
731.6595	10.0445	1463319	prompt	n/a	nasa fork framed group\n
734.58	0.117	1469160	keystroke_n	n	n/a
734.698	0.299	1469396	keystroke_a	a	n/a
735.117	0.314	1470234	keystroke_s	s	n/a
735.387	0.224	1470774	keystroke_a	a	n/a
735.822	0.27	1471644	keystroke_Key.space	Key.space	n/a
736.122	0.195	1472244	keystroke_f	f	n/a
736.512	0.21	1473024	keystroke_o	o	n/a
736.707	0.24	1473414	keystroke_r	r	n/a
737.037	0.18	1474074	keystroke_k	k	n/a
737.336	0.195	1474672	keystroke_Key.space	Key.space	n/a
737.547	0.21	1475094	keystroke_f	f	n/a
737.981	0.271	1475962	keystroke_r	r	n/a
738.267	0.255	1476534	keystroke_a	a	n/a
738.567	0.255	1477134	keystroke_m	m	n/a
738.777	0.24	1477554	keystroke_e	e	n/a
739.212	0.225	1478424	keystroke_d	d	n/a
739.451	0.21	1478902	keystroke_Key.space	Key.space	n/a
739.797	0.195	1479594	keystroke_g	g	n/a
740.142	0.21	1480284	keystroke_r	r	n/a
740.277	0.33	1480554	keystroke_o	o	n/a
740.487	0.225	1480974	keystroke_u	u	n/a
740.817	0.225	1481634	keystroke_p	p	n/a
741.552	0.15	1483104	keystroke_Key.enter	Key.enter	n/a
741.713	13.2055	1483426	prompt	n/a	iran mobility giants mounts\n
742.707	0.21	1485414	keystroke_i	i	n/a
742.902	0.255	1485804	keystroke_r	r	n/a
743.172	0.255	1486344	keystroke_a	a	n/a
743.532	0.195	1487064	keystroke_n	n	n/a
743.982	0.165	1487964	keystroke_Key.space	Key.space	n/a
744.867	0.195	1489734	keystroke_m	m	n/a
745.302	0.255	1490604	keystroke_o	o	n/a
745.977	0.24	1491954	keystroke_b	b	n/a
746.412	0.27	1492824	keystroke_i	i	n/a
746.787	0.315	1493574	keystroke_l	l	n/a
746.982	0.18	1493964	keystroke_i	i	n/a
747.372	0.195	1494744	keystroke_t	t	n/a
747.807	0.18	1495614	keystroke_y	y	n/a
748.3615	0.165	1496723	keystroke_Key.space	Key.space	n/a
750.1165	0.195	1500233	keystroke_m	m	n/a
750.5215	0.36	1501043	keystroke_o	o	n/a
750.7465	0.15	1501493	keystroke_u	u	n/a
751.1515	0.225	1502303	keystroke_b	b	n/a
751.9765	0.135	1503953	keystroke_Key.backspace	Key.backspace	n/a
752.9215	0.21	1505843	keystroke_n	n	n/a
753.4315	0.27	1506863	keystroke_t	t	n/a
753.6415	0.18	1507283	keystroke_s	s	n/a
754.7215	0.195	1509443	keystroke_Key.enter	Key.enter	n/a
754.9245	22.404	1509849	prompt	n/a	reference adult lexington figures\n
757.1845	0.177	1514369	keystroke_r	r	n/a
757.2865	0.18	1514573	keystroke_e	e	n/a
757.6165	0.165	1515233	keystroke_f	f	n/a
757.8865	0.24	1515773	keystroke_e	e	n/a
758.7415	0.195	1517483	keystroke_r	r	n/a
758.9215	0.195	1517843	keystroke_e	e	n/a
759.6265	0.21	1519253	keystroke_n	n	n/a
759.8815	0.255	1519763	keystroke_c	c	n/a
760.7665	0.24	1521533	keystroke_e	e	n/a
761.3665	0.24	1522733	keystroke_Key.space	Key.space	n/a
761.6665	0.075	1523333	keystroke_Key.space	Key.space	n/a
762.0115	0.285	1524023	keystroke_a	a	n/a
762.8065	0.225	1525613	keystroke_d	d	n/a
763.0915	0.255	1526183	keystroke_u	u	n/a
763.2715	0.21	1526543	keystroke_l	l	n/a
763.7665	0.225	1527533	keystroke_Key.space	Key.space	n/a
764.1715	0.27	1528343	keystroke_l	l	n/a
764.6965	0.225	1529393	keystroke_i	i	n/a
765.6565	0.15	1531313	keystroke_Key.backspace	Key.backspace	n/a
766.0465	0.345	1532093	keystroke_Key.backspace	Key.backspace	n/a
766.6615	0.15	1533323	keystroke_Key.backspace	Key.backspace	n/a
766.8865	0.195	1533773	keystroke_t	t	n/a
767.8615	0.21	1535723	keystroke_Key.space	Key.space	n/a
768.5515	0.24	1537103	keystroke_l	l	n/a
768.7465	0.195	1537493	keystroke_e	e	n/a
769.5115	0.21	1539023	keystroke_x	x	n/a
769.7665	0.36	1539533	keystroke_i	i	n/a
769.9915	0.225	1539983	keystroke_n	n	n/a
770.2765	0.195	1540553	keystroke_g	g	n/a
770.9065	0.15	1541813	keystroke_t	t	n/a
771.2065	0.42	1542413	keystroke_o	o	n/a
771.4315	0.21	1542863	keystroke_n	n	n/a
771.9715	0.27	1543943	keystroke_Key.space	Key.space	n/a
772.4815	0.06	1544963	keystroke_f	f	n/a
773.2015	0.195	1546403	keystroke_Key.backspace	Key.backspace	n/a
773.6365	0.24	1547273	keystroke_f	f	n/a
773.9815	0.24	1547963	keystroke_i	i	n/a
774.7465	0.15	1549493	keystroke_u	u	n/a
775.2415	0.165	1550483	keystroke_Key.backspace	Key.backspace	n/a
775.5265	0.21	1551053	keystroke_g	g	n/a
775.8415	0.255	1551683	keystroke_u	u	n/a
776.0815	0.36	1552163	keystroke_r	r	n/a
776.3215	0.255	1552643	keystroke_e	e	n/a
776.5175	0.149	1553035	keystroke_s	s	n/a
777.1165	0.21	1554233	keystroke_Key.enter	Key.enter	n/a
777.3325	22.572	1554665	prompt	n/a	pads revised thomson contract\n
784.8305	0.192	1569661	keystroke_p	p	n/a
785.1575	0.225	1570315	keystroke_a	a	n/a
785.4275	0.315	1570855	keystroke_d	d	n/a
785.7275	0.2395	1571455	keystroke_s	s	n/a
786.2675	0.27	1572535	keystroke_Key.space	Key.space	n/a
786.5975	0.21	1573195	keystroke_r	r	n/a
786.7015	0.196	1573403	keystroke_e	e	n/a
787.0925	0.21	1574185	keystroke_v	v	n/a
787.2275	0.345	1574455	keystroke_i	i	n/a
787.6625	0.21	1575325	keystroke_e	e	n/a
788.0225	0.255	1576045	keystroke_d	d	n/a
788.5765	0.181	1577153	keystroke_Key.backspace	Key.backspace	n/a
788.8625	0.2235	1577725	keystroke_Key.backspace	Key.backspace	n/a
789.2675	0.285	1578535	keystroke_s	s	n/a
789.4625	0.195	1578925	keystroke_e	e	n/a
789.8075	0.21	1579615	keystroke_d	d	n/a
789.9875	0.27	1579975	keystroke_Key.space	Key.space	n/a
790.5875	0.165	1581175	keystroke_r	r	n/a
791.0375	0.24	1582075	keystroke_h	h	n/a
791.3525	0.465	1582705	keystroke_o	o	n/a
791.5625	0.24	1583125	keystroke_m	m	n/a
792.8675	0.195	1585735	keystroke_Key.backspace	Key.backspace	n/a
793.6775	0.18	1587355	keystroke_t	t	n/a
794.5025	0.21	1589005	keystroke_h	h	n/a
794.7275	0.375	1589455	keystroke_o	o	n/a
794.9375	0.21	1589875	keystroke_m	m	n/a
795.1775	0.225	1590355	keystroke_s	s	n/a
795.3725	0.345	1590745	keystroke_o	o	n/a
795.5825	0.255	1591165	keystroke_n	n	n/a
795.9575	0.27	1591915	keystroke_Key.space	Key.space	n/a
796.4975	0.21	1592995	keystroke_c	c	n/a
796.6775	0.4345	1593355	keystroke_o	o	n/a
796.9325	0.2245	1593865	keystroke_n	n	n/a
797.5475	0.21	1595095	keystroke_t	t	n/a
797.877	0.2855	1595754	keystroke_r	r	n/a
798.1325	0.3745	1596265	keystroke_a	a	n/a
798.492	0.24	1596984	keystroke_c	c	n/a
798.987	0.225	1597974	keystroke_t	t	n/a
799.6325	0.27	1599265	keystroke_Key.enter	Key.enter	n/a
799.911	24.8035	1599822	prompt	n/a	jelsoft nepal answered picks\n
805.35	0.132	1610700	keystroke_j	j	n/a
805.7825	0.2395	1611565	keystroke_e	e	n/a
806.142	0.225	1612284	keystroke_l	l	n/a
806.457	0.225	1612914	keystroke_s	s	n/a
806.8175	0.2845	1613635	keystroke_o	o	n/a
807.252	0.225	1614504	keystroke_f	f	n/a
807.687	0.225	1615374	keystroke_t	t	n/a
807.9725	0.1945	1615945	keystroke_Key.space	Key.space	n/a
808.842	0.195	1617684	keystroke_n	n	n/a
809.022	0.225	1618044	keystroke_e	e	n/a
809.637	0.2705	1619274	keystroke_p	p	n/a
809.847	0.2555	1619694	keystroke_a	a	n/a
810.462	0.21	1620924	keystroke_l	l	n/a
811.317	0.285	1622634	keystroke_Key.space	Key.space	n/a
811.902	0.285	1623804	keystroke_a	a	n/a
812.892	0.195	1625784	keystroke_n	n	n/a
813.072	0.195	1626144	keystroke_s	s	n/a
813.417	0.225	1626834	keystroke_w	w	n/a
813.552	0.1955	1627104	keystroke_e	e	n/a
813.762	0.24	1627524	keystroke_r	r	n/a
813.897	0.21	1627794	keystroke_e	e	n/a
814.287	0.03	1628574	keystroke_x	x	n/a
815.142	0.195	1630284	keystroke_Key.backspace	Key.backspace	n/a
815.352	0.225	1630704	keystroke_d	d	n/a
815.937	0.18	1631874	keystroke_Key.space	Key.space	n/a
816.567	0.225	1633134	keystroke_[	[	n/a
817.497	0.21	1634994	keystroke_Key.backspace	Key.backspace	n/a
819.267	0.24	1638534	keystroke_p	p	n/a
819.897	0.24	1639794	keystroke_o	o	n/a
820.227	0.27	1640454	keystroke_c	c	n/a
820.708	0.194	1641416	keystroke_Key.backspace	Key.backspace	n/a
821.262	0.24	1642524	keystroke_Key.backspace	Key.backspace	n/a
822.867	0.135	1645734	keystroke_i	i	n/a
823.032	0.226	1646064	keystroke_c	c	n/a
823.332	0.256	1646664	keystroke_k	k	n/a
823.422	0.24	1646844	keystroke_s	s	n/a
824.517	0.195	1649034	keystroke_Key.enter	Key.enter	n/a
824.7215	16.584	1649443	prompt	n/a	surgical snow degree prices\n
831.031	0.146	1662062	keystroke_s	s	n/a
831.523	0.225	1663046	keystroke_u	u	n/a
831.672	0.196	1663344	keystroke_r	r	n/a
832.033	0.195	1664066	keystroke_g	g	n/a
832.243	0.285	1664486	keystroke_i	i	n/a
832.498	0.3	1664996	keystroke_c	c	n/a
832.753	0.239	1665506	keystroke_a	a	n/a
832.962	0.225	1665924	keystroke_l	l	n/a
833.353	0.075	1666706	keystroke_l	l	n/a
834.178	0.164	1668356	keystroke_Key.backspace	Key.backspace	n/a
834.792	0.255	1669584	keystroke_Key.space	Key.space	n/a
835.063	0.165	1670126	keystroke_s	s	n/a
835.348	0.255	1670696	keystroke_n	n	n/a
835.543	0.225	1671086	keystroke_o	o	n/a
835.738	0.285	1671476	keystroke_w	w	n/a
836.037	0.211	1672074	keystroke_Key.space	Key.space	n/a
836.517	0.166	1673034	keystroke_d	d	n/a
836.833	0.195	1673666	keystroke_e	e	n/a
837.163	0.195	1674326	keystroke_g	g	n/a
837.628	0.33	1675256	keystroke_r	r	n/a
837.838	0.15	1675676	keystroke_e	e	n/a
838.108	0.21	1676216	keystroke_e	e	n/a
839.128	0.315	1678256	keystroke_Key.space	Key.space	n/a
839.593	0.255	1679186	keystroke_p	p	n/a
839.848	0.165	1679696	keystroke_r	r	n/a
840.163	0.24	1680326	keystroke_i	i	n/a
840.448	0.3	1680896	keystroke_c	c	n/a
840.643	0.225	1681286	keystroke_e	e	n/a
840.778	0.165	1681556	keystroke_s	s	n/a
841.078	0.225	1682156	keystroke_Key.enter	Key.enter	n/a
841.3105	15.0085	1682621	prompt	n/a	outline us request legitimate\n
843.376	0.192	1686752	keystroke_o	o	n/a
843.478	0.18	1686956	keystroke_u	u	n/a
843.688	0.195	1687376	keystroke_t	t	n/a
843.898	0.21	1687796	keystroke_l	l	n/a
844.093	0.36	1688186	keystroke_i	i	n/a
844.213	0.225	1688426	keystroke_n	n	n/a
844.393	0.225	1688786	keystroke_e	e	n/a
844.633	0.225	1689266	keystroke_Key.space	Key.space	n/a
845.053	0.225	1690106	keystroke_u	u	n/a
845.188	0.225	1690376	keystroke_s	s	n/a
845.443	0.255	1690886	keystroke_Key.space	Key.space	n/a
845.743	0.03	1691486	keystroke_Key.space	Key.space	n/a
845.758	0.24	1691516	keystroke_r	r	n/a
845.923	0.33	1691846	keystroke_e	e	n/a
846.373	0.21	1692746	keystroke_q	q	n/a
846.748	0.225	1693496	keystroke_i	i	n/a
846.943	0.24	1693886	keystroke_e	e	n/a
847.108	0.3	1694216	keystroke_s	s	n/a
847.378	0.255	1694756	keystroke_t	t	n/a
848.293	0.21	1696586	keystroke_Key.backspace	Key.backspace	n/a
848.638	0.105	1697276	keystroke_Key.backspace	Key.backspace	n/a
848.878	0.12	1697756	keystroke_Key.backspace	Key.backspace	n/a
849.088	0.12	1698176	keystroke_Key.backspace	Key.backspace	n/a
850.318	0.165	1700636	keystroke_u	u	n/a
850.453	0.24	1700906	keystroke_e	e	n/a
850.648	0.285	1701296	keystroke_s	s	n/a
850.918	0.195	1701836	keystroke_t	t	n/a
851.548	0.24	1703096	keystroke_Key.space	Key.space	n/a
852.103	0.345	1704206	keystroke_l	l	n/a
852.298	0.24	1704596	keystroke_e	e	n/a
852.688	0.195	1705376	keystroke_g	g	n/a
852.958	0.255	1705916	keystroke_i	i	n/a
853.168	0.21	1706336	keystroke_t	t	n/a
854.6675	0.18	1709335	keystroke_i	i	n/a
855.1475	0.24	1710295	keystroke_m	m	n/a
855.3725	0.24	1710745	keystroke_a	a	n/a
855.6275	0.195	1711255	keystroke_t	t	n/a
855.7925	0.195	1711585	keystroke_e	e	n/a
856.1225	0.195	1712245	keystroke_Key.enter	Key.enter	n/a
856.324	23.802	1712648	prompt	n/a	combinations usually raises creativity\n
857.4275	0.255	1714855	keystroke_c	c	n/a
858.2825	0.21	1716565	keystroke_o	o	n/a
858.4775	0.21	1716955	keystroke_m	m	n/a
859.2425	0.18	1718485	keystroke_b	b	n/a
859.6475	0.24	1719295	keystroke_i	i	n/a
860.2025	0.225	1720405	keystroke_n	n	n/a
860.3825	0.27	1720765	keystroke_a	a	n/a
860.6825	0.195	1721365	keystroke_t	t	n/a
860.8625	0.21	1721725	keystroke_i	i	n/a
861.0425	0.42	1722085	keystroke_o	o	n/a
861.2075	0.24	1722415	keystroke_n	n	n/a
861.3725	0.21	1722745	keystroke_s	s	n/a
861.7175	0.255	1723435	keystroke_Key.space	Key.space	n/a
861.9275	0.255	1723855	keystroke_s	s	n/a
862.3625	0.21	1724725	keystroke_u	u	n/a
862.6025	0.225	1725205	keystroke_s	s	n/a
862.9475	0.18	1725895	keystroke_l	l	n/a
863.2775	0.075	1726555	keystroke_l	l	n/a
863.6675	0.12	1727335	keystroke_Key.backspace	Key.backspace	n/a
863.9225	0.09	1727845	keystroke_Key.backspace	Key.backspace	n/a
864.1175	0.105	1728235	keystroke_Key.backspace	Key.backspace	n/a
864.3875	0.255	1728775	keystroke_Key.backspace	Key.backspace	n/a
864.9275	0.18	1729855	keystroke_Key.backspace	Key.backspace	n/a
866.9675	0.225	1733935	keystroke_u	u	n/a
867.1175	0.195	1734235	keystroke_s	s	n/a
867.7325	0.21	1735465	keystroke_u	u	n/a
867.9575	0.255	1735915	keystroke_a	a	n/a
868.2425	0.105	1736485	keystroke_l	l	n/a
868.4825	0.225	1736965	keystroke_l	l	n/a
869.0375	0.18	1738075	keystroke_y	y	n/a
869.5025	0.24	1739005	keystroke_Key.space	Key.space	n/a
869.8025	0.33	1739605	keystroke_r	r	n/a
870.2075	0.24	1740415	keystroke_a	a	n/a
870.5825	0.24	1741165	keystroke_i	i	n/a
870.9275	0.12	1741855	keystroke_s	s	n/a
871.0175	0.33	1742035	keystroke_e	e	n/a
871.2575	0.195	1742515	keystroke_s	s	n/a
871.6925	0.24	1743385	keystroke_Key.space	Key.space	n/a
872.3225	0.27	1744645	keystroke_c	c	n/a
873.1625	0.315	1746325	keystroke_r	r	n/a
873.3425	0.285	1746685	keystroke_e	e	n/a
873.9725	0.03	1747945	keystroke_Key.caps_lock	Key.caps_lock	n/a
873.9875	0.345	1747975	keystroke_a	a	n/a
874.8725	0.27	1749745	keystroke_Key.caps_lock	Key.caps_lock	n/a
875.4125	0.195	1750825	keystroke_=	=	n/a
875.9975	0.18	1751995	keystroke_Key.backspace	Key.backspace	n/a
876.3125	0.135	1752625	keystroke_Key.backspace	Key.backspace	n/a
877.2125	0.315	1754425	keystroke_a	a	n/a
878.1285	0.119	1756257	keystroke_t	t	n/a
878.2925	0.211	1756585	keystroke_i	i	n/a
878.5925	0.255	1757185	keystroke_v	v	n/a
878.8625	0.241	1757725	keystroke_i	i	n/a
879.1785	0.179	1758357	keystroke_t	t	n/a
879.4775	0.165	1758955	keystroke_y	y	n/a
879.9425	0.18	1759885	keystroke_Key.enter	Key.enter	n/a
880.133	19.147	1760266	prompt	n/a	toolbox discrete simply mean\n
890.686	0.102	1781372	keystroke_t	t	n/a
890.728	0.135	1781456	keystroke_o	o	n/a
890.983	0.1805	1781966	keystroke_o	o	n/a
891.343	0.225	1782686	keystroke_l	l	n/a
892.033	0.2855	1784066	keystroke_b	b	n/a
892.2285	0.3145	1784457	keystroke_o	o	n/a
892.438	0.195	1784876	keystroke_x	x	n/a
892.753	0.225	1785506	keystroke_Key.space	Key.space	n/a
893.068	0.15	1786136	keystroke_d	d	n/a
893.413	0.195	1786826	keystroke_i	i	n/a
893.638	0.225	1787276	keystroke_s	s	n/a
893.983	0.1355	1787966	keystroke_c	c	n/a
894.343	0.255	1788686	keystroke_r	r	n/a
894.538	0.18	1789076	keystroke_e	e	n/a
894.883	0.1955	1789766	keystroke_t	t	n/a
895.0335	0.15	1790067	keystroke_e	e	n/a
895.3335	0.225	1790667	keystroke_Key.space	Key.space	n/a
895.6335	0.1795	1791267	keystroke_s	s	n/a
895.7535	0.255	1791507	keystroke_i	i	n/a
895.8585	0.21	1791717	keystroke_m	m	n/a
896.3085	0.1945	1792617	keystroke_p	p	n/a
896.683	0.2105	1793366	keystroke_l	l	n/a
897.148	0.21	1794296	keystroke_y	y	n/a
897.373	0.21	1794746	keystroke_Key.space	Key.space	n/a
897.898	0.1805	1795796	keystroke_m	m	n/a
898.093	0.225	1796186	keystroke_e	e	n/a
898.333	0.24	1796666	keystroke_a	a	n/a
898.513	0.18	1797026	keystroke_n	n	n/a
899.098	0.18	1798196	keystroke_Key.enter	Key.enter	n/a
899.2845	14.7255	1798569	prompt	n/a	iceland bundle lose website\n
900.7335	0.225	1801467	keystroke_i	i	n/a
901.0035	0.195	1802007	keystroke_c	c	n/a
901.3335	0.195	1802667	keystroke_e	e	n/a
901.663	0.24	1803326	keystroke_l	l	n/a
902.008	0.195	1804016	keystroke_a	a	n/a
902.218	0.21	1804436	keystroke_n	n	n/a
902.473	0.1655	1804946	keystroke_d	d	n/a
902.683	0.195	1805366	keystroke_Key.space	Key.space	n/a
903.223	0.18	1806446	keystroke_b	b	n/a
903.8085	0.1795	1807617	keystroke_u	u	n/a
904.288	0.1955	1808576	keystroke_n	n	n/a
905.0685	0.1645	1810137	keystroke_d	d	n/a
905.2635	0.2245	1810527	keystroke_l	l	n/a
905.6535	0.2245	1811307	keystroke_e	e	n/a
906.1185	0.2095	1812237	keystroke_Key.space	Key.space	n/a
906.433	0.2255	1812866	keystroke_l	l	n/a
906.838	0.27	1813676	keystroke_o	o	n/a
906.958	0.195	1813916	keystroke_s	s	n/a
907.093	0.195	1814186	keystroke_e	e	n/a
907.423	0.18	1814846	keystroke_Key.space	Key.space	n/a
907.918	0.225	1815836	keystroke_w	w	n/a
908.083	0.225	1816166	keystroke_e	e	n/a
908.623	0.255	1817246	keystroke_b	b	n/a
908.968	0.3455	1817936	keystroke_s	s	n/a
909.298	0.24	1818596	keystroke_i	i	n/a
909.673	0.24	1819346	keystroke_t	t	n/a
909.928	0.12	1819856	keystroke_p	p	n/a
909.958	0.12	1819916	keystroke_e	e	n/a
910.798	0.18	1821596	keystroke_Key.backspace	Key.backspace	n/a
911.158	0.18	1822316	keystroke_Key.backspace	Key.backspace	n/a
911.998	0.18	1823996	keystroke_e	e	n/a
913.828	0.18	1827656	keystroke_Key.enter	Key.enter	n/a
914.016	16.7645	1828032	prompt	n/a	outlets stylus afterwards vatican\n
919.502	0.386	1839004	keystroke_o	o	n/a
919.708	0.225	1839416	keystroke_u	u	n/a
919.903	0.255	1839806	keystroke_t	t	n/a
920.233	0.36	1840466	keystroke_l	l	n/a
920.413	0.21	1840826	keystroke_e	e	n/a
920.653	0.285	1841306	keystroke_t	t	n/a
920.848	0.195	1841696	keystroke_s	s	n/a
921.148	0.255	1842296	keystroke_Key.space	Key.space	n/a
921.419	0.224	1842838	keystroke_s	s	n/a
921.658	0.21	1843316	keystroke_t	t	n/a
921.898	0.18	1843796	keystroke_y	y	n/a
922.258	0.495	1844516	keystroke_l	l	n/a
922.573	0.225	1845146	keystroke_u	u	n/a
922.738	0.195	1845476	keystroke_s	s	n/a
923.023	0.255	1846046	keystroke_Key.space	Key.space	n/a
923.459	0.299	1846918	keystroke_a	a	n/a
923.714	0.195	1847428	keystroke_f	f	n/a
924.073	0.21	1848146	keystroke_t	t	n/a
924.253	0.256	1848506	keystroke_e	e	n/a
924.433	0.27	1848866	keystroke_r	r	n/a
925.049	0.3445	1850098	keystroke_w	w	n/a
925.364	0.2395	1850728	keystroke_a	a	n/a
925.5885	0.195	1851177	keystroke_r	r	n/a
925.9635	0.21	1851927	keystroke_d	d	n/a
926.0985	0.21	1852197	keystroke_s	s	n/a
926.5935	0.18	1853187	keystroke_Key.space	Key.space	n/a
927.5235	0.285	1855047	keystroke_v	v	n/a
927.9285	0.315	1855857	keystroke_a	a	n/a
928.4835	0.21	1856967	keystroke_t	t	n/a
928.7235	0.39	1857447	keystroke_i	i	n/a
929.1745	0.239	1858349	keystroke_c	c	n/a
929.7585	0.27	1859517	keystroke_a	a	n/a
929.9835	0.225	1859967	keystroke_n	n	n/a
930.5385	0.24	1861077	keystroke_Key.enter	Key.enter	n/a
930.788	19.478	1861576	prompt	n/a	hole boom listening editorial\n
931.8585	0.255	1863717	keystroke_h	h	n/a
932.0245	0.179	1864049	keystroke_o	o	n/a
932.3245	0.48	1864649	keystroke_l	l	n/a
932.5495	0.194	1865099	keystroke_e	e	n/a
932.7585	0.435	1865517	keystroke_Key.space	Key.space	n/a
933.3435	0.195	1866687	keystroke_b	b	n/a
935.1895	0.209	1870379	keystroke_Key.backspace	Key.backspace	n/a
935.6085	0.195	1871217	keystroke_Key.backspace	Key.backspace	n/a
936.4795	0.225	1872959	keystroke_m	m	n/a
937.0935	0.15	1874187	keystroke_Key.space	Key.space	n/a
940.7725	0.116	1881545	keystroke_l	l	n/a
942.2245	0.104	1884449	keystroke_s	s	n/a
942.3445	0.209	1884689	keystroke_i	i	n/a
942.9585	0.211	1885917	keystroke_Key.backspace	Key.backspace	n/a
943.3345	0.165	1886669	keystroke_Key.backspace	Key.backspace	n/a
944.8045	0.224	1889609	keystroke_i	i	n/a
944.9545	0.27	1889909	keystroke_s	s	n/a
945.2845	0.255	1890569	keystroke_t	t	n/a
945.4795	0.195	1890959	keystroke_e	e	n/a
945.7045	0.254	1891409	keystroke_n	n	n/a
946.0495	0.27	1892099	keystroke_i	i	n/a
946.1545	0.24	1892309	keystroke_n	n	n/a
946.3495	0.18	1892699	keystroke_g	g	n/a
946.8445	0.255	1893689	keystroke_Key.space	Key.space	n/a
947.1295	0.21	1894259	keystroke_e	e	n/a
947.4895	0.255	1894979	keystroke_d	d	n/a
947.8795	0.255	1895759	keystroke_i	i	n/a
948.1195	0.195	1896239	keystroke_t	t	n/a
948.4945	0.24	1896989	keystroke_o	o	n/a
948.6595	0.285	1897319	keystroke_r	r	n/a
949.1395	0.21	1898279	keystroke_i	i	n/a
949.2445	0.24	1898489	keystroke_a	a	n/a
949.5145	0.255	1899029	keystroke_l	l	n/a
950.0995	0.165	1900199	keystroke_Key.enter	Key.enter	n/a
950.2705	20.4255	1900541	prompt	n/a	grace cliff hungry enhancement\n
957.197	0.1025	1914394	keystroke_g	g	n/a
957.4795	0.2245	1914959	keystroke_r	r	n/a
957.674	0.24	1915348	keystroke_a	a	n/a
958.049	0.225	1916098	keystroke_c	c	n/a
958.244	0.2105	1916488	keystroke_e	e	n/a
958.739	0.24	1917478	keystroke_Key.space	Key.space	n/a
959.1745	0.2095	1918349	keystroke_x	x	n/a
959.399	0.315	1918798	keystroke_l	l	n/a
959.624	0.135	1919248	keystroke_i	i	n/a
960.224	0.165	1920448	keystroke_Key.backspace	Key.backspace	n/a
960.5095	0.1195	1921019	keystroke_Key.backspace	Key.backspace	n/a
960.734	0.105	1921468	keystroke_Key.backspace	Key.backspace	n/a
961.139	0.21	1922278	keystroke_c	c	n/a
961.619	0.075	1923238	keystroke_l	l	n/a
962.639	0.195	1925278	keystroke_i	i	n/a
962.864	0.165	1925728	keystroke_f	f	n/a
963.134	0.285	1926268	keystroke_f	f	n/a
963.524	0.225	1927048	keystroke_Key.space	Key.space	n/a
964.019	0.165	1928038	keystroke_h	h	n/a
964.484	0.15	1928968	keystroke_u	u	n/a
964.949	0.24	1929898	keystroke_n	n	n/a
965.204	0.195	1930408	keystroke_g	g	n/a
965.534	0.21	1931068	keystroke_r	r	n/a
965.789	0.195	1931578	keystroke_y	y	n/a
966.179	0.165	1932358	keystroke_Key.space	Key.space	n/a
966.764	0.21	1933528	keystroke_e	e	n/a
967.244	0.165	1934488	keystroke_n	n	n/a
967.754	0.18	1935508	keystroke_h	h	n/a
967.889	0.24	1935778	keystroke_a	a	n/a
968.324	0.195	1936648	keystroke_n	n	n/a
968.534	0.21	1937068	keystroke_c	c	n/a
968.699	0.195	1937398	keystroke_e	e	n/a
969.269	0.195	1938538	keystroke_m	m	n/a
969.434	0.21	1938868	keystroke_e	e	n/a
969.779	0.24	1939558	keystroke_n	n	n/a
970.049	0.18	1940098	keystroke_t	t	n/a
970.514	0.18	1941028	keystroke_Key.enter	Key.enter	n/a
970.7015	13.645	1941403	prompt	n/a	entire peace patch strategic\n
971.55	0.269	1943100	keystroke_e	e	n/a
972.479	0.195	1944958	keystroke_n	n	n/a
972.689	0.195	1945378	keystroke_t	t	n/a
973.004	0.255	1946008	keystroke_i	i	n/a
973.274	0.18	1946548	keystroke_r	r	n/a
973.394	0.195	1946788	keystroke_e	e	n/a
973.724	0.225	1947448	keystroke_Key.space	Key.space	n/a
974.264	0.21	1948528	keystroke_p	p	n/a
974.354	0.24	1948708	keystroke_e	e	n/a
974.564	0.285	1949128	keystroke_a	a	n/a
974.939	0.18	1949878	keystroke_c	c	n/a
975.269	0.195	1950538	keystroke_e	e	n/a
975.644	0.18	1951288	keystroke_Key.space	Key.space	n/a
976.154	0.255	1952308	keystroke_p	p	n/a
976.334	0.3	1952668	keystroke_a	a	n/a
976.649	0.165	1953298	keystroke_t	t	n/a
977.459	0.225	1954918	keystroke_c	c	n/a
977.699	0.195	1955398	keystroke_h	h	n/a
978.134	0.21	1956268	keystroke_Key.space	Key.space	n/a
978.869	0.255	1957738	keystroke_s	s	n/a
979.244	0.18	1958488	keystroke_t	t	n/a
979.604	0.285	1959208	keystroke_r	r	n/a
979.859	0.285	1959718	keystroke_a	a	n/a
980.624	0.27	1961248	keystroke_t	t	n/a
981.044	0.165	1962088	keystroke_e	e	n/a
981.359	0.24	1962718	keystroke_g	g	n/a
981.779	0.18	1963558	keystroke_i	i	n/a
983.0235	0.18	1966047	keystroke_c	c	n/a
984.1485	0.195	1968297	keystroke_Key.enter	Key.enter	n/a
984.3515	16.3005	1968703	prompt	n/a	easy progress amazing amendments\n
990.2275	0.177	1980455	keystroke_e	e	n/a
990.3735	0.301	1980747	keystroke_a	a	n/a
990.5985	0.241	1981197	keystroke_s	s	n/a
990.9295	0.225	1981859	keystroke_y	y	n/a
991.2745	0.254	1982549	keystroke_Key.space	Key.space	n/a
991.7095	0.3	1983419	keystroke_p	p	n/a
992.0245	0.21	1984049	keystroke_r	r	n/a
992.1895	0.225	1984379	keystroke_o	o	n/a
992.4595	0.21	1984919	keystroke_g	g	n/a
992.8345	0.285	1985669	keystroke_r	r	n/a
992.9995	0.18	1985999	keystroke_e	e	n/a
993.1045	0.165	1986209	keystroke_s	s	n/a
993.3595	0.195	1986719	keystroke_s	s	n/a
993.6285	0.225	1987257	keystroke_Key.space	Key.space	n/a
994.0495	0.24	1988099	keystroke_a	a	n/a
994.4395	0.225	1988879	keystroke_m	m	n/a
994.6795	0.18	1989359	keystroke_a	a	n/a
995.3095	0.285	1990619	keystroke_z	z	n/a
995.6995	0.375	1991399	keystroke_i	i	n/a
995.8795	0.225	1991759	keystroke_n	n	n/a
996.1645	0.21	1992329	keystroke_g	g	n/a
996.4795	0.225	1992959	keystroke_Key.space	Key.space	n/a
996.8245	0.225	1993649	keystroke_a	a	n/a
997.0495	0.21	1994099	keystroke_m	m	n/a
997.3195	0.21	1994639	keystroke_e	e	n/a
997.6495	0.21	1995299	keystroke_n	n	n/a
998.5495	0.225	1997099	keystroke_d	d	n/a
999.1345	0.21	1998269	keystroke_m	m	n/a
999.3295	0.225	1998659	keystroke_e	e	n/a
999.6145	0.27	1999229	keystroke_n	n	n/a
999.7945	0.3	1999589	keystroke_t	t	n/a
1000.0195	0.165	2000039	keystroke_s	s	n/a
1000.4695	0.18	2000939	keystroke_Key.enter	Key.enter	n/a
1000.657	17.5295	2001314	prompt	n/a	reproduction linux sugar nearest\n
1002.8275	0.207	2005655	keystroke_r	r	n/a
1002.9145	0.255	2005829	keystroke_e	e	n/a
1003.6045	0.27	2007209	keystroke_p	p	n/a
1004.0395	0.21	2008079	keystroke_r	r	n/a
1004.5945	0.225	2009189	keystroke_o	o	n/a
1005.1495	0.195	2010299	keystroke_d	d	n/a
1005.5095	0.21	2011019	keystroke_u	u	n/a
1005.7045	0.195	2011409	keystroke_c	c	n/a
1006.1695	0.225	2012339	keystroke_t	t	n/a
1006.2895	0.195	2012579	keystroke_i	i	n/a
1006.4245	0.45	2012849	keystroke_o	o	n/a
1006.6045	0.24	2013209	keystroke_n	n	n/a
1007.1895	0.285	2014379	keystroke_Key.space	Key.space	n/a
1007.7745	0.285	2015549	keystroke_l	l	n/a
1007.9995	0.345	2015999	keystroke_i	i	n/a
1008.1945	0.24	2016389	keystroke_n	n	n/a
1009.0045	0.24	2018009	keystroke_u	u	n/a
1009.3945	0.21	2018789	keystroke_x	x	n/a
1009.7095	0.195	2019419	keystroke_Key.space	Key.space	n/a
1010.7745	0.24	2021549	keystroke_s	s	n/a
1011.1795	0.21	2022359	keystroke_u	u	n/a
1011.4795	0.255	2022959	keystroke_g	g	n/a
1011.7195	0.33	2023439	keystroke_a	a	n/a
1012.0645	0.225	2024129	keystroke_r	r	n/a
1012.3945	0.3	2024789	keystroke_Key.space	Key.space	n/a
1013.0995	0.24	2026199	keystroke_n	n	n/a
1013.2345	0.3	2026469	keystroke_r	r	n/a
1013.4295	0.3	2026859	keystroke_e	e	n/a
1013.6695	0.375	2027339	keystroke_a	a	n/a
1013.9095	0.255	2027819	keystroke_r	r	n/a
1014.4945	0.405	2028989	keystroke_Key.backspace	Key.backspace	n/a
1015.0045	0.105	2030009	keystroke_Key.backspace	Key.backspace	n/a
1015.2745	0.1645	2030549	keystroke_Key.backspace	Key.backspace	n/a
1015.889	0.165	2031778	keystroke_Key.backspace	Key.backspace	n/a
1016.46	0.329	2032920	keystroke_e	e	n/a
1016.744	0.271	2033488	keystroke_a	a	n/a
1016.955	0.24	2033910	keystroke_r	r	n/a
1017.21	0.299	2034420	keystroke_e	e	n/a
1017.39	0.3	2034780	keystroke_s	s	n/a
1017.63	0.18	2035260	keystroke_t	t	n/a
1017.99	0.194	2035980	keystroke_Key.enter	Key.enter	n/a
1018.192	30.7005	2036384	prompt	n/a	periodically that'll requires clip\n
1029.978	0.192	2059956	keystroke_p	p	n/a
1030.11	0.15	2060220	keystroke_e	e	n/a
1030.23	0.225	2060460	keystroke_r	r	n/a
1030.44	0.225	2060880	keystroke_i	i	n/a
1030.635	0.225	2061270	keystroke_o	o	n/a
1031.04	0.315	2062080	keystroke_d	d	n/a
1031.76	0.27	2063520	keystroke_i	i	n/a
1032.045	0.225	2064090	keystroke_c	c	n/a
1032.225	0.225	2064450	keystroke_a	a	n/a
1032.63	0.21	2065260	keystroke_l	l	n/a
1032.915	0.195	2065830	keystroke_l	l	n/a
1033.32	0.195	2066640	keystroke_y	y	n/a
1033.8	0.21	2067600	keystroke_Key.space	Key.space	n/a
1034.55	0.225	2069100	keystroke_t	t	n/a
1034.715	0.24	2069430	keystroke_h	h	n/a
1034.85	0.225	2069700	keystroke_a	a	n/a
1034.985	0.21	2069970	keystroke_t	t	n/a
1035.21	0.2245	2070420	keystroke_'	'	n/a
1035.5695	0.3	2071139	keystroke_l	l	n/a
1035.8995	0.315	2071799	keystroke_l	l	n/a
1036.5595	0.225	2073119	keystroke_Key.space	Key.space	n/a
1036.9945	0.21	2073989	keystroke_r	r	n/a
1037.0995	0.225	2074199	keystroke_e	e	n/a
1037.3395	0.27	2074679	keystroke_q	q	n/a
1037.6545	0.225	2075309	keystroke_u	u	n/a
1038.1195	0.195	2076239	keystroke_r	r	n/a
1038.2095	0.21	2076419	keystroke_e	e	n/a
1038.3745	0.135	2076749	keystroke_s	s	n/a
1040.7175	0.072	2081435	keystroke_Key.backspace	Key.backspace	n/a
1040.9395	0.2105	2081879	keystroke_Key.backspace	Key.backspace	n/a
1041.2695	0.21	2082539	keystroke_Key.backspace	Key.backspace	n/a
1042.8605	0.074	2085721	keystroke_u	u	n/a
1043.4895	0.135	2086979	keystroke_Key.backspace	Key.backspace	n/a
1044.1495	0.195	2088299	keystroke_i	i	n/a
1044.2245	0.3	2088449	keystroke_r	r	n/a
1044.4195	0.21	2088839	keystroke_e	e	n/a
1044.5545	0.165	2089109	keystroke_s	s	n/a
1044.9295	0.24	2089859	keystroke_Key.space	Key.space	n/a
1045.4245	0.195	2090849	keystroke_c	c	n/a
1046.8645	0.195	2093729	keystroke_l	l	n/a
1047.4045	0.285	2094809	keystroke_i	i	n/a
1048.0795	0.165	2096159	keystroke_p	p	n/a
1048.6795	0.21	2097359	keystroke_Key.enter	Key.enter	n/a
1048.8985	23.5285	2097797	prompt	n/a	appliances properties adverse premier\n
1049.6095	0.255	2099219	keystroke_a	a	n/a
1049.8805	0.134	2099761	keystroke_p	p	n/a
1050.2395	0.225	2100479	keystroke_p	p	n/a
1050.6445	0.345	2101289	keystroke_l	l	n/a
1051.4095	0.285	2102819	keystroke_i	i	n/a
1051.6055	0.269	2103211	keystroke_a	a	n/a
1052.1445	0.24	2104289	keystroke_a	a	n/a
1053.0445	0.165	2106089	keystroke_Key.backspace	Key.backspace	n/a
1053.2695	0.15	2106539	keystroke_c	c	n/a
1053.9445	0.135	2107889	keystroke_Key.backspace	Key.backspace	n/a
1054.6195	0.045	2109239	keystroke_b	b	n/a
1055.5195	0.18	2111039	keystroke_Key.backspace	Key.backspace	n/a
1056.2695	0.21	2112539	keystroke_n	n	n/a
1056.4805	0.254	2112961	keystroke_c	c	n/a
1056.7355	0.329	2113471	keystroke_e	e	n/a
1057.0045	0.226	2114009	keystroke_s	s	n/a
1057.7695	0.24	2115539	keystroke_Key.space	Key.space	n/a
1058.2795	0.225	2116559	keystroke_p	p	n/a
1058.4295	0.255	2116859	keystroke_r	r	n/a
1058.6545	0.345	2117309	keystroke_o	o	n/a
1058.9545	0.211	2117909	keystroke_p	p	n/a
1059.0455	0.03	2118091	keystroke_o	o	n/a
1059.1355	0.345	2118271	keystroke_e	e	n/a
1059.3605	0.195	2118721	keystroke_r	r	n/a
1059.7205	0.2395	2119441	keystroke_t	t	n/a
1059.87	0.225	2119740	keystroke_8	8	n/a
1060.08	0.3305	2120160	keystroke_e	e	n/a
1060.695	0.21	2121390	keystroke_Key.backspace	Key.backspace	n/a
1061.025	0.105	2122050	keystroke_Key.backspace	Key.backspace	n/a
1061.235	0.105	2122470	keystroke_Key.backspace	Key.backspace	n/a
1061.445	0.075	2122890	keystroke_Key.backspace	Key.backspace	n/a
1061.64	0.135	2123280	keystroke_Key.backspace	Key.backspace	n/a
1062.81	0.18	2125620	keystroke_Key.backspace	Key.backspace	n/a
1063.14	0.24	2126280	keystroke_e	e	n/a
1063.44	0.24	2126880	keystroke_r	r	n/a
1064.22	0.18	2128440	keystroke_t	t	n/a
1064.415	0.24	2128830	keystroke_i	i	n/a
1064.625	0.255	2129250	keystroke_e	e	n/a
1064.805	0.18	2129610	keystroke_s	s	n/a
1065.06	0.255	2130120	keystroke_Key.space	Key.space	n/a
1065.54	0.36	2131080	keystroke_a	a	n/a
1065.901	0.329	2131802	keystroke_d	d	n/a
1066.515	0.225	2133030	keystroke_v	v	n/a
1066.965	0.18	2133930	keystroke_e	e	n/a
1067.1	0.27	2134200	keystroke_r	r	n/a
1067.355	0.195	2134710	keystroke_s	s	n/a
1067.475	0.255	2134950	keystroke_e	e	n/a
1067.76	0.315	2135520	keystroke_Key.space	Key.space	n/a
1068.495	0.255	2136990	keystroke_p	p	n/a
1068.825	0.27	2137650	keystroke_r	r	n/a
1069.62	0.24	2139240	keystroke_e	e	n/a
1070.1	0.21	2140200	keystroke_m	m	n/a
1070.731	0.269	2141462	keystroke_i	i	n/a
1071.24	0.21	2142480	keystroke_e	e	n/a
1071.405	0.165	2142810	keystroke_r	r	n/a
1072.215	0.21	2144430	keystroke_Key.enter	Key.enter	n/a
1072.432	23.92	2144864	prompt	n/a	visibility shaved mainland itself\n
1073.925	0.24	2147850	keystroke_v	v	n/a
1074.21	0.27	2148420	keystroke_i	i	n/a
1075.035	0.225	2150070	keystroke_s	s	n/a
1075.515	0.195	2151030	keystroke_i	i	n/a
1076.25	0.135	2152500	keystroke_n	n	n/a
1076.325	0.18	2152650	keystroke_b	b	n/a
1079.629	0.086	2159258	keystroke_Key.backspace	Key.backspace	n/a
1080	0.1945	2160000	keystroke_Key.backspace	Key.backspace	n/a
1082.131	0.1785	2164262	keystroke_b	b	n/a
1082.565	0.255	2165130	keystroke_i	i	n/a
1082.835	0.42	2165670	keystroke_l	l	n/a
1083.181	0.21	2166362	keystroke_i	i	n/a
1083.615	0.195	2167230	keystroke_t	t	n/a
1083.825	0.1795	2167650	keystroke_y	y	n/a
1084.23	0.2245	2168460	keystroke_Key.space	Key.space	n/a
