onset	duration	sample	value	key	prompt_text
9.7265	10.2065	19453	prompt	n/a	the quick brown fox jumps over a lazy dog\n
12.059	0.1445	24118	keystroke_t	t	n/a
12.123	0.128	24246	keystroke_h	h	n/a
12.243	0.16	24486	keystroke_e	e	n/a
12.411	0.1515	24822	keystroke_Key.space	Key.space	n/a
12.763	0.1525	25526	keystroke_q	q	n/a
12.8985	0.1365	25797	keystroke_u	u	n/a
12.9715	0.119	25943	keystroke_i	i	n/a
13.1225	0.1285	26245	keystroke_c	c	n/a
13.243	0.128	26486	keystroke_k	k	n/a
13.387	0.192	26774	keystroke_Key.space	Key.space	n/a
13.571	0.104	27142	keystroke_b	b	n/a
13.683	0.112	27366	keystroke_r	r	n/a
14.171	0.04	28342	keystroke_o	o	n/a
14.403	0.112	28806	keystroke_w	w	n/a
14.4825	0.1125	28965	keystroke_n	n	n/a
14.603	0.128	29206	keystroke_Key.space	Key.space	n/a
14.835	0.12	29670	keystroke_o	o	n/a
15.242	0.0885	30484	keystroke_Key.backspace	Key.backspace	n/a
15.594	0.129	31188	keystroke_f	f	n/a
15.683	0.112	31366	keystroke_o	o	n/a
15.8665	0.1195	31733	keystroke_x	x	n/a
15.9385	0.152	31877	keystroke_Key.space	Key.space	n/a
16.139	0.12	32278	keystroke_j	j	n/a
16.267	0.08	32534	keystroke_u	u	n/a
16.475	0.088	32950	keystroke_m	m	n/a
16.6585	0.112	33317	keystroke_p	p	n/a
16.7705	0.104	33541	keystroke_s	s	n/a
16.8585	0.1515	33717	keystroke_Key.space	Key.space	n/a
17.0025	0.112	34005	keystroke_o	o	n/a
17.0985	0.1205	34197	keystroke_v	v	n/a
17.3225	0.136	34645	keystroke_e	e	n/a
17.4105	0.1755	34821	keystroke_r	r	n/a
17.49	0.1365	34980	keystroke_Key.space	Key.space	n/a
17.8745	0.088	35749	keystroke_a	a	n/a
18.3785	0.2	36757	keystroke_Key.space	Key.space	n/a
18.5545	0.096	37109	keystroke_l	l	n/a
18.6425	0.096	37285	keystroke_a	a	n/a
18.9145	0.136	37829	keystroke_z	z	n/a
18.9385	0.128	37877	keystroke_y	y	n/a
19.0735	0.161	38147	keystroke_Key.space	Key.space	n/a
19.282	0.1125	38564	keystroke_d	d	n/a
19.3465	0.12	38693	keystroke_o	o	n/a
19.5865	0.144	39173	keystroke_g	g	n/a
19.7785	0.1515	39557	keystroke_Key.enter	Key.enter	n/a
19.9375	8.386	39875	prompt	n/a	principal whatever holdem concentrations\n
20.9625	0.111	41925	keystroke_p	p	n/a
21.1305	0.1195	42261	keystroke_r	r	n/a
21.2585	0.0875	42517	keystroke_i	i	n/a
21.5055	0.097	43011	keystroke_n	n	n/a
21.6265	0.144	43253	keystroke_c	c	n/a
21.7305	0.111	43461	keystroke_i	i	n/a
22.0025	0.104	44005	keystroke_p	p	n/a
22.202	0.144	44404	keystroke_a	a	n/a
22.338	0.1115	44676	keystroke_l	l	n/a
22.4575	0.161	44915	keystroke_Key.space	Key.space	n/a
22.706	0.096	45412	keystroke_w	w	n/a
22.778	0.1045	45556	keystroke_h	h	n/a
22.8985	0.111	45797	keystroke_a	a	n/a
23.034	0.1435	46068	keystroke_t	t	n/a
23.1625	0.119	46325	keystroke_e	e	n/a
23.37	0.104	46740	keystroke_v	v	n/a
23.506	0.168	47012	keystroke_e	e	n/a
23.618	0.1365	47236	keystroke_r	r	n/a
23.714	0.136	47428	keystroke_Key.space	Key.space	n/a
24.026	0.0885	48052	keystroke_h	h	n/a
24.146	0.072	48292	keystroke_o	o	n/a
24.362	0.0805	48724	keystroke_l	l	n/a
24.4505	0.152	48901	keystroke_d	d	n/a
24.778	0.12	49556	keystroke_e	e	n/a
24.954	0.1125	49908	keystroke_m	m	n/a
25.1295	0.1285	50259	keystroke_Key.space	Key.space	n/a
25.466	0.12	50932	keystroke_c	c	n/a
25.5305	0.096	51061	keystroke_o	o	n/a
25.714	0.1285	51428	keystroke_n	n	n/a
25.826	0.1275	51652	keystroke_c	c	n/a
25.9455	0.1685	51891	keystroke_e	e	n/a
26.074	0.1045	52148	keystroke_n	n	n/a
26.2425	0.135	52485	keystroke_t	t	n/a
26.506	0.1205	53012	keystroke_r	r	n/a
26.61	0.151	53220	keystroke_a	a	n/a
26.778	0.128	53556	keystroke_t	t	n/a
26.9545	0.1755	53909	keystroke_o	o	n/a
27.385	0.089	54770	keystroke_Key.backspace	Key.backspace	n/a
27.6985	0.1595	55397	keystroke_i	i	n/a
27.8095	0.1285	55619	keystroke_o	o	n/a
27.906	0.1275	55812	keystroke_n	n	n/a
28.0255	0.0885	56051	keystroke_s	s	n/a
28.25	0.072	56500	keystroke_Key.enter	Key.enter	n/a
28.328	8.4045	56656	prompt	n/a	celebrities capability throwing allergy\n
28.994	0.168	57988	keystroke_c	c	n/a
29.121	0.121	58242	keystroke_e	e	n/a
29.25	0.12	58500	keystroke_l	l	n/a
29.377	0.0975	58754	keystroke_e	e	n/a
29.5455	0.1045	59091	keystroke_b	b	n/a
29.7865	0.119	59573	keystroke_r	r	n/a
30.242	0.12	60484	keystroke_i	i	n/a
30.346	0.144	60692	keystroke_t	t	n/a
30.4575	0.1365	60915	keystroke_i	i	n/a
30.602	0.1915	61204	keystroke_e	e	n/a
30.7295	0.168	61459	keystroke_s	s	n/a
31.0655	0.128	62131	keystroke_Key.space	Key.space	n/a
31.242	0.152	62484	keystroke_c	c	n/a
31.386	0.16	62772	keystroke_a	a	n/a
31.5615	0.0325	63123	keystroke_p	p	n/a
31.61	0.056	63220	keystroke_a	a	n/a
32.321	0.1045	64642	keystroke_a	a	n/a
32.7615	0.088	65523	keystroke_Key.backspace	Key.backspace	n/a
33.1055	0.1205	66211	keystroke_b	b	n/a
33.338	0.128	66676	keystroke_i	i	n/a
33.4575	0.1925	66915	keystroke_l	l	n/a
33.585	0.113	67170	keystroke_i	i	n/a
33.722	0.136	67444	keystroke_t	t	n/a
33.8415	0.112	67683	keystroke_y	y	n/a
34.01	0.1515	68020	keystroke_Key.space	Key.space	n/a
34.2815	0.112	68563	keystroke_t	t	n/a
34.3375	0.1365	68675	keystroke_h	h	n/a
34.546	0.1035	69092	keystroke_r	r	n/a
34.6335	0.12	69267	keystroke_o	o	n/a
34.778	0.136	69556	keystroke_w	w	n/a
34.874	0.104	69748	keystroke_i	i	n/a
35.05	0.1115	70100	keystroke_n	n	n/a
35.1455	0.1365	70291	keystroke_g	g	n/a
35.2415	0.144	70483	keystroke_Key.space	Key.space	n/a
35.418	0.0875	70836	keystroke_a	a	n/a
35.49	0.088	70980	keystroke_l	l	n/a
35.6095	0.128	71219	keystroke_l	l	n/a
35.7215	0.16	71443	keystroke_e	e	n/a
35.8975	0.1125	71795	keystroke_r	r	n/a
36.178	0.1355	72356	keystroke_g	g	n/a
36.2415	0.113	72483	keystroke_y	y	n/a
36.6255	0.104	73251	keystroke_Key.enter	Key.enter	n/a
36.736	6.34	73472	prompt	n/a	assure interstate extensive gabriel\n
37.378	0.096	74756	keystroke_a	a	n/a
37.57	0.0875	75140	keystroke_s	s	n/a
37.7535	0.0805	75507	keystroke_s	s	n/a
37.85	0.096	75700	keystroke_u	u	n/a
37.9615	0.16	75923	keystroke_r	r	n/a
38.034	0.2	76068	keystroke_e	e	n/a
38.226	0.1355	76452	keystroke_Key.space	Key.space	n/a
38.3695	0.064	76739	keystroke_i	i	n/a
38.537	0.136	77074	keystroke_n	n	n/a
38.602	0.112	77204	keystroke_t	t	n/a
38.714	0.176	77428	keystroke_e	e	n/a
38.842	0.176	77684	keystroke_r	r	n/a
39.2575	0.1605	78515	keystroke_s	s	n/a
39.4335	0.1765	78867	keystroke_t	t	n/a
39.634	0.128	79268	keystroke_a	a	n/a
39.786	0.128	79572	keystroke_t	t	n/a
39.874	0.144	79748	keystroke_e	e	n/a
39.994	0.12	79988	keystroke_Key.space	Key.space	n/a
40.1865	0.056	80373	keystroke_e	e	n/a
40.418	0.152	80836	keystroke_x	x	n/a
40.642	0.192	81284	keystroke_t	t	n/a
40.738	0.144	81476	keystroke_e	e	n/a
40.874	0.136	81748	keystroke_n	n	n/a
41.034	0.1035	82068	keystroke_s	s	n/a
41.1535	0.08	82307	keystroke_i	i	n/a
41.298	0.136	82596	keystroke_v	v	n/a
41.386	0.16	82772	keystroke_e	e	n/a
41.5215	0.16	83043	keystroke_Key.space	Key.space	n/a
41.6735	0.112	83347	keystroke_g	g	n/a
41.89	0.128	83780	keystroke_a	a	n/a
41.978	0.1115	83956	keystroke_b	b	n/a
42.2895	0.128	84579	keystroke_r	r	n/a
42.4015	0.1205	84803	keystroke_i	i	n/a
42.522	0.112	85044	keystroke_e	e	n/a
42.666	0.12	85332	keystroke_l	l	n/a
42.9935	0.0805	85987	keystroke_Key.enter	Key.enter	n/a
43.0805	9.9	86161	prompt	n/a	reload announcements correspondence street\n
43.834	0.1045	87668	keystroke_r	r	n/a
43.9455	0.112	87891	keystroke_e	e	n/a
44.274	0.072	88548	keystroke_l	l	n/a
44.4745	0.111	88949	keystroke_o	o	n/a
44.61	0.1445	89220	keystroke_a	a	n/a
44.7625	0.119	89525	keystroke_d	d	n/a
44.8975	0.1365	89795	keystroke_Key.space	Key.space	n/a
45.137	0.113	90274	keystroke_a	a	n/a
45.2505	0.0795	90501	keystroke_n	n	n/a
45.426	0.0635	90852	keystroke_n	n	n/a
45.586	0.08	91172	keystroke_o	o	n/a
45.866	0.096	91732	keystroke_u	u	n/a
46.0585	0.1115	92117	keystroke_n	n	n/a
46.602	0.144	93204	keystroke_c	c	n/a
46.81	0.1435	93620	keystroke_e	e	n/a
46.9705	0.095	93941	keystroke_m	m	n/a
47.0975	0.153	94195	keystroke_e	e	n/a
47.2095	0.112	94419	keystroke_n	n	n/a
47.426	0.1115	94852	keystroke_s	s	n/a
47.7695	0.088	95539	keystroke_Key.backspace	Key.backspace	n/a
47.8505	0.167	95701	keystroke_t	t	n/a
47.9535	0.1445	95907	keystroke_s	s	n/a
48.082	0.1835	96164	keystroke_Key.space	Key.space	n/a
48.3295	0.1125	96659	keystroke_c	c	n/a
48.4185	0.1115	96837	keystroke_o	o	n/a
48.634	0.136	97268	keystroke_r	r	n/a
48.8575	0.1445	97715	keystroke_r	r	n/a
48.9135	0.2325	97827	keystroke_e	e	n/a
49.106	0.136	98212	keystroke_s	s	n/a
49.3945	0.112	98789	keystroke_p	p	n/a
49.5615	0.12	99123	keystroke_o	o	n/a
49.8345	0.112	99669	keystroke_n	n	n/a
49.954	0.0795	99908	keystroke_d	d	n/a
50.1695	0.136	100339	keystroke_e	e	n/a
50.4735	0.112	100947	keystroke_n	n	n/a
51.266	0.152	102532	keystroke_c	c	n/a
51.354	0.192	102708	keystroke_e	e	n/a
51.6095	0.152	103219	keystroke_Key.space	Key.space	n/a
51.85	0.072	103700	keystroke_s	s	n/a
51.979	0.135	103958	keystroke_t	t	n/a
52.266	0.088	104532	keystroke_r	r	n/a
52.3065	0.136	104613	keystroke_e	e	n/a
52.53	0.144	105060	keystroke_e	e	n/a
52.65	0.1515	105300	keystroke_t	t	n/a
52.882	0.0955	105764	keystroke_Key.enter	Key.enter	n/a
52.986	5.889	105972	prompt	n/a	mating polish warm clips\n
53.682	0.12	107364	keystroke_m	m	n/a
53.866	0.12	107732	keystroke_a	a	n/a
53.97	0.128	107940	keystroke_t	t	n/a
54.058	0.096	108116	keystroke_i	i	n/a
54.2175	0.144	108435	keystroke_n	n	n/a
54.33	0.12	108660	keystroke_g	g	n/a
54.4095	0.1685	108819	keystroke_Key.space	Key.space	n/a
54.6175	0.0965	109235	keystroke_p	p	n/a
55.154	0.0715	110308	keystroke_l	l	n/a
55.5135	0.0805	111027	keystroke_Key.backspace	Key.backspace	n/a
55.874	0.096	111748	keystroke_o	o	n/a
56.1055	0.0885	112211	keystroke_l	l	n/a
56.3375	0.0885	112675	keystroke_i	i	n/a
56.498	0.112	112996	keystroke_s	s	n/a
56.586	0.088	113172	keystroke_h	h	n/a
56.698	0.1195	113396	keystroke_Key.space	Key.space	n/a
56.9455	0.1125	113891	keystroke_w	w	n/a
57.0495	0.1435	114099	keystroke_a	a	n/a
57.201	0.121	114402	keystroke_r	r	n/a
57.346	0.0795	114692	keystroke_m	m	n/a
57.4575	0.136	114915	keystroke_Key.space	Key.space	n/a
57.7775	0.1445	115555	keystroke_c	c	n/a
57.8975	0.064	115795	keystroke_l	l	n/a
58.082	0.072	116164	keystroke_i	i	n/a
58.298	0.088	116596	keystroke_p	p	n/a
58.402	0.104	116804	keystroke_s	s	n/a
58.81	0.064	117620	keystroke_Key.enter	Key.enter	n/a
58.882	7.1565	117764	prompt	n/a	sphere unfortunately courts bearing\n
59.5545	0.1435	119109	keystroke_s	s	n/a
59.65	0.096	119300	keystroke_p	p	n/a
59.906	0.112	119812	keystroke_h	h	n/a
60.002	0.12	120004	keystroke_e	e	n/a
60.13	0.168	120260	keystroke_r	r	n/a
60.25	0.1285	120500	keystroke_e	e	n/a
60.682	0.136	121364	keystroke_Key.space	Key.space	n/a
60.834	0.031	121668	keystroke_Key.space	Key.space	n/a
60.858	0.104	121716	keystroke_u	u	n/a
61.0335	0.129	122067	keystroke_n	n	n/a
61.1775	0.145	122355	keystroke_f	f	n/a
61.5055	0.113	123011	keystroke_o	o	n/a
61.65	0.1675	123300	keystroke_r	r	n/a
61.962	0.1445	123924	keystroke_t	t	n/a
62.0735	0.136	124147	keystroke_u	u	n/a
62.2255	0.089	124451	keystroke_n	n	n/a
62.3295	0.152	124659	keystroke_a	a	n/a
62.4825	0.143	124965	keystroke_t	t	n/a
62.5935	0.1205	125187	keystroke_e	e	n/a
62.9855	0.0965	125971	keystroke_l	l	n/a
63.225	0.136	126450	keystroke_y	y	n/a
63.401	0.1525	126802	keystroke_Key.space	Key.space	n/a
63.8345	0.127	127669	keystroke_c	c	n/a
63.914	0.096	127828	keystroke_o	o	n/a
64.1055	0.1125	128211	keystroke_u	u	n/a
64.2185	0.127	128437	keystroke_r	r	n/a
64.5215	0.16	129043	keystroke_t	t	n/a
64.6735	0.1525	129347	keystroke_s	s	n/a
64.8495	0.2005	129699	keystroke_Key.space	Key.space	n/a
65.026	0.112	130052	keystroke_b	b	n/a
65.13	0.135	130260	keystroke_e	e	n/a
65.2735	0.1525	130547	keystroke_a	a	n/a
65.3535	0.1125	130707	keystroke_r	r	n/a
65.458	0.088	130916	keystroke_i	i	n/a
65.594	0.104	131188	keystroke_n	n	n/a
65.706	0.12	131412	keystroke_g	g	n/a
65.97	0.064	131940	keystroke_Key.enter	Key.enter	n/a
66.0415	9.482	132083	prompt	n/a	mainly fitting repository penetration\n
66.7625	0.079	133525	keystroke_m	m	n/a
66.9225	0.1355	133845	keystroke_a	a	n/a
66.978	0.088	133956	keystroke_i	i	n/a
67.138	0.12	134276	keystroke_n	n	n/a
67.4575	0.0885	134915	keystroke_l	l	n/a
67.7295	0.08	135459	keystroke_y	y	n/a
68.0175	0.1045	136035	keystroke_Key.space	Key.space	n/a
68.4415	0.1125	136883	keystroke_f	f	n/a
68.5055	0.1365	137011	keystroke_i	i	n/a
68.762	0.048	137524	keystroke_t	t	n/a
69.114	0.1115	138228	keystroke_t	t	n/a
69.2975	0.072	138595	keystroke_i	i	n/a
69.4575	0.136	138915	keystroke_n	n	n/a
69.5295	0.144	139059	keystroke_g	g	n/a
69.6895	0.152	139379	keystroke_Key.space	Key.space	n/a
70.1215	0.129	140243	keystroke_r	r	n/a
70.1935	0.168	140387	keystroke_e	e	n/a
70.3695	0.1125	140739	keystroke_p	p	n/a
70.4175	0.184	140835	keystroke_o	o	n/a
70.802	0.1595	141604	keystroke_s	s	n/a
70.906	0.1275	141812	keystroke_i	i	n/a
71.1375	0.1365	142275	keystroke_t	t	n/a
71.1855	0.112	142371	keystroke_i	i	n/a
71.641	0.08	143282	keystroke_Key.backspace	Key.backspace	n/a
71.929	0.104	143858	keystroke_o	o	n/a
72.241	0.096	144482	keystroke_y	y	n/a
72.4495	0.12	144899	keystroke_r	r	n/a
72.7215	0.0725	145443	keystroke_Key.backspace	Key.backspace	n/a
72.866	0.0795	145732	keystroke_Key.backspace	Key.backspace	n/a
73.0255	0.08	146051	keystroke_r	r	n/a
73.1785	0.087	146357	keystroke_y	y	n/a
73.4655	0.088	146931	keystroke_Key.space	Key.space	n/a
73.634	0.104	147268	keystroke_p	p	n/a
73.746	0.112	147492	keystroke_e	e	n/a
73.906	0.1195	147812	keystroke_n	n	n/a
74.034	0.1755	148068	keystroke_e	e	n/a
74.226	0.112	148452	keystroke_t	t	n/a
74.474	0.112	148948	keystroke_r	r	n/a
74.594	0.136	149188	keystroke_a	a	n/a
74.785	0.1135	149570	keystroke_t	t	n/a
74.938	0.1115	149876	keystroke_i	i	n/a
75.01	0.1195	150020	keystroke_o	o	n/a
75.0975	0.1285	150195	keystroke_n	n	n/a
75.4495	0.072	150899	keystroke_Key.enter	Key.enter	n/a
75.529	8.3145	151058	prompt	n/a	expanded commit form teaching\n
76.7055	0.1045	153411	keystroke_e	e	n/a
76.9695	0.112	153939	keystroke_x	x	n/a
77.098	0.168	154196	keystroke_p	p	n/a
77.69	0.024	155380	keystroke_Key.backspace	Key.backspace	n/a
77.81	0.1285	155620	keystroke_x	x	n/a
78.41	0.072	156820	keystroke_Key.backspace	Key.backspace	n/a
78.6825	0.1035	157365	keystroke_p	p	n/a
78.842	0.112	157684	keystroke_a	a	n/a
79.01	0.112	158020	keystroke_n	n	n/a
79.2105	0.136	158421	keystroke_d	d	n/a
79.41	0.208	158820	keystroke_e	e	n/a
79.586	0.1275	159172	keystroke_d	d	n/a
79.746	0.176	159492	keystroke_Key.space	Key.space	n/a
79.938	0.112	159876	keystroke_c	c	n/a
80.018	0.048	160036	keystroke_o	o	n/a
80.226	0.0885	160452	keystroke_m	m	n/a
80.41	0.0955	160820	keystroke_m	m	n/a
80.5625	0.1195	161125	keystroke_i	i	n/a
80.69	0.152	161380	keystroke_t	t	n/a
81.3055	0.136	162611	keystroke_Key.space	Key.space	n/a
81.538	0.0635	163076	keystroke_f	f	n/a
81.9705	0.0795	163941	keystroke_o	o	n/a
82.082	0.112	164164	keystroke_r	r	n/a
82.234	0.128	164468	keystroke_m	m	n/a
82.378	0.1675	164756	keystroke_Key.space	Key.space	n/a
82.6025	0.167	165205	keystroke_t	t	n/a
82.7055	0.168	165411	keystroke_e	e	n/a
82.8335	0.1525	165667	keystroke_a	a	n/a
83.066	0.12	166132	keystroke_c	c	n/a
83.145	0.096	166290	keystroke_h	h	n/a
83.2095	0.1525	166419	keystroke_i	i	n/a
83.385	0.129	166770	keystroke_n	n	n/a
83.466	0.136	166932	keystroke_g	g	n/a
83.7615	0.0805	167523	keystroke_Key.enter	Key.enter	n/a
83.8485	7.107	167697	prompt	n/a	exhibits horizon logging chargers\n
84.4425	0.0635	168885	keystroke_e	e	n/a
84.6655	0.1205	169331	keystroke_x	x	n/a
84.834	0.128	169668	keystroke_h	h	n/a
84.9295	0.1205	169859	keystroke_i	i	n/a
85.4255	0.1195	170851	keystroke_i	i	n/a
85.817	0.0485	171634	keystroke_Key.backspace	Key.backspace	n/a
86.1935	0.105	172387	keystroke_b	b	n/a
86.3935	0.097	172787	keystroke_i	i	n/a
86.4735	0.1445	172947	keystroke_t	t	n/a
86.578	0.1435	173156	keystroke_s	s	n/a
86.658	0.1515	173316	keystroke_Key.space	Key.space	n/a
86.7935	0.1365	173587	keystroke_h	h	n/a
86.9775	0.1355	173955	keystroke_o	o	n/a
87.129	0.129	174258	keystroke_r	r	n/a
87.282	0.12	174564	keystroke_i	i	n/a
87.49	0.1115	174980	keystroke_z	z	n/a
87.65	0.088	175300	keystroke_o	o	n/a
87.786	0.1515	175572	keystroke_n	n	n/a
87.9535	0.208	175907	keystroke_Key.space	Key.space	n/a
88.1535	0.096	176307	keystroke_l	l	n/a
88.3375	0.1125	176675	keystroke_o	o	n/a
88.4425	0.1035	176885	keystroke_g	g	n/a
88.5775	0.112	177155	keystroke_g	g	n/a
88.7065	0.103	177413	keystroke_i	i	n/a
89.0335	0.1125	178067	keystroke_n	n	n/a
89.17	0.1035	178340	keystroke_g	g	n/a
89.2895	0.168	178579	keystroke_Key.space	Key.space	n/a
89.618	0.112	179236	keystroke_c	c	n/a
89.6735	0.112	179347	keystroke_h	h	n/a
89.8175	0.1685	179635	keystroke_a	a	n/a
89.9695	0.1045	179939	keystroke_r	r	n/a
90.2335	0.104	180467	keystroke_g	g	n/a
90.3695	0.2005	180739	keystroke_e	e	n/a
90.498	0.1515	180996	keystroke_r	r	n/a
90.6175	0.128	181235	keystroke_s	s	n/a
90.8735	0.0795	181747	keystroke_Key.enter	Key.enter	n/a
90.96	6.8675	181920	prompt	n/a	fridge trigger transcription fell\n
91.673	0.072	183346	keystroke_f	f	n/a
91.89	0.087	183780	keystroke_r	r	n/a
92.01	0.1035	184020	keystroke_i	i	n/a
92.1615	0.104	184323	keystroke_d	d	n/a
92.4335	0.1435	184867	keystroke_g	g	n/a
92.5295	0.144	185059	keystroke_e	e	n/a
92.705	0.1685	185410	keystroke_Key.space	Key.space	n/a
92.89	0.104	185780	keystroke_t	t	n/a
93.1135	0.096	186227	keystroke_r	r	n/a
93.1935	0.112	186387	keystroke_i	i	n/a
93.4255	0.048	186851	keystroke_g	g	n/a
93.586	0.072	187172	keystroke_g	g	n/a
93.706	0.1595	187412	keystroke_e	e	n/a
93.8415	0.1125	187683	keystroke_r	r	n/a
94.098	0.136	188196	keystroke_Key.space	Key.space	n/a
94.1855	0.1125	188371	keystroke_t	t	n/a
94.4015	0.12	188803	keystroke_r	r	n/a
94.5055	0.104	189011	keystroke_a	a	n/a
94.6415	0.08	189283	keystroke_n	n	n/a
94.7455	0.08	189491	keystroke_s	s	n/a
94.9535	0.088	189907	keystroke_c	c	n/a
95.2175	0.0885	190435	keystroke_r	r	n/a
95.2895	0.096	190579	keystroke_i	i	n/a
95.4815	0.12	190963	keystroke_p	p	n/a
95.5865	0.143	191173	keystroke_t	t	n/a
95.8095	0.112	191619	keystroke_i	i	n/a
95.8975	0.1205	191795	keystroke_o	o	n/a
96.0975	0.128	192195	keystroke_n	n	n/a
96.2655	0.144	192531	keystroke_Key.space	Key.space	n/a
96.7295	0.136	193459	keystroke_f	f	n/a
96.8255	0.152	193651	keystroke_e	e	n/a
96.9855	0.0635	193971	keystroke_l	l	n/a
97.169	0.0885	194338	keystroke_l	l	n/a
97.6895	0.1355	195379	keystroke_Key.enter	Key.enter	n/a
97.832	5.7555	195664	prompt	n/a	test facing claimed inter\n
98.6655	0.1605	197331	keystroke_t	t	n/a
98.762	0.264	197524	keystroke_e	e	n/a
98.905	0.145	197810	keystroke_s	s	n/a
98.994	0.1515	197988	keystroke_t	t	n/a
99.1455	0.136	198291	keystroke_Key.space	Key.space	n/a
99.4015	0.0885	198803	keystroke_f	f	n/a
99.5775	0.112	199155	keystroke_a	a	n/a
99.7295	0.136	199459	keystroke_c	c	n/a
99.8495	0.072	199699	keystroke_i	i	n/a
100.066	0.1355	200132	keystroke_n	n	n/a
100.1535	0.12	200307	keystroke_g	g	n/a
100.274	0.135	200548	keystroke_Key.space	Key.space	n/a
100.466	0.1275	200932	keystroke_c	c	n/a
100.6575	0.1355	201315	keystroke_a	a	n/a
100.7535	0.112	201507	keystroke_l	l	n/a
101.4415	0.072	202883	keystroke_Key.backspace	Key.backspace	n/a
101.6015	0.072	203203	keystroke_Key.backspace	Key.backspace	n/a
101.866	0.1035	203732	keystroke_l	l	n/a
101.9455	0.128	203891	keystroke_a	a	n/a
102.065	0.1035	204130	keystroke_i	i	n/a
102.2335	0.136	204467	keystroke_m	m	n/a
102.3295	0.144	204659	keystroke_e	e	n/a
102.466	0.176	204932	keystroke_d	d	n/a
102.593	0.1685	205186	keystroke_Key.space	Key.space	n/a
102.7375	0.088	205475	keystroke_i	i	n/a
102.9055	0.136	205811	keystroke_n	n	n/a
103.0255	0.088	206051	keystroke_t	t	n/a
103.1455	0.184	206291	keystroke_e	e	n/a
103.282	0.127	206564	keystroke_r	r	n/a
103.4895	0.0955	206979	keystroke_Key.enter	Key.enter	n/a
103.5925	5.539	207185	prompt	n/a	sleeps sans graduation pull\n
104.33	0.127	208660	keystroke_s	s	n/a
104.465	0.104	208930	keystroke_l	l	n/a
104.6095	0.088	209219	keystroke_e	e	n/a
104.801	0.104	209602	keystroke_e	e	n/a
104.8655	0.0955	209731	keystroke_p	p	n/a
105.0495	0.128	210099	keystroke_s	s	n/a
105.1535	0.16	210307	keystroke_Key.space	Key.space	n/a
105.3615	0.0795	210723	keystroke_s	s	n/a
105.594	0.071	211188	keystroke_a	a	n/a
105.674	0.08	211348	keystroke_n	n	n/a
105.786	0.12	211572	keystroke_s	s	n/a
105.9215	0.128	211843	keystroke_Key.space	Key.space	n/a
106.2655	0.088	212531	keystroke_g	g	n/a
106.497	0.112	212994	keystroke_r	r	n/a
106.6015	0.1915	213203	keystroke_a	a	n/a
106.809	0.104	213618	keystroke_d	d	n/a
107.202	0.088	214404	keystroke_u	u	n/a
107.314	0.135	214628	keystroke_a	a	n/a
107.45	0.1595	214900	keystroke_t	t	n/a
107.5615	0.16	215123	keystroke_i	i	n/a
107.6575	0.1445	215315	keystroke_o	o	n/a
107.8095	0.12	215619	keystroke_n	n	n/a
107.9055	0.176	215811	keystroke_Key.space	Key.space	n/a
108.0975	0.12	216195	keystroke_p	p	n/a
108.3535	0.096	216707	keystroke_u	u	n/a
108.618	0.0795	217236	keystroke_l	l	n/a
108.785	0.072	217570	keystroke_l	l	n/a
109.0655	0.064	218131	keystroke_Key.enter	Key.enter	n/a
109.1365	6.603	218273	prompt	n/a	facility learners minute december\n
109.9855	0.112	219971	keystroke_f	f	n/a
110.0975	0.136	220195	keystroke_a	a	n/a
110.2815	0.112	220563	keystroke_c	c	n/a
110.3945	0.1355	220789	keystroke_i	i	n/a
110.5695	0.16	221139	keystroke_l	l	n/a
110.6815	0.112	221363	keystroke_i	i	n/a
110.858	0.1275	221716	keystroke_t	t	n/a
110.9775	0.112	221955	keystroke_y	y	n/a
111.2095	0.128	222419	keystroke_Key.space	Key.space	n/a
111.5935	0.096	223187	keystroke_l	l	n/a
111.6815	0.208	223363	keystroke_e	e	n/a
111.8175	0.1125	223635	keystroke_a	a	n/a
111.9215	0.1125	223843	keystroke_r	r	n/a
112.066	0.096	224132	keystroke_n	n	n/a
112.1775	0.1045	224355	keystroke_e	e	n/a
112.258	0.1195	224516	keystroke_r	r	n/a
112.562	0.0555	225124	keystroke_s	s	n/a
112.6655	0.144	225331	keystroke_Key.space	Key.space	n/a
113.034	0.1115	226068	keystroke_m	m	n/a
113.1215	0.1115	226243	keystroke_i	i	n/a
113.3295	0.104	226659	keystroke_n	n	n/a
113.441	0.08	226882	keystroke_u	u	n/a
113.537	0.1445	227074	keystroke_t	t	n/a
113.6175	0.176	227235	keystroke_e	e	n/a
113.8655	0.1355	227731	keystroke_Key.space	Key.space	n/a
114.305	0.128	228610	keystroke_d	d	n/a
114.441	0.1685	228882	keystroke_e	e	n/a
114.657	0.168	229314	keystroke_c	c	n/a
114.802	0.128	229604	keystroke_e	e	n/a
114.921	0.104	229842	keystroke_m	m	n/a
115.1775	0.1205	230355	keystroke_b	b	n/a
115.2655	0.0805	230531	keystroke_e	e	n/a
115.305	0.1685	230610	keystroke_r	r	n/a
115.657	0.08	231314	keystroke_Key.enter	Key.enter	n/a
115.744	6.779	231488	prompt	n/a	lenses sheer regarding narrative\n
116.465	0.1285	232930	keystroke_l	l	n/a
116.6095	0.136	233219	keystroke_e	e	n/a
116.7935	0.103	233587	keystroke_n	n	n/a
116.9775	0.112	233955	keystroke_s	s	n/a
117.0735	0.176	234147	keystroke_e	e	n/a
117.2175	0.12	234435	keystroke_s	s	n/a
117.378	0.1195	234756	keystroke_Key.space	Key.space	n/a
117.7215	0.1115	235443	keystroke_s	s	n/a
117.8735	0.056	235747	keystroke_h	h	n/a
117.9615	0.12	235923	keystroke_e	e	n/a
118.4175	0.143	236835	keystroke_e	e	n/a
118.5215	0.136	237043	keystroke_r	r	n/a
118.737	0.136	237474	keystroke_Key.space	Key.space	n/a
118.929	0.112	237858	keystroke_r	r	n/a
119.001	0.1445	238002	keystroke_e	e	n/a
119.249	0.0955	238498	keystroke_g	g	n/a
119.4575	0.135	238915	keystroke_a	a	n/a
119.5455	0.104	239091	keystroke_r	r	n/a
119.793	0.088	239586	keystroke_d	d	n/a
119.873	0.088	239746	keystroke_i	i	n/a
120.017	0.1365	240034	keystroke_n	n	n/a
120.1055	0.136	240211	keystroke_g	g	n/a
120.2805	0.1525	240561	keystroke_Key.space	Key.space	n/a
120.537	0.096	241074	keystroke_n	n	n/a
120.6415	0.128	241283	keystroke_a	a	n/a
120.745	0.2565	241490	keystroke_r	r	n/a
121.305	0.104	242610	keystroke_r	r	n/a
121.3935	0.1365	242787	keystroke_a	a	n/a
121.785	0.104	243570	keystroke_t	t	n/a
121.873	0.1285	243746	keystroke_i	i	n/a
122.0815	0.128	244163	keystroke_v	v	n/a
122.1615	0.1115	244323	keystroke_e	e	n/a
122.409	0.112	244818	keystroke_Key.enter	Key.enter	n/a
122.5285	8.202	245057	prompt	n/a	largest appliances alberta calculate\n
123.2335	0.112	246467	keystroke_l	l	n/a
123.3855	0.096	246771	keystroke_a	a	n/a
123.4655	0.104	246931	keystroke_r	r	n/a
123.7375	0.168	247475	keystroke_g	g	n/a
124.1455	0.1755	248291	keystroke_e	e	n/a
124.2815	0.1275	248563	keystroke_s	s	n/a
124.353	0.144	248706	keystroke_t	t	n/a
124.449	0.144	248898	keystroke_Key.space	Key.space	n/a
124.665	0.088	249330	keystroke_a	a	n/a
124.777	0.0645	249554	keystroke_p	p	n/a
124.889	0.104	249778	keystroke_p	p	n/a
125.321	0.097	250642	keystroke_l	l	n/a
125.4655	0.112	250931	keystroke_i	i	n/a
125.5695	0.144	251139	keystroke_c	c	n/a
125.7055	0.1205	251411	keystroke_a	a	n/a
126.1695	0.088	252339	keystroke_Key.backspace	Key.backspace	n/a
126.5215	0.064	253043	keystroke_Key.backspace	Key.backspace	n/a
126.6895	0.0875	253379	keystroke_a	a	n/a
126.817	0.1125	253634	keystroke_n	n	n/a
126.93	0.143	253860	keystroke_c	c	n/a
126.993	0.2075	253986	keystroke_e	e	n/a
127.0815	0.152	254163	keystroke_s	s	n/a
127.3045	0.105	254609	keystroke_Key.space	Key.space	n/a
127.434	0.1035	254868	keystroke_a	a	n/a
127.5455	0.0875	255091	keystroke_l	l	n/a
127.778	0.111	255556	keystroke_b	b	n/a
127.833	0.1445	255666	keystroke_e	e	n/a
127.913	0.1445	255826	keystroke_r	r	n/a
128.1535	0.167	256307	keystroke_t	t	n/a
128.2815	0.1115	256563	keystroke_a	a	n/a
128.6255	0.119	257251	keystroke_Key.space	Key.space	n/a
128.7615	0.128	257523	keystroke_c	c	n/a
128.8805	0.1205	257761	keystroke_a	a	n/a
129.009	0.096	258018	keystroke_l	l	n/a
129.3055	0.112	258611	keystroke_c	c	n/a
129.4495	0.04	258899	keystroke_u	u	n/a
129.8975	0.104	259795	keystroke_l	l	n/a
130.0325	0.096	260065	keystroke_a	a	n/a
130.121	0.144	260242	keystroke_t	t	n/a
130.3215	0.119	260643	keystroke_e	e	n/a
130.6405	0.0885	261281	keystroke_Key.enter	Key.enter	n/a
130.7335	8.0935	261467	prompt	n/a	explanation missing mutual inspiration\n
131.305	0.072	262610	keystroke_s	s	n/a
131.6165	0.0725	263233	keystroke_Key.backspace	Key.backspace	n/a
131.7215	0.0555	263443	keystroke_e	e	n/a
131.9775	0.0875	263955	keystroke_x	x	n/a
132.009	0.12	264018	keystroke_p	p	n/a
132.369	0.128	264738	keystroke_l	l	n/a
132.7855	0.088	265571	keystroke_a	a	n/a
132.9455	0.088	265891	keystroke_n	n	n/a
133.113	0.144	266226	keystroke_a	a	n/a
133.369	0.1595	266738	keystroke_t	t	n/a
133.489	0.1195	266978	keystroke_i	i	n/a
133.5605	0.113	267121	keystroke_o	o	n/a
133.729	0.1285	267458	keystroke_n	n	n/a
133.833	0.1435	267666	keystroke_Key.space	Key.space	n/a
134.009	0.0565	268018	keystroke_e	e	n/a
134.377	0.064	268754	keystroke_Key.backspace	Key.backspace	n/a
134.641	0.12	269282	keystroke_m	m	n/a
134.753	0.12	269506	keystroke_i	i	n/a
134.85	0.0555	269700	keystroke_s	s	n/a
135.017	0.0645	270034	keystroke_s	s	n/a
135.0895	0.08	270179	keystroke_i	i	n/a
135.2335	0.128	270467	keystroke_n	n	n/a
135.3295	0.151	270659	keystroke_g	g	n/a
135.4415	0.143	270883	keystroke_Key.space	Key.space	n/a
135.8255	0.072	271651	keystroke_m	m	n/a
136.0325	0.081	272065	keystroke_u	u	n/a
136.1215	0.1275	272243	keystroke_t	t	n/a
136.2415	0.104	272483	keystroke_u	u	n/a
136.4415	0.096	272883	keystroke_a	a	n/a
136.5535	0.12	273107	keystroke_l	l	n/a
136.6965	0.152	273393	keystroke_Key.space	Key.space	n/a
136.953	0.088	273906	keystroke_i	i	n/a
137.1295	0.104	274259	keystroke_n	n	n/a
137.3055	0.088	274611	keystroke_s	s	n/a
137.4175	0.096	274835	keystroke_p	p	n/a
137.6415	0.1035	275283	keystroke_i	i	n/a
137.785	0.112	275570	keystroke_r	r	n/a
137.985	0.144	275970	keystroke_a	a	n/a
138.113	0.1765	276226	keystroke_t	t	n/a
138.201	0.12	276402	keystroke_i	i	n/a
138.281	0.128	276562	keystroke_o	o	n/a
138.385	0.1355	276770	keystroke_n	n	n/a
138.7375	0.0875	277475	keystroke_Key.enter	Key.enter	n/a
138.8355	7.319	277671	prompt	n/a	suse inclusive madonna festival\n
139.561	0.0955	279122	keystroke_s	s	n/a
139.6255	0.104	279251	keystroke_u	u	n/a
139.8325	0.1205	279665	keystroke_e	e	n/a
139.9205	0.136	279841	keystroke_s	s	n/a
140.3045	0.0725	280609	keystroke_Key.backspace	Key.backspace	n/a
140.4645	0.0725	280929	keystroke_Key.backspace	Key.backspace	n/a
140.5375	0.1035	281075	keystroke_s	s	n/a
140.609	0.128	281218	keystroke_e	e	n/a
140.793	0.1205	281586	keystroke_Key.space	Key.space	n/a
140.9445	0.1045	281889	keystroke_i	i	n/a
141.137	0.112	282274	keystroke_n	n	n/a
141.265	0.104	282530	keystroke_c	c	n/a
141.417	0.064	282834	keystroke_l	l	n/a
141.9215	0.0795	283843	keystroke_u	u	n/a
142.2895	0.0715	284579	keystroke_s	s	n/a
142.401	0.104	284802	keystroke_i	i	n/a
142.561	0.176	285122	keystroke_v	v	n/a
142.8885	0.1045	285777	keystroke_e	e	n/a
143.185	0.1275	286370	keystroke_Key.space	Key.space	n/a
143.4725	0.097	286945	keystroke_m	m	n/a
143.5045	0.153	287009	keystroke_a	a	n/a
143.7125	0.073	287425	keystroke_d	d	n/a
143.889	0.0955	287778	keystroke_o	o	n/a
144.1605	0.072	288321	keystroke_n	n	n/a
144.3125	0.1045	288625	keystroke_n	n	n/a
144.4095	0.079	288819	keystroke_a	a	n/a
144.545	0.1355	289090	keystroke_Key.space	Key.space	n/a
144.761	0.152	289522	keystroke_f	f	n/a
144.889	0.184	289778	keystroke_e	e	n/a
144.9765	0.1765	289953	keystroke_s	s	n/a
145.121	0.1445	290242	keystroke_t	t	n/a
145.2495	0.1115	290499	keystroke_i	i	n/a
145.441	0.088	290882	keystroke_v	v	n/a
145.641	0.112	291282	keystroke_a	a	n/a
145.761	0.072	291522	keystroke_l	l	n/a
146.073	0.08	292146	keystroke_Key.enter	Key.enter	n/a
146.16	6.883	292320	prompt	n/a	ecommerce survive cycle cocktail\n
146.8255	0.0715	293651	keystroke_e	e	n/a
147.153	0.08	294306	keystroke_c	c	n/a
147.265	0.072	294530	keystroke_o	o	n/a
147.441	0.064	294882	keystroke_m	m	n/a
147.6165	0.08	295233	keystroke_m	m	n/a
147.7445	0.104	295489	keystroke_e	e	n/a
147.825	0.1275	295650	keystroke_r	r	n/a
148.1685	0.136	296337	keystroke_c	c	n/a
148.3215	0.151	296643	keystroke_e	e	n/a
148.489	0.1435	296978	keystroke_Key.space	Key.space	n/a
148.7445	0.0875	297489	keystroke_s	s	n/a
148.816	0.105	297632	keystroke_u	u	n/a
148.9925	0.0965	297985	keystroke_r	r	n/a
149.2965	0.0565	298593	keystroke_v	v	n/a
149.385	0.096	298770	keystroke_i	i	n/a
149.497	0.08	298994	keystroke_v	v	n/a
149.673	0.12	299346	keystroke_e	e	n/a
149.841	0.1275	299682	keystroke_Key.space	Key.space	n/a
149.993	0.112	299986	keystroke_c	c	n/a
150.393	0.088	300786	keystroke_y	y	n/a
150.5135	0.0875	301027	keystroke_c	c	n/a
150.697	0.088	301394	keystroke_l	l	n/a
150.785	0.152	301570	keystroke_e	e	n/a
150.945	0.152	301890	keystroke_Key.space	Key.space	n/a
151.0885	0.1205	302177	keystroke_c	c	n/a
151.201	0.08	302402	keystroke_o	o	n/a
151.641	0.104	303282	keystroke_c	c	n/a
151.769	0.12	303538	keystroke_k	k	n/a
152.305	0.151	304610	keystroke_t	t	n/a
152.473	0.08	304946	keystroke_a	a	n/a
152.5135	0.1115	305027	keystroke_i	i	n/a
152.601	0.12	305202	keystroke_l	l	n/a
152.953	0.088	305906	keystroke_Key.enter	Key.enter	n/a
153.0475	7.091	306095	prompt	n/a	narrative restaurant founded oxygen\n
153.809	0.1205	307618	keystroke_n	n	n/a
154.025	0.1275	308050	keystroke_a	a	n/a
154.1445	0.113	308289	keystroke_r	r	n/a
154.337	0.1355	308674	keystroke_r	r	n/a
154.4885	0.1035	308977	keystroke_a	a	n/a
154.6575	0.1195	309315	keystroke_t	t	n/a
154.801	0.112	309602	keystroke_i	i	n/a
155.001	0.144	310002	keystroke_v	v	n/a
155.113	0.12	310226	keystroke_e	e	n/a
155.2725	0.1605	310545	keystroke_Key.space	Key.space	n/a
155.441	0.152	310882	keystroke_r	r	n/a
155.521	0.216	311042	keystroke_e	e	n/a
155.6255	0.1515	311251	keystroke_s	s	n/a
155.753	0.144	311506	keystroke_t	t	n/a
155.9935	0.1675	311987	keystroke_a	a	n/a
156.217	0.088	312434	keystroke_u	u	n/a
156.4415	0.0955	312883	keystroke_r	r	n/a
156.641	0.151	313282	keystroke_a	a	n/a
156.809	0.12	313618	keystroke_n	n	n/a
156.944	0.145	313888	keystroke_t	t	n/a
157.064	0.137	314128	keystroke_Key.space	Key.space	n/a
157.3055	0.072	314611	keystroke_f	f	n/a
157.4415	0.064	314883	keystroke_o	o	n/a
157.5925	0.0965	315185	keystroke_u	u	n/a
157.737	0.12	315474	keystroke_n	n	n/a
157.841	0.0965	315682	keystroke_d	d	n/a
158.009	0.1525	316018	keystroke_e	e	n/a
158.129	0.104	316258	keystroke_d	d	n/a
158.448	0.169	316896	keystroke_Key.space	Key.space	n/a
158.633	0.12	317266	keystroke_o	o	n/a
158.761	0.104	317522	keystroke_x	x	n/a
158.9765	0.0645	317953	keystroke_y	y	n/a
159.4965	0.129	318993	keystroke_g	g	n/a
159.6255	0.143	319251	keystroke_e	e	n/a
159.7205	0.136	319441	keystroke_n	n	n/a
160.0485	0.0885	320097	keystroke_Key.enter	Key.enter	n/a
160.144	6.971	320288	prompt	n/a	preservation allah grants ending\n
160.737	0.144	321474	keystroke_p	p	n/a
160.897	0.064	321794	keystroke_e	e	n/a
160.929	0.1675	321858	keystroke_r	r	n/a
161.5045	0.0885	323009	keystroke_Key.backspace	Key.backspace	n/a
161.673	0.0715	323346	keystroke_Key.backspace	Key.backspace	n/a
161.7535	0.1835	323507	keystroke_r	r	n/a
161.8725	0.112	323745	keystroke_e	e	n/a
162.6325	0.1685	325265	keystroke_s	s	n/a
162.9055	0.1275	325811	keystroke_e	e	n/a
162.961	0.152	325922	keystroke_r	r	n/a
163.2895	0.1115	326579	keystroke_v	v	n/a
163.529	0.136	327058	keystroke_a	a	n/a
163.641	0.1365	327282	keystroke_t	t	n/a
163.681	0.151	327362	keystroke_i	i	n/a
163.785	0.16	327570	keystroke_o	o	n/a
163.913	0.1285	327826	keystroke_n	n	n/a
163.993	0.152	327986	keystroke_Key.space	Key.space	n/a
164.145	0.072	328290	keystroke_a	a	n/a
164.2325	0.0805	328465	keystroke_l	l	n/a
164.393	0.071	328786	keystroke_l	l	n/a
164.4495	0.1035	328899	keystroke_a	a	n/a
164.601	0.128	329202	keystroke_h	h	n/a
164.713	0.1275	329426	keystroke_Key.space	Key.space	n/a
165.049	0.096	330098	keystroke_g	g	n/a
165.297	0.112	330594	keystroke_r	r	n/a
165.369	0.152	330738	keystroke_a	a	n/a
165.505	0.12	331010	keystroke_n	n	n/a
165.665	0.1595	331330	keystroke_t	t	n/a
165.801	0.1435	331602	keystroke_s	s	n/a
165.969	0.16	331938	keystroke_Key.space	Key.space	n/a
166.1695	0.111	332339	keystroke_e	e	n/a
166.2965	0.12	332593	keystroke_n	n	n/a
166.4325	0.088	332865	keystroke_d	d	n/a
166.505	0.1435	333010	keystroke_i	i	n/a
166.6325	0.1285	333265	keystroke_n	n	n/a
166.7365	0.144	333473	keystroke_g	g	n/a
167.033	0.08	334066	keystroke_Key.enter	Key.enter	n/a
167.1195	9.459	334239	prompt	n/a	bobby clothes grande summaries\n
167.793	0.0955	335586	keystroke_b	b	n/a
168.0165	0.096	336033	keystroke_o	o	n/a
168.3125	0.088	336625	keystroke_b	b	n/a
168.481	0.04	336962	keystroke_b	b	n/a
168.593	0.1195	337186	keystroke_y	y	n/a
168.744	0.136	337488	keystroke_Key.space	Key.space	n/a
169.033	0.144	338066	keystroke_c	c	n/a
169.145	0.072	338290	keystroke_l	l	n/a
169.353	0.0875	338706	keystroke_o	o	n/a
169.505	0.167	339010	keystroke_t	t	n/a
169.5615	0.1275	339123	keystroke_h	h	n/a
169.697	0.216	339394	keystroke_e	e	n/a
169.8415	0.1435	339683	keystroke_s	s	n/a
170.137	0.136	340274	keystroke_Key.space	Key.space	n/a
170.497	0.088	340994	keystroke_g	g	n/a
170.785	0.144	341570	keystroke_r	r	n/a
170.905	0.168	341810	keystroke_a	a	n/a
171.0965	0.0955	342193	keystroke_n	n	n/a
171.209	0.12	342418	keystroke_d	d	n/a
171.3045	0.1195	342609	keystroke_e	e	n/a
171.5525	0.12	343105	keystroke_Key.space	Key.space	n/a
171.784	0.088	343568	keystroke_s	s	n/a
174.481	0.1035	348962	keystroke_u	u	n/a
174.745	0.0315	349490	keystroke_n	n	n/a
175.1925	0.0715	350385	keystroke_Key.backspace	Key.backspace	n/a
175.473	0.0875	350946	keystroke_m	m	n/a
175.657	0.0795	351314	keystroke_m	m	n/a
175.7045	0.112	351409	keystroke_a	a	n/a
175.817	0.1515	351634	keystroke_r	r	n/a
175.9455	0.119	351891	keystroke_i	i	n/a
176.041	0.2	352082	keystroke_e	e	n/a
176.129	0.144	352258	keystroke_s	s	n/a
176.472	0.104	352944	keystroke_Key.enter	Key.enter	n/a
176.583	20.203	353166	prompt	n/a	stands disposal trash entrepreneurs\n
178.289	0.152	356578	keystroke_s	s	n/a
178.4485	0.16	356897	keystroke_t	t	n/a
178.689	0.103	357378	keystroke_a	a	n/a
178.833	0.096	357666	keystroke_n	n	n/a
178.977	0.128	357954	keystroke_d	d	n/a
184.073	0.1035	368146	keystroke_s	s	n/a
184.1925	0.152	368385	keystroke_Key.space	Key.space	n/a
184.4965	0.136	368993	keystroke_d	d	n/a
184.5765	0.1125	369153	keystroke_i	i	n/a
184.7045	0.112	369409	keystroke_s	s	n/a
184.9525	0.112	369905	keystroke_p	p	n/a
185.185	0.1115	370370	keystroke_o	o	n/a
185.2885	0.104	370577	keystroke_s	s	n/a
185.5525	0.072	371105	keystroke_a	a	n/a
185.6405	0.1125	371281	keystroke_l	l	n/a
185.7925	0.16	371585	keystroke_Key.space	Key.space	n/a
185.9925	0.136	371985	keystroke_t	t	n/a
186.257	0.1115	372514	keystroke_r	r	n/a
186.3525	0.144	372705	keystroke_a	a	n/a
186.529	0.095	373058	keystroke_s	s	n/a
186.609	0.119	373218	keystroke_h	h	n/a
186.8645	0.144	373729	keystroke_Key.space	Key.space	n/a
186.9845	0.1285	373969	keystroke_e	e	n/a
187.1685	0.112	374337	keystroke_n	n	n/a
187.2645	0.088	374529	keystroke_t	t	n/a
187.481	0.175	374962	keystroke_r	r	n/a
187.577	0.1355	375154	keystroke_e	e	n/a
187.7765	0.1205	375553	keystroke_p	p	n/a
188.1285	0.104	376257	keystroke_r	r	n/a
188.1845	0.1605	376369	keystroke_e	e	n/a
188.4325	0.12	376865	keystroke_n	n	n/a
189.0485	0.112	378097	keystroke_e	e	n/a
189.169	0.0875	378338	keystroke_r	r	n/a
189.2565	0.072	378513	keystroke_y	y	n/a
189.8325	0.088	379665	keystroke_Key.backspace	Key.backspace	n/a
190.0405	0.088	380081	keystroke_Key.backspace	Key.backspace	n/a
190.264	0.088	380528	keystroke_Key.backspace	Key.backspace	n/a
190.408	0.177	380816	keystroke_r	r	n/a
190.504	0.129	381008	keystroke_e	e	n/a
191.4485	0.096	382897	keystroke_u	u	n/a
191.5525	0.1435	383105	keystroke_r	r	n/a
191.672	0.12	383344	keystroke_s	s	n/a
192.984	0.0725	385968	keystroke_Key.backspace	Key.backspace	n/a
193.1525	0.0955	386305	keystroke_Key.backspace	Key.backspace	n/a
193.337	0.0795	386674	keystroke_Key.backspace	Key.backspace	n/a
193.5045	0.088	387009	keystroke_Key.backspace	Key.backspace	n/a
193.6715	0.105	387343	keystroke_Key.backspace	Key.backspace	n/a
193.865	0.1515	387730	keystroke_e	e	n/a
194.1605	0.08	388321	keystroke_y	y	n/a
194.297	0.112	388594	keystroke_r	r	n/a
194.4645	0.104	388929	keystroke_s	s	n/a
195.152	0.064	390304	keystroke_Key.backspace	Key.backspace	n/a
195.312	0.072	390624	keystroke_Key.backspace	Key.backspace	n/a
195.48	0.08	390960	keystroke_Key.backspace	Key.backspace	n/a
196.1365	0.0725	392273	keystroke_u	u	n/a
196.216	0.137	392432	keystroke_r	r	n/a
196.312	0.112	392624	keystroke_s	s	n/a
196.6965	0.088	393393	keystroke_Key.enter	Key.enter	n/a
196.7895	5.821	393579	prompt	n/a	sacred diamond socket outdoors\n
197.569	0.079	395138	keystroke_s	s	n/a
197.7205	0.1045	395441	keystroke_a	a	n/a
197.9045	0.096	395809	keystroke_c	c	n/a
198.1685	0.104	396337	keystroke_r	r	n/a
198.2165	0.2005	396433	keystroke_e	e	n/a
198.424	0.112	396848	keystroke_d	d	n/a
198.512	0.152	397024	keystroke_Key.space	Key.space	n/a
198.8725	0.1115	397745	keystroke_d	d	n/a
198.993	0.087	397986	keystroke_i	i	n/a
199.104	0.161	398208	keystroke_a	a	n/a
199.433	0.095	398866	keystroke_m	m	n/a
199.616	0.0965	399232	keystroke_o	o	n/a
199.785	0.1355	399570	keystroke_n	n	n/a
199.896	0.096	399792	keystroke_d	d	n/a
199.968	0.16	399936	keystroke_Key.space	Key.space	n/a
200.129	0.1035	400258	keystroke_s	s	n/a
200.208	0.104	400416	keystroke_o	o	n/a
200.337	0.12	400674	keystroke_c	c	n/a
200.44	0.128	400880	keystroke_k	k	n/a
200.537	0.16	401074	keystroke_e	e	n/a
200.673	0.167	401346	keystroke_t	t	n/a
200.848	0.152	401696	keystroke_Key.space	Key.space	n/a
201.2085	0.08	402417	keystroke_o	o	n/a
201.3685	0.136	402737	keystroke_u	u	n/a
201.4325	0.12	402865	keystroke_t	t	n/a
201.7045	0.096	403409	keystroke_d	d	n/a
201.809	0.0795	403618	keystroke_o	o	n/a
201.977	0.111	403954	keystroke_o	o	n/a
202.0245	0.1765	404049	keystroke_r	r	n/a
202.161	0.151	404322	keystroke_s	s	n/a
202.5125	0.0955	405025	keystroke_Key.enter	Key.enter	n/a
202.6155	8.9865	405231	prompt	n/a	dimensional statistics giving browser\n
203.4885	0.056	406977	keystroke_d	d	n/a
203.5285	0.096	407057	keystroke_i	i	n/a
203.7925	0.112	407585	keystroke_m	m	n/a
204.5685	0.104	409137	keystroke_e	e	n/a
204.6885	0.112	409377	keystroke_n	n	n/a
204.864	0.1205	409728	keystroke_s	s	n/a
204.985	0.136	409970	keystroke_i	i	n/a
205.073	0.151	410146	keystroke_o	o	n/a
205.2005	0.1355	410401	keystroke_n	n	n/a
205.344	0.128	410688	keystroke_a	a	n/a
205.432	0.1365	410864	keystroke_l	l	n/a
205.52	0.184	411040	keystroke_Key.space	Key.space	n/a
205.7125	0.088	411425	keystroke_s	s	n/a
205.864	0.168	411728	keystroke_t	t	n/a
206.033	0.143	412066	keystroke_a	a	n/a
206.1605	0.16	412321	keystroke_t	t	n/a
206.3605	0.1115	412721	keystroke_e	e	n/a
206.7685	0.08	413537	keystroke_Key.backspace	Key.backspace	n/a
207.0565	0.104	414113	keystroke_i	i	n/a
207.136	0.12	414272	keystroke_s	s	n/a
207.2165	0.12	414433	keystroke_t	t	n/a
207.416	0.104	414832	keystroke_i	i	n/a
207.568	0.128	415136	keystroke_c	c	n/a
207.7205	0.095	415441	keystroke_s	s	n/a
207.8725	0.1515	415745	keystroke_Key.space	Key.space	n/a
208.04	0.1205	416080	keystroke_g	g	n/a
208.1925	0.104	416385	keystroke_i	i	n/a
208.3685	0.08	416737	keystroke_v	v	n/a
208.4165	0.072	416833	keystroke_i	i	n/a
208.5605	0.12	417121	keystroke_n	n	n/a
208.6725	0.12	417345	keystroke_g	g	n/a
208.7605	0.135	417521	keystroke_Key.space	Key.space	n/a
208.9685	0.1045	417937	keystroke_b	b	n/a
209.152	0.12	418304	keystroke_r	r	n/a
209.369	0.119	418738	keystroke_o	o	n/a
209.52	0.064	419040	keystroke_w	w	n/a
209.76	0.088	419520	keystroke_s	s	n/a
210.024	0.152	420048	keystroke_e	e	n/a
210.096	0.184	420192	keystroke_r	r	n/a
210.256	0.104	420512	keystroke_s	s	n/a
210.6885	0.096	421377	keystroke_Key.backspace	Key.backspace	n/a
211.48	0.12	422960	keystroke_Key.enter	Key.enter	n/a
211.607	7.963	423214	prompt	n/a	forbes those're vessel aimed\n
212.376	0.1045	424752	keystroke_f	f	n/a
212.488	0.1205	424976	keystroke_o	o	n/a
212.696	0.12	425392	keystroke_r	r	n/a
212.84	0.104	425680	keystroke_b	b	n/a
212.969	0.183	425938	keystroke_e	e	n/a
213.088	0.144	426176	keystroke_s	s	n/a
213.336	0.16	426672	keystroke_Key.space	Key.space	n/a
213.6965	0.1595	427393	keystroke_t	t	n/a
213.776	0.1365	427552	keystroke_h	h	n/a
213.928	0.096	427856	keystroke_o	o	n/a
214.16	0.1765	428320	keystroke_s	s	n/a
214.2885	0.088	428577	keystroke_e	e	n/a
214.592	0.08	429184	keystroke_'	'	n/a
214.824	0.096	429648	keystroke_r	r	n/a
214.84	0.144	429680	keystroke_e	e	n/a
215.976	0.0885	431952	keystroke_Key.space	Key.space	n/a
216.272	0.16	432544	keystroke_v	v	n/a
216.4	0.096	432800	keystroke_e	e	n/a
216.8245	0.048	433649	keystroke_l	l	n/a
217.1605	0.08	434321	keystroke_Key.backspace	Key.backspace	n/a
217.2805	0.12	434561	keystroke_s	s	n/a
217.5605	0.1115	435121	keystroke_s	s	n/a
217.68	0.08	435360	keystroke_e	e	n/a
217.8395	0.105	435679	keystroke_l	l	n/a
218.0315	0.1445	436063	keystroke_Key.space	Key.space	n/a
218.272	0.096	436544	keystroke_a	a	n/a
218.344	0.0725	436688	keystroke_i	i	n/a
218.52	0.1125	437040	keystroke_m	m	n/a
218.6085	0.168	437217	keystroke_e	e	n/a
218.7445	0.136	437489	keystroke_d	d	n/a
218.8325	0.1195	437665	keystroke_Key.space	Key.space	n/a
219.232	0.0645	438464	keystroke_Key.backspace	Key.backspace	n/a
219.4725	0.096	438945	keystroke_Key.enter	Key.enter	n/a
219.576	6.1455	439152	prompt	n/a	belt rivers leave available\n
220.2565	0.096	440513	keystroke_b	b	n/a
220.3525	0.104	440705	keystroke_e	e	n/a
220.4885	0.096	440977	keystroke_l	l	n/a
220.5925	0.1355	441185	keystroke_t	t	n/a
220.712	0.136	441424	keystroke_Key.space	Key.space	n/a
220.928	0.136	441856	keystroke_r	r	n/a
221.048	0.1195	442096	keystroke_e	e	n/a
221.384	0.08	442768	keystroke_Key.backspace	Key.backspace	n/a
221.6485	0.096	443297	keystroke_i	i	n/a
221.7525	0.056	443505	keystroke_v	v	n/a
221.9445	0.096	443889	keystroke_e	e	n/a
222.008	0.16	444016	keystroke_r	r	n/a
222.1445	0.1195	444289	keystroke_s	s	n/a
222.288	0.136	444576	keystroke_Key.space	Key.space	n/a
222.448	0.1285	444896	keystroke_l	l	n/a
222.552	0.152	445104	keystroke_e	e	n/a
222.665	0.103	445330	keystroke_a	a	n/a
222.8955	0.1365	445791	keystroke_v	v	n/a
223.0005	0.151	446001	keystroke_e	e	n/a
223.1605	0.1595	446321	keystroke_Key.space	Key.space	n/a
223.424	0.072	446848	keystroke_a	a	n/a
223.72	0.0965	447440	keystroke_v	v	n/a
223.9515	0.113	447903	keystroke_a	a	n/a
224.0565	0.1595	448113	keystroke_i	i	n/a
224.1525	0.1035	448305	keystroke_l	l	n/a
224.392	0.0885	448784	keystroke_b	b	n/a
224.768	0.04	449536	keystroke_Key.backspace	Key.backspace	n/a
224.84	0.104	449680	keystroke_a	a	n/a
225.088	0.0965	450176	keystroke_b	b	n/a
225.2955	0.113	450591	keystroke_l	l	n/a
225.3835	0.112	450767	keystroke_e	e	n/a
225.64	0.0805	451280	keystroke_Key.enter	Key.enter	n/a
225.7285	7.7615	451457	prompt	n/a	operations helen downloadable aerospace\n
226.5125	0.12	453025	keystroke_o	o	n/a
226.7045	0.112	453409	keystroke_p	p	n/a
226.8005	0.096	453601	keystroke_e	e	n/a
226.8645	0.176	453729	keystroke_r	r	n/a
227.12	0.104	454240	keystroke_a	a	n/a
227.208	0.1605	454416	keystroke_t	t	n/a
227.3205	0.136	454641	keystroke_i	i	n/a
227.416	0.0885	454832	keystroke_o	o	n/a
227.544	0.128	455088	keystroke_n	n	n/a
227.624	0.088	455248	keystroke_s	s	n/a
227.704	0.176	455408	keystroke_Key.space	Key.space	n/a
227.864	0.12	455728	keystroke_h	h	n/a
227.96	0.0885	455920	keystroke_e	e	n/a
228.08	0.104	456160	keystroke_l	l	n/a
228.2235	0.0645	456447	keystroke_e	e	n/a
228.344	0.12	456688	keystroke_n	n	n/a
228.488	0.104	456976	keystroke_Key.space	Key.space	n/a
228.736	0.1285	457472	keystroke_d	d	n/a
228.904	0.096	457808	keystroke_o	o	n/a
229.08	0.12	458160	keystroke_w	w	n/a
229.16	0.104	458320	keystroke_n	n	n/a
229.376	0.0725	458752	keystroke_l	l	n/a
229.5605	0.1275	459121	keystroke_o	o	n/a
229.616	0.128	459232	keystroke_a	a	n/a
229.76	0.1445	459520	keystroke_d	d	n/a
230.0725	0.08	460145	keystroke_a	a	n/a
230.1285	0.1195	460257	keystroke_b	b	n/a
230.3685	0.1115	460737	keystroke_l	l	n/a
230.44	0.128	460880	keystroke_e	e	n/a
230.544	0.144	461088	keystroke_Key.space	Key.space	n/a
230.824	0.1125	461648	keystroke_a	a	n/a
231.056	0.1525	462112	keystroke_e	e	n/a
231.432	0.088	462864	keystroke_r	r	n/a
231.864	0.088	463728	keystroke_o	o	n/a
232.1275	0.081	464255	keystroke_s	s	n/a
232.6645	0.104	465329	keystroke_p	p	n/a
232.7685	0.1195	465537	keystroke_a	a	n/a
233.016	0.1685	466032	keystroke_c	c	n/a
233.0955	0.1525	466191	keystroke_e	e	n/a
233.3845	0.1035	466769	keystroke_Key.enter	Key.enter	n/a
233.4945	6.8035	466989	prompt	n/a	requirement assurance google charge\n
234.264	0.128	468528	keystroke_r	r	n/a
234.368	0.104	468736	keystroke_e	e	n/a
234.664	0.112	469328	keystroke_q	q	n/a
234.777	0.119	469554	keystroke_u	u	n/a
234.848	0.112	469696	keystroke_i	i	n/a
235.0485	0.1035	470097	keystroke_r	r	n/a
235.1285	0.128	470257	keystroke_e	e	n/a
235.36	0.112	470720	keystroke_m	m	n/a
235.48	0.12	470960	keystroke_e	e	n/a
235.592	0.128	471184	keystroke_n	n	n/a
235.664	0.176	471328	keystroke_t	t	n/a
235.832	0.144	471664	keystroke_Key.space	Key.space	n/a
236.16	0.088	472320	keystroke_a	a	n/a
236.249	0.079	472498	keystroke_s	s	n/a
236.44	0.064	472880	keystroke_s	s	n/a
236.5355	0.0885	473071	keystroke_u	u	n/a
236.664	0.1045	473328	keystroke_r	r	n/a
236.744	0.112	473488	keystroke_a	a	n/a
236.96	0.112	473920	keystroke_n	n	n/a
237.056	0.152	474112	keystroke_c	c	n/a
237.136	0.136	474272	keystroke_e	e	n/a
237.256	0.152	474512	keystroke_Key.space	Key.space	n/a
237.592	0.112	475184	keystroke_g	g	n/a
237.68	0.072	475360	keystroke_o	o	n/a
237.8405	0.0715	475681	keystroke_o	o	n/a
238.0965	0.104	476193	keystroke_l	l	n/a
238.4555	0.072	476911	keystroke_Key.backspace	Key.backspace	n/a
238.5915	0.1365	477183	keystroke_g	g	n/a
238.7675	0.097	477535	keystroke_l	l	n/a
238.8715	0.1285	477743	keystroke_e	e	n/a
238.9755	0.1445	477951	keystroke_Key.space	Key.space	n/a
239.264	0.1515	478528	keystroke_c	c	n/a
239.3835	0.1125	478767	keystroke_h	h	n/a
239.5195	0.153	479039	keystroke_a	a	n/a
239.6565	0.111	479313	keystroke_r	r	n/a
239.92	0.1365	479840	keystroke_g	g	n/a
240.0235	0.1285	480047	keystroke_e	e	n/a
240.192	0.104	480384	keystroke_Key.enter	Key.enter	n/a
240.302	5.6115	480604	prompt	n/a	create lunch within gratis\n
241.04	0.1285	482080	keystroke_c	c	n/a
241.368	0.2	482736	keystroke_r	r	n/a
241.48	0.2245	482960	keystroke_e	e	n/a
241.728	0.152	483456	keystroke_a	a	n/a
241.872	0.1675	483744	keystroke_t	t	n/a
241.992	0.1355	483984	keystroke_e	e	n/a
242.248	0.1435	484496	keystroke_Key.space	Key.space	n/a
242.5915	0.0725	485183	keystroke_l	l	n/a
242.776	0.08	485552	keystroke_u	u	n/a
242.9355	0.1045	485871	keystroke_n	n	n/a
243.024	0.1275	486048	keystroke_c	c	n/a
243.1755	0.113	486351	keystroke_h	h	n/a
243.2715	0.112	486543	keystroke_Key.space	Key.space	n/a
243.4315	0.112	486863	keystroke_w	w	n/a
243.528	0.104	487056	keystroke_i	i	n/a
243.6795	0.152	487359	keystroke_t	t	n/a
243.752	0.104	487504	keystroke_h	h	n/a
243.864	0.168	487728	keystroke_i	i	n/a
244.0155	0.152	488031	keystroke_n	n	n/a
244.1595	0.2	488319	keystroke_Key.space	Key.space	n/a
244.4635	0.0805	488927	keystroke_g	g	n/a
244.808	0.128	489616	keystroke_r	r	n/a
244.912	0.144	489824	keystroke_a	a	n/a
245.136	0.096	490272	keystroke_t	t	n/a
245.248	0.096	490496	keystroke_i	i	n/a
245.5435	0.105	491087	keystroke_s	s	n/a
245.8155	0.096	491631	keystroke_Key.enter	Key.enter	n/a
245.9185	6.9075	491837	prompt	n/a	capabilities picks contacting triangle\n
246.64	0.16	493280	keystroke_c	c	n/a
246.8075	0.113	493615	keystroke_a	a	n/a
246.9125	0.079	493825	keystroke_p	p	n/a
247.056	0.096	494112	keystroke_a	a	n/a
247.224	0.12	494448	keystroke_b	b	n/a
247.472	0.12	494944	keystroke_i	i	n/a
247.5685	0.1995	495137	keystroke_l	l	n/a
247.696	0.136	495392	keystroke_i	i	n/a
247.8475	0.1525	495695	keystroke_t	t	n/a
247.959	0.096	495918	keystroke_i	i	n/a
248.0485	0.1595	496097	keystroke_e	e	n/a
248.136	0.144	496272	keystroke_s	s	n/a
248.311	0.1525	496622	keystroke_Key.space	Key.space	n/a
248.7355	0.088	497471	keystroke_p	p	n/a
248.944	0.08	497888	keystroke_i	i	n/a
249.0635	0.1205	498127	keystroke_c	c	n/a
249.167	0.0965	498334	keystroke_k	k	n/a
249.3515	0.0885	498703	keystroke_s	s	n/a
249.4235	0.16	498847	keystroke_Key.space	Key.space	n/a
249.6315	0.1205	499263	keystroke_c	c	n/a
249.712	0.048	499424	keystroke_o	o	n/a
249.8555	0.1525	499711	keystroke_n	n	n/a
250.016	0.112	500032	keystroke_t	t	n/a
250.1915	0.1045	500383	keystroke_a	a	n/a
250.408	0.104	500816	keystroke_c	c	n/a
250.704	0.104	501408	keystroke_t	t	n/a
250.824	0.096	501648	keystroke_i	i	n/a
250.928	0.1195	501856	keystroke_n	n	n/a
251.0395	0.12	502079	keystroke_g	g	n/a
251.1755	0.152	502351	keystroke_Key.space	Key.space	n/a
251.4395	0.1365	502879	keystroke_t	t	n/a
251.7205	0.1195	503441	keystroke_r	r	n/a
251.8155	0.08	503631	keystroke_i	i	n/a
251.9835	0.096	503967	keystroke_a	a	n/a
252.0965	0.087	504193	keystroke_n	n	n/a
252.256	0.12	504512	keystroke_g	g	n/a
252.368	0.096	504736	keystroke_l	l	n/a
252.48	0.112	504960	keystroke_e	e	n/a
252.76	0.064	505520	keystroke_Key.enter	Key.enter	n/a
252.83	6.5315	505660	prompt	n/a	watershed tradition wales newest\n
253.512	0.127	507024	keystroke_w	w	n/a
253.648	0.08	507296	keystroke_a	a	n/a
253.784	0.128	507568	keystroke_t	t	n/a
253.912	0.1755	507824	keystroke_e	e	n/a
254.0395	0.1605	508079	keystroke_r	r	n/a
254.232	0.0955	508464	keystroke_s	s	n/a
254.3675	0.1205	508735	keystroke_h	h	n/a
254.4715	0.184	508943	keystroke_e	e	n/a
254.6555	0.128	509311	keystroke_d	d	n/a
254.7835	0.136	509567	keystroke_Key.space	Key.space	n/a
255	0.096	510000	keystroke_t	t	n/a
255.248	0.064	510496	keystroke_r	r	n/a
255.32	0.1755	510640	keystroke_a	a	n/a
255.528	0.104	511056	keystroke_d	d	n/a
255.616	0.12	511232	keystroke_i	i	n/a
255.784	0.1595	511568	keystroke_t	t	n/a
255.848	0.1595	511696	keystroke_i	i	n/a
255.9915	0.128	511983	keystroke_o	o	n/a
256.0955	0.144	512191	keystroke_n	n	n/a
256.2155	0.176	512431	keystroke_Key.space	Key.space	n/a
256.4155	0.1205	512831	keystroke_w	w	n/a
256.696	0.0875	513392	keystroke_a	a	n/a
256.9835	0.088	513967	keystroke_l	l	n/a
257.1035	0.1925	514207	keystroke_e	e	n/a
257.216	0.128	514432	keystroke_s	s	n/a
257.416	0.144	514832	keystroke_Key.space	Key.space	n/a
257.816	0.128	515632	keystroke_n	n	n/a
257.8955	0.2	515791	keystroke_e	e	n/a
258.0075	0.129	516015	keystroke_w	w	n/a
258.1755	0.0245	516351	keystroke_e	e	n/a
258.935	0.089	517870	keystroke_s	s	n/a
259.032	0.16	518064	keystroke_t	t	n/a
259.2635	0.096	518527	keystroke_Key.enter	Key.enter	n/a
259.3665	7.419	518733	prompt	n/a	solely knit valves newer\n
260.0315	0.104	520063	keystroke_s	s	n/a
260.1275	0.056	520255	keystroke_p	p	n/a
260.4955	0.072	520991	keystroke_Key.backspace	Key.backspace	n/a
260.792	0.0795	521584	keystroke_o	o	n/a
261.0315	0.072	522063	keystroke_l	l	n/a
261.2	0.08	522400	keystroke_e	e	n/a
261.4075	0.0635	522815	keystroke_y	y	n/a
262.3115	0.072	524623	keystroke_Key.backspace	Key.backspace	n/a
262.6555	0.096	525311	keystroke_l	l	n/a
262.944	0.1115	525888	keystroke_y	y	n/a
263.1035	0.128	526207	keystroke_Key.space	Key.space	n/a
263.3195	0.112	526639	keystroke_k	k	n/a
263.704	0.0885	527408	keystroke_n	n	n/a
263.887	0.113	527774	keystroke_i	i	n/a
264.2475	0.1275	528495	keystroke_t	t	n/a
264.367	0.153	528734	keystroke_Key.space	Key.space	n/a
264.6075	0.1195	529215	keystroke_v	v	n/a
264.8155	0.1125	529631	keystroke_a	a	n/a
264.928	0.0955	529856	keystroke_l	l	n/a
265.103	0.144	530206	keystroke_v	v	n/a
265.207	0.1685	530414	keystroke_e	e	n/a
265.2875	0.1595	530575	keystroke_s	s	n/a
265.4955	0.1515	530991	keystroke_Key.space	Key.space	n/a
265.808	0.1115	531616	keystroke_n	n	n/a
265.8955	0.1285	531791	keystroke_e	e	n/a
265.9675	0.1755	531935	keystroke_w	w	n/a
266.263	0.1365	532526	keystroke_e	e	n/a
266.3595	0.1355	532719	keystroke_r	r	n/a
266.679	0.104	533358	keystroke_Key.enter	Key.enter	n/a
266.79	7.539	533580	prompt	n/a	brussels doors francis nicaragua\n
267.567	0.1205	535134	keystroke_b	b	n/a
267.704	0.136	535408	keystroke_r	r	n/a
267.823	0.104	535646	keystroke_u	u	n/a
268.007	0.096	536014	keystroke_s	s	n/a
268.391	0.1525	536782	keystroke_s	s	n/a
268.512	0.1355	537024	keystroke_e	e	n/a
268.639	0.1205	537278	keystroke_l	l	n/a
268.9195	0.1035	537839	keystroke_s	s	n/a
269.1275	0.128	538255	keystroke_Key.space	Key.space	n/a
269.9195	0.1285	539839	keystroke_d	d	n/a
270.0715	0.064	540143	keystroke_o	o	n/a
270.2395	0.088	540479	keystroke_o	o	n/a
270.3515	0.1525	540703	keystroke_r	r	n/a
270.5115	0.112	541023	keystroke_s	s	n/a
270.743	0.136	541486	keystroke_Key.space	Key.space	n/a
271.111	0.104	542222	keystroke_f	f	n/a
271.343	0.112	542686	keystroke_r	r	n/a
271.431	0.1685	542862	keystroke_a	a	n/a
271.591	0.104	543182	keystroke_n	n	n/a
271.727	0.128	543454	keystroke_c	c	n/a
271.951	0.089	543902	keystroke_i	i	n/a
272.096	0.096	544192	keystroke_s	s	n/a
272.2075	0.128	544415	keystroke_Key.space	Key.space	n/a
272.424	0.096	544848	keystroke_n	n	n/a
272.64	0.095	545280	keystroke_i	i	n/a
272.751	0.12	545502	keystroke_c	c	n/a
272.96	0.1115	545920	keystroke_a	a	n/a
273.103	0.128	546206	keystroke_r	r	n/a
273.207	0.104	546414	keystroke_a	a	n/a
273.4715	0.12	546943	keystroke_g	g	n/a
273.5995	0.088	547199	keystroke_u	u	n/a
273.7435	0.1205	547487	keystroke_a	a	n/a
274.2395	0.088	548479	keystroke_Key.enter	Key.enter	n/a
274.332	7.246	548664	prompt	n/a	possess drunk episode shooting\n
275.0475	0.072	550095	keystroke_p	p	n/a
275.2875	0.0805	550575	keystroke_o	o	n/a
275.608	0.272	551216	keystroke_s	s	n/a
276.288	0.12	552576	keystroke_s	s	n/a
276.487	0.1445	552974	keystroke_e	e	n/a
276.583	0.104	553166	keystroke_s	s	n/a
276.9915	0.08	553983	keystroke_s	s	n/a
277.2795	0.1515	554559	keystroke_Key.space	Key.space	n/a
277.4075	0.1435	554815	keystroke_d	d	n/a
277.6945	0.1365	555389	keystroke_r	r	n/a
277.712	0.1275	555424	keystroke_u	u	n/a
277.8555	0.12	555711	keystroke_n	n	n/a
278.0235	0.16	556047	keystroke_k	k	n/a
278.1505	0.161	556301	keystroke_Key.space	Key.space	n/a
278.2555	0.104	556511	keystroke_e	e	n/a
278.4155	0.08	556831	keystroke_p	p	n/a
278.736	0.127	557472	keystroke_s	s	n/a
279.1195	0.095	558239	keystroke_Key.backspace	Key.backspace	n/a
279.3995	0.096	558799	keystroke_i	i	n/a
279.5115	0.112	559023	keystroke_s	s	n/a
279.6385	0.113	559277	keystroke_o	o	n/a
279.7835	0.112	559567	keystroke_d	d	n/a
279.8475	0.184	559695	keystroke_e	e	n/a
280.0395	0.143	560079	keystroke_Key.space	Key.space	n/a
280.383	0.0965	560766	keystroke_s	s	n/a
280.4315	0.0955	560863	keystroke_h	h	n/a
280.615	0.072	561230	keystroke_o	o	n/a
280.7675	0.1035	561535	keystroke_o	o	n/a
280.879	0.096	561758	keystroke_t	t	n/a
280.967	0.0965	561934	keystroke_i	i	n/a
281.1105	0.137	562221	keystroke_n	n	n/a
281.1745	0.153	562349	keystroke_g	g	n/a
281.4555	0.1195	562911	keystroke_Key.enter	Key.enter	n/a
281.583	5.0425	563166	prompt	n/a	hairy army holidays trucks\n
282.2475	0.12	564495	keystroke_h	h	n/a
282.3755	0.104	564751	keystroke_a	a	n/a
282.464	0.1195	564928	keystroke_i	i	n/a
282.591	0.1115	565182	keystroke_r	r	n/a
282.7355	0.103	565471	keystroke_y	y	n/a
282.9185	0.113	565837	keystroke_Key.space	Key.space	n/a
283.119	0.1205	566238	keystroke_a	a	n/a
283.2315	0.16	566463	keystroke_r	r	n/a
283.376	0.0555	566752	keystroke_m	m	n/a
283.5515	0.096	567103	keystroke_y	y	n/a
283.7195	0.1035	567439	keystroke_Key.space	Key.space	n/a
284.1035	0.104	568207	keystroke_h	h	n/a
284.287	0.0885	568574	keystroke_o	o	n/a
284.5035	0.0715	569007	keystroke_l	l	n/a
284.6555	0.1035	569311	keystroke_i	i	n/a
284.767	0.113	569534	keystroke_d	d	n/a
284.8475	0.1355	569695	keystroke_a	a	n/a
285.071	0.0965	570142	keystroke_y	y	n/a
285.215	0.1125	570430	keystroke_s	s	n/a
285.335	0.096	570670	keystroke_Key.space	Key.space	n/a
285.527	0.136	571054	keystroke_t	t	n/a
285.799	0.0565	571598	keystroke_r	r	n/a
285.871	0.1205	571742	keystroke_u	u	n/a
286.0635	0.168	572127	keystroke_c	c	n/a
286.1595	0.112	572319	keystroke_k	k	n/a
286.2875	0.127	572575	keystroke_s	s	n/a
286.5275	0.096	573055	keystroke_Key.enter	Key.enter	n/a
286.6315	5.9375	573263	prompt	n/a	sudan moments joke merely\n
287.232	0.103	574464	keystroke_s	s	n/a
287.319	0.088	574638	keystroke_u	u	n/a
287.511	0.1285	575022	keystroke_d	d	n/a
287.6315	0.1115	575263	keystroke_a	a	n/a
287.735	0.136	575470	keystroke_n	n	n/a
287.9195	0.1355	575839	keystroke_Key.space	Key.space	n/a
288.335	0.104	576670	keystroke_m	m	n/a
288.551	0.064	577102	keystroke_o	o	n/a
288.8875	0.1035	577775	keystroke_m	m	n/a
289.031	0.1525	578062	keystroke_e	e	n/a
289.176	0.1275	578352	keystroke_n	n	n/a
289.2555	0.1595	578511	keystroke_t	t	n/a
289.4075	0.088	578815	keystroke_s	s	n/a
289.5755	0.1275	579151	keystroke_Key.space	Key.space	n/a
289.8075	0.1355	579615	keystroke_j	j	n/a
289.983	0.152	579966	keystroke_o	o	n/a
290.1035	0.1595	580207	keystroke_k	k	n/a
290.2555	0.1115	580511	keystroke_e	e	n/a
290.439	0.144	580878	keystroke_Key.space	Key.space	n/a
290.639	0.112	581278	keystroke_m	m	n/a
290.727	0.1045	581454	keystroke_e	e	n/a
290.919	0.152	581838	keystroke_e	e	n/a
291.375	0.072	582750	keystroke_Key.backspace	Key.backspace	n/a
291.511	0.12	583022	keystroke_r	r	n/a
291.575	0.152	583150	keystroke_e	e	n/a
291.8625	0.0805	583725	keystroke_l	l	n/a
292.1275	0.079	584255	keystroke_y	y	n/a
292.5115	0.055	585023	keystroke_Key.enter	Key.enter	n/a
292.5755	8.609	585151	prompt	n/a	investigate integration contacting entity\n
293.2235	0.087	586447	keystroke_i	i	n/a
293.4235	0.128	586847	keystroke_n	n	n/a
293.543	0.1205	587086	keystroke_v	v	n/a
293.7425	0.1845	587485	keystroke_e	e	n/a
293.943	0.128	587886	keystroke_s	s	n/a
294.079	0.128	588158	keystroke_t	t	n/a
294.215	0.1045	588430	keystroke_i	i	n/a
294.3755	0.088	588751	keystroke_g	g	n/a
294.5915	0.0155	589183	keystroke_a	a	n/a
294.7275	0.1435	589455	keystroke_t	t	n/a
294.863	0.1285	589726	keystroke_e	e	n/a
295.1505	0.176	590301	keystroke_Key.space	Key.space	n/a
295.3195	0.104	590639	keystroke_i	i	n/a
295.5915	0.112	591183	keystroke_n	n	n/a
295.7355	0.1195	591471	keystroke_t	t	n/a
295.9275	0.128	591855	keystroke_e	e	n/a
296.247	0.0965	592494	keystroke_g	g	n/a
296.479	0.112	592958	keystroke_r	r	n/a
296.5675	0.152	593135	keystroke_a	a	n/a
296.7345	0.137	593469	keystroke_t	t	n/a
296.8785	0.1455	593757	keystroke_i	i	n/a
296.9515	0.1675	593903	keystroke_o	o	n/a
297.103	0.1365	594206	keystroke_n	n	n/a
297.199	0.176	594398	keystroke_Key.space	Key.space	n/a
297.439	0.1205	594878	keystroke_c	c	n/a
297.5195	0.096	595039	keystroke_o	o	n/a
297.687	0.1445	595374	keystroke_n	n	n/a
297.8955	0.1355	595791	keystroke_a	a	n/a
298.335	0.096	596670	keystroke_Key.backspace	Key.backspace	n/a
298.391	0.1205	596782	keystroke_t	t	n/a
298.4795	0.16	596959	keystroke_a	a	n/a
298.7035	0.104	597407	keystroke_c	c	n/a
299.0075	0.072	598015	keystroke_t	t	n/a
299.0385	0.097	598077	keystroke_i	i	n/a
299.2155	0.127	598431	keystroke_n	n	n/a
299.2945	0.129	598589	keystroke_g	g	n/a
299.431	0.1435	598862	keystroke_Key.space	Key.space	n/a
299.695	0.136	599390	keystroke_e	e	n/a
299.8635	0.104	599727	keystroke_n	n	n/a
299.9995	0.119	599999	keystroke_t	t	n/a
300.2555	0.111	600511	keystroke_i	i	n/a
300.3835	0.1275	600767	keystroke_t	t	n/a
300.5185	0.0965	601037	keystroke_y	y	n/a
301.1265	0.0565	602253	keystroke_Key.enter	Key.enter	n/a
301.1875	8.933	602375	prompt	n/a	bennett friend female concerns\n
301.807	0.096	603614	keystroke_b	b	n/a
301.919	0.096	603838	keystroke_e	e	n/a
302.0875	0.064	604175	keystroke_n	n	n/a
302.2545	0.081	604509	keystroke_n	n	n/a
302.3595	0.103	604719	keystroke_e	e	n/a
302.6475	0.072	605295	keystroke_t	t	n/a
302.8075	0.136	605615	keystroke_t	t	n/a
303.3995	0.1275	606799	keystroke_Key.space	Key.space	n/a
303.655	0.104	607310	keystroke_f	f	n/a
303.919	0.128	607838	keystroke_r	r	n/a
304.047	0.072	608094	keystroke_i	i	n/a
304.167	0.152	608334	keystroke_e	e	n/a
304.263	0.1045	608526	keystroke_n	n	n/a
304.368	0.1435	608736	keystroke_d	d	n/a
304.487	0.16	608974	keystroke_Key.space	Key.space	n/a
304.8155	0.111	609631	keystroke_f	f	n/a
305.135	0.144	610270	keystroke_e	e	n/a
305.287	0.1045	610574	keystroke_m	m	n/a
305.4635	0.0715	610927	keystroke_a	a	n/a
305.5675	0.104	611135	keystroke_l	l	n/a
305.687	0.168	611374	keystroke_e	e	n/a
305.871	0.144	611742	keystroke_Key.space	Key.space	n/a
306.231	0.1445	612462	keystroke_c	c	n/a
306.2785	0.08	612557	keystroke_o	o	n/a
306.439	0.1275	612878	keystroke_n	n	n/a
306.6955	0.151	613391	keystroke_e	e	n/a
306.8155	0.151	613631	keystroke_r	r	n/a
306.9505	0.113	613901	keystroke_n	n	n/a
307.1675	0.087	614335	keystroke_s	s	n/a
307.5995	0.071	615199	keystroke_Key.backspace	Key.backspace	n/a
307.7835	0.0555	615567	keystroke_Key.backspace	Key.backspace	n/a
307.9595	0.0635	615919	keystroke_Key.backspace	Key.backspace	n/a
308.127	0.088	616254	keystroke_Key.backspace	Key.backspace	n/a
308.239	0.1205	616478	keystroke_c	c	n/a
308.479	0.1045	616958	keystroke_n	n	n/a
308.5985	0.097	617197	keystroke_e	e	n/a
309.0385	0.0645	618077	keystroke_Key.backspace	Key.backspace	n/a
309.1275	0.1355	618255	keystroke_Key.backspace	Key.backspace	n/a
309.319	0.136	618638	keystroke_e	e	n/a
309.447	0.12	618894	keystroke_r	r	n/a
309.575	0.112	619150	keystroke_n	n	n/a
309.719	0.088	619438	keystroke_s	s	n/a
310.047	0.072	620094	keystroke_Key.enter	Key.enter	n/a
310.125	5.5155	620250	prompt	n/a	pixel twisted tires teachers\n
310.7835	0.112	621567	keystroke_p	p	n/a
311.0385	0.089	622077	keystroke_i	i	n/a
311.1825	0.0725	622365	keystroke_x	x	n/a
311.4475	0.1355	622895	keystroke_e	e	n/a
311.623	0.08	623246	keystroke_l	l	n/a
311.791	0.128	623582	keystroke_Key.space	Key.space	n/a
312.0875	0.0875	624175	keystroke_t	t	n/a
312.367	0.096	624734	keystroke_w	w	n/a
312.519	0.1365	625038	keystroke_i	i	n/a
312.7355	0.0795	625471	keystroke_s	s	n/a
312.847	0.1435	625694	keystroke_t	t	n/a
312.9995	0.199	625999	keystroke_e	e	n/a
313.1755	0.135	626351	keystroke_d	d	n/a
313.2865	0.128	626573	keystroke_Key.space	Key.space	n/a
313.4555	0.152	626911	keystroke_t	t	n/a
313.5835	0.096	627167	keystroke_i	i	n/a
313.7265	0.169	627453	keystroke_r	r	n/a
313.7825	0.217	627565	keystroke_e	e	n/a
313.9275	0.1345	627855	keystroke_s	s	n/a
314.095	0.144	628190	keystroke_Key.space	Key.space	n/a
314.24	0.119	628480	keystroke_t	t	n/a
314.4865	0.096	628973	keystroke_e	e	n/a
314.6945	0.1205	629389	keystroke_a	a	n/a
314.8305	0.1525	629661	keystroke_c	c	n/a
314.959	0.112	629918	keystroke_h	h	n/a
315.047	0.1435	630094	keystroke_e	e	n/a
315.1355	0.175	630271	keystroke_r	r	n/a
315.263	0.1435	630526	keystroke_s	s	n/a
315.551	0.0875	631102	keystroke_Key.enter	Key.enter	n/a
315.646	6.1715	631292	prompt	n/a	mechanisms myth memory friends\n
316.311	0.128	632622	keystroke_m	m	n/a
316.391	0.16	632782	keystroke_e	e	n/a
316.615	0.168	633230	keystroke_c	c	n/a
316.719	0.096	633438	keystroke_h	h	n/a
316.967	0.072	633934	keystroke_a	a	n/a
317.0945	0.104	634189	keystroke_n	n	n/a
317.4385	0.113	634877	keystroke_i	i	n/a
317.543	0.088	635086	keystroke_s	s	n/a
317.727	0.128	635454	keystroke_m	m	n/a
317.895	0.112	635790	keystroke_s	s	n/a
318.063	0.16	636126	keystroke_Key.space	Key.space	n/a
318.3905	0.016	636781	keystroke_m	m	n/a
318.5505	0.064	637101	keystroke_y	y	n/a
318.6475	0.112	637295	keystroke_t	t	n/a
318.7265	0.128	637453	keystroke_h	h	n/a
318.927	0.1355	637854	keystroke_Key.space	Key.space	n/a
319.1265	0.12	638253	keystroke_m	m	n/a
319.263	0.104	638526	keystroke_e	e	n/a
319.6315	0.1275	639263	keystroke_m	m	n/a
319.791	0.096	639582	keystroke_o	o	n/a
319.9345	0.1365	639869	keystroke_r	r	n/a
320.079	0.128	640158	keystroke_y	y	n/a
320.279	0.136	640558	keystroke_Key.space	Key.space	n/a
320.639	0.136	641278	keystroke_f	f	n/a
320.895	0.136	641790	keystroke_r	r	n/a
320.991	0.096	641982	keystroke_i	i	n/a
321.103	0.1525	642206	keystroke_e	e	n/a
321.2305	0.121	642461	keystroke_n	n	n/a
321.3515	0.144	642703	keystroke_d	d	n/a
321.4795	0.1275	642959	keystroke_s	s	n/a
321.7025	0.1125	643405	keystroke_Key.enter	Key.enter	n/a
321.822	5.795	643644	prompt	n/a	believes cell mechanical oldest\n
322.559	0.088	645118	keystroke_b	b	n/a
322.711	0.088	645422	keystroke_e	e	n/a
322.815	0.064	645630	keystroke_l	l	n/a
322.975	0.096	645950	keystroke_i	i	n/a
323.039	0.0635	646078	keystroke_e	e	n/a
323.215	0.1035	646430	keystroke_v	v	n/a
323.303	0.1365	646606	keystroke_e	e	n/a
323.3985	0.137	646797	keystroke_s	s	n/a
323.647	0.1275	647294	keystroke_Key.space	Key.space	n/a
324.0465	0.1435	648093	keystroke_c	c	n/a
324.1515	0.1195	648303	keystroke_e	e	n/a
324.303	0.104	648606	keystroke_l	l	n/a
324.479	0.096	648958	keystroke_l	l	n/a
324.591	0.144	649182	keystroke_Key.space	Key.space	n/a
324.743	0.128	649486	keystroke_m	m	n/a
324.823	0.152	649646	keystroke_e	e	n/a
324.991	0.1525	649982	keystroke_c	c	n/a
325.134	0.097	650268	keystroke_h	h	n/a
325.351	0.104	650702	keystroke_a	a	n/a
325.4625	0.1205	650925	keystroke_n	n	n/a
325.863	0.096	651726	keystroke_i	i	n/a
325.9745	0.1365	651949	keystroke_c	c	n/a
326.063	0.152	652126	keystroke_a	a	n/a
326.191	0.104	652382	keystroke_l	l	n/a
326.255	0.176	652510	keystroke_Key.space	Key.space	n/a
326.463	0.0875	652926	keystroke_o	o	n/a
326.694	0.113	653388	keystroke_l	l	n/a
326.751	0.12	653502	keystroke_d	d	n/a
326.8625	0.225	653725	keystroke_e	e	n/a
327.174	0.129	654348	keystroke_s	s	n/a
327.279	0.152	654558	keystroke_t	t	n/a
327.519	0.096	655038	keystroke_Key.enter	Key.enter	n/a
327.621	9.973	655242	prompt	n/a	afghanistan diseases browser monthly\n
328.4945	0.0485	656989	keystroke_a	a	n/a
328.8545	0.0485	657709	keystroke_g	g	n/a
329.239	0.08	658478	keystroke_Key.backspace	Key.backspace	n/a
329.3345	0.072	658669	keystroke_f	f	n/a
329.5505	0.12	659101	keystroke_g	g	n/a
329.735	0.104	659470	keystroke_h	h	n/a
329.9425	0.104	659885	keystroke_a	a	n/a
330.0865	0.1045	660173	keystroke_n	n	n/a
330.3905	0.1125	660781	keystroke_i	i	n/a
330.5185	0.12	661037	keystroke_s	s	n/a
330.7265	0.1595	661453	keystroke_t	t	n/a
330.911	0.112	661822	keystroke_a	a	n/a
330.999	0.159	661998	keystroke_n	n	n/a
331.1665	0.1355	662333	keystroke_Key.space	Key.space	n/a
331.334	0.1205	662668	keystroke_d	d	n/a
331.423	0.112	662846	keystroke_i	i	n/a
331.542	0.1045	663084	keystroke_s	s	n/a
331.822	0.1685	663644	keystroke_e	e	n/a
331.943	0.143	663886	keystroke_s	s	n/a
332.382	0.08	664764	keystroke_Key.backspace	Key.backspace	n/a
332.4305	0.1285	664861	keystroke_a	a	n/a
332.519	0.12	665038	keystroke_s	s	n/a
332.783	0.1675	665566	keystroke_e	e	n/a
332.862	0.145	665724	keystroke_s	s	n/a
333.046	0.137	666092	keystroke_Key.space	Key.space	n/a
333.343	0.0955	666686	keystroke_b	b	n/a
333.4395	0.119	666879	keystroke_r	r	n/a
333.6145	0.1045	667229	keystroke_o	o	n/a
333.735	0.0805	667470	keystroke_w	w	n/a
334.031	0.176	668062	keystroke_s	s	n/a
334.1345	0.1605	668269	keystroke_e	e	n/a
334.2545	0.1595	668509	keystroke_r	r	n/a
334.486	0.161	668972	keystroke_Key.space	Key.space	n/a
334.663	0.1675	669326	keystroke_m	m	n/a
334.7985	0.1285	669597	keystroke_o	o	n/a
334.9675	0.0955	669935	keystroke_t	t	n/a
335.0305	0.1205	670061	keystroke_n	n	n/a
335.591	0.08	671182	keystroke_Key.backspace	Key.backspace	n/a
335.751	0.088	671502	keystroke_Key.backspace	Key.backspace	n/a
335.983	0.112	671966	keystroke_n	n	n/a
336.062	0.169	672124	keystroke_t	t	n/a
336.206	0.129	672412	keystroke_h	h	n/a
336.8955	0.0395	673791	keystroke_l	l	n/a
337.071	0.08	674142	keystroke_y	y	n/a
337.487	0.104	674974	keystroke_Key.enter	Key.enter	n/a
337.599	6.8435	675198	prompt	n/a	taxes tiny eleven refurbished\n
338.2315	0.168	676463	keystroke_t	t	n/a
338.4145	0.0805	676829	keystroke_a	a	n/a
338.671	0.0955	677342	keystroke_x	x	n/a
339.023	0.12	678046	keystroke_s	s	n/a
339.359	0.0875	678718	keystroke_Key.backspace	Key.backspace	n/a
339.471	0.152	678942	keystroke_e	e	n/a
339.567	0.096	679134	keystroke_s	s	n/a
339.679	0.152	679358	keystroke_Key.space	Key.space	n/a
339.847	0.168	679694	keystroke_t	t	n/a
339.951	0.072	679902	keystroke_i	i	n/a
340.103	0.128	680206	keystroke_n	n	n/a
340.239	0.112	680478	keystroke_y	y	n/a
340.3825	0.1275	680765	keystroke_Key.space	Key.space	n/a
340.495	0.1275	680990	keystroke_e	e	n/a
340.6625	0.0795	681325	keystroke_l	l	n/a
340.694	0.168	681388	keystroke_e	e	n/a
341.287	0.144	682574	keystroke_v	v	n/a
341.7515	0.1115	683503	keystroke_e	e	n/a
341.8225	0.137	683645	keystroke_n	n	n/a
342.0065	0.152	684013	keystroke_Key.space	Key.space	n/a
342.1595	0.1345	684319	keystroke_r	r	n/a
342.287	0.1835	684574	keystroke_e	e	n/a
342.518	0.097	685036	keystroke_f	f	n/a
342.711	0.104	685422	keystroke_u	u	n/a
342.855	0.1275	685710	keystroke_r	r	n/a
342.9905	0.073	685981	keystroke_b	b	n/a
343.5265	0.1205	687053	keystroke_i	i	n/a
343.6625	0.0965	687325	keystroke_s	s	n/a
343.7515	0.127	687503	keystroke_h	h	n/a
343.9665	0.201	687933	keystroke_e	e	n/a
344.1835	0.088	688367	keystroke_d	d	n/a
344.327	0.1115	688654	keystroke_Key.enter	Key.enter	n/a
344.4465	6.2265	688893	prompt	n/a	attendance glory philips essay\n
345.239	0.0875	690478	keystroke_a	a	n/a
345.4085	0.087	690817	keystroke_t	t	n/a
345.5915	0.1195	691183	keystroke_t	t	n/a
345.8305	0.136	691661	keystroke_e	e	n/a
345.9505	0.104	691901	keystroke_n	n	n/a
346.127	0.1035	692254	keystroke_d	d	n/a
346.2475	0.087	692495	keystroke_a	a	n/a
346.3905	0.096	692781	keystroke_n	n	n/a
346.4785	0.144	692957	keystroke_c	c	n/a
346.559	0.1515	693118	keystroke_e	e	n/a
346.6945	0.152	693389	keystroke_Key.space	Key.space	n/a
346.975	0.136	693950	keystroke_g	g	n/a
347.095	0.072	694190	keystroke_l	l	n/a
347.271	0.0965	694542	keystroke_o	o	n/a
347.478	0.153	694956	keystroke_r	r	n/a
347.599	0.12	695198	keystroke_y	y	n/a
347.775	0.12	695550	keystroke_Key.space	Key.space	n/a
348.183	0.088	696366	keystroke_p	p	n/a
348.439	0.152	696878	keystroke_h	h	n/a
348.575	0.176	697150	keystroke_i	i	n/a
348.719	0.184	697438	keystroke_l	l	n/a
348.847	0.1195	697694	keystroke_i	i	n/a
349.071	0.128	698142	keystroke_p	p	n/a
349.183	0.128	698366	keystroke_s	s	n/a
349.319	0.144	698638	keystroke_Key.space	Key.space	n/a
349.543	0.0885	699086	keystroke_e	e	n/a
349.831	0.072	699662	keystroke_s	s	n/a
349.999	0.0885	699998	keystroke_s	s	n/a
350.127	0.104	700254	keystroke_a	a	n/a
350.199	0.112	700398	keystroke_y	y	n/a
350.591	0.08	701182	keystroke_Key.enter	Key.enter	n/a
350.677	6.0275	701354	prompt	n/a	they're inner causing magnitude\n
351.407	0.176	702814	keystroke_t	t	n/a
351.5345	0.088	703069	keystroke_h	h	n/a
351.647	0.1195	703294	keystroke_e	e	n/a
351.719	0.1035	703438	keystroke_y	y	n/a
352.031	0.088	704062	keystroke_'	'	n/a
352.183	0.112	704366	keystroke_r	r	n/a
352.287	0.128	704574	keystroke_e	e	n/a
352.903	0.1675	705806	keystroke_Key.space	Key.space	n/a
353.063	0.0795	706126	keystroke_i	i	n/a
353.2635	0.079	706527	keystroke_n	n	n/a
353.4475	0.064	706895	keystroke_n	n	n/a
353.5035	0.111	707007	keystroke_e	e	n/a
353.5905	0.1205	707181	keystroke_r	r	n/a
353.7185	0.096	707437	keystroke_Key.space	Key.space	n/a
353.903	0.0965	707806	keystroke_c	c	n/a
354.015	0.1125	708030	keystroke_a	a	n/a
354.119	0.1115	708238	keystroke_u	u	n/a
354.2865	0.1045	708573	keystroke_s	s	n/a
354.399	0.0635	708798	keystroke_i	i	n/a
354.5185	0.128	709037	keystroke_n	n	n/a
354.6225	0.112	709245	keystroke_g	g	n/a
354.751	0.12	709502	keystroke_Key.space	Key.space	n/a
355.0145	0.097	710029	keystroke_m	m	n/a
355.1025	0.0805	710205	keystroke_a	a	n/a
355.335	0.1045	710670	keystroke_g	g	n/a
355.454	0.1045	710908	keystroke_n	n	n/a
355.623	0.119	711246	keystroke_i	i	n/a
355.735	0.1285	711470	keystroke_t	t	n/a
355.9025	0.12	711805	keystroke_u	u	n/a
356.1265	0.1755	712253	keystroke_d	d	n/a
356.2785	0.137	712557	keystroke_e	e	n/a
356.599	0.104	713198	keystroke_Key.enter	Key.enter	n/a
356.7095	6.2515	713419	prompt	n/a	temp access attack metropolitan\n
357.271	0.1115	714542	keystroke_t	t	n/a
357.3905	0.1045	714781	keystroke_e	e	n/a
357.4865	0.096	714973	keystroke_m	m	n/a
357.639	0.1595	715278	keystroke_p	p	n/a
357.7905	0.1445	715581	keystroke_Key.space	Key.space	n/a
357.919	0.056	715838	keystroke_a	a	n/a
358.015	0.1195	716030	keystroke_c	c	n/a
358.271	0.096	716542	keystroke_c	c	n/a
358.327	0.192	716654	keystroke_e	e	n/a
358.431	0.144	716862	keystroke_s	s	n/a
358.671	0.08	717342	keystroke_s	s	n/a
358.887	0.1115	717774	keystroke_Key.space	Key.space	n/a
359.175	0.1115	718350	keystroke_a	a	n/a
359.2795	0.08	718559	keystroke_t	t	n/a
359.4395	0.0795	718879	keystroke_t	t	n/a
359.5345	0.152	719069	keystroke_a	a	n/a
359.7825	0.097	719565	keystroke_c	c	n/a
359.863	0.128	719726	keystroke_k	k	n/a
360.0065	0.136	720013	keystroke_Key.space	Key.space	n/a
360.2475	0.104	720495	keystroke_m	m	n/a
360.3825	0.144	720765	keystroke_e	e	n/a
360.487	0.1355	720974	keystroke_t	t	n/a
360.7995	0.056	721599	keystroke_r	r	n/a
360.8705	0.1125	721741	keystroke_o	o	n/a
361.2705	0.0795	722541	keystroke_p	p	n/a
361.3915	0.128	722783	keystroke_o	o	n/a
361.7265	0.08	723453	keystroke_l	l	n/a
361.935	0.0955	723870	keystroke_i	i	n/a
362.0315	0.103	724063	keystroke_t	t	n/a
362.2145	0.128	724429	keystroke_a	a	n/a
362.463	0.1115	724926	keystroke_n	n	n/a
362.8865	0.0725	725773	keystroke_Key.enter	Key.enter	n/a
362.9655	7.2345	725931	prompt	n/a	pepper stainless obtaining issues\n
363.7585	0.104	727517	keystroke_p	p	n/a
363.8785	0.1285	727757	keystroke_e	e	n/a
364.023	0.073	728046	keystroke_p	p	n/a
364.231	0.072	728462	keystroke_p	p	n/a
364.3905	0.121	728781	keystroke_e	e	n/a
364.5035	0.095	729007	keystroke_r	r	n/a
364.838	0.1445	729676	keystroke_Key.space	Key.space	n/a
365.1115	0.1025	730223	keystroke_s	s	n/a
365.207	0.112	730414	keystroke_t	t	n/a
365.359	0.136	730718	keystroke_a	a	n/a
365.463	0.072	730926	keystroke_i	i	n/a
365.631	0.096	731262	keystroke_n	n	n/a
365.815	0.104	731630	keystroke_l	l	n/a
365.9595	0.167	731919	keystroke_e	e	n/a
366.062	0.1285	732124	keystroke_s	s	n/a
366.279	0.0875	732558	keystroke_s	s	n/a
366.3505	0.1685	732701	keystroke_Key.space	Key.space	n/a
366.487	0.0875	732974	keystroke_o	o	n/a
366.6705	0.1445	733341	keystroke_b	b	n/a
367.0145	0.1205	734029	keystroke_t	t	n/a
367.406	0.0565	734812	keystroke_Key.backspace	Key.backspace	n/a
367.863	0.136	735726	keystroke_t	t	n/a
368.086	0.089	736172	keystroke_a	a	n/a
368.199	0.096	736398	keystroke_i	i	n/a
368.311	0.136	736622	keystroke_n	n	n/a
368.423	0.112	736846	keystroke_i	i	n/a
368.5515	0.0715	737103	keystroke_n	n	n/a
368.63	0.121	737260	keystroke_g	g	n/a
368.8785	0.144	737757	keystroke_Key.space	Key.space	n/a
369.2065	0.097	738413	keystroke_i	i	n/a
369.3985	0.0805	738797	keystroke_s	s	n/a
369.591	0.064	739182	keystroke_s	s	n/a
369.655	0.128	739310	keystroke_u	u	n/a
369.783	0.1435	739566	keystroke_e	e	n/a
369.8705	0.1045	739741	keystroke_s	s	n/a
370.142	0.057	740284	keystroke_Key.enter	Key.enter	n/a
370.206	5.5705	740412	prompt	n/a	isaac offer karma filled\n
370.8065	0.0965	741613	keystroke_i	i	n/a
370.9345	0.0725	741869	keystroke_s	s	n/a
371.183	0.0555	742366	keystroke_a	a	n/a
371.847	0.0715	743694	keystroke_c	c	n/a
372.239	0.08	744478	keystroke_Key.backspace	Key.backspace	n/a
372.311	0.112	744622	keystroke_a	a	n/a
372.415	0.136	744830	keystroke_c	c	n/a
372.527	0.2635	745054	keystroke_Key.space	Key.space	n/a
372.742	0.1125	745484	keystroke_o	o	n/a
372.943	0.056	745886	keystroke_f	f	n/a
373.1275	0.031	746255	keystroke_f	f	n/a
373.2225	0.152	746445	keystroke_e	e	n/a
373.3665	0.128	746733	keystroke_r	r	n/a
373.7425	0.16	747485	keystroke_Key.space	Key.space	n/a
373.943	0.144	747886	keystroke_k	k	n/a
374.1185	0.1205	748237	keystroke_a	a	n/a
374.255	0.103	748510	keystroke_r	r	n/a
374.3665	0.072	748733	keystroke_m	m	n/a
374.479	0.112	748958	keystroke_a	a	n/a
374.727	0.08	749454	keystroke_Key.space	Key.space	n/a
374.895	0.1275	749790	keystroke_f	f	n/a
374.9505	0.08	749901	keystroke_i	i	n/a
375.1425	0.0875	750285	keystroke_l	l	n/a
375.3185	0.1045	750637	keystroke_l	l	n/a
375.374	0.1445	750748	keystroke_e	e	n/a
375.487	0.112	750974	keystroke_d	d	n/a
375.6865	0.0885	751373	keystroke_Key.enter	Key.enter	n/a
375.781	6.443	751562	prompt	n/a	definition pleasure remained famous\n
376.615	0.16	753230	keystroke_d	d	n/a
376.727	0.128	753454	keystroke_e	e	n/a
377.103	0.079	754206	keystroke_f	f	n/a
377.214	0.088	754428	keystroke_i	i	n/a
377.398	0.137	754796	keystroke_n	n	n/a
377.494	0.153	754988	keystroke_i	i	n/a
377.6625	0.1115	755325	keystroke_t	t	n/a
377.751	0.1435	755502	keystroke_i	i	n/a
377.823	0.1595	755646	keystroke_o	o	n/a
377.9505	0.144	755901	keystroke_n	n	n/a
378.135	0.1515	756270	keystroke_Key.space	Key.space	n/a
378.343	0.112	756686	keystroke_p	p	n/a
378.6145	0.136	757229	keystroke_l	l	n/a
378.8705	0.072	757741	keystroke_e	e	n/a
379.1265	0.128	758253	keystroke_a	a	n/a
379.2465	0.081	758493	keystroke_s	s	n/a
379.5665	0.088	759133	keystroke_u	u	n/a
379.671	0.136	759342	keystroke_r	r	n/a
379.783	0.1595	759566	keystroke_e	e	n/a
379.8945	0.1435	759789	keystroke_Key.space	Key.space	n/a
380.111	0.144	760222	keystroke_r	r	n/a
380.174	0.169	760348	keystroke_e	e	n/a
380.351	0.128	760702	keystroke_m	m	n/a
380.5505	0.0715	761101	keystroke_a	a	n/a
380.583	0.0955	761166	keystroke_i	i	n/a
380.75	0.137	761500	keystroke_n	n	n/a
380.823	0.184	761646	keystroke_e	e	n/a
380.942	0.129	761884	keystroke_d	d	n/a
381.0305	0.1515	762061	keystroke_Key.space	Key.space	n/a
381.215	0.136	762430	keystroke_f	f	n/a
381.3755	0.1195	762751	keystroke_a	a	n/a
381.47	0.153	762940	keystroke_m	m	n/a
381.614	0.08	763228	keystroke_o	o	n/a
381.759	0.128	763518	keystroke_u	u	n/a
381.871	0.0875	763742	keystroke_s	s	n/a
382.1665	0.056	764333	keystroke_Key.enter	Key.enter	n/a
382.2285	5.964	764457	prompt	n/a	slim mechanics avon ma'am\n
382.7905	0.104	765581	keystroke_s	s	n/a
382.8785	0.1525	765757	keystroke_l	l	n/a
383.014	0.113	766028	keystroke_i	i	n/a
383.2465	0.1605	766493	keystroke_m	m	n/a
383.3985	0.152	766797	keystroke_Key.space	Key.space	n/a
383.5665	0.128	767133	keystroke_m	m	n/a
383.6865	0.152	767373	keystroke_e	e	n/a
383.8625	0.208	767725	keystroke_c	c	n/a
383.975	0.1275	767950	keystroke_h	h	n/a
384.238	0.089	768476	keystroke_a	a	n/a
384.3505	0.1045	768701	keystroke_n	n	n/a
384.5185	0.1205	769037	keystroke_i	i	n/a
384.646	0.16	769292	keystroke_c	c	n/a
384.822	0.121	769644	keystroke_s	s	n/a
384.9985	0.152	769997	keystroke_Key.space	Key.space	n/a
385.4305	0.0805	770861	keystroke_a	a	n/a
385.6705	0.096	771341	keystroke_v	v	n/a
385.7905	0.136	771581	keystroke_o	o	n/a
386.0225	0.1605	772045	keystroke_n	n	n/a
386.1905	0.136	772381	keystroke_Key.space	Key.space	n/a
386.4385	0.096	772877	keystroke_m	m	n/a
386.5585	0.08	773117	keystroke_a	a	n/a
386.7745	0.1045	773549	keystroke_'	'	n/a
387.0145	0.1205	774029	keystroke_v	v	n/a
387.494	0.048	774988	keystroke_Key.backspace	Key.backspace	n/a
387.663	0.08	775326	keystroke_a	a	n/a
387.7905	0.1285	775581	keystroke_m	m	n/a
388.1185	0.072	776237	keystroke_Key.enter	Key.enter	n/a
388.1965	8.6435	776393	prompt	n/a	keyboards holdem travesti deployment\n
389.062	0.121	778124	keystroke_k	k	n/a
389.215	0.144	778430	keystroke_e	e	n/a
389.343	0.088	778686	keystroke_y	y	n/a
389.519	0.112	779038	keystroke_b	b	n/a
389.767	0.104	779534	keystroke_o	o	n/a
389.831	0.144	779662	keystroke_a	a	n/a
389.927	0.12	779854	keystroke_r	r	n/a
390.222	0.136	780444	keystroke_d	d	n/a
390.302	0.128	780604	keystroke_s	s	n/a
390.446	0.1285	780892	keystroke_Key.space	Key.space	n/a
390.6545	0.096	781309	keystroke_h	h	n/a
390.8625	0.04	781725	keystroke_o	o	n/a
391.0545	0.072	782109	keystroke_l	l	n/a
391.1275	0.119	782255	keystroke_d	d	n/a
391.2225	0.152	782445	keystroke_e	e	n/a
391.3345	0.144	782669	keystroke_m	m	n/a
391.4705	0.144	782941	keystroke_Key.space	Key.space	n/a
391.5985	0.1045	783197	keystroke_t	t	n/a
391.8305	0.0955	783661	keystroke_r	r	n/a
391.902	0.1205	783804	keystroke_a	a	n/a
392.2065	0.096	784413	keystroke_v	v	n/a
392.3185	0.136	784637	keystroke_e	e	n/a
392.6865	0.08	785373	keystroke_s	s	n/a
393.0625	0.12	786125	keystroke_t	t	n/a
393.1665	0.096	786333	keystroke_i	i	n/a
393.6305	0.136	787261	keystroke_Key.space	Key.space	n/a
394.014	0.1365	788028	keystroke_d	d	n/a
394.095	0.1595	788190	keystroke_e	e	n/a
394.2705	0.08	788541	keystroke_l	l	n/a
394.7185	0.064	789437	keystroke_Key.backspace	Key.backspace	n/a
394.9745	0.08	789949	keystroke_p	p	n/a
395.2625	0.112	790525	keystroke_l	l	n/a
395.5105	0.096	791021	keystroke_o	o	n/a
395.8705	0.016	791741	keystroke_y	y	n/a
396.207	0.1115	792414	keystroke_m	m	n/a
396.326	0.12	792652	keystroke_e	e	n/a
396.439	0.103	792878	keystroke_n	n	n/a
396.526	0.153	793052	keystroke_t	t	n/a
396.75	0.088	793500	keystroke_Key.enter	Key.enter	n/a
396.8445	8.916	793689	prompt	n/a	i'll flesh transparent consultation\n
397.526	0.0965	795052	keystroke_i	i	n/a
397.8865	0.104	795773	keystroke_'	'	n/a
398.2065	0.0565	796413	keystroke_l	l	n/a
398.3505	0.08	796701	keystroke_l	l	n/a
398.4785	0.112	796957	keystroke_Key.space	Key.space	n/a
399.118	0.096	798236	keystroke_f	f	n/a
399.262	0.0885	798524	keystroke_l	l	n/a
399.3665	0.184	798733	keystroke_e	e	n/a
399.4945	0.136	798989	keystroke_s	s	n/a
399.6065	0.128	799213	keystroke_h	h	n/a
399.7265	0.136	799453	keystroke_Key.space	Key.space	n/a
399.8465	0.12	799693	keystroke_t	t	n/a
400.0705	0.1355	800141	keystroke_r	r	n/a
400.166	0.0965	800332	keystroke_a	a	n/a
400.294	0.088	800588	keystroke_n	n	n/a
400.455	0.08	800910	keystroke_s	s	n/a
400.551	0.1275	801102	keystroke_p	p	n/a
400.686	0.12	801372	keystroke_a	a	n/a
400.7825	0.128	801565	keystroke_r	r	n/a
401.102	0.064	802204	keystroke_t	t	n/a
401.1425	0.1435	802285	keystroke_e	e	n/a
401.5985	0.088	803197	keystroke_Key.backspace	Key.backspace	n/a
401.7585	0.072	803517	keystroke_Key.backspace	Key.backspace	n/a
401.9025	0.096	803805	keystroke_e	e	n/a
402.0145	0.128	804029	keystroke_n	n	n/a
402.111	0.1035	804222	keystroke_t	t	n/a
402.2305	0.168	804461	keystroke_Key.space	Key.space	n/a
402.471	0.1275	804942	keystroke_c	c	n/a
402.5425	0.072	805085	keystroke_o	o	n/a
402.7105	0.136	805421	keystroke_n	n	n/a
402.8865	0.12	805773	keystroke_s	s	n/a
403.287	0.08	806574	keystroke_u	u	n/a
403.5265	0.0955	807053	keystroke_l	l	n/a
403.7905	0.144	807581	keystroke_t	t	n/a
403.9745	0.136	807949	keystroke_a	a	n/a
404.1345	0.12	808269	keystroke_t	t	n/a
404.3025	0.128	808605	keystroke_n	n	n/a
404.6785	0.08	809357	keystroke_Key.backspace	Key.backspace	n/a
405.1505	0.1685	810301	keystroke_i	i	n/a
405.2625	0.136	810525	keystroke_o	o	n/a
405.3585	0.136	810717	keystroke_n	n	n/a
405.702	0.056	811404	keystroke_Key.enter	Key.enter	n/a
405.7635	5.717	811527	prompt	n/a	ingredients markets broker leasing\n
406.3985	0.0715	812797	keystroke_i	i	n/a
406.5665	0.1445	813133	keystroke_n	n	n/a
406.6545	0.112	813309	keystroke_g	g	n/a
406.9185	0.104	813837	keystroke_r	r	n/a
406.9745	0.232	813949	keystroke_e	e	n/a
407.2785	0.112	814557	keystroke_d	d	n/a
407.495	0.0795	814990	keystroke_i	i	n/a
407.5825	0.144	815165	keystroke_e	e	n/a
407.7025	0.136	815405	keystroke_n	n	n/a
407.878	0.177	815756	keystroke_t	t	n/a
408.0465	0.136	816093	keystroke_s	s	n/a
408.2215	0.129	816443	keystroke_Key.space	Key.space	n/a
408.4385	0.128	816877	keystroke_m	m	n/a
408.534	0.1445	817068	keystroke_a	a	n/a
408.647	0.1345	817294	keystroke_r	r	n/a
408.7735	0.112	817547	keystroke_k	k	n/a
408.8865	0.1525	817773	keystroke_e	e	n/a
408.9905	0.151	817981	keystroke_t	t	n/a
409.1185	0.1355	818237	keystroke_s	s	n/a
409.2385	0.1435	818477	keystroke_Key.space	Key.space	n/a
409.4145	0.1195	818829	keystroke_b	b	n/a
409.654	0.097	819308	keystroke_r	r	n/a
409.775	0.111	819550	keystroke_o	o	n/a
409.8465	0.144	819693	keystroke_k	k	n/a
409.998	0.1125	819996	keystroke_e	e	n/a
410.0465	0.152	820093	keystroke_r	r	n/a
410.2225	0.152	820445	keystroke_Key.space	Key.space	n/a
410.4145	0.136	820829	keystroke_l	l	n/a
410.4865	0.136	820973	keystroke_e	e	n/a
410.7105	0.136	821421	keystroke_a	a	n/a
410.7905	0.136	821581	keystroke_s	s	n/a
410.935	0.0955	821870	keystroke_i	i	n/a
411.0705	0.1355	822141	keystroke_n	n	n/a
411.1825	0.1515	822365	keystroke_g	g	n/a
411.39	0.088	822780	keystroke_Key.enter	Key.enter	n/a
411.485	6.459	822970	prompt	n/a	zones friends including steve\n
412.3345	0.088	824669	keystroke_z	z	n/a
412.5665	0.0395	825133	keystroke_o	o	n/a
412.8705	0.1115	825741	keystroke_n	n	n/a
413.006	0.1445	826012	keystroke_e	e	n/a
413.094	0.128	826188	keystroke_s	s	n/a
413.3015	0.153	826603	keystroke_Key.space	Key.space	n/a
413.5185	0.096	827037	keystroke_f	f	n/a
413.686	0.072	827372	keystroke_i	i	n/a
413.8545	0.0805	827709	keystroke_r	r	n/a
414.0705	0.088	828141	keystroke_Key.backspace	Key.backspace	n/a
414.406	0.0805	828812	keystroke_r	r	n/a
414.5015	0.08	829003	keystroke_Key.backspace	Key.backspace	n/a
414.6695	0.0805	829339	keystroke_Key.backspace	Key.backspace	n/a
414.798	0.096	829596	keystroke_r	r	n/a
414.9425	0.112	829885	keystroke_i	i	n/a
415.0555	0.151	830111	keystroke_e	e	n/a
415.174	0.1365	830348	keystroke_n	n	n/a
415.318	0.128	830636	keystroke_d	d	n/a
415.4385	0.1355	830877	keystroke_s	s	n/a
415.558	0.152	831116	keystroke_Key.space	Key.space	n/a
415.686	0.0965	831372	keystroke_i	i	n/a
415.846	0.1205	831692	keystroke_n	n	n/a
415.934	0.112	831868	keystroke_c	c	n/a
416.054	0.0875	832108	keystroke_l	l	n/a
416.2545	0.096	832509	keystroke_u	u	n/a
416.3815	0.121	832763	keystroke_d	d	n/a
416.4865	0.0955	832973	keystroke_i	i	n/a
416.583	0.127	833166	keystroke_n	n	n/a
416.694	0.16	833388	keystroke_g	g	n/a
416.782	0.184	833564	keystroke_Key.space	Key.space	n/a
416.95	0.1045	833900	keystroke_s	s	n/a
417.0865	0.1115	834173	keystroke_t	t	n/a
417.174	0.1605	834348	keystroke_e	e	n/a
417.478	0.112	834956	keystroke_v	v	n/a
417.582	0.112	835164	keystroke_e	e	n/a
417.8385	0.103	835677	keystroke_Key.enter	Key.enter	n/a
417.9485	5.244	835897	prompt	n/a	somebody claimed mega compare\n
419.1425	0.096	838285	keystroke_s	s	n/a
419.2145	0.08	838429	keystroke_o	o	n/a
419.358	0.112	838716	keystroke_m	m	n/a
419.478	0.136	838956	keystroke_e	e	n/a
419.702	0.104	839404	keystroke_b	b	n/a
419.894	0.1125	839788	keystroke_o	o	n/a
420.0385	0.1355	840077	keystroke_d	d	n/a
420.134	0.104	840268	keystroke_y	y	n/a
420.254	0.144	840508	keystroke_Key.space	Key.space	n/a
420.502	0.12	841004	keystroke_c	c	n/a
420.614	0.096	841228	keystroke_l	l	n/a
420.75	0.088	841500	keystroke_a	a	n/a
420.806	0.12	841612	keystroke_i	i	n/a
420.934	0.144	841868	keystroke_m	m	n/a
421.0145	0.1435	842029	keystroke_e	e	n/a
421.134	0.128	842268	keystroke_d	d	n/a
421.206	0.152	842412	keystroke_Key.space	Key.space	n/a
421.358	0.12	842716	keystroke_m	m	n/a
421.43	0.128	842860	keystroke_e	e	n/a
421.662	0.12	843324	keystroke_g	g	n/a
421.846	0.1435	843692	keystroke_a	a	n/a
421.9575	0.136	843915	keystroke_Key.space	Key.space	n/a
422.1665	0.104	844333	keystroke_c	c	n/a
422.2225	0.144	844445	keystroke_o	o	n/a
422.3585	0.096	844717	keystroke_m	m	n/a
422.5265	0.127	845053	keystroke_p	p	n/a
422.5975	0.128	845195	keystroke_a	a	n/a
422.7505	0.144	845501	keystroke_r	r	n/a
422.8545	0.1195	845709	keystroke_e	e	n/a
423.11	0.0805	846220	keystroke_Key.enter	Key.enter	n/a
423.1965	8.6105	846393	prompt	n/a	adults century preliminary receiver\n
423.878	0.1115	847756	keystroke_a	a	n/a
423.982	0.1275	847964	keystroke_d	d	n/a
424.0865	0.0715	848173	keystroke_u	u	n/a
424.326	0.08	848652	keystroke_l	l	n/a
424.414	0.128	848828	keystroke_t	t	n/a
424.494	0.144	848988	keystroke_s	s	n/a
424.566	0.168	849132	keystroke_Key.space	Key.space	n/a
424.7825	0.1275	849565	keystroke_c	c	n/a
424.886	0.152	849772	keystroke_e	e	n/a
425.014	0.104	850028	keystroke_n	n	n/a
425.1655	0.1125	850331	keystroke_t	t	n/a
426.182	0.112	852364	keystroke_u	u	n/a
426.317	0.129	852634	keystroke_r	r	n/a
426.414	0.096	852828	keystroke_y	y	n/a
426.55	0.144	853100	keystroke_Key.space	Key.space	n/a
427.342	0.08	854684	keystroke_p	p	n/a
427.446	0.152	854892	keystroke_r	r	n/a
427.566	0.128	855132	keystroke_e	e	n/a
427.758	0.072	855516	keystroke_l	l	n/a
428.166	0.104	856332	keystroke_i	i	n/a
428.334	0.144	856668	keystroke_m	m	n/a
428.454	0.1355	856908	keystroke_i	i	n/a
428.902	0.087	857804	keystroke_n	n	n/a
429.23	0.104	858460	keystroke_a	a	n/a
429.358	0.1515	858716	keystroke_r	r	n/a
429.4615	0.104	858923	keystroke_y	y	n/a
429.606	0.1275	859212	keystroke_Key.space	Key.space	n/a
429.8135	0.112	859627	keystroke_r	r	n/a
429.886	0.1755	859772	keystroke_e	e	n/a
430.246	0.112	860492	keystroke_c	c	n/a
430.942	0.152	861884	keystroke_e	e	n/a
431.078	0.1115	862156	keystroke_i	i	n/a
431.206	0.1115	862412	keystroke_v	v	n/a
431.3655	0.16	862731	keystroke_e	e	n/a
431.4775	0.1445	862955	keystroke_r	r	n/a
431.7015	0.104	863403	keystroke_Key.enter	Key.enter	n/a
431.8115	6.0045	863623	prompt	n/a	somehow exact engaged there's\n
432.598	0.0955	865196	keystroke_s	s	n/a
432.67	0.1275	865340	keystroke_o	o	n/a
432.7735	0.1525	865547	keystroke_m	m	n/a
432.8695	0.1605	865739	keystroke_e	e	n/a
433.046	0.1355	866092	keystroke_h	h	n/a
433.142	0.168	866284	keystroke_o	o	n/a
433.294	0.112	866588	keystroke_w	w	n/a
433.366	0.128	866732	keystroke_Key.space	Key.space	n/a
433.9975	0.072	867995	keystroke_e	e	n/a
434.2375	0.0875	868475	keystroke_x	x	n/a
434.47	0.0795	868940	keystroke_a	a	n/a
434.686	0.0715	869372	keystroke_c	c	n/a
434.941	0.1205	869882	keystroke_t	t	n/a
435.045	0.1205	870090	keystroke_Key.space	Key.space	n/a
435.222	0.1435	870444	keystroke_e	e	n/a
435.406	0.0795	870812	keystroke_n	n	n/a
435.5335	0.1045	871067	keystroke_g	g	n/a
435.782	0.0715	871564	keystroke_a	a	n/a
435.998	0.144	871996	keystroke_g	g	n/a
436.094	0.1755	872188	keystroke_e	e	n/a
436.4855	0.088	872971	keystroke_d	d	n/a
436.6135	0.1125	873227	keystroke_Key.space	Key.space	n/a
436.8295	0.1525	873659	keystroke_t	t	n/a
436.9175	0.113	873835	keystroke_h	h	n/a
437.014	0.1435	874028	keystroke_e	e	n/a
437.1495	0.152	874299	keystroke_r	r	n/a
437.2375	0.072	874475	keystroke_e	e	n/a
437.366	0.0795	874732	keystroke_'	'	n/a
437.4775	0.1125	874955	keystroke_s	s	n/a
437.7335	0.08	875467	keystroke_Key.enter	Key.enter	n/a
437.8195	6.6355	875639	prompt	n/a	super epson ranging interval\n
438.462	0.088	876924	keystroke_s	s	n/a
438.582	0.08	877164	keystroke_u	u	n/a
438.838	0.112	877676	keystroke_p	p	n/a
438.918	0.112	877836	keystroke_e	e	n/a
438.958	0.1675	877916	keystroke_r	r	n/a
439.046	0.1915	878092	keystroke_Key.space	Key.space	n/a
439.3015	0.04	878603	keystroke_s	s	n/a
439.5735	0.1045	879147	keystroke_p	p	n/a
440.038	0.0715	880076	keystroke_Key.backspace	Key.backspace	n/a
440.206	0.0635	880412	keystroke_Key.backspace	Key.backspace	n/a
440.294	0.104	880588	keystroke_e	e	n/a
440.437	0.12	880874	keystroke_p	p	n/a
440.6135	0.0875	881227	keystroke_s	s	n/a
440.749	0.12	881498	keystroke_o	o	n/a
440.949	0.1445	881898	keystroke_n	n	n/a
441.021	0.1685	882042	keystroke_Key.space	Key.space	n/a
441.1255	0.176	882251	keystroke_r	r	n/a
441.2695	0.136	882539	keystroke_a	a	n/a
441.3655	0.112	882731	keystroke_n	n	n/a
441.5975	0.105	883195	keystroke_g	g	n/a
441.6695	0.12	883339	keystroke_i	i	n/a
441.7735	0.1285	883547	keystroke_n	n	n/a
441.8855	0.112	883771	keystroke_g	g	n/a
441.9735	0.184	883947	keystroke_Key.space	Key.space	n/a
442.2215	0.104	884443	keystroke_i	i	n/a
442.39	0.1435	884780	keystroke_n	n	n/a
442.485	0.128	884970	keystroke_t	t	n/a
442.6375	0.1445	885275	keystroke_e	e	n/a
443.3735	0.1115	886747	keystroke_r	r	n/a
443.686	0.0955	887372	keystroke_v	v	n/a
443.9175	0.096	887835	keystroke_a	a	n/a
443.9895	0.1205	887979	keystroke_l	l	n/a
444.3575	0.096	888715	keystroke_Key.enter	Key.enter	n/a
444.4615	9.698	888923	prompt	n/a	eminem french fixtures syracuse\n
445.1415	0.128	890283	keystroke_e	e	n/a
445.3335	0.144	890667	keystroke_m	m	n/a
445.6055	0.104	891211	keystroke_i	i	n/a
445.83	0.1035	891660	keystroke_n	n	n/a
446.1175	0.096	892235	keystroke_m	m	n/a
446.1975	0.1275	892395	keystroke_e	e	n/a
446.501	0.04	893002	keystroke_Key.backspace	Key.backspace	n/a
446.6055	0.1115	893211	keystroke_Key.backspace	Key.backspace	n/a
446.79	0.1355	893580	keystroke_e	e	n/a
446.901	0.169	893802	keystroke_m	m	n/a
447.086	0.167	894172	keystroke_Key.space	Key.space	n/a
447.446	0.096	894892	keystroke_f	f	n/a
447.702	0.119	895404	keystroke_r	r	n/a
447.766	0.1755	895532	keystroke_e	e	n/a
447.9735	0.088	895947	keystroke_n	n	n/a
448.1095	0.136	896219	keystroke_c	c	n/a
448.246	0.0715	896492	keystroke_h	h	n/a
448.3735	0.104	896747	keystroke_Key.space	Key.space	n/a
448.6535	0.112	897307	keystroke_f	f	n/a
448.726	0.0875	897452	keystroke_i	i	n/a
449.1095	0.1205	898219	keystroke_x	x	n/a
449.3415	0.1195	898683	keystroke_t	t	n/a
449.453	0.128	898906	keystroke_u	u	n/a
449.638	0.136	899276	keystroke_r	r	n/a
449.678	0.1995	899356	keystroke_e	e	n/a
449.813	0.1365	899626	keystroke_s	s	n/a
450.0135	0.136	900027	keystroke_Key.space	Key.space	n/a
450.2855	0.064	900571	keystroke_s	s	n/a
450.3575	0.08	900715	keystroke_y	y	n/a
450.5735	0.12	901147	keystroke_r	r	n/a
450.6775	0.136	901355	keystroke_a	a	n/a
450.99	0.12	901980	keystroke_c	c	n/a
451.2295	0.1515	902459	keystroke_s	s	n/a
451.333	0.128	902666	keystroke_e	e	n/a
451.581	0.088	903162	keystroke_Key.backspace	Key.backspace	n/a
451.7415	0.0795	903483	keystroke_Key.backspace	Key.backspace	n/a
452.03	0.08	904060	keystroke_i	i	n/a
452.126	0.135	904252	keystroke_s	s	n/a
452.294	0.088	904588	keystroke_e	e	n/a
452.557	0.072	905114	keystroke_Key.backspace	Key.backspace	n/a
452.8855	0.088	905771	keystroke_Key.backspace	Key.backspace	n/a
453.085	0.088	906170	keystroke_Key.backspace	Key.backspace	n/a
453.6375	0.08	907275	keystroke_u	u	n/a
453.7815	0.096	907563	keystroke_s	s	n/a
453.8135	0.152	907627	keystroke_e	e	n/a
454.0535	0.104	908107	keystroke_Key.enter	Key.enter	n/a
454.163	4.852	908326	prompt	n/a	and policy planets spoke\n
454.9895	0.1035	909979	keystroke_a	a	n/a
455.125	0.1205	910250	keystroke_n	n	n/a
455.285	0.089	910570	keystroke_d	d	n/a
455.349	0.1365	910698	keystroke_Key.space	Key.space	n/a
455.5175	0.1435	911035	keystroke_p	p	n/a
455.6375	0.1115	911275	keystroke_o	o	n/a
455.8775	0.0635	911755	keystroke_l	l	n/a
456.077	0.1045	912154	keystroke_i	i	n/a
456.1655	0.1755	912331	keystroke_c	c	n/a
456.357	0.104	912714	keystroke_y	y	n/a
456.461	0.136	912922	keystroke_Key.space	Key.space	n/a
456.733	0.104	913466	keystroke_p	p	n/a
456.981	0.104	913962	keystroke_l	l	n/a
457.109	0.1045	914218	keystroke_a	a	n/a
457.2215	0.128	914443	keystroke_n	n	n/a
457.4615	0.128	914923	keystroke_e	e	n/a
457.5735	0.136	915147	keystroke_t	t	n/a
457.7175	0.104	915435	keystroke_s	s	n/a
457.8375	0.1675	915675	keystroke_Key.space	Key.space	n/a
457.9975	0.08	915995	keystroke_s	s	n/a
458.0855	0.16	916171	keystroke_p	p	n/a
458.197	0.1445	916394	keystroke_o	o	n/a
458.3815	0.152	916763	keystroke_k	k	n/a
458.485	0.128	916970	keystroke_e	e	n/a
458.9175	0.0955	917835	keystroke_Key.enter	Key.enter	n/a
459.02	6.508	918040	prompt	n/a	nails fighting mails universities\n
459.661	0.105	919322	keystroke_n	n	n/a
459.805	0.1125	919610	keystroke_a	a	n/a
459.886	0.1435	919772	keystroke_i	i	n/a
459.974	0.1755	919948	keystroke_l	l	n/a
460.1575	0.112	920315	keystroke_s	s	n/a
460.2295	0.16	920459	keystroke_Key.space	Key.space	n/a
460.5175	0.12	921035	keystroke_f	f	n/a
460.6455	0.1125	921291	keystroke_i	i	n/a
460.9015	0.12	921803	keystroke_g	g	n/a
461.0375	0.1595	922075	keystroke_h	h	n/a
461.389	0.1045	922778	keystroke_t	t	n/a
461.4615	0.1195	922923	keystroke_i	i	n/a
461.5895	0.1275	923179	keystroke_n	n	n/a
461.725	0.1285	923450	keystroke_g	g	n/a
461.8375	0.1355	923675	keystroke_Key.space	Key.space	n/a
462.077	0.1365	924154	keystroke_m	m	n/a
462.437	0.096	924874	keystroke_a	a	n/a
462.526	0.143	925052	keystroke_i	i	n/a
462.629	0.16	925258	keystroke_l	l	n/a
462.8055	0.112	925611	keystroke_s	s	n/a
462.9175	0.1675	925835	keystroke_Key.space	Key.space	n/a
463.15	0.104	926300	keystroke_u	u	n/a
463.3255	0.1195	926651	keystroke_n	n	n/a
463.6375	0.12	927275	keystroke_i	i	n/a
463.7975	0.144	927595	keystroke_v	v	n/a
464.0135	0.152	928027	keystroke_e	e	n/a
464.1415	0.136	928283	keystroke_r	r	n/a
464.2785	0.142	928557	keystroke_s	s	n/a
464.4455	0.095	928891	keystroke_i	i	n/a
464.7165	0.177	929433	keystroke_t	t	n/a
464.83	0.1185	929660	keystroke_i	i	n/a
464.9725	0.1845	929945	keystroke_e	e	n/a
465.0775	0.136	930155	keystroke_s	s	n/a
465.437	0.088	930874	keystroke_Key.enter	Key.enter	n/a
465.5315	5.708	931063	prompt	n/a	painting controller bold fitted\n
466.278	0.1115	932556	keystroke_p	p	n/a
466.4455	0.152	932891	keystroke_a	a	n/a
466.5335	0.1035	933067	keystroke_i	i	n/a
466.741	0.1205	933482	keystroke_n	n	n/a
466.8855	0.103	933771	keystroke_t	t	n/a
466.9655	0.1355	933931	keystroke_i	i	n/a
467.0775	0.1115	934155	keystroke_n	n	n/a
467.237	0.1205	934474	keystroke_g	g	n/a
467.317	0.176	934634	keystroke_Key.space	Key.space	n/a
467.565	0.12	935130	keystroke_c	c	n/a
467.661	0.0805	935322	keystroke_o	o	n/a
467.813	0.144	935626	keystroke_n	n	n/a
467.9815	0.112	935963	keystroke_t	t	n/a
468.213	0.112	936426	keystroke_r	r	n/a
468.341	0.04	936682	keystroke_o	o	n/a
468.589	0.056	937178	keystroke_l	l	n/a
468.7575	0.104	937515	keystroke_l	l	n/a
468.8375	0.1115	937675	keystroke_e	e	n/a
468.901	0.1765	937802	keystroke_r	r	n/a
469.1335	0.136	938267	keystroke_Key.space	Key.space	n/a
469.3815	0.1035	938763	keystroke_b	b	n/a
469.5735	0.0885	939147	keystroke_o	o	n/a
469.8055	0.0955	939611	keystroke_l	l	n/a
469.8855	0.128	939771	keystroke_d	d	n/a
469.989	0.168	939978	keystroke_Key.space	Key.space	n/a
470.181	0.0965	940362	keystroke_f	f	n/a
470.2455	0.0955	940491	keystroke_i	i	n/a
470.461	0.072	940922	keystroke_t	t	n/a
470.637	0.12	941274	keystroke_t	t	n/a
470.7735	0.1835	941547	keystroke_e	e	n/a
470.933	0.112	941866	keystroke_d	d	n/a
471.1655	0.071	942331	keystroke_Key.enter	Key.enter	n/a
471.243	6.124	942486	prompt	n/a	ebook moss method oscar\n
471.886	0.0395	943772	keystroke_e	e	n/a
472.1655	0.112	944331	keystroke_b	b	n/a
472.3975	0.072	944795	keystroke_o	o	n/a
472.5805	0.136	945161	keystroke_o	o	n/a
472.7175	0.111	945435	keystroke_k	k	n/a
472.8935	0.1435	945787	keystroke_Key.space	Key.space	n/a
473.245	0.096	946490	keystroke_o	o	n/a
473.597	0.048	947194	keystroke_Key.backspace	Key.backspace	n/a
473.8925	0.152	947785	keystroke_m	m	n/a
474.0055	0.1275	948011	keystroke_o	o	n/a
474.3005	0.0805	948601	keystroke_s	s	n/a
474.4855	0.1115	948971	keystroke_s	s	n/a
474.613	0.168	949226	keystroke_Key.space	Key.space	n/a
474.8375	0.1595	949675	keystroke_m	m	n/a
474.9575	0.1435	949915	keystroke_e	e	n/a
475.093	0.1515	950186	keystroke_t	t	n/a
475.2045	0.112	950409	keystroke_h	h	n/a
475.3255	0.1355	950651	keystroke_o	o	n/a
475.469	0.1115	950938	keystroke_d	d	n/a
475.5975	0.1515	951195	keystroke_Key.space	Key.space	n/a
476.2135	0.135	952427	keystroke_o	o	n/a
476.405	0.1275	952810	keystroke_s	s	n/a
476.6045	0.113	953209	keystroke_c	c	n/a
476.7885	0.12	953577	keystroke_a	a	n/a
476.9575	0.1195	953915	keystroke_r	r	n/a
477.237	0.128	954474	keystroke_Key.enter	Key.enter	n/a
477.374	6.665	954748	prompt	n/a	coupons citizens monster absent\n
478.1415	0.12	956283	keystroke_c	c	n/a
478.2055	0.064	956411	keystroke_o	o	n/a
478.3655	0.0795	956731	keystroke_u	u	n/a
478.6135	0.0795	957227	keystroke_p	p	n/a
478.845	0.096	957690	keystroke_o	o	n/a
479.0695	0.12	958139	keystroke_n	n	n/a
479.2135	0.111	958427	keystroke_s	s	n/a
479.285	0.1515	958570	keystroke_Key.space	Key.space	n/a
479.5485	0.1445	959097	keystroke_c	c	n/a
479.6765	0.1285	959353	keystroke_i	i	n/a
479.933	0.1675	959866	keystroke_t	t	n/a
480.0765	0.1045	960153	keystroke_i	i	n/a
480.2925	0.089	960585	keystroke_z	z	n/a
480.477	0.1675	960954	keystroke_e	e	n/a
480.6285	0.08	961257	keystroke_n	n	n/a
480.7245	0.128	961449	keystroke_s	s	n/a
480.8925	0.16	961785	keystroke_Key.space	Key.space	n/a
481.3495	0.168	962699	keystroke_m	m	n/a
481.5005	0.145	963001	keystroke_o	o	n/a
