onset	duration	sample	value	key	prompt_text
15.0695	10.0545	30139	prompt	n/a	the quick brown fox jumps over a lazy dog\n
16.6495	0.04	33299	keystroke_t	t	n/a
16.7045	0.12	33409	keystroke_h	h	n/a
16.8405	0.12	33681	keystroke_e	e	n/a
17.0795	0.105	34159	keystroke_Key.space	Key.space	n/a
17.4405	0.135	34881	keystroke_q	q	n/a
17.5905	0.15	35181	keystroke_u	u	n/a
17.6955	0.149	35391	keystroke_i	i	n/a
17.8155	0.15	35631	keystroke_c	c	n/a
17.9805	0.105	35961	keystroke_k	k	n/a
18.1445	0.09	36289	keystroke_Key.space	Key.space	n/a
18.3395	0.106	36679	keystroke_b	b	n/a
18.4905	0.164	36981	keystroke_r	r	n/a
18.6395	0.1205	37279	keystroke_o	o	n/a
18.775	0.12	37550	keystroke_w	w	n/a
18.91	0.12	37820	keystroke_n	n	n/a
19.09	0.1355	38180	keystroke_Key.space	Key.space	n/a
19.3005	0.12	38601	keystroke_f	f	n/a
19.4655	0.1195	38931	keystroke_o	o	n/a
19.66	0.12	39320	keystroke_x	x	n/a
19.885	0.135	39770	keystroke_Key.space	Key.space	n/a
20.08	0.18	40160	keystroke_j	j	n/a
20.2	0.15	40400	keystroke_u	u	n/a
20.5155	0.09	41031	keystroke_m	m	n/a
20.7555	0.1195	41511	keystroke_p	p	n/a
20.98	0.18	41960	keystroke_s	s	n/a
21.175	0.1355	42350	keystroke_Key.space	Key.space	n/a
21.3545	0.091	42709	keystroke_o	o	n/a
21.5955	0.09	43191	keystroke_v	v	n/a
21.7605	0.195	43521	keystroke_e	e	n/a
22.001	0.119	44002	keystroke_r	r	n/a
22.2105	0.135	44421	keystroke_Key.space	Key.space	n/a
22.4205	0.135	44841	keystroke_a	a	n/a
22.6155	0.135	45231	keystroke_Key.space	Key.space	n/a
22.7655	0.1345	45531	keystroke_l	l	n/a
23.0055	0.0755	46011	keystroke_a	a	n/a
23.3955	0.18	46791	keystroke_z	z	n/a
23.6355	0.105	47271	keystroke_y	y	n/a
23.8305	0.165	47661	keystroke_Key.space	Key.space	n/a
24.0555	0.18	48111	keystroke_d	d	n/a
24.2505	0.105	48501	keystroke_o	o	n/a
24.4005	0.09	48801	keystroke_g	g	n/a
25.0305	0.09	50061	keystroke_Key.enter	Key.enter	n/a
25.13	10.2825	50260	prompt	n/a	cole pole earning projectors\n
26.1855	0.105	52371	keystroke_c	c	n/a
26.3355	0.075	52671	keystroke_o	o	n/a
26.5455	0.105	53091	keystroke_l	l	n/a
26.7255	0.165	53451	keystroke_e	e	n/a
26.9055	0.12	53811	keystroke_Key.space	Key.space	n/a
27.1305	0.105	54261	keystroke_p	p	n/a
27.4005	0.12	54801	keystroke_o	o	n/a
27.6555	0.105	55311	keystroke_l	l	n/a
27.8805	0.135	55761	keystroke_e	e	n/a
29.1255	0.15	58251	keystroke_Key.space	Key.space	n/a
29.4405	0.135	58881	keystroke_e	e	n/a
29.8455	0.15	59691	keystroke_a	a	n/a
30.0855	0.105	60171	keystroke_r	r	n/a
30.2505	0.135	60501	keystroke_n	n	n/a
30.4605	0.12	60921	keystroke_i	i	n/a
30.6705	0.15	61341	keystroke_n	n	n/a
30.8355	0.075	61671	keystroke_g	g	n/a
31.5555	0.135	63111	keystroke_Key.space	Key.space	n/a
31.7805	0.09	63561	keystroke_p	p	n/a
32.0205	0.09	64041	keystroke_r	r	n/a
32.1405	0.105	64281	keystroke_o	o	n/a
32.3655	0.105	64731	keystroke_j	j	n/a
32.5455	0.09	65091	keystroke_e	e	n/a
32.8155	0.075	65631	keystroke_c	c	n/a
33.1305	0.105	66261	keystroke_t	t	n/a
33.3255	0.15	66651	keystroke_o	o	n/a
33.5055	0.09	67011	keystroke_r	r	n/a
33.7305	0.12	67461	keystroke_s	s	n/a
35.3205	0.09	70641	keystroke_Key.enter	Key.enter	n/a
35.416	10.797	70832	prompt	n/a	itself dispatch peeing statistics\n
36.1455	0.12	72291	keystroke_i	i	n/a
36.3405	0.09	72681	keystroke_t	t	n/a
36.5505	0.18	73101	keystroke_s	s	n/a
36.7155	0.135	73431	keystroke_e	e	n/a
36.9555	0.135	73911	keystroke_l	l	n/a
37.1205	0.12	74241	keystroke_f	f	n/a
37.6305	0.135	75261	keystroke_Key.space	Key.space	n/a
37.8405	0.12	75681	keystroke_d	d	n/a
38.0355	0.135	76071	keystroke_i	i	n/a
38.2605	0.105	76521	keystroke_s	s	n/a
38.4555	0.165	76911	keystroke_p	p	n/a
38.6355	0.135	77271	keystroke_a	a	n/a
39.0555	0.075	78111	keystroke_t	t	n/a
39.3855	0.105	78771	keystroke_c	c	n/a
39.7005	0.09	79401	keystroke_h	h	n/a
40.3155	0.135	80631	keystroke_Key.space	Key.space	n/a
40.5555	0.105	81111	keystroke_p	p	n/a
40.7355	0.09	81471	keystroke_e	e	n/a
40.9305	0.135	81861	keystroke_e	e	n/a
41.0955	0.135	82191	keystroke_i	i	n/a
41.3805	0.105	82761	keystroke_n	n	n/a
41.5605	0.075	83121	keystroke_g	g	n/a
42.2505	0.135	84501	keystroke_Key.space	Key.space	n/a
42.5355	0.12	85071	keystroke_s	s	n/a
42.851	0.0445	85702	keystroke_t	t	n/a
42.9255	0.06	85851	keystroke_t	t	n/a
43.2705	0.135	86541	keystroke_a	a	n/a
43.5705	0.12	87141	keystroke_t	t	n/a
43.7655	0.105	87531	keystroke_i	i	n/a
43.961	0.1195	87922	keystroke_s	s	n/a
44.2155	0.1355	88431	keystroke_t	t	n/a
44.3355	0.105	88671	keystroke_i	i	n/a
44.6655	0.105	89331	keystroke_c	c	n/a
44.891	0.1045	89782	keystroke_s	s	n/a
46.0905	0.1205	92181	keystroke_Key.enter	Key.enter	n/a
46.218	9.895	92436	prompt	n/a	credit superb spec titans\n
47.1415	0.089	94283	keystroke_c	c	n/a
47.4405	0.15	94881	keystroke_r	r	n/a
47.5455	0.135	95091	keystroke_e	e	n/a
47.9215	0.134	95843	keystroke_d	d	n/a
48.1005	0.135	96201	keystroke_i	i	n/a
48.3105	0.09	96621	keystroke_t	t	n/a
48.5655	0.105	97131	keystroke_s	s	n/a
49.0605	0.165	98121	keystroke_Key.space	Key.space	n/a
49.4205	0.15	98841	keystroke_s	s	n/a
50.0355	0.12	100071	keystroke_u	u	n/a
50.5005	0.09	101001	keystroke_p	p	n/a
50.756	0.105	101512	keystroke_e	e	n/a
50.846	0.15	101692	keystroke_r	r	n/a
51.296	0.12	102592	keystroke_b	b	n/a
52.016	0.105	104032	keystroke_Key.space	Key.space	n/a
52.256	0.135	104512	keystroke_s	s	n/a
52.7655	0.09	105531	keystroke_p	p	n/a
52.9005	0.09	105801	keystroke_e	e	n/a
53.1705	0.075	106341	keystroke_c	c	n/a
53.8755	0.105	107751	keystroke_Key.space	Key.space	n/a
54.3705	0.105	108741	keystroke_t	t	n/a
54.5205	0.151	109041	keystroke_i	i	n/a
54.6855	0.1045	109371	keystroke_t	t	n/a
54.971	0.12	109942	keystroke_a	a	n/a
55.106	0.09	110212	keystroke_n	n	n/a
55.271	0.09	110542	keystroke_s	s	n/a
56.066	0.045	112132	keystroke_Key.enter	Key.enter	n/a
56.118	20.02	112236	prompt	n/a	snowboard diana she invision\n
57.2665	0.104	114533	keystroke_s	s	n/a
57.5205	0.165	115041	keystroke_n	n	n/a
57.6105	0.15	115221	keystroke_o	o	n/a
58.3905	0.09	116781	keystroke_b	b	n/a
58.6005	0.105	117201	keystroke_o	o	n/a
58.7955	0.21	117591	keystroke_a	a	n/a
58.9155	0.12	117831	keystroke_r	r	n/a
59.1705	0.135	118341	keystroke_d	d	n/a
60.0255	0.105	120051	keystroke_Key.space	Key.space	n/a
60.2655	0.105	120531	keystroke_d	d	n/a
60.3855	0.135	120771	keystroke_i	i	n/a
60.6255	0.12	121251	keystroke_a	a	n/a
60.8055	0.165	121611	keystroke_n	n	n/a
60.9855	0.12	121971	keystroke_a	a	n/a
61.3905	0.135	122781	keystroke_Key.space	Key.space	n/a
61.7655	0.12	123531	keystroke_s	s	n/a
61.9455	0.105	123891	keystroke_h	h	n/a
62.1405	0.12	124281	keystroke_e	e	n/a
62.3655	0.135	124731	keystroke_Key.space	Key.space	n/a
62.7855	0.12	125571	keystroke_i	i	n/a
63.0855	0.105	126171	keystroke_n	n	n/a
63.3855	0.12	126771	keystroke_v	v	n/a
63.5355	0.105	127071	keystroke_i	i	n/a
64.5555	0.12	129111	keystroke_s	s	n/a
64.6905	0.18	129381	keystroke_i	i	n/a
64.8105	0.24	129621	keystroke_o	o	n/a
65.0055	0.075	130011	keystroke_n	n	n/a
68.3385	0.102	136677	keystroke_Key.left	Key.left	n/a
68.5305	0.105	137061	keystroke_Key.left	Key.left	n/a
68.7405	0.09	137481	keystroke_Key.left	Key.left	n/a
68.9355	0.12	137871	keystroke_Key.left	Key.left	n/a
69.1605	0.12	138321	keystroke_Key.left	Key.left	n/a
69.4005	0.075	138801	keystroke_Key.left	Key.left	n/a
69.5955	0.09	139191	keystroke_Key.left	Key.left	n/a
69.7905	0.09	139581	keystroke_Key.left	Key.left	n/a
70.0005	0.09	140001	keystroke_Key.left	Key.left	n/a
70.1655	0.24	140331	keystroke_Key.left	Key.left	n/a
70.5255	0.06	141051	keystroke_Key.left	Key.left	n/a
70.7055	0.09	141411	keystroke_Key.left	Key.left	n/a
70.9005	0.075	141801	keystroke_Key.left	Key.left	n/a
71.1255	0.075	142251	keystroke_Key.left	Key.left	n/a
71.3355	0.09	142671	keystroke_Key.left	Key.left	n/a
71.5455	0.09	143091	keystroke_Key.left	Key.left	n/a
71.7405	0.075	143481	keystroke_Key.left	Key.left	n/a
71.9205	0.075	143841	keystroke_Key.left	Key.left	n/a
72.1005	0.075	144201	keystroke_Key.left	Key.left	n/a
72.2805	0.075	144561	keystroke_Key.left	Key.left	n/a
72.4605	0.09	144921	keystroke_Key.left	Key.left	n/a
72.6555	0.06	145311	keystroke_Key.left	Key.left	n/a
72.8355	0.06	145671	keystroke_Key.left	Key.left	n/a
73.0155	0.075	146031	keystroke_Key.left	Key.left	n/a
73.8705	0.135	147741	keystroke_w	w	n/a
76.1095	0.026	152219	keystroke_Key.enter	Key.enter	n/a
76.143	15.85	152286	prompt	n/a	satisfactory beam router planned\n
77.006	0.135	154012	keystroke_s	s	n/a
77.366	0.135	154732	keystroke_a	a	n/a
77.756	0.105	155512	keystroke_t	t	n/a
77.966	0.12	155932	keystroke_i	i	n/a
78.176	0.165	156352	keystroke_s	s	n/a
78.8505	0.106	157701	keystroke_f	f	n/a
79.0765	0.09	158153	keystroke_a	a	n/a
79.3315	0.105	158663	keystroke_c	c	n/a
79.7665	0.135	159533	keystroke_t	t	n/a
79.9615	0.135	159923	keystroke_o	o	n/a
80.5165	0.12	161033	keystroke_r	r	n/a
80.6955	0.105	161391	keystroke_y	y	n/a
81.4155	0.15	162831	keystroke_Key.space	Key.space	n/a
81.6565	0.105	163313	keystroke_b	b	n/a
81.8065	0.104	163613	keystroke_e	e	n/a
82.0305	0.135	164061	keystroke_a	a	n/a
82.1805	0.105	164361	keystroke_m	m	n/a
83.096	0.15	166192	keystroke_Key.space	Key.space	n/a
84.011	0.105	168022	keystroke_r	r	n/a
84.221	0.09	168442	keystroke_o	o	n/a
84.401	0.12	168802	keystroke_u	u	n/a
84.551	0.09	169102	keystroke_t	t	n/a
84.8065	0.135	169613	keystroke_e	e	n/a
85.0165	0.15	170033	keystroke_r	r	n/a
85.5265	0.135	171053	keystroke_Key.space	Key.space	n/a
85.8715	0.045	171743	keystroke_p	p	n/a
86.0665	0.12	172133	keystroke_l	l	n/a
86.2765	0.12	172553	keystroke_a	a	n/a
86.6365	0.1345	173273	keystroke_n	n	n/a
86.921	0.135	173842	keystroke_n	n	n/a
87.251	0.105	174502	keystroke_e	e	n/a
87.491	0.105	174982	keystroke_d	d	n/a
91.9495	0.041	183899	keystroke_Key.enter	Key.enter	n/a
92.01	12.044	184020	prompt	n/a	granted meetup istanbul ethical\n
93.9715	0.09	187943	keystroke_g	g	n/a
94.2115	0.12	188423	keystroke_r	r	n/a
94.3915	0.21	188783	keystroke_a	a	n/a
94.6155	0.151	189231	keystroke_n	n	n/a
94.9165	0.165	189833	keystroke_t	t	n/a
95.1715	0.075	190343	keystroke_e	e	n/a
95.3815	0.134	190763	keystroke_d	d	n/a
95.6955	0.106	191391	keystroke_Key.space	Key.space	n/a
96.0265	0.12	192053	keystroke_m	m	n/a
96.2065	0.075	192413	keystroke_e	e	n/a
96.4015	0.135	192803	keystroke_e	e	n/a
96.6415	0.15	193283	keystroke_t	t	n/a
97.0315	0.165	194063	keystroke_u	u	n/a
97.1665	0.075	194333	keystroke_p	p	n/a
98.2315	0.15	196463	keystroke_Key.space	Key.space	n/a
98.5165	0.12	197033	keystroke_i	i	n/a
98.6665	0.135	197333	keystroke_s	s	n/a
98.8765	0.105	197753	keystroke_t	t	n/a
99.1165	0.135	198233	keystroke_a	a	n/a
99.2215	0.06	198443	keystroke_n	n	n/a
99.4765	0.12	198953	keystroke_b	b	n/a
99.6865	0.12	199373	keystroke_u	u	n/a
99.9265	0.12	199853	keystroke_l	l	n/a
101.3215	0.12	202643	keystroke_Key.space	Key.space	n/a
101.8465	0.15	203693	keystroke_e	e	n/a
102.1465	0.105	204293	keystroke_t	t	n/a
102.3115	0.105	204623	keystroke_h	h	n/a
102.4615	0.105	204923	keystroke_i	i	n/a
102.5965	0.105	205193	keystroke_c	c	n/a
102.8515	0.105	205703	keystroke_a	a	n/a
102.9415	0.09	205883	keystroke_l	l	n/a
103.9915	0.06	207983	keystroke_Key.enter	Key.enter	n/a
104.06	9.3985	208120	prompt	n/a	ring colin stake like\n
105.1615	0.105	210323	keystroke_r	r	n/a
105.3565	0.12	210713	keystroke_i	i	n/a
105.5365	0.15	211073	keystroke_n	n	n/a
105.7015	0.105	211403	keystroke_g	g	n/a
106.1965	0.12	212393	keystroke_Key.space	Key.space	n/a
106.4665	0.12	212933	keystroke_c	c	n/a
106.6165	0.1195	213233	keystroke_o	o	n/a
107.261	0.12	214522	keystroke_l	l	n/a
107.486	0.12	214972	keystroke_i	i	n/a
107.726	0.135	215452	keystroke_n	n	n/a
108.071	0.12	216142	keystroke_Key.space	Key.space	n/a
108.296	0.135	216592	keystroke_s	s	n/a
108.506	0.12	217012	keystroke_t	t	n/a
108.807	0.134	217614	keystroke_a	a	n/a
109.136	0.121	218272	keystroke_k	k	n/a
109.407	0.104	218814	keystroke_e	e	n/a
109.736	0.12	219472	keystroke_Key.space	Key.space	n/a
110.291	0.136	220582	keystroke_i	i	n/a
111.3415	0.09	222683	keystroke_Key.backspace	Key.backspace	n/a
111.6865	0.135	223373	keystroke_l	l	n/a
111.8515	0.105	223703	keystroke_i	i	n/a
112.1065	0.105	224213	keystroke_k	k	n/a
112.3015	0.09	224603	keystroke_e	e	n/a
113.367	0.09	226734	keystroke_Key.enter	Key.enter	n/a
113.463	10.3305	226926	prompt	n/a	homepage amplifier pioneer has\n
114.492	0.165	228984	keystroke_h	h	n/a
114.597	0.134	229194	keystroke_o	o	n/a
114.867	0.12	229734	keystroke_m	m	n/a
115.091	0.106	230182	keystroke_e	e	n/a
115.272	0.12	230544	keystroke_p	p	n/a
115.362	0.09	230724	keystroke_a	a	n/a
115.587	0.105	231174	keystroke_g	g	n/a
115.842	0.12	231684	keystroke_e	e	n/a
116.261	0.121	232522	keystroke_Key.space	Key.space	n/a
116.562	0.12	233124	keystroke_a	a	n/a
116.7565	0.075	233513	keystroke_m	m	n/a
116.9965	0.105	233993	keystroke_p	p	n/a
117.2365	0.15	234473	keystroke_l	l	n/a
117.4465	0.15	234893	keystroke_i	i	n/a
117.7165	0.105	235433	keystroke_f	f	n/a
117.9115	0.12	235823	keystroke_i	i	n/a
118.1215	0.225	236243	keystroke_e	e	n/a
118.3315	0.15	236663	keystroke_r	r	n/a
119.4115	0.135	238823	keystroke_Key.space	Key.space	n/a
119.6215	0.09	239243	keystroke_p	p	n/a
119.8315	0.09	239663	keystroke_i	i	n/a
120.0715	0.18	240143	keystroke_n	n	n/a
120.1915	0.135	240383	keystroke_o	o	n/a
120.4765	0.09	240953	keystroke_e	e	n/a
120.6715	0.12	241343	keystroke_e	e	n/a
120.7615	0.135	241523	keystroke_r	r	n/a
121.781	0.12	243562	keystroke_Key.space	Key.space	n/a
122.006	0.12	244012	keystroke_h	h	n/a
122.096	0.15	244192	keystroke_a	a	n/a
122.321	0.106	244642	keystroke_s	s	n/a
123.702	0.089	247404	keystroke_Key.enter	Key.enter	n/a
123.7985	9.055	247597	prompt	n/a	strongly strips i'm beside\n
124.557	0.135	249114	keystroke_s	s	n/a
124.827	0.105	249654	keystroke_t	t	n/a
125.066	0.091	250132	keystroke_r	r	n/a
125.172	0.269	250344	keystroke_o	o	n/a
125.322	0.164	250644	keystroke_n	n	n/a
125.487	0.104	250974	keystroke_g	g	n/a
125.682	0.09	251364	keystroke_l	l	n/a
125.921	0.121	251842	keystroke_y	y	n/a
126.251	0.135	252502	keystroke_Key.space	Key.space	n/a
126.612	0.15	253224	keystroke_s	s	n/a
126.897	0.105	253794	keystroke_t	t	n/a
127.211	0.106	254422	keystroke_r	r	n/a
127.571	0.166	255142	keystroke_i	i	n/a
127.662	0.15	255324	keystroke_p	p	n/a
127.932	0.134	255864	keystroke_s	s	n/a
128.517	0.12	257034	keystroke_Key.space	Key.space	n/a
128.712	0.12	257424	keystroke_i	i	n/a
129.387	0.135	258774	keystroke_'	'	n/a
129.716	0.106	259432	keystroke_m	m	n/a
130.632	0.134	261264	keystroke_Key.space	Key.space	n/a
130.827	0.09	261654	keystroke_b	b	n/a
131.007	0.09	262014	keystroke_e	e	n/a
131.187	0.135	262374	keystroke_s	s	n/a
131.337	0.15	262674	keystroke_i	i	n/a
131.472	0.09	262944	keystroke_d	d	n/a
131.682	0.075	263364	keystroke_e	e	n/a
132.762	0.09	265524	keystroke_Key.enter	Key.enter	n/a
132.8655	34.083	265731	prompt	n/a	cylinder managing organizations top\n
133.707	0.12	267414	keystroke_c	c	n/a
133.917	0.15	267834	keystroke_y	y	n/a
134.217	0.12	268434	keystroke_l	l	n/a
134.412	0.105	268824	keystroke_i	i	n/a
134.652	0.12	269304	keystroke_n	n	n/a
134.832	0.075	269664	keystroke_d	d	n/a
135.087	0.15	270174	keystroke_e	e	n/a
135.237	0.15	270474	keystroke_r	r	n/a
136.032	0.12	272064	keystroke_Key.space	Key.space	n/a
136.212	0.135	272424	keystroke_m	m	n/a
136.362	0.15	272724	keystroke_a	a	n/a
136.692	0.09	273384	keystroke_g	g	n/a
136.887	0.1045	273774	keystroke_a	a	n/a
137.052	0.12	274104	keystroke_n	n	n/a
137.307	0.1045	274614	keystroke_i	i	n/a
137.517	0.12	275034	keystroke_n	n	n/a
137.6515	0.0755	275303	keystroke_g	g	n/a
138.2665	0.12	276533	keystroke_Key.space	Key.space	n/a
138.6575	0.1645	277315	keystroke_o	o	n/a
138.897	0.105	277794	keystroke_r	r	n/a
139.137	0.105	278274	keystroke_g	g	n/a
139.377	0.105	278754	keystroke_a	a	n/a
139.527	0.18	279054	keystroke_n	n	n/a
139.647	0.135	279294	keystroke_i	i	n/a
139.767	0.15	279534	keystroke_z	z	n/a
140.037	0.135	280074	keystroke_a	a	n/a
140.337	0.105	280674	keystroke_t	t	n/a
140.427	0.15	280854	keystroke_i	i	n/a
140.532	0.135	281064	keystroke_o	o	n/a
140.787	0.134	281574	keystroke_n	n	n/a
141.012	0.105	282024	keystroke_s	s	n/a
143.43	0.072	286860	keystroke_Key.left	Key.left	n/a
143.592	0.09	287184	keystroke_Key.left	Key.left	n/a
143.787	0.09	287574	keystroke_Key.left	Key.left	n/a
144.012	0.075	288024	keystroke_Key.left	Key.left	n/a
144.207	0.09	288414	keystroke_Key.left	Key.left	n/a
144.432	0.075	288864	keystroke_Key.left	Key.left	n/a
144.627	0.089	289254	keystroke_Key.left	Key.left	n/a
144.837	0.0905	289674	keystroke_Key.left	Key.left	n/a
145.047	0.089	290094	keystroke_Key.left	Key.left	n/a
145.271	0.076	290542	keystroke_Key.left	Key.left	n/a
145.482	0.09	290964	keystroke_Key.left	Key.left	n/a
145.691	0.076	291382	keystroke_Key.left	Key.left	n/a
145.902	0.089	291804	keystroke_Key.left	Key.left	n/a
146.111	0.0905	292222	keystroke_Key.left	Key.left	n/a
146.322	0.0895	292644	keystroke_Key.left	Key.left	n/a
146.532	0.075	293064	keystroke_Key.left	Key.left	n/a
146.727	0.09	293454	keystroke_Key.left	Key.left	n/a
146.937	0.09	293874	keystroke_Key.left	Key.left	n/a
147.162	0.105	294324	keystroke_Key.left	Key.left	n/a
149.4455	0.041	298891	keystroke_Key.backspace	Key.backspace	n/a
150.5065	0.135	301013	keystroke_Key.right	Key.right	n/a
151.2865	0.165	302573	keystroke_Key.left	Key.left	n/a
153.0265	0.12	306053	keystroke_n	n	n/a
153.7025	0.164	307405	keystroke_Key.right	Key.right	n/a
154.0165	0.135	308033	keystroke_Key.right	Key.right	n/a
154.7665	0.135	309533	keystroke_Key.backspace	Key.backspace	n/a
155.5175	0.134	311035	keystroke_g	g	n/a
156.6865	0.135	313373	keystroke_Key.right	Key.right	n/a
156.9265	0.09	313853	keystroke_Key.right	Key.right	n/a
157.1515	0.075	314303	keystroke_Key.right	Key.right	n/a
157.3615	0.105	314723	keystroke_Key.right	Key.right	n/a
157.5865	0.09	315173	keystroke_Key.right	Key.right	n/a
157.7815	0.105	315563	keystroke_Key.right	Key.right	n/a
157.9915	0.105	315983	keystroke_Key.right	Key.right	n/a
158.2165	0.09	316433	keystroke_Key.right	Key.right	n/a
158.4115	0.09	316823	keystroke_Key.right	Key.right	n/a
158.6215	0.09	317243	keystroke_Key.right	Key.right	n/a
158.8315	0.09	317663	keystroke_Key.right	Key.right	n/a
159.0265	0.09	318053	keystroke_Key.right	Key.right	n/a
159.2225	0.104	318445	keystroke_Key.right	Key.right	n/a
159.4165	0.09	318833	keystroke_Key.right	Key.right	n/a
159.6115	0.105	319223	keystroke_Key.right	Key.right	n/a
159.8665	0.12	319733	keystroke_Key.right	Key.right	n/a
160.2275	0.12	320455	keystroke_s	s	n/a
160.7225	0.119	321445	keystroke_Key.right	Key.right	n/a
161.9365	0.075	323873	keystroke_Key.backspace	Key.backspace	n/a
162.7475	0.134	325495	keystroke_Key.right	Key.right	n/a
163.3465	0.136	326693	keystroke_Key.space	Key.space	n/a
163.9025	0.314	327805	keystroke_s	s	n/a
164.5775	0.09	329155	keystroke_t	t	n/a
165.2365	0.105	330473	keystroke_Key.backspace	Key.backspace	n/a
165.4475	0.059	330895	keystroke_Key.backspace	Key.backspace	n/a
165.6575	0.09	331315	keystroke_t	t	n/a
165.8975	0.12	331795	keystroke_o	o	n/a
166.0925	0.09	332185	keystroke_p	p	n/a
166.902	0.045	333804	keystroke_Key.enter	Key.enter	n/a
166.953	20.1415	333906	prompt	n/a	ctrl paragraphs tools holy\n
168.057	0.105	336114	keystroke_c	c	n/a
168.327	0.12	336654	keystroke_r	r	n/a
168.612	0.105	337224	keystroke_t	t	n/a
168.792	0.075	337584	keystroke_l	l	n/a
169.662	0.135	339324	keystroke_Key.space	Key.space	n/a
170.2475	0.12	340495	keystroke_p	p	n/a
170.4275	0.1345	340855	keystroke_a	a	n/a
170.622	0.1655	341244	keystroke_r	r	n/a
170.8025	0.09	341605	keystroke_a	a	n/a
171.0425	0.105	342085	keystroke_g	g	n/a
171.3125	0.105	342625	keystroke_r	r	n/a
171.5525	0.135	343105	keystroke_a	a	n/a
171.9575	0.12	343915	keystroke_p	p	n/a
172.1525	0.12	344305	keystroke_h	h	n/a
172.3325	0.09	344665	keystroke_s	s	n/a
175.92	0.072	351840	keystroke_Key.left	Key.left	n/a
176.097	0.075	352194	keystroke_Key.left	Key.left	n/a
176.307	0.09	352614	keystroke_Key.left	Key.left	n/a
176.502	0.075	353004	keystroke_Key.left	Key.left	n/a
176.6975	0.0895	353395	keystroke_Key.left	Key.left	n/a
176.892	0.09	353784	keystroke_Key.left	Key.left	n/a
177.087	0.09	354174	keystroke_Key.left	Key.left	n/a
177.297	0.105	354594	keystroke_Key.left	Key.left	n/a
177.492	0.09	354984	keystroke_Key.left	Key.left	n/a
177.687	0.105	355374	keystroke_Key.left	Key.left	n/a
177.867	0.135	355734	keystroke_Key.left	Key.left	n/a
178.092	0.105	356184	keystroke_Key.left	Key.left	n/a
178.302	0.135	356604	keystroke_Key.left	Key.left	n/a
178.872	0.09	357744	keystroke_Key.backspace	Key.backspace	n/a
179.397	0.151	358794	keystroke_Key.right	Key.right	n/a
179.698	0.074	359396	keystroke_r	r	n/a
180.252	0.075	360504	keystroke_Key.right	Key.right	n/a
180.447	0.135	360894	keystroke_Key.right	Key.right	n/a
180.927	0.12	361854	keystroke_Key.right	Key.right	n/a
181.137	0.12	362274	keystroke_Key.right	Key.right	n/a
181.347	0.105	362694	keystroke_Key.right	Key.right	n/a
181.557	0.09	363114	keystroke_Key.right	Key.right	n/a
181.752	0.12	363504	keystroke_Key.right	Key.right	n/a
181.977	0.09	363954	keystroke_Key.right	Key.right	n/a
182.187	0.09	364374	keystroke_Key.right	Key.right	n/a
182.397	0.09	364794	keystroke_Key.right	Key.right	n/a
182.622	0.105	365244	keystroke_Key.right	Key.right	n/a
182.847	0.09	365694	keystroke_Key.right	Key.right	n/a
183.612	0.15	367224	keystroke_Key.space	Key.space	n/a
184.107	0.12	368214	keystroke_t	t	n/a
184.317	0.12	368634	keystroke_o	o	n/a
184.497	0.135	368994	keystroke_o	o	n/a
184.7375	0.1495	369475	keystroke_l	l	n/a
184.962	0.135	369924	keystroke_s	s	n/a
185.232	0.12	370464	keystroke_Key.space	Key.space	n/a
185.622	0.106	371244	keystroke_h	h	n/a
185.802	0.105	371604	keystroke_o	o	n/a
186.042	0.106	372084	keystroke_l	l	n/a
186.403	0.014	372806	keystroke_y	y	n/a
187.017	0.075	374034	keystroke_Key.enter	Key.enter	n/a
187.111	23.4735	374222	prompt	n/a	stop accountability chapter saskatchewan\n
187.963	0.179	375926	keystroke_s	s	n/a
188.202	0.15	376404	keystroke_t	t	n/a
188.547	0.105	377094	keystroke_o	o	n/a
188.712	0.105	377424	keystroke_p	p	n/a
189.192	0.135	378384	keystroke_Key.space	Key.space	n/a
189.672	0.135	379344	keystroke_a	a	n/a
190.048	0.119	380096	keystroke_c	c	n/a
191.157	0.09	382314	keystroke_c	c	n/a
191.412	0.136	382824	keystroke_o	o	n/a
191.682	0.12	383364	keystroke_u	u	n/a
191.982	0.106	383964	keystroke_n	n	n/a
193.122	0.106	386244	keystroke_t	t	n/a
193.363	0.135	386726	keystroke_a	a	n/a
193.572	0.12	387144	keystroke_b	b	n/a
194.098	0.09	388196	keystroke_i	i	n/a
194.308	0.135	388616	keystroke_l	l	n/a
194.502	0.121	389004	keystroke_i	i	n/a
194.698	0.089	389396	keystroke_t	t	n/a
194.877	0.09	389754	keystroke_y	y	n/a
195.027	0.105	390054	keystroke_Key.space	Key.space	n/a
195.343	0.15	390686	keystroke_c	c	n/a
195.538	0.12	391076	keystroke_h	h	n/a
195.703	0.164	391406	keystroke_a	a	n/a
195.913	0.105	391826	keystroke_p	p	n/a
196.138	0.135	392276	keystroke_t	t	n/a
196.378	0.15	392756	keystroke_e	e	n/a
196.512	0.1355	393024	keystroke_r	r	n/a
197.0675	0.135	394135	keystroke_Key.space	Key.space	n/a
197.6525	0.135	395305	keystroke_s	s	n/a
199.2725	0.195	398545	keystroke_a	a	n/a
199.5425	0.09	399085	keystroke_s	s	n/a
199.7675	0.06	399535	keystroke_s	s	n/a
200.3825	0.12	400765	keystroke_Key.backspace	Key.backspace	n/a
201.208	0.105	402416	keystroke_k	k	n/a
201.568	0.135	403136	keystroke_a	a	n/a
202.543	0.12	405086	keystroke_Key.backspace	Key.backspace	n/a
203.2475	0.165	406495	keystroke_a	a	n/a
203.8025	0.135	407605	keystroke_t	t	n/a
204.1925	0.09	408385	keystroke_c	c	n/a
204.5075	0.09	409015	keystroke_h	h	n/a
204.823	0.12	409646	keystroke_e	e	n/a
205.063	0.105	410126	keystroke_w	w	n/a
205.333	0.12	410666	keystroke_a	a	n/a
205.618	0.104	411236	keystroke_n	n	n/a
210.57	0.012	421140	keystroke_Key.enter	Key.enter	n/a
210.5905	9.429	421181	prompt	n/a	treasurer practices iowa codes\n
211.527	0.12	423054	keystroke_t	t	n/a
211.782	0.135	423564	keystroke_r	r	n/a
211.977	0.15	423954	keystroke_e	e	n/a
212.142	0.12	424284	keystroke_a	a	n/a
212.622	0.15	425244	keystroke_s	s	n/a
212.907	0.135	425814	keystroke_u	u	n/a
213.687	0.135	427374	keystroke_r	r	n/a
213.912	0.105	427824	keystroke_e	e	n/a
214.182	0.12	428364	keystroke_Key.space	Key.space	n/a
214.452	0.075	428904	keystroke_p	p	n/a
214.573	0.104	429146	keystroke_r	r	n/a
214.752	0.12	429504	keystroke_a	a	n/a
215.007	0.075	430014	keystroke_c	c	n/a
215.262	0.12	430524	keystroke_t	t	n/a
215.487	0.09	430974	keystroke_i	i	n/a
215.667	0.09	431334	keystroke_c	c	n/a
215.892	0.12	431784	keystroke_e	e	n/a
216.117	0.105	432234	keystroke_s	s	n/a
216.732	0.135	433464	keystroke_Key.space	Key.space	n/a
217.6175	0.195	435235	keystroke_i	i	n/a
217.7525	0.15	435505	keystroke_o	o	n/a
217.9775	0.12	435955	keystroke_w	w	n/a
218.2325	0.12	436465	keystroke_a	a	n/a
218.6825	0.135	437365	keystroke_Key.space	Key.space	n/a
218.9235	0.104	437847	keystroke_c	c	n/a
219.0575	0.165	438115	keystroke_o	o	n/a
219.2235	0.089	438447	keystroke_d	d	n/a
219.4475	0.12	438895	keystroke_e	e	n/a
219.6875	0.09	439375	keystroke_s	s	n/a
219.9425	0.075	439885	keystroke_Key.enter	Key.enter	n/a
220.0245	13.091	440049	prompt	n/a	prominent conferences therapy virtually\n
220.7235	0.104	441447	keystroke_p	p	n/a
220.8725	0.151	441745	keystroke_r	r	n/a
220.9925	0.12	441985	keystroke_o	o	n/a
221.2625	0.06	442525	keystroke_m	m	n/a
221.4275	0.12	442855	keystroke_i	i	n/a
221.6525	0.135	443305	keystroke_n	n	n/a
221.8325	0.15	443665	keystroke_e	e	n/a
221.9525	0.135	443905	keystroke_n	n	n/a
222.1175	0.09	444235	keystroke_t	t	n/a
222.8975	0.12	445795	keystroke_Key.space	Key.space	n/a
223.4525	0.105	446905	keystroke_c	c	n/a
223.5725	0.195	447145	keystroke_o	o	n/a
223.6925	0.135	447385	keystroke_n	n	n/a
224.0535	0.119	448107	keystroke_f	f	n/a
224.2475	0.135	448495	keystroke_e	e	n/a
224.4125	0.15	448825	keystroke_r	r	n/a
224.5475	0.135	449095	keystroke_e	e	n/a
224.6975	0.135	449395	keystroke_n	n	n/a
225.4775	0.135	450955	keystroke_c	c	n/a
225.9875	0.166	451975	keystroke_e	e	n/a
226.1075	0.106	452215	keystroke_s	s	n/a
226.7975	0.135	453595	keystroke_Key.space	Key.space	n/a
227.2935	0.105	454587	keystroke_t	t	n/a
227.3985	0.104	454797	keystroke_h	h	n/a
227.5325	0.15	455065	keystroke_e	e	n/a
228.3575	0.12	456715	keystroke_r	r	n/a
228.5525	0.135	457105	keystroke_a	a	n/a
228.7925	0.135	457585	keystroke_p	p	n/a
228.9575	0.12	457915	keystroke_y	y	n/a
229.7525	0.135	459505	keystroke_Key.space	Key.space	n/a
230.4575	0.12	460915	keystroke_v	v	n/a
230.6825	0.1205	461365	keystroke_i	i	n/a
230.848	0.12	461696	keystroke_r	r	n/a
231.418	0.12	462836	keystroke_t	t	n/a
231.568	0.135	463136	keystroke_u	u	n/a
231.838	0.135	463676	keystroke_a	a	n/a
232.078	0.075	464156	keystroke_l	l	n/a
232.243	0.105	464486	keystroke_l	l	n/a
232.483	0.12	464966	keystroke_y	y	n/a
233.0075	0.105	466015	keystroke_Key.enter	Key.enter	n/a
233.1205	11.1105	466241	prompt	n/a	surface proteins corresponding token\n
233.9675	0.121	467935	keystroke_s	s	n/a
234.3875	0.135	468775	keystroke_u	u	n/a
234.958	0.105	469916	keystroke_r	r	n/a
235.243	0.075	470486	keystroke_f	f	n/a
235.423	0.105	470846	keystroke_a	a	n/a
235.663	0.135	471326	keystroke_c	c	n/a
235.873	0.12	471746	keystroke_e	e	n/a
236.158	0.15	472316	keystroke_Key.space	Key.space	n/a
236.593	0.105	473186	keystroke_p	p	n/a
236.803	0.09	473606	keystroke_r	r	n/a
236.953	0.135	473906	keystroke_o	o	n/a
237.718	0.12	475436	keystroke_t	t	n/a
238.453	0.105	476906	keystroke_e	e	n/a
238.603	0.21	477206	keystroke_i	i	n/a
238.693	0.15	477386	keystroke_n	n	n/a
238.844	0.134	477688	keystroke_s	s	n/a
239.353	0.105	478706	keystroke_Key.space	Key.space	n/a
239.743	0.09	479486	keystroke_c	c	n/a
239.908	0.105	479816	keystroke_o	o	n/a
240.178	0.09	480356	keystroke_r	r	n/a
240.388	0.15	480776	keystroke_r	r	n/a
240.493	0.18	480986	keystroke_e	e	n/a
240.703	0.12	481406	keystroke_s	s	n/a
241.003	0.105	482006	keystroke_p	p	n/a
241.213	0.165	482426	keystroke_o	o	n/a
241.423	0.15	482846	keystroke_n	n	n/a
241.753	0.12	483506	keystroke_d	d	n/a
241.918	0.18	483836	keystroke_i	i	n/a
242.023	0.15	484046	keystroke_n	n	n/a
242.158	0.09	484316	keystroke_g	g	n/a
242.473	0.15	484946	keystroke_Key.space	Key.space	n/a
242.758	0.09	485516	keystroke_t	t	n/a
242.908	0.09	485816	keystroke_o	o	n/a
243.103	0.12	486206	keystroke_k	k	n/a
243.238	0.09	486476	keystroke_e	e	n/a
243.388	0.091	486776	keystroke_n	n	n/a
244.153	0.075	488306	keystroke_Key.enter	Key.enter	n/a
244.2355	12.819	488471	prompt	n/a	celebrity handed junior sensor\n
244.963	0.105	489926	keystroke_c	c	n/a
245.219	0.074	490438	keystroke_e	e	n/a
245.353	0.135	490706	keystroke_l	l	n/a
245.518	0.12	491036	keystroke_e	e	n/a
245.773	0.105	491546	keystroke_b	b	n/a
245.938	0.135	491876	keystroke_r	r	n/a
246.088	0.105	492176	keystroke_i	i	n/a
246.568	0.09	493136	keystroke_t	t	n/a
246.703	0.105	493406	keystroke_y	y	n/a
247.498	0.15	494996	keystroke_Key.space	Key.space	n/a
247.723	0.105	495446	keystroke_h	h	n/a
247.844	0.134	495688	keystroke_a	a	n/a
247.979	0.135	495958	keystroke_n	n	n/a
248.143	0.075	496286	keystroke_d	d	n/a
248.353	0.075	496706	keystroke_e	e	n/a
248.6075	0.12	497215	keystroke_d	d	n/a
249.658	0.1195	499316	keystroke_Key.space	Key.space	n/a
250.363	0.1795	500726	keystroke_u	u	n/a
251.0075	0.135	502015	keystroke_m	m	n/a
251.8925	0.075	503785	keystroke_Key.backspace	Key.backspace	n/a
252.1025	0.09	504205	keystroke_Key.backspace	Key.backspace	n/a
252.6725	0.091	505345	keystroke_j	j	n/a
252.8075	0.136	505615	keystroke_u	u	n/a
253.7525	0.136	507505	keystroke_n	n	n/a
253.9035	0.149	507807	keystroke_i	i	n/a
254.0075	0.15	508015	keystroke_o	o	n/a
254.1875	0.075	508375	keystroke_r	r	n/a
255.1775	0.12	510355	keystroke_Key.space	Key.space	n/a
255.4025	0.12	510805	keystroke_s	s	n/a
255.5975	0.1205	511195	keystroke_e	e	n/a
255.733	0.135	511466	keystroke_n	n	n/a
255.883	0.15	511766	keystroke_s	s	n/a
256.078	0.135	512156	keystroke_o	o	n/a
256.198	0.09	512396	keystroke_r	r	n/a
256.963	0.09	513926	keystroke_Key.enter	Key.enter	n/a
257.0605	12.355	514121	prompt	n/a	saves revision server characterization\n
257.818	0.075	515636	keystroke_s	s	n/a
258.013	0.135	516026	keystroke_a	a	n/a
258.508	0.105	517016	keystroke_v	v	n/a
258.733	0.12	517466	keystroke_e	e	n/a
258.928	0.135	517856	keystroke_s	s	n/a
259.348	0.1045	518696	keystroke_Key.space	Key.space	n/a
260.0535	0.119	520107	keystroke_r	r	n/a
260.1125	0.135	520225	keystroke_e	e	n/a
260.7125	0.12	521425	keystroke_v	v	n/a
260.8775	0.135	521755	keystroke_i	i	n/a
261.1325	0.075	522265	keystroke_s	s	n/a
261.2525	0.166	522505	keystroke_i	i	n/a
261.3725	0.225	522745	keystroke_o	o	n/a
261.5675	0.09	523135	keystroke_n	n	n/a
262.1525	0.075	524305	keystroke_Key.space	Key.space	n/a
262.3935	0.105	524787	keystroke_s	s	n/a
262.8275	0.121	525655	keystroke_e	e	n/a
262.9335	0.135	525867	keystroke_r	r	n/a
263.4885	0.12	526977	keystroke_v	v	n/a
263.8785	0.15	527757	keystroke_e	e	n/a
263.9835	0.12	527967	keystroke_r	r	n/a
264.8975	0.105	529795	keystroke_Key.space	Key.space	n/a
265.1535	0.105	530307	keystroke_c	c	n/a
265.2885	0.135	530577	keystroke_h	h	n/a
265.4385	0.15	530877	keystroke_a	a	n/a
265.6935	0.09	531387	keystroke_r	r	n/a
265.8285	0.15	531657	keystroke_a	a	n/a
266.1135	0.09	532227	keystroke_c	c	n/a
266.3835	0.09	532767	keystroke_t	t	n/a
266.6385	0.135	533277	keystroke_e	e	n/a
266.9085	0.12	533817	keystroke_r	r	n/a
267.0435	0.15	534087	keystroke_i	i	n/a
267.2235	0.15	534447	keystroke_z	z	n/a
267.4635	0.15	534927	keystroke_a	a	n/a
267.7485	0.135	535497	keystroke_t	t	n/a
267.8385	0.18	535677	keystroke_i	i	n/a
267.9735	0.255	535947	keystroke_o	o	n/a
268.1835	0.12	536367	keystroke_n	n	n/a
269.3085	0.105	538617	keystroke_Key.enter	Key.enter	n/a
269.424	15.9365	538848	prompt	n/a	howdy geological fotos counseling\n
270.1785	0.165	540357	keystroke_h	h	n/a
270.2685	0.165	540537	keystroke_o	o	n/a
270.4485	0.12	540897	keystroke_w	w	n/a
270.6885	0.105	541377	keystroke_d	d	n/a
270.8385	0.135	541677	keystroke_y	y	n/a
271.8435	0.164	543687	keystroke_Key.space	Key.space	n/a
273.1185	0.12	546237	keystroke_g	g	n/a
273.8685	0.12	547737	keystroke_e	e	n/a
274.0635	0.135	548127	keystroke_o	o	n/a
274.6185	0.09	549237	keystroke_l	l	n/a
274.7985	0.135	549597	keystroke_o	o	n/a
275.0535	0.105	550107	keystroke_g	g	n/a
275.1735	0.105	550347	keystroke_i	i	n/a
275.4735	0.12	550947	keystroke_c	c	n/a
275.7135	0.09	551427	keystroke_a	a	n/a
275.8185	0.09	551637	keystroke_l	l	n/a
277.3485	0.135	554697	keystroke_Key.space	Key.space	n/a
277.7685	0.15	555537	keystroke_f	f	n/a
277.9035	0.135	555807	keystroke_o	o	n/a
278.0535	0.09	556107	keystroke_t	t	n/a
278.1585	0.105	556317	keystroke_o	o	n/a
278.2635	0.135	556527	keystroke_s	s	n/a
279.0885	0.105	558177	keystroke_Key.space	Key.space	n/a
279.4935	0.135	558987	keystroke_c	c	n/a
279.7785	0.165	559557	keystroke_o	o	n/a
279.8835	0.12	559767	keystroke_u	u	n/a
280.2435	0.12	560487	keystroke_s	s	n/a
280.4085	0.135	560817	keystroke_e	e	n/a
280.5735	0.15	561147	keystroke_l	l	n/a
280.7835	0.255	561567	keystroke_i	i	n/a
280.9485	0.18	561897	keystroke_n	n	n/a
281.0985	0.105	562197	keystroke_g	g	n/a
285.332	0.026	570664	keystroke_Key.enter	Key.enter	n/a
285.3655	10.0295	570731	prompt	n/a	shape referred ordering stuart\n
286.1085	0.135	572217	keystroke_s	s	n/a
286.2885	0.105	572577	keystroke_h	h	n/a
286.4085	0.15	572817	keystroke_a	a	n/a
286.6185	0.12	573237	keystroke_p	p	n/a
286.7085	0.12	573417	keystroke_e	e	n/a
287.2635	0.15	574527	keystroke_Key.space	Key.space	n/a
287.5935	0.165	575187	keystroke_r	r	n/a
287.6985	0.135	575397	keystroke_e	e	n/a
287.9535	0.105	575907	keystroke_f	f	n/a
288.8985	0.105	577797	keystroke_e	e	n/a
289.1385	0.075	578277	keystroke_r	r	n/a
289.3035	0.15	578607	keystroke_r	r	n/a
289.4085	0.12	578817	keystroke_e	e	n/a
289.6185	0.105	579237	keystroke_d	d	n/a
290.3385	0.12	580677	keystroke_Key.space	Key.space	n/a
290.5935	0.1505	581187	keystroke_o	o	n/a
290.714	0.089	581428	keystroke_r	r	n/a
290.938	0.105	581876	keystroke_d	d	n/a
291.643	0.166	583286	keystroke_e	e	n/a
291.794	0.119	583588	keystroke_r	r	n/a
291.929	0.224	583858	keystroke_i	i	n/a
292.064	0.135	584128	keystroke_n	n	n/a
292.213	0.105	584426	keystroke_g	g	n/a
292.453	0.105	584906	keystroke_Key.space	Key.space	n/a
292.8885	0.12	585777	keystroke_s	s	n/a
293.5035	0.09	587007	keystroke_t	t	n/a
293.6835	0.12	587367	keystroke_u	u	n/a
293.8185	0.195	587637	keystroke_a	a	n/a
293.9535	0.105	587907	keystroke_r	r	n/a
294.1635	0.09	588327	keystroke_t	t	n/a
295.303	0.09	590606	keystroke_Key.enter	Key.enter	n/a
295.3995	12.5655	590799	prompt	n/a	senate specifics gene consolidated\n
296.204	0.15	592408	keystroke_s	s	n/a
296.489	0.104	592978	keystroke_e	e	n/a
296.7285	0.105	593457	keystroke_n	n	n/a
296.8185	0.12	593637	keystroke_a	a	n/a
297.0585	0.135	594117	keystroke_t	t	n/a
297.1485	0.12	594297	keystroke_e	e	n/a
297.4335	0.12	594867	keystroke_Key.space	Key.space	n/a
298.1685	0.12	596337	keystroke_s	s	n/a
298.4985	0.105	596997	keystroke_p	p	n/a
298.6935	0.15	597387	keystroke_e	e	n/a
299.5935	0.12	599187	keystroke_c	c	n/a
299.7435	0.12	599487	keystroke_i	i	n/a
299.8785	0.135	599757	keystroke_f	f	n/a
300.0435	0.105	600087	keystroke_i	i	n/a
300.3285	0.09	600657	keystroke_c	c	n/a
300.5535	0.12	601107	keystroke_s	s	n/a
301.0635	0.18	602127	keystroke_Key.space	Key.space	n/a
301.4085	0.075	602817	keystroke_g	g	n/a
301.6035	0.09	603207	keystroke_e	e	n/a
301.7685	0.135	603537	keystroke_n	n	n/a
301.8885	0.075	603777	keystroke_e	e	n/a
302.3385	0.105	604677	keystroke_Key.space	Key.space	n/a
302.6535	0.09	605307	keystroke_c	c	n/a
302.9985	0.09	605997	keystroke_o	o	n/a
303.0135	0.121	606027	keystroke_n	n	n/a
303.3735	0.15	606747	keystroke_s	s	n/a
303.4935	0.135	606987	keystroke_o	o	n/a
303.7485	0.12	607497	keystroke_l	l	n/a
303.9285	0.135	607857	keystroke_i	i	n/a
304.0785	0.075	608157	keystroke_d	d	n/a
304.2585	0.12	608517	keystroke_a	a	n/a
304.4835	0.165	608967	keystroke_t	t	n/a
304.6335	0.105	609267	keystroke_e	e	n/a
304.8435	0.09	609687	keystroke_d	d	n/a
307.9365	0.027	615873	keystroke_Key.enter	Key.enter	n/a
307.97	9.956	615940	prompt	n/a	body continually varying daughter\n
308.6535	0.195	617307	keystroke_b	b	n/a
308.8035	0.135	617607	keystroke_o	o	n/a
308.9535	0.12	617907	keystroke_d	d	n/a
309.1035	0.12	618207	keystroke_y	y	n/a
309.3435	0.135	618687	keystroke_Key.space	Key.space	n/a
309.7035	0.09	619407	keystroke_c	c	n/a
309.8685	0.225	619737	keystroke_o	o	n/a
310.0335	0.105	620067	keystroke_n	n	n/a
310.3485	0.105	620697	keystroke_t	t	n/a
310.4835	0.12	620967	keystroke_i	i	n/a
311.5645	0.134	623129	keystroke_n	n	n/a
311.8785	0.135	623757	keystroke_u	u	n/a
312.089	0.12	624178	keystroke_a	a	n/a
312.194	0.12	624388	keystroke_l	l	n/a
312.374	0.09	624748	keystroke_l	l	n/a
312.629	0.09	625258	keystroke_y	y	n/a
313.589	0.105	627178	keystroke_Key.space	Key.space	n/a
314.234	0.12	628468	keystroke_v	v	n/a
314.4585	0.1355	628917	keystroke_a	a	n/a
314.669	0.165	629338	keystroke_r	r	n/a
314.969	0.1195	629938	keystroke_y	y	n/a
315.254	0.2545	630508	keystroke_i	i	n/a
315.389	0.1795	630778	keystroke_n	n	n/a
315.5535	0.1055	631107	keystroke_g	g	n/a
316.169	0.135	632338	keystroke_Key.space	Key.space	n/a
316.394	0.135	632788	keystroke_d	d	n/a
316.6185	0.1355	633237	keystroke_a	a	n/a
316.739	0.134	633478	keystroke_u	u	n/a
316.889	0.12	633778	keystroke_g	g	n/a
317.039	0.135	634078	keystroke_h	h	n/a
317.234	0.075	634468	keystroke_t	t	n/a
317.429	0.12	634858	keystroke_e	e	n/a
317.519	0.12	635038	keystroke_r	r	n/a
317.834	0.09	635668	keystroke_Key.enter	Key.enter	n/a
317.9305	11.1855	635861	prompt	n/a	system palestine diego facilities\n
318.659	0.12	637318	keystroke_s	s	n/a
318.824	0.135	637648	keystroke_y	y	n/a
318.943	0.106	637886	keystroke_s	s	n/a
319.1985	0.1045	638397	keystroke_t	t	n/a
319.349	0.135	638698	keystroke_e	e	n/a
319.4535	0.1505	638907	keystroke_m	m	n/a
320.338	0.1205	640676	keystroke_Key.space	Key.space	n/a
320.668	0.1205	641336	keystroke_p	p	n/a
320.9685	0.18	641937	keystroke_a	a	n/a
321.3285	0.135	642657	keystroke_l	l	n/a
321.4185	0.12	642837	keystroke_e	e	n/a
321.7485	0.18	643497	keystroke_s	s	n/a
322.0635	0.106	644127	keystroke_t	t	n/a
322.1835	0.135	644367	keystroke_i	i	n/a
322.3335	0.15	644667	keystroke_n	n	n/a
322.4985	0.09	644997	keystroke_e	e	n/a
323.024	0.12	646048	keystroke_Key.space	Key.space	n/a
323.549	0.12	647098	keystroke_d	d	n/a
323.684	0.15	647368	keystroke_i	i	n/a
323.954	0.12	647908	keystroke_e	e	n/a
324.329	0.105	648658	keystroke_g	g	n/a
324.494	0.12	648988	keystroke_o	o	n/a
326.4435	0.15	652887	keystroke_Key.space	Key.space	n/a
326.788	0.106	653576	keystroke_f	f	n/a
326.969	0.105	653938	keystroke_a	a	n/a
327.239	0.12	654478	keystroke_c	c	n/a
327.374	0.105	654748	keystroke_i	i	n/a
327.599	0.18	655198	keystroke_l	l	n/a
327.719	0.15	655438	keystroke_i	i	n/a
327.959	0.09	655918	keystroke_t	t	n/a
328.169	0.15	656338	keystroke_i	i	n/a
328.274	0.165	656548	keystroke_e	e	n/a
328.394	0.135	656788	keystroke_s	s	n/a
329.054	0.06	658108	keystroke_Key.enter	Key.enter	n/a
329.1205	8.455	658241	prompt	n/a	stayed lenders lyric witness\n
329.774	0.105	659548	keystroke_s	s	n/a
329.954	0.09	659908	keystroke_t	t	n/a
330.134	0.255	660268	keystroke_a	a	n/a
330.224	0.105	660448	keystroke_y	y	n/a
330.689	0.09	661378	keystroke_e	e	n/a
330.899	0.09	661798	keystroke_d	d	n/a
331.244	0.12	662488	keystroke_Key.space	Key.space	n/a
331.469	0.135	662938	keystroke_l	l	n/a
331.589	0.12	663178	keystroke_e	e	n/a
331.739	0.15	663478	keystroke_n	n	n/a
331.874	0.075	663748	keystroke_d	d	n/a
332.054	0.21	664108	keystroke_e	e	n/a
332.174	0.15	664348	keystroke_r	r	n/a
332.339	0.135	664678	keystroke_s	s	n/a
332.714	0.135	665428	keystroke_Key.space	Key.space	n/a
333.149	0.105	666298	keystroke_l	l	n/a
333.359	0.15	666718	keystroke_y	y	n/a
333.974	0.165	667948	keystroke_r	r	n/a
334.484	0.15	668968	keystroke_i	i	n/a
334.619	0.105	669238	keystroke_c	c	n/a
334.784	0.166	669568	keystroke_s	s	n/a
335.189	0.105	670378	keystroke_Key.space	Key.space	n/a
335.834	0.15	671668	keystroke_w	w	n/a
335.999	0.105	671998	keystroke_i	i	n/a
336.164	0.12	672328	keystroke_t	t	n/a
336.494	0.135	672988	keystroke_n	n	n/a
336.539	0.18	673078	keystroke_e	e	n/a
336.659	0.135	673318	keystroke_s	s	n/a
336.869	0.105	673738	keystroke_s	s	n/a
337.484	0.09	674968	keystroke_Key.enter	Key.enter	n/a
337.5795	15.3725	675159	prompt	n/a	hometown fathers beautiful combo\n
338.444	0.135	676888	keystroke_h	h	n/a
338.519	0.135	677038	keystroke_o	o	n/a
338.759	0.15	677518	keystroke_m	m	n/a
338.849	0.135	677698	keystroke_e	e	n/a
339.359	0.09	678718	keystroke_t	t	n/a
339.45	0.104	678900	keystroke_o	o	n/a
339.599	0.12	679198	keystroke_w	w	n/a
339.689	0.09	679378	keystroke_n	n	n/a
340.709	0.105	681418	keystroke_f	f	n/a
340.844	0.135	681688	keystroke_a	a	n/a
341.114	0.09	682228	keystroke_t	t	n/a
341.219	0.105	682438	keystroke_h	h	n/a
341.279	0.18	682558	keystroke_e	e	n/a
341.384	0.15	682768	keystroke_r	r	n/a
341.504	0.12	683008	keystroke_s	s	n/a
343.364	0.105	686728	keystroke_Key.left	Key.left	n/a
343.589	0.075	687178	keystroke_Key.left	Key.left	n/a
343.784	0.075	687568	keystroke_Key.left	Key.left	n/a
343.964	0.0905	687928	keystroke_Key.left	Key.left	n/a
344.1295	0.089	688259	keystroke_Key.left	Key.left	n/a
344.3235	0.106	688647	keystroke_Key.left	Key.left	n/a
344.5945	0.12	689189	keystroke_Key.left	Key.left	n/a
344.8795	0.075	689759	keystroke_Key.space	Key.space	n/a
345.2845	0.105	690569	keystroke_Key.right	Key.right	n/a
345.5095	0.089	691019	keystroke_Key.right	Key.right	n/a
345.7045	0.075	691409	keystroke_Key.right	Key.right	n/a
345.8985	0.091	691797	keystroke_Key.right	Key.right	n/a
346.1995	0.015	692399	keystroke_Key.right	Key.right	n/a
346.2895	0.12	692579	keystroke_Key.right	Key.right	n/a
346.5145	0.105	693029	keystroke_Key.right	Key.right	n/a
347.5635	0.165	695127	keystroke_Key.space	Key.space	n/a
347.9535	0.105	695907	keystroke_b	b	n/a
348.0135	0.135	696027	keystroke_e	e	n/a
348.1635	0.18	696327	keystroke_a	a	n/a
349.559	0.09	699118	keystroke_u	u	n/a
349.814	0.075	699628	keystroke_t	t	n/a
349.904	0.135	699808	keystroke_i	i	n/a
350.099	0.105	700198	keystroke_f	f	n/a
350.174	0.09	700348	keystroke_u	u	n/a
350.354	0.105	700708	keystroke_l	l	n/a
350.9985	0.12	701997	keystroke_Key.space	Key.space	n/a
351.2235	0.106	702447	keystroke_c	c	n/a
351.3435	0.12	702687	keystroke_o	o	n/a
351.8845	0.089	703769	keystroke_m	m	n/a
352.3035	0.166	704607	keystroke_b	b	n/a
352.4095	0.09	704819	keystroke_o	o	n/a
352.873	0.075	705746	keystroke_Key.enter	Key.enter	n/a
352.9565	13.464	705913	prompt	n/a	secondary treat superb wound\n
353.638	0.196	707276	keystroke_s	s	n/a
353.819	0.12	707638	keystroke_e	e	n/a
354.209	0.09	708418	keystroke_c	c	n/a
354.344	0.18	708688	keystroke_o	o	n/a
354.434	0.12	708868	keystroke_n	n	n/a
354.614	0.1045	709228	keystroke_d	d	n/a
354.8685	0.18	709737	keystroke_a	a	n/a
355.0185	0.12	710037	keystroke_r	r	n/a
355.1845	0.089	710369	keystroke_y	y	n/a
356.1435	0.105	712287	keystroke_Key.space	Key.space	n/a
356.4295	0.104	712859	keystroke_t	t	n/a
356.744	0.105	713488	keystroke_r	r	n/a
356.759	0.21	713518	keystroke_e	e	n/a
356.954	0.135	713908	keystroke_a	a	n/a
357.119	0.105	714238	keystroke_t	t	n/a
358.319	0.135	716638	keystroke_s	s	n/a
358.499	0.12	716998	keystroke_u	u	n/a
358.724	0.12	717448	keystroke_p	p	n/a
358.979	0.105	717958	keystroke_e	e	n/a
359.039	0.18	718078	keystroke_r	r	n/a
359.324	0.105	718648	keystroke_b	b	n/a
360.254	0.12	720508	keystroke_Key.left	Key.left	n/a
360.479	0.075	720958	keystroke_Key.left	Key.left	n/a
360.659	0.075	721318	keystroke_Key.left	Key.left	n/a
360.839	0.105	721678	keystroke_Key.left	Key.left	n/a
361.034	0.12	722068	keystroke_Key.left	Key.left	n/a
361.919	0.105	723838	keystroke_Key.left	Key.left	n/a
362.159	0.075	724318	keystroke_Key.space	Key.space	n/a
362.669	0.075	725338	keystroke_Key.right	Key.right	n/a
362.879	0.075	725758	keystroke_Key.right	Key.right	n/a
363.074	0.09	726148	keystroke_Key.right	Key.right	n/a
363.269	0.09	726538	keystroke_Key.right	Key.right	n/a
363.494	0.09	726988	keystroke_Key.right	Key.right	n/a
363.674	0.105	727348	keystroke_Key.right	Key.right	n/a
364.199	0.105	728398	keystroke_Key.space	Key.space	n/a
364.574	0.12	729148	keystroke_w	w	n/a
364.814	0.105	729628	keystroke_o	o	n/a
365.084	0.075	730168	keystroke_u	u	n/a
365.309	0.105	730618	keystroke_n	n	n/a
365.444	0.075	730888	keystroke_d	d	n/a
366.344	0.075	732688	keystroke_Key.enter	Key.enter	n/a
366.4255	11.62	732851	prompt	n/a	inserted trip specs hasn't\n
367.124	0.15	734248	keystroke_i	i	n/a
367.394	0.12	734788	keystroke_n	n	n/a
367.559	0.12	735118	keystroke_s	s	n/a
367.784	0.165	735568	keystroke_e	e	n/a
367.904	0.12	735808	keystroke_r	r	n/a
368.129	0.12	736258	keystroke_t	t	n/a
368.309	0.09	736618	keystroke_e	e	n/a
368.519	0.12	737038	keystroke_d	d	n/a
368.669	0.135	737338	keystroke_Key.space	Key.space	n/a
369.464	0.075	738928	keystroke_t	t	n/a
369.674	0.105	739348	keystroke_r	r	n/a
370.109	0.12	740218	keystroke_i	i	n/a
370.199	0.09	740398	keystroke_p	p	n/a
370.844	0.105	741688	keystroke_Key.space	Key.space	n/a
371.114	0.135	742228	keystroke_s	s	n/a
371.369	0.12	742738	keystroke_p	p	n/a
371.489	0.12	742978	keystroke_e	e	n/a
371.789	0.15	743578	keystroke_c	c	n/a
371.954	0.105	743908	keystroke_s	s	n/a
373.319	0.15	746638	keystroke_Key.space	Key.space	n/a
373.514	0.15	747028	keystroke_h	h	n/a
373.649	0.135	747298	keystroke_a	a	n/a
373.814	0.15	747628	keystroke_s	s	n/a
374.939	0.165	749878	keystroke_n	n	n/a
375.269	0.09	750538	keystroke_'	'	n/a
375.419	0.09	750838	keystroke_t	t	n/a
378.0025	0.041	756005	keystroke_Key.enter	Key.enter	n/a
378.0525	10.599	756105	prompt	n/a	stories specific curves white\n
379.1845	0.149	758369	keystroke_s	s	n/a
379.7235	0.075	759447	keystroke_t	t	n/a
379.8595	0.134	759719	keystroke_o	o	n/a
380.0235	0.105	760047	keystroke_r	r	n/a
380.2335	0.121	760467	keystroke_i	i	n/a
380.2795	0.15	760559	keystroke_e	e	n/a
380.3835	0.12	760767	keystroke_s	s	n/a
381.569	0.12	763138	keystroke_Key.space	Key.space	n/a
381.779	0.135	763558	keystroke_s	s	n/a
382.019	0.105	764038	keystroke_p	p	n/a
382.109	0.105	764218	keystroke_e	e	n/a
382.379	0.105	764758	keystroke_c	c	n/a
382.529	0.12	765058	keystroke_i	i	n/a
382.664	0.135	765328	keystroke_f	f	n/a
382.784	0.12	765568	keystroke_i	i	n/a
382.979	0.06	765958	keystroke_c	c	n/a
383.849	0.105	767698	keystroke_Key.space	Key.space	n/a
384.734	0.105	769468	keystroke_c	c	n/a
384.959	0.12	769918	keystroke_u	u	n/a
385.139	0.09	770278	keystroke_r	r	n/a
385.8445	0.119	771689	keystroke_v	v	n/a
386.0235	0.181	772047	keystroke_e	e	n/a
386.1585	0.105	772317	keystroke_s	s	n/a
386.8045	0.12	773609	keystroke_Key.space	Key.space	n/a
387.0745	0.12	774149	keystroke_w	w	n/a
387.2095	0.135	774419	keystroke_h	h	n/a
387.2695	0.15	774539	keystroke_i	i	n/a
387.6145	0.1345	775229	keystroke_t	t	n/a
387.719	0.105	775438	keystroke_e	e	n/a
388.559	0.09	777118	keystroke_Key.enter	Key.enter	n/a
388.657	24.58	777314	prompt	n/a	nearly configuring finnish worthy\n
389.565	0.09	779130	keystroke_n	n	n/a
389.669	0.09	779338	keystroke_e	e	n/a
389.849	0.195	779698	keystroke_a	a	n/a
390.014	0.12	780028	keystroke_r	r	n/a
390.209	0.075	780418	keystroke_l	l	n/a
390.404	0.09	780808	keystroke_y	y	n/a
390.809	0.075	781618	keystroke_Key.space	Key.space	n/a
391.064	0.09	782128	keystroke_c	c	n/a
391.169	0.165	782338	keystroke_o	o	n/a
391.274	0.121	782548	keystroke_n	n	n/a
391.619	0.12	783238	keystroke_f	f	n/a
391.755	0.134	783510	keystroke_u	u	n/a
392.009	0.09	784018	keystroke_g	g	n/a
392.144	0.12	784288	keystroke_u	u	n/a
392.309	0.12	784618	keystroke_r	r	n/a
392.519	0.18	785038	keystroke_i	i	n/a
392.624	0.135	785248	keystroke_n	n	n/a
392.744	0.075	785488	keystroke_g	g	n/a
393.299	0.105	786598	keystroke_Key.space	Key.space	n/a
394.4095	0.12	788819	keystroke_Key.left	Key.left	n/a
394.634	0.09	789268	keystroke_Key.left	Key.left	n/a
394.8145	0.12	789629	keystroke_Key.left	Key.left	n/a
397.0135	0.006	794027	keystroke_Key.left	Key.left	n/a
397.1545	0.09	794309	keystroke_Key.left	Key.left	n/a
397.3495	0.09	794699	keystroke_Key.left	Key.left	n/a
397.5145	0.135	795029	keystroke_Key.left	Key.left	n/a
397.6795	0.12	795359	keystroke_Key.left	Key.left	n/a
400.5925	0.057	801185	keystroke_i	i	n/a
401.5195	0.105	803039	keystroke_Key.right	Key.right	n/a
401.9395	0.09	803879	keystroke_Key.backspace	Key.backspace	n/a
403.9505	0.104	807901	keystroke_Key.right	Key.right	n/a
404.3695	0.12	808739	keystroke_Key.right	Key.right	n/a
404.5945	0.075	809189	keystroke_Key.right	Key.right	n/a
404.7895	0.105	809579	keystroke_Key.right	Key.right	n/a
405.0295	0.105	810059	keystroke_Key.right	Key.right	n/a
405.2545	0.105	810509	keystroke_Key.right	Key.right	n/a
405.8695	0.15	811739	keystroke_Key.space	Key.space	n/a
406.2755	0.15	812551	keystroke_f	f	n/a
406.4395	0.075	812879	keystroke_i	i	n/a
406.6345	0.1655	813269	keystroke_n	n	n/a
406.71	0.15	813420	keystroke_i	i	n/a
406.95	0.104	813900	keystroke_s	s	n/a
407.25	0.09	814500	keystroke_h	h	n/a
408.239	0.121	816478	keystroke_Key.left	Key.left	n/a
408.449	0.106	816898	keystroke_Key.left	Key.left	n/a
408.66	0.09	817320	keystroke_Key.left	Key.left	n/a
409.44	0.09	818880	keystroke_n	n	n/a
409.935	0.12	819870	keystroke_Key.right	Key.right	n/a
410.145	0.09	820290	keystroke_Key.right	Key.right	n/a
410.31	0.105	820620	keystroke_Key.right	Key.right	n/a
411.03	0.165	822060	keystroke_Key.space	Key.space	n/a
411.45	0.12	822900	keystroke_w	w	n/a
411.555	0.12	823110	keystroke_o	o	n/a
411.705	0.105	823410	keystroke_r	r	n/a
411.915	0.105	823830	keystroke_t	t	n/a
412.035	0.075	824070	keystroke_h	h	n/a
412.275	0.12	824550	keystroke_y	y	n/a
413.1445	0.09	826289	keystroke_Key.enter	Key.enter	n/a
413.2425	20.4095	826485	prompt	n/a	witness issue atlantic tommy\n
414.2845	0.15	828569	keystroke_w	w	n/a
414.4045	0.12	828809	keystroke_i	i	n/a
414.7495	0.1055	829499	keystroke_t	t	n/a
414.945	0.12	829890	keystroke_n	n	n/a
415.035	0.165	830070	keystroke_e	e	n/a
415.14	0.12	830280	keystroke_s	s	n/a
415.35	0.105	830700	keystroke_s	s	n/a
415.95	0.12	831900	keystroke_Key.space	Key.space	n/a
416.2945	0.12	832589	keystroke_i	i	n/a
416.6095	0.09	833219	keystroke_s	s	n/a
416.7595	0.12	833519	keystroke_s	s	n/a
416.9245	0.12	833849	keystroke_u	u	n/a
417.0595	0.105	834119	keystroke_e	e	n/a
417.5995	0.12	835199	keystroke_Key.space	Key.space	n/a
417.9745	0.15	835949	keystroke_a	a	n/a
418.1395	0.105	836279	keystroke_l	l	n/a
418.2895	0.09	836579	keystroke_t	t	n/a
419.5345	0.09	839069	keystroke_Key.backspace	Key.backspace	n/a
419.7445	0.105	839489	keystroke_Key.backspace	Key.backspace	n/a
419.9855	0.089	839971	keystroke_t	t	n/a
420.1945	0.105	840389	keystroke_l	l	n/a
420.3145	0.15	840629	keystroke_a	a	n/a
420.4345	0.12	840869	keystroke_n	n	n/a
420.5995	0.076	841199	keystroke_t	t	n/a
420.7795	0.12	841559	keystroke_a	a	n/a
421.8145	0.105	843629	keystroke_Key.backspace	Key.backspace	n/a
422.1005	0.119	844201	keystroke_i	i	n/a
422.2205	0.104	844441	keystroke_c	c	n/a
422.9995	0.105	845999	keystroke_Key.space	Key.space	n/a
423.4645	0.075	846929	keystroke_t	t	n/a
423.5545	0.12	847109	keystroke_o	o	n/a
423.7945	0.09	847589	keystroke_m	m	n/a
423.9445	0.105	847889	keystroke_m	m	n/a
424.2295	0.09	848459	keystroke_y	y	n/a
433.6235	0.026	867247	keystroke_Key.enter	Key.enter	n/a
433.657	15.5355	867314	prompt	n/a	sensitive reality jewel matter\n
436.4135	0.117	872827	keystroke_s	s	n/a
436.6955	0.24	873391	keystroke_e	e	n/a
436.8005	0.09	873601	keystroke_n	n	n/a
437.6405	0.149	875281	keystroke_s	s	n/a
437.7605	0.12	875521	keystroke_i	i	n/a
437.9405	0.09	875881	keystroke_t	t	n/a
438.0455	0.135	876091	keystroke_i	i	n/a
438.2105	0.105	876421	keystroke_v	v	n/a
438.4655	0.12	876931	keystroke_e	e	n/a
442.203	0.102	884406	keystroke_Key.space	Key.space	n/a
442.65	0.15	885300	keystroke_r	r	n/a
442.755	0.15	885510	keystroke_e	e	n/a
443.04	0.15	886080	keystroke_a	a	n/a
443.25	0.15	886500	keystroke_l	l	n/a
443.355	0.15	886710	keystroke_i	i	n/a
443.535	0.075	887070	keystroke_t	t	n/a
443.64	0.12	887280	keystroke_y	y	n/a
444.33	0.15	888660	keystroke_Key.space	Key.space	n/a
445.395	0.135	890790	keystroke_j	j	n/a
445.665	0.165	891330	keystroke_e	e	n/a
446.25	0.165	892500	keystroke_w	w	n/a
446.34	0.165	892680	keystroke_e	e	n/a
446.565	0.135	893130	keystroke_l	l	n/a
446.8955	0.105	893791	keystroke_Key.space	Key.space	n/a
447.1205	0.135	894241	keystroke_m	m	n/a
447.2395	0.15	894479	keystroke_a	a	n/a
447.5105	0.105	895021	keystroke_t	t	n/a
447.7055	0.075	895411	keystroke_t	t	n/a
447.8705	0.15	895741	keystroke_e	e	n/a
447.9605	0.165	895921	keystroke_r	r	n/a
449.1155	0.074	898231	keystroke_Key.enter	Key.enter	n/a
449.197	10.7505	898394	prompt	n/a	norway voted stone molecular\n
450.3305	0.15	900661	keystroke_n	n	n/a
450.4205	0.18	900841	keystroke_o	o	n/a
450.6455	0.135	901291	keystroke_r	r	n/a
451.0355	0.105	902071	keystroke_w	w	n/a
451.2605	0.135	902521	keystroke_a	a	n/a
451.3805	0.104	902761	keystroke_y	y	n/a
452.0545	0.166	904109	keystroke_Key.space	Key.space	n/a
453.4655	0.105	906931	keystroke_v	v	n/a
453.5555	0.135	907111	keystroke_o	o	n/a
453.7805	0.195	907561	keystroke_t	t	n/a
453.9005	0.135	907801	keystroke_e	e	n/a
454.1555	0.075	908311	keystroke_d	d	n/a
454.7255	0.135	909451	keystroke_Key.space	Key.space	n/a
454.9805	0.12	909961	keystroke_s	s	n/a
455.1905	0.12	910381	keystroke_t	t	n/a
455.3405	0.195	910681	keystroke_o	o	n/a
455.4755	0.135	910951	keystroke_n	n	n/a
455.5955	0.105	911191	keystroke_e	e	n/a
456.5855	0.135	913171	keystroke_Key.space	Key.space	n/a
456.9005	0.075	913801	keystroke_m	m	n/a
457.0955	0.105	914191	keystroke_o	o	n/a
457.3205	0.15	914641	keystroke_l	l	n/a
457.4855	0.105	914971	keystroke_e	e	n/a
457.8005	0.105	915601	keystroke_c	c	n/a
457.9055	0.075	915811	keystroke_u	u	n/a
458.1005	0.135	916201	keystroke_l	l	n/a
458.1905	0.165	916381	keystroke_a	a	n/a
458.3105	0.105	916621	keystroke_r	r	n/a
459.8555	0.09	919711	keystroke_Key.enter	Key.enter	n/a
459.9525	18.8795	919905	prompt	n/a	interpreted demonstrated instructional reached\n
460.86	0.15	921720	keystroke_i	i	n/a
461.055	0.12	922110	keystroke_n	n	n/a
461.25	0.135	922500	keystroke_t	t	n/a
461.43	0.165	922860	keystroke_e	e	n/a
461.55	0.135	923100	keystroke_r	r	n/a
461.79	0.15	923580	keystroke_p	p	n/a
462.015	0.195	924030	keystroke_r	r	n/a
462.135	0.211	924270	keystroke_e	e	n/a
462.36	0.166	924720	keystroke_t	t	n/a
462.45	0.15	924900	keystroke_e	e	n/a
462.721	0.104	925442	keystroke_d	d	n/a
463.38	0.105	926760	keystroke_Key.space	Key.space	n/a
463.56	0.105	927120	keystroke_d	d	n/a
463.785	0.105	927570	keystroke_e	e	n/a
463.965	0.135	927930	keystroke_m	m	n/a
464.145	0.225	928290	keystroke_o	o	n/a
464.295	0.165	928590	keystroke_n	n	n/a
464.505	0.15	929010	keystroke_s	s	n/a
464.7	0.105	929400	keystroke_t	t	n/a
464.91	0.165	929820	keystroke_r	r	n/a
465.091	0.18	930182	keystroke_a	a	n/a
465.271	0.164	930542	keystroke_t	t	n/a
465.36	0.151	930720	keystroke_e	e	n/a
465.601	0.104	931202	keystroke_d	d	n/a
466.83	0.12	933660	keystroke_Key.space	Key.space	n/a
467.071	0.224	934142	keystroke_i	i	n/a
467.206	0.12	934412	keystroke_n	n	n/a
467.475	0.15	934950	keystroke_s	s	n/a
467.941	0.104	935882	keystroke_t	t	n/a
468.136	0.15	936272	keystroke_u	u	n/a
469.47	0.12	938940	keystroke_c	c	n/a
471.375	0.09	942750	keystroke_Key.backspace	Key.backspace	n/a
471.57	0.105	943140	keystroke_Key.backspace	Key.backspace	n/a
472.8	0.15	945600	keystroke_t	t	n/a
473.625	0.15	947250	keystroke_Key.backspace	Key.backspace	n/a
474.21	0.195	948420	keystroke_r	r	n/a
474.495	0.135	948990	keystroke_u	u	n/a
474.66	0.121	949320	keystroke_c	c	n/a
475.155	0.105	950310	keystroke_t	t	n/a
475.335	0.15	950670	keystroke_i	i	n/a
475.425	0.271	950850	keystroke_o	o	n/a
475.65	0.15	951300	keystroke_n	n	n/a
475.921	0.119	951842	keystroke_a	a	n/a
476.085	0.1055	952170	keystroke_l	l	n/a
476.4155	0.135	952831	keystroke_Key.space	Key.space	n/a
476.925	0.24	953850	keystroke_r	r	n/a
477.03	0.195	954060	keystroke_e	e	n/a
477.195	0.15	954390	keystroke_a	a	n/a
477.675	0.09	955350	keystroke_c	c	n/a
477.795	0.15	955590	keystroke_h	h	n/a
477.93	0.105	955860	keystroke_e	e	n/a
478.155	0.075	956310	keystroke_d	d	n/a
478.785	0.045	957570	keystroke_Key.enter	Key.enter	n/a
478.837	13.2105	957674	prompt	n/a	deputy lift proved wired\n
480.451	0.0745	960902	keystroke_d	d	n/a
480.6455	0.105	961291	keystroke_e	e	n/a
480.8855	0.12	961771	keystroke_p	p	n/a
481.2755	0.12	962551	keystroke_u	u	n/a
481.8455	0.09	963691	keystroke_t	t	n/a
482.0255	0.105	964051	keystroke_y	y	n/a
482.5355	0.12	965071	keystroke_Key.space	Key.space	n/a
482.8055	0.15	965611	keystroke_l	l	n/a
482.9105	0.18	965821	keystroke_i	i	n/a
483.0605	0.165	966121	keystroke_f	f	n/a
483.1805	0.12	966361	keystroke_e	e	n/a
484.1555	0.15	968311	keystroke_Key.space	Key.space	n/a
484.4105	0.105	968821	keystroke_p	p	n/a
486.4955	0.135	972991	keystroke_Key.backspace	Key.backspace	n/a
486.7505	0.105	973501	keystroke_Key.backspace	Key.backspace	n/a
486.991	0.1045	973982	keystroke_Key.backspace	Key.backspace	n/a
487.2305	0.12	974461	keystroke_e	e	n/a
487.8905	0.15	975781	keystroke_Key.space	Key.space	n/a
488.3405	0.105	976681	keystroke_p	p	n/a
488.5205	0.12	977041	keystroke_r	r	n/a
488.6705	0.135	977341	keystroke_o	o	n/a
488.8355	0.12	977671	keystroke_v	v	n/a
489.0605	0.09	978121	keystroke_e	e	n/a
489.2855	0.09	978571	keystroke_d	d	n/a
489.6305	0.12	979261	keystroke_Key.space	Key.space	n/a
489.9755	0.1055	979951	keystroke_w	w	n/a
490.1255	0.105	980251	keystroke_i	i	n/a
490.2905	0.18	980581	keystroke_r	r	n/a
490.4255	0.105	980851	keystroke_e	e	n/a
490.6505	0.075	981301	keystroke_d	d	n/a
491.9555	0.09	983911	keystroke_Key.enter	Key.enter	n/a
492.054	11.62	984108	prompt	n/a	portraits belize brisbane desk\n
492.8855	0.105	985771	keystroke_p	p	n/a
493.1405	0.12	986281	keystroke_o	o	n/a
493.2905	0.135	986581	keystroke_r	r	n/a
493.5605	0.075	987121	keystroke_t	t	n/a
493.7705	0.12	987541	keystroke_r	r	n/a
493.9355	0.165	987871	keystroke_a	a	n/a
494.0855	0.18	988171	keystroke_i	i	n/a
494.2505	0.075	988501	keystroke_t	t	n/a
494.4305	0.135	988861	keystroke_s	s	n/a
494.8355	0.135	989671	keystroke_Key.space	Key.space	n/a
495.1205	0.105	990241	keystroke_b	b	n/a
495.2405	0.12	990481	keystroke_e	e	n/a
495.4955	0.195	990991	keystroke_l	l	n/a
495.6155	0.225	991231	keystroke_i	i	n/a
496.5005	0.105	993001	keystroke_z	z	n/a
496.7105	0.135	993421	keystroke_e	e	n/a
496.9655	0.135	993931	keystroke_Key.space	Key.space	n/a
497.3705	0.12	994741	keystroke_b	b	n/a
497.6255	0.12	995251	keystroke_r	r	n/a
497.8205	0.135	995641	keystroke_i	i	n/a
498.1055	0.15	996211	keystroke_s	s	n/a
498.4205	0.12	996841	keystroke_b	b	n/a
498.5255	0.1655	997051	keystroke_a	a	n/a
498.676	0.165	997352	keystroke_n	n	n/a
498.901	0.105	997802	keystroke_e	e	n/a
500.82	0.135	1001640	keystroke_Key.space	Key.space	n/a
501.015	0.09	1002030	keystroke_d	d	n/a
501.21	0.136	1002420	keystroke_e	e	n/a
501.42	0.105	1002840	keystroke_s	s	n/a
501.57	0.105	1003140	keystroke_k	k	n/a
503.58	0.09	1007160	keystroke_Key.enter	Key.enter	n/a
503.6795	11.498	1007359	prompt	n/a	friday kruger trap true\n
504.676	0.104	1009352	keystroke_f	f	n/a
504.915	0.09	1009830	keystroke_r	r	n/a
505.05	0.135	1010100	keystroke_i	i	n/a
505.38	0.12	1010760	keystroke_d	d	n/a
505.605	0.135	1011210	keystroke_a	a	n/a
505.71	0.15	1011420	keystroke_y	y	n/a
506.175	0.135	1012350	keystroke_Key.space	Key.space	n/a
506.8655	0.12	1013731	keystroke_k	k	n/a
508.1705	0.15	1016341	keystroke_r	r	n/a
508.3655	0.165	1016731	keystroke_u	u	n/a
508.8305	0.105	1017661	keystroke_g	g	n/a
509.0705	0.15	1018141	keystroke_e	e	n/a
509.1605	0.12	1018321	keystroke_r	r	n/a
509.5205	0.135	1019041	keystroke_Key.space	Key.space	n/a
509.7905	0.075	1019581	keystroke_t	t	n/a
510.0005	0.105	1020001	keystroke_r	r	n/a
510.6755	0.12	1021351	keystroke_a	a	n/a
510.8105	0.12	1021621	keystroke_p	p	n/a
513.9635	0.057	1027927	keystroke_Key.space	Key.space	n/a
514.1555	0.06	1028311	keystroke_t	t	n/a
514.3505	0.105	1028701	keystroke_r	r	n/a
514.4855	0.12	1028971	keystroke_u	u	n/a
514.6355	0.09	1029271	keystroke_e	e	n/a
515.0855	0.09	1030171	keystroke_Key.enter	Key.enter	n/a
515.1815	9.026	1030363	prompt	n/a	iceland dirty dean recall\n
516.1205	0.06	1032241	keystroke_o	o	n/a
516.2105	0.06	1032421	keystroke_i	i	n/a
516.7805	0.12	1033561	keystroke_Key.backspace	Key.backspace	n/a
516.9755	0.105	1033951	keystroke_Key.backspace	Key.backspace	n/a
517.2155	0.18	1034431	keystroke_i	i	n/a
517.6955	0.135	1035391	keystroke_c	c	n/a
518.2205	0.12	1036441	keystroke_e	e	n/a
518.4605	0.15	1036921	keystroke_l	l	n/a
518.5955	0.15	1037191	keystroke_a	a	n/a
518.7455	0.15	1037491	keystroke_n	n	n/a
518.8655	0.15	1037731	keystroke_d	d	n/a
519.0755	0.15	1038151	keystroke_Key.space	Key.space	n/a
519.3905	0.105	1038781	keystroke_d	d	n/a
519.5555	0.135	1039111	keystroke_i	i	n/a
519.7205	0.12	1039441	keystroke_r	r	n/a
520.1405	0.105	1040281	keystroke_t	t	n/a
520.3205	0.135	1040641	keystroke_y	y	n/a
521.1455	0.15	1042291	keystroke_Key.space	Key.space	n/a
521.7305	0.075	1043461	keystroke_d	d	n/a
521.9255	0.105	1043851	keystroke_e	e	n/a
522.1355	0.105	1044271	keystroke_a	a	n/a
522.2555	0.105	1044511	keystroke_n	n	n/a
522.5105	0.135	1045021	keystroke_Key.space	Key.space	n/a
522.8555	0.12	1045711	keystroke_r	r	n/a
522.9305	0.15	1045861	keystroke_e	e	n/a
523.2305	0.105	1046461	keystroke_c	c	n/a
523.4405	0.12	1046881	keystroke_a	a	n/a
523.6355	0.105	1047271	keystroke_l	l	n/a
523.8455	0.135	1047691	keystroke_l	l	n/a
524.1305	0.075	1048261	keystroke_Key.enter	Key.enter	n/a
524.214	9.1	1048428	prompt	n/a	correlation annotation i'm live\n
525.0755	0.12	1050151	keystroke_c	c	n/a
525.2405	0.1495	1050481	keystroke_o	o	n/a
525.541	0.059	1051082	keystroke_r	r	n/a
525.796	0.12	1051592	keystroke_r	r	n/a
526.051	0.15	1052102	keystroke_e	e	n/a
526.245	0.15	1052490	keystroke_l	l	n/a
526.456	0.149	1052912	keystroke_a	a	n/a
526.7105	0.105	1053421	keystroke_t	t	n/a
526.7855	0.135	1053571	keystroke_i	i	n/a
526.9955	0.165	1053991	keystroke_o	o	n/a
527.2505	0.15	1054501	keystroke_n	n	n/a
527.5505	0.15	1055101	keystroke_Key.space	Key.space	n/a
528.0455	0.135	1056091	keystroke_a	a	n/a
528.2405	0.12	1056481	keystroke_n	n	n/a
528.4955	0.105	1056991	keystroke_n	n	n/a
528.676	0.135	1057352	keystroke_o	o	n/a
528.916	0.12	1057832	keystroke_t	t	n/a
529.111	0.165	1058222	keystroke_a	a	n/a
529.351	0.12	1058702	keystroke_t	t	n/a
529.501	0.21	1059002	keystroke_i	i	n/a
529.636	0.225	1059272	keystroke_o	o	n/a
529.816	0.12	1059632	keystroke_n	n	n/a
530.266	0.135	1060532	keystroke_Key.space	Key.space	n/a
530.986	0.12	1061972	keystroke_i	i	n/a
531.256	0.105	1062512	keystroke_'	'	n/a
531.511	0.165	1063022	keystroke_m	m	n/a
531.961	0.12	1063922	keystroke_Key.space	Key.space	n/a
532.141	0.15	1064282	keystroke_l	l	n/a
532.306	0.12	1064612	keystroke_i	i	n/a
532.546	0.135	1065092	keystroke_v	v	n/a
532.7855	0.09	1065571	keystroke_e	e	n/a
533.2055	0.105	1066411	keystroke_Key.enter	Key.enter	n/a
533.3185	13.719	1066637	prompt	n/a	combining avoiding justin fisher\n
535.6235	0.057	1071247	keystroke_c	c	n/a
535.7405	0.12	1071481	keystroke_o	o	n/a
536.0105	0.105	1072021	keystroke_m	m	n/a
536.3855	0.12	1072771	keystroke_b	b	n/a
536.6405	0.1495	1073281	keystroke_i	i	n/a
536.97	0.121	1073940	keystroke_n	n	n/a
537.495	0.21	1074990	keystroke_i	i	n/a
537.645	0.15	1075290	keystroke_n	n	n/a
537.826	0.12	1075652	keystroke_g	g	n/a
538.321	0.134	1076642	keystroke_Key.space	Key.space	n/a
539.1	0.136	1078200	keystroke_a	a	n/a
539.521	0.12	1079042	keystroke_v	v	n/a
539.746	0.18	1079492	keystroke_o	o	n/a
539.881	0.135	1079762	keystroke_i	i	n/a
540.691	0.015	1081382	keystroke_d	d	n/a
540.796	0.195	1081592	keystroke_i	i	n/a
540.916	0.15	1081832	keystroke_n	n	n/a
541.111	0.12	1082222	keystroke_g	g	n/a
541.291	0.134	1082582	keystroke_Key.space	Key.space	n/a
541.681	0.105	1083362	keystroke_j	j	n/a
541.936	0.15	1083872	keystroke_u	u	n/a
542.161	0.135	1084322	keystroke_s	s	n/a
542.431	0.09	1084862	keystroke_t	t	n/a
542.596	0.18	1085192	keystroke_i	i	n/a
542.746	0.12	1085492	keystroke_n	n	n/a
543.075	0.136	1086150	keystroke_Key.space	Key.space	n/a
543.496	0.135	1086992	keystroke_f	f	n/a
543.661	0.135	1087322	keystroke_i	i	n/a
543.841	0.12	1087682	keystroke_s	s	n/a
544.021	0.105	1088042	keystroke_h	h	n/a
544.246	0.135	1088492	keystroke_e	e	n/a
544.411	0.12	1088822	keystroke_r	r	n/a
546.994	0.042	1093988	keystroke_Key.enter	Key.enter	n/a
547.042	8.9215	1094084	prompt	n/a	barely requested slots field\n
548.041	0.105	1096082	keystroke_b	b	n/a
548.296	0.15	1096592	keystroke_a	a	n/a
548.566	0.12	1097132	keystroke_r	r	n/a
548.626	0.165	1097252	keystroke_e	e	n/a
548.836	0.135	1097672	keystroke_l	l	n/a
549.091	0.12	1098182	keystroke_y	y	n/a
549.331	0.15	1098662	keystroke_Key.space	Key.space	n/a
549.781	0.18	1099562	keystroke_r	r	n/a
549.901	0.15	1099802	keystroke_e	e	n/a
550.621	0.12	1101242	keystroke_q	q	n/a
550.786	0.135	1101572	keystroke_u	u	n/a
550.936	0.105	1101872	keystroke_e	e	n/a
551.101	0.165	1102202	keystroke_s	s	n/a
551.326	0.165	1102652	keystroke_t	t	n/a
551.476	0.12	1102952	keystroke_e	e	n/a
551.716	0.12	1103432	keystroke_d	d	n/a
551.926	0.12	1103852	keystroke_Key.space	Key.space	n/a
552.406	0.135	1104812	keystroke_s	s	n/a
552.601	0.12	1105202	keystroke_l	l	n/a
552.826	0.165	1105652	keystroke_o	o	n/a
553.006	0.09	1106012	keystroke_t	t	n/a
553.216	0.135	1106432	keystroke_s	s	n/a
554.071	0.015	1108142	keystroke_Key.space	Key.space	n/a
554.206	0.12	1108412	keystroke_f	f	n/a
554.356	0.165	1108712	keystroke_i	i	n/a
554.506	0.105	1109012	keystroke_e	e	n/a
554.731	0.165	1109462	keystroke_l	l	n/a
554.881	0.105	1109762	keystroke_d	d	n/a
555.871	0.09	1111742	keystroke_Key.enter	Key.enter	n/a
555.9675	9.7455	1111935	prompt	n/a	loss illustrated bookings storm\n
556.681	0.105	1113362	keystroke_l	l	n/a
556.876	0.135	1113752	keystroke_o	o	n/a
557.101	0.09	1114202	keystroke_s	s	n/a
557.311	0.15	1114622	keystroke_s	s	n/a
557.521	0.135	1115042	keystroke_Key.space	Key.space	n/a
557.851	0.09	1115702	keystroke_i	i	n/a
558.6765	0.12	1117353	keystroke_l	l	n/a
558.8715	0.105	1117743	keystroke_l	l	n/a
559.1565	0.12	1118313	keystroke_u	u	n/a
559.3665	0.165	1118733	keystroke_s	s	n/a
559.6515	0.075	1119303	keystroke_t	t	n/a
559.8465	0.135	1119693	keystroke_r	r	n/a
559.9965	0.15	1119993	keystroke_a	a	n/a
560.2365	0.12	1120473	keystroke_t	t	n/a
560.4165	0.12	1120833	keystroke_e	e	n/a
560.6565	0.105	1121313	keystroke_d	d	n/a
561.2105	0.12	1122421	keystroke_Key.space	Key.space	n/a
561.4815	0.105	1122963	keystroke_b	b	n/a
561.6915	0.075	1123383	keystroke_o	o	n/a
561.8715	0.135	1123743	keystroke_o	o	n/a
562.1115	0.09	1124223	keystroke_k	k	n/a
562.3065	0.135	1124613	keystroke_i	i	n/a
562.5165	0.135	1125033	keystroke_n	n	n/a
562.7715	0.105	1125543	keystroke_g	g	n/a
562.9965	0.104	1125993	keystroke_s	s	n/a
563.6105	0.12	1127221	keystroke_Key.space	Key.space	n/a
564.0155	0.135	1128031	keystroke_s	s	n/a
564.2705	0.09	1128541	keystroke_t	t	n/a
564.3915	0.134	1128783	keystroke_o	o	n/a
564.5405	0.135	1129081	keystroke_r	r	n/a
564.7205	0.1355	1129441	keystroke_m	m	n/a
565.621	0.09	1131242	keystroke_Key.enter	Key.enter	n/a
565.7185	9.625	1131437	prompt	n/a	front asset fraction catalog\n
566.686	0.09	1133372	keystroke_f	f	n/a
566.896	0.12	1133792	keystroke_r	r	n/a
567.076	0.15	1134152	keystroke_o	o	n/a
567.2565	0.135	1134513	keystroke_n	n	n/a
567.4365	0.135	1134873	keystroke_t	t	n/a
567.5865	0.1345	1135173	keystroke_Key.space	Key.space	n/a
568.2015	0.1345	1136403	keystroke_a	a	n/a
568.456	0.09	1136912	keystroke_s	s	n/a
568.621	0.1355	1137242	keystroke_s	s	n/a
568.8465	0.135	1137693	keystroke_e	e	n/a
569.2065	0.03	1138413	keystroke_t	t	n/a
569.5365	0.12	1139073	keystroke_Key.space	Key.space	n/a
569.8665	0.09	1139733	keystroke_f	f	n/a
570.1515	0.09	1140303	keystroke_r	r	n/a
570.3465	0.09	1140693	keystroke_a	a	n/a
570.5715	0.105	1141143	keystroke_c	c	n/a
570.826	0.09	1141652	keystroke_t	t	n/a
570.946	0.135	1141892	keystroke_i	i	n/a
571.171	0.091	1142342	keystroke_o	o	n/a
571.3815	0.1195	1142763	keystroke_n	n	n/a
571.741	0.105	1143482	keystroke_Key.space	Key.space	n/a
572.041	0.135	1144082	keystroke_c	c	n/a
572.2215	0.1345	1144443	keystroke_a	a	n/a
572.491	0.135	1144982	keystroke_t	t	n/a
572.701	0.165	1145402	keystroke_a	a	n/a
572.9265	0.12	1145853	keystroke_l	l	n/a
573.1365	0.1645	1146273	keystroke_o	o	n/a
573.316	0.105	1146632	keystroke_g	g	n/a
575.221	0.12	1150442	keystroke_Key.enter	Key.enter	n/a
575.3495	11.9635	1150699	prompt	n/a	reaches daisy resort plasma\n
576.242	0.149	1152484	keystroke_r	r	n/a
576.406	0.135	1152812	keystroke_e	e	n/a
576.6015	0.1195	1153203	keystroke_a	a	n/a
576.901	0.09	1153802	keystroke_c	c	n/a
577.081	0.135	1154162	keystroke_h	h	n/a
577.321	0.18	1154642	keystroke_e	e	n/a
577.531	0.165	1155062	keystroke_s	s	n/a
578.821	0.135	1157642	keystroke_Key.space	Key.space	n/a
579.061	0.075	1158122	keystroke_d	d	n/a
579.421	0.135	1158842	keystroke_a	a	n/a
579.586	0.1505	1159172	keystroke_i	i	n/a
579.751	0.135	1159502	keystroke_s	s	n/a
579.991	0.135	1159982	keystroke_y	y	n/a
581.026	0.135	1162052	keystroke_Key.space	Key.space	n/a
581.461	0.165	1162922	keystroke_r	r	n/a
581.552	0.149	1163104	keystroke_e	e	n/a
581.776	0.135	1163552	keystroke_s	s	n/a
582.046	0.135	1164092	keystroke_o	o	n/a
582.182	0.134	1164364	keystroke_r	r	n/a
582.406	0.09	1164812	keystroke_t	t	n/a
583.216	0.135	1166432	keystroke_Key.space	Key.space	n/a
583.426	0.09	1166852	keystroke_p	p	n/a
583.651	0.18	1167302	keystroke_l	l	n/a
583.816	0.105	1167632	keystroke_a	a	n/a
584.041	0.18	1168082	keystroke_s	s	n/a
584.326	0.15	1168652	keystroke_m	m	n/a
584.461	0.135	1168922	keystroke_a	a	n/a
587.269	0.042	1174538	keystroke_Key.enter	Key.enter	n/a
587.318	17.2	1174636	prompt	n/a	selecting representing mathematical tension\n
588.121	0.15	1176242	keystroke_s	s	n/a
588.9015	0.135	1177803	keystroke_e	e	n/a
589.0965	0.15	1178193	keystroke_l	l	n/a
589.2615	0.105	1178523	keystroke_e	e	n/a
589.516	0.0905	1179032	keystroke_c	c	n/a
589.802	0.104	1179604	keystroke_t	t	n/a
589.981	0.105	1179962	keystroke_i	i	n/a
590.1765	0.1345	1180353	keystroke_n	n	n/a
590.3265	0.1195	1180653	keystroke_g	g	n/a
590.581	0.1055	1181162	keystroke_Key.space	Key.space	n/a
590.9865	0.165	1181973	keystroke_r	r	n/a
591.0915	0.165	1182183	keystroke_e	e	n/a
592.4565	0.12	1184913	keystroke_p	p	n/a
592.9215	0.165	1185843	keystroke_r	r	n/a
593.0115	0.18	1186023	keystroke_e	e	n/a
593.2815	0.15	1186563	keystroke_s	s	n/a
593.4465	0.15	1186893	keystroke_e	e	n/a
593.6265	0.105	1187253	keystroke_n	n	n/a
593.8065	0.075	1187613	keystroke_t	t	n/a
593.9415	0.24	1187883	keystroke_i	i	n/a
594.0915	0.15	1188183	keystroke_n	n	n/a
594.2565	0.12	1188513	keystroke_g	g	n/a
594.4965	0.12	1188993	keystroke_Key.space	Key.space	n/a
594.871	0.121	1189742	keystroke_m	m	n/a
595.007	0.105	1190014	keystroke_a	a	n/a
595.322	0.09	1190644	keystroke_t	t	n/a
595.502	0.12	1191004	keystroke_h	h	n/a
596.552	0.15	1193104	keystroke_e	e	n/a
597.826	0.135	1195652	keystroke_m	m	n/a
597.991	0.12	1195982	keystroke_a	a	n/a
598.232	0.104	1196464	keystroke_t	t	n/a
598.382	0.119	1196764	keystroke_i	i	n/a
598.591	0.076	1197182	keystroke_c	c	n/a
598.741	0.12	1197482	keystroke_a	a	n/a
598.906	0.121	1197812	keystroke_l	l	n/a
599.057	0.134	1198114	keystroke_Key.space	Key.space	n/a
599.596	0.136	1199192	keystroke_t	t	n/a
599.791	0.166	1199582	keystroke_e	e	n/a
599.987	0.135	1199974	keystroke_n	n	n/a
600.286	0.105	1200572	keystroke_s	s	n/a
600.467	0.195	1200934	keystroke_i	i	n/a
600.617	0.21	1201234	keystroke_o	o	n/a
600.812	0.134	1201624	keystroke_n	n	n/a
604.46	0.056	1208920	keystroke_Key.enter	Key.enter	n/a
604.524	15.489	1209048	prompt	n/a	challenging emotions occurred concord\n
605.5665	0.15	1211133	keystroke_c	c	n/a
605.7315	0.135	1211463	keystroke_h	h	n/a
605.8965	0.15	1211793	keystroke_a	a	n/a
606.1065	0.075	1212213	keystroke_l	l	n/a
606.2715	0.15	1212543	keystroke_l	l	n/a
606.4665	0.15	1212933	keystroke_e	e	n/a
606.6465	0.12	1213293	keystroke_n	n	n/a
607.5465	0.104	1215093	keystroke_g	g	n/a
607.7715	0.21	1215543	keystroke_i	i	n/a
607.8915	0.149	1215783	keystroke_n	n	n/a
608.0715	0.105	1216143	keystroke_g	g	n/a
608.5965	0.12	1217193	keystroke_Key.space	Key.space	n/a
608.9715	0.12	1217943	keystroke_e	e	n/a
609.1065	0.105	1218213	keystroke_m	m	n/a
609.3165	0.12	1218633	keystroke_o	o	n/a
609.5415	0.09	1219083	keystroke_t	t	n/a
609.6165	0.135	1219233	keystroke_i	i	n/a
609.8415	0.15	1219683	keystroke_o	o	n/a
610.0205	0.121	1220041	keystroke_n	n	n/a
610.1715	0.195	1220343	keystroke_s	s	n/a
610.4115	0.12	1220823	keystroke_Key.space	Key.space	n/a
611.057	0.134	1222114	keystroke_o	o	n/a
611.282	0.059	1222564	keystroke_c	c	n/a
611.447	0.12	1222894	keystroke_c	c	n/a
611.657	0.135	1223314	keystroke_u	u	n/a
613.1415	0.09	1226283	keystroke_r	r	n/a
613.3205	0.135	1226641	keystroke_r	r	n/a
613.4865	0.104	1226973	keystroke_e	e	n/a
613.6965	0.09	1227393	keystroke_d	d	n/a
614.4765	0.119	1228953	keystroke_Key.space	Key.space	n/a
614.8205	0.091	1229641	keystroke_c	c	n/a
615.0015	0.165	1230003	keystroke_o	o	n/a
615.2265	0.135	1230453	keystroke_n	n	n/a
615.6615	0.104	1231323	keystroke_c	c	n/a
615.8115	0.12	1231623	keystroke_o	o	n/a
615.9615	0.12	1231923	keystroke_r	r	n/a
616.2015	0.09	1232403	keystroke_d	d	n/a
619.9545	0.057	1239909	keystroke_Key.enter	Key.enter	n/a
620.017	10.182	1240034	prompt	n/a	twice talent reporters wheel\n
621.001	0.09	1242002	keystroke_t	t	n/a
621.1665	0.1345	1242333	keystroke_w	w	n/a
621.316	0.12	1242632	keystroke_i	i	n/a
621.496	0.12	1242992	keystroke_c	c	n/a
621.767	0.12	1243534	keystroke_e	e	n/a
621.992	0.104	1243984	keystroke_Key.space	Key.space	n/a
622.322	0.105	1244644	keystroke_t	t	n/a
622.532	0.12	1245064	keystroke_a	a	n/a
622.667	0.135	1245334	keystroke_l	l	n/a
622.846	0.15	1245692	keystroke_e	e	n/a
623.011	0.151	1246022	keystroke_n	n	n/a
623.177	0.059	1246354	keystroke_t	t	n/a
624.317	0.134	1248634	keystroke_Key.space	Key.space	n/a
624.977	0.15	1249954	keystroke_r	r	n/a
625.052	0.135	1250104	keystroke_e	e	n/a
625.277	0.105	1250554	keystroke_p	p	n/a
625.516	0.135	1251032	keystroke_o	o	n/a
625.696	0.09	1251392	keystroke_r	r	n/a
625.907	0.089	1251814	keystroke_t	t	n/a
626.2065	0.18	1252413	keystroke_e	e	n/a
626.2965	0.165	1252593	keystroke_r	r	n/a
626.4915	0.135	1252983	keystroke_s	s	n/a
627.4215	0.12	1254843	keystroke_Key.space	Key.space	n/a
627.6315	0.15	1255263	keystroke_w	w	n/a
627.8415	0.105	1255683	keystroke_h	h	n/a
628.0515	0.075	1256103	keystroke_e	e	n/a
628.2465	0.09	1256493	keystroke_e	e	n/a
628.4275	0.1035	1256855	keystroke_l	l	n/a
630.1065	0.0895	1260213	keystroke_Key.enter	Key.enter	n/a
630.205	18.7585	1260410	prompt	n/a	interesting copies extend mainly\n
631.0225	0.2085	1262045	keystroke_i	i	n/a
631.186	0.15	1262372	keystroke_n	n	n/a
631.516	0.1205	1263032	keystroke_t	t	n/a
631.6665	0.15	1263333	keystroke_e	e	n/a
631.7865	0.1955	1263573	keystroke_r	r	n/a
631.9065	0.1805	1263813	keystroke_e	e	n/a
632.117	0.165	1264234	keystroke_s	s	n/a
633.137	0.075	1266274	keystroke_t	t	n/a
633.407	0.21	1266814	keystroke_i	i	n/a
633.527	0.15	1267054	keystroke_n	n	n/a
633.678	0.089	1267356	keystroke_g	g	n/a
634.367	0.12	1268734	keystroke_Key.space	Key.space	n/a
634.997	0.15	1269994	keystroke_c	c	n/a
635.162	0.06	1270324	keystroke_o	o	n/a
635.327	0.105	1270654	keystroke_p	p	n/a
635.522	0.165	1271044	keystroke_i	i	n/a
635.627	0.165	1271254	keystroke_e	e	n/a
635.732	0.15	1271464	keystroke_s	s	n/a
636.557	0.135	1273114	keystroke_Key.space	Key.space	n/a
636.707	0.12	1273414	keystroke_e	e	n/a
636.9465	0.09	1273893	keystroke_x	x	n/a
637.202	0.135	1274404	keystroke_t	t	n/a
637.322	0.135	1274644	keystroke_e	e	n/a
637.517	0.165	1275034	keystroke_n	n	n/a
637.667	0.09	1275334	keystroke_d	d	n/a
638.267	0.1345	1276534	keystroke_Key.space	Key.space	n/a
638.4765	0.1655	1276953	keystroke_m	m	n/a
638.927	0.105	1277854	keystroke_a	a	n/a
639.482	0.21	1278964	keystroke_i	i	n/a
639.602	0.12	1279204	keystroke_n	n	n/a
639.827	0.12	1279654	keystroke_l	l	n/a
640.052	0.12	1280104	keystroke_y	y	n/a
648.89	0.072	1297780	keystroke_Key.enter	Key.enter	n/a
648.97	17.0345	1297940	prompt	n/a	preceding roulette supposed avoid\n
649.817	0.12	1299634	keystroke_p	p	n/a
650.057	0.18	1300114	keystroke_r	r	n/a
650.147	0.165	1300294	keystroke_e	e	n/a
650.447	0.075	1300894	keystroke_c	c	n/a
650.672	0.09	1301344	keystroke_e	e	n/a
650.927	0.06	1301854	keystroke_d	d	n/a
650.942	0.03	1301884	keystroke_c	c	n/a
651.077	0.12	1302154	keystroke_i	i	n/a
651.677	0.15	1303354	keystroke_Key.backspace	Key.backspace	n/a
652.232	0.12	1304464	keystroke_Key.backspace	Key.backspace	n/a
655.25	0.132	1310500	keystroke_i	i	n/a
655.307	0.15	1310614	keystroke_n	n	n/a
655.472	0.12	1310944	keystroke_g	g	n/a
655.712	0.135	1311424	keystroke_Key.space	Key.space	n/a
657.5125	0.12	1315025	keystroke_r	r	n/a
658.1725	0.225	1316345	keystroke_o	o	n/a
658.3225	0.134	1316645	keystroke_u	u	n/a
658.5625	0.15	1317125	keystroke_l	l	n/a
658.7575	0.165	1317515	keystroke_e	e	n/a
659.1325	0.075	1318265	keystroke_t	t	n/a
659.3125	0.105	1318625	keystroke_t	t	n/a
659.4625	0.135	1318925	keystroke_e	e	n/a
659.7915	0.165	1319583	keystroke_Key.space	Key.space	n/a
660.3325	0.15	1320665	keystroke_s	s	n/a
660.6025	0.12	1321205	keystroke_u	u	n/a
660.8575	0.105	1321715	keystroke_p	p	n/a
661.0375	0.105	1322075	keystroke_p	p	n/a
661.2625	0.135	1322525	keystroke_o	o	n/a
661.4425	0.21	1322885	keystroke_s	s	n/a
661.5625	0.149	1323125	keystroke_e	e	n/a
661.7875	0.135	1323575	keystroke_d	d	n/a
662.0415	0.1505	1324083	keystroke_Key.space	Key.space	n/a
662.552	0.18	1325104	keystroke_a	a	n/a
663.092	0.09	1326184	keystroke_v	v	n/a
663.392	0.21	1326784	keystroke_o	o	n/a
663.527	0.18	1327054	keystroke_i	i	n/a
664.367	0.06	1328734	keystroke_d	d	n/a
665.912	0.09	1331824	keystroke_Key.enter	Key.enter	n/a
666.009	12.19	1332018	prompt	n/a	consultation editions frequencies barrel\n
666.887	0.105	1333774	keystroke_c	c	n/a
667.007	0.21	1334014	keystroke_o	o	n/a
667.142	0.12	1334284	keystroke_n	n	n/a
667.487	0.135	1334974	keystroke_s	s	n/a
667.637	0.12	1335274	keystroke_u	u	n/a
667.862	0.15	1335724	keystroke_l	l	n/a
669.3315	0.12	1338663	keystroke_t	t	n/a
669.5265	0.165	1339053	keystroke_a	a	n/a
669.7815	0.135	1339563	keystroke_t	t	n/a
669.9025	0.254	1339805	keystroke_i	i	n/a
670.0515	0.255	1340103	keystroke_o	o	n/a
670.2615	0.12	1340523	keystroke_n	n	n/a
670.6215	0.12	1341243	keystroke_Key.space	Key.space	n/a
670.8465	0.105	1341693	keystroke_e	e	n/a
671.0715	0.12	1342143	keystroke_d	d	n/a
671.2215	0.12	1342443	keystroke_i	i	n/a
671.6115	0.105	1343223	keystroke_t	t	n/a
671.6865	0.21	1343373	keystroke_i	i	n/a
671.8065	0.271	1343613	keystroke_o	o	n/a
672.0165	0.15	1344033	keystroke_n	n	n/a
672.2115	0.165	1344423	keystroke_s	s	n/a
672.3775	0.149	1344755	keystroke_Key.space	Key.space	n/a
672.9465	0.12	1345893	keystroke_f	f	n/a
673.3215	0.12	1346643	keystroke_r	r	n/a
673.3815	0.135	1346763	keystroke_e	e	n/a
673.7565	0.015	1347513	keystroke_q	q	n/a
673.9525	0.134	1347905	keystroke_u	u	n/a
674.1315	0.165	1348263	keystroke_e	e	n/a
674.3115	0.12	1348623	keystroke_n	n	n/a
674.5365	0.12	1349073	keystroke_c	c	n/a
674.7315	0.15	1349463	keystroke_i	i	n/a
674.8975	0.164	1349795	keystroke_e	e	n/a
675.0165	0.1355	1350033	keystroke_s	s	n/a
675.722	0.165	1351444	keystroke_Key.space	Key.space	n/a
676.037	0.135	1352074	keystroke_b	b	n/a
676.187	0.15	1352374	keystroke_a	a	n/a
676.397	0.12	1352794	keystroke_r	r	n/a
676.592	0.135	1353184	keystroke_r	r	n/a
677.162	0.09	1354324	keystroke_e	e	n/a
677.327	0.12	1354654	keystroke_l	l	n/a
678.092	0.105	1356184	keystroke_Key.enter	Key.enter	n/a
678.2055	10.449	1356411	prompt	n/a	proceeds insured cooling rogers\n
678.9915	0.136	1357983	keystroke_p	p	n/a
679.1715	0.15	1358343	keystroke_r	r	n/a
679.3075	0.165	1358615	keystroke_o	o	n/a
679.4865	0.105	1358973	keystroke_c	c	n/a
679.7115	0.105	1359423	keystroke_e	e	n/a
679.9365	0.105	1359873	keystroke_e	e	n/a
680.2065	0.09	1360413	keystroke_d	d	n/a
680.4315	0.105	1360863	keystroke_s	s	n/a
681.017	0.134	1362034	keystroke_Key.space	Key.space	n/a
681.167	0.24	1362334	keystroke_i	i	n/a
681.332	0.12	1362664	keystroke_n	n	n/a
681.482	0.15	1362964	keystroke_s	s	n/a
681.647	0.135	1363294	keystroke_u	u	n/a
681.797	0.12	1363594	keystroke_r	r	n/a
681.872	0.195	1363744	keystroke_e	e	n/a
681.992	0.15	1363984	keystroke_s	s	n/a
682.621	0.121	1365242	keystroke_Key.backspace	Key.backspace	n/a
682.772	0.12	1365544	keystroke_d	d	n/a
682.997	0.105	1365994	keystroke_Key.space	Key.space	n/a
684.0015	0.09	1368003	keystroke_c	c	n/a
684.1515	0.06	1368303	keystroke_o	o	n/a
684.3015	0.09	1368603	keystroke_o	o	n/a
684.5115	0.105	1369023	keystroke_l	l	n/a
684.6915	0.1805	1369383	keystroke_i	i	n/a
684.887	0.165	1369774	keystroke_n	n	n/a
685.067	0.105	1370134	keystroke_g	g	n/a
685.382	0.015	1370764	keystroke_Key.space	Key.space	n/a
685.892	0.12	1371784	keystroke_r	r	n/a
686.042	0.165	1372084	keystroke_o	o	n/a
686.177	0.12	1372354	keystroke_g	g	n/a
686.387	0.21	1372774	keystroke_e	e	n/a
686.522	0.135	1373044	keystroke_r	r	n/a
686.702	0.1345	1373404	keystroke_s	s	n/a
688.5615	0.09	1377123	keystroke_Key.enter	Key.enter	n/a
688.6595	14.3645	1377319	prompt	n/a	pakistan browsing shift arcade\n
689.3415	0.12	1378683	keystroke_p	p	n/a
689.5665	0.09	1379133	keystroke_a	a	n/a
690.2115	0.09	1380423	keystroke_k	k	n/a
690.4215	0.105	1380843	keystroke_i	i	n/a
690.7215	0.165	1381443	keystroke_s	s	n/a
691.0365	0.09	1382073	keystroke_t	t	n/a
691.3515	0.12	1382703	keystroke_a	a	n/a
691.5615	0.09	1383123	keystroke_n	n	n/a
691.8165	0.135	1383633	keystroke_Key.space	Key.space	n/a
692.0715	0.12	1384143	keystroke_b	b	n/a
692.2365	0.12	1384473	keystroke_r	r	n/a
692.4015	0.15	1384803	keystroke_o	o	n/a
692.6265	0.135	1385253	keystroke_w	w	n/a
696.3495	0.102	1392699	keystroke_s	s	n/a
696.6465	0.255	1393293	keystroke_i	i	n/a
696.8115	0.15	1393623	keystroke_n	n	n/a
696.9465	0.075	1393893	keystroke_g	g	n/a
697.4715	0.105	1394943	keystroke_Key.space	Key.space	n/a
697.8465	0.12	1395693	keystroke_s	s	n/a
698.0865	0.09	1396173	keystroke_h	h	n/a
698.2815	0.165	1396563	keystroke_i	i	n/a
699.2715	0.12	1398543	keystroke_f	f	n/a
699.5265	0.105	1399053	keystroke_t	t	n/a
700.142	0.135	1400284	keystroke_Key.space	Key.space	n/a
700.382	0.12	1400764	keystroke_a	a	n/a
700.772	0.105	1401544	keystroke_r	r	n/a
701.057	0.105	1402114	keystroke_c	c	n/a
701.222	0.12	1402444	keystroke_a	a	n/a
701.417	0.135	1402834	keystroke_d	d	n/a
701.642	0.075	1403284	keystroke_e	e	n/a
702.917	0.105	1405834	keystroke_Key.enter	Key.enter	n/a
703.028	11.441	1406056	prompt	n/a	finally denver semi aspects\n
703.832	0.105	1407664	keystroke_f	f	n/a
703.967	0.105	1407934	keystroke_i	i	n/a
704.162	0.135	1408324	keystroke_n	n	n/a
704.342	0.12	1408684	keystroke_a	a	n/a
704.522	0.09	1409044	keystroke_l	l	n/a
704.717	0.09	1409434	keystroke_l	l	n/a
704.972	0.15	1409944	keystroke_y	y	n/a
705.182	0.135	1410364	keystroke_Key.space	Key.space	n/a
705.392	0.105	1410784	keystroke_d	d	n/a
705.992	0.105	1411984	keystroke_e	e	n/a
706.427	0.135	1412854	keystroke_n	n	n/a
706.682	0.135	1413364	keystroke_v	v	n/a
706.982	0.165	1413964	keystroke_e	e	n/a
707.102	0.12	1414204	keystroke_r	r	n/a
708.8275	0.135	1417655	keystroke_Key.space	Key.space	n/a
709.0675	0.165	1418135	keystroke_s	s	n/a
709.2325	0.135	1418465	keystroke_e	e	n/a
709.4275	0.12	1418855	keystroke_m	m	n/a
709.6675	0.105	1419335	keystroke_i	i	n/a
710.5825	0.1345	1421165	keystroke_Key.space	Key.space	n/a
710.807	0.15	1421614	keystroke_a	a	n/a
711.017	0.255	1422034	keystroke_s	s	n/a
711.407	0.12	1422814	keystroke_p	p	n/a
711.557	0.105	1423114	keystroke_e	e	n/a
711.827	0.075	1423654	keystroke_c	c	n/a
712.037	0.105	1424074	keystroke_t	t	n/a
712.217	0.135	1424434	keystroke_s	s	n/a
714.44	0.027	1428880	keystroke_Key.enter	Key.enter	n/a
714.474	11.9345	1428948	prompt	n/a	israel comfortable coin generation\n
715.277	0.105	1430554	keystroke_i	i	n/a
715.397	0.151	1430794	keystroke_s	s	n/a
715.622	0.165	1431244	keystroke_r	r	n/a
715.892	0.18	1431784	keystroke_a	a	n/a
716.282	0.105	1432564	keystroke_e	e	n/a
716.417	0.106	1432834	keystroke_l	l	n/a
716.8375	0.12	1433675	keystroke_Key.space	Key.space	n/a
717.1225	0.12	1434245	keystroke_c	c	n/a
717.2275	0.12	1434455	keystroke_o	o	n/a
717.4975	0.105	1434995	keystroke_m	m	n/a
717.9325	0.09	1435865	keystroke_f	f	n/a
718.0525	0.135	1436105	keystroke_o	o	n/a
718.1725	0.135	1436345	keystroke_r	r	n/a
718.5775	0.105	1437155	keystroke_t	t	n/a
718.7725	0.15	1437545	keystroke_a	a	n/a
718.9375	0.075	1437875	keystroke_b	b	n/a
719.0725	0.135	1438145	keystroke_l	l	n/a
719.2225	0.135	1438445	keystroke_e	e	n/a
719.3715	0.106	1438743	keystroke_Key.space	Key.space	n/a
719.6275	0.105	1439255	keystroke_c	c	n/a
719.8525	0.134	1439705	keystroke_o	o	n/a
719.9575	0.225	1439915	keystroke_i	i	n/a
720.1375	0.12	1440275	keystroke_n	n	n/a
720.7675	0.12	1441535	keystroke_Key.space	Key.space	n/a
721.0825	0.075	1442165	keystroke_g	g	n/a
721.2625	0.09	1442525	keystroke_e	e	n/a
721.4875	0.075	1442975	keystroke_n	n	n/a
721.5025	0.15	1443005	keystroke_e	e	n/a
721.6675	0.15	1443335	keystroke_r	r	n/a
721.7875	0.18	1443575	keystroke_a	a	n/a
722.0275	0.105	1444055	keystroke_t	t	n/a
722.1625	0.18	1444325	keystroke_i	i	n/a
722.2375	0.195	1444475	keystroke_o	o	n/a
722.3875	0.135	1444775	keystroke_n	n	n/a
726.3655	0.042	1452731	keystroke_Key.enter	Key.enter	n/a
726.413	10.016	1452826	prompt	n/a	distinction mcdonald how's shine\n
727.1275	0.09	1454255	keystroke_d	d	n/a
727.2775	0.12	1454555	keystroke_i	i	n/a
727.4275	0.18	1454855	keystroke_s	s	n/a
727.8025	0.105	1455605	keystroke_t	t	n/a
727.9525	0.225	1455905	keystroke_i	i	n/a
728.0875	0.165	1456175	keystroke_n	n	n/a
728.2675	0.105	1456535	keystroke_c	c	n/a
728.5525	0.12	1457105	keystroke_t	t	n/a
728.7025	0.24	1457405	keystroke_i	i	n/a
728.8375	0.255	1457675	keystroke_o	o	n/a
729.0175	0.135	1458035	keystroke_n	n	n/a
729.2275	0.135	1458455	keystroke_Key.space	Key.space	n/a
729.4975	0.12	1458995	keystroke_m	m	n/a
730.2775	0.105	1460555	keystroke_c	c	n/a
730.6375	0.105	1461275	keystroke_d	d	n/a
730.7575	0.135	1461515	keystroke_o	o	n/a
730.9375	0.165	1461875	keystroke_n	n	n/a
731.1175	0.12	1462235	keystroke_a	a	n/a
731.2675	0.12	1462535	keystroke_l	l	n/a
731.4025	0.09	1462805	keystroke_d	d	n/a
731.6725	0.12	1463345	keystroke_Key.space	Key.space	n/a
731.8825	0.195	1463765	keystroke_h	h	n/a
732.0025	0.195	1464005	keystroke_o	o	n/a
732.2275	0.105	1464455	keystroke_w	w	n/a
732.5125	0.135	1465025	keystroke_'	'	n/a
732.6775	0.135	1465355	keystroke_s	s	n/a
733.0675	0.105	1466135	keystroke_Key.space	Key.space	n/a
734.9575	0.15	1469915	keystroke_s	s	n/a
735.1225	0.15	1470245	keystroke_h	h	n/a
735.1975	0.18	1470395	keystroke_i	i	n/a
735.4375	0.165	1470875	keystroke_n	n	n/a
735.6175	0.075	1471235	keystroke_e	e	n/a
736.3375	0.09	1472675	keystroke_Key.enter	Key.enter	n/a
736.4335	19.0615	1472867	prompt	n/a	robot human starsmerchant sympathy\n
737.207	0.15	1474414	keystroke_r	r	n/a
737.373	0.105	1474746	keystroke_o	o	n/a
737.598	0.134	1475196	keystroke_b	b	n/a
737.777	0.166	1475554	keystroke_o	o	n/a
737.928	0.089	1475856	keystroke_t	t	n/a
738.167	0.12	1476334	keystroke_Key.space	Key.space	n/a
738.393	0.119	1476786	keystroke_h	h	n/a
738.452	0.12	1476904	keystroke_u	u	n/a
738.722	0.121	1477444	keystroke_m	m	n/a
738.857	0.15	1477714	keystroke_a	a	n/a
739.023	0.104	1478046	keystroke_n	n	n/a
739.322	0.135	1478644	keystroke_Key.space	Key.space	n/a
740.147	0.135	1480294	keystroke_s	s	n/a
740.313	0.119	1480626	keystroke_t	t	n/a
740.538	0.165	1481076	keystroke_a	a	n/a
740.642	0.151	1481284	keystroke_r	r	n/a
741.063	0.165	1482126	keystroke_s	s	n/a
741.498	0.135	1482996	keystroke_m	m	n/a
741.8275	0.165	1483655	keystroke_e	e	n/a
741.9475	0.12	1483895	keystroke_r	r	n/a
742.2625	0.075	1484525	keystroke_c	c	n/a
742.4275	0.09	1484855	keystroke_h	h	n/a
742.4875	0.15	1484975	keystroke_a	a	n/a
742.6825	0.1495	1485365	keystroke_n	n	n/a
742.833	0.074	1485666	keystroke_t	t	n/a
743.072	0.105	1486144	keystroke_Key.space	Key.space	n/a
743.5375	0.105	1487075	keystroke_d	d	n/a
743.7175	0.15	1487435	keystroke_y	y	n/a
744.0175	0.12	1488035	keystroke_m	m	n/a
744.2575	0.12	1488515	keystroke_p	p	n/a
744.3625	0.135	1488725	keystroke_a	a	n/a
744.5875	0.105	1489175	keystroke_t	t	n/a
744.6775	0.0905	1489355	keystroke_h	h	n/a
744.872	0.12	1489744	keystroke_y	y	n/a
749.165	0.072	1498330	keystroke_Key.left	Key.left	n/a
749.312	0.105	1498624	keystroke_Key.left	Key.left	n/a
749.507	0.105	1499014	keystroke_Key.left	Key.left	n/a
749.687	0.09	1499374	keystroke_Key.left	Key.left	n/a
749.852	0.12	1499704	keystroke_Key.left	Key.left	n/a
750.032	0.12	1500064	keystroke_Key.left	Key.left	n/a
750.227	0.12	1500454	keystroke_Key.left	Key.left	n/a
750.962	0.12	1501924	keystroke_Key.backspace	Key.backspace	n/a
751.203	0.104	1502406	keystroke_s	s	n/a
751.682	0.12	1503364	keystroke_Key.right	Key.right	n/a
751.892	0.12	1503784	keystroke_Key.right	Key.right	n/a
752.117	0.09	1504234	keystroke_Key.right	Key.right	n/a
752.282	0.12	1504564	keystroke_Key.right	Key.right	n/a
752.492	0.105	1504984	keystroke_Key.right	Key.right	n/a
752.687	0.105	1505374	keystroke_Key.right	Key.right	n/a
752.882	0.12	1505764	keystroke_Key.right	Key.right	n/a
753.452	0.165	1506904	keystroke_Key.right	Key.right	n/a
755.402	0.09	1510804	keystroke_Key.enter	Key.enter	n/a
755.4995	12.1	1510999	prompt	n/a	suites sustainable read investment\n
756.3785	0.195	1512757	keystroke_s	s	n/a
756.7675	0.165	1513535	keystroke_u	u	n/a
756.8725	0.18	1513745	keystroke_i	i	n/a
757.0535	0.149	1514107	keystroke_t	t	n/a
757.1885	0.194	1514377	keystroke_e	e	n/a
757.3675	0.165	1514735	keystroke_s	s	n/a
757.6525	0.135	1515305	keystroke_Key.space	Key.space	n/a
757.9825	0.105	1515965	keystroke_s	s	n/a
758.1325	0.15	1516265	keystroke_u	u	n/a
758.2525	0.135	1516505	keystroke_s	s	n/a
758.4775	0.105	1516955	keystroke_t	t	n/a
758.7325	0.18	1517465	keystroke_a	a	n/a
759.7375	0.195	1519475	keystroke_i	i	n/a
759.8275	0.15	1519655	keystroke_n	n	n/a
761.0725	0.121	1522145	keystroke_a	a	n/a
761.2375	0.135	1522475	keystroke_b	b	n/a
761.3125	0.165	1522625	keystroke_l	l	n/a
761.4485	0.0885	1522897	keystroke_e	e	n/a
762.0175	0.135	1524035	keystroke_Key.space	Key.space	n/a
762.3035	0.18	1524607	keystroke_r	r	n/a
762.4075	0.195	1524815	keystroke_e	e	n/a
762.6475	0.06	1525295	keystroke_a	a	n/a
762.8275	0.106	1525655	keystroke_d	d	n/a
763.127	0.12	1526254	keystroke_Key.space	Key.space	n/a
763.3685	0.194	1526737	keystroke_i	i	n/a
763.4885	0.135	1526977	keystroke_n	n	n/a
763.7735	0.089	1527547	keystroke_v	v	n/a
763.9675	0.1795	1527935	keystroke_e	e	n/a
764.132	0.1955	1528264	keystroke_s	s	n/a
764.6725	0.075	1529345	keystroke_t	t	n/a
765.032	0.136	1530064	keystroke_m	m	n/a
765.153	0.104	1530306	keystroke_e	e	n/a
765.272	0.1805	1530544	keystroke_n	n	n/a
765.407	0.1065	1530814	keystroke_t	t	n/a
767.4775	0.12	1534955	keystroke_Key.enter	Key.enter	n/a
767.6035	22.2715	1535207	prompt	n/a	consciousness review morning entries\n
768.3625	0.135	1536725	keystroke_c	c	n/a
768.4825	0.225	1536965	keystroke_o	o	n/a
768.6025	0.15	1537205	keystroke_n	n	n/a
768.7675	0.12	1537535	keystroke_s	s	n/a
769.0375	0.105	1538075	keystroke_c	c	n/a
769.1575	0.18	1538315	keystroke_i	i	n/a
769.2625	0.24	1538525	keystroke_o	o	n/a
769.3675	0.03	1538735	keystroke_i	i	n/a
769.4275	0.15	1538855	keystroke_u	u	n/a
769.5925	0.12	1539185	keystroke_s	s	n/a
769.7875	0.165	1539575	keystroke_n	n	n/a
769.8775	0.225	1539755	keystroke_e	e	n/a
769.9975	0.165	1539995	keystroke_s	s	n/a
770.2675	0.135	1540535	keystroke_s	s	n/a
770.5375	0.15	1541075	keystroke_Key.space	Key.space	n/a
771.1075	0.18	1542215	keystroke_r	r	n/a
771.2275	0.15	1542455	keystroke_e	e	n/a
771.5275	0.105	1543055	keystroke_v	v	n/a
771.8275	0.195	1543655	keystroke_i	i	n/a
771.9475	0.195	1543895	keystroke_e	e	n/a
772.0535	0.179	1544107	keystroke_w	w	n/a
772.3375	0.12	1544675	keystroke_Key.space	Key.space	n/a
774.2725	0.135	1548545	keystroke_Key.shift_r	Key.shift_r	n/a
774.3625	0.105	1548725	keystroke_Key.left	Key.left	n/a
774.6175	0.1205	1549235	keystroke_Key.left	Key.left	n/a
774.843	0.0895	1549686	keystroke_Key.left	Key.left	n/a
775.038	0.0895	1550076	keystroke_Key.left	Key.left	n/a
775.2325	0.0905	1550465	keystroke_Key.left	Key.left	n/a
775.4275	0.09	1550855	keystroke_Key.left	Key.left	n/a
775.6225	0.09	1551245	keystroke_Key.left	Key.left	n/a
775.848	0.0745	1551696	keystroke_Key.left	Key.left	n/a
776.0575	0.075	1552115	keystroke_Key.left	Key.left	n/a
776.2525	0.09	1552505	keystroke_Key.left	Key.left	n/a
776.4475	0.09	1552895	keystroke_Key.left	Key.left	n/a
776.6425	0.09	1553285	keystroke_Key.left	Key.left	n/a
776.8375	0.075	1553675	keystroke_Key.left	Key.left	n/a
777.0175	0.075	1554035	keystroke_Key.left	Key.left	n/a
777.1975	0.09	1554395	keystroke_Key.left	Key.left	n/a
779.7815	0	1559563	keystroke_Key.backspace	Key.backspace	n/a
780.6325	0.061	1561265	keystroke_Key.right	Key.right	n/a
780.8575	0.045	1561715	keystroke_Key.right	Key.right	n/a
781.0375	0.075	1562075	keystroke_Key.right	Key.right	n/a
781.2325	0.06	1562465	keystroke_Key.right	Key.right	n/a
781.4275	0.075	1562855	keystroke_Key.right	Key.right	n/a
781.6225	0.075	1563245	keystroke_Key.right	Key.right	n/a
781.8475	0.06	1563695	keystroke_Key.right	Key.right	n/a
782.0575	0.075	1564115	keystroke_Key.right	Key.right	n/a
782.2835	0.059	1564567	keystroke_Key.right	Key.right	n/a
782.4925	0.06	1564985	keystroke_Key.right	Key.right	n/a
782.7185	0.059	1565437	keystroke_Key.right	Key.right	n/a
782.9125	0.09	1565825	keystroke_Key.right	Key.right	n/a
783.1225	0.091	1566245	keystroke_Key.right	Key.right	n/a
783.3175	0.06	1566635	keystroke_Key.right	Key.right	n/a
785.1485	0.105	1570297	keystroke_m	m	n/a
785.4025	0.136	1570805	keystroke_o	o	n/a
786.0185	0.104	1572037	keystroke_r	r	n/a
786.1685	0.195	1572337	keystroke_n	n	n/a
786.2735	0.285	1572547	keystroke_i	i	n/a
786.4835	0.135	1572967	keystroke_n	n	n/a
786.7385	0.09	1573477	keystroke_g	g	n/a
786.9925	0.15	1573985	keystroke_Key.space	Key.space	n/a
787.4285	0.119	1574857	keystroke_e	e	n/a
787.5635	0.135	1575127	keystroke_n	n	n/a
787.8185	0.059	1575637	keystroke_t	t	n/a
788.0575	0.166	1576115	keystroke_r	r	n/a
788.3885	0.15	1576777	keystroke_i	i	n/a
788.5085	0.15	1577017	keystroke_e	e	n/a
788.5975	0.151	1577195	keystroke_s	s	n/a
789.7835	0.089	1579567	keystroke_Key.enter	Key.enter	n/a
789.8825	10.8075	1579765	prompt	n/a	fuzzy bishop situation cemetery\n
790.8025	0.121	1581605	keystroke_f	f	n/a
790.9085	0.105	1581817	keystroke_u	u	n/a
791.0725	0.121	1582145	keystroke_z	z	n/a
791.3135	0.12	1582627	keystroke_z	z	n/a
791.5535	0.075	1583107	keystroke_y	y	n/a
792.0325	0.12	1584065	keystroke_Key.space	Key.space	n/a
792.3485	0.18	1584697	keystroke_b	b	n/a
792.4685	0.135	1584937	keystroke_i	i	n/a
792.6185	0.15	1585237	keystroke_s	s	n/a
792.7985	0.18	1585597	keystroke_h	h	n/a
793.293	0.1655	1586586	keystroke_o	o	n/a
793.413	0.1055	1586826	keystroke_p	p	n/a
794.0735	0.134	1588147	keystroke_Key.space	Key.space	n/a
794.4785	0.21	1588957	keystroke_s	s	n/a
795.3635	0.12	1590727	keystroke_i	i	n/a
795.8885	0.1195	1591777	keystroke_t	t	n/a
796.023	0.12	1592046	keystroke_u	u	n/a
796.143	0.1505	1592286	keystroke_a	a	n/a
796.368	0.12	1592736	keystroke_t	t	n/a
796.503	0.18	1593006	keystroke_i	i	n/a
796.623	0.21	1593246	keystroke_o	o	n/a
796.818	0.075	1593636	keystroke_n	n	n/a
797.388	0.105	1594776	keystroke_Key.space	Key.space	n/a
797.673	0.075	1595346	keystroke_c	c	n/a
797.883	0.09	1595766	keystroke_e	e	n/a
798.303	0.135	1596606	keystroke_m	m	n/a
798.498	0.135	1596996	keystroke_e	e	n/a
798.798	0.075	1597596	keystroke_t	t	n/a
799.068	0.165	1598136	keystroke_e	e	n/a
799.188	0.15	1598376	keystroke_r	r	n/a
799.383	0.12	1598766	keystroke_y	y	n/a
800.583	0.1045	1601166	keystroke_Key.enter	Key.enter	n/a
800.694	13.181	1601388	prompt	n/a	feature food floppy earrings\n
801.4235	0.119	1602847	keystroke_f	f	n/a
801.6775	0.151	1603355	keystroke_e	e	n/a
801.8425	0.15	1603685	keystroke_a	a	n/a
802.0525	0.105	1604105	keystroke_t	t	n/a
802.2335	0.164	1604467	keystroke_u	u	n/a
802.4135	0.15	1604827	keystroke_r	r	n/a
802.5185	0.1645	1605037	keystroke_e	e	n/a
802.8325	0.12	1605665	keystroke_Key.space	Key.space	n/a
803.9435	0.104	1607887	keystroke_f	f	n/a
804.0625	0.105	1608125	keystroke_o	o	n/a
804.2575	0.136	1608515	keystroke_o	o	n/a
804.3775	0.12	1608755	keystroke_d	d	n/a
804.6325	0.1205	1609265	keystroke_Key.space	Key.space	n/a
805.188	0.12	1610376	keystroke_f	f	n/a
805.413	0.105	1610826	keystroke_l	l	n/a
805.638	0.105	1611276	keystroke_o	o	n/a
805.878	0.09	1611756	keystroke_p	p	n/a
806.028	0.09	1612056	keystroke_p	p	n/a
806.283	0.106	1612566	keystroke_y	y	n/a
806.493	0.135	1612986	keystroke_Key.space	Key.space	n/a
806.8685	0.074	1613737	keystroke_e	e	n/a
807.0485	0.135	1614097	keystroke_a	a	n/a
807.3025	0.121	1614605	keystroke_r	r	n/a
807.5275	0.105	1615055	keystroke_r	r	n/a
807.7975	0.241	1615595	keystroke_i	i	n/a
807.9335	0.18	1615867	keystroke_n	n	n/a
808.0835	0.089	1616167	keystroke_g	g	n/a
808.2485	0.135	1616497	keystroke_s	s	n/a
813.8465	0.027	1627693	keystroke_Key.enter	Key.enter	n/a
813.881	9.294	1627762	prompt	n/a	contractors genes essay accurate\n
814.7285	0.12	1629457	keystroke_c	c	n/a
814.8635	0.195	1629727	keystroke_o	o	n/a
814.9985	0.135	1629997	keystroke_n	n	n/a
815.1785	0.135	1630357	keystroke_r	r	n/a
815.9435	0.135	1631887	keystroke_Key.backspace	Key.backspace	n/a
816.0935	0.09	1632187	keystroke_t	t	n/a
816.2885	0.12	1632577	keystroke_r	r	n/a
816.4235	0.135	1632847	keystroke_a	a	n/a
816.6785	0.09	1633357	keystroke_c	c	n/a
816.9335	0.09	1633867	keystroke_t	t	n/a
817.0685	0.165	1634137	keystroke_o	o	n/a
817.1885	0.12	1634377	keystroke_r	r	n/a
817.3835	0.15	1634767	keystroke_s	s	n/a
817.5935	0.15	1635187	keystroke_Key.space	Key.space	n/a
817.9685	0.105	1635937	keystroke_g	g	n/a
818.1635	0.12	1636327	keystroke_e	e	n/a
818.3285	0.18	1636657	keystroke_n	n	n/a
818.4635	0.135	1636927	keystroke_e	e	n/a
818.6585	0.15	1637317	keystroke_s	s	n/a
818.8535	0.135	1637707	keystroke_Key.space	Key.space	n/a
819.1685	0.105	1638337	keystroke_e	e	n/a
819.3335	0.12	1638667	keystroke_s	s	n/a
819.5435	0.135	1639087	keystroke_s	s	n/a
819.8135	0.135	1639627	keystroke_a	a	n/a
820.0235	0.12	1640047	keystroke_y	y	n/a
820.2035	0.15	1640407	keystroke_Key.space	Key.space	n/a
820.5635	0.135	1641127	keystroke_a	a	n/a
821.1335	0.075	1642267	keystroke_c	c	n/a
821.3135	0.09	1642627	keystroke_c	c	n/a
821.4635	0.135	1642927	keystroke_u	u	n/a
821.5835	0.135	1643167	keystroke_r	r	n/a
821.7335	0.165	1643467	keystroke_a	a	n/a
821.9885	0.15	1643977	keystroke_t	t	n/a
822.0935	0.165	1644187	keystroke_e	e	n/a
823.0685	0.105	1646137	keystroke_Key.enter	Key.enter	n/a
823.178	8.727	1646356	prompt	n/a	holders writes spreading costa\n
823.9535	0.18	1647907	keystroke_h	h	n/a
824.0735	0.12	1648147	keystroke_o	o	n/a
824.2835	0.18	1648567	keystroke_l	l	n/a
824.4185	0.075	1648837	keystroke_d	d	n/a
824.6135	0.165	1649227	keystroke_e	e	n/a
824.7185	0.18	1649437	keystroke_r	r	n/a
824.8535	0.18	1649707	keystroke_s	s	n/a
825.3035	0.12	1650607	keystroke_Key.space	Key.space	n/a
825.5735	0.15	1651147	keystroke_w	w	n/a
825.8135	0.105	1651627	keystroke_r	r	n/a
825.9485	0.135	1651897	keystroke_i	i	n/a
826.0535	0.105	1652107	keystroke_t	t	n/a
826.5785	0.12	1653157	keystroke_e	e	n/a
826.6835	0.105	1653367	keystroke_s	s	n/a
827.9875	0.135	1655975	keystroke_Key.space	Key.space	n/a
828.2135	0.149	1656427	keystroke_s	s	n/a
828.4835	0.165	1656967	keystroke_p	p	n/a
828.6175	0.1965	1657235	keystroke_r	r	n/a
828.723	0.166	1657446	keystroke_e	e	n/a
828.873	0.15	1657746	keystroke_a	a	n/a
829.098	0.105	1658196	keystroke_d	d	n/a
829.293	0.21	1658586	keystroke_i	i	n/a
829.413	0.135	1658826	keystroke_n	n	n/a
829.533	0.12	1659066	keystroke_g	g	n/a
829.743	0.15	1659486	keystroke_Key.space	Key.space	n/a
830.238	0.151	1660476	keystroke_c	c	n/a
830.404	0.149	1660808	keystroke_o	o	n/a
830.523	0.195	1661046	keystroke_s	s	n/a
830.748	0.12	1661496	keystroke_t	t	n/a
830.898	0.165	1661796	keystroke_a	a	n/a
831.798	0.105	1663596	keystroke_Key.enter	Key.enter	n/a
831.911	13.344	1663822	prompt	n/a	poor purchases cameroon brisbane\n
832.834	0.149	1665668	keystroke_p	p	n/a
833.073	0.105	1666146	keystroke_o	o	n/a
833.239	0.164	1666478	keystroke_o	o	n/a
833.389	0.18	1666778	keystroke_r	r	n/a
833.569	0.134	1667138	keystroke_Key.space	Key.space	n/a
833.884	0.105	1667768	keystroke_p	p	n/a
834.123	0.105	1668246	keystroke_u	u	n/a
834.303	0.121	1668606	keystroke_r	r	n/a
834.7835	0.105	1669567	keystroke_c	c	n/a
834.9335	0.105	1669867	keystroke_h	h	n/a
835.0685	0.12	1670137	keystroke_a	a	n/a
835.3235	0.18	1670647	keystroke_s	s	n/a
835.4585	0.21	1670917	keystroke_e	e	n/a
835.6235	0.195	1671247	keystroke_s	s	n/a
836.958	0.135	1673916	keystroke_Key.space	Key.space	n/a
837.648	0.075	1675296	keystroke_c	c	n/a
837.993	0.15	1675986	keystroke_a	a	n/a
838.203	0.12	1676406	keystroke_m	m	n/a
838.353	0.18	1676706	keystroke_e	e	n/a
838.638	0.12	1677276	keystroke_r	r	n/a
838.803	0.09	1677606	keystroke_o	o	n/a
838.968	0.21	1677936	keystroke_o	o	n/a
839.163	0.12	1678326	keystroke_n	n	n/a
840.003	0.12	1680006	keystroke_Key.space	Key.space	n/a
840.498	0.09	1680996	keystroke_b	b	n/a
