onset	duration	sample	value	key	prompt_text
1.5245	14.038	3049	prompt	n/a	the quick brown fox jumps over a lazy dog\n
6.5905	0.0285	13181	keystroke	t	n/a
6.633	0.0905	13266	keystroke	h	n/a
6.679	0.1055	13358	keystroke	e	n/a
6.9035	0.105	13807	keystroke	Key.space	n/a
7.819	0.0605	15638	keystroke	q	n/a
7.969	0.1055	15938	keystroke	u	n/a
8.0435	0.091	16087	keystroke	i	n/a
8.209	0.1045	16418	keystroke	c	n/a
8.2995	0.0745	16599	keystroke	k	n/a
8.464	0.105	16928	keystroke	Key.space	n/a
9.0645	0.09	18129	keystroke	b	n/a
9.2135	0.105	18427	keystroke	r	n/a
9.3345	0.06	18669	keystroke	o	n/a
9.724	0.09	19448	keystroke	w	n/a
9.9495	0.075	19899	keystroke	n	n/a
10.144	0.0745	20288	keystroke	Key.space	n/a
10.4895	0.0745	20979	keystroke	f	n/a
10.6095	0.059	21219	keystroke	o	n/a
10.774	0.1195	21548	keystroke	x	n/a
10.8795	0.0595	21759	keystroke	Key.space	n/a
11.044	0.0455	22088	keystroke	j	n/a
11.1795	0.059	22359	keystroke	u	n/a
11.3135	0.09	22627	keystroke	m	n/a
11.4935	0.0905	22987	keystroke	p	n/a
11.5995	0.09	23199	keystroke	s	n/a
11.7195	0.074	23439	keystroke	Key.space	n/a
11.9435	0.091	23887	keystroke	o	n/a
12.0945	0.1195	24189	keystroke	v	n/a
12.274	0.1055	24548	keystroke	e	n/a
12.3495	0.089	24699	keystroke	r	n/a
12.4235	0.075	24847	keystroke	Key.space	n/a
12.5145	0.0895	25029	keystroke	a	n/a
12.6185	0.091	25237	keystroke	Key.space	n/a
12.8595	0.075	25719	keystroke	l	n/a
12.9495	0.1045	25899	keystroke	a	n/a
13.5495	0.119	27099	keystroke	z	n/a
13.954	0.075	27908	keystroke	y	n/a
14.134	0.06	28268	keystroke	Key.space	n/a
14.9885	0.09	29977	keystroke	d	n/a
15.094	0.0905	30188	keystroke	o	n/a
15.1995	0.09	30399	keystroke	g	n/a
15.4845	0.074	30969	keystroke	Key.enter	n/a
15.5685	8.438	31137	prompt	n/a	paragraph positioning footage debate\n
16.7295	0.075	33459	keystroke	p	n/a
16.8635	0.121	33727	keystroke	a	n/a
17.0135	0.1205	34027	keystroke	r	n/a
17.1195	0.1045	34239	keystroke	a	n/a
17.7635	0.1055	35527	keystroke	g	n/a
17.8545	0.075	35709	keystroke	r	n/a
17.959	0.09	35918	keystroke	a	n/a
18.0795	0.119	36159	keystroke	p	n/a
18.2885	0.1055	36577	keystroke	h	n/a
19.0095	0.105	38019	keystroke	Key.space	n/a
19.2795	0.09	38559	keystroke	p	n/a
19.4595	0.09	38919	keystroke	o	n/a
19.5645	0.0895	39129	keystroke	s	n/a
19.6685	0.091	39337	keystroke	i	n/a
19.9095	0.12	39819	keystroke	t	n/a
19.9845	0.135	39969	keystroke	i	n/a
20.0885	0.121	40177	keystroke	o	n/a
20.1945	0.105	40389	keystroke	n	n/a
20.5985	0.106	41197	keystroke	i	n/a
20.659	0.1045	41318	keystroke	n	n/a
20.7195	0.105	41439	keystroke	g	n/a
20.9595	0.06	41919	keystroke	Key.space	n/a
21.2595	0.06	42519	keystroke	f	n/a
21.364	0.0745	42728	keystroke	o	n/a
21.5145	0.075	43029	keystroke	o	n/a
21.604	0.091	43208	keystroke	t	n/a
21.7695	0.105	43539	keystroke	a	n/a
21.9345	0.105	43869	keystroke	g	n/a
22.0535	0.076	44107	keystroke	e	n/a
22.3535	0.076	44707	keystroke	Key.space	n/a
22.6245	0.105	45249	keystroke	d	n/a
22.7895	0.12	45579	keystroke	e	n/a
23.074	0.0755	46148	keystroke	b	n/a
23.224	0.135	46448	keystroke	a	n/a
23.3895	0.1045	46779	keystroke	t	n/a
23.4795	0.12	46959	keystroke	e	n/a
23.8995	0.1045	47799	keystroke	Key.enter	n/a
24.0115	8.7095	48023	prompt	n/a	tears would trace except\n
24.7235	0.075	49447	keystroke	t	n/a
24.8445	0.09	49689	keystroke	e	n/a
25.0395	0.12	50079	keystroke	a	n/a
25.129	0.1055	50258	keystroke	r	n/a
25.3245	0.105	50649	keystroke	s	n/a
25.4445	0.104	50889	keystroke	Key.space	n/a
25.6995	0.09	51399	keystroke	w	n/a
25.7895	0.1645	51579	keystroke	o	n/a
25.909	0.075	51818	keystroke	u	n/a
26.1045	0.105	52209	keystroke	k	n/a
26.1795	0.075	52359	keystroke	d	n/a
26.3595	0.074	52719	keystroke	Key.space	n/a
26.6445	0.06	53289	keystroke	Key.backspace	n/a
26.779	0.0755	53558	keystroke	Key.backspace	n/a
26.9295	0.075	53859	keystroke	Key.backspace	n/a
27.47	0.0745	54940	keystroke	l	n/a
27.604	0.075	55208	keystroke	d	n/a
28.009	0.075	56018	keystroke	Key.space	n/a
28.9695	0.105	57939	keystroke	t	n/a
28.9995	0.119	57999	keystroke	r	n/a
29.1795	0.135	58359	keystroke	a	n/a
29.3735	0.15	58747	keystroke	e	n/a
29.8845	0.104	59769	keystroke	Key.backspace	n/a
29.9445	0.09	59889	keystroke	c	n/a
29.9895	0.12	59979	keystroke	e	n/a
30.3495	0.09	60699	keystroke	Key.space	n/a
30.7095	0.075	61419	keystroke	e	n/a
30.9485	0.121	61897	keystroke	x	n/a
31.3845	0.105	62769	keystroke	c	n/a
31.4745	0.135	62949	keystroke	e	n/a
31.714	0.0755	63428	keystroke	p	n/a
31.834	0.105	63668	keystroke	t	n/a
32.599	0.1205	65198	keystroke	Key.enter	n/a
32.725	7.301	65450	prompt	n/a	watt submitted updates concert\n
33.6195	0.1045	67239	keystroke	w	n/a
33.7845	0.075	67569	keystroke	a	n/a
34.01	0.0445	68020	keystroke	t	n/a
34.1295	0.075	68259	keystroke	y	n/a
34.579	0.09	69158	keystroke	Key.backspace	n/a
34.7595	0.045	69519	keystroke	t	n/a
35.2245	0.105	70449	keystroke	Key.space	n/a
35.3745	0.12	70749	keystroke	s	n/a
35.5095	0.09	71019	keystroke	u	n/a
35.69	0.0745	71380	keystroke	b	n/a
35.7495	0.0895	71499	keystroke	m	n/a
35.885	0.104	71770	keystroke	i	n/a
36.004	0.0755	72008	keystroke	t	n/a
36.154	0.075	72308	keystroke	t	n/a
36.304	0.091	72608	keystroke	e	n/a
36.4695	0.105	72939	keystroke	d	n/a
36.6045	0.0745	73209	keystroke	Key.space	n/a
36.844	0.091	73688	keystroke	u	n/a
37.085	0.104	74170	keystroke	p	n/a
37.37	0.105	74740	keystroke	d	n/a
37.475	0.135	74950	keystroke	a	n/a
37.6545	0.1055	75309	keystroke	t	n/a
37.7445	0.0905	75489	keystroke	e	n/a
38.045	0.09	76090	keystroke	s	n/a
38.7945	0.09	77589	keystroke	Key.space	n/a
38.9595	0.09	77919	keystroke	c	n/a
39.0795	0.1055	78159	keystroke	o	n/a
39.1545	0.12	78309	keystroke	n	n/a
39.2595	0.075	78519	keystroke	c	n/a
39.3945	0.135	78789	keystroke	e	n/a
39.47	0.0895	78940	keystroke	r	n/a
39.6645	0.0745	79329	keystroke	t	n/a
39.919	0.105	79838	keystroke	Key.enter	n/a
40.0295	7.542	80059	prompt	n/a	sharon estimation fireplace position\n
40.835	0.075	81670	keystroke	s	n/a
40.894	0.105	81788	keystroke	h	n/a
41.014	0.091	82028	keystroke	a	n/a
41.135	0.1045	82270	keystroke	r	n/a
41.2245	0.12	82449	keystroke	o	n/a
41.3295	0.09	82659	keystroke	n	n/a
41.6145	0.104	83229	keystroke	Key.space	n/a
41.99	0.0745	83980	keystroke	e	n/a
42.3035	0.0905	84607	keystroke	s	n/a
42.5445	0.09	85089	keystroke	t	n/a
42.6635	0.1065	85327	keystroke	i	n/a
43.189	0.0905	86378	keystroke	m	n/a
43.294	0.1055	86588	keystroke	a	n/a
43.474	0.09	86948	keystroke	t	n/a
43.549	0.135	87098	keystroke	i	n/a
43.6245	0.1205	87249	keystroke	o	n/a
43.6695	0.135	87339	keystroke	n	n/a
44.149	0.0755	88298	keystroke	Key.space	n/a
44.5545	0.0905	89109	keystroke	f	n/a
44.645	0.105	89290	keystroke	i	n/a
44.735	0.0895	89470	keystroke	r	n/a
44.779	0.0905	89558	keystroke	e	n/a
45.1395	0.135	90279	keystroke	p	n/a
45.2295	0.12	90459	keystroke	l	n/a
45.3345	0.105	90669	keystroke	a	n/a
45.4845	0.105	90969	keystroke	c	n/a
45.5595	0.12	91119	keystroke	e	n/a
45.9945	0.09	91989	keystroke	Key.space	n/a
46.2495	0.09	92499	keystroke	p	n/a
46.3095	0.1055	92619	keystroke	o	n/a
46.46	0.0895	92920	keystroke	s	n/a
46.5645	0.075	93129	keystroke	i	n/a
46.7145	0.0605	93429	keystroke	t	n/a
46.744	0.151	93488	keystroke	i	n/a
46.82	0.135	93640	keystroke	o	n/a
46.8795	0.1055	93759	keystroke	n	n/a
47.479	0.0905	94958	keystroke	Key.enter	n/a
47.5765	9.4305	95153	prompt	n/a	medication production younger ribbon\n
48.259	0.105	96518	keystroke	m	n/a
48.8445	0.045	97689	keystroke	e	n/a
49.0245	0.075	98049	keystroke	d	n/a
49.1145	0.09	98229	keystroke	i	n/a
49.235	0.1045	98470	keystroke	c	n/a
49.3545	0.09	98709	keystroke	a	n/a
49.5345	0.0905	99069	keystroke	t	n/a
49.6395	0.045	99279	keystroke	i	n/a
49.64	0.1495	99280	keystroke	o	n/a
49.7295	0.135	99459	keystroke	n	n/a
50.4795	0.075	100959	keystroke	Key.space	n/a
50.704	0.105	101408	keystroke	p	n/a
51.1245	0.075	102249	keystroke	r	n/a
51.2145	0.09	102429	keystroke	o	n/a
51.5595	0.075	103119	keystroke	d	n/a
51.62	0.1195	103240	keystroke	u	n/a
51.7545	0.0905	103509	keystroke	c	n/a
51.964	0.0755	103928	keystroke	t	n/a
52.0245	0.1195	104049	keystroke	i	n/a
52.054	0.1505	104108	keystroke	o	n/a
52.16	0.1045	104320	keystroke	n	n/a
52.414	0.0605	104828	keystroke	Key.space	n/a
53.9295	0.075	107859	keystroke	y	n/a
54.2895	0.12	108579	keystroke	o	n/a
54.3795	0.1205	108759	keystroke	u	n/a
54.6045	0.09	109209	keystroke	n	n/a
54.7245	0.09	109449	keystroke	g	n/a
54.9345	0.105	109869	keystroke	e	n/a
55.0095	0.09	110019	keystroke	r	n/a
55.3845	0.09	110769	keystroke	Key.space	n/a
55.685	0.0895	111370	keystroke	r	n/a
55.8045	0.075	111609	keystroke	i	n/a
55.9845	0.06	111969	keystroke	b	n/a
56.1495	0.045	112299	keystroke	b	n/a
56.27	0.1195	112540	keystroke	o	n/a
56.3445	0.09	112689	keystroke	n	n/a
56.8845	0.12	113769	keystroke	Key.enter	n/a
57.011	7.81	114022	prompt	n/a	suits toolbar beast stanley\n
57.785	0.104	115570	keystroke	s	n/a
57.905	0.119	115810	keystroke	u	n/a
57.994	0.09	115988	keystroke	i	n/a
58.085	0.134	116170	keystroke	t	n/a
58.264	0.121	116528	keystroke	s	n/a
58.399	0.105	116798	keystroke	Key.space	n/a
58.699	0.075	117398	keystroke	t	n/a
58.79	0.0895	117580	keystroke	o	n/a
58.9245	0.075	117849	keystroke	o	n/a
59.0745	0.1355	118149	keystroke	l	n/a
59.1945	0.0905	118389	keystroke	e	n/a
59.6145	0.075	119229	keystroke	Key.backspace	n/a
59.8095	0.075	119619	keystroke	b	n/a
59.9895	0.09	119979	keystroke	e	n/a
60.05	0.1045	120100	keystroke	r	n/a
60.619	0.06	121238	keystroke	Key.backspace	n/a
60.754	0.091	121508	keystroke	Key.backspace	n/a
60.86	0.135	121720	keystroke	a	n/a
61.01	0.105	122020	keystroke	r	n/a
62.045	0.0735	124090	keystroke	Key.space	n/a
62.27	0.0895	124540	keystroke	b	n/a
62.3295	0.1055	124659	keystroke	e	n/a
62.495	0.075	124990	keystroke	a	n/a
62.525	0.15	125050	keystroke	s	n/a
62.779	0.1055	125558	keystroke	t	n/a
63.1395	0.09	126279	keystroke	Key.space	n/a
63.4245	0.09	126849	keystroke	s	n/a
63.5895	0.105	127179	keystroke	t	n/a
63.7545	0.1205	127509	keystroke	a	n/a
63.8895	0.06	127779	keystroke	n	n/a
64.1595	0.0905	128319	keystroke	l	n/a
64.37	0.0895	128740	keystroke	e	n/a
64.5045	0.075	129009	keystroke	y	n/a
64.7145	0.105	129429	keystroke	Key.enter	n/a
64.828	9.383	129656	prompt	n/a	model rights traditional chrome\n
65.5405	0.104	131081	keystroke	m	n/a
65.7195	0.105	131439	keystroke	o	n/a
65.8395	0.12	131679	keystroke	d	n/a
66.0195	0.09	132039	keystroke	e	n/a
66.6195	0.105	133239	keystroke	k	n/a
67.534	0.075	135068	keystroke	Key.backspace	n/a
67.7895	0.0905	135579	keystroke	l	n/a
69.0945	0.075	138189	keystroke	Key.space	n/a
69.35	0.0745	138700	keystroke	r	n/a
69.4395	0.09	138879	keystroke	i	n/a
69.5445	0.075	139089	keystroke	g	n/a
69.6345	0.075	139269	keystroke	h	n/a
70.0995	0.105	140199	keystroke	t	n/a
70.2345	0.105	140469	keystroke	s	n/a
70.4895	0.09	140979	keystroke	Key.space	n/a
70.9695	0.09	141939	keystroke	t	n/a
71.0145	0.09	142029	keystroke	r	n/a
71.225	0.1195	142450	keystroke	a	n/a
71.2845	0.135	142569	keystroke	d	n/a
71.4645	0.12	142929	keystroke	i	n/a
71.6445	0.09	143289	keystroke	t	n/a
71.75	0.12	143500	keystroke	i	n/a
71.81	0.1045	143620	keystroke	o	n/a
72.3945	0.075	144789	keystroke	n	n/a
72.7095	0.105	145419	keystroke	a	n/a
72.7995	0.0605	145599	keystroke	l	n/a
73.025	0.1045	146050	keystroke	Key.space	n/a
73.2645	0.1055	146529	keystroke	c	n/a
73.3395	0.1055	146679	keystroke	h	n/a
73.5045	0.09	147009	keystroke	r	n/a
73.5645	0.12	147129	keystroke	o	n/a
73.6245	0.105	147249	keystroke	m	n/a
73.6995	0.0755	147399	keystroke	e	n/a
74.1045	0.105	148209	keystroke	Key.enter	n/a
74.2155	11.7705	148431	prompt	n/a	therapist constitutes property spanish\n
75.0345	0.09	150069	keystroke	t	n/a
75.1095	0.12	150219	keystroke	h	n/a
75.2145	0.0895	150429	keystroke	e	n/a
75.289	0.075	150578	keystroke	r	n/a
75.4395	0.0905	150879	keystroke	a	n/a
75.6645	0.09	151329	keystroke	p	n/a
76.009	0.075	152018	keystroke	s	n/a
76.1	0.074	152200	keystroke	i	n/a
76.355	0.044	152710	keystroke	Key.backspace	n/a
76.46	0.074	152920	keystroke	Key.backspace	n/a
76.67	0.1045	153340	keystroke	i	n/a
76.7145	0.075	153429	keystroke	s	n/a
76.8345	0.09	153669	keystroke	t	n/a
77.419	0.0755	154838	keystroke	Key.space	n/a
77.6295	0.105	155259	keystroke	c	n/a
77.6745	0.105	155349	keystroke	o	n/a
77.765	0.1045	155530	keystroke	n	n/a
77.9295	0.075	155859	keystroke	s	n/a
78.29	0.0745	156580	keystroke	t	n/a
78.7995	0.1045	157599	keystroke	i	n/a
79.115	0.089	158230	keystroke	t	n/a
79.22	0.089	158440	keystroke	u	n/a
79.655	0.09	159310	keystroke	t	n/a
79.73	0.089	159460	keystroke	e	n/a
79.895	0.09	159790	keystroke	s	n/a
80.539	0.106	161078	keystroke	Key.space	n/a
80.945	0.105	161890	keystroke	p	n/a
81.095	0.075	162190	keystroke	r	n/a
81.184	0.091	162368	keystroke	o	n/a
81.38	0.06	162760	keystroke	p	n/a
81.815	0.105	163630	keystroke	e	n/a
81.875	0.09	163750	keystroke	r	n/a
82.055	0.09	164110	keystroke	t	n/a
83.2545	0.09	166509	keystroke	y	n/a
84.4095	0.09	168819	keystroke	Key.space	n/a
84.7995	0.045	169599	keystroke	s	n/a
84.9345	0.09	169869	keystroke	p	n/a
85.0995	0.09	170199	keystroke	a	n/a
85.2045	0.1055	170409	keystroke	n	n/a
85.3545	0.075	170709	keystroke	s	n/a
85.3995	0.0755	170799	keystroke	i	n/a
85.5495	0.105	171099	keystroke	h	n/a
85.8645	0.12	171729	keystroke	Key.enter	n/a
85.989	9.958	171978	prompt	n/a	beta electronics username elements\n
89.3175	0.0275	178635	keystroke	b	n/a
89.36	0.135	178720	keystroke	e	n/a
89.7795	0.0605	179559	keystroke	t	n/a
89.9745	0.09	179949	keystroke	a	n/a
90.2295	0.015	180459	keystroke	Key.space	n/a
90.665	0.0895	181330	keystroke	e	n/a
90.83	0.0745	181660	keystroke	l	n/a
90.8895	0.09	181779	keystroke	e	n/a
91.085	0.15	182170	keystroke	c	n/a
91.37	0.075	182740	keystroke	t	n/a
91.865	0.0895	183730	keystroke	r	n/a
92.27	0.12	184540	keystroke	o	n/a
92.3445	0.12	184689	keystroke	n	n/a
92.5245	0.12	185049	keystroke	i	n/a
92.6445	0.0745	185289	keystroke	c	n/a
92.8545	0.0905	185709	keystroke	s	n/a
93.3345	0.075	186669	keystroke	Key.space	n/a
93.5145	0.12	187029	keystroke	u	n/a
93.6195	0.12	187239	keystroke	s	n/a
93.7545	0.09	187509	keystroke	e	n/a
93.86	0.0745	187720	keystroke	r	n/a
93.9645	0.09	187929	keystroke	n	n/a
94.07	0.1045	188140	keystroke	a	n/a
94.1595	0.1055	188319	keystroke	m	n/a
94.2795	0.1045	188559	keystroke	e	n/a
94.3995	0.1045	188799	keystroke	Key.space	n/a
94.639	0.076	189278	keystroke	e	n/a
94.775	0.105	189550	keystroke	l	n/a
94.864	0.075	189728	keystroke	e	n/a
94.955	0.089	189910	keystroke	m	n/a
95.09	0.09	190180	keystroke	e	n/a
95.15	0.105	190300	keystroke	n	n/a
95.255	0.075	190510	keystroke	t	n/a
95.42	0.089	190840	keystroke	s	n/a
95.8245	0.12	191649	keystroke	Key.enter	n/a
95.952	14.995	191904	prompt	n/a	representation spare mysql sponsors\n
96.6045	0.075	193209	keystroke	r	n/a
96.6495	0.09	193299	keystroke	e	n/a
96.8145	0.105	193629	keystroke	p	n/a
96.9795	0.0905	193959	keystroke	r	n/a
97.0245	0.105	194049	keystroke	e	n/a
97.5645	0.075	195129	keystroke	s	n/a
97.76	0.06	195520	keystroke	e	n/a
97.8495	0.09	195699	keystroke	n	n/a
97.9245	0.09	195849	keystroke	t	n/a
98.1195	0.0905	196239	keystroke	a	n/a
98.24	0.0895	196480	keystroke	t	n/a
98.2995	0.21	196599	keystroke	i	n/a
98.3745	0.15	196749	keystroke	o	n/a
98.4945	0.1205	196989	keystroke	n	n/a
99.154	0.091	198308	keystroke	Key.space	n/a
99.2595	0.1045	198519	keystroke	s	n/a
99.44	0.014	198880	keystroke	p	n/a
99.695	0.1195	199390	keystroke	a	n/a
99.8745	0.12	199749	keystroke	r	n/a
99.9795	0.06	199959	keystroke	e	n/a
100.7745	0.0755	201549	keystroke	Key.space	n/a
100.955	0.09	201910	keystroke	m	n/a
101.105	0.075	202210	keystroke	y	n/a
101.405	0.089	202810	keystroke	s	n/a
101.915	0.06	203830	keystroke	q	n/a
102.334	0.061	204668	keystroke	l	n/a
102.919	0.061	205838	keystroke	Key.space	n/a
103.174	0.09	206348	keystroke	s	n/a
103.294	0.0755	206588	keystroke	o	n/a
103.519	0.09	207038	keystroke	n	n/a
104.134	0.046	208268	keystroke	Key.backspace	n/a
104.255	0.075	208510	keystroke	Key.backspace	n/a
104.6	0.09	209200	keystroke	p	n/a
105.125	0.12	210250	keystroke	o	n/a
105.1995	0.1055	210399	keystroke	n	n/a
105.469	0.1205	210938	keystroke	e	n/a
105.5595	0.1055	211119	keystroke	r	n/a
105.964	0.045	211928	keystroke	Key.backspace	n/a
106.0845	0.075	212169	keystroke	Key.backspace	n/a
106.175	0.089	212350	keystroke	s	n/a
106.204	0.135	212408	keystroke	e	n/a
106.31	0.09	212620	keystroke	r	n/a
106.94	0.2545	213880	keystroke	s	n/a
108.574	0.09	217148	keystroke	Key.backspace	n/a
108.755	0.059	217510	keystroke	Key.backspace	n/a
108.8745	0.0755	217749	keystroke	Key.backspace	n/a
109.49	0.075	218980	keystroke	o	n/a
109.5345	0.09	219069	keystroke	r	n/a
109.61	0.1045	219220	keystroke	s	n/a
110.84	0.1045	221680	keystroke	Key.enter	n/a
110.9515	8.1095	221903	prompt	n/a	formats interference lightbox concerts\n
111.9195	0.045	223839	keystroke	f	n/a
111.98	0.1045	223960	keystroke	o	n/a
112.07	0.0445	224140	keystroke	r	n/a
112.1595	0.12	224319	keystroke	m	n/a
112.2945	0.105	224589	keystroke	a	n/a
112.4145	0.09	224829	keystroke	t	n/a
112.6245	0.0905	225249	keystroke	s	n/a
113.15	0.12	226300	keystroke	Key.space	n/a
113.405	0.1045	226810	keystroke	i	n/a
113.4495	0.1205	226899	keystroke	n	n/a
113.585	0.06	227170	keystroke	t	n/a
113.69	0.12	227380	keystroke	e	n/a
113.78	0.0745	227560	keystroke	r	n/a
114.035	0.0895	228070	keystroke	f	n/a
114.1545	0.1055	228309	keystroke	e	n/a
114.2295	0.12	228459	keystroke	r	n/a
114.3345	0.1355	228669	keystroke	e	n/a
114.4845	0.09	228969	keystroke	n	n/a
114.5595	0.075	229119	keystroke	c	n/a
114.6195	0.12	229239	keystroke	e	n/a
114.934	0.075	229868	keystroke	Key.space	n/a
115.114	0.105	230228	keystroke	l	n/a
115.325	0.074	230650	keystroke	i	n/a
115.4	0.075	230800	keystroke	g	n/a
115.49	0.1045	230980	keystroke	h	n/a
115.5795	0.075	231159	keystroke	t	n/a
116.1495	0.075	232299	keystroke	b	n/a
116.2395	0.0755	232479	keystroke	o	n/a
116.5695	0.075	233139	keystroke	x	n/a
117.0645	0.0755	234129	keystroke	Key.space	n/a
117.365	0.0745	234730	keystroke	c	n/a
117.4695	0.06	234939	keystroke	o	n/a
117.5145	0.09	235029	keystroke	n	n/a
117.62	0.0595	235240	keystroke	c	n/a
117.7245	0.135	235449	keystroke	e	n/a
117.8145	0.09	235629	keystroke	r	n/a
117.9645	0.0745	235929	keystroke	t	n/a
118.2645	0.0895	236529	keystroke	s	n/a
118.954	0.105	237908	keystroke	Key.enter	n/a
119.0645	15.912	238129	prompt	n/a	mustn't louisiana moderator fioricet\n
119.72	0.105	239440	keystroke	m	n/a
119.99	0.09	239980	keystroke	u	n/a
120.065	0.09	240130	keystroke	s	n/a
120.514	0.075	241028	keystroke	t	n/a
120.74	0.0745	241480	keystroke	n	n/a
121.1295	0.0905	242259	keystroke	;	n/a
121.6545	0.075	243309	keystroke	Key.backspace	n/a
121.9995	0.06	243999	keystroke	'	n/a
122.3595	0.075	244719	keystroke	t	n/a
122.629	0.06	245258	keystroke	Key.space	n/a
123.0345	0.09	246069	keystroke	l	n/a
123.4995	0.09	246999	keystroke	o	n/a
123.6945	0.0755	247389	keystroke	u	n/a
123.8595	0.0605	247719	keystroke	s	n/a
123.9495	0.075	247899	keystroke	i	n/a
124.715	0.06	249430	keystroke	Key.backspace	n/a
124.88	0.015	249760	keystroke	Key.backspace	n/a
125.15	0.075	250300	keystroke	i	n/a
125.27	0.0895	250540	keystroke	s	n/a
125.765	0.089	251530	keystroke	i	n/a
125.96	0.104	251920	keystroke	a	n/a
126.079	0.075	252158	keystroke	n	n/a
126.139	0.09	252278	keystroke	a	n/a
126.424	0.09	252848	keystroke	Key.space	n/a
129.156	0.014	258312	keystroke	m	n/a
129.214	0.09	258428	keystroke	o	n/a
129.3195	0.1195	258639	keystroke	d	n/a
129.4695	0.12	258939	keystroke	e	n/a
129.559	0.09	259118	keystroke	r	n/a
129.77	0.1045	259540	keystroke	a	n/a
130.0545	0.09	260109	keystroke	t	n/a
130.2045	0.09	260409	keystroke	o	n/a
130.3245	0.09	260649	keystroke	r	n/a
132.0645	0.045	264129	keystroke	Key.space	n/a
132.485	0.0745	264970	keystroke	f	n/a
132.785	0.0745	265570	keystroke	l	n/a
132.949	0.09	265898	keystroke	o	n/a
133.0695	0.0595	266139	keystroke	r	n/a
133.489	0.09	266978	keystroke	i	n/a
134.179	0.0905	268358	keystroke	c	n/a
134.315	0.1195	268630	keystroke	e	n/a
134.524	0.0905	269048	keystroke	t	n/a
134.8545	0.12	269709	keystroke	Key.enter	n/a
134.9795	6.3265	269959	prompt	n/a	lace excellent wear chicken\n
135.59	0.1195	271180	keystroke	l	n/a
135.7695	0.105	271539	keystroke	a	n/a
135.9795	0.12	271959	keystroke	c	n/a
136.0695	0.135	272139	keystroke	e	n/a
136.3395	0.105	272679	keystroke	Key.space	n/a
136.655	0.134	273310	keystroke	e	n/a
137.2095	0.0445	274419	keystroke	c	n/a
137.5695	0.0595	275139	keystroke	Key.backspace	n/a
137.6445	0.075	275289	keystroke	x	n/a
137.869	0.075	275738	keystroke	c	n/a
137.974	0.105	275948	keystroke	e	n/a
138.1395	0.0595	276279	keystroke	l	n/a
138.274	0.09	276548	keystroke	l	n/a
138.3945	0.1045	276789	keystroke	e	n/a
138.5145	0.105	277029	keystroke	n	n/a
138.574	0.09	277148	keystroke	t	n/a
138.9495	0.09	277899	keystroke	Key.space	n/a
139.43	0.105	278860	keystroke	w	n/a
139.579	0.105	279158	keystroke	e	n/a
139.729	0.136	279458	keystroke	a	n/a
139.834	0.1055	279668	keystroke	r	n/a
140.0295	0.09	280059	keystroke	Key.space	n/a
140.3445	0.075	280689	keystroke	c	n/a
140.404	0.0905	280808	keystroke	h	n/a
140.554	0.0905	281108	keystroke	i	n/a
140.689	0.0755	281378	keystroke	c	n/a
140.749	0.105	281498	keystroke	k	n/a
140.84	0.074	281680	keystroke	e	n/a
140.915	0.09	281830	keystroke	n	n/a
141.2	0.104	282400	keystroke	Key.enter	n/a
141.311	6.176	282622	prompt	n/a	survival jewish citizens scratch\n
141.95	0.0895	283900	keystroke	s	n/a
142.16	0.09	284320	keystroke	u	n/a
142.234	0.106	284468	keystroke	r	n/a
142.595	0.0745	285190	keystroke	v	n/a
142.64	0.089	285280	keystroke	i	n/a
142.745	0.075	285490	keystroke	v	n/a
142.925	0.104	285850	keystroke	a	n/a
142.984	0.106	285968	keystroke	l	n/a
143.4195	0.09	286839	keystroke	Key.space	n/a
143.7645	0.105	287529	keystroke	j	n/a
143.8995	0.09	287799	keystroke	e	n/a
143.9595	0.09	287919	keystroke	w	n/a
144.1095	0.09	288219	keystroke	i	n/a
144.2145	0.105	288429	keystroke	s	n/a
144.3345	0.06	288669	keystroke	h	n/a
144.5745	0.1045	289149	keystroke	Key.space	n/a
144.8595	0.1055	289719	keystroke	c	n/a
144.934	0.091	289868	keystroke	i	n/a
145.084	0.09	290168	keystroke	t	n/a
145.1595	0.0905	290319	keystroke	i	n/a
145.4145	0.1205	290829	keystroke	z	n/a
145.6395	0.105	291279	keystroke	e	n/a
145.79	0.0895	291580	keystroke	n	n/a
145.88	0.0895	291760	keystroke	s	n/a
146.044	0.1055	292088	keystroke	Key.space	n/a
146.4045	0.09	292809	keystroke	s	n/a
146.5845	0.105	293169	keystroke	c	n/a
146.7795	0.09	293559	keystroke	r	n/a
146.8995	0.135	293799	keystroke	a	n/a
147.0195	0.105	294039	keystroke	t	n/a
147.1395	0.075	294279	keystroke	h	n/a
147.3795	0.105	294759	keystroke	Key.enter	n/a
147.4915	10.18	294983	prompt	n/a	deluxe twins click pleased\n
151.328	0.042	302656	keystroke	d	n/a
151.415	0.12	302830	keystroke	e	n/a
151.805	0.105	303610	keystroke	l	n/a
152.075	0.12	304150	keystroke	u	n/a
152.24	0.105	304480	keystroke	x	n/a
153.754	0.075	307508	keystroke	e	n/a
154.19	0.0745	308380	keystroke	Key.space	n/a
154.6695	0.075	309339	keystroke	t	n/a
154.8195	0.1205	309639	keystroke	w	n/a
154.925	0.105	309850	keystroke	i	n/a
155	0.104	310000	keystroke	n	n/a
155.1195	0.075	310239	keystroke	s	n/a
155.2845	0.1055	310569	keystroke	Key.space	n/a
155.6145	0.0755	311229	keystroke	c	n/a
155.7195	0.09	311439	keystroke	l	n/a
155.9145	0.105	311829	keystroke	i	n/a
156.004	0.0905	312008	keystroke	c	n/a
156.1245	0.09	312249	keystroke	k	n/a
156.3045	0.105	312609	keystroke	Key.space	n/a
156.5145	0.135	313029	keystroke	p	n/a
156.6205	0.0895	313241	keystroke	l	n/a
156.6645	0.1055	313329	keystroke	e	n/a
156.815	0.105	313630	keystroke	a	n/a
156.845	0.195	313690	keystroke	s	n/a
157.1745	0.075	314349	keystroke	e	n/a
157.34	0.09	314680	keystroke	d	n/a
157.5645	0.105	315129	keystroke	Key.enter	n/a
157.6755	8.5915	315351	prompt	n/a	incorporate creation theoretical skin\n
158.5995	0.06	317199	keystroke	i	n/a
158.6445	0.06	317289	keystroke	n	n/a
159.4695	0.15	318939	keystroke	c	n/a
159.6045	0.03	319209	keystroke	o	n/a
159.6495	0.015	319299	keystroke	r	n/a
159.665	0.0145	319330	keystroke	p	n/a
159.9945	0.09	319989	keystroke	o	n/a
160.0995	0.075	320199	keystroke	r	n/a
160.3695	0.105	320739	keystroke	a	n/a
160.5795	0.105	321159	keystroke	t	n/a
160.6545	0.105	321309	keystroke	e	n/a
160.9095	0.09	321819	keystroke	Key.space	n/a
161.0895	0.1045	322179	keystroke	c	n/a
161.329	0.0905	322658	keystroke	r	n/a
161.374	0.0905	322748	keystroke	e	n/a
161.51	0.1195	323020	keystroke	a	n/a
161.675	0.104	323350	keystroke	t	n/a
161.764	0.165	323528	keystroke	i	n/a
161.84	0.135	323680	keystroke	o	n/a
161.9	0.134	323800	keystroke	n	n/a
162.184	0.075	324368	keystroke	Key.space	n/a
162.5745	0.075	325149	keystroke	t	n/a
162.6645	0.075	325329	keystroke	h	n/a
162.7395	0.09	325479	keystroke	e	n/a
162.8745	0.09	325749	keystroke	o	n/a
163.1445	0.105	326289	keystroke	r	n/a
163.2345	0.075	326469	keystroke	e	n/a
163.4295	0.105	326859	keystroke	t	n/a
163.5195	0.06	327039	keystroke	i	n/a
163.6245	0.12	327249	keystroke	c	n/a
163.8345	0.09	327669	keystroke	a	n/a
163.9695	0.135	327939	keystroke	l	n/a
164.494	0.09	328988	keystroke	Key.space	n/a
164.614	0.09	329228	keystroke	s	n/a
164.734	0.0755	329468	keystroke	k	n/a
164.9	0.0895	329800	keystroke	i	n/a
165.095	0.06	330190	keystroke	l	n/a
165.469	0.075	330938	keystroke	Key.backspace	n/a
165.709	0.0755	331418	keystroke	n	n/a
166.174	0.09	332348	keystroke	Key.enter	n/a
166.2715	6.2045	332543	prompt	n/a	infectious however lift onto\n
166.97	0.1195	333940	keystroke	i	n/a
167.014	0.136	334028	keystroke	n	n/a
167.195	0.119	334390	keystroke	f	n/a
167.27	0.104	334540	keystroke	e	n/a
167.434	0.0755	334868	keystroke	c	n/a
167.614	0.105	335228	keystroke	t	n/a
167.915	0.075	335830	keystroke	i	n/a
168.094	0.12	336188	keystroke	o	n/a
168.199	0.105	336398	keystroke	u	n/a
168.2595	0.0745	336519	keystroke	s	n/a
169.309	0.031	338618	keystroke	Key.space	n/a
169.684	0.09	339368	keystroke	h	n/a
169.954	0.0905	339908	keystroke	o	n/a
170.0295	0.075	340059	keystroke	w	n/a
170.4195	0.09	340839	keystroke	e	n/a
170.599	0.09	341198	keystroke	v	n/a
170.719	0.135	341438	keystroke	e	n/a
170.81	0.074	341620	keystroke	r	n/a
170.929	0.075	341858	keystroke	Key.space	n/a
171.125	0.105	342250	keystroke	l	n/a
171.334	0.1195	342668	keystroke	i	n/a
171.395	0.074	342790	keystroke	f	n/a
171.5445	0.0905	343089	keystroke	t	n/a
171.619	0.105	343238	keystroke	Key.space	n/a
171.815	0.09	343630	keystroke	o	n/a
171.874	0.091	343748	keystroke	n	n/a
171.9795	0.0905	343959	keystroke	t	n/a
172.07	0.1195	344140	keystroke	o	n/a
172.3845	0.09	344769	keystroke	Key.enter	n/a
172.481	11.2305	344962	prompt	n/a	pressed deemed christian techrepublic\n
174.0045	0.09	348009	keystroke	p	n/a
174.2295	0.075	348459	keystroke	r	n/a
174.26	0.0895	348520	keystroke	e	n/a
174.4095	0.0905	348819	keystroke	s	n/a
174.5745	0.075	349149	keystroke	s	n/a
174.7545	0.075	349509	keystroke	e	n/a
174.89	0.1045	349780	keystroke	d	n/a
175.2045	0.09	350409	keystroke	Key.space	n/a
175.4145	0.075	350829	keystroke	d	n/a
175.5495	0.075	351099	keystroke	e	n/a
175.6845	0.09	351369	keystroke	e	n/a
175.8195	0.09	351639	keystroke	m	n/a
175.8945	0.075	351789	keystroke	e	n/a
176.074	0.06	352148	keystroke	d	n/a
176.239	0.0755	352478	keystroke	Key.space	n/a
176.8095	0.1055	353619	keystroke	c	n/a
176.915	0.0895	353830	keystroke	h	n/a
177.0195	0.075	354039	keystroke	r	n/a
177.14	0.075	354280	keystroke	i	n/a
177.2	0.1345	354400	keystroke	s	n/a
177.3945	0.105	354789	keystroke	t	n/a
177.6195	0.0905	355239	keystroke	i	n/a
177.8145	0.09	355629	keystroke	a	n/a
177.9195	0.105	355839	keystroke	n	n/a
178.1895	0.075	356379	keystroke	Key.space	n/a
178.429	0.076	356858	keystroke	t	n/a
178.519	0.0905	357038	keystroke	e	n/a
178.7	0.105	357400	keystroke	c	n/a
178.82	0.0895	357640	keystroke	h	n/a
180.3495	0.0905	360699	keystroke	r	n/a
180.3945	0.1355	360789	keystroke	e	n/a
181.4595	0.12	362919	keystroke	p	n/a
181.91	0.0745	363820	keystroke	u	n/a
182.285	0.0745	364570	keystroke	b	n/a
182.4045	0.09	364809	keystroke	l	n/a
182.63	0.0895	365260	keystroke	i	n/a
182.825	0.075	365650	keystroke	c	n/a
183.575	0.135	367150	keystroke	Key.enter	n/a
183.716	15.265	367432	prompt	n/a	participant parker behavior released\n
186.111	0.0435	372222	keystroke	p	n/a
186.214	0.135	372428	keystroke	a	n/a
186.3345	0.075	372669	keystroke	r	n/a
186.4695	0.1055	372939	keystroke	t	n/a
186.5755	0.1035	373151	keystroke	i	n/a
186.725	0.1195	373450	keystroke	c	n/a
186.8595	0.09	373719	keystroke	i	n/a
187.0695	0.0455	374139	keystroke	a	n/a
187.4295	0.1055	374859	keystroke	p	n/a
187.8045	0.1055	375609	keystroke	a	n/a
188.5545	0.075	377109	keystroke	Key.backspace	n/a
188.69	0.0745	377380	keystroke	Key.backspace	n/a
188.8695	0.075	377739	keystroke	Key.backspace	n/a
190.009	0.1205	380018	keystroke	p	n/a
190.145	0.1195	380290	keystroke	a	n/a
190.234	0.105	380468	keystroke	n	n/a
190.37	0.104	380740	keystroke	t	n/a
191.435	0.105	382870	keystroke	Key.space	n/a
192.0495	0.105	384099	keystroke	p	n/a
192.2895	0.1355	384579	keystroke	a	n/a
192.41	0.105	384820	keystroke	r	n/a
192.5445	0.09	385089	keystroke	k	n/a
192.6645	0.135	385329	keystroke	e	n/a
192.7545	0.12	385509	keystroke	r	n/a
193.6245	0.09	387249	keystroke	Key.space	n/a
194.5245	0.075	389049	keystroke	b	n/a
194.81	0.075	389620	keystroke	e	n/a
195.0345	0.075	390069	keystroke	h	n/a
195.1545	0.075	390309	keystroke	a	n/a
195.3495	0.09	390699	keystroke	v	n/a
195.9495	0.135	391899	keystroke	i	n/a
196.0705	0.119	392141	keystroke	o	n/a
196.2345	0.09	392469	keystroke	r	n/a
196.8645	0.12	393729	keystroke	Key.space	n/a
197.1205	0.075	394241	keystroke	r	n/a
197.1645	0.09	394329	keystroke	e	n/a
197.2995	0.105	394599	keystroke	l	n/a
197.3745	0.09	394749	keystroke	e	n/a
197.4955	0.104	394991	keystroke	a	n/a
197.5245	0.121	395049	keystroke	s	n/a
197.7795	0.03	395559	keystroke	e	n/a
198.2745	0.075	396549	keystroke	d	n/a
198.9195	0.06	397839	keystroke	Key.enter	n/a
198.9865	6.4005	397973	prompt	n/a	awarded thriller pointer edward\n
199.7895	0.045	399579	keystroke	a	n/a
199.97	0.104	399940	keystroke	w	n/a
200.12	0.089	400240	keystroke	a	n/a
200.3895	0.09	400779	keystroke	r	n/a
200.645	0.135	401290	keystroke	d	n/a
200.825	0.105	401650	keystroke	e	n/a
200.99	0.09	401980	keystroke	d	n/a
201.245	0.105	402490	keystroke	Key.space	n/a
201.425	0.09	402850	keystroke	t	n/a
201.515	0.09	403030	keystroke	h	n/a
201.62	0.075	403240	keystroke	r	n/a
201.71	0.075	403420	keystroke	i	n/a
201.905	0.0595	403810	keystroke	l	n/a
202.04	0.0745	404080	keystroke	l	n/a
202.0995	0.09	404199	keystroke	e	n/a
202.1745	0.12	404349	keystroke	r	n/a
202.3545	0.09	404709	keystroke	Key.space	n/a
202.715	0.1195	405430	keystroke	p	n/a
202.8495	0.0605	405699	keystroke	o	n/a
203.0295	0.09	406059	keystroke	i	n/a
203.2545	0.12	406509	keystroke	n	n/a
203.525	0.09	407050	keystroke	t	n/a
203.7195	0.12	407439	keystroke	e	n/a
203.81	0.105	407620	keystroke	r	n/a
204.0945	0.075	408189	keystroke	Key.space	n/a
204.1995	0.075	408399	keystroke	e	n/a
204.41	0.0895	408820	keystroke	d	n/a
204.5745	0.09	409149	keystroke	w	n/a
204.7695	0.0905	409539	keystroke	a	n/a
204.904	0.091	409808	keystroke	r	n/a
205.1	0.075	410200	keystroke	d	n/a
205.28	0.105	410560	keystroke	Key.enter	n/a
205.3915	8.9645	410783	prompt	n/a	utility ability jessica emphasis\n
206.465	0.105	412930	keystroke	u	n/a
206.6	0.105	413200	keystroke	t	n/a
206.69	0.09	413380	keystroke	i	n/a
206.87	0.105	413740	keystroke	l	n/a
207.05	0.105	414100	keystroke	i	n/a
207.155	0.075	414310	keystroke	t	n/a
207.605	0.075	415210	keystroke	y	n/a
208.1895	0.105	416379	keystroke	Key.space	n/a
208.3245	0.1195	416649	keystroke	a	n/a
208.564	0.0905	417128	keystroke	b	n/a
208.6245	0.0745	417249	keystroke	i	n/a
208.804	0.076	417608	keystroke	l	n/a
208.954	0.12	417908	keystroke	i	n/a
209.044	0.06	418088	keystroke	t	n/a
209.195	0.074	418390	keystroke	y	n/a
209.869	0.135	419738	keystroke	Key.space	n/a
210.019	0.076	420038	keystroke	j	n/a
210.08	0.089	420160	keystroke	e	n/a
210.275	0.06	420550	keystroke	s	n/a
210.4695	0.075	420939	keystroke	i	n/a
211.009	0.105	422018	keystroke	Key.backspace	n/a
211.1	0.0895	422200	keystroke	s	n/a
211.234	0.12	422468	keystroke	i	n/a
211.309	0.12	422618	keystroke	c	n/a
211.4145	0.106	422829	keystroke	a	n/a
211.91	0.09	423820	keystroke	Key.space	n/a
212.15	0.09	424300	keystroke	e	n/a
212.225	0.09	424450	keystroke	m	n/a
212.39	0.09	424780	keystroke	p	n/a
212.6	0.09	425200	keystroke	h	n/a
212.735	0.075	425470	keystroke	a	n/a
213.3195	0.076	426639	keystroke	s	n/a
213.38	0.0895	426760	keystroke	i	n/a
213.485	0.074	426970	keystroke	s	n/a
214.235	0.12	428470	keystroke	Key.enter	n/a
214.3605	6.221	428721	prompt	n/a	milton burn gossip integrating\n
215.0295	0.0755	430059	keystroke	m	n/a
215.2095	0.0755	430419	keystroke	i	n/a
215.4045	0.1205	430809	keystroke	l	n/a
215.5695	0.09	431139	keystroke	t	n/a
215.6595	0.105	431319	keystroke	o	n/a
215.7495	0.1055	431499	keystroke	n	n/a
215.9295	0.09	431859	keystroke	Key.space	n/a
216.3045	0.0905	432609	keystroke	b	n/a
216.3645	0.09	432729	keystroke	u	n/a
216.4695	0.0905	432939	keystroke	r	n/a
216.5445	0.075	433089	keystroke	n	n/a
217.144	0.075	434288	keystroke	Key.space	n/a
217.73	0.09	435460	keystroke	g	n/a
217.834	0.0755	435668	keystroke	o	n/a
217.924	0.0755	435848	keystroke	s	n/a
218.0895	0.075	436179	keystroke	s	n/a
218.1945	0.075	436389	keystroke	i	n/a
218.404	0.076	436808	keystroke	p	n/a
219.0645	0.015	438129	keystroke	Key.space	n/a
219.1245	0.045	438249	keystroke	i	n/a
219.1545	0.09	438309	keystroke	n	n/a
219.2745	0.09	438549	keystroke	t	n/a
219.4095	0.105	438819	keystroke	e	n/a
219.5745	0.09	439149	keystroke	g	n/a
219.7695	0.0905	439539	keystroke	r	n/a
219.9195	0.105	439839	keystroke	a	n/a
220.0695	0.075	440139	keystroke	t	n/a
220.1455	0.119	440291	keystroke	i	n/a
220.2195	0.105	440439	keystroke	n	n/a
220.28	0.075	440560	keystroke	g	n/a
220.4745	0.1055	440949	keystroke	Key.enter	n/a
220.585	6.8065	441170	prompt	n/a	itunes comm sympathy ralph\n
221.435	0.06	442870	keystroke	i	n/a
221.554	0.106	443108	keystroke	t	n/a
221.72	0.135	443440	keystroke	u	n/a
221.8095	0.1055	443619	keystroke	n	n/a
221.885	0.075	443770	keystroke	e	n/a
222.05	0.09	444100	keystroke	s	n/a
222.215	0.0895	444430	keystroke	Key.space	n/a
222.4395	0.09	444879	keystroke	c	n/a
222.53	0.06	445060	keystroke	o	n/a
222.665	0.06	445330	keystroke	m	n/a
222.785	0.075	445570	keystroke	m	n/a
222.994	0.076	445988	keystroke	Key.space	n/a
223.865	0.089	447730	keystroke	s	n/a
223.924	0.091	447848	keystroke	u	n/a
224.269	0.105	448538	keystroke	Key.backspace	n/a
224.435	0.09	448870	keystroke	y	n/a
224.585	0.0895	449170	keystroke	m	n/a
224.7645	0.105	449529	keystroke	p	n/a
224.9145	0.135	449829	keystroke	a	n/a
225.1845	0.0905	450369	keystroke	t	n/a
225.305	0.0745	450610	keystroke	h	n/a
225.41	0.09	450820	keystroke	y	n/a
225.6345	0.09	451269	keystroke	Key.space	n/a
226.2645	0.075	452529	keystroke	r	n/a
226.4145	0.075	452829	keystroke	a	n/a
226.5195	0.0895	453039	keystroke	l	n/a
226.684	0.06	453368	keystroke	p	n/a
226.865	0.105	453730	keystroke	h	n/a
227.329	0.06	454658	keystroke	Key.enter	n/a
227.396	5.755	454792	prompt	n/a	belts organisms that's a\n
228.26	0.075	456520	keystroke	b	n/a
228.41	0.1345	456820	keystroke	e	n/a
228.56	0.09	457120	keystroke	l	n/a
228.635	0.09	457270	keystroke	t	n/a
228.9195	0.015	457839	keystroke	s	n/a
228.9645	0.0905	457929	keystroke	Key.space	n/a
229.1895	0.09	458379	keystroke	o	n/a
229.2495	0.09	458499	keystroke	r	n/a
229.445	0.0895	458890	keystroke	g	n/a
229.5945	0.075	459189	keystroke	a	n/a
229.6545	0.105	459309	keystroke	n	n/a
229.8345	0.0905	459669	keystroke	i	n/a
230.63	0.0895	461260	keystroke	s	n/a
230.7345	0.0905	461469	keystroke	m	n/a
230.8395	0.0905	461679	keystroke	s	n/a
231.3495	0.09	462699	keystroke	Key.space	n/a
231.634	0.105	463268	keystroke	t	n/a
231.725	0.09	463450	keystroke	h	n/a
231.815	0.105	463630	keystroke	a	n/a
231.9795	0.1045	463959	keystroke	t	n/a
232.294	0.076	464588	keystroke	'	n/a
232.4745	0.0905	464949	keystroke	s	n/a
232.714	0.0755	465428	keystroke	Key.space	n/a
232.805	0.09	465610	keystroke	a	n/a
233.044	0.106	466088	keystroke	Key.enter	n/a
233.1555	6.8215	466311	prompt	n/a	academics how're connect potential\n
233.72	0.089	467440	keystroke	a	n/a
233.93	0.104	467860	keystroke	c	n/a
234.095	0.104	468190	keystroke	a	n/a
234.274	0.091	468548	keystroke	d	n/a
234.47	0.075	468940	keystroke	e	n/a
234.515	0.105	469030	keystroke	m	n/a
234.665	0.105	469330	keystroke	i	n/a
234.709	0.106	469418	keystroke	c	n/a
234.86	0.105	469720	keystroke	s	n/a
235.369	0.091	470738	keystroke	Key.space	n/a
235.624	0.0755	471248	keystroke	h	n/a
235.804	0.09	471608	keystroke	o	n/a
235.88	0.075	471760	keystroke	w	n/a
236.12	0.104	472240	keystroke	'	n/a
236.27	0.105	472540	keystroke	r	n/a
236.36	0.09	472720	keystroke	e	n/a
236.75	0.0895	473500	keystroke	Key.space	n/a
237.065	0.074	474130	keystroke	c	n/a
237.125	0.06	474250	keystroke	o	n/a
237.2745	0.0595	474549	keystroke	n	n/a
237.41	0.075	474820	keystroke	n	n/a
237.5145	0.105	475029	keystroke	e	n/a
237.635	0.075	475270	keystroke	c	n/a
237.845	0.0895	475690	keystroke	t	n/a
238.1145	0.0605	476229	keystroke	Key.space	n/a
238.3395	0.0905	476679	keystroke	p	n/a
238.4895	0.105	476979	keystroke	o	n/a
238.6695	0.0755	477339	keystroke	t	n/a
239.0295	0.09	478059	keystroke	e	n/a
239.135	0.075	478270	keystroke	n	n/a
239.255	0.105	478510	keystroke	t	n/a
239.315	0.12	478630	keystroke	i	n/a
239.48	0.09	478960	keystroke	a	n/a
239.615	0.09	479230	keystroke	l	n/a
239.87	0.105	479740	keystroke	Key.enter	n/a
239.9815	6.206	479963	prompt	n/a	requesting scales talented spirit\n
240.6945	0.075	481389	keystroke	r	n/a
240.7395	0.0905	481479	keystroke	e	n/a
241.01	0.105	482020	keystroke	q	n/a
241.13	0.074	482260	keystroke	u	n/a
241.234	0.076	482468	keystroke	e	n/a
241.4	0.105	482800	keystroke	s	n/a
241.58	0.0895	483160	keystroke	t	n/a
241.655	0.1045	483310	keystroke	i	n/a
241.73	0.0895	483460	keystroke	n	n/a
241.7895	0.0905	483579	keystroke	g	n/a
241.895	0.1045	483790	keystroke	Key.space	n/a
242.255	0.0595	484510	keystroke	s	n/a
242.3595	0.0895	484719	keystroke	c	n/a
242.525	0.105	485050	keystroke	a	n/a
242.6745	0.0755	485349	keystroke	l	n/a
242.765	0.0745	485530	keystroke	e	n/a
242.885	0.1045	485770	keystroke	Key.space	n/a
243.4695	0.0905	486939	keystroke	t	n/a
243.6655	0.059	487331	keystroke	a	n/a
243.71	0.1045	487420	keystroke	l	n/a
243.8295	0.1055	487659	keystroke	e	n/a
243.9495	0.105	487899	keystroke	n	n/a
244.01	0.1345	488020	keystroke	t	n/a
244.67	0.12	489340	keystroke	e	n/a
244.819	0.091	489638	keystroke	d	n/a
245.029	0.09	490058	keystroke	Key.space	n/a
245.179	0.09	490358	keystroke	s	n/a
245.3155	0.0745	490631	keystroke	p	n/a
245.51	0.075	491020	keystroke	i	n/a
245.615	0.09	491230	keystroke	r	n/a
245.72	0.075	491440	keystroke	i	n/a
245.824	0.091	491648	keystroke	t	n/a
246.095	0.09	492190	keystroke	Key.enter	n/a
246.1925	7.884	492385	prompt	n/a	britannica given associations washer\n
247.085	0.0745	494170	keystroke	b	n/a
247.22	0.09	494440	keystroke	r	n/a
247.3395	0.075	494679	keystroke	i	n/a
247.625	0.0745	495250	keystroke	t	n/a
247.8645	0.06	495729	keystroke	a	n/a
248.0145	0.0905	496029	keystroke	n	n/a
248.21	0.075	496420	keystroke	n	n/a
248.4495	0.075	496899	keystroke	i	n/a
248.555	0.0895	497110	keystroke	c	n/a
248.6745	0.1055	497349	keystroke	a	n/a
248.945	0.09	497890	keystroke	Key.space	n/a
249.32	0.09	498640	keystroke	g	n/a
249.41	0.075	498820	keystroke	i	n/a
249.5	0.0745	499000	keystroke	v	n/a
249.65	0.0745	499300	keystroke	e	n/a
249.6945	0.09	499389	keystroke	n	n/a
249.86	0.09	499720	keystroke	Key.space	n/a
250.1295	0.045	500259	keystroke	s	n/a
250.8945	0.1055	501789	keystroke	Key.backspace	n/a
251.03	0.09	502060	keystroke	a	n/a
251.24	0.075	502480	keystroke	s	n/a
251.4345	0.0755	502869	keystroke	s	n/a
251.6145	0.061	503229	keystroke	o	n/a
251.9145	0.075	503829	keystroke	c	n/a
252.0345	0.075	504069	keystroke	i	n/a
252.1395	0.1055	504279	keystroke	a	n/a
252.3495	0.0905	504699	keystroke	t	n/a
252.455	0.1195	504910	keystroke	i	n/a
252.4845	0.1505	504969	keystroke	o	n/a
252.5895	0.105	505179	keystroke	n	n/a
252.6495	0.075	505299	keystroke	s	n/a
252.98	0.105	505960	keystroke	Key.space	n/a
253.115	0.09	506230	keystroke	w	n/a
253.295	0.1205	506590	keystroke	a	n/a
253.475	0.135	506950	keystroke	s	n/a
253.625	0.09	507250	keystroke	h	n/a
253.744	0.121	507488	keystroke	e	n/a
253.82	0.09	507640	keystroke	r	n/a
253.969	0.106	507938	keystroke	Key.enter	n/a
254.0815	6.37	508163	prompt	n/a	bond infections soundtrack sofa\n
255.05	0.09	510100	keystroke	b	n/a
255.215	0.135	510430	keystroke	o	n/a
255.335	0.09	510670	keystroke	n	n/a
255.44	0.0905	510880	keystroke	d	n/a
255.56	0.09	511120	keystroke	Key.space	n/a
255.92	0.09	511840	keystroke	i	n/a
255.965	0.1505	511930	keystroke	n	n/a
256.144	0.106	512288	keystroke	f	n/a
256.235	0.105	512470	keystroke	e	n/a
256.415	0.1045	512830	keystroke	c	n/a
256.6245	0.0755	513249	keystroke	t	n/a
256.6695	0.1355	513339	keystroke	i	n/a
256.7155	0.134	513431	keystroke	o	n/a
256.7895	0.105	513579	keystroke	n	n/a
256.835	0.0895	513670	keystroke	s	n/a
256.9695	0.105	513939	keystroke	Key.space	n/a
257.3145	0.135	514629	keystroke	s	n/a
257.405	0.12	514810	keystroke	o	n/a
257.495	0.0745	514990	keystroke	u	n/a
257.675	0.105	515350	keystroke	n	n/a
257.7645	0.075	515529	keystroke	d	n/a
258.3195	0.12	516639	keystroke	t	n/a
258.395	0.0895	516790	keystroke	r	n/a
258.605	0.1345	517210	keystroke	a	n/a
258.8	0.06	517600	keystroke	c	n/a
258.8605	0.089	517721	keystroke	k	n/a
259.055	0.105	518110	keystroke	Key.space	n/a
259.325	0.09	518650	keystroke	s	n/a
259.46	0.09	518920	keystroke	o	n/a
259.595	0.104	519190	keystroke	f	n/a
259.684	0.09	519368	keystroke	e	n/a
260.03	0.089	520060	keystroke	Key.backspace	n/a
260.09	0.089	520180	keystroke	a	n/a
260.3445	0.1055	520689	keystroke	Key.enter	n/a
260.4565	10.36	520913	prompt	n/a	golf burlington podcast beverages\n
261.44	0.104	522880	keystroke	g	n/a
261.529	0.09	523058	keystroke	o	n/a
261.74	0.09	523480	keystroke	l	n/a
261.89	0.03	523780	keystroke	f	n/a
262.084	0.105	524168	keystroke	Key.space	n/a
262.79	0.09	525580	keystroke	b	n/a
262.865	0.089	525730	keystroke	u	n/a
262.969	0.091	525938	keystroke	r	n/a
263.09	0.075	526180	keystroke	l	n/a
263.254	0.106	526508	keystroke	i	n/a
263.3145	0.12	526629	keystroke	n	n/a
263.3895	0.075	526779	keystroke	g	n/a
263.5245	0.1055	527049	keystroke	t	n/a
263.5845	0.0755	527169	keystroke	o	n/a
263.63	0.0895	527260	keystroke	n	n/a
263.8095	0.09	527619	keystroke	Key.space	n/a
264.0805	0.1045	528161	keystroke	p	n/a
264.2445	0.0905	528489	keystroke	o	n/a
264.38	0.0895	528760	keystroke	d	n/a
264.65	0.015	529300	keystroke	c	n/a
265.67	0.105	531340	keystroke	a	n/a
265.7	0.135	531400	keystroke	s	n/a
266.06	0.075	532120	keystroke	r	n/a
267.08	0.045	534160	keystroke	Key.backspace	n/a
267.14	0.03	534280	keystroke	t	n/a
267.905	0.105	535810	keystroke	Key.space	n/a
268.295	0.09	536590	keystroke	b	n/a
268.505	0.12	537010	keystroke	e	n/a
269.18	0.09	538360	keystroke	v	n/a
269.345	0.135	538690	keystroke	e	n/a
269.435	0.105	538870	keystroke	r	n/a
269.57	0.135	539140	keystroke	a	n/a
269.735	0.105	539470	keystroke	g	n/a
269.855	0.045	539710	keystroke	e	n/a
270.32	0.0595	540640	keystroke	s	n/a
270.7245	0.0905	541449	keystroke	Key.enter	n/a
270.824	8.543	541648	prompt	n/a	paperback producing anything donna\n
272.3445	0.15	544689	keystroke	p	n/a
272.5095	0.0155	545019	keystroke	a	n/a
272.54	0.06	545080	keystroke	p	n/a
272.6595	0.1355	545319	keystroke	e	n/a
272.7645	0.1055	545529	keystroke	r	n/a
273.605	0.09	547210	keystroke	b	n/a
273.725	0.09	547450	keystroke	a	n/a
273.86	0.105	547720	keystroke	c	n/a
274.01	0.075	548020	keystroke	l	n/a
274.4595	0.09	548919	keystroke	Key.backspace	n/a
274.685	0.1045	549370	keystroke	k	n/a
275.4795	0.12	550959	keystroke	Key.space	n/a
275.93	0.1045	551860	keystroke	p	n/a
276.0805	0.074	552161	keystroke	r	n/a
276.1695	0.075	552339	keystroke	o	n/a
276.3795	0.0905	552759	keystroke	d	n/a
276.4545	0.0755	552909	keystroke	u	n/a
276.5595	0.12	553119	keystroke	c	n/a
276.6645	0.075	553329	keystroke	i	n/a
276.7095	0.075	553419	keystroke	n	n/a
276.7695	0.09	553539	keystroke	g	n/a
276.8745	0.09	553749	keystroke	Key.space	n/a
277.28	0.135	554560	keystroke	a	n/a
277.355	0.09	554710	keystroke	n	n/a
277.6095	0.0745	555219	keystroke	y	n/a
277.76	0.1055	555520	keystroke	t	n/a
277.835	0.075	555670	keystroke	h	n/a
277.895	0.1205	555790	keystroke	i	n/a
277.999	0.0755	555998	keystroke	n	n/a
278.0305	0.089	556061	keystroke	g	n/a
278.15	0.1045	556300	keystroke	Key.space	n/a
278.5545	0.0905	557109	keystroke	d	n/a
278.6295	0.06	557259	keystroke	o	n/a
278.7795	0.061	557559	keystroke	n	n/a
278.885	0.074	557770	keystroke	n	n/a
278.96	0.09	557920	keystroke	a	n/a
279.274	0.091	558548	keystroke	Key.enter	n/a
279.372	7.96	558744	prompt	n/a	legitimate courier papua ideal\n
280.295	0.0895	560590	keystroke	l	n/a
280.4895	0.09	560979	keystroke	e	n/a
280.6845	0.12	561369	keystroke	g	n/a
280.7895	0.06	561579	keystroke	i	n/a
280.8645	0.076	561729	keystroke	t	n/a
280.955	0.1045	561910	keystroke	i	n/a
281.0895	0.0905	562179	keystroke	a	n/a
281.645	0.075	563290	keystroke	Key.backspace	n/a
281.8695	0.105	563739	keystroke	m	n/a
282.17	0.1055	564340	keystroke	a	n/a
282.3045	0.105	564609	keystroke	t	n/a
282.38	0.105	564760	keystroke	e	n/a
283.085	0.0745	566170	keystroke	Key.space	n/a
283.25	0.105	566500	keystroke	c	n/a
283.3695	0.135	566739	keystroke	o	n/a
283.4895	0.09	566979	keystroke	u	n/a
283.5945	0.046	567189	keystroke	r	n/a
283.6545	0.105	567309	keystroke	i	n/a
283.775	0.075	567550	keystroke	e	n/a
283.835	0.105	567670	keystroke	r	n/a
284.015	0.09	568030	keystroke	Key.space	n/a
284.525	0.075	569050	keystroke	p	n/a
284.675	0.075	569350	keystroke	a	n/a
284.795	0.075	569590	keystroke	p	n/a
285.02	0.075	570040	keystroke	u	n/a
285.1405	0.1045	570281	keystroke	a	n/a
285.395	0.06	570790	keystroke	Key.space	n/a
285.679	0.091	571358	keystroke	i	n/a
285.77	0.105	571540	keystroke	d	n/a
285.935	0.09	571870	keystroke	e	n/a
286.085	0.075	572170	keystroke	a	n/a
286.2805	0.1045	572561	keystroke	l	n/a
287.2245	0.105	574449	keystroke	Key.enter	n/a
287.3365	6.715	574673	prompt	n/a	narrative comics fathers yang\n
288.08	0.0595	576160	keystroke	n	n/a
288.17	0.075	576340	keystroke	a	n/a
288.3055	0.074	576611	keystroke	r	n/a
288.455	0.075	576910	keystroke	r	n/a
288.4845	0.1055	576969	keystroke	a	n/a
289.0705	0.0445	578141	keystroke	t	n/a
289.1305	0.0745	578261	keystroke	i	n/a
289.2195	0.1055	578439	keystroke	v	n/a
289.37	0.09	578740	keystroke	e	n/a
289.774	0.076	579548	keystroke	Key.space	n/a
290	0.09	580000	keystroke	c	n/a
290.06	0.12	580120	keystroke	o	n/a
290.135	0.09	580270	keystroke	m	n/a
290.27	0.12	580540	keystroke	i	n/a
290.315	0.09	580630	keystroke	c	n/a
290.435	0.089	580870	keystroke	s	n/a
290.5695	0.1055	581139	keystroke	Key.space	n/a
290.99	0.075	581980	keystroke	f	n/a
291.11	0.105	582220	keystroke	a	n/a
291.23	0.104	582460	keystroke	t	n/a
291.3195	0.09	582639	keystroke	h	n/a
291.425	0.09	582850	keystroke	e	n/a
291.4845	0.1045	582969	keystroke	r	n/a
291.65	0.105	583300	keystroke	s	n/a
291.8445	0.0755	583689	keystroke	Key.space	n/a
292.13	0.075	584260	keystroke	t	n/a
292.295	0.105	584590	keystroke	a	n/a
292.7595	0.06	585519	keystroke	Key.backspace	n/a
292.8945	0.045	585789	keystroke	Key.backspace	n/a
292.925	0.0755	585850	keystroke	y	n/a
293.12	0.0895	586240	keystroke	a	n/a
293.42	0.1195	586840	keystroke	n	n/a
293.4945	0.0605	586989	keystroke	g	n/a
293.9445	0.1055	587889	keystroke	Key.enter	n/a
294.055	8.921	588110	prompt	n/a	perform acid laboratory chapters\n
295.115	0.12	590230	keystroke	p	n/a
295.31	0.105	590620	keystroke	e	n/a
295.4	0.105	590800	keystroke	r	n/a
295.88	0.075	591760	keystroke	f	n/a
295.97	0.09	591940	keystroke	o	n/a
296.03	0.0895	592060	keystroke	r	n/a
296.15	0.0895	592300	keystroke	m	n/a
296.4945	0.06	592989	keystroke	Key.space	n/a
296.6445	0.0755	593289	keystroke	a	n/a
297.3945	0.046	594789	keystroke	c	n/a
297.4545	0.075	594909	keystroke	i	n/a
297.5145	0.075	595029	keystroke	d	n/a
297.6945	0.09	595389	keystroke	Key.space	n/a
298.13	0.1055	596260	keystroke	l	n/a
298.2505	0.0895	596501	keystroke	a	n/a
298.4305	0.075	596861	keystroke	b	n/a
298.655	0.059	597310	keystroke	r	n/a
299.389	0.105	598778	keystroke	Key.backspace	n/a
299.615	0.104	599230	keystroke	o	n/a
299.705	0.09	599410	keystroke	r	n/a
299.93	0.105	599860	keystroke	a	n/a
300.1545	0.0745	600309	keystroke	t	n/a
300.26	0.104	600520	keystroke	o	n/a
300.3355	0.0895	600671	keystroke	r	n/a
300.8295	0.0755	601659	keystroke	y	n/a
301.37	0.104	602740	keystroke	Key.space	n/a
301.52	0.09	603040	keystroke	c	n/a
301.6255	0.0885	603251	keystroke	h	n/a
301.73	0.0895	603460	keystroke	a	n/a
301.864	0.121	603728	keystroke	p	n/a
302.0445	0.1195	604089	keystroke	t	n/a
302.254	0.09	604508	keystroke	e	n/a
302.3	0.09	604600	keystroke	r	n/a
302.585	0.1345	605170	keystroke	s	n/a
302.8695	0.105	605739	keystroke	Key.enter	n/a
302.98	5.7415	605960	prompt	n/a	target quite clothing carroll\n
303.6955	0.0895	607391	keystroke	t	n/a
303.83	0.15	607660	keystroke	a	n/a
303.89	0.12	607780	keystroke	r	n/a
304.174	0.016	608348	keystroke	g	n/a
304.205	0.105	608410	keystroke	e	n/a
304.295	0.09	608590	keystroke	t	n/a
304.58	0.089	609160	keystroke	Key.space	n/a
305.0145	0.06	610029	keystroke	q	n/a
305.3	0.1345	610600	keystroke	u	n/a
305.3895	0.09	610779	keystroke	i	n/a
305.5095	0.075	611019	keystroke	t	n/a
305.5395	0.105	611079	keystroke	e	n/a
306.1995	0.09	612399	keystroke	Key.space	n/a
306.4845	0.075	612969	keystroke	c	n/a
306.5445	0.06	613089	keystroke	l	n/a
306.695	0.09	613390	keystroke	o	n/a
306.8	0.0905	613600	keystroke	t	n/a
306.875	0.119	613750	keystroke	h	n/a
306.98	0.119	613960	keystroke	i	n/a
307.069	0.0905	614138	keystroke	n	n/a
307.145	0.0595	614290	keystroke	g	n/a
307.264	0.106	614528	keystroke	Key.space	n/a
307.4	0.1505	614800	keystroke	c	n/a
307.6255	0.0595	615251	keystroke	a	n/a
307.775	0.06	615550	keystroke	r	n/a
307.9255	0.0595	615851	keystroke	r	n/a
308	0.0755	616000	keystroke	o	n/a
308.179	0.06	616358	keystroke	l	n/a
308.285	0.09	616570	keystroke	l	n/a
308.645	0.075	617290	keystroke	Key.enter	n/a
308.7265	5.1855	617453	prompt	n/a	fleet handled mechanical revenue\n
309.485	0.075	618970	keystroke	f	n/a
309.605	0.09	619210	keystroke	l	n/a
309.68	0.06	619360	keystroke	e	n/a
309.815	0.075	619630	keystroke	e	n/a
309.92	0.09	619840	keystroke	t	n/a
310.07	0.09	620140	keystroke	Key.space	n/a
310.3855	0.1195	620771	keystroke	h	n/a
310.4895	0.0905	620979	keystroke	a	n/a
310.5805	0.089	621161	keystroke	n	n/a
310.655	0.0895	621310	keystroke	d	n/a
310.775	0.105	621550	keystroke	l	n/a
310.8355	0.075	621671	keystroke	e	n/a
311	0.0895	622000	keystroke	d	n/a
311.075	0.0895	622150	keystroke	Key.space	n/a
311.2695	0.1055	622539	keystroke	m	n/a
311.3595	0.091	622719	keystroke	e	n/a
311.5395	0.106	623079	keystroke	c	n/a
311.63	0.0895	623260	keystroke	h	n/a
311.7345	0.075	623469	keystroke	a	n/a
311.855	0.0595	623710	keystroke	n	n/a
311.9595	0.0905	623919	keystroke	i	n/a
312.0345	0.0905	624069	keystroke	c	n/a
312.155	0.1045	624310	keystroke	a	n/a
312.23	0.1045	624460	keystroke	l	n/a
312.6645	0.0905	625329	keystroke	Key.space	n/a
312.9045	0.0905	625809	keystroke	r	n/a
312.9645	0.1055	625929	keystroke	e	n/a
313.13	0.0895	626260	keystroke	v	n/a
313.2355	0.15	626471	keystroke	e	n/a
313.3395	0.075	626679	keystroke	n	n/a
313.505	0.1055	627010	keystroke	u	n/a
313.5945	0.091	627189	keystroke	e	n/a
313.805	0.1045	627610	keystroke	Key.enter	n/a
313.917	7.4945	627834	prompt	n/a	spank methods ultram sheriff\n
314.5855	0.075	629171	keystroke	s	n/a
314.675	0.105	629350	keystroke	p	n/a
314.84	0.03	629680	keystroke	a	n/a
314.885	0.135	629770	keystroke	n	n/a
314.99	0.12	629980	keystroke	k	n/a
315.215	0.075	630430	keystroke	Key.space	n/a
315.395	0.105	630790	keystroke	m	n/a
315.5	0.09	631000	keystroke	e	n/a
316.055	0.075	632110	keystroke	t	n/a
316.145	0.075	632290	keystroke	h	n/a
316.295	0.135	632590	keystroke	o	n/a
316.715	0.09	633430	keystroke	f	n/a
316.925	0.105	633850	keystroke	d	n/a
317.225	0.0595	634450	keystroke	Key.backspace	n/a
317.3445	0.09	634689	keystroke	Key.backspace	n/a
317.375	0.0895	634750	keystroke	d	n/a
317.4495	0.075	634899	keystroke	s	n/a
318.035	0.135	636070	keystroke	Key.space	n/a
318.32	0.09	636640	keystroke	u	n/a
318.5445	0.12	637089	keystroke	l	n/a
318.6795	0.106	637359	keystroke	t	n/a
318.935	0.075	637870	keystroke	r	n/a
319.1745	0.105	638349	keystroke	a	n/a
319.2945	0.075	638589	keystroke	m	n/a
319.4895	0.0905	638979	keystroke	Key.space	n/a
319.6855	0.075	639371	keystroke	s	n/a
319.7445	0.091	639489	keystroke	h	n/a
319.925	0.105	639850	keystroke	e	n/a
320.0005	0.105	640001	keystroke	r	n/a
320.1495	0.105	640299	keystroke	i	n/a
320.3155	0.074	640631	keystroke	f	n/a
320.45	0.0895	640900	keystroke	f	n/a
321.305	0.105	642610	keystroke	Key.enter	n/a
321.416	8.005	642832	prompt	n/a	structure expedia there'd reasons\n
322.16	0.09	644320	keystroke	s	n/a
322.385	0.0895	644770	keystroke	t	n/a
322.4445	0.1055	644889	keystroke	r	n/a
322.5645	0.06	645129	keystroke	u	n/a
322.6395	0.105	645279	keystroke	c	n/a
322.865	0.09	645730	keystroke	t	n/a
322.9695	0.09	645939	keystroke	u	n/a
323.0445	0.105	646089	keystroke	r	n/a
323.1195	0.1055	646239	keystroke	e	n/a
323.6445	0.075	647289	keystroke	Key.space	n/a
323.7945	0.091	647589	keystroke	e	n/a
324.0205	0.104	648041	keystroke	x	n/a
324.1105	0.0895	648221	keystroke	p	n/a
324.2455	0.0595	648491	keystroke	e	n/a
324.4105	0.075	648821	keystroke	d	n/a
324.4255	0.075	648851	keystroke	i	n/a
324.5605	0.089	649121	keystroke	a	n/a
325.46	0.075	650920	keystroke	Key.space	n/a
325.625	0.075	651250	keystroke	t	n/a
325.685	0.0905	651370	keystroke	h	n/a
325.7755	0.1195	651551	keystroke	e	n/a
325.88	0.075	651760	keystroke	r	n/a
325.925	0.09	651850	keystroke	e	n/a
326.3145	0.0755	652629	keystroke	'	n/a
326.615	0.0745	653230	keystroke	d	n/a
327.3645	0.0755	654729	keystroke	Key.space	n/a
327.53	0.0895	655060	keystroke	r	n/a
327.59	0.105	655180	keystroke	e	n/a
327.7695	0.1205	655539	keystroke	a	n/a
327.9045	0.106	655809	keystroke	s	n/a
328.175	0.12	656350	keystroke	o	n/a
328.25	0.12	656500	keystroke	n	n/a
328.28	0.09	656560	keystroke	s	n/a
329.315	0.105	658630	keystroke	Key.enter	n/a
329.426	10.6015	658852	prompt	n/a	reprint university agents fundamentals\n
330.155	0.075	660310	keystroke	r	n/a
330.2	0.09	660400	keystroke	e	n/a
330.38	0.105	660760	keystroke	p	n/a
330.545	0.09	661090	keystroke	r	n/a
330.62	0.075	661240	keystroke	e	n/a
331.145	0.075	662290	keystroke	Key.backspace	n/a
331.37	0.12	662740	keystroke	i	n/a
331.43	0.1045	662860	keystroke	n	n/a
331.49	0.075	662980	keystroke	t	n/a
332.075	0.06	664150	keystroke	Key.space	n/a
332.315	0.105	664630	keystroke	u	n/a
332.36	0.09	664720	keystroke	n	n/a
332.51	0.09	665020	keystroke	i	n/a
332.72	0.09	665440	keystroke	v	n/a
332.855	0.135	665710	keystroke	e	n/a
332.945	0.105	665890	keystroke	r	n/a
333.17	0.074	666340	keystroke	s	n/a
333.26	0.09	666520	keystroke	i	n/a
333.3655	0.0745	666731	keystroke	t	n/a
333.515	0.075	667030	keystroke	y	n/a
334.0545	0.1345	668109	keystroke	Key.space	n/a
334.205	0.0455	668410	keystroke	a	n/a
334.325	0.0895	668650	keystroke	g	n/a
334.4605	0.089	668921	keystroke	e	n/a
334.5645	0.075	669129	keystroke	t	n/a
334.5795	0.075	669159	keystroke	n	n/a
334.6995	0.136	669399	keystroke	s	n/a
334.9845	0.075	669969	keystroke	Key.space	n/a
335.3445	0.06	670689	keystroke	Key.backspace	n/a
335.5095	0.0305	671019	keystroke	Key.backspace	n/a
335.63	0.045	671260	keystroke	Key.backspace	n/a
335.7495	0.075	671499	keystroke	Key.backspace	n/a
336.0195	0.09	672039	keystroke	n	n/a
336.3795	0.0755	672759	keystroke	t	n/a
336.5895	0.09	673179	keystroke	s	n/a
336.98	0.075	673960	keystroke	Key.space	n/a
338.12	0.015	676240	keystroke	f	n/a
338.195	0.12	676390	keystroke	u	n/a
338.255	0.1195	676510	keystroke	n	n/a
338.345	0.09	676690	keystroke	d	n/a
338.51	0.105	677020	keystroke	a	n/a
338.825	0.075	677650	keystroke	m	n/a
338.8845	0.0905	677769	keystroke	e	n/a
338.99	0.0895	677980	keystroke	n	n/a
339.0645	0.09	678129	keystroke	t	n/a
339.2295	0.0905	678459	keystroke	a	n/a
339.3795	0.105	678759	keystroke	l	n/a
339.47	0.0895	678940	keystroke	s	n/a
339.9195	0.105	679839	keystroke	Key.enter	n/a
340.043	9.5535	680086	prompt	n/a	alcohol ivory basic sculpture\n
340.685	0.075	681370	keystroke	a	n/a
340.789	0.121	681578	keystroke	l	n/a
341.105	0.105	682210	keystroke	c	n/a
341.3	0.075	682600	keystroke	o	n/a
341.525	0.09	683050	keystroke	h	n/a
341.6445	0.1055	683289	keystroke	o	n/a
341.839	0.121	683678	keystroke	l	n/a
342.17	0.105	684340	keystroke	Key.space	n/a
342.455	0.09	684910	keystroke	i	n/a
342.515	0.074	685030	keystroke	n	n/a
342.95	0.089	685900	keystroke	Key.backspace	n/a
343.055	0.09	686110	keystroke	v	n/a
343.2045	0.1045	686409	keystroke	o	n/a
343.325	0.105	686650	keystroke	r	n/a
343.76	0.09	687520	keystroke	y	n/a
344.494	0.0905	688988	keystroke	Key.space	n/a
344.795	0.09	689590	keystroke	b	n/a
345.005	0.165	690010	keystroke	s	n/a
345.6645	0.1055	691329	keystroke	Key.backspace	n/a
345.8145	0.0755	691629	keystroke	a	n/a
345.8295	0.135	691659	keystroke	s	n/a
346.2345	0.09	692469	keystroke	i	n/a
346.3095	0.075	692619	keystroke	c	n/a
346.9395	0.09	693879	keystroke	Key.space	n/a
347.1045	0.075	694209	keystroke	s	n/a
347.2845	0.0905	694569	keystroke	c	n/a
347.675	0.0895	695350	keystroke	u	n/a
348.1095	0.091	696219	keystroke	l	n/a
348.32	0.075	696640	keystroke	p	n/a
348.845	0.075	697690	keystroke	t	n/a
348.9345	0.105	697869	keystroke	u	n/a
349.0245	0.075	698049	keystroke	r	n/a
349.0695	0.1055	698139	keystroke	e	n/a
349.4895	0.1055	698979	keystroke	Key.enter	n/a
349.6	11.3965	699200	prompt	n/a	incredible brother holidays came\n
350.255	0.1195	700510	keystroke	i	n/a
350.33	0.09	700660	keystroke	n	n/a
350.525	0.06	701050	keystroke	c	n/a
350.7195	0.0905	701439	keystroke	r	n/a
350.795	0.075	701590	keystroke	e	n/a
350.945	0.09	701890	keystroke	d	n/a
351.005	0.105	702010	keystroke	i	n/a
351.245	0.09	702490	keystroke	b	n/a
351.3795	0.0895	702759	keystroke	l	n/a
351.44	0.105	702880	keystroke	e	n/a
351.575	0.089	703150	keystroke	Key.space	n/a
352.085	0.0905	704170	keystroke	b	n/a
352.25	0.06	704500	keystroke	r	n/a
352.325	0.075	704650	keystroke	o	n/a
352.505	0.105	705010	keystroke	t	n/a
352.655	0.09	705310	keystroke	h	n/a
352.73	0.105	705460	keystroke	e	n/a
352.7895	0.0905	705579	keystroke	r	n/a
353.0295	0.0895	706059	keystroke	Key.space	n/a
353.3895	0.09	706779	keystroke	h	n/a
353.5395	0.09	707079	keystroke	o	n/a
353.6895	0.1055	707379	keystroke	l	n/a
353.8545	0.12	707709	keystroke	d	n/a
353.87	0.0895	707740	keystroke	i	n/a
354.02	0.0895	708040	keystroke	a	n/a
354.2295	0.075	708459	keystroke	y	n/a
354.515	0.03	709030	keystroke	d	n/a
354.9645	0.0605	709929	keystroke	Key.backspace	n/a
354.995	0.0895	709990	keystroke	s	n/a
356.315	0.0895	712630	keystroke	Key.backspace	n/a
356.5095	0.0605	713019	keystroke	Key.backspace	n/a
356.7045	0.045	713409	keystroke	Key.backspace	n/a
356.8545	0.0605	713709	keystroke	Key.backspace	n/a
357.0045	0.0605	714009	keystroke	Key.backspace	n/a
357.2145	0.0305	714429	keystroke	Key.backspace	n/a
357.95	0.075	715900	keystroke	l	n/a
358.265	0.09	716530	keystroke	i	n/a
358.445	0.09	716890	keystroke	d	n/a
358.655	0.105	717310	keystroke	a	n/a
358.985	0.075	717970	keystroke	y	n/a
359.255	0.09	718510	keystroke	s	n/a
360.05	0.045	720100	keystroke	Key.space	n/a
360.26	0.105	720520	keystroke	c	n/a
360.395	0.105	720790	keystroke	a	n/a
360.544	0.076	721088	keystroke	m	n/a
360.664	0.061	721328	keystroke	e	n/a
360.9045	0.0905	721809	keystroke	Key.enter	n/a
361.004	8.648	722008	prompt	n/a	rules monitors manufacture customers\n
361.8795	0.105	723759	keystroke	r	n/a
361.9695	0.075	723939	keystroke	u	n/a
362.165	0.104	724330	keystroke	l	n/a
362.255	0.06	724510	keystroke	e	n/a
362.405	0.105	724810	keystroke	s	n/a
362.495	0.075	724990	keystroke	Key.space	n/a
362.704	0.06	725408	keystroke	m	n/a
362.825	0.12	725650	keystroke	o	n/a
362.9295	0.045	725859	keystroke	n	n/a
363.0345	0.1055	726069	keystroke	i	n/a
363.154	0.0905	726308	keystroke	t	n/a
363.259	0.106	726518	keystroke	o	n/a
363.38	0.134	726760	keystroke	s	n/a
364.129	0.1505	728258	keystroke	Key.backspace	n/a
364.2805	0.014	728561	keystroke	r	n/a
364.3395	0.045	728679	keystroke	s	n/a
364.9395	0.0745	729879	keystroke	Key.space	n/a
365.105	0.09	730210	keystroke	m	n/a
365.21	0.105	730420	keystroke	a	n/a
365.3	0.06	730600	keystroke	n	n/a
365.405	0.105	730810	keystroke	u	n/a
365.855	0.06	731710	keystroke	f	n/a
366.635	0.105	733270	keystroke	a	n/a
366.8	0.1195	733600	keystroke	c	n/a
367.205	0.075	734410	keystroke	t	n/a
367.264	0.1205	734528	keystroke	u	n/a
367.4145	0.075	734829	keystroke	r	n/a
367.475	0.075	734950	keystroke	e	n/a
368.09	0.0155	736180	keystroke	Key.space	n/a
368.434	0.046	736868	keystroke	c	n/a
368.48	0.104	736960	keystroke	u	n/a
368.57	0.104	737140	keystroke	s	n/a
368.75	0.1045	737500	keystroke	t	n/a
368.8245	0.105	737649	keystroke	o	n/a
368.87	0.1195	737740	keystroke	m	n/a
368.945	0.0895	737890	keystroke	e	n/a
369.0045	0.075	738009	keystroke	r	n/a
369.2	0.075	738400	keystroke	s	n/a
369.5595	0.0905	739119	keystroke	Key.enter	n/a
369.656	10.9755	739312	prompt	n/a	yamaha invasion oughtn't errors\n
370.5945	0.09	741189	keystroke	y	n/a
371.24	0.0895	742480	keystroke	a	n/a
371.3895	0.06	742779	keystroke	m	n/a
371.4345	0.075	742869	keystroke	a	n/a
372.0795	0.105	744159	keystroke	h	n/a
372.1695	0.0895	744339	keystroke	a	n/a
372.4545	0.06	744909	keystroke	Key.space	n/a
372.6195	0.0905	745239	keystroke	i	n/a
372.6795	0.105	745359	keystroke	n	n/a
372.77	0.075	745540	keystroke	c	n/a
373.1145	0.075	746229	keystroke	Key.backspace	n/a
373.175	0.1045	746350	keystroke	v	n/a
373.3395	0.075	746679	keystroke	a	n/a
373.4	0.0295	746800	keystroke	w	n/a
373.415	0.0745	746830	keystroke	s	n/a
373.5795	0.06	747159	keystroke	i	n/a
373.88	0.075	747760	keystroke	Key.backspace	n/a
374.03	0.059	748060	keystroke	Key.backspace	n/a
374.18	0.075	748360	keystroke	Key.backspace	n/a
374.374	0.091	748748	keystroke	s	n/a
374.6	0.18	749200	keystroke	i	n/a
374.675	0.1645	749350	keystroke	o	n/a
374.7945	0.1055	749589	keystroke	n	n/a
375.1995	0.09	750399	keystroke	Key.space	n/a
375.4545	0.09	750909	keystroke	o	n/a
375.65	0.1045	751300	keystroke	u	n/a
376.4295	0.075	752859	keystroke	g	n/a
376.5195	0.105	753039	keystroke	h	n/a
377.315	0.074	754630	keystroke	t	n/a
377.689	0.046	755378	keystroke	n	n/a
378.59	0.075	757180	keystroke	'	n/a
378.814	0.075	757628	keystroke	t	n/a
379.07	0.104	758140	keystroke	Key.space	n/a
379.189	0.076	758378	keystroke	e	n/a
379.3845	0.0605	758769	keystroke	r	n/a
379.52	0.075	759040	keystroke	r	n/a
379.6245	0.0905	759249	keystroke	o	n/a
379.685	0.0745	759370	keystroke	r	n/a
379.865	0.1195	759730	keystroke	s	n/a
380.525	0.1045	761050	keystroke	Key.enter	n/a
380.6355	17.306	761271	prompt	n/a	government older technical authorities\n
381.514	0.076	763028	keystroke	g	n/a
381.634	0.1215	763268	keystroke	o	n/a
381.74	0.0895	763480	keystroke	v	n/a
381.8895	0.105	763779	keystroke	e	n/a
381.9795	0.09	763959	keystroke	r	n/a
382.0395	0.075	764079	keystroke	n	n/a
382.2195	0.0905	764439	keystroke	m	n/a
382.295	0.075	764590	keystroke	e	n/a
382.4	0.12	764800	keystroke	n	n/a
382.49	0.105	764980	keystroke	t	n/a
382.685	0.09	765370	keystroke	Key.space	n/a
383.195	0.135	766390	keystroke	o	n/a
383.405	0.105	766810	keystroke	l	n/a
383.51	0.075	767020	keystroke	d	n/a
383.63	0.105	767260	keystroke	e	n/a
383.705	0.075	767410	keystroke	r	n/a
383.78	0.0895	767560	keystroke	Key.space	n/a
383.99	0.06	767980	keystroke	t	n/a
384.0505	0.1195	768101	keystroke	e	n/a
384.245	0.105	768490	keystroke	c	n/a
384.335	0.09	768670	keystroke	h	n/a
384.44	0.0745	768880	keystroke	i	n/a
384.545	0.105	769090	keystroke	n	n/a
384.6345	0.105	769269	keystroke	i	n/a
384.8	0.0595	769600	keystroke	c	n/a
385.2195	0.09	770439	keystroke	Key.backspace	n/a
386.09	0.075	772180	keystroke	c	n/a
386.3	0.075	772600	keystroke	a	n/a
386.39	0.06	772780	keystroke	l	n/a
386.569	0.076	773138	keystroke	Key.space	n/a
386.765	0.09	773530	keystroke	a	n/a
386.87	0.089	773740	keystroke	u	n/a
387.005	0.09	774010	keystroke	t	n/a
387.11	0.045	774220	keystroke	h	n/a
387.229	0.136	774458	keystroke	o	n/a
387.35	0.075	774700	keystroke	r	n/a
387.47	0.06	774940	keystroke	i	n/a
387.98	0.045	775960	keystroke	t	n/a
388.055	0.104	776110	keystroke	i	n/a
388.115	0.105	776230	keystroke	e	n/a
388.2655	0.1035	776531	keystroke	s	n/a
391.5655	0.209	783131	keystroke	Key.backspace	n/a
391.85	0.0745	783700	keystroke	Key.backspace	n/a
391.9995	0.0595	783999	keystroke	Key.backspace	n/a
392.134	0.046	784268	keystroke	Key.backspace	n/a
392.2545	0.0455	784509	keystroke	Key.backspace	n/a
392.3745	0.045	784749	keystroke	Key.backspace	n/a
392.4795	0.0605	784959	keystroke	Key.backspace	n/a
392.615	0.0445	785230	keystroke	Key.backspace	n/a
392.7345	0.0605	785469	keystroke	Key.backspace	n/a
392.855	0.0745	785710	keystroke	Key.backspace	n/a
392.9745	0.075	785949	keystroke	Key.backspace	n/a
393.095	0.075	786190	keystroke	Key.backspace	n/a
393.2295	0.0605	786459	keystroke	Key.backspace	n/a
393.365	0.0595	786730	keystroke	Key.backspace	n/a
393.5295	0.0605	787059	keystroke	Key.backspace	n/a
393.695	0.0595	787390	keystroke	Key.backspace	n/a
393.8445	0.0755	787689	keystroke	Key.backspace	n/a
394.1895	0.0305	788379	keystroke	Key.backspace	n/a
394.88	0.0905	789760	keystroke	n	n/a
395.015	0.06	790030	keystroke	i	n/a
395.105	0.105	790210	keystroke	c	n/a
395.195	0.09	790390	keystroke	a	n/a
395.33	0.1045	790660	keystroke	l	n/a
395.645	0.0745	791290	keystroke	Key.space	n/a
396.2	0.105	792400	keystroke	a	n/a
396.26	0.12	792520	keystroke	u	n/a
396.41	0.105	792820	keystroke	t	n/a
396.47	0.0755	792940	keystroke	h	n/a
396.635	0.105	793270	keystroke	o	n/a
396.725	0.09	793450	keystroke	r	n/a
396.86	0.075	793720	keystroke	i	n/a
397.25	0.075	794500	keystroke	t	n/a
397.34	0.09	794680	keystroke	i	n/a
397.4	0.09	794800	keystroke	e	n/a
397.565	0.09	795130	keystroke	s	n/a
397.85	0.09	795700	keystroke	Key.enter	n/a
397.945	11.277	795890	prompt	n/a	cleared jacksonville denver specifics\n
398.615	0.105	797230	keystroke	c	n/a
398.735	0.09	797470	keystroke	l	n/a
398.915	0.105	797830	keystroke	e	n/a
399.065	0.1055	798130	keystroke	a	n/a
399.125	0.12	798250	keystroke	r	n/a
399.38	0.06	798760	keystroke	e	n/a
399.515	0.09	799030	keystroke	d	n/a
399.68	0.09	799360	keystroke	Key.space	n/a
399.92	0.105	799840	keystroke	j	n/a
400.055	0.104	800110	keystroke	a	n/a
400.25	0.105	800500	keystroke	c	n/a
400.3705	0.0745	800741	keystroke	k	n/a
400.475	0.105	800950	keystroke	s	n/a
400.595	0.105	801190	keystroke	i	n/a
400.67	0.105	801340	keystroke	n	n/a
401.1195	0.0455	802239	keystroke	Key.backspace	n/a
401.225	0.075	802450	keystroke	Key.backspace	n/a
401.45	0.1205	802900	keystroke	o	n/a
401.495	0.12	802990	keystroke	n	n/a
402.5145	0.09	805029	keystroke	v	n/a
402.6205	0.059	805241	keystroke	i	n/a
402.815	0.0595	805630	keystroke	l	n/a
402.9345	0.09	805869	keystroke	l	n/a
403.0095	0.075	806019	keystroke	e	n/a
404.0295	0.09	808059	keystroke	Key.space	n/a
404.135	0.0895	808270	keystroke	d	n/a
404.2545	0.105	808509	keystroke	e	n/a
404.54	0.09	809080	keystroke	n	n/a
404.645	0.0895	809290	keystroke	v	n/a
404.7795	0.1055	809559	keystroke	e	n/a
404.8705	0.0895	809741	keystroke	r	n/a
405.14	0.06	810280	keystroke	Key.space	n/a
407.497	0.103	814994	keystroke	s	n/a
407.765	0.09	815530	keystroke	p	n/a
408.0055	0.104	816011	keystroke	e	n/a
408.2595	0.015	816519	keystroke	c	n/a
408.3505	0.0895	816701	keystroke	i	n/a
408.4555	0.074	816911	keystroke	f	n/a
408.545	0.0895	817090	keystroke	i	n/a
408.6505	0.104	817301	keystroke	c	n/a
408.935	0.0745	817870	keystroke	s	n/a
409.115	0.105	818230	keystroke	Key.enter	n/a
409.227	7.1345	818454	prompt	n/a	give alerts undertaken insert\n
410.03	0.0905	820060	keystroke	g	n/a
410.105	0.105	820210	keystroke	i	n/a
410.195	0.089	820390	keystroke	v	n/a
410.314	0.1065	820628	keystroke	e	n/a
410.4345	0.1055	820869	keystroke	Key.space	n/a
410.5695	0.105	821139	keystroke	a	n/a
410.69	0.0895	821380	keystroke	l	n/a
410.7955	0.134	821591	keystroke	e	n/a
410.9745	0.105	821949	keystroke	r	n/a
411.335	0.0745	822670	keystroke	y	n/a
411.62	0.0455	823240	keystroke	s	n/a
411.934	0.046	823868	keystroke	Key.backspace	n/a
412.07	0.089	824140	keystroke	Key.backspace	n/a
412.144	0.12	824288	keystroke	t	n/a
412.294	0.0915	824588	keystroke	s	n/a
412.9245	0.075	825849	keystroke	Key.space	n/a
413.1795	0.1355	826359	keystroke	u	n/a
413.2545	0.105	826509	keystroke	n	n/a
413.3455	0.1045	826691	keystroke	d	n/a
413.4345	0.1655	826869	keystroke	e	n/a
413.5705	0.075	827141	keystroke	r	n/a
413.78	0.075	827560	keystroke	t	n/a
413.929	0.1205	827858	keystroke	a	n/a
414.0655	0.09	828131	keystroke	k	n/a
414.1855	0.1045	828371	keystroke	e	n/a
414.334	0.106	828668	keystroke	n	n/a
414.7545	0.075	829509	keystroke	Key.space	n/a
414.89	0.1195	829780	keystroke	i	n/a
414.9645	0.12	829929	keystroke	n	n/a
415.385	0.135	830770	keystroke	s	n/a
415.6705	0.1195	831341	keystroke	e	n/a
415.745	0.105	831490	keystroke	r	n/a
415.97	0.0905	831940	keystroke	t	n/a
416.284	0.0755	832568	keystroke	Key.enter	n/a
416.3655	7.991	832731	prompt	n/a	topic grown alarm yesterday\n
417.109	0.075	834218	keystroke	t	n/a
417.23	0.12	834460	keystroke	o	n/a
417.3205	0.1195	834641	keystroke	p	n/a
417.545	0.105	835090	keystroke	i	n/a
417.68	0.075	835360	keystroke	c	n/a
418.025	0.075	836050	keystroke	Key.space	n/a
418.88	0.09	837760	keystroke	b	n/a
418.985	0.09	837970	keystroke	r	n/a
419.12	0.075	838240	keystroke	o	n/a
419.21	0.09	838420	keystroke	w	n/a
419.63	0.06	839260	keystroke	Key.backspace	n/a
419.78	0.06	839560	keystroke	Key.backspace	n/a
419.93	0.045	839860	keystroke	Key.backspace	n/a
420.065	0.06	840130	keystroke	Key.backspace	n/a
420.4845	0.09	840969	keystroke	g	n/a
420.5595	0.091	841119	keystroke	r	n/a
420.6505	0.104	841301	keystroke	o	n/a
420.77	0.0895	841540	keystroke	w	n/a
420.8745	0.076	841749	keystroke	n	n/a
421.1	0.104	842200	keystroke	Key.space	n/a
421.505	0.074	843010	keystroke	a	n/a
421.595	0.105	843190	keystroke	l	n/a
421.745	0.06	843490	keystroke	a	n/a
421.88	0.09	843760	keystroke	r	n/a
422.0155	0.1045	844031	keystroke	m	n/a
422.225	0.09	844450	keystroke	Key.space	n/a
422.7205	0.105	845441	keystroke	y	n/a
422.7945	0.0905	845589	keystroke	e	n/a
422.93	0.105	845860	keystroke	s	n/a
423.095	0.09	846190	keystroke	t	n/a
423.23	0.12	846460	keystroke	e	n/a
423.335	0.075	846670	keystroke	r	n/a
423.575	0.135	847150	keystroke	d	n/a
423.665	0.12	847330	keystroke	a	n/a
423.905	0.09	847810	keystroke	y	n/a
424.265	0.0895	848530	keystroke	Key.enter	n/a
424.36	6.7915	848720	prompt	n/a	grande fiji clone bowl\n
425.39	0.075	850780	keystroke	g	n/a
425.435	0.12	850870	keystroke	r	n/a
425.6005	0.0895	851201	keystroke	a	n/a
425.7205	0.105	851441	keystroke	n	n/a
425.8395	0.106	851679	keystroke	d	n/a
426.1255	0.075	852251	keystroke	e	n/a
426.4545	0.0905	852909	keystroke	Key.space	n/a
427.565	0.06	855130	keystroke	f	n/a
427.64	0.09	855280	keystroke	i	n/a
427.715	0.12	855430	keystroke	j	n/a
427.82	0.09	855640	keystroke	i	n/a
428.195	0.09	856390	keystroke	Key.space	n/a
428.93	0.045	857860	keystroke	c	n/a
428.99	0.015	857980	keystroke	l	n/a
429.02	0.09	858040	keystroke	o	n/a
429.095	0.105	858190	keystroke	n	n/a
429.185	0.09	858370	keystroke	e	n/a
429.29	0.075	858580	keystroke	Key.space	n/a
429.695	0.075	859390	keystroke	b	n/a
429.845	0.105	859690	keystroke	o	n/a
430.01	0.09	860020	keystroke	w	n/a
430.2355	0.0895	860471	keystroke	l	n/a
430.9995	0.15	861999	keystroke	Key.enter	n/a
431.1555	9.0555	862311	prompt	n/a	surrey missions short screenshot\n
431.945	0.09	863890	keystroke	s	n/a
432.1695	0.016	864339	keystroke	r	n/a
432.634	0.046	865268	keystroke	Key.backspace	n/a
432.845	0.0895	865690	keystroke	u	n/a
432.9195	0.0905	865839	keystroke	r	n/a
433.0545	0.105	866109	keystroke	r	n/a
433.3395	0.076	866679	keystroke	y	n/a
433.8345	0.091	867669	keystroke	Key.backspace	n/a
433.8655	0.075	867731	keystroke	e	n/a
434.0305	0.089	868061	keystroke	y	n/a
434.885	0.1055	869770	keystroke	Key.space	n/a
435.125	0.03	870250	keystroke	m	n/a
435.215	0.09	870430	keystroke	i	n/a
435.62	0.075	871240	keystroke	s	n/a
435.77	0.09	871540	keystroke	s	n/a
435.8905	0.0895	871781	keystroke	i	n/a
435.935	0.1505	871870	keystroke	o	n/a
436.055	0.12	872110	keystroke	n	n/a
436.13	0.09	872260	keystroke	s	n/a
436.37	0.06	872740	keystroke	Key.space	n/a
436.85	0.12	873700	keystroke	s	n/a
436.955	0.09	873910	keystroke	h	n/a
437.09	0.135	874180	keystroke	o	n/a
437.21	0.075	874420	keystroke	r	n/a
437.36	0.09	874720	keystroke	t	n/a
437.435	0.105	874870	keystroke	Key.space	n/a
437.675	0.1345	875350	keystroke	s	n/a
437.8545	0.105	875709	keystroke	c	n/a
438.0645	0.09	876129	keystroke	r	n/a
438.1555	0.089	876311	keystroke	e	n/a
438.3045	0.09	876609	keystroke	e	n/a
438.4845	0.091	876969	keystroke	n	n/a
438.7405	0.075	877481	keystroke	s	n/a
438.8755	0.104	877751	keystroke	h	n/a
439.1145	0.045	878229	keystroke	o	n/a
439.1295	0.046	878259	keystroke	p	n/a
439.1905	0.089	878381	keystroke	t	n/a
439.5795	0.06	879159	keystroke	Key.backspace	n/a
439.715	0.105	879430	keystroke	Key.backspace	n/a
439.8045	0.0605	879609	keystroke	t	n/a
440.105	0.105	880210	keystroke	Key.enter	n/a
440.215	6.807	880430	prompt	n/a	invited times tyler memphis\n
440.9155	0.135	881831	keystroke	i	n/a
440.9905	0.12	881981	keystroke	n	n/a
441.1855	0.09	882371	keystroke	v	n/a
441.2605	0.105	882521	keystroke	i	n/a
441.3805	0.104	882761	keystroke	t	n/a
441.4705	0.075	882941	keystroke	e	n/a
441.635	0.075	883270	keystroke	d	n/a
442.145	0.1055	884290	keystroke	Key.space	n/a
442.4455	0.075	884891	keystroke	t	n/a
442.4755	0.1645	884951	keystroke	i	n/a
442.5655	0.105	885131	keystroke	m	n/a
442.6255	0.1045	885251	keystroke	e	n/a
442.82	0.12	885640	keystroke	s	n/a
442.955	0.075	885910	keystroke	Key.space	n/a
443.5095	0.076	887019	keystroke	t	n/a
443.6905	0.074	887381	keystroke	y	n/a
443.8395	0.0755	887679	keystroke	l	n/a
443.945	0.1055	887890	keystroke	e	n/a
444.0645	0.09	888129	keystroke	r	n/a
445.145	0.105	890290	keystroke	Key.space	n/a
445.3405	0.1045	890681	keystroke	m	n/a
445.46	0.09	890920	keystroke	e	n/a
445.5655	0.0745	891131	keystroke	m	n/a
445.775	0.075	891550	keystroke	p	n/a
446.075	0.12	892150	keystroke	h	n/a
446.21	0.09	892420	keystroke	i	n/a
446.525	0.075	893050	keystroke	s	n/a
446.945	0.075	893890	keystroke	Key.enter	n/a
447.0255	6.656	894051	prompt	n/a	minds carol space adopted\n
447.7405	0.089	895481	keystroke	m	n/a
447.9045	0.09	895809	keystroke	i	n/a
447.9795	0.105	895959	keystroke	n	n/a
448.0095	0.1505	896019	keystroke	d	n/a
448.1455	0.075	896291	keystroke	s	n/a
448.265	0.0605	896530	keystroke	Key.space	n/a
448.85	0.105	897700	keystroke	c	n/a
448.97	0.165	897940	keystroke	a	n/a
449.105	0.1055	898210	keystroke	r	n/a
449.3	0.075	898600	keystroke	o	n/a
449.48	0.09	898960	keystroke	l	n/a
449.69	0.075	899380	keystroke	Key.space	n/a
450.0805	0.09	900161	keystroke	s	n/a
450.1845	0.091	900369	keystroke	p	n/a
450.3505	0.1345	900701	keystroke	c	n/a
450.7545	0.105	901509	keystroke	Key.backspace	n/a
450.8755	0.089	901751	keystroke	a	n/a
450.9195	0.135	901839	keystroke	c	n/a
451.0845	0.105	902169	keystroke	e	n/a
451.3245	0.09	902649	keystroke	Key.space	n/a
451.595	0.0905	903190	keystroke	a	n/a
451.76	0.1205	903520	keystroke	d	n/a
452.0295	0.165	904059	keystroke	o	n/a
452.18	0.1205	904360	keystroke	p	n/a
452.4045	0.1055	904809	keystroke	t	n/a
452.51	0.12	905020	keystroke	e	n/a
453.2155	0.0145	906431	keystroke	d	n/a
453.575	0.105	907150	keystroke	Key.enter	n/a
453.685	9.5965	907370	prompt	n/a	paying magazine auditor untitled\n
454.925	0.075	909850	keystroke	p	n/a
455.465	0.12	910930	keystroke	a	n/a
456.05	0.075	912100	keystroke	y	n/a
456.26	0.12	912520	keystroke	i	n/a
456.32	0.105	912640	keystroke	n	n/a
456.455	0.09	912910	keystroke	g	n/a
457.3395	0.0905	914679	keystroke	Key.space	n/a
457.535	0.0895	915070	keystroke	m	n/a
457.67	0.075	915340	keystroke	a	n/a
457.8045	0.0905	915609	keystroke	g	n/a
457.9245	0.1055	915849	keystroke	a	n/a
458.555	0.12	917110	keystroke	z	n/a
458.705	0.135	917410	keystroke	i	n/a
458.765	0.15	917530	keystroke	n	n/a
458.87	0.105	917740	keystroke	e	n/a
459.35	0.09	918700	keystroke	Key.space	n/a
459.62	0.09	919240	keystroke	a	n/a
459.755	0.105	919510	keystroke	u	n/a
459.86	0.105	919720	keystroke	d	n/a
459.995	0.075	919990	keystroke	i	n/a
460.175	0.045	920350	keystroke	t	n/a
460.205	0.09	920410	keystroke	o	n/a
460.9405	0.06	921881	keystroke	r	n/a
461.5395	0.091	923079	keystroke	Key.space	n/a
461.7505	0.12	923501	keystroke	u	n/a
461.8105	0.105	923621	keystroke	n	n/a
462.0505	0.075	924101	keystroke	t	n/a
462.1555	0.075	924311	keystroke	i	n/a
462.2755	0.075	924551	keystroke	t	n/a
462.8	0.105	925600	keystroke	l	n/a
462.875	0.075	925750	keystroke	e	n/a
463.0405	0.0895	926081	keystroke	d	n/a
463.19	0.09	926380	keystroke	Key.enter	n/a
463.287	9.835	926574	prompt	n/a	monitored childrens homeland footage\n
464.105	0.09	928210	keystroke	m	n/a
464.2845	0.151	928569	keystroke	o	n/a
464.42	0.09	928840	keystroke	n	n/a
464.645	0.0895	929290	keystroke	i	n/a
464.78	0.075	929560	keystroke	t	n/a
464.8995	0.0905	929799	keystroke	o	n/a
464.9905	0.0895	929981	keystroke	r	n/a
465.125	0.09	930250	keystroke	e	n/a
465.275	0.135	930550	keystroke	d	n/a
465.425	0.075	930850	keystroke	Key.space	n/a
465.83	0.105	931660	keystroke	c	n/a
465.89	0.105	931780	keystroke	h	n/a
465.965	0.09	931930	keystroke	i	n/a
466.16	0.1055	932320	keystroke	l	n/a
466.28	0.09	932560	keystroke	d	n/a
466.46	0.0905	932920	keystroke	r	n/a
466.52	0.09	933040	keystroke	e	n/a
466.715	0.09	933430	keystroke	n	n/a
467.0155	0.0745	934031	keystroke	s	n/a
467.2995	0.0755	934599	keystroke	Key.space	n/a
467.51	0.1055	935020	keystroke	h	n/a
467.6755	0.104	935351	keystroke	o	n/a
467.8245	0.091	935649	keystroke	e	n/a
469.1595	0.075	938319	keystroke	Key.backspace	n/a
469.475	0.0895	938950	keystroke	m	n/a
469.58	0.0745	939160	keystroke	e	n/a
469.7295	0.0605	939459	keystroke	s	n/a
469.8495	0.105	939699	keystroke	l	n/a
470.03	0.0605	940060	keystroke	a	n/a
470.2995	0.075	940599	keystroke	Key.backspace	n/a
470.4495	0.075	940899	keystroke	Key.backspace	n/a
470.5995	0.0605	941199	keystroke	Key.backspace	n/a
470.855	0.105	941710	keystroke	l	n/a
470.975	0.045	941950	keystroke	a	n/a
471.065	0.105	942130	keystroke	n	n/a
471.185	0.1055	942370	keystroke	d	n/a
471.62	0.09	943240	keystroke	Key.space	n/a
471.9045	0.075	943809	keystroke	f	n/a
472.0995	0.0605	944199	keystroke	o	n/a
472.235	0.0895	944470	keystroke	o	n/a
472.34	0.12	944680	keystroke	t	n/a
472.5195	0.1195	945039	keystroke	a	n/a
472.654	0.1205	945308	keystroke	g	n/a
472.7595	0.12	945519	keystroke	e	n/a
473.0445	0.075	946089	keystroke	Key.enter	n/a
473.1265	8.605	946253	prompt	n/a	gotta rebates classifieds trustee\n
474.17	0.105	948340	keystroke	g	n/a
474.3195	0.12	948639	keystroke	o	n/a
474.56	0.075	949120	keystroke	t	n/a
474.6955	0.09	949391	keystroke	t	n/a
474.8755	0.12	949751	keystroke	a	n/a
475.0855	0.09	950171	keystroke	Key.space	n/a
475.3395	0.076	950679	keystroke	r	n/a
475.3855	0.105	950771	keystroke	e	n/a
475.6255	0.0895	951251	keystroke	b	n/a
475.775	0.12	951550	keystroke	a	n/a
475.925	0.1195	951850	keystroke	t	n/a
476.0305	0.0745	952061	keystroke	e	n/a
476.0595	0.046	952119	keystroke	w	n/a
476.2545	0.0605	952509	keystroke	s	n/a
476.6445	0.0605	953289	keystroke	Key.backspace	n/a
476.7945	0.0605	953589	keystroke	Key.backspace	n/a
476.885	0.0895	953770	keystroke	s	n/a
477.29	0.1195	954580	keystroke	Key.space	n/a
477.5595	0.1055	955119	keystroke	c	n/a
477.6805	0.074	955361	keystroke	l	n/a
477.7695	0.0905	955539	keystroke	a	n/a
478.0245	0.0605	956049	keystroke	s	n/a
478.1905	0.044	956381	keystroke	s	n/a
478.31	0.0895	956620	keystroke	i	n/a
478.79	0.0745	957580	keystroke	f	n/a
478.8955	0.105	957791	keystroke	i	n/a
478.9705	0.104	957941	keystroke	e	n/a
479.135	0.105	958270	keystroke	d	n/a
479.2855	0.09	958571	keystroke	s	n/a
479.5395	0.105	959079	keystroke	Key.space	n/a
480.2605	0.134	960521	keystroke	t	n/a
480.3495	0.106	960699	keystroke	r	n/a
480.59	0.1045	961180	keystroke	u	n/a
480.7405	0.1045	961481	keystroke	s	n/a
480.9045	0.12	961809	keystroke	t	n/a
481.1005	0.089	962201	keystroke	e	n/a
481.3995	0.045	962799	keystroke	e	n/a
481.6245	0.1055	963249	keystroke	Key.enter	n/a
481.7365	9.01	963473	prompt	n/a	thanksgiving save trans children\n
482.4505	0.089	964901	keystroke	t	n/a
482.5545	0.106	965109	keystroke	h	n/a
482.6745	0.091	965349	keystroke	a	n/a
482.78	0.1655	965560	keystroke	n	n/a
482.8995	0.151	965799	keystroke	k	n/a
483.0355	0.074	966071	keystroke	s	n/a
484.055	0.0745	968110	keystroke	g	n/a
484.2045	0.0905	968409	keystroke	i	n/a
484.385	0.06	968770	keystroke	v	n/a
484.4905	0.1495	968981	keystroke	i	n/a
484.595	0.12	969190	keystroke	n	n/a
484.6855	0.0895	969371	keystroke	g	n/a
485.765	0.09	971530	keystroke	Key.space	n/a
486.1545	0.1055	972309	keystroke	s	n/a
486.35	0.1055	972700	keystroke	a	n/a
486.47	0.075	972940	keystroke	c	n/a
486.6055	0.1495	973211	keystroke	e	n/a
487.1	0.045	974200	keystroke	Key.backspace	n/a
487.22	0.09	974440	keystroke	Key.backspace	n/a
487.295	0.075	974590	keystroke	v	n/a
487.34	0.135	974680	keystroke	e	n/a
487.685	0.06	975370	keystroke	Key.space	n/a
488.06	0.075	976120	keystroke	t	n/a
488.0905	0.0895	976181	keystroke	r	n/a
488.27	0.075	976540	keystroke	a	n/a
488.33	0.09	976660	keystroke	n	n/a
488.405	0.105	976810	keystroke	s	n/a
488.54	0.09	977080	keystroke	Key.space	n/a
489.065	0.105	978130	keystroke	c	n/a
489.1405	0.1045	978281	keystroke	h	n/a
489.26	0.0595	978520	keystroke	i	n/a
489.4245	0.0905	978849	keystroke	l	n/a
489.605	0.06	979210	keystroke	d	n/a
490.145	0.09	980290	keystroke	r	n/a
490.205	0.105	980410	keystroke	e	n/a
490.355	0.075	980710	keystroke	n	n/a
490.64	0.105	981280	keystroke	Key.enter	n/a
490.7515	6.58	981503	prompt	n/a	toll machine individual burden\n
491.375	0.1045	982750	keystroke	t	n/a
491.4955	0.0895	982991	keystroke	o	n/a
491.72	0.06	983440	keystroke	l	n/a
491.8545	0.106	983709	keystroke	l	n/a
492.065	0.075	984130	keystroke	Key.space	n/a
492.2455	0.089	984491	keystroke	m	n/a
492.3495	0.121	984699	keystroke	a	n/a
492.5595	0.0905	985119	keystroke	c	n/a
492.665	0.075	985330	keystroke	h	n/a
492.89	0.12	985780	keystroke	i	n/a
492.98	0.12	985960	keystroke	n	n/a
493.07	0.09	986140	keystroke	e	n/a
493.624	0.091	987248	keystroke	Key.space	n/a
493.774	0.136	987548	keystroke	i	n/a
493.865	0.1055	987730	keystroke	n	n/a
494.0005	0.075	988001	keystroke	d	n/a
494.09	0.075	988180	keystroke	i	n/a
494.225	0.075	988450	keystroke	v	n/a
494.2845	0.0755	988569	keystroke	i	n/a
494.435	0.06	988870	keystroke	d	n/a
494.8845	0.091	989769	keystroke	u	n/a
494.99	0.075	989980	keystroke	a	n/a
495.1105	0.135	990221	keystroke	l	n/a
495.485	0.075	990970	keystroke	Key.space	n/a
496.205	0.105	992410	keystroke	b	n/a
496.295	0.09	992590	keystroke	u	n/a
496.505	0.075	993010	keystroke	r	n/a
496.715	0.09	993430	keystroke	d	n/a
496.835	0.105	993670	keystroke	e	n/a
496.955	0.105	993910	keystroke	n	n/a
497.225	0.105	994450	keystroke	Key.enter	n/a
497.3365	7.045	994673	prompt	n/a	protein admitted helena worst\n
498.56	0.09	997120	keystroke	p	n/a
498.95	0.06	997900	keystroke	r	n/a
499.055	0.045	998110	keystroke	o	n/a
499.34	0.09	998680	keystroke	t	n/a
499.46	0.105	998920	keystroke	e	n/a
499.625	0.135	999250	keystroke	i	n/a
499.715	0.12	999430	keystroke	n	n/a
500.1955	0.0895	1000391	keystroke	Key.space	n/a
500.3295	0.075	1000659	keystroke	a	n/a
500.4495	0.09	1000899	keystroke	d	n/a
500.5855	0.044	1001171	keystroke	m	n/a
500.6745	0.1355	1001349	keystroke	i	n/a
500.765	0.09	1001530	keystroke	t	n/a
500.945	0.09	1001890	keystroke	t	n/a
501.1105	0.0745	1002221	keystroke	e	n/a
501.26	0.09	1002520	keystroke	d	n/a
501.41	0.075	1002820	keystroke	Key.space	n/a
501.8605	0.089	1003721	keystroke	h	n/a
502.0555	0.075	1004111	keystroke	e	n/a
502.1605	0.09	1004321	keystroke	l	n/a
502.2505	0.074	1004501	keystroke	e	n/a
502.3545	0.091	1004709	keystroke	n	n/a
502.5045	0.076	1005009	keystroke	a	n/a
502.91	0.105	1005820	keystroke	Key.space	n/a
503.105	0.0905	1006210	keystroke	w	n/a
503.2095	0.09	1006419	keystroke	o	n/a
503.2855	0.074	1006571	keystroke	r	n/a
503.4345	0.12	1006869	keystroke	s	n/a
503.6455	0.089	1007291	keystroke	t	n/a
504.275	0.1045	1008550	keystroke	Key.enter	n/a
504.386	14.2155	1008772	prompt	n/a	bankruptcy enterprise mature harvest\n
505.3705	0.105	1010741	keystroke	b	n/a
505.5205	0.075	1011041	keystroke	a	n/a
505.6095	0.1805	1011219	keystroke	n	n/a
505.7295	0.075	1011459	keystroke	j	n/a
505.7455	0.075	1011491	keystroke	k	n/a
506.255	0.06	1012510	keystroke	Key.backspace	n/a
506.375	0.09	1012750	keystroke	Key.backspace	n/a
506.66	0.06	1013320	keystroke	k	n/a
508.8375	0	1017675	keystroke	r	n/a
508.9705	0.104	1017941	keystroke	u	n/a
509.1795	0.105	1018359	keystroke	p	n/a
510.6645	0.0905	1021329	keystroke	t	n/a
511.0245	0.121	1022049	keystroke	c	n/a
511.3545	0.076	1022709	keystroke	y	n/a
511.9245	0.09	1023849	keystroke	Key.space	n/a
512.0755	0.09	1024151	keystroke	e	n/a
512.1505	0.104	1024301	keystroke	n	n/a
512.2555	0.075	1024511	keystroke	t	n/a
512.3595	0.12	1024719	keystroke	e	n/a
512.4655	0.075	1024931	keystroke	r	n/a
512.69	0.105	1025380	keystroke	p	n/a
513.035	0.09	1026070	keystroke	r	n/a
513.185	0.06	1026370	keystroke	i	n/a
513.44	0.045	1026880	keystroke	z	n/a
513.455	0.015	1026910	keystroke	x	n/a
513.8455	0.044	1027691	keystroke	Key.backspace	n/a
514.0245	0.0755	1028049	keystroke	Key.backspace	n/a
514.13	0.09	1028260	keystroke	s	n/a
514.37	0.0905	1028740	keystroke	e	n/a
515.2245	0.075	1030449	keystroke	Key.space	n/a
515.3745	0.1055	1030749	keystroke	m	n/a
515.4495	0.106	1030899	keystroke	a	n/a
515.615	0.1055	1031230	keystroke	t	n/a
515.735	0.09	1031470	keystroke	u	n/a
515.81	0.09	1031620	keystroke	r	n/a
515.855	0.12	1031710	keystroke	e	n/a
516.5745	0.075	1033149	keystroke	Key.space	n/a
516.77	0.09	1033540	keystroke	h	n/a
516.8455	0.1495	1033691	keystroke	a	n/a
516.9805	0.105	1033961	keystroke	r	n/a
517.2945	0.076	1034589	keystroke	e	n/a
517.7145	0.09	1035429	keystroke	Key.backspace	n/a
517.7595	0.061	1035519	keystroke	v	n/a
517.865	0.0895	1035730	keystroke	e	n/a
518.015	0.1205	1036030	keystroke	s	n/a
518.21	0.1195	1036420	keystroke	t	n/a
518.4795	0.12	1036959	keystroke	Key.enter	n/a
518.6065	11.727	1037213	prompt	n/a	assured tune honey sure\n
519.3055	0.044	1038611	keystroke	s	n/a
519.3205	0.1045	1038641	keystroke	a	n/a
520.07	0.075	1040140	keystroke	Key.backspace	n/a
520.22	0.075	1040440	keystroke	Key.backspace	n/a
520.355	0.06	1040710	keystroke	a	n/a
520.4	0.06	1040800	keystroke	s	n/a
520.565	0.075	1041130	keystroke	s	n/a
520.745	0.03	1041490	keystroke	s	n/a
520.82	0.105	1041640	keystroke	u	n/a
521.225	0.0605	1042450	keystroke	Key.backspace	n/a
521.375	0.06	1042750	keystroke	Key.backspace	n/a
521.54	0.045	1043080	keystroke	Key.backspace	n/a
522.11	0.09	1044220	keystroke	s	n/a
522.425	0.105	1044850	keystroke	u	n/a
522.56	0.0895	1045120	keystroke	r	n/a
522.8455	0.075	1045691	keystroke	e	n/a
523.025	0.09	1046050	keystroke	d	n/a
523.2495	0.075	1046499	keystroke	Key.space	n/a
523.4605	0.075	1046921	keystroke	t	n/a
523.5205	0.135	1047041	keystroke	i	n/a
523.7605	0.105	1047521	keystroke	n	n/a
524.0295	0.045	1048059	keystroke	e	n/a
524.345	0.06	1048690	keystroke	Key.backspace	n/a
524.495	0.075	1048990	keystroke	Key.backspace	n/a
525.1095	0.0905	1050219	keystroke	Key.backspace	n/a
525.7405	0.0595	1051481	keystroke	u	n/a
526.1605	0.089	1052321	keystroke	n	n/a
526.6245	0.0605	1053249	keystroke	e	n/a
527.39	0.075	1054780	keystroke	Key.space	n/a
528.125	0.091	1056250	keystroke	h	n/a
528.3355	0.1345	1056671	keystroke	o	n/a
528.455	0.105	1056910	keystroke	n	n/a
528.6955	0.1195	1057391	keystroke	e	n/a
528.9345	0.09	1057869	keystroke	y	n/a
529.0845	0.1055	1058169	keystroke	Key.space	n/a
529.5355	0.09	1059071	keystroke	s	n/a
529.655	0.1205	1059310	keystroke	u	n/a
529.776	0.104	1059552	keystroke	r	n/a
529.94	0.09	1059880	keystroke	e	n/a
530.225	0.1055	1060450	keystroke	Key.enter	n/a
530.338	12.009	1060676	prompt	n/a	planet referenced sink greene\n
531.425	0.105	1062850	keystroke	p	n/a
531.8005	0.105	1063601	keystroke	l	n/a
532.0555	0.105	1064111	keystroke	a	n/a
532.1455	0.12	1064291	keystroke	n	n/a
532.5055	0.105	1065011	keystroke	t	n/a
532.7755	0.09	1065551	keystroke	Key.space	n/a
532.9705	0.075	1065941	keystroke	r	n/a
533.0305	0.1045	1066061	keystroke	e	n/a
533.18	0.105	1066360	keystroke	f	n/a
533.3	0.105	1066600	keystroke	e	n/a
533.39	0.1205	1066780	keystroke	r	n/a
533.4955	0.1195	1066991	keystroke	e	n/a
533.63	0.0895	1067260	keystroke	n	n/a
533.765	0.1205	1067530	keystroke	e	n/a
533.96	0.0895	1067920	keystroke	d	n/a
534.14	0.1045	1068280	keystroke	Key.space	n/a
534.515	0.0605	1069030	keystroke	s	n/a
534.92	0.075	1069840	keystroke	Key.backspace	n/a
535.1	0.075	1070200	keystroke	Key.backspace	n/a
535.25	0.0755	1070500	keystroke	Key.backspace	n/a
537.997	0.118	1075994	keystroke	Key.backspace	n/a
538.25	0.075	1076500	keystroke	c	n/a
538.415	0.106	1076830	keystroke	e	n/a
538.6555	0.0895	1077311	keystroke	d	n/a
539.3145	0.091	1078629	keystroke	Key.space	n/a
539.7055	0.015	1079411	keystroke	s	n/a
539.8405	0.135	1079681	keystroke	i	n/a
539.9455	0.105	1079891	keystroke	n	n/a
540.0795	0.1355	1080159	keystroke	k	n/a
541.04	0.09	1082080	keystroke	Key.space	n/a
541.3255	0.1045	1082651	keystroke	g	n/a
541.415	0.075	1082830	keystroke	r	n/a
541.61	0.06	1083220	keystroke	e	n/a
541.7305	0.0895	1083461	keystroke	e	n/a
541.88	0.0755	1083760	keystroke	n	n/a
542.015	0.075	1084030	keystroke	e	n/a
542.2255	0.1195	1084451	keystroke	Key.enter	n/a
542.3525	7.254	1084705	prompt	n/a	wood makes centuries fellowship\n
542.9605	0.089	1085921	keystroke	w	n/a
543.1405	0.075	1086281	keystroke	o	n/a
543.2905	0.09	1086581	keystroke	o	n/a
543.3955	0.12	1086791	keystroke	d	n/a
543.5305	0.105	1087061	keystroke	Key.space	n/a
543.7555	0.09	1087511	keystroke	m	n/a
543.8905	0.075	1087781	keystroke	a	n/a
543.9805	0.105	1087961	keystroke	k	n/a
544.1005	0.075	1088201	keystroke	e	n/a
544.2655	0.075	1088531	keystroke	s	n/a
544.3555	0.09	1088711	keystroke	Key.space	n/a
544.6705	0.12	1089341	keystroke	c	n/a
544.8055	0.075	1089611	keystroke	e	n/a
544.8955	0.09	1089791	keystroke	n	n/a
545.0005	0.075	1090001	keystroke	t	n/a
545.1055	0.09	1090211	keystroke	u	n/a
545.1655	0.09	1090331	keystroke	r	n/a
545.2105	0.105	1090421	keystroke	e	n/a
545.885	0.075	1091770	keystroke	Key.backspace	n/a
546.125	0.09	1092250	keystroke	i	n/a
546.1555	0.12	1092311	keystroke	e	n/a
546.276	0.104	1092552	keystroke	s	n/a
547.07	0.09	1094140	keystroke	Key.space	n/a
547.49	0.0455	1094980	keystroke	f	n/a
547.5795	0.106	1095159	keystroke	e	n/a
547.7155	0.1945	1095431	keystroke	l	n/a
548.1505	0.074	1096301	keystroke	l	n/a
548.36	0.0755	1096720	keystroke	o	n/a
548.4495	0.0905	1096899	keystroke	w	n/a
548.7355	0.0895	1097471	keystroke	s	n/a
548.81	0.18	1097620	keystroke	h	n/a
548.975	0.12	1097950	keystroke	i	n/a
549.2605	0.0895	1098521	keystroke	p	n/a
549.5	0.105	1099000	keystroke	Key.enter	n/a
549.612	10.81	1099224	prompt	n/a	accepts sheep beaver because\n
550.145	0.09	1100290	keystroke	a	n/a
550.37	0.075	1100740	keystroke	c	n/a
550.505	0.09	1101010	keystroke	c	n/a
550.67	0.075	1101340	keystroke	p	n/a
550.73	0.09	1101460	keystroke	e	n/a
550.85	0.105	1101700	keystroke	t	n/a
551	0.105	1102000	keystroke	s	n/a
551.3605	0.059	1102721	keystroke	Key.backspace	n/a
551.4945	0.0605	1102989	keystroke	Key.backspace	n/a
551.66	0.06	1103320	keystroke	Key.backspace	n/a
551.8105	0.075	1103621	keystroke	Key.backspace	n/a
552.14	0.075	1104280	keystroke	e	n/a
552.245	0.1055	1104490	keystroke	p	n/a
552.3805	0.089	1104761	keystroke	t	n/a
552.5605	0.075	1105121	keystroke	s	n/a
552.905	0.075	1105810	keystroke	Key.space	n/a
553.145	0.075	1106290	keystroke	s	n/a
553.2355	0.0745	1106471	keystroke	h	n/a
553.385	0.045	1106770	keystroke	e	n/a
553.535	0.045	1107070	keystroke	e	n/a
553.595	0.0905	1107190	keystroke	p	n/a
553.835	0.09	1107670	keystroke	Key.space	n/a
554.091	0.059	1108182	keystroke	c	n/a
554.495	0.075	1108990	keystroke	Key.backspace	n/a
554.75	0.0755	1109500	keystroke	b	n/a
554.84	0.12	1109680	keystroke	e	n/a
554.99	0.1355	1109980	keystroke	a	n/a
555.29	0.12	1110580	keystroke	v	n/a
555.4995	0.091	1110999	keystroke	e	n/a
555.5605	0.104	1111121	keystroke	r	n/a
556.3245	0.12	1112649	keystroke	Key.space	n/a
556.4905	0.0895	1112981	keystroke	b	n/a
556.5645	0.1055	1113129	keystroke	e	n/a
556.745	0.105	1113490	keystroke	a	n/a
556.91	0.135	1113820	keystroke	c	n/a
558.4095	0.0755	1116819	keystroke	Key.backspace	n/a
558.5745	0.0755	1117149	keystroke	Key.backspace	n/a
559.25	0.0905	1118500	keystroke	c	n/a
559.43	0.075	1118860	keystroke	a	n/a
559.5495	0.076	1119099	keystroke	u	n/a
559.6405	0.104	1119281	keystroke	s	n/a
559.8195	0.06	1119639	keystroke	e	n/a
560.3145	0.105	1120629	keystroke	Key.enter	n/a
560.4265	9.925	1120853	prompt	n/a	procurement cuts karma garage\n
561.5755	0.09	1123151	keystroke	p	n/a
561.86	0.0895	1123720	keystroke	r	n/a
562.4155	0.09	1124831	keystroke	o	n/a
563.045	0.12	1126090	keystroke	d	n/a
563.51	0.075	1127020	keystroke	Key.backspace	n/a
563.735	0.06	1127470	keystroke	c	n/a
563.84	0.105	1127680	keystroke	u	n/a
563.99	0.12	1127980	keystroke	r	n/a
564.095	0.105	1128190	keystroke	e	n/a
564.245	0.075	1128490	keystroke	m	n/a
564.365	0.06	1128730	keystroke	e	n/a
564.44	0.12	1128880	keystroke	n	n/a
564.5455	0.0895	1129091	keystroke	t	n/a
564.755	0.1045	1129510	keystroke	Key.space	n/a
565.5795	0.1055	1131159	keystroke	c	n/a
565.7595	0.09	1131519	keystroke	u	n/a
565.8795	0.09	1131759	keystroke	t	n/a
566.0905	0.075	1132181	keystroke	s	n/a
566.5555	0.074	1133111	keystroke	k	n/a
566.975	0.0895	1133950	keystroke	Key.backspace	n/a
567.2155	0.104	1134431	keystroke	Key.space	n/a
567.4255	0.0895	1134851	keystroke	k	n/a
567.545	0.105	1135090	keystroke	a	n/a
567.695	0.09	1135390	keystroke	r	n/a
567.845	0.09	1135690	keystroke	m	n/a
567.95	0.0905	1135900	keystroke	a	n/a
568.055	0.105	1136110	keystroke	Key.space	n/a
568.8655	0.06	1137731	keystroke	g	n/a
568.9995	0.12	1137999	keystroke	a	n/a
569.1045	0.12	1138209	keystroke	r	n/a
569.2095	0.12	1138419	keystroke	a	n/a
569.39	0.105	1138780	keystroke	g	n/a
569.54	0.09	1139080	keystroke	e	n/a
570.2145	0.135	1140429	keystroke	Key.enter	n/a
570.359	7.703	1140718	prompt	n/a	twist carrier breaking voters\n
571.13	0.09	1142260	keystroke	t	n/a
571.4905	0.074	1142981	keystroke	e	n/a
572.075	0.075	1144150	keystroke	Key.backspace	n/a
572.1655	0.089	1144331	keystroke	w	n/a
572.8095	0.0755	1145619	keystroke	i	n/a
573.0195	0.09	1146039	keystroke	s	n/a
573.2155	0.09	1146431	keystroke	t	n/a
573.68	0.105	1147360	keystroke	Key.space	n/a
573.905	0.0755	1147810	keystroke	c	n/a
574.0695	0.076	1148139	keystroke	a	n/a
574.2055	0.0745	1148411	keystroke	r	n/a
574.3395	0.0905	1148679	keystroke	r	n/a
574.475	0.0895	1148950	keystroke	i	n/a
574.5795	0.0455	1149159	keystroke	e	n/a
575.1645	0.1205	1150329	keystroke	r	n/a
575.585	0.0745	1151170	keystroke	Key.space	n/a
575.7805	0.089	1151561	keystroke	b	n/a
575.8705	0.089	1151741	keystroke	r	n/a
575.9445	0.106	1151889	keystroke	e	n/a
576.0955	0.059	1152191	keystroke	a	n/a
576.185	0.0755	1152370	keystroke	k	n/a
576.3355	0.105	1152671	keystroke	i	n/a
576.3955	0.104	1152791	keystroke	n	n/a
576.4555	0.059	1152911	keystroke	g	n/a
576.5755	0.09	1153151	keystroke	Key.space	n/a
577.1905	0.075	1154381	keystroke	v	n/a
577.2495	0.105	1154499	keystroke	o	n/a
577.3995	0.12	1154799	keystroke	t	n/a
577.5795	0.0755	1155159	keystroke	e	n/a
577.6405	0.089	1155281	keystroke	r	n/a
577.8045	0.165	1155609	keystroke	s	n/a
577.9545	0.105	1155909	keystroke	Key.enter	n/a
578.067	7.916	1156134	prompt	n/a	earl shepherd portal belize\n
578.7205	0.1045	1157441	keystroke	e	n/a
578.87	0.12	1157740	keystroke	a	n/a
578.96	0.12	1157920	keystroke	r	n/a
579.095	0.0755	1158190	keystroke	l	n/a
579.26	0.09	1158520	keystroke	Key.space	n/a
579.785	0.105	1159570	keystroke	s	n/a
579.86	0.09	1159720	keystroke	h	n/a
580.355	0.0605	1160710	keystroke	e	n/a
580.805	0.075	1161610	keystroke	p	n/a
581.195	0.105	1162390	keystroke	h	n/a
581.285	0.09	1162570	keystroke	e	n/a
581.36	0.09	1162720	keystroke	r	n/a
581.7055	0.0745	1163411	keystroke	d	n/a
581.945	0.075	1163890	keystroke	Key.space	n/a
582.215	0.09	1164430	keystroke	p	n/a
582.365	0.09	1164730	keystroke	o	n/a
582.59	0.09	1165180	keystroke	r	n/a
582.815	0.0905	1165630	keystroke	t	n/a
582.98	0.12	1165960	keystroke	a	n/a
583.085	0.06	1166170	keystroke	l	n/a
583.205	0.106	1166410	keystroke	Key.space	n/a
583.6555	0.015	1167311	keystroke	b	n/a
584.5695	0.06	1169139	keystroke	e	n/a
584.645	0.1045	1169290	keystroke	l	n/a
584.81	0.12	1169620	keystroke	i	n/a
585.1255	0.09	1170251	keystroke	z	n/a
585.6355	0.0435	1171271	keystroke	e	n/a
585.874	0.1055	1171748	keystroke	Key.enter	n/a
585.988	8.6035	1171976	prompt	n/a	bite calling impression marijuana\n
586.895	0.1045	1173790	keystroke	b	n/a
587.0305	0.0895	1174061	keystroke	i	n/a
587.1505	0.09	1174301	keystroke	t	n/a
587.315	0.104	1174630	keystroke	e	n/a
587.4655	0.1035	1174931	keystroke	Key.space	n/a
587.735	0.1055	1175470	keystroke	c	n/a
587.855	0.12	1175710	keystroke	a	n/a
587.9905	0.0745	1175981	keystroke	l	n/a
588.125	0.09	1176250	keystroke	l	n/a
588.29	0.165	1176580	keystroke	i	n/a
588.395	0.1205	1176790	keystroke	n	n/a
588.485	0.075	1176970	keystroke	g	n/a
588.605	0.075	1177210	keystroke	Key.space	n/a
590.36	0.345	1180720	keystroke	i	n/a
590.72	0.015	1181440	keystroke	m	n/a
590.78	0.119	1181560	keystroke	p	n/a
591.0345	0.06	1182069	keystroke	r	n/a
591.2445	0.046	1182489	keystroke	e	n/a
591.3955	0.074	1182791	keystroke	s	n/a
591.5745	0.076	1183149	keystroke	s	n/a
591.7405	0.2095	1183481	keystroke	i	n/a
591.89	0.15	1183780	keystroke	o	n/a
592.085	0.12	1184170	keystroke	n	n/a
592.9545	0.075	1185909	keystroke	Key.space	n/a
593.1195	0.09	1186239	keystroke	m	n/a
593.225	0.1045	1186450	keystroke	a	n/a
593.3445	0.09	1186689	keystroke	r	n/a
593.4355	0.104	1186871	keystroke	i	n/a
593.6605	0.074	1187321	keystroke	j	n/a
593.8845	0.105	1187769	keystroke	u	n/a
594.0195	0.09	1188039	keystroke	a	n/a
594.125	0.0895	1188250	keystroke	n	n/a
594.2605	0.059	1188521	keystroke	a	n/a
594.4995	0.09	1188999	keystroke	Key.enter	n/a
594.596	10.8705	1189192	prompt	n/a	greatly tuner harmony transfer\n
595.5655	0.0895	1191131	keystroke	g	n/a
595.6695	0.075	1191339	keystroke	r	n/a
595.8495	0.1205	1191699	keystroke	e	n/a
596.015	0.12	1192030	keystroke	a	n/a
596.18	0.105	1192360	keystroke	t	n/a
596.6	0.09	1193200	keystroke	l	n/a
596.675	0.0755	1193350	keystroke	y	n/a
597.065	0.075	1194130	keystroke	Key.space	n/a
597.41	0.12	1194820	keystroke	t	n/a
597.515	0.06	1195030	keystroke	u	n/a
597.665	0.09	1195330	keystroke	n	n/a
597.77	0.1055	1195540	keystroke	e	n/a
597.86	0.09	1195720	keystroke	r	n/a
598.07	0.075	1196140	keystroke	Key.space	n/a
598.295	0.105	1196590	keystroke	h	n/a
598.415	0.105	1196830	keystroke	a	n/a
598.49	0.12	1196980	keystroke	r	n/a
598.64	0.09	1197280	keystroke	m	n/a
598.79	0.105	1197580	keystroke	o	n/a
598.91	0.0895	1197820	keystroke	n	n/a
599.225	0.075	1198450	keystroke	y	n/a
599.735	0.045	1199470	keystroke	Key.space	n/a
599.96	0.1355	1199920	keystroke	t	n/a
600.0955	0.0895	1200191	keystroke	r	n/a
600.2905	0.0745	1200581	keystroke	a	n/a
600.365	0.105	1200730	keystroke	n	n/a
600.485	0.135	1200970	keystroke	s	n/a
600.845	0.075	1201690	keystroke	e	n/a
601.28	0.09	1202560	keystroke	Key.backspace	n/a
601.43	0.09	1202860	keystroke	g	n/a
601.64	0.09	1203280	keystroke	e	n/a
601.745	0.06	1203490	keystroke	t	n/a
601.985	0.06	1203970	keystroke	Key.backspace	n/a
602.12	0.075	1204240	keystroke	Key.backspace	n/a
602.27	0.075	1204540	keystroke	Key.backspace	n/a
603.02	0.075	1206040	keystroke	f	n/a
603.4395	0.121	1206879	keystroke	e	n/a
603.9045	0.135	1207809	keystroke	r	n/a
605.3295	0.135	1210659	keystroke	Key.enter	n/a
605.4715	5.8	1210943	prompt	n/a	arctic harmony tuning msie\n
606.5	0.1195	1213000	keystroke	a	n/a
606.6355	0.104	1213271	keystroke	r	n/a
607.0245	0.09	1214049	keystroke	c	n/a
607.2495	0.076	1214499	keystroke	t	n/a
607.3105	0.089	1214621	keystroke	i	n/a
607.4455	0.119	1214891	keystroke	c	n/a
607.5495	0.106	1215099	keystroke	Key.space	n/a
607.8205	0.12	1215641	keystroke	h	n/a
607.9255	0.104	1215851	keystroke	a	n/a
608.0155	0.09	1216031	keystroke	r	n/a
608.1355	0.09	1216271	keystroke	m	n/a
608.3305	0.105	1216661	keystroke	o	n/a
608.4045	0.106	1216809	keystroke	n	n/a
608.4945	0.091	1216989	keystroke	y	n/a
608.6	0.0745	1217200	keystroke	Key.space	n/a
609.4995	0.076	1218999	keystroke	t	n/a
609.5605	0.0895	1219121	keystroke	u	n/a
609.635	0.075	1219270	keystroke	n	n/a
609.755	0.09	1219510	keystroke	i	n/a
609.815	0.0905	1219630	keystroke	n	n/a
609.89	0.075	1219780	keystroke	g	n/a
609.995	0.09	1219990	keystroke	Key.space	n/a
610.295	0.075	1220590	keystroke	m	n/a
610.5645	0.091	1221129	keystroke	s	n/a
610.6705	0.0895	1221341	keystroke	i	n/a
610.91	0.075	1221820	keystroke	e	n/a
611.1795	0.09	1222359	keystroke	Key.enter	n/a
611.2765	7.39	1222553	prompt	n/a	organized thrown foam cheese\n
612.1395	0.09	1224279	keystroke	o	n/a
