onset	duration	sample	value	key	prompt_text
1.45	7.4385	2900	prompt	n/a	the quick brown fox jumps over a lazy dog\n
3.2505	0.013	6501	keystroke_t	t	n/a
3.2515	0.087	6503	keystroke_h	h	n/a
3.3685	0.045	6737	keystroke_e	e	n/a
3.4435	0.0895	6887	keystroke_Key.space	Key.space	n/a
3.563	0.09	7126	keystroke_q	q	n/a
3.638	0.135	7276	keystroke_u	u	n/a
3.728	0.12	7456	keystroke_i	i	n/a
3.893	0.105	7786	keystroke_c	c	n/a
4.013	0.105	8026	keystroke_k	k	n/a
4.058	0.105	8116	keystroke_Key.space	Key.space	n/a
4.388	0.075	8776	keystroke_b	b	n/a
4.508	0.06	9016	keystroke_r	r	n/a
4.613	0.045	9226	keystroke_o	o	n/a
4.703	0.0905	9406	keystroke_w	w	n/a
4.7935	0.0745	9587	keystroke_n	n	n/a
4.8535	0.0745	9707	keystroke_Key.space	Key.space	n/a
4.973	0.045	9946	keystroke_f	f	n/a
5.0785	0.0745	10157	keystroke_o	o	n/a
5.2135	0.06	10427	keystroke_x	x	n/a
5.3035	0.075	10607	keystroke_Key.space	Key.space	n/a
5.5735	0.0275	11147	keystroke_u	u	n/a
6.0495	0.06	12099	keystroke_Key.backspace	Key.backspace	n/a
6.3195	0.0605	12639	keystroke_j	j	n/a
6.485	0.045	12970	keystroke_u	u	n/a
6.6795	0.075	13359	keystroke_m	m	n/a
6.8745	0.075	13749	keystroke_p	p	n/a
6.9795	0.061	13959	keystroke_s	s	n/a
7.025	0.1205	14050	keystroke_Key.space	Key.space	n/a
7.1155	0.09	14231	keystroke_o	o	n/a
7.2205	0.06	14441	keystroke_v	v	n/a
7.4455	0.09	14891	keystroke_e	e	n/a
7.5055	0.09	15011	keystroke_r	r	n/a
7.6105	0.09	15221	keystroke_Key.space	Key.space	n/a
7.7155	0.09	15431	keystroke_a	a	n/a
7.7905	0.12	15581	keystroke_Key.space	Key.space	n/a
7.8355	0.135	15671	keystroke_l	l	n/a
7.9255	0.091	15851	keystroke_a	a	n/a
8.1065	0.105	16213	keystroke_z	z	n/a
8.1815	0.09	16363	keystroke_y	y	n/a
8.2415	0.09	16483	keystroke_Key.space	Key.space	n/a
8.3165	0.075	16633	keystroke_d	d	n/a
8.4065	0.0745	16813	keystroke_o	o	n/a
8.526	0.075	17052	keystroke_g	g	n/a
8.811	0.0755	17622	keystroke_Key.enter	Key.enter	n/a
8.8925	3.7605	17785	prompt	n/a	membrane coal spam tools\n
9.892	0.06	19784	keystroke_m	m	n/a
9.966	0.091	19932	keystroke_e	e	n/a
10.057	0.044	20114	keystroke_m	m	n/a
10.236	0.06	20472	keystroke_b	b	n/a
10.5665	0.105	21133	keystroke_r	r	n/a
10.6265	0.09	21253	keystroke_a	a	n/a
10.7465	0.06	21493	keystroke_n	n	n/a
10.8365	0.045	21673	keystroke_e	e	n/a
10.9415	0.06	21883	keystroke_Key.space	Key.space	n/a
11.0615	0.12	22123	keystroke_c	c	n/a
11.1815	0.045	22363	keystroke_o	o	n/a
11.2415	0.09	22483	keystroke_a	a	n/a
11.3465	0.12	22693	keystroke_l	l	n/a
11.4365	0.12	22873	keystroke_Key.space	Key.space	n/a
11.4965	0.075	22993	keystroke_s	s	n/a
11.6315	0.075	23263	keystroke_p	p	n/a
11.7365	0.09	23473	keystroke_a	a	n/a
11.8415	0.075	23683	keystroke_m	m	n/a
11.9015	0.075	23803	keystroke_Key.space	Key.space	n/a
12.0215	0.06	24043	keystroke_t	t	n/a
12.1265	0.045	24253	keystroke_o	o	n/a
12.2465	0.03	24493	keystroke_o	o	n/a
12.3815	0.06	24763	keystroke_l	l	n/a
12.4565	0.075	24913	keystroke_s	s	n/a
12.577	0.074	25154	keystroke_Key.enter	Key.enter	n/a
12.6565	3.9865	25313	prompt	n/a	premiere calendar bingo singles\n
13.3115	0.045	26623	keystroke_p	p	n/a
13.4015	0.105	26803	keystroke_r	r	n/a
13.476	0.0755	26952	keystroke_e	e	n/a
13.5665	0.045	27133	keystroke_m	m	n/a
13.7315	0.09	27463	keystroke_i	i	n/a
13.8215	0.075	27643	keystroke_e	e	n/a
13.8665	0.165	27733	keystroke_r	r	n/a
13.9715	0.09	27943	keystroke_e	e	n/a
14.0765	0.075	28153	keystroke_Key.space	Key.space	n/a
14.2265	0.105	28453	keystroke_c	c	n/a
14.2865	0.09	28573	keystroke_a	a	n/a
14.3465	0.06	28693	keystroke_l	l	n/a
14.4515	0.06	28903	keystroke_e	e	n/a
14.5265	0.09	29053	keystroke_n	n	n/a
14.6315	0.075	29263	keystroke_d	d	n/a
14.8115	0.105	29623	keystroke_a	a	n/a
14.8865	0.09	29773	keystroke_r	r	n/a
14.9915	0.06	29983	keystroke_Key.space	Key.space	n/a
15.2165	0.075	30433	keystroke_b	b	n/a
15.3965	0.045	30793	keystroke_i	i	n/a
15.5315	0.06	31063	keystroke_n	n	n/a
15.6065	0.06	31213	keystroke_g	g	n/a
15.6965	0.12	31393	keystroke_o	o	n/a
15.7715	0.135	31543	keystroke_Key.space	Key.space	n/a
15.8615	0.075	31723	keystroke_s	s	n/a
15.9215	0.045	31843	keystroke_i	i	n/a
16.0565	0.075	32113	keystroke_n	n	n/a
16.1465	0.075	32293	keystroke_g	g	n/a
16.2515	0.06	32503	keystroke_l	l	n/a
16.3265	0.045	32653	keystroke_e	e	n/a
16.4915	0.075	32983	keystroke_s	s	n/a
16.6115	0.03	33223	keystroke_Key.enter	Key.enter	n/a
16.6465	8.8325	33293	prompt	n/a	fabric secondary worcester pharmaceuticals\n
17.317	0.105	34634	keystroke_f	f	n/a
17.392	0.09	34784	keystroke_a	a	n/a
17.526	0.0615	35052	keystroke_b	b	n/a
17.6465	0.046	35293	keystroke_r	r	n/a
17.7215	0.075	35443	keystroke_i	i	n/a
17.8725	0.06	35745	keystroke_c	c	n/a
17.9915	0.06	35983	keystroke_Key.space	Key.space	n/a
18.0975	0.0745	36195	keystroke_s	s	n/a
18.2775	0.075	36555	keystroke_e	e	n/a
18.862	0.075	37724	keystroke_c	c	n/a
18.967	0.03	37934	keystroke_o	o	n/a
19.1015	0.061	38203	keystroke_n	n	n/a
19.1475	0.075	38295	keystroke_d	d	n/a
19.327	0.105	38654	keystroke_a	a	n/a
19.402	0.075	38804	keystroke_r	r	n/a
19.492	0.075	38984	keystroke_y	y	n/a
19.537	0.09	39074	keystroke_Key.space	Key.space	n/a
19.717	0.075	39434	keystroke_w	w	n/a
19.837	0.0595	39674	keystroke_o	o	n/a
20.3165	0.06	40633	keystroke_r	r	n/a
20.5715	0.075	41143	keystroke_c	c	n/a
20.7525	0.044	41505	keystroke_e	e	n/a
20.9315	0.06	41863	keystroke_s	s	n/a
21.0965	0.075	42193	keystroke_t	t	n/a
21.2615	0.075	42523	keystroke_e	e	n/a
21.3215	0.075	42643	keystroke_r	r	n/a
21.487	0.075	42974	keystroke_Key.space	Key.space	n/a
21.637	0.105	43274	keystroke_p	p	n/a
21.923	0.074	43846	keystroke_h	h	n/a
22.132	0.105	44264	keystroke_a	a	n/a
22.312	0.075	44624	keystroke_r	r	n/a
22.4915	0.06	44983	keystroke_m	m	n/a
22.6265	0.0755	45253	keystroke_a	a	n/a
22.9265	0.075	45853	keystroke_c	c	n/a
23.1365	0.075	46273	keystroke_e	e	n/a
23.932	0.0895	47864	keystroke_u	u	n/a
24.0665	0.075	48133	keystroke_t	t	n/a
24.1565	0.075	48313	keystroke_i	i	n/a
24.3965	0.09	48793	keystroke_c	c	n/a
24.4715	0.075	48943	keystroke_a	a	n/a
24.592	0.09	49184	keystroke_l	l	n/a
24.697	0.045	49394	keystroke_s	s	n/a
25.402	0.075	50804	keystroke_Key.enter	Key.enter	n/a
25.482	4.4965	50964	prompt	n/a	modern musical budget watts\n
26.152	0.03	52304	keystroke_m	m	n/a
26.302	0.09	52604	keystroke_o	o	n/a
26.377	0.045	52754	keystroke_d	d	n/a
26.542	0.075	53084	keystroke_e	e	n/a
26.602	0.1045	53204	keystroke_r	r	n/a
26.662	0.0745	53324	keystroke_n	n	n/a
26.7215	0.105	53443	keystroke_Key.space	Key.space	n/a
26.8715	0.06	53743	keystroke_m	m	n/a
27.067	0.075	54134	keystroke_u	u	n/a
27.172	0.075	54344	keystroke_s	s	n/a
27.262	0.06	54524	keystroke_i	i	n/a
27.382	0.075	54764	keystroke_c	c	n/a
27.457	0.1195	54914	keystroke_a	a	n/a
27.517	0.0895	55034	keystroke_l	l	n/a
27.5775	0.089	55155	keystroke_Key.space	Key.space	n/a
28.4015	0.045	56803	keystroke_b	b	n/a
28.5515	0.09	57103	keystroke_u	u	n/a
28.6565	0.09	57313	keystroke_d	d	n/a
28.7475	0.074	57495	keystroke_g	g	n/a
28.8815	0.06	57763	keystroke_e	e	n/a
29.0465	0.09	58093	keystroke_t	t	n/a
29.1515	0.075	58303	keystroke_Key.space	Key.space	n/a
29.2415	0.105	58483	keystroke_w	w	n/a
29.3315	0.12	58663	keystroke_a	a	n/a
29.4665	0.06	58933	keystroke_t	t	n/a
29.6015	0.06	59203	keystroke_t	t	n/a
29.7665	0.061	59533	keystroke_s	s	n/a
29.9015	0.075	59803	keystroke_Key.enter	Key.enter	n/a
29.9815	4.8125	59963	prompt	n/a	rank publisher failed precious\n
30.6825	0.105	61365	keystroke_r	r	n/a
30.7425	0.12	61485	keystroke_a	a	n/a
30.8025	0.104	61605	keystroke_n	n	n/a
30.9665	0.121	61933	keystroke_k	k	n/a
31.0415	0.06	62083	keystroke_Key.space	Key.space	n/a
31.7925	0.09	63585	keystroke_p	p	n/a
31.9275	0.06	63855	keystroke_u	u	n/a
32.1075	0.0445	64215	keystroke_b	b	n/a
32.302	0.06	64604	keystroke_l	l	n/a
32.692	0.09	65384	keystroke_i	i	n/a
32.857	0.09	65714	keystroke_s	s	n/a
32.932	0.045	65864	keystroke_h	h	n/a
33.037	0.105	66074	keystroke_e	e	n/a
33.112	0.09	66224	keystroke_r	r	n/a
33.187	0.09	66374	keystroke_Key.space	Key.space	n/a
33.292	0.12	66584	keystroke_f	f	n/a
33.367	0.105	66734	keystroke_a	a	n/a
33.442	0.06	66884	keystroke_i	i	n/a
33.607	0.06	67214	keystroke_l	l	n/a
33.652	0.06	67304	keystroke_e	e	n/a
33.802	0.075	67604	keystroke_d	d	n/a
33.862	0.105	67724	keystroke_Key.space	Key.space	n/a
33.922	0.105	67844	keystroke_p	p	n/a
33.997	0.105	67994	keystroke_r	r	n/a
34.087	0.075	68174	keystroke_e	e	n/a
34.267	0.105	68534	keystroke_c	c	n/a
34.357	0.105	68714	keystroke_i	i	n/a
34.432	0.1195	68864	keystroke_o	o	n/a
34.522	0.105	69044	keystroke_u	u	n/a
34.597	0.06	69194	keystroke_s	s	n/a
34.702	0.09	69404	keystroke_Key.enter	Key.enter	n/a
34.798	5.9805	69596	prompt	n/a	requirements treasure excited disabled\n
35.467	0.105	70934	keystroke_r	r	n/a
35.542	0.045	71084	keystroke_e	e	n/a
35.707	0.075	71414	keystroke_q	q	n/a
35.797	0.075	71594	keystroke_u	u	n/a
35.857	0.09	71714	keystroke_i	i	n/a
36.007	0.075	72014	keystroke_r	r	n/a
36.067	0.075	72134	keystroke_e	e	n/a
36.217	0.0595	72434	keystroke_m	m	n/a
36.2915	0.105	72583	keystroke_e	e	n/a
36.832	0.03	73664	keystroke_n	n	n/a
36.877	0.075	73754	keystroke_t	t	n/a
37.072	0.03	74144	keystroke_s	s	n/a
37.117	0.09	74234	keystroke_Key.space	Key.space	n/a
37.222	0.06	74444	keystroke_t	t	n/a
37.3725	0.1195	74745	keystroke_r	r	n/a
37.4625	0.0895	74925	keystroke_e	e	n/a
37.567	0.06	75134	keystroke_a	a	n/a
37.747	0.06	75494	keystroke_s	s	n/a
37.822	0.09	75644	keystroke_u	u	n/a
37.972	0.09	75944	keystroke_r	r	n/a
38.032	0.09	76064	keystroke_e	e	n/a
38.152	0.09	76304	keystroke_Key.space	Key.space	n/a
38.377	0.075	76754	keystroke_e	e	n/a
38.6765	0.075	77353	keystroke_x	x	n/a
38.9315	0.1055	77863	keystroke_c	c	n/a
39.142	0.045	78284	keystroke_i	i	n/a
39.217	0.06	78434	keystroke_t	t	n/a
39.397	0.045	78794	keystroke_e	e	n/a
39.577	0.075	79154	keystroke_d	d	n/a
39.697	0.075	79394	keystroke_Key.space	Key.space	n/a
39.817	0.045	79634	keystroke_d	d	n/a
39.877	0.06	79754	keystroke_i	i	n/a
39.982	0.06	79964	keystroke_s	s	n/a
40.162	0.045	80324	keystroke_a	a	n/a
40.192	0.06	80384	keystroke_b	b	n/a
40.357	0.09	80714	keystroke_l	l	n/a
40.432	0.045	80864	keystroke_e	e	n/a
40.5965	0.076	81193	keystroke_d	d	n/a
40.7015	0.075	81403	keystroke_Key.enter	Key.enter	n/a
40.783	5.1855	81566	prompt	n/a	motel approach gateway communities\n
41.4065	0.06	82813	keystroke_m	m	n/a
41.5565	0.09	83113	keystroke_o	o	n/a
41.5865	0.09	83173	keystroke_t	t	n/a
41.7365	0.09	83473	keystroke_e	e	n/a
41.8115	0.09	83623	keystroke_l	l	n/a
41.8565	0.09	83713	keystroke_Key.space	Key.space	n/a
41.9315	0.09	83863	keystroke_a	a	n/a
42.0365	0.075	84073	keystroke_p	p	n/a
42.1415	0.09	84283	keystroke_p	p	n/a
42.2465	0.06	84493	keystroke_r	r	n/a
42.7115	0.075	85423	keystroke_o	o	n/a
42.8925	0.089	85785	keystroke_a	a	n/a
42.9215	0.105	85843	keystroke_c	c	n/a
43.0415	0.09	86083	keystroke_h	h	n/a
43.1015	0.09	86203	keystroke_Key.space	Key.space	n/a
43.3115	0.09	86623	keystroke_g	g	n/a
43.4165	0.075	86833	keystroke_a	a	n/a
43.5815	0.06	87163	keystroke_t	t	n/a
43.7015	0.06	87403	keystroke_e	e	n/a
43.9265	0.105	87853	keystroke_w	w	n/a
43.9715	0.105	87943	keystroke_a	a	n/a
44.0465	0.09	88093	keystroke_y	y	n/a
44.2115	0.12	88423	keystroke_Key.space	Key.space	n/a
44.4665	0.075	88933	keystroke_c	c	n/a
44.5565	0.06	89113	keystroke_o	o	n/a
44.7515	0.06	89503	keystroke_m	m	n/a
44.9015	0.061	89803	keystroke_m	m	n/a
45.0965	0.06	90193	keystroke_u	u	n/a
45.2915	0.06	90583	keystroke_n	n	n/a
45.4115	0.09	90823	keystroke_i	i	n/a
45.4865	0.09	90973	keystroke_t	t	n/a
45.5775	0.059	91155	keystroke_i	i	n/a
45.6515	0.06	91303	keystroke_e	e	n/a
45.832	0.075	91664	keystroke_s	s	n/a
45.892	0.075	91784	keystroke_Key.enter	Key.enter	n/a
45.9715	3.462	91943	prompt	n/a	half coated chips trucks\n
46.5965	0.075	93193	keystroke_h	h	n/a
46.7015	0.076	93403	keystroke_a	a	n/a
46.7915	0.09	93583	keystroke_l	l	n/a
46.8665	0.06	93733	keystroke_f	f	n/a
46.9715	0.075	93943	keystroke_Key.space	Key.space	n/a
47.152	0.09	94304	keystroke_c	c	n/a
47.197	0.12	94394	keystroke_o	o	n/a
47.332	0.09	94664	keystroke_a	a	n/a
47.407	0.105	94814	keystroke_t	t	n/a
47.527	0.075	95054	keystroke_e	e	n/a
47.737	0.045	95474	keystroke_d	d	n/a
47.812	0.135	95624	keystroke_Key.space	Key.space	n/a
47.902	0.12	95804	keystroke_c	c	n/a
48.007	0.105	96014	keystroke_h	h	n/a
48.202	0.12	96404	keystroke_i	i	n/a
48.277	0.135	96554	keystroke_p	p	n/a
48.457	0.06	96914	keystroke_s	s	n/a
48.562	0.12	97124	keystroke_Key.space	Key.space	n/a
48.757	0.015	97514	keystroke_t	t	n/a
48.862	0.075	97724	keystroke_r	r	n/a
48.967	0.045	97934	keystroke_u	u	n/a
49.102	0.075	98204	keystroke_c	c	n/a
49.162	0.075	98324	keystroke_k	k	n/a
49.282	0.0895	98564	keystroke_s	s	n/a
49.357	0.0745	98714	keystroke_Key.enter	Key.enter	n/a
49.4365	3.972	98873	prompt	n/a	years married deposit dollar\n
50.062	0.105	100124	keystroke_y	y	n/a
50.122	0.1055	100244	keystroke_e	e	n/a
50.182	0.1495	100364	keystroke_a	a	n/a
50.3165	0.075	100633	keystroke_r	r	n/a
50.4665	0.09	100933	keystroke_s	s	n/a
50.5415	0.105	101083	keystroke_Key.space	Key.space	n/a
50.6015	0.075	101203	keystroke_m	m	n/a
50.6615	0.075	101323	keystroke_a	a	n/a
50.7065	0.06	101413	keystroke_r	r	n/a
50.8415	0.105	101683	keystroke_r	r	n/a
50.9315	0.09	101863	keystroke_i	i	n/a
50.9615	0.075	101923	keystroke_e	e	n/a
51.1415	0.06	102283	keystroke_d	d	n/a
51.247	0.09	102494	keystroke_Key.space	Key.space	n/a
51.292	0.075	102584	keystroke_d	d	n/a
51.442	0.06	102884	keystroke_e	e	n/a
51.517	0.135	103034	keystroke_p	p	n/a
51.562	0.135	103124	keystroke_o	o	n/a
51.787	0.045	103574	keystroke_i	i	n/a
52.162	0.06	104324	keystroke_Key.backspace	Key.backspace	n/a
52.327	0.135	104654	keystroke_s	s	n/a
52.417	0.06	104834	keystroke_i	i	n/a
52.522	0.045	105044	keystroke_t	t	n/a
52.6115	0.075	105223	keystroke_Key.space	Key.space	n/a
52.7015	0.0605	105403	keystroke_d	d	n/a
52.7765	0.06	105553	keystroke_o	o	n/a
52.9415	0.045	105883	keystroke_l	l	n/a
53.0465	0.09	106093	keystroke_l	l	n/a
53.1515	0.105	106303	keystroke_a	a	n/a
53.1815	0.105	106363	keystroke_r	r	n/a
53.3315	0.075	106663	keystroke_Key.enter	Key.enter	n/a
53.412	6.372	106824	prompt	n/a	guarantee palestinian inner one\n
54.2475	0.09	108495	keystroke_g	g	n/a
54.3825	0.06	108765	keystroke_u	u	n/a
54.4725	0.09	108945	keystroke_a	a	n/a
54.5775	0.12	109155	keystroke_r	r	n/a
54.6675	0.105	109335	keystroke_a	a	n/a
54.7725	0.075	109545	keystroke_n	n	n/a
54.8625	0.06	109725	keystroke_t	t	n/a
55.0125	0.03	110025	keystroke_e	e	n/a
55.1175	0.0745	110235	keystroke_e	e	n/a
55.222	0.075	110444	keystroke_Key.space	Key.space	n/a
55.4325	0.09	110865	keystroke_p	p	n/a
55.5825	0.075	111165	keystroke_a	a	n/a
55.807	0.075	111614	keystroke_l	l	n/a
55.897	0.045	111794	keystroke_e	e	n/a
56.1975	0.0595	112395	keystroke_s	s	n/a
56.467	0.0755	112934	keystroke_t	t	n/a
56.6025	0.045	113205	keystroke_i	i	n/a
56.7825	0.045	113565	keystroke_n	n	n/a
56.9615	0.045	113923	keystroke_i	i	n/a
57.0665	0.075	114133	keystroke_a	a	n/a
57.1565	0.091	114313	keystroke_n	n	n/a
57.2165	0.09	114433	keystroke_Key.space	Key.space	n/a
57.3825	0.0445	114765	keystroke_i	i	n/a
57.547	0.045	115094	keystroke_n	n	n/a
57.652	0.06	115304	keystroke_n	n	n/a
58.2375	0.06	116475	keystroke_t	t	n/a
58.3875	0.06	116775	keystroke_e	e	n/a
58.4175	0.09	116835	keystroke_r	r	n/a
58.597	0.09	117194	keystroke_o	o	n/a
59.017	0.06	118034	keystroke_Key.backspace	Key.backspace	n/a
59.182	0.135	118364	keystroke_Key.space	Key.space	n/a
59.332	0.045	118664	keystroke_o	o	n/a
59.467	0.06	118934	keystroke_n	n	n/a
59.542	0.06	119084	keystroke_e	e	n/a
59.722	0.06	119444	keystroke_Key.enter	Key.enter	n/a
59.7885	4.39	119577	prompt	n/a	resulted fastest pearl holds\n
60.457	0.1195	120914	keystroke_r	r	n/a
60.532	0.0755	121064	keystroke_e	e	n/a
60.7265	0.09	121453	keystroke_s	s	n/a
60.7725	0.059	121545	keystroke_u	u	n/a
60.9825	0.044	121965	keystroke_l	l	n/a
61.0115	0.105	122023	keystroke_t	t	n/a
61.1315	0.06	122263	keystroke_e	e	n/a
61.4625	0.074	122925	keystroke_d	d	n/a
61.5815	0.105	123163	keystroke_Key.space	Key.space	n/a
61.7025	0.104	123405	keystroke_f	f	n/a
61.8515	0.075	123703	keystroke_a	a	n/a
62.0475	0.06	124095	keystroke_s	s	n/a
62.227	0.075	124454	keystroke_t	t	n/a
62.362	0.06	124724	keystroke_e	e	n/a
62.527	0.0755	125054	keystroke_s	s	n/a
62.6775	0.075	125355	keystroke_t	t	n/a
62.7975	0.09	125595	keystroke_Key.space	Key.space	n/a
62.9175	0.105	125835	keystroke_p	p	n/a
63.0075	0.105	126015	keystroke_e	e	n/a
63.0825	0.135	126165	keystroke_a	a	n/a
63.2025	0.075	126405	keystroke_r	r	n/a
63.2925	0.06	126585	keystroke_l	l	n/a
63.3075	0.135	126615	keystroke_Key.space	Key.space	n/a
63.4875	0.09	126975	keystroke_h	h	n/a
63.6075	0.09	127215	keystroke_o	o	n/a
63.8175	0.06	127635	keystroke_l	l	n/a
63.9225	0.105	127845	keystroke_d	d	n/a
63.9975	0.09	127995	keystroke_s	s	n/a
64.1025	0.075	128205	keystroke_Key.enter	Key.enter	n/a
64.182	5.5615	128364	prompt	n/a	nationally blogger very suggestions\n
64.822	0.0605	129644	keystroke_n	n	n/a
64.9425	0.09	129885	keystroke_a	a	n/a
64.9875	0.09	129975	keystroke_t	t	n/a
65.0925	0.105	130185	keystroke_i	i	n/a
65.5875	0.0595	131175	keystroke_o	o	n/a
65.752	0.075	131504	keystroke_n	n	n/a
65.872	0.09	131744	keystroke_a	a	n/a
66.007	0.045	132014	keystroke_l	l	n/a
66.127	0.075	132254	keystroke_l	l	n/a
66.3375	0.105	132675	keystroke_y	y	n/a
66.3975	0.105	132795	keystroke_Key.space	Key.space	n/a
66.5925	0.06	133185	keystroke_b	b	n/a
66.8025	0.075	133605	keystroke_l	l	n/a
66.9825	0.06	133965	keystroke_o	o	n/a
67.0575	0.06	134115	keystroke_g	g	n/a
67.1925	0.0595	134385	keystroke_g	g	n/a
67.357	0.075	134714	keystroke_e	e	n/a
67.417	0.09	134834	keystroke_r	r	n/a
67.552	0.0905	135104	keystroke_Key.space	Key.space	n/a
67.6875	0.06	135375	keystroke_v	v	n/a
67.8825	0.09	135765	keystroke_e	e	n/a
67.9415	0.09	135883	keystroke_r	r	n/a
68.0165	0.076	136033	keystroke_y	y	n/a
68.0615	0.09	136123	keystroke_Key.space	Key.space	n/a
68.2115	0.06	136423	keystroke_s	s	n/a
68.2875	0.03	136575	keystroke_u	u	n/a
68.3775	0.045	136755	keystroke_g	g	n/a
68.5125	0.06	137025	keystroke_g	g	n/a
68.6325	0.075	137265	keystroke_e	e	n/a
68.8265	0.061	137653	keystroke_s	s	n/a
68.9925	0.075	137985	keystroke_t	t	n/a
69.0965	0.136	138193	keystroke_i	i	n/a
69.1575	0.089	138315	keystroke_o	o	n/a
69.3675	0.09	138735	keystroke_n	n	n/a
69.4725	0.059	138945	keystroke_s	s	n/a
69.6525	0.089	139305	keystroke_Key.enter	Key.enter	n/a
69.7465	6.807	139493	prompt	n/a	licence alabama blink subscription\n
70.447	0.06	140894	keystroke_l	l	n/a
70.6265	0.06	141253	keystroke_i	i	n/a
70.7475	0.134	141495	keystroke_c	c	n/a
70.8215	0.075	141643	keystroke_e	e	n/a
70.9115	0.0455	141823	keystroke_n	n	n/a
71.0615	0.075	142123	keystroke_s	s	n/a
71.1965	0.075	142393	keystroke_e	e	n/a
71.3015	0.075	142603	keystroke_Key.space	Key.space	n/a
71.3915	0.091	142783	keystroke_a	a	n/a
71.4975	0.089	142995	keystroke_l	l	n/a
71.6175	0.0895	143235	keystroke_a	a	n/a
71.752	0.045	143504	keystroke_b	b	n/a
71.887	0.06	143774	keystroke_a	a	n/a
72.007	0.045	144014	keystroke_m	m	n/a
72.112	0.045	144224	keystroke_a	a	n/a
72.247	0.075	144494	keystroke_Key.space	Key.space	n/a
72.547	0.06	145094	keystroke_b	b	n/a
72.787	0.0445	145574	keystroke_l	l	n/a
72.9965	0.045	145993	keystroke_i	i	n/a
73.1765	0.075	146353	keystroke_n	n	n/a
73.3115	0.09	146623	keystroke_k	k	n/a
73.447	0.105	146894	keystroke_Key.space	Key.space	n/a
73.6415	0.06	147283	keystroke_s	s	n/a
74.0615	0.061	148123	keystroke_u	u	n/a
74.2575	0.06	148515	keystroke_b	b	n/a
74.5725	0.075	149145	keystroke_s	s	n/a
74.7525	0.059	149505	keystroke_c	c	n/a
75.4425	0.06	150885	keystroke_r	r	n/a
75.5465	0.061	151093	keystroke_i	i	n/a
75.7265	0.0905	151453	keystroke_p	p	n/a
75.862	0.045	151724	keystroke_t	t	n/a
75.982	0.12	151964	keystroke_i	i	n/a
76.057	0.105	152114	keystroke_o	o	n/a
76.282	0.045	152564	keystroke_n	n	n/a
76.477	0.075	152954	keystroke_Key.enter	Key.enter	n/a
76.557	4.6465	153114	prompt	n/a	chan organisations coastal front\n
77.302	0.06	154604	keystroke_c	c	n/a
77.377	0.045	154754	keystroke_h	h	n/a
77.482	0.0905	154964	keystroke_a	a	n/a
77.5575	0.075	155115	keystroke_n	n	n/a
77.6325	0.15	155265	keystroke_Key.space	Key.space	n/a
77.7675	0.075	155535	keystroke_o	o	n/a
77.8125	0.06	155625	keystroke_r	r	n/a
77.9775	0.09	155955	keystroke_g	g	n/a
78.0225	0.105	156045	keystroke_a	a	n/a
78.1125	0.045	156225	keystroke_n	n	n/a
78.2775	0.06	156555	keystroke_i	i	n/a
78.3525	0.09	156705	keystroke_s	s	n/a
78.6075	0.0595	157215	keystroke_a	a	n/a
78.727	0.09	157454	keystroke_t	t	n/a
78.832	0.105	157664	keystroke_i	i	n/a
78.907	0.06	157814	keystroke_o	o	n/a
79.087	0.06	158174	keystroke_n	n	n/a
79.162	0.03	158324	keystroke_s	s	n/a
79.252	0.0745	158504	keystroke_Key.space	Key.space	n/a
79.3575	0.105	158715	keystroke_c	c	n/a
79.4475	0.06	158895	keystroke_o	o	n/a
79.5375	0.105	159075	keystroke_a	a	n/a
79.6575	0.105	159315	keystroke_s	s	n/a
79.912	0.105	159824	keystroke_t	t	n/a
80.002	0.105	160004	keystroke_a	a	n/a
80.452	0.105	160904	keystroke_l	l	n/a
80.482	0.1345	160964	keystroke_Key.space	Key.space	n/a
80.6015	0.06	161203	keystroke_f	f	n/a
80.7675	0.074	161535	keystroke_r	r	n/a
80.8265	0.045	161653	keystroke_o	o	n/a
80.9475	0.075	161895	keystroke_n	n	n/a
81.0075	0.075	162015	keystroke_t	t	n/a
81.1275	0.075	162255	keystroke_Key.enter	Key.enter	n/a
81.208	4.8255	162416	prompt	n/a	despite catholic enable stolen\n
81.877	0.075	163754	keystroke_d	d	n/a
82.027	0.045	164054	keystroke_e	e	n/a
82.177	0.09	164354	keystroke_s	s	n/a
82.252	0.075	164504	keystroke_p	p	n/a
82.507	0.0905	165014	keystroke_i	i	n/a
82.6275	0.075	165255	keystroke_t	t	n/a
82.7475	0.06	165495	keystroke_e	e	n/a
82.8975	0.075	165795	keystroke_Key.space	Key.space	n/a
82.9875	0.075	165975	keystroke_c	c	n/a
83.1375	0.09	166275	keystroke_a	a	n/a
83.2875	0.075	166575	keystroke_t	t	n/a
83.3915	0.061	166783	keystroke_h	h	n/a
83.5565	0.06	167113	keystroke_o	o	n/a
83.7365	0.046	167473	keystroke_l	l	n/a
83.9015	0.0605	167803	keystroke_i	i	n/a
83.992	0.06	167984	keystroke_c	c	n/a
84.112	0.075	168224	keystroke_Key.space	Key.space	n/a
84.292	0.06	168584	keystroke_e	e	n/a
84.4715	0.091	168943	keystroke_n	n	n/a
84.6075	0.074	169215	keystroke_a	a	n/a
84.7265	0.061	169453	keystroke_b	b	n/a
84.9225	0.06	169845	keystroke_l	l	n/a
84.9975	0.045	169995	keystroke_e	e	n/a
85.1015	0.105	170203	keystroke_Key.space	Key.space	n/a
85.2375	0.059	170475	keystroke_s	s	n/a
85.4325	0.06	170865	keystroke_t	t	n/a
85.5075	0.03	171015	keystroke_o	o	n/a
85.6425	0.045	171285	keystroke_l	l	n/a
85.7325	0.045	171465	keystroke_e	e	n/a
85.8075	0.045	171615	keystroke_n	n	n/a
85.9875	0.045	171975	keystroke_Key.enter	Key.enter	n/a
86.0365	4.5875	172073	prompt	n/a	extremely user marker exact\n
86.6475	0.0595	173295	keystroke_e	e	n/a
86.917	0.06	173834	keystroke_x	x	n/a
87.157	0.045	174314	keystroke_t	t	n/a
87.307	0.1195	174614	keystroke_r	r	n/a
87.4125	0.059	174825	keystroke_e	e	n/a
87.532	0.06	175064	keystroke_m	m	n/a
87.622	0.06	175244	keystroke_e	e	n/a
87.742	0.06	175484	keystroke_l	l	n/a
87.967	0.0905	175934	keystroke_y	y	n/a
88.027	0.105	176054	keystroke_Key.space	Key.space	n/a
88.1925	0.09	176385	keystroke_u	u	n/a
88.312	0.09	176624	keystroke_s	s	n/a
88.507	0.0755	177014	keystroke_e	e	n/a
88.537	0.0905	177074	keystroke_r	r	n/a
88.6725	0.075	177345	keystroke_Key.space	Key.space	n/a
88.7625	0.06	177525	keystroke_m	m	n/a
88.8375	0.06	177675	keystroke_a	a	n/a
88.8525	0.09	177705	keystroke_r	r	n/a
88.9875	0.075	177975	keystroke_k	k	n/a
89.0775	0.06	178155	keystroke_e	e	n/a
89.1075	0.09	178215	keystroke_r	r	n/a
89.3025	0.06	178605	keystroke_Key.space	Key.space	n/a
89.4375	0.045	178875	keystroke_e	e	n/a
89.6325	0.09	179265	keystroke_x	x	n/a
89.9175	0.075	179835	keystroke_a	a	n/a
90.2625	0.06	180525	keystroke_c	c	n/a
90.3365	0.09	180673	keystroke_t	t	n/a
90.5315	0.0905	181063	keystroke_Key.enter	Key.enter	n/a
90.6265	4.258	181253	prompt	n/a	translator cheat venues lost\n
91.2075	0.045	182415	keystroke_t	t	n/a
91.357	0.09	182714	keystroke_r	r	n/a
91.402	0.075	182804	keystroke_a	a	n/a
91.522	0.075	183044	keystroke_n	n	n/a
91.612	0.06	183224	keystroke_s	s	n/a
91.717	0.105	183434	keystroke_l	l	n/a
91.867	0.09	183734	keystroke_a	a	n/a
91.882	0.105	183764	keystroke_t	t	n/a
92.122	0.09	184244	keystroke_o	o	n/a
92.257	0.06	184514	keystroke_r	r	n/a
92.377	0.09	184754	keystroke_Key.space	Key.space	n/a
92.6175	0.075	185235	keystroke_c	c	n/a
92.7375	0.09	185475	keystroke_h	h	n/a
92.8725	0.105	185745	keystroke_e	e	n/a
93.0225	0.1045	186045	keystroke_a	a	n/a
93.0675	0.1045	186135	keystroke_t	t	n/a
93.217	0.09	186434	keystroke_Key.space	Key.space	n/a
93.382	0.105	186764	keystroke_v	v	n/a
93.5775	0.09	187155	keystroke_e	e	n/a
93.6525	0.075	187305	keystroke_n	n	n/a
93.8475	0.0595	187695	keystroke_u	u	n/a
93.922	0.03	187844	keystroke_e	e	n/a
94.072	0.09	188144	keystroke_s	s	n/a
94.1775	0.0595	188355	keystroke_Key.space	Key.space	n/a
94.222	0.105	188444	keystroke_l	l	n/a
94.387	0.0905	188774	keystroke_o	o	n/a
94.447	0.045	188894	keystroke_s	s	n/a
94.613	0.044	189226	keystroke_t	t	n/a
94.807	0.075	189614	keystroke_Key.enter	Key.enter	n/a
94.889	5.0795	189778	prompt	n/a	perfume graham machinery creative\n
95.587	0.12	191174	keystroke_p	p	n/a
95.677	0.06	191354	keystroke_e	e	n/a
95.722	0.075	191444	keystroke_r	r	n/a
95.917	0.105	191834	keystroke_f	f	n/a
95.992	0.045	191984	keystroke_u	u	n/a
96.172	0.06	192344	keystroke_m	m	n/a
96.247	0.075	192494	keystroke_e	e	n/a
96.397	0.03	192794	keystroke_Key.space	Key.space	n/a
96.428	0.06	192856	keystroke_g	g	n/a
96.5775	0.105	193155	keystroke_r	r	n/a
96.6375	0.09	193275	keystroke_a	a	n/a
96.7425	0.06	193485	keystroke_h	h	n/a
96.8925	0.09	193785	keystroke_a	a	n/a
97.0125	0.075	194025	keystroke_m	m	n/a
97.1325	0.075	194265	keystroke_Key.space	Key.space	n/a
97.3725	0.06	194745	keystroke_m	m	n/a
97.7925	0.09	195585	keystroke_a	a	n/a
97.9425	0.075	195885	keystroke_c	c	n/a
98.0475	0.1195	196095	keystroke_h	h	n/a
98.137	0.075	196274	keystroke_i	i	n/a
98.317	0.045	196634	keystroke_n	n	n/a
98.407	0.06	196814	keystroke_e	e	n/a
98.482	0.075	196964	keystroke_r	r	n/a
98.617	0.06	197234	keystroke_y	y	n/a
98.678	0.119	197356	keystroke_Key.space	Key.space	n/a
98.842	0.045	197684	keystroke_c	c	n/a
99.0225	0.135	198045	keystroke_r	r	n/a
99.1425	0.075	198285	keystroke_e	e	n/a
99.1725	0.135	198345	keystroke_a	a	n/a
99.2925	0.075	198585	keystroke_t	t	n/a
99.4725	0.075	198945	keystroke_i	i	n/a
99.5925	0.09	199185	keystroke_v	v	n/a
99.6525	0.09	199305	keystroke_e	e	n/a
99.8925	0.075	199785	keystroke_Key.enter	Key.enter	n/a
99.973	7.091	199946	prompt	n/a	lies floor fireplace cornell\n
100.6275	0.06	201255	keystroke_l	l	n/a
100.8075	0.06	201615	keystroke_i	i	n/a
100.8525	0.06	201705	keystroke_e	e	n/a
101.0175	0.075	202035	keystroke_s	s	n/a
101.0775	0.075	202155	keystroke_Key.space	Key.space	n/a
101.1675	0.045	202335	keystroke_f	f	n/a
101.2575	0.06	202515	keystroke_l	l	n/a
101.3925	0.06	202785	keystroke_o	o	n/a
101.5125	0.06	203025	keystroke_o	o	n/a
101.6175	0.03	203235	keystroke_r	r	n/a
101.692	0.06	203384	keystroke_Key.space	Key.space	n/a
101.872	0.105	203744	keystroke_f	f	n/a
102.097	0.045	204194	keystroke_i	i	n/a
102.1575	0.1355	204315	keystroke_r	r	n/a
102.262	0.075	204524	keystroke_e	e	n/a
102.502	0.06	205004	keystroke_p	p	n/a
102.667	0.045	205334	keystroke_l	l	n/a
102.743	0.134	205486	keystroke_a	a	n/a
102.937	0.06	205874	keystroke_e	e	n/a
103.012	0.09	206024	keystroke_Key.space	Key.space	n/a
103.1475	0.06	206295	keystroke_c	c	n/a
103.2225	0.045	206445	keystroke_o	o	n/a
103.3875	0.03	206775	keystroke_r	r	n/a
103.6575	0.06	207315	keystroke_Key.backspace	Key.backspace	n/a
103.8075	0.06	207615	keystroke_Key.backspace	Key.backspace	n/a
103.9575	0.045	207915	keystroke_Key.backspace	Key.backspace	n/a
104.1075	0.06	208215	keystroke_Key.backspace	Key.backspace	n/a
104.2575	0.06	208515	keystroke_Key.backspace	Key.backspace	n/a
104.3775	0.1045	208755	keystroke_c	c	n/a
104.452	0.075	208904	keystroke_e	e	n/a
104.542	0.0905	209084	keystroke_Key.space	Key.space	n/a
105.3075	0.06	210615	keystroke_c	c	n/a
105.3975	0.06	210795	keystroke_o	o	n/a
105.5325	0.045	211065	keystroke_r	r	n/a
105.5925	0.06	211185	keystroke_n	n	n/a
105.817	0.045	211634	keystroke_l	l	n/a
105.952	0.045	211904	keystroke_l	l	n/a
106.387	0.06	212774	keystroke_Key.backspace	Key.backspace	n/a
106.522	0.03	213044	keystroke_Key.backspace	Key.backspace	n/a
106.642	0.075	213284	keystroke_e	e	n/a
106.732	0.06	213464	keystroke_l	l	n/a
106.837	0.06	213674	keystroke_l	l	n/a
106.972	0.09	213944	keystroke_Key.enter	Key.enter	n/a
107.067	6.358	214134	prompt	n/a	nudist worldwide typically picked\n
107.8275	0.075	215655	keystroke_n	n	n/a
108.187	0.03	216374	keystroke_d	d	n/a
108.5625	0.045	217125	keystroke_Key.backspace	Key.backspace	n/a
108.7725	0.06	217545	keystroke_u	u	n/a
108.8475	0.075	217695	keystroke_d	d	n/a
108.9675	0.06	217935	keystroke_i	i	n/a
109.0425	0.09	218085	keystroke_s	s	n/a
109.2525	0.0595	218505	keystroke_t	t	n/a
109.3425	0.12	218685	keystroke_Key.space	Key.space	n/a
109.4475	0.09	218895	keystroke_w	w	n/a
109.5525	0.09	219105	keystroke_o	o	n/a
109.5975	0.075	219195	keystroke_r	r	n/a
110.123	0.075	220246	keystroke_l	l	n/a
110.228	0.06	220456	keystroke_d	d	n/a
110.483	0.06	220966	keystroke_w	w	n/a
110.7375	0.06	221475	keystroke_i	i	n/a
110.9025	0.06	221805	keystroke_d	d	n/a
111.0675	0.06	222135	keystroke_e	e	n/a
111.1725	0.0745	222345	keystroke_Key.space	Key.space	n/a
111.307	0.0755	222614	keystroke_t	t	n/a
111.4275	0.09	222855	keystroke_y	y	n/a
111.6525	0.09	223305	keystroke_p	p	n/a
111.6975	0.105	223395	keystroke_i	i	n/a
111.8475	0.09	223695	keystroke_c	c	n/a
111.9225	0.075	223845	keystroke_a	a	n/a
112.0125	0.06	224025	keystroke_l	l	n/a
112.1325	0.075	224265	keystroke_l	l	n/a
112.3725	0.09	224745	keystroke_y	y	n/a
112.4325	0.12	224865	keystroke_Key.space	Key.space	n/a
112.6425	0.105	225285	keystroke_p	p	n/a
112.6875	0.105	225375	keystroke_i	i	n/a
112.8525	0.075	225705	keystroke_c	c	n/a
112.9425	0.075	225885	keystroke_k	k	n/a
113.0325	0.045	226065	keystroke_e	e	n/a
113.2125	0.075	226425	keystroke_d	d	n/a
113.3325	0.0895	226665	keystroke_Key.enter	Key.enter	n/a
113.4285	3.5055	226857	prompt	n/a	ties sterling related element\n
114.052	0.075	228104	keystroke_t	t	n/a
114.143	0.074	228286	keystroke_i	i	n/a
114.218	0.044	228436	keystroke_e	e	n/a
114.367	0.06	228734	keystroke_s	s	n/a
114.442	0.09	228884	keystroke_Key.space	Key.space	n/a
114.533	0.0445	229066	keystroke_s	s	n/a
114.6525	0.06	229305	keystroke_t	t	n/a
114.7875	0.09	229575	keystroke_e	e	n/a
114.8325	0.09	229665	keystroke_r	r	n/a
114.9675	0.06	229935	keystroke_l	l	n/a
115.0875	0.06	230175	keystroke_i	i	n/a
115.2525	0.0605	230505	keystroke_n	n	n/a
115.2975	0.0605	230595	keystroke_g	g	n/a
115.387	0.075	230774	keystroke_Key.space	Key.space	n/a
115.507	0.12	231014	keystroke_r	r	n/a
115.597	0.06	231194	keystroke_e	e	n/a
115.687	0.076	231374	keystroke_l	l	n/a
115.748	0.089	231496	keystroke_a	a	n/a
115.822	0.12	231644	keystroke_t	t	n/a
115.928	0.059	231856	keystroke_e	e	n/a
116.078	0.074	232156	keystroke_d	d	n/a
116.167	0.06	232334	keystroke_Key.space	Key.space	n/a
116.257	0.06	232514	keystroke_e	e	n/a
116.362	0.06	232724	keystroke_l	l	n/a
116.423	0.089	232846	keystroke_e	e	n/a
116.527	0.0755	233054	keystroke_m	m	n/a
116.6175	0.105	233235	keystroke_e	e	n/a
116.7075	0.06	233415	keystroke_n	n	n/a
116.8125	0.075	233625	keystroke_t	t	n/a
116.8575	0.075	233715	keystroke_Key.enter	Key.enter	n/a
116.937	3.342	233874	prompt	n/a	insider clark inputs legend\n
117.562	0.046	235124	keystroke_i	i	n/a
117.697	0.075	235394	keystroke_n	n	n/a
117.787	0.106	235574	keystroke_s	s	n/a
117.877	0.09	235754	keystroke_i	i	n/a
117.952	0.075	235904	keystroke_d	d	n/a
118.132	0.076	236264	keystroke_e	e	n/a
118.193	0.075	236386	keystroke_r	r	n/a
118.268	0.074	236536	keystroke_Key.space	Key.space	n/a
118.418	0.09	236836	keystroke_c	c	n/a
118.523	0.075	237046	keystroke_l	l	n/a
118.613	0.075	237226	keystroke_a	a	n/a
118.658	0.105	237316	keystroke_r	r	n/a
118.703	0.09	237406	keystroke_k	k	n/a
118.777	0.121	237554	keystroke_Key.space	Key.space	n/a
118.928	0.045	237856	keystroke_i	i	n/a
119.048	0.075	238096	keystroke_n	n	n/a
119.228	0.075	238456	keystroke_p	p	n/a
119.348	0.105	238696	keystroke_u	u	n/a
119.407	0.075	238814	keystroke_t	t	n/a
119.647	0.031	239294	keystroke_s	s	n/a
119.662	0.105	239324	keystroke_Key.space	Key.space	n/a
119.707	0.09	239414	keystroke_l	l	n/a
119.753	0.06	239506	keystroke_e	e	n/a
119.857	0.106	239714	keystroke_g	g	n/a
119.932	0.09	239864	keystroke_e	e	n/a
120.038	0.044	240076	keystroke_n	n	n/a
120.112	0.06	240224	keystroke_d	d	n/a
120.202	0.075	240404	keystroke_Key.enter	Key.enter	n/a
120.282	8.037	240564	prompt	n/a	dating jason indianapolis conservation\n
121.087	0.09	242174	keystroke_d	d	n/a
121.163	0.0895	242326	keystroke_a	a	n/a
121.3575	0.09	242715	keystroke_t	t	n/a
121.4325	0.045	242865	keystroke_i	i	n/a
121.5825	0.06	243165	keystroke_n	n	n/a
121.6275	0.075	243255	keystroke_g	g	n/a
121.7175	0.075	243435	keystroke_Key.space	Key.space	n/a
121.7625	0.12	243525	keystroke_j	j	n/a
121.8375	0.06	243675	keystroke_a	a	n/a
122.0325	0.06	244065	keystroke_s	s	n/a
122.0625	0.06	244125	keystroke_o	o	n/a
122.2275	0.06	244455	keystroke_n	n	n/a
122.2875	0.135	244575	keystroke_Key.space	Key.space	n/a
122.4375	0.015	244875	keystroke_i	i	n/a
122.5575	0.06	245115	keystroke_n	n	n/a
122.6325	0.06	245265	keystroke_d	d	n/a
122.7525	0.075	245505	keystroke_i	i	n/a
124.5075	0.075	249015	keystroke_a	a	n/a
124.6275	0.06	249255	keystroke_n	n	n/a
124.7325	0.075	249465	keystroke_a	a	n/a
124.853	0.1045	249706	keystroke_p	p	n/a
125.0175	0.0605	250035	keystroke_o	o	n/a
125.198	0.06	250396	keystroke_l	l	n/a
125.363	0.075	250726	keystroke_i	i	n/a
125.453	0.09	250906	keystroke_s	s	n/a
125.5575	0.0755	251115	keystroke_Key.space	Key.space	n/a
125.813	0.09	251626	keystroke_c	c	n/a
126.1275	0.045	252255	keystroke_o	o	n/a
126.277	0.06	252554	keystroke_n	n	n/a
126.577	0.0605	253154	keystroke_s	s	n/a
126.7275	0.09	253455	keystroke_e	e	n/a
126.7875	0.075	253575	keystroke_r	r	n/a
127.613	0.105	255226	keystroke_v	v	n/a
127.703	0.075	255406	keystroke_a	a	n/a
127.853	0.09	255706	keystroke_t	t	n/a
127.913	0.075	255826	keystroke_i	i	n/a
127.958	0.075	255916	keystroke_o	o	n/a
128.123	0.045	256246	keystroke_n	n	n/a
128.213	0.105	256426	keystroke_Key.enter	Key.enter	n/a
128.322	4.227	256644	prompt	n/a	shoes cemetery rhythm directory\n
128.9475	0.105	257895	keystroke_s	s	n/a
129.0225	0.105	258045	keystroke_h	h	n/a
129.0975	0.105	258195	keystroke_o	o	n/a
129.1575	0.06	258315	keystroke_e	e	n/a
129.3225	0.09	258645	keystroke_s	s	n/a
129.3975	0.06	258795	keystroke_Key.space	Key.space	n/a
129.5025	0.12	259005	keystroke_c	c	n/a
129.5925	0.06	259185	keystroke_e	e	n/a
129.6675	0.045	259335	keystroke_m	m	n/a
129.7425	0.075	259485	keystroke_e	e	n/a
129.8925	0.075	259785	keystroke_t	t	n/a
130.0275	0.075	260055	keystroke_e	e	n/a
130.0875	0.075	260175	keystroke_r	r	n/a
130.1175	0.09	260235	keystroke_y	y	n/a
130.1625	0.105	260325	keystroke_Key.space	Key.space	n/a
130.417	0.09	260834	keystroke_r	r	n/a
130.492	0.06	260984	keystroke_h	h	n/a
130.763	0.09	261526	keystroke_y	y	n/a
130.928	0.075	261856	keystroke_t	t	n/a
131.048	0.045	262096	keystroke_h	h	n/a
131.2575	0.06	262515	keystroke_m	m	n/a
131.3025	0.09	262605	keystroke_Key.space	Key.space	n/a
131.4525	0.06	262905	keystroke_d	d	n/a
131.5275	0.075	263055	keystroke_i	i	n/a
131.6175	0.1205	263235	keystroke_r	r	n/a
131.692	0.105	263384	keystroke_e	e	n/a
131.888	0.09	263776	keystroke_c	c	n/a
132.098	0.045	264196	keystroke_t	t	n/a
132.128	0.075	264256	keystroke_o	o	n/a
132.248	0.09	264496	keystroke_r	r	n/a
132.307	0.076	264614	keystroke_y	y	n/a
132.442	0.105	264884	keystroke_Key.enter	Key.enter	n/a
132.5525	4.2265	265105	prompt	n/a	happens leads window firefox\n
133.133	0.074	266266	keystroke_h	h	n/a
133.2225	0.0895	266445	keystroke_a	a	n/a
133.327	0.045	266654	keystroke_p	p	n/a
133.447	0.045	266894	keystroke_p	p	n/a
133.507	0.06	267014	keystroke_e	e	n/a
133.582	0.06	267164	keystroke_n	n	n/a
133.672	0.09	267344	keystroke_s	s	n/a
133.717	0.12	267434	keystroke_Key.space	Key.space	n/a
133.807	0.12	267614	keystroke_l	l	n/a
133.897	0.12	267794	keystroke_e	e	n/a
134.002	0.06	268004	keystroke_a	a	n/a
134.167	0.1505	268334	keystroke_d	d	n/a
134.2875	0.09	268575	keystroke_s	s	n/a
134.392	0.0905	268784	keystroke_Key.space	Key.space	n/a
134.4975	0.105	268995	keystroke_w	w	n/a
134.572	0.0455	269144	keystroke_i	i	n/a
134.7075	0.0605	269415	keystroke_n	n	n/a
134.753	0.075	269506	keystroke_d	d	n/a
134.8725	0.075	269745	keystroke_o	o	n/a
134.963	0.075	269926	keystroke_w	w	n/a
135.0225	0.075	270045	keystroke_Key.space	Key.space	n/a
135.128	0.06	270256	keystroke_f	f	n/a
135.203	0.06	270406	keystroke_i	i	n/a
135.293	0.0895	270586	keystroke_r	r	n/a
135.353	0.0595	270706	keystroke_e	e	n/a
135.5325	0.075	271065	keystroke_f	f	n/a
135.6525	0.0455	271305	keystroke_o	o	n/a
136.3425	0.09	272685	keystroke_x	x	n/a
136.7025	0.0745	273405	keystroke_Key.enter	Key.enter	n/a
136.782	4.302	273564	prompt	n/a	horror assessments need pizza\n
137.453	0.045	274906	keystroke_h	h	n/a
137.573	0.105	275146	keystroke_o	o	n/a
137.648	0.06	275296	keystroke_r	r	n/a
137.783	0.0595	275566	keystroke_r	r	n/a
137.8125	0.09	275625	keystroke_o	o	n/a
137.9175	0.075	275835	keystroke_r	r	n/a
137.9775	0.09	275955	keystroke_Key.space	Key.space	n/a
138.0975	0.06	276195	keystroke_a	a	n/a
138.263	0.06	276526	keystroke_s	s	n/a
138.368	0.06	276736	keystroke_s	s	n/a
138.518	0.03	277036	keystroke_e	e	n/a
138.652	0.045	277304	keystroke_s	s	n/a
138.772	0.06	277544	keystroke_s	s	n/a
138.862	0.075	277724	keystroke_m	m	n/a
138.952	0.06	277904	keystroke_e	e	n/a
139.042	0.06	278084	keystroke_n	n	n/a
139.117	0.045	278234	keystroke_t	t	n/a
139.267	0.091	278534	keystroke_s	s	n/a
139.313	0.059	278626	keystroke_Key.space	Key.space	n/a
139.388	0.09	278776	keystroke_n	n	n/a
139.493	0.044	278986	keystroke_e	e	n/a
139.598	0.059	279196	keystroke_e	e	n/a
139.763	0.045	279526	keystroke_d	d	n/a
140.1825	0.045	280365	keystroke_Key.space	Key.space	n/a
140.3175	0.09	280635	keystroke_p	p	n/a
140.3925	0.075	280785	keystroke_i	i	n/a
140.572	0.0155	281144	keystroke_z	z	n/a
140.6775	0.09	281355	keystroke_z	z	n/a
140.9025	0.075	281805	keystroke_a	a	n/a
141.0075	0.075	282015	keystroke_Key.enter	Key.enter	n/a
141.0865	5.5175	282173	prompt	n/a	spectrum routes gloves polyphonic\n
141.742	0.03	283484	keystroke_s	s	n/a
141.787	0.105	283574	keystroke_p	p	n/a
141.847	0.0755	283694	keystroke_e	e	n/a
142.043	0.075	284086	keystroke_c	c	n/a
142.238	0.0595	284476	keystroke_t	t	n/a
142.3875	0.0755	284775	keystroke_r	r	n/a
142.493	0.0595	284986	keystroke_u	u	n/a
142.7175	0.06	285435	keystroke_m	m	n/a
142.7625	0.12	285525	keystroke_Key.space	Key.space	n/a
142.8975	0.09	285795	keystroke_r	r	n/a
142.9585	0.149	285917	keystroke_o	o	n/a
143.0475	0.105	286095	keystroke_u	u	n/a
143.1375	0.0605	286275	keystroke_t	t	n/a
143.288	0.045	286576	keystroke_e	e	n/a
143.438	0.09	286876	keystroke_s	s	n/a
143.543	0.06	287086	keystroke_Key.space	Key.space	n/a
143.618	0.09	287236	keystroke_g	g	n/a
143.723	0.06	287446	keystroke_l	l	n/a
143.843	0.1045	287686	keystroke_o	o	n/a
143.903	0.1345	287806	keystroke_v	v	n/a
143.9925	0.105	287985	keystroke_e	e	n/a
144.2175	0.075	288435	keystroke_s	s	n/a
144.2935	0.0745	288587	keystroke_Key.space	Key.space	n/a
144.563	0.075	289126	keystroke_p	p	n/a
144.848	0.09	289696	keystroke_o	o	n/a
145.088	0.06	290176	keystroke_l	l	n/a
145.3575	0.075	290715	keystroke_y	y	n/a
145.6725	0.105	291345	keystroke_p	p	n/a
145.8375	0.075	291675	keystroke_h	h	n/a
146.0175	0.075	292035	keystroke_o	o	n/a
146.1975	0.045	292395	keystroke_n	n	n/a
146.3325	0.075	292665	keystroke_i	i	n/a
146.4225	0.075	292845	keystroke_c	c	n/a
146.5125	0.09	293025	keystroke_Key.enter	Key.enter	n/a
146.6075	5.5015	293215	prompt	n/a	classics paintings was we'll\n
147.3375	0.075	294675	keystroke_c	c	n/a
147.5025	0.105	295005	keystroke_l	l	n/a
147.6375	0.06	295275	keystroke_a	a	n/a
147.7875	0.06	295575	keystroke_s	s	n/a
147.9375	0.045	295875	keystroke_s	s	n/a
147.9525	0.0755	295905	keystroke_i	i	n/a
148.088	0.075	296176	keystroke_c	c	n/a
148.7175	0.09	297435	keystroke_s	s	n/a
148.8225	0.03	297645	keystroke_Key.space	Key.space	n/a
148.8375	0.06	297675	keystroke_p	p	n/a
148.8825	0.09	297765	keystroke_a	a	n/a
149.0175	0.075	298035	keystroke_i	i	n/a
149.1975	0.06	298395	keystroke_t	t	n/a
149.8125	0.06	299625	keystroke_Key.backspace	Key.backspace	n/a
150.0375	0.06	300075	keystroke_n	n	n/a
150.1425	0.105	300285	keystroke_t	t	n/a
150.2325	0.06	300465	keystroke_i	i	n/a
150.3825	0.06	300765	keystroke_n	n	n/a
150.4275	0.075	300855	keystroke_g	g	n/a
150.6075	0.06	301215	keystroke_s	s	n/a
150.7275	0.06	301455	keystroke_Key.space	Key.space	n/a
150.8475	0.075	301695	keystroke_w	w	n/a
151.0575	0.09	302115	keystroke_a	a	n/a
151.2075	0.12	302415	keystroke_s	s	n/a
151.3575	0.06	302715	keystroke_Key.space	Key.space	n/a
151.4625	0.105	302925	keystroke_w	w	n/a
151.5225	0.12	303045	keystroke_e	e	n/a
151.6275	0.075	303255	keystroke_'	'	n/a
151.7925	0.06	303585	keystroke_l	l	n/a
151.9125	0.046	303825	keystroke_l	l	n/a
152.0025	0.105	304005	keystroke_Key.enter	Key.enter	n/a
152.114	6.9105	304228	prompt	n/a	inappropriate premises western delicious\n
152.7825	0.045	305565	keystroke_i	i	n/a
152.9325	0.045	305865	keystroke_n	n	n/a
153.0675	0.0755	306135	keystroke_a	a	n/a
153.203	0.059	306406	keystroke_p	p	n/a
153.323	0.06	306646	keystroke_p	p	n/a
154.1775	0.09	308355	keystroke_r	r	n/a
154.5525	0.06	309105	keystroke_o	o	n/a
154.7325	0.105	309465	keystroke_p	p	n/a
154.8375	0.0905	309675	keystroke_r	r	n/a
154.973	0.0745	309946	keystroke_i	i	n/a
155.0625	0.105	310125	keystroke_a	a	n/a
155.2125	0.045	310425	keystroke_t	t	n/a
155.2875	0.075	310575	keystroke_e	e	n/a
155.3625	0.105	310725	keystroke_Key.space	Key.space	n/a
155.4825	0.075	310965	keystroke_p	p	n/a
155.6025	0.075	311205	keystroke_r	r	n/a
155.6625	0.075	311325	keystroke_e	e	n/a
155.7675	0.075	311535	keystroke_m	m	n/a
155.9475	0.09	311895	keystroke_i	i	n/a
156.0075	0.045	312015	keystroke_s	s	n/a
156.1125	0.06	312225	keystroke_e	e	n/a
156.277	0.075	312554	keystroke_s	s	n/a
156.397	0.06	312794	keystroke_Key.space	Key.space	n/a
156.473	0.089	312946	keystroke_w	w	n/a
156.517	0.0905	313034	keystroke_e	e	n/a
156.7575	0.045	313515	keystroke_s	s	n/a
156.997	0.105	313994	keystroke_t	t	n/a
157.207	0.09	314414	keystroke_e	e	n/a
157.282	0.075	314564	keystroke_r	r	n/a
157.627	0.0455	315254	keystroke_n	n	n/a
157.657	0.0905	315314	keystroke_Key.space	Key.space	n/a
157.7625	0.0895	315525	keystroke_d	d	n/a
157.9425	0.0895	315885	keystroke_e	e	n/a
158.0175	0.0595	316035	keystroke_l	l	n/a
158.1825	0.0895	316365	keystroke_i	i	n/a
158.2425	0.0745	316485	keystroke_c	c	n/a
158.467	0.121	316934	keystroke_i	i	n/a
158.527	0.181	317054	keystroke_o	o	n/a
158.678	0.12	317356	keystroke_u	u	n/a
158.753	0.105	317506	keystroke_s	s	n/a
158.903	0.1195	317806	keystroke_Key.enter	Key.enter	n/a
159.0275	6.6115	318055	prompt	n/a	appropriations perth member factor\n
159.773	0.09	319546	keystroke_a	a	n/a
160.0425	0.075	320085	keystroke_p	p	n/a
160.1925	0.06	320385	keystroke_p	p	n/a
161.0625	0.0745	322125	keystroke_r	r	n/a
161.647	0.076	323294	keystroke_o	o	n/a
161.9025	0.045	323805	keystroke_p	p	n/a
162.0225	0.105	324045	keystroke_r	r	n/a
162.1725	0.075	324345	keystroke_i	i	n/a
162.3675	0.06	324735	keystroke_a	a	n/a
162.5325	0.09	325065	keystroke_t	t	n/a
162.5925	0.09	325185	keystroke_i	i	n/a
162.6675	0.045	325335	keystroke_o	o	n/a
162.8325	0.045	325665	keystroke_n	n	n/a
162.9225	0.075	325845	keystroke_s	s	n/a
163.0425	0.075	326085	keystroke_Key.space	Key.space	n/a
163.2075	0.105	326415	keystroke_p	p	n/a
163.2975	0.12	326595	keystroke_e	e	n/a
163.3575	0.105	326715	keystroke_r	r	n/a
163.5675	0.105	327135	keystroke_t	t	n/a
163.6275	0.075	327255	keystroke_h	h	n/a
163.6875	0.06	327375	keystroke_Key.space	Key.space	n/a
163.8525	0.045	327705	keystroke_m	m	n/a
163.9125	0.045	327825	keystroke_e	e	n/a
163.9725	0.06	327945	keystroke_m	m	n/a
164.1225	0.06	328245	keystroke_b	b	n/a
164.1675	0.06	328335	keystroke_e	e	n/a
164.1975	0.105	328395	keystroke_r	r	n/a
164.3175	0.1045	328635	keystroke_Key.space	Key.space	n/a
164.438	0.12	328876	keystroke_f	f	n/a
164.513	0.105	329026	keystroke_a	a	n/a
165.098	0.059	330196	keystroke_c	c	n/a
165.307	0.061	330614	keystroke_t	t	n/a
165.382	0.091	330764	keystroke_o	o	n/a
165.488	0.105	330976	keystroke_r	r	n/a
165.577	0.06	331154	keystroke_Key.enter	Key.enter	n/a
165.642	2.982	331284	prompt	n/a	lips days bases wealth\n
166.282	0.076	332564	keystroke_l	l	n/a
166.462	0.045	332924	keystroke_i	i	n/a
166.5825	0.09	333165	keystroke_p	p	n/a
166.6575	0.075	333315	keystroke_s	s	n/a
166.7775	0.06	333555	keystroke_Key.space	Key.space	n/a
166.8525	0.075	333705	keystroke_d	d	n/a
166.9125	0.075	333825	keystroke_a	a	n/a
167.0025	0.075	334005	keystroke_y	y	n/a
167.0925	0.0905	334185	keystroke_s	s	n/a
167.1675	0.06	334335	keystroke_Key.space	Key.space	n/a
167.288	0.075	334576	keystroke_b	b	n/a
167.333	0.0745	334666	keystroke_a	a	n/a
167.513	0.075	335026	keystroke_s	s	n/a
167.648	0.0445	335296	keystroke_e	e	n/a
167.798	0.075	335596	keystroke_s	s	n/a
167.903	0.045	335806	keystroke_Key.space	Key.space	n/a
167.978	0.075	335956	keystroke_w	w	n/a
168.038	0.075	336076	keystroke_e	e	n/a
168.203	0.09	336406	keystroke_a	a	n/a
168.263	0.09	336526	keystroke_l	l	n/a
168.368	0.09	336736	keystroke_t	t	n/a
168.443	0.075	336886	keystroke_h	h	n/a
168.533	0.09	337066	keystroke_Key.enter	Key.enter	n/a
168.628	7.2115	337256	prompt	n/a	luxury modified premiere applicant\n
169.298	0.075	338596	keystroke_l	l	n/a
169.5075	0.09	339015	keystroke_u	u	n/a
169.988	0.075	339976	keystroke_x	x	n/a
170.108	0.09	340216	keystroke_u	u	n/a
170.318	0.06	340636	keystroke_r	r	n/a
170.408	0.075	340816	keystroke_y	y	n/a
170.468	0.075	340936	keystroke_Key.space	Key.space	n/a
170.6775	0.045	341355	keystroke_m	m	n/a
170.8575	0.105	341715	keystroke_o	o	n/a
170.9175	0.12	341835	keystroke_f	f	n/a
171.0525	0.09	342105	keystroke_i	i	n/a
171.1725	0.075	342345	keystroke_d	d	n/a
171.2325	0.105	342465	keystroke_i	i	n/a
171.3525	0.06	342705	keystroke_e	e	n/a
171.9225	0.075	343845	keystroke_Key.backspace	Key.backspace	n/a
172.1475	0.075	344295	keystroke_Key.backspace	Key.backspace	n/a
172.3725	0.06	344745	keystroke_Key.backspace	Key.backspace	n/a
172.582	0.06	345164	keystroke_Key.backspace	Key.backspace	n/a
172.9725	0.045	345945	keystroke_Key.backspace	Key.backspace	n/a
173.1675	0.06	346335	keystroke_d	d	n/a
173.2725	0.06	346545	keystroke_i	i	n/a
173.3475	0.075	346695	keystroke_f	f	n/a
173.4225	0.06	346845	keystroke_i	i	n/a
173.5125	0.045	347025	keystroke_e	e	n/a
173.6925	0.09	347385	keystroke_d	d	n/a
173.8425	0.075	347685	keystroke_Key.space	Key.space	n/a
174.053	0.059	348106	keystroke_p	p	n/a
174.142	0.09	348284	keystroke_r	r	n/a
174.217	0.09	348434	keystroke_e	e	n/a
174.277	0.075	348554	keystroke_m	m	n/a
174.457	0.09	348914	keystroke_i	i	n/a
174.488	0.089	348976	keystroke_e	e	n/a
174.592	0.12	349184	keystroke_r	r	n/a
174.667	0.09	349334	keystroke_e	e	n/a
174.742	0.09	349484	keystroke_Key.space	Key.space	n/a
174.847	0.105	349694	keystroke_a	a	n/a
174.907	0.06	349814	keystroke_p	p	n/a
175.027	0.06	350054	keystroke_p	p	n/a
175.192	0.045	350384	keystroke_l	l	n/a
175.343	0.0595	350686	keystroke_i	i	n/a
175.4175	0.075	350835	keystroke_c	c	n/a
175.4775	0.105	350955	keystroke_a	a	n/a
175.5825	0.075	351165	keystroke_n	n	n/a
175.6875	0.075	351375	keystroke_t	t	n/a
175.7475	0.09	351495	keystroke_Key.enter	Key.enter	n/a
175.843	3.911	351686	prompt	n/a	shake selecting craps neural\n
176.5275	0.09	353055	keystroke_s	s	n/a
176.5875	0.075	353175	keystroke_h	h	n/a
176.7075	0.09	353415	keystroke_a	a	n/a
176.7825	0.06	353565	keystroke_k	k	n/a
176.8725	0.045	353745	keystroke_e	e	n/a
176.9325	0.09	353865	keystroke_Key.space	Key.space	n/a
177.0375	0.0755	354075	keystroke_s	s	n/a
177.173	0.09	354346	keystroke_e	e	n/a
177.278	0.09	354556	keystroke_l	l	n/a
177.383	0.075	354766	keystroke_e	e	n/a
177.547	0.076	355094	keystroke_c	c	n/a
177.757	0.09	355514	keystroke_t	t	n/a
177.862	0.03	355724	keystroke_i	i	n/a
177.983	0.0595	355966	keystroke_n	n	n/a
178.0435	0.059	356087	keystroke_g	g	n/a
178.1475	0.075	356295	keystroke_Key.space	Key.space	n/a
178.2675	0.075	356535	keystroke_c	c	n/a
178.4775	0.075	356955	keystroke_r	r	n/a
178.5075	0.1055	357015	keystroke_a	a	n/a
178.568	0.09	357136	keystroke_p	p	n/a
178.702	0.076	357404	keystroke_s	s	n/a
178.748	0.06	357496	keystroke_Key.space	Key.space	n/a
178.868	0.105	357736	keystroke_n	n	n/a
179.003	0.075	358006	keystroke_e	e	n/a
179.273	0.075	358546	keystroke_u	u	n/a
179.393	0.089	358786	keystroke_r	r	n/a
179.452	0.105	358904	keystroke_a	a	n/a
179.527	0.061	359054	keystroke_l	l	n/a
179.647	0.105	359294	keystroke_Key.enter	Key.enter	n/a
179.7575	4.962	359515	prompt	n/a	maps maximize epic export\n
180.4275	0.075	360855	keystroke_m	m	n/a
180.5175	0.105	361035	keystroke_a	a	n/a
180.6375	0.09	361275	keystroke_p	p	n/a
180.7425	0.06	361485	keystroke_s	s	n/a
180.7725	0.09	361545	keystroke_Key.space	Key.space	n/a
180.9075	0.075	361815	keystroke_m	m	n/a
180.9835	0.089	361967	keystroke_a	a	n/a
181.2225	0.09	362445	keystroke_x	x	n/a
181.2975	0.075	362595	keystroke_i	i	n/a
181.4925	0.09	362985	keystroke_m	m	n/a
181.6725	0.105	363345	keystroke_i	i	n/a
181.7625	0.06	363525	keystroke_s	s	n/a
181.9275	0.075	363855	keystroke_e	e	n/a
182.573	0.06	365146	keystroke_Key.backspace	Key.backspace	n/a
182.708	0.075	365416	keystroke_Key.backspace	Key.backspace	n/a
182.918	0.06	365836	keystroke_z	z	n/a
183.098	0.075	366196	keystroke_e	e	n/a
183.218	0.09	366436	keystroke_Key.space	Key.space	n/a
183.308	0.105	366616	keystroke_e	e	n/a
183.383	0.1195	366766	keystroke_p	p	n/a
183.443	0.1045	366886	keystroke_i	i	n/a
183.5625	0.09	367125	keystroke_c	c	n/a
183.6675	0.06	367335	keystroke_Key.space	Key.space	n/a
183.7425	0.03	367485	keystroke_e	e	n/a
184.118	0.09	368236	keystroke_x	x	n/a
184.268	0.135	368536	keystroke_p	p	n/a
184.343	0.105	368686	keystroke_o	o	n/a
184.433	0.06	368866	keystroke_r	r	n/a
184.583	0.104	369166	keystroke_t	t	n/a
184.613	0.105	369226	keystroke_Key.enter	Key.enter	n/a
184.723	9.9715	369446	prompt	n/a	barn winners deadline immigrants\n
185.438	0.059	370876	keystroke_b	b	n/a
185.512	0.106	371024	keystroke_a	a	n/a
185.543	0.12	371086	keystroke_r	r	n/a
185.648	0.089	371296	keystroke_n	n	n/a
185.722	0.12	371444	keystroke_Key.space	Key.space	n/a
185.782	0.105	371564	keystroke_w	w	n/a
185.902	0.075	371804	keystroke_i	i	n/a
186.067	0.03	372134	keystroke_n	n	n/a
186.172	0.0605	372344	keystroke_n	n	n/a
186.2475	0.075	372495	keystroke_e	e	n/a
186.2775	0.075	372555	keystroke_r	r	n/a
186.4725	0.045	372945	keystroke_s	s	n/a
186.5175	0.0895	373035	keystroke_Key.space	Key.space	n/a
186.637	0.046	373274	keystroke_d	d	n/a
186.788	0.074	373576	keystroke_e	e	n/a
186.922	0.075	373844	keystroke_a	a	n/a
187.057	0.106	374114	keystroke_d	d	n/a
187.147	0.045	374294	keystroke_l	l	n/a
187.282	0.061	374564	keystroke_i	i	n/a
187.432	0.045	374864	keystroke_n	n	n/a
187.492	0.076	374984	keystroke_g	g	n/a
187.553	0.09	375106	keystroke_Key.space	Key.space	n/a
187.628	0.075	375256	keystroke_i	i	n/a
187.808	0.03	375616	keystroke_m	m	n/a
187.913	0.09	375826	keystroke_m	m	n/a
188.093	0.09	376186	keystroke_i	i	n/a
188.228	0.075	376456	keystroke_g	g	n/a
188.408	0.105	376816	keystroke_r	r	n/a
188.483	0.105	376966	keystroke_a	a	n/a
188.903	0.1045	377806	keystroke_n	n	n/a
189.0225	0.06	378045	keystroke_t	t	n/a
189.1875	0.075	378375	keystroke_s	s	n/a
190.0575	0.09	380115	keystroke_Key.backspace	Key.backspace	n/a
190.4025	0.09	380805	keystroke_Key.backspace	Key.backspace	n/a
190.793	0.105	381586	keystroke_Key.backspace	Key.backspace	n/a
191.153	0.075	382306	keystroke_Key.backspace	Key.backspace	n/a
191.363	0.09	382726	keystroke_Key.backspace	Key.backspace	n/a
191.573	0.059	383146	keystroke_Key.backspace	Key.backspace	n/a
191.7675	0.06	383535	keystroke_Key.backspace	Key.backspace	n/a
191.9475	0.06	383895	keystroke_Key.backspace	Key.backspace	n/a
192.1275	0.045	384255	keystroke_Key.backspace	Key.backspace	n/a
192.3075	0.06	384615	keystroke_Key.backspace	Key.backspace	n/a
192.6525	0.06	385305	keystroke_Key.backspace	Key.backspace	n/a
192.9985	0.074	385997	keystroke_Key.backspace	Key.backspace	n/a
193.2825	0.09	386565	keystroke_e	e	n/a
193.4025	0.091	386805	keystroke_Key.space	Key.space	n/a
193.5085	0.06	387017	keystroke_i	i	n/a
193.7025	0.045	387405	keystroke_m	m	n/a
193.8375	0.075	387675	keystroke_m	m	n/a
193.9725	0.075	387945	keystroke_i	i	n/a
194.0175	0.06	388035	keystroke_g	g	n/a
194.1825	0.09	388365	keystroke_r	r	n/a
194.2275	0.105	388455	keystroke_a	a	n/a
194.3175	0.075	388635	keystroke_n	n	n/a
194.4075	0.0455	388815	keystroke_t	t	n/a
194.543	0.09	389086	keystroke_s	s	n/a
194.603	0.089	389206	keystroke_Key.enter	Key.enter	n/a
194.6975	4.857	389395	prompt	n/a	path israeli express elliott\n
195.368	0.06	390736	keystroke_p	p	n/a
195.428	0.105	390856	keystroke_a	a	n/a
195.443	0.15	390886	keystroke_t	t	n/a
195.608	0.09	391216	keystroke_h	h	n/a
195.668	0.105	391336	keystroke_Key.space	Key.space	n/a
195.863	0.06	391726	keystroke_i	i	n/a
195.953	0.075	391906	keystroke_s	s	n/a
196.178	0.075	392356	keystroke_r	r	n/a
196.238	0.09	392476	keystroke_a	a	n/a
196.403	0.075	392806	keystroke_e	e	n/a
196.537	0.061	393074	keystroke_l	l	n/a
196.733	0.105	393466	keystroke_i	i	n/a
196.822	0.09	393644	keystroke_Key.space	Key.space	n/a
196.898	0.044	393796	keystroke_e	e	n/a
197.108	0.105	394216	keystroke_x	x	n/a
197.243	0.09	394486	keystroke_p	p	n/a
197.363	0.105	394726	keystroke_r	r	n/a
197.407	0.091	394814	keystroke_e	e	n/a
197.633	0.06	395266	keystroke_s	s	n/a
197.783	0.045	395566	keystroke_s	s	n/a
197.858	0.075	395716	keystroke_Key.space	Key.space	n/a
197.963	0.06	395926	keystroke_e	e	n/a
198.053	0.09	396106	keystroke_l	l	n/a
198.188	0.075	396376	keystroke_l	l	n/a
198.383	0.18	396766	keystroke_i	i	n/a
198.518	0.12	397036	keystroke_o	o	n/a
199.223	0.045	398446	keystroke_t	t	n/a
199.3575	0.0905	398715	keystroke_t	t	n/a
199.463	0.09	398926	keystroke_Key.enter	Key.enter	n/a
199.5575	3.6865	399115	prompt	n/a	bingo tell america ship\n
200.168	0.075	400336	keystroke_b	b	n/a
200.453	0.045	400906	keystroke_n	n	n/a
200.768	0.06	401536	keystroke_Key.backspace	Key.backspace	n/a
200.993	0.045	401986	keystroke_i	i	n/a
201.098	0.06	402196	keystroke_n	n	n/a
201.1875	0.09	402375	keystroke_g	g	n/a
201.2625	0.075	402525	keystroke_o	o	n/a
201.3225	0.09	402645	keystroke_Key.space	Key.space	n/a
201.5625	0.075	403125	keystroke_t	t	n/a
201.7125	0.09	403425	keystroke_e	e	n/a
201.7875	0.045	403575	keystroke_l	l	n/a
201.8925	0.09	403785	keystroke_l	l	n/a
201.9675	0.075	403935	keystroke_Key.space	Key.space	n/a
202.0275	0.09	404055	keystroke_a	a	n/a
202.1025	0.06	404205	keystroke_m	m	n/a
202.1775	0.075	404355	keystroke_e	e	n/a
202.2375	0.06	404475	keystroke_r	r	n/a
202.3275	0.09	404655	keystroke_i	i	n/a
202.4325	0.105	404865	keystroke_c	c	n/a
202.4925	0.09	404985	keystroke_a	a	n/a
202.5525	0.075	405105	keystroke_Key.space	Key.space	n/a
202.6425	0.09	405285	keystroke_s	s	n/a
202.7025	0.06	405405	keystroke_h	h	n/a
202.8975	0.1355	405795	keystroke_i	i	n/a
202.972	0.1205	405944	keystroke_p	p	n/a
203.1375	0.105	406275	keystroke_Key.enter	Key.enter	n/a
203.247	5.3225	406494	prompt	n/a	griffin platform treasures chancellor\n
204.3525	0.06	408705	keystroke_g	g	n/a
204.503	0.06	409006	keystroke_r	r	n/a
204.578	0.1045	409156	keystroke_i	i	n/a
204.6975	0.03	409395	keystroke_f	f	n/a
204.7875	0.12	409575	keystroke_f	f	n/a
204.8775	0.06	409755	keystroke_i	i	n/a
204.9975	0.075	409995	keystroke_n	n	n/a
205.0425	0.135	410085	keystroke_Key.space	Key.space	n/a
205.1625	0.045	410325	keystroke_p	p	n/a
205.3125	0.075	410625	keystroke_l	l	n/a
205.4025	0.09	410805	keystroke_a	a	n/a
205.4475	0.105	410895	keystroke_t	t	n/a
205.6575	0.075	411315	keystroke_f	f	n/a
205.7625	0.06	411525	keystroke_o	o	n/a
205.8825	0.12	411765	keystroke_r	r	n/a
205.9585	0.074	411917	keystroke_m	m	n/a
206.0175	0.105	412035	keystroke_Key.space	Key.space	n/a
206.1075	0.06	412215	keystroke_t	t	n/a
206.2425	0.1355	412485	keystroke_r	r	n/a
206.348	0.045	412696	keystroke_e	e	n/a
206.378	0.09	412756	keystroke_a	a	n/a
206.558	0.0895	413116	keystroke_s	s	n/a
206.6325	0.075	413265	keystroke_u	u	n/a
206.7675	0.12	413535	keystroke_r	r	n/a
207.2325	0.06	414465	keystroke_e	e	n/a
207.3975	0.0905	414795	keystroke_s	s	n/a
207.488	0.075	414976	keystroke_Key.space	Key.space	n/a
207.608	0.075	415216	keystroke_c	c	n/a
207.668	0.06	415336	keystroke_h	h	n/a
207.743	0.1195	415486	keystroke_a	a	n/a
207.848	0.0595	415696	keystroke_n	n	n/a
207.9225	0.0905	415845	keystroke_c	c	n/a
207.998	0.06	415996	keystroke_e	e	n/a
208.073	0.045	416146	keystroke_l	l	n/a
208.193	0.06	416386	keystroke_l	l	n/a
208.313	0.09	416626	keystroke_o	o	n/a
208.373	0.09	416746	keystroke_r	r	n/a
208.508	0.0595	417016	keystroke_Key.enter	Key.enter	n/a
208.5745	5.6645	417149	prompt	n/a	sophisticated aggressive tops boots\n
209.228	0.075	418456	keystroke_s	s	n/a
209.318	0.045	418636	keystroke_o	o	n/a
209.4675	0.075	418935	keystroke_p	p	n/a
209.6475	0.06	419295	keystroke_h	h	n/a
210.0225	0.075	420045	keystroke_i	i	n/a
210.1425	0.06	420285	keystroke_s	s	n/a
210.3225	0.06	420645	keystroke_t	t	n/a
210.3835	0.074	420767	keystroke_i	i	n/a
210.5625	0.075	421125	keystroke_c	c	n/a
210.6385	0.0895	421277	keystroke_a	a	n/a
210.743	0.12	421486	keystroke_t	t	n/a
210.878	0.06	421756	keystroke_e	e	n/a
211.163	0.09	422326	keystroke_d	d	n/a
211.268	0.075	422536	keystroke_Key.space	Key.space	n/a
211.418	0.075	422836	keystroke_a	a	n/a
211.538	0.06	423076	keystroke_g	g	n/a
211.658	0.075	423316	keystroke_g	g	n/a
211.823	0.09	423646	keystroke_r	r	n/a
211.898	0.045	423796	keystroke_e	e	n/a
212.033	0.0595	424066	keystroke_s	s	n/a
212.1975	0.03	424395	keystroke_s	s	n/a
212.2875	0.06	424575	keystroke_i	i	n/a
212.3775	0.105	424755	keystroke_v	v	n/a
212.4525	0.105	424905	keystroke_e	e	n/a
212.573	0.075	425146	keystroke_Key.space	Key.space	n/a
212.768	0.06	425536	keystroke_t	t	n/a
212.8875	0.12	425775	keystroke_o	o	n/a
212.9625	0.105	425925	keystroke_p	p	n/a
213.3825	0.06	426765	keystroke_s	s	n/a
213.4725	0.045	426945	keystroke_Key.space	Key.space	n/a
213.5775	0.06	427155	keystroke_b	b	n/a
213.7425	0.045	427485	keystroke_o	o	n/a
213.8475	0.075	427695	keystroke_o	o	n/a
213.8925	0.09	427785	keystroke_t	t	n/a
214.0875	0.105	428175	keystroke_s	s	n/a
214.1475	0.09	428295	keystroke_Key.enter	Key.enter	n/a
214.2425	5.202	428485	prompt	n/a	area sauce maybe zero\n
214.9435	0.119	429887	keystroke_r	r	n/a
215.0635	0.044	430127	keystroke_e	e	n/a
215.513	0.06	431026	keystroke_Key.backspace	Key.backspace	n/a
215.633	0.09	431266	keystroke_Key.backspace	Key.backspace	n/a
215.753	0.09	431506	keystroke_a	a	n/a
215.813	0.105	431626	keystroke_r	r	n/a
215.888	0.09	431776	keystroke_e	e	n/a
216.068	0.09	432136	keystroke_Key.space	Key.space	n/a
216.533	0.0595	433066	keystroke_Key.backspace	Key.backspace	n/a
216.7125	0.09	433425	keystroke_a	a	n/a
216.8035	0.089	433607	keystroke_Key.space	Key.space	n/a
216.9075	0.06	433815	keystroke_s	s	n/a
217.0725	0.075	434145	keystroke_a	a	n/a
217.1625	0.075	434325	keystroke_u	u	n/a
217.2675	0.105	434535	keystroke_c	c	n/a
217.3425	0.09	434685	keystroke_e	e	n/a
217.4175	0.12	434835	keystroke_Key.space	Key.space	n/a
217.5075	0.075	435015	keystroke_m	m	n/a
217.5975	0.105	435195	keystroke_a	a	n/a
217.8825	0.03	435765	keystroke_b	b	n/a
218.2875	0.09	436575	keystroke_Key.backspace	Key.backspace	n/a
218.5425	0.0305	437085	keystroke_y	y	n/a
218.693	0.045	437386	keystroke_b	b	n/a
218.723	0.06	437446	keystroke_e	e	n/a
218.828	0.09	437656	keystroke_Key.space	Key.space	n/a
218.933	0.06	437866	keystroke_z	z	n/a
219.083	0.09	438166	keystroke_e	e	n/a
219.158	0.06	438316	keystroke_r	r	n/a
219.203	0.075	438406	keystroke_o	o	n/a
219.353	0.09	438706	keystroke_Key.enter	Key.enter	n/a
219.4475	3.567	438895	prompt	n/a	door resolution derby atlanta\n
220.0575	0.06	440115	keystroke_d	d	n/a
220.1475	0.045	440295	keystroke_o	o	n/a
220.2525	0.09	440505	keystroke_o	o	n/a
220.3275	0.06	440655	keystroke_r	r	n/a
220.4025	0.12	440805	keystroke_Key.space	Key.space	n/a
220.5075	0.0905	441015	keystroke_r	r	n/a
220.5375	0.0745	441075	keystroke_e	e	n/a
220.733	0.06	441466	keystroke_s	s	n/a
220.778	0.045	441556	keystroke_o	o	n/a
220.943	0.06	441886	keystroke_l	l	n/a
221.108	0.06	442216	keystroke_u	u	n/a
221.198	0.06	442396	keystroke_t	t	n/a
221.303	0.105	442606	keystroke_i	i	n/a
221.363	0.075	442726	keystroke_o	o	n/a
221.528	0.09	443056	keystroke_n	n	n/a
221.588	0.0745	443176	keystroke_Key.space	Key.space	n/a
221.6475	0.045	443295	keystroke_d	d	n/a
221.8275	0.06	443655	keystroke_e	e	n/a
221.8725	0.09	443745	keystroke_r	r	n/a
221.9475	0.075	443895	keystroke_b	b	n/a
222.1875	0.09	444375	keystroke_y	y	n/a
222.2475	0.09	444495	keystroke_Key.space	Key.space	n/a
222.3975	0.06	444795	keystroke_a	a	n/a
222.4425	0.12	444885	keystroke_t	t	n/a
222.5775	0.075	445155	keystroke_l	l	n/a
222.6535	0.06	445307	keystroke_a	a	n/a
222.7435	0.06	445487	keystroke_n	n	n/a
222.8185	0.075	445637	keystroke_t	t	n/a
222.8485	0.12	445697	keystroke_a	a	n/a
222.9535	0.059	445907	keystroke_Key.enter	Key.enter	n/a
223.018	6.1015	446036	prompt	n/a	geological unsigned exposure wide\n
224.1375	0.105	448275	keystroke_g	g	n/a
224.1975	0.09	448395	keystroke_e	e	n/a
224.5575	0.0605	449115	keystroke_o	o	n/a
224.783	0.075	449566	keystroke_l	l	n/a
224.963	0.06	449926	keystroke_o	o	n/a
225.263	0.09	450526	keystroke_g	g	n/a
225.443	0.075	450886	keystroke_i	i	n/a
225.7575	0.105	451515	keystroke_c	c	n/a
225.8175	0.09	451635	keystroke_a	a	n/a
225.8775	0.09	451755	keystroke_l	l	n/a
225.9225	0.105	451845	keystroke_Key.space	Key.space	n/a
226.1625	0.06	452325	keystroke_u	u	n/a
226.3275	0.06	452655	keystroke_n	n	n/a
226.4175	0.075	452835	keystroke_s	s	n/a
226.5225	0.075	453045	keystroke_i	i	n/a
226.6285	0.0745	453257	keystroke_g	g	n/a
226.718	0.045	453436	keystroke_n	n	n/a
226.793	0.06	453586	keystroke_e	e	n/a
226.973	0.09	453946	keystroke_d	d	n/a
227.048	0.105	454096	keystroke_Key.space	Key.space	n/a
227.168	0.06	454336	keystroke_e	e	n/a
227.393	0.075	454786	keystroke_x	x	n/a
227.498	0.075	454996	keystroke_p	p	n/a
227.6635	0.074	455327	keystroke_o	o	n/a
228.218	0.045	456436	keystroke_s	s	n/a
228.278	0.075	456556	keystroke_u	u	n/a
228.368	0.12	456736	keystroke_r	r	n/a
228.458	0.075	456916	keystroke_e	e	n/a
228.548	0.0745	457096	keystroke_Key.space	Key.space	n/a
228.6525	0.06	457305	keystroke_w	w	n/a
228.6975	0.075	457395	keystroke_i	i	n/a
228.8175	0.06	457635	keystroke_d	d	n/a
228.9675	0.076	457935	keystroke_e	e	n/a
229.0275	0.09	458055	keystroke_Key.enter	Key.enter	n/a
229.1225	5.052	458245	prompt	n/a	kruger neighbors warnings kelkoo\n
229.763	0.09	459526	keystroke_k	k	n/a
229.868	0.0895	459736	keystroke_r	r	n/a
230.0025	0.0905	460005	keystroke_u	u	n/a
230.2875	0.0755	460575	keystroke_g	g	n/a
230.438	0.105	460876	keystroke_e	e	n/a
230.498	0.105	460996	keystroke_r	r	n/a
230.633	0.03	461266	keystroke_Key.space	Key.space	n/a
230.753	0.075	461506	keystroke_n	n	n/a
230.813	0.12	461626	keystroke_e	e	n/a
230.948	0.09	461896	keystroke_i	i	n/a
231.128	0.09	462256	keystroke_g	g	n/a
231.233	0.06	462466	keystroke_h	h	n/a
231.4125	0.045	462825	keystroke_b	b	n/a
231.5625	0.09	463125	keystroke_o	o	n/a
231.6375	0.045	463275	keystroke_r	r	n/a
231.8025	0.12	463605	keystroke_s	s	n/a
231.8775	0.09	463755	keystroke_Key.space	Key.space	n/a
232.0125	0.135	464025	keystroke_w	w	n/a
232.1025	0.105	464205	keystroke_a	a	n/a
232.1925	0.075	464385	keystroke_r	r	n/a
232.2825	0.06	464565	keystroke_n	n	n/a
232.4475	0.06	464895	keystroke_i	i	n/a
232.5825	0.075	465165	keystroke_n	n	n/a
232.6275	0.09	465255	keystroke_g	g	n/a
232.8075	0.09	465615	keystroke_s	s	n/a
232.8675	0.09	465735	keystroke_Key.space	Key.space	n/a
232.9425	0.075	465885	keystroke_k	k	n/a
233.0475	0.075	466095	keystroke_e	e	n/a
233.498	0.06	466996	keystroke_l	l	n/a
233.693	0.045	467386	keystroke_k	k	n/a
233.843	0.03	467686	keystroke_o	o	n/a
233.9625	0.06	467925	keystroke_o	o	n/a
234.1125	0.06	468225	keystroke_Key.enter	Key.enter	n/a
234.1775	5.0525	468355	prompt	n/a	hadn't possess theatre votes\n
234.7425	0.075	469485	keystroke_h	h	n/a
234.8325	0.09	469665	keystroke_a	a	n/a
235.298	0.075	470596	keystroke_d	d	n/a
235.403	0.0445	470806	keystroke_n	n	n/a
235.628	0.06	471256	keystroke_'	'	n/a
235.7485	0.0885	471497	keystroke_t	t	n/a
235.868	0.09	471736	keystroke_Key.space	Key.space	n/a
236.063	0.09	472126	keystroke_p	p	n/a
236.528	0.09	473056	keystroke_o	o	n/a
236.708	0.06	473416	keystroke_s	s	n/a
236.858	0.03	473716	keystroke_s	s	n/a
236.993	0.045	473986	keystroke_e	e	n/a
237.143	0.09	474286	keystroke_s	s	n/a
237.308	0.06	474616	keystroke_s	s	n/a
237.383	0.105	474766	keystroke_Key.space	Key.space	n/a
237.503	0.075	475006	keystroke_t	t	n/a
237.593	0.09	475186	keystroke_h	h	n/a
237.668	0.09	475336	keystroke_e	e	n/a
237.743	0.09	475486	keystroke_a	a	n/a
237.848	0.075	475696	keystroke_t	t	n/a
238.073	0.105	476146	keystroke_r	r	n/a
238.118	0.12	476236	keystroke_e	e	n/a
238.328	0.105	476656	keystroke_Key.space	Key.space	n/a
238.493	0.0905	476986	keystroke_v	v	n/a
238.5985	0.09	477197	keystroke_o	o	n/a
238.7175	0.12	477435	keystroke_t	t	n/a
238.8685	0.074	477737	keystroke_e	e	n/a
239.0485	0.09	478097	keystroke_s	s	n/a
239.1075	0.12	478215	keystroke_Key.enter	Key.enter	n/a
239.233	6.011	478466	prompt	n/a	mightn't wolf writer landscape\n
239.963	0.06	479926	keystroke_m	m	n/a
240.2025	0.09	480405	keystroke_i	i	n/a
240.4275	0.105	480855	keystroke_g	g	n/a
240.6375	0.075	481275	keystroke_h	h	n/a
241.3575	0.075	482715	keystroke_t	t	n/a
241.5075	0.045	483015	keystroke_n	n	n/a
242.4975	0.06	484995	keystroke_'	'	n/a
242.618	0.075	485236	keystroke_t	t	n/a
242.738	0.075	485476	keystroke_Key.space	Key.space	n/a
242.858	0.09	485716	keystroke_w	w	n/a
242.948	0.06	485896	keystroke_o	o	n/a
243.1425	0.03	486285	keystroke_l	l	n/a
243.2175	0.075	486435	keystroke_f	f	n/a
243.3075	0.075	486615	keystroke_Key.space	Key.space	n/a
243.4275	0.1205	486855	keystroke_w	w	n/a
243.503	0.1045	487006	keystroke_r	r	n/a
243.6375	0.0755	487275	keystroke_i	i	n/a
243.7275	0.0755	487455	keystroke_t	t	n/a
243.878	0.09	487756	keystroke_e	e	n/a
243.908	0.09	487816	keystroke_r	r	n/a
243.983	0.12	487966	keystroke_Key.space	Key.space	n/a
244.058	0.075	488116	keystroke_l	l	n/a
244.118	0.075	488236	keystroke_a	a	n/a
244.238	0.06	488476	keystroke_n	n	n/a
244.313	0.0295	488626	keystroke_d	d	n/a
244.463	0.075	488926	keystroke_s	s	n/a
244.5825	0.1205	489165	keystroke_c	c	n/a
244.6725	0.09	489345	keystroke_a	a	n/a
244.778	0.075	489556	keystroke_p	p	n/a
244.8835	0.075	489767	keystroke_e	e	n/a
245.168	0.0745	490336	keystroke_Key.enter	Key.enter	n/a
245.247	3.9725	490494	prompt	n/a	donald chances performer anti\n
245.9935	0.075	491987	keystroke_d	d	n/a
246.0535	0.045	492107	keystroke_o	o	n/a
246.1875	0.061	492375	keystroke_n	n	n/a
246.2325	0.09	492465	keystroke_a	a	n/a
246.3675	0.075	492735	keystroke_l	l	n/a
246.4125	0.075	492825	keystroke_d	d	n/a
246.5325	0.0605	493065	keystroke_Key.space	Key.space	n/a
246.623	0.09	493246	keystroke_c	c	n/a
246.758	0.03	493516	keystroke_h	h	n/a
246.878	0.06	493756	keystroke_a	a	n/a
246.923	0.045	493846	keystroke_n	n	n/a
247.208	0.06	494416	keystroke_c	c	n/a
247.388	0.045	494776	keystroke_e	e	n/a
247.553	0.075	495106	keystroke_s	s	n/a
247.613	0.105	495226	keystroke_Key.space	Key.space	n/a
247.703	0.105	495406	keystroke_p	p	n/a
247.793	0.06	495586	keystroke_e	e	n/a
247.823	0.075	495646	keystroke_r	r	n/a
248.003	0.06	496006	keystroke_f	f	n/a
248.033	0.06	496066	keystroke_o	o	n/a
248.153	0.06	496306	keystroke_r	r	n/a
248.243	0.06	496486	keystroke_m	m	n/a
248.288	0.09	496576	keystroke_e	e	n/a
248.348	0.06	496696	keystroke_r	r	n/a
248.438	0.045	496876	keystroke_Key.space	Key.space	n/a
248.468	0.105	496936	keystroke_a	a	n/a
248.588	0.045	497176	keystroke_n	n	n/a
248.783	0.06	497566	keystroke_t	t	n/a
248.9785	0.044	497957	keystroke_i	i	n/a
249.1275	0.09	498255	keystroke_Key.enter	Key.enter	n/a
249.2225	4.767	498445	prompt	n/a	potato readers accessible comedy\n
249.878	0.06	499756	keystroke_p	p	n/a
250.058	0.045	500116	keystroke_o	o	n/a
250.148	0.09	500296	keystroke_t	t	n/a
250.223	0.0895	500446	keystroke_a	a	n/a
250.2975	0.09	500595	keystroke_t	t	n/a
250.4025	0.075	500805	keystroke_o	o	n/a
250.4625	0.106	500925	keystroke_Key.space	Key.space	n/a
250.5985	0.135	501197	keystroke_r	r	n/a
250.6885	0.075	501377	keystroke_e	e	n/a
250.7785	0.12	501557	keystroke_a	a	n/a
250.9885	0.075	501977	keystroke_d	d	n/a
251.1685	0.12	502337	keystroke_e	e	n/a
251.2435	0.09	502487	keystroke_r	r	n/a
251.4535	0.06	502907	keystroke_s	s	n/a
251.5435	0.09	503087	keystroke_Key.space	Key.space	n/a
251.6635	0.075	503327	keystroke_a	a	n/a
251.8735	0.075	503747	keystroke_c	c	n/a
252.0235	0.09	504047	keystroke_c	c	n/a
252.2335	0.0595	504467	keystroke_e	e	n/a
252.413	0.0605	504826	keystroke_s	s	n/a
252.533	0.0755	505066	keystroke_s	s	n/a
252.6235	0.06	505247	keystroke_i	i	n/a
252.7585	0.09	505517	keystroke_b	b	n/a
252.9685	0.075	505937	keystroke_l	l	n/a
253.0285	0.059	506057	keystroke_e	e	n/a
253.1325	0.09	506265	keystroke_Key.space	Key.space	n/a
253.2525	0.091	506505	keystroke_c	c	n/a
253.3135	0.06	506627	keystroke_o	o	n/a
253.4485	0.0895	506897	keystroke_m	m	n/a
253.523	0.06	507046	keystroke_e	e	n/a
253.688	0.09	507376	keystroke_d	d	n/a
253.748	0.075	507496	keystroke_y	y	n/a
253.898	0.09	507796	keystroke_Key.enter	Key.enter	n/a
253.9925	4.917	507985	prompt	n/a	towns salem tale consultancy\n
254.7525	0.06	509505	keystroke_t	t	n/a
254.8425	0.06	509685	keystroke_o	o	n/a
254.9325	0.06	509865	keystroke_w	w	n/a
255.0225	0.06	510045	keystroke_n	n	n/a
255.1275	0.045	510255	keystroke_s	s	n/a
255.2025	0.075	510405	keystroke_Key.space	Key.space	n/a
255.4275	0.015	510855	keystroke_s	s	n/a
255.7425	0.09	511485	keystroke_a	a	n/a
255.8775	0.075	511755	keystroke_l	l	n/a
256.0125	0.045	512025	keystroke_e	e	n/a
256.1025	0.045	512205	keystroke_m	m	n/a
256.2225	0.105	512445	keystroke_Key.space	Key.space	n/a
256.3425	0.105	512685	keystroke_t	t	n/a
256.4025	0.105	512805	keystroke_a	a	n/a
256.4925	0.06	512985	keystroke_l	l	n/a
256.5825	0.06	513165	keystroke_e	e	n/a
256.673	0.09	513346	keystroke_Key.space	Key.space	n/a
256.868	0.075	513736	keystroke_c	c	n/a
256.988	0.03	513976	keystroke_o	o	n/a
257.153	0.06	514306	keystroke_n	n	n/a
257.333	0.06	514666	keystroke_s	s	n/a
257.438	0.03	514876	keystroke_u	u	n/a
258.113	0.075	516226	keystroke_l	l	n/a
258.218	0.09	516436	keystroke_t	t	n/a
258.293	0.075	516586	keystroke_a	a	n/a
258.383	0.075	516766	keystroke_n	n	n/a
258.548	0.075	517096	keystroke_c	c	n/a
258.638	0.06	517276	keystroke_y	y	n/a
258.833	0.075	517666	keystroke_Key.enter	Key.enter	n/a
258.9125	5.322	517825	prompt	n/a	continued valued wires recorders\n
259.6275	0.075	519255	keystroke_c	c	n/a
259.6875	0.045	519375	keystroke_o	o	n/a
259.8375	0.06	519675	keystroke_n	n	n/a
259.9275	0.075	519855	keystroke_t	t	n/a
260.0175	0.06	520035	keystroke_i	i	n/a
260.1825	0.06	520365	keystroke_n	n	n/a
260.3625	0.06	520725	keystroke_u	u	n/a
260.4375	0.045	520875	keystroke_e	e	n/a
260.573	0.0895	521146	keystroke_d	d	n/a
260.6475	0.12	521295	keystroke_Key.space	Key.space	n/a
260.7525	0.09	521505	keystroke_v	v	n/a
260.8435	0.119	521687	keystroke_a	a	n/a
260.9325	0.075	521865	keystroke_l	l	n/a
261.0975	0.075	522195	keystroke_u	u	n/a
261.1735	0.044	522347	keystroke_e	e	n/a
261.3375	0.06	522675	keystroke_d	d	n/a
261.4575	0.06	522915	keystroke_Key.space	Key.space	n/a
261.7125	0.075	523425	keystroke_w	w	n/a
261.8175	0.075	523635	keystroke_i	i	n/a
261.8775	0.12	523755	keystroke_r	r	n/a
261.9675	0.06	523935	keystroke_e	e	n/a
262.1475	0.075	524295	keystroke_s	s	n/a
262.2375	0.09	524475	keystroke_Key.space	Key.space	n/a
262.3575	0.105	524715	keystroke_r	r	n/a
262.883	0.0595	525766	keystroke_e	e	n/a
263.1075	0.075	526215	keystroke_c	c	n/a
263.1975	0.0905	526395	keystroke_o	o	n/a
263.333	0.045	526666	keystroke_r	r	n/a
263.528	0.03	527056	keystroke_d	d	n/a
263.663	0.06	527326	keystroke_e	e	n/a
263.813	0.06	527626	keystroke_r	r	n/a
263.993	0.09	527986	keystroke_s	s	n/a
264.188	0.045	528376	keystroke_Key.enter	Key.enter	n/a
264.2395	6.085	528479	prompt	n/a	functioning choir fuji certification\n
265.1175	0.06	530235	keystroke_f	f	n/a
265.208	0.0445	530416	keystroke_u	u	n/a
265.388	0.06	530776	keystroke_n	n	n/a
265.493	0.06	530986	keystroke_c	c	n/a
265.748	0.045	531496	keystroke_t	t	n/a
265.823	0.12	531646	keystroke_i	i	n/a
265.913	0.09	531826	keystroke_o	o	n/a
266.108	0.06	532216	keystroke_n	n	n/a
266.258	0.045	532516	keystroke_i	i	n/a
266.393	0.075	532786	keystroke_n	n	n/a
266.483	0.03	532966	keystroke_g	g	n/a
266.588	0.075	533176	keystroke_Key.space	Key.space	n/a
266.693	0.075	533386	keystroke_c	c	n/a
266.783	0.06	533566	keystroke_h	h	n/a
267.008	0.105	534016	keystroke_o	o	n/a
267.053	0.105	534106	keystroke_i	i	n/a
267.203	0.06	534406	keystroke_r	r	n/a
267.368	0.09	534736	keystroke_Key.space	Key.space	n/a
267.473	0.045	534946	keystroke_f	f	n/a
267.578	0.045	535156	keystroke_u	u	n/a
268.0425	0.06	536085	keystroke_j	j	n/a
268.5375	0.045	537075	keystroke_i	i	n/a
268.7025	0.06	537405	keystroke_Key.space	Key.space	n/a
268.8075	0.061	537615	keystroke_c	c	n/a
268.9875	0.105	537975	keystroke_e	e	n/a
269.0775	0.06	538155	keystroke_r	r	n/a
269.2125	0.09	538425	keystroke_t	t	n/a
269.2725	0.075	538545	keystroke_i	i	n/a
269.3925	0.0605	538785	keystroke_f	f	n/a
269.438	0.075	538876	keystroke_i	i	n/a
269.6035	0.1195	539207	keystroke_c	c	n/a
269.708	0.105	539416	keystroke_a	a	n/a
269.873	0.075	539746	keystroke_t	t	n/a
269.888	0.12	539776	keystroke_i	i	n/a
269.978	0.075	539956	keystroke_o	o	n/a
270.113	0.09	540226	keystroke_n	n	n/a
270.233	0.0905	540466	keystroke_Key.enter	Key.enter	n/a
270.3275	4.857	540655	prompt	n/a	dreams recipes searched worse\n
271.238	0.075	542476	keystroke_d	d	n/a
271.448	0.12	542896	keystroke_r	r	n/a
271.523	0.06	543046	keystroke_e	e	n/a
271.553	0.105	543106	keystroke_a	a	n/a
271.643	0.06	543286	keystroke_m	m	n/a
271.763	0.06	543526	keystroke_s	s	n/a
271.853	0.075	543706	keystroke_Key.space	Key.space	n/a
271.943	0.105	543886	keystroke_r	r	n/a
272.018	0.09	544036	keystroke_e	e	n/a
272.273	0.075	544546	keystroke_c	c	n/a
272.363	0.045	544726	keystroke_i	i	n/a
272.483	0.1195	544966	keystroke_p	p	n/a
272.5725	0.045	545145	keystroke_e	e	n/a
272.7525	0.09	545505	keystroke_s	s	n/a
272.8275	0.075	545655	keystroke_Key.space	Key.space	n/a
273.2625	0.105	546525	keystroke_s	s	n/a
273.473	0.09	546946	keystroke_e	e	n/a
273.608	0.09	547216	keystroke_a	a	n/a
273.713	0.06	547426	keystroke_r	r	n/a
273.953	0.105	547906	keystroke_c	c	n/a
274.073	0.06	548146	keystroke_h	h	n/a
274.193	0.06	548386	keystroke_e	e	n/a
274.343	0.075	548686	keystroke_d	d	n/a
274.433	0.09	548866	keystroke_Key.space	Key.space	n/a
274.5675	0.06	549135	keystroke_w	w	n/a
274.6425	0.06	549285	keystroke_o	o	n/a
274.6725	0.075	549345	keystroke_r	r	n/a
274.8675	0.06	549735	keystroke_s	s	n/a
274.9725	0.09	549945	keystroke_e	e	n/a
275.0925	0.0905	550185	keystroke_Key.enter	Key.enter	n/a
275.188	6.4015	550376	prompt	n/a	comply signing contributions represent\n
275.828	0.09	551656	keystroke_c	c	n/a
276.608	0.045	553216	keystroke_o	o	n/a
276.788	0.045	553576	keystroke_m	m	n/a
276.968	0.045	553936	keystroke_p	p	n/a
277.133	0.045	554266	keystroke_l	l	n/a
277.373	0.075	554746	keystroke_y	y	n/a
277.433	0.0895	554866	keystroke_Key.space	Key.space	n/a
277.6125	0.076	555225	keystroke_s	s	n/a
277.7185	0.074	555437	keystroke_i	i	n/a
277.8385	0.06	555677	keystroke_g	g	n/a
277.9735	0.075	555947	keystroke_n	n	n/a
278.1835	0.06	556367	keystroke_i	i	n/a
278.3335	0.06	556667	keystroke_n	n	n/a
278.4235	0.045	556847	keystroke_g	g	n/a
278.4975	0.091	556995	keystroke_Key.space	Key.space	n/a
278.6935	0.089	557387	keystroke_c	c	n/a
278.7535	0.06	557507	keystroke_o	o	n/a
278.8875	0.075	557775	keystroke_n	n	n/a
278.9785	0.059	557957	keystroke_t	t	n/a
279.1275	0.06	558255	keystroke_r	r	n/a
279.2025	0.061	558405	keystroke_i	i	n/a
279.3225	0.075	558645	keystroke_b	b	n/a
279.4125	0.06	558825	keystroke_u	u	n/a
279.5785	0.06	559157	keystroke_t	t	n/a
279.6835	0.15	559367	keystroke_i	i	n/a
279.8035	0.06	559607	keystroke_o	o	n/a
279.9825	0.061	559965	keystroke_n	n	n/a
280.0885	0.074	560177	keystroke_s	s	n/a
280.2075	0.0755	560415	keystroke_Key.space	Key.space	n/a
280.388	0.135	560776	keystroke_r	r	n/a
280.493	0.06	560986	keystroke_e	e	n/a
280.553	0.0745	561106	keystroke_p	p	n/a
280.7475	0.135	561495	keystroke_r	r	n/a
280.8525	0.06	561705	keystroke_e	e	n/a
281.0775	0.046	562155	keystroke_s	s	n/a
281.1985	0.089	562397	keystroke_e	e	n/a
281.2735	0.06	562547	keystroke_n	n	n/a
281.3935	0.074	562787	keystroke_t	t	n/a
281.4825	0.105	562965	keystroke_Key.enter	Key.enter	n/a
281.5925	6.762	563185	prompt	n/a	match investor fill opinion\n
282.263	0.045	564526	keystroke_m	m	n/a
282.323	0.075	564646	keystroke_a	a	n/a
282.368	0.06	564736	keystroke_t	t	n/a
282.623	0.1045	565246	keystroke_c	c	n/a
282.653	0.0895	565306	keystroke_h	h	n/a
282.7125	0.09	565425	keystroke_Key.space	Key.space	n/a
282.8175	0.075	565635	keystroke_i	i	n/a
282.968	0.075	565936	keystroke_n	n	n/a
283.028	0.12	566056	keystroke_v	v	n/a
283.088	0.09	566176	keystroke_e	e	n/a
283.283	0.06	566566	keystroke_s	s	n/a
283.433	0.06	566866	keystroke_t	t	n/a
283.478	0.06	566956	keystroke_o	o	n/a
283.613	0.075	567226	keystroke_r	r	n/a
283.703	0.09	567406	keystroke_Key.space	Key.space	n/a
283.808	0.06	567616	keystroke_f	f	n/a
283.883	0.06	567766	keystroke_i	i	n/a
284.078	0.045	568156	keystroke_l	l	n/a
284.213	0.06	568426	keystroke_l	l	n/a
284.4385	0.1495	568877	keystroke_o	o	n/a
284.513	0.12	569026	keystroke_p	p	n/a
284.708	0.06	569416	keystroke_i	i	n/a
285.068	0.06	570136	keystroke_Key.backspace	Key.backspace	n/a
285.233	0.045	570466	keystroke_Key.backspace	Key.backspace	n/a
285.623	0.06	571246	keystroke_Key.backspace	Key.backspace	n/a
286.4625	0.075	572925	keystroke_Key.space	Key.space	n/a
286.628	0.12	573256	keystroke_o	o	n/a
286.718	0.09	573436	keystroke_p	p	n/a
286.883	0.045	573766	keystroke_i	i	n/a
287.063	0.015	574126	keystroke_n	n	n/a
287.303	0.12	574606	keystroke_i	i	n/a
287.408	0.075	574816	keystroke_o	o	n/a
287.558	0.105	575116	keystroke_n	n	n/a
288.278	0.075	576556	keystroke_Key.enter	Key.enter	n/a
288.357	6.1775	576714	prompt	n/a	roland britain hometown recorded\n
288.983	0.06	577966	keystroke_r	r	n/a
289.073	0.075	578146	keystroke_o	o	n/a
289.238	0.0605	578476	keystroke_l	l	n/a
289.358	0.075	578716	keystroke_a	a	n/a
289.448	0.06	578896	keystroke_n	n	n/a
289.553	0.075	579106	keystroke_d	d	n/a
289.613	0.075	579226	keystroke_Key.space	Key.space	n/a
289.733	0.06	579466	keystroke_b	b	n/a
289.808	0.075	579616	keystroke_r	r	n/a
289.943	0.075	579886	keystroke_i	i	n/a
290.033	0.09	580066	keystroke_t	t	n/a
290.078	0.075	580156	keystroke_a	a	n/a
290.3785	0.03	580757	keystroke_i	i	n/a
290.5435	0.089	581087	keystroke_n	n	n/a
290.6025	0.12	581205	keystroke_Key.space	Key.space	n/a
290.7825	0.076	581565	keystroke_h	h	n/a
290.9625	0.061	581925	keystroke_o	o	n/a
291.1125	0.0755	582225	keystroke_m	m	n/a
291.158	0.09	582316	keystroke_e	e	n/a
291.308	0.09	582616	keystroke_t	t	n/a
291.399	0.059	582798	keystroke_o	o	n/a
291.563	0.09	583126	keystroke_n	n	n/a
292.088	0.045	584176	keystroke_Key.backspace	Key.backspace	n/a
292.538	0.075	585076	keystroke_w	w	n/a
292.6435	0.075	585287	keystroke_n	n	n/a
292.7035	0.09	585407	keystroke_Key.space	Key.space	n/a
292.7485	0.105	585497	keystroke_r	r	n/a
293.2575	0.06	586515	keystroke_e	e	n/a
293.4525	0.09	586905	keystroke_c	c	n/a
293.5125	0.09	587025	keystroke_o	o	n/a
293.6925	0.015	587385	keystroke_r	r	n/a
293.8425	0.046	587685	keystroke_d	d	n/a
293.9785	0.06	587957	keystroke_e	e	n/a
294.1285	0.105	588257	keystroke_d	d	n/a
294.473	0.0605	588946	keystroke_Key.enter	Key.enter	n/a
294.5375	5.052	589075	prompt	n/a	fruit beneficial testament hartford\n
295.193	0.0605	590386	keystroke_f	f	n/a
295.3585	0.0895	590717	keystroke_r	r	n/a
295.403	0.1345	590806	keystroke_u	u	n/a
295.4775	0.105	590955	keystroke_i	i	n/a
295.5675	0.09	591135	keystroke_t	t	n/a
295.6875	0.075	591375	keystroke_Key.space	Key.space	n/a
295.8825	0.09	591765	keystroke_b	b	n/a
295.9275	0.06	591855	keystroke_e	e	n/a
296.063	0.0595	592126	keystroke_n	n	n/a
296.0925	0.06	592185	keystroke_e	e	n/a
296.273	0.075	592546	keystroke_f	f	n/a
296.363	0.09	592726	keystroke_i	i	n/a
296.513	0.1055	593026	keystroke_c	c	n/a
296.558	0.0755	593116	keystroke_i	i	n/a
296.7235	0.12	593447	keystroke_a	a	n/a
296.8285	0.045	593657	keystroke_l	l	n/a
296.9335	0.105	593867	keystroke_Key.space	Key.space	n/a
297.0535	0.06	594107	keystroke_t	t	n/a
297.2185	0.045	594437	keystroke_e	e	n/a
297.3835	0.075	594767	keystroke_s	s	n/a
297.5785	0.075	595157	keystroke_t	t	n/a
297.7885	0.075	595577	keystroke_a	a	n/a
297.9085	0.075	595817	keystroke_m	m	n/a
297.9985	0.089	595997	keystroke_e	e	n/a
298.1035	0.075	596207	keystroke_n	n	n/a
298.2085	0.06	596417	keystroke_t	t	n/a
298.3275	0.09	596655	keystroke_Key.space	Key.space	n/a
298.5535	0.0745	597107	keystroke_h	h	n/a
298.613	0.105	597226	keystroke_e	e	n/a
298.688	0.12	597376	keystroke_a	a	n/a
298.823	0.075	597646	keystroke_r	r	n/a
299.003	0.045	598006	keystroke_t	t	n/a
299.153	0.075	598306	keystroke_f	f	n/a
299.243	0.075	598486	keystroke_o	o	n/a
299.3335	0.045	598667	keystroke_r	r	n/a
299.453	0.12	598906	keystroke_d	d	n/a
299.498	0.09	598996	keystroke_Key.enter	Key.enter	n/a
299.593	5.6215	599186	prompt	n/a	perspective starting unit prior\n
300.4875	0.1205	600975	keystroke_p	p	n/a
300.593	0.105	601186	keystroke_r	r	n/a
300.668	0.09	601336	keystroke_e	e	n/a
301.178	0.045	602356	keystroke_Key.backspace	Key.backspace	n/a
301.298	0.075	602596	keystroke_Key.backspace	Key.backspace	n/a
301.448	0.105	602896	keystroke_e	e	n/a
301.523	0.06	603046	keystroke_r	r	n/a
301.703	0.075	603406	keystroke_s	s	n/a
301.748	0.09	603496	keystroke_p	p	n/a
301.853	0.06	603706	keystroke_e	e	n/a
302.033	0.0895	604066	keystroke_c	c	n/a
302.2425	0.06	604485	keystroke_t	t	n/a
302.3335	0.074	604667	keystroke_i	i	n/a
302.4525	0.09	604905	keystroke_v	v	n/a
302.5285	0.074	605057	keystroke_e	e	n/a
302.6175	0.105	605235	keystroke_Key.space	Key.space	n/a
302.7385	0.074	605477	keystroke_s	s	n/a
302.9025	0.06	605805	keystroke_t	t	n/a
302.9775	0.12	605955	keystroke_a	a	n/a
303.0835	0.044	606167	keystroke_r	r	n/a
303.2175	0.105	606435	keystroke_t	t	n/a
303.2775	0.06	606555	keystroke_i	i	n/a
303.428	0.06	606856	keystroke_n	n	n/a
303.503	0.045	607006	keystroke_g	g	n/a
303.563	0.105	607126	keystroke_Key.space	Key.space	n/a
303.683	0.06	607366	keystroke_u	u	n/a
303.848	0.075	607696	keystroke_n	n	n/a
304.433	0.075	608866	keystroke_i	i	n/a
304.523	0.0755	609046	keystroke_t	t	n/a
304.6135	0.09	609227	keystroke_Key.space	Key.space	n/a
304.6885	0.12	609377	keystroke_p	p	n/a
304.7935	0.075	609587	keystroke_r	r	n/a
304.8985	0.105	609797	keystroke_i	i	n/a
304.9585	0.105	609917	keystroke_o	o	n/a
305.0335	0.09	610067	keystroke_r	r	n/a
305.1235	0.09	610247	keystroke_Key.enter	Key.enter	n/a
305.2175	4.032	610435	prompt	n/a	henderson right cycles exposed\n
305.9185	0.09	611837	keystroke_h	h	n/a
305.9785	0.075	611957	keystroke_e	e	n/a
306.1135	0.06	612227	keystroke_n	n	n/a
306.1875	0.03	612375	keystroke_d	d	n/a
306.3075	0.09	612615	keystroke_e	e	n/a
306.3825	0.06	612765	keystroke_r	r	n/a
306.5325	0.12	613065	keystroke_s	s	n/a
306.6075	0.061	613215	keystroke_o	o	n/a
306.7425	0.106	613485	keystroke_n	n	n/a
306.8175	0.12	613635	keystroke_Key.space	Key.space	n/a
306.9225	0.045	613845	keystroke_r	r	n/a
307.0135	0.059	614027	keystroke_i	i	n/a
307.1035	0.06	614207	keystroke_g	g	n/a
307.1925	0.09	614385	keystroke_h	h	n/a
307.2675	0.075	614535	keystroke_t	t	n/a
307.3875	0.075	614775	keystroke_Key.space	Key.space	n/a
307.5075	0.0605	615015	keystroke_c	c	n/a
307.598	0.06	615196	keystroke_y	y	n/a
307.673	0.075	615346	keystroke_c	c	n/a
307.793	0.105	615586	keystroke_l	l	n/a
307.883	0.06	615766	keystroke_e	e	n/a
308.048	0.075	616096	keystroke_s	s	n/a
308.138	0.075	616276	keystroke_Key.space	Key.space	n/a
308.198	0.0455	616396	keystroke_e	e	n/a
308.438	0.06	616876	keystroke_x	x	n/a
308.528	0.075	617056	keystroke_p	p	n/a
308.693	0.06	617386	keystroke_o	o	n/a
308.768	0.075	617536	keystroke_s	s	n/a
308.903	0.075	617806	keystroke_e	e	n/a
309.083	0.06	618166	keystroke_d	d	n/a
309.143	0.105	618286	keystroke_Key.enter	Key.enter	n/a
309.2535	6.131	618507	prompt	n/a	lightning publishers nightlife resort\n
309.938	0.075	619876	keystroke_l	l	n/a
310.133	0.1045	620266	keystroke_i	i	n/a
310.223	0.0745	620446	keystroke_g	g	n/a
310.3125	0.075	620625	keystroke_h	h	n/a
310.4175	0.075	620835	keystroke_t	t	n/a
310.5825	0.06	621165	keystroke_n	n	n/a
310.7625	0.061	621525	keystroke_i	i	n/a
310.9125	0.061	621825	keystroke_n	n	n/a
310.9875	0.075	621975	keystroke_g	g	n/a
311.0775	0.12	622155	keystroke_Key.space	Key.space	n/a
311.1685	0.119	622337	keystroke_p	p	n/a
311.3025	0.06	622605	keystroke_u	u	n/a
311.4975	0.06	622995	keystroke_b	b	n/a
311.7075	0.06	623415	keystroke_l	l	n/a
311.8875	0.12	623775	keystroke_i	i	n/a
312.2325	0.09	624465	keystroke_s	s	n/a
312.3385	0.06	624677	keystroke_h	h	n/a
312.4135	0.089	624827	keystroke_e	e	n/a
312.4735	0.075	624947	keystroke_r	r	n/a
312.653	0.09	625306	keystroke_s	s	n/a
312.728	0.105	625456	keystroke_Key.space	Key.space	n/a
312.8485	0.0595	625697	keystroke_n	n	n/a
312.983	0.105	625966	keystroke_i	i	n/a
313.073	0.075	626146	keystroke_g	g	n/a
313.163	0.06	626326	keystroke_h	h	n/a
313.253	0.075	626506	keystroke_t	t	n/a
313.448	0.105	626896	keystroke_l	l	n/a
314.048	0.12	628096	keystroke_i	i	n/a
314.318	0.12	628636	keystroke_f	f	n/a
314.393	0.105	628786	keystroke_e	e	n/a
314.573	0.12	629146	keystroke_Key.space	Key.space	n/a
314.738	0.045	629476	keystroke_r	r	n/a
314.753	0.06	629506	keystroke_e	e	n/a
314.933	0.075	629866	keystroke_s	s	n/a
315.023	0.09	630046	keystroke_o	o	n/a
315.098	0.06	630196	keystroke_r	r	n/a
315.248	0.09	630496	keystroke_t	t	n/a
315.293	0.09	630586	keystroke_Key.enter	Key.enter	n/a
315.3875	3.432	630775	prompt	n/a	mass lines speakers toyota\n
315.983	0.06	631966	keystroke_m	m	n/a
316.058	0.06	632116	keystroke_a	a	n/a
316.193	0.075	632386	keystroke_s	s	n/a
316.328	0.09	632656	keystroke_s	s	n/a
316.403	0.105	632806	keystroke_Key.space	Key.space	n/a
316.463	0.075	632926	keystroke_l	l	n/a
316.613	0.045	633226	keystroke_i	i	n/a
316.733	0.075	633466	keystroke_n	n	n/a
316.763	0.06	633526	keystroke_e	e	n/a
316.943	0.06	633886	keystroke_s	s	n/a
317.018	0.09	634036	keystroke_Key.space	Key.space	n/a
317.109	0.089	634218	keystroke_s	s	n/a
317.199	0.089	634398	keystroke_p	p	n/a
317.318	0.105	634636	keystroke_e	e	n/a
317.408	0.105	634816	keystroke_a	a	n/a
317.514	0.104	635028	keystroke_k	k	n/a
317.573	0.09	635146	keystroke_e	e	n/a
317.633	0.075	635266	keystroke_r	r	n/a
317.813	0.075	635626	keystroke_s	s	n/a
317.903	0.105	635806	keystroke_Key.space	Key.space	n/a
318.023	0.105	636046	keystroke_t	t	n/a
318.129	0.044	636258	keystroke_o	o	n/a
318.278	0.075	636556	keystroke_y	y	n/a
318.4585	0.1195	636917	keystroke_o	o	n/a
318.5635	0.1045	637127	keystroke_t	t	n/a
318.638	0.12	637276	keystroke_a	a	n/a
318.743	0.075	637486	keystroke_Key.enter	Key.enter	n/a
318.8225	6.3125	637645	prompt	n/a	corpus incident setup recipe\n
319.508	0.105	639016	keystroke_c	c	n/a
319.583	0.09	639166	keystroke_o	o	n/a
319.748	0.075	639496	keystroke_r	r	n/a
319.838	0.06	639676	keystroke_p	p	n/a
319.898	0.075	639796	keystroke_u	u	n/a
320.018	0.075	640036	keystroke_s	s	n/a
320.123	0.1045	640246	keystroke_Key.space	Key.space	n/a
320.2425	0.06	640485	keystroke_i	i	n/a
320.3925	0.045	640785	keystroke_n	n	n/a
320.4225	0.075	640845	keystroke_c	c	n/a
320.5275	0.09	641055	keystroke_i	i	n/a
320.798	0.09	641596	keystroke_e	e	n/a
320.903	0.045	641806	keystroke_n	n	n/a
321.008	0.09	642016	keystroke_t	t	n/a
321.113	0.0895	642226	keystroke_Key.space	Key.space	n/a
321.2325	0.06	642465	keystroke_s	s	n/a
321.4135	0.03	642827	keystroke_e	e	n/a
321.5485	0.06	643097	keystroke_t	t	n/a
322.013	0.075	644026	keystroke_Key.backspace	Key.backspace	n/a
322.193	0.045	644386	keystroke_Key.backspace	Key.backspace	n/a
322.343	0.06	644686	keystroke_Key.backspace	Key.backspace	n/a
322.478	0.045	644956	keystroke_Key.backspace	Key.backspace	n/a
322.6285	0.03	645257	keystroke_Key.backspace	Key.backspace	n/a
322.7785	0.06	645557	keystroke_Key.backspace	Key.backspace	n/a
323.0185	0.045	646037	keystroke_Key.backspace	Key.backspace	n/a
323.2435	0.06	646487	keystroke_d	d	n/a
323.408	0.06	646816	keystroke_e	e	n/a
323.453	0.06	646906	keystroke_n	n	n/a
323.573	0.06	647146	keystroke_t	t	n/a
323.648	0.09	647296	keystroke_Key.space	Key.space	n/a
323.768	0.06	647536	keystroke_s	s	n/a
323.9025	0.076	647805	keystroke_e	e	n/a
324.0525	0.075	648105	keystroke_t	t	n/a
324.1435	0.0745	648287	keystroke_u	u	n/a
324.278	0.105	648556	keystroke_p	p	n/a
324.413	0.09	648826	keystroke_Key.space	Key.space	n/a
324.548	0.0895	649096	keystroke_r	r	n/a
324.6225	0.06	649245	keystroke_e	e	n/a
324.7875	0.075	649575	keystroke_c	c	n/a
324.8325	0.09	649665	keystroke_i	i	n/a
324.8925	0.09	649785	keystroke_p	p	n/a
324.9985	0.044	649997	keystroke_e	e	n/a
325.0875	0.045	650175	keystroke_Key.enter	Key.enter	n/a
325.138	4.0615	650276	prompt	n/a	standards demand bingo chapter\n
325.763	0.045	651526	keystroke_s	s	n/a
325.928	0.09	651856	keystroke_t	t	n/a
325.988	0.09	651976	keystroke_a	a	n/a
326.123	0.045	652246	keystroke_n	n	n/a
326.213	0.06	652426	keystroke_d	d	n/a
326.348	0.105	652696	keystroke_a	a	n/a
326.423	0.06	652846	keystroke_r	r	n/a
326.648	0.135	653296	keystroke_d	d	n/a
326.723	0.105	653446	keystroke_s	s	n/a
326.918	0.09	653836	keystroke_Key.space	Key.space	n/a
327.068	0.06	654136	keystroke_d	d	n/a
327.218	0.09	654436	keystroke_e	e	n/a
327.338	0.075	654676	keystroke_m	m	n/a
327.398	0.09	654796	keystroke_a	a	n/a
327.533	0.06	655066	keystroke_n	n	n/a
327.608	0.045	655216	keystroke_d	d	n/a
327.743	0.03	655486	keystroke_Key.space	Key.space	n/a
327.863	0.045	655726	keystroke_b	b	n/a
328.013	0.03	656026	keystroke_i	i	n/a
328.133	0.06	656266	keystroke_n	n	n/a
328.208	0.075	656416	keystroke_g	g	n/a
328.313	0.09	656626	keystroke_o	o	n/a
328.328	0.105	656656	keystroke_Key.space	Key.space	n/a
328.463	0.06	656926	keystroke_c	c	n/a
328.538	0.06	657076	keystroke_h	h	n/a
328.673	0.075	657346	keystroke_a	a	n/a
328.718	0.12	657436	keystroke_p	p	n/a
328.823	0.075	657646	keystroke_t	t	n/a
329.033	0.03	658066	keystroke_e	e	n/a
329.048	0.06	658096	keystroke_r	r	n/a
329.109	0.089	658218	keystroke_Key.enter	Key.enter	n/a
329.2045	5.065	658409	prompt	n/a	something dangerous shaved oxygen\n
329.8575	0.075	659715	keystroke_s	s	n/a
329.9185	0.045	659837	keystroke_o	o	n/a
330.0525	0.045	660105	keystroke_m	m	n/a
330.1425	0.03	660285	keystroke_e	e	n/a
330.278	0.09	660556	keystroke_t	t	n/a
330.323	0.105	660646	keystroke_h	h	n/a
330.383	0.075	660766	keystroke_i	i	n/a
330.548	0.03	661096	keystroke_n	n	n/a
330.593	0.06	661186	keystroke_g	g	n/a
330.668	0.09	661336	keystroke_Key.space	Key.space	n/a
330.938	0.06	661876	keystroke_a	a	n/a
331.253	0.06	662506	keystroke_Key.backspace	Key.backspace	n/a
331.388	0.075	662776	keystroke_d	d	n/a
331.5225	0.09	663045	keystroke_a	a	n/a
331.598	0.0595	663196	keystroke_n	n	n/a
331.7025	0.045	663405	keystroke_g	g	n/a
331.868	0.0595	663736	keystroke_e	e	n/a
331.8975	0.1205	663795	keystroke_r	r	n/a
332.033	0.12	664066	keystroke_o	o	n/a
332.078	0.105	664156	keystroke_u	u	n/a
332.213	0.06	664426	keystroke_s	s	n/a
332.318	0.06	664636	keystroke_Key.space	Key.space	n/a
332.4825	0.0755	664965	keystroke_s	s	n/a
332.5735	0.0595	665147	keystroke_h	h	n/a
332.678	0.09	665356	keystroke_a	a	n/a
332.783	0.105	665566	keystroke_v	v	n/a
332.873	0.06	665746	keystroke_e	e	n/a
333.038	0.075	666076	keystroke_d	d	n/a
333.128	0.09	666256	keystroke_Key.space	Key.space	n/a
333.443	0.09	666886	keystroke_o	o	n/a
333.623	0.075	667246	keystroke_x	x	n/a
333.713	0.075	667426	keystroke_y	y	n/a
333.908	0.045	667816	keystroke_g	g	n/a
334.013	0.12	668026	keystroke_e	e	n/a
334.073	0.09	668146	keystroke_n	n	n/a
334.178	0.09	668356	keystroke_Key.enter	Key.enter	n/a
334.2725	5.727	668545	prompt	n/a	agents thoughts priest standards\n
334.943	0.075	669886	keystroke_a	a	n/a
335.003	0.0895	670006	keystroke_g	g	n/a
335.0775	0.09	670155	keystroke_e	e	n/a
335.1225	0.0905	670245	keystroke_n	n	n/a
335.498	0.06	670996	keystroke_t	t	n/a
335.723	0.045	671446	keystroke_s	s	n/a
335.813	0.075	671626	keystroke_Key.space	Key.space	n/a
335.933	0.09	671866	keystroke_t	t	n/a
335.993	0.075	671986	keystroke_h	h	n/a
336.1435	0.105	672287	keystroke_o	o	n/a
336.1735	0.09	672347	keystroke_u	u	n/a
336.3685	0.06	672737	keystroke_h	h	n/a
336.4135	0.09	672827	keystroke_t	t	n/a
336.8785	0.045	673757	keystroke_Key.backspace	Key.backspace	n/a
337.0135	0.06	674027	keystroke_Key.backspace	Key.backspace	n/a
337.1335	0.09	674267	keystroke_g	g	n/a
337.2535	0.075	674507	keystroke_h	h	n/a
337.3435	0.075	674687	keystroke_t	t	n/a
337.823	0.075	675646	keystroke_s	s	n/a
337.913	0.09	675826	keystroke_Key.space	Key.space	n/a
337.958	0.12	675916	keystroke_p	p	n/a
338.063	0.06	676126	keystroke_r	r	n/a
338.168	0.09	676336	keystroke_i	i	n/a
338.259	0.059	676518	keystroke_e	e	n/a
338.438	0.06	676876	keystroke_s	s	n/a
338.6035	0.045	677207	keystroke_t	t	n/a
338.6635	0.09	677327	keystroke_Key.space	Key.space	n/a
338.7835	0.0745	677567	keystroke_s	s	n/a
338.933	0.105	677866	keystroke_t	t	n/a
339.023	0.105	678046	keystroke_a	a	n/a
339.113	0.06	678226	keystroke_n	n	n/a
339.218	0.075	678436	keystroke_d	d	n/a
339.383	0.105	678766	keystroke_a	a	n/a
339.458	0.06	678916	keystroke_r	r	n/a
339.653	0.165	679306	keystroke_d	d	n/a
339.773	0.105	679546	keystroke_s	s	n/a
339.923	0.075	679846	keystroke_Key.enter	Key.enter	n/a
340.0025	4.722	680005	prompt	n/a	loving fault clan museums\n
340.6275	0.06	681255	keystroke_l	l	n/a
340.7635	0.074	681527	keystroke_o	o	n/a
340.8535	0.105	681707	keystroke_v	v	n/a
340.9435	0.06	681887	keystroke_i	i	n/a
341.0635	0.06	682127	keystroke_n	n	n/a
341.1075	0.076	682215	keystroke_g	g	n/a
341.2125	0.121	682425	keystroke_Key.space	Key.space	n/a
341.3185	0.06	682637	keystroke_f	f	n/a
341.3635	0.135	682727	keystroke_a	a	n/a
341.4235	0.06	682847	keystroke_u	u	n/a
341.5585	0.1195	683117	keystroke_l	l	n/a
341.633	0.075	683266	keystroke_t	t	n/a
341.783	0.075	683566	keystroke_Key.space	Key.space	n/a
341.918	0.075	683836	keystroke_c	c	n/a
342.008	0.075	684016	keystroke_l	l	n/a
342.113	0.09	684226	keystroke_a	a	n/a
342.188	0.075	684376	keystroke_n	n	n/a
342.264	0.089	684528	keystroke_Key.space	Key.space	n/a
342.413	0.075	684826	keystroke_m	m	n/a
342.623	0.09	685246	keystroke_u	u	n/a
342.743	0.075	685486	keystroke_s	s	n/a
344.1835	0.06	688367	keystroke_e	e	n/a
344.2585	0.045	688517	keystroke_u	u	n/a
344.4535	0.0295	688907	keystroke_m	m	n/a
344.513	0.075	689026	keystroke_s	s	n/a
344.633	0.09	689266	keystroke_Key.enter	Key.enter	n/a
344.728	6.1465	689456	prompt	n/a	provision mathematics fountain bowl\n
345.323	0.09	690646	keystroke_p	p	n/a
345.428	0.06	690856	keystroke_r	r	n/a
345.503	0.075	691006	keystroke_o	o	n/a
345.593	0.0745	691186	keystroke_v	v	n/a
345.6825	0.061	691365	keystroke_i	i	n/a
345.7585	0.09	691517	keystroke_s	s	n/a
345.8325	0.12	691665	keystroke_i	i	n/a
345.9075	0.06	691815	keystroke_o	o	n/a
346.0735	0.06	692147	keystroke_n	n	n/a
346.1335	0.104	692267	keystroke_Key.space	Key.space	n/a
346.2525	0.061	692505	keystroke_m	m	n/a
346.3875	0.09	692775	keystroke_a	a	n/a
346.8525	0.06	693705	keystroke_t	t	n/a
346.9575	0.06	693915	keystroke_h	h	n/a
347.1075	0.09	694215	keystroke_e	e	n/a
347.9635	0.089	695927	keystroke_m	m	n/a
348.2025	0.12	696405	keystroke_a	a	n/a
348.3375	0.0905	696675	keystroke_t	t	n/a
349.058	0.09	698116	keystroke_i	i	n/a
349.208	0.105	698416	keystroke_c	c	n/a
349.268	0.12	698536	keystroke_s	s	n/a
349.358	0.105	698716	keystroke_Key.space	Key.space	n/a
349.478	0.09	698956	keystroke_f	f	n/a
349.538	0.105	699076	keystroke_o	o	n/a
349.583	0.06	699166	keystroke_u	u	n/a
349.7485	0.0445	699497	keystroke_n	n	n/a
349.823	0.09	699646	keystroke_t	t	n/a
349.883	0.105	699766	keystroke_a	a	n/a
350.033	0.045	700066	keystroke_i	i	n/a
350.168	0.0905	700336	keystroke_n	n	n/a
350.228	0.0605	700456	keystroke_Key.space	Key.space	n/a
350.3485	0.075	700697	keystroke_b	b	n/a
350.4685	0.09	700937	keystroke_o	o	n/a
350.5435	0.105	701087	keystroke_w	w	n/a
350.6635	0.045	701327	keystroke_l	l	n/a
350.7685	0.105	701537	keystroke_Key.enter	Key.enter	n/a
350.877	5.6525	701754	prompt	n/a	touch transform workshop bolt\n
351.5785	0.075	703157	keystroke_t	t	n/a
351.6385	0.12	703277	keystroke_o	o	n/a
351.6685	0.105	703337	keystroke_u	u	n/a
351.8185	0.075	703637	keystroke_c	c	n/a
351.8785	0.075	703757	keystroke_h	h	n/a
351.9225	0.09	703845	keystroke_Key.space	Key.space	n/a
352.0285	0.06	704057	keystroke_t	t	n/a
352.1935	0.09	704387	keystroke_a	a	n/a
352.2985	0.06	704597	keystroke_n	n	n/a
352.823	0.045	705646	keystroke_Key.backspace	Key.backspace	n/a
352.943	0.06	705886	keystroke_Key.backspace	Key.backspace	n/a
353.048	0.09	706096	keystroke_r	r	n/a
353.123	0.06	706246	keystroke_a	a	n/a
353.168	0.075	706336	keystroke_n	n	n/a
353.273	0.105	706546	keystroke_s	s	n/a
353.9325	0.06	707865	keystroke_f	f	n/a
354.0075	0.015	708015	keystroke_o	o	n/a
354.0375	0.075	708075	keystroke_r	r	n/a
354.1275	0.06	708255	keystroke_m	m	n/a
354.1725	0.105	708345	keystroke_Key.space	Key.space	n/a
354.2625	0.061	708525	keystroke_w	w	n/a
354.3235	0.09	708647	keystroke_o	o	n/a
354.3975	0.045	708795	keystroke_r	r	n/a
355.1025	0.06	710205	keystroke_k	k	n/a
355.2675	0.075	710535	keystroke_s	s	n/a
355.4185	0.06	710837	keystroke_h	h	n/a
355.6585	0.15	711317	keystroke_o	o	n/a
355.7485	0.135	711497	keystroke_p	p	n/a
355.8535	0.09	711707	keystroke_Key.space	Key.space	n/a
356.0035	0.075	712007	keystroke_b	b	n/a
356.1385	0.075	712277	keystroke_o	o	n/a
356.3035	0.075	712607	keystroke_l	l	n/a
356.3935	0.09	712787	keystroke_t	t	n/a
356.4535	0.075	712907	keystroke_Key.enter	Key.enter	n/a
356.533	5.4415	713066	prompt	n/a	observation course touch learning\n
357.1435	0.105	714287	keystroke_o	o	n/a
357.9685	0.074	715937	keystroke_b	b	n/a
358.5225	0.016	717045	keystroke_s	s	n/a
358.6135	0.0595	717227	keystroke_e	e	n/a
358.628	0.105	717256	keystroke_r	r	n/a
358.943	0.105	717886	keystroke_v	v	n/a
359.063	0.09	718126	keystroke_a	a	n/a
359.243	0.075	718486	keystroke_t	t	n/a
359.273	0.09	718546	keystroke_i	i	n/a
359.348	0.045	718696	keystroke_o	o	n/a
359.4825	0.09	718965	keystroke_n	n	n/a
359.5425	0.105	719085	keystroke_Key.space	Key.space	n/a
359.7675	0.03	719535	keystroke_c	c	n/a
359.8575	0.15	719715	keystroke_o	o	n/a
359.9475	0.105	719895	keystroke_u	u	n/a
360.0675	0.03	720135	keystroke_r	r	n/a
360.2475	0.045	720495	keystroke_s	s	n/a
360.3975	0.09	720795	keystroke_e	e	n/a
360.5025	0.1205	721005	keystroke_Key.space	Key.space	n/a
360.653	0.075	721306	keystroke_t	t	n/a
360.7135	0.1345	721427	keystroke_o	o	n/a
360.758	0.105	721516	keystroke_u	u	n/a
360.893	0.105	721786	keystroke_c	c	n/a
360.983	0.045	721966	keystroke_h	h	n/a
361.013	0.045	722026	keystroke_Key.space	Key.space	n/a
361.118	0.12	722236	keystroke_l	l	n/a
361.208	0.09	722416	keystroke_e	e	n/a
361.298	0.105	722596	keystroke_a	a	n/a
361.388	0.075	722776	keystroke_r	r	n/a
361.433	0.075	722866	keystroke_n	n	n/a
361.598	0.045	723196	keystroke_i	i	n/a
361.733	0.06	723466	keystroke_n	n	n/a
361.808	0.075	723616	keystroke_g	g	n/a
361.898	0.075	723796	keystroke_Key.enter	Key.enter	n/a
361.9785	4.9915	723957	prompt	n/a	markers super unnecessary displays\n
362.6335	0.045	725267	keystroke_m	m	n/a
362.6935	0.03	725387	keystroke_a	a	n/a
362.7085	0.075	725417	keystroke_r	r	n/a
362.7685	0.09	725537	keystroke_k	k	n/a
362.8435	0.075	725687	keystroke_e	e	n/a
362.9035	0.075	725807	keystroke_r	r	n/a
363.4885	0.135	726977	keystroke_s	s	n/a
363.6385	0.015	727277	keystroke_Key.space	Key.space	n/a
363.6985	0.03	727397	keystroke_s	s	n/a
363.7135	0.03	727427	keystroke_u	u	n/a
363.8485	0.105	727697	keystroke_p	p	n/a
363.8785	0.09	727757	keystroke_e	e	n/a
363.9385	0.075	727877	keystroke_r	r	n/a
364.0585	0.06	728117	keystroke_Key.space	Key.space	n/a
364.1335	0.06	728267	keystroke_u	u	n/a
364.3285	0.045	728657	keystroke_n	n	n/a
364.4635	0.06	728927	keystroke_n	n	n/a
364.598	0.06	729196	keystroke_e	e	n/a
364.793	0.105	729586	keystroke_c	c	n/a
364.868	0.06	729736	keystroke_e	e	n/a
365.078	0.03	730156	keystroke_s	s	n/a
365.198	0.061	730396	keystroke_s	s	n/a
365.4085	0.075	730817	keystroke_a	a	n/a
365.4535	0.09	730907	keystroke_r	r	n/a
365.5585	0.075	731117	keystroke_y	y	n/a
365.6035	0.105	731207	keystroke_Key.space	Key.space	n/a
366.0385	0.045	732077	keystroke_d	d	n/a
366.0835	0.09	732167	keystroke_i	i	n/a
366.1885	0.09	732377	keystroke_s	s	n/a
366.2635	0.06	732527	keystroke_p	p	n/a
366.4135	0.06	732827	keystroke_l	l	n/a
366.5035	0.0895	733007	keystroke_a	a	n/a
