onset	duration	sample	value	key	prompt_text
2.6305	12.8285	5261	prompt	n/a	the quick brown fox jumps over a lazy dog\n
4.584	0.001	9168	keystroke_t	t	n/a
4.6125	0.0605	9225	keystroke_h	h	n/a
4.7925	0.03	9585	keystroke_e	e	n/a
5.017	0.075	10034	keystroke_Key.space	Key.space	n/a
5.3275	0.1105	10655	keystroke_q	q	n/a
5.452	0.076	10904	keystroke_u	u	n/a
5.737	0.0755	11474	keystroke_i	i	n/a
5.993	0.075	11986	keystroke_c	c	n/a
6.1125	0.0895	12225	keystroke_k	k	n/a
6.727	0.09	13454	keystroke_Key.space	Key.space	n/a
7.2365	0.0575	14473	keystroke_b	b	n/a
7.444	0.075	14888	keystroke_r	r	n/a
7.534	0.075	15068	keystroke_o	o	n/a
7.7595	0.075	15519	keystroke_w	w	n/a
7.8175	0.0775	15635	keystroke_n	n	n/a
8.163	0.0565	16326	keystroke_Key.space	Key.space	n/a
8.538	0.091	17076	keystroke_f	f	n/a
8.643	0.0605	17286	keystroke_o	o	n/a
8.823	0.108	17646	keystroke_x	x	n/a
8.9905	0.0725	17981	keystroke_Key.space	Key.space	n/a
9.636	0.09	19272	keystroke_j	j	n/a
9.8455	0.0755	19691	keystroke_u	u	n/a
10.266	0.0905	20532	keystroke_p	p	n/a
10.91	0.091	21820	keystroke_Key.backspace	Key.backspace	n/a
11.211	0.1055	22422	keystroke_m	m	n/a
11.376	0.12	22752	keystroke_p	p	n/a
12.006	0.075	24012	keystroke_s	s	n/a
12.201	0.089	24402	keystroke_Key.space	Key.space	n/a
12.3655	0.105	24731	keystroke_o	o	n/a
12.5455	0.06	25091	keystroke_v	v	n/a
12.6955	0.0905	25391	keystroke_e	e	n/a
12.771	0.0905	25542	keystroke_r	r	n/a
12.8755	0.09	25751	keystroke_Key.space	Key.space	n/a
13.0255	0.1055	26051	keystroke_a	a	n/a
13.4455	0.1045	26891	keystroke_Key.space	Key.space	n/a
13.67	0.106	27340	keystroke_l	l	n/a
13.896	0.0895	27792	keystroke_a	a	n/a
14.2105	0.1055	28421	keystroke_z	z	n/a
14.3915	0.0595	28783	keystroke_y	y	n/a
14.6465	0.0745	29293	keystroke_Key.space	Key.space	n/a
14.826	0.075	29652	keystroke_d	d	n/a
14.961	0.0905	29922	keystroke_o	o	n/a
15.1405	0.06	30281	keystroke_g	g	n/a
15.396	0.0595	30792	keystroke_Key.enter	Key.enter	n/a
15.465	8.4985	30930	prompt	n/a	mountain regulations requested planet\n
16.1765	0.0595	32353	keystroke_m	m	n/a
16.3715	0.09	32743	keystroke_o	o	n/a
16.551	0.075	33102	keystroke_u	u	n/a
16.791	0.0895	33582	keystroke_n	n	n/a
16.9555	0.075	33911	keystroke_t	t	n/a
17.2855	0.075	34571	keystroke_a	a	n/a
17.4055	0.09	34811	keystroke_i	i	n/a
17.586	0.1045	35172	keystroke_n	n	n/a
17.826	0.105	35652	keystroke_Key.space	Key.space	n/a
18.1265	0.075	36253	keystroke_r	r	n/a
18.1855	0.076	36371	keystroke_e	e	n/a
18.4555	0.0605	36911	keystroke_g	g	n/a
18.4855	0.075	36971	keystroke_u	u	n/a
18.7705	0.09	37541	keystroke_l	l	n/a
18.936	0.06	37872	keystroke_a	a	n/a
19.071	0.0905	38142	keystroke_r	r	n/a
19.6855	0.075	39371	keystroke_Key.backspace	Key.backspace	n/a
19.8205	0.076	39641	keystroke_t	t	n/a
19.9715	0.074	39943	keystroke_i	i	n/a
20.106	0.12	40212	keystroke_o	o	n/a
20.286	0.105	40572	keystroke_n	n	n/a
20.466	0.105	40932	keystroke_s	s	n/a
20.706	0.1045	41412	keystroke_Key.space	Key.space	n/a
21.0055	0.09	42011	keystroke_r	r	n/a
21.126	0.0895	42252	keystroke_e	e	n/a
21.336	0.045	42672	keystroke_q	q	n/a
21.441	0.075	42882	keystroke_u	u	n/a
21.681	0.09	43362	keystroke_e	e	n/a
21.861	0.0745	43722	keystroke_s	s	n/a
21.9965	0.0745	43993	keystroke_t	t	n/a
22.206	0.075	44412	keystroke_e	e	n/a
22.386	0.075	44772	keystroke_d	d	n/a
22.476	0.12	44952	keystroke_Key.space	Key.space	n/a
22.641	0.105	45282	keystroke_p	p	n/a
22.866	0.09	45732	keystroke_l	l	n/a
23.031	0.09	46062	keystroke_a	a	n/a
23.1515	0.09	46303	keystroke_n	n	n/a
23.3465	0.075	46693	keystroke_e	e	n/a
23.5415	0.0585	47083	keystroke_t	t	n/a
23.9005	0.06	47801	keystroke_Key.enter	Key.enter	n/a
23.9685	12.6545	47937	prompt	n/a	injured amended restriction background\n
24.846	0.09	49692	keystroke_i	i	n/a
25.011	0.075	50022	keystroke_n	n	n/a
25.3105	0.031	50621	keystroke_u	u	n/a
25.88	0.0305	51760	keystroke_Key.backspace	Key.backspace	n/a
26.091	0.0905	52182	keystroke_j	j	n/a
26.316	0.074	52632	keystroke_u	u	n/a
26.826	0.0755	53652	keystroke_r	r	n/a
27.0065	0.105	54013	keystroke_e	e	n/a
27.2455	0.0905	54491	keystroke_d	d	n/a
27.381	0.0745	54762	keystroke_Key.space	Key.space	n/a
27.681	0.0295	55362	keystroke_e	e	n/a
27.8755	0.1055	55751	keystroke_m	m	n/a
28.191	0.0905	56382	keystroke_e	e	n/a
28.6705	0.045	57341	keystroke_Key.backspace	Key.backspace	n/a
28.8655	0.06	57731	keystroke_Key.backspace	Key.backspace	n/a
29.061	0.0745	58122	keystroke_Key.backspace	Key.backspace	n/a
29.1515	0.105	58303	keystroke_a	a	n/a
29.3155	0.1205	58631	keystroke_m	m	n/a
29.571	0.06	59142	keystroke_e	e	n/a
29.766	0.09	59532	keystroke_n	n	n/a
30.066	0.045	60132	keystroke_d	d	n/a
30.306	0.075	60612	keystroke_e	e	n/a
30.516	0.075	61032	keystroke_d	d	n/a
30.8305	0.061	61661	keystroke_Key.space	Key.space	n/a
31.206	0.06	62412	keystroke_r	r	n/a
31.281	0.0905	62562	keystroke_e	e	n/a
31.581	0.075	63162	keystroke_t	t	n/a
32.211	0.059	64422	keystroke_Key.backspace	Key.backspace	n/a
32.3165	0.0295	64633	keystroke_s	s	n/a
32.541	0.03	65082	keystroke_t	t	n/a
32.766	0.015	65532	keystroke_r	r	n/a
32.9305	0.075	65861	keystroke_i	i	n/a
33.366	0.09	66732	keystroke_c	c	n/a
33.606	0.06	67212	keystroke_t	t	n/a
33.726	0.12	67452	keystroke_i	i	n/a
33.8315	0.1495	67663	keystroke_o	o	n/a
34.0265	0.104	68053	keystroke_n	n	n/a
34.2505	0.075	68501	keystroke_Key.space	Key.space	n/a
34.5805	0.0605	69161	keystroke_b	b	n/a
34.7755	0.06	69551	keystroke_a	a	n/a
35.0005	0.075	70001	keystroke_c	c	n/a
35.1205	0.1055	70241	keystroke_k	k	n/a
35.421	0.06	70842	keystroke_g	g	n/a
35.616	0.06	71232	keystroke_r	r	n/a
35.661	0.1345	71322	keystroke_o	o	n/a
35.8705	0.075	71741	keystroke_u	u	n/a
36.0955	0.09	72191	keystroke_n	n	n/a
36.23	0.061	72460	keystroke_d	d	n/a
36.576	0.045	73152	keystroke_Key.enter	Key.enter	n/a
36.6275	10.09	73255	prompt	n/a	preference contributing twelve deluxe\n
37.446	0.0895	74892	keystroke_p	p	n/a
37.7155	0.075	75431	keystroke_r	r	n/a
37.8055	0.075	75611	keystroke_e	e	n/a
38.1355	0.075	76271	keystroke_f	f	n/a
38.2855	0.06	76571	keystroke_e	e	n/a
38.391	0.0595	76782	keystroke_r	r	n/a
38.6455	0.075	77291	keystroke_e	e	n/a
38.8255	0.06	77651	keystroke_n	n	n/a
38.9455	0.09	77891	keystroke_c	c	n/a
39.1555	0.06	78311	keystroke_e	e	n/a
39.261	0.0745	78522	keystroke_Key.space	Key.space	n/a
39.546	0.0745	79092	keystroke_c	c	n/a
39.6505	0.105	79301	keystroke_o	o	n/a
39.8455	0.075	79691	keystroke_n	n	n/a
40.0405	0.045	80081	keystroke_t	t	n/a
40.1905	0.0755	80381	keystroke_r	r	n/a
40.2955	0.09	80591	keystroke_i	i	n/a
40.8805	0.075	81761	keystroke_b	b	n/a
41.106	0.075	82212	keystroke_u	u	n/a
41.391	0.06	82782	keystroke_t	t	n/a
41.556	0.06	83112	keystroke_i	i	n/a
41.721	0.09	83442	keystroke_n	n	n/a
41.856	0.075	83712	keystroke_g	g	n/a
42.021	0.015	84042	keystroke_Key.space	Key.space	n/a
42.321	0.105	84642	keystroke_t	t	n/a
42.666	0.075	85332	keystroke_w	w	n/a
43.0705	0.0895	86141	keystroke_e	e	n/a
43.326	0.089	86652	keystroke_l	l	n/a
43.73	0.0755	87460	keystroke_v	v	n/a
43.9105	0.0745	87821	keystroke_e	e	n/a
44.12	0.076	88240	keystroke_Key.space	Key.space	n/a
44.3155	0.075	88631	keystroke_d	d	n/a
44.5255	0.06	89051	keystroke_e	e	n/a
44.8255	0.0905	89651	keystroke_l	l	n/a
45.066	0.06	90132	keystroke_u	u	n/a
45.576	0.089	91152	keystroke_x	x	n/a
45.951	0.075	91902	keystroke_e	e	n/a
46.656	0.06	93312	keystroke_Key.enter	Key.enter	n/a
46.7225	7.7655	93445	prompt	n/a	harley lawsuit dryer duplicate\n
47.661	0.06	95322	keystroke_h	h	n/a
47.8415	0.0295	95683	keystroke_a	a	n/a
47.931	0.0895	95862	keystroke_r	r	n/a
48.0805	0.0905	96161	keystroke_l	l	n/a
48.366	0.0605	96732	keystroke_e	e	n/a
48.486	0.075	96972	keystroke_y	y	n/a
48.7855	0.0755	97571	keystroke_Key.space	Key.space	n/a
49.371	0.0905	98742	keystroke_l	l	n/a
49.4915	0.105	98983	keystroke_a	a	n/a
49.7315	0.1045	99463	keystroke_w	w	n/a
50.3905	0.0905	100781	keystroke_s	s	n/a
50.6005	0.0605	101201	keystroke_u	u	n/a
50.796	0.075	101592	keystroke_i	i	n/a
50.976	0.06	101952	keystroke_t	t	n/a
51.1855	0.075	102371	keystroke_Key.space	Key.space	n/a
51.411	0.1055	102822	keystroke_d	d	n/a
51.606	0.076	103212	keystroke_r	r	n/a
51.831	0.045	103662	keystroke_y	y	n/a
52.1305	0.0905	104261	keystroke_e	e	n/a
52.236	0.09	104472	keystroke_r	r	n/a
52.446	0.1055	104892	keystroke_Key.space	Key.space	n/a
52.6865	0.074	105373	keystroke_d	d	n/a
52.911	0.06	105822	keystroke_u	u	n/a
53.031	0.12	106062	keystroke_p	p	n/a
53.301	0.1045	106602	keystroke_l	l	n/a
53.5105	0.09	107021	keystroke_i	i	n/a
53.661	0.0905	107322	keystroke_c	c	n/a
53.811	0.0755	107622	keystroke_a	a	n/a
53.946	0.0745	107892	keystroke_t	t	n/a
54.0805	0.106	108161	keystroke_e	e	n/a
54.4405	0.0455	108881	keystroke_Key.enter	Key.enter	n/a
54.4935	7.419	108987	prompt	n/a	arrest launch eternal manga\n
55.221	0.075	110442	keystroke_a	a	n/a
55.416	0.0605	110832	keystroke_r	r	n/a
55.611	0.075	111222	keystroke_r	r	n/a
55.716	0.0905	111432	keystroke_e	e	n/a
55.971	0.0605	111942	keystroke_s	s	n/a
56.106	0.09	112212	keystroke_t	t	n/a
56.2705	0.09	112541	keystroke_Key.space	Key.space	n/a
56.6155	0.0905	113231	keystroke_l	l	n/a
56.811	0.09	113622	keystroke_a	a	n/a
56.946	0.0755	113892	keystroke_u	u	n/a
57.381	0.12	114762	keystroke_n	n	n/a
57.696	0.0595	115392	keystroke_c	c	n/a
57.846	0.0745	115692	keystroke_h	h	n/a
58.176	0.09	116352	keystroke_Key.space	Key.space	n/a
58.491	0.09	116982	keystroke_e	e	n/a
58.9855	0.06	117971	keystroke_t	t	n/a
59.136	0.0595	118272	keystroke_e	e	n/a
59.1965	0.089	118393	keystroke_r	r	n/a
59.406	0.075	118812	keystroke_n	n	n/a
60.021	0.075	120042	keystroke_a	a	n/a
60.171	0.0905	120342	keystroke_l	l	n/a
60.381	0.075	120762	keystroke_Key.space	Key.space	n/a
60.606	0.09	121212	keystroke_m	m	n/a
60.786	0.0895	121572	keystroke_a	a	n/a
60.9515	0.09	121903	keystroke_n	n	n/a
61.2965	0.059	122593	keystroke_g	g	n/a
61.5355	0.09	123071	keystroke_a	a	n/a
61.8515	0.059	123703	keystroke_Key.enter	Key.enter	n/a
61.9195	5.5425	123839	prompt	n/a	paper send modes lately\n
62.676	0.105	125352	keystroke_p	p	n/a
62.8405	0.1045	125681	keystroke_a	a	n/a
63.0205	0.09	126041	keystroke_p	p	n/a
63.2155	0.075	126431	keystroke_e	e	n/a
63.3505	0.075	126701	keystroke_r	r	n/a
63.5155	0.06	127031	keystroke_Key.space	Key.space	n/a
63.726	0.075	127452	keystroke_s	s	n/a
63.876	0.075	127752	keystroke_e	e	n/a
63.951	0.0745	127902	keystroke_n	n	n/a
64.176	0.06	128352	keystroke_d	d	n/a
64.296	0.075	128592	keystroke_Key.space	Key.space	n/a
64.6865	0.089	129373	keystroke_m	m	n/a
64.9415	0.014	129883	keystroke_o	o	n/a
65.0315	0.074	130063	keystroke_d	d	n/a
65.226	0.075	130452	keystroke_e	e	n/a
65.4365	0.0745	130873	keystroke_s	s	n/a
65.5405	0.12	131081	keystroke_Key.space	Key.space	n/a
65.7655	0.09	131531	keystroke_l	l	n/a
65.9155	0.0905	131831	keystroke_a	a	n/a
66.4405	0.06	132881	keystroke_t	t	n/a
66.5915	0.06	133183	keystroke_e	e	n/a
66.7555	0.12	133511	keystroke_l	l	n/a
67.0255	0.06	134051	keystroke_y	y	n/a
67.4005	0.06	134801	keystroke_Key.enter	Key.enter	n/a
67.4675	9.7	134935	prompt	n/a	quotes stone project templates\n
68.256	0.074	136512	keystroke_q	q	n/a
68.4365	0.0595	136873	keystroke_u	u	n/a
68.751	0.0745	137502	keystroke_o	o	n/a
69.096	0.075	138192	keystroke_t	t	n/a
69.2005	0.0905	138401	keystroke_e	e	n/a
69.456	0.0905	138912	keystroke_s	s	n/a
69.6205	0.09	139241	keystroke_Key.space	Key.space	n/a
69.8005	0.06	139601	keystroke_s	s	n/a
69.9955	0.0755	139991	keystroke_t	t	n/a
70.1015	0.1045	140203	keystroke_o	o	n/a
70.415	0.091	140830	keystroke_n	n	n/a
70.956	0.09	141912	keystroke_e	e	n/a
71.121	0.105	142242	keystroke_Key.space	Key.space	n/a
71.3605	0.09	142721	keystroke_p	p	n/a
71.5255	0.09	143051	keystroke_r	r	n/a
71.6455	0.0755	143291	keystroke_o	o	n/a
71.826	0.075	143652	keystroke_j	j	n/a
72.4555	0.06	144911	keystroke_e	e	n/a
72.6355	0.075	145271	keystroke_c	c	n/a
72.846	0.075	145692	keystroke_t	t	n/a
73.221	0.074	146442	keystroke_t	t	n/a
73.3405	0.09	146681	keystroke_e	e	n/a
73.4605	0.105	146921	keystroke_m	m	n/a
73.6555	0.045	147311	keystroke_p	p	n/a
74.001	0.03	148002	keystroke_Key.backspace	Key.backspace	n/a
74.181	0.06	148362	keystroke_Key.backspace	Key.backspace	n/a
74.3755	0.0595	148751	keystroke_Key.backspace	Key.backspace	n/a
74.571	0.075	149142	keystroke_Key.backspace	Key.backspace	n/a
74.826	0.09	149652	keystroke_Key.space	Key.space	n/a
75.2015	0.074	150403	keystroke_t	t	n/a
75.3205	0.0755	150641	keystroke_e	e	n/a
75.5605	0.1355	151121	keystroke_m	m	n/a
75.756	0.12	151512	keystroke_p	p	n/a
76.056	0.105	152112	keystroke_l	l	n/a
76.206	0.075	152412	keystroke_a	a	n/a
76.371	0.075	152742	keystroke_t	t	n/a
76.476	0.075	152952	keystroke_e	e	n/a
76.731	0.075	153462	keystroke_s	s	n/a
77.106	0.0595	154212	keystroke_Key.enter	Key.enter	n/a
77.173	6.69	154346	prompt	n/a	choose wheels guided success\n
77.976	0.0595	155952	keystroke_c	c	n/a
78.111	0.06	156222	keystroke_h	h	n/a
78.321	0.075	156642	keystroke_o	o	n/a
78.531	0.075	157062	keystroke_o	o	n/a
78.606	0.075	157212	keystroke_s	s	n/a
78.7255	0.0905	157451	keystroke_e	e	n/a
78.831	0.104	157662	keystroke_Key.space	Key.space	n/a
79.1755	0.075	158351	keystroke_w	w	n/a
79.311	0.0745	158622	keystroke_h	h	n/a
79.521	0.0595	159042	keystroke_e	e	n/a
79.731	0.075	159462	keystroke_e	e	n/a
79.8955	0.09	159791	keystroke_l	l	n/a
80.1355	0.076	160271	keystroke_s	s	n/a
80.3005	0.09	160601	keystroke_Key.space	Key.space	n/a
80.676	0.075	161352	keystroke_g	g	n/a
80.81	0.076	161620	keystroke_u	u	n/a
81.0515	0.074	162103	keystroke_i	i	n/a
81.2755	0.045	162551	keystroke_d	d	n/a
81.4555	0.06	162911	keystroke_e	e	n/a
81.651	0.075	163302	keystroke_d	d	n/a
81.801	0.105	163602	keystroke_Key.space	Key.space	n/a
82.131	0.06	164262	keystroke_s	s	n/a
82.2665	0.0595	164533	keystroke_u	u	n/a
82.446	0.06	164892	keystroke_c	c	n/a
82.6255	0.075	165251	keystroke_c	c	n/a
82.881	0.03	165762	keystroke_e	e	n/a
83.0905	0.045	166181	keystroke_s	s	n/a
83.2705	0.0905	166541	keystroke_s	s	n/a
83.7505	0.105	167501	keystroke_Key.enter	Key.enter	n/a
83.863	7.3295	167726	prompt	n/a	greater sent integrity fever\n
84.636	0.0595	169272	keystroke_g	g	n/a
84.815	0.106	169630	keystroke_r	r	n/a
84.951	0.075	169902	keystroke_e	e	n/a
85.1305	0.0755	170261	keystroke_a	a	n/a
85.281	0.09	170562	keystroke_t	t	n/a
85.431	0.0605	170862	keystroke_e	e	n/a
85.521	0.075	171042	keystroke_r	r	n/a
85.7155	0.0755	171431	keystroke_Key.space	Key.space	n/a
85.9105	0.06	171821	keystroke_s	s	n/a
86.0605	0.09	172121	keystroke_e	e	n/a
86.1655	0.075	172331	keystroke_n	n	n/a
86.3765	0.0745	172753	keystroke_t	t	n/a
86.5105	0.075	173021	keystroke_Key.space	Key.space	n/a
86.991	0.0595	173982	keystroke_i	i	n/a
87.171	0.0745	174342	keystroke_n	n	n/a
87.366	0.06	174732	keystroke_t	t	n/a
87.4855	0.0755	174971	keystroke_e	e	n/a
87.786	0.0595	175572	keystroke_g	g	n/a
87.9955	0.075	175991	keystroke_r	r	n/a
88.1905	0.045	176381	keystroke_a	a	n/a
88.686	0.06	177372	keystroke_Key.backspace	Key.backspace	n/a
88.971	0.0905	177942	keystroke_i	i	n/a
89.181	0.0905	178362	keystroke_t	t	n/a
89.5855	0.0605	179171	keystroke_y	y	n/a
89.8555	0.075	179711	keystroke_Key.space	Key.space	n/a
90.0965	0.0745	180193	keystroke_f	f	n/a
90.2605	0.09	180521	keystroke_e	e	n/a
90.5305	0.075	181061	keystroke_v	v	n/a
90.7115	0.044	181423	keystroke_e	e	n/a
90.786	0.075	181572	keystroke_r	r	n/a
91.116	0.075	182232	keystroke_Key.enter	Key.enter	n/a
91.197	6.7305	182394	prompt	n/a	cave piece sponsorship rules\n
91.896	0.06	183792	keystroke_c	c	n/a
92.076	0.075	184152	keystroke_a	a	n/a
92.301	0.075	184602	keystroke_v	v	n/a
92.451	0.06	184902	keystroke_e	e	n/a
92.585	0.121	185170	keystroke_Key.space	Key.space	n/a
92.7655	0.105	185531	keystroke_p	p	n/a
93.2305	0.075	186461	keystroke_i	i	n/a
93.4105	0.061	186821	keystroke_e	e	n/a
93.6355	0.0595	187271	keystroke_c	c	n/a
93.8305	0.0755	187661	keystroke_e	e	n/a
93.9355	0.12	187871	keystroke_Key.space	Key.space	n/a
94.4005	0.075	188801	keystroke_s	s	n/a
94.5355	0.105	189071	keystroke_p	p	n/a
94.746	0.09	189492	keystroke_o	o	n/a
94.926	0.105	189852	keystroke_n	n	n/a
95.0755	0.075	190151	keystroke_s	s	n/a
95.3155	0.0905	190631	keystroke_o	o	n/a
95.4965	0.0745	190993	keystroke_r	r	n/a
95.796	0.075	191592	keystroke_s	s	n/a
95.916	0.075	191832	keystroke_h	h	n/a
96.096	0.1195	192192	keystroke_i	i	n/a
96.3055	0.105	192611	keystroke_p	p	n/a
96.6505	0.075	193301	keystroke_Key.space	Key.space	n/a
96.9805	0.075	193961	keystroke_r	r	n/a
97.146	0.06	194292	keystroke_u	u	n/a
97.3405	0.075	194681	keystroke_l	l	n/a
97.476	0.06	194952	keystroke_e	e	n/a
97.6715	0.074	195343	keystroke_s	s	n/a
97.851	0.0745	195702	keystroke_Key.enter	Key.enter	n/a
97.9325	9.6095	195865	prompt	n/a	crafts currency vbulletin scholarship\n
98.8715	0.0745	197743	keystroke_c	c	n/a
99.0955	0.061	198191	keystroke_r	r	n/a
99.2755	0.06	198551	keystroke_a	a	n/a
99.5455	0.09	199091	keystroke_f	f	n/a
99.7705	0.076	199541	keystroke_t	t	n/a
99.9815	0.074	199963	keystroke_s	s	n/a
100.1755	0.1055	200351	keystroke_Key.space	Key.space	n/a
100.431	0.075	200862	keystroke_c	c	n/a
100.581	0.075	201162	keystroke_u	u	n/a
100.731	0.075	201462	keystroke_r	r	n/a
100.926	0.075	201852	keystroke_r	r	n/a
101.061	0.0605	202122	keystroke_e	e	n/a
101.166	0.09	202332	keystroke_n	n	n/a
101.421	0.0745	202842	keystroke_c	c	n/a
101.6455	0.0455	203291	keystroke_y	y	n/a
101.9155	0.0905	203831	keystroke_Key.space	Key.space	n/a
102.276	0.06	204552	keystroke_v	v	n/a
102.786	0.06	205572	keystroke_b	b	n/a
102.921	0.075	205842	keystroke_u	u	n/a
103.205	0.106	206410	keystroke_l	l	n/a
103.4155	0.0895	206831	keystroke_l	l	n/a
103.551	0.074	207102	keystroke_e	e	n/a
103.7765	0.0745	207553	keystroke_t	t	n/a
103.971	0.075	207942	keystroke_i	i	n/a
104.1515	0.09	208303	keystroke_n	n	n/a
104.421	0.075	208842	keystroke_Key.space	Key.space	n/a
104.901	0.0455	209802	keystroke_s	s	n/a
105.1105	0.06	210221	keystroke_c	c	n/a
105.2455	0.0755	210491	keystroke_h	h	n/a
105.456	0.045	210912	keystroke_o	o	n/a
105.696	0.09	211392	keystroke_l	l	n/a
105.861	0.0745	211722	keystroke_a	a	n/a
106.0115	0.0895	212023	keystroke_r	r	n/a
106.341	0.09	212682	keystroke_s	s	n/a
106.491	0.06	212982	keystroke_h	h	n/a
106.626	0.135	213252	keystroke_i	i	n/a
106.881	0.09	213762	keystroke_p	p	n/a
107.481	0.06	214962	keystroke_Key.enter	Key.enter	n/a
107.545	8.9825	215090	prompt	n/a	websites hill quilt intake\n
108.3365	0.075	216673	keystroke_w	w	n/a
108.5155	0.0755	217031	keystroke_e	e	n/a
108.7855	0.06	217571	keystroke_b	b	n/a
108.9805	0.075	217961	keystroke_i	i	n/a
109.101	0.0905	218202	keystroke_s	s	n/a
109.281	0.09	218562	keystroke_t	t	n/a
109.386	0.09	218772	keystroke_e	e	n/a
109.581	0.0745	219162	keystroke_Key.space	Key.space	n/a
109.701	0.075	219402	keystroke_s	s	n/a
110.121	0.044	220242	keystroke_Key.backspace	Key.backspace	n/a
110.3155	0.06	220631	keystroke_Key.backspace	Key.backspace	n/a
110.675	0.06	221350	keystroke_Key.backspace	Key.backspace	n/a
110.886	0.06	221772	keystroke_Key.backspace	Key.backspace	n/a
111.096	0.06	222192	keystroke_Key.backspace	Key.backspace	n/a
111.471	0.06	222942	keystroke_Key.backspace	Key.backspace	n/a
111.636	0.105	223272	keystroke_s	s	n/a
111.756	0.075	223512	keystroke_i	i	n/a
112.041	0.075	224082	keystroke_t	t	n/a
112.161	0.06	224322	keystroke_e	e	n/a
112.3715	0.0895	224743	keystroke_s	s	n/a
112.581	0.12	225162	keystroke_Key.space	Key.space	n/a
112.851	0.0745	225702	keystroke_h	h	n/a
113.0315	0.0745	226063	keystroke_i	i	n/a
113.286	0.075	226572	keystroke_l	l	n/a
113.451	0.09	226902	keystroke_l	l	n/a
113.631	0.12	227262	keystroke_Key.space	Key.space	n/a
113.916	0.06	227832	keystroke_q	q	n/a
114.0205	0.0755	228041	keystroke_u	u	n/a
114.2005	0.075	228401	keystroke_i	i	n/a
114.4255	0.09	228851	keystroke_l	l	n/a
114.6805	0.075	229361	keystroke_t	t	n/a
114.8905	0.1055	229781	keystroke_Key.space	Key.space	n/a
115.086	0.075	230172	keystroke_i	i	n/a
115.2355	0.09	230471	keystroke_n	n	n/a
115.416	0.0745	230832	keystroke_t	t	n/a
115.6405	0.075	231281	keystroke_a	a	n/a
115.9255	0.09	231851	keystroke_k	k	n/a
116.0755	0.06	232151	keystroke_e	e	n/a
116.4355	0.0895	232871	keystroke_Key.enter	Key.enter	n/a
116.5325	8.05	233065	prompt	n/a	ought overview diff hardwood\n
117.351	0.075	234702	keystroke_o	o	n/a
117.53	0.0755	235060	keystroke_u	u	n/a
117.7415	0.0735	235483	keystroke_t	t	n/a
118.2655	0.075	236531	keystroke_Key.backspace	Key.backspace	n/a
118.4765	0.089	236953	keystroke_g	g	n/a
118.611	0.074	237222	keystroke_h	h	n/a
118.7605	0.06	237521	keystroke_t	t	n/a
119.136	0.0745	238272	keystroke_Key.space	Key.space	n/a
119.6605	0.075	239321	keystroke_o	o	n/a
119.7955	0.075	239591	keystroke_v	v	n/a
119.9455	0.075	239891	keystroke_e	e	n/a
120.0055	0.0905	240011	keystroke_r	r	n/a
120.365	0.075	240730	keystroke_v	v	n/a
120.47	0.091	240940	keystroke_i	i	n/a
120.6055	0.0605	241211	keystroke_e	e	n/a
120.635	0.121	241270	keystroke_w	w	n/a
120.861	0.09	241722	keystroke_Key.space	Key.space	n/a
121.281	0.075	242562	keystroke_d	d	n/a
121.386	0.075	242772	keystroke_i	i	n/a
121.67	0.061	243340	keystroke_f	f	n/a
121.8505	0.075	243701	keystroke_f	f	n/a
121.956	0.1195	243912	keystroke_Key.space	Key.space	n/a
122.301	0.0605	244602	keystroke_h	h	n/a
122.4355	0.0595	244871	keystroke_a	a	n/a
122.556	0.105	245112	keystroke_r	r	n/a
122.78	0.0605	245560	keystroke_d	d	n/a
123.2605	0.075	246521	keystroke_w	w	n/a
123.501	0.0905	247002	keystroke_o	o	n/a
123.681	0.09	247362	keystroke_o	o	n/a
123.846	0.06	247692	keystroke_d	d	n/a
124.52	0.0605	249040	keystroke_Key.enter	Key.enter	n/a
124.587	6.5675	249174	prompt	n/a	franklin urban create terms\n
125.2715	0.0595	250543	keystroke_f	f	n/a
125.406	0.0895	250812	keystroke_r	r	n/a
125.6755	0.015	251351	keystroke_a	a	n/a
125.721	0.09	251442	keystroke_n	n	n/a
125.8705	0.1055	251741	keystroke_k	k	n/a
126.1405	0.1045	252281	keystroke_l	l	n/a
126.306	0.0895	252612	keystroke_i	i	n/a
126.501	0.09	253002	keystroke_n	n	n/a
126.846	0.075	253692	keystroke_Key.space	Key.space	n/a
127.311	0.0445	254622	keystroke_u	u	n/a
127.506	0.0595	255012	keystroke_r	r	n/a
127.8065	0.074	255613	keystroke_b	b	n/a
127.9855	0.0755	255971	keystroke_a	a	n/a
128.1055	0.09	256211	keystroke_n	n	n/a
128.3005	0.0895	256601	keystroke_Key.space	Key.space	n/a
128.871	0.06	257742	keystroke_c	c	n/a
129.065	0.091	258130	keystroke_r	r	n/a
129.141	0.09	258282	keystroke_e	e	n/a
129.275	0.076	258550	keystroke_a	a	n/a
129.411	0.105	258822	keystroke_t	t	n/a
129.561	0.015	259122	keystroke_e	e	n/a
129.725	0.136	259450	keystroke_Key.space	Key.space	n/a
130.056	0.09	260112	keystroke_t	t	n/a
130.266	0.0595	260532	keystroke_e	e	n/a
130.3555	0.09	260711	keystroke_r	r	n/a
130.506	0.0745	261012	keystroke_m	m	n/a
130.701	0.06	261402	keystroke_s	s	n/a
131.076	0.0745	262152	keystroke_Key.enter	Key.enter	n/a
131.1585	7.5385	262317	prompt	n/a	homework packing sell accepting\n
131.901	0.0745	263802	keystroke_h	h	n/a
132.081	0.075	264162	keystroke_o	o	n/a
132.32	0.0605	264640	keystroke_e	e	n/a
132.8755	0.06	265751	keystroke_Key.backspace	Key.backspace	n/a
133.0855	0.1045	266171	keystroke_m	m	n/a
133.2355	0.0755	266471	keystroke_e	e	n/a
133.64	0.075	267280	keystroke_w	w	n/a
133.776	0.075	267552	keystroke_o	o	n/a
133.9555	0.075	267911	keystroke_r	r	n/a
134.016	0.0895	268032	keystroke_k	k	n/a
134.2405	0.105	268481	keystroke_Key.space	Key.space	n/a
134.5115	0.0895	269023	keystroke_p	p	n/a
134.631	0.1045	269262	keystroke_a	a	n/a
134.8555	0.06	269711	keystroke_c	c	n/a
134.961	0.0895	269922	keystroke_k	k	n/a
135.1855	0.0605	270371	keystroke_i	i	n/a
135.3505	0.0905	270701	keystroke_n	n	n/a
135.456	0.075	270912	keystroke_g	g	n/a
135.591	0.0895	271182	keystroke_Key.space	Key.space	n/a
135.801	0.0745	271602	keystroke_s	s	n/a
135.9655	0.1055	271931	keystroke_e	e	n/a
136.1455	0.09	272291	keystroke_l	l	n/a
136.3255	0.105	272651	keystroke_l	l	n/a
136.521	0.105	273042	keystroke_Key.space	Key.space	n/a
136.8355	0.0895	273671	keystroke_a	a	n/a
137.121	0.074	274242	keystroke_c	c	n/a
137.27	0.061	274540	keystroke_c	c	n/a
137.481	0.059	274962	keystroke_e	e	n/a
137.66	0.091	275320	keystroke_p	p	n/a
137.856	0.074	275712	keystroke_t	t	n/a
138.036	0.089	276072	keystroke_i	i	n/a
138.23	0.075	276460	keystroke_n	n	n/a
138.351	0.06	276702	keystroke_g	g	n/a
138.6355	0.06	277271	keystroke_Key.enter	Key.enter	n/a
138.7025	8.815	277405	prompt	n/a	listprice graduation difference third\n
139.521	0.09	279042	keystroke_l	l	n/a
139.7	0.0905	279400	keystroke_i	i	n/a
140.0605	0.0605	280121	keystroke_s	s	n/a
140.241	0.0595	280482	keystroke_t	t	n/a
140.7505	0.1055	281501	keystroke_p	p	n/a
140.961	0.059	281922	keystroke_r	r	n/a
141.051	0.075	282102	keystroke_i	i	n/a
141.2155	0.0895	282431	keystroke_c	c	n/a
141.4255	0.06	282851	keystroke_e	e	n/a
141.5605	0.135	283121	keystroke_Key.space	Key.space	n/a
141.8605	0.06	283721	keystroke_g	g	n/a
142.056	0.0745	284112	keystroke_r	r	n/a
142.2205	0.075	284441	keystroke_a	a	n/a
142.986	0.0745	285972	keystroke_d	d	n/a
143.1505	0.06	286301	keystroke_u	u	n/a
143.3755	0.0755	286751	keystroke_a	a	n/a
143.6455	0.015	287291	keystroke_t	t	n/a
143.7355	0.1055	287471	keystroke_i	i	n/a
143.8705	0.1355	287741	keystroke_o	o	n/a
144.066	0.09	288132	keystroke_n	n	n/a
144.29	0.075	288580	keystroke_Key.space	Key.space	n/a
144.501	0.0745	289002	keystroke_d	d	n/a
144.6655	0.075	289331	keystroke_i	i	n/a
144.8905	0.075	289781	keystroke_f	f	n/a
145.041	0.0895	290082	keystroke_f	f	n/a
145.2655	0.0155	290531	keystroke_e	e	n/a
145.31	0.0755	290620	keystroke_r	r	n/a
145.566	0.044	291132	keystroke_e	e	n/a
145.701	0.074	291402	keystroke_n	n	n/a
145.851	0.074	291702	keystroke_c	c	n/a
146.0455	0.0595	292091	keystroke_e	e	n/a
146.1205	0.0895	292241	keystroke_Key.space	Key.space	n/a
146.39	0.06	292780	keystroke_t	t	n/a
146.5415	0.0745	293083	keystroke_h	h	n/a
146.6755	0.0745	293351	keystroke_i	i	n/a
146.886	0.075	293772	keystroke_r	r	n/a
147.14	0.061	294280	keystroke_d	d	n/a
147.456	0.06	294912	keystroke_Key.enter	Key.enter	n/a
147.5225	8.905	295045	prompt	n/a	serve brazil bone foreign\n
148.2055	0.09	296411	keystroke_s	s	n/a
148.3855	0.075	296771	keystroke_e	e	n/a
148.49	0.09	296980	keystroke_r	r	n/a
148.775	0.09	297550	keystroke_v	v	n/a
149.0155	0.075	298031	keystroke_e	e	n/a
149.0755	0.075	298151	keystroke_r	r	n/a
149.3155	0.09	298631	keystroke_Key.space	Key.space	n/a
149.705	0.0605	299410	keystroke_b	b	n/a
149.9155	0.075	299831	keystroke_r	r	n/a
150.0955	0.075	300191	keystroke_a	a	n/a
150.5305	0.075	301061	keystroke_z	z	n/a
150.6805	0.075	301361	keystroke_i	i	n/a
150.9355	0.09	301871	keystroke_l	l	n/a
151.2205	0.0745	302441	keystroke_Key.space	Key.space	n/a
151.475	0.076	302950	keystroke_b	b	n/a
151.595	0.091	303190	keystroke_o	o	n/a
151.775	0.075	303550	keystroke_n	n	n/a
151.985	0.061	303970	keystroke_e	e	n/a
152.166	0.089	304332	keystroke_Key.space	Key.space	n/a
152.556	0.06	305112	keystroke_f	f	n/a
152.706	0.075	305412	keystroke_o	o	n/a
153.065	0.06	306130	keystroke_e	e	n/a
153.321	0.029	306642	keystroke_i	i	n/a
153.6655	0.0595	307331	keystroke_Key.backspace	Key.backspace	n/a
153.8455	0.075	307691	keystroke_Key.backspace	Key.backspace	n/a
153.966	0.105	307932	keystroke_r	r	n/a
154.2655	0.06	308531	keystroke_e	e	n/a
154.415	0.0905	308830	keystroke_i	i	n/a
154.671	0.06	309342	keystroke_g	g	n/a
154.8955	0.045	309791	keystroke_h	h	n/a
155.3005	0.06	310601	keystroke_Key.backspace	Key.backspace	n/a
155.5255	0.0895	311051	keystroke_n	n	n/a
156.3505	0.075	312701	keystroke_Key.enter	Key.enter	n/a
156.4315	9.521	312863	prompt	n/a	parade roberts bennett analyst\n
157.2955	0.075	314591	keystroke_p	p	n/a
157.431	0.089	314862	keystroke_a	a	n/a
157.5655	0.105	315131	keystroke_r	r	n/a
157.7905	0.0905	315581	keystroke_a	a	n/a
158.1055	0.06	316211	keystroke_d	d	n/a
158.3005	0.06	316601	keystroke_e	e	n/a
158.4655	0.105	316931	keystroke_Key.space	Key.space	n/a
158.6905	0.075	317381	keystroke_r	r	n/a
158.8255	0.09	317651	keystroke_o	o	n/a
159.05	0.0755	318100	keystroke_b	b	n/a
159.23	0.06	318460	keystroke_e	e	n/a
159.275	0.09	318550	keystroke_r	r	n/a
159.576	0.06	319152	keystroke_t	t	n/a
159.816	0.074	319632	keystroke_s	s	n/a
159.98	0.09	319960	keystroke_Key.space	Key.space	n/a
160.3255	0.06	320651	keystroke_b	b	n/a
160.5355	0.06	321071	keystroke_e	e	n/a
161.1055	0.0755	322211	keystroke_n	n	n/a
161.2855	0.075	322571	keystroke_n	n	n/a
161.4355	0.075	322871	keystroke_e	e	n/a
161.645	0.061	323290	keystroke_t	t	n/a
161.901	0.075	323802	keystroke_t	t	n/a
162.141	0.089	324282	keystroke_Key.space	Key.space	n/a
162.381	0.09	324762	keystroke_a	a	n/a
162.501	0.0895	325002	keystroke_n	n	n/a
162.7255	0.0895	325451	keystroke_a	a	n/a
162.875	0.075	325750	keystroke_l	l	n/a
163.1755	0.045	326351	keystroke_y	y	n/a
163.5805	0.105	327161	keystroke_s	s	n/a
163.7905	0.06	327581	keystroke_t	t	n/a
165.937	0.014	331874	keystroke_Key.enter	Key.enter	n/a
165.9575	6.3695	331915	prompt	n/a	league nuts teach latex\n
166.686	0.074	333372	keystroke_l	l	n/a
166.82	0.091	333640	keystroke_e	e	n/a
166.9855	0.06	333971	keystroke_a	a	n/a
167.2105	0.09	334421	keystroke_g	g	n/a
167.3455	0.06	334691	keystroke_u	u	n/a
167.5705	0.075	335141	keystroke_e	e	n/a
167.7805	0.105	335561	keystroke_Key.space	Key.space	n/a
168.0655	0.075	336131	keystroke_n	n	n/a
168.3055	0.0755	336611	keystroke_u	u	n/a
168.471	0.09	336942	keystroke_t	t	n/a
168.68	0.09	337360	keystroke_s	s	n/a
168.8155	0.1195	337631	keystroke_Key.space	Key.space	n/a
169.146	0.075	338292	keystroke_t	t	n/a
169.25	0.1205	338500	keystroke_e	e	n/a
169.491	0.044	338982	keystroke_a	a	n/a
169.9405	0.0445	339881	keystroke_c	c	n/a
170.105	0.06	340210	keystroke_h	h	n/a
170.3455	0.075	340691	keystroke_Key.space	Key.space	n/a
170.976	0.045	341952	keystroke_l	l	n/a
171.066	0.1045	342132	keystroke_a	a	n/a
171.425	0.0455	342850	keystroke_t	t	n/a
171.575	0.075	343150	keystroke_e	e	n/a
171.86	0.09	343720	keystroke_x	x	n/a
172.265	0.06	344530	keystroke_Key.enter	Key.enter	n/a
172.331	11.2015	344662	prompt	n/a	stages management riders several\n
173.1505	0.06	346301	keystroke_s	s	n/a
173.3305	0.075	346661	keystroke_t	t	n/a
173.481	0.0895	346962	keystroke_a	a	n/a
173.7205	0.075	347441	keystroke_g	g	n/a
173.8855	0.0605	347771	keystroke_e	e	n/a
174.081	0.074	348162	keystroke_s	s	n/a
174.245	0.09	348490	keystroke_Key.space	Key.space	n/a
174.8155	0.12	349631	keystroke_m	m	n/a
174.9805	0.105	349961	keystroke_a	a	n/a
175.1455	0.09	350291	keystroke_n	n	n/a
175.28	0.1205	350560	keystroke_a	a	n/a
175.535	0.076	351070	keystroke_g	g	n/a
175.76	0.076	351520	keystroke_e	e	n/a
175.925	0.106	351850	keystroke_m	m	n/a
176.105	0.0905	352210	keystroke_e	e	n/a
176.24	0.0905	352480	keystroke_n	n	n/a
176.421	0.0595	352842	keystroke_t	t	n/a
176.6305	0.0595	353261	keystroke_Key.space	Key.space	n/a
176.9755	0.0905	353951	keystroke_r	r	n/a
177.0955	0.0905	354191	keystroke_i	i	n/a
177.291	0.06	354582	keystroke_d	d	n/a
177.486	0.06	354972	keystroke_e	e	n/a
177.651	0.074	355302	keystroke_r	r	n/a
177.861	0.075	355722	keystroke_s	s	n/a
177.981	0.089	355962	keystroke_Key.space	Key.space	n/a
178.22	0.1055	356440	keystroke_e	e	n/a
178.5055	0.0905	357011	keystroke_v	v	n/a
178.7	0.046	357400	keystroke_e	e	n/a
178.7605	0.0905	357521	keystroke_r	r	n/a
179.2855	0.0755	358571	keystroke_a	a	n/a
179.7955	0.06	359591	keystroke_Key.backspace	Key.backspace	n/a
179.99	0.06	359980	keystroke_Key.backspace	Key.backspace	n/a
180.1555	0.0595	360311	keystroke_Key.backspace	Key.backspace	n/a
180.3205	0.0595	360641	keystroke_Key.backspace	Key.backspace	n/a
180.5	0.045	361000	keystroke_Key.backspace	Key.backspace	n/a
180.6805	0.0595	361361	keystroke_Key.backspace	Key.backspace	n/a
181.1605	0.075	362321	keystroke_Key.space	Key.space	n/a
181.341	0.0895	362682	keystroke_s	s	n/a
181.5655	0.0755	363131	keystroke_e	e	n/a
182.211	0.1045	364422	keystroke_v	v	n/a
182.436	0.0595	364872	keystroke_e	e	n/a
182.496	0.0745	364992	keystroke_r	r	n/a
182.826	0.089	365652	keystroke_a	a	n/a
183.021	0.059	366042	keystroke_l	l	n/a
183.4705	0.06	366941	keystroke_Key.enter	Key.enter	n/a
183.5365	10.525	367073	prompt	n/a	greenhouse scenario upgrades humans\n
184.3405	0.075	368681	keystroke_g	g	n/a
184.5355	0.0605	369071	keystroke_r	r	n/a
184.626	0.134	369252	keystroke_e	e	n/a
185.061	0.0895	370122	keystroke_n	n	n/a
185.5255	0.06	371051	keystroke_Key.backspace	Key.backspace	n/a
185.661	0.0595	371322	keystroke_e	e	n/a
185.78	0.0905	371560	keystroke_n	n	n/a
186.2455	0.075	372491	keystroke_h	h	n/a
186.47	0.106	372940	keystroke_o	o	n/a
186.6655	0.0905	373331	keystroke_u	u	n/a
186.8605	0.075	373721	keystroke_s	s	n/a
187.0105	0.075	374021	keystroke_e	e	n/a
187.1455	0.105	374291	keystroke_Key.space	Key.space	n/a
187.3855	0.1045	374771	keystroke_s	s	n/a
187.6255	0.075	375251	keystroke_c	c	n/a
187.85	0.061	375700	keystroke_e	e	n/a
187.9855	0.075	375971	keystroke_n	n	n/a
188.421	0.09	376842	keystroke_a	a	n/a
188.6755	0.0745	377351	keystroke_r	r	n/a
189.051	0.014	378102	keystroke_i	i	n/a
189.665	0.061	379330	keystroke_o	o	n/a
189.995	0.076	379990	keystroke_Key.space	Key.space	n/a
190.3555	0.03	380711	keystroke_u	u	n/a
190.4605	0.12	380921	keystroke_p	p	n/a
190.8355	0.06	381671	keystroke_g	g	n/a
191.031	0.0895	382062	keystroke_r	r	n/a
191.1805	0.09	382361	keystroke_a	a	n/a
191.4055	0.0595	382811	keystroke_d	d	n/a
191.5855	0.0605	383171	keystroke_e	e	n/a
191.7655	0.09	383531	keystroke_s	s	n/a
191.9755	0.075	383951	keystroke_Key.space	Key.space	n/a
192.2005	0.075	384401	keystroke_h	h	n/a
192.4255	0.0755	384851	keystroke_u	u	n/a
192.7405	0.0905	385481	keystroke_m	m	n/a
192.9055	0.105	385811	keystroke_a	a	n/a
193.041	0.0595	386082	keystroke_n	n	n/a
193.341	0.0895	386682	keystroke_s	s	n/a
193.9855	0.075	387971	keystroke_Key.enter	Key.enter	n/a
194.071	6.1565	388142	prompt	n/a	been engage pills alliance\n
194.8255	0.0755	389651	keystroke_b	b	n/a
195.05	0.046	390100	keystroke_e	e	n/a
195.2	0.061	390400	keystroke_e	e	n/a
195.32	0.0755	390640	keystroke_n	n	n/a
195.4855	0.0895	390971	keystroke_Key.space	Key.space	n/a
195.65	0.06	391300	keystroke_e	e	n/a
195.786	0.075	391572	keystroke_n	n	n/a
196.041	0.06	392082	keystroke_g	g	n/a
196.236	0.0895	392472	keystroke_a	a	n/a
196.55	0.075	393100	keystroke_g	g	n/a
196.73	0.06	393460	keystroke_e	e	n/a
196.8955	0.1045	393791	keystroke_Key.space	Key.space	n/a
197.075	0.136	394150	keystroke_p	p	n/a
197.2855	0.12	394571	keystroke_i	i	n/a
197.616	0.0895	395232	keystroke_l	l	n/a
197.8105	0.075	395621	keystroke_l	l	n/a
197.945	0.09	395890	keystroke_s	s	n/a
198.14	0.075	396280	keystroke_Key.space	Key.space	n/a
198.5005	0.09	397001	keystroke_a	a	n/a
198.651	0.0895	397302	keystroke_l	l	n/a
198.845	0.106	397690	keystroke_l	l	n/a
199.0405	0.09	398081	keystroke_i	i	n/a
199.2205	0.09	398441	keystroke_a	a	n/a
199.4005	0.0755	398801	keystroke_n	n	n/a
199.7155	0.06	399431	keystroke_c	c	n/a
199.9105	0.06	399821	keystroke_e	e	n/a
200.166	0.0595	400332	keystroke_Key.enter	Key.enter	n/a
200.231	8.5015	400462	prompt	n/a	clusters chef permalink those\n
201.0505	0.0905	402101	keystroke_c	c	n/a
201.2455	0.075	402491	keystroke_l	l	n/a
201.441	0.0595	402882	keystroke_u	u	n/a
201.6055	0.0755	403211	keystroke_s	s	n/a
201.8005	0.075	403601	keystroke_t	t	n/a
201.921	0.09	403842	keystroke_e	e	n/a
202.0855	0.06	404171	keystroke_r	r	n/a
202.296	0.075	404592	keystroke_s	s	n/a
202.5505	0.135	405101	keystroke_Key.space	Key.space	n/a
203.3005	0.0755	406601	keystroke_c	c	n/a
203.4955	0.045	406991	keystroke_h	h	n/a
203.706	0.0595	407412	keystroke_e	e	n/a
204.066	0.0445	408132	keystroke_f	f	n/a
204.3055	0.09	408611	keystroke_Key.space	Key.space	n/a
204.591	0.0745	409182	keystroke_m	m	n/a
205.0255	0.0755	410051	keystroke_Key.backspace	Key.backspace	n/a
205.281	0.12	410562	keystroke_p	p	n/a
205.431	0.06	410862	keystroke_e	e	n/a
205.536	0.09	411072	keystroke_r	r	n/a
205.746	0.09	411492	keystroke_m	m	n/a
205.986	0.075	411972	keystroke_a	a	n/a
206.241	0.09	412482	keystroke_l	l	n/a
206.421	0.09	412842	keystroke_i	i	n/a
206.616	0.0895	413232	keystroke_n	n	n/a
206.825	0.06	413650	keystroke_k	k	n/a
207.155	0.105	414310	keystroke_Key.space	Key.space	n/a
207.6805	0.0745	415361	keystroke_t	t	n/a
207.816	0.059	415632	keystroke_h	h	n/a
207.95	0.0755	415900	keystroke_o	o	n/a
208.1155	0.0755	416231	keystroke_s	s	n/a
208.2355	0.1055	416471	keystroke_e	e	n/a
208.6705	0.06	417341	keystroke_Key.enter	Key.enter	n/a
208.7365	9.1455	417473	prompt	n/a	prince hollywood exhaust cult\n
209.421	0.105	418842	keystroke_p	p	n/a
209.6	0.0755	419200	keystroke_r	r	n/a
209.7055	0.1045	419411	keystroke_i	i	n/a
209.9305	0.0745	419861	keystroke_n	n	n/a
210.0805	0.0745	420161	keystroke_c	c	n/a
210.29	0.06	420580	keystroke_e	e	n/a
210.455	0.1205	420910	keystroke_Key.space	Key.space	n/a
210.966	0.045	421932	keystroke_h	h	n/a
211.13	0.09	422260	keystroke_o	o	n/a
211.476	0.1045	422952	keystroke_l	l	n/a
211.656	0.1045	423312	keystroke_l	l	n/a
211.9105	0.06	423821	keystroke_y	y	n/a
212.1805	0.075	424361	keystroke_w	w	n/a
212.3605	0.09	424721	keystroke_o	o	n/a
212.6755	0.105	425351	keystroke_o	o	n/a
212.8705	0.06	425741	keystroke_d	d	n/a
213.0655	0.1045	426131	keystroke_Key.space	Key.space	n/a
213.545	0.0905	427090	keystroke_e	e	n/a
213.785	0.09	427570	keystroke_x	x	n/a
214.0855	0.06	428171	keystroke_h	h	n/a
214.2505	0.0905	428501	keystroke_a	a	n/a
214.6105	0.0595	429221	keystroke_u	u	n/a
214.791	0.0895	429582	keystroke_s	s	n/a
215.0455	0.0145	430091	keystroke_e	e	n/a
215.4355	0.0895	430871	keystroke_Key.backspace	Key.backspace	n/a
215.6005	0.0605	431201	keystroke_t	t	n/a
215.7805	0.0895	431561	keystroke_Key.space	Key.space	n/a
216.26	0.06	432520	keystroke_c	c	n/a
216.4105	0.06	432821	keystroke_u	u	n/a
216.621	0.09	433242	keystroke_l	l	n/a
216.8755	0.0605	433751	keystroke_t	t	n/a
217.8205	0.06	435641	keystroke_Key.enter	Key.enter	n/a
217.8875	9.369	435775	prompt	n/a	slim leslie gardens catalogue\n
218.631	0.09	437262	keystroke_s	s	n/a
218.7655	0.0745	437531	keystroke_l	l	n/a
218.931	0.105	437862	keystroke_i	i	n/a
219.14	0.091	438280	keystroke_m	m	n/a
219.365	0.075	438730	keystroke_Key.space	Key.space	n/a
219.755	0.1205	439510	keystroke_l	l	n/a
220.0405	0.075	440081	keystroke_e	e	n/a
220.31	0.0755	440620	keystroke_s	s	n/a
220.6405	0.0605	441281	keystroke_l	l	n/a
220.805	0.0905	441610	keystroke_i	i	n/a
221.03	0.06	442060	keystroke_e	e	n/a
221.2555	0.06	442511	keystroke_Key.space	Key.space	n/a
221.5405	0.075	443081	keystroke_g	g	n/a
221.69	0.0755	443380	keystroke_a	a	n/a
221.826	0.0895	443652	keystroke_r	r	n/a
222.1995	0.061	444399	keystroke_d	d	n/a
222.4405	0.06	444881	keystroke_e	e	n/a
222.576	0.0745	445152	keystroke_n	n	n/a
222.9205	0.0895	445841	keystroke_s	s	n/a
223.1755	0.1045	446351	keystroke_Key.space	Key.space	n/a
223.686	0.089	447372	keystroke_c	c	n/a
223.881	0.0745	447762	keystroke_a	a	n/a
224	0.09	448000	keystroke_t	t	n/a
224.2855	0.075	448571	keystroke_a	a	n/a
224.5255	0.09	449051	keystroke_l	l	n/a
224.811	0.0745	449622	keystroke_o	o	n/a
225.11	0.06	450220	keystroke_g	g	n/a
225.425	0.076	450850	keystroke_u	u	n/a
225.68	0.091	451360	keystroke_e	e	n/a
227.1955	0.06	454391	keystroke_Key.enter	Key.enter	n/a
227.26	8.427	454520	prompt	n/a	roster munich duty intent\n
228.0955	0.075	456191	keystroke_r	r	n/a
228.1715	0.059	456343	keystroke_e	e	n/a
228.3505	0.0755	456701	keystroke_o	o	n/a
228.7405	0.0595	457481	keystroke_Key.backspace	Key.backspace	n/a
228.9355	0.06	457871	keystroke_Key.backspace	Key.backspace	n/a
229.2205	0.06	458441	keystroke_o	o	n/a
229.5205	0.0905	459041	keystroke_s	s	n/a
229.761	0.0745	459522	keystroke_t	t	n/a
229.9255	0.0605	459851	keystroke_e	e	n/a
230	0.0755	460000	keystroke_r	r	n/a
230.1945	0.105	460389	keystroke_Key.space	Key.space	n/a
230.7205	0.09	461441	keystroke_m	m	n/a
230.991	0.074	461982	keystroke_u	u	n/a
231.276	0.105	462552	keystroke_n	n	n/a
231.53	0.06	463060	keystroke_i	i	n/a
232.101	0.074	464202	keystroke_c	c	n/a
232.2505	0.059	464501	keystroke_h	h	n/a
232.475	0.09	464950	keystroke_Key.space	Key.space	n/a
233.0155	0.12	466031	keystroke_d	d	n/a
233.27	0.0745	466540	keystroke_u	u	n/a
233.8255	0.0745	467651	keystroke_t	t	n/a
234.005	0.06	468010	keystroke_y	y	n/a
234.26	0.0905	468520	keystroke_Key.space	Key.space	n/a
234.455	0.075	468910	keystroke_i	i	n/a
234.635	0.0905	469270	keystroke_n	n	n/a
234.8005	0.12	469601	keystroke_t	t	n/a
234.9355	0.0755	469871	keystroke_e	e	n/a
235.1155	0.075	470231	keystroke_n	n	n/a
235.34	0.06	470680	keystroke_t	t	n/a
235.6255	0.0595	471251	keystroke_Key.enter	Key.enter	n/a
235.692	9.2645	471384	prompt	n/a	soccer operation beauty analyze\n
236.5405	0.105	473081	keystroke_s	s	n/a
236.7045	0.091	473409	keystroke_o	o	n/a
236.9605	0.074	473921	keystroke_c	c	n/a
237.425	0.09	474850	keystroke_c	c	n/a
237.695	0.06	475390	keystroke_e	e	n/a
237.83	0.075	475660	keystroke_r	r	n/a
237.965	0.1055	475930	keystroke_Key.space	Key.space	n/a
238.28	0.09	476560	keystroke_o	o	n/a
238.4905	0.0755	476981	keystroke_p	p	n/a
238.61	0.105	477220	keystroke_e	e	n/a
238.745	0.105	477490	keystroke_r	r	n/a
238.9555	0.0595	477911	keystroke_a	a	n/a
239.1055	0.0595	478211	keystroke_t	t	n/a
239.226	0.104	478452	keystroke_i	i	n/a
239.3	0.135	478600	keystroke_o	o	n/a
239.4805	0.0895	478961	keystroke_n	n	n/a
239.675	0.09	479350	keystroke_Key.space	Key.space	n/a
240.0355	0.0745	480071	keystroke_b	b	n/a
240.2755	0.076	480551	keystroke_e	e	n/a
240.4405	0.0755	480881	keystroke_a	a	n/a
240.6055	0.06	481211	keystroke_u	u	n/a
240.9205	0.075	481841	keystroke_t	t	n/a
241.1455	0.0745	482291	keystroke_y	y	n/a
241.46	0.09	482920	keystroke_Key.space	Key.space	n/a
241.6405	0.0895	483281	keystroke_a	a	n/a
241.88	0.105	483760	keystroke_n	n	n/a
242.4055	0.09	484811	keystroke_a	a	n/a
242.5855	0.105	485171	keystroke_l	l	n/a
242.976	0.0445	485952	keystroke_y	y	n/a
243.1705	0.105	486341	keystroke_z	z	n/a
244.1755	0.075	488351	keystroke_e	e	n/a
244.8795	0.076	489759	keystroke_Key.enter	Key.enter	n/a
244.9595	8.037	489919	prompt	n/a	guests establishing toilet project\n
245.6755	0.075	491351	keystroke_g	g	n/a
245.8105	0.06	491621	keystroke_u	u	n/a
245.961	0.0745	491922	keystroke_e	e	n/a
246.156	0.0745	492312	keystroke_s	s	n/a
246.291	0.09	492582	keystroke_t	t	n/a
246.5005	0.075	493001	keystroke_s	s	n/a
246.6805	0.075	493361	keystroke_Key.space	Key.space	n/a
247.0555	0.0745	494111	keystroke_e	e	n/a
247.28	0.0755	494560	keystroke_s	s	n/a
247.4905	0.075	494981	keystroke_t	t	n/a
247.6855	0.0605	495371	keystroke_a	a	n/a
248.091	0.059	496182	keystroke_b	b	n/a
248.256	0.074	496512	keystroke_l	l	n/a
248.3905	0.1195	496781	keystroke_i	i	n/a
248.5855	0.0895	497171	keystroke_s	s	n/a
248.84	0.0755	497680	keystroke_h	h	n/a
249.1105	0.045	498221	keystroke_i	i	n/a
249.2605	0.12	498521	keystroke_n	n	n/a
249.3955	0.075	498791	keystroke_g	g	n/a
249.5605	0.09	499121	keystroke_Key.space	Key.space	n/a
249.89	0.0605	499780	keystroke_t	t	n/a
250.0405	0.09	500081	keystroke_o	o	n/a
250.1905	0.1045	500381	keystroke_i	i	n/a
250.58	0.0755	501160	keystroke_l	l	n/a
250.7455	0.0745	501491	keystroke_e	e	n/a
250.955	0.0755	501910	keystroke_t	t	n/a
251.0755	0.105	502151	keystroke_Key.space	Key.space	n/a
251.2555	0.1355	502511	keystroke_p	p	n/a
251.645	0.0755	503290	keystroke_r	r	n/a
251.8105	0.0745	503621	keystroke_o	o	n/a
252.065	0.09	504130	keystroke_j	j	n/a
252.26	0.1055	504520	keystroke_e	e	n/a
252.4705	0.075	504941	keystroke_c	c	n/a
252.6655	0.075	505331	keystroke_t	t	n/a
252.935	0.06	505870	keystroke_Key.enter	Key.enter	n/a
253	12.177	506000	prompt	n/a	visitor concentration analyst siemens\n
253.791	0.0745	507582	keystroke_v	v	n/a
253.9555	0.075	507911	keystroke_i	i	n/a
254.1355	0.09	508271	keystroke_s	s	n/a
254.3455	0.075	508691	keystroke_i	i	n/a
254.5405	0.075	509081	keystroke_t	t	n/a
254.72	0.0755	509440	keystroke_o	o	n/a
254.8255	0.0745	509651	keystroke_r	r	n/a
254.975	0.0905	509950	keystroke_Key.space	Key.space	n/a
255.2305	0.06	510461	keystroke_c	c	n/a
255.381	0.0895	510762	keystroke_o	o	n/a
255.5455	0.0745	511091	keystroke_n	n	n/a
255.8755	0.075	511751	keystroke_c	c	n/a
256.0855	0.045	512171	keystroke_e	e	n/a
256.2505	0.06	512501	keystroke_n	n	n/a
256.4005	0.074	512801	keystroke_t	t	n/a
256.7895	0.061	513579	keystroke_r	r	n/a
257.0455	0.0895	514091	keystroke_a	a	n/a
257.3	0.0755	514600	keystroke_t	t	n/a
257.466	0.0595	514932	keystroke_i	i	n/a
257.5105	0.135	515021	keystroke_o	o	n/a
257.7055	0.09	515411	keystroke_n	n	n/a
257.9155	0.105	515831	keystroke_Key.space	Key.space	n/a
258.3505	0.075	516701	keystroke_a	a	n/a
258.5005	0.09	517001	keystroke_l	l	n/a
258.6805	0.09	517361	keystroke_a	a	n/a
258.845	0.06	517690	keystroke_n	n	n/a
259.5055	0.0745	519011	keystroke_Key.backspace	Key.backspace	n/a
259.7755	0.0895	519551	keystroke_l	l	n/a
260.1355	0.0445	520271	keystroke_Key.backspace	Key.backspace	n/a
260.3	0.0745	520600	keystroke_Key.backspace	Key.backspace	n/a
260.4945	0.0755	520989	keystroke_Key.backspace	Key.backspace	n/a
260.75	0.0905	521500	keystroke_n	n	n/a
260.9305	0.0895	521861	keystroke_a	a	n/a
261.0505	0.105	522101	keystroke_l	l	n/a
261.3655	0.075	522731	keystroke_y	y	n/a
261.695	0.1205	523390	keystroke_s	s	n/a
261.89	0.0755	523780	keystroke_t	t	n/a
262.19	0.0905	524380	keystroke_Key.space	Key.space	n/a
262.4605	0.0745	524921	keystroke_s	s	n/a
262.6255	0.0745	525251	keystroke_i	i	n/a
262.835	0.075	525670	keystroke_e	e	n/a
263.24	0.09	526480	keystroke_m	m	n/a
263.54	0.075	527080	keystroke_e	e	n/a
263.675	0.0895	527350	keystroke_n	n	n/a
263.9905	0.06	527981	keystroke_s	s	n/a
265.1155	0.06	530231	keystroke_Key.enter	Key.enter	n/a
265.184	8.813	530368	prompt	n/a	salary but positioning ships\n
266.015	0.075	532030	keystroke_s	s	n/a
266.195	0.06	532390	keystroke_a	a	n/a
266.3	0.0905	532600	keystroke_l	l	n/a
266.5405	0.1045	533081	keystroke_a	a	n/a
266.735	0.0755	533470	keystroke_r	r	n/a
266.9005	0.0595	533801	keystroke_y	y	n/a
267.14	0.1055	534280	keystroke_Key.space	Key.space	n/a
267.3345	0.061	534669	keystroke_b	b	n/a
267.4855	0.075	534971	keystroke_u	u	n/a
267.6655	0.059	535331	keystroke_t	t	n/a
267.8295	0.075	535659	keystroke_Key.space	Key.space	n/a
268.055	0.12	536110	keystroke_p	p	n/a
268.2655	0.0745	536531	keystroke_o	o	n/a
268.4455	0.09	536891	keystroke_s	s	n/a
268.6105	0.1055	537221	keystroke_i	i	n/a
268.8355	0.075	537671	keystroke_t	t	n/a
268.9555	0.0895	537911	keystroke_i	i	n/a
269.15	0.1055	538300	keystroke_n	n	n/a
269.3605	0.074	538721	keystroke_g	g	n/a
270.08	0.0605	540160	keystroke_Key.backspace	Key.backspace	n/a
270.2755	0.09	540551	keystroke_Key.backspace	Key.backspace	n/a
270.8905	0.09	541781	keystroke_o	o	n/a
271.1445	0.106	542289	keystroke_n	n	n/a
271.46	0.06	542920	keystroke_i	i	n/a
271.61	0.0905	543220	keystroke_n	n	n/a
271.7605	0.06	543521	keystroke_g	g	n/a
271.9255	0.089	543851	keystroke_Key.space	Key.space	n/a
272.12	0.09	544240	keystroke_s	s	n/a
272.255	0.06	544510	keystroke_h	h	n/a
272.3905	0.12	544781	keystroke_i	i	n/a
272.615	0.105	545230	keystroke_p	p	n/a
272.915	0.1055	545830	keystroke_s	s	n/a
273.9505	0.045	547901	keystroke_Key.enter	Key.enter	n/a
274.003	11.8735	548006	prompt	n/a	formula celebrities regions brokers\n
274.8955	0.09	549791	keystroke_f	f	n/a
275.0455	0.075	550091	keystroke_o	o	n/a
275.3305	0.0755	550661	keystroke_r	r	n/a
275.7205	0.135	551441	keystroke_m	m	n/a
276.2305	0.075	552461	keystroke_u	u	n/a
276.4695	0.076	552939	keystroke_l	l	n/a
276.6355	0.089	553271	keystroke_a	a	n/a
276.9205	0.09	553841	keystroke_Key.space	Key.space	n/a
277.7005	0.075	555401	keystroke_e	e	n/a
277.7155	0.015	555431	keystroke_3	3	n/a
277.8355	0.075	555671	keystroke_l	l	n/a
278.63	0.0455	557260	keystroke_Key.backspace	Key.backspace	n/a
278.8255	0.06	557651	keystroke_Key.backspace	Key.backspace	n/a
279.02	0.075	558040	keystroke_Key.backspace	Key.backspace	n/a
279.141	0.0745	558282	keystroke_c	c	n/a
279.3355	0.06	558671	keystroke_e	e	n/a
279.4855	0.09	558971	keystroke_l	l	n/a
279.785	0.0755	559570	keystroke_e	e	n/a
280.28	0.046	560560	keystroke_b	b	n/a
280.505	0.075	561010	keystroke_r	r	n/a
280.685	0.09	561370	keystroke_i	i	n/a
280.896	0.0595	561792	keystroke_t	t	n/a
281.0755	0.06	562151	keystroke_i	i	n/a
281.2705	0.0755	562541	keystroke_e	e	n/a
281.4805	0.075	562961	keystroke_s	s	n/a
281.6145	0.1205	563229	keystroke_Key.space	Key.space	n/a
281.9155	0.0745	563831	keystroke_r	r	n/a
282.005	0.1055	564010	keystroke_e	e	n/a
282.3805	0.075	564761	keystroke_g	g	n/a
282.5305	0.09	565061	keystroke_i	i	n/a
282.6205	0.1345	565241	keystroke_o	o	n/a
282.9055	0.1045	565811	keystroke_n	n	n/a
283.295	0.09	566590	keystroke_s	s	n/a
283.5355	0.12	567071	keystroke_Key.space	Key.space	n/a
283.88	0.06	567760	keystroke_b	b	n/a
284.09	0.0755	568180	keystroke_r	r	n/a
284.2255	0.09	568451	keystroke_o	o	n/a
284.466	0.0735	568932	keystroke_k	k	n/a
284.7505	0.075	569501	keystroke_e	e	n/a
284.9005	0.089	569801	keystroke_r	r	n/a
285.1705	0.075	570341	keystroke_s	s	n/a
285.8	0.0745	571600	keystroke_Key.enter	Key.enter	n/a
285.881	8.3205	571762	prompt	n/a	futures textile connector deficit\n
286.5805	0.0895	573161	keystroke_f	f	n/a
286.76	0.0605	573520	keystroke_u	u	n/a
287.0155	0.075	574031	keystroke_t	t	n/a
287.4055	0.06	574811	keystroke_u	u	n/a
287.5405	0.105	575081	keystroke_r	r	n/a
287.6605	0.0745	575321	keystroke_e	e	n/a
287.9	0.0905	575800	keystroke_s	s	n/a
288.065	0.135	576130	keystroke_Key.space	Key.space	n/a
288.6655	0.075	577331	keystroke_t	t	n/a
288.8605	0.1055	577721	keystroke_e	e	n/a
289.1155	0.0745	578231	keystroke_x	x	n/a
289.4	0.075	578800	keystroke_t	t	n/a
289.655	0.0755	579310	keystroke_i	i	n/a
289.8355	0.0755	579671	keystroke_l	l	n/a
289.971	0.0595	579942	keystroke_e	e	n/a
290.1355	0.104	580271	keystroke_Key.space	Key.space	n/a
290.3755	0.06	580751	keystroke_c	c	n/a
290.4645	0.106	580929	keystroke_o	o	n/a
290.6455	0.09	581291	keystroke_n	n	n/a
290.8855	0.105	581771	keystroke_n	n	n/a
291.0805	0.09	582161	keystroke_e	e	n/a
291.2755	0.0745	582551	keystroke_c	c	n/a
291.486	0.0745	582972	keystroke_t	t	n/a
291.62	0.075	583240	keystroke_o	o	n/a
291.7405	0.075	583481	keystroke_r	r	n/a
291.9355	0.089	583871	keystroke_Key.space	Key.space	n/a
292.22	0.06	584440	keystroke_d	d	n/a
292.4155	0.059	584831	keystroke_e	e	n/a
292.7155	0.06	585431	keystroke_f	f	n/a
292.9855	0.075	585971	keystroke_i	i	n/a
293.3005	0.075	586601	keystroke_c	c	n/a
293.4505	0.09	586901	keystroke_i	i	n/a
293.6605	0.0755	587321	keystroke_t	t	n/a
294.1405	0.06	588281	keystroke_Key.enter	Key.enter	n/a
294.205	6.837	588410	prompt	n/a	driven post tracking machine\n
294.8155	0.075	589631	keystroke_d	d	n/a
295.04	0.0605	590080	keystroke_r	r	n/a
295.3255	0.06	590651	keystroke_i	i	n/a
295.5055	0.0745	591011	keystroke_v	v	n/a
295.8505	0.045	591701	keystroke_e	e	n/a
295.9845	0.061	591969	keystroke_n	n	n/a
296.2695	0.09	592539	keystroke_Key.space	Key.space	n/a
296.7655	0.089	593531	keystroke_p	p	n/a
296.9605	0.089	593921	keystroke_o	o	n/a
297.125	0.075	594250	keystroke_s	s	n/a
297.2755	0.0745	594551	keystroke_t	t	n/a
297.365	0.105	594730	keystroke_Key.space	Key.space	n/a
297.6355	0.0595	595271	keystroke_t	t	n/a
297.8005	0.0745	595601	keystroke_r	r	n/a
297.98	0.0755	595960	keystroke_a	a	n/a
298.22	0.0605	596440	keystroke_c	c	n/a
298.355	0.09	596710	keystroke_k	k	n/a
298.58	0.0905	597160	keystroke_i	i	n/a
298.73	0.1055	597460	keystroke_n	n	n/a
298.881	0.0595	597762	keystroke_g	g	n/a
298.9995	0.105	597999	keystroke_Key.space	Key.space	n/a
299.66	0.09	599320	keystroke_m	m	n/a
299.78	0.0905	599560	keystroke_a	a	n/a
300.0505	0.06	600101	keystroke_c	c	n/a
300.2145	0.06	600429	keystroke_h	h	n/a
300.3505	0.075	600701	keystroke_i	i	n/a
300.5005	0.09	601001	keystroke_n	n	n/a
300.5605	0.06	601121	keystroke_e	e	n/a
300.9795	0.0605	601959	keystroke_Key.enter	Key.enter	n/a
301.0455	13.811	602091	prompt	n/a	themes seasonal louisville scientific\n
301.88	0.06	603760	keystroke_t	t	n/a
302.0005	0.045	604001	keystroke_h	h	n/a
302.1505	0.044	604301	keystroke_e	e	n/a
302.3905	0.075	604781	keystroke_m	m	n/a
302.5855	0.075	605171	keystroke_e	e	n/a
302.8705	0.059	605741	keystroke_s	s	n/a
303.0645	0.121	606129	keystroke_Key.space	Key.space	n/a
303.3655	0.0745	606731	keystroke_s	s	n/a
303.5455	0.075	607091	keystroke_e	e	n/a
303.7105	0.075	607421	keystroke_a	a	n/a
303.9955	0.075	607991	keystroke_s	s	n/a
304.145	0.09	608290	keystroke_o	o	n/a
304.325	0.0605	608650	keystroke_n	n	n/a
304.52	0.0755	609040	keystroke_a	a	n/a
304.67	0.075	609340	keystroke_l	l	n/a
304.9245	0.076	609849	keystroke_Key.space	Key.space	n/a
305.3755	0.075	610751	keystroke_l	l	n/a
305.6755	0.09	611351	keystroke_o	o	n/a
305.9305	0.03	611861	keystroke_u	u	n/a
306.4255	0.075	612851	keystroke_i	i	n/a
306.6055	0.075	613211	keystroke_s	s	n/a
306.92	0.0755	613840	keystroke_v	v	n/a
307.0555	0.0745	614111	keystroke_i	i	n/a
307.2955	0.0745	614591	keystroke_l	l	n/a
307.4755	0.075	614951	keystroke_l	l	n/a
307.655	0.105	615310	keystroke_Key.space	Key.space	n/a
308.2405	0.059	616481	keystroke_Key.backspace	Key.backspace	n/a
308.3905	0.045	616781	keystroke_e	e	n/a
308.5395	0.09	617079	keystroke_Key.space	Key.space	n/a
308.8245	0.031	617649	keystroke_s	s	n/a
309.185	0.06	618370	keystroke_c	c	n/a
309.666	0.0745	619332	keystroke_i	i	n/a
309.9055	0.059	619811	keystroke_e	e	n/a
310.1005	0.06	620201	keystroke_n	n	n/a
310.6855	0.0745	621371	keystroke_t	t	n/a
312.4405	0.0595	624881	keystroke_i	i	n/a
312.71	0.09	625420	keystroke_f	f	n/a
312.8445	0.0755	625689	keystroke_i	i	n/a
313.025	0.0605	626050	keystroke_c	c	n/a
314.78	0.075	629560	keystroke_Key.enter	Key.enter	n/a
314.861	13.766	629722	prompt	n/a	alphabetical collection blogger motorcycles\n
315.62	0.0905	631240	keystroke_a	a	n/a
316.3555	0.09	632711	keystroke_l	l	n/a
316.7005	0.075	633401	keystroke_p	p	n/a
316.91	0.0455	633820	keystroke_h	h	n/a
317.045	0.0905	634090	keystroke_a	a	n/a
317.4655	0.075	634931	keystroke_b	b	n/a
317.6605	0.0745	635321	keystroke_e	e	n/a
317.9295	0.106	635859	keystroke_t	t	n/a
318.155	0.06	636310	keystroke_i	i	n/a
318.335	0.09	636670	keystroke_c	c	n/a
318.5605	0.0595	637121	keystroke_a	a	n/a
318.6495	0.106	637299	keystroke_l	l	n/a
318.9645	0.0905	637929	keystroke_Key.space	Key.space	n/a
319.655	0.0605	639310	keystroke_o	o	n/a
320.3005	0.0595	640601	keystroke_Key.backspace	Key.backspace	n/a
320.4355	0.09	640871	keystroke_c	c	n/a
320.5855	0.075	641171	keystroke_o	o	n/a
320.9	0.0455	641800	keystroke_l	l	n/a
321.0795	0.061	642159	keystroke_l	l	n/a
321.185	0.0895	642370	keystroke_e	e	n/a
321.4095	0.0755	642819	keystroke_c	c	n/a
321.605	0.0595	643210	keystroke_t	t	n/a
321.6795	0.105	643359	keystroke_i	i	n/a
321.7705	0.149	643541	keystroke_o	o	n/a
321.9655	0.0905	643931	keystroke_n	n	n/a
322.1595	0.12	644319	keystroke_Key.space	Key.space	n/a
322.4155	0.075	644831	keystroke_b	b	n/a
322.6105	0.0895	645221	keystroke_l	l	n/a
322.836	0.089	645672	keystroke_o	o	n/a
323.3005	0.06	646601	keystroke_g	g	n/a
323.495	0.09	646990	keystroke_g	g	n/a
323.675	0.0605	647350	keystroke_e	e	n/a
323.7355	0.075	647471	keystroke_r	r	n/a
323.84	0.12	647680	keystroke_Key.space	Key.space	n/a
324.155	0.09	648310	keystroke_m	m	n/a
324.365	0.075	648730	keystroke_o	o	n/a
324.68	0.06	649360	keystroke_t	t	n/a
324.8305	0.0745	649661	keystroke_o	o	n/a
324.9965	0.074	649993	keystroke_r	r	n/a
325.295	0.0445	650590	keystroke_Key.space	Key.space	n/a
325.7595	0.075	651519	keystroke_Key.backspace	Key.backspace	n/a
325.9395	0.061	651879	keystroke_c	c	n/a
326.18	0.06	652360	keystroke_y	y	n/a
326.195	0.0305	652390	keystroke_t	t	n/a
326.96	0.075	653920	keystroke_Key.backspace	Key.backspace	n/a
327.1105	0.075	654221	keystroke_c	c	n/a
327.2905	0.0895	654581	keystroke_l	l	n/a
327.56	0.0605	655120	keystroke_e	e	n/a
327.785	0.076	655570	keystroke_s	s	n/a
328.5495	0.0755	657099	keystroke_Key.enter	Key.enter	n/a
328.631	11.1405	657262	prompt	n/a	unemployment assistance modern emphasis\n
329.4055	0.06	658811	keystroke_u	u	n/a
329.6745	0.105	659349	keystroke_m	m	n/a
330.545	0.06	661090	keystroke_Key.backspace	Key.backspace	n/a
330.785	0.09	661570	keystroke_n	n	n/a
331.22	0.045	662440	keystroke_e	e	n/a
331.31	0.105	662620	keystroke_m	m	n/a
331.52	0.105	663040	keystroke_p	p	n/a
331.775	0.105	663550	keystroke_l	l	n/a
332	0.09	664000	keystroke_o	o	n/a
332.3745	0.06	664749	keystroke_y	y	n/a
332.78	0.075	665560	keystroke_m	m	n/a
332.9445	0.0755	665889	keystroke_e	e	n/a
333.0805	0.075	666161	keystroke_n	n	n/a
333.2455	0.059	666491	keystroke_t	t	n/a
333.395	0.0745	666790	keystroke_Key.space	Key.space	n/a
333.6045	0.075	667209	keystroke_a	a	n/a
333.8005	0.074	667601	keystroke_s	s	n/a
333.9655	0.09	667931	keystroke_s	s	n/a
334.1005	0.075	668201	keystroke_i	i	n/a
334.2655	0.074	668531	keystroke_s	s	n/a
334.46	0.0745	668920	keystroke_t	t	n/a
334.685	0.0745	669370	keystroke_a	a	n/a
334.865	0.0605	669730	keystroke_n	n	n/a
335.0155	0.075	670031	keystroke_c	c	n/a
335.2405	0.03	670481	keystroke_e	e	n/a
335.2855	0.089	670571	keystroke_Key.space	Key.space	n/a
335.5405	0.104	671081	keystroke_m	m	n/a
335.7505	0.09	671501	keystroke_o	o	n/a
335.9155	0.075	671831	keystroke_d	d	n/a
336.17	0.09	672340	keystroke_e	e	n/a
336.335	0.0745	672670	keystroke_r	r	n/a
336.5305	0.059	673061	keystroke_n	n	n/a
336.7695	0.105	673539	keystroke_Key.space	Key.space	n/a
337.025	0.09	674050	keystroke_e	e	n/a
337.175	0.105	674350	keystroke_m	m	n/a
337.565	0.0895	675130	keystroke_p	p	n/a
337.9395	0.0755	675879	keystroke_h	h	n/a
338.12	0.0905	676240	keystroke_a	a	n/a
338.4355	0.089	676871	keystroke_s	s	n/a
338.5705	0.074	677141	keystroke_i	i	n/a
338.705	0.0895	677410	keystroke_s	s	n/a
339.7095	0.06	679419	keystroke_Key.enter	Key.enter	n/a
339.7745	10.588	679549	prompt	n/a	advanced performance says watts\n
340.655	0.06	681310	keystroke_d	d	n/a
341.0305	0.074	682061	keystroke_Key.backspace	Key.backspace	n/a
341.1355	0.09	682271	keystroke_a	a	n/a
341.3305	0.075	682661	keystroke_d	d	n/a
341.66	0.09	683320	keystroke_v	v	n/a
341.8405	0.09	683681	keystroke_a	a	n/a
342.0355	0.074	684071	keystroke_n	n	n/a
342.23	0.076	684460	keystroke_c	c	n/a
342.441	0.0735	684882	keystroke_e	e	n/a
342.6945	0.0455	685389	keystroke_d	d	n/a
343.025	0.0895	686050	keystroke_Key.space	Key.space	n/a
343.4	0.0905	686800	keystroke_p	p	n/a
343.565	0.0595	687130	keystroke_e	e	n/a
343.6405	0.09	687281	keystroke_r	r	n/a
343.9095	0.075	687819	keystroke_f	f	n/a
344.045	0.0605	688090	keystroke_o	o	n/a
344.195	0.075	688390	keystroke_r	r	n/a
344.405	0.075	688810	keystroke_m	m	n/a
344.6	0.0755	689200	keystroke_a	a	n/a
344.96	0.0605	689920	keystroke_c	c	n/a
345.2755	0.0755	690551	keystroke_n	n	n/a
345.635	0.0445	691270	keystroke_Key.backspace	Key.backspace	n/a
345.8155	0.059	691631	keystroke_Key.backspace	Key.backspace	n/a
346.0245	0.09	692049	keystroke_n	n	n/a
346.1455	0.075	692291	keystroke_c	c	n/a
346.3405	0.06	692681	keystroke_e	e	n/a
346.4595	0.091	692919	keystroke_Key.space	Key.space	n/a
346.8655	0.0895	693731	keystroke_s	s	n/a
347.285	0.09	694570	keystroke_a	a	n/a
347.825	0.06	695650	keystroke_y	y	n/a
348.005	0.075	696010	keystroke_s	s	n/a
348.365	0.0755	696730	keystroke_Key.space	Key.space	n/a
348.9805	0.089	697961	keystroke_w	w	n/a
349.19	0.105	698380	keystroke_a	a	n/a
349.46	0.06	698920	keystroke_t	t	n/a
349.6695	0.0755	699339	keystroke_t	t	n/a
349.9105	0.075	699821	keystroke_s	s	n/a
350.285	0.075	700570	keystroke_Key.enter	Key.enter	n/a
350.3665	6.6405	700733	prompt	n/a	mark february honey mile\n
351.0065	0.0735	702013	keystroke_m	m	n/a
351.14	0.0755	702280	keystroke_a	a	n/a
351.2745	0.091	702549	keystroke_r	r	n/a
351.395	0.0755	702790	keystroke_k	k	n/a
351.62	0.0455	703240	keystroke_Key.space	Key.space	n/a
351.8755	0.0895	703751	keystroke_f	f	n/a
352.19	0.06	704380	keystroke_e	e	n/a
352.58	0.06	705160	keystroke_b	b	n/a
352.8495	0.0755	705699	keystroke_r	r	n/a
353.03	0.0595	706060	keystroke_u	u	n/a
353.2245	0.0755	706449	keystroke_a	a	n/a
353.3895	0.075	706779	keystroke_r	r	n/a
353.615	0.045	707230	keystroke_y	y	n/a
353.8845	0.09	707769	keystroke_Key.space	Key.space	n/a
354.245	0.06	708490	keystroke_h	h	n/a
354.4255	0.1195	708851	keystroke_o	o	n/a
354.635	0.105	709270	keystroke_n	n	n/a
354.771	0.0595	709542	keystroke_e	e	n/a
355.01	0.0755	710020	keystroke_y	y	n/a
355.325	0.06	710650	keystroke_Key.space	Key.space	n/a
355.82	0.075	711640	keystroke_m	m	n/a
356.015	0.0905	712030	keystroke_i	i	n/a
356.24	0.09	712480	keystroke_l	l	n/a
356.42	0.0745	712840	keystroke_e	e	n/a
356.945	0.0595	713890	keystroke_Key.enter	Key.enter	n/a
357.011	6.1755	714022	prompt	n/a	like density adobe blend\n
357.785	0.09	715570	keystroke_l	l	n/a
357.98	0.0745	715960	keystroke_i	i	n/a
358.1745	0.0905	716349	keystroke_k	k	n/a
358.325	0.0755	716650	keystroke_e	e	n/a
358.459	0.061	716918	keystroke_Key.space	Key.space	n/a
358.7005	0.0585	717401	keystroke_d	d	n/a
358.865	0.0595	717730	keystroke_e	e	n/a
358.97	0.09	717940	keystroke_n	n	n/a
359.2405	0.074	718481	keystroke_s	s	n/a
359.375	0.0895	718750	keystroke_i	i	n/a
359.6	0.0605	719200	keystroke_t	t	n/a
359.7495	0.045	719499	keystroke_y	y	n/a
359.9595	0.09	719919	keystroke_Key.space	Key.space	n/a
360.185	0.0745	720370	keystroke_a	a	n/a
360.3945	0.0755	720789	keystroke_d	d	n/a
360.6505	0.0745	721301	keystroke_o	o	n/a
361.041	0.059	722082	keystroke_b	b	n/a
361.235	0.06	722470	keystroke_e	e	n/a
361.385	0.105	722770	keystroke_Key.space	Key.space	n/a
361.7155	0.06	723431	keystroke_b	b	n/a
361.8055	0.1045	723611	keystroke_l	l	n/a
362	0.06	724000	keystroke_e	e	n/a
362.2705	0.0895	724541	keystroke_n	n	n/a
362.765	0.06	725530	keystroke_d	d	n/a
363.1095	0.075	726219	keystroke_Key.enter	Key.enter	n/a
363.191	9.1755	726382	prompt	n/a	escape headers primarily directed\n
364.2655	0.089	728531	keystroke_s	s	n/a
364.655	0.06	729310	keystroke_Key.backspace	Key.backspace	n/a
364.805	0.06	729610	keystroke_e	e	n/a
365.03	0.0755	730060	keystroke_s	s	n/a
365.27	0.0595	730540	keystroke_c	c	n/a
365.4355	0.074	730871	keystroke_a	a	n/a
365.615	0.09	731230	keystroke_p	p	n/a
365.81	0.045	731620	keystroke_e	e	n/a
365.96	0.045	731920	keystroke_Key.space	Key.space	n/a
366.245	0.075	732490	keystroke_h	h	n/a
366.335	0.075	732670	keystroke_e	e	n/a
366.5	0.09	733000	keystroke_a	a	n/a
366.65	0.105	733300	keystroke_r	r	n/a
367.0845	0.0605	734169	keystroke_Key.backspace	Key.backspace	n/a
367.2355	0.06	734471	keystroke_d	d	n/a
367.4155	0.074	734831	keystroke_e	e	n/a
367.5345	0.09	735069	keystroke_r	r	n/a
367.775	0.09	735550	keystroke_s	s	n/a
367.94	0.075	735880	keystroke_Key.space	Key.space	n/a
368.225	0.12	736450	keystroke_p	p	n/a
368.36	0.075	736720	keystroke_r	r	n/a
368.51	0.105	737020	keystroke_i	i	n/a
368.75	0.09	737500	keystroke_m	m	n/a
369.02	0.075	738040	keystroke_a	a	n/a
369.2	0.075	738400	keystroke_r	r	n/a
369.365	0.105	738730	keystroke_i	i	n/a
369.65	0.106	739300	keystroke_l	l	n/a
369.9205	0.06	739841	keystroke_y	y	n/a
370.3095	0.0755	740619	keystroke_Key.space	Key.space	n/a
370.73	0.06	741460	keystroke_d	d	n/a
370.8645	0.076	741729	keystroke_i	i	n/a
371.0155	0.105	742031	keystroke_r	r	n/a
371.1355	0.09	742271	keystroke_e	e	n/a
371.3605	0.075	742721	keystroke_c	c	n/a
371.57	0.075	743140	keystroke_t	t	n/a
371.7505	0.074	743501	keystroke_e	e	n/a
371.9005	0.075	743801	keystroke_d	d	n/a
372.305	0.06	744610	keystroke_Key.enter	Key.enter	n/a
372.373	7.7185	744746	prompt	n/a	arch phillips davis cakes\n
373.265	0.06	746530	keystroke_a	a	n/a
373.3855	0.0895	746771	keystroke_r	r	n/a
373.64	0.06	747280	keystroke_c	c	n/a
373.7605	0.0595	747521	keystroke_h	h	n/a
373.9555	0.075	747911	keystroke_Key.space	Key.space	n/a
374.81	0.1195	749620	keystroke_p	p	n/a
375.036	0.0745	750072	keystroke_h	h	n/a
375.2155	0.0895	750431	keystroke_i	i	n/a
375.56	0.0905	751120	keystroke_l	l	n/a
375.725	0.1195	751450	keystroke_l	l	n/a
375.9205	0.105	751841	keystroke_i	i	n/a
376.1295	0.076	752259	keystroke_p	p	n/a
376.3705	0.104	752741	keystroke_s	s	n/a
376.6845	0.0905	753369	keystroke_Key.space	Key.space	n/a
376.9255	0.075	753851	keystroke_d	d	n/a
377.15	0.0745	754300	keystroke_a	a	n/a
377.4345	0.075	754869	keystroke_v	v	n/a
377.585	0.0895	755170	keystroke_i	i	n/a
377.7955	0.0745	755591	keystroke_s	s	n/a
378.02	0.09	756040	keystroke_Key.space	Key.space	n/a
378.35	0.075	756700	keystroke_c	c	n/a
378.515	0.0755	757030	keystroke_a	a	n/a
378.725	0.0755	757450	keystroke_k	k	n/a
378.935	0.06	757870	keystroke_e	e	n/a
379.16	0.075	758320	keystroke_s	s	n/a
380.015	0.075	760030	keystroke_Key.enter	Key.enter	n/a
380.096	6.116	760192	prompt	n/a	math space supply panel\n
380.9295	0.0905	761859	keystroke_m	m	n/a
381.065	0.06	762130	keystroke_a	a	n/a
381.2305	0.0745	762461	keystroke_t	t	n/a
381.395	0.06	762790	keystroke_h	h	n/a
381.695	0.09	763390	keystroke_Key.space	Key.space	n/a
382.0105	0.09	764021	keystroke_s	s	n/a
382.1605	0.09	764321	keystroke_p	p	n/a
382.3095	0.09	764619	keystroke_a	a	n/a
382.535	0.075	765070	keystroke_c	c	n/a
382.745	0.0755	765490	keystroke_e	e	n/a
382.9255	0.0895	765851	keystroke_Key.space	Key.space	n/a
383.225	0.105	766450	keystroke_s	s	n/a
383.39	0.045	766780	keystroke_u	u	n/a
383.51	0.165	767020	keystroke_p	p	n/a
383.795	0.12	767590	keystroke_p	p	n/a
384.125	0.1045	768250	keystroke_l	l	n/a
384.4095	0.06	768819	keystroke_y	y	n/a
384.6195	0.09	769239	keystroke_Key.space	Key.space	n/a
384.845	0.1205	769690	keystroke_p	p	n/a
385.04	0.105	770080	keystroke_a	a	n/a
385.1755	0.0745	770351	keystroke_n	n	n/a
385.415	0.06	770830	keystroke_e	e	n/a
385.7745	0.075	771549	keystroke_l	l	n/a
386.1345	0.076	772269	keystroke_Key.enter	Key.enter	n/a
386.216	8.4555	772432	prompt	n/a	timeline slovakia soft options\n
387.14	0.0595	774280	keystroke_t	t	n/a
387.2295	0.0755	774459	keystroke_i	i	n/a
387.3945	0.105	774789	keystroke_m	m	n/a
387.575	0.0905	775150	keystroke_e	e	n/a
387.7545	0.1365	775509	keystroke_l	l	n/a
387.92	0.105	775840	keystroke_i	i	n/a
388.1305	0.0895	776261	keystroke_n	n	n/a
388.31	0.06	776620	keystroke_e	e	n/a
388.64	0.075	777280	keystroke_Key.space	Key.space	n/a
389.06	0.075	778120	keystroke_s	s	n/a
389.1655	0.0895	778331	keystroke_l	l	n/a
389.3755	0.09	778751	keystroke_o	o	n/a
389.6305	0.075	779261	keystroke_v	v	n/a
389.8405	0.075	779681	keystroke_a	a	n/a
390.0355	0.09	780071	keystroke_k	k	n/a
390.3505	0.075	780701	keystroke_i	i	n/a
390.74	0.0295	781480	keystroke_e	e	n/a
391.07	0.06	782140	keystroke_Key.backspace	Key.backspace	n/a
391.205	0.09	782410	keystroke_a	a	n/a
391.4305	0.0445	782861	keystroke_Key.space	Key.space	n/a
392.255	0.075	784510	keystroke_s	s	n/a
392.39	0.075	784780	keystroke_o	o	n/a
392.525	0.075	785050	keystroke_f	f	n/a
392.72	0.075	785440	keystroke_t	t	n/a
392.8705	0.1195	785741	keystroke_Key.space	Key.space	n/a
393.095	0.12	786190	keystroke_o	o	n/a
393.305	0.1055	786610	keystroke_p	p	n/a
393.605	0.06	787210	keystroke_t	t	n/a
393.74	0.075	787480	keystroke_i	i	n/a
393.8305	0.1645	787661	keystroke_o	o	n/a
394.025	0.1195	788050	keystroke_n	n	n/a
394.205	0.09	788410	keystroke_s	s	n/a
394.595	0.075	789190	keystroke_Key.enter	Key.enter	n/a
394.676	13.3305	789352	prompt	n/a	suggestions connector working musician\n
395.345	0.105	790690	keystroke_s	s	n/a
395.51	0.06	791020	keystroke_u	u	n/a
396.0495	0.045	792099	keystroke_g	g	n/a
396.2605	0.06	792521	keystroke_g	g	n/a
396.635	0.0745	793270	keystroke_e	e	n/a
396.8445	0.0755	793689	keystroke_s	s	n/a
397.025	0.06	794050	keystroke_t	t	n/a
397.16	0.09	794320	keystroke_i	i	n/a
397.235	0.135	794470	keystroke_o	o	n/a
397.4305	0.104	794861	keystroke_n	n	n/a
397.5495	0.0905	795099	keystroke_s	s	n/a
397.715	0.1195	795430	keystroke_Key.space	Key.space	n/a
397.9245	0.0605	795849	keystroke_c	c	n/a
398.0295	0.1055	796059	keystroke_o	o	n/a
398.225	0.09	796450	keystroke_n	n	n/a
398.4345	0.0755	796869	keystroke_n	n	n/a
398.5845	0.0905	797169	keystroke_e	e	n/a
398.7945	0.075	797589	keystroke_c	c	n/a
399.0205	0.0745	798041	keystroke_t	t	n/a
399.1395	0.09	798279	keystroke_o	o	n/a
399.2905	0.0595	798581	keystroke_r	r	n/a
399.44	0.09	798880	keystroke_Key.space	Key.space	n/a
399.6495	0.0755	799299	keystroke_w	w	n/a
399.7845	0.106	799569	keystroke_o	o	n/a
399.965	0.0745	799930	keystroke_r	r	n/a
400.07	0.0895	800140	keystroke_k	k	n/a
400.295	0.09	800590	keystroke_i	i	n/a
400.4605	0.1045	800921	keystroke_n	n	n/a
400.5805	0.0595	801161	keystroke_g	g	n/a
400.729	0.106	801458	keystroke_Key.space	Key.space	n/a
401.1505	0.135	802301	keystroke_m	m	n/a
401.435	0.0595	802870	keystroke_u	u	n/a
401.9295	0.0755	803859	keystroke_s	s	n/a
402.1705	0.06	804341	keystroke_c	c	n/a
402.2605	0.074	804521	keystroke_i	i	n/a
402.695	0.06	805390	keystroke_c	c	n/a
402.815	0.09	805630	keystroke_i	i	n/a
403.3105	0.0595	806621	keystroke_Key.backspace	Key.backspace	n/a
403.505	0.0755	807010	keystroke_Key.backspace	Key.backspace	n/a
405.125	0.06	810250	keystroke_Key.backspace	Key.backspace	n/a
405.47	0.0745	810940	keystroke_Key.backspace	Key.backspace	n/a
405.8305	0.12	811661	keystroke_i	i	n/a
406.7755	0.074	813551	keystroke_c	c	n/a
406.91	0.09	813820	keystroke_i	i	n/a
407.1355	0.06	814271	keystroke_a	a	n/a
407.2405	0.075	814481	keystroke_n	n	n/a
407.9295	0.076	815859	keystroke_Key.enter	Key.enter	n/a
408.0095	9.552	816019	prompt	n/a	bryant charging prepare antique\n
408.7405	0.06	817481	keystroke_b	b	n/a
408.9345	0.075	817869	keystroke_r	r	n/a
409.1595	0.0755	818319	keystroke_y	y	n/a
409.5195	0.09	819039	keystroke_a	a	n/a
409.6705	0.09	819341	keystroke_n	n	n/a
409.91	0.075	819820	keystroke_t	t	n/a
410.105	0.075	820210	keystroke_Key.space	Key.space	n/a
410.48	0.06	820960	keystroke_c	c	n/a
410.615	0.06	821230	keystroke_h	h	n/a
410.735	0.0905	821470	keystroke_a	a	n/a
410.885	0.0905	821770	keystroke_r	r	n/a
411.2745	0.061	822549	keystroke_g	g	n/a
411.4395	0.075	822879	keystroke_i	i	n/a
411.6055	0.104	823211	keystroke_n	n	n/a
411.89	0.075	823780	keystroke_g	g	n/a
412.115	0.12	824230	keystroke_Key.space	Key.space	n/a
412.52	0.105	825040	keystroke_p	p	n/a
412.76	0.105	825520	keystroke_r	r	n/a
412.9395	0.075	825879	keystroke_e	e	n/a
413.2695	0.1055	826539	keystroke_p	p	n/a
413.4795	0.1065	826959	keystroke_a	a	n/a
413.675	0.1045	827350	keystroke_r	r	n/a
413.84	0.0905	827680	keystroke_e	e	n/a
414.065	0.06	828130	keystroke_Key.space	Key.space	n/a
414.291	0.0595	828582	keystroke_a	a	n/a
414.41	0.105	828820	keystroke_n	n	n/a
414.665	0.075	829330	keystroke_t	t	n/a
414.83	0.075	829660	keystroke_i	i	n/a
415.31	0.09	830620	keystroke_q	q	n/a
415.4455	0.075	830891	keystroke_u	u	n/a
415.9705	0.044	831941	keystroke_e	e	n/a
417.455	0.105	834910	keystroke_Key.enter	Key.enter	n/a
417.5655	5.7565	835131	prompt	n/a	seven howdy roster leads\n
418.3845	0.076	836769	keystroke_s	s	n/a
418.535	0.075	837070	keystroke_e	e	n/a
418.7745	0.075	837549	keystroke_v	v	n/a
419	0.045	838000	keystroke_e	e	n/a
419.18	0.06	838360	keystroke_n	n	n/a
419.3895	0.075	838779	keystroke_Key.space	Key.space	n/a
419.7045	0.061	839409	keystroke_h	h	n/a
419.87	0.0905	839740	keystroke_o	o	n/a
420.0645	0.075	840129	keystroke_w	w	n/a
420.365	0.075	840730	keystroke_d	d	n/a
420.56	0.045	841120	keystroke_y	y	n/a
420.7855	0.0895	841571	keystroke_Key.space	Key.space	n/a
421.0695	0.075	842139	keystroke_r	r	n/a
421.235	0.0605	842470	keystroke_o	o	n/a
421.3545	0.076	842709	keystroke_s	s	n/a
421.5195	0.09	843039	keystroke_t	t	n/a
421.6705	0.059	843341	keystroke_e	e	n/a
421.745	0.0755	843490	keystroke_r	r	n/a
421.9245	0.0905	843849	keystroke_Key.space	Key.space	n/a
422.165	0.0905	844330	keystroke_l	l	n/a
422.3	0.075	844600	keystroke_e	e	n/a
422.45	0.0745	844900	keystroke_a	a	n/a
422.7655	0.0745	845531	keystroke_d	d	n/a
422.989	0.076	845978	keystroke_s	s	n/a
423.259	0.061	846518	keystroke_Key.enter	Key.enter	n/a
423.326	9.956	846652	prompt	n/a	gregory plains uploaded whom'st\n
424.1005	0.06	848201	keystroke_g	g	n/a
424.2945	0.075	848589	keystroke_r	r	n/a
424.3845	0.136	848769	keystroke_e	e	n/a
425.06	0.0595	850120	keystroke_g	g	n/a
425.2095	0.075	850419	keystroke_o	o	n/a
425.4505	0.0585	850901	keystroke_r	r	n/a
425.6305	0.0445	851261	keystroke_y	y	n/a
425.8555	0.1045	851711	keystroke_Key.space	Key.space	n/a
426.0955	0.0895	852191	keystroke_p	p	n/a
426.305	0.105	852610	keystroke_l	l	n/a
426.4705	0.09	852941	keystroke_a	a	n/a
426.5905	0.0745	853181	keystroke_i	i	n/a
426.8605	0.09	853721	keystroke_n	n	n/a
427.28	0.0755	854560	keystroke_s	s	n/a
427.5195	0.09	855039	keystroke_Key.space	Key.space	n/a
427.9105	0.06	855821	keystroke_u	u	n/a
428.045	0.1055	856090	keystroke_p	p	n/a
428.3755	0.09	856751	keystroke_l	l	n/a
429.05	0.1055	858100	keystroke_o	o	n/a
429.2605	0.0895	858521	keystroke_a	a	n/a
429.4555	0.0735	858911	keystroke_d	d	n/a
429.68	0.06	859360	keystroke_e	e	n/a
429.8605	0.0595	859721	keystroke_d	d	n/a
430.0255	0.089	860051	keystroke_Key.space	Key.space	n/a
430.4745	0.0905	860949	keystroke_w	w	n/a
430.5955	0.074	861191	keystroke_h	h	n/a
430.7605	0.0895	861521	keystroke_o	o	n/a
431.675	0.105	863350	keystroke_m	m	n/a
432.05	0.075	864100	keystroke_'	'	n/a
432.32	0.09	864640	keystroke_s	s	n/a
432.53	0.06	865060	keystroke_t	t	n/a
433.205	0.075	866410	keystroke_Key.enter	Key.enter	n/a
433.2865	9.415	866573	prompt	n/a	meetings tricks alternatives spanish\n
434	0.105	868000	keystroke_m	m	n/a
434.18	0.06	868360	keystroke_e	e	n/a
434.69	0.06	869380	keystroke_e	e	n/a
434.9445	0.075	869889	keystroke_t	t	n/a
435.1245	0.06	870249	keystroke_i	i	n/a
435.2745	0.075	870549	keystroke_n	n	n/a
435.3645	0.0905	870729	keystroke_g	g	n/a
435.5895	0.076	871179	keystroke_s	s	n/a
435.6795	0.105	871359	keystroke_Key.space	Key.space	n/a
435.9195	0.06	871839	keystroke_t	t	n/a
436.0405	0.0895	872081	keystroke_r	r	n/a
436.2495	0.061	872499	keystroke_i	i	n/a
436.5195	0.076	873039	keystroke_c	c	n/a
436.6695	0.0755	873339	keystroke_k	k	n/a
436.8805	0.0745	873761	keystroke_s	s	n/a
437.12	0.09	874240	keystroke_Key.space	Key.space	n/a
437.72	0.09	875440	keystroke_a	a	n/a
437.87	0.09	875740	keystroke_l	l	n/a
438.11	0.06	876220	keystroke_t	t	n/a
438.2755	0.06	876551	keystroke_e	e	n/a
438.35	0.1045	876700	keystroke_r	r	n/a
438.5305	0.09	877061	keystroke_n	n	n/a
438.7255	0.0745	877451	keystroke_a	a	n/a
438.935	0.0755	877870	keystroke_t	t	n/a
439.0705	0.1045	878141	keystroke_i	i	n/a
439.2795	0.076	878559	keystroke_v	v	n/a
439.4455	0.0895	878891	keystroke_e	e	n/a
439.655	0.075	879310	keystroke_s	s	n/a
439.745	0.135	879490	keystroke_Key.space	Key.space	n/a
440.045	0.06	880090	keystroke_a	a	n/a
440.495	0.075	880990	keystroke_Key.backspace	Key.backspace	n/a
440.645	0.105	881290	keystroke_s	s	n/a
440.8705	0.1345	881741	keystroke_p	p	n/a
441.17	0.105	882340	keystroke_a	a	n/a
441.3645	0.06	882729	keystroke_n	n	n/a
441.89	0.1045	883780	keystroke_i	i	n/a
442.1	0.075	884200	keystroke_s	s	n/a
442.22	0.06	884440	keystroke_h	h	n/a
442.625	0.0745	885250	keystroke_Key.enter	Key.enter	n/a
442.7065	6.94	885413	prompt	n/a	italic sole acrylic reel\n
443.75	0.0745	887500	keystroke_i	i	n/a
444.0045	0.06	888009	keystroke_t	t	n/a
444.2295	0.09	888459	keystroke_a	a	n/a
444.4395	0.0905	888879	keystroke_l	l	n/a
444.635	0.0895	889270	keystroke_i	i	n/a
444.8595	0.0755	889719	keystroke_c	c	n/a
445.07	0.105	890140	keystroke_Key.space	Key.space	n/a
445.31	0.09	890620	keystroke_s	s	n/a
445.43	0.075	890860	keystroke_o	o	n/a
445.656	0.0885	891312	keystroke_l	l	n/a
445.835	0.0595	891670	keystroke_e	e	n/a
446	0.0745	892000	keystroke_Key.space	Key.space	n/a
446.33	0.0745	892660	keystroke_a	a	n/a
446.615	0.0605	893230	keystroke_c	c	n/a
446.9	0.0605	893800	keystroke_r	r	n/a
447.08	0.0595	894160	keystroke_y	y	n/a
447.3505	0.09	894701	keystroke_l	l	n/a
447.559	0.0765	895118	keystroke_i	i	n/a
447.859	0.076	895718	keystroke_c	c	n/a
448.0395	0.075	896079	keystroke_Key.space	Key.space	n/a
448.4445	0.0755	896889	keystroke_r	r	n/a
448.5945	0.0455	897189	keystroke_e	e	n/a
449.0595	0.06	898119	keystroke_e	e	n/a
449.2395	0.076	898479	keystroke_l	l	n/a
449.585	0.06	899170	keystroke_Key.enter	Key.enter	n/a
449.6595	8.327	899319	prompt	n/a	xhtml who've domestic convert\n
450.71	0.0905	901420	keystroke_x	x	n/a
451.3555	0.075	902711	keystroke_h	h	n/a
451.6095	0.046	903219	keystroke_t	t	n/a
451.7005	0.074	903401	keystroke_m	m	n/a
451.9095	0.091	903819	keystroke_l	l	n/a
452.194	0.0905	904388	keystroke_Key.space	Key.space	n/a
452.705	0.06	905410	keystroke_w	w	n/a
452.855	0.06	905710	keystroke_h	h	n/a
453.095	0.015	906190	keystroke_o	o	n/a
453.365	0.105	906730	keystroke_'	'	n/a
453.5605	0.0595	907121	keystroke_v	v	n/a
453.7395	0.046	907479	keystroke_e	e	n/a
453.9345	0.0605	907869	keystroke_Key.space	Key.space	n/a
454.49	0.045	908980	keystroke_d	d	n/a
454.61	0.09	909220	keystroke_o	o	n/a
454.8045	0.1055	909609	keystroke_m	m	n/a
455.09	0.075	910180	keystroke_e	e	n/a
455.345	0.0595	910690	keystroke_s	s	n/a
455.48	0.0755	910960	keystroke_t	t	n/a
455.6755	0.0595	911351	keystroke_i	i	n/a
455.8995	0.075	911799	keystroke_c	c	n/a
456.095	0.09	912190	keystroke_Key.space	Key.space	n/a
456.41	0.06	912820	keystroke_c	c	n/a
456.53	0.09	913060	keystroke_o	o	n/a
456.695	0.09	913390	keystroke_n	n	n/a
456.8	0.075	913600	keystroke_v	v	n/a
456.9655	0.0595	913931	keystroke_e	e	n/a
457.0545	0.09	914109	keystroke_r	r	n/a
457.61	0.045	915220	keystroke_t	t	n/a
457.91	0.075	915820	keystroke_Key.enter	Key.enter	n/a
457.9905	9.041	915981	prompt	n/a	nebraska likely suit transfers\n
459.2145	0.075	918429	keystroke_n	n	n/a
459.35	0.0745	918700	keystroke_e	e	n/a
459.605	0.0755	919210	keystroke_c	c	n/a
460.0705	0.0595	920141	keystroke_Key.backspace	Key.backspace	n/a
460.2205	0.0745	920441	keystroke_b	b	n/a
460.445	0.09	920890	keystroke_r	r	n/a
460.7305	0.074	921461	keystroke_a	a	n/a
460.9395	0.075	921879	keystroke_s	s	n/a
461.0895	0.06	922179	keystroke_k	k	n/a
461.4345	0.0905	922869	keystroke_a	a	n/a
461.69	0.12	923380	keystroke_Key.space	Key.space	n/a
462.0055	0.089	924011	keystroke_l	l	n/a
462.1845	0.0755	924369	keystroke_i	i	n/a
462.4095	0.09	924819	keystroke_k	k	n/a
462.65	0.0455	925300	keystroke_e	e	n/a
463.145	0.105	926290	keystroke_l	l	n/a
463.4145	0.046	926829	keystroke_y	y	n/a
463.625	0.0895	927250	keystroke_Key.space	Key.space	n/a
463.775	0.0895	927550	keystroke_s	s	n/a
463.94	0.0745	927880	keystroke_u	u	n/a
464.1195	0.09	928239	keystroke_i	i	n/a
464.2705	0.0745	928541	keystroke_t	t	n/a
464.495	0.09	928990	keystroke_Key.space	Key.space	n/a
464.8095	0.06	929619	keystroke_t	t	n/a
464.9745	0.105	929949	keystroke_r	r	n/a
465.1845	0.0755	930369	keystroke_a	a	n/a
465.305	0.075	930610	keystroke_n	n	n/a
465.5295	0.075	931059	keystroke_s	s	n/a
465.755	0.0905	931510	keystroke_f	f	n/a
465.9345	0.045	931869	keystroke_e	e	n/a
466.0095	0.0755	932019	keystroke_r	r	n/a
466.2955	0.0745	932591	keystroke_s	s	n/a
466.9695	0.0605	933939	keystroke_Key.enter	Key.enter	n/a
467.036	7.63	934072	prompt	n/a	adapted exposed autumn lance\n
467.7495	0.06	935499	keystroke_a	a	n/a
467.96	0.06	935920	keystroke_d	d	n/a
468.185	0.0905	936370	keystroke_a	a	n/a
468.515	0.09	937030	keystroke_p	p	n/a
468.7245	0.0755	937449	keystroke_t	t	n/a
468.9655	0.074	937931	keystroke_e	e	n/a
469.16	0.06	938320	keystroke_d	d	n/a
469.31	0.09	938620	keystroke_Key.space	Key.space	n/a
469.55	0.0745	939100	keystroke_e	e	n/a
469.7595	0.076	939519	keystroke_x	x	n/a
469.9095	0.1055	939819	keystroke_p	p	n/a
470.1795	0.105	940359	keystroke_o	o	n/a
470.4345	0.075	940869	keystroke_s	s	n/a
470.6295	0.075	941259	keystroke_e	e	n/a
470.8245	0.06	941649	keystroke_d	d	n/a
470.99	0.1045	941980	keystroke_Key.space	Key.space	n/a
471.2755	0.0745	942551	keystroke_a	a	n/a
471.455	0.06	942910	keystroke_u	u	n/a
471.6795	0.06	943359	keystroke_t	t	n/a
471.9945	0.075	943989	keystroke_u	u	n/a
472.2195	0.09	944439	keystroke_m	m	n/a
472.5195	0.0755	945039	keystroke_n	n	n/a
472.88	0.1045	945760	keystroke_Key.space	Key.space	n/a
473.1645	0.105	946329	keystroke_l	l	n/a
473.33	0.075	946660	keystroke_a	a	n/a
473.48	0.0745	946960	keystroke_n	n	n/a
473.66	0.0745	947320	keystroke_c	c	n/a
473.96	0.045	947920	keystroke_e	e	n/a
474.605	0.0595	949210	keystroke_Key.enter	Key.enter	n/a
474.6705	9.866	949341	prompt	n/a	compare murder racial capability\n
475.355	0.074	950710	keystroke_c	c	n/a
475.46	0.0895	950920	keystroke_o	o	n/a
475.5945	0.1045	951189	keystroke_m	m	n/a
475.76	0.12	951520	keystroke_p	p	n/a
475.97	0.15	951940	keystroke_a	a	n/a
476.135	0.0745	952270	keystroke_r	r	n/a
476.36	0.075	952720	keystroke_e	e	n/a
476.645	0.0895	953290	keystroke_Key.space	Key.space	n/a
477.005	0.09	954010	keystroke_m	m	n/a
477.26	0.076	954520	keystroke_u	u	n/a
477.71	0.06	955420	keystroke_r	r	n/a
477.995	0.06	955990	keystroke_d	d	n/a
478.205	0.06	956410	keystroke_e	e	n/a
478.3095	0.0755	956619	keystroke_r	r	n/a
478.504	0.105	957008	keystroke_Key.space	Key.space	n/a
478.85	0.075	957700	keystroke_r	r	n/a
479.165	0.075	958330	keystroke_a	a	n/a
479.42	0.0745	958840	keystroke_c	c	n/a
479.5995	0.09	959199	keystroke_i	i	n/a
479.8705	0.074	959741	keystroke_a	a	n/a
480.02	0.0745	960040	keystroke_l	l	n/a
480.2745	0.09	960549	keystroke_Key.space	Key.space	n/a
480.875	0.06	961750	keystroke_c	c	n/a
480.995	0.09	961990	keystroke_a	a	n/a
481.19	0.105	962380	keystroke_p	p	n/a
481.399	0.091	962798	keystroke_a	a	n/a
481.835	0.074	963670	keystroke_b	b	n/a
481.985	0.074	963970	keystroke_i	i	n/a
482.18	0.105	964360	keystroke_l	l	n/a
482.36	0.119	964720	keystroke_i	i	n/a
482.555	0.074	965110	keystroke_t	t	n/a
482.75	0.0445	965500	keystroke_y	y	n/a
484.4595	0.0745	968919	keystroke_Key.enter	Key.enter	n/a
484.5415	7.4945	969083	prompt	n/a	agent nano progressive alerts\n
485.329	0.076	970658	keystroke_a	a	n/a
485.54	0.06	971080	keystroke_g	g	n/a
485.7045	0.06	971409	keystroke_e	e	n/a
485.8095	0.0605	971619	keystroke_n	n	n/a
486.395	0.075	972790	keystroke_t	t	n/a
486.559	0.106	973118	keystroke_Key.space	Key.space	n/a
486.875	0.074	973750	keystroke_n	n	n/a
487.2195	0.075	974439	keystroke_a	a	n/a
487.4295	0.1195	974859	keystroke_n	n	n/a
487.699	0.06	975398	keystroke_o	o	n/a
488.0445	0.09	976089	keystroke_Key.space	Key.space	n/a
488.555	0.1045	977110	keystroke_p	p	n/a
488.6745	0.105	977349	keystroke_r	r	n/a
488.8695	0.0905	977739	keystroke_o	o	n/a
489.2295	0.06	978459	keystroke_g	g	n/a
489.41	0.075	978820	keystroke_r	r	n/a
489.4995	0.075	978999	keystroke_e	e	n/a
489.7845	0.075	979569	keystroke_s	s	n/a
489.9645	0.0755	979929	keystroke_s	s	n/a
490.0995	0.0755	980199	keystroke_i	i	n/a
490.31	0.045	980620	keystroke_v	v	n/a
490.43	0.0755	980860	keystroke_e	e	n/a
490.58	0.1045	981160	keystroke_Key.space	Key.space	n/a
490.805	0.059	981610	keystroke_a	a	n/a
490.97	0.089	981940	keystroke_l	l	n/a
491.134	0.0765	982268	keystroke_e	e	n/a
491.284	0.091	982568	keystroke_r	r	n/a
491.495	0.075	982990	keystroke_t	t	n/a
491.705	0.075	983410	keystroke_s	s	n/a
491.974	0.06	983948	keystroke_Key.enter	Key.enter	n/a
492.0495	12.7515	984099	prompt	n/a	finland institutional terrace transport\n
493.055	0.06	986110	keystroke_f	f	n/a
493.205	0.074	986410	keystroke_i	i	n/a
493.384	0.09	986768	keystroke_n	n	n/a
493.73	0.075	987460	keystroke_l	l	n/a
493.925	0.09	987850	keystroke_a	a	n/a
494.0595	0.0755	988119	keystroke_n	n	n/a
494.2395	0.0595	988479	keystroke_d	d	n/a
494.464	0.105	988928	keystroke_Key.space	Key.space	n/a
494.735	0.059	989470	keystroke_i	i	n/a
494.885	0.0895	989770	keystroke_n	n	n/a
495.0795	0.075	990159	keystroke_s	s	n/a
495.26	0.0745	990520	keystroke_t	t	n/a
495.544	0.076	991088	keystroke_i	i	n/a
495.725	0.075	991450	keystroke_t	t	n/a
495.8895	0.0605	991779	keystroke_u	u	n/a
496.549	0.075	993098	keystroke_t	t	n/a
496.684	0.0905	993368	keystroke_i	i	n/a
496.8045	0.1345	993609	keystroke_o	o	n/a
497	0.105	994000	keystroke_n	n	n/a
497.27	0.075	994540	keystroke_a	a	n/a
497.405	0.09	994810	keystroke_l	l	n/a
497.84	0.12	995680	keystroke_Key.space	Key.space	n/a
498.244	0.075	996488	keystroke_t	t	n/a
498.4395	0.06	996879	keystroke_r	r	n/a
498.8445	0.075	997689	keystroke_Key.backspace	Key.backspace	n/a
499.0395	0.075	998079	keystroke_e	e	n/a
499.205	0.0895	998410	keystroke_r	r	n/a
499.5045	0.0905	999009	keystroke_r	r	n/a
499.744	0.075	999488	keystroke_a	a	n/a
500.164	0.0455	1000328	keystroke_e	e	n/a
500.6745	0.0755	1001349	keystroke_Key.backspace	Key.backspace	n/a
501.05	0.075	1002100	keystroke_e	e	n/a
501.139	0.0905	1002278	keystroke_Key.space	Key.space	n/a
501.5145	0.06	1003029	keystroke_Key.backspace	Key.backspace	n/a
501.7395	0.06	1003479	keystroke_Key.backspace	Key.backspace	n/a
501.8295	0.09	1003659	keystroke_c	c	n/a
502.0545	0.045	1004109	keystroke_e	e	n/a
502.16	0.09	1004320	keystroke_Key.space	Key.space	n/a
502.46	0.0595	1004920	keystroke_t	t	n/a
502.6545	0.075	1005309	keystroke_r	r	n/a
502.88	0.075	1005760	keystroke_a	a	n/a
503.06	0.0595	1006120	keystroke_n	n	n/a
503.3	0.0745	1006600	keystroke_s	s	n/a
503.5695	0.09	1007139	keystroke_p	p	n/a
503.81	0.0745	1007620	keystroke_o	o	n/a
503.9745	0.0755	1007949	keystroke_r	r	n/a
504.1845	0.045	1008369	keystroke_t	t	n/a
504.74	0.06	1009480	keystroke_Key.enter	Key.enter	n/a
504.8065	9.2645	1009613	prompt	n/a	the pennsylvania loving remain\n
505.865	0.0595	1011730	keystroke_t	t	n/a
505.955	0.075	1011910	keystroke_h	h	n/a
506.105	0.06	1012210	keystroke_e	e	n/a
506.195	0.104	1012390	keystroke_Key.space	Key.space	n/a
506.63	0.104	1013260	keystroke_p	p	n/a
506.87	0.0745	1013740	keystroke_e	e	n/a
507.0195	0.1055	1014039	keystroke_n	n	n/a
507.304	0.09	1014608	keystroke_n	n	n/a
507.785	0.09	1015570	keystroke_s	s	n/a
507.964	0.075	1015928	keystroke_y	y	n/a
508.205	0.075	1016410	keystroke_l	l	n/a
508.5795	0.0605	1017159	keystroke_v	v	n/a
508.745	0.09	1017490	keystroke_a	a	n/a
508.94	0.0745	1017880	keystroke_n	n	n/a
509.6445	0.075	1019289	keystroke_i	i	n/a
509.885	0.075	1019770	keystroke_a	a	n/a
510.3495	0.09	1020699	keystroke_Key.space	Key.space	n/a
510.83	0.075	1021660	keystroke_l	l	n/a
511.025	0.09	1022050	keystroke_o	o	n/a
511.175	0.09	1022350	keystroke_v	v	n/a
511.535	0.075	1023070	keystroke_i	i	n/a
511.73	0.09	1023460	keystroke_n	n	n/a
511.8795	0.061	1023759	keystroke_g	g	n/a
512.1495	0.0745	1024299	keystroke_Key.space	Key.space	n/a
512.494	0.0755	1024988	keystroke_r	r	n/a
512.5845	0.1045	1025169	keystroke_e	e	n/a
512.719	0.09	1025438	keystroke_m	m	n/a
513.0635	0.0765	1026127	keystroke_a	a	n/a
513.199	0.075	1026398	keystroke_i	i	n/a
513.35	0.105	1026700	keystroke_n	n	n/a
513.98	0.0895	1027960	keystroke_Key.enter	Key.enter	n/a
514.0755	10.5405	1028151	prompt	n/a	bennett initiated scene simplified\n
514.9245	0.0605	1029849	keystroke_b	b	n/a
515.1195	0.06	1030239	keystroke_e	e	n/a
515.4795	0.075	1030959	keystroke_n	n	n/a
515.6745	0.09	1031349	keystroke_n	n	n/a
516.0795	0.075	1032159	keystroke_e	e	n/a
516.395	0.06	1032790	keystroke_t	t	n/a
516.575	0.075	1033150	keystroke_t	t	n/a
516.7095	0.1055	1033419	keystroke_Key.space	Key.space	n/a
516.95	0.074	1033900	keystroke_i	i	n/a
517.129	0.076	1034258	keystroke_n	n	n/a
517.3845	0.0905	1034769	keystroke_t	t	n/a
517.61	0.075	1035220	keystroke_i	i	n/a
518.284	0.045	1036568	keystroke_Key.backspace	Key.backspace	n/a
518.449	0.075	1036898	keystroke_Key.backspace	Key.backspace	n/a
518.675	0.0745	1037350	keystroke_i	i	n/a
518.8695	0.0755	1037739	keystroke_t	t	n/a
519.08	0.075	1038160	keystroke_i	i	n/a
519.35	0.075	1038700	keystroke_a	a	n/a
519.725	0.09	1039450	keystroke_t	t	n/a
519.86	0.09	1039720	keystroke_e	e	n/a
520.085	0.089	1040170	keystroke_d	d	n/a
520.249	0.106	1040498	keystroke_Key.space	Key.space	n/a
520.579	0.09	1041158	keystroke_s	s	n/a
520.804	0.0755	1041608	keystroke_c	c	n/a
521.3745	0.06	1042749	keystroke_e	e	n/a
521.5245	0.06	1043049	keystroke_n	n	n/a
521.8095	0.045	1043619	keystroke_e	e	n/a
521.945	0.0745	1043890	keystroke_Key.space	Key.space	n/a
522.4095	0.09	1044819	keystroke_s	s	n/a
522.605	0.0745	1045210	keystroke_i	i	n/a
522.7855	0.1045	1045571	keystroke_m	m	n/a
522.9495	0.1195	1045899	keystroke_p	p	n/a
523.189	0.075	1046378	keystroke_l	l	n/a
523.4145	0.0905	1046829	keystroke_i	i	n/a
523.61	0.074	1047220	keystroke_f	f	n/a
523.7445	0.076	1047489	keystroke_i	i	n/a
524.1045	0.0745	1048209	keystroke_e	e	n/a
524.2995	0.06	1048599	keystroke_d	d	n/a
524.54	0.075	1049080	keystroke_Key.enter	Key.enter	n/a
524.6205	9.5505	1049241	prompt	n/a	twisted recipients causing bikes\n
525.6795	0.075	1051359	keystroke_w	w	n/a
526.1295	0.075	1052259	keystroke_Key.backspace	Key.backspace	n/a
526.2495	0.075	1052499	keystroke_t	t	n/a
526.445	0.074	1052890	keystroke_w	w	n/a
526.6395	0.06	1053279	keystroke_i	i	n/a
526.804	0.0755	1053608	keystroke_s	s	n/a
526.9845	0.075	1053969	keystroke_t	t	n/a
527.24	0.06	1054480	keystroke_e	e	n/a
527.42	0.075	1054840	keystroke_d	d	n/a
527.57	0.105	1055140	keystroke_Key.space	Key.space	n/a
527.84	0.075	1055680	keystroke_r	r	n/a
528.14	0.0745	1056280	keystroke_e	e	n/a
528.965	0.06	1057930	keystroke_c	c	n/a
529.355	0.12	1058710	keystroke_i	i	n/a
529.564	0.0905	1059128	keystroke_p	p	n/a
530.0145	0.0755	1060029	keystroke_i	i	n/a
530.165	0.0895	1060330	keystroke_e	e	n/a
530.33	0.0895	1060660	keystroke_n	n	n/a
530.465	0.0745	1060930	keystroke_t	t	n/a
530.6895	0.075	1061379	keystroke_s	s	n/a
530.885	0.104	1061770	keystroke_Key.space	Key.space	n/a
531.14	0.09	1062280	keystroke_c	c	n/a
531.35	0.09	1062700	keystroke_a	a	n/a
531.53	0.075	1063060	keystroke_u	u	n/a
531.71	0.075	1063420	keystroke_s	s	n/a
532.025	0.09	1064050	keystroke_i	i	n/a
532.205	0.105	1064410	keystroke_n	n	n/a
532.295	0.075	1064590	keystroke_g	g	n/a
532.475	0.0895	1064950	keystroke_Key.space	Key.space	n/a
532.759	0.06	1065518	keystroke_b	b	n/a
532.865	0.0895	1065730	keystroke_i	i	n/a
533.0895	0.0905	1066179	keystroke_k	k	n/a
533.361	0.0585	1066722	keystroke_e	e	n/a
533.5695	0.06	1067139	keystroke_s	s	n/a
534.11	0.0595	1068220	keystroke_Key.enter	Key.enter	n/a
534.1755	9.821	1068351	prompt	n/a	ozone orientation fake york\n
534.9345	0.06	1069869	keystroke_o	o	n/a
535.175	0.09	1070350	keystroke_z	z	n/a
535.46	0.0595	1070920	keystroke_a	a	n/a
535.9695	0.06	1071939	keystroke_Key.backspace	Key.backspace	n/a
536.1945	0.09	1072389	keystroke_o	o	n/a
536.3895	0.09	1072779	keystroke_n	n	n/a
536.4195	0.015	1072839	keystroke_b	b	n/a
536.5545	0.075	1073109	keystroke_e	e	n/a
536.7345	0.105	1073469	keystroke_Key.space	Key.space	n/a
537.035	0.09	1074070	keystroke_o	o	n/a
537.4545	0.045	1074909	keystroke_Key.backspace	Key.backspace	n/a
537.6345	0.045	1075269	keystroke_Key.backspace	Key.backspace	n/a
537.815	0.0745	1075630	keystroke_Key.backspace	Key.backspace	n/a
538.1745	0.0745	1076349	keystroke_Key.backspace	Key.backspace	n/a
538.295	0.059	1076590	keystroke_e	e	n/a
538.4595	0.075	1076919	keystroke_Key.space	Key.space	n/a
538.7445	0.0745	1077489	keystroke_o	o	n/a
538.954	0.0905	1077908	keystroke_r	r	n/a
539.1495	0.0755	1078299	keystroke_i	i	n/a
539.4195	0.06	1078839	keystroke_e	e	n/a
539.5845	0.075	1079169	keystroke_n	n	n/a
539.7645	0.0745	1079529	keystroke_t	t	n/a
539.9895	0.09	1079979	keystroke_a	a	n/a
540.184	0.075	1080368	keystroke_t	t	n/a
540.275	0.0745	1080550	keystroke_i	i	n/a
540.365	0.135	1080730	keystroke_o	o	n/a
540.529	0.1055	1081058	keystroke_n	n	n/a
540.7545	0.09	1081509	keystroke_Key.space	Key.space	n/a
540.9195	0.075	1081839	keystroke_f	f	n/a
541.0545	0.09	1082109	keystroke_a	a	n/a
541.3245	0.06	1082649	keystroke_k	k	n/a
541.49	0.044	1082980	keystroke_e	e	n/a
541.594	0.09	1083188	keystroke_Key.space	Key.space	n/a
542.015	0.0595	1084030	keystroke_y	y	n/a
542.1645	0.105	1084329	keystroke_o	o	n/a
542.4645	0.075	1084929	keystroke_r	r	n/a
542.9295	0.075	1085859	keystroke_k	k	n/a
543.9345	0.0605	1087869	keystroke_Key.enter	Key.enter	n/a
544.001	10.9605	1088002	prompt	n/a	insured retrieve enzyme junior\n
544.67	0.06	1089340	keystroke_i	i	n/a
544.82	0.09	1089640	keystroke_n	n	n/a
545	0.0895	1090000	keystroke_s	s	n/a
545.164	0.0605	1090328	keystroke_u	u	n/a
545.2995	0.1055	1090599	keystroke_r	r	n/a
545.42	0.09	1090840	keystroke_e	e	n/a
545.6745	0.06	1091349	keystroke_d	d	n/a
545.8245	0.105	1091649	keystroke_Key.space	Key.space	n/a
546.1545	0.1055	1092309	keystroke_r	r	n/a
546.274	0.0905	1092548	keystroke_e	e	n/a
546.6945	0.075	1093389	keystroke_t	t	n/a
547.0845	0.075	1094169	keystroke_r	r	n/a
547.295	0.0595	1094590	keystroke_i	i	n/a
547.46	0.09	1094920	keystroke_e	e	n/a
547.775	0.074	1095550	keystroke_v	v	n/a
547.97	0.059	1095940	keystroke_e	e	n/a
548.119	0.121	1096238	keystroke_Key.space	Key.space	n/a
548.4495	0.075	1096899	keystroke_e	e	n/a
548.5995	0.0755	1097199	keystroke_n	n	n/a
549.1545	0.075	1098309	keystroke_z	z	n/a
549.305	0.0595	1098610	keystroke_y	y	n/a
549.6345	0.105	1099269	keystroke_m	m	n/a
549.8745	0.045	1099749	keystroke_e	e	n/a
550.1445	0.09	1100289	keystroke_Key.space	Key.space	n/a
550.5795	0.0605	1101159	keystroke_j	j	n/a
550.7895	0.075	1101579	keystroke_u	u	n/a
551.0745	0.1055	1102149	keystroke_i	i	n/a
551.2395	0.12	1102479	keystroke_o	o	n/a
551.45	0.105	1102900	keystroke_n	n	n/a
551.9745	0.0445	1103949	keystroke_Key.backspace	Key.backspace	n/a
552.1545	0.06	1104309	keystroke_Key.backspace	Key.backspace	n/a
552.3345	0.074	1104669	keystroke_Key.backspace	Key.backspace	n/a
552.5895	0.075	1105179	keystroke_n	n	n/a
552.89	0.0895	1105780	keystroke_i	i	n/a
553.07	0.0745	1106140	keystroke_o	o	n/a
553.2795	0.06	1106559	keystroke_s	s	n/a
553.7145	0.06	1107429	keystroke_Key.backspace	Key.backspace	n/a
553.8495	0.075	1107699	keystroke_r	r	n/a
554.884	0.0755	1109768	keystroke_Key.enter	Key.enter	n/a
554.968	8.363	1109936	prompt	n/a	opposed tribunal childhood enabled\n
555.739	0.105	1111478	keystroke_o	o	n/a
555.965	0.104	1111930	keystroke_p	p	n/a
556.16	0.0895	1112320	keystroke_p	p	n/a
556.5045	0.075	1113009	keystroke_o	o	n/a
556.76	0.075	1113520	keystroke_s	s	n/a
556.895	0.0895	1113790	keystroke_e	e	n/a
557.134	0.0755	1114268	keystroke_d	d	n/a
557.314	0.1055	1114628	keystroke_Key.space	Key.space	n/a
557.794	0.0755	1115588	keystroke_t	t	n/a
557.974	0.0755	1115948	keystroke_r	r	n/a
558.079	0.0905	1116158	keystroke_i	i	n/a
558.3345	0.0745	1116669	keystroke_b	b	n/a
558.4695	0.0595	1116939	keystroke_u	u	n/a
558.7695	0.0895	1117539	keystroke_n	n	n/a
558.9945	0.09	1117989	keystroke_a	a	n/a
559.115	0.104	1118230	keystroke_l	l	n/a
559.339	0.105	1118678	keystroke_Key.space	Key.space	n/a
559.775	0.074	1119550	keystroke_c	c	n/a
559.88	0.074	1119760	keystroke_h	h	n/a
560.044	0.075	1120088	keystroke_i	i	n/a
560.2545	0.0895	1120509	keystroke_l	l	n/a
560.4795	0.045	1120959	keystroke_d	d	n/a
560.8695	0.06	1121739	keystroke_h	h	n/a
561.0345	0.09	1122069	keystroke_o	o	n/a
561.2595	0.09	1122519	keystroke_o	o	n/a
561.4695	0.0595	1122939	keystroke_d	d	n/a
561.634	0.1055	1123268	keystroke_Key.space	Key.space	n/a
561.844	0.06	1123688	keystroke_e	e	n/a
561.9495	0.0755	1123899	keystroke_n	n	n/a
562.2195	0.0755	1124439	keystroke_a	a	n/a
562.535	0.059	1125070	keystroke_b	b	n/a
562.6695	0.105	1125339	keystroke_l	l	n/a
562.8195	0.075	1125639	keystroke_e	e	n/a
563.0145	0.06	1126029	keystroke_d	d	n/a
563.27	0.0595	1126540	keystroke_Key.enter	Key.enter	n/a
563.3355	8.3205	1126671	prompt	n/a	awful fare julia misc\n
564.065	0.074	1128130	keystroke_a	a	n/a
564.53	0.09	1129060	keystroke_w	w	n/a
564.919	0.0755	1129838	keystroke_f	f	n/a
565.13	0.06	1130260	keystroke_u	u	n/a
565.3395	0.0755	1130679	keystroke_l	l	n/a
565.5495	0.089	1131099	keystroke_Key.space	Key.space	n/a
565.7145	0.0905	1131429	keystroke_f	f	n/a
565.8645	0.09	1131729	keystroke_a	a	n/a
566.029	0.1055	1132058	keystroke_r	r	n/a
566.1495	0.06	1132299	keystroke_e	e	n/a
566.4045	0.09	1132809	keystroke_Key.space	Key.space	n/a
566.8995	0.105	1133799	keystroke_j	j	n/a
567.1695	0.075	1134339	keystroke_u	u	n/a
567.8145	0.09	1135629	keystroke_l	l	n/a
568.0095	0.09	1136019	keystroke_i	i	n/a
568.1895	0.0745	1136379	keystroke_a	a	n/a
568.549	0.09	1137098	keystroke_Key.space	Key.space	n/a
569.554	0.075	1139108	keystroke_i	i	n/a
569.989	0.06	1139978	keystroke_Key.backspace	Key.backspace	n/a
570.214	0.0755	1140428	keystroke_m	m	n/a
570.425	0.074	1140850	keystroke_i	i	n/a
570.6045	0.105	1141209	keystroke_s	s	n/a
570.844	0.091	1141688	keystroke_c	c	n/a
571.58	0.0745	1143160	keystroke_Key.enter	Key.enter	n/a
571.6605	7.646	1143321	prompt	n/a	problem how're donor dash\n
572.4045	0.1205	1144809	keystroke_p	p	n/a
572.599	0.0605	1145198	keystroke_r	r	n/a
572.675	0.0745	1145350	keystroke_o	o	n/a
572.899	0.1355	1145798	keystroke_m	m	n/a
573.3935	0.0765	1146787	keystroke_Key.backspace	Key.backspace	n/a
573.5895	0.075	1147179	keystroke_b	b	n/a
573.695	0.0895	1147390	keystroke_l	l	n/a
573.92	0.0745	1147840	keystroke_e	e	n/a
574.0395	0.09	1148079	keystroke_m	m	n/a
574.5795	0.09	1149159	keystroke_Key.space	Key.space	n/a
574.9095	0.075	1149819	keystroke_h	h	n/a
575.0745	0.09	1150149	keystroke_o	o	n/a
575.4495	0.075	1150899	keystroke_w	w	n/a
575.674	0.105	1151348	keystroke_'	'	n/a
575.9445	0.0745	1151889	keystroke_r	r	n/a
576.034	0.091	1152068	keystroke_e	e	n/a
576.229	0.09	1152458	keystroke_Key.space	Key.space	n/a
576.5595	0.09	1153119	keystroke_d	d	n/a
576.7095	0.105	1153419	keystroke_o	o	n/a
576.9195	0.09	1153839	keystroke_n	n	n/a
577.279	0.0455	1154558	keystroke_o	o	n/a
577.669	0.0755	1155338	keystroke_r	r	n/a
577.819	0.1055	1155638	keystroke_Key.space	Key.space	n/a
578.0895	0.0745	1156179	keystroke_d	d	n/a
578.269	0.09	1156538	keystroke_a	a	n/a
578.419	0.105	1156838	keystroke_s	s	n/a
578.5995	0.0595	1157199	keystroke_h	h	n/a
579.229	0.076	1158458	keystroke_Key.enter	Key.enter	n/a
579.311	9.835	1158622	prompt	n/a	weird injury love vietnam\n
580.1145	0.06	1160229	keystroke_w	w	n/a
580.2495	0.075	1160499	keystroke_i	i	n/a
580.6995	0.06	1161399	keystroke_Key.backspace	Key.backspace	n/a
580.834	0.075	1161668	keystroke_e	e	n/a
580.97	0.075	1161940	keystroke_i	i	n/a
581.7345	0.06	1163469	keystroke_r	r	n/a
581.9895	0.0455	1163979	keystroke_d	d	n/a
582.2145	0.105	1164429	keystroke_Key.space	Key.space	n/a
582.4845	0.0755	1164969	keystroke_i	i	n/a
582.6645	0.09	1165329	keystroke_n	n	n/a
583.0395	0.075	1166079	keystroke_d	d	n/a
583.4745	0.06	1166949	keystroke_Key.backspace	Key.backspace	n/a
583.699	0.0755	1167398	keystroke_j	j	n/a
583.9255	0.0745	1167851	keystroke_u	u	n/a
584.3	0.089	1168600	keystroke_r	r	n/a
584.539	0.06	1169078	keystroke_y	y	n/a
584.764	0.09	1169528	keystroke_Key.space	Key.space	n/a
584.9595	0.1055	1169919	keystroke_l	l	n/a
585.184	0.09	1170368	keystroke_o	o	n/a
585.289	0.075	1170578	keystroke_v	v	n/a
585.4395	0.0755	1170879	keystroke_e	e	n/a
585.6045	0.135	1171209	keystroke_Key.space	Key.space	n/a
586.1295	0.075	1172259	keystroke_v	v	n/a
586.2945	0.0755	1172589	keystroke_i	i	n/a
586.46	0.075	1172920	keystroke_e	e	n/a
586.7745	0.06	1173549	keystroke_t	t	n/a
587.2695	0.0605	1174539	keystroke_n	n	n/a
587.419	0.076	1174838	keystroke_a	a	n/a
587.509	0.09	1175018	keystroke_m	m	n/a
587.7195	0.0455	1175439	keystroke_e	e	n/a
588.1995	0.0745	1176399	keystroke_Key.backspace	Key.backspace	n/a
589.0845	0.06	1178169	keystroke_Key.enter	Key.enter	n/a
589.151	12.4455	1178302	prompt	n/a	rebound zoloft gabriel cycling\n
589.9545	0.09	1179909	keystroke_r	r	n/a
590.0455	0.0885	1180091	keystroke_e	e	n/a
590.3445	0.0595	1180689	keystroke_b	b	n/a
590.4645	0.06	1180929	keystroke_o	o	n/a
590.599	0.075	1181198	keystroke_u	u	n/a
590.8845	0.075	1181769	keystroke_n	n	n/a
591.094	0.06	1182188	keystroke_d	d	n/a
591.2745	0.12	1182549	keystroke_Key.space	Key.space	n/a
592.2345	0.105	1184469	keystroke_z	z	n/a
592.5495	0.076	1185099	keystroke_o	o	n/a
592.8495	0.09	1185699	keystroke_l	l	n/a
593.1495	0.09	1186299	keystroke_o	o	n/a
593.4345	0.09	1186869	keystroke_f	f	n/a
593.6595	0.06	1187319	keystroke_t	t	n/a
594.0645	0.09	1188129	keystroke_Key.space	Key.space	n/a
594.6045	0.0605	1189209	keystroke_g	g	n/a
594.7995	0.09	1189599	keystroke_r	r	n/a
594.9795	0.075	1189959	keystroke_a	a	n/a
596.179	0.045	1192358	keystroke_Key.backspace	Key.backspace	n/a
596.3595	0.09	1192719	keystroke_Key.backspace	Key.backspace	n/a
596.614	0.0905	1193228	keystroke_a	a	n/a
597.0045	0.0745	1194009	keystroke_b	b	n/a
597.2295	0.09	1194459	keystroke_r	r	n/a
597.3795	0.075	1194759	keystroke_i	i	n/a
597.6795	0.0755	1195359	keystroke_e	e	n/a
597.889	0.075	1195778	keystroke_l	l	n/a
598.2045	0.075	1196409	keystroke_Key.space	Key.space	n/a
599.5245	0.075	1199049	keystroke_c	c	n/a
599.7195	0.045	1199439	keystroke_y	y	n/a
600.0645	0.06	1200129	keystroke_c	c	n/a
600.1995	0.09	1200399	keystroke_l	l	n/a
600.3645	0.09	1200729	keystroke_i	i	n/a
600.5445	0.12	1201089	keystroke_n	n	n/a
600.77	0.0745	1201540	keystroke_g	g	n/a
601.534	0.06	1203068	keystroke_Key.enter	Key.enter	n/a
601.601	12.2665	1203202	prompt	n/a	might've reflected proxy testimonials\n
602.464	0.0905	1204928	keystroke_m	m	n/a
602.6445	0.0895	1205289	keystroke_i	i	n/a
602.929	0.075	1205858	keystroke_g	g	n/a
603.0195	0.0595	1206039	keystroke_h	h	n/a
603.3185	0.061	1206637	keystroke_t	t	n/a
603.619	0.0905	1207238	keystroke_'	'	n/a
603.8595	0.075	1207719	keystroke_v	v	n/a
604.0395	0.06	1208079	keystroke_e	e	n/a
604.2645	0.105	1208529	keystroke_Key.space	Key.space	n/a
604.97	0.0895	1209940	keystroke_r	r	n/a
605.0445	0.09	1210089	keystroke_e	e	n/a
605.3895	0.09	1210779	keystroke_f	f	n/a
605.8095	0.0755	1211619	keystroke_l	l	n/a
605.9295	0.09	1211859	keystroke_e	e	n/a
606.1695	0.0755	1212339	keystroke_d	d	n/a
606.3945	0.06	1212789	keystroke_t	t	n/a
606.7995	0.06	1213599	keystroke_Key.backspace	Key.backspace	n/a
606.979	0.075	1213958	keystroke_Key.backspace	Key.backspace	n/a
607.0395	0.1045	1214079	keystroke_c	c	n/a
607.31	0.0595	1214620	keystroke_t	t	n/a
607.474	0.0905	1214948	keystroke_e	e	n/a
