onset	duration	sample	value	key	prompt_text
1.252	10.5	2504	prompt	n/a	the quick brown fox jumps over a lazy dog\n
2.57	0.0135	5140	keystroke_t	t	n/a
2.57	0.0735	5140	keystroke_h	h	n/a
2.6735	0.074	5347	keystroke_e	e	n/a
2.7485	0.104	5497	keystroke_Key.space	Key.space	n/a
2.8685	0.1045	5737	keystroke_q	q	n/a
3.003	0.105	6006	keystroke_u	u	n/a
3.198	0.075	6396	keystroke_c	c	n/a
3.468	0.045	6936	keystroke_i	i	n/a
3.738	0.03	7476	keystroke_=	=	n/a
3.888	0.015	7776	keystroke_Key.backspace	Key.backspace	n/a
4.1285	0.06	8257	keystroke_Key.backspace	Key.backspace	n/a
4.758	0.0455	9516	keystroke_Key.backspace	Key.backspace	n/a
5.0135	0.06	10027	keystroke_i	i	n/a
5.133	0.06	10266	keystroke_c	c	n/a
5.194	0.089	10388	keystroke_k	k	n/a
5.268	0.105	10536	keystroke_Key.space	Key.space	n/a
5.478	0.045	10956	keystroke_b	b	n/a
5.643	0.06	11286	keystroke_r	r	n/a
5.718	0.0895	11436	keystroke_o	o	n/a
6.0025	0.06	12005	keystroke_n	n	n/a
6.289	0.03	12578	keystroke_=	=	n/a
6.365	0.075	12730	keystroke_w	w	n/a
6.7395	0.045	13479	keystroke_Key.backspace	Key.backspace	n/a
6.8745	0.06	13749	keystroke_Key.backspace	Key.backspace	n/a
7.0095	0.06	14019	keystroke_Key.backspace	Key.backspace	n/a
7.2045	0.0595	14409	keystroke_w	w	n/a
7.339	0.075	14678	keystroke_n	n	n/a
7.7445	0.075	15489	keystroke_Key.space	Key.space	n/a
8.014	0.06	16028	keystroke_f	f	n/a
8.134	0.0905	16268	keystroke_o	o	n/a
8.2845	0.105	16569	keystroke_x	x	n/a
8.4345	0.06	16869	keystroke_Key.space	Key.space	n/a
8.585	0.075	17170	keystroke_j	j	n/a
8.72	0.0745	17440	keystroke_u	u	n/a
8.8695	0.09	17739	keystroke_m	m	n/a
8.9745	0.105	17949	keystroke_p	p	n/a
9.125	0.0745	18250	keystroke_s	s	n/a
9.2145	0.1205	18429	keystroke_Key.space	Key.space	n/a
9.38	0.104	18760	keystroke_o	o	n/a
9.5	0.1045	19000	keystroke_v	v	n/a
9.6195	0.1355	19239	keystroke_e	e	n/a
9.709	0.105	19418	keystroke_r	r	n/a
9.815	0.074	19630	keystroke_Key.space	Key.space	n/a
9.905	0.104	19810	keystroke_a	a	n/a
10.144	0.075	20288	keystroke_Key.space	Key.space	n/a
10.325	0.074	20650	keystroke_l	l	n/a
10.714	0.09	21428	keystroke_a	a	n/a
10.954	0.09	21908	keystroke_z	z	n/a
11.059	0.1205	22118	keystroke_y	y	n/a
11.1495	0.09	22299	keystroke_Key.space	Key.space	n/a
11.3445	0.09	22689	keystroke_d	d	n/a
11.4195	0.0895	22839	keystroke_o	o	n/a
11.5395	0.06	23079	keystroke_g	g	n/a
11.6895	0.06	23379	keystroke_Key.enter	Key.enter	n/a
11.7565	6.745	23513	prompt	n/a	stated compatible results confident\n
12.7845	0.045	25569	keystroke_s	s	n/a
12.9045	0.0745	25809	keystroke_t	t	n/a
12.994	0.1355	25988	keystroke_a	a	n/a
13.0845	0.1205	26169	keystroke_t	t	n/a
13.19	0.075	26380	keystroke_e	e	n/a
13.385	0.045	26770	keystroke_d	d	n/a
13.46	0.105	26920	keystroke_Key.space	Key.space	n/a
13.67	0.12	27340	keystroke_c	c	n/a
13.805	0.135	27610	keystroke_o	o	n/a
13.88	0.135	27760	keystroke_m	m	n/a
14.015	0.105	28030	keystroke_p	p	n/a
14.135	0.12	28270	keystroke_a	a	n/a
14.4795	0.06	28959	keystroke_t	t	n/a
14.6595	0.06	29319	keystroke_i	i	n/a
15.0495	0.06	30099	keystroke_b	b	n/a
15.184	0.105	30368	keystroke_l	l	n/a
15.319	0.075	30638	keystroke_e	e	n/a
15.424	0.09	30848	keystroke_Key.space	Key.space	n/a
15.695	0.09	31390	keystroke_r	r	n/a
15.739	0.136	31478	keystroke_e	e	n/a
16.01	0.09	32020	keystroke_s	s	n/a
16.189	0.076	32378	keystroke_u	u	n/a
16.355	0.09	32710	keystroke_l	l	n/a
16.5045	0.09	33009	keystroke_t	t	n/a
16.6695	0.105	33339	keystroke_s	s	n/a
16.7595	0.09	33519	keystroke_Key.space	Key.space	n/a
16.9395	0.0895	33879	keystroke_c	c	n/a
17.014	0.12	34028	keystroke_o	o	n/a
17.119	0.075	34238	keystroke_n	n	n/a
17.269	0.075	34538	keystroke_f	f	n/a
17.39	0.059	34780	keystroke_i	i	n/a
17.584	0.12	35168	keystroke_d	d	n/a
17.824	0.09	35648	keystroke_e	e	n/a
17.99	0.059	35980	keystroke_n	n	n/a
18.14	0.059	36280	keystroke_t	t	n/a
18.439	0.06	36878	keystroke_Key.enter	Key.enter	n/a
18.5045	6.1315	37009	prompt	n/a	advances observer awesome lead\n
19.055	0.045	38110	keystroke_s	s	n/a
19.3695	0.06	38739	keystroke_Key.backspace	Key.backspace	n/a
19.5045	0.06	39009	keystroke_Key.backspace	Key.backspace	n/a
19.5495	0.12	39099	keystroke_a	a	n/a
19.6845	0.105	39369	keystroke_d	d	n/a
19.9545	0.09	39909	keystroke_v	v	n/a
20.0745	0.105	40149	keystroke_a	a	n/a
20.2545	0.09	40509	keystroke_n	n	n/a
20.3745	0.09	40749	keystroke_c	c	n/a
20.5695	0.075	41139	keystroke_e	e	n/a
20.7045	0.105	41409	keystroke_s	s	n/a
20.8245	0.105	41649	keystroke_Key.space	Key.space	n/a
21.0795	0.09	42159	keystroke_o	o	n/a
21.2445	0.075	42489	keystroke_b	b	n/a
21.5445	0.09	43089	keystroke_s	s	n/a
21.6495	0.135	43299	keystroke_e	e	n/a
21.7545	0.105	43509	keystroke_r	r	n/a
22.024	0.105	44048	keystroke_v	v	n/a
22.144	0.135	44288	keystroke_e	e	n/a
22.249	0.075	44498	keystroke_r	r	n/a
22.325	0.119	44650	keystroke_Key.space	Key.space	n/a
22.445	0.194	44890	keystroke_a	a	n/a
22.669	0.03	45338	keystroke_w	w	n/a
23.089	0.075	46178	keystroke_e	e	n/a
23.299	0.09	46598	keystroke_s	s	n/a
23.479	0.135	46958	keystroke_o	o	n/a
23.554	0.12	47108	keystroke_m	m	n/a
23.629	0.09	47258	keystroke_e	e	n/a
23.749	0.1055	47498	keystroke_Key.space	Key.space	n/a
23.9745	0.075	47949	keystroke_l	l	n/a
24.0345	0.09	48069	keystroke_e	e	n/a
24.1095	0.1645	48219	keystroke_a	a	n/a
24.2595	0.0905	48519	keystroke_d	d	n/a
24.5895	0.045	49179	keystroke_Key.enter	Key.enter	n/a
24.64	8.5015	49280	prompt	n/a	practitioner implementation flows procedures\n
25.5645	0.09	51129	keystroke_p	p	n/a
25.669	0.135	51338	keystroke_r	r	n/a
25.849	0.09	51698	keystroke_a	a	n/a
26.1195	0.105	52239	keystroke_c	c	n/a
26.3145	0.06	52629	keystroke_t	t	n/a
26.4195	0.09	52839	keystroke_i	i	n/a
26.5545	0.06	53109	keystroke_t	t	n/a
26.6445	0.1345	53289	keystroke_i	i	n/a
26.734	0.135	53468	keystroke_o	o	n/a
26.809	0.12	53618	keystroke_n	n	n/a
27.214	0.1205	54428	keystroke_e	e	n/a
27.2745	0.09	54549	keystroke_r	r	n/a
27.3945	0.09	54789	keystroke_Key.space	Key.space	n/a
27.845	0.1195	55690	keystroke_i	i	n/a
28.3095	0.105	56619	keystroke_m	m	n/a
28.5045	0.075	57009	keystroke_p	p	n/a
28.6995	0.075	57399	keystroke_l	l	n/a
28.7895	0.075	57579	keystroke_e	e	n/a
28.9245	0.075	57849	keystroke_m	m	n/a
29.0145	0.105	58029	keystroke_e	e	n/a
29.2245	0.045	58449	keystroke_n	n	n/a
29.374	0.061	58748	keystroke_t	t	n/a
29.524	0.135	59048	keystroke_a	a	n/a
29.614	0.09	59228	keystroke_t	t	n/a
29.75	0.179	59500	keystroke_i	i	n/a
29.839	0.121	59678	keystroke_o	o	n/a
29.915	0.135	59830	keystroke_n	n	n/a
30.034	0.12	60068	keystroke_Key.space	Key.space	n/a
30.14	0.09	60280	keystroke_f	f	n/a
30.275	0.074	60550	keystroke_l	l	n/a
30.409	0.09	60818	keystroke_o	o	n/a
30.514	0.105	61028	keystroke_w	w	n/a
30.6795	0.105	61359	keystroke_s	s	n/a
30.7695	0.09	61539	keystroke_Key.space	Key.space	n/a
30.8745	0.105	61749	keystroke_p	p	n/a
31.0395	0.075	62079	keystroke_r	r	n/a
31.1745	0.09	62349	keystroke_o	o	n/a
31.3695	0.075	62739	keystroke_d	d	n/a
31.6845	0.06	63369	keystroke_Key.backspace	Key.backspace	n/a
31.7745	0.075	63549	keystroke_c	c	n/a
32.0445	0.09	64089	keystroke_e	e	n/a
32.2395	0.06	64479	keystroke_d	d	n/a
32.3145	0.0895	64629	keystroke_u	u	n/a
32.464	0.15	64928	keystroke_r	r	n/a
32.554	0.12	65108	keystroke_e	e	n/a
32.884	0.075	65768	keystroke_s	s	n/a
33.064	0.075	66128	keystroke_Key.enter	Key.enter	n/a
33.1455	6.3865	66291	prompt	n/a	closely downtown dawn much\n
33.709	0.105	67418	keystroke_c	c	n/a
33.829	0.075	67658	keystroke_o	o	n/a
34.084	0.015	68168	keystroke_l	l	n/a
34.264	0.0455	68528	keystroke_Key.backspace	Key.backspace	n/a
34.715	0.06	69430	keystroke_Key.backspace	Key.backspace	n/a
34.955	0.06	69910	keystroke_l	l	n/a
35.1645	0.015	70329	keystroke_o	o	n/a
35.2695	0.105	70539	keystroke_s	s	n/a
35.4645	0.1055	70929	keystroke_e	e	n/a
35.6	0.12	71200	keystroke_l	l	n/a
35.765	0.134	71530	keystroke_y	y	n/a
35.854	0.09	71708	keystroke_Key.space	Key.space	n/a
36.049	0.0755	72098	keystroke_d	d	n/a
36.1545	0.09	72309	keystroke_o	o	n/a
36.5745	0.06	73149	keystroke_w	w	n/a
36.6945	0.075	73389	keystroke_n	n	n/a
36.9045	0.06	73809	keystroke_t	t	n/a
37.3545	0.075	74709	keystroke_o	o	n/a
37.475	0.075	74950	keystroke_w	w	n/a
37.61	0.09	75220	keystroke_n	n	n/a
37.73	0.1045	75460	keystroke_Key.space	Key.space	n/a
38.0145	0.045	76029	keystroke_d	d	n/a
38.1795	0.105	76359	keystroke_a	a	n/a
38.3445	0.0905	76689	keystroke_w	w	n/a
38.57	0.105	77140	keystroke_n	n	n/a
38.69	0.075	77380	keystroke_Key.space	Key.space	n/a
38.825	0.075	77650	keystroke_m	m	n/a
39.035	0.045	78070	keystroke_u	u	n/a
39.1395	0.075	78279	keystroke_c	c	n/a
39.2295	0.06	78459	keystroke_h	h	n/a
39.4545	0.075	78909	keystroke_Key.enter	Key.enter	n/a
39.5355	9.446	79071	prompt	n/a	converted certificates focuses cashiers\n
40.0995	0.0895	80199	keystroke_c	c	n/a
40.204	0.106	80408	keystroke_o	o	n/a
40.294	0.091	80588	keystroke_n	n	n/a
40.475	0.09	80950	keystroke_v	v	n/a
40.579	0.151	81158	keystroke_e	e	n/a
40.684	0.075	81368	keystroke_r	r	n/a
40.8495	0.1045	81699	keystroke_t	t	n/a
40.939	0.09	81878	keystroke_e	e	n/a
41.1495	0.045	82299	keystroke_d	d	n/a
41.2395	0.075	82479	keystroke_Key.space	Key.space	n/a
41.4195	0.075	82839	keystroke_c	c	n/a
41.615	0.1645	83230	keystroke_e	e	n/a
41.6895	0.12	83379	keystroke_r	r	n/a
41.8845	0.075	83769	keystroke_t	t	n/a
42.0345	0.09	84069	keystroke_i	i	n/a
42.1695	0.09	84339	keystroke_f	f	n/a
42.3195	0.075	84639	keystroke_i	i	n/a
42.425	0.15	84850	keystroke_c	c	n/a
42.56	0.15	85120	keystroke_a	a	n/a
43.115	0.135	86230	keystroke_t	t	n/a
43.22	0.09	86440	keystroke_e	e	n/a
43.355	0.105	86710	keystroke_s	s	n/a
43.475	0.09	86950	keystroke_Key.space	Key.space	n/a
43.655	0.09	87310	keystroke_f	f	n/a
43.805	0.09	87610	keystroke_o	o	n/a
43.97	0.149	87940	keystroke_c	c	n/a
44.15	0.075	88300	keystroke_u	u	n/a
44.255	0.119	88510	keystroke_s	s	n/a
45.0795	0.0745	90159	keystroke_e	e	n/a
45.26	0.09	90520	keystroke_s	s	n/a
45.44	0.105	90880	keystroke_Key.space	Key.space	n/a
45.74	0.09	91480	keystroke_c	c	n/a
45.875	0.075	91750	keystroke_h	h	n/a
46.46	0.045	92920	keystroke_Key.backspace	Key.backspace	n/a
46.565	0.09	93130	keystroke_a	a	n/a
46.925	0.045	93850	keystroke_Key.backspace	Key.backspace	n/a
47.6445	0.09	95289	keystroke_a	a	n/a
47.914	0.076	95828	keystroke_s	s	n/a
48.019	0.076	96038	keystroke_h	h	n/a
48.259	0.061	96518	keystroke_i	i	n/a
48.334	0.181	96668	keystroke_e	e	n/a
48.47	0.09	96940	keystroke_r	r	n/a
48.635	0.09	97270	keystroke_s	s	n/a
48.89	0.0895	97780	keystroke_Key.enter	Key.enter	n/a
48.988	6.368	97976	prompt	n/a	alaska begun convenient who\n
49.5795	0.09	99159	keystroke_a	a	n/a
49.6845	0.1055	99369	keystroke_l	l	n/a
49.804	0.15	99608	keystroke_a	a	n/a
50.105	0.044	100210	keystroke_k	k	n/a
50.854	0.06	101708	keystroke_Key.backspace	Key.backspace	n/a
50.944	0.105	101888	keystroke_s	s	n/a
51.1845	0.03	102369	keystroke_k	k	n/a
51.38	0.0895	102760	keystroke_a	a	n/a
51.6645	0.075	103329	keystroke_Key.space	Key.space	n/a
51.9945	0.045	103989	keystroke_b	b	n/a
52.805	0.075	105610	keystroke_e	e	n/a
53.09	0.045	106180	keystroke_g	g	n/a
53.165	0.075	106330	keystroke_u	u	n/a
53.345	0.105	106690	keystroke_n	n	n/a
53.435	0.105	106870	keystroke_Key.space	Key.space	n/a
53.6	0.12	107200	keystroke_c	c	n/a
53.675	0.105	107350	keystroke_o	o	n/a
53.735	0.0895	107470	keystroke_n	n	n/a
53.8545	0.105	107709	keystroke_v	v	n/a
54.0195	0.075	108039	keystroke_e	e	n/a
54.1245	0.09	108249	keystroke_n	n	n/a
54.2895	0.06	108579	keystroke_i	i	n/a
54.38	0.075	108760	keystroke_e	e	n/a
54.545	0.075	109090	keystroke_n	n	n/a
54.71	0.045	109420	keystroke_t	t	n/a
54.83	0.075	109660	keystroke_Key.space	Key.space	n/a
54.935	0.09	109870	keystroke_w	w	n/a
55.01	0.105	110020	keystroke_h	h	n/a
55.07	0.1045	110140	keystroke_o	o	n/a
55.295	0.06	110590	keystroke_Key.enter	Key.enter	n/a
55.361	7.3	110722	prompt	n/a	weird fitting portsmouth circles\n
56	0.09	112000	keystroke_w	w	n/a
56.27	0.075	112540	keystroke_e	e	n/a
56.449	0.06	112898	keystroke_i	i	n/a
56.5695	0.075	113139	keystroke_r	r	n/a
56.825	0.06	113650	keystroke_d	d	n/a
56.9	0.1045	113800	keystroke_Key.space	Key.space	n/a
57.0495	0.075	114099	keystroke_f	f	n/a
57.1395	0.06	114279	keystroke_i	i	n/a
57.2745	0.06	114549	keystroke_t	t	n/a
57.4095	0.075	114819	keystroke_t	t	n/a
57.4995	0.075	114999	keystroke_i	i	n/a
57.5445	0.105	115089	keystroke_n	n	n/a
57.6645	0.06	115329	keystroke_g	g	n/a
57.7395	0.135	115479	keystroke_Key.space	Key.space	n/a
57.8595	0.105	115719	keystroke_p	p	n/a
57.9945	0.06	115989	keystroke_r	r	n/a
58.0695	0.075	116139	keystroke_o	o	n/a
58.775	0.045	117550	keystroke_Key.backspace	Key.backspace	n/a
58.8945	0.06	117789	keystroke_Key.backspace	Key.backspace	n/a
59.1195	0.06	118239	keystroke_o	o	n/a
59.1795	0.075	118359	keystroke_r	r	n/a
59.3295	0.0755	118659	keystroke_t	t	n/a
59.5695	0.105	119139	keystroke_s	s	n/a
59.7795	0.105	119559	keystroke_m	m	n/a
59.8995	0.105	119799	keystroke_o	o	n/a
59.9745	0.09	119949	keystroke_u	u	n/a
60.095	0.075	120190	keystroke_t	t	n/a
60.185	0.1195	120370	keystroke_h	h	n/a
60.3195	0.09	120639	keystroke_Key.space	Key.space	n/a
61.4595	0.09	122919	keystroke_c	c	n/a
61.7145	0.045	123429	keystroke_i	i	n/a
61.849	0.09	123698	keystroke_r	r	n/a
62.09	0.06	124180	keystroke_c	c	n/a
62.3	0.06	124600	keystroke_l	l	n/a
62.3895	0.1205	124779	keystroke_e	e	n/a
62.465	0.105	124930	keystroke_s	s	n/a
62.585	0.075	125170	keystroke_Key.enter	Key.enter	n/a
62.664	5.817	125328	prompt	n/a	posing julian gratuit possible\n
63.26	0.1645	126520	keystroke_p	p	n/a
63.4095	0.105	126819	keystroke_o	o	n/a
63.5445	0.09	127089	keystroke_s	s	n/a
63.6945	0.165	127389	keystroke_i	i	n/a
63.7995	0.1195	127599	keystroke_n	n	n/a
63.905	0.074	127810	keystroke_g	g	n/a
63.994	0.091	127988	keystroke_Key.space	Key.space	n/a
64.07	0.075	128140	keystroke_j	j	n/a
64.205	0.075	128410	keystroke_u	u	n/a
64.369	0.135	128738	keystroke_l	l	n/a
64.474	0.12	128948	keystroke_i	i	n/a
64.609	0.091	129218	keystroke_a	a	n/a
64.714	0.105	129428	keystroke_n	n	n/a
64.804	0.135	129608	keystroke_Key.space	Key.space	n/a
65.044	0.0755	130088	keystroke_g	g	n/a
65.1945	0.12	130389	keystroke_r	r	n/a
65.3295	0.12	130659	keystroke_a	a	n/a
65.5845	0.075	131169	keystroke_t	t	n/a
65.7795	0.0745	131559	keystroke_u	u	n/a
65.975	0.059	131950	keystroke_i	i	n/a
66.095	0.059	132190	keystroke_t	t	n/a
66.319	0.09	132638	keystroke_Key.space	Key.space	n/a
66.784	0.075	133568	keystroke_p	p	n/a
66.829	0.106	133658	keystroke_o	o	n/a
66.949	0.076	133898	keystroke_s	s	n/a
67.1	0.0895	134200	keystroke_s	s	n/a
67.2045	0.06	134409	keystroke_i	i	n/a
67.9245	0.075	135849	keystroke_b	b	n/a
68.1645	0.075	136329	keystroke_l	l	n/a
68.3145	0.075	136629	keystroke_e	e	n/a
68.4195	0.06	136839	keystroke_Key.enter	Key.enter	n/a
68.485	5.681	136970	prompt	n/a	operated protein weekend encounter\n
69.185	0.074	138370	keystroke_o	o	n/a
69.394	0.091	138788	keystroke_p	p	n/a
69.515	0.15	139030	keystroke_e	e	n/a
69.635	0.15	139270	keystroke_r	r	n/a
69.83	0.15	139660	keystroke_a	a	n/a
69.935	0.105	139870	keystroke_t	t	n/a
70.025	0.104	140050	keystroke_e	e	n/a
70.205	0.074	140410	keystroke_d	d	n/a
70.295	0.09	140590	keystroke_Key.space	Key.space	n/a
70.37	0.12	140740	keystroke_p	p	n/a
70.504	0.091	141008	keystroke_r	r	n/a
70.61	0.075	141220	keystroke_o	o	n/a
70.729	0.091	141458	keystroke_t	t	n/a
70.85	0.089	141700	keystroke_e	e	n/a
71	0.104	142000	keystroke_i	i	n/a
71.075	0.15	142150	keystroke_n	n	n/a
71.21	0.09	142420	keystroke_Key.space	Key.space	n/a
71.435	0.1195	142870	keystroke_w	w	n/a
71.525	0.0895	143050	keystroke_e	e	n/a
71.6895	0.075	143379	keystroke_e	e	n/a
71.7795	0.075	143559	keystroke_k	k	n/a
71.8395	0.09	143679	keystroke_e	e	n/a
71.9745	0.09	143949	keystroke_n	n	n/a
72.0795	0.06	144159	keystroke_d	d	n/a
72.1695	0.09	144339	keystroke_Key.space	Key.space	n/a
72.3345	0.0895	144669	keystroke_e	e	n/a
72.454	0.075	144908	keystroke_n	n	n/a
72.724	0.105	145448	keystroke_c	c	n/a
72.799	0.105	145598	keystroke_o	o	n/a
72.859	0.1205	145718	keystroke_u	u	n/a
73.0995	0.06	146199	keystroke_n	n	n/a
73.1745	0.12	146349	keystroke_t	t	n/a
73.2495	0.105	146499	keystroke_e	e	n/a
73.4295	0.09	146859	keystroke_d	d	n/a
73.789	0.03	147578	keystroke_Key.backspace	Key.backspace	n/a
73.894	0.076	147788	keystroke_r	r	n/a
74.089	0.075	148178	keystroke_Key.enter	Key.enter	n/a
74.169	5.952	148338	prompt	n/a	specifies contribute enquiry arrive\n
74.7345	0.09	149469	keystroke_s	s	n/a
74.8845	0.09	149769	keystroke_p	p	n/a
74.96	0.105	149920	keystroke_e	e	n/a
75.6045	0.075	151209	keystroke_c	c	n/a
75.7095	0.075	151419	keystroke_i	i	n/a
75.8445	0.06	151689	keystroke_f	f	n/a
75.9645	0.075	151929	keystroke_i	i	n/a
76.0695	0.15	152139	keystroke_e	e	n/a
76.1895	0.135	152379	keystroke_s	s	n/a
76.3095	0.0895	152619	keystroke_Key.space	Key.space	n/a
76.4595	0.09	152919	keystroke_c	c	n/a
76.5345	0.09	153069	keystroke_o	o	n/a
76.5945	0.12	153189	keystroke_n	n	n/a
76.7595	0.075	153519	keystroke_t	t	n/a
76.9395	0.0745	153879	keystroke_r	r	n/a
77.074	0.105	154148	keystroke_i	i	n/a
77.239	0.06	154478	keystroke_b	b	n/a
77.329	0.12	154658	keystroke_u	u	n/a
77.479	0.165	154958	keystroke_t	t	n/a
77.689	0.09	155378	keystroke_e	e	n/a
77.839	0.105	155678	keystroke_Key.space	Key.space	n/a
78.019	0.075	156038	keystroke_e	e	n/a
78.154	0.075	156308	keystroke_n	n	n/a
78.4545	0.105	156909	keystroke_q	q	n/a
78.5745	0.12	157149	keystroke_u	u	n/a
78.7545	0.075	157509	keystroke_i	i	n/a
78.8445	0.09	157689	keystroke_r	r	n/a
78.9945	0.105	157989	keystroke_y	y	n/a
79.0695	0.075	158139	keystroke_Key.space	Key.space	n/a
79.2495	0.15	158499	keystroke_a	a	n/a
79.3845	0.075	158769	keystroke_r	r	n/a
79.5195	0.105	159039	keystroke_r	r	n/a
79.6695	0.075	159339	keystroke_i	i	n/a
79.7895	0.135	159579	keystroke_v	v	n/a
79.8795	0.105	159759	keystroke_e	e	n/a
80.0295	0.09	160059	keystroke_Key.enter	Key.enter	n/a
80.124	6.657	160248	prompt	n/a	scanners utilize offensive cutting\n
80.944	0.09	161888	keystroke_a	a	n/a
81.289	0.045	162578	keystroke_Key.backspace	Key.backspace	n/a
81.379	0.105	162758	keystroke_s	s	n/a
81.8	0.104	163600	keystroke_c	c	n/a
81.919	0.105	163838	keystroke_a	a	n/a
82.159	0.03	164318	keystroke_n	n	n/a
82.324	0.0755	164648	keystroke_n	n	n/a
82.5795	0.12	165159	keystroke_e	e	n/a
82.6545	0.12	165309	keystroke_r	r	n/a
82.8645	0.12	165729	keystroke_s	s	n/a
82.9695	0.075	165939	keystroke_Key.space	Key.space	n/a
83.0895	0.0895	166179	keystroke_u	u	n/a
83.314	0.075	166628	keystroke_t	t	n/a
83.419	0.1805	166838	keystroke_i	i	n/a
83.554	0.1205	167108	keystroke_l	l	n/a
83.7645	0.075	167529	keystroke_i	i	n/a
83.8845	0.075	167769	keystroke_z	z	n/a
84.0645	0.075	168129	keystroke_e	e	n/a
84.1545	0.105	168309	keystroke_Key.space	Key.space	n/a
84.4695	0.105	168939	keystroke_o	o	n/a
84.5895	0.045	169179	keystroke_f	f	n/a
84.7095	0.105	169419	keystroke_f	f	n/a
84.7995	0.09	169599	keystroke_e	e	n/a
84.9495	0.09	169899	keystroke_n	n	n/a
85.2345	0.075	170469	keystroke_s	s	n/a
85.4295	0.045	170859	keystroke_i	i	n/a
85.5045	0.12	171009	keystroke_v	v	n/a
85.5945	0.105	171189	keystroke_e	e	n/a
85.7145	0.105	171429	keystroke_Key.space	Key.space	n/a
85.9395	0.075	171879	keystroke_c	c	n/a
86.0295	0.06	172059	keystroke_u	u	n/a
86.1495	0.075	172299	keystroke_t	t	n/a
86.2845	0.09	172569	keystroke_t	t	n/a
86.3895	0.0895	172779	keystroke_i	i	n/a
86.449	0.1055	172898	keystroke_n	n	n/a
86.5695	0.045	173139	keystroke_g	g	n/a
86.6895	0.09	173379	keystroke_Key.enter	Key.enter	n/a
86.784	8.517	173568	prompt	n/a	interpreted passion family moderate\n
87.3495	0.06	174699	keystroke_e	e	n/a
87.4245	0.12	174849	keystroke_i	i	n/a
87.7995	0.045	175599	keystroke_Key.backspace	Key.backspace	n/a
87.904	0.06	175808	keystroke_Key.backspace	Key.backspace	n/a
88.084	0.105	176168	keystroke_i	i	n/a
88.144	0.12	176288	keystroke_n	n	n/a
88.265	0.105	176530	keystroke_t	t	n/a
88.399	0.1805	176798	keystroke_e	e	n/a
88.5195	0.09	177039	keystroke_r	r	n/a
88.7145	0.06	177429	keystroke_p	p	n/a
88.8045	0.165	177609	keystroke_r	r	n/a
88.8945	0.135	177789	keystroke_e	e	n/a
89.1795	0.1055	178359	keystroke_t	t	n/a
90.919	0.076	181838	keystroke_e	e	n/a
91.129	0.046	182258	keystroke_d	d	n/a
91.25	0.089	182500	keystroke_Key.space	Key.space	n/a
91.954	0.09	183908	keystroke_p	p	n/a
92.059	0.09	184118	keystroke_a	a	n/a
92.119	0.09	184238	keystroke_s	s	n/a
92.2695	0.1045	184539	keystroke_s	s	n/a
92.359	0.1205	184718	keystroke_i	i	n/a
92.4195	0.075	184839	keystroke_o	o	n/a
92.4645	0.12	184929	keystroke_n	n	n/a
92.7645	0.09	185529	keystroke_Key.space	Key.space	n/a
92.9895	0.06	185979	keystroke_f	f	n/a
93.2295	0.12	186459	keystroke_a	a	n/a
93.4095	0.06	186819	keystroke_m	m	n/a
93.5595	0.12	187119	keystroke_i	i	n/a
93.6645	0.12	187329	keystroke_l	l	n/a
93.7845	0.105	187569	keystroke_y	y	n/a
93.8595	0.0895	187719	keystroke_Key.space	Key.space	n/a
94.0245	0.09	188049	keystroke_m	m	n/a
94.1295	0.09	188259	keystroke_o	o	n/a
94.2795	0.06	188559	keystroke_d	d	n/a
94.4145	0.105	188829	keystroke_e	e	n/a
94.4895	0.105	188979	keystroke_r	r	n/a
94.6395	0.135	189279	keystroke_a	a	n/a
94.7595	0.135	189519	keystroke_t	t	n/a
94.8495	0.09	189699	keystroke_e	e	n/a
95.225	0.075	190450	keystroke_Key.enter	Key.enter	n/a
95.3035	4.8575	190607	prompt	n/a	magic fossil for hoped\n
96.1545	0.105	192309	keystroke_m	m	n/a
96.4095	0.075	192819	keystroke_a	a	n/a
96.6045	0.075	193209	keystroke_g	g	n/a
96.7695	0.075	193539	keystroke_i	i	n/a
96.9195	0.075	193839	keystroke_c	c	n/a
97.0095	0.06	194019	keystroke_Key.space	Key.space	n/a
97.1595	0.075	194319	keystroke_f	f	n/a
97.2645	0.045	194529	keystroke_o	o	n/a
97.459	0.075	194918	keystroke_s	s	n/a
97.595	0.074	195190	keystroke_s	s	n/a
97.64	0.074	195280	keystroke_i	i	n/a
97.819	0.09	195638	keystroke_l	l	n/a
97.924	0.075	195848	keystroke_Key.space	Key.space	n/a
98.044	0.045	196088	keystroke_f	f	n/a
98.5695	0.075	197139	keystroke_o	o	n/a
98.6595	0.06	197319	keystroke_r	r	n/a
98.7495	0.105	197499	keystroke_Key.space	Key.space	n/a
98.8695	0.09	197739	keystroke_h	h	n/a
98.9295	0.105	197859	keystroke_o	o	n/a
99.11	0.075	198220	keystroke_p	p	n/a
99.229	0.105	198458	keystroke_e	e	n/a
99.4545	0.03	198909	keystroke_s	s	n/a
99.7545	0.03	199509	keystroke_Key.backspace	Key.backspace	n/a
99.9495	0.045	199899	keystroke_d	d	n/a
100.099	0.06	200198	keystroke_Key.enter	Key.enter	n/a
100.1645	8.0215	200329	prompt	n/a	web entered villages plaintiff\n
100.8495	0.12	201699	keystroke_w	w	n/a
100.9095	0.105	201819	keystroke_e	e	n/a
101.0595	0.0755	202119	keystroke_Key.space	Key.space	n/a
101.15	0.075	202300	keystroke_b	b	n/a
101.42	0.045	202840	keystroke_Key.backspace	Key.backspace	n/a
101.5395	0.075	203079	keystroke_Key.backspace	Key.backspace	n/a
101.6295	0.09	203259	keystroke_b	b	n/a
101.6895	0.105	203379	keystroke_e	e	n/a
101.7795	0.09	203559	keystroke_Key.space	Key.space	n/a
102.0795	0.075	204159	keystroke_e	e	n/a
102.499	0.045	204998	keystroke_Key.backspace	Key.backspace	n/a
102.604	0.075	205208	keystroke_Key.backspace	Key.backspace	n/a
102.754	0.06	205508	keystroke_Key.backspace	Key.backspace	n/a
102.799	0.091	205598	keystroke_Key.space	Key.space	n/a
103.055	0.0745	206110	keystroke_e	e	n/a
103.2045	0.06	206409	keystroke_n	n	n/a
103.3545	0.12	206709	keystroke_t	t	n/a
103.4595	0.09	206919	keystroke_e	e	n/a
103.5345	0.135	207069	keystroke_r	r	n/a
103.6545	0.105	207309	keystroke_e	e	n/a
103.8645	0.09	207729	keystroke_d	d	n/a
103.9695	0.09	207939	keystroke_Key.space	Key.space	n/a
104.1795	0.075	208359	keystroke_v	v	n/a
104.2845	0.105	208569	keystroke_i	i	n/a
104.3745	0.06	208749	keystroke_l	l	n/a
104.4945	0.105	208989	keystroke_l	l	n/a
104.6145	0.09	209229	keystroke_a	a	n/a
104.6595	0.135	209319	keystroke_g	g	n/a
104.7495	0.15	209499	keystroke_e	e	n/a
104.8695	0.135	209739	keystroke_s	s	n/a
104.9745	0.09	209949	keystroke_Key.space	Key.space	n/a
105.244	0.09	210488	keystroke_p	p	n/a
105.41	0.104	210820	keystroke_l	l	n/a
105.499	0.075	210998	keystroke_a	a	n/a
105.619	0.165	211238	keystroke_i	i	n/a
105.725	0.074	211450	keystroke_n	n	n/a
106.0695	0.06	212139	keystroke_t	t	n/a
106.445	0.045	212890	keystroke_i	i	n/a
106.9095	0.06	213819	keystroke_f	f	n/a
107.0595	0.06	214119	keystroke_f	f	n/a
108.1095	0.075	216219	keystroke_Key.enter	Key.enter	n/a
108.1895	10.2115	216379	prompt	n/a	survive attached jackson origins\n
108.9495	0.075	217899	keystroke_w	w	n/a
109.0695	0.075	218139	keystroke_u	u	n/a
109.1595	0.075	218319	keystroke_r	r	n/a
109.3845	0.075	218769	keystroke_v	v	n/a
109.4745	0.06	218949	keystroke_i	i	n/a
109.6245	0.09	219249	keystroke_v	v	n/a
109.7445	0.075	219489	keystroke_e	e	n/a
109.8495	0.105	219699	keystroke_Key.space	Key.space	n/a
109.9845	0.15	219969	keystroke_a	a	n/a
110.1195	0.045	220239	keystroke_t	t	n/a
110.2245	0.12	220449	keystroke_t	t	n/a
110.2995	0.18	220599	keystroke_a	a	n/a
110.6595	0.06	221319	keystroke_=	=	n/a
110.7945	0.075	221589	keystroke_=	=	n/a
110.9595	0.045	221919	keystroke_=	=	n/a
111.455	0.06	222910	keystroke_Key.backspace	Key.backspace	n/a
111.605	0.03	223210	keystroke_Key.backspace	Key.backspace	n/a
111.71	0.06	223420	keystroke_Key.backspace	Key.backspace	n/a
111.845	0.06	223690	keystroke_Key.backspace	Key.backspace	n/a
111.98	0.075	223960	keystroke_Key.backspace	Key.backspace	n/a
113.075	0.089	226150	keystroke_s	s	n/a
113.284	0.061	226568	keystroke_r	r	n/a
113.36	0.06	226720	keystroke_u	u	n/a
113.615	0.044	227230	keystroke_Key.backspace	Key.backspace	n/a
113.734	0.0605	227468	keystroke_Key.backspace	Key.backspace	n/a
113.9145	0.0605	227829	keystroke_u	u	n/a
114.05	0.06	228100	keystroke_r	r	n/a
114.275	0.075	228550	keystroke_v	v	n/a
114.409	0.046	228818	keystroke_i	i	n/a
114.56	0.15	229120	keystroke_v	v	n/a
114.694	0.076	229388	keystroke_e	e	n/a
114.815	0.089	229630	keystroke_Key.space	Key.space	n/a
114.919	0.151	229838	keystroke_a	a	n/a
115.025	0.06	230050	keystroke_t	t	n/a
115.145	0.089	230290	keystroke_t	t	n/a
115.219	0.105	230438	keystroke_a	a	n/a
115.384	0.09	230768	keystroke_c	c	n/a
115.489	0.09	230978	keystroke_h	h	n/a
115.594	0.045	231188	keystroke_e	e	n/a
115.729	0.075	231458	keystroke_d	d	n/a
115.819	0.075	231638	keystroke_Key.space	Key.space	n/a
115.924	0.076	231848	keystroke_j	j	n/a
116.029	0.12	232058	keystroke_a	a	n/a
116.209	0.09	232418	keystroke_c	c	n/a
116.344	0.076	232688	keystroke_k	k	n/a
116.464	0.075	232928	keystroke_s	s	n/a
116.599	0.12	233198	keystroke_o	o	n/a
116.689	0.165	233378	keystroke_n	n	n/a
116.824	0.09	233648	keystroke_Key.space	Key.space	n/a
117.349	0.09	234698	keystroke_o	o	n/a
117.469	0.06	234938	keystroke_r	r	n/a
117.634	0.06	235268	keystroke_i	i	n/a
117.754	0.06	235508	keystroke_g	g	n/a
117.89	0.135	235780	keystroke_i	i	n/a
118.01	0.09	236020	keystroke_n	n	n/a
118.13	0.075	236260	keystroke_s	s	n/a
118.34	0.06	236680	keystroke_Key.enter	Key.enter	n/a
118.4045	6.3865	236809	prompt	n/a	soap badly champion ellen\n
118.955	0.09	237910	keystroke_s	s	n/a
119.015	0.12	238030	keystroke_o	o	n/a
119.18	0.0895	238360	keystroke_a	a	n/a
119.2995	0.09	238599	keystroke_p	p	n/a
119.42	0.09	238840	keystroke_Key.space	Key.space	n/a
119.735	0.075	239470	keystroke_b	b	n/a
119.78	0.015	239560	keystroke_v	v	n/a
119.825	0.09	239650	keystroke_a	a	n/a
120.005	0.06	240010	keystroke_d	d	n/a
120.14	0.12	240280	keystroke_l	l	n/a
120.5745	0.0445	241149	keystroke_Key.backspace	Key.backspace	n/a
120.709	0.06	241418	keystroke_Key.backspace	Key.backspace	n/a
120.844	0.06	241688	keystroke_Key.backspace	Key.backspace	n/a
120.979	0.06	241958	keystroke_Key.backspace	Key.backspace	n/a
121.129	0.105	242258	keystroke_a	a	n/a
121.279	0.09	242558	keystroke_d	d	n/a
121.429	0.135	242858	keystroke_l	l	n/a
121.579	0.12	243158	keystroke_y	y	n/a
121.684	0.075	243368	keystroke_Key.space	Key.space	n/a
122.464	0.105	244928	keystroke_c	c	n/a
122.554	0.06	245108	keystroke_h	h	n/a
122.659	0.091	245318	keystroke_a	a	n/a
122.764	0.075	245528	keystroke_m	m	n/a
122.959	0.135	245918	keystroke_p	p	n/a
123.244	0.1355	246488	keystroke_i	i	n/a
123.3645	0.105	246729	keystroke_o	o	n/a
123.4545	0.135	246909	keystroke_n	n	n/a
123.6195	0.09	247239	keystroke_Key.space	Key.space	n/a
124.13	0.075	248260	keystroke_e	e	n/a
124.22	0.045	248440	keystroke_l	l	n/a
124.355	0.075	248710	keystroke_l	l	n/a
124.415	0.09	248830	keystroke_e	e	n/a
124.535	0.075	249070	keystroke_n	n	n/a
124.7445	0.045	249489	keystroke_Key.enter	Key.enter	n/a
124.7945	4.2715	249589	prompt	n/a	sept puzzles cnet tulsa\n
125.3445	0.075	250689	keystroke_s	s	n/a
125.4945	0.075	250989	keystroke_e	e	n/a
125.6145	0.075	251229	keystroke_p	p	n/a
125.7495	0.075	251499	keystroke_t	t	n/a
125.8545	0.09	251709	keystroke_Key.space	Key.space	n/a
126.1395	0.105	252279	keystroke_p	p	n/a
126.1995	0.09	252399	keystroke_u	u	n/a
126.3945	0.09	252789	keystroke_z	z	n/a
126.53	0.09	253060	keystroke_z	z	n/a
126.665	0.0895	253330	keystroke_l	l	n/a
126.785	0.0595	253570	keystroke_e	e	n/a
126.9195	0.09	253839	keystroke_s	s	n/a
127.0395	0.075	254079	keystroke_Key.space	Key.space	n/a
127.2045	0.0905	254409	keystroke_c	c	n/a
127.37	0.075	254740	keystroke_n	n	n/a
127.49	0.18	254980	keystroke_e	e	n/a
127.655	0.075	255310	keystroke_t	t	n/a
127.775	0.09	255550	keystroke_Key.space	Key.space	n/a
128.15	0.075	256300	keystroke_t	t	n/a
128.285	0.075	256570	keystroke_u	u	n/a
128.4795	0.09	256959	keystroke_l	l	n/a
128.6445	0.09	257289	keystroke_s	s	n/a
128.794	0.121	257588	keystroke_a	a	n/a
128.975	0.089	257950	keystroke_Key.enter	Key.enter	n/a
129.0695	6.6115	258139	prompt	n/a	guide adult vocabulary classes\n
129.8295	0.075	259659	keystroke_g	g	n/a
129.9345	0.075	259869	keystroke_u	u	n/a
130.2495	0.06	260499	keystroke_i	i	n/a
130.3395	0.0755	260679	keystroke_d	d	n/a
130.49	0.075	260980	keystroke_e	e	n/a
130.58	0.12	261160	keystroke_Key.space	Key.space	n/a
130.79	0.075	261580	keystroke_d	d	n/a
131.09	0.0595	262180	keystroke_Key.backspace	Key.backspace	n/a
131.1795	0.135	262359	keystroke_a	a	n/a
131.2845	0.105	262569	keystroke_d	d	n/a
131.4795	0.06	262959	keystroke_u	u	n/a
131.6445	0.09	263289	keystroke_l	l	n/a
131.7945	0.075	263589	keystroke_t	t	n/a
131.8995	0.0755	263799	keystroke_Key.space	Key.space	n/a
132.2745	0.09	264549	keystroke_v	v	n/a
132.4545	0.135	264909	keystroke_o	o	n/a
132.6645	0.075	265329	keystroke_c	c	n/a
133.265	0.075	266530	keystroke_a	a	n/a
133.505	0.06	267010	keystroke_b	b	n/a
133.715	0.06	267430	keystroke_u	u	n/a
133.85	0.09	267700	keystroke_l	l	n/a
134.03	0.105	268060	keystroke_a	a	n/a
134.15	0.06	268300	keystroke_r	r	n/a
134.3	0.1345	268600	keystroke_y	y	n/a
134.4045	0.09	268809	keystroke_Key.space	Key.space	n/a
134.6745	0.09	269349	keystroke_c	c	n/a
134.8395	0.105	269679	keystroke_l	l	n/a
134.9595	0.12	269919	keystroke_a	a	n/a
135.0345	0.0895	270069	keystroke_s	s	n/a
135.199	0.12	270398	keystroke_s	s	n/a
135.304	0.09	270608	keystroke_e	e	n/a
135.424	0.105	270848	keystroke_s	s	n/a
135.574	0.105	271148	keystroke_Key.enter	Key.enter	n/a
135.6855	6.6405	271371	prompt	n/a	theme scripts prepaid notebook\n
136.1745	0.075	272349	keystroke_g	g	n/a
136.3545	0.09	272709	keystroke_h	h	n/a
136.6995	0.045	273399	keystroke_Key.backspace	Key.backspace	n/a
136.819	0.0455	273638	keystroke_Key.backspace	Key.backspace	n/a
136.8945	0.0895	273789	keystroke_t	t	n/a
137.014	0.06	274028	keystroke_h	h	n/a
137.104	0.075	274208	keystroke_e	e	n/a
137.209	0.075	274418	keystroke_m	m	n/a
137.33	0.074	274660	keystroke_e	e	n/a
137.42	0.06	274840	keystroke_n	n	n/a
137.494	0.0755	274988	keystroke_Key.space	Key.space	n/a
137.7645	0.03	275529	keystroke_Key.backspace	Key.backspace	n/a
137.8695	0.12	275739	keystroke_Key.backspace	Key.backspace	n/a
137.9905	0.074	275981	keystroke_Key.space	Key.space	n/a
138.274	0.075	276548	keystroke_s	s	n/a
138.499	0.06	276998	keystroke_c	c	n/a
138.664	0.09	277328	keystroke_r	r	n/a
138.799	0.105	277598	keystroke_i	i	n/a
138.9645	0.075	277929	keystroke_p	p	n/a
139.1145	0.09	278229	keystroke_t	t	n/a
139.3095	0.09	278619	keystroke_s	s	n/a
139.4145	0.09	278829	keystroke_Key.space	Key.space	n/a
139.6845	0.09	279369	keystroke_p	p	n/a
139.8645	0.105	279729	keystroke_r	r	n/a
140.2845	0.06	280569	keystroke_e	e	n/a
140.5245	0.075	281049	keystroke_p	p	n/a
140.6145	0.105	281229	keystroke_a	a	n/a
140.7645	0.075	281529	keystroke_i	i	n/a
140.8845	0.075	281769	keystroke_d	d	n/a
140.9895	0.075	281979	keystroke_Key.space	Key.space	n/a
141.1545	0.105	282309	keystroke_n	n	n/a
141.2295	0.09	282459	keystroke_o	o	n/a
141.3345	0.09	282669	keystroke_t	t	n/a
141.4095	0.105	282819	keystroke_e	e	n/a
141.6345	0.075	283269	keystroke_b	b	n/a
141.8145	0.06	283629	keystroke_o	o	n/a
141.9345	0.165	283869	keystroke_o	o	n/a
142.0545	0.105	284109	keystroke_k	k	n/a
142.2345	0.09	284469	keystroke_Key.enter	Key.enter	n/a
142.3295	6.5365	284659	prompt	n/a	reserves genre ceiling delight\n
142.999	0.15	285998	keystroke_r	r	n/a
143.194	0.105	286388	keystroke_e	e	n/a
143.524	0.06	287048	keystroke_s	s	n/a
143.719	0.06	287438	keystroke_s	s	n/a
144.199	0.045	288398	keystroke_Key.backspace	Key.backspace	n/a
144.425	0.09	288850	keystroke_e	e	n/a
144.56	0.06	289120	keystroke_r	r	n/a
144.8	0.135	289600	keystroke_v	v	n/a
144.89	0.075	289780	keystroke_e	e	n/a
145.025	0.09	290050	keystroke_s	s	n/a
145.115	0.1045	290230	keystroke_Key.space	Key.space	n/a
145.5045	0.075	291009	keystroke_g	g	n/a
145.6845	0.075	291369	keystroke_e	e	n/a
145.8195	0.0745	291639	keystroke_n	n	n/a
146.134	0.06	292268	keystroke_r	r	n/a
146.269	0.075	292538	keystroke_e	e	n/a
146.389	0.09	292778	keystroke_Key.space	Key.space	n/a
146.569	0.0905	293138	keystroke_c	c	n/a
146.794	0.06	293588	keystroke_e	e	n/a
146.974	0.12	293948	keystroke_i	i	n/a
147.064	0.1205	294128	keystroke_l	l	n/a
147.199	0.135	294398	keystroke_i	i	n/a
147.289	0.12	294578	keystroke_n	n	n/a
147.41	0.0445	294820	keystroke_g	g	n/a
147.469	0.105	294938	keystroke_Key.space	Key.space	n/a
147.679	0.075	295358	keystroke_d	d	n/a
147.89	0.09	295780	keystroke_e	e	n/a
148.085	0.105	296170	keystroke_l	l	n/a
148.145	0.12	296290	keystroke_i	i	n/a
148.31	0.075	296620	keystroke_g	g	n/a
148.475	0.045	296950	keystroke_h	h	n/a
148.535	0.06	297070	keystroke_t	t	n/a
148.79	0.075	297580	keystroke_Key.enter	Key.enter	n/a
148.8685	8.278	297737	prompt	n/a	emphasis eagle birthday pants\n
149.4345	0.075	298869	keystroke_e	e	n/a
149.5545	0.09	299109	keystroke_m	m	n/a
149.7195	0.0905	299439	keystroke_p	p	n/a
149.93	0.0295	299860	keystroke_a	a	n/a
149.9445	0.09	299889	keystroke_h	h	n/a
150.335	0.045	300670	keystroke_Key.backspace	Key.backspace	n/a
150.4395	0.06	300879	keystroke_Key.backspace	Key.backspace	n/a
150.635	0.06	301270	keystroke_h	h	n/a
150.739	0.091	301478	keystroke_a	a	n/a
150.935	0.06	301870	keystroke_s	s	n/a
151.039	0.061	302078	keystroke_i	i	n/a
151.145	0.09	302290	keystroke_s	s	n/a
151.309	0.076	302618	keystroke_Key.space	Key.space	n/a
151.429	0.136	302858	keystroke_e	e	n/a
151.549	0.15	303098	keystroke_a	a	n/a
152.119	0.045	304238	keystroke_Key.backspace	Key.backspace	n/a
152.224	0.075	304448	keystroke_g	g	n/a
152.359	0.0755	304718	keystroke_l	l	n/a
152.4495	0.075	304899	keystroke_e	e	n/a
152.5545	0.09	305109	keystroke_Key.space	Key.space	n/a
152.7195	0.075	305439	keystroke_b	b	n/a
152.9745	0.045	305949	keystroke_i	i	n/a
153.3495	0.06	306699	keystroke_Key.backspace	Key.backspace	n/a
153.4845	0.06	306969	keystroke_Key.backspace	Key.backspace	n/a
153.6195	0.06	307239	keystroke_Key.backspace	Key.backspace	n/a
153.7545	0.06	307509	keystroke_Key.backspace	Key.backspace	n/a
153.8895	0.06	307779	keystroke_Key.backspace	Key.backspace	n/a
154.0695	0.09	308139	keystroke_a	a	n/a
154.2345	0.045	308469	keystroke_Key.backspace	Key.backspace	n/a
154.3545	0.075	308709	keystroke_Key.backspace	Key.backspace	n/a
154.4895	0.12	308979	keystroke_a	a	n/a
154.7895	0.06	309579	keystroke_g	g	n/a
154.9995	0.06	309999	keystroke_l	l	n/a
155.074	0.075	310148	keystroke_e	e	n/a
155.179	0.09	310358	keystroke_Key.space	Key.space	n/a
155.345	0.06	310690	keystroke_b	b	n/a
155.465	0.0595	310930	keystroke_i	i	n/a
155.5845	0.06	311169	keystroke_r	r	n/a
155.7195	0.075	311439	keystroke_t	t	n/a
155.8095	0.06	311619	keystroke_h	h	n/a
155.9445	0.1195	311889	keystroke_d	d	n/a
156.049	0.18	312098	keystroke_a	a	n/a
156.214	0.105	312428	keystroke_y	y	n/a
156.289	0.09	312578	keystroke_Key.space	Key.space	n/a
156.4845	0.09	312969	keystroke_p	p	n/a
156.5895	0.12	313179	keystroke_a	a	n/a
156.7245	0.075	313449	keystroke_n	n	n/a
156.8005	0.089	313601	keystroke_t	t	n/a
156.9645	0.105	313929	keystroke_s	s	n/a
157.0845	0.06	314169	keystroke_Key.enter	Key.enter	n/a
157.149	6.207	314298	prompt	n/a	glucose compile distances activation\n
157.8345	0.075	315669	keystroke_g	g	n/a
157.9995	0.09	315999	keystroke_l	l	n/a
158.1045	0.09	316209	keystroke_u	u	n/a
158.2395	0.075	316479	keystroke_c	c	n/a
158.4645	0.06	316929	keystroke_o	o	n/a
158.5845	0.18	317169	keystroke_s	s	n/a
158.7195	0.12	317439	keystroke_e	e	n/a
158.8245	0.1195	317649	keystroke_Key.space	Key.space	n/a
159.004	0.09	318008	keystroke_c	c	n/a
159.064	0.136	318128	keystroke_o	o	n/a
159.155	0.135	318310	keystroke_m	m	n/a
159.32	0.0595	318640	keystroke_p	p	n/a
159.5295	0.045	319059	keystroke_i	i	n/a
159.6945	0.09	319389	keystroke_l	l	n/a
159.8145	0.06	319629	keystroke_e	e	n/a
159.9795	0.075	319959	keystroke_Key.space	Key.space	n/a
160.3995	0.075	320799	keystroke_d	d	n/a
160.5195	0.075	321039	keystroke_i	i	n/a
160.6395	0.12	321279	keystroke_s	s	n/a
160.8045	0.075	321609	keystroke_t	t	n/a
161.0295	0.105	322059	keystroke_a	a	n/a
161.1795	0.06	322359	keystroke_n	n	n/a
161.2845	0.09	322569	keystroke_c	c	n/a
161.4795	0.135	322959	keystroke_e	e	n/a
161.5995	0.12	323199	keystroke_s	s	n/a
161.7045	0.09	323409	keystroke_Key.space	Key.space	n/a
161.8845	0.105	323769	keystroke_a	a	n/a
162.0795	0.075	324159	keystroke_c	c	n/a
162.2895	0.045	324579	keystroke_t	t	n/a
162.3795	0.0755	324759	keystroke_i	i	n/a
162.515	0.1045	325030	keystroke_v	v	n/a
162.7095	0.15	325419	keystroke_a	a	n/a
162.8295	0.0745	325659	keystroke_t	t	n/a
162.905	0.134	325810	keystroke_i	i	n/a
163.009	0.105	326018	keystroke_o	o	n/a
163.069	0.1205	326138	keystroke_n	n	n/a
163.2795	0.075	326559	keystroke_Key.enter	Key.enter	n/a
163.359	9.747	326718	prompt	n/a	excerpt spirits overnight catherine\n
163.9245	0.105	327849	keystroke_e	e	n/a
164.1195	0.105	328239	keystroke_x	x	n/a
164.2845	0.09	328569	keystroke_c	c	n/a
164.5245	0.075	329049	keystroke_e	e	n/a
164.9445	0.075	329889	keystroke_r	r	n/a
165.1395	0.06	330279	keystroke_p	p	n/a
166.4745	0.045	332949	keystroke_t	t	n/a
166.5945	0.09	333189	keystroke_Key.space	Key.space	n/a
167.1045	0.105	334209	keystroke_s	s	n/a
167.3445	0.075	334689	keystroke_p	p	n/a
167.4645	0.045	334929	keystroke_r	r	n/a
167.5695	0.06	335139	keystroke_i	i	n/a
167.8095	0.06	335619	keystroke_r	r	n/a
168.7095	0.06	337419	keystroke_i	i	n/a
169.1145	0.045	338229	keystroke_Key.backspace	Key.backspace	n/a
169.2495	0.045	338499	keystroke_Key.backspace	Key.backspace	n/a
169.3695	0.06	338739	keystroke_Key.backspace	Key.backspace	n/a
169.5195	0.06	339039	keystroke_Key.backspace	Key.backspace	n/a
169.774	0.045	339548	keystroke_i	i	n/a
169.879	0.075	339758	keystroke_r	r	n/a
170.014	0.06	340028	keystroke_i	i	n/a
170.1495	0.075	340299	keystroke_t	t	n/a
170.3295	0.0905	340659	keystroke_s	s	n/a
170.405	0.09	340810	keystroke_Key.space	Key.space	n/a
170.54	0.09	341080	keystroke_o	o	n/a
170.795	0.09	341590	keystroke_v	v	n/a
170.9	0.164	341800	keystroke_e	e	n/a
171.02	0.074	342040	keystroke_r	r	n/a
171.154	0.105	342308	keystroke_n	n	n/a
171.244	0.105	342488	keystroke_i	i	n/a
171.365	0.0595	342730	keystroke_g	g	n/a
171.4845	0.09	342969	keystroke_h	h	n/a
171.5445	0.09	343089	keystroke_t	t	n/a
171.7395	0.105	343479	keystroke_Key.space	Key.space	n/a
172.0395	0.075	344079	keystroke_c	c	n/a
172.1295	0.15	344259	keystroke_a	a	n/a
172.2495	0.09	344499	keystroke_t	t	n/a
172.3695	0.0745	344739	keystroke_h	h	n/a
172.414	0.12	344828	keystroke_e	e	n/a
172.504	0.0755	345008	keystroke_r	r	n/a
172.6095	0.105	345219	keystroke_i	i	n/a
172.6845	0.105	345369	keystroke_n	n	n/a
172.8495	0.06	345699	keystroke_e	e	n/a
173.0295	0.075	346059	keystroke_Key.enter	Key.enter	n/a
173.109	3.792	346218	prompt	n/a	was doing ontario laundry\n
173.6595	0.1805	347319	keystroke_w	w	n/a
173.84	0.165	347680	keystroke_a	a	n/a
173.945	0.135	347890	keystroke_s	s	n/a
174.065	0.074	348130	keystroke_Key.space	Key.space	n/a
174.26	0.09	348520	keystroke_d	d	n/a
174.365	0.105	348730	keystroke_o	o	n/a
174.44	0.075	348880	keystroke_i	i	n/a
174.47	0.104	348940	keystroke_n	n	n/a
174.529	0.06	349058	keystroke_g	g	n/a
174.604	0.105	349208	keystroke_Key.space	Key.space	n/a
174.77	0.089	349540	keystroke_o	o	n/a
174.845	0.089	349690	keystroke_n	n	n/a
175.01	0.09	350020	keystroke_t	t	n/a
175.1595	0.15	350319	keystroke_a	a	n/a
175.2795	0.075	350559	keystroke_r	r	n/a
175.4145	0.09	350829	keystroke_i	i	n/a
175.4895	0.15	350979	keystroke_o	o	n/a
175.6395	0.0895	351279	keystroke_Key.space	Key.space	n/a
175.834	0.09	351668	keystroke_l	l	n/a
175.939	0.09	351878	keystroke_a	a	n/a
176.044	0.06	352088	keystroke_u	u	n/a
176.209	0.06	352418	keystroke_n	n	n/a
176.284	0.06	352568	keystroke_d	d	n/a
176.48	0.075	352960	keystroke_r	r	n/a
176.645	0.06	353290	keystroke_y	y	n/a
176.8245	0.075	353649	keystroke_Key.enter	Key.enter	n/a
176.904	5.3975	353808	prompt	n/a	flickr closure tips alexander\n
177.56	0.09	355120	keystroke_f	f	n/a
177.695	0.105	355390	keystroke_l	l	n/a
177.77	0.0895	355540	keystroke_i	i	n/a
177.9795	0.06	355959	keystroke_c	c	n/a
178.0695	0.075	356139	keystroke_k	k	n/a
178.2345	0.045	356469	keystroke_r	r	n/a
178.399	0.09	356798	keystroke_Key.space	Key.space	n/a
178.624	0.075	357248	keystroke_c	c	n/a
178.789	0.06	357578	keystroke_l	l	n/a
178.924	0.075	357848	keystroke_o	o	n/a
179.104	0.105	358208	keystroke_s	s	n/a
179.224	0.075	358448	keystroke_u	u	n/a
179.359	0.105	358718	keystroke_r	r	n/a
179.434	0.135	358868	keystroke_e	e	n/a
179.584	0.09	359168	keystroke_Key.space	Key.space	n/a
179.884	0.075	359768	keystroke_t	t	n/a
180.004	0.09	360008	keystroke_i	i	n/a
180.124	0.105	360248	keystroke_p	p	n/a
180.304	0.075	360608	keystroke_s	s	n/a
180.394	0.105	360788	keystroke_Key.space	Key.space	n/a
180.544	0.105	361088	keystroke_a	a	n/a
180.694	0.0905	361388	keystroke_l	l	n/a
180.904	0.105	361808	keystroke_e	e	n/a
181.2345	0.09	362469	keystroke_x	x	n/a
181.4595	0.09	362919	keystroke_a	a	n/a
181.6695	0.075	363339	keystroke_n	n	n/a
181.8495	0.075	363699	keystroke_d	d	n/a
181.9845	0.105	363969	keystroke_e	e	n/a
182.0445	0.09	364089	keystroke_r	r	n/a
182.2395	0.06	364479	keystroke_Key.enter	Key.enter	n/a
182.3045	5.6215	364609	prompt	n/a	muslims parts persian bundle\n
182.8845	0.06	365769	keystroke_m	m	n/a
183.0345	0.075	366069	keystroke_u	u	n/a
183.1545	0.075	366309	keystroke_s	s	n/a
183.2745	0.1055	366549	keystroke_l	l	n/a
183.4695	0.0905	366939	keystroke_i	i	n/a
183.65	0.09	367300	keystroke_m	m	n/a
183.7545	0.0905	367509	keystroke_s	s	n/a
183.8895	0.09	367779	keystroke_Key.space	Key.space	n/a
184.069	0.0605	368138	keystroke_p	p	n/a
184.264	0.1355	368528	keystroke_a	a	n/a
184.3545	0.1055	368709	keystroke_r	r	n/a
184.55	0.059	369100	keystroke_t	t	n/a
184.744	0.09	369488	keystroke_s	s	n/a
184.849	0.12	369698	keystroke_Key.space	Key.space	n/a
185.2095	0.075	370419	keystroke_p	p	n/a
185.2995	0.15	370599	keystroke_e	e	n/a
185.4195	0.09	370839	keystroke_r	r	n/a
185.6745	0.06	371349	keystroke_i	i	n/a
186.02	0.06	372040	keystroke_Key.backspace	Key.backspace	n/a
186.11	0.075	372220	keystroke_s	s	n/a
186.245	0.075	372490	keystroke_i	i	n/a
186.365	0.105	372730	keystroke_a	a	n/a
186.485	0.1195	372970	keystroke_n	n	n/a
186.59	0.0895	373180	keystroke_Key.space	Key.space	n/a
186.905	0.0745	373810	keystroke_b	b	n/a
186.995	0.0595	373990	keystroke_u	u	n/a
187.1595	0.075	374319	keystroke_n	n	n/a
187.505	0.06	375010	keystroke_d	d	n/a
187.58	0.1045	375160	keystroke_l	l	n/a
187.6995	0.075	375399	keystroke_e	e	n/a
187.8645	0.06	375729	keystroke_Key.enter	Key.enter	n/a
187.9285	10.1225	375857	prompt	n/a	crisis compaq instead knowledgestorm\n
188.87	0.105	377740	keystroke_c	c	n/a
189.064	0.075	378128	keystroke_r	r	n/a
189.199	0.075	378398	keystroke_i	i	n/a
189.304	0.09	378608	keystroke_s	s	n/a
190.054	0.06	380108	keystroke_i	i	n/a
190.174	0.075	380348	keystroke_s	s	n/a
190.309	0.075	380618	keystroke_Key.space	Key.space	n/a
190.535	0.0745	381070	keystroke_c	c	n/a
190.6395	0.165	381279	keystroke_o	o	n/a
190.7595	0.12	381519	keystroke_m	m	n/a
191.03	0.075	382060	keystroke_p	p	n/a
191.825	0.03	383650	keystroke_Key.backspace	Key.backspace	n/a
192.244	0.076	384488	keystroke_p	p	n/a
192.3945	0.105	384789	keystroke_a	a	n/a
192.8295	0.105	385659	keystroke_q	q	n/a
193.354	0.105	386708	keystroke_Key.space	Key.space	n/a
193.564	0.0905	387128	keystroke_i	i	n/a
193.7145	0.09	387429	keystroke_n	n	n/a
194.404	0.075	388808	keystroke_s	s	n/a
194.599	0.12	389198	keystroke_t	t	n/a
194.674	0.135	389348	keystroke_e	e	n/a
194.794	0.12	389588	keystroke_a	a	n/a
194.959	0.075	389918	keystroke_d	d	n/a
195.049	0.06	390098	keystroke_Key.space	Key.space	n/a
195.3195	0.12	390639	keystroke_k	k	n/a
195.4245	0.195	390849	keystroke_n	n	n/a
195.5745	0.12	391149	keystroke_o	o	n/a
195.8295	0.105	391659	keystroke_w	w	n/a
196.0545	0.09	392109	keystroke_l	l	n/a
196.1745	0.075	392349	keystroke_e	e	n/a
196.3695	0.105	392739	keystroke_d	d	n/a
196.8045	0.06	393609	keystroke_g	g	n/a
196.9695	0.075	393939	keystroke_e	e	n/a
197.1795	0.135	394359	keystroke_s	s	n/a
197.2995	0.075	394599	keystroke_t	t	n/a
197.4795	0.105	394959	keystroke_o	o	n/a
197.5995	0.075	395199	keystroke_r	r	n/a
197.7495	0.105	395499	keystroke_m	m	n/a
197.9745	0.075	395949	keystroke_Key.enter	Key.enter	n/a
198.054	6.4925	396108	prompt	n/a	closer events reductions player\n
198.6045	0.105	397209	keystroke_c	c	n/a
198.7395	0.075	397479	keystroke_l	l	n/a
198.8745	0.09	397749	keystroke_o	o	n/a
199.2195	0.12	398439	keystroke_s	s	n/a
199.3845	0.09	398769	keystroke_e	e	n/a
199.4295	0.105	398859	keystroke_r	r	n/a
199.5795	0.105	399159	keystroke_Key.space	Key.space	n/a
199.714	0.135	399428	keystroke_e	e	n/a
200.0295	0.105	400059	keystroke_c	c	n/a
200.1795	0.0905	400359	keystroke_w	w	n/a
200.194	0.061	400388	keystroke_e	e	n/a
200.63	0.06	401260	keystroke_Key.backspace	Key.backspace	n/a
200.75	0.06	401500	keystroke_Key.backspace	Key.backspace	n/a
200.885	0.075	401770	keystroke_Key.backspace	Key.backspace	n/a
201.41	0.105	402820	keystroke_v	v	n/a
201.47	0.15	402940	keystroke_e	e	n/a
201.635	0.075	403270	keystroke_n	n	n/a
201.74	0.105	403480	keystroke_t	t	n/a
201.935	0.075	403870	keystroke_s	s	n/a
202.01	0.105	404020	keystroke_Key.space	Key.space	n/a
202.6245	0.135	405249	keystroke_r	r	n/a
202.7	0.135	405400	keystroke_e	e	n/a
202.94	0.075	405880	keystroke_d	d	n/a
203.03	0.075	406060	keystroke_u	u	n/a
203.1345	0.0905	406269	keystroke_c	c	n/a
203.2845	0.0905	406569	keystroke_t	t	n/a
203.3895	0.1055	406779	keystroke_i	i	n/a
203.4495	0.105	406899	keystroke_o	o	n/a
203.5095	0.1205	407019	keystroke_n	n	n/a
203.63	0.0895	407260	keystroke_s	s	n/a
203.7195	0.135	407439	keystroke_Key.space	Key.space	n/a
203.8395	0.09	407679	keystroke_p	p	n/a
204.0045	0.09	408009	keystroke_l	l	n/a
204.0795	0.075	408159	keystroke_a	a	n/a
204.1995	0.075	408399	keystroke_y	y	n/a
204.2895	0.1195	408579	keystroke_e	e	n/a
204.3795	0.0745	408759	keystroke_r	r	n/a
204.469	0.075	408938	keystroke_Key.enter	Key.enter	n/a
204.55	8.531	409100	prompt	n/a	solo britney selective miscellaneous\n
205.1745	0.09	410349	keystroke_s	s	n/a
205.2795	0.06	410559	keystroke_o	o	n/a
205.4295	0.09	410859	keystroke_l	l	n/a
205.5795	0.09	411159	keystroke_o	o	n/a
205.6995	0.12	411399	keystroke_Key.space	Key.space	n/a
206.0445	0.06	412089	keystroke_b	b	n/a
206.194	0.075	412388	keystroke_r	r	n/a
206.345	0.119	412690	keystroke_i	i	n/a
206.524	0.075	413048	keystroke_t	t	n/a
206.659	0.105	413318	keystroke_n	n	n/a
206.809	0.075	413618	keystroke_e	e	n/a
206.929	0.12	413858	keystroke_y	y	n/a
207.019	0.09	414038	keystroke_Key.space	Key.space	n/a
207.184	0.105	414368	keystroke_s	s	n/a
207.304	0.09	414608	keystroke_e	e	n/a
207.439	0.105	414878	keystroke_l	l	n/a
207.559	0.105	415118	keystroke_e	e	n/a
208.174	0.12	416348	keystroke_c	c	n/a
208.414	0.075	416828	keystroke_t	t	n/a
208.564	0.06	417128	keystroke_i	i	n/a
208.669	0.1205	417338	keystroke_v	v	n/a
208.7445	0.105	417489	keystroke_e	e	n/a
208.8645	0.075	417729	keystroke_Key.space	Key.space	n/a
209.0145	0.09	418029	keystroke_m	m	n/a
209.285	0.045	418570	keystroke_i	i	n/a
209.42	0.045	418840	keystroke_s	s	n/a
209.615	0.105	419230	keystroke_c	c	n/a
209.81	0.06	419620	keystroke_e	e	n/a
209.945	0.045	419890	keystroke_l	l	n/a
210.065	0.09	420130	keystroke_l	l	n/a
210.185	0.105	420370	keystroke_a	a	n/a
210.305	0.06	420610	keystroke_n	n	n/a
210.485	0.104	420970	keystroke_e	e	n/a
210.965	0.045	421930	keystroke_Key.backspace	Key.backspace	n/a
211.385	0.119	422770	keystroke_i	i	n/a
211.49	0.12	422980	keystroke_o	o	n/a
211.579	0.106	423158	keystroke_u	u	n/a
211.894	0.045	423788	keystroke_Key.backspace	Key.backspace	n/a
212.014	0.06	424028	keystroke_Key.backspace	Key.backspace	n/a
212.149	0.075	424298	keystroke_Key.backspace	Key.backspace	n/a
212.314	0.045	424628	keystroke_e	e	n/a
212.42	0.0895	424840	keystroke_o	o	n/a
212.4945	0.075	424989	keystroke_u	u	n/a
212.6145	0.0605	425229	keystroke_s	s	n/a
213.02	0.06	426040	keystroke_Key.enter	Key.enter	n/a
213.0855	5.7855	426171	prompt	n/a	fancy russell infected trader\n
213.8595	0.0895	427719	keystroke_f	f	n/a
213.934	0.105	427868	keystroke_a	a	n/a
214.0545	0.0745	428109	keystroke_n	n	n/a
214.1595	0.0895	428319	keystroke_c	c	n/a
214.2645	0.1195	428529	keystroke_y	y	n/a
214.3395	0.1055	428679	keystroke_Key.space	Key.space	n/a
214.565	0.09	429130	keystroke_r	r	n/a
214.64	0.089	429280	keystroke_u	u	n/a
214.834	0.106	429668	keystroke_s	s	n/a
215.029	0.076	430058	keystroke_s	s	n/a
215.134	0.091	430268	keystroke_e	e	n/a
215.27	0.06	430540	keystroke_l	l	n/a
215.39	0.105	430780	keystroke_l	l	n/a
215.479	0.106	430958	keystroke_Key.space	Key.space	n/a
215.66	0.075	431320	keystroke_f	f	n/a
215.989	0.031	431978	keystroke_Key.backspace	Key.backspace	n/a
216.245	0.105	432490	keystroke_i	i	n/a
216.305	0.12	432610	keystroke_n	n	n/a
216.455	0.12	432910	keystroke_f	f	n/a
216.559	0.106	433118	keystroke_e	e	n/a
216.799	0.091	433598	keystroke_c	c	n/a
216.9795	0.0905	433959	keystroke_t	t	n/a
217.369	0.046	434738	keystroke_e	e	n/a
217.549	0.045	435098	keystroke_d	d	n/a
217.624	0.105	435248	keystroke_Key.space	Key.space	n/a
217.984	0.06	435968	keystroke_t	t	n/a
218.119	0.105	436238	keystroke_r	r	n/a
218.239	0.12	436478	keystroke_a	a	n/a
218.4045	0.075	436809	keystroke_d	d	n/a
218.554	0.135	437108	keystroke_e	e	n/a
218.644	0.106	437288	keystroke_r	r	n/a
218.794	0.075	437588	keystroke_Key.enter	Key.enter	n/a
218.874	4.3025	437748	prompt	n/a	themes toys fair whom'st\n
219.4845	0.09	438969	keystroke_t	t	n/a
219.5755	0.074	439151	keystroke_h	h	n/a
219.6645	0.09	439329	keystroke_e	e	n/a
219.7695	0.105	439539	keystroke_m	m	n/a
219.9045	0.075	439809	keystroke_e	e	n/a
220.1145	0.09	440229	keystroke_s	s	n/a
220.2345	0.075	440469	keystroke_Key.space	Key.space	n/a
220.474	0.061	440948	keystroke_t	t	n/a
220.535	0.119	441070	keystroke_o	o	n/a
220.64	0.089	441280	keystroke_y	y	n/a
220.79	0.075	441580	keystroke_s	s	n/a
220.8495	0.0895	441699	keystroke_Key.space	Key.space	n/a
221	0.089	442000	keystroke_f	f	n/a
221.12	0.1195	442240	keystroke_a	a	n/a
221.2245	0.09	442449	keystroke_i	i	n/a
221.3295	0.075	442659	keystroke_r	r	n/a
221.4345	0.0905	442869	keystroke_Key.space	Key.space	n/a
221.63	0.075	443260	keystroke_w	w	n/a
221.99	0.09	443980	keystroke_h	h	n/a
222.095	0.135	444190	keystroke_o	o	n/a
222.245	0.09	444490	keystroke_m	m	n/a
222.4395	0.105	444879	keystroke_'	'	n/a
222.6645	0.075	445329	keystroke_s	s	n/a
222.9195	0.06	445839	keystroke_t	t	n/a
223.1145	0.0605	446229	keystroke_Key.enter	Key.enter	n/a
223.1795	5.772	446359	prompt	n/a	invitation sees trace wireless\n
223.745	0.135	447490	keystroke_i	i	n/a
223.85	0.105	447700	keystroke_n	n	n/a
224.105	0.045	448210	keystroke_v	v	n/a
224.165	0.09	448330	keystroke_i	i	n/a
224.375	0.06	448750	keystroke_t	t	n/a
224.495	0.075	448990	keystroke_i	i	n/a
224.6	0.15	449200	keystroke_a	a	n/a
224.959	0.09	449918	keystroke_Key.backspace	Key.backspace	n/a
225.29	0.075	450580	keystroke_Key.backspace	Key.backspace	n/a
225.44	0.12	450880	keystroke_a	a	n/a
225.605	0.045	451210	keystroke_t	t	n/a
225.71	0.135	451420	keystroke_i	i	n/a
225.815	0.1195	451630	keystroke_o	o	n/a
225.9045	0.12	451809	keystroke_n	n	n/a
226.0395	0.09	452079	keystroke_Key.space	Key.space	n/a
226.1745	0.12	452349	keystroke_s	s	n/a
226.2495	0.09	452499	keystroke_e	e	n/a
226.3845	0.105	452769	keystroke_e	e	n/a
226.5495	0.135	453099	keystroke_s	s	n/a
226.6395	0.12	453279	keystroke_Key.space	Key.space	n/a
226.8945	0.075	453789	keystroke_t	t	n/a
227.0445	0.12	454089	keystroke_r	r	n/a
227.1795	0.075	454359	keystroke_a	a	n/a
227.3445	0.09	454689	keystroke_c	c	n/a
227.5545	0.075	455109	keystroke_e	e	n/a
227.6445	0.105	455289	keystroke_Key.space	Key.space	n/a
227.7645	0.09	455529	keystroke_w	w	n/a
227.8695	0.105	455739	keystroke_i	i	n/a
227.9895	0.105	455979	keystroke_r	r	n/a
228.0795	0.1205	456159	keystroke_e	e	n/a
228.26	0.1045	456520	keystroke_l	l	n/a
228.3795	0.0745	456759	keystroke_e	e	n/a
228.589	0.061	457178	keystroke_s	s	n/a
228.739	0.105	457478	keystroke_s	s	n/a
228.859	0.09	457718	keystroke_Key.enter	Key.enter	n/a
228.9545	6.4915	457909	prompt	n/a	diary contract syndrome chronicle\n
229.5945	0.0905	459189	keystroke_d	d	n/a
229.79	0.015	459580	keystroke_a	a	n/a
229.82	0.075	459640	keystroke_i	i	n/a
230.194	0.031	460388	keystroke_Key.backspace	Key.backspace	n/a
230.509	0.09	461018	keystroke_Key.backspace	Key.backspace	n/a
230.734	0.06	461468	keystroke_i	i	n/a
230.839	0.0905	461678	keystroke_a	a	n/a
231.0195	0.075	462039	keystroke_r	r	n/a
231.1845	0.105	462369	keystroke_y	y	n/a
231.2745	0.09	462549	keystroke_Key.space	Key.space	n/a
231.4545	0.09	462909	keystroke_c	c	n/a
231.5595	0.09	463119	keystroke_o	o	n/a
231.6195	0.105	463239	keystroke_n	n	n/a
231.7395	0.06	463479	keystroke_t	t	n/a
231.8745	0.12	463749	keystroke_r	r	n/a
232.0245	0.075	464049	keystroke_a	a	n/a
232.1745	0.09	464349	keystroke_c	c	n/a
232.3695	0.0605	464739	keystroke_t	t	n/a
232.46	0.09	464920	keystroke_Key.space	Key.space	n/a
232.565	0.1045	465130	keystroke_s	s	n/a
232.6845	0.075	465369	keystroke_y	y	n/a
232.8645	0.075	465729	keystroke_n	n	n/a
232.8795	0.045	465759	keystroke_b	b	n/a
232.9695	0.105	465939	keystroke_d	d	n/a
233.1945	0.06	466389	keystroke_r	r	n/a
233.3145	0.12	466629	keystroke_o	o	n/a
233.3745	0.12	466749	keystroke_m	m	n/a
233.5095	0.06	467019	keystroke_e	e	n/a
233.6145	0.09	467229	keystroke_Key.space	Key.space	n/a
233.7645	0.09	467529	keystroke_c	c	n/a
233.8545	0.075	467709	keystroke_h	h	n/a
233.9895	0.075	467979	keystroke_r	r	n/a
234.0795	0.105	468159	keystroke_o	o	n/a
234.1695	0.12	468339	keystroke_n	n	n/a
234.3945	0.0595	468789	keystroke_i	i	n/a
234.499	0.105	468998	keystroke_c	c	n/a
235.069	0.1055	470138	keystroke_l	l	n/a
235.2495	0.03	470499	keystroke_e	e	n/a
235.3845	0.06	470769	keystroke_Key.enter	Key.enter	n/a
235.449	8.187	470898	prompt	n/a	analyze floors studios average\n
236.1795	0.075	472359	keystroke_a	a	n/a
236.2545	0.075	472509	keystroke_n	n	n/a
236.39	0.0745	472780	keystroke_a	a	n/a
236.4795	0.09	472959	keystroke_l	l	n/a
236.6145	0.075	473229	keystroke_z	z	n/a
237.035	0.06	474070	keystroke_Key.backspace	Key.backspace	n/a
237.29	0.06	474580	keystroke_y	y	n/a
237.7395	0.075	475479	keystroke_z	z	n/a
237.9195	0.03	475839	keystroke_e	e	n/a
237.9795	0.09	475959	keystroke_Key.space	Key.space	n/a
238.1745	0.06	476349	keystroke_f	f	n/a
238.2645	0.075	476529	keystroke_l	l	n/a
238.3995	0.0745	476799	keystroke_o	o	n/a
238.489	0.075	476978	keystroke_r	r	n/a
238.624	0.09	477248	keystroke_r	r	n/a
238.834	0.09	477668	keystroke_s	s	n/a
238.939	0.075	477878	keystroke_Key.space	Key.space	n/a
239.299	0.045	478598	keystroke_Key.backspace	Key.backspace	n/a
239.404	0.09	478808	keystroke_Key.backspace	Key.backspace	n/a
239.554	0.075	479108	keystroke_Key.backspace	Key.backspace	n/a
239.689	0.045	479378	keystroke_Key.backspace	Key.backspace	n/a
240.095	0.074	480190	keystroke_o	o	n/a
240.26	0.045	480520	keystroke_r	r	n/a
240.454	0.09	480908	keystroke_s	s	n/a
240.529	0.076	481058	keystroke_Key.space	Key.space	n/a
240.695	0.09	481390	keystroke_s	s	n/a
240.9195	0.045	481839	keystroke_t	t	n/a
241.0395	0.075	482079	keystroke_u	u	n/a
241.2195	0.075	482439	keystroke_r	r	n/a
241.5195	0.06	483039	keystroke_Key.backspace	Key.backspace	n/a
241.6695	0.075	483339	keystroke_d	d	n/a
241.7895	0.075	483579	keystroke_i	i	n/a
241.9395	0.12	483879	keystroke_o	o	n/a
242.2395	0.075	484479	keystroke_s	s	n/a
242.3145	0.105	484629	keystroke_Key.space	Key.space	n/a
242.5395	0.105	485079	keystroke_a	a	n/a
242.7495	0.105	485499	keystroke_v	v	n/a
242.8395	0.18	485679	keystroke_e	e	n/a
242.9595	0.09	485919	keystroke_r	r	n/a
243.1545	0.195	486309	keystroke_a	a	n/a
243.2895	0.105	486579	keystroke_g	g	n/a
243.3645	0.105	486729	keystroke_e	e	n/a
243.5595	0.075	487119	keystroke_Key.enter	Key.enter	n/a
243.6395	7.647	487279	prompt	n/a	katrina exports tommy recruitment\n
244.2495	0.075	488499	keystroke_k	k	n/a
244.3845	0.105	488769	keystroke_i	i	n/a
244.7595	0.06	489519	keystroke_Key.backspace	Key.backspace	n/a
244.9095	0.12	489819	keystroke_a	a	n/a
245.09	0.074	490180	keystroke_t	t	n/a
245.2545	0.06	490509	keystroke_r	r	n/a
245.5095	0.105	491019	keystroke_i	i	n/a
245.6745	0.09	491349	keystroke_n	n	n/a
245.8095	0.09	491619	keystroke_a	a	n/a
245.8995	0.105	491799	keystroke_Key.space	Key.space	n/a
246.1245	0.075	492249	keystroke_e	e	n/a
246.3045	0.1045	492609	keystroke_x	x	n/a
246.3945	0.0895	492789	keystroke_p	p	n/a
246.589	0.09	493178	keystroke_o	o	n/a
246.799	0.075	493598	keystroke_r	r	n/a
246.9945	0.075	493989	keystroke_t	t	n/a
247.1595	0.105	494319	keystroke_s	s	n/a
247.2795	0.075	494559	keystroke_Key.space	Key.space	n/a
247.5495	0.075	495099	keystroke_t	t	n/a
247.685	0.075	495370	keystroke_u	u	n/a
248.12	0.045	496240	keystroke_Key.backspace	Key.backspace	n/a
248.33	0.0595	496660	keystroke_o	o	n/a
248.4645	0.06	496929	keystroke_m	m	n/a
248.5995	0.09	497199	keystroke_m	m	n/a
248.8245	0.105	497649	keystroke_y	y	n/a
248.8995	0.0745	497799	keystroke_Key.space	Key.space	n/a
249.17	0.044	498340	keystroke_c	c	n/a
249.394	0.06	498788	keystroke_Key.backspace	Key.backspace	n/a
249.529	0.105	499058	keystroke_r	r	n/a
249.619	0.12	499238	keystroke_e	e	n/a
249.86	0.104	499720	keystroke_c	c	n/a
250.084	0.061	500168	keystroke_r	r	n/a
250.295	0.09	500590	keystroke_u	u	n/a
250.46	0.09	500920	keystroke_i	i	n/a
250.58	0.06	501160	keystroke_t	t	n/a
250.715	0.12	501430	keystroke_m	m	n/a
250.865	0.06	501730	keystroke_e	e	n/a
250.94	0.075	501880	keystroke_n	n	n/a
251.075	0.06	502150	keystroke_t	t	n/a
251.195	0.09	502390	keystroke_Key.enter	Key.enter	n/a
251.29	4.226	502580	prompt	n/a	rough sites regard learners\n
251.915	0.074	503830	keystroke_r	r	n/a
252.005	0.09	504010	keystroke_o	o	n/a
252.05	0.0895	504100	keystroke_u	u	n/a
252.1845	0.06	504369	keystroke_g	g	n/a
252.2595	0.12	504519	keystroke_h	h	n/a
252.3645	0.0905	504729	keystroke_Key.space	Key.space	n/a
252.5	0.09	505000	keystroke_s	s	n/a
252.59	0.075	505180	keystroke_i	i	n/a
252.859	0.031	505718	keystroke_t	t	n/a
252.874	0.18	505748	keystroke_e	e	n/a
252.995	0.149	505990	keystroke_s	s	n/a
253.129	0.075	506258	keystroke_Key.space	Key.space	n/a
253.325	0.119	506650	keystroke_r	r	n/a
253.489	0.105	506978	keystroke_e	e	n/a
253.654	0.076	507308	keystroke_g	g	n/a
253.774	0.135	507548	keystroke_a	a	n/a
253.849	0.09	507698	keystroke_r	r	n/a
254.044	0.105	508088	keystroke_d	d	n/a
254.15	0.074	508300	keystroke_Key.space	Key.space	n/a
254.269	0.135	508538	keystroke_l	l	n/a
254.344	0.1205	508688	keystroke_e	e	n/a
254.4655	0.119	508931	keystroke_a	a	n/a
254.5095	0.105	509019	keystroke_r	r	n/a
254.7045	0.075	509409	keystroke_n	n	n/a
254.8995	0.075	509799	keystroke_e	e	n/a
255.0795	0.075	510159	keystroke_r	r	n/a
255.2895	0.105	510579	keystroke_s	s	n/a
255.4695	0.045	510939	keystroke_Key.enter	Key.enter	n/a
255.5195	5.8165	511039	prompt	n/a	largest distinguished ugly terrible\n
256.19	0.075	512380	keystroke_l	l	n/a
256.235	0.165	512470	keystroke_a	a	n/a
256.37	0.09	512740	keystroke_r	r	n/a
256.58	0.18	513160	keystroke_g	g	n/a
256.73	0.135	513460	keystroke_e	e	n/a
256.85	0.15	513700	keystroke_s	s	n/a
256.925	0.105	513850	keystroke_t	t	n/a
257.045	0.075	514090	keystroke_Key.space	Key.space	n/a
257.255	0.09	514510	keystroke_d	d	n/a
257.36	0.06	514720	keystroke_i	i	n/a
257.495	0.105	514990	keystroke_s	s	n/a
257.645	0.075	515290	keystroke_t	t	n/a
257.93	0.1045	515860	keystroke_i	i	n/a
258.0495	0.105	516099	keystroke_n	n	n/a
258.2295	0.0755	516459	keystroke_g	g	n/a
258.335	0.09	516670	keystroke_u	u	n/a
258.515	0.105	517030	keystroke_i	i	n/a
258.635	0.09	517270	keystroke_s	s	n/a
258.755	0.06	517510	keystroke_h	h	n/a
258.845	0.09	517690	keystroke_e	e	n/a
259.04	0.06	518080	keystroke_d	d	n/a
259.1	0.12	518200	keystroke_Key.space	Key.space	n/a
259.265	0.06	518530	keystroke_u	u	n/a
259.445	0.045	518890	keystroke_g	g	n/a
259.565	0.075	519130	keystroke_l	l	n/a
259.669	0.105	519338	keystroke_y	y	n/a
259.744	0.105	519488	keystroke_Key.space	Key.space	n/a
260.044	0.106	520088	keystroke_t	t	n/a
260.15	0.104	520300	keystroke_e	e	n/a
260.2245	0.075	520449	keystroke_r	r	n/a
260.3895	0.0745	520779	keystroke_r	r	n/a
260.494	0.09	520988	keystroke_i	i	n/a
260.644	0.09	521288	keystroke_b	b	n/a
260.749	0.1055	521498	keystroke_l	l	n/a
260.9145	0.06	521829	keystroke_e	e	n/a
261.275	0.06	522550	keystroke_Key.enter	Key.enter	n/a
261.3385	10.4225	522677	prompt	n/a	performances educated represent scoop\n
262.01	0.105	524020	keystroke_p	p	n/a
262.085	0.1195	524170	keystroke_e	e	n/a
262.1745	0.09	524349	keystroke_r	r	n/a
262.3995	0.075	524799	keystroke_m	m	n/a
262.6695	0.06	525339	keystroke_Key.backspace	Key.backspace	n/a
262.7895	0.075	525579	keystroke_f	f	n/a
263.0445	0.06	526089	keystroke_r	r	n/a
263.1345	0.09	526269	keystroke_o	o	n/a
264.0345	0.045	528069	keystroke_Key.backspace	Key.backspace	n/a
264.1395	0.075	528279	keystroke_Key.backspace	Key.backspace	n/a
264.5	0.075	529000	keystroke_o	o	n/a
264.635	0.06	529270	keystroke_r	r	n/a
264.815	0.09	529630	keystroke_m	m	n/a
265.01	0.105	530020	keystroke_a	a	n/a
265.16	0.075	530320	keystroke_n	n	n/a
265.385	0.06	530770	keystroke_c	c	n/a
265.565	0.165	531130	keystroke_e	e	n/a
265.685	0.12	531370	keystroke_s	s	n/a
265.775	0.09	531550	keystroke_Key.space	Key.space	n/a
265.925	0.09	531850	keystroke_e	e	n/a
266.134	0.09	532268	keystroke_d	d	n/a
266.24	0.059	532480	keystroke_u	u	n/a
266.449	0.075	532898	keystroke_c	c	n/a
266.584	0.135	533168	keystroke_a	a	n/a
266.674	0.075	533348	keystroke_t	t	n/a
266.779	0.105	533558	keystroke_i	i	n/a
268.3095	0.0455	536619	keystroke_Key.backspace	Key.backspace	n/a
268.43	0.075	536860	keystroke_e	e	n/a
268.595	0.06	537190	keystroke_d	d	n/a
268.67	0.075	537340	keystroke_Key.space	Key.space	n/a
269.5545	0.09	539109	keystroke_r	r	n/a
269.6145	0.105	539229	keystroke_e	e	n/a
269.7345	0.12	539469	keystroke_p	p	n/a
269.8695	0.12	539739	keystroke_r	r	n/a
269.9445	0.135	539889	keystroke_e	e	n/a
270.0945	0.09	540189	keystroke_s	s	n/a
270.1695	0.105	540339	keystroke_e	e	n/a
270.3345	0.1205	540669	keystroke_n	n	n/a
270.455	0.059	540910	keystroke_t	t	n/a
270.574	0.0905	541148	keystroke_Key.space	Key.space	n/a
270.769	0.1055	541538	keystroke_s	s	n/a
270.964	0.0905	541928	keystroke_c	c	n/a
271.1295	0.075	542259	keystroke_o	o	n/a
271.2795	0.09	542559	keystroke_o	o	n/a
271.5195	0.0895	543039	keystroke_p	p	n/a
271.7145	0.045	543429	keystroke_Key.enter	Key.enter	n/a
271.764	7.677	543528	prompt	n/a	clark gimme permit knights\n
272.4495	0.09	544899	keystroke_c	c	n/a
272.5545	0.105	545109	keystroke_l	l	n/a
272.6745	0.09	545349	keystroke_a	a	n/a
272.7495	0.09	545499	keystroke_r	r	n/a
272.9895	0.09	545979	keystroke_k	k	n/a
273.0645	0.12	546129	keystroke_Key.space	Key.space	n/a
273.3495	0.12	546699	keystroke_h	h	n/a
273.4545	0.12	546909	keystroke_i	i	n/a
273.6495	0.06	547299	keystroke_m	m	n/a
273.7845	0.075	547569	keystroke_m	m	n/a
273.9795	0.06	547959	keystroke_Key.backspace	Key.backspace	n/a
274.0995	0.075	548199	keystroke_Key.backspace	Key.backspace	n/a
274.2345	0.075	548469	keystroke_Key.backspace	Key.backspace	n/a
274.3845	0.075	548769	keystroke_Key.backspace	Key.backspace	n/a
274.5045	0.06	549009	keystroke_g	g	n/a
274.6245	0.0305	549249	keystroke_i	i	n/a
274.79	0.045	549580	keystroke_m	m	n/a
274.955	0.06	549910	keystroke_m	m	n/a
275.06	0.0895	550120	keystroke_m	m	n/a
275.2545	0.06	550509	keystroke_e	e	n/a
275.4045	0.06	550809	keystroke_Key.space	Key.space	n/a
275.7495	0.06	551499	keystroke_Key.backspace	Key.backspace	n/a
275.8695	0.075	551739	keystroke_Key.backspace	Key.backspace	n/a
276.004	0.075	552008	keystroke_Key.backspace	Key.backspace	n/a
276.17	0.044	552340	keystroke_e	e	n/a
276.26	0.089	552520	keystroke_Key.space	Key.space	n/a
276.9195	0.105	553839	keystroke_p	p	n/a
276.9645	0.105	553929	keystroke_e	e	n/a
277.0545	0.0905	554109	keystroke_r	r	n/a
277.19	0.09	554380	keystroke_m	m	n/a
277.34	0.105	554680	keystroke_i	i	n/a
277.49	0.06	554980	keystroke_t	t	n/a
277.565	0.105	555130	keystroke_Key.space	Key.space	n/a
277.685	0.075	555370	keystroke_k	k	n/a
277.805	0.105	555610	keystroke_i	i	n/a
278.104	0.061	556208	keystroke_Key.backspace	Key.backspace	n/a
278.315	0.09	556630	keystroke_n	n	n/a
278.39	0.105	556780	keystroke_i	i	n/a
278.54	0.119	557080	keystroke_g	g	n/a
278.72	0.0295	557440	keystroke_h	h	n/a
278.7795	0.105	557559	keystroke_t	t	n/a
278.9895	0.09	557979	keystroke_s	s	n/a
279.3645	0.075	558729	keystroke_Key.enter	Key.enter	n/a
279.4455	7.1655	558891	prompt	n/a	consultants bachelor entrepreneurs add\n
280.234	0.09	560468	keystroke_c	c	n/a
280.309	0.091	560618	keystroke_o	o	n/a
280.46	0.089	560920	keystroke_n	n	n/a
280.579	0.076	561158	keystroke_s	s	n/a
280.699	0.075	561398	keystroke_u	u	n/a
280.865	0.075	561730	keystroke_l	l	n/a
281.075	0.0895	562150	keystroke_t	t	n/a
281.1945	0.09	562389	keystroke_a	a	n/a
281.2695	0.075	562539	keystroke_n	n	n/a
281.4195	0.1645	562839	keystroke_t	t	n/a
281.719	0.075	563438	keystroke_s	s	n/a
281.944	0.045	563888	keystroke_Key.space	Key.space	n/a
282.304	0.075	564608	keystroke_b	b	n/a
282.394	0.1055	564788	keystroke_a	a	n/a
282.6045	0.06	565209	keystroke_c	c	n/a
282.6795	0.075	565359	keystroke_h	h	n/a
282.8145	0.0895	565629	keystroke_e	e	n/a
282.905	0.074	565810	keystroke_l	l	n/a
283.039	0.0905	566078	keystroke_o	o	n/a
283.1445	0.075	566289	keystroke_r	r	n/a
283.2645	0.09	566529	keystroke_Key.space	Key.space	n/a
283.4295	0.06	566859	keystroke_e	e	n/a
283.5345	0.075	567069	keystroke_n	n	n/a
283.7295	0.06	567459	keystroke_t	t	n/a
283.8645	0.105	567729	keystroke_r	r	n/a
283.9845	0.075	567969	keystroke_e	e	n/a
284.5545	0.0895	569109	keystroke_p	p	n/a
284.749	0.135	569498	keystroke_r	r	n/a
284.854	0.12	569708	keystroke_e	e	n/a
285.079	0.061	570158	keystroke_n	n	n/a
285.4095	0.06	570819	keystroke_e	e	n/a
285.5295	0.0595	571059	keystroke_u	u	n/a
285.679	0.075	571358	keystroke_r	r	n/a
285.889	0.075	571778	keystroke_s	s	n/a
285.965	0.074	571930	keystroke_Key.space	Key.space	n/a
286.115	0.0745	572230	keystroke_a	a	n/a
286.2495	0.015	572499	keystroke_d	d	n/a
286.37	0.09	572740	keystroke_d	d	n/a
286.52	0.0895	573040	keystroke_Key.enter	Key.enter	n/a
286.6155	4.3905	573231	prompt	n/a	oman plan islamic novelty\n
287.5695	0.12	575139	keystroke_o	o	n/a
287.6445	0.105	575289	keystroke_m	m	n/a
287.7645	0.09	575529	keystroke_a	a	n/a
287.8695	0.105	575739	keystroke_n	n	n/a
287.9595	0.12	575919	keystroke_Key.space	Key.space	n/a
288.1545	0.075	576309	keystroke_p	p	n/a
288.2895	0.09	576579	keystroke_l	l	n/a
288.3945	0.09	576789	keystroke_a	a	n/a
288.4545	0.105	576909	keystroke_n	n	n/a
288.5745	0.06	577149	keystroke_Key.space	Key.space	n/a
288.7545	0.09	577509	keystroke_i	i	n/a
288.9045	0.06	577809	keystroke_s	s	n/a
289.0395	0.135	578079	keystroke_l	l	n/a
289.2195	0.135	578439	keystroke_a	a	n/a
289.3395	0.09	578679	keystroke_m	m	n/a
289.5795	0.06	579159	keystroke_i	i	n/a
289.685	0.1045	579370	keystroke_c	c	n/a
289.8195	0.0755	579639	keystroke_Key.space	Key.space	n/a
289.985	0.105	579970	keystroke_n	n	n/a
290.075	0.105	580150	keystroke_o	o	n/a
290.255	0.1495	580510	keystroke_v	v	n/a
290.4195	0.135	580839	keystroke_e	e	n/a
290.5395	0.06	581079	keystroke_l	l	n/a
290.6745	0.06	581349	keystroke_t	t	n/a
290.7795	0.06	581559	keystroke_y	y	n/a
290.959	0.045	581918	keystroke_Key.enter	Key.enter	n/a
291.0095	6.3415	582019	prompt	n/a	monitored mastercard mask atomic\n
291.724	0.09	583448	keystroke_m	m	n/a
291.844	0.105	583688	keystroke_o	o	n/a
292.024	0.061	584048	keystroke_n	n	n/a
292.264	0.075	584528	keystroke_i	i	n/a
292.3845	0.075	584769	keystroke_t	t	n/a
292.5645	0.09	585129	keystroke_o	o	n/a
292.6695	0.075	585339	keystroke_r	r	n/a
292.8495	0.06	585699	keystroke_e	e	n/a
293.0295	0.06	586059	keystroke_d	d	n/a
293.1045	0.105	586209	keystroke_Key.space	Key.space	n/a
293.2695	0.09	586539	keystroke_m	m	n/a
293.6895	0.1195	587379	keystroke_a	a	n/a
293.839	0.075	587678	keystroke_s	s	n/a
294.034	0.09	588068	keystroke_t	t	n/a
294.109	0.1355	588218	keystroke_e	e	n/a
294.2145	0.105	588429	keystroke_r	r	n/a
294.499	0.106	588998	keystroke_c	c	n/a
294.59	0.15	589180	keystroke_a	a	n/a
294.694	0.121	589388	keystroke_r	r	n/a
294.904	0.09	589808	keystroke_d	d	n/a
295.039	0.195	590078	keystroke_Key.space	Key.space	n/a
295.624	0.105	591248	keystroke_m	m	n/a
295.774	0.165	591548	keystroke_a	a	n/a
295.969	0.12	591938	keystroke_s	s	n/a
296.1495	0.09	592299	keystroke_k	k	n/a
296.2545	0.105	592509	keystroke_Key.space	Key.space	n/a
296.4645	0.12	592929	keystroke_a	a	n/a
296.6145	0.09	593229	keystroke_t	t	n/a
296.6895	0.135	593379	keystroke_o	o	n/a
296.7945	0.105	593589	keystroke_m	m	n/a
296.9745	0.075	593949	keystroke_i	i	n/a
297.08	0.0745	594160	keystroke_c	c	n/a
297.2895	0.0605	594579	keystroke_Key.enter	Key.enter	n/a
297.354	6.717	594708	prompt	n/a	locale goat speaking views\n
297.9645	0.09	595929	keystroke_l	l	n/a
298.1295	0.1205	596259	keystroke_o	o	n/a
298.3095	0.1045	596619	keystroke_c	c	n/a
298.5195	0.1345	597039	keystroke_a	a	n/a
298.714	0.0905	597428	keystroke_l	l	n/a
298.9245	0.045	597849	keystroke_e	e	n/a
298.9995	0.0895	597999	keystroke_Key.space	Key.space	n/a
299.18	0.0895	598360	keystroke_g	g	n/a
299.3895	0.09	598779	keystroke_o	o	n/a
299.6145	0.105	599229	keystroke_a	a	n/a
299.7495	0.09	599499	keystroke_t	t	n/a
299.8695	0.09	599739	keystroke_Key.space	Key.space	n/a
300.0795	0.09	600159	keystroke_s	s	n/a
300.3345	0.09	600669	keystroke_p	p	n/a
300.4695	0.1355	600939	keystroke_e	e	n/a
300.71	0.09	601420	keystroke_a	a	n/a
300.95	0.074	601900	keystroke_k	k	n/a
301.099	0.0755	602198	keystroke_i	i	n/a
301.1445	0.105	602289	keystroke_n	n	n/a
301.2345	0.06	602469	keystroke_g	g	n/a
301.3245	0.09	602649	keystroke_Key.space	Key.space	n/a
301.6095	0.12	603219	keystroke_w	w	n/a
301.8045	0.075	603609	keystroke_i	i	n/a
301.9395	0.12	603879	keystroke_e	e	n/a
302.3895	0.045	604779	keystroke_Key.backspace	Key.backspace	n/a
302.5095	0.06	605019	keystroke_Key.backspace	Key.backspace	n/a
302.6595	0.06	605319	keystroke_Key.backspace	Key.backspace	n/a
302.7495	0.135	605499	keystroke_v	v	n/a
302.9595	0.045	605919	keystroke_i	i	n/a
303.1245	0.075	606249	keystroke_e	e	n/a
303.2895	0.075	606579	keystroke_w	w	n/a
303.8145	0.075	607629	keystroke_s	s	n/a
304.0095	0.06	608019	keystroke_Key.enter	Key.enter	n/a
304.0735	6.8675	608147	prompt	n/a	supervision satisfied syndrome malawi\n
304.819	0.09	609638	keystroke_s	s	n/a
304.924	0.075	609848	keystroke_u	u	n/a
305.1495	0.135	610299	keystroke_p	p	n/a
305.2695	0.135	610539	keystroke_e	e	n/a
305.3595	0.075	610719	keystroke_r	r	n/a
305.6895	0.0595	611379	keystroke_v	v	n/a
305.794	0.075	611588	keystroke_i	i	n/a
305.914	0.09	611828	keystroke_s	s	n/a
306.019	0.15	612038	keystroke_i	i	n/a
306.124	0.12	612248	keystroke_o	o	n/a
306.214	0.12	612428	keystroke_n	n	n/a
306.319	0.091	612638	keystroke_Key.space	Key.space	n/a
306.4695	0.09	612939	keystroke_s	s	n/a
306.6345	0.1355	613269	keystroke_a	a	n/a
306.8295	0.0905	613659	keystroke_t	t	n/a
307.1145	0.06	614229	keystroke_i	i	n/a
307.2345	0.09	614469	keystroke_s	s	n/a
307.6095	0.06	615219	keystroke_f	f	n/a
307.6995	0.075	615399	keystroke_i	i	n/a
307.8645	0.09	615729	keystroke_e	e	n/a
308.0445	0.09	616089	keystroke_d	d	n/a
308.1195	0.105	616239	keystroke_Key.space	Key.space	n/a
308.3295	0.09	616659	keystroke_s	s	n/a
308.4495	0.06	616899	keystroke_y	y	n/a
308.6145	0.06	617229	keystroke_n	n	n/a
308.7945	0.06	617589	keystroke_d	d	n/a
308.9145	0.12	617829	keystroke_r	r	n/a
309.0495	0.1495	618099	keystroke_o	o	n/a
309.139	0.12	618278	keystroke_m	m	n/a
309.274	0.075	618548	keystroke_e	e	n/a
309.364	0.21	618728	keystroke_Key.space	Key.space	n/a
309.664	0.09	619328	keystroke_m	m	n/a
309.799	0.105	619598	keystroke_a	a	n/a
309.994	0.091	619988	keystroke_l	l	n/a
310.189	0.106	620378	keystroke_a	a	n/a
310.535	0.06	621070	keystroke_w	w	n/a
310.655	0.06	621310	keystroke_i	i	n/a
310.88	0.06	621760	keystroke_Key.enter	Key.enter	n/a
310.944	4.1075	621888	prompt	n/a	sail syria lack praise\n
311.689	0.105	623378	keystroke_s	s	n/a
311.884	0.09	623768	keystroke_a	a	n/a
312.004	0.075	624008	keystroke_i	i	n/a
312.169	0.135	624338	keystroke_l	l	n/a
312.244	0.12	624488	keystroke_Key.space	Key.space	n/a
312.56	0.09	625120	keystroke_s	s	n/a
312.6795	0.0605	625359	keystroke_y	y	n/a
312.919	0.1055	625838	keystroke_r	r	n/a
313.1745	0.06	626349	keystroke_i	i	n/a
313.4145	0.015	626829	keystroke_a	a	n/a
313.4445	0.075	626889	keystroke_Key.space	Key.space	n/a
313.5795	0.12	627159	keystroke_l	l	n/a
313.6545	0.09	627309	keystroke_a	a	n/a
313.88	0.075	627760	keystroke_c	c	n/a
313.94	0.105	627880	keystroke_k	k	n/a
314.03	0.12	628060	keystroke_Key.space	Key.space	n/a
314.165	0.105	628330	keystroke_p	p	n/a
314.299	0.091	628598	keystroke_r	r	n/a
314.615	0.029	629230	keystroke_a	a	n/a
314.629	0.046	629258	keystroke_i	i	n/a
314.734	0.121	629468	keystroke_s	s	n/a
314.87	0.06	629740	keystroke_e	e	n/a
314.974	0.075	629948	keystroke_Key.enter	Key.enter	n/a
315.0545	7.6165	630109	prompt	n/a	repeated sorry coding combining\n
315.664	0.15	631328	keystroke_r	r	n/a
315.784	0.09	631568	keystroke_e	e	n/a
315.904	0.105	631808	keystroke_p	p	n/a
316.039	0.075	632078	keystroke_r	r	n/a
316.099	0.1655	632198	keystroke_e	e	n/a
316.2495	0.195	632499	keystroke_a	a	n/a
316.3695	0.135	632739	keystroke_t	t	n/a
316.4895	0.09	632979	keystroke_e	e	n/a
316.6545	0.09	633309	keystroke_d	d	n/a
316.7295	0.09	633459	keystroke_Key.space	Key.space	n/a
316.9395	0.12	633879	keystroke_s	s	n/a
317.2095	0.045	634419	keystroke_Key.backspace	Key.backspace	n/a
317.3445	0.06	634689	keystroke_Key.backspace	Key.backspace	n/a
317.4795	0.06	634959	keystroke_Key.backspace	Key.backspace	n/a
317.6295	0.06	635259	keystroke_Key.backspace	Key.backspace	n/a
317.7645	0.06	635529	keystroke_Key.backspace	Key.backspace	n/a
317.8995	0.075	635799	keystroke_Key.backspace	Key.backspace	n/a
318.0345	0.075	636069	keystroke_Key.backspace	Key.backspace	n/a
318.1845	0.06	636369	keystroke_Key.backspace	Key.backspace	n/a
318.3045	0.09	636609	keystroke_e	e	n/a
318.5145	0.09	637029	keystroke_a	a	n/a
318.7545	0.105	637509	keystroke_t	t	n/a
318.8745	0.09	637749	keystroke_e	e	n/a
319.0695	0.075	638139	keystroke_d	d	n/a
319.1745	0.0445	638349	keystroke_Key.space	Key.space	n/a
319.265	0.09	638530	keystroke_s	s	n/a
319.355	0.059	638710	keystroke_o	o	n/a
319.489	0.06	638978	keystroke_r	r	n/a
319.624	0.0755	639248	keystroke_r	r	n/a
319.7145	0.105	639429	keystroke_y	y	n/a
319.7895	0.075	639579	keystroke_Key.space	Key.space	n/a
320.0895	0.06	640179	keystroke_c	c	n/a
320.1945	0.105	640389	keystroke_o	o	n/a
320.3145	0.06	640629	keystroke_d	d	n/a
320.5245	0.09	641049	keystroke_i	i	n/a
320.5845	0.105	641169	keystroke_n	n	n/a
320.7045	0.06	641409	keystroke_g	g	n/a
320.7795	0.09	641559	keystroke_Key.space	Key.space	n/a
321.0495	0.075	642099	keystroke_c	c	n/a
321.1695	0.1345	642339	keystroke_o	o	n/a
321.23	0.104	642460	keystroke_m	m	n/a
321.454	0.045	642908	keystroke_b	b	n/a
321.574	0.105	643148	keystroke_i	i	n/a
321.649	0.09	643298	keystroke_n	n	n/a
321.859	0.105	643718	keystroke_i	i	n/a
321.995	0.104	643990	keystroke_n	n	n/a
322.384	0.076	644768	keystroke_g	g	n/a
322.594	0.075	645188	keystroke_Key.enter	Key.enter	n/a
322.6745	5.2465	645349	prompt	n/a	cookbook foul essential spoke\n
323.2245	0.075	646449	keystroke_c	c	n/a
323.3295	0.06	646659	keystroke_o	o	n/a
323.4645	0.105	646929	keystroke_o	o	n/a
323.5845	0.075	647169	keystroke_k	k	n/a
323.8845	0.075	647769	keystroke_b	b	n/a
323.9745	0.075	647949	keystroke_o	o	n/a
324.1095	0.12	648219	keystroke_o	o	n/a
324.1995	0.15	648399	keystroke_k	k	n/a
324.3345	0.075	648669	keystroke_Key.space	Key.space	n/a
324.4695	0.075	648939	keystroke_f	f	n/a
324.5745	0.105	649149	keystroke_o	o	n/a
324.6345	0.105	649269	keystroke_u	u	n/a
324.8145	0.12	649629	keystroke_l	l	n/a
324.9195	0.12	649839	keystroke_Key.space	Key.space	n/a
325.189	0.061	650378	keystroke_e	e	n/a
325.34	0.089	650680	keystroke_s	s	n/a
325.489	0.12	650978	keystroke_s	s	n/a
325.625	0.104	651250	keystroke_e	e	n/a
325.774	0.09	651548	keystroke_n	n	n/a
325.9095	0.075	651819	keystroke_t	t	n/a
326.0295	0.105	652059	keystroke_i	i	n/a
326.1645	0.105	652329	keystroke_a	a	n/a
326.2695	0.12	652539	keystroke_l	l	n/a
326.3745	0.105	652749	keystroke_Key.space	Key.space	n/a
326.5245	0.105	653049	keystroke_s	s	n/a
326.6445	0.06	653289	keystroke_o	o	n/a
326.9595	0.06	653919	keystroke_Key.backspace	Key.backspace	n/a
327.1995	0.06	654399	keystroke_p	p	n/a
327.4245	0.06	654849	keystroke_o	o	n/a
327.5895	0.06	655179	keystroke_k	k	n/a
327.7095	0.06	655419	keystroke_e	e	n/a
327.8595	0.06	655719	keystroke_Key.enter	Key.enter	n/a
327.9245	6.4915	655849	prompt	n/a	ingredients conservative phil brutal\n
328.4745	0.075	656949	keystroke_i	i	n/a
328.6095	0.09	657219	keystroke_n	n	n/a
328.7445	0.09	657489	keystroke_g	g	n/a
328.9395	0.1205	657879	keystroke_r	r	n/a
329.045	0.1045	658090	keystroke_e	e	n/a
329.3	0.06	658600	keystroke_d	d	n/a
329.42	0.105	658840	keystroke_i	i	n/a
329.63	0.06	659260	keystroke_e	e	n/a
329.765	0.075	659530	keystroke_n	n	n/a
329.915	0.075	659830	keystroke_t	t	n/a
330.08	0.09	660160	keystroke_s	s	n/a
330.184	0.091	660368	keystroke_Key.space	Key.space	n/a
330.35	0.045	660700	keystroke_s	s	n/a
330.589	0.06	661178	keystroke_Key.backspace	Key.backspace	n/a
330.739	0.06	661478	keystroke_c	c	n/a
330.889	0.045	661778	keystroke_o	o	n/a
330.904	0.105	661808	keystroke_n	n	n/a
331.144	0.105	662288	keystroke_s	s	n/a
331.219	0.1205	662438	keystroke_e	e	n/a
331.3545	0.09	662709	keystroke_r	r	n/a
331.6095	0.075	663219	keystroke_v	v	n/a
331.6845	0.165	663369	keystroke_a	a	n/a
331.8345	0.0755	663669	keystroke_t	t	n/a
331.955	0.09	663910	keystroke_i	i	n/a
332.134	0.075	664268	keystroke_v	v	n/a
332.194	0.105	664388	keystroke_e	e	n/a
332.314	0.105	664628	keystroke_Key.space	Key.space	n/a
332.524	0.09	665048	keystroke_p	p	n/a
332.659	0.18	665318	keystroke_h	h	n/a
332.824	0.135	665648	keystroke_i	i	n/a
332.944	0.12	665888	keystroke_l	l	n/a
333.049	0.09	666098	keystroke_Key.space	Key.space	n/a
333.244	0.046	666488	keystroke_b	b	n/a
333.425	0.075	666850	keystroke_r	r	n/a
333.53	0.09	667060	keystroke_u	u	n/a
333.815	0.075	667630	keystroke_t	t	n/a
334.01	0.12	668020	keystroke_a	a	n/a
334.16	0.075	668320	keystroke_l	l	n/a
334.34	0.075	668680	keystroke_Key.enter	Key.enter	n/a
334.4195	6.2215	668839	prompt	n/a	cancellation apart prescribed memorial\n
335.075	0.12	670150	keystroke_c	c	n/a
335.225	0.1195	670450	keystroke_a	a	n/a
335.375	0.105	670750	keystroke_n	n	n/a
335.6	0.06	671200	keystroke_c	c	n/a
335.78	0.06	671560	keystroke_e	e	n/a
335.87	0.06	671740	keystroke_l	l	n/a
336.0045	0.09	672009	keystroke_l	l	n/a
336.0795	0.12	672159	keystroke_a	a	n/a
336.2145	0.06	672429	keystroke_t	t	n/a
336.3045	0.1055	672609	keystroke_i	i	n/a
336.3795	0.1055	672759	keystroke_o	o	n/a
336.455	0.12	672910	keystroke_n	n	n/a
336.545	0.09	673090	keystroke_Key.space	Key.space	n/a
336.695	0.075	673390	keystroke_a	a	n/a
336.8	0.06	673600	keystroke_p	p	n/a
336.935	0.135	673870	keystroke_a	a	n/a
337.1	0.0895	674200	keystroke_r	r	n/a
337.2795	0.06	674559	keystroke_t	t	n/a
337.3245	0.12	674649	keystroke_Key.space	Key.space	n/a
337.504	0.12	675008	keystroke_p	p	n/a
337.6845	0.1195	675369	keystroke_r	r	n/a
337.819	0.0905	675638	keystroke_e	e	n/a
337.954	0.12	675908	keystroke_s	s	n/a
338.194	0.0755	676388	keystroke_c	c	n/a
338.3895	0.0905	676779	keystroke_r	r	n/a
338.54	0.059	677080	keystroke_i	i	n/a
338.764	0.076	677528	keystroke_b	b	n/a
338.869	0.091	677738	keystroke_e	e	n/a
339.064	0.0905	678128	keystroke_d	d	n/a
339.139	0.135	678278	keystroke_Key.space	Key.space	n/a
339.304	0.105	678608	keystroke_m	m	n/a
339.395	0.06	678790	keystroke_e	e	n/a
339.514	0.09	679028	keystroke_m	m	n/a
339.679	0.09	679358	keystroke_o	o	n/a
339.799	0.09	679598	keystroke_r	r	n/a
339.95	0.074	679900	keystroke_i	i	n/a
340.0995	0.0895	680199	keystroke_a	a	n/a
340.369	0.0755	680738	keystroke_l	l	n/a
340.5945	0.045	681189	keystroke_Key.enter	Key.enter	n/a
340.645	5.906	681290	prompt	n/a	triple canvas marathon alone\n
341.33	0.06	682660	keystroke_t	t	n/a
341.4795	0.06	682959	keystroke_r	r	n/a
341.5545	0.09	683109	keystroke_i	i	n/a
341.6895	0.105	683379	keystroke_p	p	n/a
341.8995	0.1205	683799	keystroke_l	l	n/a
341.975	0.09	683950	keystroke_e	e	n/a
342.0795	0.0905	684159	keystroke_Key.space	Key.space	n/a
342.26	0.075	684520	keystroke_c	c	n/a
342.4245	0.12	684849	keystroke_a	a	n/a
342.5595	0.045	685119	keystroke_n	n	n/a
342.7395	0.06	685479	keystroke_v	v	n/a
342.8145	0.12	685629	keystroke_a	a	n/a
342.9795	0.195	685959	keystroke_l	l	n/a
343.444	0.0605	686888	keystroke_Key.backspace	Key.backspace	n/a
343.6695	0.09	687339	keystroke_s	s	n/a
343.8195	0.06	687639	keystroke_Key.space	Key.space	n/a
344.1345	0.0455	688269	keystroke_m	m	n/a
344.225	0.105	688450	keystroke_a	a	n/a
344.39	0.075	688780	keystroke_r	r	n/a
344.525	0.135	689050	keystroke_a	a	n/a
344.675	0.12	689350	keystroke_t	t	n/a
344.84	0.135	689680	keystroke_h	h	n/a
344.93	0.1345	689860	keystroke_o	o	n/a
345.1095	0.1055	690219	keystroke_n	n	n/a
345.545	0.075	691090	keystroke_Key.space	Key.space	n/a
345.65	0.105	691300	keystroke_a	a	n/a
345.77	0.06	691540	keystroke_l	l	n/a
345.89	0.075	691780	keystroke_o	o	n/a
346.1	0.045	692200	keystroke_n	n	n/a
346.22	0.06	692440	keystroke_e	e	n/a
346.4745	0.075	692949	keystroke_Key.enter	Key.enter	n/a
346.555	4.586	693110	prompt	n/a	urgent gasoline chile this\n
347.2095	0.09	694419	keystroke_u	u	n/a
347.3595	0.075	694719	keystroke_r	r	n/a
347.5695	0.12	695139	keystroke_g	g	n/a
347.6445	0.105	695289	keystroke_e	e	n/a
347.7345	0.12	695469	keystroke_n	n	n/a
347.8695	0.075	695739	keystroke_t	t	n/a
347.9895	0.105	695979	keystroke_Key.space	Key.space	n/a
348.515	0.09	697030	keystroke_g	g	n/a
348.62	0.12	697240	keystroke_a	a	n/a
348.83	0.06	697660	keystroke_s	s	n/a
348.98	0.045	697960	keystroke_o	o	n/a
349.1	0.075	698200	keystroke_l	l	n/a
349.235	0.12	698470	keystroke_i	i	n/a
349.34	0.105	698680	keystroke_n	n	n/a
349.475	0.12	698950	keystroke_e	e	n/a
349.535	0.104	699070	keystroke_Key.space	Key.space	n/a
349.865	0.074	699730	keystroke_c	c	n/a
349.954	0.12	699908	keystroke_h	h	n/a
350.045	0.149	700090	keystroke_i	i	n/a
350.164	0.136	700328	keystroke_l	l	n/a
350.314	0.031	700628	keystroke_e	e	n/a
350.5995	0.06	701199	keystroke_Key.space	Key.space	n/a
350.7345	0.075	701469	keystroke_t	t	n/a
350.7945	0.12	701589	keystroke_h	h	n/a
350.8695	0.075	701739	keystroke_i	i	n/a
350.9745	0.0755	701949	keystroke_s	s	n/a
351.094	0.045	702188	keystroke_Key.enter	Key.enter	n/a
351.1455	5.5755	702291	prompt	n/a	minerals madonna everyone touched\n
351.9045	0.075	703809	keystroke_m	m	n/a
352.0695	0.06	704139	keystroke_i	i	n/a
352.1145	0.09	704229	keystroke_n	n	n/a
352.2195	0.15	704439	keystroke_e	e	n/a
352.3245	0.09	704649	keystroke_r	r	n/a
352.5045	0.105	705009	keystroke_a	a	n/a
352.5945	0.105	705189	keystroke_l	l	n/a
352.7445	0.09	705489	keystroke_s	s	n/a
352.8345	0.075	705669	keystroke_Key.space	Key.space	n/a
352.9545	0.105	705909	keystroke_m	m	n/a
353.1045	0.105	706209	keystroke_a	a	n/a
353.2845	0.105	706569	keystroke_d	d	n/a
353.3745	0.09	706749	keystroke_o	o	n/a
353.4345	0.075	706869	keystroke_n	n	n/a
353.5845	0.09	707169	keystroke_n	n	n/a
353.7045	0.105	707409	keystroke_a	a	n/a
353.7645	0.09	707529	keystroke_Key.space	Key.space	n/a
353.9295	0.135	707859	keystroke_a	a	n/a
354.214	0.076	708428	keystroke_Key.backspace	Key.backspace	n/a
354.365	0.105	708730	keystroke_e	e	n/a
354.59	0.105	709180	keystroke_v	v	n/a
354.71	0.135	709420	keystroke_e	e	n/a
355.144	0.06	710288	keystroke_r	r	n/a
355.264	0.091	710528	keystroke_y	y	n/a
355.369	0.136	710738	keystroke_o	o	n/a
355.474	0.105	710948	keystroke_n	n	n/a
355.549	0.075	711098	keystroke_e	e	n/a
355.639	0.09	711278	keystroke_Key.space	Key.space	n/a
355.864	0.06	711728	keystroke_t	t	n/a
355.954	0.09	711908	keystroke_o	o	n/a
355.999	0.091	711998	keystroke_u	u	n/a
356.179	0.105	712358	keystroke_c	c	n/a
356.269	0.06	712538	keystroke_h	h	n/a
356.3895	0.075	712779	keystroke_e	e	n/a
356.5395	0.09	713079	keystroke_d	d	n/a
356.6745	0.045	713349	keystroke_Key.enter	Key.enter	n/a
356.7245	4.8265	713449	prompt	n/a	paths skating optical options\n
357.3645	0.105	714729	keystroke_p	p	n/a
357.4545	0.0905	714909	keystroke_a	a	n/a
357.6345	0.09	715269	keystroke_t	t	n/a
357.7095	0.0895	715419	keystroke_h	h	n/a
357.829	0.105	715658	keystroke_s	s	n/a
357.949	0.06	715898	keystroke_Key.space	Key.space	n/a
358.144	0.03	716288	keystroke_s	s	n/a
358.55	0.045	717100	keystroke_k	k	n/a
358.835	0.075	717670	keystroke_a	a	n/a
359.075	0.06	718150	keystroke_t	t	n/a
359.18	0.075	718360	keystroke_i	i	n/a
359.225	0.09	718450	keystroke_n	n	n/a
359.36	0.03	718720	keystroke_g	g	n/a
359.375	0.12	718750	keystroke_Key.space	Key.space	n/a
359.51	0.135	719020	keystroke_o	o	n/a
359.75	0.075	719500	keystroke_p	p	n/a
359.975	0.06	719950	keystroke_t	t	n/a
360.065	0.075	720130	keystroke_i	i	n/a
360.215	0.075	720430	keystroke_c	c	n/a
360.365	0.1195	720730	keystroke_a	a	n/a
360.4995	0.1205	720999	keystroke_l	l	n/a
360.605	0.09	721210	keystroke_Key.space	Key.space	n/a
360.74	0.105	721480	keystroke_o	o	n/a
360.875	0.1045	721750	keystroke_p	p	n/a
360.9945	0.06	721989	keystroke_t	t	n/a
361.0695	0.15	722139	keystroke_i	i	n/a
361.1595	0.075	722319	keystroke_o	o	n/a
361.2045	0.105	722409	keystroke_n	n	n/a
361.3245	0.09	722649	keystroke_s	s	n/a
361.4745	0.075	722949	keystroke_Key.enter	Key.enter	n/a
361.5535	8.3075	723107	prompt	n/a	select screenshots simple caps\n
362.21	0.12	724420	keystroke_s	s	n/a
362.315	0.075	724630	keystroke_e	e	n/a
362.42	0.12	724840	keystroke_l	l	n/a
362.525	0.105	725050	keystroke_s	s	n/a
362.6	0.09	725200	keystroke_e	e	n/a
363.14	0.09	726280	keystroke_Key.backspace	Key.backspace	n/a
363.364	0.091	726728	keystroke_Key.backspace	Key.backspace	n/a
363.53	0.074	727060	keystroke_e	e	n/a
363.755	0.089	727510	keystroke_c	c	n/a
363.935	0.074	727870	keystroke_t	t	n/a
364.024	0.0905	728048	keystroke_Key.space	Key.space	n/a
364.2345	0.09	728469	keystroke_s	s	n/a
364.4445	0.105	728889	keystroke_c	c	n/a
364.6395	0.045	729279	keystroke_h	h	n/a
364.7295	0.105	729459	keystroke_r	r	n/a
364.8195	0.09	729639	keystroke_e	e	n/a
364.9995	0.075	729999	keystroke_e	e	n/a
365.285	0.09	730570	keystroke_n	n	n/a
365.675	0.045	731350	keystroke_Key.backspace	Key.backspace	n/a
365.81	0.059	731620	keystroke_Key.backspace	Key.backspace	n/a
365.944	0.076	731888	keystroke_Key.backspace	Key.backspace	n/a
366.095	0.075	732190	keystroke_Key.backspace	Key.backspace	n/a
366.214	0.106	732428	keystroke_Key.backspace	Key.backspace	n/a
366.365	0.149	732730	keystroke_r	r	n/a
366.47	0.105	732940	keystroke_e	e	n/a
366.665	0.09	733330	keystroke_e	e	n/a
366.77	0.075	733540	keystroke_n	n	n/a
366.89	0.09	733780	keystroke_s	s	n/a
367.01	0.12	734020	keystroke_h	h	n/a
367.085	0.119	734170	keystroke_o	o	n/a
367.235	0.074	734470	keystroke_t	t	n/a
367.415	0.09	734830	keystroke_s	s	n/a
367.684	0.09	735368	keystroke_Key.space	Key.space	n/a
367.939	0.0905	735878	keystroke_s	s	n/a
368.0145	0.105	736029	keystroke_i	i	n/a
368.0895	0.105	736179	keystroke_m	m	n/a
368.2545	0.09	736509	keystroke_p	p	n/a
368.3895	0.1345	736779	keystroke_l	l	n/a
368.4645	0.0745	736929	keystroke_e	e	n/a
368.5845	0.075	737169	keystroke_Key.space	Key.space	n/a
368.8395	0.165	737679	keystroke_a	a	n/a
369.1245	0.075	738249	keystroke_Key.backspace	Key.backspace	n/a
369.2745	0.09	738549	keystroke_c	c	n/a
369.3795	0.135	738759	keystroke_a	a	n/a
369.4995	0.075	738999	keystroke_p	p	n/a
369.6645	0.09	739329	keystroke_s	s	n/a
369.7695	0.09	739539	keystroke_Key.enter	Key.enter	n/a
369.864	5.472	739728	prompt	n/a	south throws pixels mongolia\n
370.5195	0.045	741039	keystroke_w	w	n/a
370.834	0.045	741668	keystroke_Key.backspace	Key.backspace	n/a
371.014	0.075	742028	keystroke_s	s	n/a
371.1195	0.09	742239	keystroke_o	o	n/a
371.1795	0.09	742359	keystroke_u	u	n/a
371.3295	0.075	742659	keystroke_t	t	n/a
371.4345	0.09	742869	keystroke_h	h	n/a
371.5095	0.12	743019	keystroke_Key.space	Key.space	n/a
371.7645	0.075	743529	keystroke_t	t	n/a
371.8545	0.075	743709	keystroke_h	h	n/a
371.9895	0.12	743979	keystroke_r	r	n/a
372.1245	0.105	744249	keystroke_o	o	n/a
372.2295	0.09	744459	keystroke_w	w	n/a
372.4545	0.075	744909	keystroke_s	s	n/a
372.5445	0.105	745089	keystroke_Key.space	Key.space	n/a
372.8145	0.09	745629	keystroke_p	p	n/a
372.8895	0.105	745779	keystroke_i	i	n/a
373.219	0.06	746438	keystroke_x	x	n/a
373.384	0.06	746768	keystroke_e	e	n/a
373.564	0.09	747128	keystroke_l	l	n/a
373.714	0.0755	747428	keystroke_s	s	n/a
373.834	0.105	747668	keystroke_Key.space	Key.space	n/a
373.999	0.0755	747998	keystroke_m	m	n/a
374.1945	0.165	748389	keystroke_o	o	n/a
374.3295	0.12	748659	keystroke_n	n	n/a
374.5995	0.075	749199	keystroke_g	g	n/a
374.6895	0.075	749379	keystroke_o	o	n/a
374.8395	0.135	749679	keystroke_l	l	n/a
374.9445	0.105	749889	keystroke_i	i	n/a
375.0795	0.0895	750159	keystroke_a	a	n/a
375.289	0.045	750578	keystroke_Key.enter	Key.enter	n/a
375.339	6.658	750678	prompt	n/a	highlight avoid athletics born\n
375.979	0.105	751958	keystroke_h	h	n/a
376.054	0.09	752108	keystroke_i	i	n/a
376.174	0.06	752348	keystroke_g	g	n/a
376.249	0.105	752498	keystroke_h	h	n/a
376.384	0.1055	752768	keystroke_l	l	n/a
376.475	0.1495	752950	keystroke_i	i	n/a
376.5795	0.1805	753159	keystroke_h	h	n/a
376.73	0.06	753460	keystroke_g	g	n/a
377.149	0.06	754298	keystroke_Key.backspace	Key.backspace	n/a
377.284	0.075	754568	keystroke_Key.backspace	Key.backspace	n/a
377.419	0.09	754838	keystroke_Key.backspace	Key.backspace	n/a
378.17	0.134	756340	keystroke_i	i	n/a
378.349	0.06	756698	keystroke_g	g	n/a
378.439	0.105	756878	keystroke_h	h	n/a
378.529	0.06	757058	keystroke_t	t	n/a
378.619	0.105	757238	keystroke_Key.space	Key.space	n/a
378.934	0.105	757868	keystroke_a	a	n/a
379.114	0.075	758228	keystroke_v	v	n/a
379.219	0.165	758438	keystroke_o	o	n/a
379.354	0.15	758708	keystroke_i	i	n/a
379.534	0.06	759068	keystroke_d	d	n/a
379.609	0.091	759218	keystroke_Key.space	Key.space	n/a
379.7745	0.12	759549	keystroke_a	a	n/a
379.9845	0.0905	759969	keystroke_t	t	n/a
380.09	0.0745	760180	keystroke_h	h	n/a
380.2395	0.135	760479	keystroke_l	l	n/a
380.345	0.075	760690	keystroke_e	e	n/a
380.525	0.075	761050	keystroke_t	t	n/a
380.735	0.06	761470	keystroke_i	i	n/a
380.824	0.091	761648	keystroke_c	c	n/a
381.0195	0.09	762039	keystroke_s	s	n/a
381.1245	0.09	762249	keystroke_Key.space	Key.space	n/a
381.3345	0.045	762669	keystroke_b	b	n/a
381.3945	0.135	762789	keystroke_o	o	n/a
381.5595	0.075	763119	keystroke_r	r	n/a
381.6945	0.075	763389	keystroke_n	n	n/a
381.9045	0.0905	763809	keystroke_Key.enter	Key.enter	n/a
382.0025	8.513	764005	prompt	n/a	endangered antarctica buzz estimates\n
382.565	0.09	765130	keystroke_e	e	n/a
382.7745	0.075	765549	keystroke_n	n	n/a
383.045	0.0745	766090	keystroke_d	d	n/a
383.2395	0.1055	766479	keystroke_a	a	n/a
383.3895	0.0605	766779	keystroke_n	n	n/a
383.645	0.09	767290	keystroke_g	g	n/a
383.765	0.12	767530	keystroke_e	e	n/a
383.99	0.09	767980	keystroke_r	r	n/a
384.155	0.09	768310	keystroke_e	e	n/a
384.394	0.06	768788	keystroke_d	d	n/a
384.469	0.105	768938	keystroke_Key.space	Key.space	n/a
384.619	0.12	769238	keystroke_a	a	n/a
384.755	0.089	769510	keystroke_n	n	n/a
384.889	0.06	769778	keystroke_t	t	n/a
385.1145	0.18	770229	keystroke_a	a	n/a
385.3095	0.06	770619	keystroke_r	r	n/a
385.8045	0.075	771609	keystroke_c	c	n/a
385.9695	0.06	771939	keystroke_i	i	n/a
386.3895	0.06	772779	keystroke_Key.backspace	Key.backspace	n/a
386.5395	0.075	773079	keystroke_t	t	n/a
386.8845	0.06	773769	keystroke_i	i	n/a
387.1545	0.0905	774309	keystroke_c	c	n/a
387.29	0.105	774580	keystroke_a	a	n/a
387.41	0.0745	774820	keystroke_Key.space	Key.space	n/a
387.6495	0.06	775299	keystroke_b	b	n/a
387.725	0.06	775450	keystroke_u	u	n/a
388.1595	0.09	776319	keystroke_z	z	n/a
388.3545	0.0755	776709	keystroke_z	z	n/a
388.5045	0.09	777009	keystroke_Key.space	Key.space	n/a
389.12	0.0595	778240	keystroke_e	e	n/a
389.3595	0.06	778719	keystroke_s	s	n/a
389.4345	0.075	778869	keystroke_t	t	n/a
389.5995	0.12	779199	keystroke_i	i	n/a
389.6895	0.12	779379	keystroke_m	m	n/a
389.8995	0.12	779799	keystroke_a	a	n/a
390.0045	0.105	780009	keystroke_t	t	n/a
390.0945	0.105	780189	keystroke_e	e	n/a
390.2445	0.105	780489	keystroke_s	s	n/a
390.454	0.06	780908	keystroke_Key.enter	Key.enter	n/a
390.519	4.527	781038	prompt	n/a	cups modify resort estimate\n
391.1295	0.075	782259	keystroke_c	c	n/a
391.1895	0.105	782379	keystroke_u	u	n/a
391.3395	0.105	782679	keystroke_p	p	n/a
391.4595	0.075	782919	keystroke_s	s	n/a
391.5645	0.09	783129	keystroke_Key.space	Key.space	n/a
391.7445	0.105	783489	keystroke_m	m	n/a
391.879	0.135	783758	keystroke_o	o	n/a
391.999	0.06	783998	keystroke_d	d	n/a
392.284	0.0605	784568	keystroke_i	i	n/a
392.42	0.06	784840	keystroke_f	f	n/a
392.524	0.105	785048	keystroke_y	y	n/a
392.599	0.09	785198	keystroke_Key.space	Key.space	n/a
392.809	0.106	785618	keystroke_r	r	n/a
392.884	0.106	785768	keystroke_e	e	n/a
393.005	0.12	786010	keystroke_s	s	n/a
393.095	0.12	786190	keystroke_o	o	n/a
393.229	0.1055	786458	keystroke_r	r	n/a
393.4245	0.045	786849	keystroke_t	t	n/a
393.4845	0.105	786969	keystroke_Key.space	Key.space	n/a
393.7095	0.075	787419	keystroke_e	e	n/a
393.8895	0.135	787779	keystroke_s	s	n/a
394.0395	0.075	788079	keystroke_t	t	n/a
394.2345	0.135	788469	keystroke_i	i	n/a
394.3245	0.12	788649	keystroke_m	m	n/a
394.4595	0.135	788919	keystroke_a	a	n/a
394.5495	0.12	789099	keystroke_t	t	n/a
394.6245	0.075	789249	keystroke_e	e	n/a
394.9545	0.09	789909	keystroke_Key.enter	Key.enter	n/a
395.0535	6.4575	790107	prompt	n/a	replaced outreach disco sprint\n
395.659	0.12	791318	keystroke_r	r	n/a
395.7195	0.105	791439	keystroke_e	e	n/a
395.839	0.1205	791678	keystroke_p	p	n/a
396.035	0.12	792070	keystroke_l	l	n/a
396.169	0.106	792338	keystroke_a	a	n/a
396.38	0.0745	792760	keystroke_c	c	n/a
396.5595	0.06	793119	keystroke_e	e	n/a
396.7545	0.0595	793509	keystroke_d	d	n/a
396.799	0.09	793598	keystroke_Key.space	Key.space	n/a
397.04	0.1045	794080	keystroke_o	o	n/a
397.129	0.075	794258	keystroke_u	u	n/a
397.2195	0.0745	794439	keystroke_t	t	n/a
397.4445	0.075	794889	keystroke_r	r	n/a
397.5495	0.135	795099	keystroke_e	e	n/a
397.7295	0.09	795459	keystroke_a	a	n/a
397.9395	0.0445	795879	keystroke_c	c	n/a
397.999	0.12	795998	keystroke_h	h	n/a
398.074	0.135	796148	keystroke_Key.space	Key.space	n/a
398.329	0.045	796658	keystroke_d	d	n/a
398.389	0.06	796778	keystroke_i	i	n/a
398.569	0.09	797138	keystroke_s	s	n/a
398.7345	0.12	797469	keystroke_o	o	n/a
399.754	0.06	799508	keystroke_Key.backspace	Key.backspace	n/a
399.889	0.045	799778	keystroke_c	c	n/a
400.024	0.105	800048	keystroke_o	o	n/a
400.114	0.075	800228	keystroke_Key.space	Key.space	n/a
400.324	0.09	800648	keystroke_s	s	n/a
400.444	0.12	800888	keystroke_p	p	n/a
400.579	0.06	801158	keystroke_r	r	n/a
400.714	0.105	801428	keystroke_i	i	n/a
400.804	0.105	801608	keystroke_n	n	n/a
401.134	0.06	802268	keystroke_t	t	n/a
401.434	0.075	802868	keystroke_Key.enter	Key.enter	n/a
401.514	6.1615	803028	prompt	n/a	facial jesse varies accept\n
402.079	0.09	804158	keystroke_f	f	n/a
402.214	0.09	804428	keystroke_a	a	n/a
402.4245	0.0745	804849	keystroke_c	c	n/a
402.5145	0.09	805029	keystroke_i	i	n/a
402.6345	0.075	805269	keystroke_a	a	n/a
402.7395	0.0905	805479	keystroke_l	l	n/a
402.814	0.09	805628	keystroke_Key.space	Key.space	n/a
402.964	0.061	805928	keystroke_j	j	n/a
403.07	0.1195	806140	keystroke_e	e	n/a
403.7445	0.045	807489	keystroke_s	s	n/a
403.8795	0.06	807759	keystroke_s	s	n/a
403.9695	0.09	807939	keystroke_i	i	n/a
404.344	0.045	808688	keystroke_Key.backspace	Key.backspace	n/a
404.449	0.06	808898	keystroke_e	e	n/a
404.539	0.09	809078	keystroke_Key.space	Key.space	n/a
404.794	0.075	809588	keystroke_v	v	n/a
404.899	0.135	809798	keystroke_a	a	n/a
405.019	0.075	810038	keystroke_r	r	n/a
405.1545	0.105	810309	keystroke_i	i	n/a
405.2895	0.06	810579	keystroke_e	e	n/a
405.5145	0.075	811029	keystroke_s	s	n/a
405.6345	0.09	811269	keystroke_Key.space	Key.space	n/a
405.8295	0.105	811659	keystroke_a	a	n/a
406.0695	0.195	812139	keystroke_c	c	n/a
406.4895	0.105	812979	keystroke_c	c	n/a
406.7895	0.06	813579	keystroke_e	e	n/a
406.954	0.106	813908	keystroke_p	p	n/a
407.359	0.06	814718	keystroke_t	t	n/a
407.614	0.06	815228	keystroke_Key.enter	Key.enter	n/a
407.6785	8.1425	815357	prompt	n/a	perfect sage capitol preceding\n
408.244	0.105	816488	keystroke_a	a	n/a
408.364	0.12	816728	keystroke_p	p	n/a
408.739	0.045	817478	keystroke_Key.backspace	Key.backspace	n/a
408.889	0.06	817778	keystroke_\	\	n/a
408.904	0.06	817808	keystroke_Key.backspace	Key.backspace	n/a
409.264	0.09	818528	keystroke_Key.backspace	Key.backspace	n/a
409.9695	0.135	819939	keystroke_p	p	n/a
410.0895	0.165	820179	keystroke_e	e	n/a
410.2245	0.09	820449	keystroke_r	r	n/a
410.4795	0.12	820959	keystroke_f	f	n/a
410.5845	0.105	821169	keystroke_e	e	n/a
410.8095	0.105	821619	keystroke_c	c	n/a
411.0195	0.045	822039	keystroke_t	t	n/a
411.1245	0.045	822249	keystroke_Key.space	Key.space	n/a
411.5595	0.12	823119	keystroke_s	s	n/a
411.6645	0.18	823329	keystroke_a	a	n/a
411.7845	0.075	823569	keystroke_g	g	n/a
411.8295	0.105	823659	keystroke_e	e	n/a
411.9495	0.06	823899	keystroke_Key.space	Key.space	n/a
412.249	0.09	824498	keystroke_c	c	n/a
412.369	0.09	824738	keystroke_a	a	n/a
412.489	0.09	824978	keystroke_p	p	n/a
412.669	0.09	825338	keystroke_i	i	n/a
412.774	0.075	825548	keystroke_t	t	n/a
412.894	0.105	825788	keystroke_o	o	n/a
413.029	0.06	826058	keystroke_r	r	n/a
413.374	0.045	826748	keystroke_Key.backspace	Key.backspace	n/a
413.584	0.1655	827168	keystroke_l	l	n/a
413.734	0.1055	827468	keystroke_Key.space	Key.space	n/a
414.0195	0.105	828039	keystroke_p	p	n/a
414.1395	0.105	828279	keystroke_r	r	n/a
414.214	0.12	828428	keystroke_e	e	n/a
414.604	0.075	829208	keystroke_c	c	n/a
414.784	0.06	829568	keystroke_e	e	n/a
414.949	0.075	829898	keystroke_d	d	n/a
415.0395	0.105	830079	keystroke_i	i	n/a
415.1145	0.105	830229	keystroke_n	n	n/a
415.1745	0.06	830349	keystroke_g	g	n/a
415.3245	0.03	830649	keystroke_Key.space	Key.space	n/a
415.7595	0.06	831519	keystroke_Key.enter	Key.enter	n/a
415.825	4.916	831650	prompt	n/a	emily tank midnight viewers\n
416.4195	0.075	832839	keystroke_e	e	n/a
416.5395	0.09	833079	keystroke_m	m	n/a
416.6895	0.12	833379	keystroke_i	i	n/a
416.8245	0.075	833649	keystroke_l	l	n/a
416.9145	0.105	833829	keystroke_y	y	n/a
417.0045	0.075	834009	keystroke_Key.space	Key.space	n/a
417.2745	0.075	834549	keystroke_t	t	n/a
417.4395	0.105	834879	keystroke_a	a	n/a
417.6345	0.105	835269	keystroke_n	n	n/a
417.8145	0.1055	835629	keystroke_k	k	n/a
417.9495	0.09	835899	keystroke_Key.space	Key.space	n/a
418.2195	0.06	836439	keystroke_m	m	n/a
418.3395	0.075	836679	keystroke_i	i	n/a
418.4295	0.075	836859	keystroke_d	d	n/a
418.5645	0.075	837129	keystroke_n	n	n/a
418.6845	0.12	837369	keystroke_i	i	n/a
418.8345	0.06	837669	keystroke_g	g	n/a
418.9245	0.06	837849	keystroke_h	h	n/a
419.0145	0.06	838029	keystroke_t	t	n/a
419.1195	0.0895	838239	keystroke_Key.space	Key.space	n/a
419.299	0.075	838598	keystroke_v	v	n/a
419.405	0.074	838810	keystroke_i	i	n/a
419.539	0.075	839078	keystroke_e	e	n/a
419.599	0.135	839198	keystroke_w	w	n/a
419.989	0.075	839978	keystroke_e	e	n/a
420.184	0.075	840368	keystroke_r	r	n/a
420.455	0.075	840910	keystroke_s	s	n/a
420.695	0.045	841390	keystroke_Key.enter	Key.enter	n/a
420.746	6.43	841492	prompt	n/a	involving communities mental petite\n
421.295	0.09	842590	keystroke_i	i	n/a
421.37	0.09	842740	keystroke_n	n	n/a
421.535	0.059	843070	keystroke_v	v	n/a
421.61	0.075	843220	keystroke_o	o	n/a
421.774	0.076	843548	keystroke_l	l	n/a
421.939	0.06	843878	keystroke_v	v	n/a
422.044	0.075	844088	keystroke_i	i	n/a
422.089	0.106	844178	keystroke_n	n	n/a
422.179	0.061	844358	keystroke_g	g	n/a
