onset	duration	sample	value	key	prompt_text
8.7435	12.8435	17487	prompt	n/a	the quick brown fox jumps over a lazy dog\n
10.3365	0.001	20673	keystroke_t	t	n/a
10.3375	0.057	20675	keystroke_h	h	n/a
10.5145	0.09	21029	keystroke_e	e	n/a
11.0095	0.12	22019	keystroke_Key.space	Key.space	n/a
11.5795	0.045	23159	keystroke_q	q	n/a
11.7445	0.12	23489	keystroke_u	u	n/a
11.8195	0.105	23639	keystroke_i	i	n/a
11.9545	0.075	23909	keystroke_c	c	n/a
12.1795	0.015	24359	keystroke_k	k	n/a
12.4195	0.045	24839	keystroke_Key.space	Key.space	n/a
13.4085	0.091	26817	keystroke_b	b	n/a
13.6345	0.075	27269	keystroke_r	r	n/a
13.7095	0.09	27419	keystroke_o	o	n/a
13.8145	0.1045	27629	keystroke_w	w	n/a
13.934	0.15	27868	keystroke_n	n	n/a
14.054	0.105	28108	keystroke_Key.space	Key.space	n/a
14.8045	0.06	29609	keystroke_f	f	n/a
14.9245	0.105	29849	keystroke_o	o	n/a
15.1795	0.09	30359	keystroke_x	x	n/a
15.4045	0.09	30809	keystroke_Key.space	Key.space	n/a
15.8395	0.06	31679	keystroke_j	j	n/a
16.0045	0.045	32009	keystroke_u	u	n/a
16.1695	0.105	32339	keystroke_m	m	n/a
16.3345	0.105	32669	keystroke_p	p	n/a
16.4995	0.075	32999	keystroke_s	s	n/a
16.6795	0.0895	33359	keystroke_Key.space	Key.space	n/a
16.829	0.09	33658	keystroke_o	o	n/a
17.0395	0.105	34079	keystroke_v	v	n/a
17.2045	0.12	34409	keystroke_e	e	n/a
17.2645	0.105	34529	keystroke_r	r	n/a
17.4145	0.09	34829	keystroke_Key.space	Key.space	n/a
17.5195	0.09	35039	keystroke_a	a	n/a
17.6395	0.09	35279	keystroke_Key.space	Key.space	n/a
17.9395	0.09	35879	keystroke_l	l	n/a
18.0745	0.12	36149	keystroke_a	a	n/a
18.7345	0.075	37469	keystroke_z	z	n/a
18.9295	0.075	37859	keystroke_y	y	n/a
19.1095	0.12	38219	keystroke_Key.space	Key.space	n/a
19.544	0.06	39088	keystroke_g	g	n/a
19.8735	0.075	39747	keystroke_Key.backspace	Key.backspace	n/a
19.9795	0.09	39959	keystroke_d	d	n/a
20.1135	0.105	40227	keystroke_o	o	n/a
20.2635	0.06	40527	keystroke_g	g	n/a
21.5085	0.075	43017	keystroke_Key.enter	Key.enter	n/a
21.591	18.468	43182	prompt	n/a	incentives uniprotkb card receiving\n
22.9345	0.12	45869	keystroke_i	i	n/a
23.0245	0.075	46049	keystroke_n	n	n/a
23.2045	0.12	46409	keystroke_c	c	n/a
23.2945	0.09	46589	keystroke_e	e	n/a
23.4145	0.105	46829	keystroke_b	b	n/a
24.119	0.09	48238	keystroke_Key.backspace	Key.backspace	n/a
24.314	0.09	48628	keystroke_n	n	n/a
24.449	0.09	48898	keystroke_t	t	n/a
24.599	0.09	49198	keystroke_i	i	n/a
24.809	0.09	49618	keystroke_v	v	n/a
24.854	0.12	49708	keystroke_e	e	n/a
25.1245	0.075	50249	keystroke_s	s	n/a
27.3315	0.028	54663	keystroke_Key.space	Key.space	n/a
27.5995	0.0745	55199	keystroke_u	u	n/a
27.809	0.09	55618	keystroke_n	n	n/a
27.959	0.09	55918	keystroke_i	i	n/a
28.3645	0.075	56729	keystroke_p	p	n/a
28.4845	0.105	56969	keystroke_r	r	n/a
28.6645	0.075	57329	keystroke_o	o	n/a
29.564	0.105	59128	keystroke_t	t	n/a
30.7945	0.0745	61589	keystroke_k	k	n/a
31.124	0.045	62248	keystroke_b	b	n/a
32.189	0.105	64378	keystroke_Key.space	Key.space	n/a
32.489	0.0755	64978	keystroke_c	c	n/a
35.0115	0.058	70023	keystroke_a	a	n/a
35.0845	0.1045	70169	keystroke_r	r	n/a
35.294	0.105	70588	keystroke_d	d	n/a
35.504	0.12	71008	keystroke_Key.space	Key.space	n/a
35.834	0.135	71668	keystroke_r	r	n/a
35.909	0.12	71818	keystroke_e	e	n/a
36.9745	0.105	73949	keystroke_v	v	n/a
37.4545	0.075	74909	keystroke_Key.backspace	Key.backspace	n/a
37.5445	0.105	75089	keystroke_c	c	n/a
38.4895	0.075	76979	keystroke_e	e	n/a
38.5945	0.09	77189	keystroke_i	i	n/a
38.8045	0.09	77609	keystroke_v	v	n/a
38.9545	0.12	77909	keystroke_i	i	n/a
39.0295	0.15	78059	keystroke_n	n	n/a
39.1345	0.105	78269	keystroke_g	g	n/a
39.9895	0.06	79979	keystroke_Key.enter	Key.enter	n/a
40.064	6.422	80128	prompt	n/a	those terms southern mechanism\n
40.844	0.0905	81688	keystroke_t	t	n/a
40.9645	0.12	81929	keystroke_h	h	n/a
41.0245	0.135	82049	keystroke_o	o	n/a
41.1445	0.15	82289	keystroke_s	s	n/a
41.2345	0.105	82469	keystroke_e	e	n/a
41.3845	0.105	82769	keystroke_Key.space	Key.space	n/a
41.594	0.075	83188	keystroke_t	t	n/a
41.774	0.15	83548	keystroke_e	e	n/a
41.879	0.075	83758	keystroke_r	r	n/a
42.029	0.12	84058	keystroke_m	m	n/a
42.164	0.09	84328	keystroke_s	s	n/a
42.299	0.075	84598	keystroke_Key.space	Key.space	n/a
42.434	0.105	84868	keystroke_s	s	n/a
42.554	0.135	85108	keystroke_o	o	n/a
42.629	0.12	85258	keystroke_u	u	n/a
42.779	0.105	85558	keystroke_t	t	n/a
42.9295	0.135	85859	keystroke_h	h	n/a
43.0495	0.12	86099	keystroke_e	e	n/a
43.1245	0.105	86249	keystroke_r	r	n/a
43.2445	0.135	86489	keystroke_n	n	n/a
43.4395	0.045	86879	keystroke_Key.space	Key.space	n/a
43.5895	0.1045	87179	keystroke_m	m	n/a
43.769	0.09	87538	keystroke_e	e	n/a
43.964	0.09	87928	keystroke_c	c	n/a
44.174	0.075	88348	keystroke_h	h	n/a
44.309	0.09	88618	keystroke_a	a	n/a
44.519	0.09	89038	keystroke_n	n	n/a
44.834	0.075	89668	keystroke_i	i	n/a
44.9395	0.09	89879	keystroke_s	s	n/a
45.1195	0.105	90239	keystroke_m	m	n/a
46.3795	0.105	92759	keystroke_Key.enter	Key.enter	n/a
46.489	8.337	92978	prompt	n/a	woman ears tunnel deaf\n
47.189	0.09	94378	keystroke_w	w	n/a
47.294	0.0755	94588	keystroke_o	o	n/a
47.4595	0.105	94919	keystroke_a	a	n/a
47.6245	0.075	95249	keystroke_m	m	n/a
48.1495	0.06	96299	keystroke_Key.backspace	Key.backspace	n/a
48.2695	0.09	96539	keystroke_Key.backspace	Key.backspace	n/a
48.48	0.09	96960	keystroke_m	m	n/a
48.585	0.09	97170	keystroke_a	a	n/a
48.69	0.075	97380	keystroke_n	n	n/a
49.214	0.09	98428	keystroke_Key.space	Key.space	n/a
49.41	0.2545	98820	keystroke_e	e	n/a
49.545	0.1345	99090	keystroke_a	a	n/a
49.6495	0.12	99299	keystroke_r	r	n/a
49.8595	0.135	99719	keystroke_s	s	n/a
50.0695	0.09	100139	keystroke_Key.space	Key.space	n/a
50.309	0.09	100618	keystroke_t	t	n/a
50.415	0.074	100830	keystroke_u	u	n/a
50.594	0.06	101188	keystroke_n	n	n/a
50.744	0.06	101488	keystroke_n	n	n/a
50.834	0.09	101668	keystroke_e	e	n/a
51.4495	0.09	102899	keystroke_l	l	n/a
51.66	0.09	103320	keystroke_Key.space	Key.space	n/a
53.2045	0.135	106409	keystroke_d	d	n/a
53.2645	0.15	106529	keystroke_e	e	n/a
53.3545	0.09	106709	keystroke_a	a	n/a
53.8495	0.09	107699	keystroke_f	f	n/a
54.764	0.06	109528	keystroke_Key.enter	Key.enter	n/a
54.829	8.097	109658	prompt	n/a	harrison mono plug native\n
55.484	0.09	110968	keystroke_h	h	n/a
55.604	0.105	111208	keystroke_a	a	n/a
55.784	0.075	111568	keystroke_r	r	n/a
55.919	0.09	111838	keystroke_r	r	n/a
55.994	0.15	111988	keystroke_i	i	n/a
56.114	0.075	112228	keystroke_o	o	n/a
56.339	0.09	112678	keystroke_s	s	n/a
57.029	0.075	114058	keystroke_Key.backspace	Key.backspace	n/a
57.179	0.09	114358	keystroke_Key.backspace	Key.backspace	n/a
57.314	0.105	114628	keystroke_s	s	n/a
57.464	0.15	114928	keystroke_o	o	n/a
57.569	0.12	115138	keystroke_n	n	n/a
58.0645	0.09	116129	keystroke_Key.space	Key.space	n/a
58.2295	0.12	116459	keystroke_m	m	n/a
58.3505	0.164	116701	keystroke_o	o	n/a
58.4695	0.12	116939	keystroke_n	n	n/a
58.6045	0.09	117209	keystroke_o	o	n/a
59.639	0.075	119278	keystroke_Key.space	Key.space	n/a
59.8645	0.075	119729	keystroke_p	p	n/a
60.0145	0.075	120029	keystroke_l	l	n/a
60.2545	0.06	120509	keystroke_u	u	n/a
60.3895	0.09	120779	keystroke_s	s	n/a
60.9745	0.075	121949	keystroke_Key.backspace	Key.backspace	n/a
61.0645	0.12	122129	keystroke_g	g	n/a
61.5745	0.0755	123149	keystroke_Key.space	Key.space	n/a
61.905	0.1495	123810	keystroke_n	n	n/a
62.0395	0.075	124079	keystroke_a	a	n/a
62.1895	0.09	124379	keystroke_t	t	n/a
62.2945	0.09	124589	keystroke_i	i	n/a
62.4445	0.135	124889	keystroke_v	v	n/a
62.5345	0.1055	125069	keystroke_e	e	n/a
62.8645	0.06	125729	keystroke_Key.enter	Key.enter	n/a
62.9295	15.8295	125859	prompt	n/a	remarkable intended preventing raleigh\n
63.6595	0.15	127319	keystroke_r	r	n/a
63.7495	0.12	127499	keystroke_e	e	n/a
63.9145	0.105	127829	keystroke_m	m	n/a
64.0045	0.165	128009	keystroke_a	a	n/a
64.1545	0.105	128309	keystroke_r	r	n/a
64.3045	0.105	128609	keystroke_k	k	n/a
64.679	0.105	129358	keystroke_a	a	n/a
64.9045	0.0895	129809	keystroke_b	b	n/a
65.099	0.045	130198	keystroke_l	l	n/a
65.189	0.106	130378	keystroke_e	e	n/a
65.5195	0.12	131039	keystroke_Key.space	Key.space	n/a
65.8345	0.15	131669	keystroke_i	i	n/a
65.9395	0.1195	131879	keystroke_n	n	n/a
66.089	0.1055	132178	keystroke_t	t	n/a
66.2095	0.135	132419	keystroke_e	e	n/a
66.4195	0.105	132839	keystroke_n	n	n/a
66.795	0.12	133590	keystroke_d	d	n/a
66.93	0.1345	133860	keystroke_e	e	n/a
67.02	0.1345	134040	keystroke_d	d	n/a
67.3495	0.105	134699	keystroke_Key.space	Key.space	n/a
67.5895	0.09	135179	keystroke_p	p	n/a
67.6645	0.135	135329	keystroke_r	r	n/a
67.7695	0.105	135539	keystroke_e	e	n/a
68.3845	0.135	136769	keystroke_v	v	n/a
68.5645	0.135	137129	keystroke_e	e	n/a
68.7145	0.09	137429	keystroke_n	n	n/a
68.8195	0.1045	137639	keystroke_t	t	n/a
68.97	0.135	137940	keystroke_i	i	n/a
69.0595	0.0905	138119	keystroke_n	n	n/a
69.18	0.09	138360	keystroke_g	g	n/a
69.3	0.12	138600	keystroke_Key.space	Key.space	n/a
69.495	0.15	138990	keystroke_r	r	n/a
69.75	0.135	139500	keystroke_a	a	n/a
70.14	0.1045	140280	keystroke_l	l	n/a
71.5945	0.105	143189	keystroke_g	g	n/a
72.54	0.074	145080	keystroke_Key.backspace	Key.backspace	n/a
72.794	0.075	145588	keystroke_r	r	n/a
73.154	0.075	146308	keystroke_i	i	n/a
73.334	0.06	146668	keystroke_g	g	n/a
73.9495	0.06	147899	keystroke_Key.backspace	Key.backspace	n/a
74.1295	0.075	148259	keystroke_Key.backspace	Key.backspace	n/a
74.5495	0.075	149099	keystroke_Key.backspace	Key.backspace	n/a
75.8995	0.075	151799	keystroke_e	e	n/a
76.0195	0.0745	152039	keystroke_i	i	n/a
76.154	0.075	152308	keystroke_g	g	n/a
76.2895	0.09	152579	keystroke_h	h	n/a
78.7215	0.028	157443	keystroke_Key.enter	Key.enter	n/a
78.764	6.288	157528	prompt	n/a	scenarios sounds lamps printed\n
79.5745	0.0745	159149	keystroke_s	s	n/a
79.755	0.105	159510	keystroke_c	c	n/a
79.89	0.105	159780	keystroke_e	e	n/a
80.04	0.12	160080	keystroke_n	n	n/a
80.294	0.121	160588	keystroke_a	a	n/a
80.474	0.15	160948	keystroke_r	r	n/a
80.639	0.09	161278	keystroke_i	i	n/a
80.804	0.12	161608	keystroke_o	o	n/a
80.954	0.091	161908	keystroke_s	s	n/a
81.5995	0.015	163199	keystroke_Key.space	Key.space	n/a
81.779	0.1355	163558	keystroke_s	s	n/a
81.8845	0.1645	163769	keystroke_o	o	n/a
81.9745	0.105	163949	keystroke_u	u	n/a
82.0345	0.1195	164069	keystroke_n	n	n/a
82.1395	0.1195	164279	keystroke_d	d	n/a
82.199	0.12	164398	keystroke_s	s	n/a
82.334	0.0905	164668	keystroke_Key.space	Key.space	n/a
82.484	0.135	164968	keystroke_l	l	n/a
82.739	0.1205	165478	keystroke_a	a	n/a
82.8895	0.1195	165779	keystroke_m	m	n/a
83.114	0.075	166228	keystroke_p	p	n/a
83.264	0.105	166528	keystroke_s	s	n/a
83.459	0.09	166918	keystroke_Key.space	Key.space	n/a
83.8645	0.09	167729	keystroke_p	p	n/a
84.0145	0.105	168029	keystroke_r	r	n/a
84.1345	0.12	168269	keystroke_i	i	n/a
84.2245	0.075	168449	keystroke_n	n	n/a
84.3145	0.12	168629	keystroke_t	t	n/a
84.4795	0.18	168959	keystroke_e	e	n/a
84.5995	0.105	169199	keystroke_d	d	n/a
85.0045	0.045	170009	keystroke_Key.enter	Key.enter	n/a
85.058	6.683	170116	prompt	n/a	innovation marketing free ordinary\n
85.5895	0.0755	171179	keystroke_i	i	n/a
85.724	0.075	171448	keystroke_n	n	n/a
85.904	0.061	171808	keystroke_n	n	n/a
86.01	0.104	172020	keystroke_o	o	n/a
86.399	0.09	172798	keystroke_v	v	n/a
86.5645	0.12	173129	keystroke_a	a	n/a
86.774	0.075	173548	keystroke_t	t	n/a
86.894	0.21	173788	keystroke_i	i	n/a
86.924	0.1955	173848	keystroke_o	o	n/a
87.0595	0.1645	174119	keystroke_n	n	n/a
87.239	0.06	174478	keystroke_Key.space	Key.space	n/a
87.419	0.09	174838	keystroke_m	m	n/a
87.464	0.136	174928	keystroke_a	a	n/a
87.614	0.105	175228	keystroke_r	r	n/a
87.779	0.09	175558	keystroke_k	k	n/a
87.884	0.135	175768	keystroke_e	e	n/a
88.034	0.09	176068	keystroke_t	t	n/a
88.169	0.15	176338	keystroke_i	i	n/a
88.304	0.09	176608	keystroke_n	n	n/a
88.379	0.12	176758	keystroke_g	g	n/a
88.514	0.09	177028	keystroke_Key.space	Key.space	n/a
88.949	0.105	177898	keystroke_f	f	n/a
89.1895	0.1345	178379	keystroke_r	r	n/a
89.294	0.105	178588	keystroke_e	e	n/a
89.474	0.15	178948	keystroke_e	e	n/a
89.609	0.075	179218	keystroke_Key.space	Key.space	n/a
89.714	0.105	179428	keystroke_o	o	n/a
89.834	0.105	179668	keystroke_r	r	n/a
90.299	0.106	180598	keystroke_d	d	n/a
90.585	0.105	181170	keystroke_i	i	n/a
90.659	0.091	181318	keystroke_n	n	n/a
90.974	0.135	181948	keystroke_a	a	n/a
91.155	0.105	182310	keystroke_r	r	n/a
91.319	0.136	182638	keystroke_y	y	n/a
91.6645	0.075	183329	keystroke_Key.enter	Key.enter	n/a
91.7435	10.52	183487	prompt	n/a	count condition guaranteed routes\n
92.309	0.135	184618	keystroke_c	c	n/a
92.429	0.1655	184858	keystroke_o	o	n/a
92.5195	0.105	185039	keystroke_u	u	n/a
92.6245	0.12	185249	keystroke_n	n	n/a
92.7595	0.12	185519	keystroke_t	t	n/a
92.9395	0.075	185879	keystroke_Key.space	Key.space	n/a
93.2845	0.09	186569	keystroke_c	c	n/a
93.7495	0.135	187499	keystroke_o	o	n/a
93.8845	0.121	187769	keystroke_n	n	n/a
94.1095	0.105	188219	keystroke_d	d	n/a
94.2295	0.075	188459	keystroke_i	i	n/a
94.4095	0.06	188819	keystroke_t	t	n/a
94.5145	0.225	189029	keystroke_i	i	n/a
94.6195	0.135	189239	keystroke_o	o	n/a
94.6945	0.12	189389	keystroke_n	n	n/a
95.0095	0.105	190019	keystroke_Key.space	Key.space	n/a
95.43	0.104	190860	keystroke_g	g	n/a
95.6545	0.105	191309	keystroke_a	a	n/a
96.5545	0.075	193109	keystroke_Key.backspace	Key.backspace	n/a
96.7945	0.09	193589	keystroke_u	u	n/a
96.8995	0.105	193799	keystroke_a	a	n/a
97.5895	0.1205	195179	keystroke_r	r	n/a
97.83	0.15	195660	keystroke_a	a	n/a
97.995	0.075	195990	keystroke_n	n	n/a
98.25	0.105	196500	keystroke_t	t	n/a
98.46	0.0595	196920	keystroke_e	e	n/a
98.6245	0.09	197249	keystroke_e	e	n/a
98.6695	0.12	197339	keystroke_d	d	n/a
99.1645	0.105	198329	keystroke_Key.space	Key.space	n/a
99.96	0.075	199920	keystroke_t	t	n/a
100.77	0.075	201540	keystroke_Key.backspace	Key.backspace	n/a
100.905	0.075	201810	keystroke_r	r	n/a
101.025	0.195	202050	keystroke_o	o	n/a
101.16	0.105	202320	keystroke_u	u	n/a
101.28	0.09	202560	keystroke_t	t	n/a
101.445	0.09	202890	keystroke_e	e	n/a
101.64	0.12	203280	keystroke_s	s	n/a
102.18	0.075	204360	keystroke_Key.enter	Key.enter	n/a
102.268	8.283	204536	prompt	n/a	commodity medicines topics pants\n
102.8845	0.12	205769	keystroke_c	c	n/a
102.9745	0.135	205949	keystroke_o	o	n/a
103.0945	0.06	206189	keystroke_m	m	n/a
103.2595	0.06	206519	keystroke_m	m	n/a
103.3345	0.105	206669	keystroke_o	o	n/a
103.5445	0.0895	207089	keystroke_d	d	n/a
103.649	0.09	207298	keystroke_i	i	n/a
103.814	0.105	207628	keystroke_t	t	n/a
103.949	0.09	207898	keystroke_y	y	n/a
104.459	0.076	208918	keystroke_Key.space	Key.space	n/a
104.73	0.0745	209460	keystroke_m	m	n/a
104.8195	0.06	209639	keystroke_e	e	n/a
104.9845	0.105	209969	keystroke_d	d	n/a
105.1045	0.09	210209	keystroke_i	i	n/a
105.96	0.075	211920	keystroke_c	c	n/a
106.05	0.12	212100	keystroke_i	i	n/a
106.125	0.0895	212250	keystroke_n	n	n/a
106.2295	0.09	212459	keystroke_e	e	n/a
106.4095	0.09	212819	keystroke_s	s	n/a
106.5445	0.105	213089	keystroke_Key.space	Key.space	n/a
107.294	0.0905	214588	keystroke_t	t	n/a
107.4295	0.0755	214859	keystroke_o	o	n/a
107.475	0.105	214950	keystroke_p	p	n/a
107.7	0.075	215400	keystroke_i	i	n/a
107.85	0.075	215700	keystroke_c	c	n/a
108.06	0.09	216120	keystroke_s	s	n/a
108.8695	0.06	217739	keystroke_Key.space	Key.space	n/a
109.0045	0.09	218009	keystroke_p	p	n/a
109.1245	0.075	218249	keystroke_a	a	n/a
109.2145	0.105	218429	keystroke_n	n	n/a
109.3645	0.09	218729	keystroke_t	t	n/a
109.89	0.06	219780	keystroke_s	s	n/a
110.46	0.09	220920	keystroke_Key.enter	Key.enter	n/a
110.5545	14.269	221109	prompt	n/a	sessions indeed consolidation shelf\n
113.987	0.013	227974	keystroke_s	s	n/a
114.15	0.075	228300	keystroke_e	e	n/a
114.3895	0.06	228779	keystroke_s	s	n/a
114.5395	0.06	229079	keystroke_s	s	n/a
114.6295	0.18	229259	keystroke_i	i	n/a
114.7045	0.12	229409	keystroke_o	o	n/a
114.7945	0.075	229589	keystroke_n	n	n/a
114.8995	0.09	229799	keystroke_s	s	n/a
115.14	0.105	230280	keystroke_Key.space	Key.space	n/a
115.53	0.0895	231060	keystroke_i	i	n/a
115.6345	0.09	231269	keystroke_n	n	n/a
115.8295	0.105	231659	keystroke_d	d	n/a
115.9345	0.105	231869	keystroke_e	e	n/a
116.729	0.135	233458	keystroke_e	e	n/a
116.849	0.09	233698	keystroke_d	d	n/a
117.074	0.105	234148	keystroke_Key.space	Key.space	n/a
117.494	0.09	234988	keystroke_s	s	n/a
117.644	0.091	235288	keystroke_o	o	n/a
117.705	0.104	235410	keystroke_n	n	n/a
118.275	0.104	236550	keystroke_s	s	n/a
118.589	0.06	237178	keystroke_Key.backspace	Key.backspace	n/a
118.739	0.06	237478	keystroke_Key.backspace	Key.backspace	n/a
118.874	0.06	237748	keystroke_Key.backspace	Key.backspace	n/a
119.009	0.075	238018	keystroke_Key.backspace	Key.backspace	n/a
119.174	0.0905	238348	keystroke_c	c	n/a
119.3545	0.12	238709	keystroke_o	o	n/a
119.4445	0.09	238889	keystroke_n	n	n/a
120.1795	0.09	240359	keystroke_s	s	n/a
120.3145	0.075	240629	keystroke_o	o	n/a
120.5095	0.075	241019	keystroke_l	l	n/a
121.1395	0.09	242279	keystroke_i	i	n/a
121.8295	0.09	243659	keystroke_d	d	n/a
121.9795	0.09	243959	keystroke_a	a	n/a
122.1745	0.105	244349	keystroke_t	t	n/a
122.2645	0.24	244529	keystroke_i	i	n/a
122.3845	0.135	244769	keystroke_o	o	n/a
122.4295	0.18	244859	keystroke_n	n	n/a
122.5945	0.09	245189	keystroke_Key.space	Key.space	n/a
122.7295	0.09	245459	keystroke_s	s	n/a
122.8495	0.075	245699	keystroke_h	h	n/a
122.9395	0.06	245879	keystroke_e	e	n/a
123.1345	0.12	246269	keystroke_l	l	n/a
123.5245	0.06	247049	keystroke_f	f	n/a
124.74	0.075	249480	keystroke_Key.enter	Key.enter	n/a
124.828	12.4455	249656	prompt	n/a	angeles switch pickup continuity\n
126.2845	0.0905	252569	keystroke_a	a	n/a
126.405	0.105	252810	keystroke_n	n	n/a
126.9745	0.105	253949	keystroke_g	g	n/a
127.0495	0.12	254099	keystroke_e	e	n/a
127.2295	0.075	254459	keystroke_l	l	n/a
127.3345	0.09	254669	keystroke_e	e	n/a
127.5745	0.09	255149	keystroke_s	s	n/a
128.2195	0.075	256439	keystroke_Key.space	Key.space	n/a
128.4745	0.09	256949	keystroke_w	w	n/a
128.9845	0.075	257969	keystroke_Key.backspace	Key.backspace	n/a
129.1195	0.03	258239	keystroke_s	s	n/a
129.5545	0.0745	259109	keystroke_w	w	n/a
129.704	0.061	259408	keystroke_i	i	n/a
129.87	0.075	259740	keystroke_t	t	n/a
130.109	0.0905	260218	keystroke_c	c	n/a
130.2445	0.105	260489	keystroke_h	h	n/a
131.085	0.105	262170	keystroke_Key.space	Key.space	n/a
131.34	0.06	262680	keystroke_p	p	n/a
131.535	0.0745	263070	keystroke_i	i	n/a
131.6245	0.075	263249	keystroke_c	c	n/a
131.8045	0.09	263609	keystroke_k	k	n/a
132.555	0.135	265110	keystroke_u	u	n/a
132.675	0.1045	265350	keystroke_p	p	n/a
132.8395	0.1355	265679	keystroke_Key.space	Key.space	n/a
133.035	0.09	266070	keystroke_c	c	n/a
133.14	0.165	266280	keystroke_o	o	n/a
133.23	0.135	266460	keystroke_m	m	n/a
133.755	0.075	267510	keystroke_Key.backspace	Key.backspace	n/a
133.965	0.09	267930	keystroke_n	n	n/a
134.175	0.0895	268350	keystroke_i	i	n/a
135.1945	0.0755	270389	keystroke_Key.backspace	Key.backspace	n/a
135.3595	0.105	270719	keystroke_t	t	n/a
135.4795	0.1345	270959	keystroke_i	i	n/a
135.599	0.121	271198	keystroke_n	n	n/a
136.125	0.09	272250	keystroke_u	u	n/a
136.41	0.09	272820	keystroke_i	i	n/a
136.605	0.0895	273210	keystroke_t	t	n/a
136.7545	0.0905	273509	keystroke_y	y	n/a
137.189	0.076	274378	keystroke_Key.enter	Key.enter	n/a
137.278	13.301	274556	prompt	n/a	local therapeutic infinite calvin\n
137.8795	0.06	275759	keystroke_l	l	n/a
138.0445	0.09	276089	keystroke_o	o	n/a
138.18	0.1045	276360	keystroke_c	c	n/a
138.2995	0.12	276599	keystroke_a	a	n/a
138.4945	0.09	276989	keystroke_k	k	n/a
138.7345	0.09	277469	keystroke_Key.space	Key.space	n/a
139.0195	0.12	278039	keystroke_t	t	n/a
139.1395	0.09	278279	keystroke_h	h	n/a
139.2595	0.165	278519	keystroke_e	e	n/a
139.3945	0.105	278789	keystroke_r	r	n/a
139.5145	0.1055	279029	keystroke_a	a	n/a
139.83	0.06	279660	keystroke_Key.backspace	Key.backspace	n/a
139.965	0.06	279930	keystroke_Key.backspace	Key.backspace	n/a
140.115	0.06	280230	keystroke_Key.backspace	Key.backspace	n/a
140.265	0.06	280530	keystroke_Key.backspace	Key.backspace	n/a
140.43	0.06	280860	keystroke_Key.backspace	Key.backspace	n/a
140.595	0.06	281190	keystroke_Key.backspace	Key.backspace	n/a
140.745	0.06	281490	keystroke_Key.backspace	Key.backspace	n/a
140.985	0.045	281970	keystroke_l	l	n/a
141.6595	0.12	283319	keystroke_Key.space	Key.space	n/a
141.9745	0.09	283949	keystroke_t	t	n/a
142.0795	0.09	284159	keystroke_h	h	n/a
142.1545	0.12	284309	keystroke_e	e	n/a
142.3495	0.06	284699	keystroke_a	a	n/a
142.8145	0.075	285629	keystroke_Key.backspace	Key.backspace	n/a
142.9045	0.09	285809	keystroke_r	r	n/a
142.9645	0.12	285929	keystroke_a	a	n/a
143.5795	0.0895	287159	keystroke_p	p	n/a
143.8045	0.09	287609	keystroke_u	u	n/a
144.21	0.0745	288420	keystroke_Key.backspace	Key.backspace	n/a
144.3	0.075	288600	keystroke_e	e	n/a
144.4345	0.09	288869	keystroke_u	u	n/a
144.9145	0.0755	289829	keystroke_t	t	n/a
145.035	0.0745	290070	keystroke_i	i	n/a
145.14	0.135	290280	keystroke_c	c	n/a
145.349	0.105	290698	keystroke_Key.space	Key.space	n/a
145.694	0.105	291388	keystroke_i	i	n/a
145.769	0.106	291538	keystroke_n	n	n/a
145.92	0.044	291840	keystroke_i	i	n/a
146.804	0.06	293608	keystroke_Key.backspace	Key.backspace	n/a
146.939	0.091	293878	keystroke_f	f	n/a
147.044	0.151	294088	keystroke_i	i	n/a
147.209	0.106	294418	keystroke_n	n	n/a
148.02	0.09	296040	keystroke_i	i	n/a
148.215	0.1195	296430	keystroke_t	t	n/a
148.3195	0.105	296639	keystroke_e	e	n/a
148.5295	0.075	297059	keystroke_Key.space	Key.space	n/a
148.8295	0.12	297659	keystroke_c	c	n/a
148.8745	0.135	297749	keystroke_a	a	n/a
149.2045	0.12	298409	keystroke_l	l	n/a
149.61	0.105	299220	keystroke_v	v	n/a
149.85	0.12	299700	keystroke_i	i	n/a
149.94	0.105	299880	keystroke_n	n	n/a
150.465	0.105	300930	keystroke_Key.enter	Key.enter	n/a
150.583	11.756	301166	prompt	n/a	explains bernard candles paintball\n
151.62	0.18	303240	keystroke_e	e	n/a
151.89	0.075	303780	keystroke_x	x	n/a
152.1595	0.075	304319	keystroke_p	p	n/a
152.3395	0.0755	304679	keystroke_l	l	n/a
152.52	0.09	305040	keystroke_a	a	n/a
152.73	0.075	305460	keystroke_i	i	n/a
152.925	0.09	305850	keystroke_n	n	n/a
153.12	0.09	306240	keystroke_s	s	n/a
153.3595	0.09	306719	keystroke_Key.space	Key.space	n/a
153.75	0.105	307500	keystroke_b	b	n/a
153.915	0.15	307830	keystroke_e	e	n/a
154.035	0.105	308070	keystroke_r	r	n/a
154.2445	0.09	308489	keystroke_n	n	n/a
154.4245	0.105	308849	keystroke_a	a	n/a
154.5895	0.09	309179	keystroke_r	r	n/a
154.815	0.09	309630	keystroke_d	d	n/a
154.95	0.105	309900	keystroke_Key.space	Key.space	n/a
158.177	0.058	316354	keystroke_c	c	n/a
158.19	0.105	316380	keystroke_a	a	n/a
158.505	0.105	317010	keystroke_n	n	n/a
159.2395	0.105	318479	keystroke_d	d	n/a
159.5105	0.119	319021	keystroke_l	l	n/a
159.6895	0.0755	319379	keystroke_e	e	n/a
159.885	0.09	319770	keystroke_s	s	n/a
160.125	0.075	320250	keystroke_Key.space	Key.space	n/a
160.365	0.09	320730	keystroke_p	p	n/a
160.515	0.105	321030	keystroke_a	a	n/a
160.665	0.075	321330	keystroke_i	i	n/a
160.86	0.09	321720	keystroke_n	n	n/a
161.01	0.105	322020	keystroke_t	t	n/a
161.235	0.075	322470	keystroke_b	b	n/a
161.5645	0.06	323129	keystroke_a	a	n/a
161.6995	0.06	323399	keystroke_l	l	n/a
161.8945	0.09	323789	keystroke_l	l	n/a
162.2395	0.0905	324479	keystroke_Key.enter	Key.enter	n/a
162.3435	10.0155	324687	prompt	n/a	represent swedish potential locate\n
163.02	0.135	326040	keystroke_r	r	n/a
163.095	0.105	326190	keystroke_e	e	n/a
163.305	0.06	326610	keystroke_p	p	n/a
163.5	0.12	327000	keystroke_r	r	n/a
163.5905	0.0895	327181	keystroke_e	e	n/a
163.8	0.105	327600	keystroke_s	s	n/a
163.98	0.075	327960	keystroke_e	e	n/a
164.1	0.105	328200	keystroke_n	n	n/a
164.235	0.06	328470	keystroke_t	t	n/a
164.55	0.09	329100	keystroke_Key.space	Key.space	n/a
164.895	0.135	329790	keystroke_s	s	n/a
165.195	0.12	330390	keystroke_w	w	n/a
165.45	0.03	330900	keystroke_e	e	n/a
166.0495	0.105	332099	keystroke_d	d	n/a
166.1995	0.075	332399	keystroke_i	i	n/a
166.3045	0.075	332609	keystroke_s	s	n/a
166.4845	0.06	332969	keystroke_h	h	n/a
166.86	0.09	333720	keystroke_Key.space	Key.space	n/a
167.2645	0.076	334529	keystroke_p	p	n/a
168.045	0.09	336090	keystroke_o	o	n/a
169.215	0.15	338430	keystroke_t	t	n/a
169.35	0.12	338700	keystroke_e	e	n/a
169.71	0.12	339420	keystroke_n	n	n/a
170.34	0.09	340680	keystroke_t	t	n/a
170.49	0.075	340980	keystroke_i	i	n/a
170.52	0.12	341040	keystroke_a	a	n/a
170.685	0.15	341370	keystroke_l	l	n/a
170.82	0.075	341640	keystroke_Key.space	Key.space	n/a
171.2395	0.075	342479	keystroke_l	l	n/a
171.3895	0.09	342779	keystroke_o	o	n/a
171.5395	0.1205	343079	keystroke_c	c	n/a
171.615	0.1195	343230	keystroke_a	a	n/a
171.8695	0.135	343739	keystroke_t	t	n/a
171.9745	0.105	343949	keystroke_e	e	n/a
172.2895	0.06	344579	keystroke_Key.enter	Key.enter	n/a
172.3635	8.0655	344727	prompt	n/a	prayers rating notice advocate\n
172.905	0.09	345810	keystroke_p	p	n/a
173.04	0.15	346080	keystroke_r	r	n/a
173.25	0.135	346500	keystroke_a	a	n/a
173.49	0.075	346980	keystroke_y	y	n/a
173.6845	0.15	347369	keystroke_e	e	n/a
173.7745	0.105	347549	keystroke_r	r	n/a
173.9545	0.12	347909	keystroke_s	s	n/a
174.2095	0.105	348419	keystroke_Key.space	Key.space	n/a
174.6295	0.18	349259	keystroke_r	r	n/a
174.7795	0.09	349559	keystroke_a	a	n/a
174.96	0.09	349920	keystroke_t	t	n/a
175.1705	0.105	350341	keystroke_i	i	n/a
175.2305	0.135	350461	keystroke_n	n	n/a
175.3505	0.105	350701	keystroke_g	g	n/a
176.3995	0.045	352799	keystroke_Key.space	Key.space	n/a
176.5045	0.1055	353009	keystroke_n	n	n/a
176.565	0.105	353130	keystroke_o	o	n/a
176.64	0.09	353280	keystroke_t	t	n/a
176.8045	0.075	353609	keystroke_i	i	n/a
176.8805	0.149	353761	keystroke_c	c	n/a
177.4795	0.09	354959	keystroke_e	e	n/a
177.6295	0.135	355259	keystroke_Key.space	Key.space	n/a
178.0795	0.165	356159	keystroke_a	a	n/a
178.2595	0.105	356519	keystroke_d	d	n/a
178.7995	0.09	357599	keystroke_v	v	n/a
178.9945	0.105	357989	keystroke_o	o	n/a
179.49	0.135	358980	keystroke_c	c	n/a
179.64	0.105	359280	keystroke_a	a	n/a
179.9545	0.105	359909	keystroke_t	t	n/a
180.0605	0.089	360121	keystroke_e	e	n/a
180.3445	0.075	360689	keystroke_Key.enter	Key.enter	n/a
180.433	17.937	360866	prompt	n/a	freelance feelings broadway responsibilities\n
181.14	0.12	362280	keystroke_f	f	n/a
181.38	0.12	362760	keystroke_r	r	n/a
181.485	0.06	362970	keystroke_e	e	n/a
181.6345	0.09	363269	keystroke_e	e	n/a
181.8605	0.06	363721	keystroke_l	l	n/a
182.0255	0.12	364051	keystroke_a	a	n/a
182.1455	0.075	364291	keystroke_n	n	n/a
182.2505	0.105	364501	keystroke_d	d	n/a
182.5955	0.09	365191	keystroke_Key.space	Key.space	n/a
182.9555	0.045	365911	keystroke_Key.backspace	Key.backspace	n/a
183.0905	0.075	366181	keystroke_Key.backspace	Key.backspace	n/a
183.2255	0.09	366451	keystroke_e	e	n/a
183.405	0.1045	366810	keystroke_Key.space	Key.space	n/a
184.785	0.045	369570	keystroke_Key.backspace	Key.backspace	n/a
184.95	0.09	369900	keystroke_Key.backspace	Key.backspace	n/a
185.235	0.165	370470	keystroke_c	c	n/a
185.415	0.12	370830	keystroke_e	e	n/a
186.135	0.105	372270	keystroke_Key.space	Key.space	n/a
186.885	0.075	373770	keystroke_d	d	n/a
187.155	0.075	374310	keystroke_Key.backspace	Key.backspace	n/a
187.395	0.09	374790	keystroke_f	f	n/a
187.53	0.0895	375060	keystroke_e	e	n/a
187.6945	0.105	375389	keystroke_e	e	n/a
187.8445	0.136	375689	keystroke_l	l	n/a
188.0545	0.075	376109	keystroke_i	i	n/a
188.1155	0.119	376231	keystroke_n	n	n/a
188.2195	0.075	376439	keystroke_g	g	n/a
188.4905	0.1345	376981	keystroke_s	s	n/a
189.2855	0.09	378571	keystroke_Key.space	Key.space	n/a
189.5555	0.09	379111	keystroke_b	b	n/a
189.7055	0.105	379411	keystroke_r	r	n/a
189.8255	0.09	379651	keystroke_o	o	n/a
189.9455	0.18	379891	keystroke_a	a	n/a
190.1855	0.105	380371	keystroke_d	d	n/a
190.5755	0.12	381151	keystroke_w	w	n/a
190.7255	0.0745	381451	keystroke_a	a	n/a
190.815	0.12	381630	keystroke_t	t	n/a
190.98	0.09	381960	keystroke_Key.space	Key.space	n/a
191.46	0.03	382920	keystroke_Key.backspace	Key.backspace	n/a
191.5955	0.06	383191	keystroke_Key.backspace	Key.backspace	n/a
192.1055	0.09	384211	keystroke_y	y	n/a
192.1805	0.1195	384361	keystroke_Key.space	Key.space	n/a
192.405	0.12	384810	keystroke_r	r	n/a
192.48	0.09	384960	keystroke_e	e	n/a
192.705	0.0895	385410	keystroke_s	s	n/a
192.855	0.075	385710	keystroke_p	p	n/a
193.035	0.09	386070	keystroke_o	o	n/a
193.245	0.09	386490	keystroke_n	n	n/a
194.2345	0.06	388469	keystroke_s	s	n/a
194.925	0.06	389850	keystroke_i	i	n/a
195.15	0.075	390300	keystroke_b	b	n/a
195.36	0.09	390720	keystroke_i	i	n/a
195.57	0.1205	391140	keystroke_l	l	n/a
195.7505	0.09	391501	keystroke_i	i	n/a
195.9605	0.09	391921	keystroke_t	t	n/a
196.1405	0.075	392281	keystroke_i	i	n/a
196.32	0.075	392640	keystroke_e	e	n/a
196.755	0.06	393510	keystroke_s	s	n/a
198.2545	0.105	396509	keystroke_Key.enter	Key.enter	n/a
198.375	12.4445	396750	prompt	n/a	logitech waiting worth hosting\n
200.657	0.013	401314	keystroke_l	l	n/a
200.79	0.06	401580	keystroke_o	o	n/a
201	0.06	402000	keystroke_g	g	n/a
201.105	0.09	402210	keystroke_i	i	n/a
202.2445	0.121	404489	keystroke_t	t	n/a
202.3205	0.1045	404641	keystroke_e	e	n/a
202.545	0.12	405090	keystroke_c	c	n/a
202.71	0.09	405420	keystroke_h	h	n/a
203.1	0.12	406200	keystroke_Key.space	Key.space	n/a
205.442	0.118	410884	keystroke_w	w	n/a
205.47	0.12	410940	keystroke_a	a	n/a
205.8595	0.0605	411719	keystroke_i	i	n/a
205.9795	0.09	411959	keystroke_t	t	n/a
206.0845	0.105	412169	keystroke_i	i	n/a
206.1745	0.075	412349	keystroke_n	n	n/a
207.255	0.105	414510	keystroke_g	g	n/a
207.4495	0.105	414899	keystroke_Key.space	Key.space	n/a
207.8395	0.091	415679	keystroke_w	w	n/a
207.9755	0.09	415951	keystroke_o	o	n/a
208.0805	0.09	416161	keystroke_r	r	n/a
208.3355	0.09	416671	keystroke_t	t	n/a
208.5005	0.09	417001	keystroke_h	h	n/a
208.6805	0.09	417361	keystroke_Key.space	Key.space	n/a
209.0705	0.105	418141	keystroke_h	h	n/a
209.1605	0.135	418321	keystroke_o	o	n/a
209.3555	0.105	418711	keystroke_s	s	n/a
209.6255	0.06	419251	keystroke_t	t	n/a
209.8355	0.105	419671	keystroke_i	i	n/a
209.8805	0.12	419761	keystroke_n	n	n/a
210.0305	0.075	420061	keystroke_g	g	n/a
210.7205	0.089	421441	keystroke_Key.enter	Key.enter	n/a
210.826	16.673	421652	prompt	n/a	luxembourg closing crossword suppose\n
211.4545	0.075	422909	keystroke_l	l	n/a
211.531	0.0745	423062	keystroke_e	e	n/a
212.2055	0.015	424411	keystroke_x	x	n/a
212.4005	0.0745	424801	keystroke_Key.backspace	Key.backspace	n/a
213.165	0.06	426330	keystroke_Key.backspace	Key.backspace	n/a
214.635	0.0745	429270	keystroke_u	u	n/a
215.01	0.075	430020	keystroke_x	x	n/a
215.385	0.105	430770	keystroke_e	e	n/a
215.7005	0.075	431401	keystroke_m	m	n/a
216.0305	0.0745	432061	keystroke_b	b	n/a
216.345	0.09	432690	keystroke_o	o	n/a
216.6605	0.045	433321	keystroke_u	u	n/a
217.41	0.09	434820	keystroke_r	r	n/a
217.7405	0.075	435481	keystroke_g	g	n/a
218.0255	0.09	436051	keystroke_Key.space	Key.space	n/a
218.2955	0.105	436591	keystroke_c	c	n/a
221.632	0.023	443264	keystroke_l	l	n/a
221.775	0.105	443550	keystroke_o	o	n/a
222.0455	0.074	444091	keystroke_s	s	n/a
222.2395	0.075	444479	keystroke_i	i	n/a
222.4945	0.09	444989	keystroke_n	n	n/a
222.7505	0.09	445501	keystroke_g	g	n/a
223.1845	0.09	446369	keystroke_Key.space	Key.space	n/a
223.3805	0.075	446761	keystroke_c	c	n/a
223.62	0.105	447240	keystroke_r	r	n/a
223.83	0.105	447660	keystroke_o	o	n/a
224.0695	0.075	448139	keystroke_s	s	n/a
224.28	0.06	448560	keystroke_s	s	n/a
224.52	0.09	449040	keystroke_w	w	n/a
224.685	0.09	449370	keystroke_o	o	n/a
224.88	0.09	449760	keystroke_r	r	n/a
225.105	0.06	450210	keystroke_d	d	n/a
225.45	0.105	450900	keystroke_Key.space	Key.space	n/a
225.8095	0.076	451619	keystroke_s	s	n/a
225.9305	0.074	451861	keystroke_u	u	n/a
226.1555	0.075	452311	keystroke_p	p	n/a
226.3655	0.075	452731	keystroke_p	p	n/a
226.5445	0.076	453089	keystroke_o	o	n/a
226.7395	0.0755	453479	keystroke_s	s	n/a
226.9505	0.0745	453901	keystroke_e	e	n/a
227.43	0.06	454860	keystroke_Key.enter	Key.enter	n/a
227.5035	21.851	455007	prompt	n/a	monroe routing immigration frozen\n
228.225	0.09	456450	keystroke_m	m	n/a
228.435	0.06	456870	keystroke_o	o	n/a
228.63	0.075	457260	keystroke_n	n	n/a
229.215	0.09	458430	keystroke_r	r	n/a
229.395	0.09	458790	keystroke_o	o	n/a
229.6205	0.09	459241	keystroke_e	e	n/a
230.0255	0.09	460051	keystroke_Key.space	Key.space	n/a
230.8955	0.06	461791	keystroke_r	r	n/a
231.0305	0.075	462061	keystroke_o	o	n/a
231.2405	0.06	462481	keystroke_u	u	n/a
231.4355	0.09	462871	keystroke_t	t	n/a
231.87	0.09	463740	keystroke_e	e	n/a
232.5005	0.075	465001	keystroke_Key.backspace	Key.backspace	n/a
232.7705	0.06	465541	keystroke_i	i	n/a
232.9655	0.09	465931	keystroke_g	g	n/a
233.1305	0.075	466261	keystroke_n	n	n/a
233.6105	0.045	467221	keystroke_Key.backspace	Key.backspace	n/a
233.7455	0.0595	467491	keystroke_Key.backspace	Key.backspace	n/a
233.955	0.09	467910	keystroke_n	n	n/a
234.135	0.075	468270	keystroke_g	g	n/a
235.5455	0.0895	471091	keystroke_Key.space	Key.space	n/a
235.9045	0.075	471809	keystroke_i	i	n/a
236.0845	0.075	472169	keystroke_m	m	n/a
236.2645	0.09	472529	keystroke_m	m	n/a
236.4145	0.1205	472829	keystroke_a	a	n/a
237.375	0.075	474750	keystroke_g	g	n/a
237.615	0.105	475230	keystroke_r	r	n/a
237.795	0.09	475590	keystroke_a	a	n/a
238.02	0.075	476040	keystroke_t	t	n/a
238.2	0.075	476400	keystroke_i	i	n/a
238.395	0.045	476790	keystroke_i	i	n/a
238.845	0.075	477690	keystroke_Key.backspace	Key.backspace	n/a
239.4755	0.075	478951	keystroke_o	o	n/a
240.57	0.06	481140	keystroke_Key.backspace	Key.backspace	n/a
240.75	0.06	481500	keystroke_Key.backspace	Key.backspace	n/a
240.945	0.06	481890	keystroke_Key.backspace	Key.backspace	n/a
241.11	0.06	482220	keystroke_Key.backspace	Key.backspace	n/a
241.29	0.06	482580	keystroke_Key.backspace	Key.backspace	n/a
241.485	0.06	482970	keystroke_Key.backspace	Key.backspace	n/a
241.695	0.06	483390	keystroke_Key.backspace	Key.backspace	n/a
242.3545	0.06	484709	keystroke_i	i	n/a
244.14	0.06	488280	keystroke_g	g	n/a
244.32	0.12	488640	keystroke_r	r	n/a
244.41	0.135	488820	keystroke_a	a	n/a
244.65	0.075	489300	keystroke_t	t	n/a
244.92	0.06	489840	keystroke_i	i	n/a
245.55	0.09	491100	keystroke_o	o	n/a
245.715	0.12	491430	keystroke_n	n	n/a
245.805	0.12	491610	keystroke_Key.space	Key.space	n/a
246.51	0.15	493020	keystroke_f	f	n/a
246.675	0.045	493350	keystroke_r	r	n/a
247.41	0.06	494820	keystroke_o	o	n/a
248.2955	0.06	496591	keystroke_z	z	n/a
248.5355	0.075	497071	keystroke_e	e	n/a
248.7155	0.075	497431	keystroke_n	n	n/a
249.2705	0.075	498541	keystroke_Key.enter	Key.enter	n/a
249.359	10.1505	498718	prompt	n/a	enjoying former saver assess\n
250.725	0.075	501450	keystroke_e	e	n/a
250.83	0.105	501660	keystroke_n	n	n/a
251.325	0.135	502650	keystroke_j	j	n/a
251.415	0.105	502830	keystroke_o	o	n/a
251.625	0.075	503250	keystroke_y	y	n/a
251.835	0.105	503670	keystroke_i	i	n/a
251.895	0.105	503790	keystroke_n	n	n/a
252.03	0.075	504060	keystroke_g	g	n/a
252.165	0.09	504330	keystroke_Key.space	Key.space	n/a
252.6305	0.075	505261	keystroke_f	f	n/a
252.7205	0.06	505441	keystroke_o	o	n/a
253.1705	0.105	506341	keystroke_r	r	n/a
254.0105	0.075	508021	keystroke_m	m	n/a
254.1305	0.1045	508261	keystroke_e	e	n/a
254.2055	0.0895	508411	keystroke_r	r	n/a
254.355	0.09	508710	keystroke_Key.space	Key.space	n/a
254.58	0.12	509160	keystroke_s	s	n/a
254.715	0.0905	509430	keystroke_a	a	n/a
254.9105	0.15	509821	keystroke_v	v	n/a
255.0305	0.195	510061	keystroke_e	e	n/a
255.1955	0.09	510391	keystroke_r	r	n/a
255.3305	0.135	510661	keystroke_Key.space	Key.space	n/a
255.5255	0.105	511051	keystroke_s	s	n/a
255.9005	0.09	511801	keystroke_Key.backspace	Key.backspace	n/a
256.0205	0.105	512041	keystroke_a	a	n/a
256.0955	0.075	512191	keystroke_c	c	n/a
256.2605	0.075	512521	keystroke_c	c	n/a
256.845	0.1055	513690	keystroke_Key.backspace	Key.backspace	n/a
256.965	0.03	513930	keystroke_Key.backspace	Key.backspace	n/a
257.265	0.09	514530	keystroke_s	s	n/a
257.43	0.09	514860	keystroke_s	s	n/a
257.64	0.075	515280	keystroke_e	e	n/a
257.82	0.075	515640	keystroke_s	s	n/a
257.97	0.09	515940	keystroke_s	s	n/a
259.395	0.105	518790	keystroke_Key.enter	Key.enter	n/a
259.5135	15.1305	519027	prompt	n/a	richardson suffer relax caution\n
260.31	0.09	520620	keystroke_r	r	n/a
260.445	0.105	520890	keystroke_i	i	n/a
260.565	0.105	521130	keystroke_c	c	n/a
260.7	0.075	521400	keystroke_h	h	n/a
260.82	0.15	521640	keystroke_a	a	n/a
260.985	0.12	521970	keystroke_r	r	n/a
261.27	0.075	522540	keystroke_d	d	n/a
262.005	0.06	524010	keystroke_s	s	n/a
262.38	0.12	524760	keystroke_o	o	n/a
262.455	0.12	524910	keystroke_n	n	n/a
262.56	0.105	525120	keystroke_Key.space	Key.space	n/a
262.785	0.105	525570	keystroke_s	s	n/a
262.905	0.06	525810	keystroke_u	u	n/a
268.8175	0.028	537635	keystroke_f	f	n/a
268.9355	0.105	537871	keystroke_f	f	n/a
269.0855	0.1355	538171	keystroke_e	e	n/a
269.1905	0.1045	538381	keystroke_r	r	n/a
269.49	0.1055	538980	keystroke_Key.space	Key.space	n/a
269.775	0.12	539550	keystroke_r	r	n/a
269.866	0.074	539732	keystroke_e	e	n/a
270.061	0.104	540122	keystroke_l	l	n/a
270.255	0.105	540510	keystroke_a	a	n/a
270.495	0.165	540990	keystroke_z	z	n/a
271.305	0.09	542610	keystroke_Key.backspace	Key.backspace	n/a
271.38	0.09	542760	keystroke_x	x	n/a
271.8005	0.09	543601	keystroke_Key.space	Key.space	n/a
272.7155	0.12	545431	keystroke_c	c	n/a
272.7755	0.135	545551	keystroke_a	a	n/a
272.9705	0.105	545941	keystroke_u	u	n/a
273.2555	0.105	546511	keystroke_t	t	n/a
273.3905	0.2395	546781	keystroke_i	i	n/a
273.5105	0.1345	547021	keystroke_o	o	n/a
273.5705	0.1045	547141	keystroke_n	n	n/a
274.575	0.06	549150	keystroke_Key.enter	Key.enter	n/a
274.6485	6.4535	549297	prompt	n/a	going any dentists continues\n
275.7605	0.09	551521	keystroke_g	g	n/a
275.8355	0.15	551671	keystroke_o	o	n/a
275.8955	0.135	551791	keystroke_i	i	n/a
275.9705	0.105	551941	keystroke_n	n	n/a
276.0455	0.09	552091	keystroke_g	g	n/a
276.1805	0.105	552361	keystroke_Key.space	Key.space	n/a
276.3605	0.135	552721	keystroke_a	a	n/a
276.4805	0.09	552961	keystroke_n	n	n/a
276.6605	0.12	553321	keystroke_y	y	n/a
277.1405	0.15	554281	keystroke_Key.space	Key.space	n/a
277.5305	0.105	555061	keystroke_d	d	n/a
277.575	0.1205	555150	keystroke_e	e	n/a
277.7855	0.12	555571	keystroke_n	n	n/a
278.1305	0.075	556261	keystroke_t	t	n/a
278.2655	0.09	556531	keystroke_i	i	n/a
278.7155	0.0595	557431	keystroke_s	s	n/a
278.955	0.075	557910	keystroke_t	t	n/a
279.195	0.105	558390	keystroke_s	s	n/a
279.375	0.09	558750	keystroke_Key.space	Key.space	n/a
279.585	0.12	559170	keystroke_c	c	n/a
279.69	0.15	559380	keystroke_o	o	n/a
279.75	0.15	559500	keystroke_n	n	n/a
279.99	0.075	559980	keystroke_t	t	n/a
280.08	0.12	560160	keystroke_i	i	n/a
280.17	0.105	560340	keystroke_n	n	n/a
280.38	0.075	560760	keystroke_u	u	n/a
280.485	0.06	560970	keystroke_e	e	n/a
280.665	0.075	561330	keystroke_s	s	n/a
281.0255	0.075	562051	keystroke_Key.enter	Key.enter	n/a
281.1045	8.33	562209	prompt	n/a	faith interested developer atom\n
282.18	0.09	564360	keystroke_f	f	n/a
282.255	0.1205	564510	keystroke_a	a	n/a
282.5105	0.06	565021	keystroke_i	i	n/a
282.6305	0.075	565261	keystroke_t	t	n/a
282.7655	0.09	565531	keystroke_h	h	n/a
283.575	0.09	567150	keystroke_Key.space	Key.space	n/a
283.785	0.12	567570	keystroke_i	i	n/a
283.86	0.12	567720	keystroke_n	n	n/a
284.025	0.105	568050	keystroke_t	t	n/a
284.145	0.135	568290	keystroke_e	e	n/a
284.25	0.12	568500	keystroke_r	r	n/a
284.355	0.105	568710	keystroke_e	e	n/a
284.58	0.09	569160	keystroke_s	s	n/a
284.805	0.09	569610	keystroke_t	t	n/a
284.955	0.165	569910	keystroke_e	e	n/a
285.075	0.105	570150	keystroke_d	d	n/a
285.21	0.105	570420	keystroke_Key.space	Key.space	n/a
285.345	0.135	570690	keystroke_d	d	n/a
285.435	0.105	570870	keystroke_e	e	n/a
285.9005	0.09	571801	keystroke_v	v	n/a
286.0205	0.12	572041	keystroke_e	e	n/a
286.4405	0.075	572881	keystroke_l	l	n/a
286.6355	0.045	573271	keystroke_o	o	n/a
286.7855	0.075	573571	keystroke_p	p	n/a
287.025	0.15	574050	keystroke_e	e	n/a
287.115	0.105	574230	keystroke_r	r	n/a
287.265	0.105	574530	keystroke_Key.space	Key.space	n/a
287.565	0.09	575130	keystroke_a	a	n/a
287.73	0.09	575460	keystroke_t	t	n/a
287.925	0.12	575850	keystroke_o	o	n/a
288.27	0.0755	576540	keystroke_n	n	n/a
288.7205	0.075	577441	keystroke_Key.backspace	Key.backspace	n/a
288.9305	0.075	577861	keystroke_m	m	n/a
289.3655	0.06	578731	keystroke_Key.enter	Key.enter	n/a
289.439	7.488	578878	prompt	n/a	cite sizes drove salon\n
290.0705	0.105	580141	keystroke_c	c	n/a
290.2205	0.075	580441	keystroke_i	i	n/a
290.3405	0.09	580681	keystroke_t	t	n/a
290.5955	0.105	581191	keystroke_e	e	n/a
291.2705	0.09	582541	keystroke_Key.space	Key.space	n/a
291.7205	0.06	583441	keystroke_s	s	n/a
291.9005	0.045	583801	keystroke_i	i	n/a
292.5905	0.0755	585181	keystroke_z	z	n/a
292.846	0.06	585692	keystroke_e	e	n/a
293.851	0.09	587702	keystroke_s	s	n/a
294.12	0.151	588240	keystroke_Key.space	Key.space	n/a
294.316	0.12	588632	keystroke_d	d	n/a
294.736	0.105	589472	keystroke_r	r	n/a
294.945	0.091	589890	keystroke_o	o	n/a
295.08	0.121	590160	keystroke_v	v	n/a
295.156	0.105	590312	keystroke_e	e	n/a
295.276	0.119	590552	keystroke_Key.space	Key.space	n/a
295.8305	0.135	591661	keystroke_s	s	n/a
295.9055	0.135	591811	keystroke_a	a	n/a
296.1155	0.03	592231	keystroke_l	l	n/a
296.3855	0.1045	592771	keystroke_o	o	n/a
296.4605	0.1195	592921	keystroke_n	n	n/a
296.865	0.06	593730	keystroke_Key.enter	Key.enter	n/a
296.9295	6.9075	593859	prompt	n/a	annex drawing increasing compact\n
297.54	0.1055	595080	keystroke_a	a	n/a
297.6605	0.045	595321	keystroke_n	n	n/a
297.8105	0.075	595621	keystroke_n	n	n/a
297.9155	0.075	595831	keystroke_e	e	n/a
298.1405	0.105	596281	keystroke_x	x	n/a
298.4255	0.075	596851	keystroke_Key.space	Key.space	n/a
299.1605	0.06	598321	keystroke_f	f	n/a
299.4455	0.075	598891	keystroke_Key.backspace	Key.backspace	n/a
299.5955	0.09	599191	keystroke_d	d	n/a
299.8055	0.12	599611	keystroke_r	r	n/a
299.9405	0.15	599881	keystroke_a	a	n/a
300.0305	0.12	600061	keystroke_w	w	n/a
300.2255	0.12	600451	keystroke_i	i	n/a
300.3155	0.075	600631	keystroke_n	n	n/a
300.3755	0.09	600751	keystroke_g	g	n/a
300.8255	0.12	601651	keystroke_Key.space	Key.space	n/a
301.1105	0.15	602221	keystroke_i	i	n/a
301.2155	0.09	602431	keystroke_n	n	n/a
301.3955	0.09	602791	keystroke_c	c	n/a
301.621	0.12	603242	keystroke_r	r	n/a
301.696	0.09	603392	keystroke_e	e	n/a
301.786	0.225	603572	keystroke_a	a	n/a
301.996	0.135	603992	keystroke_s	s	n/a
302.116	0.12	604232	keystroke_i	i	n/a
302.206	0.09	604412	keystroke_n	n	n/a
302.311	0.075	604622	keystroke_g	g	n/a
302.415	0.105	604830	keystroke_Key.space	Key.space	n/a
302.7	0.12	605400	keystroke_c	c	n/a
302.806	0.119	605612	keystroke_o	o	n/a
302.88	0.105	605760	keystroke_m	m	n/a
303.015	0.135	606030	keystroke_p	p	n/a
303.136	0.119	606272	keystroke_a	a	n/a
303.285	0.135	606570	keystroke_c	c	n/a
303.555	0.075	607110	keystroke_t	t	n/a
303.75	0.075	607500	keystroke_Key.enter	Key.enter	n/a
303.8415	10.763	607683	prompt	n/a	provision construction invitation productivity\n
304.485	0.105	608970	keystroke_p	p	n/a
304.6505	0.1045	609301	keystroke_r	r	n/a
304.8	0.06	609600	keystroke_o	o	n/a
305.385	0.09	610770	keystroke_v	v	n/a
305.6105	0.075	611221	keystroke_i	i	n/a
306.0755	0.09	612151	keystroke_s	s	n/a
306.1805	0.18	612361	keystroke_i	i	n/a
306.2855	0.18	612571	keystroke_o	o	n/a
306.3905	0.09	612781	keystroke_n	n	n/a
306.706	0.12	613412	keystroke_Key.space	Key.space	n/a
307.11	0.12	614220	keystroke_c	c	n/a
307.231	0.134	614462	keystroke_o	o	n/a
307.305	0.121	614610	keystroke_n	n	n/a
307.471	0.09	614942	keystroke_t	t	n/a
307.966	0.09	615932	keystroke_Key.backspace	Key.backspace	n/a
308.071	0.09	616142	keystroke_s	s	n/a
308.266	0.075	616532	keystroke_t	t	n/a
308.446	0.09	616892	keystroke_r	r	n/a
308.596	0.105	617192	keystroke_u	u	n/a
308.8205	0.12	617641	keystroke_c	c	n/a
309.1055	0.09	618211	keystroke_t	t	n/a
309.2105	0.18	618421	keystroke_i	i	n/a
309.2705	0.15	618541	keystroke_o	o	n/a
309.3755	0.135	618751	keystroke_n	n	n/a
309.5255	0.105	619051	keystroke_Key.space	Key.space	n/a
309.7955	0.12	619591	keystroke_i	i	n/a
309.9005	0.135	619801	keystroke_n	n	n/a
310.1405	0.12	620281	keystroke_v	v	n/a
310.2755	0.105	620551	keystroke_i	i	n/a
310.5455	0.09	621091	keystroke_t	t	n/a
310.7105	0.105	621421	keystroke_a	a	n/a
311.055	0.075	622110	keystroke_t	t	n/a
311.16	0.21	622320	keystroke_i	i	n/a
311.265	0.135	622530	keystroke_o	o	n/a
311.34	0.105	622680	keystroke_n	n	n/a
311.55	0.09	623100	keystroke_Key.space	Key.space	n/a
312.105	0.105	624210	keystroke_p	p	n/a
312.315	0.075	624630	keystroke_r	r	n/a
312.435	0.09	624870	keystroke_o	o	n/a
312.63	0.0755	625260	keystroke_d	d	n/a
312.735	0.076	625470	keystroke_u	u	n/a
312.87	0.106	625740	keystroke_c	c	n/a
313.141	0.045	626282	keystroke_t	t	n/a
313.216	0.089	626432	keystroke_i	i	n/a
313.426	0.105	626852	keystroke_v	v	n/a
313.546	0.105	627092	keystroke_i	i	n/a
313.98	0.12	627960	keystroke_t	t	n/a
314.131	0.119	628262	keystroke_y	y	n/a
314.505	0.091	629010	keystroke_Key.enter	Key.enter	n/a
314.6095	9.0855	629219	prompt	n/a	generates complete institutes strain\n
315.6155	0.1345	631231	keystroke_g	g	n/a
315.7355	0.12	631471	keystroke_e	e	n/a
315.9005	0.09	631801	keystroke_n	n	n/a
316.1105	0.12	632221	keystroke_e	e	n/a
316.1855	0.105	632371	keystroke_r	r	n/a
316.3505	0.12	632701	keystroke_a	a	n/a
316.6655	0.105	633331	keystroke_t	t	n/a
316.7855	0.1795	633571	keystroke_e	e	n/a
316.951	0.104	633902	keystroke_d	d	n/a
317.535	0.075	635070	keystroke_Key.backspace	Key.backspace	n/a
317.626	0.104	635252	keystroke_s	s	n/a
317.76	0.12	635520	keystroke_Key.space	Key.space	n/a
318.39	0.0905	636780	keystroke_c	c	n/a
318.5405	0.12	637081	keystroke_o	o	n/a
318.6305	0.09	637261	keystroke_m	m	n/a
318.7655	0.12	637531	keystroke_p	p	n/a
318.8255	0.105	637651	keystroke_l	l	n/a
318.9455	0.135	637891	keystroke_e	e	n/a
319.0955	0.1195	638191	keystroke_t	t	n/a
319.185	0.105	638370	keystroke_e	e	n/a
319.395	0.105	638790	keystroke_Key.space	Key.space	n/a
319.8	0.09	639600	keystroke_i	i	n/a
319.935	0.105	639870	keystroke_n	n	n/a
320.1005	0.105	640201	keystroke_s	s	n/a
320.3705	0.09	640741	keystroke_t	t	n/a
321.0755	0.09	642151	keystroke_i	i	n/a
321.5555	0.09	643111	keystroke_t	t	n/a
321.6605	0.06	643321	keystroke_u	u	n/a
321.9605	0.09	643921	keystroke_t	t	n/a
322.1405	0.09	644281	keystroke_e	e	n/a
322.336	0.105	644672	keystroke_s	s	n/a
322.5	0.12	645000	keystroke_Key.space	Key.space	n/a
322.605	0.09	645210	keystroke_s	s	n/a
322.815	0.045	645630	keystroke_t	t	n/a
322.95	0.09	645900	keystroke_r	r	n/a
323.085	0.09	646170	keystroke_a	a	n/a
323.19	0.106	646380	keystroke_i	i	n/a
323.281	0.074	646562	keystroke_n	n	n/a
323.625	0.06	647250	keystroke_Key.enter	Key.enter	n/a
323.701	9.4585	647402	prompt	n/a	million vanilla fragrance developed\n
324.36	0.09	648720	keystroke_m	m	n/a
324.54	0.075	649080	keystroke_i	i	n/a
324.705	0.075	649410	keystroke_l	l	n/a
324.84	0.12	649680	keystroke_l	l	n/a
324.93	0.225	649860	keystroke_i	i	n/a
325.11	0.165	650220	keystroke_o	o	n/a
325.185	0.165	650370	keystroke_n	n	n/a
325.32	0.15	650640	keystroke_Key.space	Key.space	n/a
325.665	0.09	651330	keystroke_c	c	n/a
326.025	0.06	652050	keystroke_Key.backspace	Key.backspace	n/a
326.28	0.045	652560	keystroke_b	b	n/a
326.655	0.075	653310	keystroke_Key.backspace	Key.backspace	n/a
327.075	0.105	654150	keystroke_v	v	n/a
327.135	0.12	654270	keystroke_a	a	n/a
327.285	0.075	654570	keystroke_n	n	n/a
327.465	0.06	654930	keystroke_i	i	n/a
327.69	0.061	655380	keystroke_l	l	n/a
327.841	0.09	655682	keystroke_l	l	n/a
327.946	0.09	655892	keystroke_a	a	n/a
328.081	0.09	656162	keystroke_Key.space	Key.space	n/a
328.936	0.06	657872	keystroke_f	f	n/a
329.101	0.1045	658202	keystroke_r	r	n/a
329.191	0.1195	658382	keystroke_a	a	n/a
329.4305	0.09	658861	keystroke_g	g	n/a
329.8805	0.105	659761	keystroke_r	r	n/a
330.0305	0.105	660061	keystroke_a	a	n/a
330.1655	0.075	660331	keystroke_n	n	n/a
330.2105	0.15	660421	keystroke_c	c	n/a
330.3155	0.105	660631	keystroke_e	e	n/a
330.736	0.075	661472	keystroke_Key.space	Key.space	n/a
331.456	0.075	662912	keystroke_d	d	n/a
331.486	0.105	662972	keystroke_e	e	n/a
331.7255	0.105	663451	keystroke_v	v	n/a
331.7855	0.12	663571	keystroke_e	e	n/a
332.0555	0.075	664111	keystroke_l	l	n/a
332.2505	0.045	664501	keystroke_o	o	n/a
332.4155	0.06	664831	keystroke_p	p	n/a
332.7905	0.105	665581	keystroke_e	e	n/a
332.8355	0.09	665671	keystroke_d	d	n/a
333.0755	0.075	666151	keystroke_Key.enter	Key.enter	n/a
333.164	9.176	666328	prompt	n/a	annual remain toshiba viewing\n
333.7055	0.09	667411	keystroke_a	a	n/a
333.7805	0.075	667561	keystroke_n	n	n/a
333.9305	0.105	667861	keystroke_n	n	n/a
334.1705	0.075	668341	keystroke_u	u	n/a
334.3205	0.09	668641	keystroke_a	a	n/a
334.4115	0.104	668823	keystroke_l	l	n/a
334.7105	0.12	669421	keystroke_Key.space	Key.space	n/a
334.9805	0.135	669961	keystroke_r	r	n/a
335.2355	0.09	670471	keystroke_e	e	n/a
335.4155	0.09	670831	keystroke_m	m	n/a
335.5655	0.075	671131	keystroke_a	a	n/a
335.6705	0.12	671341	keystroke_i	i	n/a
335.7605	0.105	671521	keystroke_n	n	n/a
336.3005	0.12	672601	keystroke_Key.space	Key.space	n/a
336.6005	0.06	673201	keystroke_r	r	n/a
337.26	0.106	674520	keystroke_Key.backspace	Key.backspace	n/a
337.411	0.119	674822	keystroke_t	t	n/a
337.59	0.136	675180	keystroke_o	o	n/a
338.101	0.105	676202	keystroke_s	s	n/a
338.236	0.12	676472	keystroke_h	h	n/a
338.656	0.0895	677312	keystroke_i	i	n/a
339.0755	0.09	678151	keystroke_b	b	n/a
339.2255	0.09	678451	keystroke_a	a	n/a
339.8255	0.105	679651	keystroke_Key.space	Key.space	n/a
340.1105	0.06	680221	keystroke_v	v	n/a
341.235	0.1055	682470	keystroke_i	i	n/a
341.3705	0.18	682741	keystroke_e	e	n/a
341.4905	0.135	682981	keystroke_w	w	n/a
341.9555	0.105	683911	keystroke_i	i	n/a
342.0305	0.09	684061	keystroke_n	n	n/a
342.0755	0.09	684151	keystroke_g	g	n/a
342.271	0.0595	684542	keystroke_Key.enter	Key.enter	n/a
342.344	7.2035	684688	prompt	n/a	locally founded libraries toilet\n
342.9905	0.075	685981	keystroke_l	l	n/a
343.1705	0.105	686341	keystroke_o	o	n/a
343.2905	0.09	686581	keystroke_c	c	n/a
343.3355	0.135	686671	keystroke_a	a	n/a
343.4705	0.045	686941	keystroke_l	l	n/a
343.5905	0.09	687181	keystroke_l	l	n/a
343.8005	0.15	687601	keystroke_y	y	n/a
343.9055	0.105	687811	keystroke_Key.space	Key.space	n/a
344.626	0.09	689252	keystroke_f	f	n/a
344.761	0.12	689522	keystroke_o	o	n/a
344.836	0.1045	689672	keystroke_u	u	n/a
344.896	0.1055	689792	keystroke_n	n	n/a
344.9855	0.15	689971	keystroke_d	d	n/a
345.1205	0.09	690241	keystroke_e	e	n/a
345.2255	0.12	690451	keystroke_d	d	n/a
345.4355	0.1055	690871	keystroke_Key.space	Key.space	n/a
345.8105	0.09	691621	keystroke_l	l	n/a
346.0805	0.075	692161	keystroke_i	i	n/a
346.5005	0.09	693001	keystroke_b	b	n/a
346.6355	0.135	693271	keystroke_r	r	n/a
346.7255	0.135	693451	keystroke_a	a	n/a
346.995	0.09	693990	keystroke_r	r	n/a
347.115	0.075	694230	keystroke_i	i	n/a
347.265	0.075	694530	keystroke_e	e	n/a
347.445	0.075	694890	keystroke_s	s	n/a
347.625	0.0905	695250	keystroke_Key.space	Key.space	n/a
348.27	0.1055	696540	keystroke_t	t	n/a
348.4055	0.105	696811	keystroke_o	o	n/a
348.4955	0.09	696991	keystroke_i	i	n/a
348.6905	0.075	697381	keystroke_l	l	n/a
348.7805	0.121	697561	keystroke_e	e	n/a
348.8855	0.075	697771	keystroke_t	t	n/a
349.4855	0.06	698971	keystroke_Key.enter	Key.enter	n/a
349.55	8.4345	699100	prompt	n/a	chick joseph mandate stable\n
350.1905	0.09	700381	keystroke_c	c	n/a
350.2955	0.15	700591	keystroke_h	h	n/a
350.4005	0.09	700801	keystroke_i	i	n/a
350.5205	0.075	701041	keystroke_c	c	n/a
350.6705	0.075	701341	keystroke_k	k	n/a
350.8805	0.075	701761	keystroke_Key.space	Key.space	n/a
351.4355	0.135	702871	keystroke_j	j	n/a
351.5255	0.105	703051	keystroke_o	o	n/a
351.7355	0.075	703471	keystroke_s	s	n/a
351.9605	0.075	703921	keystroke_e	e	n/a
352.0805	0.09	704161	keystroke_p	p	n/a
352.7705	0.06	705541	keystroke_h	h	n/a
353.4905	0.06	706981	keystroke_Key.space	Key.space	n/a
353.6705	0.075	707341	keystroke_m	m	n/a
353.7605	0.09	707521	keystroke_a	a	n/a
353.8655	0.075	707731	keystroke_n	n	n/a
353.9555	0.18	707911	keystroke_d	d	n/a
354.3005	0.135	708601	keystroke_a	a	n/a
354.4655	0.09	708931	keystroke_t	t	n/a
354.5105	0.135	709021	keystroke_e	e	n/a
355.0055	0.105	710011	keystroke_Key.space	Key.space	n/a
355.2005	0.09	710401	keystroke_s	s	n/a
355.4255	0.06	710851	keystroke_t	t	n/a
355.5305	0.135	711061	keystroke_a	a	n/a
355.7405	0.09	711481	keystroke_b	b	n/a
355.9205	0.045	711841	keystroke_e	e	n/a
355.9805	0.09	711961	keystroke_l	l	n/a
356.6405	0.06	713281	keystroke_Key.backspace	Key.backspace	n/a
356.8055	0.045	713611	keystroke_Key.backspace	Key.backspace	n/a
357.3605	0.06	714721	keystroke_l	l	n/a
357.4655	0.075	714931	keystroke_e	e	n/a
357.9455	0.03	715891	keystroke_Key.enter	Key.enter	n/a
357.9895	18.115	715979	prompt	n/a	karl grew knowledgestorm magazines\n
358.8905	0.075	717781	keystroke_k	k	n/a
358.9505	0.15	717901	keystroke_a	a	n/a
359.0705	0.12	718141	keystroke_r	r	n/a
359.2055	0.165	718411	keystroke_l	l	n/a
359.3255	0.12	718651	keystroke_Key.space	Key.space	n/a
359.641	0.06	719282	keystroke_f	f	n/a
360.195	0.075	720390	keystroke_Key.backspace	Key.backspace	n/a
361.351	0.059	722702	keystroke_g	g	n/a
361.861	0.15	723722	keystroke_r	r	n/a
361.935	0.18	723870	keystroke_e	e	n/a
362.055	0.151	724110	keystroke_w	w	n/a
362.55	0.12	725100	keystroke_Key.space	Key.space	n/a
363.346	0.2095	726692	keystroke_k	k	n/a
363.4355	0.105	726871	keystroke_n	n	n/a
363.5105	0.12	727021	keystroke_o	o	n/a
363.6905	0.135	727381	keystroke_w	w	n/a
364.6355	0.075	729271	keystroke_l	l	n/a
364.7705	0.105	729541	keystroke_e	e	n/a
366.1505	0.075	732301	keystroke_d	d	n/a
366.5705	0.075	733141	keystroke_g	g	n/a
366.9455	0.106	733891	keystroke_e	e	n/a
367.8605	0.09	735721	keystroke_s	s	n/a
368.0855	0.075	736171	keystroke_t	t	n/a
368.3105	0.075	736621	keystroke_r	r	n/a
368.4155	0.09	736831	keystroke_o	o	n/a
369.0005	0.045	738001	keystroke_Key.backspace	Key.backspace	n/a
369.1505	0.06	738301	keystroke_Key.backspace	Key.backspace	n/a
369.3755	0.09	738751	keystroke_o	o	n/a
369.5405	0.075	739081	keystroke_r	r	n/a
369.6605	0.105	739321	keystroke_m	m	n/a
370.0955	0.075	740191	keystroke_Key.space	Key.space	n/a
373.6075	0.001	747215	keystroke_a	a	n/a
373.6085	0.057	747217	keystroke_m	m	n/a
373.8455	0.06	747691	keystroke_Key.backspace	Key.backspace	n/a
373.9805	0.075	747961	keystroke_Key.backspace	Key.backspace	n/a
374.1605	0.09	748321	keystroke_m	m	n/a
374.2805	0.105	748561	keystroke_a	a	n/a
374.5355	0.09	749071	keystroke_g	g	n/a
374.7155	0.105	749431	keystroke_a	a	n/a
375.4355	0.09	750871	keystroke_z	z	n/a
375.5405	0.09	751081	keystroke_i	i	n/a
375.6455	0.045	751291	keystroke_n	n	n/a
375.721	0.075	751442	keystroke_e	e	n/a
375.9005	0.0605	751801	keystroke_s	s	n/a
376.021	0.075	752042	keystroke_Key.enter	Key.enter	n/a
376.109	10.886	752218	prompt	n/a	where're gathering on consist\n
377.161	0.09	754322	keystroke_w	w	n/a
377.281	0.105	754562	keystroke_h	h	n/a
377.446	0.09	754892	keystroke_e	e	n/a
377.491	0.15	754982	keystroke_r	r	n/a
377.836	0.105	755672	keystroke_e	e	n/a
378.3155	0.105	756631	keystroke_'	'	n/a
378.7205	0.135	757441	keystroke_r	r	n/a
378.7955	0.135	757591	keystroke_e	e	n/a
378.9455	0.105	757891	keystroke_Key.space	Key.space	n/a
380.5505	0.076	761101	keystroke_g	g	n/a
380.7305	0.105	761461	keystroke_a	a	n/a
380.8655	0.09	761731	keystroke_t	t	n/a
380.9855	0.09	761971	keystroke_h	h	n/a
381.0605	0.12	762121	keystroke_e	e	n/a
381.1355	0.105	762271	keystroke_r	r	n/a
381.2705	0.12	762541	keystroke_i	i	n/a
381.3305	0.106	762661	keystroke_n	n	n/a
381.5555	0.09	763111	keystroke_Key.space	Key.space	n/a
381.9155	0.06	763831	keystroke_Key.backspace	Key.backspace	n/a
381.9605	0.12	763921	keystroke_f	f	n/a
382.546	0.075	765092	keystroke_Key.backspace	Key.backspace	n/a
382.846	0.075	765692	keystroke_g	g	n/a
382.996	0.06	765992	keystroke_Key.space	Key.space	n/a
383.086	0.15	766172	keystroke_o	o	n/a
383.176	0.12	766352	keystroke_n	n	n/a
383.251	0.105	766502	keystroke_Key.space	Key.space	n/a
383.611	0.09	767222	keystroke_c	c	n/a
383.7155	0.1055	767431	keystroke_o	o	n/a
383.776	0.12	767552	keystroke_n	n	n/a
384.046	0.075	768092	keystroke_s	s	n/a
384.166	0.075	768332	keystroke_i	i	n/a
384.331	0.075	768662	keystroke_s	s	n/a
384.991	0.105	769982	keystroke_t	t	n/a
386.941	0.045	773882	keystroke_Key.enter	Key.enter	n/a
386.9995	8.1555	773999	prompt	n/a	live officials transmission linked\n
387.796	0.18	775592	keystroke_l	l	n/a
387.931	0.09	775862	keystroke_i	i	n/a
388.036	0.165	776072	keystroke_v	v	n/a
388.156	0.12	776312	keystroke_e	e	n/a
388.29	0.1215	776580	keystroke_Key.space	Key.space	n/a
388.4865	0.104	776973	keystroke_o	o	n/a
388.8005	0.076	777601	keystroke_f	f	n/a
388.9355	0.09	777871	keystroke_f	f	n/a
389.0415	0.089	778083	keystroke_i	i	n/a
389.1605	0.1205	778321	keystroke_c	c	n/a
389.416	0.075	778832	keystroke_i	i	n/a
389.551	0.075	779102	keystroke_a	a	n/a
389.686	0.105	779372	keystroke_l	l	n/a
389.836	0.09	779672	keystroke_s	s	n/a
390.001	0.105	780002	keystroke_Key.space	Key.space	n/a
390.631	0.09	781262	keystroke_t	t	n/a
390.826	0.105	781652	keystroke_r	r	n/a
390.916	0.135	781832	keystroke_a	a	n/a
391.681	0.105	783362	keystroke_n	n	n/a
391.861	0.075	783722	keystroke_s	s	n/a
392.266	0.075	784532	keystroke_m	m	n/a
392.431	0.075	784862	keystroke_i	i	n/a
392.536	0.09	785072	keystroke_s	s	n/a
392.701	0.09	785402	keystroke_s	s	n/a
392.776	0.195	785552	keystroke_i	i	n/a
392.881	0.12	785762	keystroke_o	o	n/a
392.926	0.135	785852	keystroke_n	n	n/a
393.076	0.09	786152	keystroke_Key.space	Key.space	n/a
393.316	0.045	786632	keystroke_i	i	n/a
393.631	0.075	787262	keystroke_Key.backspace	Key.backspace	n/a
393.856	0.18	787712	keystroke_l	l	n/a
393.976	0.12	787952	keystroke_i	i	n/a
394.051	0.15	788102	keystroke_n	n	n/a
394.171	0.12	788342	keystroke_k	k	n/a
394.336	0.105	788672	keystroke_e	e	n/a
394.411	0.105	788822	keystroke_d	d	n/a
395.056	0.09	790112	keystroke_Key.enter	Key.enter	n/a
395.159	11.8915	790318	prompt	n/a	admitted andrews divisions guilty\n
395.7155	0.135	791431	keystroke_a	a	n/a
395.8355	0.105	791671	keystroke_d	d	n/a
396.0455	0.105	792091	keystroke_m	m	n/a
396.2405	0.075	792481	keystroke_i	i	n/a
396.4205	0.075	792841	keystroke_t	t	n/a
396.5555	0.1055	793111	keystroke_t	t	n/a
396.7355	0.135	793471	keystroke_e	e	n/a
396.8105	0.105	793621	keystroke_d	d	n/a
396.9605	0.09	793921	keystroke_Key.space	Key.space	n/a
397.1705	0.105	794341	keystroke_a	a	n/a
397.2905	0.075	794581	keystroke_n	n	n/a
397.6505	0.105	795301	keystroke_d	d	n/a
398.0105	0.165	796021	keystroke_r	r	n/a
398.1605	0.135	796321	keystroke_e	e	n/a
398.2505	0.09	796501	keystroke_w	w	n/a
398.461	0.105	796922	keystroke_s	s	n/a
399.2555	0.09	798511	keystroke_Key.space	Key.space	n/a
399.6455	0.075	799291	keystroke_d	d	n/a
399.7955	0.075	799591	keystroke_i	i	n/a
402.0785	0.012	804157	keystroke_v	v	n/a
402.1505	0.075	804301	keystroke_i	i	n/a
403.036	0.075	806072	keystroke_s	s	n/a
403.141	0.135	806282	keystroke_i	i	n/a
403.261	0.15	806522	keystroke_o	o	n/a
403.336	0.135	806672	keystroke_n	n	n/a
403.576	0.075	807152	keystroke_s	s	n/a
404.161	0.09	808322	keystroke_Key.space	Key.space	n/a
405.1055	0.075	810211	keystroke_g	g	n/a
405.3005	0.135	810601	keystroke_u	u	n/a
405.3905	0.09	810781	keystroke_i	i	n/a
405.5855	0.105	811171	keystroke_l	l	n/a
405.9305	0.06	811861	keystroke_t	t	n/a
406.0505	0.105	812101	keystroke_y	y	n/a
406.981	0.06	813962	keystroke_Key.enter	Key.enter	n/a
407.0555	12.1815	814111	prompt	n/a	till climb diane living\n
407.941	0.105	815882	keystroke_t	t	n/a
408.091	0.06	816182	keystroke_i	i	n/a
408.271	0.045	816542	keystroke_l	l	n/a
408.421	0.09	816842	keystroke_l	l	n/a
408.466	0.12	816932	keystroke_Key.space	Key.space	n/a
408.8415	0.09	817683	keystroke_c	c	n/a
408.9615	0.15	817923	keystroke_l	l	n/a
409.0815	0.0895	818163	keystroke_i	i	n/a
409.291	0.105	818582	keystroke_m	m	n/a
409.741	0.105	819482	keystroke_b	b	n/a
409.966	0.09	819932	keystroke_Key.space	Key.space	n/a
410.851	0.09	821702	keystroke_d	d	n/a
410.971	0.075	821942	keystroke_i	i	n/a
411.106	0.075	822212	keystroke_a	a	n/a
411.226	0.09	822452	keystroke_n	n	n/a
411.4515	0.0745	822903	keystroke_e	e	n/a
412.291	0.075	824582	keystroke_Key.space	Key.space	n/a
412.471	0.135	824942	keystroke_l	l	n/a
412.591	0.105	825182	keystroke_i	i	n/a
412.951	0.06	825902	keystroke_v	v	n/a
413.056	0.105	826112	keystroke_i	i	n/a
413.116	0.12	826232	keystroke_n	n	n/a
413.581	0.0905	827162	keystroke_g	g	n/a
419.223	0.001	838446	keystroke_Key.enter	Key.enter	n/a
419.243	12.137	838486	prompt	n/a	participating drum scotia dump\n
420.181	0.075	840362	keystroke_p	p	n/a
420.271	0.135	840542	keystroke_a	a	n/a
420.376	0.12	840752	keystroke_r	r	n/a
420.661	0.075	841322	keystroke_t	t	n/a
420.811	0.06	841622	keystroke_i	i	n/a
421.021	0.075	842042	keystroke_c	c	n/a
421.141	0.075	842282	keystroke_i	i	n/a
421.306	0.09	842612	keystroke_p	p	n/a
421.441	0.09	842882	keystroke_a	a	n/a
421.681	0.06	843362	keystroke_t	t	n/a
421.786	0.1345	843572	keystroke_i	i	n/a
421.876	0.0895	843752	keystroke_n	n	n/a
421.9505	0.09	843901	keystroke_g	g	n/a
422.1455	0.1055	844291	keystroke_Key.space	Key.space	n/a
422.986	0.075	845972	keystroke_d	d	n/a
423.181	0.075	846362	keystroke_r	r	n/a
423.286	0.075	846572	keystroke_u	u	n/a
423.481	0.12	846962	keystroke_m	m	n/a
423.646	0.105	847292	keystroke_Key.space	Key.space	n/a
424.006	0.075	848012	keystroke_s	s	n/a
424.141	0.105	848282	keystroke_c	c	n/a
424.276	0.12	848552	keystroke_o	o	n/a
427.3525	0.029	854705	keystroke_t	t	n/a
427.4115	0.075	854823	keystroke_i	i	n/a
427.5315	0.06	855063	keystroke_a	a	n/a
427.8765	0.12	855753	keystroke_Key.space	Key.space	n/a
428.6115	0.06	857223	keystroke_d	d	n/a
428.7005	0.09	857401	keystroke_u	u	n/a
429.0605	0.105	858121	keystroke_m	m	n/a
429.8555	0.075	859711	keystroke_p	p	n/a
431.3105	0.06	862621	keystroke_Key.enter	Key.enter	n/a
431.386	7.054	862772	prompt	n/a	file keeps routes reed\n
432.931	0.09	865862	keystroke_f	f	n/a
433.111	0.06	866222	keystroke_i	i	n/a
433.291	0.09	866582	keystroke_l	l	n/a
433.366	0.105	866732	keystroke_e	e	n/a
433.561	0.0605	867122	keystroke_Key.space	Key.space	n/a
433.7415	0.075	867483	keystroke_k	k	n/a
433.8615	0.075	867723	keystroke_e	e	n/a
434.281	0.075	868562	keystroke_e	e	n/a
434.386	0.09	868772	keystroke_p	p	n/a
434.521	0.09	869042	keystroke_s	s	n/a
434.686	0.12	869372	keystroke_Key.space	Key.space	n/a
435.3605	0.075	870721	keystroke_r	r	n/a
435.4805	0.135	870961	keystroke_o	o	n/a
435.5555	0.12	871111	keystroke_u	u	n/a
435.8555	0.121	871711	keystroke_t	t	n/a
435.9605	0.105	871921	keystroke_e	e	n/a
436.2305	0.09	872461	keystroke_s	s	n/a
436.8305	0.1805	873661	keystroke_Key.space	Key.space	n/a
437.026	0.075	874052	keystroke_r	r	n/a
437.056	0.09	874112	keystroke_e	e	n/a
437.3115	0.03	874623	keystroke_s	s	n/a
437.7315	0.09	875463	keystroke_Key.backspace	Key.backspace	n/a
437.8065	0.09	875613	keystroke_e	e	n/a
437.8515	0.105	875703	keystroke_d	d	n/a
438.3765	0.06	876753	keystroke_Key.enter	Key.enter	n/a
438.44	7.2975	876880	prompt	n/a	gore maps hughes intervention\n
439.5015	0.075	879003	keystroke_g	g	n/a
439.5915	0.105	879183	keystroke_o	o	n/a
439.7115	0.105	879423	keystroke_r	r	n/a
439.7865	0.105	879573	keystroke_e	e	n/a
439.9365	0.09	879873	keystroke_Key.space	Key.space	n/a
440.1165	0.09	880233	keystroke_m	m	n/a
440.1915	0.105	880383	keystroke_a	a	n/a
440.3715	0.09	880743	keystroke_p	p	n/a
440.9415	0.105	881883	keystroke_s	s	n/a
441.1365	0.104	882273	keystroke_Key.space	Key.space	n/a
441.4365	0.179	882873	keystroke_h	h	n/a
441.6015	0.09	883203	keystroke_u	u	n/a
441.7805	0.12	883561	keystroke_g	g	n/a
441.9315	0.104	883863	keystroke_h	h	n/a
442.1405	0.091	884281	keystroke_e	e	n/a
442.3355	0.09	884671	keystroke_s	s	n/a
442.6655	0.12	885331	keystroke_Key.space	Key.space	n/a
442.9055	0.12	885811	keystroke_i	i	n/a
442.9805	0.12	885961	keystroke_n	n	n/a
444.0315	0.09	888063	keystroke_t	t	n/a
444.1365	0.135	888273	keystroke_e	e	n/a
444.2415	0.105	888483	keystroke_r	r	n/a
444.5715	0.12	889143	keystroke_v	v	n/a
444.7065	0.105	889413	keystroke_e	e	n/a
444.8265	0.105	889653	keystroke_n	n	n/a
444.9765	0.09	889953	keystroke_t	t	n/a
445.0965	0.21	890193	keystroke_i	i	n/a
445.2015	0.165	890403	keystroke_o	o	n/a
445.2915	0.09	890583	keystroke_n	n	n/a
445.6665	0.06	891333	keystroke_Key.enter	Key.enter	n/a
445.742	7.4405	891484	prompt	n/a	thriller start tanks technician\n
446.6265	0.105	893253	keystroke_t	t	n/a
446.7465	0.09	893493	keystroke_h	h	n/a
446.8515	0.105	893703	keystroke_r	r	n/a
446.9865	0.075	893973	keystroke_i	i	n/a
447.2115	0.075	894423	keystroke_l	l	n/a
447.3765	0.09	894753	keystroke_l	l	n/a
447.4815	0.12	894963	keystroke_e	e	n/a
447.5565	0.105	895113	keystroke_r	r	n/a
447.7365	0.105	895473	keystroke_Key.space	Key.space	n/a
448.0515	0.135	896103	keystroke_s	s	n/a
448.2615	0.105	896523	keystroke_t	t	n/a
448.3815	0.135	896763	keystroke_a	a	n/a
448.4715	0.12	896943	keystroke_r	r	n/a
448.7265	0.105	897453	keystroke_t	t	n/a
448.9065	0.09	897813	keystroke_Key.space	Key.space	n/a
449.2815	0.074	898563	keystroke_t	t	n/a
449.4605	0.105	898921	keystroke_a	a	n/a
449.7905	0.15	899581	keystroke_n	n	n/a
449.9255	0.105	899851	keystroke_k	k	n/a
450.0455	0.075	900091	keystroke_s	s	n/a
450.2105	0.12	900421	keystroke_Key.space	Key.space	n/a
450.5265	0.075	901053	keystroke_t	t	n/a
450.6615	0.075	901323	keystroke_a	a	n/a
451.0065	0.075	902013	keystroke_Key.backspace	Key.backspace	n/a
451.0965	0.09	902193	keystroke_e	e	n/a
451.2615	0.09	902523	keystroke_c	c	n/a
451.3965	0.09	902793	keystroke_h	h	n/a
451.7265	0.09	903453	keystroke_n	n	n/a
451.8615	0.09	903723	keystroke_i	i	n/a
452.2515	0.09	904503	keystroke_c	c	n/a
452.3565	0.09	904713	keystroke_i	i	n/a
452.4615	0.105	904923	keystroke_a	a	n/a
452.7165	0.075	905433	keystroke_n	n	n/a
453.0915	0.09	906183	keystroke_Key.enter	Key.enter	n/a
453.1855	8.1495	906371	prompt	n/a	wrote accommodation watches bears\n
453.886	0.135	907772	keystroke_w	w	n/a
454.021	0.075	908042	keystroke_i	i	n/a
454.111	0.105	908222	keystroke_r	r	n/a
454.531	0.06	909062	keystroke_Key.backspace	Key.backspace	n/a
454.651	0.0755	909302	keystroke_Key.backspace	Key.backspace	n/a
454.7275	0.104	909455	keystroke_r	r	n/a
454.9215	0.09	909843	keystroke_o	o	n/a
455.0415	0.12	910083	keystroke_t	t	n/a
455.1765	0.105	910353	keystroke_e	e	n/a
455.3565	0.105	910713	keystroke_Key.space	Key.space	n/a
456.0915	0.075	912183	keystroke_a	a	n/a
456.1965	0.074	912393	keystroke_c	c	n/a
456.3765	0.075	912753	keystroke_c	c	n/a
456.4965	0.0895	912993	keystroke_o	o	n/a
456.5415	0.1045	913083	keystroke_m	m	n/a
456.811	0.09	913622	keystroke_m	m	n/a
457.051	0.09	914102	keystroke_o	o	n/a
457.711	0.15	915422	keystroke_d	d	n/a
457.786	0.135	915572	keystroke_a	a	n/a
458.011	0.09	916022	keystroke_t	t	n/a
458.086	0.255	916172	keystroke_i	i	n/a
458.191	0.195	916382	keystroke_o	o	n/a
458.266	0.18	916532	keystroke_n	n	n/a
458.431	0.105	916862	keystroke_Key.space	Key.space	n/a
458.821	0.09	917642	keystroke_w	w	n/a
458.986	0.105	917972	keystroke_a	a	n/a
459.211	0.06	918422	keystroke_t	t	n/a
459.4365	0.105	918873	keystroke_c	c	n/a
459.5715	0.12	919143	keystroke_h	h	n/a
459.7215	0.09	919443	keystroke_e	e	n/a
459.9165	0.105	919833	keystroke_s	s	n/a
460.0515	0.12	920103	keystroke_Key.space	Key.space	n/a
460.3515	0.105	920703	keystroke_b	b	n/a
460.4715	0.24	920943	keystroke_e	e	n/a
460.6065	0.134	921213	keystroke_a	a	n/a
460.6965	0.119	921393	keystroke_r	r	n/a
460.9065	0.135	921813	keystroke_s	s	n/a
461.2665	0.06	922533	keystroke_Key.enter	Key.enter	n/a
461.3415	9.2635	922683	prompt	n/a	acres draw contacting were\n
462.1965	0.135	924393	keystroke_a	a	n/a
462.2855	0.091	924571	keystroke_c	c	n/a
462.5265	0.105	925053	keystroke_r	r	n/a
462.6015	0.12	925203	keystroke_e	e	n/a
462.8115	0.1045	925623	keystroke_s	s	n/a
463.006	0.105	926012	keystroke_Key.space	Key.space	n/a
463.606	0.09	927212	keystroke_d	d	n/a
464.071	0.105	928142	keystroke_r	r	n/a
464.371	0.015	928742	keystroke_a	a	n/a
464.461	0.15	928922	keystroke_a	a	n/a
464.701	0.075	929402	keystroke_w	w	n/a
465.1515	0.075	930303	keystroke_Key.backspace	Key.backspace	n/a
465.3165	0.06	930633	keystroke_Key.backspace	Key.backspace	n/a
465.4065	0.09	930813	keystroke_w	w	n/a
465.841	0.105	931682	keystroke_Key.space	Key.space	n/a
466.651	0.135	933302	keystroke_c	c	n/a
466.771	0.105	933542	keystroke_o	o	n/a
466.831	0.105	933662	keystroke_n	n	n/a
466.996	0.105	933992	keystroke_t	t	n/a
467.176	0.12	934352	keystroke_a	a	n/a
467.326	0.12	934652	keystroke_c	c	n/a
467.566	0.09	935132	keystroke_t	t	n/a
467.701	0.12	935402	keystroke_i	i	n/a
467.791	0.09	935582	keystroke_n	n	n/a
467.866	0.075	935732	keystroke_g	g	n/a
468.001	0.075	936002	keystroke_Key.space	Key.space	n/a
468.451	0.075	936902	keystroke_w	w	n/a
468.466	0.15	936932	keystroke_e	e	n/a
468.571	0.15	937142	keystroke_r	r	n/a
468.691	0.12	937382	keystroke_e	e	n/a
470.5365	0.06	941073	keystroke_Key.enter	Key.enter	n/a
470.6095	8.801	941219	prompt	n/a	magical pulse harrison violin\n
471.3615	0.12	942723	keystroke_m	m	n/a
471.4665	0.075	942933	keystroke_a	a	n/a
471.6615	0.09	943323	keystroke_f	f	n/a
472.2165	0.045	944433	keystroke_Key.backspace	Key.backspace	n/a
472.2615	0.105	944523	keystroke_g	g	n/a
472.4115	0.075	944823	keystroke_i	i	n/a
472.8615	0.135	945723	keystroke_c	c	n/a
472.9515	0.12	945903	keystroke_a	a	n/a
473.0865	0.165	946173	keystroke_l	l	n/a
473.2215	0.09	946443	keystroke_Key.space	Key.space	n/a
473.4615	0.12	946923	keystroke_p	p	n/a
473.7165	0.06	947433	keystroke_u	u	n/a
473.8815	0.12	947763	keystroke_l	l	n/a
474.4665	0.075	948933	keystroke_s	s	n/a
474.6615	0.06	949323	keystroke_e	e	n/a
474.7665	0.06	949533	keystroke_Key.space	Key.space	n/a
474.9465	0.075	949893	keystroke_h	h	n/a
475.0515	0.135	950103	keystroke_a	a	n/a
475.1415	0.09	950283	keystroke_r	r	n/a
475.3365	0.075	950673	keystroke_r	r	n/a
475.4715	0.075	950943	keystroke_i	i	n/a
475.5915	0.1045	951183	keystroke_s	s	n/a
475.741	0.15	951482	keystroke_o	o	n/a
475.816	0.15	951632	keystroke_n	n	n/a
475.981	0.09	951962	keystroke_Key.space	Key.space	n/a
477.436	0.075	954872	keystroke_v	v	n/a
477.5865	0.0745	955173	keystroke_i	i	n/a
477.736	0.075	955472	keystroke_o	o	n/a
477.946	0.045	955892	keystroke_l	l	n/a
478.141	0.075	956282	keystroke_i	i	n/a
478.396	0.015	956792	keystroke_n	n	n/a
479.3265	0.075	958653	keystroke_Key.enter	Key.enter	n/a
479.4145	6.678	958829	prompt	n/a	along returning friends warren\n
480.2115	0.105	960423	keystroke_a	a	n/a
480.2865	0.06	960573	keystroke_l	l	n/a
480.4665	0.135	960933	keystroke_o	o	n/a
480.5565	0.105	961113	keystroke_n	n	n/a
480.6765	0.105	961353	keystroke_g	g	n/a
480.8415	0.09	961683	keystroke_Key.space	Key.space	n/a
481.1565	0.135	962313	keystroke_r	r	n/a
481.2315	0.12	962463	keystroke_e	e	n/a
481.4865	0.09	962973	keystroke_t	t	n/a
481.6065	0.06	963213	keystroke_u	u	n/a
481.7265	0.09	963453	keystroke_r	r	n/a
482.1615	0.06	964323	keystroke_n	n	n/a
482.4165	0.135	964833	keystroke_i	i	n/a
482.5215	0.09	965043	keystroke_n	n	n/a
482.6265	0.075	965253	keystroke_g	g	n/a
482.7465	0.105	965493	keystroke_Key.space	Key.space	n/a
483.1815	0.075	966363	keystroke_f	f	n/a
483.3615	0.09	966723	keystroke_r	r	n/a
483.4665	0.075	966933	keystroke_i	i	n/a
483.5565	0.09	967113	keystroke_e	e	n/a
483.6915	0.09	967383	keystroke_n	n	n/a
483.7665	0.165	967533	keystroke_d	d	n/a
483.9165	0.105	967833	keystroke_s	s	n/a
484.1715	0.105	968343	keystroke_Key.space	Key.space	n/a
484.8615	0.15	969723	keystroke_w	w	n/a
484.9665	0.12	969933	keystroke_a	a	n/a
485.2365	0.09	970473	keystroke_r	r	n/a
485.4015	0.12	970803	keystroke_r	r	n/a
485.4915	0.1045	970983	keystroke_e	e	n/a
485.6565	0.09	971313	keystroke_n	n	n/a
486.0315	0.06	972063	keystroke_Key.enter	Key.enter	n/a
486.0955	7.4825	972191	prompt	n/a	when verified remaining legally\n
486.707	0.074	973414	keystroke_w	w	n/a
486.841	0.075	973682	keystroke_h	h	n/a
486.901	0.0905	973802	keystroke_e	e	n/a
487.0355	0.136	974071	keystroke_n	n	n/a
487.1565	0.09	974313	keystroke_Key.space	Key.space	n/a
487.876	0.105	975752	keystroke_v	v	n/a
488.057	0.135	976114	keystroke_e	e	n/a
488.131	0.105	976262	keystroke_r	r	n/a
488.387	0.089	976774	keystroke_i	i	n/a
488.7465	0.0895	977493	keystroke_f	f	n/a
488.8815	0.075	977763	keystroke_i	i	n/a
488.9865	0.135	977973	keystroke_e	e	n/a
489.1065	0.15	978213	keystroke_d	d	n/a
489.3015	0.105	978603	keystroke_Key.space	Key.space	n/a
489.6615	0.135	979323	keystroke_r	r	n/a
489.7515	0.135	979503	keystroke_e	e	n/a
489.9615	0.105	979923	keystroke_m	m	n/a
490.0815	0.09	980163	keystroke_a	a	n/a
490.1865	0.135	980373	keystroke_i	i	n/a
490.2915	0.105	980583	keystroke_n	n	n/a
490.4265	0.135	980853	keystroke_i	i	n/a
490.5165	0.105	981033	keystroke_n	n	n/a
490.6365	0.075	981273	keystroke_g	g	n/a
490.7565	0.105	981513	keystroke_Key.space	Key.space	n/a
491.326	0.075	982652	keystroke_l	l	n/a
491.5215	0.075	983043	keystroke_e	e	n/a
491.9565	0.015	983913	keystroke_g	g	n/a
492.0765	0.09	984153	keystroke_a	a	n/a
492.2115	0.045	984423	keystroke_l	l	n/a
492.3765	0.03	984753	keystroke_l	l	n/a
492.5265	0.15	985053	keystroke_y	y	n/a
493.5165	0.06	987033	keystroke_Key.enter	Key.enter	n/a
493.581	9.8745	987162	prompt	n/a	southern lasting phoenix starting\n
494.7765	0.105	989553	keystroke_s	s	n/a
494.8965	0.1345	989793	keystroke_o	o	n/a
494.971	0.105	989942	keystroke_u	u	n/a
495.061	0.105	990122	keystroke_t	t	n/a
495.196	0.135	990392	keystroke_h	h	n/a
495.316	0.135	990632	keystroke_e	e	n/a
495.406	0.105	990812	keystroke_r	r	n/a
495.631	0.105	991262	keystroke_n	n	n/a
495.871	0.09	991742	keystroke_Key.space	Key.space	n/a
496.756	0.06	993512	keystroke_l	l	n/a
496.8765	0.1195	993753	keystroke_a	a	n/a
496.9365	0.1195	993873	keystroke_s	s	n/a
497.176	0.075	994352	keystroke_t	t	n/a
497.236	0.12	994472	keystroke_i	i	n/a
497.311	0.09	994622	keystroke_n	n	n/a
497.386	0.09	994772	keystroke_g	g	n/a
497.521	0.0905	995042	keystroke_Key.space	Key.space	n/a
497.8515	0.09	995703	keystroke_p	p	n/a
498.1065	0.12	996213	keystroke_h	h	n/a
498.4065	0.09	996813	keystroke_o	o	n/a
498.5415	0.09	997083	keystroke_e	e	n/a
498.7965	0.045	997593	keystroke_s	s	n/a
499.471	0.0455	998942	keystroke_Key.backspace	Key.backspace	n/a
500.146	0.09	1000292	keystroke_n	n	n/a
500.281	0.09	1000562	keystroke_i	i	n/a
501.301	0.06	1002602	keystroke_x	x	n/a
501.526	0.09	1003052	keystroke_Key.space	Key.space	n/a
501.871	0.105	1003742	keystroke_s	s	n/a
502.096	0.075	1004192	keystroke_t	t	n/a
502.276	0.12	1004552	keystroke_a	a	n/a
502.351	0.105	1004702	keystroke_r	r	n/a
502.576	0.075	1005152	keystroke_t	t	n/a
502.696	0.105	1005392	keystroke_i	i	n/a
502.771	0.105	1005542	keystroke_n	n	n/a
502.816	0.12	1005632	keystroke_g	g	n/a
503.386	0.06	1006772	keystroke_Key.enter	Key.enter	n/a
503.4595	11.831	1006919	prompt	n/a	investment adware anonymous focusing\n
504.121	0.105	1008242	keystroke_i	i	n/a
504.241	0.105	1008482	keystroke_n	n	n/a
504.421	0.105	1008842	keystroke_v	v	n/a
504.586	0.09	1009172	keystroke_e	e	n/a
504.781	0.09	1009562	keystroke_s	s	n/a
504.991	0.075	1009982	keystroke_t	t	n/a
505.307	0.09	1010614	keystroke_m	m	n/a
505.411	0.09	1010822	keystroke_e	e	n/a
505.546	0.091	1011092	keystroke_n	n	n/a
505.666	0.075	1011332	keystroke_t	t	n/a
505.786	0.105	1011572	keystroke_Key.space	Key.space	n/a
506.116	0.06	1012232	keystroke_a	a	n/a
506.881	0.076	1013762	keystroke_d	d	n/a
507.121	0.151	1014242	keystroke_w	w	n/a
507.241	0.106	1014482	keystroke_a	a	n/a
507.481	0.135	1014962	keystroke_r	r	n/a
507.571	0.12	1015142	keystroke_e	e	n/a
508.3965	0.105	1016793	keystroke_Key.space	Key.space	n/a
508.7265	0.09	1017453	keystroke_a	a	n/a
508.8315	0.075	1017663	keystroke_n	n	n/a
508.9965	0.06	1017993	keystroke_a	a	n/a
510.2265	0.075	1020453	keystroke_Key.backspace	Key.backspace	n/a
510.5115	0.075	1021023	keystroke_o	o	n/a
510.7665	0.09	1021533	keystroke_n	n	n/a
511.3965	0.0595	1022793	keystroke_y	y	n/a
511.652	0.089	1023304	keystroke_m	m	n/a
511.847	0.134	1023694	keystroke_o	o	n/a
512.041	0.12	1024082	keystroke_u	u	n/a
512.206	0.0905	1024412	keystroke_s	s	n/a
513.0015	0.015	1026003	keystroke_Key.space	Key.space	n/a
513.5115	0.06	1027023	keystroke_f	f	n/a
513.6315	0.1195	1027263	keystroke_o	o	n/a
513.856	0.06	1027712	keystroke_c	c	n/a
513.976	0.075	1027952	keystroke_u	u	n/a
514.111	0.075	1028222	keystroke_s	s	n/a
514.651	0.075	1029302	keystroke_i	i	n/a
514.741	0.06	1029482	keystroke_n	n	n/a
514.921	0.06	1029842	keystroke_g	g	n/a
515.221	0.06	1030442	keystroke_Key.enter	Key.enter	n/a
515.2965	11.514	1030593	prompt	n/a	benchmark doctor provision sensitivity\n
516.016	0.06	1032032	keystroke_e	e	n/a
516.331	0.075	1032662	keystroke_Key.backspace	Key.backspace	n/a
516.8865	0.075	1033773	keystroke_b	b	n/a
517.0065	0.075	1034013	keystroke_e	e	n/a
517.1115	0.105	1034223	keystroke_n	n	n/a
517.2315	0.1045	1034463	keystroke_c	c	n/a
517.381	0.105	1034762	keystroke_h	h	n/a
517.726	0.105	1035452	keystroke_m	m	n/a
517.861	0.09	1035722	keystroke_a	a	n/a
518.071	0.09	1036142	keystroke_e	e	n/a
518.641	0.045	1037282	keystroke_Key.backspace	Key.backspace	n/a
518.701	0.075	1037402	keystroke_r	r	n/a
518.806	0.09	1037612	keystroke_k	k	n/a
519.361	0.09	1038722	keystroke_Key.space	Key.space	n/a
519.961	0.0755	1039922	keystroke_d	d	n/a
520.051	0.09	1040102	keystroke_o	o	n/a
520.156	0.12	1040312	keystroke_c	c	n/a
520.426	0.06	1040852	keystroke_t	t	n/a
520.531	0.09	1041062	keystroke_o	o	n/a
520.636	0.09	1041272	keystroke_r	r	n/a
521.0115	0.075	1042023	keystroke_Key.space	Key.space	n/a
521.2065	0.075	1042413	keystroke_p	p	n/a
521.3265	0.09	1042653	keystroke_r	r	n/a
521.4465	0.09	1042893	keystroke_o	o	n/a
521.6715	0.06	1043343	keystroke_v	v	n/a
521.8065	0.09	1043613	keystroke_i	i	n/a
521.9865	0.06	1043973	keystroke_s	s	n/a
522.1065	0.21	1044213	keystroke_i	i	n/a
522.1965	0.135	1044393	keystroke_o	o	n/a
522.3015	0.105	1044603	keystroke_n	n	n/a
522.6915	0.105	1045383	keystroke_Key.space	Key.space	n/a
523.036	0.075	1046072	keystroke_s	s	n/a
523.216	0.09	1046432	keystroke_e	e	n/a
523.352	0.104	1046704	keystroke_n	n	n/a
523.711	0.105	1047422	keystroke_s	s	n/a
523.951	0.076	1047902	keystroke_i	i	n/a
524.146	0.075	1048292	keystroke_t	t	n/a
524.266	0.09	1048532	keystroke_i	i	n/a
524.731	0.075	1049462	keystroke_v	v	n/a
524.851	0.075	1049702	keystroke_i	i	n/a
524.986	0.06	1049972	keystroke_r	r	n/a
525.527	0.0745	1051054	keystroke_Key.backspace	Key.backspace	n/a
525.6165	0.075	1051233	keystroke_t	t	n/a
525.7665	0.09	1051533	keystroke_y	y	n/a
526.7265	0.075	1053453	keystroke_Key.enter	Key.enter	n/a
526.815	6.063	1053630	prompt	n/a	every char cuba storage\n
527.431	0.105	1054862	keystroke_e	e	n/a
527.851	0.135	1055702	keystroke_v	v	n/a
528.151	0.045	1056302	keystroke_e	e	n/a
528.166	0.09	1056332	keystroke_r	r	n/a
528.451	0.09	1056902	keystroke_y	y	n/a
528.661	0.105	1057322	keystroke_Key.space	Key.space	n/a
528.841	0.105	1057682	keystroke_c	c	n/a
529.036	0.09	1058072	keystroke_h	h	n/a
529.2165	0.18	1058433	keystroke_a	a	n/a
529.3815	0.12	1058763	keystroke_r	r	n/a
529.6215	0.09	1059243	keystroke_Key.space	Key.space	n/a
529.8915	0.09	1059783	keystroke_c	c	n/a
529.9965	0.09	1059993	keystroke_u	u	n/a
530.2065	0.105	1060413	keystroke_b	b	n/a
530.4315	0.105	1060863	keystroke_a	a	n/a
530.7015	0.075	1061403	keystroke_Key.space	Key.space	n/a
530.8665	0.09	1061733	keystroke_s	s	n/a
531.0915	0.075	1062183	keystroke_t	t	n/a
531.2565	0.045	1062513	keystroke_o	o	n/a
531.3465	0.06	1062693	keystroke_r	r	n/a
531.9165	0.075	1063833	keystroke_a	a	n/a
532.0965	0.075	1064193	keystroke_g	g	n/a
532.1265	0.12	1064253	keystroke_e	e	n/a
532.7865	0.09	1065573	keystroke_Key.enter	Key.enter	n/a
532.881	15.17	1065762	prompt	n/a	prospect experience install structural\n
535.354	0.013	1070708	keystroke_p	p	n/a
535.457	0.075	1070914	keystroke_r	r	n/a
535.607	0.075	1071214	keystroke_o	o	n/a
535.787	0.075	1071574	keystroke_s	s	n/a
536.477	0.105	1072954	keystroke_p	p	n/a
536.597	0.075	1073194	keystroke_e	e	n/a
536.747	0.105	1073494	keystroke_c	c	n/a
537.017	0.06	1074034	keystroke_y	y	n/a
537.122	0.135	1074244	keystroke_Key.space	Key.space	n/a
537.722	0.06	1075444	keystroke_Key.backspace	Key.backspace	n/a
537.887	0.075	1075774	keystroke_Key.backspace	Key.backspace	n/a
538.007	0.075	1076014	keystroke_y	y	n/a
538.187	0.0895	1076374	keystroke_Key.space	Key.space	n/a
538.6215	0.06	1077243	keystroke_Key.backspace	Key.backspace	n/a
538.8165	0.0745	1077633	keystroke_Key.backspace	Key.backspace	n/a
539.162	0.059	1078324	keystroke_t	t	n/a
539.866	0.105	1079732	keystroke_Key.space	Key.space	n/a
540.301	0.075	1080602	keystroke_e	e	n/a
540.5415	0.075	1081083	keystroke_x	x	n/a
540.7215	0.09	1081443	keystroke_p	p	n/a
540.8865	0.12	1081773	keystroke_e	e	n/a
540.9615	0.105	1081923	keystroke_r	r	n/a
541.1415	0.075	1082283	keystroke_i	i	n/a
541.2465	0.09	1082493	keystroke_e	e	n/a
541.3965	0.09	1082793	keystroke_n	n	n/a
541.5165	0.1205	1083033	keystroke_c	c	n/a
541.5765	0.1205	1083153	keystroke_e	e	n/a
543.5415	0.09	1087083	keystroke_Key.space	Key.space	n/a
543.7215	0.12	1087443	keystroke_i	i	n/a
543.8115	0.12	1087623	keystroke_n	n	n/a
543.9765	0.105	1087953	keystroke_s	s	n/a
544.1865	0.075	1088373	keystroke_t	t	n/a
544.3515	0.105	1088703	keystroke_a	a	n/a
544.5015	0.06	1089003	keystroke_l	l	n/a
544.6965	0.12	1089393	keystroke_l	l	n/a
544.8315	0.105	1089663	keystroke_Key.space	Key.space	n/a
545.5815	0.075	1091163	keystroke_s	s	n/a
545.8065	0.075	1091613	keystroke_t	t	n/a
545.9865	0.09	1091973	keystroke_r	r	n/a
546.1215	0.075	1092243	keystroke_u	u	n/a
546.2265	0.12	1092453	keystroke_c	c	n/a
546.5715	0.075	1093143	keystroke_t	t	n/a
546.7365	0.09	1093473	keystroke_u	u	n/a
547.3665	0.105	1094733	keystroke_r	r	n/a
547.4265	0.075	1094853	keystroke_a	a	n/a
547.5165	0.09	1095033	keystroke_l	l	n/a
547.9815	0.06	1095963	keystroke_Key.enter	Key.enter	n/a
548.055	11.486	1096110	prompt	n/a	my enormous investor reveals\n
548.732	0.075	1097464	keystroke_m	m	n/a
548.987	0.105	1097974	keystroke_y	y	n/a
549.062	0.135	1098124	keystroke_Key.space	Key.space	n/a
549.572	0.09	1099144	keystroke_e	e	n/a
549.692	0.12	1099384	keystroke_n	n	n/a
549.827	0.15	1099654	keystroke_o	o	n/a
549.932	0.105	1099864	keystroke_u	u	n/a
550.0665	0.075	1100133	keystroke_r	r	n/a
550.3215	0.105	1100643	keystroke_m	m	n/a
550.4115	0.165	1100823	keystroke_o	o	n/a
550.5465	0.105	1101093	keystroke_u	u	n/a
550.697	0.09	1101394	keystroke_s	s	n/a
550.862	0.105	1101724	keystroke_Key.space	Key.space	n/a
551.207	0.15	1102414	keystroke_i	i	n/a
552.1365	0.075	1104273	keystroke_Key.backspace	Key.backspace	n/a
552.332	0.075	1104664	keystroke_Key.backspace	Key.backspace	n/a
552.527	0.06	1105054	keystroke_Key.backspace	Key.backspace	n/a
552.7065	0.0605	1105413	keystroke_Key.backspace	Key.backspace	n/a
552.887	0.06	1105774	keystroke_Key.backspace	Key.backspace	n/a
553.037	0.06	1106074	keystroke_Key.backspace	Key.backspace	n/a
553.202	0.075	1106404	keystroke_Key.backspace	Key.backspace	n/a
553.382	0.075	1106764	keystroke_Key.backspace	Key.backspace	n/a
553.937	0.075	1107874	keystroke_r	r	n/a
554.117	0.105	1108234	keystroke_m	m	n/a
554.237	0.18	1108474	keystroke_o	o	n/a
554.357	0.105	1108714	keystroke_u	u	n/a
554.477	0.06	1108954	keystroke_s	s	n/a
555.0615	0.105	1110123	keystroke_Key.space	Key.space	n/a
555.4215	0.1655	1110843	keystroke_i	i	n/a
555.5565	0.1205	1111113	keystroke_n	n	n/a
555.916	0.121	1111832	keystroke_v	v	n/a
556.097	0.089	1112194	keystroke_e	e	n/a
556.277	0.09	1112554	keystroke_s	s	n/a
556.501	0.075	1113002	keystroke_t	t	n/a
556.652	0.089	1113304	keystroke_o	o	n/a
556.742	0.09	1113484	keystroke_r	r	n/a
557.162	0.09	1114324	keystroke_Key.space	Key.space	n/a
557.672	0.1495	1115344	keystroke_r	r	n/a
557.7615	0.09	1115523	keystroke_e	e	n/a
558.1815	0.15	1116363	keystroke_v	v	n/a
558.3465	0.15	1116693	keystroke_e	e	n/a
558.4665	0.15	1116933	keystroke_a	a	n/a
558.7365	0.09	1117473	keystroke_l	l	n/a
558.8415	0.09	1117683	keystroke_s	s	n/a
559.4565	0.075	1118913	keystroke_Key.enter	Key.enter	n/a
559.5455	9.0555	1119091	prompt	n/a	boring sword grateful quebec\n
560.222	0.105	1120444	keystroke_b	b	n/a
560.342	0.105	1120684	keystroke_o	o	n/a
560.417	0.105	1120834	keystroke_r	r	n/a
560.567	0.135	1121134	keystroke_i	i	n/a
560.687	0.06	1121374	keystroke_n	n	n/a
560.777	0.105	1121554	keystroke_g	g	n/a
560.897	0.105	1121794	keystroke_Key.space	Key.space	n/a
561.062	0.09	1122124	keystroke_s	s	n/a
561.302	0.075	1122604	keystroke_w	w	n/a
561.452	0.075	1122904	keystroke_o	o	n/a
561.602	0.09	1123204	keystroke_r	r	n/a
561.827	0.12	1123654	keystroke_d	d	n/a
562.037	0.105	1124074	keystroke_Key.space	Key.space	n/a
562.472	0.135	1124944	keystroke_f	f	n/a
562.772	0.12	1125544	keystroke_r	r	n/a
563.147	0.045	1126294	keystroke_Key.backspace	Key.backspace	n/a
563.267	0.075	1126534	keystroke_Key.backspace	Key.backspace	n/a
563.357	0.075	1126714	keystroke_g	g	n/a
563.552	0.105	1127104	keystroke_r	r	n/a
563.747	0.105	1127494	keystroke_a	a	n/a
563.942	0.105	1127884	keystroke_t	t	n/a
564.047	0.12	1128094	keystroke_e	e	n/a
564.542	0.09	1129084	keystroke_f	f	n/a
565.142	0.09	1130284	keystroke_u	u	n/a
565.367	0.09	1130734	keystroke_l	l	n/a
565.592	0.105	1131184	keystroke_Key.space	Key.space	n/a
566.447	0.09	1132894	keystroke_q	q	n/a
566.582	0.09	1133164	keystroke_u	u	n/a
566.762	0.09	1133524	keystroke_e	e	n/a
566.972	0.09	1133944	keystroke_b	b	n/a
567.0925	0.06	1134185	keystroke_e	e	n/a
567.2725	0.104	1134545	keystroke_c	c	n/a
568.517	0.075	1137034	keystroke_Key.enter	Key.enter	n/a
568.606	11.155	1137212	prompt	n/a	resorts sara classroom venezuela\n
569.6265	0.135	1139253	keystroke_r	r	n/a
569.7015	0.105	1139403	keystroke_e	e	n/a
569.8965	0.12	1139793	keystroke_s	s	n/a
569.9715	0.105	1139943	keystroke_o	o	n/a
570.1515	0.09	1140303	keystroke_r	r	n/a
570.3315	0.09	1140663	keystroke_t	t	n/a
570.5715	0.12	1141143	keystroke_s	s	n/a
570.7365	0.105	1141473	keystroke_Key.space	Key.space	n/a
570.9315	0.165	1141863	keystroke_s	s	n/a
571.0665	0.15	1142133	keystroke_a	a	n/a
571.1715	0.18	1142343	keystroke_r	r	n/a
571.3075	0.119	1142615	keystroke_a	a	n/a
571.4415	0.105	1142883	keystroke_Key.space	Key.space	n/a
571.862	0.105	1143724	keystroke_c	c	n/a
571.997	0.09	1143994	keystroke_l	l	n/a
572.132	0.12	1144264	keystroke_a	a	n/a
572.207	0.09	1144414	keystroke_s	s	n/a
572.387	0.09	1144774	keystroke_s	s	n/a
572.942	0.1045	1145884	keystroke_r	r	n/a
573.0615	0.06	1146123	keystroke_o	o	n/a
573.227	0.15	1146454	keystroke_o	o	n/a
573.302	0.15	1146604	keystroke_m	m	n/a
573.422	0.105	1146844	keystroke_Key.space	Key.space	n/a
574.472	0.135	1148944	keystroke_v	v	n/a
574.562	0.12	1149124	keystroke_e	e	n/a
574.742	0.12	1149484	keystroke_n	n	n/a
575.3725	0.104	1150745	keystroke_e	e	n/a
576.1525	0.0745	1152305	keystroke_z	z	n/a
576.407	0.0745	1152814	keystroke_u	u	n/a
576.8725	0.105	1153745	keystroke_e	e	n/a
577.0075	0.075	1154015	keystroke_l	l	n/a
577.0975	0.09	1154195	keystroke_a	a	n/a
579.7395	0.012	1159479	keystroke_Key.enter	Key.enter	n/a
579.7655	9.9555	1159531	prompt	n/a	riverside joint controversy junction\n
580.7265	0.075	1161453	keystroke_r	r	n/a
580.8615	0.075	1161723	keystroke_i	i	n/a
581.027	0.135	1162054	keystroke_v	v	n/a
581.132	0.18	1162264	keystroke_e	e	n/a
581.267	0.105	1162534	keystroke_r	r	n/a
581.6265	0.09	1163253	keystroke_s	s	n/a
581.7315	0.075	1163463	keystroke_i	i	n/a
581.8215	0.15	1163643	keystroke_d	d	n/a
581.9415	0.105	1163883	keystroke_e	e	n/a
583.022	0.105	1166044	keystroke_Key.space	Key.space	n/a
583.952	0.105	1167904	keystroke_j	j	n/a
584.072	0.18	1168144	keystroke_o	o	n/a
584.117	0.18	1168234	keystroke_i	i	n/a
584.2375	0.1495	1168475	keystroke_n	n	n/a
584.447	0.12	1168894	keystroke_t	t	n/a
584.597	0.1045	1169194	keystroke_Key.space	Key.space	n/a
584.882	0.105	1169764	keystroke_c	c	n/a
584.957	0.15	1169914	keystroke_o	o	n/a
585.047	0.12	1170094	keystroke_n	n	n/a
585.197	0.09	1170394	keystroke_t	t	n/a
585.377	0.09	1170754	keystroke_r	r	n/a
585.497	0.09	1170994	keystroke_o	o	n/a
585.7065	0.12	1171413	keystroke_v	v	n/a
585.8565	0.15	1171713	keystroke_e	e	n/a
585.9915	0.045	1171983	keystroke_r	r	n/a
586.4715	0.075	1172943	keystroke_s	s	n/a
586.6065	0.135	1173213	keystroke_y	y	n/a
587.177	0.09	1174354	keystroke_Key.space	Key.space	n/a
587.837	0.075	1175674	keystroke_j	j	n/a
587.972	0.075	1175944	keystroke_u	u	n/a
588.137	0.105	1176274	keystroke_n	n	n/a
588.947	0.09	1177894	keystroke_c	c	n/a
589.172	0.09	1178344	keystroke_t	t	n/a
589.232	0.225	1178464	keystroke_i	i	n/a
589.322	0.1645	1178644	keystroke_o	o	n/a
589.427	0.1345	1178854	keystroke_n	n	n/a
589.6215	0.09	1179243	keystroke_Key.enter	Key.enter	n/a
589.7255	8.5905	1179451	prompt	n/a	ownership cult vaccine she\n
590.3115	0.09	1180623	keystroke_o	o	n/a
590.6565	0.12	1181313	keystroke_w	w	n/a
590.7315	0.12	1181463	keystroke_e	e	n/a
590.8965	0.105	1181793	keystroke_n	n	n/a
591.2415	0.12	1182483	keystroke_e	e	n/a
591.3165	0.12	1182633	keystroke_r	r	n/a
591.9315	0.045	1183863	keystroke_Key.backspace	Key.backspace	n/a
592.0665	0.075	1184133	keystroke_Key.backspace	Key.backspace	n/a
592.2015	0.06	1184403	keystroke_Key.backspace	Key.backspace	n/a
592.3365	0.06	1184673	keystroke_Key.backspace	Key.backspace	n/a
592.5315	0.09	1185063	keystroke_n	n	n/a
592.6225	0.104	1185245	keystroke_e	e	n/a
592.6815	0.105	1185363	keystroke_r	r	n/a
592.9215	0.12	1185843	keystroke_s	s	n/a
593.0265	0.15	1186053	keystroke_h	h	n/a
593.1315	0.105	1186263	keystroke_i	i	n/a
593.3265	0.105	1186653	keystroke_p	p	n/a
594.062	0.105	1188124	keystroke_Key.space	Key.space	n/a
594.212	0.105	1188424	keystroke_c	c	n/a
594.317	0.06	1188634	keystroke_u	u	n/a
594.482	0.105	1188964	keystroke_l	l	n/a
594.737	0.09	1189474	keystroke_t	t	n/a
594.9015	0.105	1189803	keystroke_Key.space	Key.space	n/a
595.2015	0.135	1190403	keystroke_c	c	n/a
595.3215	0.1055	1190643	keystroke_a	a	n/a
595.711	0.06	1191422	keystroke_Key.backspace	Key.backspace	n/a
595.846	0.075	1191692	keystroke_Key.backspace	Key.backspace	n/a
595.907	0.104	1191814	keystroke_v	v	n/a
595.996	0.165	1191992	keystroke_a	a	n/a
596.131	0.105	1192262	keystroke_c	c	n/a
596.341	0.09	1192682	keystroke_c	c	n/a
596.536	0.045	1193072	keystroke_i	i	n/a
597.271	0.105	1194542	keystroke_n	n	n/a
597.406	0.09	1194812	keystroke_e	e	n/a
597.766	0.075	1195532	keystroke_Key.space	Key.space	n/a
597.871	0.076	1195742	keystroke_s	s	n/a
597.976	0.09	1195952	keystroke_h	h	n/a
598.051	0.09	1196102	keystroke_e	e	n/a
598.231	0.075	1196462	keystroke_Key.enter	Key.enter	n/a
598.32	11.591	1196640	prompt	n/a	contrast michelle profiles implementing\n
599.026	0.105	1198052	keystroke_c	c	n/a
599.641	0.135	1199282	keystroke_o	o	n/a
599.761	0.12	1199522	keystroke_n	n	n/a
600.046	0.015	1200092	keystroke_t	t	n/a
600.121	0.09	1200242	keystroke_r	r	n/a
600.271	0.166	1200542	keystroke_a	a	n/a
600.361	0.121	1200722	keystroke_s	s	n/a
600.602	0.075	1201204	keystroke_t	t	n/a
600.707	0.105	1201414	keystroke_Key.space	Key.space	n/a
600.932	0.075	1201864	keystroke_m	m	n/a
601.067	0.09	1202134	keystroke_i	i	n/a
601.172	0.09	1202344	keystroke_c	c	n/a
601.292	0.09	1202584	keystroke_h	h	n/a
601.442	0.075	1202884	keystroke_e	e	n/a
601.6365	0.06	1203273	keystroke_l	l	n/a
601.7865	0.075	1203573	keystroke_l	l	n/a
601.9065	0.09	1203813	keystroke_e	e	n/a
602.0865	0.09	1204173	keystroke_Key.space	Key.space	n/a
602.9565	0.075	1205913	keystroke_p	p	n/a
603.0615	0.075	1206123	keystroke_r	r	n/a
603.1665	0.06	1206333	keystroke_o	o	n/a
604.547	0.0745	1209094	keystroke_g	g	n/a
604.8915	0.075	1209783	keystroke_Key.backspace	Key.backspace	n/a
605.0415	0.075	1210083	keystroke_f	f	n/a
605.177	0.09	1210354	keystroke_i	i	n/a
605.327	0.12	1210654	keystroke_l	l	n/a
605.402	0.09	1210804	keystroke_e	e	n/a
605.597	0.075	1211194	keystroke_s	s	n/a
605.776	0.106	1211552	keystroke_Key.space	Key.space	n/a
606.992	0.09	1213984	keystroke_i	i	n/a
607.127	0.09	1214254	keystroke_m	m	n/a
607.292	0.12	1214584	keystroke_p	p	n/a
607.352	0.15	1214704	keystroke_l	l	n/a
607.937	0.075	1215874	keystroke_e	e	n/a
608.207	0.105	1216414	keystroke_m	m	n/a
608.297	0.075	1216594	keystroke_e	e	n/a
608.432	0.075	1216864	keystroke_n	n	n/a
608.507	0.075	1217014	keystroke_t	t	n/a
608.822	0.15	1217644	keystroke_i	i	n/a
608.927	0.105	1217854	keystroke_n	n	n/a
609.017	0.09	1218034	keystroke_g	g	n/a
609.812	0.09	1219624	keystroke_Key.enter	Key.enter	n/a
609.9155	12.775	1219831	prompt	n/a	empire grow intellectual jenny\n
610.8165	0.075	1221633	keystroke_e	e	n/a
610.9065	0.09	1221813	keystroke_m	m	n/a
611.0415	0.075	1222083	keystroke_p	p	n/a
611.1315	0.12	1222263	keystroke_r	r	n/a
611.2065	0.121	1222413	keystroke_e	e	n/a
611.3415	0.135	1222683	keystroke_Key.space	Key.space	n/a
611.7015	0.075	1223403	keystroke_g	g	n/a
611.8815	0.09	1223763	keystroke_r	r	n/a
611.9865	0.105	1223973	keystroke_o	o	n/a
612.1365	0.075	1224273	keystroke_w	w	n/a
612.2865	0.105	1224573	keystroke_Key.space	Key.space	n/a
612.5115	0.15	1225023	keystroke_i	i	n/a
612.6315	0.12	1225263	keystroke_n	n	n/a
613.3815	0.045	1226763	keystroke_Key.backspace	Key.backspace	n/a
613.5315	0.045	1227063	keystroke_Key.backspace	Key.backspace	n/a
613.6515	0.075	1227303	keystroke_Key.backspace	Key.backspace	n/a
613.8165	0.045	1227633	keystroke_Key.backspace	Key.backspace	n/a
613.9515	0.075	1227903	keystroke_Key.backspace	Key.backspace	n/a
614.1015	0.06	1228203	keystroke_Key.backspace	Key.backspace	n/a
614.2665	0.06	1228533	keystroke_Key.backspace	Key.backspace	n/a
614.4015	0.075	1228803	keystroke_Key.backspace	Key.backspace	n/a
614.5665	0.06	1229133	keystroke_Key.backspace	Key.backspace	n/a
614.7915	0.075	1229583	keystroke_Key.backspace	Key.backspace	n/a
615.752	0.075	1231504	keystroke_i	i	n/a
615.842	0.12	1231684	keystroke_r	r	n/a
615.917	0.135	1231834	keystroke_e	e	n/a
616.712	0.12	1233424	keystroke_Key.space	Key.space	n/a
617.4165	0.09	1234833	keystroke_g	g	n/a
617.612	0.075	1235224	keystroke_r	r	n/a
617.777	0.06	1235554	keystroke_o	o	n/a
617.852	0.105	1235704	keystroke_w	w	n/a
617.987	0.09	1235974	keystroke_Key.space	Key.space	n/a
618.257	0.105	1236514	keystroke_i	i	n/a
618.332	0.09	1236664	keystroke_n	n	n/a
618.497	0.09	1236994	keystroke_t	t	n/a
618.602	0.105	1237204	keystroke_e	e	n/a
619.142	0.075	1238284	keystroke_l	l	n/a
619.307	0.075	1238614	keystroke_l	l	n/a
619.412	0.09	1238824	keystroke_e	e	n/a
619.517	0.1045	1239034	keystroke_c	c	n/a
619.7865	0.09	1239573	keystroke_t	t	n/a
619.9665	0.06	1239933	keystroke_u	u	n/a
620.1315	0.105	1240263	keystroke_a	a	n/a
620.2515	0.165	1240503	keystroke_l	l	n/a
620.3715	0.105	1240743	keystroke_Key.space	Key.space	n/a
621.0015	0.06	1242003	keystroke_j	j	n/a
621.1215	0.09	1242243	keystroke_e	e	n/a
621.2715	0.075	1242543	keystroke_n	n	n/a
621.4215	0.075	1242843	keystroke_n	n	n/a
621.6165	0.09	1243233	keystroke_y	y	n/a
622.6065	0.075	1245213	keystroke_Key.enter	Key.enter	n/a
622.6965	9.1745	1245393	prompt	n/a	median expenditure respected treasure\n
623.3115	0.105	1246623	keystroke_m	m	n/a
623.4175	0.089	1246835	keystroke_e	e	n/a
623.597	0.0745	1247194	keystroke_d	d	n/a
623.6865	0.075	1247373	keystroke_i	i	n/a
623.7625	0.104	1247525	keystroke_a	a	n/a
624.0615	0.105	1248123	keystroke_n	n	n/a
624.2715	0.075	1248543	keystroke_Key.space	Key.space	n/a
624.5715	0.09	1249143	keystroke_e	e	n/a
624.7965	0.105	1249593	keystroke_x	x	n/a
625.0815	0.075	1250163	keystroke_p	p	n/a
625.1865	0.09	1250373	keystroke_e	e	n/a
625.3365	0.105	1250673	keystroke_n	n	n/a
625.937	0.09	1251874	keystroke_d	d	n/a
626.087	0.09	1252174	keystroke_i	i	n/a
626.492	0.09	1252984	keystroke_t	t	n/a
626.627	0.09	1253254	keystroke_u	u	n/a
626.732	0.12	1253464	keystroke_r	r	n/a
626.807	0.12	1253614	keystroke_e	e	n/a
627.257	0.09	1254514	keystroke_Key.space	Key.space	n/a
627.467	0.105	1254934	keystroke_r	r	n/a
627.512	0.1055	1255024	keystroke_e	e	n/a
627.692	0.105	1255384	keystroke_s	s	n/a
627.812	0.075	1255624	keystroke_p	p	n/a
628.172	0.075	1256344	keystroke_e	e	n/a
628.352	0.09	1256704	keystroke_c	c	n/a
628.772	0.105	1257544	keystroke_t	t	n/a
628.982	0.105	1257964	keystroke_e	e	n/a
629.027	0.135	1258054	keystroke_d	d	n/a
629.177	0.12	1258354	keystroke_Key.space	Key.space	n/a
629.342	0.105	1258684	keystroke_t	t	n/a
629.507	0.1505	1259014	keystroke_r	r	n/a
629.6115	0.18	1259223	keystroke_e	e	n/a
629.7315	0.105	1259463	keystroke_a	a	n/a
629.9715	0.075	1259943	keystroke_t	t	n/a
630.0915	0.09	1260183	keystroke_u	u	n/a
630.5715	0.03	1261143	keystroke_Key.backspace	Key.backspace	n/a
630.6915	0.06	1261383	keystroke_Key.backspace	Key.backspace	n/a
630.797	0.09	1261594	keystroke_s	s	n/a
630.917	0.075	1261834	keystroke_u	u	n/a
631.037	0.12	1262074	keystroke_r	r	n/a
631.112	0.09	1262224	keystroke_e	e	n/a
631.8465	0.015	1263693	keystroke_Key.enter	Key.enter	n/a
631.877	11.814	1263754	prompt	n/a	oregon kong runner logical\n
632.5065	0.075	1265013	keystroke_p	p	n/a
632.5965	0.105	1265193	keystroke_r	r	n/a
632.6865	0.105	1265373	keystroke_e	e	n/a
632.9715	0.06	1265943	keystroke_f	f	n/a
633.3015	0.06	1266603	keystroke_Key.backspace	Key.backspace	n/a
633.4365	0.06	1266873	keystroke_Key.backspace	Key.backspace	n/a
633.5715	0.075	1267143	keystroke_Key.backspace	Key.backspace	n/a
633.7215	0.075	1267443	keystroke_Key.backspace	Key.backspace	n/a
634.0065	0.075	1268013	keystroke_Key.backspace	Key.backspace	n/a
634.2765	0.075	1268553	keystroke_o	o	n/a
634.5465	0.105	1269093	keystroke_r	r	n/a
634.6665	0.105	1269333	keystroke_e	e	n/a
634.9665	0.075	1269933	keystroke_g	g	n/a
635.0565	0.15	1270113	keystroke_o	o	n/a
635.1615	0.15	1270323	keystroke_n	n	n/a
635.957	0.105	1271914	keystroke_Key.space	Key.space	n/a
636.122	0.09	1272244	keystroke_k	k	n/a
636.362	0.15	1272724	keystroke_o	o	n/a
636.467	0.105	1272934	keystroke_n	n	n/a
636.572	0.075	1273144	keystroke_g	g	n/a
636.7815	0.09	1273563	keystroke_Key.space	Key.space	n/a
637.1715	0.105	1274343	keystroke_r	r	n/a
637.3065	0.075	1274613	keystroke_u	u	n/a
637.5015	0.045	1275003	keystroke_n	n	n/a
637.6515	0.06	1275303	keystroke_n	n	n/a
637.7265	0.09	1275453	keystroke_e	e	n/a
637.7715	0.09	1275543	keystroke_r	r	n/a
638.3115	0.075	1276623	keystroke_Key.space	Key.space	n/a
638.5815	0.075	1277163	keystroke_l	l	n/a
638.777	0.075	1277554	keystroke_o	o	n/a
639.557	0.075	1279114	keystroke_g	g	n/a
639.692	0.06	1279384	keystroke_i	i	n/a
639.827	0.09	1279654	keystroke_c	c	n/a
639.887	0.1205	1279774	keystroke_a	a	n/a
639.9915	0.091	1279983	keystroke_l	l	n/a
643.6695	0.012	1287339	keystroke_Key.enter	Key.enter	n/a
643.695	16.5565	1287390	prompt	n/a	guestbook olympics mechanisms branch\n
645.1815	0.09	1290363	keystroke_g	g	n/a
645.3465	0.106	1290693	keystroke_u	u	n/a
645.5275	0.09	1291055	keystroke_e	e	n/a
645.7225	0.09	1291445	keystroke_s	s	n/a
645.9625	0.075	1291925	keystroke_t	t	n/a
646.1575	0.03	1292315	keystroke_b	b	n/a
646.3075	0.075	1292615	keystroke_o	o	n/a
646.4875	0.119	1292975	keystroke_o	o	n/a
646.5475	0.135	1293095	keystroke_k	k	n/a
647.042	0.09	1294084	keystroke_Key.space	Key.space	n/a
647.297	0.105	1294594	keystroke_o	o	n/a
647.552	0.09	1295104	keystroke_p	p	n/a
648.4215	0.09	1296843	keystroke_Key.backspace	Key.backspace	n/a
648.5715	0.0755	1297143	keystroke_Key.backspace	Key.backspace	n/a
649.2465	0.075	1298493	keystroke_o	o	n/a
649.5165	0.09	1299033	keystroke_l	l	n/a
649.8465	0.045	1299693	keystroke_y	y	n/a
650.0865	0.09	1300173	keystroke_m	m	n/a
650.3715	0.015	1300743	keystroke_p	p	n/a
650.4615	0.105	1300923	keystroke_i	i	n/a
650.6715	0.15	1301343	keystroke_c	c	n/a
650.7465	0.166	1301493	keystroke_s	s	n/a
651.2425	0.09	1302485	keystroke_Key.space	Key.space	n/a
651.5125	0.03	1303025	keystroke_m	m	n/a
651.5275	0.06	1303055	keystroke_e	e	n/a
651.6625	0.12	1303325	keystroke_c	c	n/a
651.8275	0.075	1303655	keystroke_h	h	n/a
651.9475	0.105	1303895	keystroke_a	a	n/a
656.765	0.012	1313530	keystroke_n	n	n/a
656.942	0.075	1313884	keystroke_i	i	n/a
657.047	0.09	1314094	keystroke_s	s	n/a
657.182	0.12	1314364	keystroke_m	m	n/a
657.8125	0.09	1315625	keystroke_s	s	n/a
658.1275	0.075	1316255	keystroke_Key.space	Key.space	n/a
658.5475	0.09	1317095	keystroke_b	b	n/a
658.6975	0.12	1317395	keystroke_r	r	n/a
658.7875	0.135	1317575	keystroke_a	a	n/a
658.9225	0.09	1317845	keystroke_n	n	n/a
659.0275	0.135	1318055	keystroke_c	c	n/a
659.6875	0.075	1319375	keystroke_h	h	n/a
660.1515	0.09	1320303	keystroke_Key.enter	Key.enter	n/a
660.256	13.3305	1320512	prompt	n/a	saver bracelets roommate role\n
661.172	0.15	1322344	keystroke_s	s	n/a
661.262	0.15	1322524	keystroke_a	a	n/a
661.487	0.1045	1322974	keystroke_v	v	n/a
661.547	0.12	1323094	keystroke_e	e	n/a
661.772	0.0905	1323544	keystroke_r	r	n/a
661.9975	0.075	1323995	keystroke_Key.space	Key.space	n/a
663.302	0.06	1326604	keystroke_b	b	n/a
663.467	0.135	1326934	keystroke_r	r	n/a
663.587	0.09	1327174	keystroke_a	a	n/a
663.737	0.15	1327474	keystroke_c	c	n/a
663.857	0.09	1327714	keystroke_e	e	n/a
663.992	0.105	1327984	keystroke_l	l	n/a
664.847	0.075	1329694	keystroke_Key.backspace	Key.backspace	n/a
665.042	0.075	1330084	keystroke_Key.backspace	Key.backspace	n/a
665.957	0.09	1331914	keystroke_e	e	n/a
