onset	duration	sample	value	key	prompt_text
6.1545	14.4475	12309	prompt	n/a	the quick brown fox jumps over a lazy dog\n
8.3765	0.043	16753	keystroke_t	t	n/a
8.3895	0.09	16779	keystroke_h	h	n/a
8.5545	0.075	17109	keystroke_e	e	n/a
8.5995	0.165	17199	keystroke_Key.space	Key.space	n/a
9.0045	0.21	18009	keystroke_q	q	n/a
9.1395	0.15	18279	keystroke_u	u	n/a
9.6195	0.12	19239	keystroke_i	i	n/a
9.6945	0.15	19389	keystroke_c	c	n/a
9.8455	0.149	19691	keystroke_k	k	n/a
10.2195	0.12	20439	keystroke_Key.space	Key.space	n/a
10.5795	0.12	21159	keystroke_b	b	n/a
10.7745	0.075	21549	keystroke_o	o	n/a
10.8195	0.12	21639	keystroke_r	r	n/a
11.0445	0.15	22089	keystroke_w	w	n/a
11.434	0.06	22868	keystroke_Key.backspace	Key.backspace	n/a
11.6295	0.045	23259	keystroke_Key.backspace	Key.backspace	n/a
11.7495	0.09	23499	keystroke_Key.backspace	Key.backspace	n/a
11.8245	0.135	23649	keystroke_r	r	n/a
12.0045	0.1345	24009	keystroke_o	o	n/a
12.0345	0.03	24069	keystroke_i	i	n/a
12.0945	0.1645	24189	keystroke_w	w	n/a
12.274	0.075	24548	keystroke_n	n	n/a
12.814	0.015	25628	keystroke_Key.backspace	Key.backspace	n/a
12.949	0.06	25898	keystroke_Key.backspace	Key.backspace	n/a
13.084	0.135	26168	keystroke_Key.backspace	Key.backspace	n/a
13.6845	0.135	27369	keystroke_w	w	n/a
13.8495	0.12	27699	keystroke_n	n	n/a
14.3745	0.15	28749	keystroke_Key.space	Key.space	n/a
14.5995	0.135	29199	keystroke_f	f	n/a
14.6895	0.135	29379	keystroke_o	o	n/a
14.8695	0.165	29739	keystroke_x	x	n/a
15.2595	0.165	30519	keystroke_Key.space	Key.space	n/a
15.5595	0.09	31119	keystroke_j	j	n/a
15.7245	0.09	31449	keystroke_u	u	n/a
15.9345	0.105	31869	keystroke_m	m	n/a
16.1145	0.135	32229	keystroke_p	p	n/a
16.2195	0.15	32439	keystroke_s	s	n/a
16.6095	0.12	33219	keystroke_Key.space	Key.space	n/a
16.7895	0.12	33579	keystroke_o	o	n/a
16.8795	0.09	33759	keystroke_v	v	n/a
17.0595	0.12	34119	keystroke_e	e	n/a
17.1195	0.135	34239	keystroke_r	r	n/a
17.2395	0.09	34479	keystroke_Key.space	Key.space	n/a
17.3745	0.1505	34749	keystroke_a	a	n/a
17.4945	0.105	34989	keystroke_Key.space	Key.space	n/a
17.72	0.15	35440	keystroke_l	l	n/a
18.08	0.15	36160	keystroke_z	z	n/a
18.4845	0.105	36969	keystroke_Key.backspace	Key.backspace	n/a
18.5745	0.1195	37149	keystroke_a	a	n/a
18.829	0.15	37658	keystroke_z	z	n/a
19.009	0.12	38018	keystroke_y	y	n/a
19.5495	0.12	39099	keystroke_Key.space	Key.space	n/a
19.6995	0.135	39399	keystroke_d	d	n/a
19.7895	0.12	39579	keystroke_o	o	n/a
19.9245	0.105	39849	keystroke_g	g	n/a
20.4645	0.135	40929	keystroke_Key.enter	Key.enter	n/a
20.606	10.1505	41212	prompt	n/a	assist instructor reserves hampton\n
21.4095	0.1345	42819	keystroke_a	a	n/a
21.634	0.09	43268	keystroke_s	s	n/a
21.814	0.166	43628	keystroke_s	s	n/a
22.6245	0.135	45249	keystroke_i	i	n/a
22.7745	0.135	45549	keystroke_s	s	n/a
23.0595	0.105	46119	keystroke_t	t	n/a
23.5695	0.135	47139	keystroke_Key.space	Key.space	n/a
24.035	0.165	48070	keystroke_i	i	n/a
24.11	0.15	48220	keystroke_n	n	n/a
24.29	0.135	48580	keystroke_s	s	n/a
24.545	0.045	49090	keystroke_t	t	n/a
24.71	0.09	49420	keystroke_r	r	n/a
24.815	0.105	49630	keystroke_u	u	n/a
24.95	0.12	49900	keystroke_c	c	n/a
25.25	0.105	50500	keystroke_t	t	n/a
25.37	0.135	50740	keystroke_o	o	n/a
25.445	0.12	50890	keystroke_r	r	n/a
26.135	0.12	52270	keystroke_Key.space	Key.space	n/a
26.345	0.195	52690	keystroke_r	r	n/a
26.45	0.135	52900	keystroke_e	e	n/a
26.7195	0.195	53439	keystroke_s	s	n/a
26.8395	0.165	53679	keystroke_e	e	n/a
26.9295	0.165	53859	keystroke_r	r	n/a
27.2595	0.105	54519	keystroke_v	v	n/a
27.4695	0.135	54939	keystroke_e	e	n/a
28.0995	0.105	56199	keystroke_s	s	n/a
28.4745	0.135	56949	keystroke_Key.space	Key.space	n/a
28.79	0.09	57580	keystroke_h	h	n/a
28.85	0.15	57700	keystroke_a	a	n/a
29.015	0.135	58030	keystroke_m	m	n/a
29.6745	0.15	59349	keystroke_p	p	n/a
29.9145	0.135	59829	keystroke_t	t	n/a
30.0645	0.195	60129	keystroke_o	o	n/a
30.1545	0.18	60309	keystroke_n	n	n/a
30.619	0.1355	61238	keystroke_Key.enter	Key.enter	n/a
30.759	6.3125	61518	prompt	n/a	asked relax allows honda\n
31.4445	0.1355	62889	keystroke_a	a	n/a
31.654	0.135	63308	keystroke_s	s	n/a
31.775	0.149	63550	keystroke_k	k	n/a
31.88	0.104	63760	keystroke_e	e	n/a
32.0745	0.1355	64149	keystroke_d	d	n/a
32.2395	0.12	64479	keystroke_Key.space	Key.space	n/a
32.525	0.1495	65050	keystroke_r	r	n/a
32.5845	0.135	65169	keystroke_e	e	n/a
32.7945	0.135	65589	keystroke_l	l	n/a
32.9145	0.165	65829	keystroke_a	a	n/a
33.4095	0.12	66819	keystroke_x	x	n/a
33.9795	0.1345	67959	keystroke_Key.space	Key.space	n/a
34.1595	0.15	68319	keystroke_a	a	n/a
34.3245	0.0895	68649	keystroke_l	l	n/a
34.5045	0.105	69009	keystroke_l	l	n/a
34.7145	0.1205	69429	keystroke_o	o	n/a
34.82	0.15	69640	keystroke_w	w	n/a
35.12	0.15	70240	keystroke_s	s	n/a
35.615	0.165	71230	keystroke_Key.space	Key.space	n/a
35.9	0.09	71800	keystroke_h	h	n/a
36.095	0.18	72190	keystroke_o	o	n/a
36.17	0.18	72340	keystroke_n	n	n/a
36.38	0.15	72760	keystroke_d	d	n/a
36.59	0.165	73180	keystroke_a	a	n/a
36.92	0.15	73840	keystroke_Key.enter	Key.enter	n/a
37.0745	12.147	74149	prompt	n/a	temporal scientist interstate retained\n
38.0295	0.015	76059	keystroke_t	t	n/a
38.1045	0.135	76209	keystroke_e	e	n/a
38.2545	0.105	76509	keystroke_m	m	n/a
38.4345	0.12	76869	keystroke_p	p	n/a
38.6745	0.12	77349	keystroke_o	o	n/a
38.8695	0.135	77739	keystroke_r	r	n/a
39.0645	0.165	78129	keystroke_a	a	n/a
39.2145	0.18	78429	keystroke_l	l	n/a
39.4395	0.15	78879	keystroke_Key.space	Key.space	n/a
39.7395	0.135	79479	keystroke_s	s	n/a
39.9645	0.12	79929	keystroke_c	c	n/a
40.1295	0.135	80259	keystroke_i	i	n/a
40.2945	0.135	80589	keystroke_e	e	n/a
40.3995	0.135	80799	keystroke_n	n	n/a
40.9095	0.12	81819	keystroke_t	t	n/a
41.0895	0.12	82179	keystroke_i	i	n/a
41.2995	0.2705	82599	keystroke_s	s	n/a
41.465	0.15	82930	keystroke_t	t	n/a
41.7645	0.15	83529	keystroke_Key.space	Key.space	n/a
42.0345	0.165	84069	keystroke_i	i	n/a
42.1095	0.15	84219	keystroke_n	n	n/a
42.2745	0.09	84549	keystroke_t	t	n/a
42.4245	0.15	84849	keystroke_e	e	n/a
42.5145	0.12	85029	keystroke_r	r	n/a
42.8145	0.135	85629	keystroke_s	s	n/a
43.01	0.105	86020	keystroke_t	t	n/a
43.16	0.195	86320	keystroke_a	a	n/a
43.28	0.1345	86560	keystroke_t	t	n/a
43.3995	0.135	86799	keystroke_e	e	n/a
44.015	0.09	88030	keystroke_Key.space	Key.space	n/a
44.21	0.075	88420	keystroke_t	t	n/a
44.66	0.12	89320	keystroke_Key.backspace	Key.backspace	n/a
44.795	0.165	89590	keystroke_r	r	n/a
44.885	0.165	89770	keystroke_e	e	n/a
45.155	0.12	90310	keystroke_t	t	n/a
45.4695	0.18	90939	keystroke_a	a	n/a
46.1745	0.12	92349	keystroke_Key.backspace	Key.backspace	n/a
46.3095	0.09	92619	keystroke_r	r	n/a
46.4445	0.15	92889	keystroke_a	a	n/a
46.9845	0.06	93969	keystroke_Key.backspace	Key.backspace	n/a
47.1495	0.12	94299	keystroke_Key.backspace	Key.backspace	n/a
47.84	0.165	95680	keystroke_a	a	n/a
48.035	0.165	96070	keystroke_i	i	n/a
48.11	0.165	96220	keystroke_n	n	n/a
48.305	0.1495	96610	keystroke_e	e	n/a
48.5295	0.15	97059	keystroke_d	d	n/a
49.07	0.15	98140	keystroke_Key.enter	Key.enter	n/a
49.2245	10.0315	98449	prompt	n/a	cooler aboriginal platform wedding\n
49.925	0.165	99850	keystroke_c	c	n/a
50.33	0.075	100660	keystroke_o	o	n/a
50.51	0.12	101020	keystroke_o	o	n/a
50.825	0.135	101650	keystroke_l	l	n/a
51.065	0.21	102130	keystroke_e	e	n/a
51.185	0.21	102370	keystroke_r	r	n/a
51.86	0.165	103720	keystroke_Key.space	Key.space	n/a
52.415	0.075	104830	keystroke_a	a	n/a
52.5495	0.1055	105099	keystroke_b	b	n/a
52.73	0.1495	105460	keystroke_o	o	n/a
52.8945	0.135	105789	keystroke_r	r	n/a
53.0445	0.15	106089	keystroke_i	i	n/a
53.2695	0.12	106539	keystroke_g	g	n/a
53.4045	0.135	106809	keystroke_i	i	n/a
54.5	0.1045	109000	keystroke_n	n	n/a
54.7095	0.15	109419	keystroke_a	a	n/a
54.8145	0.165	109629	keystroke_l	l	n/a
55.2045	0.1645	110409	keystroke_Key.space	Key.space	n/a
55.474	0.106	110948	keystroke_p	p	n/a
55.6845	0.1505	111369	keystroke_l	l	n/a
55.76	0.135	111520	keystroke_a	a	n/a
56.18	0.0445	112360	keystroke_t	t	n/a
56.3145	0.12	112629	keystroke_f	f	n/a
56.4495	0.105	112899	keystroke_o	o	n/a
56.5395	0.1355	113079	keystroke_r	r	n/a
56.66	0.15	113320	keystroke_m	m	n/a
57.245	0.105	114490	keystroke_Key.space	Key.space	n/a
57.4095	0.165	114819	keystroke_w	w	n/a
57.6045	0.1655	115209	keystroke_e	e	n/a
58.0245	0.105	116049	keystroke_d	d	n/a
58.2195	0.18	116439	keystroke_d	d	n/a
58.3695	0.165	116739	keystroke_i	i	n/a
58.4445	0.1645	116889	keystroke_n	n	n/a
58.5495	0.1195	117099	keystroke_g	g	n/a
59.1045	0.15	118209	keystroke_Key.enter	Key.enter	n/a
59.259	8.8325	118518	prompt	n/a	basement jack warren format\n
60.4095	0.12	120819	keystroke_b	b	n/a
60.5745	0.15	121149	keystroke_a	a	n/a
60.6795	0.195	121359	keystroke_s	s	n/a
60.7845	0.12	121569	keystroke_e	e	n/a
60.9795	0.18	121959	keystroke_d	d	n/a
61.7745	0.045	123549	keystroke_Key.backspace	Key.backspace	n/a
61.9245	0.135	123849	keystroke_m	m	n/a
62.0445	0.15	124089	keystroke_e	e	n/a
62.1795	0.1205	124359	keystroke_n	n	n/a
62.33	0.12	124660	keystroke_t	t	n/a
62.825	0.135	125650	keystroke_Key.space	Key.space	n/a
63.02	0.135	126040	keystroke_j	j	n/a
63.11	0.15	126220	keystroke_a	a	n/a
63.23	0.15	126460	keystroke_c	c	n/a
63.35	0.165	126700	keystroke_k	k	n/a
63.575	0.135	127150	keystroke_Key.space	Key.space	n/a
64.0695	0.1345	128139	keystroke_w	w	n/a
64.294	0.121	128588	keystroke_a	a	n/a
64.505	0.0595	129010	keystroke_r	r	n/a
64.6845	0.1345	129369	keystroke_r	r	n/a
64.834	0.15	129668	keystroke_e	e	n/a
64.969	0.135	129938	keystroke_n	n	n/a
65.464	0.166	130928	keystroke_Key.space	Key.space	n/a
65.705	0.12	131410	keystroke_f	f	n/a
65.825	0.135	131650	keystroke_o	o	n/a
65.9	0.12	131800	keystroke_r	r	n/a
66.1545	0.135	132309	keystroke_t	t	n/a
67.04	0.135	134080	keystroke_Key.backspace	Key.backspace	n/a
67.19	0.105	134380	keystroke_m	m	n/a
67.325	0.2395	134650	keystroke_a	a	n/a
67.43	0.1795	134860	keystroke_t	t	n/a
67.925	0.165	135850	keystroke_Key.enter	Key.enter	n/a
68.0955	17.3055	136191	prompt	n/a	dictionary tile overhead berkeley\n
69.035	0.135	138070	keystroke_d	d	n/a
69.2	0.12	138400	keystroke_i	i	n/a
69.275	0.12	138550	keystroke_c	c	n/a
69.545	0.09	139090	keystroke_t	t	n/a
69.62	0.18	139240	keystroke_i	i	n/a
69.77	0.21	139540	keystroke_o	o	n/a
69.86	0.195	139720	keystroke_n	n	n/a
70.3245	0.165	140649	keystroke_a	a	n/a
70.4745	0.165	140949	keystroke_r	r	n/a
70.6545	0.1355	141309	keystroke_y	y	n/a
70.925	0.135	141850	keystroke_Key.space	Key.space	n/a
71.18	0.12	142360	keystroke_t	t	n/a
71.285	0.135	142570	keystroke_i	i	n/a
71.45	0.075	142900	keystroke_t	t	n/a
71.54	0.165	143080	keystroke_l	l	n/a
71.66	0.135	143320	keystroke_e	e	n/a
72.2745	0.09	144549	keystroke_Key.backspace	Key.backspace	n/a
72.4695	0.075	144939	keystroke_Key.backspace	Key.backspace	n/a
72.6195	0.12	145239	keystroke_Key.backspace	Key.backspace	n/a
72.9495	0.135	145899	keystroke_l	l	n/a
73.0395	0.135	146079	keystroke_e	e	n/a
73.504	0.15	147008	keystroke_Key.space	Key.space	n/a
73.76	0.135	147520	keystroke_o	o	n/a
73.88	0.104	147760	keystroke_v	v	n/a
74.045	0.179	148090	keystroke_e	e	n/a
74.149	0.15	148298	keystroke_r	r	n/a
74.8245	0.105	149649	keystroke_h	h	n/a
74.8695	0.12	149739	keystroke_e	e	n/a
75.0645	0.15	150129	keystroke_a	a	n/a
75.1545	0.165	150309	keystroke_d	d	n/a
75.6945	0.135	151389	keystroke_Key.space	Key.space	n/a
76.0095	0.12	152019	keystroke_h	h	n/a
76.0845	0.165	152169	keystroke_e	e	n/a
76.2195	0.165	152439	keystroke_r	r	n/a
76.7295	0.09	153459	keystroke_Key.backspace	Key.backspace	n/a
76.8945	0.105	153789	keystroke_Key.backspace	Key.backspace	n/a
77.0745	0.12	154149	keystroke_Key.backspace	Key.backspace	n/a
77.8095	0.0905	155619	keystroke_b	b	n/a
77.8845	0.165	155769	keystroke_e	e	n/a
77.9595	0.135	155919	keystroke_r	r	n/a
78.5145	0.1505	157029	keystroke_k	k	n/a
78.65	0.1495	157300	keystroke_e	e	n/a
79.1295	0.1655	158259	keystroke_l	l	n/a
81.922	0.1025	163844	keystroke_e	e	n/a
81.979	0.18	163958	keystroke_y	y	n/a
85.297	0.102	170594	keystroke_Key.enter	Key.enter	n/a
85.406	12.88	170812	prompt	n/a	nepal christine stars checking\n
87.6665	0.043	175333	keystroke_n	n	n/a
87.6675	0.147	175335	keystroke_e	e	n/a
87.994	0.15	175988	keystroke_p	p	n/a
88.129	0.165	176258	keystroke_a	a	n/a
88.6395	0.135	177279	keystroke_l	l	n/a
89.0745	0.135	178149	keystroke_Key.space	Key.space	n/a
89.2845	0.1355	178569	keystroke_c	c	n/a
89.405	0.12	178810	keystroke_h	h	n/a
89.795	0.15	179590	keystroke_s	s	n/a
90.2	0.15	180400	keystroke_r	r	n/a
90.6195	0.06	181239	keystroke_Key.backspace	Key.backspace	n/a
90.7695	0.12	181539	keystroke_Key.backspace	Key.backspace	n/a
90.8445	0.15	181689	keystroke_r	r	n/a
91.0245	0.135	182049	keystroke_i	i	n/a
91.1295	0.135	182259	keystroke_s	s	n/a
91.3845	0.12	182769	keystroke_t	t	n/a
91.7295	0.18	183459	keystroke_i	i	n/a
91.8195	0.165	183639	keystroke_n	n	n/a
91.9695	0.1355	183939	keystroke_e	e	n/a
92.39	0.135	184780	keystroke_Key.space	Key.space	n/a
92.6	0.18	185200	keystroke_s	s	n/a
92.75	0.105	185500	keystroke_t	t	n/a
92.915	0.18	185830	keystroke_a	a	n/a
93.005	0.12	186010	keystroke_r	r	n/a
93.215	0.09	186430	keystroke_t	t	n/a
93.74	0.105	187480	keystroke_Key.backspace	Key.backspace	n/a
93.875	0.1645	187750	keystroke_s	s	n/a
94.4895	0.15	188979	keystroke_Key.space	Key.space	n/a
95.5845	0.12	191169	keystroke_s	s	n/a
95.9895	0.12	191979	keystroke_Key.backspace	Key.backspace	n/a
96.14	0.135	192280	keystroke_c	c	n/a
96.32	0.105	192640	keystroke_h	h	n/a
96.41	0.135	192820	keystroke_e	e	n/a
96.8	0.135	193600	keystroke_c	c	n/a
96.98	0.104	193960	keystroke_k	k	n/a
97.175	0.12	194350	keystroke_i	i	n/a
97.235	0.15	194470	keystroke_n	n	n/a
97.34	0.09	194680	keystroke_g	g	n/a
98.1045	0.18	196209	keystroke_Key.enter	Key.enter	n/a
98.289	12.462	196578	prompt	n/a	plan implications compounds hansen\n
99.154	0.09	198308	keystroke_p	p	n/a
99.364	0.105	198728	keystroke_l	l	n/a
99.4995	0.1655	198999	keystroke_a	a	n/a
99.619	0.105	199238	keystroke_n	n	n/a
100.13	0.135	200260	keystroke_Key.space	Key.space	n/a
100.37	0.12	200740	keystroke_i	i	n/a
100.609	0.106	201218	keystroke_m	m	n/a
100.834	0.12	201668	keystroke_p	p	n/a
101.06	0.074	202120	keystroke_l	l	n/a
101.209	0.135	202418	keystroke_i	i	n/a
101.314	0.1205	202628	keystroke_c	c	n/a
101.4195	0.12	202839	keystroke_a	a	n/a
101.6595	0.135	203319	keystroke_t	t	n/a
101.7495	0.165	203499	keystroke_i	i	n/a
101.8395	0.18	203679	keystroke_o	o	n/a
101.9295	0.165	203859	keystroke_n	n	n/a
102.0645	0.15	204129	keystroke_s	s	n/a
102.6495	0.15	205299	keystroke_Key.space	Key.space	n/a
102.8295	0.1805	205659	keystroke_c	c	n/a
102.9495	0.1205	205899	keystroke_o	o	n/a
103.175	0.135	206350	keystroke_m	m	n/a
103.475	0.105	206950	keystroke_p	p	n/a
103.715	0.135	207430	keystroke_o	o	n/a
103.97	0.105	207940	keystroke_n	n	n/a
104.9295	0.1045	209859	keystroke_Key.backspace	Key.backspace	n/a
106.3245	0.09	212649	keystroke_u	u	n/a
106.5345	0.135	213069	keystroke_n	n	n/a
106.8195	0.12	213639	keystroke_d	d	n/a
107.0595	0.15	214119	keystroke_s	s	n/a
107.63	0.15	215260	keystroke_Key.space	Key.space	n/a
108.395	0.09	216790	keystroke_h	h	n/a
108.47	0.045	216940	keystroke_a	a	n/a
108.5	0.045	217000	keystroke_n	n	n/a
108.53	0.18	217060	keystroke_d	d	n/a
109.1	0.105	218200	keystroke_Key.backspace	Key.backspace	n/a
109.6245	0.1805	219249	keystroke_s	s	n/a
109.7445	0.1505	219489	keystroke_e	e	n/a
110.149	0.015	220298	keystroke_n	n	n/a
110.599	0.15	221198	keystroke_Key.enter	Key.enter	n/a
110.7545	13.6015	221509	prompt	n/a	fish luck classifieds concentrations\n
111.7545	0.075	223509	keystroke_f	f	n/a
111.8145	0.105	223629	keystroke_i	i	n/a
111.9045	0.135	223809	keystroke_s	s	n/a
112.0095	0.12	224019	keystroke_h	h	n/a
112.2345	0.135	224469	keystroke_Key.space	Key.space	n/a
112.4595	0.12	224919	keystroke_l	l	n/a
112.6695	0.105	225339	keystroke_u	u	n/a
112.8045	0.1505	225609	keystroke_c	c	n/a
112.91	0.135	225820	keystroke_j	j	n/a
113.3895	0.12	226779	keystroke_Key.backspace	Key.backspace	n/a
113.6895	0.15	227379	keystroke_k	k	n/a
114.1395	0.165	228279	keystroke_Key.space	Key.space	n/a
114.5595	0.15	229119	keystroke_c	c	n/a
114.7695	0.15	229539	keystroke_l	l	n/a
115.0845	0.135	230169	keystroke_a	a	n/a
115.3695	0.1355	230739	keystroke_s	s	n/a
115.565	0.15	231130	keystroke_s	s	n/a
115.73	0.135	231460	keystroke_i	i	n/a
116.7195	0.15	233439	keystroke_f	f	n/a
116.9745	0.15	233949	keystroke_i	i	n/a
117.1095	0.12	234219	keystroke_e	e	n/a
117.3195	0.1205	234639	keystroke_d	d	n/a
117.635	0.15	235270	keystroke_s	s	n/a
119.8715	0.133	239743	keystroke_Key.space	Key.space	n/a
120.0645	0.135	240129	keystroke_c	c	n/a
120.1695	0.15	240339	keystroke_o	o	n/a
120.2745	0.12	240549	keystroke_n	n	n/a
120.5145	0.12	241029	keystroke_e	e	n/a
121.13	0.12	242260	keystroke_Key.backspace	Key.backspace	n/a
121.235	0.1645	242470	keystroke_c	c	n/a
121.355	0.1495	242710	keystroke_e	e	n/a
121.4895	0.135	242979	keystroke_n	n	n/a
121.6695	0.105	243339	keystroke_t	t	n/a
121.8945	0.12	243789	keystroke_r	r	n/a
122.1345	0.135	244269	keystroke_a	a	n/a
122.4645	0.135	244929	keystroke_t	t	n/a
122.5545	0.18	245109	keystroke_i	i	n/a
122.6595	0.21	245319	keystroke_o	o	n/a
122.7495	0.18	245499	keystroke_n	n	n/a
122.945	0.1645	245890	keystroke_s	s	n/a
124.1745	0.18	248349	keystroke_Key.enter	Key.enter	n/a
124.3585	14.6375	248717	prompt	n/a	contamination aquatic households median\n
125.3445	0.15	250689	keystroke_c	c	n/a
125.5095	0.15	251019	keystroke_o	o	n/a
125.5545	0.165	251109	keystroke_n	n	n/a
125.7345	0.12	251469	keystroke_t	t	n/a
126.0195	0.165	252039	keystroke_a	a	n/a
126.3945	0.18	252789	keystroke_i	i	n/a
126.4695	0.165	252939	keystroke_n	n	n/a
128.737	0.028	257474	keystroke_Key.backspace	Key.backspace	n/a
128.855	0.135	257710	keystroke_Key.backspace	Key.backspace	n/a
129.92	0.12	259840	keystroke_m	m	n/a
130.175	0.12	260350	keystroke_i	i	n/a
130.415	0.12	260830	keystroke_n	n	n/a
130.52	0.105	261040	keystroke_a	a	n/a
130.745	0.15	261490	keystroke_t	t	n/a
130.805	0.165	261610	keystroke_i	i	n/a
130.925	0.195	261850	keystroke_o	o	n/a
131.015	0.18	262030	keystroke_n	n	n/a
131.3	0.135	262600	keystroke_Key.space	Key.space	n/a
131.855	0.15	263710	keystroke_q	q	n/a
132.514	0.12	265028	keystroke_Key.backspace	Key.backspace	n/a
132.62	0.105	265240	keystroke_a	a	n/a
132.845	0.149	265690	keystroke_q	q	n/a
133.234	0.1505	266468	keystroke_u	u	n/a
133.4745	0.165	266949	keystroke_a	a	n/a
134.1345	0.105	268269	keystroke_t	t	n/a
134.2695	0.135	268539	keystroke_i	i	n/a
134.4345	0.165	268869	keystroke_c	c	n/a
134.6745	0.165	269349	keystroke_Key.space	Key.space	n/a
134.9595	0.12	269919	keystroke_h	h	n/a
135.1695	0.195	270339	keystroke_o	o	n/a
135.2445	0.1645	270489	keystroke_u	u	n/a
135.3645	0.1645	270729	keystroke_s	s	n/a
135.424	0.18	270848	keystroke_e	e	n/a
135.8	0.15	271600	keystroke_h	h	n/a
135.92	0.12	271840	keystroke_o	o	n/a
136.145	0.1045	272290	keystroke_l	l	n/a
136.2345	0.165	272469	keystroke_d	d	n/a
136.865	0.15	273730	keystroke_s	s	n/a
137.405	0.15	274810	keystroke_Key.space	Key.space	n/a
137.705	0.15	275410	keystroke_m	m	n/a
137.825	0.12	275650	keystroke_e	e	n/a
138.0645	0.135	276129	keystroke_d	d	n/a
138.2145	0.135	276429	keystroke_i	i	n/a
138.3805	0.1485	276761	keystroke_a	a	n/a
138.469	0.15	276938	keystroke_n	n	n/a
138.844	0.15	277688	keystroke_Key.enter	Key.enter	n/a
138.9985	6.8825	277997	prompt	n/a	dear kept brook draw\n
139.85	0.1195	279700	keystroke_d	d	n/a
140.075	0.1045	280150	keystroke_e	e	n/a
140.225	0.1945	280450	keystroke_a	a	n/a
140.2995	0.1655	280599	keystroke_r	r	n/a
140.555	0.1495	281110	keystroke_Key.space	Key.space	n/a
140.7945	0.18	281589	keystroke_k	k	n/a
140.8995	0.165	281799	keystroke_e	e	n/a
141.0945	0.1805	282189	keystroke_p	p	n/a
141.575	0.06	283150	keystroke_t	t	n/a
141.83	0.12	283660	keystroke_Key.space	Key.space	n/a
142.145	0.0895	284290	keystroke_b	b	n/a
142.3395	0.12	284679	keystroke_r	r	n/a
142.5045	0.045	285009	keystroke_o	o	n/a
142.6395	0.255	285279	keystroke_o	o	n/a
142.7745	0.2105	285549	keystroke_k	k	n/a
143.255	0.1495	286510	keystroke_Key.space	Key.space	n/a
143.4645	0.15	286929	keystroke_d	d	n/a
144.0945	0.135	288189	keystroke_r	r	n/a
144.799	0.15	289598	keystroke_a	a	n/a
145.024	0.135	290048	keystroke_w	w	n/a
145.714	0.1655	291428	keystroke_Key.enter	Key.enter	n/a
145.884	8.772	291768	prompt	n/a	creek queensland execute http\n
146.7495	0.105	293499	keystroke_c	c	n/a
146.9895	0.165	293979	keystroke_r	r	n/a
147.0645	0.15	294129	keystroke_e	e	n/a
147.3045	0.1495	294609	keystroke_e	e	n/a
147.484	0.18	294968	keystroke_k	k	n/a
148.099	0.165	296198	keystroke_Key.space	Key.space	n/a
148.339	0.165	296678	keystroke_q	q	n/a
148.519	0.1505	297038	keystroke_u	u	n/a
149.0745	0.12	298149	keystroke_e	e	n/a
149.2845	0.165	298569	keystroke_e	e	n/a
149.5095	0.15	299019	keystroke_n	n	n/a
149.885	0.15	299770	keystroke_s	s	n/a
150.14	0.12	300280	keystroke_l	l	n/a
150.23	0.135	300460	keystroke_a	a	n/a
150.35	0.135	300700	keystroke_n	n	n/a
150.455	0.1495	300910	keystroke_d	d	n/a
150.994	0.166	301988	keystroke_Key.space	Key.space	n/a
151.175	0.12	302350	keystroke_e	e	n/a
151.444	0.12	302888	keystroke_x	x	n/a
151.684	0.12	303368	keystroke_e	e	n/a
152.435	0.135	304870	keystroke_c	c	n/a
152.555	0.165	305110	keystroke_u	u	n/a
152.75	0.105	305500	keystroke_t	t	n/a
152.93	0.135	305860	keystroke_e	e	n/a
153.14	0.135	306280	keystroke_Key.space	Key.space	n/a
153.38	0.12	306760	keystroke_h	h	n/a
153.53	0.09	307060	keystroke_t	t	n/a
153.755	0.09	307510	keystroke_t	t	n/a
154.1	0.15	308200	keystroke_p	p	n/a
154.52	0.135	309040	keystroke_Key.enter	Key.enter	n/a
154.659	10.8875	309318	prompt	n/a	words posing groove float\n
155.569	0.121	311138	keystroke_o	o	n/a
155.6	0.135	311200	keystroke_w	w	n/a
156.2595	0.075	312519	keystroke_Key.backspace	Key.backspace	n/a
156.4245	0.105	312849	keystroke_Key.backspace	Key.backspace	n/a
156.5145	0.15	313029	keystroke_w	w	n/a
156.9945	0.15	313989	keystroke_o	o	n/a
157.0845	0.135	314169	keystroke_r	r	n/a
157.3395	0.135	314679	keystroke_d	d	n/a
157.835	0.15	315670	keystroke_s	s	n/a
158.165	0.135	316330	keystroke_Key.space	Key.space	n/a
158.39	0.1195	316780	keystroke_p	p	n/a
158.6445	0.12	317289	keystroke_o	o	n/a
158.7345	0.1655	317469	keystroke_s	s	n/a
158.915	0.165	317830	keystroke_i	i	n/a
159.02	0.135	318040	keystroke_n	n	n/a
159.14	0.12	318280	keystroke_g	g	n/a
159.4245	0.15	318849	keystroke_Key.space	Key.space	n/a
160.31	0.12	320620	keystroke_g	g	n/a
161.27	0.1345	322540	keystroke_r	r	n/a
161.4195	0.1505	322839	keystroke_o	o	n/a
161.885	0.135	323770	keystroke_o	o	n/a
162.005	0.135	324010	keystroke_v	v	n/a
162.245	0.12	324490	keystroke_e	e	n/a
162.545	0.15	325090	keystroke_Key.space	Key.space	n/a
162.71	0.135	325420	keystroke_f	f	n/a
162.8	0.1345	325600	keystroke_l	l	n/a
163.07	0.135	326140	keystroke_o	o	n/a
163.685	0.165	327370	keystroke_a	a	n/a
163.88	0.15	327760	keystroke_t	t	n/a
165.3795	0.165	330759	keystroke_Key.enter	Key.enter	n/a
165.55	9.821	331100	prompt	n/a	ciao penalty circuits southern\n
166.834	0.18	333668	keystroke_c	c	n/a
167.4495	0.165	334899	keystroke_i	i	n/a
168.124	0.1805	336248	keystroke_a	a	n/a
169.2195	0.12	338439	keystroke_o	o	n/a
169.46	0.135	338920	keystroke_Key.space	Key.space	n/a
169.67	0.15	339340	keystroke_p	p	n/a
170.2845	0.12	340569	keystroke_e	e	n/a
170.4645	0.1355	340929	keystroke_n	n	n/a
170.63	0.135	341260	keystroke_a	a	n/a
170.72	0.165	341440	keystroke_l	l	n/a
171.005	0.1495	342010	keystroke_t	t	n/a
171.1095	0.165	342219	keystroke_y	y	n/a
171.694	0.135	343388	keystroke_Key.space	Key.space	n/a
171.889	0.1655	343778	keystroke_c	c	n/a
172.084	0.1505	344168	keystroke_i	i	n/a
172.219	0.1205	344438	keystroke_r	r	n/a
172.505	0.135	345010	keystroke_c	c	n/a
172.655	0.15	345310	keystroke_u	u	n/a
172.79	0.165	345580	keystroke_i	i	n/a
172.895	0.105	345790	keystroke_t	t	n/a
173.12	0.135	346240	keystroke_s	s	n/a
173.315	0.15	346630	keystroke_Key.space	Key.space	n/a
173.585	0.15	347170	keystroke_s	s	n/a
173.645	0.195	347290	keystroke_o	o	n/a
173.72	0.135	347440	keystroke_u	u	n/a
173.87	0.09	347740	keystroke_t	t	n/a
173.975	0.1195	347950	keystroke_h	h	n/a
174.0795	0.15	348159	keystroke_e	e	n/a
174.1695	0.15	348339	keystroke_r	r	n/a
174.68	0.15	349360	keystroke_n	n	n/a
175.22	0.15	350440	keystroke_Key.enter	Key.enter	n/a
175.374	10.182	350748	prompt	n/a	drug altered chambers asking\n
176.36	0.105	352720	keystroke_d	d	n/a
176.765	0.105	353530	keystroke_r	r	n/a
176.915	0.1195	353830	keystroke_u	u	n/a
176.9895	0.12	353979	keystroke_g	g	n/a
177.7095	0.135	355419	keystroke_Key.space	Key.space	n/a
177.8895	0.1345	355779	keystroke_a	a	n/a
177.949	0.151	355898	keystroke_l	l	n/a
178.145	0.089	356290	keystroke_t	t	n/a
178.31	0.165	356620	keystroke_e	e	n/a
178.369	0.151	356738	keystroke_r	r	n/a
179.3445	0.15	358689	keystroke_e	e	n/a
179.5845	0.15	359169	keystroke_d	d	n/a
179.9295	0.15	359859	keystroke_Key.space	Key.space	n/a
180.1695	0.15	360339	keystroke_c	c	n/a
180.3345	0.105	360669	keystroke_h	h	n/a
180.4395	0.1645	360879	keystroke_a	a	n/a
180.5745	0.135	361149	keystroke_m	m	n/a
181.399	0.12	362798	keystroke_b	b	n/a
181.594	0.18	363188	keystroke_e	e	n/a
181.714	0.165	363428	keystroke_r	r	n/a
182.7945	0.18	365589	keystroke_s	s	n/a
183.589	0.15	367178	keystroke_Key.space	Key.space	n/a
183.724	0.12	367448	keystroke_a	a	n/a
183.919	0.15	367838	keystroke_s	s	n/a
184.054	0.135	368108	keystroke_k	k	n/a
184.309	0.15	368618	keystroke_i	i	n/a
184.37	0.15	368740	keystroke_n	n	n/a
184.504	0.12	369008	keystroke_g	g	n/a
185.374	0.18	370748	keystroke_Key.enter	Key.enter	n/a
185.5585	14.3525	371117	prompt	n/a	momentum notre mods creativity\n
187.3395	0.1355	374679	keystroke_m	m	n/a
187.655	0.1495	375310	keystroke_o	o	n/a
188.1045	0.1345	376209	keystroke_m	m	n/a
188.255	0.135	376510	keystroke_e	e	n/a
188.33	0.15	376660	keystroke_n	n	n/a
188.495	0.105	376990	keystroke_t	t	n/a
189.5895	0.12	379179	keystroke_u	u	n/a
190.0095	0.135	380019	keystroke_m	m	n/a
190.5945	0.135	381189	keystroke_Key.space	Key.space	n/a
190.8495	0.105	381699	keystroke_n	n	n/a
191.0445	0.15	382089	keystroke_o	o	n/a
191.3895	0.105	382779	keystroke_t	t	n/a
191.6	0.15	383200	keystroke_r	r	n/a
191.675	0.15	383350	keystroke_e	e	n/a
192.335	0.12	384670	keystroke_Key.space	Key.space	n/a
192.695	0.09	385390	keystroke_m	m	n/a
192.89	0.1345	385780	keystroke_o	o	n/a
192.9645	0.12	385929	keystroke_d	d	n/a
193.9245	0.15	387849	keystroke_s	s	n/a
194.4045	0.15	388809	keystroke_Key.space	Key.space	n/a
194.6445	0.105	389289	keystroke_c	c	n/a
194.8695	0.151	389739	keystroke_r	r	n/a
194.9445	0.165	389889	keystroke_e	e	n/a
195.1245	0.195	390249	keystroke_a	a	n/a
195.2745	0.1505	390549	keystroke_t	t	n/a
195.455	0.165	390910	keystroke_i	i	n/a
195.56	0.1195	391120	keystroke_v	v	n/a
195.7095	0.165	391419	keystroke_e	e	n/a
196.4745	0.135	392949	keystroke_Key.backspace	Key.backspace	n/a
197.5695	0.1355	395139	keystroke_i	i	n/a
197.795	0.12	395590	keystroke_t	t	n/a
197.885	0.15	395770	keystroke_y	y	n/a
199.7295	0.18	399459	keystroke_Key.enter	Key.enter	n/a
199.914	11.5925	399828	prompt	n/a	examination vermont assume pills\n
200.644	0.12	401288	keystroke_e	e	n/a
200.884	0.135	401768	keystroke_x	x	n/a
202.114	0.12	404228	keystroke_a	a	n/a
203.374	0.15	406748	keystroke_m	m	n/a
203.689	0.12	407378	keystroke_i	i	n/a
204.229	0.12	408458	keystroke_n	n	n/a
204.8295	0.105	409659	keystroke_a	a	n/a
205.1145	0.12	410229	keystroke_t	t	n/a
205.2195	0.1655	410439	keystroke_i	i	n/a
205.3545	0.1955	410709	keystroke_o	o	n/a
205.415	0.18	410830	keystroke_n	n	n/a
205.895	0.15	411790	keystroke_Key.space	Key.space	n/a
206.135	0.09	412270	keystroke_v	v	n/a
206.3	0.15	412600	keystroke_e	e	n/a
206.375	0.15	412750	keystroke_r	r	n/a
206.645	0.105	413290	keystroke_m	m	n/a
206.855	0.15	413710	keystroke_o	o	n/a
206.915	0.165	413830	keystroke_n	n	n/a
207.35	0.12	414700	keystroke_t	t	n/a
207.89	0.15	415780	keystroke_Key.space	Key.space	n/a
208.31	0.12	416620	keystroke_a	a	n/a
208.535	0.09	417070	keystroke_s	s	n/a
208.715	0.15	417430	keystroke_s	s	n/a
208.879	0.106	417758	keystroke_u	u	n/a
209.15	0.149	418300	keystroke_m	m	n/a
209.315	0.135	418630	keystroke_e	e	n/a
210.005	0.135	420010	keystroke_Key.space	Key.space	n/a
210.2	0.12	420400	keystroke_p	p	n/a
210.41	0.12	420820	keystroke_i	i	n/a
210.665	0.06	421330	keystroke_l	l	n/a
210.7995	0.15	421599	keystroke_l	l	n/a
210.9945	0.165	421989	keystroke_s	s	n/a
211.3845	0.12	422769	keystroke_Key.enter	Key.enter	n/a
211.511	10.045	423022	prompt	n/a	increased contain interactions disappointed\n
212.2545	0.18	424509	keystroke_i	i	n/a
212.4045	0.15	424809	keystroke_n	n	n/a
212.5995	0.135	425199	keystroke_c	c	n/a
212.8695	0.135	425739	keystroke_r	r	n/a
212.9295	0.135	425859	keystroke_e	e	n/a
213.1245	0.165	426249	keystroke_a	a	n/a
213.2595	0.15	426519	keystroke_s	s	n/a
213.3195	0.135	426639	keystroke_e	e	n/a
214.0695	0.12	428139	keystroke_Key.space	Key.space	n/a
214.3545	0.12	428709	keystroke_c	c	n/a
214.4895	0.165	428979	keystroke_o	o	n/a
214.5345	0.135	429069	keystroke_n	n	n/a
214.6995	0.0905	429399	keystroke_t	t	n/a
214.895	0.135	429790	keystroke_a	a	n/a
215.045	0.18	430090	keystroke_i	i	n/a
215.12	0.15	430240	keystroke_n	n	n/a
216.0045	0.1505	432009	keystroke_Key.space	Key.space	n/a
216.245	0.135	432490	keystroke_i	i	n/a
216.305	0.15	432610	keystroke_n	n	n/a
216.44	0.09	432880	keystroke_t	t	n/a
216.56	0.165	433120	keystroke_e	e	n/a
216.665	0.09	433330	keystroke_r	r	n/a
216.875	0.165	433750	keystroke_a	a	n/a
216.965	0.12	433930	keystroke_c	c	n/a
217.22	0.105	434440	keystroke_t	t	n/a
217.28	0.135	434560	keystroke_i	i	n/a
217.37	0.165	434740	keystroke_o	o	n/a
217.445	0.18	434890	keystroke_n	n	n/a
217.595	0.15	435190	keystroke_s	s	n/a
217.895	0.15	435790	keystroke_Key.space	Key.space	n/a
218.105	0.135	436210	keystroke_d	d	n/a
218.225	0.135	436450	keystroke_i	i	n/a
218.315	0.15	436630	keystroke_s	s	n/a
219.0495	0.12	438099	keystroke_a	a	n/a
219.71	0.03	439420	keystroke_p	p	n/a
219.844	0.106	439688	keystroke_p	p	n/a
220.085	0.2095	440170	keystroke_o	o	n/a
220.2045	0.18	440409	keystroke_i	i	n/a
220.3095	0.165	440619	keystroke_n	n	n/a
220.4595	0.12	440919	keystroke_t	t	n/a
220.6545	0.12	441309	keystroke_e	e	n/a
220.8645	0.12	441729	keystroke_d	d	n/a
221.4045	0.1495	442809	keystroke_Key.enter	Key.enter	n/a
221.5585	14.473	443117	prompt	n/a	progress lifetime know pending\n
222.335	0.134	444670	keystroke_p	p	n/a
222.424	0.121	444848	keystroke_r	r	n/a
222.589	0.135	445178	keystroke_o	o	n/a
222.739	0.09	445478	keystroke_g	g	n/a
222.949	0.165	445898	keystroke_r	r	n/a
223.024	0.15	446048	keystroke_e	e	n/a
223.715	0.12	447430	keystroke_s	s	n/a
223.91	0.165	447820	keystroke_s	s	n/a
224.2995	0.165	448599	keystroke_Key.space	Key.space	n/a
224.6145	0.12	449229	keystroke_l	l	n/a
224.8095	0.15	449619	keystroke_i	i	n/a
231.3375	0.072	462675	keystroke_f	f	n/a
231.6495	0.135	463299	keystroke_e	e	n/a
232.3245	0.12	464649	keystroke_t	t	n/a
232.4745	0.06	464949	keystroke_i	i	n/a
232.64	0.12	465280	keystroke_m	m	n/a
232.745	0.135	465490	keystroke_e	e	n/a
233.045	0.15	466090	keystroke_Key.space	Key.space	n/a
233.2695	0.15	466539	keystroke_k	k	n/a
233.4345	0.165	466869	keystroke_n	n	n/a
233.5395	0.165	467079	keystroke_o	o	n/a
233.6595	0.15	467319	keystroke_w	w	n/a
233.8395	0.135	467679	keystroke_Key.space	Key.space	n/a
234.0345	0.135	468069	keystroke_p	p	n/a
234.1845	0.135	468369	keystroke_e	e	n/a
234.2745	0.135	468549	keystroke_n	n	n/a
234.4245	0.15	468849	keystroke_d	d	n/a
234.6645	0.15	469329	keystroke_i	i	n/a
234.7245	0.18	469449	keystroke_n	n	n/a
234.8895	0.12	469779	keystroke_g	g	n/a
235.8795	0.15	471759	keystroke_Key.enter	Key.enter	n/a
236.0345	15.297	472069	prompt	n/a	emperor recipient anti step\n
236.8695	0.12	473739	keystroke_e	e	n/a
237.0195	0.0905	474039	keystroke_m	m	n/a
237.215	0.1495	474430	keystroke_p	p	n/a
237.5295	0.15	475059	keystroke_e	e	n/a
237.6195	0.165	475239	keystroke_r	r	n/a
238.0705	0.1195	476141	keystroke_p	p	n/a
238.3245	0.1355	476649	keystroke_o	o	n/a
238.415	0.1495	476830	keystroke_r	r	n/a
238.9245	0.105	477849	keystroke_Key.backspace	Key.backspace	n/a
239.1045	0.15	478209	keystroke_Key.backspace	Key.backspace	n/a
239.2995	0.12	478599	keystroke_r	r	n/a
239.6595	0.075	479319	keystroke_Key.backspace	Key.backspace	n/a
239.8095	0.075	479619	keystroke_Key.backspace	Key.backspace	n/a
240.3645	0.15	480729	keystroke_o	o	n/a
240.4845	0.135	480969	keystroke_r	r	n/a
240.9345	0.165	481869	keystroke_Key.space	Key.space	n/a
241.2345	0.151	482469	keystroke_e	e	n/a
241.5645	0.105	483129	keystroke_Key.backspace	Key.backspace	n/a
241.6855	0.1495	483371	keystroke_r	r	n/a
241.76	0.1645	483520	keystroke_e	e	n/a
242.0445	0.15	484089	keystroke_c	c	n/a
242.1795	0.15	484359	keystroke_e	e	n/a
242.3445	0.135	484689	keystroke_i	i	n/a
242.5095	0.18	485019	keystroke_p	p	n/a
244.115	0.105	488230	keystroke_Key.backspace	Key.backspace	n/a
244.325	0.075	488650	keystroke_Key.backspace	Key.backspace	n/a
244.475	0.12	488950	keystroke_Key.backspace	Key.backspace	n/a
245.2695	0.1655	490539	keystroke_i	i	n/a
246.635	0.165	493270	keystroke_p	p	n/a
247.4745	0.165	494949	keystroke_i	i	n/a
247.6545	0.15	495309	keystroke_e	e	n/a
247.7745	0.1355	495549	keystroke_n	n	n/a
247.924	0.106	495848	keystroke_t	t	n/a
248.134	0.1505	496268	keystroke_Key.space	Key.space	n/a
248.2995	0.15	496599	keystroke_a	a	n/a
248.4045	0.15	496809	keystroke_n	n	n/a
248.5555	0.134	497111	keystroke_t	t	n/a
248.6595	0.15	497319	keystroke_i	i	n/a
249.29	0.15	498580	keystroke_Key.space	Key.space	n/a
249.5	0.15	499000	keystroke_s	s	n/a
249.65	0.12	499300	keystroke_t	t	n/a
249.785	0.135	499570	keystroke_e	e	n/a
250.1145	0.1505	500229	keystroke_p	p	n/a
251.15	0.18	502300	keystroke_Key.enter	Key.enter	n/a
251.3345	5.8915	502669	prompt	n/a	pack present clarity color\n
252.1695	0.1505	504339	keystroke_p	p	n/a
252.275	0.165	504550	keystroke_a	a	n/a
252.35	0.165	504700	keystroke_c	c	n/a
252.47	0.195	504940	keystroke_k	k	n/a
252.725	0.165	505450	keystroke_Key.space	Key.space	n/a
253.205	0.15	506410	keystroke_p	p	n/a
253.505	0.18	507010	keystroke_r	r	n/a
253.595	0.15	507190	keystroke_e	e	n/a
253.88	0.165	507760	keystroke_s	s	n/a
253.97	0.18	507940	keystroke_e	e	n/a
254.12	0.135	508240	keystroke_n	n	n/a
254.24	0.134	508480	keystroke_t	t	n/a
254.66	0.15	509320	keystroke_Key.space	Key.space	n/a
254.915	0.15	509830	keystroke_c	c	n/a
255.125	0.15	510250	keystroke_l	l	n/a
255.23	0.105	510460	keystroke_a	a	n/a
255.425	0.105	510850	keystroke_r	r	n/a
255.514	0.151	511028	keystroke_i	i	n/a
255.7545	0.1355	511509	keystroke_t	t	n/a
255.8295	0.1655	511659	keystroke_y	y	n/a
256.0545	0.135	512109	keystroke_Key.space	Key.space	n/a
256.2495	0.1655	512499	keystroke_c	c	n/a
256.3255	0.119	512651	keystroke_o	o	n/a
256.5195	0.09	513039	keystroke_l	l	n/a
256.7145	0.1205	513429	keystroke_o	o	n/a
256.805	0.1345	513610	keystroke_r	r	n/a
257.059	0.1655	514118	keystroke_Key.enter	Key.enter	n/a
257.2295	7.602	514459	prompt	n/a	railway larry serial mambo\n
258.11	0.15	516220	keystroke_r	r	n/a
258.305	0.15	516610	keystroke_a	a	n/a
258.44	0.105	516880	keystroke_i	i	n/a
258.62	0.1645	517240	keystroke_l	l	n/a
258.8745	0.12	517749	keystroke_w	w	n/a
259.0545	0.151	518109	keystroke_a	a	n/a
259.1595	0.135	518319	keystroke_y	y	n/a
259.3545	0.135	518709	keystroke_Key.space	Key.space	n/a
259.5795	0.18	519159	keystroke_l	l	n/a
259.6695	0.12	519339	keystroke_a	a	n/a
259.8945	0.105	519789	keystroke_r	r	n/a
260.0905	0.149	520181	keystroke_r	r	n/a
260.2095	0.15	520419	keystroke_y	y	n/a
260.5395	0.135	521079	keystroke_Key.space	Key.space	n/a
260.7345	0.1805	521469	keystroke_s	s	n/a
260.84	0.18	521680	keystroke_e	e	n/a
261.095	0.15	522190	keystroke_r	r	n/a
261.215	0.12	522430	keystroke_i	i	n/a
261.365	0.165	522730	keystroke_a	a	n/a
261.455	0.18	522910	keystroke_l	l	n/a
262.115	0.165	524230	keystroke_Key.space	Key.space	n/a
262.505	0.1505	525010	keystroke_m	m	n/a
262.5795	0.18	525159	keystroke_a	a	n/a
263.33	0.165	526660	keystroke_m	m	n/a
263.81	0.09	527620	keystroke_b	b	n/a
264.245	0.165	528490	keystroke_o	o	n/a
264.665	0.1655	529330	keystroke_Key.enter	Key.enter	n/a
264.8345	8.037	529669	prompt	n/a	informed tool relate greek\n
265.565	0.1355	531130	keystroke_i	i	n/a
265.8045	0.12	531609	keystroke_n	n	n/a
265.9395	0.12	531879	keystroke_f	f	n/a
266.0745	0.12	532149	keystroke_o	o	n/a
266.1795	0.12	532359	keystroke_r	r	n/a
266.885	0.12	533770	keystroke_m	m	n/a
266.975	0.135	533950	keystroke_e	e	n/a
267.185	0.1345	534370	keystroke_d	d	n/a
267.4245	0.15	534849	keystroke_Key.space	Key.space	n/a
267.6645	0.12	535329	keystroke_t	t	n/a
267.7695	0.0755	535539	keystroke_o	o	n/a
267.935	0.135	535870	keystroke_o	o	n/a
268.115	0.18	536230	keystroke_l	l	n/a
268.19	0.18	536380	keystroke_Key.space	Key.space	n/a
268.6245	0.165	537249	keystroke_r	r	n/a
268.6995	0.165	537399	keystroke_e	e	n/a
268.9695	0.135	537939	keystroke_l	l	n/a
269.0745	0.195	538149	keystroke_a	a	n/a
269.2545	0.12	538509	keystroke_t	t	n/a
269.3895	0.135	538779	keystroke_e	e	n/a
269.6295	0.135	539259	keystroke_d	d	n/a
270.4545	0.1205	540909	keystroke_Key.backspace	Key.backspace	n/a
270.98	0.15	541960	keystroke_Key.space	Key.space	n/a
271.2645	0.0755	542529	keystroke_g	g	n/a
271.46	0.165	542920	keystroke_r	r	n/a
271.535	0.12	543070	keystroke_e	e	n/a
271.73	0.1645	543460	keystroke_e	e	n/a
272.2245	0.165	544449	keystroke_k	k	n/a
272.7045	0.165	545409	keystroke_Key.enter	Key.enter	n/a
272.8745	9.1615	545749	prompt	n/a	waters sign lanka accurately\n
273.725	0.12	547450	keystroke_w	w	n/a
273.935	0.15	547870	keystroke_a	a	n/a
273.965	0.15	547930	keystroke_r	r	n/a
274.565	0.105	549130	keystroke_Key.backspace	Key.backspace	n/a
274.685	0.075	549370	keystroke_t	t	n/a
274.82	0.165	549640	keystroke_e	e	n/a
274.925	0.15	549850	keystroke_r	r	n/a
275.285	0.15	550570	keystroke_s	s	n/a
275.615	0.165	551230	keystroke_Key.space	Key.space	n/a
275.945	0.165	551890	keystroke_s	s	n/a
276.08	0.15	552160	keystroke_i	i	n/a
276.305	0.12	552610	keystroke_g	g	n/a
276.395	0.135	552790	keystroke_n	n	n/a
278.285	0.1345	556570	keystroke_Key.space	Key.space	n/a
278.4945	0.15	556989	keystroke_l	l	n/a
278.5845	0.15	557169	keystroke_a	a	n/a
278.7045	0.15	557409	keystroke_n	n	n/a
278.8995	0.18	557799	keystroke_k	k	n/a
279.575	0.135	559150	keystroke_Key.space	Key.space	n/a
279.875	0.135	559750	keystroke_a	a	n/a
280.04	0.12	560080	keystroke_c	c	n/a
280.235	0.165	560470	keystroke_c	c	n/a
280.43	0.135	560860	keystroke_u	u	n/a
280.685	0.135	561370	keystroke_r	r	n/a
280.835	0.1645	561670	keystroke_a	a	n/a
280.9695	0.12	561939	keystroke_t	t	n/a
281.0745	0.15	562149	keystroke_e	e	n/a
281.285	0.165	562570	keystroke_l	l	n/a
281.6	0.135	563200	keystroke_y	y	n/a
281.885	0.15	563770	keystroke_Key.enter	Key.enter	n/a
282.0395	9.507	564079	prompt	n/a	bennett tired discharge terrace\n
282.8295	0.135	565659	keystroke_b	b	n/a
283.1295	0.151	566259	keystroke_e	e	n/a
283.4145	0.075	566829	keystroke_n	n	n/a
283.5645	0.12	567129	keystroke_n	n	n/a
283.7295	0.165	567459	keystroke_e	e	n/a
284.9745	0.105	569949	keystroke_t	t	n/a
285.1545	0.135	570309	keystroke_t	t	n/a
285.6345	0.15	571269	keystroke_Key.space	Key.space	n/a
285.92	0.09	571840	keystroke_t	t	n/a
286.04	0.135	572080	keystroke_i	i	n/a
286.13	0.135	572260	keystroke_r	r	n/a
286.67	0.12	573340	keystroke_e	e	n/a
287.015	0.15	574030	keystroke_d	d	n/a
287.3895	0.15	574779	keystroke_Key.space	Key.space	n/a
287.6295	0.136	575259	keystroke_d	d	n/a
287.7495	0.12	575499	keystroke_i	i	n/a
287.8245	0.166	575649	keystroke_s	s	n/a
288.3195	0.15	576639	keystroke_c	c	n/a
288.4395	0.12	576879	keystroke_h	h	n/a
288.5445	0.225	577089	keystroke_a	a	n/a
288.6655	0.12	577331	keystroke_r	r	n/a
288.9055	0.059	577811	keystroke_g	g	n/a
289.0095	0.135	578019	keystroke_e	e	n/a
289.2645	0.12	578529	keystroke_Key.space	Key.space	n/a
289.775	0.075	579550	keystroke_t	t	n/a
290.045	0.12	580090	keystroke_e	e	n/a
290.27	0.105	580540	keystroke_r	r	n/a
290.51	0.105	581020	keystroke_r	r	n/a
290.72	0.1655	581440	keystroke_a	a	n/a
290.8705	0.1795	581741	keystroke_c	c	n/a
291.02	0.135	582040	keystroke_e	e	n/a
291.38	0.165	582760	keystroke_Key.enter	Key.enter	n/a
291.55	11.2315	583100	prompt	n/a	diesel hang teaching absorption\n
292.4305	0.1345	584861	keystroke_d	d	n/a
292.895	0.15	585790	keystroke_i	i	n/a
293.03	0.12	586060	keystroke_e	e	n/a
293.4495	0.165	586899	keystroke_s	s	n/a
293.5845	0.15	587169	keystroke_e	e	n/a
293.7045	0.18	587409	keystroke_l	l	n/a
294.0345	0.15	588069	keystroke_Key.space	Key.space	n/a
294.3345	0.09	588669	keystroke_h	h	n/a
294.4395	0.1355	588879	keystroke_a	a	n/a
294.5445	0.1355	589089	keystroke_n	n	n/a
294.68	0.1205	589360	keystroke_g	g	n/a
294.83	0.135	589660	keystroke_Key.space	Key.space	n/a
295.25	0.075	590500	keystroke_t	t	n/a
295.685	0.12	591370	keystroke_e	e	n/a
295.88	0.135	591760	keystroke_a	a	n/a
296.06	0.135	592120	keystroke_c	c	n/a
296.225	0.12	592450	keystroke_h	h	n/a
296.3	0.225	592600	keystroke_i	i	n/a
296.435	0.15	592870	keystroke_n	n	n/a
296.555	0.105	593110	keystroke_g	g	n/a
296.645	0.135	593290	keystroke_Key.space	Key.space	n/a
296.855	0.15	593710	keystroke_a	a	n/a
297.08	0.135	594160	keystroke_b	b	n/a
297.425	0.12	594850	keystroke_o	o	n/a
297.8745	0.105	595749	keystroke_Key.backspace	Key.backspace	n/a
298.0395	0.15	596079	keystroke_s	s	n/a
298.1905	0.149	596381	keystroke_o	o	n/a
299.5245	0.135	599049	keystroke_r	r	n/a
299.9145	0.105	599829	keystroke_o	o	n/a
300.1695	0.15	600339	keystroke_p	p	n/a
300.83	0.09	601660	keystroke_Key.backspace	Key.backspace	n/a
301.01	0.105	602020	keystroke_Key.backspace	Key.backspace	n/a
301.3395	0.1655	602679	keystroke_p	p	n/a
301.595	0.135	603190	keystroke_t	t	n/a
301.67	0.165	603340	keystroke_i	i	n/a
301.79	0.1955	603580	keystroke_o	o	n/a
301.88	0.1955	603760	keystroke_n	n	n/a
302.6455	0.135	605291	keystroke_Key.enter	Key.enter	n/a
302.7845	15.192	605569	prompt	n/a	forward causing westminster taxation\n
304.025	0.105	608050	keystroke_f	f	n/a
304.145	0.1505	608290	keystroke_o	o	n/a
304.28	0.1505	608560	keystroke_r	r	n/a
304.7155	0.134	609431	keystroke_w	w	n/a
304.9095	0.18	609819	keystroke_a	a	n/a
304.9855	0.165	609971	keystroke_r	r	n/a
305.2555	0.1345	610511	keystroke_d	d	n/a
305.45	0.165	610900	keystroke_Key.space	Key.space	n/a
305.66	0.15	611320	keystroke_c	c	n/a
305.795	0.15	611590	keystroke_a	a	n/a
305.975	0.165	611950	keystroke_s	s	n/a
306.365	0.15	612730	keystroke_u	u	n/a
306.6945	0.0755	613389	keystroke_Key.backspace	Key.backspace	n/a
306.86	0.105	613720	keystroke_Key.backspace	Key.backspace	n/a
307.0395	0.1355	614079	keystroke_u	u	n/a
307.1145	0.135	614229	keystroke_s	s	n/a
307.3095	0.181	614619	keystroke_i	i	n/a
307.4005	0.165	614801	keystroke_n	n	n/a
307.5355	0.1345	615071	keystroke_g	g	n/a
308	0.15	616000	keystroke_Key.space	Key.space	n/a
308.39	0.135	616780	keystroke_w	w	n/a
308.63	0.1945	617260	keystroke_e	e	n/a
308.7645	0.181	617529	keystroke_r	r	n/a
309.2295	0.1205	618459	keystroke_t	t	n/a
309.56	0.06	619120	keystroke_Key.backspace	Key.backspace	n/a
309.71	0.12	619420	keystroke_Key.backspace	Key.backspace	n/a
309.755	0.18	619510	keystroke_s	s	n/a
309.905	0.15	619810	keystroke_t	t	n/a
310.625	0.12	621250	keystroke_m	m	n/a
310.85	0.105	621700	keystroke_i	i	n/a
311.075	0.12	622150	keystroke_n	n	n/a
311.4655	0.149	622931	keystroke_i	i	n/a
312.2605	0.104	624521	keystroke_Key.backspace	Key.backspace	n/a
312.4105	0.149	624821	keystroke_s	s	n/a
312.6345	0.12	625269	keystroke_t	t	n/a
312.83	0.15	625660	keystroke_e	e	n/a
312.905	0.165	625810	keystroke_r	r	n/a
313.25	0.15	626500	keystroke_Key.space	Key.space	n/a
313.43	0.075	626860	keystroke_t	t	n/a
313.88	0.135	627760	keystroke_a	a	n/a
314.18	0.15	628360	keystroke_x	x	n/a
314.915	0.135	629830	keystroke_a	a	n/a
315.185	0.135	630370	keystroke_t	t	n/a
315.26	0.195	630520	keystroke_i	i	n/a
315.335	0.2245	630670	keystroke_o	o	n/a
315.44	0.1795	630880	keystroke_n	n	n/a
317.8725	0.102	635745	keystroke_Key.enter	Key.enter	n/a
317.9815	7.525	635963	prompt	n/a	alternatively west correlation update\n
318.725	0.165	637450	keystroke_a	a	n/a
318.935	0.15	637870	keystroke_l	l	n/a
319.1	0.075	638200	keystroke_t	t	n/a
319.235	0.1645	638470	keystroke_e	e	n/a
319.3095	0.15	638619	keystroke_r	r	n/a
319.5495	0.135	639099	keystroke_n	n	n/a
319.6545	0.135	639309	keystroke_a	a	n/a
319.8345	0.12	639669	keystroke_t	t	n/a
319.9695	0.135	639939	keystroke_i	i	n/a
320.0895	0.09	640179	keystroke_v	v	n/a
320.2695	0.105	640539	keystroke_e	e	n/a
320.4945	0.1355	640989	keystroke_l	l	n/a
320.795	0.1795	641590	keystroke_y	y	n/a
320.945	0.1945	641890	keystroke_Key.space	Key.space	n/a
321.2895	0.195	642579	keystroke_w	w	n/a
321.3945	0.1955	642789	keystroke_e	e	n/a
321.6505	0.2395	643301	keystroke_s	s	n/a
321.77	0.165	643540	keystroke_t	t	n/a
321.965	0.165	643930	keystroke_Key.space	Key.space	n/a
322.2205	0.1345	644441	keystroke_c	c	n/a
322.34	0.15	644680	keystroke_o	o	n/a
322.475	0.1045	644950	keystroke_r	r	n/a
322.6695	0.12	645339	keystroke_r	r	n/a
322.8495	0.135	645699	keystroke_e	e	n/a
323.1795	0.15	646359	keystroke_l	l	n/a
323.3595	0.15	646719	keystroke_a	a	n/a
323.6145	0.105	647229	keystroke_t	t	n/a
323.6605	0.149	647321	keystroke_i	i	n/a
323.7645	0.18	647529	keystroke_o	o	n/a
323.8545	0.18	647709	keystroke_n	n	n/a
324.0045	0.135	648009	keystroke_Key.space	Key.space	n/a
324.2295	0.12	648459	keystroke_u	u	n/a
324.3645	0.15	648729	keystroke_p	p	n/a
324.5445	0.18	649089	keystroke_d	d	n/a
324.7095	0.226	649419	keystroke_a	a	n/a
324.8455	0.15	649691	keystroke_t	t	n/a
324.9805	0.15	649961	keystroke_e	e	n/a
325.3395	0.166	650679	keystroke_Key.enter	Key.enter	n/a
325.5095	5.547	651019	prompt	n/a	hopes lips woman tell\n
326.225	0.12	652450	keystroke_h	h	n/a
326.315	0.165	652630	keystroke_o	o	n/a
326.5705	0.1345	653141	keystroke_p	p	n/a
326.675	0.09	653350	keystroke_e	e	n/a
326.885	0.15	653770	keystroke_s	s	n/a
327.17	0.1645	654340	keystroke_Key.space	Key.space	n/a
327.4845	0.1055	654969	keystroke_l	l	n/a
327.6645	0.12	655329	keystroke_i	i	n/a
327.8145	0.165	655629	keystroke_p	p	n/a
327.9495	0.15	655899	keystroke_s	s	n/a
328.1445	0.135	656289	keystroke_Key.space	Key.space	n/a
328.5645	0.151	657129	keystroke_w	w	n/a
328.9555	0.135	657911	keystroke_o	o	n/a
329.225	0.135	658450	keystroke_m	m	n/a
329.48	0.165	658960	keystroke_a	a	n/a
329.6	0.135	659200	keystroke_n	n	n/a
329.78	0.1355	659560	keystroke_Key.space	Key.space	n/a
329.9755	0.09	659951	keystroke_t	t	n/a
330.0955	0.15	660191	keystroke_e	e	n/a
330.3345	0.09	660669	keystroke_l	l	n/a
330.4995	0.15	660999	keystroke_l	l	n/a
330.9045	0.15	661809	keystroke_Key.enter	Key.enter	n/a
331.059	14.9975	662118	prompt	n/a	progressive chronicle appliances musician\n
331.925	0.18	663850	keystroke_p	p	n/a
332.555	0.105	665110	keystroke_r	r	n/a
332.69	0.165	665380	keystroke_o	o	n/a
332.87	0.105	665740	keystroke_g	g	n/a
333.08	0.165	666160	keystroke_r	r	n/a
333.23	0.0895	666460	keystroke_e	e	n/a
333.8895	0.105	667779	keystroke_s	s	n/a
334.0695	0.151	668139	keystroke_s	s	n/a
334.2205	0.1345	668441	keystroke_i	i	n/a
334.31	0.135	668620	keystroke_v	v	n/a
334.52	0.135	669040	keystroke_e	e	n/a
334.7	0.165	669400	keystroke_Key.space	Key.space	n/a
334.97	0.1355	669940	keystroke_c	c	n/a
335.1205	0.09	670241	keystroke_h	h	n/a
335.2405	0.1495	670481	keystroke_r	r	n/a
335.615	0.135	671230	keystroke_o	o	n/a
336.2605	0.075	672521	keystroke_n	n	n/a
336.4855	0.1195	672971	keystroke_i	i	n/a
336.59	0.15	673180	keystroke_c	c	n/a
336.71	0.18	673420	keystroke_a	a	n/a
336.875	0.135	673750	keystroke_l	l	n/a
336.98	0.12	673960	keystroke_e	e	n/a
337.8355	0.089	675671	keystroke_Key.backspace	Key.backspace	n/a
337.9995	0.12	675999	keystroke_Key.backspace	Key.backspace	n/a
338.1945	0.12	676389	keystroke_Key.backspace	Key.backspace	n/a
338.7945	0.135	677589	keystroke_l	l	n/a
338.8705	0.119	677741	keystroke_e	e	n/a
339.0495	0.165	678099	keystroke_Key.space	Key.space	n/a
339.3495	0.165	678699	keystroke_a	a	n/a
339.5445	0.076	679089	keystroke_p	p	n/a
339.7095	0.105	679419	keystroke_p	p	n/a
339.935	0.06	679870	keystroke_l	l	n/a
340.0395	0.1655	680079	keystroke_i	i	n/a
340.22	0.165	680440	keystroke_a	a	n/a
340.4	0.15	680800	keystroke_n	n	n/a
340.64	0.225	681280	keystroke_c	c	n/a
340.76	0.135	681520	keystroke_e	e	n/a
342.17	0.135	684340	keystroke_s	s	n/a
342.455	0.1195	684910	keystroke_Key.space	Key.space	n/a
342.6645	0.136	685329	keystroke_m	m	n/a
342.9205	0.134	685841	keystroke_u	u	n/a
343.745	0.15	687490	keystroke_s	s	n/a
344	0.135	688000	keystroke_i	i	n/a
344.405	0.15	688810	keystroke_c	c	n/a
344.525	0.15	689050	keystroke_i	i	n/a
344.63	0.18	689260	keystroke_a	a	n/a
345.425	0.135	690850	keystroke_n	n	n/a
345.8895	0.165	691779	keystroke_Key.enter	Key.enter	n/a
346.059	8.4575	692118	prompt	n/a	statistical query conservative lands\n
346.8645	0.12	693729	keystroke_s	s	n/a
347.0445	0.105	694089	keystroke_t	t	n/a
347.1795	0.195	694359	keystroke_a	a	n/a
347.5395	0.135	695079	keystroke_t	t	n/a
347.7945	0.15	695589	keystroke_i	i	n/a
348.1545	0.1355	696309	keystroke_s	s	n/a
348.44	0.09	696880	keystroke_t	t	n/a
348.545	0.12	697090	keystroke_i	i	n/a
348.68	0.15	697360	keystroke_c	c	n/a
348.845	0.15	697690	keystroke_a	a	n/a
348.98	0.195	697960	keystroke_l	l	n/a
349.085	0.165	698170	keystroke_Key.space	Key.space	n/a
349.4595	0.12	698919	keystroke_q	q	n/a
349.5945	0.135	699189	keystroke_u	u	n/a
349.6995	0.135	699399	keystroke_e	e	n/a
350.705	0.165	701410	keystroke_r	r	n/a
350.855	0.12	701710	keystroke_y	y	n/a
351.11	0.15	702220	keystroke_Key.space	Key.space	n/a
351.3355	0.165	702671	keystroke_c	c	n/a
351.4855	0.18	702971	keystroke_o	o	n/a
351.5605	0.15	703121	keystroke_n	n	n/a
351.6955	0.195	703391	keystroke_s	s	n/a
351.8305	0.195	703661	keystroke_e	e	n/a
351.9505	0.165	703901	keystroke_r	r	n/a
352.46	0.105	704920	keystroke_v	v	n/a
352.655	0.165	705310	keystroke_a	a	n/a
352.805	0.135	705610	keystroke_t	t	n/a
352.985	0.15	705970	keystroke_i	i	n/a
353.06	0.105	706120	keystroke_v	v	n/a
353.225	0.15	706450	keystroke_e	e	n/a
353.36	0.12	706720	keystroke_Key.space	Key.space	n/a
353.54	0.1345	707080	keystroke_l	l	n/a
353.63	0.1495	707260	keystroke_a	a	n/a
353.7505	0.135	707501	keystroke_n	n	n/a
353.8545	0.12	707709	keystroke_d	d	n/a
354.0505	0.134	708101	keystroke_s	s	n/a
354.365	0.15	708730	keystroke_Key.enter	Key.enter	n/a
354.52	10.8265	709040	prompt	n/a	thank screens chambers wholesale\n
355.2345	0.106	710469	keystroke_t	t	n/a
355.3405	0.09	710681	keystroke_h	h	n/a
355.4455	0.134	710891	keystroke_a	a	n/a
355.5645	0.1355	711129	keystroke_n	n	n/a
355.6545	0.1805	711309	keystroke_k	k	n/a
355.745	0.15	711490	keystroke_s	s	n/a
356.075	0.1495	712150	keystroke_Key.space	Key.space	n/a
356.3155	0.03	712631	keystroke_c	c	n/a
356.7645	0.09	713529	keystroke_Key.backspace	Key.backspace	n/a
356.8695	0.15	713739	keystroke_s	s	n/a
356.9295	0.18	713859	keystroke_c	c	n/a
357.2295	0.12	714459	keystroke_r	r	n/a
357.4245	0.165	714849	keystroke_r	r	n/a
357.5445	0.165	715089	keystroke_e	e	n/a
358.3095	0.075	716619	keystroke_Key.backspace	Key.backspace	n/a
358.4745	0.136	716949	keystroke_Key.backspace	Key.backspace	n/a
358.9705	0.105	717941	keystroke_e	e	n/a
359.15	0.165	718300	keystroke_e	e	n/a
359.33	0.135	718660	keystroke_n	n	n/a
359.75	0.15	719500	keystroke_s	s	n/a
361.3845	0.18	722769	keystroke_Key.space	Key.space	n/a
361.715	0.135	723430	keystroke_c	c	n/a
361.835	0.075	723670	keystroke_h	h	n/a
361.94	0.15	723880	keystroke_a	a	n/a
362.03	0.1505	724060	keystroke_m	m	n/a
362.4345	0.09	724869	keystroke_b	b	n/a
362.5395	0.165	725079	keystroke_e	e	n/a
362.6145	0.135	725229	keystroke_r	r	n/a
362.8245	0.165	725649	keystroke_s	s	n/a
363.0195	0.1505	726039	keystroke_Key.space	Key.space	n/a
363.245	0.15	726490	keystroke_w	w	n/a
363.35	0.135	726700	keystroke_h	h	n/a
363.44	0.12	726880	keystroke_o	o	n/a
363.62	0.15	727240	keystroke_l	l	n/a
363.725	0.12	727450	keystroke_e	e	n/a
364.13	0.12	728260	keystroke_s	s	n/a
364.34	0.12	728680	keystroke_a	a	n/a
364.46	0.135	728920	keystroke_l	l	n/a
364.58	0.15	729160	keystroke_e	e	n/a
365.165	0.18	730330	keystroke_Key.enter	Key.enter	n/a
365.3495	13.887	730699	prompt	n/a	ancient compact mcdonald jacob\n
366.0955	0.12	732191	keystroke_a	a	n/a
366.3205	0.09	732641	keystroke_c	c	n/a
366.7405	0.12	733481	keystroke_Key.backspace	Key.backspace	n/a
366.9955	0.105	733991	keystroke_n	n	n/a
367.0855	0.105	734171	keystroke_c	c	n/a
367.2355	0.135	734471	keystroke_i	i	n/a
367.3555	0.135	734711	keystroke_e	e	n/a
367.5055	0.135	735011	keystroke_n	n	n/a
367.6255	0.12	735251	keystroke_t	t	n/a
368.2855	0.165	736571	keystroke_Key.space	Key.space	n/a
368.6755	0.15	737351	keystroke_c	c	n/a
368.7945	0.121	737589	keystroke_o	o	n/a
368.9905	0.105	737981	keystroke_m	m	n/a
369.1855	0.135	738371	keystroke_p	p	n/a
369.2905	0.18	738581	keystroke_a	a	n/a
369.3955	0.15	738791	keystroke_c	c	n/a
369.7255	0.149	739451	keystroke_t	t	n/a
370.25	0.15	740500	keystroke_Key.space	Key.space	n/a
370.445	0.15	740890	keystroke_c	c	n/a
370.55	0.135	741100	keystroke_o	o	n/a
371.03	0.09	742060	keystroke_Key.backspace	Key.backspace	n/a
371.21	0.075	742420	keystroke_Key.backspace	Key.backspace	n/a
371.585	0.1505	743170	keystroke_m	m	n/a
371.7205	0.165	743441	keystroke_c	c	n/a
373.4155	0.15	746831	keystroke_d	d	n/a
373.5355	0.15	747071	keystroke_o	o	n/a
373.8645	0.136	747729	keystroke_n	n	n/a
373.9855	0.135	747971	keystroke_a	a	n/a
374.21	0.15	748420	keystroke_l	l	n/a
374.45	0.15	748900	keystroke_d	d	n/a
374.645	0.135	749290	keystroke_Key.space	Key.space	n/a
374.855	0.135	749710	keystroke_j	j	n/a
375.005	0.135	750010	keystroke_a	a	n/a
375.515	0.195	751030	keystroke_c	c	n/a
375.695	0.165	751390	keystroke_o	o	n/a
375.98	0.105	751960	keystroke_b	b	n/a
379.1025	0.132	758205	keystroke_Key.enter	Key.enter	n/a
379.24	7.9915	758480	prompt	n/a	refurbished highways sole nato\n
380.0155	0.164	760031	keystroke_r	r	n/a
380.0895	0.12	760179	keystroke_e	e	n/a
380.4795	0.12	760959	keystroke_f	f	n/a
380.6295	0.135	761259	keystroke_u	u	n/a
380.7345	0.135	761469	keystroke_r	r	n/a
381.2295	0.1355	762459	keystroke_b	b	n/a
381.545	0.1495	763090	keystroke_i	i	n/a
381.7395	0.15	763479	keystroke_s	s	n/a
381.8445	0.15	763689	keystroke_h	h	n/a
381.9795	0.12	763959	keystroke_e	e	n/a
382.1745	0.15	764349	keystroke_d	d	n/a
382.3095	0.15	764619	keystroke_Key.space	Key.space	n/a
382.745	0.105	765490	keystroke_h	h	n/a
382.835	0.12	765670	keystroke_i	i	n/a
382.94	0.09	765880	keystroke_g	g	n/a
383.045	0.135	766090	keystroke_h	h	n/a
383.18	0.1045	766360	keystroke_t	t	n/a
383.5845	0.105	767169	keystroke_Key.backspace	Key.backspace	n/a
383.7955	0.12	767591	keystroke_w	w	n/a
383.9895	0.136	767979	keystroke_a	a	n/a
384.0795	0.135	768159	keystroke_y	y	n/a
384.2295	0.135	768459	keystroke_s	s	n/a
384.575	0.135	769150	keystroke_Key.space	Key.space	n/a
384.725	0.135	769450	keystroke_s	s	n/a
384.83	0.105	769660	keystroke_o	o	n/a
385.01	0.165	770020	keystroke_l	l	n/a
385.1	0.135	770200	keystroke_e	e	n/a
385.5795	0.15	771159	keystroke_Key.space	Key.space	n/a
385.8345	0.12	771669	keystroke_n	n	n/a
385.9395	0.12	771879	keystroke_a	a	n/a
386.2845	0.15	772569	keystroke_t	t	n/a
386.4495	0.1355	772899	keystroke_o	o	n/a
387.14	0.09	774280	keystroke_Key.enter	Key.enter	n/a
387.2345	14.967	774469	prompt	n/a	ceramic back authorization exposed\n
388.1445	0.105	776289	keystroke_c	c	n/a
388.7605	0.15	777521	keystroke_e	e	n/a
388.9855	0.135	777971	keystroke_r	r	n/a
391.417	0.073	782834	keystroke_m	m	n/a
392.705	0.165	785410	keystroke_i	i	n/a
392.84	0.135	785680	keystroke_c	c	n/a
394.5355	0.09	789071	keystroke_Key.backspace	Key.backspace	n/a
394.7455	0.06	789491	keystroke_Key.backspace	Key.backspace	n/a
394.8505	0.165	789701	keystroke_Key.backspace	Key.backspace	n/a
395.135	0.15	790270	keystroke_a	a	n/a
395.54	0.12	791080	keystroke_m	m	n/a
395.75	0.135	791500	keystroke_i	i	n/a
395.915	0.165	791830	keystroke_c	c	n/a
396.485	0.15	792970	keystroke_Key.space	Key.space	n/a
396.74	0.12	793480	keystroke_b	b	n/a
396.86	0.165	793720	keystroke_a	a	n/a
396.935	0.165	793870	keystroke_c	c	n/a
397.04	0.18	794080	keystroke_k	k	n/a
397.37	0.15	794740	keystroke_Key.space	Key.space	n/a
397.7005	0.135	795401	keystroke_a	a	n/a
398.2105	0.119	796421	keystroke_u	u	n/a
398.3605	0.104	796721	keystroke_t	t	n/a
398.4205	0.134	796841	keystroke_h	h	n/a
398.66	0.1795	797320	keystroke_o	o	n/a
398.9755	0.15	797951	keystroke_r	r	n/a
399.0955	0.149	798191	keystroke_i	i	n/a
399.485	0.135	798970	keystroke_z	z	n/a
399.695	0.12	799390	keystroke_a	a	n/a
399.89	0.1355	799780	keystroke_t	t	n/a
399.95	0.1795	799900	keystroke_i	i	n/a
400.0395	0.1955	800079	keystroke_o	o	n/a
400.1145	0.1805	800229	keystroke_n	n	n/a
400.385	0.12	800770	keystroke_Key.space	Key.space	n/a
400.61	0.105	801220	keystroke_e	e	n/a
400.835	0.135	801670	keystroke_x	x	n/a
400.955	0.12	801910	keystroke_p	p	n/a
401.18	0.15	802360	keystroke_o	o	n/a
401.315	0.1795	802630	keystroke_s	s	n/a
401.4045	0.165	802809	keystroke_e	e	n/a
401.6445	0.15	803289	keystroke_d	d	n/a
402.035	0.165	804070	keystroke_Key.enter	Key.enter	n/a
402.2045	14.172	804409	prompt	n/a	hungry contribute white material\n
403.115	0.09	806230	keystroke_h	h	n/a
403.31	0.09	806620	keystroke_u	u	n/a
403.52	0.09	807040	keystroke_n	n	n/a
403.595	0.12	807190	keystroke_g	g	n/a
403.97	0.15	807940	keystroke_r	r	n/a
404.1055	0.15	808211	keystroke_y	y	n/a
404.3455	0.12	808691	keystroke_Key.space	Key.space	n/a
404.6155	0.15	809231	keystroke_c	c	n/a
404.7205	0.165	809441	keystroke_o	o	n/a
404.7955	0.15	809591	keystroke_n	n	n/a
404.9755	0.105	809951	keystroke_t	t	n/a
405.1405	0.135	810281	keystroke_i	i	n/a
405.74	0.105	811480	keystroke_Key.backspace	Key.backspace	n/a
405.875	0.15	811750	keystroke_r	r	n/a
406.01	0.12	812020	keystroke_i	i	n/a
406.25	0.105	812500	keystroke_b	b	n/a
406.475	0.12	812950	keystroke_u	u	n/a
406.58	0.1055	813160	keystroke_t	t	n/a
406.7605	0.135	813521	keystroke_e	e	n/a
406.9555	0.15	813911	keystroke_Key.space	Key.space	n/a
407.2405	0.135	814481	keystroke_w	w	n/a
407.3305	0.1345	814661	keystroke_h	h	n/a
407.435	0.135	814870	keystroke_i	i	n/a
407.54	0.06	815080	keystroke_t	t	n/a
407.66	0.12	815320	keystroke_e	e	n/a
407.99	0.135	815980	keystroke_Key.space	Key.space	n/a
408.245	0.165	816490	keystroke_m	m	n/a
408.395	0.135	816790	keystroke_e	e	n/a
408.68	0.15	817360	keystroke_a	a	n/a
410.3155	0.075	820631	keystroke_Key.backspace	Key.backspace	n/a
410.4655	0.135	820931	keystroke_Key.backspace	Key.backspace	n/a
410.5555	0.15	821111	keystroke_a	a	n/a
411.125	0.09	822250	keystroke_t	t	n/a
411.3055	0.15	822611	keystroke_e	e	n/a
411.5905	0.134	823181	keystroke_r	r	n/a
411.7405	0.135	823481	keystroke_i	i	n/a
411.8905	0.15	823781	keystroke_a	a	n/a
412.0255	0.149	824051	keystroke_l	l	n/a
413.72	0.15	827440	keystroke_Key.space	Key.space	n/a
415.775	0.12	831550	keystroke_Key.backspace	Key.backspace	n/a
416.2095	0.165	832419	keystroke_Key.enter	Key.enter	n/a
416.3805	6.296	832761	prompt	n/a	moore drove sally request\n
417.4255	0.105	834851	keystroke_m	m	n/a
417.6655	0.075	835331	keystroke_o	o	n/a
417.8155	0.15	835631	keystroke_o	o	n/a
417.9355	0.165	835871	keystroke_r	r	n/a
418.0255	0.15	836051	keystroke_e	e	n/a
418.3555	0.165	836711	keystroke_Key.space	Key.space	n/a
418.5955	0.105	837191	keystroke_d	d	n/a
418.9405	0.15	837881	keystroke_r	r	n/a
419.0755	0.1645	838151	keystroke_o	o	n/a
419.5405	0.09	839081	keystroke_v	v	n/a
419.7055	0.15	839411	keystroke_e	e	n/a
419.9905	0.15	839981	keystroke_Key.space	Key.space	n/a
420.1705	0.149	840341	keystroke_s	s	n/a
420.3505	0.1495	840701	keystroke_a	a	n/a
420.56	0.0905	841120	keystroke_l	l	n/a
420.7245	0.1505	841449	keystroke_l	l	n/a
420.98	0.15	841960	keystroke_y	y	n/a
421.07	0.105	842140	keystroke_Key.space	Key.space	n/a
421.25	0.18	842500	keystroke_r	r	n/a
421.34	0.18	842680	keystroke_e	e	n/a
421.565	0.165	843130	keystroke_q	q	n/a
421.775	0.15	843550	keystroke_u	u	n/a
421.835	0.12	843670	keystroke_e	e	n/a
422	0.2395	844000	keystroke_s	s	n/a
422.135	0.1495	844270	keystroke_t	t	n/a
422.5245	0.1505	845049	keystroke_Key.enter	Key.enter	n/a
422.681	32.9965	845362	prompt	n/a	centers lives zone landscape\n
423.5895	0.09	847179	keystroke_c	c	n/a
423.7695	0.12	847539	keystroke_e	e	n/a
423.8745	0.12	847749	keystroke_n	n	n/a
424.0245	0.09	848049	keystroke_t	t	n/a
424.2195	0.15	848439	keystroke_e	e	n/a
424.2945	0.135	848589	keystroke_r	r	n/a
425.0295	0.135	850059	keystroke_s	s	n/a
448.1935	0.072	896387	keystroke_Key.space	Key.space	n/a
448.3405	0.12	896681	keystroke_l	l	n/a
448.5805	0.105	897161	keystroke_i	i	n/a
448.8955	0.09	897791	keystroke_Key.backspace	Key.backspace	n/a
449.0905	0.12	898181	keystroke_Key.backspace	Key.backspace	n/a
449.4055	0.15	898811	keystroke_Key.backspace	Key.backspace	n/a
450.3205	0.12	900641	keystroke_Key.space	Key.space	n/a
450.5155	0.105	901031	keystroke_l	l	n/a
451.0555	0.12	902111	keystroke_i	i	n/a
451.1305	0.105	902261	keystroke_v	v	n/a
451.3105	0.12	902621	keystroke_e	e	n/a
451.5505	0.12	903101	keystroke_s	s	n/a
451.881	0.15	903762	keystroke_Key.space	Key.space	n/a
452.061	0.15	904122	keystroke_z	z	n/a
452.181	0.135	904362	keystroke_o	o	n/a
452.241	0.15	904482	keystroke_n	n	n/a
452.3455	0.1055	904691	keystroke_e	e	n/a
452.7655	0.12	905531	keystroke_Key.space	Key.space	n/a
452.9755	0.135	905951	keystroke_l	l	n/a
453.0505	0.15	906101	keystroke_a	a	n/a
453.1555	0.1205	906311	keystroke_n	n	n/a
453.2455	0.151	906491	keystroke_d	d	n/a
453.831	0.12	907662	keystroke_s	s	n/a
453.996	0.12	907992	keystroke_c	c	n/a
454.491	0.1345	908982	keystroke_a	a	n/a
454.911	0.12	909822	keystroke_p	p	n/a
455.001	0.1355	910002	keystroke_e	e	n/a
455.511	0.1655	911022	keystroke_Key.enter	Key.enter	n/a
455.681	11.5615	911362	prompt	n/a	ventures cultures pressed york\n
458.4985	0.001	916997	keystroke_v	v	n/a
458.736	0.15	917472	keystroke_e	e	n/a
458.946	0.1505	917892	keystroke_n	n	n/a
459.231	0.0755	918462	keystroke_t	t	n/a
459.4115	0.12	918823	keystroke_u	u	n/a
459.4715	0.1495	918943	keystroke_r	r	n/a
459.5765	0.1345	919153	keystroke_e	e	n/a
459.846	0.135	919692	keystroke_s	s	n/a
460.1915	0.1645	920383	keystroke_Key.space	Key.space	n/a
460.506	0.165	921012	keystroke_c	c	n/a
460.731	0.12	921462	keystroke_u	u	n/a
460.956	0.1805	921912	keystroke_l	l	n/a
461.1215	0.09	922243	keystroke_t	t	n/a
461.2715	0.1195	922543	keystroke_u	u	n/a
461.3465	0.1645	922693	keystroke_r	r	n/a
461.436	0.15	922872	keystroke_e	e	n/a
461.691	0.165	923382	keystroke_s	s	n/a
462.246	0.15	924492	keystroke_Key.space	Key.space	n/a
462.501	0.135	925002	keystroke_p	p	n/a
462.561	0.1805	925122	keystroke_r	r	n/a
462.666	0.1205	925332	keystroke_e	e	n/a
462.9215	0.12	925843	keystroke_s	s	n/a
463.1315	0.1495	926263	keystroke_s	s	n/a
463.2665	0.1345	926533	keystroke_e	e	n/a
463.491	0.15	926982	keystroke_d	d	n/a
464.001	0.15	928002	keystroke_Key.space	Key.space	n/a
464.331	0.12	928662	keystroke_y	y	n/a
464.556	0.15	929112	keystroke_o	o	n/a
464.661	0.135	929322	keystroke_r	r	n/a
464.781	0.165	929562	keystroke_k	k	n/a
467.1685	0.073	934337	keystroke_Key.enter	Key.enter	n/a
467.2455	12.237	934491	prompt	n/a	prophet kernel capable vids\n
470.828	0.073	941656	keystroke_p	p	n/a
470.886	0.135	941772	keystroke_r	r	n/a
471.006	0.15	942012	keystroke_o	o	n/a
471.516	0.135	943032	keystroke_p	p	n/a
471.726	0.135	943452	keystroke_h	h	n/a
471.996	0.135	943992	keystroke_e	e	n/a
472.236	0.105	944472	keystroke_t	t	n/a
472.5505	0.165	945101	keystroke_Key.space	Key.space	n/a
473.0005	0.195	946001	keystroke_k	k	n/a
473.1055	0.15	946211	keystroke_e	e	n/a
473.2105	0.1355	946421	keystroke_r	r	n/a
474.1255	0.136	948251	keystroke_n	n	n/a
474.2455	0.15	948491	keystroke_e	e	n/a
475.0555	0.165	950111	keystroke_l	l	n/a
475.4455	0.135	950891	keystroke_Key.space	Key.space	n/a
475.6115	0.164	951223	keystroke_c	c	n/a
475.7455	0.15	951491	keystroke_a	a	n/a
475.8805	0.135	951761	keystroke_p	p	n/a
475.9865	0.149	951973	keystroke_a	a	n/a
477.186	0.1055	954372	keystroke_b	b	n/a
477.3805	0.136	954761	keystroke_l	l	n/a
477.5005	0.15	955001	keystroke_e	e	n/a
478.2355	0.18	956471	keystroke_Key.space	Key.space	n/a
478.4305	0.105	956861	keystroke_v	v	n/a
478.5515	0.134	957103	keystroke_i	i	n/a
478.6415	0.134	957283	keystroke_d	d	n/a
478.8505	0.135	957701	keystroke_s	s	n/a
479.316	0.165	958632	keystroke_Key.enter	Key.enter	n/a
479.487	11.8005	958974	prompt	n/a	termination basics saver ensures\n
480.126	0.09	960252	keystroke_t	t	n/a
480.261	0.15	960522	keystroke_e	e	n/a
480.336	0.1495	960672	keystroke_r	r	n/a
480.6955	0.1505	961391	keystroke_m	m	n/a
480.831	0.12	961662	keystroke_a	a	n/a
482.106	0.12	964212	keystroke_Key.backspace	Key.backspace	n/a
482.391	0.12	964782	keystroke_i	i	n/a
482.631	0.15	965262	keystroke_n	n	n/a
482.796	0.15	965592	keystroke_a	a	n/a
483.036	0.12	966072	keystroke_t	t	n/a
483.081	0.15	966162	keystroke_i	i	n/a
483.171	0.165	966342	keystroke_o	o	n/a
483.246	0.165	966492	keystroke_n	n	n/a
483.636	0.135	967272	keystroke_Key.space	Key.space	n/a
483.936	0.105	967872	keystroke_b	b	n/a
484.056	0.225	968112	keystroke_a	a	n/a
484.761	0.15	969522	keystroke_s	s	n/a
484.926	0.1355	969852	keystroke_i	i	n/a
485.0165	0.15	970033	keystroke_c	c	n/a
485.3165	0.135	970633	keystroke_s	s	n/a
485.856	0.1655	971712	keystroke_Key.space	Key.space	n/a
486.0665	0.135	972133	keystroke_s	s	n/a
486.2465	0.18	972493	keystroke_a	a	n/a
486.4115	0.09	972823	keystroke_v	v	n/a
486.5615	0.21	973123	keystroke_e	e	n/a
486.7565	0.1345	973513	keystroke_r	r	n/a
487.206	0.1795	974412	keystroke_Key.space	Key.space	n/a
487.431	0.15	974862	keystroke_e	e	n/a
487.566	0.165	975132	keystroke_n	n	n/a
487.716	0.165	975432	keystroke_s	s	n/a
489.591	0.165	979182	keystroke_u	u	n/a
489.726	0.105	979452	keystroke_r	r	n/a
489.861	0.165	979722	keystroke_e	e	n/a
490.221	0.165	980442	keystroke_s	s	n/a
491.106	0.18	982212	keystroke_Key.enter	Key.enter	n/a
491.291	13.437	982582	prompt	n/a	accent juice computing calendar\n
492.007	0.149	984014	keystroke_a	a	n/a
492.276	0.075	984552	keystroke_c	c	n/a
492.456	0.105	984912	keystroke_c	c	n/a
492.651	0.15	985302	keystroke_e	e	n/a
492.816	0.135	985632	keystroke_p	p	n/a
492.921	0.105	985842	keystroke_t	t	n/a
494.241	0.075	988482	keystroke_Key.backspace	Key.backspace	n/a
494.451	0.045	988902	keystroke_Key.backspace	Key.backspace	n/a
494.586	0.135	989172	keystroke_Key.backspace	Key.backspace	n/a
495.291	0.1505	990582	keystroke_e	e	n/a
495.6665	0.135	991333	keystroke_n	n	n/a
495.7865	0.135	991573	keystroke_t	t	n/a
496.0865	0.1345	992173	keystroke_Key.space	Key.space	n/a
496.386	0.135	992772	keystroke_j	j	n/a
496.626	0.1655	993252	keystroke_i	i	n/a
496.7165	0.18	993433	keystroke_u	u	n/a
496.8815	0.225	993763	keystroke_c	c	n/a
497.0165	0.165	994033	keystroke_e	e	n/a
497.9155	0.105	995831	keystroke_Key.backspace	Key.backspace	n/a
498.1255	0.0605	996251	keystroke_Key.backspace	Key.backspace	n/a
498.291	0.075	996582	keystroke_Key.backspace	Key.backspace	n/a
498.441	0.135	996882	keystroke_Key.backspace	Key.backspace	n/a
498.741	0.1795	997482	keystroke_u	u	n/a
498.8315	0.195	997663	keystroke_i	i	n/a
498.9365	0.254	997873	keystroke_c	c	n/a
499.1005	0.21	998201	keystroke_e	e	n/a
499.581	0.165	999162	keystroke_Key.space	Key.space	n/a
499.986	0.135	999972	keystroke_c	c	n/a
500.091	0.105	1000182	keystroke_o	o	n/a
500.256	0.1055	1000512	keystroke_m	m	n/a
500.4515	0.12	1000903	keystroke_p	p	n/a
500.6315	0.149	1001263	keystroke_u	u	n/a
500.7655	0.105	1001531	keystroke_t	t	n/a
500.931	0.165	1001862	keystroke_i	i	n/a
500.991	0.18	1001982	keystroke_n	n	n/a
501.156	0.105	1002312	keystroke_g	g	n/a
501.396	0.1505	1002792	keystroke_Key.space	Key.space	n/a
501.9065	0.135	1003813	keystroke_c	c	n/a
502.4315	0.135	1004863	keystroke_a	a	n/a
502.596	0.165	1005192	keystroke_l	l	n/a
503.001	0.15	1006002	keystroke_e	e	n/a
503.211	0.15	1006422	keystroke_n	n	n/a
503.377	0.164	1006754	keystroke_d	d	n/a
503.571	0.1955	1007142	keystroke_a	a	n/a
503.6615	0.165	1007323	keystroke_r	r	n/a
504.5615	0.1645	1009123	keystroke_Key.enter	Key.enter	n/a
504.731	6.627	1009462	prompt	n/a	errors sleeping maker meet\n
505.551	0.1055	1011102	keystroke_e	e	n/a
505.7905	0.06	1011581	keystroke_r	r	n/a
505.9565	0.104	1011913	keystroke_r	r	n/a
506.0755	0.1805	1012151	keystroke_o	o	n/a
506.181	0.135	1012362	keystroke_r	r	n/a
506.616	0.165	1013232	keystroke_Key.space	Key.space	n/a
507.231	0.0755	1014462	keystroke_Key.backspace	Key.backspace	n/a
507.3665	0.135	1014733	keystroke_s	s	n/a
507.6215	0.1945	1015243	keystroke_Key.space	Key.space	n/a
507.771	0.165	1015542	keystroke_s	s	n/a
508.281	0.135	1016562	keystroke_l	l	n/a
508.446	0.12	1016892	keystroke_e	e	n/a
508.6565	0.165	1017313	keystroke_e	e	n/a
508.7915	0.12	1017583	keystroke_p	p	n/a
509.0165	0.15	1018033	keystroke_i	i	n/a
509.1065	0.135	1018213	keystroke_n	n	n/a
509.2115	0.1345	1018423	keystroke_g	g	n/a
509.331	0.105	1018662	keystroke_Key.space	Key.space	n/a
509.5115	0.12	1019023	keystroke_m	m	n/a
509.6165	0.15	1019233	keystroke_a	a	n/a
509.7215	0.135	1019443	keystroke_k	k	n/a
509.8265	0.15	1019653	keystroke_e	e	n/a
509.9165	0.135	1019833	keystroke_r	r	n/a
510.0365	0.12	1020073	keystroke_Key.space	Key.space	n/a
510.2615	0.135	1020523	keystroke_m	m	n/a
510.3515	0.1195	1020703	keystroke_e	e	n/a
510.606	0.1505	1021212	keystroke_e	e	n/a
510.8165	0.1195	1021633	keystroke_t	t	n/a
511.191	0.165	1022382	keystroke_Key.enter	Key.enter	n/a
511.361	11.067	1022722	prompt	n/a	departmental bloom raising directory\n
512.1515	0.045	1024303	keystroke_d	d	n/a
512.5115	0.12	1025023	keystroke_e	e	n/a
512.7515	0.135	1025503	keystroke_p	p	n/a
512.8415	0.1945	1025683	keystroke_a	a	n/a
512.9465	0.1195	1025893	keystroke_r	r	n/a
513.156	0.12	1026312	keystroke_t	t	n/a
513.501	0.135	1027002	keystroke_m	m	n/a
513.591	0.135	1027182	keystroke_e	e	n/a
513.696	0.135	1027392	keystroke_n	n	n/a
514.041	0.135	1028082	keystroke_t	t	n/a
514.296	0.15	1028592	keystroke_a	a	n/a
514.416	0.1955	1028832	keystroke_l	l	n/a
514.521	0.1645	1029042	keystroke_Key.space	Key.space	n/a
514.8655	0.09	1029731	keystroke_b	b	n/a
515.0605	0.106	1030121	keystroke_l	l	n/a
515.3015	0.059	1030603	keystroke_o	o	n/a
515.466	0.21	1030932	keystroke_o	o	n/a
516.006	0.135	1032012	keystroke_m	m	n/a
516.651	0.165	1033302	keystroke_Key.space	Key.space	n/a
517.176	0.1345	1034352	keystroke_r	r	n/a
517.491	0.1795	1034982	keystroke_a	a	n/a
518.0305	0.135	1036061	keystroke_i	i	n/a
518.2255	0.1655	1036451	keystroke_s	s	n/a
518.346	0.1205	1036692	keystroke_i	i	n/a
518.406	0.1955	1036812	keystroke_n	n	n/a
518.5415	0.135	1037083	keystroke_g	g	n/a
518.8265	0.135	1037653	keystroke_Key.space	Key.space	n/a
519.0815	0.15	1038163	keystroke_d	d	n/a
519.2465	0.1345	1038493	keystroke_i	i	n/a
519.471	0.15	1038942	keystroke_r	r	n/a
519.576	0.15	1039152	keystroke_e	e	n/a
519.801	0.135	1039602	keystroke_c	c	n/a
520.101	0.091	1040202	keystroke_t	t	n/a
520.251	0.1505	1040502	keystroke_o	o	n/a
520.3565	0.135	1040713	keystroke_r	r	n/a
520.5515	0.135	1041103	keystroke_y	y	n/a
522.246	0.18	1044492	keystroke_Key.enter	Key.enter	n/a
522.4305	8.5475	1044861	prompt	n/a	picked salon consist accordingly\n
523.236	0.1055	1046472	keystroke_p	p	n/a
523.4465	0.12	1046893	keystroke_i	i	n/a
523.5215	0.15	1047043	keystroke_c	c	n/a
523.6715	0.15	1047343	keystroke_k	k	n/a
524.0615	0.1205	1048123	keystroke_e	e	n/a
524.256	0.1505	1048512	keystroke_d	d	n/a
524.4215	0.15	1048843	keystroke_Key.space	Key.space	n/a
524.6315	0.12	1049263	keystroke_s	s	n/a
524.8265	0.15	1049653	keystroke_a	a	n/a
524.9915	0.135	1049983	keystroke_l	l	n/a
525.2765	0.15	1050553	keystroke_o	o	n/a
525.3515	0.165	1050703	keystroke_n	n	n/a
525.9515	0.15	1051903	keystroke_Key.space	Key.space	n/a
526.3865	0.135	1052773	keystroke_c	c	n/a
526.4765	0.165	1052953	keystroke_o	o	n/a
526.5515	0.135	1053103	keystroke_n	n	n/a
526.6565	0.165	1053313	keystroke_s	s	n/a
526.8365	0.15	1053673	keystroke_i	i	n/a
527.1815	0.1495	1054363	keystroke_s	s	n/a
527.466	0.1355	1054932	keystroke_t	t	n/a
527.8715	0.12	1055743	keystroke_Key.space	Key.space	n/a
528.1565	0.15	1056313	keystroke_a	a	n/a
528.3815	0.105	1056763	keystroke_c	c	n/a
528.5765	0.165	1057153	keystroke_c	c	n/a
528.9515	0.135	1057903	keystroke_o	o	n/a
529.0265	0.12	1058053	keystroke_r	r	n/a
529.2515	0.135	1058503	keystroke_d	d	n/a
529.3715	0.135	1058743	keystroke_i	i	n/a
529.4465	0.15	1058893	keystroke_n	n	n/a
529.6115	0.135	1059223	keystroke_g	g	n/a
530.0015	0.15	1060003	keystroke_l	l	n/a
530.2565	0.15	1060513	keystroke_y	y	n/a
530.826	0.1505	1061652	keystroke_Key.enter	Key.enter	n/a
530.981	8.622	1061962	prompt	n/a	publishers spin primarily operating\n
531.741	0.135	1063482	keystroke_p	p	n/a
531.966	0.135	1063932	keystroke_u	u	n/a
532.191	0.105	1064382	keystroke_b	b	n/a
532.416	0.1205	1064832	keystroke_l	l	n/a
532.626	0.135	1065252	keystroke_i	i	n/a
533.0305	0.15	1066061	keystroke_s	s	n/a
533.1515	0.12	1066303	keystroke_h	h	n/a
533.2715	0.135	1066543	keystroke_e	e	n/a
533.3465	0.15	1066693	keystroke_r	r	n/a
533.751	0.151	1067502	keystroke_s	s	n/a
534.126	0.18	1068252	keystroke_Key.space	Key.space	n/a
534.381	0.165	1068762	keystroke_s	s	n/a
534.666	0.12	1069332	keystroke_p	p	n/a
534.877	0.149	1069754	keystroke_i	i	n/a
534.951	0.18	1069902	keystroke_n	n	n/a
535.071	0.135	1070142	keystroke_Key.space	Key.space	n/a
535.2815	0.135	1070563	keystroke_p	p	n/a
535.4315	0.12	1070863	keystroke_r	r	n/a
535.5365	0.135	1071073	keystroke_i	i	n/a
535.7765	0.135	1071553	keystroke_m	m	n/a
535.8665	0.135	1071733	keystroke_a	a	n/a
536.0915	0.105	1072183	keystroke_r	r	n/a
536.3465	0.135	1072693	keystroke_i	i	n/a
536.871	0.135	1073742	keystroke_l	l	n/a
537.156	0.165	1074312	keystroke_y	y	n/a
537.291	0.135	1074582	keystroke_Key.space	Key.space	n/a
537.531	0.12	1075062	keystroke_o	o	n/a
537.771	0.135	1075542	keystroke_p	p	n/a
537.876	0.135	1075752	keystroke_e	e	n/a
538.116	0.12	1076232	keystroke_r	r	n/a
538.296	0.255	1076592	keystroke_a	a	n/a
538.446	0.1505	1076892	keystroke_t	t	n/a
538.8965	0.15	1077793	keystroke_i	i	n/a
538.9565	0.165	1077913	keystroke_n	n	n/a
539.0915	0.12	1078183	keystroke_g	g	n/a
539.4515	0.15	1078903	keystroke_Key.enter	Key.enter	n/a
539.607	10.106	1079214	prompt	n/a	syracuse feat protecting pocket\n
540.576	0.1205	1081152	keystroke_s	s	n/a
540.7415	0.135	1081483	keystroke_y	y	n/a
541.0265	0.135	1082053	keystroke_r	r	n/a
541.2065	0.15	1082413	keystroke_a	a	n/a
541.5665	0.12	1083133	keystroke_c	c	n/a
541.6715	0.135	1083343	keystroke_u	u	n/a
541.7915	0.165	1083583	keystroke_s	s	n/a
541.8665	0.165	1083733	keystroke_e	e	n/a
542.1515	0.12	1084303	keystroke_Key.space	Key.space	n/a
542.5115	0.135	1085023	keystroke_f	f	n/a
542.6915	0.135	1085383	keystroke_e	e	n/a
542.9015	0.165	1085803	keystroke_a	a	n/a
543.3515	0.135	1086703	keystroke_t	t	n/a
543.6815	0.15	1087363	keystroke_Key.space	Key.space	n/a
543.9965	0.135	1087993	keystroke_p	p	n/a
544.1165	0.135	1088233	keystroke_r	r	n/a
544.2365	0.18	1088473	keystroke_o	o	n/a
544.866	0.12	1089732	keystroke_t	t	n/a
545.106	0.12	1090212	keystroke_e	e	n/a
545.3315	0.105	1090663	keystroke_c	c	n/a
545.6015	0.12	1091203	keystroke_t	t	n/a
545.7965	0.12	1091593	keystroke_u	u	n/a
546.5615	0.12	1093123	keystroke_Key.backspace	Key.backspace	n/a
546.8465	0.165	1093693	keystroke_i	i	n/a
546.9365	0.165	1093873	keystroke_n	n	n/a
547.0865	0.15	1094173	keystroke_g	g	n/a
547.4615	0.165	1094923	keystroke_Key.space	Key.space	n/a
547.8665	0.12	1095733	keystroke_p	p	n/a
548.1965	0.135	1096393	keystroke_o	o	n/a
548.3465	0.12	1096693	keystroke_c	c	n/a
548.4365	0.15	1096873	keystroke_k	k	n/a
548.6015	0.15	1097203	keystroke_e	e	n/a
548.8265	0.135	1097653	keystroke_t	t	n/a
549.5165	0.1945	1099033	keystroke_Key.enter	Key.enter	n/a
549.7175	10.4805	1099435	prompt	n/a	feat partner accredited directors\n
550.476	0.1205	1100952	keystroke_f	f	n/a
550.6565	0.12	1101313	keystroke_e	e	n/a
550.8365	0.225	1101673	keystroke_a	a	n/a
550.9415	0.15	1101883	keystroke_t	t	n/a
551.331	0.1655	1102662	keystroke_Key.space	Key.space	n/a
551.5715	0.15	1103143	keystroke_p	p	n/a
551.6765	0.18	1103353	keystroke_a	a	n/a
551.7515	0.15	1103503	keystroke_r	r	n/a
551.9915	0.105	1103983	keystroke_t	t	n/a
552.1715	0.15	1104343	keystroke_n	n	n/a
552.2615	0.15	1104523	keystroke_e	e	n/a
552.3365	0.135	1104673	keystroke_r	r	n/a
552.7565	0.165	1105513	keystroke_Key.space	Key.space	n/a
553.0115	0.15	1106023	keystroke_a	a	n/a
553.1765	0.12	1106353	keystroke_c	c	n/a
553.3865	0.135	1106773	keystroke_c	c	n/a
553.9115	0.165	1107823	keystroke_r	r	n/a
554.0465	0.165	1108093	keystroke_e	e	n/a
555.291	0.15	1110582	keystroke_d	d	n/a
555.501	0.135	1111002	keystroke_i	i	n/a
555.666	0.105	1111332	keystroke_t	t	n/a
556.536	0.165	1113072	keystroke_e	e	n/a
556.8965	0.135	1113793	keystroke_d	d	n/a
557.436	0.151	1114872	keystroke_Key.space	Key.space	n/a
557.617	0.15	1115234	keystroke_d	d	n/a
557.752	0.1345	1115504	keystroke_i	i	n/a
557.9915	0.134	1115983	keystroke_r	r	n/a
558.0805	0.166	1116161	keystroke_e	e	n/a
558.3365	0.134	1116673	keystroke_c	c	n/a
558.6815	0.105	1117363	keystroke_t	t	n/a
558.8465	0.135	1117693	keystroke_o	o	n/a
558.9365	0.135	1117873	keystroke_r	r	n/a
559.281	0.151	1118562	keystroke_s	s	n/a
560.046	0.15	1120092	keystroke_Key.enter	Key.enter	n/a
560.201	10.062	1120402	prompt	n/a	animation they've profiles frequencies\n
560.901	0.15	1121802	keystroke_a	a	n/a
561.036	0.18	1122072	keystroke_n	n	n/a
561.186	0.12	1122372	keystroke_i	i	n/a
561.441	0.135	1122882	keystroke_m	m	n/a
561.591	0.12	1123182	keystroke_a	a	n/a
561.846	0.135	1123692	keystroke_t	t	n/a
561.951	0.15	1123902	keystroke_i	i	n/a
562.056	0.2255	1124112	keystroke_o	o	n/a
562.176	0.1655	1124352	keystroke_n	n	n/a
562.3865	0.1505	1124773	keystroke_Key.space	Key.space	n/a
562.656	0.121	1125312	keystroke_t	t	n/a
562.761	0.09	1125522	keystroke_h	h	n/a
562.836	0.15	1125672	keystroke_e	e	n/a
562.941	0.1505	1125882	keystroke_y	y	n/a
563.6465	0.21	1127293	keystroke_'	'	n/a
563.7365	0.09	1127473	keystroke_v	v	n/a
563.8865	0.135	1127773	keystroke_e	e	n/a
564.1115	0.165	1128223	keystroke_Key.space	Key.space	n/a
564.4115	0.15	1128823	keystroke_p	p	n/a
564.6065	0.135	1129213	keystroke_r	r	n/a
564.6965	0.18	1129393	keystroke_o	o	n/a
564.981	0.135	1129962	keystroke_f	f	n/a
565.071	0.12	1130142	keystroke_i	i	n/a
565.251	0.1805	1130502	keystroke_l	l	n/a
565.3415	0.135	1130683	keystroke_e	e	n/a
565.5665	0.149	1131133	keystroke_s	s	n/a
566.2115	0.1645	1132423	keystroke_Key.space	Key.space	n/a
566.541	0.1055	1133082	keystroke_f	f	n/a
566.7365	0.18	1133473	keystroke_r	r	n/a
566.8265	0.165	1133653	keystroke_e	e	n/a
567.1865	0.165	1134373	keystroke_q	q	n/a
567.3365	0.12	1134673	keystroke_u	u	n/a
567.4115	0.165	1134823	keystroke_e	e	n/a
567.5615	0.135	1135123	keystroke_n	n	n/a
567.9215	0.165	1135843	keystroke_c	c	n/a
568.0715	0.135	1136143	keystroke_e	e	n/a
568.8065	0.105	1137613	keystroke_Key.backspace	Key.backspace	n/a
569.0765	0.15	1138153	keystroke_i	i	n/a
569.1365	0.105	1138273	keystroke_e	e	n/a
569.316	0.18	1138632	keystroke_s	s	n/a
570.081	0.18	1140162	keystroke_Key.enter	Key.enter	n/a
570.266	7.6765	1140532	prompt	n/a	wendy winds mars hash\n
571.056	0.12	1142112	keystroke_w	w	n/a
571.236	0.15	1142472	keystroke_e	e	n/a
571.356	0.12	1142712	keystroke_n	n	n/a
571.491	0.151	1142982	keystroke_d	d	n/a
571.656	0.135	1143312	keystroke_y	y	n/a
571.881	0.165	1143762	keystroke_Key.space	Key.space	n/a
572.106	0.15	1144212	keystroke_w	w	n/a
572.406	0.165	1144812	keystroke_i	i	n/a
572.496	0.15	1144992	keystroke_n	n	n/a
572.676	0.135	1145352	keystroke_d	d	n/a
573.126	0.135	1146252	keystroke_s	s	n/a
573.531	0.15	1147062	keystroke_Key.space	Key.space	n/a
574.236	0.165	1148472	keystroke_m	m	n/a
574.371	0.195	1148742	keystroke_a	a	n/a
574.491	0.15	1148982	keystroke_r	r	n/a
574.761	0.135	1149522	keystroke_s	s	n/a
574.956	0.15	1149912	keystroke_Key.space	Key.space	n/a
575.256	0.12	1150512	keystroke_h	h	n/a
575.406	0.1655	1150812	keystroke_a	a	n/a
575.6315	0.1495	1151263	keystroke_s	s	n/a
575.811	0.1805	1151622	keystroke_h	h	n/a
577.791	0.15	1155582	keystroke_Key.enter	Key.enter	n/a
577.9455	10.8575	1155891	prompt	n/a	vintage genres roster monday\n
578.961	0.12	1157922	keystroke_v	v	n/a
579.231	0.1355	1158462	keystroke_i	i	n/a
579.5315	0.105	1159063	keystroke_n	n	n/a
579.6515	0.105	1159303	keystroke_t	t	n/a
579.8315	0.165	1159663	keystroke_a	a	n/a
580.0265	0.09	1160053	keystroke_g	g	n/a
580.1615	0.135	1160323	keystroke_e	e	n/a
580.5065	0.12	1161013	keystroke_Key.space	Key.space	n/a
580.6715	0.075	1161343	keystroke_g	g	n/a
580.8065	0.135	1161613	keystroke_e	e	n/a
580.9115	0.135	1161823	keystroke_n	n	n/a
581.3015	0.105	1162603	keystroke_r	r	n/a
581.4665	0.12	1162933	keystroke_e	e	n/a
581.6915	0.165	1163383	keystroke_s	s	n/a
582.5765	0.165	1165153	keystroke_Key.space	Key.space	n/a
582.8915	0.105	1165783	keystroke_r	r	n/a
583.3715	0.15	1166743	keystroke_s	s	n/a
583.9115	0.105	1167823	keystroke_Key.backspace	Key.backspace	n/a
584.1665	0.15	1168333	keystroke_o	o	n/a
584.2415	0.15	1168483	keystroke_s	s	n/a
584.5115	0.09	1169023	keystroke_t	t	n/a
584.6465	0.195	1169293	keystroke_e	e	n/a
584.7515	0.15	1169503	keystroke_r	r	n/a
585.0215	0.135	1170043	keystroke_Key.space	Key.space	n/a
585.2315	0.105	1170463	keystroke_m	m	n/a
585.4265	0.165	1170853	keystroke_o	o	n/a
585.4865	0.15	1170973	keystroke_n	n	n/a
585.6065	0.165	1171213	keystroke_d	d	n/a
585.7865	0.15	1171573	keystroke_a	a	n/a
585.9215	0.15	1171843	keystroke_y	y	n/a
588.668	0.133	1177336	keystroke_Key.enter	Key.enter	n/a
588.8055	12.4175	1177611	prompt	n/a	trail cycles sink minimize\n
590.317	0.105	1180634	keystroke_t	t	n/a
590.6615	0.135	1181323	keystroke_r	r	n/a
590.8865	0.15	1181773	keystroke_a	a	n/a
591.0515	0.105	1182103	keystroke_i	i	n/a
591.2615	0.1495	1182523	keystroke_l	l	n/a
591.441	0.165	1182882	keystroke_Key.space	Key.space	n/a
591.622	0.149	1183244	keystroke_c	c	n/a
591.787	0.119	1183574	keystroke_y	y	n/a
592.011	0.15	1184022	keystroke_c	c	n/a
592.251	0.165	1184502	keystroke_l	l	n/a
592.6115	0.135	1185223	keystroke_e	e	n/a
592.8515	0.15	1185703	keystroke_s	s	n/a
593.2565	0.135	1186513	keystroke_Key.space	Key.space	n/a
593.5115	0.15	1187023	keystroke_i	i	n/a
593.5865	0.15	1187173	keystroke_n	n	n/a
593.8565	0.1645	1187713	keystroke_k	k	n/a
594.8765	0.09	1189753	keystroke_Key.backspace	Key.backspace	n/a
595.0865	0.045	1190173	keystroke_Key.backspace	Key.backspace	n/a
595.2215	0.1045	1190443	keystroke_Key.backspace	Key.backspace	n/a
595.6265	0.1045	1191253	keystroke_s	s	n/a
595.716	0.15	1191432	keystroke_i	i	n/a
595.791	0.135	1191582	keystroke_n	n	n/a
596.031	0.135	1192062	keystroke_k	k	n/a
596.4055	0.151	1192811	keystroke_Key.space	Key.space	n/a
596.722	0.104	1193444	keystroke_m	m	n/a
596.931	0.105	1193862	keystroke_i	i	n/a
597.112	0.105	1194224	keystroke_n	n	n/a
597.261	0.1205	1194522	keystroke_i	i	n/a
597.6065	0.105	1195213	keystroke_m	m	n/a
597.8315	0.12	1195663	keystroke_i	i	n/a
598.0265	0.24	1196053	keystroke_z	z	n/a
598.1765	0.165	1196353	keystroke_e	e	n/a
601.089	0.132	1202178	keystroke_Key.enter	Key.enter	n/a
601.226	15.762	1202452	prompt	n/a	algeria getting spotlight santa\n
602.3615	0.135	1204723	keystroke_a	a	n/a
602.5565	0.1495	1205113	keystroke_l	l	n/a
603.4265	0.09	1206853	keystroke_g	g	n/a
603.6665	0.12	1207333	keystroke_e	e	n/a
603.9515	0.15	1207903	keystroke_r	r	n/a
604.5065	0.15	1209013	keystroke_i	i	n/a
604.6415	0.15	1209283	keystroke_a	a	n/a
604.9115	0.135	1209823	keystroke_Key.space	Key.space	n/a
605.2265	0.06	1210453	keystroke_g	g	n/a
605.4365	0.135	1210873	keystroke_e	e	n/a
606.906	0.09	1213812	keystroke_r	r	n/a
607.596	0.135	1215192	keystroke_Key.backspace	Key.backspace	n/a
607.776	0.105	1215552	keystroke_t	t	n/a
608.061	0.105	1216122	keystroke_t	t	n/a
608.286	0.15	1216572	keystroke_i	i	n/a
608.361	0.165	1216722	keystroke_n	n	n/a
608.496	0.105	1216992	keystroke_g	g	n/a
608.871	0.15	1217742	keystroke_Key.space	Key.space	n/a
609.4115	0.12	1218823	keystroke_s	s	n/a
609.5915	0.135	1219183	keystroke_p	p	n/a
610.1615	0.12	1220323	keystroke_o	o	n/a
610.941	0.12	1221882	keystroke_t	t	n/a
611.3915	0.09	1222783	keystroke_l	l	n/a
611.5565	0.12	1223113	keystroke_i	i	n/a
611.6465	0.09	1223293	keystroke_g	g	n/a
611.7815	0.135	1223563	keystroke_h	h	n/a
611.9015	0.12	1223803	keystroke_t	t	n/a
612.4415	0.105	1224883	keystroke_Key.space	Key.space	n/a
612.6515	0.135	1225303	keystroke_s	s	n/a
612.7715	0.135	1225543	keystroke_n	n	n/a
612.8915	0.135	1225783	keystroke_a	a	n/a
613.161	0.1055	1226322	keystroke_t	t	n/a
613.3265	0.15	1226653	keystroke_a	a	n/a
613.8815	0.075	1227763	keystroke_Key.backspace	Key.backspace	n/a
614.061	0.06	1228122	keystroke_Key.backspace	Key.backspace	n/a
614.211	0.135	1228422	keystroke_Key.backspace	Key.backspace	n/a
614.361	0.165	1228722	keystroke_a	a	n/a
614.541	0.135	1229082	keystroke_n	n	n/a
614.8715	0.105	1229743	keystroke_Key.backspace	Key.backspace	n/a
615.1565	0.015	1230313	keystroke_Key.backspace	Key.backspace	n/a
615.2165	0.15	1230433	keystroke_Key.backspace	Key.backspace	n/a
615.411	0.18	1230822	keystroke_a	a	n/a
615.711	0.12	1231422	keystroke_n	n	n/a
615.966	0.106	1231932	keystroke_t	t	n/a
616.1315	0.165	1232263	keystroke_a	a	n/a
616.806	0.181	1233612	keystroke_Key.enter	Key.enter	n/a
616.9905	9.297	1233981	prompt	n/a	statutory failed treasure inline\n
617.7365	0.12	1235473	keystroke_s	s	n/a
617.9765	0.09	1235953	keystroke_t	t	n/a
618.0965	0.18	1236193	keystroke_a	a	n/a
618.2615	0.15	1236523	keystroke_t	t	n/a
618.6665	0.15	1237333	keystroke_u	u	n/a
619.1015	0.135	1238203	keystroke_t	t	n/a
619.506	0.18	1239012	keystroke_o	o	n/a
619.731	0.136	1239462	keystroke_r	r	n/a
619.836	0.151	1239672	keystroke_y	y	n/a
620.346	0.15	1240692	keystroke_Key.space	Key.space	n/a
620.572	0.119	1241144	keystroke_f	f	n/a
620.811	0.1355	1241622	keystroke_a	a	n/a
620.9315	0.105	1241863	keystroke_i	i	n/a
621.0965	0.15	1242193	keystroke_l	l	n/a
621.2315	0.12	1242463	keystroke_e	e	n/a
621.4415	0.12	1242883	keystroke_d	d	n/a
622.2515	0.15	1244503	keystroke_Key.space	Key.space	n/a
622.626	0.09	1245252	keystroke_t	t	n/a
622.806	0.165	1245612	keystroke_r	r	n/a
622.881	0.135	1245762	keystroke_e	e	n/a
623.106	0.15	1246212	keystroke_a	a	n/a
623.316	0.135	1246632	keystroke_s	s	n/a
623.496	0.1505	1246992	keystroke_u	u	n/a
623.571	0.1655	1247142	keystroke_r	r	n/a
623.6465	0.15	1247293	keystroke_e	e	n/a
624.1265	0.165	1248253	keystroke_Key.space	Key.space	n/a
624.3965	0.18	1248793	keystroke_i	i	n/a
624.4565	0.21	1248913	keystroke_n	n	n/a
625.1015	0.105	1250203	keystroke_l	l	n/a
625.3115	0.135	1250623	keystroke_i	i	n/a
625.3715	0.15	1250743	keystroke_n	n	n/a
625.5365	0.135	1251073	keystroke_e	e	n/a
626.1215	0.165	1252243	keystroke_Key.enter	Key.enter	n/a
626.2905	11.6675	1252581	prompt	n/a	relevance praise targets hollywood\n
627.7415	0.105	1255483	keystroke_r	r	n/a
627.9065	0.12	1255813	keystroke_e	e	n/a
628.0415	0.135	1256083	keystroke_l	l	n/a
628.1615	0.12	1256323	keystroke_e	e	n/a
628.4165	0.105	1256833	keystroke_v	v	n/a
628.5815	0.165	1257163	keystroke_a	a	n/a
628.6865	0.15	1257373	keystroke_n	n	n/a
628.8065	0.165	1257613	keystroke_c	c	n/a
628.9265	0.135	1257853	keystroke_e	e	n/a
629.332	0.149	1258664	keystroke_Key.space	Key.space	n/a
629.646	0.121	1259292	keystroke_a	a	n/a
630.096	0.121	1260192	keystroke_Key.backspace	Key.backspace	n/a
630.367	0.15	1260734	keystroke_p	p	n/a
630.546	0.1205	1261092	keystroke_r	r	n/a
630.6965	0.15	1261393	keystroke_a	a	n/a
630.9065	0.135	1261813	keystroke_i	i	n/a
631.0115	0.165	1262023	keystroke_s	s	n/a
631.0865	0.165	1262173	keystroke_e	e	n/a
631.3115	0.15	1262623	keystroke_Key.space	Key.space	n/a
631.5515	0.075	1263103	keystroke_t	t	n/a
631.7015	0.18	1263403	keystroke_a	a	n/a
631.7765	0.135	1263553	keystroke_r	r	n/a
632.8565	0.075	1265713	keystroke_g	g	n/a
633.0065	0.195	1266013	keystroke_e	e	n/a
633.1415	0.12	1266283	keystroke_t	t	n/a
633.3965	0.135	1266793	keystroke_s	s	n/a
633.7565	0.15	1267513	keystroke_Key.space	Key.space	n/a
633.9965	0.12	1267993	keystroke_h	h	n/a
634.2365	0.12	1268473	keystroke_o	o	n/a
634.506	0.06	1269012	keystroke_l	l	n/a
634.626	0.15	1269252	keystroke_l	l	n/a
634.896	0.135	1269792	keystroke_y	y	n/a
635.271	0.135	1270542	keystroke_w	w	n/a
635.407	0.074	1270814	keystroke_o	o	n/a
635.571	0.105	1271142	keystroke_o	o	n/a
635.677	0.149	1271354	keystroke_d	d	n/a
637.7765	0.18	1275553	keystroke_Key.enter	Key.enter	n/a
637.961	11.427	1275922	prompt	n/a	champions dedicated google helmet\n
638.8115	0.135	1277623	keystroke_c	c	n/a
638.9015	0.105	1277803	keystroke_h	h	n/a
639.0215	0.15	1278043	keystroke_a	a	n/a
639.1115	0.12	1278223	keystroke_m	m	n/a
639.322	0.12	1278644	keystroke_p	p	n/a
639.517	0.135	1279034	keystroke_i	i	n/a
639.862	0.1645	1279724	keystroke_o	o	n/a
639.9515	0.18	1279903	keystroke_n	n	n/a
640.3115	0.135	1280623	keystroke_s	s	n/a
640.552	0.135	1281104	keystroke_Key.space	Key.space	n/a
640.792	0.12	1281584	keystroke_d	d	n/a
640.987	0.119	1281974	keystroke_e	e	n/a
641.512	0.15	1283024	keystroke_d	d	n/a
641.797	0.12	1283594	keystroke_i	i	n/a
642.247	0.135	1284494	keystroke_c	c	n/a
642.397	0.179	1284794	keystroke_a	a	n/a
642.547	0.12	1285094	keystroke_t	t	n/a
642.637	0.15	1285274	keystroke_e	e	n/a
642.906	0.136	1285812	keystroke_d	d	n/a
643.056	0.165	1286112	keystroke_Key.space	Key.space	n/a
643.267	0.105	1286534	keystroke_g	g	n/a
643.387	0.074	1286774	keystroke_o	o	n/a
643.537	0.15	1287074	keystroke_o	o	n/a
643.656	0.121	1287312	keystroke_g	g	n/a
644.512	0.149	1289024	keystroke_l	l	n/a
644.616	0.15	1289232	keystroke_e	e	n/a
644.931	0.12	1289862	keystroke_Key.space	Key.space	n/a
645.172	0.119	1290344	keystroke_h	h	n/a
645.352	0.1495	1290704	keystroke_e	e	n/a
645.5165	0.15	1291033	keystroke_l	l	n/a
646.071	0.15	1292142	keystroke_m	m	n/a
646.116	0.225	1292232	keystroke_e	e	n/a
646.326	0.165	1292652	keystroke_t	t	n/a
649.314	0.072	1298628	keystroke_Key.enter	Key.enter	n/a
649.391	13.797	1298782	prompt	n/a	stadium groundwater physiology requesting\n
650.1965	0.105	1300393	keystroke_g	g	n/a
650.632	0.12	1301264	keystroke_Key.backspace	Key.backspace	n/a
650.782	0.15	1301564	keystroke_s	s	n/a
651.022	0.12	1302044	keystroke_t	t	n/a
651.202	0.2545	1302404	keystroke_a	a	n/a
651.9965	0.15	1303993	keystroke_d	d	n/a
652.1475	0.119	1304295	keystroke_i	i	n/a
652.3415	0.135	1304683	keystroke_u	u	n/a
652.657	0.1195	1305314	keystroke_m	m	n/a
652.9265	0.1355	1305853	keystroke_Key.space	Key.space	n/a
653.092	0.105	1306184	keystroke_g	g	n/a
653.302	0.045	1306604	keystroke_o	o	n/a
653.8715	0.09	1307743	keystroke_Key.backspace	Key.backspace	n/a
654.0215	0.12	1308043	keystroke_r	r	n/a
654.1265	0.195	1308253	keystroke_o	o	n/a
654.2315	0.135	1308463	keystroke_u	u	n/a
654.4715	0.12	1308943	keystroke_n	n	n/a
654.6065	0.12	1309213	keystroke_d	d	n/a
654.8165	0.15	1309633	keystroke_w	w	n/a
655.0415	0.2255	1310083	keystroke_a	a	n/a
655.1765	0.12	1310353	keystroke_t	t	n/a
655.3715	0.165	1310743	keystroke_e	e	n/a
655.4465	0.15	1310893	keystroke_r	r	n/a
655.9715	0.15	1311943	keystroke_Key.space	Key.space	n/a
656.1965	0.135	1312393	keystroke_p	p	n/a
656.4065	0.105	1312813	keystroke_h	h	n/a
656.631	0.136	1313262	keystroke_y	y	n/a
657.606	0.166	1315212	keystroke_s	s	n/a
658.3565	0.165	1316713	keystroke_i	i	n/a
658.731	0.1205	1317462	keystroke_o	o	n/a
659.557	0.135	1319114	keystroke_l	l	n/a
659.857	0.12	1319714	keystroke_o	o	n/a
660.0965	0.12	1320193	keystroke_g	g	n/a
660.2315	0.1505	1320463	keystroke_y	y	n/a
660.547	0.1345	1321094	keystroke_Key.space	Key.space	n/a
660.7565	0.165	1321513	keystroke_r	r	n/a
660.8465	0.165	1321693	keystroke_e	e	n/a
661.0715	0.1945	1322143	keystroke_q	q	n/a
661.2515	0.1355	1322503	keystroke_u	u	n/a
661.312	0.12	1322624	keystroke_e	e	n/a
661.477	0.255	1322954	keystroke_s	s	n/a
661.612	0.15	1323224	keystroke_t	t	n/a
661.8215	0.135	1323643	keystroke_i	i	n/a
661.8965	0.15	1323793	keystroke_n	n	n/a
662.0165	0.105	1324033	keystroke_g	g	n/a
663.022	0.165	1326044	keystroke_Key.enter	Key.enter	n/a
663.193	9.685	1326386	prompt	n/a	vietnamese payable holding generally\n
663.982	0.135	1327964	keystroke_v	v	n/a
664.192	0.135	1328384	keystroke_i	i	n/a
664.5365	0.135	1329073	keystroke_e	e	n/a
664.792	0.105	1329584	keystroke_t	t	n/a
665.212	0.15	1330424	keystroke_n	n	n/a
665.437	0.15	1330874	keystroke_a	a	n/a
665.812	0.18	1331624	keystroke_m	m	n/a
666.232	0.12	1332464	keystroke_e	e	n/a
666.487	0.165	1332974	keystroke_s	s	n/a
666.562	0.18	1333124	keystroke_e	e	n/a
666.892	0.1495	1333784	keystroke_Key.space	Key.space	n/a
667.1165	0.1505	1334233	keystroke_p	p	n/a
667.2365	0.15	1334473	keystroke_a	a	n/a
667.4165	0.135	1334833	keystroke_y	y	n/a
667.717	0.164	1335434	keystroke_a	a	n/a
667.9115	0.09	1335823	keystroke_b	b	n/a
668.1365	0.15	1336273	keystroke_l	l	n/a
668.3315	0.15	1336663	keystroke_e	e	n/a
668.8115	0.1645	1337623	keystroke_Key.space	Key.space	n/a
669.111	0.135	1338222	keystroke_h	h	n/a
669.202	0.1345	1338404	keystroke_o	o	n/a
669.3965	0.12	1338793	keystroke_l	l	n/a
669.4865	0.165	1338973	keystroke_d	d	n/a
669.6365	0.15	1339273	keystroke_i	i	n/a
669.7115	0.15	1339423	keystroke_n	n	n/a
669.8315	0.1205	1339663	keystroke_g	g	n/a
670.071	0.135	1340142	keystroke_Key.space	Key.space	n/a
670.386	0.091	1340772	keystroke_g	g	n/a
670.582	0.134	1341164	keystroke_e	e	n/a
670.701	0.15	1341402	keystroke_n	n	n/a
670.867	0.135	1341734	keystroke_e	e	n/a
671.436	0.12	1342872	keystroke_r	r	n/a
671.646	0.136	1343292	keystroke_a	a	n/a
671.811	0.106	1343622	keystroke_l	l	n/a
671.991	0.166	1343982	keystroke_l	l	n/a
672.276	0.15	1344552	keystroke_y	y	n/a
672.726	0.15	1345452	keystroke_Key.enter	Key.enter	n/a
672.881	11.6525	1345762	prompt	n/a	soldier conventions myers worlds\n
673.686	0.135	1347372	keystroke_s	s	n/a
673.836	0.105	1347672	keystroke_o	o	n/a
674.016	0.165	1348032	keystroke_l	l	n/a
674.136	0.1205	1348272	keystroke_d	d	n/a
674.8265	0.135	1349653	keystroke_i	i	n/a
674.8865	0.18	1349773	keystroke_e	e	n/a
674.9765	0.165	1349953	keystroke_r	r	n/a
675.3065	0.1795	1350613	keystroke_Key.space	Key.space	n/a
675.621	0.165	1351242	keystroke_s	s	n/a
676.266	0.105	1352532	keystroke_Key.backspace	Key.backspace	n/a
676.401	0.135	1352802	keystroke_c	c	n/a
676.566	0.165	1353132	keystroke_o	o	n/a
676.656	0.195	1353312	keystroke_n	n	n/a
677.211	0.1055	1354422	keystroke_v	v	n/a
677.421	0.121	1354842	keystroke_e	e	n/a
677.512	0.135	1355024	keystroke_n	n	n/a
677.722	0.105	1355444	keystroke_t	t	n/a
677.812	0.15	1355624	keystroke_i	i	n/a
677.887	0.18	1355774	keystroke_o	o	n/a
677.977	0.165	1355954	keystroke_n	n	n/a
678.127	0.165	1356254	keystroke_s	s	n/a
678.682	0.135	1357364	keystroke_Key.space	Key.space	n/a
678.877	0.165	1357754	keystroke_m	m	n/a
679.012	0.135	1358024	keystroke_e	e	n/a
679.7765	0.06	1359553	keystroke_Key.backspace	Key.backspace	n/a
679.9715	0.15	1359943	keystroke_y	y	n/a
680.0915	0.195	1360183	keystroke_e	e	n/a
680.1965	0.18	1360393	keystroke_r	r	n/a
681.3665	0.15	1362733	keystroke_s	s	n/a
681.8765	0.165	1363753	keystroke_Key.space	Key.space	n/a
682.0715	0.1205	1364143	keystroke_w	w	n/a
682.1615	0.12	1364323	keystroke_o	o	n/a
682.2665	0.105	1364533	keystroke_r	r	n/a
682.3865	0.1505	1364773	keystroke_l	l	n/a
682.477	0.1345	1364954	keystroke_d	d	n/a
682.6415	0.15	1365283	keystroke_s	s	n/a
684.3365	0.195	1368673	keystroke_Key.enter	Key.enter	n/a
684.5365	11.4715	1369073	prompt	n/a	troops dvds assure departmental\n
685.597	0.12	1371194	keystroke_t	t	n/a
685.837	0.135	1371674	keystroke_r	r	n/a
686.017	0.09	1372034	keystroke_o	o	n/a
686.182	0.135	1372364	keystroke_o	o	n/a
686.677	0.18	1373354	keystroke_p	p	n/a
686.977	0.165	1373954	keystroke_s	s	n/a
687.3365	0.165	1374673	keystroke_Key.space	Key.space	n/a
687.892	0.135	1375784	keystroke_d	d	n/a
688.357	0.105	1376714	keystroke_v	v	n/a
688.5965	0.135	1377193	keystroke_d	d	n/a
688.9115	0.1505	1377823	keystroke_s	s	n/a
689.541	0.165	1379082	keystroke_Key.space	Key.space	n/a
689.781	0.136	1379562	keystroke_a	a	n/a
690.006	0.105	1380012	keystroke_s	s	n/a
690.171	0.136	1380342	keystroke_s	s	n/a
690.352	0.1345	1380704	keystroke_u	u	n/a
690.4265	0.15	1380853	keystroke_r	r	n/a
690.5015	0.1495	1381003	keystroke_e	e	n/a
691.5815	0.135	1383163	keystroke_Key.space	Key.space	n/a
691.7915	0.12	1383583	keystroke_d	d	n/a
692.0015	0.165	1384003	keystroke_e	e	n/a
692.2265	0.15	1384453	keystroke_p	p	n/a
692.3615	0.2095	1384723	keystroke_a	a	n/a
692.4665	0.1495	1384933	keystroke_r	r	n/a
692.736	0.1505	1385472	keystroke_t	t	n/a
693.2015	0.1205	1386403	keystroke_m	m	n/a
693.277	0.15	1386554	keystroke_e	e	n/a
693.397	0.15	1386794	keystroke_n	n	n/a
693.9665	0.12	1387933	keystroke_t	t	n/a
694.2065	0.15	1388413	keystroke_a	a	n/a
694.3415	0.15	1388683	keystroke_l	l	n/a
695.8265	0.18	1391653	keystroke_Key.enter	Key.enter	n/a
696.011	11.622	1392022	prompt	n/a	logs exposure methodology documentation\n
697.161	0.1055	1394322	keystroke_l	l	n/a
697.386	0.12	1394772	keystroke_o	o	n/a
697.491	0.105	1394982	keystroke_g	g	n/a
697.8365	0.15	1395673	keystroke_s	s	n/a
698.2565	0.15	1396513	keystroke_Key.space	Key.space	n/a
698.5115	0.135	1397023	keystroke_e	e	n/a
698.8865	0.18	1397773	keystroke_x	x	n/a
699.4265	0.12	1398853	keystroke_p	p	n/a
699.6665	0.165	1399333	keystroke_o	o	n/a
699.7865	0.1505	1399573	keystroke_s	s	n/a
699.967	0.1495	1399934	keystroke_u	u	n/a
700.0715	0.135	1400143	keystroke_r	r	n/a
700.1315	0.15	1400263	keystroke_e	e	n/a
700.2965	0.15	1400593	keystroke_Key.space	Key.space	n/a
700.5665	0.15	1401133	keystroke_m	m	n/a
700.6865	0.135	1401373	keystroke_e	e	n/a
700.9865	0.135	1401973	keystroke_t	t	n/a
701.0765	0.21	1402153	keystroke_h	h	n/a
701.1515	0.225	1402303	keystroke_o	o	n/a
701.6915	0.15	1403383	keystroke_d	d	n/a
701.7665	0.135	1403533	keystroke_o	o	n/a
701.9915	0.135	1403983	keystroke_l	l	n/a
702.6665	0.1645	1405333	keystroke_o	o	n/a
703.012	0.134	1406024	keystroke_g	g	n/a
703.131	0.15	1406262	keystroke_y	y	n/a
703.446	0.15	1406892	keystroke_Key.space	Key.space	n/a
703.656	0.135	1407312	keystroke_d	d	n/a
703.761	0.165	1407522	keystroke_o	o	n/a
703.896	0.1355	1407792	keystroke_c	c	n/a
704.0165	0.135	1408033	keystroke_u	u	n/a
704.346	0.12	1408692	keystroke_m	m	n/a
704.481	0.12	1408962	keystroke_e	e	n/a
704.556	0.12	1409112	keystroke_n	n	n/a
704.7515	0.135	1409503	keystroke_t	t	n/a
704.9615	0.165	1409923	keystroke_a	a	n/a
705.1715	0.1495	1410343	keystroke_t	t	n/a
705.2315	0.1205	1410463	keystroke_i	i	n/a
705.306	0.166	1410612	keystroke_o	o	n/a
705.381	0.181	1410762	keystroke_n	n	n/a
707.482	0.15	1414964	keystroke_Key.enter	Key.enter	n/a
707.636	12.883	1415272	prompt	n/a	how'd attitude indonesian partition\n
708.8465	0.09	1417693	keystroke_h	h	n/a
709.0865	0.165	1418173	keystroke_o	o	n/a
709.5215	0.15	1419043	keystroke_w	w	n/a
709.9115	0.18	1419823	keystroke_'	'	n/a
709.9865	0.165	1419973	keystroke_d	d	n/a
710.5265	0.165	1421053	keystroke_Key.space	Key.space	n/a
710.7815	0.135	1421563	keystroke_a	a	n/a
711.0665	0.03	1422133	keystroke_t	t	n/a
711.2165	0.1045	1422433	keystroke_t	t	n/a
711.636	0.15	1423272	keystroke_i	i	n/a
711.966	0.12	1423932	keystroke_t	t	n/a
712.116	0.151	1424232	keystroke_u	u	n/a
712.281	0.105	1424562	keystroke_d	d	n/a
712.506	0.121	1425012	keystroke_e	e	n/a
712.732	0.135	1425464	keystroke_Key.space	Key.space	n/a
712.9715	0.15	1425943	keystroke_i	i	n/a
713.0465	0.15	1426093	keystroke_n	n	n/a
713.2565	0.15	1426513	keystroke_d	d	n/a
713.3615	0.165	1426723	keystroke_o	o	n/a
713.6465	0.15	1427293	keystroke_n	n	n/a
713.7815	0.135	1427563	keystroke_e	e	n/a
714.1565	0.135	1428313	keystroke_s	s	n/a
714.2615	0.135	1428523	keystroke_i	i	n/a
714.4115	0.1655	1428823	keystroke_a	a	n/a
714.5465	0.1355	1429093	keystroke_n	n	n/a
715.027	0.165	1430054	keystroke_Key.space	Key.space	n/a
716.9015	0.165	1433803	keystroke_p	p	n/a
717.0215	0.165	1434043	keystroke_a	a	n/a
717.1265	0.15	1434253	keystroke_r	r	n/a
717.5015	0.165	1435003	keystroke_t	t	n/a
717.7265	0.165	1435453	keystroke_i	i	n/a
718.206	0.105	1436412	keystroke_t	t	n/a
718.296	0.165	1436592	keystroke_i	i	n/a
718.401	0.226	1436802	keystroke_o	o	n/a
718.506	0.196	1437012	keystroke_n	n	n/a
720.3215	0.196	1440643	keystroke_Key.enter	Key.enter	n/a
720.522	8.516	1441044	prompt	n/a	contractors worcester find drive\n
721.327	0.135	1442654	keystroke_c	c	n/a
721.447	0.179	1442894	keystroke_o	o	n/a
721.507	0.18	1443014	keystroke_n	n	n/a
721.702	0.075	1443404	keystroke_t	t	n/a
721.882	0.119	1443764	keystroke_r	r	n/a
722.077	0.165	1444154	keystroke_a	a	n/a
722.197	0.15	1444394	keystroke_c	c	n/a
722.497	0.105	1444994	keystroke_t	t	n/a
723.606	0.15	1447212	keystroke_o	o	n/a
723.697	0.12	1447394	keystroke_r	r	n/a
723.921	0.135	1447842	keystroke_s	s	n/a
724.6415	0.12	1449283	keystroke_Key.space	Key.space	n/a
724.9265	0.15	1449853	keystroke_w	w	n/a
725.0615	0.12	1450123	keystroke_o	o	n/a
725.1215	0.15	1450243	keystroke_r	r	n/a
725.5415	0.12	1451083	keystroke_c	c	n/a
725.7065	0.1355	1451413	keystroke_e	e	n/a
725.886	0.18	1451772	keystroke_s	s	n/a
726.022	0.12	1452044	keystroke_t	t	n/a
726.172	0.164	1452344	keystroke_e	e	n/a
726.276	0.151	1452552	keystroke_r	r	n/a
726.592	0.1495	1453184	keystroke_Key.space	Key.space	n/a
726.7265	0.135	1453453	keystroke_f	f	n/a
726.8465	0.165	1453693	keystroke_i	i	n/a
726.9365	0.135	1453873	keystroke_n	n	n/a
727.0415	0.15	1454083	keystroke_d	d	n/a
727.2365	0.1205	1454473	keystroke_Key.space	Key.space	n/a
