onset	duration	sample	value	key	prompt_text
5.443	0	10886	keystroke	Key.enter	n/a
5.477	10.7875	10954	prompt	n/a	the quick brown fox jumps over a lazy dog\n
6.5715	0.075	13143	keystroke	t	n/a
6.6315	0.105	13263	keystroke	h	n/a
6.7215	0.06	13443	keystroke	e	n/a
6.7965	0.105	13593	keystroke	Key.space	n/a
6.8715	0.105	13743	keystroke	w	n/a
6.9615	0.12	13923	keystroke	u	n/a
7.0515	0.06	14103	keystroke	i	n/a
7.1265	0.105	14253	keystroke	c	n/a
7.2165	0.06	14433	keystroke	k	n/a
7.2465	0.135	14493	keystroke	Key.space	n/a
7.3515	0.105	14703	keystroke	b	n/a
7.4715	0.105	14943	keystroke	r	n/a
7.5465	0.075	15093	keystroke	o	n/a
7.6365	0.105	15273	keystroke	w	n/a
7.7265	0.105	15453	keystroke	n	n/a
7.7865	0.105	15573	keystroke	Key.space	n/a
7.8765	0.105	15753	keystroke	f	n/a
7.9965	0.075	15993	keystroke	o	n/a
8.2965	0.435	16593	keystroke	Key.backspace	n/a
8.9115	0.045	17823	keystroke	Key.backspace	n/a
9.0915	0.06	18183	keystroke	Key.backspace	n/a
9.286	0.045	18572	keystroke	Key.backspace	n/a
9.4815	0.03	18963	keystroke	Key.backspace	n/a
9.6465	0.045	19293	keystroke	Key.backspace	n/a
9.8415	0.06	19683	keystroke	Key.backspace	n/a
10.0365	0.06	20073	keystroke	Key.backspace	n/a
10.2315	0.045	20463	keystroke	Key.backspace	n/a
10.411	0.06	20822	keystroke	Key.backspace	n/a
10.606	0.06	21212	keystroke	Key.backspace	n/a
10.816	0.045	21632	keystroke	Key.backspace	n/a
11.071	0.06	22142	keystroke	Key.backspace	n/a
11.356	0.045	22712	keystroke	Key.backspace	n/a
11.987	0.135	23974	keystroke	q	n/a
12.136	0.12	24272	keystroke	u	n/a
12.181	0.091	24362	keystroke	i	n/a
12.286	0.12	24572	keystroke	c	n/a
12.377	0.105	24754	keystroke	k	n/a
12.451	0.075	24902	keystroke	Key.space	n/a
12.616	0.075	25232	keystroke	b	n/a
12.737	0.09	25474	keystroke	r	n/a
12.811	0.076	25622	keystroke	o	n/a
12.917	0.134	25834	keystroke	w	n/a
13.066	0.091	26132	keystroke	n	n/a
13.246	0.105	26492	keystroke	Key.space	n/a
13.322	0.075	26644	keystroke	f	n/a
13.442	0.105	26884	keystroke	o	n/a
13.757	0.09	27514	keystroke	x	n/a
13.831	0.105	27662	keystroke	Key.space	n/a
13.937	0.06	27874	keystroke	j	n/a
14.116	0.061	28232	keystroke	u	n/a
14.297	0.12	28594	keystroke	m	n/a
14.372	0.089	28744	keystroke	p	n/a
14.477	0.105	28954	keystroke	s	n/a
14.551	0.135	29102	keystroke	Key.space	n/a
14.612	0.119	29224	keystroke	o	n/a
14.717	0.06	29434	keystroke	v	n/a
14.8365	0.1645	29673	keystroke	e	n/a
14.941	0.105	29882	keystroke	r	n/a
15.016	0.09	30032	keystroke	Key.space	n/a
15.121	0.1055	30242	keystroke	a	n/a
15.1965	0.045	30393	keystroke	Key.space	n/a
15.2115	0.12	30423	keystroke	l	n/a
15.3165	0.15	30633	keystroke	a	n/a
15.4215	0.105	30843	keystroke	z	n/a
15.4965	0.09	30993	keystroke	y	n/a
15.6165	0.1345	31233	keystroke	Key.space	n/a
15.706	0.09	31412	keystroke	d	n/a
15.811	0.09	31622	keystroke	o	n/a
15.916	0.06	31832	keystroke	g	n/a
16.216	0.045	32432	keystroke	Key.enter	n/a
16.2715	8.6175	32543	prompt	n/a	massachusetts fridge verify guidance\n
17.0715	0.119	34143	keystroke	m	n/a
17.2215	0.134	34443	keystroke	a	n/a
17.3255	0.136	34651	keystroke	s	n/a
17.8655	0.15	35731	keystroke	s	n/a
18.2115	0.104	36423	keystroke	a	n/a
18.4665	0.12	36933	keystroke	c	n/a
18.6015	0.104	37203	keystroke	h	n/a
18.8115	0.135	37623	keystroke	u	n/a
19.0215	0.105	38043	keystroke	s	n/a
19.2765	0.12	38553	keystroke	e	n/a
19.4715	0.075	38943	keystroke	t	n/a
19.6665	0.105	39333	keystroke	t	n/a
19.7565	0.135	39513	keystroke	s	n/a
19.8465	0.164	39693	keystroke	Key.space	n/a
20.9565	0.12	41913	keystroke	f	n/a
21.1665	0.09	42333	keystroke	r	n/a
21.3015	0.075	42603	keystroke	u	n/a
21.4215	0.09	42843	keystroke	d	n/a
21.5865	0.075	43173	keystroke	g	n/a
21.8415	0.12	43683	keystroke	e	n/a
22.0515	0.105	44103	keystroke	Key.space	n/a
22.3815	0.09	44763	keystroke	v	n/a
22.6215	0.18	45243	keystroke	e	n/a
22.7565	0.12	45513	keystroke	r	n/a
22.8915	0.09	45783	keystroke	i	n/a
23.1315	0.12	46263	keystroke	f	n/a
23.2815	0.165	46563	keystroke	y	n/a
23.4615	0.135	46923	keystroke	Key.space	n/a
23.8215	0.105	47643	keystroke	g	n/a
23.9415	0.165	47883	keystroke	u	n/a
24.0315	0.15	48063	keystroke	i	n/a
24.2115	0.15	48423	keystroke	d	n/a
24.3165	0.09	48633	keystroke	a	n/a
24.4215	0.105	48843	keystroke	n	n/a
24.5415	0.135	49083	keystroke	c	n/a
24.6465	0.12	49293	keystroke	e	n/a
24.7515	0.135	49503	keystroke	Key.enter	n/a
24.8945	5.619	49789	prompt	n/a	motor resort specify designing\n
25.8615	0.135	51723	keystroke	m	n/a
25.9665	0.12	51933	keystroke	o	n/a
26.1615	0.09	52323	keystroke	t	n/a
26.3415	0.09	52683	keystroke	o	n/a
26.4615	0.105	52923	keystroke	r	n/a
26.6265	0.12	53253	keystroke	Key.space	n/a
26.7015	0.195	53403	keystroke	r	n/a
26.7915	0.18	53583	keystroke	e	n/a
26.8665	0.165	53733	keystroke	s	n/a
27.0165	0.09	54033	keystroke	o	n/a
27.1365	0.105	54273	keystroke	r	n/a
27.3315	0.09	54663	keystroke	t	n/a
27.4365	0.12	54873	keystroke	Key.space	n/a
27.5715	0.09	55143	keystroke	s	n/a
27.6915	0.12	55383	keystroke	p	n/a
27.7665	0.09	55533	keystroke	e	n/a
27.9615	0.105	55923	keystroke	c	n/a
28.0515	0.135	56103	keystroke	i	n/a
28.2615	0.135	56523	keystroke	f	n/a
28.4265	0.105	56853	keystroke	y	n/a
28.6065	0.075	57213	keystroke	Key.space	n/a
29.4165	0.21	58833	keystroke	d	n/a
29.5365	0.195	59073	keystroke	e	n/a
29.6415	0.165	59283	keystroke	s	n/a
29.7465	0.105	59493	keystroke	i	n/a
29.8815	0.12	59763	keystroke	g	n/a
29.9865	0.06	59973	keystroke	n	n/a
30.0615	0.075	60123	keystroke	i	n/a
30.1365	0.105	60273	keystroke	n	n/a
30.2865	0.075	60573	keystroke	g	n/a
30.4665	0.045	60933	keystroke	Key.enter	n/a
30.5185	7.12	61037	prompt	n/a	interracial belfast excitement starter\n
31.2915	0.135	62583	keystroke	i	n/a
31.3665	0.15	62733	keystroke	n	n/a
31.4265	0.12	62853	keystroke	t	n/a
31.5615	0.18	63123	keystroke	e	n/a
31.6815	0.135	63363	keystroke	r	n/a
31.951	0.135	63902	keystroke	r	n/a
32.161	0.135	64322	keystroke	a	n/a
32.506	0.135	65012	keystroke	c	n/a
32.626	0.075	65252	keystroke	i	n/a
32.747	0.149	65494	keystroke	a	n/a
32.837	0.134	65674	keystroke	l	n/a
32.926	0.135	65852	keystroke	Key.space	n/a
33.496	0.06	66992	keystroke	b	n/a
33.722	0.119	67444	keystroke	e	n/a
33.826	0.18	67652	keystroke	l	n/a
34.426	0.121	68852	keystroke	f	n/a
34.516	0.225	69032	keystroke	a	n/a
34.696	0.18	69392	keystroke	s	n/a
34.831	0.15	69662	keystroke	t	n/a
34.966	0.165	69932	keystroke	Key.space	n/a
35.116	0.27	70232	keystroke	e	n/a
35.296	0.135	70592	keystroke	x	n/a
35.536	0.105	71072	keystroke	c	n/a
35.686	0.135	71372	keystroke	i	n/a
35.806	0.165	71612	keystroke	t	n/a
35.897	0.119	71794	keystroke	e	n/a
36.031	0.09	72062	keystroke	m	n/a
36.151	0.121	72302	keystroke	e	n/a
36.301	0.15	72602	keystroke	n	n/a
36.406	0.136	72812	keystroke	t	n/a
36.526	0.135	73052	keystroke	Key.space	n/a
36.602	0.104	73204	keystroke	s	n/a
36.722	0.074	73444	keystroke	t	n/a
36.767	0.164	73534	keystroke	a	n/a
36.917	0.104	73834	keystroke	r	n/a
37.096	0.09	74192	keystroke	t	n/a
37.246	0.106	74492	keystroke	e	n/a
37.336	0.061	74672	keystroke	r	n/a
37.561	0.075	75122	keystroke	Key.enter	n/a
37.643	5.9655	75286	prompt	n/a	tutorial renaissance hormone defines\n
38.432	0.105	76864	keystroke	t	n/a
38.522	0.104	77044	keystroke	u	n/a
38.642	0.105	77284	keystroke	t	n/a
38.732	0.134	77464	keystroke	o	n/a
38.882	0.09	77764	keystroke	r	n/a
38.957	0.104	77914	keystroke	i	n/a
39.092	0.15	78184	keystroke	a	n/a
39.227	0.12	78454	keystroke	l	n/a
39.287	0.149	78574	keystroke	Key.space	n/a
39.451	0.135	78902	keystroke	r	n/a
39.541	0.166	79082	keystroke	e	n/a
39.692	0.135	79384	keystroke	n	n/a
39.917	0.135	79834	keystroke	a	n/a
40.127	0.12	80254	keystroke	i	n/a
40.292	0.105	80584	keystroke	s	n/a
40.502	0.09	81004	keystroke	s	n/a
40.561	0.136	81122	keystroke	a	n/a
40.742	0.12	81484	keystroke	n	n/a
40.907	0.15	81814	keystroke	c	n/a
41.011	0.136	82022	keystroke	e	n/a
41.071	0.105	82142	keystroke	Key.space	n/a
41.147	0.135	82294	keystroke	h	n/a
41.252	0.149	82504	keystroke	o	n/a
41.371	0.121	82742	keystroke	r	n/a
41.446	0.135	82892	keystroke	m	n/a
41.567	0.15	83134	keystroke	o	n/a
41.702	0.12	83404	keystroke	n	n/a
41.987	0.12	83974	keystroke	e	n/a
42.211	0.136	84422	keystroke	Key.space	n/a
42.752	0.12	85504	keystroke	d	n/a
42.842	0.18	85684	keystroke	e	n/a
42.977	0.165	85954	keystroke	f	n/a
43.067	0.149	86134	keystroke	i	n/a
43.187	0.105	86374	keystroke	n	n/a
43.261	0.151	86522	keystroke	e	n/a
43.337	0.18	86674	keystroke	s	n/a
43.471	0.135	86942	keystroke	Key.enter	n/a
43.6125	5.727	87225	prompt	n/a	behind tiger earthquake disorder\n
44.537	0.09	89074	keystroke	b	n/a
44.702	0.075	89404	keystroke	e	n/a
44.761	0.136	89522	keystroke	h	n/a
44.882	0.149	89764	keystroke	i	n/a
44.972	0.105	89944	keystroke	n	n/a
45.092	0.09	90184	keystroke	d	n/a
45.226	0.12	90452	keystroke	Key.space	n/a
45.437	0.06	90874	keystroke	t	n/a
45.527	0.135	91054	keystroke	i	n/a
45.647	0.105	91294	keystroke	g	n/a
45.797	0.18	91594	keystroke	e	n/a
45.932	0.12	91864	keystroke	r	n/a
46.052	0.134	92104	keystroke	Key.space	n/a
46.127	0.15	92254	keystroke	e	n/a
46.217	0.195	92434	keystroke	a	n/a
46.427	0.09	92854	keystroke	r	n/a
46.682	0.105	93364	keystroke	t	n/a
46.847	0.12	93694	keystroke	h	n/a
47.102	0.075	94204	keystroke	q	n/a
47.222	0.105	94444	keystroke	u	n/a
47.327	0.12	94654	keystroke	a	n/a
47.537	0.105	95074	keystroke	k	n/a
47.807	0.09	95614	keystroke	e	n/a
47.942	0.135	95884	keystroke	Key.space	n/a
48.062	0.09	96124	keystroke	d	n/a
48.167	0.12	96334	keystroke	i	n/a
48.242	0.12	96484	keystroke	s	n/a
48.377	0.12	96754	keystroke	o	n/a
48.482	0.09	96964	keystroke	r	n/a
48.752	0.105	97504	keystroke	d	n/a
48.962	0.15	97924	keystroke	e	n/a
49.052	0.12	98104	keystroke	r	n/a
49.247	0.09	98494	keystroke	Key.enter	n/a
49.3455	8.768	98691	prompt	n/a	acquired begun empirical ultra\n
50.147	0.165	100294	keystroke	a	n/a
50.687	0.105	101374	keystroke	c	n/a
50.912	0.09	101824	keystroke	q	n/a
51.092	0.15	102184	keystroke	u	n/a
51.197	0.165	102394	keystroke	i	n/a
51.317	0.135	102634	keystroke	r	n/a
51.392	0.135	102784	keystroke	e	n/a
51.647	0.135	103294	keystroke	d	n/a
51.767	0.15	103534	keystroke	Key.space	n/a
52.127	0.09	104254	keystroke	b	n/a
52.217	0.15	104434	keystroke	e	n/a
52.352	0.12	104704	keystroke	g	n/a
52.532	0.15	105064	keystroke	u	n/a
52.652	0.15	105304	keystroke	n	n/a
52.982	0.135	105964	keystroke	Key.space	n/a
53.342	0.165	106684	keystroke	e	n/a
53.492	0.135	106984	keystroke	m	n/a
53.567	0.12	107134	keystroke	p	n/a
54.062	0.075	108124	keystroke	r	n/a
54.182	0.12	108364	keystroke	i	n/a
54.317	0.135	108634	keystroke	c	n/a
54.392	0.15	108784	keystroke	a	n/a
54.542	0.045	109084	keystroke	l	n/a
54.962	0.075	109924	keystroke	Key.backspace	n/a
55.142	0.075	110284	keystroke	Key.backspace	n/a
55.352	0.06	110704	keystroke	Key.backspace	n/a
55.652	0.045	111304	keystroke	Key.backspace	n/a
55.922	0.075	111844	keystroke	Key.backspace	n/a
56.207	0.15	112414	keystroke	e	n/a
56.297	0.105	112594	keystroke	r	n/a
56.477	0.09	112954	keystroke	i	n/a
56.687	0.105	113374	keystroke	c	n/a
56.747	0.12	113494	keystroke	a	n/a
56.882	0.135	113764	keystroke	l	n/a
57.077	0.135	114154	keystroke	Key.space	n/a
57.422	0.12	114844	keystroke	u	n/a
57.497	0.18	114994	keystroke	l	n/a
57.617	0.075	115234	keystroke	t	n/a
57.782	0.09	115564	keystroke	r	n/a
57.827	0.135	115654	keystroke	a	n/a
58.022	0.09	116044	keystroke	Key.enter	n/a
58.1205	5.9175	116241	prompt	n/a	tutorials steven lending known\n
59.042	0.165	118084	keystroke	t	n/a
59.222	0.12	118444	keystroke	u	n/a
59.402	0.105	118804	keystroke	t	n/a
59.522	0.075	119044	keystroke	o	n/a
59.642	0.105	119284	keystroke	r	n/a
59.762	0.09	119524	keystroke	i	n/a
59.897	0.135	119794	keystroke	a	n/a
60.092	0.12	120184	keystroke	l	n/a
60.437	0.0745	120874	keystroke	s	n/a
60.5715	0.15	121143	keystroke	Key.space	n/a
60.6915	0.12	121383	keystroke	s	n/a
60.8865	0.18	121773	keystroke	t	n/a
61.0515	0.15	122103	keystroke	e	n/a
61.3665	0.18	122733	keystroke	v	n/a
61.4715	0.195	122943	keystroke	e	n/a
61.6365	0.195	123273	keystroke	n	n/a
61.8015	0.135	123603	keystroke	Key.space	n/a
61.9515	0.12	123903	keystroke	l	n/a
62.1165	0.12	124233	keystroke	e	n/a
62.2965	0.105	124593	keystroke	n	n/a
62.3865	0.12	124773	keystroke	d	n/a
62.5365	0.135	125073	keystroke	i	n/a
62.5965	0.135	125193	keystroke	n	n/a
62.7465	0.105	125493	keystroke	g	n/a
62.8365	0.15	125673	keystroke	Key.space	n/a
63.0315	0.135	126063	keystroke	k	n/a
63.1365	0.12	126273	keystroke	n	n/a
63.2265	0.105	126453	keystroke	o	n/a
63.3615	0.135	126723	keystroke	w	n/a
63.5115	0.15	127023	keystroke	n	n/a
63.9765	0.06	127953	keystroke	Key.enter	n/a
64.043	6.6855	128086	prompt	n/a	permits translations mind calculations\n
64.7715	0.09	129543	keystroke	p	n/a
64.8915	0.18	129783	keystroke	e	n/a
64.9965	0.15	129993	keystroke	r	n/a
65.1765	0.225	130353	keystroke	m	n/a
65.2965	0.15	130593	keystroke	i	n/a
65.3865	0.21	130773	keystroke	t	n/a
65.5215	0.12	131043	keystroke	s	n/a
65.7465	0.12	131493	keystroke	Key.space	n/a
65.8965	0.075	131793	keystroke	t	n/a
66.1065	0.15	132213	keystroke	r	n/a
66.2265	0.135	132453	keystroke	a	n/a
66.4065	0.15	132813	keystroke	n	n/a
66.6315	0.12	133263	keystroke	s	n/a
66.8415	0.105	133683	keystroke	l	n/a
67.1865	0.135	134373	keystroke	a	n/a
67.4565	0.12	134913	keystroke	t	n/a
67.5615	0.225	135123	keystroke	i	n/a
67.6665	0.165	135333	keystroke	o	n/a
67.7415	0.15	135483	keystroke	n	n/a
68.1915	0.105	136383	keystroke	s	n/a
68.3415	0.195	136683	keystroke	Key.space	n/a
68.5065	0.135	137013	keystroke	m	n/a
68.6265	0.165	137253	keystroke	i	n/a
68.7615	0.09	137523	keystroke	n	n/a
68.9115	0.12	137823	keystroke	d	n/a
68.9715	0.195	137943	keystroke	Key.space	n/a
69.3015	0.12	138603	keystroke	c	n/a
69.3765	0.105	138753	keystroke	a	n/a
69.4665	0.12	138933	keystroke	l	n/a
69.6165	0.15	139233	keystroke	c	n/a
69.7215	0.12	139443	keystroke	u	n/a
69.7965	0.105	139593	keystroke	l	n/a
69.8865	0.165	139773	keystroke	a	n/a
70.0215	0.15	140043	keystroke	t	n/a
70.1115	0.195	140223	keystroke	i	n/a
70.2015	0.15	140403	keystroke	o	n/a
70.2765	0.12	140553	keystroke	n	n/a
70.5015	0.09	141003	keystroke	s	n/a
70.6665	0.06	141333	keystroke	Key.enter	n/a
70.733	9.056	141466	prompt	n/a	posing pensions blah dentists\n
71.3865	0.135	142773	keystroke	p	n/a
71.5065	0.105	143013	keystroke	o	n/a
71.6415	0.09	143283	keystroke	s	n/a
71.7465	0.15	143493	keystroke	i	n/a
71.8515	0.09	143703	keystroke	n	n/a
71.9265	0.12	143853	keystroke	g	n/a
71.9865	0.135	143973	keystroke	Key.space	n/a
72.0765	0.15	144153	keystroke	p	n/a
72.2265	0.105	144453	keystroke	e	n/a
72.3165	0.12	144633	keystroke	n	n/a
72.4515	0.135	144903	keystroke	s	n/a
72.5115	0.18	145023	keystroke	i	n/a
72.6015	0.165	145203	keystroke	o	n/a
72.6615	0.12	145323	keystroke	n	n/a
72.8265	0.105	145653	keystroke	s	n/a
72.8565	0.15	145713	keystroke	Key.space	n/a
72.9615	0.105	145923	keystroke	b	n/a
73.0965	0.12	146193	keystroke	l	n/a
73.2015	0.15	146403	keystroke	a	n/a
73.3365	0.165	146673	keystroke	h	n/a
73.4865	0.135	146973	keystroke	Key.space	n/a
73.8465	0.195	147693	keystroke	d	n/a
73.9515	0.15	147903	keystroke	e	n/a
74.0415	0.12	148083	keystroke	s	n/a
74.2215	0.135	148443	keystroke	n	n/a
74.4015	0.12	148803	keystroke	t	n/a
74.5065	0.09	149013	keystroke	i	n/a
74.6115	0.135	149223	keystroke	s	n/a
74.7765	0.15	149553	keystroke	t	n/a
74.9115	0.12	149823	keystroke	s	n/a
75.6165	0.06	151233	keystroke	Key.backspace	n/a
75.8715	0.06	151743	keystroke	Key.backspace	n/a
76.3215	0.045	152643	keystroke	Key.backspace	n/a
76.5165	0.06	153033	keystroke	Key.backspace	n/a
76.7115	0.075	153423	keystroke	Key.backspace	n/a
76.9515	0.06	153903	keystroke	Key.backspace	n/a
77.2365	0.09	154473	keystroke	Key.backspace	n/a
77.6865	0.09	155373	keystroke	n	n/a
77.8815	0.195	155763	keystroke	t	n/a
78.0615	0.15	156123	keystroke	e	n/a
78.5865	0.06	157173	keystroke	Key.backspace	n/a
79.0215	0.12	158043	keystroke	i	n/a
79.2015	0.12	158403	keystroke	s	n/a
79.3065	0.135	158613	keystroke	t	n/a
79.3965	0.105	158793	keystroke	s	n/a
79.7265	0.06	159453	keystroke	Key.enter	n/a
79.793	5.2155	159586	prompt	n/a	refined surfaces user suites\n
80.5365	0.09	161073	keystroke	r	n/a
80.5965	0.105	161193	keystroke	e	n/a
80.7315	0.135	161463	keystroke	f	n/a
80.8515	0.135	161703	keystroke	i	n/a
80.9115	0.12	161823	keystroke	n	n/a
81.0315	0.12	162063	keystroke	e	n/a
81.0765	0.135	162153	keystroke	d	n/a
81.1965	0.12	162393	keystroke	Key.space	n/a
81.4815	0.165	162963	keystroke	s	n/a
81.5715	0.15	163143	keystroke	u	n/a
81.7065	0.105	163413	keystroke	r	n/a
81.9465	0.09	163893	keystroke	f	n/a
82.0065	0.15	164013	keystroke	a	n/a
82.2315	0.15	164463	keystroke	c	n/a
82.3065	0.165	164613	keystroke	e	n/a
82.4115	0.135	164823	keystroke	s	n/a
82.5015	0.135	165003	keystroke	Key.space	n/a
82.6065	0.165	165213	keystroke	u	n/a
82.7415	0.045	165483	keystroke	s	n/a
83.4465	0.135	166893	keystroke	e	n/a
83.4925	0.164	166985	keystroke	r	n/a
83.7165	0.105	167433	keystroke	Key.space	n/a
83.8815	0.105	167763	keystroke	s	n/a
84.0015	0.15	168003	keystroke	u	n/a
84.1065	0.09	168213	keystroke	i	n/a
84.1365	0.21	168273	keystroke	t	n/a
84.2265	0.285	168453	keystroke	e	n/a
84.4965	0.105	168993	keystroke	s	n/a
84.9165	0.09	169833	keystroke	Key.enter	n/a
85.0135	4.78	170027	prompt	n/a	remains drunk bundle peaceful\n
85.7415	0.195	171483	keystroke	r	n/a
85.8465	0.15	171693	keystroke	e	n/a
86.0115	0.09	172023	keystroke	m	n/a
86.1165	0.135	172233	keystroke	a	n/a
86.1915	0.195	172383	keystroke	i	n/a
86.2965	0.12	172593	keystroke	n	n/a
86.4015	0.105	172803	keystroke	Key.space	n/a
86.5815	0.105	173163	keystroke	d	n/a
86.7765	0.12	173553	keystroke	r	n/a
86.8665	0.105	173733	keystroke	u	n/a
87.1365	0.18	174273	keystroke	n	n/a
87.2415	0.135	174483	keystroke	k	n/a
87.3615	0.15	174723	keystroke	Key.space	n/a
87.8565	0.075	175713	keystroke	b	n/a
87.9325	0.164	175865	keystroke	u	n/a
88.0815	0.105	176163	keystroke	n	n/a
88.2015	0.105	176403	keystroke	d	n/a
88.3665	0.135	176733	keystroke	l	n/a
88.5775	0.104	177155	keystroke	e	n/a
88.6965	0.15	177393	keystroke	Key.space	n/a
88.8015	0.12	177603	keystroke	p	n/a
88.8615	0.075	177723	keystroke	e	n/a
88.9065	0.1195	177813	keystroke	a	n/a
89.101	0.1205	178202	keystroke	c	n/a
89.1915	0.105	178383	keystroke	e	n/a
89.3115	0.12	178623	keystroke	f	n/a
89.4175	0.134	178835	keystroke	u	n/a
89.4765	0.09	178953	keystroke	l	n/a
89.7315	0.06	179463	keystroke	Key.enter	n/a
89.7975	7.675	179595	prompt	n/a	louisville listing sandra syndication\n
90.4215	0.06	180843	keystroke	l	n/a
90.5865	0.18	181173	keystroke	o	n/a
90.7515	0.225	181503	keystroke	u	n/a
90.9015	0.165	181803	keystroke	i	n/a
91.2015	0.105	182403	keystroke	s	n/a
91.5465	0.12	183093	keystroke	v	n/a
91.7125	0.074	183425	keystroke	i	n/a
91.7565	0.076	183513	keystroke	l	n/a
91.9075	0.09	183815	keystroke	l	n/a
91.9975	0.149	183995	keystroke	e	n/a
92.0865	0.135	184173	keystroke	Key.space	n/a
92.1625	0.134	184325	keystroke	l	n/a
92.2665	0.135	184533	keystroke	i	n/a
92.4175	0.164	184835	keystroke	s	n/a
92.5365	0.121	185073	keystroke	t	n/a
92.5975	0.18	185195	keystroke	i	n/a
92.6875	0.119	185375	keystroke	n	n/a
92.8365	0.076	185673	keystroke	g	n/a
93.0015	0.09	186003	keystroke	Key.space	n/a
93.2425	0.179	186485	keystroke	s	n/a
93.3765	0.166	186753	keystroke	a	n/a
93.9455	0.136	187891	keystroke	n	n/a
94.1415	0.12	188283	keystroke	d	n/a
94.5765	0.09	189153	keystroke	r	n/a
94.8315	0.164	189663	keystroke	a	n/a
95.0705	0.09	190141	keystroke	Key.space	n/a
95.2215	0.165	190443	keystroke	s	n/a
95.3715	0.09	190743	keystroke	y	n/a
95.6555	0.09	191311	keystroke	n	n/a
95.7915	0.09	191583	keystroke	d	n/a
95.8965	0.09	191793	keystroke	i	n/a
96.0315	0.105	192063	keystroke	c	n/a
96.2555	0.106	192511	keystroke	a	n/a
96.4815	0.105	192963	keystroke	t	n/a
96.6305	0.075	193261	keystroke	i	n/a
96.6755	0.241	193351	keystroke	o	n/a
96.8715	0.074	193743	keystroke	n	n/a
97.3655	0.105	194731	keystroke	Key.enter	n/a
97.4765	7.391	194953	prompt	n/a	watched productivity autos recall\n
98.1465	0.104	196293	keystroke	w	n/a
98.2055	0.121	196411	keystroke	a	n/a
98.9865	0.075	197973	keystroke	t	n/a
99.2415	0.075	198483	keystroke	c	n/a
99.3465	0.135	198693	keystroke	h	n/a
99.5565	0.225	199113	keystroke	e	n/a
99.6765	0.195	199353	keystroke	d	n/a
99.8555	0.12	199711	keystroke	Key.space	n/a
99.9165	0.12	199833	keystroke	p	n/a
100.0215	0.09	200043	keystroke	r	n/a
100.1565	0.105	200313	keystroke	o	n/a
100.2765	0.09	200553	keystroke	d	n/a
100.4265	0.135	200853	keystroke	u	n/a
100.5465	0.075	201093	keystroke	c	n/a
100.7715	0.09	201543	keystroke	t	n/a
100.9665	0.09	201933	keystroke	i	n/a
101.0865	0.09	202173	keystroke	v	n/a
101.2065	0.105	202413	keystroke	i	n/a
101.4165	0.135	202833	keystroke	t	n/a
101.5815	0.135	203163	keystroke	y	n/a
101.7165	0.09	203433	keystroke	Key.space	n/a
101.7765	0.15	203553	keystroke	a	n/a
101.8965	0.105	203793	keystroke	u	n/a
102.0465	0.12	204093	keystroke	t	n/a
102.1365	0.12	204273	keystroke	o	n/a
102.6305	0.136	205261	keystroke	Key.space	n/a
103.3215	0.06	206643	keystroke	Key.backspace	n/a
103.4565	0.165	206913	keystroke	s	n/a
103.6515	0.105	207303	keystroke	Key.space	n/a
103.7565	0.165	207513	keystroke	r	n/a
103.8915	0.12	207783	keystroke	e	n/a
104.1765	0.12	208353	keystroke	c	n/a
104.2665	0.105	208533	keystroke	a	n/a
104.3865	0.075	208773	keystroke	l	n/a
104.5665	0.09	209133	keystroke	l	n/a
104.7615	0.105	209523	keystroke	Key.enter	n/a
104.8715	6.2815	209743	prompt	n/a	marshall sisters eligibility secrets\n
105.6165	0.165	211233	keystroke	m	n/a
105.7665	0.135	211533	keystroke	a	n/a
105.8865	0.12	211773	keystroke	r	n/a
106.1115	0.06	212223	keystroke	s	n/a
106.2315	0.12	212463	keystroke	h	n/a
106.3965	0.09	212793	keystroke	a	n/a
106.4715	0.075	212943	keystroke	l	n/a
106.6365	0.12	213273	keystroke	l	n/a
106.6965	0.135	213393	keystroke	Key.space	n/a
106.8015	0.09	213603	keystroke	s	n/a
106.8915	0.135	213783	keystroke	i	n/a
107.0265	0.165	214053	keystroke	s	n/a
107.1615	0.15	214323	keystroke	t	n/a
107.2815	0.21	214563	keystroke	e	n/a
107.4315	0.165	214863	keystroke	r	n/a
107.6115	0.15	215223	keystroke	s	n/a
108.0465	0.105	216093	keystroke	Key.space	n/a
108.2265	0.135	216453	keystroke	e	n/a
108.3165	0.15	216633	keystroke	l	n/a
108.4215	0.12	216843	keystroke	i	n/a
108.6615	0.09	217323	keystroke	g	n/a
108.7965	0.075	217593	keystroke	i	n/a
108.9315	0.09	217863	keystroke	b	n/a
108.9765	0.105	217953	keystroke	i	n/a
109.0515	0.135	218103	keystroke	l	n/a
109.1415	0.12	218283	keystroke	i	n/a
109.2915	0.075	218583	keystroke	t	n/a
109.4865	0.15	218973	keystroke	y	n/a
109.6215	0.15	219243	keystroke	Key.space	n/a
109.8015	0.12	219603	keystroke	s	n/a
109.8915	0.12	219783	keystroke	e	n/a
110.1315	0.09	220263	keystroke	c	n/a
110.3415	0.12	220683	keystroke	r	n/a
110.4165	0.165	220833	keystroke	e	n/a
110.5665	0.15	221133	keystroke	t	n/a
110.8665	0.045	221733	keystroke	s	n/a
111.0765	0.075	222153	keystroke	Key.enter	n/a
111.157	0.161	222314	prompt	n/a	renewable warriors yeast dollar\n
111.2715	0.045	222543	keystroke	Key.enter	n/a
111.322	15.8955	222644	prompt	n/a	robots drug bermuda statistical\n
112.7115	0.09	225423	keystroke	r	n/a
112.8465	0.075	225693	keystroke	o	n/a
112.9515	0.0745	225903	keystroke	b	n/a
113.116	0.075	226232	keystroke	o	n/a
113.281	0.1055	226562	keystroke	t	n/a
113.4165	0.105	226833	keystroke	o	n/a
113.761	0.0755	227522	keystroke	s	n/a
113.9865	0.12	227973	keystroke	Key.space	n/a
114.1215	0.09	228243	keystroke	d	n/a
114.4365	0.09	228873	keystroke	r	n/a
114.5865	0.135	229173	keystroke	u	n/a
115.066	0.09	230132	keystroke	g	n/a
115.3815	0.12	230763	keystroke	Key.space	n/a
115.6365	0.105	231273	keystroke	m	n/a
115.7265	0.195	231453	keystroke	e	n/a
115.8015	0.105	231603	keystroke	r	n/a
116.0415	0.105	232083	keystroke	m	n/a
116.2665	0.105	232533	keystroke	u	n/a
116.5665	0.105	233133	keystroke	d	n/a
116.9865	0.09	233973	keystroke	Key.backspace	n/a
117.2715	0.03	234543	keystroke	Key.backspace	n/a
117.5115	0.06	235023	keystroke	Key.backspace	n/a
117.7815	0.03	235563	keystroke	Key.backspace	n/a
118.0515	0.045	236103	keystroke	Key.backspace	n/a
118.9365	0.06	237873	keystroke	Key.backspace	n/a
119.2365	0.06	238473	keystroke	Key.backspace	n/a
119.4465	0.09	238893	keystroke	Key.backspace	n/a
119.7315	0.075	239463	keystroke	Key.backspace	n/a
119.9715	0.045	239943	keystroke	Key.backspace	n/a
120.2265	0.045	240453	keystroke	Key.backspace	n/a
120.4815	0.06	240963	keystroke	Key.backspace	n/a
120.7365	0.075	241473	keystroke	Key.backspace	n/a
121.0065	0.09	242013	keystroke	Key.backspace	n/a
121.5465	0.12	243093	keystroke	s	n/a
121.7415	0.135	243483	keystroke	Key.space	n/a
121.9815	0.105	243963	keystroke	d	n/a
122.2065	0.105	244413	keystroke	r	n/a
122.4165	0.1195	244833	keystroke	u	n/a
122.7005	0.12	245401	keystroke	g	n/a
123.016	0.135	246032	keystroke	Key.space	n/a
123.646	0.06	247292	keystroke	b	n/a
123.841	0.165	247682	keystroke	e	n/a
123.916	0.135	247832	keystroke	r	n/a
124.036	0.075	248072	keystroke	m	n/a
124.276	0.06	248552	keystroke	u	n/a
124.471	0.075	248942	keystroke	d	n/a
124.786	0.12	249572	keystroke	a	n/a
124.981	0.105	249962	keystroke	Key.space	n/a
125.251	0.09	250502	keystroke	s	n/a
125.566	0.075	251132	keystroke	t	n/a
125.716	0.135	251432	keystroke	a	n/a
125.911	0.12	251822	keystroke	t	n/a
126.061	0.135	252122	keystroke	i	n/a
126.271	0.135	252542	keystroke	s	n/a
126.436	0.09	252872	keystroke	t	n/a
126.571	0.105	253142	keystroke	i	n/a
126.766	0.075	253532	keystroke	c	n/a
126.811	0.105	253622	keystroke	a	n/a
126.961	0.09	253922	keystroke	l	n/a
127.126	0.09	254252	keystroke	Key.enter	n/a
127.2215	5.9365	254443	prompt	n/a	postal debate yarn affiliate\n
128.146	0.12	256292	keystroke	p	n/a
128.626	0.105	257252	keystroke	o	n/a
128.761	0.135	257522	keystroke	s	n/a
128.941	0.135	257882	keystroke	t	n/a
129.091	0.15	258182	keystroke	a	n/a
129.226	0.15	258452	keystroke	l	n/a
129.361	0.165	258722	keystroke	Key.space	n/a
129.481	0.225	258962	keystroke	d	n/a
129.631	0.195	259262	keystroke	e	n/a
129.781	0.12	259562	keystroke	b	n/a
129.946	0.15	259892	keystroke	a	n/a
130.111	0.165	260222	keystroke	t	n/a
130.231	0.15	260462	keystroke	e	n/a
130.336	0.12	260672	keystroke	Key.space	n/a
130.966	0.06	261932	keystroke	y	n/a
131.056	0.21	262112	keystroke	a	n/a
131.221	0.105	262442	keystroke	r	n/a
131.401	0.09	262802	keystroke	n	n/a
131.671	0.105	263342	keystroke	Key.space	n/a
131.761	0.12	263522	keystroke	a	n/a
131.956	0.105	263912	keystroke	f	n/a
132.121	0.12	264242	keystroke	f	n/a
132.226	0.12	264452	keystroke	i	n/a
132.316	0.18	264632	keystroke	l	n/a
132.451	0.15	264902	keystroke	i	n/a
132.616	0.105	265232	keystroke	a	n/a
132.826	0.15	265652	keystroke	t	n/a
132.931	0.12	265862	keystroke	e	n/a
133.111	0.045	266222	keystroke	Key.enter	n/a
133.162	6.792	266324	prompt	n/a	bars fashion ralph solid\n
134.056	0.09	268112	keystroke	b	n/a
134.161	0.135	268322	keystroke	a	n/a
134.297	0.119	268594	keystroke	r	n/a
134.401	0.105	268802	keystroke	s	n/a
134.581	0.12	269162	keystroke	Key.space	n/a
134.671	0.135	269342	keystroke	f	n/a
134.731	0.18	269462	keystroke	a	n/a
134.866	0.135	269732	keystroke	s	n/a
134.986	0.105	269972	keystroke	h	n/a
135.061	0.135	270122	keystroke	i	n/a
135.151	0.135	270302	keystroke	o	n/a
135.241	0.165	270482	keystroke	n	n/a
135.391	0.12	270782	keystroke	Key.space	n/a
135.541	0.15	271082	keystroke	r	n/a
135.646	0.165	271292	keystroke	a	n/a
135.796	0.045	271592	keystroke	l	n/a
135.871	0.045	271742	keystroke	l	n/a
136.096	0.18	272192	keystroke	p	n/a
136.277	0.089	272554	keystroke	h	n/a
136.741	0.075	273482	keystroke	Key.backspace	n/a
136.921	0.06	273842	keystroke	Key.backspace	n/a
137.176	0.06	274352	keystroke	Key.backspace	n/a
137.432	0.044	274864	keystroke	[	n/a
137.641	0.105	275282	keystroke	h	n/a
137.971	0.06	275942	keystroke	Key.backspace	n/a
138.211	0.075	276422	keystroke	Key.backspace	n/a
138.482	0.074	276964	keystroke	p	n/a
138.721	0.06	277442	keystroke	h	n/a
139.006	0.105	278012	keystroke	Key.space	n/a
139.262	0.104	278524	keystroke	s	n/a
139.336	0.075	278672	keystroke	o	n/a
139.516	0.075	279032	keystroke	l	n/a
139.561	0.105	279122	keystroke	i	n/a
139.696	0.106	279392	keystroke	d	n/a
139.906	0.045	279812	keystroke	Key.enter	n/a
139.961	8.332	279922	prompt	n/a	full observed how're promised\n
140.656	0.135	281312	keystroke	f	n/a
140.776	0.135	281552	keystroke	u	n/a
140.866	0.09	281732	keystroke	l	n/a
141.016	0.105	282032	keystroke	l	n/a
141.091	0.135	282182	keystroke	Key.space	n/a
141.211	0.121	282422	keystroke	o	n/a
141.286	0.15	282572	keystroke	b	n/a
141.421	0.165	282842	keystroke	s	n/a
141.557	0.209	283114	keystroke	e	n/a
141.691	0.106	283382	keystroke	r	n/a
141.931	0.075	283862	keystroke	v	n/a
142.126	0.136	284252	keystroke	e	n/a
142.171	0.135	284342	keystroke	d	n/a
142.366	0.105	284732	keystroke	Key.space	n/a
142.741	0.135	285482	keystroke	h	n/a
142.816	0.135	285632	keystroke	o	n/a
143.026	0.12	286052	keystroke	w	n/a
143.326	0.075	286652	keystroke	'	n/a
143.431	0.151	286862	keystroke	r	n/a
143.521	0.15	287042	keystroke	e	n/a
143.941	0.105	287882	keystroke	Key.space	n/a
144.077	0.15	288154	keystroke	p	n/a
144.242	0.164	288484	keystroke	r	n/a
144.301	0.12	288602	keystroke	e	n/a
144.391	0.18	288782	keystroke	m	n/a
144.496	0.12	288992	keystroke	o	n/a
144.736	0.046	289472	keystroke	i	n/a
144.811	0.135	289622	keystroke	s	n/a
144.887	0.149	289774	keystroke	e	n/a
144.976	0.12	289952	keystroke	d	n/a
145.306	0.06	290612	keystroke	Key.backspace	n/a
145.531	0.045	291062	keystroke	Key.backspace	n/a
145.801	0.03	291602	keystroke	Key.backspace	n/a
146.056	0.03	292112	keystroke	Key.backspace	n/a
146.221	0.075	292442	keystroke	Key.backspace	n/a
146.431	0.09	292862	keystroke	Key.backspace	n/a
146.731	0.105	293462	keystroke	Key.backspace	n/a
147.212	0.12	294424	keystroke	o	n/a
147.316	0.136	294632	keystroke	m	n/a
147.406	0.106	294812	keystroke	i	n/a
147.481	0.135	294962	keystroke	s	n/a
147.632	0.164	295264	keystroke	e	n/a
147.766	0.091	295532	keystroke	d	n/a
148.276	0.015	296552	keystroke	Key.enter	n/a
148.2975	6.565	296595	prompt	n/a	auction actions estimates tsunami\n
148.997	0.12	297994	keystroke	a	n/a
149.311	0.121	298622	keystroke	u	n/a
149.462	0.105	298924	keystroke	c	n/a
149.746	0.12	299492	keystroke	t	n/a
149.852	0.195	299704	keystroke	i	n/a
149.927	0.18	299854	keystroke	o	n/a
150.017	0.165	300034	keystroke	n	n/a
150.136	0.135	300272	keystroke	Key.space	n/a
150.287	0.1045	300574	keystroke	a	n/a
150.4655	0.106	300931	keystroke	c	n/a
150.6765	0.1195	301353	keystroke	t	n/a
150.767	0.15	301534	keystroke	i	n/a
150.842	0.149	301684	keystroke	o	n/a
150.887	0.18	301774	keystroke	n	n/a
151.171	0.121	302342	keystroke	s	n/a
151.321	0.105	302642	keystroke	Key.space	n/a
151.457	0.15	302914	keystroke	e	n/a
151.547	0.18	303094	keystroke	s	n/a
151.712	0.15	303424	keystroke	t	n/a
151.817	0.15	303634	keystroke	i	n/a
151.877	0.165	303754	keystroke	m	n/a
151.996	0.136	303992	keystroke	a	n/a
152.117	0.1945	304234	keystroke	t	n/a
152.207	0.1495	304414	keystroke	e	n/a
152.2965	0.12	304593	keystroke	s	n/a
152.4305	0.136	304861	keystroke	Key.space	n/a
152.7465	0.12	305493	keystroke	t	n/a
153.1815	0.105	306363	keystroke	s	n/a
153.3915	0.15	306783	keystroke	u	n/a
153.7365	0.075	307473	keystroke	n	n/a
153.9615	0.12	307923	keystroke	a	n/a
154.2165	0.18	308433	keystroke	m	n/a
154.3365	0.12	308673	keystroke	i	n/a
154.7865	0.075	309573	keystroke	Key.enter	n/a
154.8665	8.771	309733	prompt	n/a	buck petersburg michael paso\n
155.9565	0.195	311913	keystroke	b	n/a
156.1065	0.105	312213	keystroke	u	n/a
156.4665	0.12	312933	keystroke	c	n/a
156.6465	0.135	313293	keystroke	k	n/a
156.7965	0.15	313593	keystroke	Key.space	n/a
156.9165	0.12	313833	keystroke	p	n/a
157.0665	0.135	314133	keystroke	e	n/a
157.1865	0.135	314373	keystroke	t	n/a
157.3515	0.195	314703	keystroke	e	n/a
157.4865	0.12	314973	keystroke	r	n/a
157.816	0.105	315632	keystroke	b	n/a
159.0615	0.09	318123	keystroke	Key.backspace	n/a
159.3315	0.15	318663	keystroke	s	n/a
159.5415	0.09	319083	keystroke	b	n/a
159.6615	0.1645	319323	keystroke	e	n/a
159.781	0.105	319562	keystroke	r	n/a
160.1715	0.06	320343	keystroke	g	n/a
160.3965	0.18	320793	keystroke	Key.space	n/a
160.5165	0.12	321033	keystroke	m	n/a
160.7565	0.105	321513	keystroke	c	n/a
160.8915	0.135	321783	keystroke	h	n/a
161.3115	0.09	322623	keystroke	Key.backspace	n/a
161.5815	0.06	323163	keystroke	Key.backspace	n/a
161.9715	0.09	323943	keystroke	i	n/a
162.0765	0.12	324153	keystroke	c	n/a
162.1665	0.105	324333	keystroke	h	n/a
162.2865	0.165	324573	keystroke	a	n/a
162.4365	0.15	324873	keystroke	e	n/a
162.5715	0.105	325143	keystroke	l	n/a
162.7215	0.15	325443	keystroke	Key.space	n/a
162.9015	0.1045	325803	keystroke	p	n/a
163.096	0.12	326192	keystroke	a	n/a
163.186	0.135	326372	keystroke	s	n/a
163.336	0.135	326672	keystroke	o	n/a
163.561	0.075	327122	keystroke	Key.enter	n/a
163.6425	7.495	327285	prompt	n/a	vinyl arrangements newspaper probably\n
164.806	0.09	329612	keystroke	v	n/a
164.911	0.12	329822	keystroke	i	n/a
164.986	0.1205	329972	keystroke	n	n/a
165.2115	0.0895	330423	keystroke	y	n/a
165.361	0.075	330722	keystroke	l	n/a
165.541	0.12	331082	keystroke	Key.space	n/a
165.691	0.09	331382	keystroke	a	n/a
165.901	0.06	331802	keystroke	r	n/a
166.066	0.1355	332132	keystroke	r	n/a
166.1715	0.135	332343	keystroke	a	n/a
166.3215	0.165	332643	keystroke	n	n/a
166.5165	0.21	333033	keystroke	g	n/a
166.7115	0.105	333423	keystroke	e	n/a
166.8615	0.075	333723	keystroke	m	n/a
166.9665	0.12	333933	keystroke	e	n/a
167.1465	0.15	334293	keystroke	n	n/a
167.2965	0.105	334593	keystroke	t	n/a
167.6415	0.075	335283	keystroke	s	n/a
167.8965	0.09	335793	keystroke	Key.space	n/a
168.0465	0.15	336093	keystroke	n	n/a
168.2865	0.15	336573	keystroke	e	n/a
168.3915	0.09	336783	keystroke	w	n/a
168.5865	0.09	337173	keystroke	s	n/a
168.7215	0.075	337443	keystroke	p	n/a
168.8115	0.105	337623	keystroke	a	n/a
168.9765	0.105	337953	keystroke	p	n/a
169.1415	0.21	338283	keystroke	e	n/a
169.2915	0.15	338583	keystroke	r	n/a
169.5465	0.135	339093	keystroke	Key.space	n/a
170.0265	0.12	340053	keystroke	p	n/a
170.1615	0.09	340323	keystroke	r	n/a
170.2815	0.1045	340563	keystroke	o	n/a
170.386	0.1055	340772	keystroke	b	n/a
170.5065	0.165	341013	keystroke	a	n/a
170.6265	0.075	341253	keystroke	b	n/a
170.7465	0.1045	341493	keystroke	l	n/a
170.896	0.105	341792	keystroke	y	n/a
171.061	0.075	342122	keystroke	Key.enter	n/a
171.1425	14.215	342285	prompt	n/a	egypt francis charm scholars\n
172.366	0.1355	344732	keystroke	e	n/a
172.741	0.075	345482	keystroke	q	n/a
173.326	0.075	346652	keystroke	y	n/a
173.566	0.105	347132	keystroke	p	n/a
173.776	0.0905	347552	keystroke	t	n/a
174.991	0.06	349982	keystroke	Key.backspace	n/a
175.216	0.06	350432	keystroke	Key.backspace	n/a
175.711	0.075	351422	keystroke	Key.backspace	n/a
176.086	0.06	352172	keystroke	Key.backspace	n/a
177.661	0.105	355322	keystroke	g	n/a
177.811	0.075	355622	keystroke	y	n/a
177.946	0.105	355892	keystroke	p	n/a
178.216	0.105	356432	keystroke	t	n/a
178.516	0.15	357032	keystroke	Key.space	n/a
178.726	0.075	357452	keystroke	f	n/a
178.921	0.135	357842	keystroke	r	n/a
179.011	0.18	358022	keystroke	a	n/a
179.176	0.135	358352	keystroke	n	n/a
179.386	0.12	358772	keystroke	c	n/a
179.521	0.09	359042	keystroke	i	n/a
179.701	0.12	359402	keystroke	s	n/a
179.806	0.09	359612	keystroke	Key.space	n/a
179.896	0.135	359792	keystroke	c	n/a
180.016	0.09	360032	keystroke	h	n/a
180.121	0.195	360242	keystroke	a	n/a
180.241	0.165	360482	keystroke	r	n/a
180.421	0.225	360842	keystroke	m	n/a
181.171	0.09	362342	keystroke	Key.space	n/a
181.516	0.18	363032	keystroke	s	n/a
181.681	0.18	363362	keystroke	c	n/a
181.801	0.135	363602	keystroke	h	n/a
181.891	0.18	363782	keystroke	l	n/a
182.296	0.15	364592	keystroke	a	n/a
182.686	0.105	365372	keystroke	Key.backspace	n/a
182.881	0.09	365762	keystroke	Key.backspace	n/a
184.381	0.09	368762	keystroke	o	n/a
184.636	0.105	369272	keystroke	l	n/a
184.876	0.15	369752	keystroke	a	n/a
185.011	0.135	370022	keystroke	r	n/a
185.131	0.105	370262	keystroke	s	n/a
185.296	0.06	370592	keystroke	Key.enter	n/a
185.3615	4.946	370723	prompt	n/a	deer term cardiac prix\n
186.106	0.135	372212	keystroke	d	n/a
186.196	0.12	372392	keystroke	e	n/a
186.391	0.27	372782	keystroke	e	n/a
186.556	0.135	373112	keystroke	r	n/a
186.706	0.1645	373412	keystroke	Key.space	n/a
186.9155	0.12	373831	keystroke	t	n/a
187.0505	0.18	374101	keystroke	e	n/a
187.1855	0.0755	374371	keystroke	r	n/a
187.321	0.15	374642	keystroke	m	n/a
187.501	0.135	375002	keystroke	Key.space	n/a
187.621	0.12	375242	keystroke	c	n/a
187.726	0.105	375452	keystroke	a	n/a
187.891	0.105	375782	keystroke	r	n/a
188.131	0.06	376262	keystroke	d	n/a
188.251	0.195	376502	keystroke	i	n/a
188.431	0.135	376862	keystroke	a	n/a
188.9255	0.09	377851	keystroke	c	n/a
189.0455	0.15	378091	keystroke	Key.space	n/a
189.3905	0.165	378781	keystroke	p	n/a
189.6005	0.12	379201	keystroke	r	n/a
189.7955	0.12	379591	keystroke	i	n/a
190.0805	0.105	380161	keystroke	x	n/a
190.2305	0.075	380461	keystroke	Key.enter	n/a
190.311	7.299	380622	prompt	n/a	guests cost timing relevance\n
191.2055	0.1045	382411	keystroke	q	n/a
191.326	0.119	382652	keystroke	u	n/a
191.8955	0.09	383791	keystroke	Key.backspace	n/a
192.1205	0.045	384241	keystroke	Key.backspace	n/a
192.5105	0.105	385021	keystroke	g	n/a
192.6165	0.119	385233	keystroke	u	n/a
192.7055	0.2395	385411	keystroke	e	n/a
192.93	0.195	385860	keystroke	s	n/a
193.11	0.105	386220	keystroke	t	n/a
193.4695	0.0895	386939	keystroke	s	n/a
193.665	0.1195	387330	keystroke	Key.space	n/a
193.7995	0.135	387599	keystroke	c	n/a
193.9195	0.12	387839	keystroke	o	n/a
194.0545	0.165	388109	keystroke	s	n/a
194.19	0.1495	388380	keystroke	t	n/a
194.2645	0.135	388529	keystroke	Key.space	n/a
194.3695	0.15	388739	keystroke	i	n/a
194.624	0.03	389248	keystroke	t	n/a
194.8645	0.0595	389729	keystroke	Key.backspace	n/a
195.209	0.0605	390418	keystroke	Key.backspace	n/a
195.3595	0.105	390719	keystroke	t	n/a
195.4655	0.104	390931	keystroke	i	n/a
195.5395	0.105	391079	keystroke	m	n/a
195.6595	0.15	391319	keystroke	i	n/a
195.7795	0.1345	391559	keystroke	n	n/a
196.004	0.12	392008	keystroke	g	n/a
196.199	0.1205	392398	keystroke	Key.space	n/a
196.4545	0.135	392909	keystroke	r	n/a
196.5145	0.1045	393029	keystroke	e	n/a
196.604	0.135	393208	keystroke	l	n/a
196.694	0.09	393388	keystroke	e	n/a
196.844	0.12	393688	keystroke	v	n/a
196.919	0.1345	393838	keystroke	a	n/a
197.0685	0.12	394137	keystroke	n	n/a
197.233	0.136	394466	keystroke	c	n/a
197.308	0.1505	394616	keystroke	e	n/a
197.5035	0.105	395007	keystroke	Key.enter	n/a
197.6145	5.0865	395229	prompt	n/a	china picks angeles coastal\n
198.4635	0.1345	396927	keystroke	c	n/a
198.553	0.12	397106	keystroke	h	n/a
198.658	0.2155	397316	keystroke	i	n/a
198.793	0.155	397586	keystroke	n	n/a
198.9355	0.1035	397871	keystroke	a	n/a
199.054	0.1195	398108	keystroke	Key.space	n/a
199.293	0.151	398586	keystroke	p	n/a
199.3975	0.1215	398795	keystroke	i	n/a
199.564	0.1495	399128	keystroke	c	n/a
199.6535	0.15	399307	keystroke	k	n/a
199.8485	0.105	399697	keystroke	s	n/a
199.9685	0.1205	399937	keystroke	Key.space	n/a
200.104	0.105	400208	keystroke	a	n/a
200.224	0.12	400448	keystroke	n	n/a
200.359	0.135	400718	keystroke	g	n/a
200.464	0.09	400928	keystroke	e	n/a
200.539	0.12	401078	keystroke	l	n/a
200.674	0.21	401348	keystroke	e	n/a
200.839	0.165	401678	keystroke	s	n/a
200.989	0.12	401978	keystroke	Key.space	n/a
201.154	0.12	402308	keystroke	c	n/a
201.364	0.09	402728	keystroke	o	n/a
201.529	0.165	403058	keystroke	a	n/a
201.679	0.18	403358	keystroke	s	n/a
201.829	0.136	403658	keystroke	t	n/a
201.965	0.224	403930	keystroke	a	n/a
202.159	0.105	404318	keystroke	l	n/a
202.639	0.06	405278	keystroke	Key.enter	n/a
202.7055	6.536	405411	prompt	n/a	mention donald bits novels\n
203.495	0.104	406990	keystroke	m	n/a
203.614	0.09	407228	keystroke	e	n/a
203.72	0.089	407440	keystroke	n	n/a
203.764	0.166	407528	keystroke	t	n/a
203.869	0.151	407738	keystroke	a	n/a
203.975	0.224	407950	keystroke	i	n/a
204.064	0.211	408128	keystroke	o	n/a
204.154	0.135	408308	keystroke	n	n/a
204.844	0.195	409688	keystroke	Key.backspace	n/a
205.054	0.015	410108	keystroke	Key.backspace	n/a
205.174	0.045	410348	keystroke	Key.backspace	n/a
205.429	0.075	410858	keystroke	Key.backspace	n/a
205.805	0.18	411610	keystroke	i	n/a
205.88	0.165	411760	keystroke	o	n/a
205.985	0.165	411970	keystroke	n	n/a
206.134	0.105	412268	keystroke	Key.space	n/a
206.225	0.15	412450	keystroke	d	n/a
206.33	0.194	412660	keystroke	o	n/a
206.435	0.135	412870	keystroke	n	n/a
206.629	0.136	413258	keystroke	a	n/a
206.749	0.12	413498	keystroke	l	n/a
206.975	0.12	413950	keystroke	d	n/a
207.034	0.151	414068	keystroke	Key.space	n/a
207.5	0.194	415000	keystroke	b	n/a
207.605	0.18	415210	keystroke	i	n/a
207.74	0.15	415480	keystroke	t	n/a
208.085	0.15	416170	keystroke	s	n/a
208.399	0.165	416798	keystroke	Key.space	n/a
208.52	0.12	417040	keystroke	n	n/a
208.58	0.12	417160	keystroke	o	n/a
208.67	0.15	417340	keystroke	v	n/a
208.775	0.12	417550	keystroke	e	n/a
208.865	0.105	417730	keystroke	l	n/a
209.015	0.09	418030	keystroke	s	n/a
209.149	0.09	418298	keystroke	Key.enter	n/a
209.2455	6.611	418491	prompt	n/a	funny attribute november account\n
210.005	0.15	420010	keystroke	f	n/a
210.2	0.105	420400	keystroke	u	n/a
210.245	0.075	420490	keystroke	n	n/a
210.425	0.09	420850	keystroke	n	n/a
210.5	0.135	421000	keystroke	y	n/a
210.649	0.121	421298	keystroke	Key.space	n/a
210.8	0.12	421600	keystroke	a	n/a
210.95	0.06	421900	keystroke	t	n/a
211.13	0.15	422260	keystroke	t	n/a
211.25	0.12	422500	keystroke	r	n/a
211.37	0.12	422740	keystroke	i	n/a
211.55	0.18	423100	keystroke	b	n/a
211.64	0.105	423280	keystroke	u	n/a
211.82	0.15	423640	keystroke	t	n/a
211.925	0.15	423850	keystroke	e	n/a
212.285	0.15	424570	keystroke	Key.space	n/a
212.6	0.135	425200	keystroke	n	n/a
212.66	0.12	425320	keystroke	o	n/a
212.81	0.105	425620	keystroke	v	n/a
212.87	0.135	425740	keystroke	e	n/a
212.975	0.09	425950	keystroke	m	n/a
213.215	0.045	426430	keystroke	n	n/a
213.68	0.0755	427360	keystroke	Key.backspace	n/a
214.01	0.09	428020	keystroke	b	n/a
214.1455	0.165	428291	keystroke	e	n/a
214.2355	0.1345	428471	keystroke	r	n/a
214.4155	0.12	428831	keystroke	Key.space	n/a
214.7005	0.09	429401	keystroke	a	n/a
214.8805	0.09	429761	keystroke	c	n/a
215.0455	0.12	430091	keystroke	c	n/a
215.1505	0.135	430301	keystroke	o	n/a
215.2405	0.075	430481	keystroke	u	n/a
215.4655	0.06	430931	keystroke	n	n/a
215.5405	0.075	431081	keystroke	t	n/a
215.7355	0.12	431471	keystroke	Key.enter	n/a
215.8605	8.5315	431721	prompt	n/a	identifier liverpool statistical portrait\n
216.5155	0.165	433031	keystroke	i	n/a
216.9355	0.225	433871	keystroke	n	n/a
217.4005	0.09	434801	keystroke	Key.backspace	n/a
217.5955	0.195	435191	keystroke	d	n/a
217.7005	0.165	435401	keystroke	e	n/a
217.8805	0.12	435761	keystroke	n	n/a
218.0155	0.12	436031	keystroke	t	n/a
218.1505	0.075	436301	keystroke	i	n/a
218.3005	0.105	436601	keystroke	f	n/a
218.4205	0.06	436841	keystroke	i	n/a
218.6455	0.15	437291	keystroke	e	n/a
218.7655	0.12	437531	keystroke	r	n/a
218.8705	0.12	437741	keystroke	Key.space	n/a
219.0055	0.12	438011	keystroke	l	n/a
219.0805	0.165	438161	keystroke	i	n/a
219.2005	0.09	438401	keystroke	v	n/a
219.4405	0.18	438881	keystroke	e	n/a
219.5455	0.12	439091	keystroke	r	n/a
220.2205	0.165	440441	keystroke	p	n/a
220.3405	0.105	440681	keystroke	o	n/a
220.5205	0.075	441041	keystroke	o	n/a
220.7605	0.105	441521	keystroke	l	n/a
221.0305	0.12	442061	keystroke	Key.space	n/a
221.1355	0.15	442271	keystroke	s	n/a
221.2855	0.105	442571	keystroke	t	n/a
221.3605	0.18	442721	keystroke	a	n/a
221.5255	0.15	443051	keystroke	t	n/a
221.6905	0.12	443381	keystroke	i	n/a
221.7805	0.135	443561	keystroke	s	n/a
221.9005	0.06	443801	keystroke	t	n/a
221.9905	0.105	443981	keystroke	i	n/a
222.1705	0.12	444341	keystroke	c	n/a
222.2155	0.18	444431	keystroke	a	n/a
222.3505	0.15	444701	keystroke	l	n/a
222.4855	0.15	444971	keystroke	Key.space	n/a
222.6055	0.12	445211	keystroke	p	n/a
222.7105	0.165	445421	keystroke	o	n/a
222.8305	0.12	445661	keystroke	r	n/a
223.0405	0.09	446081	keystroke	t	n/a
223.2505	0.075	446501	keystroke	r	n/a
223.6255	0.12	447251	keystroke	a	n/a
223.8655	0.105	447731	keystroke	i	n/a
224.0605	0.075	448121	keystroke	t	n/a
224.3155	0.075	448631	keystroke	Key.enter	n/a
224.3995	5.3925	448799	prompt	n/a	citations clearly shoot liable\n
225.2755	0.09	450551	keystroke	c	n/a
225.4105	0.09	450821	keystroke	i	n/a
225.5755	0.12	451151	keystroke	t	n/a
225.6805	0.15	451361	keystroke	a	n/a
225.7855	0.1205	451571	keystroke	t	n/a
225.921	0.1195	451842	keystroke	i	n/a
226.0255	0.18	452051	keystroke	o	n/a
226.1605	0.12	452321	keystroke	n	n/a
226.4755	0.12	452951	keystroke	s	n/a
226.6105	0.105	453221	keystroke	Key.space	n/a
226.7005	0.105	453401	keystroke	c	n/a
226.8205	0.09	453641	keystroke	l	n/a
226.8805	0.105	453761	keystroke	e	n/a
226.9405	0.12	453881	keystroke	a	n/a
227.0005	0.15	454001	keystroke	r	n/a
227.1355	0.12	454271	keystroke	l	n/a
227.3755	0.09	454751	keystroke	y	n/a
227.4805	0.09	454961	keystroke	Key.space	n/a
227.5555	0.12	455111	keystroke	s	n/a
227.6605	0.135	455321	keystroke	h	n/a
227.7505	0.105	455501	keystroke	o	n/a
227.9155	0.1045	455831	keystroke	o	n/a
228.0805	0.1045	456161	keystroke	t	n/a
228.17	0.21	456340	keystroke	Key.space	n/a
228.35	0.21	456700	keystroke	l	n/a
228.515	0.1805	457030	keystroke	i	n/a
228.7555	0.15	457511	keystroke	a	n/a
228.9805	0.06	457961	keystroke	b	n/a
229.1005	0.12	458201	keystroke	l	n/a
229.2215	0.134	458443	keystroke	e	n/a
229.7005	0.09	459401	keystroke	Key.enter	n/a
229.7965	5.186	459593	prompt	n/a	belief additional coaches measures\n
230.5555	0.105	461111	keystroke	b	n/a
230.7505	0.105	461501	keystroke	e	n/a
230.8255	0.135	461651	keystroke	l	n/a
230.9305	0.165	461861	keystroke	i	n/a
231.0655	0.165	462131	keystroke	e	n/a
231.2315	0.134	462463	keystroke	f	n/a
231.3805	0.15	462761	keystroke	Key.space	n/a
231.5455	0.15	463091	keystroke	a	n/a
231.7255	0.09	463451	keystroke	d	n/a
231.9205	0.135	463841	keystroke	d	n/a
232.0855	0.105	464171	keystroke	i	n/a
232.2655	0.105	464531	keystroke	t	n/a
232.3255	0.18	464651	keystroke	i	n/a
232.4155	0.15	464831	keystroke	o	n/a
232.4755	0.12	464951	keystroke	n	n/a
232.6855	0.12	465371	keystroke	a	n/a
232.7905	0.15	465581	keystroke	l	n/a
232.8805	0.165	465761	keystroke	Key.space	n/a
233.0305	0.12	466061	keystroke	c	n/a
233.1355	0.105	466271	keystroke	o	n/a
233.2255	0.15	466451	keystroke	a	n/a
233.3455	0.135	466691	keystroke	c	n/a
233.4655	0.135	466931	keystroke	h	n/a
233.6155	0.21	467231	keystroke	e	n/a
233.7205	0.15	467441	keystroke	s	n/a
233.7805	0.195	467561	keystroke	Key.space	n/a
233.9155	0.15	467831	keystroke	m	n/a
233.9905	0.12	467981	keystroke	e	n/a
234.0805	0.18	468161	keystroke	a	n/a
234.2305	0.165	468461	keystroke	s	n/a
234.4255	0.135	468851	keystroke	u	n/a
234.5455	0.15	469091	keystroke	r	n/a
234.6205	0.15	469241	keystroke	e	n/a
234.6655	0.165	469331	keystroke	s	n/a
234.8905	0.09	469781	keystroke	Key.enter	n/a
234.998	4.979	469996	prompt	n/a	plants rural unto jpeg\n
235.9255	0.135	471851	keystroke	p	n/a
236.0155	0.15	472031	keystroke	l	n/a
236.1805	0.12	472361	keystroke	a	n/a
236.3015	0.104	472603	keystroke	n	n/a
236.4205	0.135	472841	keystroke	t	n/a
236.5105	0.165	473021	keystroke	s	n/a
236.6305	0.15	473261	keystroke	Key.space	n/a
236.9455	0.105	473891	keystroke	r	n/a
237.0955	0.12	474191	keystroke	u	n/a
237.2905	0.135	474581	keystroke	r	n/a
237.4555	0.135	474911	keystroke	a	n/a
237.6355	0.135	475271	keystroke	l	n/a
237.8755	0.15	475751	keystroke	Key.space	n/a
238.0705	0.09	476141	keystroke	u	n/a
238.2805	0.12	476561	keystroke	n	n/a
238.4305	0.15	476861	keystroke	t	n/a
238.5955	0.12	477191	keystroke	o	n/a
238.7305	0.12	477461	keystroke	Key.space	n/a
239.3005	0.135	478601	keystroke	j	n/a
239.3755	0.165	478751	keystroke	p	n/a
239.5855	0.105	479171	keystroke	e	n/a
239.7505	0.12	479501	keystroke	g	n/a
239.8855	0.09	479771	keystroke	Key.enter	n/a
239.981	4.496	479962	prompt	n/a	breaks latin motivation storage\n
240.6805	0.09	481361	keystroke	b	n/a
240.7555	0.165	481511	keystroke	r	n/a
240.8305	0.135	481661	keystroke	e	n/a
240.8905	0.135	481781	keystroke	a	n/a
240.9805	0.105	481961	keystroke	k	n/a
241.1755	0.105	482351	keystroke	s	n/a
241.2655	0.15	482531	keystroke	Key.space	n/a
241.4005	0.165	482801	keystroke	l	n/a
241.5955	0.12	483191	keystroke	a	n/a
241.7005	0.15	483401	keystroke	t	n/a
241.8355	0.1345	483671	keystroke	i	n/a
241.8955	0.1795	483791	keystroke	n	n/a
242.03	0.15	484060	keystroke	Key.space	n/a
242.165	0.1655	484330	keystroke	m	n/a
242.2855	0.09	484571	keystroke	o	n/a
242.3905	0.09	484781	keystroke	t	n/a
242.4955	0.12	484991	keystroke	i	n/a
242.7055	0.12	485411	keystroke	v	n/a
242.7805	0.135	485561	keystroke	a	n/a
243.0055	0.0595	486011	keystroke	t	n/a
243.095	0.135	486190	keystroke	i	n/a
243.125	0.165	486250	keystroke	o	n/a
243.185	0.1805	486370	keystroke	n	n/a
243.3355	0.135	486671	keystroke	Key.space	n/a
243.5755	0.12	487151	keystroke	s	n/a
243.6655	0.105	487331	keystroke	t	n/a
243.8155	0.0745	487631	keystroke	o	n/a
243.905	0.09	487810	keystroke	r	n/a
243.965	0.1205	487930	keystroke	a	n/a
244.2055	0.12	488411	keystroke	g	n/a
244.2805	0.09	488561	keystroke	e	n/a
244.3855	0.09	488771	keystroke	Key.enter	n/a
244.481	4.3615	488962	prompt	n/a	ticket foul measures touring\n
245.3605	0.09	490721	keystroke	t	n/a
245.5405	0.09	491081	keystroke	i	n/a
245.6905	0.105	491381	keystroke	c	n/a
245.8105	0.12	491621	keystroke	k	n/a
245.9155	0.195	491831	keystroke	e	n/a
246.0355	0.12	492071	keystroke	t	n/a
246.1405	0.15	492281	keystroke	Key.space	n/a
246.2915	0.074	492583	keystroke	f	n/a
246.3805	0.09	492761	keystroke	o	n/a
246.4555	0.165	492911	keystroke	u	n/a
246.5905	0.15	493181	keystroke	l	n/a
246.7105	0.135	493421	keystroke	Key.space	n/a
247.0555	0.15	494111	keystroke	m	n/a
247.1455	0.105	494291	keystroke	e	n/a
247.2355	0.165	494471	keystroke	a	n/a
247.3555	0.15	494711	keystroke	s	n/a
247.5205	0.135	495041	keystroke	u	n/a
247.6105	0.165	495221	keystroke	r	n/a
247.7315	0.119	495463	keystroke	e	n/a
247.7605	0.195	495521	keystroke	s	n/a
247.8955	0.135	495791	keystroke	Key.space	n/a
248.0905	0.135	496181	keystroke	t	n/a
248.1655	0.135	496331	keystroke	o	n/a
248.2705	0.12	496541	keystroke	u	n/a
248.3755	0.09	496751	keystroke	r	n/a
248.4805	0.135	496961	keystroke	i	n/a
248.5405	0.15	497081	keystroke	n	n/a
248.6455	0.09	497291	keystroke	g	n/a
248.7655	0.075	497531	keystroke	Key.enter	n/a
248.847	4.9755	497694	prompt	n/a	closes triumph matter advisors\n
249.516	0.1495	499032	keystroke	c	n/a
249.5605	0.12	499121	keystroke	l	n/a
249.7405	0.105	499481	keystroke	o	n/a
249.8305	0.09	499661	keystroke	s	n/a
249.9055	0.165	499811	keystroke	e	n/a
250.0255	0.12	500051	keystroke	s	n/a
250.1305	0.12	500261	keystroke	Key.space	n/a
250.2655	0.091	500531	keystroke	t	n/a
250.6705	0.105	501341	keystroke	r	n/a
250.7905	0.12	501581	keystroke	u	n/a
251.661	0.09	503322	keystroke	m	n/a
251.811	0.105	503622	keystroke	p	n/a
252.156	0.075	504312	keystroke	h	n/a
252.396	0.0895	504792	keystroke	Key.space	n/a
252.771	0.12	505542	keystroke	a	n/a
252.951	0.09	505902	keystroke	d	n/a
253.161	0.105	506322	keystroke	v	n/a
253.221	0.09	506442	keystroke	i	n/a
253.356	0.075	506712	keystroke	s	n/a
253.461	0.091	506922	keystroke	o	n/a
253.552	0.119	507104	keystroke	r	n/a
253.641	0.12	507282	keystroke	s	n/a
253.731	0.09	507462	keystroke	Key.enter	n/a
253.8265	7.557	507653	prompt	n/a	blowing smoke strings evaluations\n
254.707	0.075	509414	keystroke	b	n/a
254.856	0.076	509712	keystroke	l	n/a
255.021	0.105	510042	keystroke	o	n/a
255.186	0.12	510372	keystroke	w	n/a
255.321	0.12	510642	keystroke	i	n/a
255.426	0.075	510852	keystroke	n	n/a
255.757	0.059	511514	keystroke	g	n/a
256.461	0.12	512922	keystroke	Key.space	n/a
256.566	0.105	513132	keystroke	s	n/a
256.732	0.044	513464	keystroke	m	n/a
256.747	0.195	513494	keystroke	o	n/a
256.882	0.194	513764	keystroke	k	n/a
257.061	0.09	514122	keystroke	e	n/a
257.586	0.165	515172	keystroke	Key.space	n/a
257.766	0.105	515532	keystroke	s	n/a
257.976	0.12	515952	keystroke	t	n/a
258.051	0.12	516102	keystroke	r	n/a
258.201	0.1495	516402	keystroke	i	n/a
258.3065	0.1195	516613	keystroke	n	n/a
258.621	0.106	517242	keystroke	g	n/a
258.936	0.105	517872	keystroke	s	n/a
259.071	0.135	518142	keystroke	Key.space	n/a
259.146	0.105	518292	keystroke	e	n/a
259.357	0.134	518714	keystroke	v	n/a
259.476	0.15	518952	keystroke	a	n/a
259.957	0.075	519914	keystroke	l	n/a
260.182	0.134	520364	keystroke	u	n/a
260.332	0.164	520664	keystroke	a	n/a
260.466	0.135	520932	keystroke	t	n/a
260.616	0.12	521232	keystroke	i	n/a
260.677	0.21	521354	keystroke	o	n/a
260.811	0.135	521622	keystroke	n	n/a
261.082	0.105	522164	keystroke	s	n/a
261.307	0.074	522614	keystroke	Key.enter	n/a
261.3975	12.257	522795	prompt	n/a	aluminium movers sandwich grey\n
262.162	0.165	524324	keystroke	a	n/a
262.282	0.134	524564	keystroke	l	n/a
262.567	0.105	525134	keystroke	u	n/a
262.882	0.105	525764	keystroke	m	n/a
263.122	0.105	526244	keystroke	n	n/a
263.377	0.09	526754	keystroke	i	n/a
263.602	0.105	527204	keystroke	m	n/a
263.887	0.045	527774	keystroke	u	n/a
264.127	0.075	528254	keystroke	m	n/a
264.321	0.061	528642	keystroke	Key.space	n/a
264.337	0.165	528674	keystroke	m	n/a
264.457	0.15	528914	keystroke	o	n/a
264.592	0.09	529184	keystroke	v	n/a
264.772	0.15	529544	keystroke	e	n/a
264.862	0.15	529724	keystroke	r	n/a
264.967	0.135	529934	keystroke	s	n/a
265.627	0.149	531254	keystroke	Key.space	n/a
265.897	0.1355	531794	keystroke	s	n/a
265.987	0.1505	531974	keystroke	a	n/a
266.1825	0.1195	532365	keystroke	n	n/a
266.377	0.105	532754	keystroke	d	n/a
266.797	0.12	533594	keystroke	w	n/a
266.902	0.135	533804	keystroke	i	n/a
267.127	0.135	534254	keystroke	c	n/a
267.292	0.15	534584	keystroke	h	n/a
267.307	0.015	534614	keystroke	c	n/a
267.412	0.15	534824	keystroke	Key.space	n/a
267.562	0.12	535124	keystroke	g	n/a
267.802	0.15	535604	keystroke	r	n/a
268.282	0.09	536564	keystroke	Key.backspace	n/a
268.537	0.06	537074	keystroke	Key.backspace	n/a
268.807	0.03	537614	keystroke	Key.backspace	n/a
269.197	0.06	538394	keystroke	Key.backspace	n/a
269.692	0.1205	539384	keystroke	Key.space	n/a
269.917	0.15	539834	keystroke	g	n/a
270.997	0.1205	541994	keystroke	r	n/a
271.027	0.1655	542054	keystroke	e	n/a
271.1775	0.105	542355	keystroke	w	n/a
272.1975	0.12	544395	keystroke	Key.backspace	n/a
272.3325	0.09	544665	keystroke	y	n/a
273.4725	0.18	546945	keystroke	Key.enter	n/a
273.659	12.9855	547318	prompt	n/a	diagram innovative payment fridge\n
278.9955	0.057	557991	keystroke	d	n/a
278.9955	0.117	557991	keystroke	i	n/a
279.0975	0.1345	558195	keystroke	a	n/a
279.202	0.09	558404	keystroke	g	n/a
279.397	0.12	558794	keystroke	r	n/a
279.487	0.1355	558974	keystroke	a	n/a
279.6075	0.1495	559215	keystroke	m	n/a
279.9075	0.12	559815	keystroke	Key.space	n/a
280.1325	0.1345	560265	keystroke	i	n/a
280.237	0.06	560474	keystroke	n	n/a
280.4025	0.09	560805	keystroke	n	n/a
280.5075	0.105	561015	keystroke	o	n/a
281.0775	0.09	562155	keystroke	v	n/a
281.1525	0.15	562305	keystroke	a	n/a
281.3625	0.105	562725	keystroke	t	n/a
281.5125	0.12	563025	keystroke	i	n/a
281.6775	0.135	563355	keystroke	v	n/a
281.7675	0.12	563535	keystroke	e	n/a
281.8575	0.135	563715	keystroke	Key.space	n/a
281.9475	0.12	563895	keystroke	p	n/a
282.0225	0.165	564045	keystroke	a	n/a
282.1725	0.06	564345	keystroke	y	n/a
282.3975	0.075	564795	keystroke	m	n/a
282.4875	0.06	564975	keystroke	e	n/a
282.6225	0.075	565245	keystroke	n	n/a
282.7125	0.105	565425	keystroke	t	n/a
282.8475	0.135	565695	keystroke	Key.space	n/a
282.9975	0.105	565995	keystroke	d	n/a
283.2075	0.075	566415	keystroke	r	n/a
283.2675	0.135	566535	keystroke	i	n/a
283.4325	0.12	566865	keystroke	g	n/a
283.7475	0.075	567495	keystroke	Key.backspace	n/a
283.9425	0.06	567885	keystroke	Key.backspace	n/a
284.1825	0.075	568365	keystroke	Key.backspace	n/a
284.4825	0.075	568965	keystroke	Key.backspace	n/a
284.7825	0.09	569565	keystroke	d	n/a
285.2625	0.09	570525	keystroke	Key.backspace	n/a
285.3975	0.09	570795	keystroke	f	n/a
285.5925	0.075	571185	keystroke	r	n/a
285.6525	0.075	571305	keystroke	i	n/a
285.7875	0.09	571575	keystroke	d	n/a
285.9075	0.09	571815	keystroke	g	n/a
286.1775	0.09	572355	keystroke	e	n/a
286.5675	0.075	573135	keystroke	Key.enter	n/a
286.6485	7.061	573297	prompt	n/a	japan ground writers hart\n
287.8575	0.105	575715	keystroke	j	n/a
288.1275	0.09	576255	keystroke	p	n/a
288.5025	0.075	577005	keystroke	Key.backspace	n/a
288.6225	0.135	577245	keystroke	a	n/a
288.7585	0.119	577517	keystroke	p	n/a
288.9225	0.12	577845	keystroke	a	n/a
289.0275	0.09	578055	keystroke	n	n/a
289.2825	0.075	578565	keystroke	Key.space	n/a
289.3425	0.15	578685	keystroke	g	n/a
289.4325	0.15	578865	keystroke	r	n/a
289.5675	0.15	579135	keystroke	o	n/a
289.7325	0.135	579465	keystroke	y	n/a
289.9875	0.105	579975	keystroke	p	n/a
290.4975	0.06	580995	keystroke	Key.backspace	n/a
290.7075	0.09	581415	keystroke	Key.backspace	n/a
291.1725	0.06	582345	keystroke	u	n/a
291.4125	0.09	582825	keystroke	n	n/a
291.6075	0.135	583215	keystroke	d	n/a
291.7725	0.135	583545	keystroke	Key.space	n/a
291.9375	0.195	583875	keystroke	w	n/a
292.0875	0.135	584175	keystroke	r	n/a
292.2375	0.105	584475	keystroke	i	n/a
292.3425	0.12	584685	keystroke	t	n/a
292.4325	0.195	584865	keystroke	e	n/a
292.5525	0.135	585105	keystroke	r	n/a
292.6285	0.164	585257	keystroke	s	n/a
292.8075	0.12	585615	keystroke	Key.space	n/a
292.8825	0.195	585765	keystroke	h	n/a
292.9725	0.21	585945	keystroke	a	n/a
293.1525	0.15	586305	keystroke	r	n/a
293.4225	0.075	586845	keystroke	t	n/a
293.6475	0.06	587295	keystroke	Key.enter	n/a
293.714	4.6	587428	prompt	n/a	informed is investors possibly\n
294.3375	0.135	588675	keystroke	i	n/a
294.4125	0.12	588825	keystroke	n	n/a
294.5475	0.105	589095	keystroke	f	n/a
294.6375	0.12	589275	keystroke	o	n/a
294.7425	0.091	589485	keystroke	r	n/a
294.8925	0.105	589785	keystroke	m	n/a
294.9825	0.18	589965	keystroke	e	n/a
295.0725	0.165	590145	keystroke	d	n/a
295.1635	0.209	590327	keystroke	Key.space	n/a
295.2975	0.135	590595	keystroke	i	n/a
295.4775	0.135	590955	keystroke	s	n/a
295.5525	0.12	591105	keystroke	Key.space	n/a
295.6275	0.135	591255	keystroke	i	n/a
295.7025	0.135	591405	keystroke	n	n/a
295.7925	0.15	591585	keystroke	v	n/a
295.9125	0.135	591825	keystroke	e	n/a
295.9875	0.195	591975	keystroke	s	n/a
296.1375	0.12	592275	keystroke	t	n/a
296.2725	0.12	592545	keystroke	o	n/a
296.4075	0.12	592815	keystroke	r	n/a
296.4825	0.135	592965	keystroke	s	n/a
296.6025	0.12	593205	keystroke	Key.space	n/a
296.7075	0.12	593415	keystroke	p	n/a
296.7975	0.105	593595	keystroke	o	n/a
296.8875	0.075	593775	keystroke	s	n/a
297.0675	0.135	594135	keystroke	s	n/a
297.2175	0.06	594435	keystroke	i	n/a
297.2935	0.104	594587	keystroke	b	n/a
297.4275	0.015	594855	keystroke	i	n/a
297.4725	0.21	594945	keystroke	l	n/a
297.6975	0.105	595395	keystroke	y	n/a
298.2375	0.075	596475	keystroke	Key.enter	n/a
298.3205	9.8195	596641	prompt	n/a	wanted million crafts retain\n
298.9725	0.165	597945	keystroke	w	n/a
299.0925	0.15	598185	keystroke	a	n/a
299.2275	0.105	598455	keystroke	n	n/a
299.2875	0.12	598575	keystroke	t	n/a
299.4225	0.165	598845	keystroke	e	n/a
299.5575	0.105	599115	keystroke	d	n/a
299.6325	0.135	599265	keystroke	Key.space	n/a
299.7525	0.121	599505	keystroke	w	n/a
299.8435	0.164	599687	keystroke	i	n/a
299.9625	0.075	599925	keystroke	l	n/a
300.1125	0.09	600225	keystroke	l	n/a
300.1875	0.195	600375	keystroke	i	n/a
300.7725	0.09	601545	keystroke	o	n/a
300.9825	0.06	601965	keystroke	n	n/a
301.2225	0.09	602445	keystroke	Key.backspace	n/a
301.4925	0.105	602985	keystroke	Key.backspace	n/a
301.6725	0.105	603345	keystroke	Key.backspace	n/a
301.9275	0.09	603855	keystroke	Key.backspace	n/a
302.1225	0.075	604245	keystroke	Key.backspace	n/a
302.3325	0.06	604665	keystroke	Key.backspace	n/a
302.5725	0.06	605145	keystroke	Key.backspace	n/a
303.1575	0.09	606315	keystroke	m	n/a
303.3375	0.1665	606675	keystroke	i	n/a
303.443	0.09	606886	keystroke	l	n/a
303.608	0.1345	607216	keystroke	l	n/a
303.7725	0.136	607545	keystroke	i	n/a
303.8925	0.135	607785	keystroke	p	n/a
304.0425	0.135	608085	keystroke	n	n/a
304.2675	0.075	608535	keystroke	Key.space	n/a
304.643	0.09	609286	keystroke	Key.backspace	n/a
304.868	0.075	609736	keystroke	Key.backspace	n/a
305.078	0.135	610156	keystroke	Key.backspace	n/a
305.499	0.15	610998	keystroke	o	n/a
305.588	0.166	611176	keystroke	n	n/a
305.738	0.09	611476	keystroke	Key.space	n/a
305.754	0.104	611508	keystroke	c	n/a
306.038	0.12	612076	keystroke	r	n/a
306.129	0.12	612258	keystroke	a	n/a
306.368	0.136	612736	keystroke	f	n/a
306.713	0.12	613426	keystroke	t	n/a
307.104	0.089	614208	keystroke	s	n/a
307.223	0.105	614446	keystroke	Key.space	n/a
307.359	0.134	614718	keystroke	r	n/a
307.433	0.135	614866	keystroke	e	n/a
307.569	0.164	615138	keystroke	t	n/a
307.643	0.195	615286	keystroke	a	n/a
307.749	0.119	615498	keystroke	i	n/a
307.808	0.105	615616	keystroke	n	n/a
308.078	0.06	616156	keystroke	Key.enter	n/a
308.144	6.627	616288	prompt	n/a	amenities expense lewis chamber\n
308.933	0.106	617866	keystroke	a	n/a
309.129	0.104	618258	keystroke	m	n/a
309.354	0.09	618708	keystroke	e	n/a
309.474	0.134	618948	keystroke	n	n/a
310.719	0.135	621438	keystroke	i	n/a
310.959	0.09	621918	keystroke	t	n/a
311.109	0.165	622218	keystroke	i	n/a
311.259	0.149	622518	keystroke	e	n/a
311.334	0.15	622668	keystroke	s	n/a
311.454	0.15	622908	keystroke	Key.space	n/a
311.6945	0.1645	623389	keystroke	e	n/a
311.844	0.105	623688	keystroke	x	n/a
311.934	0.105	623868	keystroke	p	n/a
312.054	0.1055	624108	keystroke	e	n/a
312.1745	0.1045	624349	keystroke	n	n/a
312.339	0.1355	624678	keystroke	s	n/a
312.414	0.1655	624828	keystroke	e	n/a
312.5945	0.1035	625189	keystroke	Key.space	n/a
312.819	0.105	625638	keystroke	l	n/a
312.879	0.1955	625758	keystroke	e	n/a
312.9845	0.135	625969	keystroke	w	n/a
313.134	0.135	626268	keystroke	i	n/a
313.299	0.1355	626598	keystroke	s	n/a
313.4185	0.09	626837	keystroke	Key.space	n/a
313.4945	0.135	626989	keystroke	c	n/a
313.6145	0.075	627229	keystroke	h	n/a
313.719	0.1205	627438	keystroke	a	n/a
313.8245	0.06	627649	keystroke	m	n/a
314.0345	0.075	628069	keystroke	b	n/a
314.1245	0.18	628249	keystroke	e	n/a
314.2295	0.12	628459	keystroke	r	n/a
314.6795	0.09	629359	keystroke	Key.enter	n/a
314.775	6.776	629550	prompt	n/a	priority graphical promotes mighty\n
315.6845	0.12	631369	keystroke	p	n/a
315.8645	0.135	631729	keystroke	r	n/a
315.9845	0.12	631969	keystroke	i	n/a
316.0445	0.12	632089	keystroke	o	n/a
316.1795	0.12	632359	keystroke	r	n/a
316.2545	0.135	632509	keystroke	i	n/a
316.4645	0.105	632929	keystroke	t	n/a
316.5995	0.105	633199	keystroke	y	n/a
316.7495	0.15	633499	keystroke	Key.space	n/a
317.1395	0.06	634279	keystroke	g	n/a
317.2895	0.165	634579	keystroke	r	n/a
317.3795	0.135	634759	keystroke	a	n/a
317.4395	0.12	634879	keystroke	p	n/a
317.5595	0.15	635119	keystroke	h	n/a
317.6495	0.12	635299	keystroke	i	n/a
317.7695	0.165	635539	keystroke	c	n/a
317.8445	0.12	635689	keystroke	a	n/a
317.9795	0.165	635959	keystroke	l	n/a
318.2795	0.105	636559	keystroke	Key.space	n/a
318.4145	0.165	636829	keystroke	p	n/a
318.6395	0.15	637279	keystroke	r	n/a
318.7895	0.15	637579	keystroke	o	n/a
318.9395	0.165	637879	keystroke	m	n/a
319.0595	0.12	638119	keystroke	o	n/a
319.2095	0.105	638419	keystroke	t	n/a
319.2995	0.105	638599	keystroke	o	n/a
319.4195	0.195	638839	keystroke	e	n/a
319.5395	0.165	639079	keystroke	s	n/a
319.7645	0.09	639529	keystroke	Key.space	n/a
320.1545	0.045	640309	keystroke	m	n/a
320.1695	0.105	640339	keystroke	i	n/a
320.2895	0.105	640579	keystroke	g	n/a
320.3645	0.105	640729	keystroke	h	n/a
320.5145	0.09	641029	keystroke	t	n/a
320.8895	0.075	641779	keystroke	y	n/a
321.4745	0.075	642949	keystroke	Key.enter	n/a
321.555	5.816	643110	prompt	n/a	penguin stay responded bracelet\n
322.4495	0.09	644899	keystroke	p	n/a
322.6295	0.09	645259	keystroke	e	n/a
322.7045	0.09	645409	keystroke	n	n/a
322.8245	0.105	645649	keystroke	g	n/a
322.9445	0.135	645889	keystroke	i	n/a
323.0195	0.09	646039	keystroke	u	n/a
323.4545	0.045	646909	keystroke	n	n/a
324.0545	0.15	648109	keystroke	Key.space	n/a
324.2495	0.12	648499	keystroke	s	n/a
324.3995	0.165	648799	keystroke	t	n/a
324.5195	0.15	649039	keystroke	a	n/a
324.6545	0.135	649309	keystroke	y	n/a
324.7895	0.135	649579	keystroke	Key.space	n/a
325.3595	0.165	650719	keystroke	r	n/a
325.4345	0.135	650869	keystroke	e	n/a
325.4945	0.135	650989	keystroke	s	n/a
325.5545	0.12	651109	keystroke	p	n/a
325.6145	0.15	651229	keystroke	o	n/a
325.7195	0.12	651439	keystroke	n	n/a
325.7795	0.12	651559	keystroke	d	n/a
325.8545	0.165	651709	keystroke	e	n/a
325.9595	0.15	651919	keystroke	d	n/a
326.3495	0.105	652699	keystroke	Key.space	n/a
326.5595	0.105	653119	keystroke	b	n/a
326.6195	0.09	653239	keystroke	r	n/a
326.6795	0.09	653359	keystroke	a	n/a
326.8145	0.12	653629	keystroke	c	n/a
326.8745	0.075	653749	keystroke	e	n/a
326.9195	0.12	653839	keystroke	l	n/a
327.0545	0.12	654109	keystroke	e	n/a
327.1295	0.12	654259	keystroke	t	n/a
327.3095	0.06	654619	keystroke	Key.enter	n/a
327.375	9.7165	654750	prompt	n/a	rehab hopefully efficiently securely\n
328.2845	0.15	656569	keystroke	r	n/a
328.3895	0.135	656779	keystroke	e	n/a
328.4495	0.09	656899	keystroke	b	n/a
328.6445	0.12	657289	keystroke	a	n/a
328.7945	0.12	657589	keystroke	h	n/a
328.9895	0.15	657979	keystroke	Key.space	n/a
329.2295	0.12	658459	keystroke	h	n/a
329.6045	0.165	659209	keystroke	o	n/a
329.6945	0.135	659389	keystroke	p	n/a
329.7995	0.135	659599	keystroke	e	n/a
329.9495	0.105	659899	keystroke	f	n/a
330.0995	0.15	660199	keystroke	u	n/a
330.2345	0.09	660469	keystroke	l	n/a
330.4295	0.09	660859	keystroke	l	n/a
330.5795	0.075	661159	keystroke	y	n/a
330.9845	0.09	661969	keystroke	Key.space	n/a
331.1195	0.135	662239	keystroke	e	n/a
331.2095	0.105	662419	keystroke	f	n/a
331.3895	0.105	662779	keystroke	f	n/a
331.5545	0.09	663109	keystroke	i	n/a
331.6895	0.12	663379	keystroke	c	n/a
331.7795	0.09	663559	keystroke	i	n/a
331.8995	0.105	663799	keystroke	e	n/a
331.9895	0.105	663979	keystroke	n	n/a
332.1395	0.135	664279	keystroke	t	n/a
332.3945	0.09	664789	keystroke	y	n/a
332.9195	0.18	665839	keystroke	l	n/a
333.2795	0.12	666559	keystroke	y	n/a
333.9545	0.12	667909	keystroke	Key.space	n/a
334.0595	0.165	668119	keystroke	s	n/a
334.1945	0.12	668389	keystroke	e	n/a
334.4195	0.09	668839	keystroke	c	n/a
334.5545	0.105	669109	keystroke	u	n/a
334.6895	0.15	669379	keystroke	r	n/a
334.8095	0.195	669619	keystroke	e	n/a
334.9445	0.12	669889	keystroke	d	n/a
335.8295	0.06	671659	keystroke	Key.backspace	n/a
336.6395	0.09	673279	keystroke	l	n/a
336.8795	0.09	673759	keystroke	y	n/a
337.0145	0.075	674029	keystroke	Key.enter	n/a
337.0955	14.261	674191	prompt	n/a	wright maintains bankruptcy oecd\n
338.0495	0.195	676099	keystroke	w	n/a
338.1845	0.105	676369	keystroke	r	n/a
338.3195	0.12	676639	keystroke	i	n/a
338.5145	0.09	677029	keystroke	g	n/a
338.6645	0.15	677329	keystroke	h	n/a
338.7995	0.09	677599	keystroke	t	n/a
338.8745	0.21	677749	keystroke	Key.space	n/a
339.0995	0.12	678199	keystroke	b	n/a
339.9395	0.045	679879	keystroke	Key.backspace	n/a
340.1945	0.135	680389	keystroke	m	n/a
340.3445	0.09	680689	keystroke	a	n/a
340.5695	0.15	681139	keystroke	i	n/a
340.6295	0.15	681259	keystroke	n	n/a
340.8095	0.135	681619	keystroke	t	n/a
340.9145	0.12	681829	keystroke	a	n/a
341.0195	0.165	682039	keystroke	i	n/a
341.0945	0.12	682189	keystroke	n	n/a
341.3795	0.15	682759	keystroke	s	n/a
341.5445	0.09	683089	keystroke	Key.space	n/a
341.9345	0.075	683869	keystroke	b	n/a
342.0695	0.15	684139	keystroke	a	n/a
342.3095	0.27	684619	keystroke	n	n/a
342.4295	0.225	684859	keystroke	k	n/a
343.0145	0.165	686029	keystroke	r	n/a
343.1945	0.18	686389	keystroke	u	n/a
343.3145	0.135	686629	keystroke	p	n/a
343.6445	0.105	687289	keystroke	t	n/a
343.9595	0.12	687919	keystroke	s	n/a
344.1245	0.135	688249	keystroke	c	n/a
344.2445	0.075	688489	keystroke	y	n/a
344.8445	0.075	689689	keystroke	Key.backspace	n/a
345.0545	0.06	690109	keystroke	Key.backspace	n/a
345.2345	0.06	690469	keystroke	Key.backspace	n/a
345.3545	0.135	690709	keystroke	c	n/a
345.4745	0.075	690949	keystroke	y	n/a
346.3145	0.12	692629	keystroke	Key.space	n/a
346.9595	0.09	693919	keystroke	o	n/a
347.0645	0.015	694129	keystroke	o	n/a
347.2445	0.06	694489	keystroke	e	n/a
347.5445	0.075	695089	keystroke	c	n/a
347.8595	0.09	695719	keystroke	d	n/a
348.9395	0.12	697879	keystroke	Key.backspace	n/a
349.3895	0.09	698779	keystroke	Key.backspace	n/a
349.6445	0.09	699289	keystroke	Key.backspace	n/a
349.9445	0.105	699889	keystroke	Key.backspace	n/a
350.0945	0.105	700189	keystroke	e	n/a
350.3495	0.09	700699	keystroke	c	n/a
350.5895	0.09	701179	keystroke	d	n/a
351.2795	0.075	702559	keystroke	Key.enter	n/a
351.3605	5.591	702721	prompt	n/a	booty poor keyboards yukon\n
352.1945	0.105	704389	keystroke	b	n/a
352.2695	0.075	704539	keystroke	o	n/a
352.4045	0.09	704809	keystroke	o	n/a
352.5995	0.09	705199	keystroke	t	n/a
352.7195	0.09	705439	keystroke	y	n/a
353.2595	0.135	706519	keystroke	Key.space	n/a
353.4095	0.15	706819	keystroke	p	n/a
353.5145	0.09	707029	keystroke	o	n/a
353.6795	0.135	707359	keystroke	o	n/a
353.8295	0.135	707659	keystroke	r	n/a
353.9195	0.135	707839	keystroke	Key.space	n/a
353.9945	0.12	707989	keystroke	k	n/a
354.1145	0.135	708229	keystroke	e	n/a
354.2195	0.075	708439	keystroke	y	n/a
354.4145	0.105	708829	keystroke	b	n/a
354.4745	0.15	708949	keystroke	o	n/a
354.6695	0.105	709339	keystroke	a	n/a
354.8345	0.075	709669	keystroke	r	n/a
355.0595	0.18	710119	keystroke	d	n/a
355.2095	0.165	710419	keystroke	s	n/a
355.2845	0.135	710569	keystroke	Key.space	n/a
355.7795	0.165	711559	keystroke	y	n/a
355.8695	0.135	711739	keystroke	u	n/a
356.1845	0.12	712369	keystroke	k	n/a
356.2895	0.135	712579	keystroke	o	n/a
356.4545	0.12	712909	keystroke	n	n/a
356.8445	0.105	713689	keystroke	Key.enter	n/a
356.956	12.311	713912	prompt	n/a	knowing joan suddenly option\n
363.5085	0.056	727017	keystroke	k	n/a
363.5505	0.119	727101	keystroke	n	n/a
363.6395	0.091	727279	keystroke	o	n/a
363.7455	0.119	727491	keystroke	w	n/a
363.8945	0.12	727789	keystroke	i	n/a
363.9545	0.105	727909	keystroke	n	n/a
364.0895	0.106	728179	keystroke	g	n/a
364.1795	0.12	728359	keystroke	Key.space	n/a
364.9145	0.135	729829	keystroke	j	n/a
365.0205	0.12	730041	keystroke	o	n/a
365.1855	0.135	730371	keystroke	a	n/a
365.3055	0.104	730611	keystroke	n	n/a
365.4545	0.12	730909	keystroke	Key.space	n/a
365.6955	0.09	731391	keystroke	d	n/a
365.7705	0.105	731541	keystroke	u	n/a
366.3705	0.074	732741	keystroke	Key.backspace	n/a
366.6095	0.075	733219	keystroke	Key.backspace	n/a
366.7905	0.105	733581	keystroke	s	n/a
366.9095	0.091	733819	keystroke	u	n/a
367.0755	0.104	734151	keystroke	d	n/a
367.3455	0.24	734691	keystroke	d	n/a
367.5405	0.135	735081	keystroke	e	n/a
367.7055	0.104	735411	keystroke	n	n/a
367.8555	0.135	735711	keystroke	l	n/a
368.0055	0.105	736011	keystroke	y	n/a
368.1395	0.21	736279	keystroke	Key.space	n/a
368.2605	0.105	736521	keystroke	o	n/a
368.3355	0.09	736671	keystroke	p	n/a
368.4705	0.12	736941	keystroke	t	n/a
368.5605	0.135	737121	keystroke	i	n/a
368.6505	0.105	737301	keystroke	o	n/a
368.7405	0.09	737481	keystroke	n	n/a
369.2195	0.046	738439	keystroke	Key.enter	n/a
369.2715	5.621	738543	prompt	n/a	distributed thrown africa producer\n
370.0755	0.135	740151	keystroke	d	n/a
370.1805	0.12	740361	keystroke	i	n/a
370.2705	0.12	740541	keystroke	s	n/a
370.4505	0.12	740901	keystroke	t	n/a
370.5255	0.105	741051	keystroke	r	n/a
370.5855	0.06	741171	keystroke	i	n/a
370.6605	0.195	741321	keystroke	b	n/a
370.7355	0.135	741471	keystroke	u	n/a
370.8555	0.09	741711	keystroke	t	n/a
370.9305	0.12	741861	keystroke	e	n/a
371.0955	0.09	742191	keystroke	d	n/a
371.2005	0.12	742401	keystroke	Key.space	n/a
371.5455	0.075	743091	keystroke	t	n/a
371.6505	0.105	743301	keystroke	h	n/a
371.7705	0.105	743541	keystroke	r	n/a
371.8605	0.09	743721	keystroke	o	n/a
371.9805	0.09	743961	keystroke	w	n/a
372.1605	0.12	744321	keystroke	n	n/a
372.2955	0.134	744591	keystroke	Key.space	n/a
372.3705	0.15	744741	keystroke	a	n/a
372.4905	0.105	744981	keystroke	f	n/a
373.0755	0.105	746151	keystroke	r	n/a
373.3005	0.12	746601	keystroke	i	n/a
373.3905	0.135	746781	keystroke	c	n/a
373.4955	0.12	746991	keystroke	a	n/a
373.8855	0.135	747771	keystroke	Key.space	n/a
373.9905	0.105	747981	keystroke	p	n/a
374.0805	0.09	748161	keystroke	r	n/a
374.2155	0.09	748431	keystroke	o	n/a
374.2905	0.075	748581	keystroke	d	n/a
374.4105	0.105	748821	keystroke	u	n/a
374.5155	0.045	749031	keystroke	c	n/a
374.6505	0.135	749301	keystroke	e	n/a
374.7255	0.105	749451	keystroke	r	n/a
374.8455	0.045	749691	keystroke	Key.enter	n/a
374.896	8.996	749792	prompt	n/a	rapidly windsor vacancies lloyd\n
375.7005	0.18	751401	keystroke	r	n/a
375.8055	0.195	751611	keystroke	a	n/a
375.9405	0.105	751881	keystroke	p	n/a
376.1055	0.105	752211	keystroke	i	n/a
376.2255	0.105	752451	keystroke	d	n/a
376.3455	0.09	752691	keystroke	l	n/a
376.5255	0.09	753051	keystroke	y	n/a
376.7955	0.12	753591	keystroke	Key.space	n/a
377.0505	0.105	754101	keystroke	w	n/a
377.1405	0.135	754281	keystroke	i	n/a
377.2155	0.12	754431	keystroke	n	n/a
377.3055	0.12	754611	keystroke	d	n/a
377.4705	0.15	754941	keystroke	s	n/a
377.6055	0.105	755211	keystroke	o	n/a
377.7705	0.105	755541	keystroke	r	n/a
377.9955	0.075	755991	keystroke	Key.space	n/a
379.3605	0.075	758721	keystroke	v	n/a
379.4055	0.105	758811	keystroke	a	n/a
379.6005	0.135	759201	keystroke	c	n/a
379.7205	0.135	759441	keystroke	a	n/a
379.9605	0.12	759921	keystroke	n	n/a
380.1255	0.12	760251	keystroke	c	n/a
380.2305	0.12	760461	keystroke	i	n/a
380.4105	0.15	760821	keystroke	e	n/a
380.5005	0.12	761001	keystroke	s	n/a
381.1155	0.165	762231	keystroke	Key.space	n/a
382.1205	0.12	764241	keystroke	l	n/a
382.3455	0.12	764691	keystroke	l	n/a
382.9605	0.105	765921	keystroke	o	n/a
383.1705	0.09	766341	keystroke	y	n/a
383.3955	0.105	766791	keystroke	d	n/a
383.8005	0.09	767601	keystroke	Key.enter	n/a
383.896	5.651	767792	prompt	n/a	restoration arrangement labeled fewer\n
384.7005	0.15	769401	keystroke	r	n/a
384.7905	0.105	769581	keystroke	e	n/a
384.8355	0.105	769671	keystroke	s	n/a
384.9705	0.075	769941	keystroke	t	n/a
385.0605	0.12	770121	keystroke	o	n/a
385.1505	0.09	770301	keystroke	r	n/a
385.1955	0.15	770391	keystroke	a	n/a
385.3155	0.105	770631	keystroke	t	n/a
385.3905	0.18	770781	keystroke	i	n/a
385.4955	0.15	770991	keystroke	o	n/a
385.5855	0.09	771171	keystroke	n	n/a
385.9455	0.12	771891	keystroke	Key.space	n/a
386.3055	0.105	772611	keystroke	a	n/a
386.3955	0.075	772791	keystroke	r	n/a
386.5455	0.12	773091	keystroke	r	n/a
386.6205	0.105	773241	keystroke	a	n/a
386.7105	0.15	773421	keystroke	n	n/a
386.8005	0.195	773601	keystroke	g	n/a
386.9505	0.15	773901	keystroke	e	n/a
387.0855	0.12	774171	keystroke	m	n/a
387.1905	0.09	774381	keystroke	e	n/a
387.3105	0.105	774621	keystroke	n	n/a
387.4305	0.105	774861	keystroke	t	n/a
387.5205	0.135	775041	keystroke	Key.space	n/a
387.5805	0.12	775161	keystroke	l	n/a
387.6855	0.15	775371	keystroke	a	n/a
387.8505	0.075	775701	keystroke	b	n/a
387.9555	0.105	775911	keystroke	e	n/a
388.1055	0.09	776211	keystroke	l	n/a
388.2105	0.165	776421	keystroke	e	n/a
388.3305	0.12	776661	keystroke	d	n/a
388.4355	0.09	776871	keystroke	Key.space	n/a
388.5555	0.225	777111	keystroke	f	n/a
388.7055	0.09	777411	keystroke	e	n/a
388.7655	0.195	777531	keystroke	w	n/a
388.9155	0.27	777831	keystroke	e	n/a
389.1405	0.105	778281	keystroke	r	n/a
389.4555	0.09	778911	keystroke	Key.enter	n/a
389.551	5.771	779102	prompt	n/a	cork jefferson placing alabama\n
390.4305	0.12	780861	keystroke	c	n/a
390.5355	0.075	781071	keystroke	o	n/a
390.7455	0.105	781491	keystroke	r	n/a
390.8355	0.09	781671	keystroke	k	n/a
390.9105	0.09	781821	keystroke	Key.space	n/a
391.2255	0.075	782451	keystroke	j	n/a
391.4055	0.135	782811	keystroke	e	n/a
391.6305	0.075	783261	keystroke	f	n/a
391.7655	0.12	783531	keystroke	f	n/a
391.8705	0.165	783741	keystroke	e	n/a
392.0055	0.105	784011	keystroke	r	n/a
392.0805	0.135	784161	keystroke	s	n/a
392.2005	0.15	784401	keystroke	o	n/a
392.3205	0.15	784641	keystroke	n	n/a
392.4855	0.105	784971	keystroke	Key.space	n/a
392.6205	0.15	785241	keystroke	p	n/a
392.7105	0.18	785421	keystroke	l	n/a
392.8005	0.15	785601	keystroke	a	n/a
392.9955	0.12	785991	keystroke	c	n/a
393.1305	0.18	786261	keystroke	i	n/a
393.2505	0.12	786501	keystroke	n	n/a
393.4155	0.12	786831	keystroke	g	n/a
393.6405	0.075	787281	keystroke	Key.space	n/a
393.8055	0.12	787611	keystroke	a	n/a
393.9105	0.12	787821	keystroke	l	n/a
394.0455	0.12	788091	keystroke	a	n/a
394.1805	0.075	788361	keystroke	b	n/a
394.6455	0.135	789291	keystroke	a	n/a
394.8555	0.09	789711	keystroke	m	n/a
395.0205	0.135	790041	keystroke	a	n/a
395.2905	0.03	790581	keystroke	Key.enter	n/a
395.3295	8.2585	790659	prompt	n/a	effects opening discs gordon\n
396.2205	0.165	792441	keystroke	e	n/a
396.4155	0.135	792831	keystroke	f	n/a
396.6555	0.15	793311	keystroke	f	n/a
396.7455	0.195	793491	keystroke	e	n/a
396.9555	0.165	793911	keystroke	c	n/a
397.0905	0.12	794181	keystroke	t	n/a
397.3455	0.105	794691	keystroke	s	n/a
397.4655	0.105	794931	keystroke	Key.space	n/a
397.6455	0.105	795291	keystroke	o	n/a
397.96	0.1055	795920	keystroke	e	n/a
398.41	0.12	796820	keystroke	Key.backspace	n/a
398.9205	0.1045	797841	keystroke	p	n/a
399.04	0.15	798080	keystroke	e	n/a
399.205	0.06	798410	keystroke	n	n/a
399.3105	0.12	798621	keystroke	i	n/a
399.415	0.1355	798830	keystroke	n	n/a
399.6105	0.09	799221	keystroke	g	n/a
400.1505	0.12	800301	keystroke	Key.space	n/a
400.54	0.105	801080	keystroke	d	n/a
400.675	0.12	801350	keystroke	i	n/a
400.78	0.195	801560	keystroke	s	n/a
400.945	0.1205	801890	keystroke	c	n/a
401.44	0.1355	802880	keystroke	s	n/a
402.0405	0.135	804081	keystroke	Key.space	n/a
402.2205	0.105	804441	keystroke	g	n/a
402.3705	0.1495	804741	keystroke	o	n/a
402.805	0.1205	805610	keystroke	r	n/a
403.06	0.09	806120	keystroke	d	n/a
403.1805	0.12	806361	keystroke	o	n/a
403.2705	0.1045	806541	keystroke	n	n/a
403.5105	0.075	807021	keystroke	Key.enter	n/a
403.592	4.795	807184	prompt	n/a	kennedy release hardware processing\n
404.2755	0.105	808551	keystroke	k	n/a
404.3955	0.135	808791	keystroke	e	n/a
404.5905	0.045	809181	keystroke	n	n/a
404.7555	0.06	809511	keystroke	n	n/a
404.8305	0.09	809661	keystroke	e	n/a
404.9055	0.135	809811	keystroke	d	n/a
405.0255	0.09	810051	keystroke	y	n/a
405.2055	0.1195	810411	keystroke	Key.space	n/a
405.3105	0.1495	810621	keystroke	r	n/a
405.4	0.09	810800	keystroke	e	n/a
405.475	0.12	810950	keystroke	l	n/a
405.565	0.09	811130	keystroke	e	n/a
405.64	0.15	811280	keystroke	a	n/a
405.76	0.15	811520	keystroke	s	n/a
405.865	0.12	811730	keystroke	e	n/a
405.97	0.105	811940	keystroke	Key.space	n/a
406.015	0.165	812030	keystroke	h	n/a
406.105	0.165	812210	keystroke	a	n/a
406.225	0.09	812450	keystroke	r	n/a
406.42	0.105	812840	keystroke	d	n/a
406.54	0.105	813080	keystroke	w	n/a
406.615	0.165	813230	keystroke	a	n/a
406.765	0.135	813530	keystroke	r	n/a
406.855	0.12	813710	keystroke	e	n/a
406.99	0.12	813980	keystroke	Key.space	n/a
407.14	0.105	814280	keystroke	p	n/a
407.245	0.09	814490	keystroke	r	n/a
407.35	0.135	814700	keystroke	o	n/a
407.47	0.195	814940	keystroke	c	n/a
407.59	0.12	815180	keystroke	e	n/a
407.65	0.09	815300	keystroke	s	n/a
407.8	0.165	815600	keystroke	s	n/a
407.995	0.135	815990	keystroke	i	n/a
408.07	0.105	816140	keystroke	n	n/a
408.19	0.09	816380	keystroke	g	n/a
408.31	0.075	816620	keystroke	Key.enter	n/a
408.391	8.996	816782	prompt	n/a	intense conversations zoom bankruptcy\n
409.18	0.18	818360	keystroke	i	n/a
409.3	0.12	818600	keystroke	n	n/a
409.405	0.12	818810	keystroke	t	n/a
409.48	0.12	818960	keystroke	e	n/a
409.585	0.12	819170	keystroke	n	n/a
410.275	0.15	820550	keystroke	s	n/a
410.35	0.15	820700	keystroke	e	n/a
410.575	0.12	821150	keystroke	Key.space	n/a
410.68	0.12	821360	keystroke	c	n/a
410.785	0.135	821570	keystroke	o	n/a
410.875	0.12	821750	keystroke	n	n/a
410.965	0.045	821930	keystroke	v	n/a
411.041	0.104	822082	keystroke	e	n/a
411.13	0.15	822260	keystroke	r	n/a
411.22	0.09	822440	keystroke	s	n/a
411.295	0.18	822590	keystroke	a	n/a
411.445	0.09	822890	keystroke	t	n/a
411.52	0.09	823040	keystroke	i	n/a
411.55	0.135	823100	keystroke	o	n/a
411.625	0.12	823250	keystroke	n	n/a
411.85	0.121	823700	keystroke	s	n/a
412.21	0.09	824420	keystroke	Key.space	n/a
412.285	0.12	824570	keystroke	z	n/a
412.42	0.09	824840	keystroke	o	n/a
412.6	0.105	825200	keystroke	o	n/a
412.645	0.135	825290	keystroke	m	n/a
412.81	0.09	825620	keystroke	Key.space	n/a
412.96	0.09	825920	keystroke	b	n/a
413.095	0.15	826190	keystroke	a	n/a
413.215	0.12	826430	keystroke	n	n/a
413.305	0.105	826610	keystroke	k	n/a
414.43	0.136	828860	keystroke	r	n/a
414.55	0.12	829100	keystroke	u	n/a
414.58	0.165	829160	keystroke	p	n/a
414.73	0.075	829460	keystroke	t	n/a
416.969	0.026	833938	keystroke	c	n/a
416.98	0.045	833960	keystroke	y	n/a
417.34	0.045	834680	keystroke	Key.enter	n/a
417.392	5.6355	834784	prompt	n/a	changing programme exhibit yours\n
418.15	0.12	836300	keystroke	c	n/a
418.24	0.076	836480	keystroke	h	n/a
418.345	0.121	836690	keystroke	a	n/a
418.48	0.09	836960	keystroke	n	n/a
418.63	0.075	837260	keystroke	g	n/a
418.69	0.135	837380	keystroke	i	n/a
418.75	0.135	837500	keystroke	n	n/a
418.9	0.09	837800	keystroke	g	n/a
418.96	0.105	837920	keystroke	Key.space	n/a
419.005	0.105	838010	keystroke	p	n/a
419.14	0.105	838280	keystroke	r	n/a
419.23	0.12	838460	keystroke	o	n/a
419.366	0.059	838732	keystroke	g	n/a
419.485	0.12	838970	keystroke	r	n/a
419.56	0.12	839120	keystroke	a	n/a
419.665	0.06	839330	keystroke	m	n/a
419.83	0.075	839660	keystroke	m	n/a
419.965	0.135	839930	keystroke	e	n/a
420.085	0.12	840170	keystroke	Key.space	n/a
420.25	0.285	840500	keystroke	e	n/a
420.895	0.105	841790	keystroke	x	n/a
421.375	0.135	842750	keystroke	h	n/a
421.705	0.091	843410	keystroke	i	n/a
421.81	0.09	843620	keystroke	b	n/a
421.93	0.135	843860	keystroke	i	n/a
422.125	0.105	844250	keystroke	t	n/a
422.275	0.105	844550	keystroke	Key.space	n/a
422.455	0.106	844910	keystroke	y	n/a
422.575	0.166	845150	keystroke	o	n/a
422.666	0.134	845332	keystroke	u	n/a
422.755	0.106	845510	keystroke	r	n/a
422.816	0.104	845632	keystroke	s	n/a
422.965	0.06	845930	keystroke	Key.enter	n/a
423.0315	5.0355	846063	prompt	n/a	harm gage vincent breaks\n
423.986	0.134	847972	keystroke	h	n/a
424.15	0.196	848300	keystroke	a	n/a
424.361	0.119	848722	keystroke	r	n/a
424.511	0.194	849022	keystroke	m	n/a
424.66	0.15	849320	keystroke	Key.space	n/a
425.096	0.21	850192	keystroke	g	n/a
425.321	0.15	850642	keystroke	a	n/a
425.531	0.255	851062	keystroke	g	n/a
425.681	0.21	851362	keystroke	e	n/a
425.876	0.12	851752	keystroke	Key.space	n/a
426.266	0.135	852532	keystroke	v	n/a
426.371	0.15	852742	keystroke	i	n/a
426.446	0.15	852892	keystroke	n	n/a
426.641	0.15	853282	keystroke	c	n/a
426.746	0.12	853492	keystroke	e	n/a
426.896	0.15	853792	keystroke	n	n/a
427.076	0.09	854152	keystroke	t	n/a
427.15	0.121	854300	keystroke	Key.space	n/a
427.316	0.1195	854632	keystroke	b	n/a
427.4655	0.15	854931	keystroke	r	n/a
427.5705	0.12	855141	keystroke	e	n/a
427.6605	0.105	855321	keystroke	a	n/a
427.7205	0.12	855441	keystroke	k	n/a
427.8555	0.105	855711	keystroke	s	n/a
427.9895	0.076	855979	keystroke	Key.enter	n/a
428.071	9.326	856142	prompt	n/a	prophet laura yamaha verizon\n
428.8305	0.135	857661	keystroke	p	n/a
429.1005	0.12	858201	keystroke	r	n/a
429.3255	0.165	858651	keystroke	o	n/a
429.4905	0.225	858981	keystroke	p	n/a
429.7755	0.135	859551	keystroke	h	n/a
430.1205	0.12	860241	keystroke	e	n/a
430.4355	0.09	860871	keystroke	t	n/a
430.5405	0.15	861081	keystroke	Key.space	n/a
430.6605	0.15	861321	keystroke	l	n/a
430.7505	0.105	861501	keystroke	a	n/a
430.8855	0.165	861771	keystroke	u	n/a
431.0355	0.135	862071	keystroke	r	n/a
431.1105	0.27	862221	keystroke	a	n/a
431.2905	0.09	862581	keystroke	Key.space	n/a
431.4855	0.165	862971	keystroke	y	n/a
431.6655	0.105	863331	keystroke	a	n/a
432.2805	0.06	864561	keystroke	m	n/a
432.4005	0.15	864801	keystroke	a	n/a
432.6255	0.135	865251	keystroke	h	n/a
432.8205	0.18	865641	keystroke	a	n/a
433.0905	0.12	866181	keystroke	Key.space	n/a
433.4355	0.09	866871	keystroke	v	n/a
433.5855	0.225	867171	keystroke	e	n/a
433.6905	0.15	867381	keystroke	r	n/a
433.8405	0.12	867681	keystroke	i	n/a
434.0505	0.12	868101	keystroke	z	n/a
434.1255	0.105	868251	keystroke	i	n/a
434.2905	0.15	868581	keystroke	o	n/a
434.4105	0.12	868821	keystroke	n	n/a
435.2355	0.075	870471	keystroke	Key.backspace	n/a
435.4455	0.075	870891	keystroke	Key.backspace	n/a
435.7155	0.105	871431	keystroke	Key.backspace	n/a
437.0505	0.135	874101	keystroke	o	n/a
437.1405	0.12	874281	keystroke	n	n/a
437.3355	0.06	874671	keystroke	Key.enter	n/a
437.401	11.846	874802	prompt	n/a	needn't utilize represents effectively\n
438.3855	0.075	876771	keystroke	n	n/a
438.6405	0.09	877281	keystroke	e	n/a
439.0005	0.105	878001	keystroke	e	n/a
439.4805	0.15	878961	keystroke	d	n/a
439.7805	0.165	879561	keystroke	n	n/a
441.0255	0.105	882051	keystroke	'	n/a
441.3405	0.075	882681	keystroke	t	n/a
441.7005	0.15	883401	keystroke	Key.space	n/a
442.0905	0.105	884181	keystroke	u	n/a
442.3455	0.12	884691	keystroke	t	n/a
442.4805	0.105	884961	keystroke	i	n/a
442.5555	0.165	885111	keystroke	l	n/a
442.6755	0.165	885351	keystroke	i	n/a
442.8255	0.135	885651	keystroke	z	n/a
442.9455	0.105	885891	keystroke	e	n/a
443.5005	0.075	887001	keystroke	Key.space	n/a
443.6055	0.15	887211	keystroke	p	n/a
443.9355	0.075	887871	keystroke	Key.backspace	n/a
444.0555	0.135	888111	keystroke	r	n/a
444.1455	0.12	888291	keystroke	e	n/a
444.2355	0.105	888471	keystroke	p	n/a
444.5205	0.15	889041	keystroke	r	n/a
444.5805	0.15	889161	keystroke	e	n/a
444.6855	0.12	889371	keystroke	s	n/a
444.7905	0.15	889581	keystroke	e	n/a
444.9705	0.12	889941	keystroke	n	n/a
445.2705	0.09	890541	keystroke	t	n/a
445.6005	0.09	891201	keystroke	s	n/a
445.8105	0.15	891621	keystroke	Key.space	n/a
446.1405	0.105	892281	keystroke	e	n/a
446.2755	0.135	892551	keystroke	f	n/a
446.4255	0.12	892851	keystroke	f	n/a
447.4305	0.105	894861	keystroke	e	n/a
447.6405	0.165	895281	keystroke	c	n/a
447.9705	0.09	895941	keystroke	t	n/a
448.3155	0.105	896631	keystroke	i	n/a
448.4055	0.12	896811	keystroke	v	n/a
448.4805	0.135	896961	keystroke	e	n/a
448.5705	0.075	897141	keystroke	l	n/a
448.7655	0.06	897531	keystroke	y	n/a
448.8555	0.075	897711	keystroke	Key.space	n/a
449.1855	0.06	898371	keystroke	Key.enter	n/a
449.252	9.265	898504	prompt	n/a	identical mark maple portraits\n
450.055	0.12	900110	keystroke	i	n/a
450.16	0.1655	900320	keystroke	d	n/a
450.28	0.1205	900560	keystroke	e	n/a
450.37	0.1205	900740	keystroke	n	n/a
450.5055	0.1045	901011	keystroke	t	n/a
450.6255	0.1045	901251	keystroke	i	n/a
450.85	0.03	901700	keystroke	f	n/a
451.69	0.105	903380	keystroke	Key.backspace	n/a
454.782	0.028	909564	keystroke	i	n/a
455.08	0.075	910160	keystroke	Key.backspace	n/a
455.215	0.075	910430	keystroke	c	n/a
455.26	0.105	910520	keystroke	a	n/a
455.35	0.075	910700	keystroke	l	n/a
455.815	0.105	911630	keystroke	Key.space	n/a
456.07	0.09	912140	keystroke	m	n/a
456.175	0.15	912350	keystroke	a	n/a
456.28	0.15	912560	keystroke	r	n/a
456.31	0.18	912620	keystroke	k	n/a
456.4	0.165	912800	keystroke	Key.space	n/a
456.535	0.12	913070	keystroke	m	n/a
456.64	0.135	913280	keystroke	a	n/a
456.73	0.15	913460	keystroke	p	n/a
456.835	0.15	913670	keystroke	l	n/a
457.03	0.105	914060	keystroke	e	n/a
457.15	0.12	914300	keystroke	Key.space	n/a
457.24	0.15	914480	keystroke	p	n/a
457.345	0.135	914690	keystroke	o	n/a
457.45	0.105	914900	keystroke	r	n/a
457.615	0.09	915230	keystroke	t	n/a
457.81	0.075	915620	keystroke	r	n/a
457.855	0.15	915710	keystroke	a	n/a
457.945	0.135	915890	keystroke	i	n/a
458.14	0.135	916280	keystroke	t	n/a
458.29	0.105	916580	keystroke	s	n/a
458.455	0.06	916910	keystroke	Key.enter	n/a
458.522	5.14	917044	prompt	n/a	reveal venture adjustment croatia\n
459.445	0.12	918890	keystroke	r	n/a
459.52	0.105	919040	keystroke	e	n/a
459.715	0.12	919430	keystroke	v	n/a
459.79	0.09	919580	keystroke	e	n/a
459.85	0.15	919700	keystroke	a	n/a
459.985	0.105	919970	keystroke	l	n/a
460.06	0.135	920120	keystroke	Key.space	n/a
460.45	0.09	920900	keystroke	v	n/a
460.48	0.12	920960	keystroke	e	n/a
460.585	0.075	921170	keystroke	n	n/a
460.69	0.09	921380	keystroke	t	n/a
460.81	0.135	921620	keystroke	u	n/a
460.93	0.135	921860	keystroke	r	n/a
461.02	0.135	922040	keystroke	e	n/a
461.17	0.15	922340	keystroke	Key.space	n/a
461.305	0.15	922610	keystroke	a	n/a
461.485	0.15	922970	keystroke	d	n/a
461.575	0.075	923150	keystroke	j	n/a
461.725	0.105	923450	keystroke	u	n/a
461.785	0.135	923570	keystroke	s	n/a
461.89	0.135	923780	keystroke	t	n/a
462.055	0.09	924110	keystroke	m	n/a
462.16	0.09	924320	keystroke	e	n/a
462.295	0.09	924590	keystroke	n	n/a
462.475	0.105	924950	keystroke	t	n/a
462.61	0.12	925220	keystroke	Key.space	n/a
462.76	0.105	925520	keystroke	c	n/a
463	0.09	926000	keystroke	r	n/a
463.075	0.12	926150	keystroke	o	n/a
463.165	0.15	926330	keystroke	a	n/a
463.285	0.105	926570	keystroke	t	n/a
463.405	0.075	926810	keystroke	i	n/a
463.495	0.075	926990	keystroke	a	n/a
463.6	0.06	927200	keystroke	Key.enter	n/a
463.666	7.751	927332	prompt	n/a	appropriate womens phases feedback\n
464.425	0.15	928850	keystroke	a	n/a
464.545	0.105	929090	keystroke	p	n/a
464.695	0.105	929390	keystroke	p	n/a
464.83	0.12	929660	keystroke	r	n/a
464.906	0.134	929812	keystroke	o	n/a
464.98	0.12	929960	keystroke	p	n/a
465.13	0.12	930260	keystroke	r	n/a
465.235	0.105	930470	keystroke	o	n/a
465.325	0.15	930650	keystroke	a	n/a
465.655	0.06	931310	keystroke	Key.backspace	n/a
465.82	0.09	931640	keystroke	Key.backspace	n/a
466.135	0.03	932270	keystroke	o	n/a
466.15	0.03	932300	keystroke	i	n/a
466.195	0.12	932390	keystroke	a	n/a
466.3	0.135	932600	keystroke	t	n/a
466.39	0.105	932780	keystroke	e	n/a
466.645	0.06	933290	keystroke	Key.backspace	n/a
466.81	0.06	933620	keystroke	Key.backspace	n/a
466.99	0.06	933980	keystroke	Key.backspace	n/a
467.215	0.06	934430	keystroke	Key.backspace	n/a
467.485	0.045	934970	keystroke	Key.backspace	n/a
467.861	0.059	935722	keystroke	i	n/a
467.935	0.12	935870	keystroke	a	n/a
468.04	0.15	936080	keystroke	t	n/a
468.131	0.149	936262	keystroke	e	n/a
468.37	0.12	936740	keystroke	Key.space	n/a
468.7	0.105	937400	keystroke	w	n/a
468.775	0.105	937550	keystroke	o	n/a
468.835	0.135	937670	keystroke	m	n/a
468.94	0.12	937880	keystroke	e	n/a
469.075	0.105	938150	keystroke	n	n/a
469.165	0.165	938330	keystroke	s	n/a
469.285	0.09	938570	keystroke	Key.space	n/a
469.315	0.105	938630	keystroke	p	n/a
469.48	0.09	938960	keystroke	h	n/a
469.585	0.135	939170	keystroke	a	n/a
469.69	0.151	939380	keystroke	s	n/a
469.78	0.15	939560	keystroke	e	n/a
469.915	0.12	939830	keystroke	s	n/a
470.065	0.12	940130	keystroke	Key.space	n/a
470.5	0.12	941000	keystroke	f	n/a
470.606	0.074	941212	keystroke	e	n/a
470.755	0.12	941510	keystroke	e	n/a
470.815	0.135	941630	keystroke	d	n/a
470.935	0.12	941870	keystroke	b	n/a
471.07	0.075	942140	keystroke	a	n/a
471.115	0.09	942230	keystroke	c	n/a
471.175	0.091	942350	keystroke	k	n/a
471.355	0.06	942710	keystroke	Key.enter	n/a
471.4335	5.5935	942867	prompt	n/a	travis laptops steps investigator\n
472.195	0.075	944390	keystroke	t	n/a
472.375	0.09	944750	keystroke	r	n/a
472.42	0.105	944840	keystroke	a	n/a
472.616	0.074	945232	keystroke	v	n/a
472.781	0.089	945562	keystroke	i	n/a
473.006	0.075	946012	keystroke	s	n/a
473.14	0.105	946280	keystroke	Key.space	n/a
473.26	0.09	946520	keystroke	l	n/a
473.351	0.119	946702	keystroke	a	n/a
473.485	0.09	946970	keystroke	p	n/a
473.606	0.119	947212	keystroke	t	n/a
473.681	0.149	947362	keystroke	o	n/a
473.77	0.136	947540	keystroke	p	n/a
474.025	0.061	948050	keystroke	s	n/a
474.13	0.12	948260	keystroke	Key.space	n/a
474.205	0.135	948410	keystroke	s	n/a
474.355	0.151	948710	keystroke	t	n/a
474.475	0.106	948950	keystroke	e	n/a
474.595	0.09	949190	keystroke	p	n/a
474.806	0.105	949612	keystroke	s	n/a
474.97	0.075	949940	keystroke	Key.space	n/a
475.181	0.119	950362	keystroke	i	n/a
475.225	0.135	950450	keystroke	n	n/a
475.526	0.105	951052	keystroke	v	n/a
475.6	0.135	951200	keystroke	e	n/a
475.691	0.195	951382	keystroke	s	n/a
475.87	0.105	951740	keystroke	t	n/a
475.976	0.105	951952	keystroke	i	n/a
476.095	0.105	952190	keystroke	g	n/a
476.261	0.104	952522	keystroke	a	n/a
476.425	0.09	952850	keystroke	t	n/a
476.531	0.105	953062	keystroke	o	n/a
476.681	0.045	953362	keystroke	r	n/a
476.95	0.075	953900	keystroke	Key.enter	n/a
477.031	7.481	954062	prompt	n/a	xerox chronic filters damages\n
478.526	0.045	957052	keystroke	x	n/a
478.811	0.06	957622	keystroke	e	n/a
478.841	0.059	957682	keystroke	r	n/a
479.081	0.09	958162	keystroke	o	n/a
479.291	0.075	958582	keystroke	x	n/a
479.756	0.104	959512	keystroke	Key.space	n/a
480.086	0.105	960172	keystroke	c	n/a
480.251	0.09	960502	keystroke	h	n/a
480.401	0.09	960802	keystroke	r	n/a
480.461	0.105	960922	keystroke	o	n/a
480.626	0.105	961252	keystroke	n	n/a
480.671	0.12	961342	keystroke	i	n/a
481.001	0.075	962002	keystroke	c	n/a
481.331	0.09	962662	keystroke	Key.space	n/a
481.661	0.09	963322	keystroke	f	n/a
481.736	0.12	963472	keystroke	i	n/a
481.826	0.105	963652	keystroke	l	n/a
481.961	0.09	963922	keystroke	t	n/a
482.201	0.075	964402	keystroke	e	n/a
482.336	0.075	964672	keystroke	r	n/a
482.396	0.105	964792	keystroke	s	n/a
482.786	0.09	965572	keystroke	Key.space	n/a
483.026	0.06	966052	keystroke	d	n/a
483.056	0.09	966112	keystroke	a	n/a
483.236	0.075	966472	keystroke	m	n/a
483.341	0.12	966682	keystroke	a	n/a
483.851	0.075	967702	keystroke	g	n/a
483.896	0.105	967792	keystroke	a	n/a
484.016	0.12	968032	keystroke	g	n/a
484.091	0.12	968182	keystroke	e	n/a
484.151	0.09	968302	keystroke	s	n/a
484.451	0.06	968902	keystroke	Key.enter	n/a
484.519	8.0185	969038	prompt	n/a	hospitals varies euro nylon\n
486.914	0.057	973828	keystroke	h	n/a
486.914	0.102	973828	keystroke	o	n/a
487.001	0.12	974002	keystroke	s	n/a
487.136	0.12	974272	keystroke	p	n/a
487.196	0.12	974392	keystroke	i	n/a
487.271	0.12	974542	keystroke	t	n/a
487.331	0.119	974662	keystroke	a	n/a
487.465	0.091	974930	keystroke	l	n/a
487.811	0.045	975622	keystroke	s	n/a
488.05	0.165	976100	keystroke	Key.space	n/a
488.411	0.12	976822	keystroke	v	n/a
488.501	0.15	977002	keystroke	a	n/a
488.666	0.105	977332	keystroke	r	n/a
488.816	0.135	977632	keystroke	i	n/a
489.086	0.165	978172	keystroke	e	n/a
489.176	0.15	978352	keystroke	s	n/a
489.341	0.09	978682	keystroke	Key.space	n/a
489.536	0.135	979072	keystroke	e	n/a
489.641	0.12	979282	keystroke	u	n/a
489.896	0.12	979792	keystroke	r	n/a
490.061	0.165	980122	keystroke	o	n/a
490.285	0.135	980570	keystroke	Key.space	n/a
491.111	0.075	982222	keystroke	n	n/a
491.381	0.09	982762	keystroke	y	n/a
491.606	0.12	983212	keystroke	l	n/a
491.906	0.12	983812	keystroke	o	n/a
492.086	0.12	984172	keystroke	n	n/a
492.476	0.06	984952	keystroke	Key.enter	n/a
492.543	9.1135	985086	prompt	n/a	elimination costumes cells salvation\n
493.196	0.1495	986392	keystroke	e	n/a
493.3305	0.15	986661	keystroke	l	n/a
493.4955	0.225	986991	keystroke	i	n/a
493.7055	0.24	987411	keystroke	n	n/a
494.4855	0.06	988971	keystroke	Key.backspace	n/a
495.7455	0.09	991491	keystroke	i	n/a
495.9705	0.105	991941	keystroke	m	n/a
496.0905	0.105	992181	keystroke	i	n/a
496.1805	0.105	992361	keystroke	n	n/a
496.3005	0.12	992601	keystroke	a	n/a
496.3905	0.12	992781	keystroke	t	n/a
496.4655	0.105	992931	keystroke	i	n/a
496.5405	0.105	993081	keystroke	o	n/a
496.5855	0.09	993171	keystroke	n	n/a
497.2455	0.12	994491	keystroke	Key.space	n/a
497.6055	0.12	995211	keystroke	c	n/a
497.6805	0.09	995361	keystroke	o	n/a
497.9205	0.075	995841	keystroke	s	n/a
498.2505	0.105	996501	keystroke	t	n/a
498.4155	0.09	996831	keystroke	u	n/a
498.6705	0.06	997341	keystroke	m	n/a
498.9255	0.12	997851	keystroke	e	n/a
499.0005	0.12	998001	keystroke	s	n/a
499.1355	0.12	998271	keystroke	Key.space	n/a
499.4055	0.15	998811	keystroke	c	n/a
499.4955	0.135	998991	keystroke	e	n/a
499.6005	0.075	999201	keystroke	l	n/a
499.7655	0.075	999531	keystroke	l	n/a
499.8405	0.12	999681	keystroke	s	n/a
499.9905	0.105	999981	keystroke	Key.space	n/a
500.1105	0.135	1000221	keystroke	s	n/a
500.216	0.1345	1000432	keystroke	a	n/a
500.3655	0.12	1000731	keystroke	l	n/a
500.6055	0.12	1001211	keystroke	v	n/a
500.7105	0.12	1001421	keystroke	a	n/a
501.1005	0.12	1002201	keystroke	t	n/a
501.2055	0.105	1002411	keystroke	i	n/a
501.2205	0.15	1002441	keystroke	o	n/a
501.3555	0.06	1002711	keystroke	n	n/a
501.6105	0.045	1003221	keystroke	Key.enter	n/a
501.661	8.7105	1003322	prompt	n/a	trivia workplace eclipse benjamin\n
502.6155	0.135	1005231	keystroke	t	n/a
502.7205	0.09	1005441	keystroke	r	n/a
502.8555	0.105	1005711	keystroke	i	n/a
503.0355	0.105	1006071	keystroke	v	n/a
503.1855	0.09	1006371	keystroke	i	n/a
503.4405	0.12	1006881	keystroke	a	n/a
503.6205	0.105	1007241	keystroke	Key.space	n/a
503.7555	0.105	1007511	keystroke	w	n/a
503.8905	0.105	1007781	keystroke	o	n/a
504.0405	0.12	1008081	keystroke	r	n/a
504.1905	0.09	1008381	keystroke	k	n/a
504.4605	0.135	1008921	keystroke	p	n/a
504.5205	0.15	1009041	keystroke	l	n/a
504.5805	0.135	1009161	keystroke	a	n/a
504.7755	0.24	1009551	keystroke	c	n/a
504.9255	0.165	1009851	keystroke	e	n/a
505.1355	0.12	1010271	keystroke	Key.space	n/a
505.3155	0.15	1010631	keystroke	e	n/a
505.6605	0.135	1011321	keystroke	c	n/a
505.7355	0.09	1011471	keystroke	l	n/a
505.9455	0.15	1011891	keystroke	i	n/a
506.0805	0.135	1012161	keystroke	p	n/a
506.2305	0.15	1012461	keystroke	s	n/a
506.3655	0.2245	1012731	keystroke	e	n/a
506.605	0.0755	1013210	keystroke	Key.space	n/a
507.19	0.075	1014380	keystroke	b	n/a
507.595	0.165	1015190	keystroke	e	n/a
508.315	0.015	1016630	keystroke	Key.backspace	n/a
508.975	0.15	1017950	keystroke	e	n/a
509.365	0.06	1018730	keystroke	n	n/a
509.605	0.06	1019210	keystroke	j	n/a
509.71	0.15	1019420	keystroke	a	n/a
509.845	0.15	1019690	keystroke	m	n/a
509.98	0.165	1019960	keystroke	i	n/a
510.1	0.09	1020200	keystroke	n	n/a
510.295	0.075	1020590	keystroke	Key.enter	n/a
510.3755	5.0515	1020751	prompt	n/a	background have comprehensive schools\n
511.21	0.06	1022420	keystroke	b	n/a
511.285	0.15	1022570	keystroke	a	n/a
511.36	0.105	1022720	keystroke	c	n/a
511.45	0.105	1022900	keystroke	k	n/a
511.6	0.12	1023200	keystroke	g	n/a
511.705	0.09	1023410	keystroke	r	n/a
511.735	0.12	1023470	keystroke	o	n/a
511.825	0.12	1023650	keystroke	u	n/a
512.08	0.09	1024160	keystroke	n	n/a
512.155	0.12	1024310	keystroke	d	n/a
512.32	0.135	1024640	keystroke	Key.space	n/a
512.425	0.15	1024850	keystroke	h	n/a
512.56	0.165	1025120	keystroke	a	n/a
512.695	0.135	1025390	keystroke	v	n/a
512.755	0.135	1025510	keystroke	e	n/a
512.905	0.105	1025810	keystroke	Key.space	n/a
513.04	0.15	1026080	keystroke	c	n/a
513.07	0.105	1026140	keystroke	o	n/a
513.176	0.119	1026352	keystroke	m	n/a
513.25	0.105	1026500	keystroke	p	n/a
513.4	0.195	1026800	keystroke	r	n/a
513.55	0.135	1027100	keystroke	e	n/a
513.73	0.105	1027460	keystroke	h	n/a
513.925	0.12	1027850	keystroke	e	n/a
514.03	0.09	1028060	keystroke	n	n/a
514.135	0.09	1028270	keystroke	s	n/a
514.24	0.135	1028480	keystroke	i	n/a
514.36	0.165	1028720	keystroke	v	n/a
514.45	0.12	1028900	keystroke	e	n/a
514.555	0.105	1029110	keystroke	Key.space	n/a
514.63	0.18	1029260	keystroke	s	n/a
514.72	0.15	1029440	keystroke	c	n/a
514.795	0.09	1029590	keystroke	h	n/a
514.84	0.075	1029680	keystroke	o	n/a
514.99	0.075	1029980	keystroke	o	n/a
515.14	0.105	1030280	keystroke	l	n/a
515.2305	0.1195	1030461	keystroke	s	n/a
515.365	0.06	1030730	keystroke	Key.enter	n/a
515.4315	5.7855	1030863	prompt	n/a	slots bracelets jurisdiction wires\n
516.175	0.105	1032350	keystroke	s	n/a
516.385	0.09	1032770	keystroke	l	n/a
516.565	0.105	1033130	keystroke	o	n/a
516.685	0.12	1033370	keystroke	t	n/a
516.76	0.105	1033520	keystroke	s	n/a
516.85	0.12	1033700	keystroke	Key.space	n/a
516.955	0.09	1033910	keystroke	b	n/a
517.06	0.12	1034120	keystroke	r	n/a
517.15	0.12	1034300	keystroke	a	n/a
517.315	0.12	1034630	keystroke	c	n/a
517.405	0.075	1034810	keystroke	e	n/a
517.45	0.105	1034900	keystroke	l	n/a
517.585	0.12	1035170	keystroke	e	n/a
517.72	0.105	1035440	keystroke	t	n/a
517.78	0.135	1035560	keystroke	s	n/a
517.915	0.165	1035830	keystroke	Key.space	n/a
518.245	0.12	1036490	keystroke	j	n/a
518.59	0.105	1037180	keystroke	u	n/a
518.89	0.09	1037780	keystroke	r	n/a
519.01	0.12	1038020	keystroke	i	n/a
519.19	0.12	1038380	keystroke	s	n/a
519.595	0.075	1039190	keystroke	d	n/a
519.76	0.105	1039520	keystroke	i	n/a
519.88	0.09	1039760	keystroke	c	n/a
520.105	0.09	1040210	keystroke	t	n/a
520.18	0.24	1040360	keystroke	i	n/a
520.27	0.18	1040540	keystroke	o	n/a
520.39	0.15	1040780	keystroke	n	n/a
520.51	0.135	1041020	keystroke	Key.space	n/a
520.63	0.12	1041260	keystroke	w	n/a
520.735	0.09	1041470	keystroke	i	n/a
520.795	0.21	1041590	keystroke	r	n/a
520.915	0.15	1041830	keystroke	e	n/a
520.975	0.135	1041950	keystroke	s	n/a
521.14	0.075	1042280	keystroke	Key.enter	n/a
521.2215	5.2755	1042443	prompt	n/a	termination year framed emma\n
