onset	duration	sample	value	key	prompt_text
1.372	12.2425	2744	prompt	n/a	the quick brown fox jumps over a lazy dog\n
2.6525	0.0425	5305	keystroke_t	t	n/a
2.6535	0.1175	5307	keystroke_h	h	n/a
2.7845	0.151	5569	keystroke_e	e	n/a
2.9495	0.106	5899	keystroke_Key.space	Key.space	n/a
3.4745	0.1205	6949	keystroke_q	q	n/a
3.655	0.135	7310	keystroke_u	u	n/a
3.73	0.105	7460	keystroke_i	i	n/a
3.8655	0.12	7731	keystroke_c	c	n/a
4.0295	0.1055	8059	keystroke_k	k	n/a
4.15	0.1205	8300	keystroke_Key.space	Key.space	n/a
4.7955	0.075	9591	keystroke_b	b	n/a
5.02	0.105	10040	keystroke_r	r	n/a
5.08	0.1055	10160	keystroke_o	o	n/a
5.2155	0.1045	10431	keystroke_w	w	n/a
5.3355	0.0895	10671	keystroke_n	n	n/a
5.486	0.104	10972	keystroke_Key.space	Key.space	n/a
5.989	0.105	11978	keystroke_f	f	n/a
6.079	0.0595	12158	keystroke_o	o	n/a
6.184	0.151	12368	keystroke_x	x	n/a
6.351	0.075	12702	keystroke_Key.space	Key.space	n/a
7.401	0.12	14802	keystroke_j	j	n/a
7.461	0.12	14922	keystroke_u	u	n/a
7.791	0.09	15582	keystroke_m	m	n/a
7.8215	0.1345	15643	keystroke_o	o	n/a
8.016	0.12	16032	keystroke_s	s	n/a
8.151	0.105	16302	keystroke_Key.space	Key.space	n/a
8.421	0.06	16842	keystroke_Key.backspace	Key.backspace	n/a
8.5555	0.0605	17111	keystroke_Key.backspace	Key.backspace	n/a
8.691	0.015	17382	keystroke_Key.backspace	Key.backspace	n/a
9.245	0.1055	18490	keystroke_p	p	n/a
9.29	0.1205	18580	keystroke_s	s	n/a
9.3955	0.12	18791	keystroke_Key.space	Key.space	n/a
9.56	0.1365	19120	keystroke_o	o	n/a
9.666	0.075	19332	keystroke_v	v	n/a
9.8155	0.12	19631	keystroke_e	e	n/a
9.89	0.1055	19780	keystroke_r	r	n/a
9.98	0.135	19960	keystroke_Key.space	Key.space	n/a
10.1	0.1505	20200	keystroke_a	a	n/a
10.2345	0.106	20469	keystroke_Key.space	Key.space	n/a
10.4305	0.12	20861	keystroke_l	l	n/a
10.5055	0.1345	21011	keystroke_a	a	n/a
10.73	0.1505	21460	keystroke_z	z	n/a
11.0755	0.105	22151	keystroke_y	y	n/a
11.2105	0.12	22421	keystroke_Key.space	Key.space	n/a
11.9605	0.075	23921	keystroke_g	g	n/a
12.2755	0.075	24551	keystroke_Key.backspace	Key.backspace	n/a
12.3655	0.06	24731	keystroke_d	d	n/a
12.9205	0.105	25841	keystroke_o	o	n/a
13.0855	0.12	26171	keystroke_g	g	n/a
13.4905	0.1195	26981	keystroke_Key.enter	Key.enter	n/a
13.62	6.457	27240	prompt	n/a	winning authority marvel chain\n
14.27	0.12	28540	keystroke_w	w	n/a
14.4805	0.1055	28961	keystroke_i	i	n/a
14.7055	0.075	29411	keystroke_n	n	n/a
14.8405	0.12	29681	keystroke_n	n	n/a
14.9615	0.119	29923	keystroke_i	i	n/a
15.0655	0.105	30131	keystroke_n	n	n/a
15.1105	0.135	30221	keystroke_g	g	n/a
15.2755	0.1195	30551	keystroke_Key.space	Key.space	n/a
15.605	0.1055	31210	keystroke_a	a	n/a
15.89	0.12	31780	keystroke_u	u	n/a
16.1305	0.089	32261	keystroke_t	t	n/a
16.205	0.1055	32410	keystroke_h	h	n/a
16.551	0.119	33102	keystroke_o	o	n/a
16.685	0.135	33370	keystroke_r	r	n/a
16.7895	0.12	33579	keystroke_i	i	n/a
17.06	0.15	34120	keystroke_t	t	n/a
17.195	0.105	34390	keystroke_y	y	n/a
17.36	0.135	34720	keystroke_Key.space	Key.space	n/a
17.8705	0.12	35741	keystroke_m	m	n/a
17.975	0.1355	35950	keystroke_a	a	n/a
18.155	0.1055	36310	keystroke_r	r	n/a
18.381	0.074	36762	keystroke_v	v	n/a
18.485	0.1205	36970	keystroke_e	e	n/a
18.666	0.0895	37332	keystroke_l	l	n/a
18.83	0.12	37660	keystroke_Key.space	Key.space	n/a
19.2055	0.09	38411	keystroke_c	c	n/a
19.3105	0.12	38621	keystroke_h	h	n/a
19.4155	0.105	38831	keystroke_a	a	n/a
19.5655	0.18	39131	keystroke_i	i	n/a
19.7005	0.15	39401	keystroke_n	n	n/a
19.9855	0.09	39971	keystroke_Key.enter	Key.enter	n/a
20.0835	12.699	40167	prompt	n/a	eight manchester acknowledged guide\n
21.337	0.0885	42674	keystroke_e	e	n/a
21.56	0.12	43120	keystroke_i	i	n/a
21.74	0.09	43480	keystroke_g	g	n/a
21.8455	0.105	43691	keystroke_h	h	n/a
21.9355	0.1195	43871	keystroke_t	t	n/a
22.085	0.12	44170	keystroke_Key.space	Key.space	n/a
22.37	0.12	44740	keystroke_m	m	n/a
22.4455	0.09	44891	keystroke_a	a	n/a
22.7005	0.0895	45401	keystroke_n	n	n/a
23.061	0.0895	46122	keystroke_c	c	n/a
23.1805	0.12	46361	keystroke_h	h	n/a
23.2705	0.135	46541	keystroke_e	e	n/a
23.3755	0.15	46751	keystroke_s	s	n/a
23.5555	0.135	47111	keystroke_t	t	n/a
23.7355	0.15	47471	keystroke_e	e	n/a
24.0955	0.105	48191	keystroke_r	r	n/a
24.3655	0.105	48731	keystroke_Key.space	Key.space	n/a
24.831	0.119	49662	keystroke_a	a	n/a
25.055	0.1205	50110	keystroke_c	c	n/a
25.1905	0.1045	50381	keystroke_k	k	n/a
25.79	0.166	51580	keystroke_n	n	n/a
25.881	0.164	51762	keystroke_o	o	n/a
26.0305	0.1055	52061	keystroke_w	w	n/a
26.256	0.105	52512	keystroke_l	l	n/a
26.6305	0.1045	53261	keystroke_e	e	n/a
27.1105	0.135	54221	keystroke_d	d	n/a
27.3955	0.0745	54791	keystroke_g	g	n/a
27.5305	0.15	55061	keystroke_e	e	n/a
27.9805	0.105	55961	keystroke_d	d	n/a
28.2955	0.09	56591	keystroke_Key.space	Key.space	n/a
28.836	0.104	57672	keystroke_d	d	n/a
28.88	0.15	57760	keystroke_u	u	n/a
28.941	0.119	57882	keystroke_i	i	n/a
29.4355	0.0895	58871	keystroke_d	d	n/a
29.6155	0.0895	59231	keystroke_e	e	n/a
29.78	0.09	59560	keystroke_Key.backspace	Key.backspace	n/a
29.9605	0.0445	59921	keystroke_Key.backspace	Key.backspace	n/a
30.05	0.045	60100	keystroke_Key.backspace	Key.backspace	n/a
30.185	0.0595	60370	keystroke_Key.backspace	Key.backspace	n/a
30.305	0.09	60610	keystroke_Key.backspace	Key.backspace	n/a
30.755	0.0155	61510	keystroke_Key.backspace	Key.backspace	n/a
31.2805	0.1345	62561	keystroke_Key.space	Key.space	n/a
31.7305	0.105	63461	keystroke_g	g	n/a
31.8955	0.164	63791	keystroke_u	u	n/a
31.97	0.12	63940	keystroke_i	i	n/a
32.0445	0.091	64089	keystroke_d	d	n/a
32.21	0.1055	64420	keystroke_e	e	n/a
32.675	0.105	65350	keystroke_Key.enter	Key.enter	n/a
32.7875	9.715	65575	prompt	n/a	weak organization namespace printer\n
33.576	0.059	67152	keystroke_w	w	n/a
33.62	0.12	67240	keystroke_e	e	n/a
34.49	0.105	68980	keystroke_a	a	n/a
34.61	0.1055	69220	keystroke_k	k	n/a
34.82	0.12	69640	keystroke_Key.space	Key.space	n/a
35.4355	0.1045	70871	keystroke_o	o	n/a
35.51	0.1205	71020	keystroke_r	r	n/a
36.2305	0.105	72461	keystroke_h	h	n/a
36.2755	0.105	72551	keystroke_a	a	n/a
36.4545	0.1805	72909	keystroke_n	n	n/a
36.5905	0.1195	73181	keystroke_i	i	n/a
36.695	0.105	73390	keystroke_z	z	n/a
36.89	0.1205	73780	keystroke_a	a	n/a
37.2195	0.091	74439	keystroke_t	t	n/a
37.3395	0.1505	74679	keystroke_i	i	n/a
37.3845	0.1355	74769	keystroke_o	o	n/a
37.505	0.135	75010	keystroke_n	n	n/a
37.805	0.1355	75610	keystroke_Key.space	Key.space	n/a
38.3455	0.119	76691	keystroke_n	n	n/a
38.45	0.1205	76900	keystroke_a	a	n/a
38.5555	0.134	77111	keystroke_m	m	n/a
39.395	0.12	78790	keystroke_e	e	n/a
40.235	0.091	80470	keystroke_s	s	n/a
40.31	0.12	80620	keystroke_p	p	n/a
40.431	0.104	80862	keystroke_a	a	n/a
40.61	0.09	81220	keystroke_c	c	n/a
40.685	0.12	81370	keystroke_e	e	n/a
40.88	0.1055	81760	keystroke_Key.space	Key.space	n/a
41.225	0.12	82450	keystroke_p	p	n/a
41.315	0.12	82630	keystroke_r	r	n/a
41.465	0.12	82930	keystroke_i	i	n/a
41.615	0.105	83230	keystroke_n	n	n/a
41.75	0.1045	83500	keystroke_t	t	n/a
41.8995	0.15	83799	keystroke_e	e	n/a
42.0045	0.1205	84009	keystroke_r	r	n/a
42.35	0.15	84700	keystroke_Key.enter	Key.enter	n/a
42.508	15.192	85016	prompt	n/a	rider fuzzy absorption rates\n
43.549	0.121	87098	keystroke_r	r	n/a
43.655	0.12	87310	keystroke_i	i	n/a
43.805	0.105	87610	keystroke_d	d	n/a
44.045	0.1205	88090	keystroke_e	e	n/a
44.2095	0.1355	88419	keystroke_r	r	n/a
44.3595	0.106	88719	keystroke_Key.space	Key.space	n/a
45.17	0.12	90340	keystroke_f	f	n/a
45.26	0.1055	90520	keystroke_u	u	n/a
45.4395	0.0905	90879	keystroke_z	z	n/a
45.62	0.0605	91240	keystroke_z	z	n/a
46.64	0.12	93280	keystroke_y	y	n/a
49.612	0.0725	99224	keystroke_Key.space	Key.space	n/a
50.2255	0.1045	100451	keystroke_a	a	n/a
50.3	0.105	100600	keystroke_b	b	n/a
50.435	0.1655	100870	keystroke_s	s	n/a
51.454	0.1365	102908	keystroke_i	i	n/a
51.6655	0.1345	103331	keystroke_r	r	n/a
52.4445	0.0755	104889	keystroke_Key.backspace	Key.backspace	n/a
52.58	0.1045	105160	keystroke_Key.backspace	Key.backspace	n/a
53.4355	0.075	106871	keystroke_o	o	n/a
53.5555	0.089	107111	keystroke_r	r	n/a
53.9005	0.105	107801	keystroke_p	p	n/a
54.7845	0.1205	109569	keystroke_t	t	n/a
54.89	0.1795	109780	keystroke_i	i	n/a
54.98	0.15	109960	keystroke_o	o	n/a
55.115	0.12	110230	keystroke_n	n	n/a
55.64	0.1045	111280	keystroke_Key.space	Key.space	n/a
55.8055	0.134	111611	keystroke_r	r	n/a
56.2845	0.1505	112569	keystroke_a	a	n/a
56.5255	0.09	113051	keystroke_t	t	n/a
56.6595	0.151	113319	keystroke_e	e	n/a
56.9745	0.1055	113949	keystroke_s	s	n/a
57.56	0.135	115120	keystroke_Key.enter	Key.enter	n/a
57.71	11.1625	115420	prompt	n/a	carl doing suspended metallica\n
58.5205	0.104	117041	keystroke_c	c	n/a
58.6405	0.12	117281	keystroke_a	a	n/a
58.7755	0.12	117551	keystroke_r	r	n/a
59.0155	0.1045	118031	keystroke_l	l	n/a
59.3445	0.12	118689	keystroke_Key.space	Key.space	n/a
59.5395	0.1505	119079	keystroke_d	d	n/a
59.66	0.1355	119320	keystroke_o	o	n/a
59.8705	0.1795	119741	keystroke_i	i	n/a
59.9905	0.1345	119981	keystroke_n	n	n/a
60.0945	0.0905	120189	keystroke_g	g	n/a
60.215	0.1345	120430	keystroke_Key.space	Key.space	n/a
60.7245	0.106	121449	keystroke_d	d	n/a
61.1445	0.0755	122289	keystroke_Key.backspace	Key.backspace	n/a
61.4	0.105	122800	keystroke_s	s	n/a
61.415	0.105	122830	keystroke_u	u	n/a
61.5805	0.1195	123161	keystroke_s	s	n/a
61.9845	0.09	123969	keystroke_p	p	n/a
62.0595	0.1205	124119	keystroke_e	e	n/a
62.2545	0.1355	124509	keystroke_n	n	n/a
62.375	0.1055	124750	keystroke_d	d	n/a
62.5545	0.136	125109	keystroke_e	e	n/a
62.75	0.1205	125500	keystroke_r	r	n/a
63.1095	0.1055	126219	keystroke_Key.backspace	Key.backspace	n/a
63.1845	0.166	126369	keystroke_d	d	n/a
63.3645	0.135	126729	keystroke_Key.space	Key.space	n/a
63.965	0.1345	127930	keystroke_m	m	n/a
64.025	0.1045	128050	keystroke_e	e	n/a
64.235	0.105	128470	keystroke_t	t	n/a
64.415	0.09	128830	keystroke_a	a	n/a
64.7	0.075	129400	keystroke_l	l	n/a
64.835	0.1195	129670	keystroke_l	l	n/a
65.361	0.119	130722	keystroke_u	u	n/a
65.57	0.03	131140	keystroke_t	t	n/a
66.035	0.06	132070	keystroke_Key.backspace	Key.backspace	n/a
66.17	0.12	132340	keystroke_Key.backspace	Key.backspace	n/a
66.86	0.1055	133720	keystroke_u	u	n/a
66.98	0.0455	133960	keystroke_c	c	n/a
67.1745	0.091	134349	keystroke_Key.backspace	Key.backspace	n/a
67.325	0.105	134650	keystroke_Key.backspace	Key.backspace	n/a
67.595	0.12	135190	keystroke_i	i	n/a
67.67	0.09	135340	keystroke_c	c	n/a
67.805	0.1205	135610	keystroke_a	a	n/a
68.735	0.1345	137470	keystroke_Key.enter	Key.enter	n/a
68.8825	8.539	137765	prompt	n/a	spent stopping participant flesh\n
69.71	0.1355	139420	keystroke_s	s	n/a
69.9055	0.089	139811	keystroke_p	p	n/a
70.0255	0.1045	140051	keystroke_e	e	n/a
70.1755	0.119	140351	keystroke_n	n	n/a
70.2795	0.1205	140559	keystroke_t	t	n/a
70.85	0.1645	141700	keystroke_Key.space	Key.space	n/a
71.075	0.1345	142150	keystroke_s	s	n/a
71.27	0.1195	142540	keystroke_t	t	n/a
71.4505	0.105	142901	keystroke_o	o	n/a
71.87	0.0745	143740	keystroke_p	p	n/a
72.005	0.195	144010	keystroke_p	p	n/a
72.395	0.1495	144790	keystroke_i	i	n/a
72.47	0.1355	144940	keystroke_n	n	n/a
72.59	0.0895	145180	keystroke_g	g	n/a
73.16	0.015	146320	keystroke_Key.space	Key.space	n/a
73.325	0.15	146650	keystroke_p	p	n/a
73.415	0.09	146830	keystroke_a	a	n/a
73.55	0.135	147100	keystroke_r	r	n/a
73.79	0.12	147580	keystroke_t	t	n/a
74.375	0.106	148750	keystroke_i	i	n/a
74.54	0.105	149080	keystroke_c	c	n/a
74.63	0.105	149260	keystroke_i	i	n/a
74.9	0.15	149800	keystroke_p	p	n/a
75.005	0.105	150010	keystroke_a	a	n/a
75.215	0.105	150430	keystroke_n	n	n/a
75.335	0.12	150670	keystroke_t	t	n/a
75.6045	0.1045	151209	keystroke_Key.space	Key.space	n/a
76.175	0.09	152350	keystroke_f	f	n/a
76.22	0.165	152440	keystroke_l	l	n/a
76.4	0.12	152800	keystroke_e	e	n/a
76.505	0.105	153010	keystroke_s	s	n/a
77.03	0.09	154060	keystroke_h	h	n/a
77.3	0.119	154600	keystroke_Key.enter	Key.enter	n/a
77.4265	11.8155	154853	prompt	n/a	ensemble scores they've aircraft\n
78.0795	0.1205	156159	keystroke_e	e	n/a
78.2295	0.1055	156459	keystroke_n	n	n/a
78.335	0.1195	156670	keystroke_e	e	n/a
78.7395	0.12	157479	keystroke_Key.backspace	Key.backspace	n/a
78.8745	0.121	157749	keystroke_s	s	n/a
78.9345	0.121	157869	keystroke_e	e	n/a
79.97	0.09	159940	keystroke_m	m	n/a
80.015	0.105	160030	keystroke_b	b	n/a
80.165	0.135	160330	keystroke_l	l	n/a
80.285	0.12	160570	keystroke_e	e	n/a
80.705	0.135	161410	keystroke_Key.space	Key.space	n/a
80.915	0.12	161830	keystroke_s	s	n/a
81.14	0.09	162280	keystroke_c	c	n/a
81.245	0.0895	162490	keystroke_o	o	n/a
81.365	0.12	162730	keystroke_r	r	n/a
81.515	0.135	163030	keystroke_e	e	n/a
81.665	0.18	163330	keystroke_s	s	n/a
81.83	0.1345	163660	keystroke_Key.space	Key.space	n/a
82.16	0.0895	164320	keystroke_t	t	n/a
82.28	0.1045	164560	keystroke_h	h	n/a
82.355	0.12	164710	keystroke_e	e	n/a
82.76	0.075	165520	keystroke_y	y	n/a
83.5995	0.1055	167199	keystroke_;	;	n/a
83.7195	0.0755	167439	keystroke_v	v	n/a
83.81	0.0905	167620	keystroke_e	e	n/a
83.99	0.12	167980	keystroke_Key.space	Key.space	n/a
84.275	0.0755	168550	keystroke_Key.backspace	Key.backspace	n/a
84.425	0.105	168850	keystroke_Key.backspace	Key.backspace	n/a
84.575	0.09	169150	keystroke_Key.backspace	Key.backspace	n/a
84.7245	0.076	169449	keystroke_Key.backspace	Key.backspace	n/a
85.416	0.104	170832	keystroke_'	'	n/a
85.505	0.0895	171010	keystroke_v	v	n/a
85.5805	0.104	171161	keystroke_e	e	n/a
85.745	0.12	171490	keystroke_Key.space	Key.space	n/a
86.21	0.105	172420	keystroke_a	a	n/a
86.54	0.12	173080	keystroke_i	i	n/a
86.63	0.09	173260	keystroke_r	r	n/a
86.8705	0.0595	173741	keystroke_c	c	n/a
87.095	0.105	174190	keystroke_r	r	n/a
87.2755	0.105	174551	keystroke_a	a	n/a
87.5305	0.06	175061	keystroke_d	d	n/a
87.6955	0.09	175391	keystroke_t	t	n/a
88.3855	0.015	176771	keystroke_Key.backspace	Key.backspace	n/a
88.445	0.03	176890	keystroke_Key.backspace	Key.backspace	n/a
88.46	0.12	176920	keystroke_f	f	n/a
88.73	0.12	177460	keystroke_t	t	n/a
89.105	0.1345	178210	keystroke_Key.enter	Key.enter	n/a
89.247	11.395	178494	prompt	n/a	retailer welcome prospect specific\n
90.2005	0.09	180401	keystroke_r	r	n/a
90.245	0.1355	180490	keystroke_e	e	n/a
90.62	0.0905	181240	keystroke_t	t	n/a
90.77	0.0895	181540	keystroke_a	a	n/a
90.89	0.09	181780	keystroke_i	i	n/a
91.0705	0.1195	182141	keystroke_l	l	n/a
91.1595	0.135	182319	keystroke_e	e	n/a
91.2345	0.136	182469	keystroke_r	r	n/a
91.475	0.12	182950	keystroke_Key.space	Key.space	n/a
91.835	0.135	183670	keystroke_w	w	n/a
91.985	0.105	183970	keystroke_e	e	n/a
92.195	0.1205	184390	keystroke_l	l	n/a
92.796	0.104	185592	keystroke_c	c	n/a
92.885	0.135	185770	keystroke_o	o	n/a
92.96	0.135	185920	keystroke_m	m	n/a
93.065	0.1345	186130	keystroke_e	e	n/a
93.215	0.12	186430	keystroke_Key.space	Key.space	n/a
93.59	0.12	187180	keystroke_p	p	n/a
93.785	0.1205	187570	keystroke_r	r	n/a
93.9355	0.1195	187871	keystroke_o	o	n/a
94.0995	0.106	188199	keystroke_s	s	n/a
94.715	0.1205	189430	keystroke_p	p	n/a
94.7905	0.1345	189581	keystroke_e	e	n/a
95.045	0.119	190090	keystroke_c	c	n/a
95.2695	0.0905	190539	keystroke_t	t	n/a
96.245	0.12	192490	keystroke_Key.space	Key.space	n/a
97.5945	0.105	195189	keystroke_p	p	n/a
97.685	0.105	195370	keystroke_s	s	n/a
97.715	0.165	195430	keystroke_e	e	n/a
98.1645	0.075	196329	keystroke_Key.backspace	Key.backspace	n/a
98.3145	0.0755	196629	keystroke_Key.backspace	Key.backspace	n/a
98.4345	0.0905	196869	keystroke_Key.backspace	Key.backspace	n/a
98.6905	0.104	197381	keystroke_s	s	n/a
98.915	0.105	197830	keystroke_p	p	n/a
99.1545	0.1355	198309	keystroke_e	e	n/a
99.6945	0.09	199389	keystroke_c	c	n/a
99.815	0.1205	199630	keystroke_i	i	n/a
100.1	0.1045	200200	keystroke_f	f	n/a
100.175	0.105	200350	keystroke_i	i	n/a
100.4	0.135	200800	keystroke_x	x	n/a
100.5495	0.0905	201099	keystroke_Key.enter	Key.enter	n/a
100.6465	8.6055	201293	prompt	n/a	prisoner equality membrane flip\n
100.8345	0.076	201669	keystroke_Key.backspace	Key.backspace	n/a
101.9605	0.105	203921	keystroke_p	p	n/a
102.0355	0.12	204071	keystroke_r	r	n/a
102.1695	0.076	204339	keystroke_o	o	n/a
102.455	0.0895	204910	keystroke_Key.backspace	Key.backspace	n/a
102.6655	0.105	205331	keystroke_i	i	n/a
103.0545	0.091	206109	keystroke_s	s	n/a
103.1	0.135	206200	keystroke_o	o	n/a
103.5205	0.1195	207041	keystroke_n	n	n/a
103.7	0.165	207400	keystroke_e	e	n/a
103.76	0.165	207520	keystroke_r	r	n/a
103.955	0.12	207910	keystroke_Key.space	Key.space	n/a
104.375	0.136	208750	keystroke_e	e	n/a
104.496	0.104	208992	keystroke_q	q	n/a
104.705	0.105	209410	keystroke_u	u	n/a
104.795	0.09	209590	keystroke_a	a	n/a
104.9305	0.1345	209861	keystroke_l	l	n/a
105.47	0.1055	210940	keystroke_i	i	n/a
105.6945	0.12	211389	keystroke_t	t	n/a
105.8745	0.105	211749	keystroke_y	y	n/a
106.0705	0.1195	212141	keystroke_Key.space	Key.space	n/a
106.625	0.09	213250	keystroke_m	m	n/a
106.7155	0.1045	213431	keystroke_e	e	n/a
106.8055	0.1045	213611	keystroke_m	m	n/a
107.091	0.104	214182	keystroke_b	b	n/a
107.2995	0.1205	214599	keystroke_r	r	n/a
107.45	0.105	214900	keystroke_a	a	n/a
107.57	0.105	215140	keystroke_n	n	n/a
107.689	0.1665	215378	keystroke_e	e	n/a
107.93	0.1495	215860	keystroke_Key.space	Key.space	n/a
108.335	0.1045	216670	keystroke_f	f	n/a
108.41	0.12	216820	keystroke_l	l	n/a
108.59	0.15	217180	keystroke_i	i	n/a
108.844	0.136	217688	keystroke_p	p	n/a
109.1445	0.105	218289	keystroke_Key.enter	Key.enter	n/a
109.2585	7.2385	218517	prompt	n/a	listed dirt monkey fell\n
110.0145	0.09	220029	keystroke_l	l	n/a
110.27	0.06	220540	keystroke_i	i	n/a
110.285	0.09	220570	keystroke_s	s	n/a
110.39	0.1055	220780	keystroke_t	t	n/a
110.51	0.135	221020	keystroke_e	e	n/a
110.705	0.1355	221410	keystroke_d	d	n/a
110.8405	0.1195	221681	keystroke_Key.space	Key.space	n/a
111.125	0.12	222250	keystroke_d	d	n/a
111.215	0.1045	222430	keystroke_i	i	n/a
111.35	0.1205	222700	keystroke_r	r	n/a
111.6955	0.1195	223391	keystroke_t	t	n/a
111.965	0.12	223930	keystroke_Key.space	Key.space	n/a
112.416	0.1495	224832	keystroke_m	m	n/a
112.5195	0.135	225039	keystroke_o	o	n/a
113.39	0.105	226780	keystroke_n	n	n/a
113.57	0.12	227140	keystroke_k	k	n/a
113.675	0.1055	227350	keystroke_e	e	n/a
114.3055	0.105	228611	keystroke_y	y	n/a
114.44	0.1345	228880	keystroke_Key.space	Key.space	n/a
115.4305	0.0895	230861	keystroke_f	f	n/a
115.505	0.12	231010	keystroke_e	e	n/a
115.685	0.255	231370	keystroke_l	l	n/a
116.1645	0.0765	232329	keystroke_l	l	n/a
116.375	0.12	232750	keystroke_Key.enter	Key.enter	n/a
116.503	10.4045	233006	prompt	n/a	acquired sydney thai implied\n
117.14	0.12	234280	keystroke_a	a	n/a
117.44	0.105	234880	keystroke_c	c	n/a
118.8955	0.1045	237791	keystroke_q	q	n/a
118.94	0.165	237880	keystroke_u	u	n/a
119.016	0.119	238032	keystroke_i	i	n/a
119.39	0.1205	238780	keystroke_r	r	n/a
119.9145	0.105	239829	keystroke_e	e	n/a
120.1095	0.1205	240219	keystroke_d	d	n/a
120.245	0.12	240490	keystroke_Key.space	Key.space	n/a
120.8	0.12	241600	keystroke_s	s	n/a
120.965	0.1045	241930	keystroke_y	y	n/a
121.115	0.0895	242230	keystroke_d	d	n/a
121.235	0.1495	242470	keystroke_n	n	n/a
121.4	0.12	242800	keystroke_e	e	n/a
122.09	0.12	244180	keystroke_y	y	n/a
122.255	0.1355	244510	keystroke_Key.space	Key.space	n/a
122.96	0.1355	245920	keystroke_t	t	n/a
123.1095	0.076	246219	keystroke_h	h	n/a
123.14	0.105	246280	keystroke_a	a	n/a
123.3795	0.1055	246759	keystroke_u	u	n/a
123.5595	0.135	247119	keystroke_Key.space	Key.space	n/a
124.055	0.135	248110	keystroke_i	i	n/a
124.085	0.1355	248170	keystroke_m	m	n/a
124.3405	0.1045	248681	keystroke_p	p	n/a
124.5055	0.12	249011	keystroke_l	l	n/a
124.6265	0.044	249253	keystroke_e	e	n/a
125.66	0.075	251320	keystroke_Key.backspace	Key.backspace	n/a
126.02	0.135	252040	keystroke_i	i	n/a
126.5	0.1055	253000	keystroke_e	e	n/a
126.6795	0.121	253359	keystroke_d	d	n/a
126.785	0.12	253570	keystroke_Key.enter	Key.enter	n/a
126.9225	9.615	253845	prompt	n/a	hungarian scotland futures deployment\n
127.9255	0.1045	255851	keystroke_h	h	n/a
127.985	0.1055	255970	keystroke_u	u	n/a
128.1205	0.1195	256241	keystroke_n	n	n/a
128.39	0.0745	256780	keystroke_g	g	n/a
128.615	0.1205	257230	keystroke_a	a	n/a
128.87	0.09	257740	keystroke_r	r	n/a
128.93	0.1205	257860	keystroke_i	i	n/a
129.155	0.075	258310	keystroke_a	a	n/a
129.3495	0.106	258699	keystroke_n	n	n/a
129.65	0.105	259300	keystroke_Key.space	Key.space	n/a
129.92	0.1045	259840	keystroke_c	c	n/a
130.385	0.09	260770	keystroke_Key.backspace	Key.backspace	n/a
130.445	0.12	260890	keystroke_s	s	n/a
130.535	0.12	261070	keystroke_c	c	n/a
130.67	0.12	261340	keystroke_o	o	n/a
131.255	0.105	262510	keystroke_t	t	n/a
131.5255	0.1195	263051	keystroke_l	l	n/a
131.6145	0.076	263229	keystroke_a	a	n/a
131.795	0.105	263590	keystroke_n	n	n/a
131.885	0.15	263770	keystroke_d	d	n/a
132.08	0.135	264160	keystroke_Key.space	Key.space	n/a
133.07	0.091	266140	keystroke_f	f	n/a
133.176	0.1045	266352	keystroke_u	u	n/a
133.355	0.12	266710	keystroke_t	t	n/a
133.46	0.105	266920	keystroke_u	u	n/a
133.625	0.1345	267250	keystroke_r	r	n/a
133.7455	0.135	267491	keystroke_e	e	n/a
133.9255	0.1345	267851	keystroke_s	s	n/a
134.15	0.12	268300	keystroke_Key.space	Key.space	n/a
134.585	0.0755	269170	keystroke_d	d	n/a
134.735	0.1505	269470	keystroke_e	e	n/a
134.9895	0.1055	269979	keystroke_p	p	n/a
135.155	0.15	270310	keystroke_l	l	n/a
135.29	0.12	270580	keystroke_o	o	n/a
135.665	0.105	271330	keystroke_u	u	n/a
135.89	0.105	271780	keystroke_m	m	n/a
136.01	0.105	272020	keystroke_e	e	n/a
136.085	0.12	272170	keystroke_n	n	n/a
136.22	0.1205	272440	keystroke_t	t	n/a
136.415	0.12	272830	keystroke_Key.enter	Key.enter	n/a
136.542	7.9145	273084	prompt	n/a	marine codes requires corporate\n
137.525	0.1055	275050	keystroke_m	m	n/a
137.615	0.105	275230	keystroke_a	a	n/a
137.7655	0.1195	275531	keystroke_r	r	n/a
137.84	0.15	275680	keystroke_i	i	n/a
137.96	0.104	275920	keystroke_n	n	n/a
138.066	0.164	276132	keystroke_e	e	n/a
138.245	0.105	276490	keystroke_Key.space	Key.space	n/a
138.7705	0.12	277541	keystroke_c	c	n/a
138.875	0.15	277750	keystroke_o	o	n/a
138.995	0.0605	277990	keystroke_e	e	n/a
139.31	0.075	278620	keystroke_Key.backspace	Key.backspace	n/a
139.7	0.075	279400	keystroke_d	d	n/a
139.835	0.12	279670	keystroke_e	e	n/a
140.15	0.12	280300	keystroke_s	s	n/a
140.3895	0.1055	280779	keystroke_Key.space	Key.space	n/a
141.185	0.09	282370	keystroke_r	r	n/a
141.2455	0.15	282491	keystroke_e	e	n/a
141.5005	0.105	283001	keystroke_q	q	n/a
141.6205	0.135	283241	keystroke_u	u	n/a
141.6795	0.091	283359	keystroke_i	i	n/a
141.8305	0.1195	283661	keystroke_r	r	n/a
141.89	0.1505	283780	keystroke_e	e	n/a
142.055	0.165	284110	keystroke_s	s	n/a
142.2795	0.135	284559	keystroke_Key.space	Key.space	n/a
142.6395	0.12	285279	keystroke_c	c	n/a
142.7295	0.106	285459	keystroke_o	o	n/a
142.8955	0.1345	285791	keystroke_r	r	n/a
143.315	0.09	286630	keystroke_p	p	n/a
143.4645	0.1655	286929	keystroke_o	o	n/a
143.585	0.1655	287170	keystroke_r	r	n/a
143.795	0.075	287590	keystroke_a	a	n/a
143.9295	0.1205	287859	keystroke_t	t	n/a
144.0505	0.1195	288101	keystroke_e	e	n/a
144.335	0.12	288670	keystroke_Key.enter	Key.enter	n/a
144.461	7.945	288922	prompt	n/a	rand russell unemployment tiny\n
145.13	0.1205	290260	keystroke_r	r	n/a
145.28	0.09	290560	keystroke_a	a	n/a
145.4	0.1055	290800	keystroke_n	n	n/a
145.5205	0.149	291041	keystroke_d	d	n/a
145.6395	0.136	291279	keystroke_Key.space	Key.space	n/a
145.9705	0.1345	291941	keystroke_r	r	n/a
146.09	0.1205	292180	keystroke_u	u	n/a
146.225	0.075	292450	keystroke_s	s	n/a
146.375	0.1505	292750	keystroke_s	s	n/a
146.5555	0.0745	293111	keystroke_e	e	n/a
146.8555	0.0895	293711	keystroke_l	l	n/a
147.02	0.105	294040	keystroke_l	l	n/a
147.4545	0.1055	294909	keystroke_Key.space	Key.space	n/a
147.9205	0.135	295841	keystroke_u	u	n/a
147.9945	0.0915	295989	keystroke_n	n	n/a
148.2195	0.121	296439	keystroke_e	e	n/a
148.3545	0.1205	296709	keystroke_m	m	n/a
148.5795	0.105	297159	keystroke_p	p	n/a
149.18	0.075	298360	keystroke_l	l	n/a
149.7795	0.135	299559	keystroke_o	o	n/a
150.23	0.045	300460	keystroke_y	y	n/a
150.425	0.12	300850	keystroke_m	m	n/a
150.56	0.09	301120	keystroke_e	e	n/a
150.62	0.1195	301240	keystroke_n	n	n/a
150.7705	0.12	301541	keystroke_t	t	n/a
151.0395	0.1205	302079	keystroke_Key.space	Key.space	n/a
151.64	0.105	303280	keystroke_t	t	n/a
151.655	0.12	303310	keystroke_i	i	n/a
151.835	0.135	303670	keystroke_n	n	n/a
152.015	0.1355	304030	keystroke_y	y	n/a
152.3295	0.0755	304659	keystroke_Key.enter	Key.enter	n/a
152.4105	7.4215	304821	prompt	n/a	kinds parliament philip removal\n
153.275	0.12	306550	keystroke_k	k	n/a
153.3805	0.1345	306761	keystroke_i	i	n/a
153.5445	0.105	307089	keystroke_n	n	n/a
153.62	0.1495	307240	keystroke_d	d	n/a
153.7395	0.1655	307479	keystroke_s	s	n/a
153.89	0.135	307780	keystroke_Key.space	Key.space	n/a
154.2495	0.135	308499	keystroke_p	p	n/a
154.3695	0.1055	308739	keystroke_a	a	n/a
154.7745	0.1205	309549	keystroke_r	r	n/a
154.94	0.1495	309880	keystroke_l	l	n/a
155.63	0.105	311260	keystroke_i	i	n/a
155.675	0.12	311350	keystroke_a	a	n/a
155.81	0.1055	311620	keystroke_m	m	n/a
155.93	0.1195	311860	keystroke_e	e	n/a
156.0195	0.1205	312039	keystroke_n	n	n/a
156.23	0.1195	312460	keystroke_t	t	n/a
156.5	0.1045	313000	keystroke_Key.space	Key.space	n/a
156.8745	0.12	313749	keystroke_p	p	n/a
157.205	0.106	314410	keystroke_h	h	n/a
157.28	0.105	314560	keystroke_i	i	n/a
157.46	0.1195	314920	keystroke_l	l	n/a
157.6245	0.135	315249	keystroke_i	i	n/a
157.865	0.12	315730	keystroke_p	p	n/a
158.045	0.1495	316090	keystroke_Key.space	Key.space	n/a
158.3	0.12	316600	keystroke_r	r	n/a
158.36	0.135	316720	keystroke_e	e	n/a
158.9145	0.1505	317829	keystroke_m	m	n/a
159.0345	0.1355	318069	keystroke_o	o	n/a
159.08	0.075	318160	keystroke_v	v	n/a
159.245	0.105	318490	keystroke_a	a	n/a
159.41	0.1355	318820	keystroke_l	l	n/a
159.695	0.1345	319390	keystroke_Key.enter	Key.enter	n/a
159.84	9.457	319680	prompt	n/a	finland sink albums values\n
160.9555	0.1195	321911	keystroke_f	f	n/a
161.0005	0.165	322001	keystroke_i	i	n/a
161.0905	0.1345	322181	keystroke_n	n	n/a
161.359	0.136	322718	keystroke_l	l	n/a
161.465	0.1045	322930	keystroke_a	a	n/a
161.6295	0.12	323259	keystroke_n	n	n/a
161.7345	0.18	323469	keystroke_d	d	n/a
161.8845	0.12	323769	keystroke_Key.space	Key.space	n/a
162.2755	0.104	324551	keystroke_s	s	n/a
162.3505	0.0895	324701	keystroke_k	k	n/a
162.8745	0.031	325749	keystroke_Key.backspace	Key.backspace	n/a
163.1005	0.179	326201	keystroke_i	i	n/a
163.2195	0.1355	326439	keystroke_n	n	n/a
163.4	0.165	326800	keystroke_k	k	n/a
163.61	0.165	327220	keystroke_Key.space	Key.space	n/a
163.9995	0.1505	327999	keystroke_a	a	n/a
164.136	0.104	328272	keystroke_l	l	n/a
164.315	0.165	328630	keystroke_m	m	n/a
164.8245	0.105	329649	keystroke_Key.backspace	Key.backspace	n/a
164.9455	0.075	329891	keystroke_b	b	n/a
165.1105	0.105	330221	keystroke_i	i	n/a
165.425	0.1055	330850	keystroke_,	,	n/a
165.77	0.0445	331540	keystroke_Key.backspace	Key.backspace	n/a
165.89	0.09	331780	keystroke_Key.backspace	Key.backspace	n/a
166.535	0.0905	333070	keystroke_u	u	n/a
166.73	0.09	333460	keystroke_m	m	n/a
166.8345	0.1205	333669	keystroke_s	s	n/a
167.165	0.1045	334330	keystroke_Key.space	Key.space	n/a
167.63	0.09	335260	keystroke_v	v	n/a
167.7955	0.09	335591	keystroke_a	a	n/a
167.8405	0.09	335681	keystroke_l	l	n/a
168.1105	0.1045	336221	keystroke_u	u	n/a
168.185	0.12	336370	keystroke_e	e	n/a
168.3055	0.1795	336611	keystroke_s	s	n/a
168.545	0.075	337090	keystroke_Key.space	Key.space	n/a
168.95	0.09	337900	keystroke_Key.backspace	Key.backspace	n/a
169.175	0.1195	338350	keystroke_Key.enter	Key.enter	n/a
169.3015	10.241	338603	prompt	n/a	minolta operations gibson used\n
170.5555	0.134	341111	keystroke_m	m	n/a
170.6305	0.12	341261	keystroke_o	o	n/a
171.635	0.105	343270	keystroke_Key.backspace	Key.backspace	n/a
171.9505	0.1195	343901	keystroke_i	i	n/a
172.19	0.165	344380	keystroke_n	n	n/a
172.2805	0.1345	344561	keystroke_o	o	n/a
173.195	0.105	346390	keystroke_l	l	n/a
173.345	0.1045	346690	keystroke_t	t	n/a
173.525	0.1345	347050	keystroke_a	a	n/a
173.6745	0.121	347349	keystroke_Key.space	Key.space	n/a
174.5295	0.2255	349059	keystroke_o	o	n/a
174.65	0.12	349300	keystroke_p	p	n/a
174.83	0.1505	349660	keystroke_e	e	n/a
174.92	0.1205	349840	keystroke_r	r	n/a
175.0855	0.1045	350171	keystroke_a	a	n/a
175.505	0.105	351010	keystroke_t	t	n/a
175.625	0.135	351250	keystroke_i	i	n/a
175.7	0.105	351400	keystroke_o	o	n/a
175.7755	0.1045	351551	keystroke_n	n	n/a
175.94	0.135	351880	keystroke_s	s	n/a
176.3	0.1205	352600	keystroke_Key.space	Key.space	n/a
176.8695	0.0905	353739	keystroke_g	g	n/a
176.93	0.105	353860	keystroke_i	i	n/a
177.26	0.09	354520	keystroke_b	b	n/a
177.65	0.09	355300	keystroke_s	s	n/a
177.725	0.12	355450	keystroke_o	o	n/a
177.98	0.1345	355960	keystroke_n	n	n/a
178.1	0.1355	356200	keystroke_Key.space	Key.space	n/a
178.8655	0.15	357731	keystroke_u	u	n/a
178.9395	0.1055	357879	keystroke_s	s	n/a
179.0005	0.1045	358001	keystroke_e	e	n/a
179.1505	0.135	358301	keystroke_d	d	n/a
179.4055	0.135	358811	keystroke_Key.enter	Key.enter	n/a
179.5465	7.5255	359093	prompt	n/a	level educators calling thailand\n
180.306	0.119	360612	keystroke_l	l	n/a
180.35	0.12	360700	keystroke_e	e	n/a
180.56	0.09	361120	keystroke_v	v	n/a
180.635	0.1655	361270	keystroke_e	e	n/a
180.77	0.135	361540	keystroke_l	l	n/a
180.965	0.12	361930	keystroke_Key.space	Key.space	n/a
181.6105	0.1045	363221	keystroke_e	e	n/a
181.775	0.105	363550	keystroke_d	d	n/a
182.36	0.105	364720	keystroke_u	u	n/a
182.4355	0.0895	364871	keystroke_c	c	n/a
182.5855	0.09	365171	keystroke_a	a	n/a
183.2305	0.105	366461	keystroke_t	t	n/a
183.3055	0.12	366611	keystroke_o	o	n/a
183.4855	0.1045	366971	keystroke_r	r	n/a
183.951	0.134	367902	keystroke_s	s	n/a
184.2055	0.1195	368411	keystroke_Key.space	Key.space	n/a
184.4305	0.12	368861	keystroke_c	c	n/a
184.5655	0.089	369131	keystroke_a	a	n/a
184.6255	0.09	369251	keystroke_l	l	n/a
184.7755	0.1045	369551	keystroke_l	l	n/a
184.9555	0.1795	369911	keystroke_i	i	n/a
185.0155	0.1645	370031	keystroke_n	n	n/a
185.12	0.1205	370240	keystroke_g	g	n/a
185.3	0.135	370600	keystroke_Key.space	Key.space	n/a
185.735	0.105	371470	keystroke_t	t	n/a
185.87	0.12	371740	keystroke_h	h	n/a
185.975	0.1055	371950	keystroke_a	a	n/a
186.17	0.136	372340	keystroke_i	i	n/a
186.38	0.12	372760	keystroke_l	l	n/a
186.485	0.105	372970	keystroke_a	a	n/a
186.605	0.12	373210	keystroke_n	n	n/a
186.7405	0.09	373481	keystroke_d	d	n/a
186.9645	0.1055	373929	keystroke_Key.enter	Key.enter	n/a
187.0775	13.5835	374155	prompt	n/a	developed use cloth obituaries\n
187.6855	0.0745	375371	keystroke_d	d	n/a
187.835	0.12	375670	keystroke_e	e	n/a
187.97	0.135	375940	keystroke_l	l	n/a
188.09	0.105	376180	keystroke_e	e	n/a
188.42	0.075	376840	keystroke_Key.backspace	Key.backspace	n/a
188.81	0.1205	377620	keystroke_v	v	n/a
188.945	0.09	377890	keystroke_e	e	n/a
189.155	0.06	378310	keystroke_Key.backspace	Key.backspace	n/a
189.3205	0.0595	378641	keystroke_Key.backspace	Key.backspace	n/a
189.4255	0.12	378851	keystroke_v	v	n/a
189.5295	0.106	379059	keystroke_e	e	n/a
189.7845	0.075	379569	keystroke_Key.backspace	Key.backspace	n/a
189.95	0.0455	379900	keystroke_Key.backspace	Key.backspace	n/a
190.07	0.0605	380140	keystroke_Key.backspace	Key.backspace	n/a
190.16	0.12	380320	keystroke_v	v	n/a
190.2505	0.12	380501	keystroke_e	e	n/a
190.8355	0.1045	381671	keystroke_l	l	n/a
191	0.1205	382000	keystroke_o	o	n/a
191.1805	0.1495	382361	keystroke_p	p	n/a
191.2695	0.1055	382539	keystroke_e	e	n/a
191.45	0.15	382900	keystroke_d	d	n/a
191.57	0.1205	383140	keystroke_Key.space	Key.space	n/a
191.9755	0.1195	383951	keystroke_u	u	n/a
192.0355	0.165	384071	keystroke_s	s	n/a
192.11	0.1805	384220	keystroke_e	e	n/a
192.2445	0.1205	384489	keystroke_Key.space	Key.space	n/a
192.6355	0.1345	385271	keystroke_c	c	n/a
192.71	0.105	385420	keystroke_l	l	n/a
192.8905	0.135	385781	keystroke_o	o	n/a
193.0105	0.1345	386021	keystroke_t	t	n/a
193.22	0.091	386440	keystroke_h	h	n/a
193.46	0.1195	386920	keystroke_Key.space	Key.space	n/a
194.51	0.09	389020	keystroke_o	o	n/a
194.616	0.0895	389232	keystroke_b	b	n/a
194.7355	0.135	389471	keystroke_i	i	n/a
196.145	0.1055	392290	keystroke_t	t	n/a
196.31	0.135	392620	keystroke_u	u	n/a
196.46	0.0905	392920	keystroke_r	r	n/a
196.5955	0.1195	393191	keystroke_a	a	n/a
198.29	0.1355	396580	keystroke_Key.backspace	Key.backspace	n/a
198.4395	0.0455	396879	keystroke_Key.backspace	Key.backspace	n/a
198.4855	0.134	396971	keystroke_a	a	n/a
198.7855	0.0595	397571	keystroke_Key.backspace	Key.backspace	n/a
199.22	0.1205	398440	keystroke_a	a	n/a
200.1495	0.121	400299	keystroke_r	r	n/a
200.195	0.12	400390	keystroke_i	i	n/a
200.33	0.15	400660	keystroke_s	s	n/a
200.525	0.1345	401050	keystroke_Key.enter	Key.enter	n/a
200.6655	11.908	401331	prompt	n/a	honduras fate cattle entrepreneurs\n
201.8	0.15	403600	keystroke_h	h	n/a
201.921	0.1195	403842	keystroke_o	o	n/a
202.056	0.1185	404112	keystroke_n	n	n/a
202.191	0.09	404382	keystroke_d	d	n/a
202.37	0.09	404740	keystroke_i	i	n/a
202.97	0.1055	405940	keystroke_Key.backspace	Key.backspace	n/a
203.255	0.1505	406510	keystroke_u	u	n/a
203.48	0.15	406960	keystroke_r	r	n/a
203.675	0.18	407350	keystroke_a	a	n/a
203.765	0.195	407530	keystroke_s	s	n/a
203.975	0.135	407950	keystroke_Key.space	Key.space	n/a
204.4405	0.075	408881	keystroke_f	f	n/a
204.5305	0.12	409061	keystroke_a	a	n/a
204.6955	0.09	409391	keystroke_t	t	n/a
204.7705	0.18	409541	keystroke_e	e	n/a
204.9355	0.12	409871	keystroke_Key.space	Key.space	n/a
205.16	0.091	410320	keystroke_c	c	n/a
205.2655	0.105	410531	keystroke_a	a	n/a
205.445	0.075	410890	keystroke_t	t	n/a
205.7	0.0155	411400	keystroke_t	t	n/a
205.73	0.1055	411460	keystroke_l	l	n/a
205.82	0.15	411640	keystroke_e	e	n/a
205.9555	0.12	411911	keystroke_Key.space	Key.space	n/a
206.405	0.135	412810	keystroke_e	e	n/a
206.495	0.105	412990	keystroke_n	n	n/a
206.9155	0.1195	413831	keystroke_t	t	n/a
208.2505	0.0745	416501	keystroke_t	t	n/a
208.626	0.0895	417252	keystroke_Key.backspace	Key.backspace	n/a
208.7005	0.09	417401	keystroke_r	r	n/a
208.776	0.1045	417552	keystroke_e	e	n/a
210.1105	0.1045	420221	keystroke_p	p	n/a
210.155	0.135	420310	keystroke_r	r	n/a
210.23	0.1355	420460	keystroke_e	e	n/a
211.37	0.136	422740	keystroke_n	n	n/a
211.5355	0.135	423071	keystroke_e	e	n/a
211.76	0.1055	423520	keystroke_u	u	n/a
211.88	0.1045	423760	keystroke_r	r	n/a
212.2105	0.1195	424421	keystroke_s	s	n/a
212.42	0.1505	424840	keystroke_Key.enter	Key.enter	n/a
212.5805	8.7065	425161	prompt	n/a	orlando unwrap announces solid\n
213.3955	0.0895	426791	keystroke_o	o	n/a
213.47	0.1055	426940	keystroke_r	r	n/a
213.6065	0.1035	427213	keystroke_l	l	n/a
213.6955	0.1045	427391	keystroke_a	a	n/a
213.8595	0.1205	427719	keystroke_n	n	n/a
213.965	0.1055	427930	keystroke_d	d	n/a
214.4155	0.09	428831	keystroke_o	o	n/a
214.7445	0.121	429489	keystroke_Key.space	Key.space	n/a
215.5855	0.15	431171	keystroke_u	u	n/a
215.631	0.1205	431262	keystroke_n	n	n/a
216.1255	0.166	432251	keystroke_w	w	n/a
216.455	0.1505	432910	keystroke_r	r	n/a
216.6495	0.1055	433299	keystroke_a	a	n/a
216.8455	0.1045	433691	keystroke_p	p	n/a
217.1755	0.12	434351	keystroke_Key.space	Key.space	n/a
217.415	0.151	434830	keystroke_a	a	n/a
217.61	0.09	435220	keystroke_n	n	n/a
217.7605	0.1345	435521	keystroke_n	n	n/a
217.91	0.1355	435820	keystroke_o	o	n/a
218.12	0.135	436240	keystroke_u	u	n/a
218.2255	0.1345	436451	keystroke_n	n	n/a
218.361	0.1195	436722	keystroke_c	c	n/a
218.45	0.181	436900	keystroke_e	e	n/a
218.915	0.0155	437830	keystroke_Key.backspace	Key.backspace	n/a
219.7705	0.12	439541	keystroke_e	e	n/a
219.8605	0.15	439721	keystroke_s	s	n/a
220.1905	0.135	440381	keystroke_Key.space	Key.space	n/a
220.43	0.1355	440860	keystroke_s	s	n/a
220.5345	0.1065	441069	keystroke_o	o	n/a
220.7155	0.0755	441431	keystroke_l	l	n/a
220.865	0.1205	441730	keystroke_i	i	n/a
220.9555	0.15	441911	keystroke_d	d	n/a
221.18	0.105	442360	keystroke_Key.enter	Key.enter	n/a
221.291	8.906	442582	prompt	n/a	static hostel one pocket\n
221.9905	0.105	443981	keystroke_s	s	n/a
222.1405	0.0905	444281	keystroke_t	t	n/a
222.2905	0.075	444581	keystroke_a	a	n/a
222.4555	0.09	444911	keystroke_t	t	n/a
222.56	0.09	445120	keystroke_i	i	n/a
222.71	0.1055	445420	keystroke_c	c	n/a
222.92	0.0905	445840	keystroke_Key.space	Key.space	n/a
223.506	0.1045	447012	keystroke_h	h	n/a
223.596	0.104	447192	keystroke_o	o	n/a
223.745	0.076	447490	keystroke_t	t	n/a
224.0005	0.1495	448001	keystroke_s	s	n/a
224.2105	0.1355	448421	keystroke_e	e	n/a
224.5255	0.075	449051	keystroke_Key.backspace	Key.backspace	n/a
224.6905	0.06	449381	keystroke_Key.backspace	Key.backspace	n/a
224.7955	0.104	449591	keystroke_Key.backspace	Key.backspace	n/a
224.9605	0.1195	449921	keystroke_s	s	n/a
225.0355	0.0595	450071	keystroke_e	e	n/a
225.381	0.09	450762	keystroke_Key.backspace	Key.backspace	n/a
225.5005	0.1205	451001	keystroke_t	t	n/a
225.6655	0.12	451331	keystroke_e	e	n/a
225.7865	0.119	451573	keystroke_l	l	n/a
226.025	0.12	452050	keystroke_Key.space	Key.space	n/a
226.415	0.1205	452830	keystroke_o	o	n/a
226.6105	0.1205	453221	keystroke_n	n	n/a
226.746	0.104	453492	keystroke_Key.space	Key.space	n/a
227.7205	0.0895	455441	keystroke_[	[	n/a
228.095	0.0605	456190	keystroke_Key.backspace	Key.backspace	n/a
228.2305	0.075	456461	keystroke_Key.backspace	Key.backspace	n/a
228.3655	0.165	456731	keystroke_e	e	n/a
228.8005	0.12	457601	keystroke_Key.space	Key.space	n/a
229.0555	0.09	458111	keystroke_p	p	n/a
229.206	0.1345	458412	keystroke_o	o	n/a
229.3855	0.15	458771	keystroke_c	c	n/a
229.5205	0.1045	459041	keystroke_k	k	n/a
229.7305	0.1645	459461	keystroke_e	e	n/a
229.956	0.12	459912	keystroke_t	t	n/a
230.0905	0.1045	460181	keystroke_Key.enter	Key.enter	n/a
230.201	7.8405	460402	prompt	n/a	shadows affecting contracting rise\n
231.0505	0.15	462101	keystroke_s	s	n/a
231.2305	0.1055	462461	keystroke_h	h	n/a
231.305	0.135	462610	keystroke_a	a	n/a
231.485	0.1355	462970	keystroke_d	d	n/a
231.5905	0.1345	463181	keystroke_o	o	n/a
231.74	0.1355	463480	keystroke_w	w	n/a
231.9655	0.1645	463931	keystroke_s	s	n/a
232.145	0.1205	464290	keystroke_Key.space	Key.space	n/a
232.416	0.12	464832	keystroke_a	a	n/a
232.64	0.06	465280	keystroke_f	f	n/a
232.7905	0.09	465581	keystroke_f	f	n/a
232.8655	0.12	465731	keystroke_e	e	n/a
233.0155	0.09	466031	keystroke_c	c	n/a
233.2105	0.12	466421	keystroke_t	t	n/a
233.3315	0.1635	466663	keystroke_i	i	n/a
233.48	0.105	466960	keystroke_n	n	n/a
233.57	0.1205	467140	keystroke_g	g	n/a
233.78	0.1355	467560	keystroke_Key.space	Key.space	n/a
234.2755	0.12	468551	keystroke_c	c	n/a
234.3655	0.1355	468731	keystroke_o	o	n/a
234.5905	0.105	469181	keystroke_n	n	n/a
235.5355	0.12	471071	keystroke_t	t	n/a
235.7455	0.12	471491	keystroke_r	r	n/a
235.8805	0.1195	471761	keystroke_a	a	n/a
236.121	0.1045	472242	keystroke_c	c	n/a
236.5705	0.12	473141	keystroke_t	t	n/a
236.6755	0.165	473351	keystroke_i	i	n/a
236.7955	0.1195	473591	keystroke_n	n	n/a
236.885	0.105	473770	keystroke_g	g	n/a
237.0655	0.135	474131	keystroke_Key.space	Key.space	n/a
237.4855	0.135	474971	keystroke_r	r	n/a
237.5755	0.12	475151	keystroke_i	i	n/a
237.7105	0.165	475421	keystroke_s	s	n/a
237.83	0.076	475660	keystroke_e	e	n/a
237.935	0.1055	475870	keystroke_Key.enter	Key.enter	n/a
238.046	9.2505	476092	prompt	n/a	idol dialog industry andreas\n
238.8955	0.135	477791	keystroke_i	i	n/a
239.0155	0.105	478031	keystroke_d	d	n/a
239.1355	0.165	478271	keystroke_o	o	n/a
239.3155	0.1205	478631	keystroke_l	l	n/a
239.93	0.1655	479860	keystroke_Key.space	Key.space	n/a
240.2905	0.06	480581	keystroke_d	d	n/a
240.591	0.12	481182	keystroke_i	i	n/a
240.7405	0.1055	481481	keystroke_a	a	n/a
241.025	0.0605	482050	keystroke_l	l	n/a
241.6255	0.105	483251	keystroke_o	o	n/a
241.7155	0.12	483431	keystroke_g	g	n/a
241.8805	0.1195	483761	keystroke_Key.space	Key.space	n/a
242.4205	0.151	484841	keystroke_u	u	n/a
242.4805	0.135	484961	keystroke_n	n	n/a
242.6755	0.105	485351	keystroke_d	d	n/a
242.9905	0.135	485981	keystroke_s	s	n/a
243.1405	0.135	486281	keystroke_t	t	n/a
243.606	0.045	487212	keystroke_Key.backspace	Key.backspace	n/a
243.7255	0.075	487451	keystroke_Key.backspace	Key.backspace	n/a
244.415	0.1055	488830	keystroke_u	u	n/a
244.4605	0.135	488921	keystroke_s	s	n/a
244.6105	0.121	489221	keystroke_t	t	n/a
244.866	0.1195	489732	keystroke_r	r	n/a
245.496	0.119	490992	keystroke_y	y	n/a
245.6755	0.119	491351	keystroke_Key.space	Key.space	n/a
246.0955	0.12	492191	keystroke_a	a	n/a
246.2305	0.104	492461	keystroke_n	n	n/a
246.2455	0.1055	492491	keystroke_d	d	n/a
246.456	0.12	492912	keystroke_r	r	n/a
246.531	0.15	493062	keystroke_e	e	n/a
246.756	0.2395	493512	keystroke_a	a	n/a
246.89	0.15	493780	keystroke_s	s	n/a
247.145	0.15	494290	keystroke_Key.enter	Key.enter	n/a
247.301	8.801	494602	prompt	n/a	monaco abandoned writing impossible\n
248.376	0.1045	496752	keystroke_m	m	n/a
248.4655	0.09	496931	keystroke_o	o	n/a
248.5705	0.105	497141	keystroke_n	n	n/a
248.6305	0.12	497261	keystroke_a	a	n/a
248.8405	0.105	497681	keystroke_c	c	n/a
249.006	0.119	498012	keystroke_o	o	n/a
249.1855	0.1195	498371	keystroke_Key.space	Key.space	n/a
249.5605	0.1205	499121	keystroke_a	a	n/a
249.8305	0.06	499661	keystroke_b	b	n/a
249.905	0.105	499810	keystroke_a	a	n/a
250.0855	0.075	500171	keystroke_n	n	n/a
250.686	0.12	501372	keystroke_d	d	n/a
250.791	0.105	501582	keystroke_o	o	n/a
251.0165	0.1345	502033	keystroke_n	n	n/a
251.1055	0.12	502211	keystroke_e	e	n/a
251.2855	0.15	502571	keystroke_d	d	n/a
251.4205	0.1345	502841	keystroke_Key.space	Key.space	n/a
251.7655	0.1195	503531	keystroke_w	w	n/a
252.0055	0.119	504011	keystroke_r	r	n/a
252.0955	0.12	504191	keystroke_i	i	n/a
252.3055	0.12	504611	keystroke_t	t	n/a
252.395	0.105	504790	keystroke_i	i	n/a
252.606	0.104	505212	keystroke_n	n	n/a
252.755	0.12	505510	keystroke_g	g	n/a
252.9355	0.1495	505871	keystroke_Key.space	Key.space	n/a
253.5505	0.1655	507101	keystroke_i	i	n/a
253.641	0.105	507282	keystroke_m	m	n/a
253.8505	0.165	507701	keystroke_p	p	n/a
254.031	0.1345	508062	keystroke_o	o	n/a
254.271	0.0895	508542	keystroke_s	s	n/a
254.4505	0.1045	508901	keystroke_s	s	n/a
254.541	0.105	509082	keystroke_i	i	n/a
255.156	0.1045	510312	keystroke_b	b	n/a
255.486	0.134	510972	keystroke_l	l	n/a
255.636	0.089	511272	keystroke_e	e	n/a
255.9655	0.1355	511931	keystroke_Key.enter	Key.enter	n/a
256.106	10.2715	512212	prompt	n/a	builders compliant rocks pharmacology\n
257.255	0.121	514510	keystroke_b	b	n/a
257.406	0.135	514812	keystroke_u	u	n/a
257.481	0.075	514962	keystroke_i	i	n/a
257.676	0.15	515352	keystroke_l	l	n/a
257.766	0.075	515532	keystroke_d	d	n/a
257.931	0.105	515862	keystroke_e	e	n/a
258.096	0.135	516192	keystroke_r	r	n/a
258.215	0.151	516430	keystroke_s	s	n/a
258.381	0.12	516762	keystroke_Key.space	Key.space	n/a
258.7255	0.135	517451	keystroke_c	c	n/a
258.8005	0.21	517601	keystroke_o	o	n/a
258.9355	0.1205	517871	keystroke_m	m	n/a
259.205	0.016	518410	keystroke_;	;	n/a
259.9105	0.105	519821	keystroke_Key.backspace	Key.backspace	n/a
260.1505	0.15	520301	keystroke_p	p	n/a
260.3015	0.149	520603	keystroke_l	l	n/a
260.87	0.1205	521740	keystroke_i	i	n/a
260.9305	0.105	521861	keystroke_a	a	n/a
261.066	0.1045	522132	keystroke_n	n	n/a
261.1865	0.104	522373	keystroke_t	t	n/a
261.3355	0.1205	522671	keystroke_Key.space	Key.space	n/a
261.621	0.105	523242	keystroke_r	r	n/a
261.696	0.135	523392	keystroke_o	o	n/a
261.861	0.1045	523722	keystroke_c	c	n/a
261.9505	0.09	523901	keystroke_k	k	n/a
262.0705	0.136	524141	keystroke_s	s	n/a
262.2355	0.12	524471	keystroke_Key.space	Key.space	n/a
262.7305	0.135	525461	keystroke_p	p	n/a
263.061	0.104	526122	keystroke_h	h	n/a
263.135	0.09	526270	keystroke_a	a	n/a
263.5705	0.09	527141	keystroke_r	r	n/a
264.261	0.134	528522	keystroke_m	m	n/a
264.35	0.1355	528700	keystroke_a	a	n/a
264.561	0.1495	529122	keystroke_c	c	n/a
264.6655	0.105	529331	keystroke_o	o	n/a
264.8905	0.09	529781	keystroke_l	l	n/a
265.0405	0.1355	530081	keystroke_o	o	n/a
265.716	0.09	531432	keystroke_g	g	n/a
265.8955	0.135	531791	keystroke_y	y	n/a
266.2555	0.1205	532511	keystroke_Key.enter	Key.enter	n/a
266.384	5.843	532768	prompt	n/a	path warning sheep brian\n
267.1405	0.1045	534281	keystroke_p	p	n/a
267.2155	0.105	534431	keystroke_a	a	n/a
267.3955	0.1195	534791	keystroke_t	t	n/a
267.5005	0.1345	535001	keystroke_h	h	n/a
267.6505	0.09	535301	keystroke_Key.space	Key.space	n/a
267.98	0.1505	535960	keystroke_w	w	n/a
268.0555	0.12	536111	keystroke_a	a	n/a
268.386	0.0895	536772	keystroke_r	r	n/a
268.5355	0.135	537071	keystroke_n	n	n/a
268.6405	0.1505	537281	keystroke_i	i	n/a
268.761	0.1195	537522	keystroke_n	n	n/a
268.806	0.1495	537612	keystroke_g	g	n/a
269.0005	0.12	538001	keystroke_Key.space	Key.space	n/a
269.2995	0.1205	538599	keystroke_s	s	n/a
269.421	0.1045	538842	keystroke_h	h	n/a
269.5405	0.09	539081	keystroke_e	e	n/a
269.7055	0.135	539411	keystroke_e	e	n/a
270.441	0.075	540882	keystroke_p	p	n/a
270.53	0.135	541060	keystroke_Key.space	Key.space	n/a
271.22	0.1205	542440	keystroke_b	b	n/a
271.505	0.1355	543010	keystroke_r	r	n/a
271.6555	0.09	543311	keystroke_i	i	n/a
271.7605	0.09	543521	keystroke_a	a	n/a
271.9405	0.09	543881	keystroke_n	n	n/a
272.135	0.0905	544270	keystroke_Key.enter	Key.enter	n/a
272.23	12.9875	544460	prompt	n/a	preview pichunter accommodations valentine\n
273.156	0.1345	546312	keystroke_p	p	n/a
273.231	0.105	546462	keystroke_r	r	n/a
273.305	0.105	546610	keystroke_e	e	n/a
273.815	0.09	547630	keystroke_v	v	n/a
273.9505	0.1195	547901	keystroke_i	i	n/a
274.1	0.15	548200	keystroke_e	e	n/a
274.3405	0.1055	548681	keystroke_w	w	n/a
274.64	0.09	549280	keystroke_Key.space	Key.space	n/a
275.51	0.1055	551020	keystroke_p	p	n/a
275.8555	0.105	551711	keystroke_i	i	n/a
276.935	0.12	553870	keystroke_c	c	n/a
278.465	0.1355	556930	keystroke_h	h	n/a
278.5405	0.1205	557081	keystroke_u	u	n/a
278.691	0.1345	557382	keystroke_n	n	n/a
278.81	0.12	557620	keystroke_t	t	n/a
278.9755	0.1495	557951	keystroke_e	e	n/a
279.0655	0.1505	558131	keystroke_r	r	n/a
279.2755	0.1345	558551	keystroke_Key.space	Key.space	n/a
279.635	0.106	559270	keystroke_a	a	n/a
279.8455	0.105	559691	keystroke_c	c	n/a
280.025	0.1055	560050	keystroke_c	c	n/a
280.1	0.135	560200	keystroke_o	o	n/a
280.31	0.1205	560620	keystroke_m	m	n/a
280.4155	0.1495	560831	keystroke_o	o	n/a
281.48	0.1355	562960	keystroke_d	d	n/a
281.57	0.136	563140	keystroke_a	a	n/a
282.0805	0.1195	564161	keystroke_t	t	n/a
282.186	0.134	564372	keystroke_i	i	n/a
282.261	0.1195	564522	keystroke_o	o	n/a
282.335	0.1655	564670	keystroke_n	n	n/a
282.455	0.1655	564910	keystroke_s	s	n/a
282.6055	0.135	565211	keystroke_Key.space	Key.space	n/a
282.9355	0.075	565871	keystroke_v	v	n/a
283.115	0.12	566230	keystroke_a	a	n/a
283.1905	0.135	566381	keystroke_l	l	n/a
283.3855	0.12	566771	keystroke_e	e	n/a
283.8055	0.105	567611	keystroke_t	t	n/a
284.1805	0.06	568361	keystroke_Key.backspace	Key.backspace	n/a
284.391	0.1045	568782	keystroke_n	n	n/a
284.5105	0.105	569021	keystroke_t	t	n/a
284.6175	0.148	569235	keystroke_i	i	n/a
284.7805	0.12	569561	keystroke_n	n	n/a
284.9305	0.1355	569861	keystroke_e	e	n/a
285.0805	0.1345	570161	keystroke_Key.enter	Key.enter	n/a
285.2215	11.9655	570443	prompt	n/a	alex legislation coordinate rainbow\n
285.9805	0.12	571961	keystroke_a	a	n/a
286.0705	0.135	572141	keystroke_l	l	n/a
286.1905	0.09	572381	keystroke_e	e	n/a
286.385	0.09	572770	keystroke_x	x	n/a
286.491	0.119	572982	keystroke_Key.space	Key.space	n/a
286.8965	0.104	573793	keystroke_r	r	n/a
287.195	0.09	574390	keystroke_Key.backspace	Key.backspace	n/a
287.4205	0.135	574841	keystroke_l	l	n/a
287.5255	0.135	575051	keystroke_e	e	n/a
288.621	0.0595	577242	keystroke_g	g	n/a
288.6655	0.045	577331	keystroke_i	i	n/a
288.7705	0.1345	577541	keystroke_s	s	n/a
289.4605	0.06	578921	keystroke_l	l	n/a
289.4905	0.1045	578981	keystroke_a	a	n/a
289.8045	0.106	579609	keystroke_t	t	n/a
289.9555	0.0445	579911	keystroke_i	i	n/a
289.9705	0.135	579941	keystroke_o	o	n/a
290.0755	0.1345	580151	keystroke_n	n	n/a
291.3355	0.165	582671	keystroke_Key.space	Key.space	n/a
291.59	0.136	583180	keystroke_c	c	n/a
291.7855	0.105	583571	keystroke_o	o	n/a
291.981	0.135	583962	keystroke_o	o	n/a
292.1905	0.135	584381	keystroke_r	r	n/a
292.6105	0.12	585221	keystroke_d	d	n/a
293.09	0.1205	586180	keystroke_i	i	n/a
293.3605	0.0895	586721	keystroke_n	n	n/a
293.48	0.1215	586960	keystroke_a	a	n/a
293.765	0.1205	587530	keystroke_t	t	n/a
293.901	0.1355	587802	keystroke_e	e	n/a
294.56	0.135	589120	keystroke_Key.space	Key.space	n/a
294.8	0.105	589600	keystroke_r	r	n/a
294.9205	0.12	589841	keystroke_a	a	n/a
295.0705	0.1495	590141	keystroke_i	i	n/a
295.31	0.105	590620	keystroke_n	n	n/a
295.67	0.1205	591340	keystroke_b	b	n/a
295.7605	0.075	591521	keystroke_p	p	n/a
295.7755	0.1045	591551	keystroke_o	o	n/a
296.225	0.061	592450	keystroke_Key.backspace	Key.backspace	n/a
296.3455	0.089	592691	keystroke_Key.backspace	Key.backspace	n/a
296.586	0.1195	593172	keystroke_o	o	n/a
296.7205	0.1195	593441	keystroke_w	w	n/a
297.0505	0.135	594101	keystroke_Key.enter	Key.enter	n/a
297.1905	13.5115	594381	prompt	n/a	cialis carey officials luxembourg\n
298.1155	0.105	596231	keystroke_c	c	n/a
298.176	0.1345	596352	keystroke_i	i	n/a
298.3555	0.06	596711	keystroke_a	a	n/a
298.761	0.089	597522	keystroke_l	l	n/a
298.9555	0.15	597911	keystroke_i	i	n/a
299.7795	0.151	599559	keystroke_s	s	n/a
299.946	0.149	599892	keystroke_Key.space	Key.space	n/a
300.455	0.0755	600910	keystroke_v	v	n/a
300.6505	0.075	601301	keystroke_a	a	n/a
301.31	0.09	602620	keystroke_r	r	n/a
301.505	0.09	603010	keystroke_Key.backspace	Key.backspace	n/a
301.6705	0.06	603341	keystroke_Key.backspace	Key.backspace	n/a
301.79	0.06	603580	keystroke_Key.backspace	Key.backspace	n/a
302.315	0.075	604630	keystroke_c	c	n/a
302.5255	0.12	605051	keystroke_r	r	n/a
302.9	0.09	605800	keystroke_Key.backspace	Key.backspace	n/a
303.005	0.1365	606010	keystroke_a	a	n/a
303.1855	0.105	606371	keystroke_r	r	n/a
303.3055	0.1195	606611	keystroke_a	a	n/a
304.011	0.0895	608022	keystroke_Key.backspace	Key.backspace	n/a
304.0855	0.105	608171	keystroke_e	e	n/a
304.355	0.0905	608710	keystroke_y	y	n/a
304.91	0.1355	609820	keystroke_Key.space	Key.space	n/a
305.2555	0.0155	610511	keystroke_o	o	n/a
305.6155	0.0745	611231	keystroke_f	f	n/a
305.885	0.03	611770	keystroke_f	f	n/a
305.9005	0.0755	611801	keystroke_i	i	n/a
306.126	0.104	612252	keystroke_c	c	n/a
306.2155	0.1205	612431	keystroke_i	i	n/a
306.4705	0.105	612941	keystroke_a	a	n/a
306.6955	0.09	613391	keystroke_l	l	n/a
306.8905	0.1345	613781	keystroke_s	s	n/a
307.205	0.1205	614410	keystroke_Key.space	Key.space	n/a
307.8805	0.1045	615761	keystroke_l	l	n/a
308.1505	0.12	616301	keystroke_u	u	n/a
308.5855	0.075	617171	keystroke_x	x	n/a
308.7505	0.105	617501	keystroke_e	e	n/a
308.9305	0.12	617861	keystroke_m	m	n/a
309.621	0.104	619242	keystroke_b	b	n/a
309.7705	0.0895	619541	keystroke_o	o	n/a
309.9955	0.105	619991	keystroke_u	u	n/a
310.0405	0.1055	620081	keystroke_r	r	n/a
310.2355	0.1205	620471	keystroke_g	g	n/a
310.5655	0.135	621131	keystroke_Key.enter	Key.enter	n/a
310.707	8.68	621414	prompt	n/a	actress crystal unauthorized recipes\n
311.3455	0.1355	622691	keystroke_a	a	n/a
311.6605	0.09	623321	keystroke_c	c	n/a
312.05	0.136	624100	keystroke_t	t	n/a
312.305	0.15	624610	keystroke_r	r	n/a
312.411	0.119	624822	keystroke_e	e	n/a
312.636	0.074	625272	keystroke_s	s	n/a
312.786	0.1195	625572	keystroke_s	s	n/a
312.995	0.1355	625990	keystroke_Key.space	Key.space	n/a
313.4155	0.0905	626831	keystroke_c	c	n/a
313.6555	0.105	627311	keystroke_r	r	n/a
313.8655	0.075	627731	keystroke_y	y	n/a
313.941	0.1045	627882	keystroke_s	s	n/a
314.0305	0.105	628061	keystroke_t	t	n/a
314.1955	0.12	628391	keystroke_a	a	n/a
314.3305	0.12	628661	keystroke_l	l	n/a
314.7505	0.12	629501	keystroke_Key.space	Key.space	n/a
315.3055	0.15	630611	keystroke_u	u	n/a
315.3655	0.12	630731	keystroke_n	n	n/a
315.6355	0.12	631271	keystroke_a	a	n/a
316.3705	0.12	632741	keystroke_u	u	n/a
316.5955	0.12	633191	keystroke_t	t	n/a
316.6555	0.105	633311	keystroke_h	h	n/a
316.9255	0.1195	633851	keystroke_o	o	n/a
317.075	0.1355	634150	keystroke_r	r	n/a
317.2105	0.12	634421	keystroke_i	i	n/a
317.3905	0.105	634781	keystroke_z	z	n/a
317.6755	0.105	635351	keystroke_e	e	n/a
317.8555	0.15	635711	keystroke_d	d	n/a
318.0505	0.1345	636101	keystroke_Key.space	Key.space	n/a
318.3495	0.106	636699	keystroke_r	r	n/a
318.4105	0.1195	636821	keystroke_e	e	n/a
318.5905	0.135	637181	keystroke_c	c	n/a
318.7705	0.0595	637541	keystroke_i	i	n/a
318.95	0.106	637900	keystroke_p	p	n/a
318.995	0.151	637990	keystroke_e	e	n/a
319.085	0.105	638170	keystroke_s	s	n/a
319.2645	0.121	638529	keystroke_Key.enter	Key.enter	n/a
319.393	9.324	638786	prompt	n/a	bristol independent path costumes\n
320.36	0.105	640720	keystroke_b	b	n/a
320.4955	0.12	640991	keystroke_r	r	n/a
320.7355	0.1195	641471	keystroke_i	i	n/a
320.81	0.135	641620	keystroke_s	s	n/a
320.9755	0.1355	641951	keystroke_t	t	n/a
321.14	0.135	642280	keystroke_o	o	n/a
321.351	0.0895	642702	keystroke_l	l	n/a
321.5	0.1205	643000	keystroke_Key.space	Key.space	n/a
321.89	0.1805	643780	keystroke_i	i	n/a
321.9955	0.12	643991	keystroke_n	n	n/a
322.3405	0.1045	644681	keystroke_d	d	n/a
322.551	0.12	645102	keystroke_e	e	n/a
323.21	0.1055	646420	keystroke_p	p	n/a
323.2855	0.1045	646571	keystroke_e	e	n/a
323.496	0.1195	646992	keystroke_n	n	n/a
323.6905	0.0455	647381	keystroke_t	t	n/a
323.9005	0.0605	647801	keystroke_d	d	n/a
324.2005	0.06	648401	keystroke_Key.backspace	Key.backspace	n/a
324.3355	0.09	648671	keystroke_Key.backspace	Key.backspace	n/a
324.4855	0.075	648971	keystroke_d	d	n/a
324.6355	0.09	649271	keystroke_e	e	n/a
324.7105	0.09	649421	keystroke_n	n	n/a
324.8605	0.105	649721	keystroke_t	t	n/a
325.2655	0.105	650531	keystroke_Key.space	Key.space	n/a
325.6705	0.105	651341	keystroke_p	p	n/a
325.7305	0.105	651461	keystroke_a	a	n/a
325.9255	0.12	651851	keystroke_t	t	n/a
326.0305	0.105	652061	keystroke_h	h	n/a
326.12	0.1055	652240	keystroke_Key.space	Key.space	n/a
326.45	0.12	652900	keystroke_s	s	n/a
326.5555	0.12	653111	keystroke_o	o	n/a
326.8555	0.06	653711	keystroke_Key.backspace	Key.backspace	n/a
326.99	0.09	653980	keystroke_Key.backspace	Key.backspace	n/a
327.0955	0.1195	654191	keystroke_c	c	n/a
327.216	0.09	654432	keystroke_o	o	n/a
327.4105	0.1345	654821	keystroke_s	s	n/a
328.071	0.1195	656142	keystroke_t	t	n/a
328.145	0.1205	656290	keystroke_u	u	n/a
328.31	0.1205	656620	keystroke_m	m	n/a
328.3705	0.12	656741	keystroke_e	e	n/a
328.5355	0.12	657071	keystroke_s	s	n/a
328.6255	0.09	657251	keystroke_Key.enter	Key.enter	n/a
328.722	6.865	657444	prompt	n/a	affected ringtones plugins charge\n
329.3155	0.1205	658631	keystroke_a	a	n/a
329.54	0.075	659080	keystroke_f	f	n/a
329.6905	0.1045	659381	keystroke_f	f	n/a
329.781	0.1495	659562	keystroke_e	e	n/a
329.96	0.121	659920	keystroke_c	c	n/a
330.2	0.076	660400	keystroke_t	t	n/a
330.425	0.1055	660850	keystroke_e	e	n/a
330.635	0.0905	661270	keystroke_d	d	n/a
330.7105	0.1345	661421	keystroke_Key.space	Key.space	n/a
331.0555	0.09	662111	keystroke_r	r	n/a
331.13	0.1205	662260	keystroke_i	i	n/a
331.3255	0.0895	662651	keystroke_n	n	n/a
331.4455	0.1195	662891	keystroke_g	g	n/a
331.805	0.105	663610	keystroke_t	t	n/a
331.8955	0.12	663791	keystroke_o	o	n/a
332.0755	0.1045	664151	keystroke_n	n	n/a
332.195	0.1805	664390	keystroke_e	e	n/a
332.2855	0.165	664571	keystroke_s	s	n/a
332.4655	0.135	664931	keystroke_Key.space	Key.space	n/a
333.035	0.136	666070	keystroke_p	p	n/a
333.11	0.165	666220	keystroke_l	l	n/a
333.47	0.135	666940	keystroke_u	u	n/a
333.905	0.1055	667810	keystroke_g	g	n/a
333.9355	0.135	667871	keystroke_i	i	n/a
334.0405	0.12	668081	keystroke_n	n	n/a
334.1905	0.1795	668381	keystroke_s	s	n/a
334.355	0.1645	668710	keystroke_Key.space	Key.space	n/a
334.7	0.1355	669400	keystroke_c	c	n/a
334.895	0.1205	669790	keystroke_h	h	n/a
334.9555	0.09	669911	keystroke_a	a	n/a
335.0605	0.1205	670121	keystroke_r	r	n/a
335.27	0.1055	670540	keystroke_g	g	n/a
335.33	0.1355	670660	keystroke_e	e	n/a
335.48	0.105	670960	keystroke_Key.enter	Key.enter	n/a
335.5905	8.816	671181	prompt	n/a	dated reproductive cardiff overcome\n
336.4855	0.105	672971	keystroke_d	d	n/a
336.5755	0.105	673151	keystroke_a	a	n/a
336.7555	0.0895	673511	keystroke_t	t	n/a
336.86	0.106	673720	keystroke_e	e	n/a
336.9805	0.15	673961	keystroke_d	d	n/a
337.175	0.135	674350	keystroke_Key.space	Key.space	n/a
337.5205	0.104	675041	keystroke_r	r	n/a
337.6095	0.105	675219	keystroke_e	e	n/a
337.8505	0.105	675701	keystroke_p	p	n/a
338.3155	0.1055	676631	keystroke_d	d	n/a
338.72	0.0455	677440	keystroke_Key.backspace	Key.backspace	n/a
338.8405	0.1205	677681	keystroke_r	r	n/a
338.945	0.106	677890	keystroke_o	o	n/a
339.5755	0.105	679151	keystroke_d	d	n/a
339.7555	0.135	679511	keystroke_u	u	n/a
339.8455	0.075	679691	keystroke_c	c	n/a
340.0255	0.12	680051	keystroke_t	t	n/a
340.1155	0.12	680231	keystroke_i	i	n/a
340.2955	0.1055	680591	keystroke_v	v	n/a
340.4015	0.134	680803	keystroke_e	e	n/a
340.595	0.135	681190	keystroke_Key.space	Key.space	n/a
341.5855	0.06	683171	keystroke_c	c	n/a
341.6755	0.091	683351	keystroke_a	a	n/a
341.8255	0.1195	683651	keystroke_r	r	n/a
342.141	0.104	684282	keystroke_d	d	n/a
342.455	0.12	684910	keystroke_i	i	n/a
342.53	0.105	685060	keystroke_g	g	n/a
342.7405	0.135	685481	keystroke_g	g	n/a
342.8905	0.12	685781	keystroke_Key.space	Key.space	n/a
343.2355	0.105	686471	keystroke_o	o	n/a
343.3105	0.09	686621	keystroke_v	v	n/a
343.4455	0.135	686891	keystroke_e	e	n/a
343.535	0.1205	687070	keystroke_r	r	n/a
343.8205	0.105	687641	keystroke_c	c	n/a
343.9405	0.15	687881	keystroke_o	o	n/a
344.0305	0.15	688061	keystroke_m	m	n/a
344.136	0.104	688272	keystroke_e	e	n/a
344.3	0.105	688600	keystroke_Key.enter	Key.enter	n/a
344.41	8.743	688820	prompt	n/a	presents sometimes ratio fleet\n
345.1105	0.135	690221	keystroke_p	p	n/a
345.1555	0.105	690311	keystroke_r	r	n/a
345.2305	0.12	690461	keystroke_e	e	n/a
345.4105	0.134	690821	keystroke_s	s	n/a
345.5755	0.03	691151	keystroke_s	s	n/a
345.5905	0.135	691181	keystroke_e	e	n/a
346.085	0.1055	692170	keystroke_n	n	n/a
346.175	0.1205	692350	keystroke_t	t	n/a
346.4605	0.06	692921	keystroke_Key.backspace	Key.backspace	n/a
346.6105	0.045	693221	keystroke_Key.backspace	Key.backspace	n/a
346.7155	0.06	693431	keystroke_Key.backspace	Key.backspace	n/a
346.8355	0.0895	693671	keystroke_Key.backspace	Key.backspace	n/a
346.97	0.1505	693940	keystroke_e	e	n/a
347.3	0.0905	694600	keystroke_n	n	n/a
347.3755	0.1205	694751	keystroke_t	t	n/a
347.51	0.166	695020	keystroke_s	s	n/a
347.6905	0.12	695381	keystroke_Key.space	Key.space	n/a
348.0955	0.105	696191	keystroke_s	s	n/a
348.1855	0.075	696371	keystroke_o	o	n/a
348.3505	0.12	696701	keystroke_m	m	n/a
348.3805	0.12	696761	keystroke_e	e	n/a
348.6205	0.105	697241	keystroke_t	t	n/a
348.6805	0.1655	697361	keystroke_i	i	n/a
348.831	0.089	697662	keystroke_n	n	n/a
349.431	0.0595	698862	keystroke_Key.backspace	Key.backspace	n/a
349.626	0.1345	699252	keystroke_m	m	n/a
349.715	0.1055	699430	keystroke_e	e	n/a
349.8805	0.165	699761	keystroke_s	s	n/a
350.0905	0.1195	700181	keystroke_Key.space	Key.space	n/a
350.51	0.106	701020	keystroke_r	r	n/a
350.6305	0.1045	701261	keystroke_a	a	n/a
350.81	0.1055	701620	keystroke_t	t	n/a
350.87	0.135	701740	keystroke_i	i	n/a
350.946	0.1345	701892	keystroke_o	o	n/a
351.0495	0.106	702099	keystroke_n	n	n/a
351.14	0.1355	702280	keystroke_Key.space	Key.space	n/a
351.605	0.06	703210	keystroke_Key.backspace	Key.backspace	n/a
351.7555	0.09	703511	keystroke_Key.backspace	Key.backspace	n/a
351.8755	0.135	703751	keystroke_Key.space	Key.space	n/a
352.4905	0.1195	704981	keystroke_f	f	n/a
352.565	0.1205	705130	keystroke_e	e	n/a
352.9105	0.015	705821	keystroke_e	e	n/a
352.9405	0.106	705881	keystroke_t	t	n/a
353.0465	0.104	706093	keystroke_Key.enter	Key.enter	n/a
353.157	13.646	706314	prompt	n/a	forbidden campbell straight exemption\n
353.9305	0.105	707861	keystroke_f	f	n/a
354.0365	0.089	708073	keystroke_o	o	n/a
354.23	0.105	708460	keystroke_r	r	n/a
354.47	0.0905	708940	keystroke_d	d	n/a
354.65	0.1055	709300	keystroke_i	i	n/a
355.1455	0.044	710291	keystroke_Key.backspace	Key.backspace	n/a
355.2805	0.075	710561	keystroke_Key.backspace	Key.backspace	n/a
355.3705	0.12	710741	keystroke_b	b	n/a
356.0305	0.09	712061	keystroke_i	i	n/a
356.1955	0.09	712391	keystroke_d	d	n/a
356.4055	0.015	712811	keystroke_d	d	n/a
356.4805	0.18	712961	keystroke_e	e	n/a
356.616	0.0895	713232	keystroke_n	n	n/a
356.72	0.1355	713440	keystroke_Key.space	Key.space	n/a
357.0505	0.105	714101	keystroke_c	c	n/a
357.171	0.12	714342	keystroke_a	a	n/a
357.336	0.135	714672	keystroke_k	k	n/a
357.8005	0.0895	715601	keystroke_Key.backspace	Key.backspace	n/a
358.131	0.134	716262	keystroke_m	m	n/a
358.221	0.104	716442	keystroke_p	p	n/a
358.6255	0.09	717251	keystroke_d	d	n/a
359.015	0.12	718030	keystroke_Key.backspace	Key.backspace	n/a
360.6045	0.106	721209	keystroke_Key.backspace	Key.backspace	n/a
361.4305	0.09	722861	keystroke_p	p	n/a
361.761	0.075	723522	keystroke_b	b	n/a
361.88	0.1205	723760	keystroke_e	e	n/a
362.0155	0.09	724031	keystroke_l	l	n/a
362.3455	0.0895	724691	keystroke_l	l	n/a
362.6905	0.1195	725381	keystroke_Key.space	Key.space	n/a
363.1105	0.1345	726221	keystroke_s	s	n/a
363.2905	0.1045	726581	keystroke_t	t	n/a
363.485	0.1055	726970	keystroke_r	r	n/a
363.6055	0.12	727211	keystroke_a	a	n/a
363.7705	0.1045	727541	keystroke_i	i	n/a
363.936	0.089	727872	keystroke_g	g	n/a
364.16	0.1055	728320	keystroke_h	h	n/a
364.3405	0.104	728681	keystroke_t	t	n/a
364.6555	0.1195	729311	keystroke_Key.space	Key.space	n/a
365.0155	0.105	730031	keystroke_e	e	n/a
365.2255	0.105	730451	keystroke_x	x	n/a
365.3755	0.15	730751	keystroke_e	e	n/a
365.5705	0.165	731141	keystroke_m	m	n/a
365.6755	0.135	731351	keystroke_p	p	n/a
366.2005	0.105	732401	keystroke_t	t	n/a
366.3065	0.1485	732613	keystroke_i	i	n/a
366.3505	0.1645	732701	keystroke_o	o	n/a
366.4255	0.1495	732851	keystroke_n	n	n/a
366.71	0.09	733420	keystroke_Key.enter	Key.enter	n/a
366.811	7.926	733622	prompt	n/a	adapted remind somebody announces\n
367.4155	0.135	734831	keystroke_a	a	n/a
367.7155	0.135	735431	keystroke_d	d	n/a
367.8355	0.105	735671	keystroke_a	a	n/a
368.5405	0.12	737081	keystroke_p	p	n/a
368.7345	0.106	737469	keystroke_t	t	n/a
368.8555	0.12	737711	keystroke_e	e	n/a
369.0355	0.15	738071	keystroke_d	d	n/a
369.1705	0.135	738341	keystroke_Key.space	Key.space	n/a
369.4105	0.09	738821	keystroke_r	r	n/a
369.471	0.1195	738942	keystroke_e	e	n/a
369.6655	0.1645	739331	keystroke_m	m	n/a
369.816	0.179	739632	keystroke_i	i	n/a
369.95	0.136	739900	keystroke_n	n	n/a
370.1	0.1505	740200	keystroke_d	d	n/a
370.2055	0.1645	740411	keystroke_Key.space	Key.space	n/a
370.821	0.105	741642	keystroke_s	s	n/a
370.927	0.133	741854	keystroke_o	o	n/a
371.12	0.12	742240	keystroke_m	m	n/a
371.2555	0.0895	742511	keystroke_e	e	n/a
371.7505	0.0895	743501	keystroke_b	b	n/a
371.81	0.1055	743620	keystroke_o	o	n/a
371.9605	0.12	743921	keystroke_d	d	n/a
372.2455	0.12	744491	keystroke_y	y	n/a
372.515	0.1205	745030	keystroke_Key.space	Key.space	n/a
372.8755	0.075	745751	keystroke_a	a	n/a
372.9805	0.075	745961	keystroke_n	n	n/a
373.1305	0.135	746261	keystroke_n	n	n/a
373.2955	0.1345	746591	keystroke_o	o	n/a
373.475	0.12	746950	keystroke_u	u	n/a
373.551	0.104	747102	keystroke_n	n	n/a
373.745	0.1505	747490	keystroke_c	c	n/a
373.85	0.15	747700	keystroke_e	e	n/a
374.361	0.1495	748722	keystroke_s	s	n/a
374.615	0.1205	749230	keystroke_Key.enter	Key.enter	n/a
374.7415	12.641	749483	prompt	n/a	fire represent jefferson overhead\n
376.1155	0.119	752231	keystroke_f	f	n/a
376.2205	0.105	752441	keystroke_i	i	n/a
376.3405	0.12	752681	keystroke_r	r	n/a
376.4305	0.1945	752861	keystroke_e	e	n/a
376.6105	0.1195	753221	keystroke_Key.space	Key.space	n/a
377.12	0.0605	754240	keystroke_p	p	n/a
377.165	0.12	754330	keystroke_r	r	n/a
377.24	0.12	754480	keystroke_e	e	n/a
377.5105	0.0745	755021	keystroke_Key.backspace	Key.backspace	n/a
377.675	0.0455	755350	keystroke_Key.backspace	Key.backspace	n/a
378.0055	0.0895	756011	keystroke_Key.backspace	Key.backspace	n/a
378.215	0.12	756430	keystroke_r	r	n/a
378.275	0.135	756550	keystroke_e	e	n/a
378.455	0.1055	756910	keystroke_p	p	n/a
378.8155	0.1045	757631	keystroke_r	r	n/a
378.89	0.1205	757780	keystroke_e	e	n/a
378.9955	0.15	757991	keystroke_s	s	n/a
379.295	0.1355	758590	keystroke_e	e	n/a
379.8655	0.12	759731	keystroke_n	n	n/a
379.9255	0.12	759851	keystroke_t	t	n/a
380.21	0.105	760420	keystroke_Key.space	Key.space	n/a
380.841	0.089	761682	keystroke_h	h	n/a
381.155	0.1055	762310	keystroke_Key.backspace	Key.backspace	n/a
381.335	0.1215	762670	keystroke_f	f	n/a
381.4415	0.119	762883	keystroke_e	e	n/a
381.9505	0.075	763901	keystroke_Key.backspace	Key.backspace	n/a
382.115	0.075	764230	keystroke_Key.backspace	Key.backspace	n/a
382.4755	0.1045	764951	keystroke_j	j	n/a
382.5505	0.179	765101	keystroke_e	e	n/a
383.06	0.1055	766120	keystroke_f	f	n/a
383.24	0.1055	766480	keystroke_f	f	n/a
383.33	0.21	766660	keystroke_e	e	n/a
383.5255	0.075	767051	keystroke_r	r	n/a
383.5405	0.044	767081	keystroke_f	f	n/a
383.855	0.121	767710	keystroke_s	s	n/a
384.35	0.075	768700	keystroke_Key.backspace	Key.backspace	n/a
384.515	0.0455	769030	keystroke_Key.backspace	Key.backspace	n/a
384.8	0.15	769600	keystroke_s	s	n/a
384.9355	0.1345	769871	keystroke_o	o	n/a
385.1455	0.135	770291	keystroke_n	n	n/a
385.505	0.15	771010	keystroke_Key.space	Key.space	n/a
385.9105	0.105	771821	keystroke_o	o	n/a
385.9695	0.091	771939	keystroke_v	v	n/a
386.0755	0.15	772151	keystroke_e	e	n/a
386.165	0.1355	772330	keystroke_r	r	n/a
386.796	0.1045	773592	keystroke_h	h	n/a
386.8855	0.0895	773771	keystroke_e	e	n/a
386.9595	0.1355	773919	keystroke_a	a	n/a
387.08	0.135	774160	keystroke_d	d	n/a
387.245	0.135	774490	keystroke_Key.enter	Key.enter	n/a
387.386	8.9955	774772	prompt	n/a	increasing tiny berlin reproductive\n
388.1605	0.135	776321	keystroke_i	i	n/a
388.43	0.12	776860	keystroke_n	n	n/a
388.6105	0.105	777221	keystroke_c	c	n/a
389.001	0.104	778002	keystroke_r	r	n/a
389.0455	0.1345	778091	keystroke_e	e	n/a
389.33	0.1945	778660	keystroke_a	a	n/a
389.5405	0.1345	779081	keystroke_s	s	n/a
390.0655	0.15	780131	keystroke_i	i	n/a
390.155	0.12	780310	keystroke_n	n	n/a
390.2	0.1355	780400	keystroke_g	g	n/a
390.4405	0.135	780881	keystroke_Key.space	Key.space	n/a
391.2055	0.1195	782411	keystroke_t	t	n/a
391.46	0.18	782920	keystroke_i	i	n/a
391.596	0.2095	783192	keystroke_n	n	n/a
391.8655	0.12	783731	keystroke_y	y	n/a
392.0905	0.135	784181	keystroke_Key.space	Key.space	n/a
392.6455	0.089	785291	keystroke_b	b	n/a
392.7505	0.12	785501	keystroke_e	e	n/a
392.8105	0.134	785621	keystroke_r	r	n/a
392.9905	0.09	785981	keystroke_l	l	n/a
393.1855	0.1195	786371	keystroke_i	i	n/a
393.32	0.135	786640	keystroke_n	n	n/a
393.5765	0.1335	787153	keystroke_Key.space	Key.space	n/a
394.19	0.06	788380	keystroke_r	r	n/a
394.235	0.1045	788470	keystroke_e	e	n/a
394.3555	0.15	788711	keystroke_p	p	n/a
394.76	0.12	789520	keystroke_r	r	n/a
394.8195	0.091	789639	keystroke_o	o	n/a
395.1805	0.12	790361	keystroke_d	d	n/a
395.3155	0.135	790631	keystroke_u	u	n/a
395.4645	0.0905	790929	keystroke_c	c	n/a
395.6905	0.12	791381	keystroke_t	t	n/a
395.7655	0.135	791531	keystroke_i	i	n/a
395.9455	0.12	791891	keystroke_v	v	n/a
396.0205	0.135	792041	keystroke_e	e	n/a
396.2605	0.1195	792521	keystroke_Key.enter	Key.enter	n/a
396.385	10.212	792770	prompt	n/a	facts couples painting registration\n
397.1155	0.074	794231	keystroke_f	f	n/a
397.2655	0.135	794531	keystroke_a	a	n/a
397.5355	0.045	795071	keystroke_c	c	n/a
397.701	0.105	795402	keystroke_t	t	n/a
397.8205	0.1495	795641	keystroke_s	s	n/a
398.0155	0.1345	796031	keystroke_Key.space	Key.space	n/a
398.675	0.0305	797350	keystroke_v	v	n/a
398.69	0.0295	797380	keystroke_c	c	n/a
399.425	0.12	798850	keystroke_Key.backspace	Key.backspace	n/a
399.59	0.135	799180	keystroke_Key.backspace	Key.backspace	n/a
399.727	0.133	799454	keystroke_c	c	n/a
399.875	0.12	799750	keystroke_o	o	n/a
400.58	0.12	801160	keystroke_u	u	n/a
400.745	0.1195	801490	keystroke_p	p	n/a
400.9255	0.179	801851	keystroke_l	l	n/a
401.0455	0.1645	802091	keystroke_e	e	n/a
401.1355	0.18	802271	keystroke_s	s	n/a
401.3305	0.1345	802661	keystroke_Key.space	Key.space	n/a
401.6605	0.1195	803321	keystroke_p	p	n/a
401.735	0.1205	803470	keystroke_a	a	n/a
401.945	0.1655	803890	keystroke_i	i	n/a
402.005	0.1355	804010	keystroke_n	n	n/a
402.17	0.1355	804340	keystroke_t	t	n/a
402.275	0.15	804550	keystroke_i	i	n/a
402.38	0.165	804760	keystroke_n	n	n/a
402.515	0.1655	805030	keystroke_g	g	n/a
402.725	0.1355	805450	keystroke_Key.space	Key.space	n/a
403.13	0.106	806260	keystroke_r	r	n/a
403.1905	0.1495	806381	keystroke_e	e	n/a
404.405	0.06	808810	keystroke_g	g	n/a
404.48	0.1205	808960	keystroke_i	i	n/a
404.5405	0.15	809081	keystroke_s	s	n/a
404.6755	0.135	809351	keystroke_t	t	n/a
404.9905	0.135	809981	keystroke_r	r	n/a
405.185	0.1205	810370	keystroke_a	a	n/a
405.8755	0.1195	811751	keystroke_t	t	n/a
405.935	0.135	811870	keystroke_i	i	n/a
405.98	0.165	811960	keystroke_o	o	n/a
406.055	0.15	812110	keystroke_n	n	n/a
406.475	0.1205	812950	keystroke_Key.enter	Key.enter	n/a
406.601	11.636	813202	prompt	n/a	present horizon prospects debt\n
407.3	0.1505	814600	keystroke_p	p	n/a
407.405	0.12	814810	keystroke_r	r	n/a
407.4655	0.1195	814931	keystroke_e	e	n/a
407.5695	0.1065	815139	keystroke_s	s	n/a
407.75	0.15	815500	keystroke_s	s	n/a
407.8695	0.151	815739	keystroke_e	e	n/a
408.5905	0.0595	817181	keystroke_Key.backspace	Key.backspace	n/a
408.725	0.105	817450	keystroke_Key.backspace	Key.backspace	n/a
408.8	0.166	817600	keystroke_e	e	n/a
408.995	0.105	817990	keystroke_n	n	n/a
409.1305	0.1345	818261	keystroke_t	t	n/a
409.55	0.1195	819100	keystroke_Key.space	Key.space	n/a
410.0605	0.074	820121	keystroke_g	g	n/a
410.375	0.0905	820750	keystroke_Key.backspace	Key.backspace	n/a
410.5115	0.119	821023	keystroke_h	h	n/a
410.615	0.1195	821230	keystroke_o	o	n/a
410.7805	0.135	821561	keystroke_r	r	n/a
411.3355	0.1195	822671	keystroke_i	i	n/a
411.4245	0.1355	822849	keystroke_z	z	n/a
411.545	0.1355	823090	keystroke_o	o	n/a
411.7405	0.12	823481	keystroke_n	n	n/a
411.98	0.12	823960	keystroke_Key.space	Key.space	n/a
412.355	0.106	824710	keystroke_p	p	n/a
412.445	0.12	824890	keystroke_r	r	n/a
412.58	0.1055	825160	keystroke_o	o	n/a
413.1365	0.104	826273	keystroke_s	s	n/a
413.375	0.165	826750	keystroke_p	p	n/a
413.78	0.1355	827560	keystroke_e	e	n/a
414.02	0.06	828040	keystroke_c	c	n/a
414.0955	0.075	828191	keystroke_d	d	n/a
414.77	0.105	829540	keystroke_Key.backspace	Key.backspace	n/a
414.9205	0.0295	829841	keystroke_t	t	n/a
415.01	0.181	830020	keystroke_s	s	n/a
415.4455	0.134	830891	keystroke_Key.space	Key.space	n/a
415.9245	0.106	831849	keystroke_d	d	n/a
416.0905	0.105	832181	keystroke_d	d	n/a
416.36	0.1345	832720	keystroke_e	e	n/a
416.9	0.06	833800	keystroke_Key.backspace	Key.backspace	n/a
417.05	0.1205	834100	keystroke_Key.backspace	Key.backspace	n/a
417.2605	0.12	834521	keystroke_e	e	n/a
417.4255	0.06	834851	keystroke_b	b	n/a
417.5755	0.12	835151	keystroke_t	t	n/a
418.115	0.12	836230	keystroke_Key.enter	Key.enter	n/a
418.24	9.477	836480	prompt	n/a	pointer distributors sender punch\n
419.03	0.105	838060	keystroke_p	p	n/a
419.21	0.12	838420	keystroke_o	o	n/a
419.435	0.15	838870	keystroke_i	i	n/a
419.48	0.15	838960	keystroke_n	n	n/a
419.645	0.1055	839290	keystroke_t	t	n/a
419.7955	0.179	839591	keystroke_e	e	n/a
419.885	0.1495	839770	keystroke_r	r	n/a
420.0205	0.1345	840041	keystroke_Key.space	Key.space	n/a
420.305	0.1355	840610	keystroke_d	d	n/a
420.4555	0.105	840911	keystroke_i	i	n/a
420.7255	0.135	841451	keystroke_s	s	n/a
420.8755	0.119	841751	keystroke_t	t	n/a
421.28	0.151	842560	keystroke_r	r	n/a
421.415	0.106	842830	keystroke_i	i	n/a
422.0005	0.105	844001	keystroke_b	b	n/a
422.1805	0.09	844361	keystroke_u	u	n/a
422.3295	0.121	844659	keystroke_t	t	n/a
422.705	0.0745	845410	keystroke_p	p	n/a
422.975	0.1355	845950	keystroke_r	r	n/a
423.32	0.075	846640	keystroke_Key.backspace	Key.backspace	n/a
423.47	0.12	846940	keystroke_Key.backspace	Key.backspace	n/a
424.1	0.1195	848200	keystroke_o	o	n/a
424.2055	0.134	848411	keystroke_r	r	n/a
424.4755	0.1495	848951	keystroke_s	s	n/a
424.8795	0.1205	849759	keystroke_Key.space	Key.space	n/a
425.015	0.165	850030	keystroke_s	s	n/a
425.135	0.105	850270	keystroke_e	e	n/a
425.66	0.075	851320	keystroke_n	n	n/a
425.6905	0.075	851381	keystroke_d	d	n/a
425.855	0.105	851710	keystroke_e	e	n/a
426.021	0.179	852042	keystroke_r	r	n/a
426.185	0.105	852370	keystroke_Key.space	Key.space	n/a
426.5305	0.1345	853061	keystroke_p	p	n/a
426.845	0.1505	853690	keystroke_u	u	n/a
426.9205	0.1195	853841	keystroke_n	n	n/a
427.0255	0.1345	854051	keystroke_c	c	n/a
427.205	0.106	854410	keystroke_h	h	n/a
427.58	0.135	855160	keystroke_Key.enter	Key.enter	n/a
427.722	8.7405	855444	prompt	n/a	suites serious discussed tear\n
428.375	0.1055	856750	keystroke_s	s	n/a
428.6305	0.15	857261	keystroke_u	u	n/a
428.7055	0.1195	857411	keystroke_i	i	n/a
428.8105	0.104	857621	keystroke_t	t	n/a
429.0045	0.1365	858009	keystroke_e	e	n/a
429.187	0.1335	858374	keystroke_s	s	n/a
429.695	0.1205	859390	keystroke_Key.space	Key.space	n/a
430.0405	0.12	860081	keystroke_s	s	n/a
430.1755	0.165	860351	keystroke_e	e	n/a
430.2955	0.135	860591	keystroke_r	r	n/a
430.4315	0.0885	860863	keystroke_o	o	n/a
430.775	0.075	861550	keystroke_Key.backspace	Key.backspace	n/a
431.405	0.165	862810	keystroke_i	i	n/a
431.51	0.12	863020	keystroke_o	o	n/a
431.736	0.104	863472	keystroke_u	u	n/a
431.825	0.1355	863650	keystroke_s	s	n/a
432.4555	0.12	864911	keystroke_Key.space	Key.space	n/a
432.6355	0.135	865271	keystroke_d	d	n/a
432.7845	0.121	865569	keystroke_i	i	n/a
432.9355	0.12	865871	keystroke_s	s	n/a
433.1	0.1355	866200	keystroke_c	c	n/a
434.0605	0.12	868121	keystroke_u	u	n/a
434.1355	0.105	868271	keystroke_d	d	n/a
434.51	0.1055	869020	keystroke_Key.backspace	Key.backspace	n/a
434.6605	0.105	869321	keystroke_s	s	n/a
434.8555	0.12	869711	keystroke_s	s	n/a
434.9455	0.135	869891	keystroke_e	e	n/a
435.155	0.135	870310	keystroke_d	d	n/a
435.3055	0.1345	870611	keystroke_Key.space	Key.space	n/a
435.9355	0.09	871871	keystroke_t	t	n/a
436.1155	0.06	872231	keystroke_a	a	n/a
436.1605	0.105	872321	keystroke_r	r	n/a
436.3555	0.1045	872711	keystroke_Key.enter	Key.enter	n/a
436.4665	7.3605	872933	prompt	n/a	modem divide object schedule\n
437.585	0.195	875170	keystroke_m	m	n/a
437.781	0.134	875562	keystroke_o	o	n/a
437.93	0.075	875860	keystroke_d	d	n/a
438.11	0.09	876220	keystroke_e	e	n/a
438.695	0.0455	877390	keystroke_m	m	n/a
438.815	0.135	877630	keystroke_Key.space	Key.space	n/a
439.025	0.165	878050	keystroke_d	d	n/a
439.1455	0.105	878291	keystroke_i	i	n/a
439.37	0.12	878740	keystroke_v	v	n/a
439.491	0.0895	878982	keystroke_i	i	n/a
439.6105	0.0745	879221	keystroke_d	d	n/a
439.76	0.15	879520	keystroke_e	e	n/a
439.895	0.1355	879790	keystroke_Key.space	Key.space	n/a
440.0605	0.1345	880121	keystroke_o	o	n/a
440.3	0.105	880600	keystroke_n	n	n/a
440.975	0.105	881950	keystroke_Key.backspace	Key.backspace	n/a
441.215	0.091	882430	keystroke_b	b	n/a
441.3205	0.119	882641	keystroke_j	j	n/a
441.455	0.1205	882910	keystroke_e	e	n/a
441.6795	0.106	883359	keystroke_c	c	n/a
441.89	0.09	883780	keystroke_t	t	n/a
442.3105	0.1195	884621	keystroke_Key.space	Key.space	n/a
442.5345	0.106	885069	keystroke_s	s	n/a
442.656	0.1045	885312	keystroke_c	c	n/a
442.73	0.106	885460	keystroke_h	h	n/a
443.12	0.12	886240	keystroke_d	d	n/a
443.21	0.12	886420	keystroke_u	u	n/a
443.45	0.12	886900	keystroke_l	l	n/a
443.5105	0.12	887021	keystroke_e	e	n/a
443.69	0.135	887380	keystroke_Key.enter	Key.enter	n/a
443.8315	10.1205	887663	prompt	n/a	surveillance overhead wisdom measured\n
444.575	0.105	889150	keystroke_s	s	n/a
444.8	0.105	889600	keystroke_u	u	n/a
444.89	0.12	889780	keystroke_r	r	n/a
445.2805	0.104	890561	keystroke_v	v	n/a
445.4755	0.1045	890951	keystroke_e	e	n/a
445.7	0.1205	891400	keystroke_i	i	n/a
445.91	0.076	891820	keystroke_l	l	n/a
446.046	0.134	892092	keystroke_l	l	n/a
446.165	0.1055	892330	keystroke_a	a	n/a
446.2855	0.105	892571	keystroke_n	n	n/a
446.42	0.121	892840	keystroke_c	c	n/a
446.5255	0.1355	893051	keystroke_e	e	n/a
446.795	0.1195	893590	keystroke_Key.space	Key.space	n/a
447.2605	0.135	894521	keystroke_o	o	n/a
447.5755	0.075	895151	keystroke_v	v	n/a
447.6955	0.165	895391	keystroke_e	e	n/a
447.8155	0.12	895631	keystroke_r	r	n/a
448.22	0.1055	896440	keystroke_h	h	n/a
448.28	0.1355	896560	keystroke_e	e	n/a
448.4	0.135	896800	keystroke_a	a	n/a
448.565	0.06	897130	keystroke_d	d	n/a
449.3455	0.135	898691	keystroke_Key.space	Key.space	n/a
450.71	0.135	901420	keystroke_w	w	n/a
450.8305	0.12	901661	keystroke_i	i	n/a
451.0105	0.1355	902021	keystroke_s	s	n/a
451.2055	0.135	902411	keystroke_d	d	n/a
451.4005	0.15	902801	keystroke_o	o	n/a
451.4455	0.165	902891	keystroke_m	m	n/a
451.88	0.1345	903760	keystroke_Key.space	Key.space	n/a
452.1955	0.135	904391	keystroke_m	m	n/a
452.285	0.1205	904570	keystroke_e	e	n/a
452.4055	0.1945	904811	keystroke_a	a	n/a
452.54	0.1655	905080	keystroke_s	s	n/a
453.1105	0.105	906221	keystroke_u	u	n/a
453.1705	0.1045	906341	keystroke_r	r	n/a
453.245	0.1205	906490	keystroke_e	e	n/a
453.6205	0.0745	907241	keystroke_d	d	n/a
453.8445	0.105	907689	keystroke_Key.enter	Key.enter	n/a
453.9565	10.286	907913	prompt	n/a	collapse theories them forget\n
454.716	0.12	909432	keystroke_c	c	n/a
454.79	0.106	909580	keystroke_o	o	n/a
454.985	0.0605	909970	keystroke_l	l	n/a
455.105	0.075	910210	keystroke_l	l	n/a
455.255	0.1655	910510	keystroke_p	p	n/a
455.285	0.136	910570	keystroke_a	a	n/a
455.87	0.075	911740	keystroke_Key.backspace	Key.backspace	n/a
456.005	0.09	912010	keystroke_Key.backspace	Key.backspace	n/a
456.096	0.119	912192	keystroke_a	a	n/a
456.23	0.1505	912460	keystroke_p	p	n/a
456.3945	0.151	912789	keystroke_s	s	n/a
456.4855	0.15	912971	keystroke_e	e	n/a
456.6505	0.1195	913301	keystroke_Key.space	Key.space	n/a
457.0105	0.09	914021	keystroke_t	t	n/a
457.1305	0.09	914261	keystroke_h	h	n/a
457.2805	0.12	914561	keystroke_e	e	n/a
457.6105	0.12	915221	keystroke_o	o	n/a
457.8655	0.0745	915731	keystroke_i	i	n/a
458.51	0.0745	917020	keystroke_Key.backspace	Key.backspace	n/a
458.6755	0.12	917351	keystroke_r	r	n/a
459.3805	0.1195	918761	keystroke_i	i	n/a
459.4705	0.1045	918941	keystroke_e	e	n/a
459.5155	0.0295	919031	keystroke_r	r	n/a
460.055	0.0745	920110	keystroke_Key.backspace	Key.backspace	n/a
460.356	0.1195	920712	keystroke_s	s	n/a
460.67	0.1045	921340	keystroke_Key.space	Key.space	n/a
461.21	0.0905	922420	keystroke_t	t	n/a
461.345	0.06	922690	keystroke_h	h	n/a
461.376	0.119	922752	keystroke_e	e	n/a
461.555	0.121	923110	keystroke_m	m	n/a
461.72	0.0755	923440	keystroke_Key.space	Key.space	n/a
462.0355	0.105	924071	keystroke_f	f	n/a
462.125	0.0905	924250	keystroke_o	o	n/a
462.2755	0.074	924551	keystroke_r	r	n/a
462.62	0.0895	925240	keystroke_g	g	n/a
462.7255	0.1645	925451	keystroke_r	r	n/a
462.86	0.1205	925720	keystroke_t	t	n/a
463.25	0.0755	926500	keystroke_Key.backspace	Key.backspace	n/a
463.385	0.1345	926770	keystroke_Key.backspace	Key.backspace	n/a
463.4605	0.165	926921	keystroke_e	e	n/a
463.5955	0.1495	927191	keystroke_t	t	n/a
464.12	0.12	928240	keystroke_Key.enter	Key.enter	n/a
464.2465	7.931	928493	prompt	n/a	starts democratic patch assets\n
464.96	0.135	929920	keystroke_s	s	n/a
465.215	0.09	930430	keystroke_t	t	n/a
465.365	0.12	930730	keystroke_a	a	n/a
465.5605	0.135	931121	keystroke_r	r	n/a
465.7545	0.1055	931509	keystroke_t	t	n/a
465.845	0.165	931690	keystroke_s	s	n/a
465.995	0.1355	931990	keystroke_Key.space	Key.space	n/a
466.31	0.0595	932620	keystroke_d	d	n/a
466.4745	0.1355	932949	keystroke_e	e	n/a
466.595	0.1505	933190	keystroke_m	m	n/a
466.6845	0.121	933369	keystroke_o	o	n/a
467.0905	0.09	934181	keystroke_c	c	n/a
467.3005	0.12	934601	keystroke_r	r	n/a
467.4355	0.1045	934871	keystroke_a	a	n/a
467.6	0.12	935200	keystroke_t	t	n/a
467.78	0.06	935560	keystroke_i	i	n/a
467.9605	0.105	935921	keystroke_c	c	n/a
468.2605	0.1195	936521	keystroke_Key.space	Key.space	n/a
468.696	0.105	937392	keystroke_p	p	n/a
468.742	0.088	937484	keystroke_a	a	n/a
468.98	0.105	937960	keystroke_t	t	n/a
469.205	0.1955	938410	keystroke_c	c	n/a
469.355	0.105	938710	keystroke_h	h	n/a
469.76	0.135	939520	keystroke_Key.space	Key.space	n/a
469.985	0.135	939970	keystroke_a	a	n/a
470.075	0.12	940150	keystroke_s	s	n/a
470.255	0.1055	940510	keystroke_s	s	n/a
470.51	0.03	941020	keystroke_t	t	n/a
470.645	0.165	941290	keystroke_e	e	n/a
470.975	0.09	941950	keystroke_Key.backspace	Key.backspace	n/a
471.155	0.09	942310	keystroke_Key.backspace	Key.backspace	n/a
471.2905	0.1345	942581	keystroke_e	e	n/a
471.38	0.1645	942760	keystroke_t	t	n/a
471.635	0.165	943270	keystroke_s	s	n/a
472.024	0.151	944048	keystroke_Key.enter	Key.enter	n/a
472.185	9.097	944370	prompt	n/a	anniversary realtor albert morris\n
472.835	0.105	945670	keystroke_a	a	n/a
473.195	0.045	946390	keystroke_n	n	n/a
473.3295	0.106	946659	keystroke_n	n	n/a
473.45	0.1355	946900	keystroke_i	i	n/a
473.72	0.1055	947440	keystroke_v	v	n/a
473.855	0.165	947710	keystroke_e	e	n/a
473.9605	0.12	947921	keystroke_r	r	n/a
474.23	0.1055	948460	keystroke_s	s	n/a
474.6205	0.09	949241	keystroke_a	a	n/a
474.8005	0.09	949601	keystroke_r	r	n/a
474.9345	0.0905	949869	keystroke_a	a	n/a
475.43	0.09	950860	keystroke_Key.backspace	Key.backspace	n/a
476.0155	0.105	952031	keystroke_y	y	n/a
476.7495	0.1355	953499	keystroke_Key.space	Key.space	n/a
477.005	0.1055	954010	keystroke_r	r	n/a
477.065	0.0895	954130	keystroke_e	e	n/a
477.2155	0.12	954431	keystroke_a	a	n/a
477.3055	0.104	954611	keystroke_l	l	n/a
477.59	0.1055	955180	keystroke_t	t	n/a
477.6655	0.105	955331	keystroke_o	o	n/a
477.845	0.1205	955690	keystroke_r	r	n/a
478.205	0.135	956410	keystroke_Key.space	Key.space	n/a
478.595	0.0755	957190	keystroke_a	a	n/a
478.6855	0.12	957371	keystroke_l	l	n/a
478.9105	0.075	957821	keystroke_b	b	n/a
479.0755	0.164	958151	keystroke_e	e	n/a
479.1805	0.135	958361	keystroke_r	r	n/a
479.3755	0.075	958751	keystroke_t	t	n/a
480.08	0.105	960160	keystroke_Key.space	Key.space	n/a
480.395	0.15	960790	keystroke_m	m	n/a
480.485	0.135	960970	keystroke_o	o	n/a
480.605	0.105	961210	keystroke_r	r	n/a
480.8	0.12	961600	keystroke_r	r	n/a
480.875	0.1055	961750	keystroke_i	i	n/a
481.01	0.105	962020	keystroke_s	s	n/a
481.145	0.1355	962290	keystroke_Key.enter	Key.enter	n/a
481.286	9.1325	962572	prompt	n/a	varies cove giant cumulative\n
481.94	0.105	963880	keystroke_v	v	n/a
482.1195	0.121	964239	keystroke_e	e	n/a
482.7795	0.12	965559	keystroke_Key.backspace	Key.backspace	n/a
482.81	0.1055	965620	keystroke_a	a	n/a
483.365	0.105	966730	keystroke_r	r	n/a
483.485	0.0595	966970	keystroke_i	i	n/a
484.175	0.1355	968350	keystroke_e	e	n/a
484.325	0.18	968650	keystroke_s	s	n/a
484.5195	0.12	969039	keystroke_Key.space	Key.space	n/a
484.835	0.0605	969670	keystroke_v	v	n/a
484.8955	0.119	969791	keystroke_o	o	n/a
485.075	0.12	970150	keystroke_v	v	n/a
485.225	0.0895	970450	keystroke_e	e	n/a
485.4655	0.075	970931	keystroke_Key.backspace	Key.backspace	n/a
485.6155	0.0595	971231	keystroke_Key.backspace	Key.backspace	n/a
485.735	0.06	971470	keystroke_Key.backspace	Key.backspace	n/a
485.855	0.105	971710	keystroke_Key.backspace	Key.backspace	n/a
486.275	0.1205	972550	keystroke_c	c	n/a
486.3965	0.089	972793	keystroke_o	o	n/a
486.5445	0.091	973089	keystroke_v	v	n/a
486.6805	0.1345	973361	keystroke_e	e	n/a
486.905	0.12	973810	keystroke_Key.space	Key.space	n/a
487.55	0.105	975100	keystroke_g	g	n/a
487.685	0.121	975370	keystroke_i	i	n/a
487.79	0.09	975580	keystroke_a	a	n/a
487.9395	0.0745	975879	keystroke_n	n	n/a
488.0305	0.1045	976061	keystroke_t	t	n/a
488.165	0.1045	976330	keystroke_Key.space	Key.space	n/a
488.7355	0.135	977471	keystroke_c	c	n/a
488.8855	0.1045	977771	keystroke_u	u	n/a
489.0655	0.1645	978131	keystroke_m	m	n/a
489.2	0.12	978400	keystroke_u	u	n/a
489.455	0.12	978910	keystroke_l	l	n/a
489.515	0.12	979030	keystroke_a	a	n/a
489.815	0.105	979630	keystroke_t	t	n/a
489.935	0.15	979870	keystroke_i	i	n/a
490.04	0.0905	980080	keystroke_v	v	n/a
490.1155	0.135	980231	keystroke_e	e	n/a
490.28	0.1345	980560	keystroke_Key.enter	Key.enter	n/a
490.422	7.525	980844	prompt	n/a	nasdaq died rope funeral\n
491.4645	0.1055	982929	keystroke_n	n	n/a
491.5545	0.1055	983109	keystroke_a	a	n/a
492.05	0.135	984100	keystroke_s	s	n/a
492.56	0.105	985120	keystroke_d	d	n/a
492.65	0.0895	985300	keystroke_a	a	n/a
492.89	0.0905	985780	keystroke_q	q	n/a
493.25	0.1355	986500	keystroke_Key.space	Key.space	n/a
493.5055	0.12	987011	keystroke_d	d	n/a
493.7745	0.12	987549	keystroke_i	i	n/a
493.835	0.12	987670	keystroke_e	e	n/a
494.0155	0.1495	988031	keystroke_d	d	n/a
494.18	0.1195	988360	keystroke_Key.space	Key.space	n/a
494.585	0.135	989170	keystroke_r	r	n/a
494.69	0.12	989380	keystroke_o	o	n/a
494.795	0.105	989590	keystroke_p	p	n/a
494.901	0.134	989802	keystroke_e	e	n/a
495.02	0.135	990040	keystroke_Key.space	Key.space	n/a
495.9505	0.1045	991901	keystroke_f	f	n/a
496.0255	0.1345	992051	keystroke_u	u	n/a
496.0995	0.09	992199	keystroke_n	n	n/a
496.22	0.165	992440	keystroke_e	e	n/a
496.3395	0.1205	992679	keystroke_r	r	n/a
496.4905	0.1045	992981	keystroke_a	a	n/a
496.6405	0.0745	993281	keystroke_l	l	n/a
496.775	0.1045	993550	keystroke_Key.space	Key.space	n/a
497.84	0.105	995680	keystroke_Key.enter	Key.enter	n/a
497.952	11.74	995904	prompt	n/a	trainers arbitration midlands disorder\n
498.921	0.089	997842	keystroke_t	t	n/a
499.116	0.089	998232	keystroke_a	a	n/a
499.235	0.15	998470	keystroke_i	i	n/a
499.355	0.06	998710	keystroke_n	n	n/a
499.581	0.149	999162	keystroke_e	e	n/a
499.67	0.105	999340	keystroke_r	r	n/a
500.5555	0.074	1001111	keystroke_Key.backspace	Key.backspace	n/a
500.705	0.0605	1001410	keystroke_Key.backspace	Key.backspace	n/a
500.825	0.0745	1001650	keystroke_Key.backspace	Key.backspace	n/a
500.9895	0.0305	1001979	keystroke_Key.backspace	Key.backspace	n/a
501.0945	0.0755	1002189	keystroke_Key.backspace	Key.backspace	n/a
501.23	0.1055	1002460	keystroke_r	r	n/a
501.3195	0.106	1002639	keystroke_a	a	n/a
501.86	0.105	1003720	keystroke_i	i	n/a
501.995	0.105	1003990	keystroke_n	n	n/a
502.145	0.135	1004290	keystroke_e	e	n/a
502.19	0.165	1004380	keystroke_r	r	n/a
502.5505	0.121	1005101	keystroke_s	s	n/a
502.865	0.0905	1005730	keystroke_Key.space	Key.space	n/a
503.1055	0.1195	1006211	keystroke_a	a	n/a
503.285	0.105	1006570	keystroke_r	r	n/a
503.69	0.106	1007380	keystroke_b	b	n/a
503.825	0.1055	1007650	keystroke_i	i	n/a
504.0205	0.12	1008041	keystroke_t	t	n/a
504.261	0.1045	1008522	keystroke_r	r	n/a
504.3955	0.1045	1008791	keystroke_a	a	n/a
504.6355	0.105	1009271	keystroke_t	t	n/a
504.6655	0.15	1009331	keystroke_i	i	n/a
504.755	0.1205	1009510	keystroke_o	o	n/a
504.8455	0.135	1009691	keystroke_n	n	n/a
505.205	0.135	1010410	keystroke_Key.space	Key.space	n/a
505.6255	0.1195	1011251	keystroke_m	m	n/a
505.7	0.1505	1011400	keystroke_i	i	n/a
505.8645	0.1055	1011729	keystroke_d	d	n/a
505.985	0.1055	1011970	keystroke_l	l	n/a
506.075	0.1055	1012150	keystroke_a	a	n/a
506.2545	0.0905	1012509	keystroke_n	n	n/a
506.3755	0.1645	1012751	keystroke_d	d	n/a
506.51	0.1805	1013020	keystroke_s	s	n/a
506.7495	0.136	1013499	keystroke_Key.space	Key.space	n/a
507.0805	0.135	1014161	keystroke_d	d	n/a
507.185	0.1055	1014370	keystroke_o	o	n/a
507.53	0.0605	1015060	keystroke_Key.backspace	Key.backspace	n/a
507.741	0.089	1015482	keystroke_i	i	n/a
508.5055	0.105	1017011	keystroke_s	s	n/a
508.686	0.134	1017372	keystroke_o	o	n/a
508.8655	0.1195	1017731	keystroke_r	r	n/a
509.075	0.1055	1018150	keystroke_d	d	n/a
509.1955	0.18	1018391	keystroke_e	e	n/a
509.316	0.1195	1018632	keystroke_r	r	n/a
509.6755	0.015	1019351	keystroke_Key.enter	Key.enter	n/a
509.6965	12.8355	1019393	prompt	n/a	architecture landing premises exam\n
510.5605	0.1045	1021121	keystroke_a	a	n/a
510.695	0.12	1021390	keystroke_r	r	n/a
510.935	0.12	1021870	keystroke_c	c	n/a
511.37	0.09	1022740	keystroke_h	h	n/a
511.5205	0.1495	1023041	keystroke_r	r	n/a
511.91	0.09	1023820	keystroke_Key.backspace	Key.backspace	n/a
512.4655	0.105	1024931	keystroke_i	i	n/a
512.7955	0.1045	1025591	keystroke_t	t	n/a
512.8855	0.1195	1025771	keystroke_e	e	n/a
513.0505	0.1045	1026101	keystroke_c	c	n/a
513.2455	0.12	1026491	keystroke_t	t	n/a
513.3805	0.135	1026761	keystroke_i	i	n/a
513.7705	0.135	1027541	keystroke_r	r	n/a
513.8755	0.075	1027751	keystroke_e	e	n/a
514.0405	0.06	1028081	keystroke_Key.backspace	Key.backspace	n/a
514.1905	0.0595	1028381	keystroke_Key.backspace	Key.backspace	n/a
514.3405	0.0445	1028681	keystroke_Key.backspace	Key.backspace	n/a
514.8655	0.105	1029731	keystroke_u	u	n/a
514.9105	0.1195	1029821	keystroke_r	r	n/a
514.9855	0.104	1029971	keystroke_e	e	n/a
515.7055	0.12	1031411	keystroke_Key.space	Key.space	n/a
516.065	0.105	1032130	keystroke_l	l	n/a
516.1395	0.106	1032279	keystroke_a	a	n/a
516.38	0.105	1032760	keystroke_n	n	n/a
516.56	0.135	1033120	keystroke_d	d	n/a
516.71	0.1355	1033420	keystroke_i	i	n/a
516.86	0.1355	1033720	keystroke_n	n	n/a
516.98	0.1055	1033960	keystroke_g	g	n/a
517.235	0.1205	1034470	keystroke_Key.space	Key.space	n/a
518.1505	0.09	1036301	keystroke_p	p	n/a
518.2255	0.09	1036451	keystroke_r	r	n/a
518.2855	0.135	1036571	keystroke_e	e	n/a
518.915	0.075	1037830	keystroke_s	s	n/a
519.29	0.0605	1038580	keystroke_Key.backspace	Key.backspace	n/a
519.5305	0.105	1039061	keystroke_m	m	n/a
519.5455	0.15	1039091	keystroke_i	i	n/a
519.6805	0.075	1039361	keystroke_s	s	n/a
520.2805	0.15	1040561	keystroke_e	e	n/a
520.3855	0.1355	1040771	keystroke_s	s	n/a
520.6105	0.1045	1041221	keystroke_Key.space	Key.space	n/a
520.925	0.0305	1041850	keystroke_w	w	n/a
521.4355	0.15	1042871	keystroke_Key.backspace	Key.backspace	n/a
521.6155	0.134	1043231	keystroke_e	e	n/a
521.7955	0.1355	1043591	keystroke_x	x	n/a
522.0355	0.105	1044071	keystroke_a	a	n/a
522.155	0.091	1044310	keystroke_m	m	n/a
522.4255	0.1045	1044851	keystroke_Key.enter	Key.enter	n/a
522.537	13.6755	1045074	prompt	n/a	portugal raleigh concerning traffic\n
523.3255	0.09	1046651	keystroke_p	p	n/a
523.476	0.119	1046952	keystroke_o	o	n/a
523.6095	0.121	1047219	keystroke_r	r	n/a
523.7905	0.1345	1047581	keystroke_t	t	n/a
524.045	0.0755	1048090	keystroke_u	u	n/a
524.1805	0.105	1048361	keystroke_g	g	n/a
524.375	0.0905	1048750	keystroke_a	a	n/a
524.4505	0.1045	1048901	keystroke_l	l	n/a
524.6155	0.1345	1049231	keystroke_Key.space	Key.space	n/a
525.215	0.06	1050430	keystroke_r	r	n/a
525.5	0.0905	1051000	keystroke_a	a	n/a
526.1455	0.075	1052291	keystroke_l	l	n/a
526.3855	0.09	1052771	keystroke_i	i	n/a
526.7755	0.09	1053551	keystroke_e	e	n/a
526.985	0.1055	1053970	keystroke_g	g	n/a
527.0305	0.105	1054061	keystroke_h	h	n/a
527.3595	0.1205	1054719	keystroke_Key.space	Key.space	n/a
529.325	0.06	1058650	keystroke_Key.backspace	Key.backspace	n/a
529.4605	0.0445	1058921	keystroke_Key.backspace	Key.backspace	n/a
529.5655	0.06	1059131	keystroke_Key.backspace	Key.backspace	n/a
529.7	0.0755	1059400	keystroke_Key.backspace	Key.backspace	n/a
529.8505	0.0595	1059701	keystroke_Key.backspace	Key.backspace	n/a
530.0005	0.074	1060001	keystroke_e	e	n/a
530.9605	0.09	1061921	keystroke_i	i	n/a
531.0355	0.1195	1062071	keystroke_g	g	n/a
531.1405	0.105	1062281	keystroke_h	h	n/a
531.26	0.135	1062520	keystroke_Key.space	Key.space	n/a
532.46	0.105	1064920	keystroke_c	c	n/a
532.55	0.075	1065100	keystroke_o	o	n/a
532.7305	0.1045	1065461	keystroke_n	n	n/a
532.9255	0.105	1065851	keystroke_c	c	n/a
533.0315	0.164	1066063	keystroke_e	e	n/a
533.24	0.12	1066480	keystroke_r	r	n/a
533.495	0.121	1066990	keystroke_n	n	n/a
533.585	0.18	1067170	keystroke_i	i	n/a
533.7055	0.1045	1067411	keystroke_n	n	n/a
533.7205	0.12	1067441	keystroke_g	g	n/a
533.9155	0.1195	1067831	keystroke_Key.space	Key.space	n/a
534.831	0.1485	1069662	keystroke_t	t	n/a
534.965	0.12	1069930	keystroke_r	r	n/a
535.1755	0.105	1070351	keystroke_a	a	n/a
535.385	0.1205	1070770	keystroke_f	f	n/a
535.595	0.1205	1071190	keystroke_f	f	n/a
535.7005	0.12	1071401	keystroke_i	i	n/a
535.8655	0.1195	1071731	keystroke_c	c	n/a
536.105	0.1055	1072210	keystroke_Key.enter	Key.enter	n/a
536.217	6.896	1072434	prompt	n/a	hans spray vintage liver\n
537.336	0.119	1074672	keystroke_h	h	n/a
537.44	0.0305	1074880	keystroke_a	a	n/a
537.485	0.03	1074970	keystroke_n	n	n/a
537.5005	0.135	1075001	keystroke_s	s	n/a
537.665	0.15	1075330	keystroke_Key.space	Key.space	n/a
538.58	0.1205	1077160	keystroke_s	s	n/a
538.745	0.0605	1077490	keystroke_p	p	n/a
539.0155	0.09	1078031	keystroke_r	r	n/a
539.12	0.0905	1078240	keystroke_a	a	n/a
539.345	0.105	1078690	keystroke_y	y	n/a
539.6145	0.091	1079229	keystroke_Key.space	Key.space	n/a
540.6505	0.12	1081301	keystroke_v	v	n/a
540.7255	0.135	1081451	keystroke_i	i	n/a
540.7855	0.12	1081571	keystroke_n	n	n/a
540.9505	0.12	1081901	keystroke_t	t	n/a
541.1755	0.0895	1082351	keystroke_a	a	n/a
541.415	0.09	1082830	keystroke_g	g	n/a
541.4755	0.135	1082951	keystroke_e	e	n/a
541.7605	0.105	1083521	keystroke_Key.space	Key.space	n/a
542.3755	0.09	1084751	keystroke_l	l	n/a
542.5695	0.076	1085139	keystroke_i	i	n/a
542.6155	0.045	1085231	keystroke_v	v	n/a
542.6755	0.165	1085351	keystroke_e	e	n/a
542.7655	0.15	1085531	keystroke_r	r	n/a
542.9895	0.1205	1085979	keystroke_Key.enter	Key.enter	n/a
543.1185	9.698	1086237	prompt	n/a	cordless connecting felt unwrap\n
543.7555	0.1045	1087511	keystroke_c	c	n/a
543.875	0.0755	1087750	keystroke_o	o	n/a
543.9955	0.12	1087991	keystroke_r	r	n/a
544.1755	0.104	1088351	keystroke_l	l	n/a
544.2955	0.12	1088591	keystroke_d	d	n/a
544.5945	0.061	1089189	keystroke_Key.backspace	Key.backspace	n/a
545.0605	0.09	1090121	keystroke_Key.backspace	Key.backspace	n/a
545.2105	0.12	1090421	keystroke_d	d	n/a
545.3155	0.12	1090631	keystroke_l	l	n/a
545.7355	0.1795	1091471	keystroke_e	e	n/a
545.885	0.105	1091770	keystroke_s	s	n/a
546.0805	0.1045	1092161	keystroke_s	s	n/a
546.245	0.12	1092490	keystroke_Key.space	Key.space	n/a
546.6505	0.105	1093301	keystroke_c	c	n/a
546.71	0.105	1093420	keystroke_o	o	n/a
546.9355	0.0595	1093871	keystroke_n	n	n/a
547.0555	0.12	1094111	keystroke_n	n	n/a
547.1905	0.12	1094381	keystroke_e	e	n/a
547.385	0.105	1094770	keystroke_c	c	n/a
547.595	0.106	1095190	keystroke_t	t	n/a
547.7155	0.165	1095431	keystroke_o	o	n/a
547.8355	0.135	1095671	keystroke_n	n	n/a
548.0005	0.075	1096001	keystroke_g	g	n/a
548.345	0.091	1096690	keystroke_Key.backspace	Key.backspace	n/a
548.48	0.0605	1096960	keystroke_Key.backspace	Key.backspace	n/a
548.6	0.09	1097200	keystroke_Key.backspace	Key.backspace	n/a
549.1105	0.1345	1098221	keystroke_i	i	n/a
549.17	0.1505	1098340	keystroke_n	n	n/a
549.246	0.1045	1098492	keystroke_g	g	n/a
549.4105	0.15	1098821	keystroke_Key.space	Key.space	n/a
550.235	0.1055	1100470	keystroke_f	f	n/a
550.2955	0.1345	1100591	keystroke_e	e	n/a
550.415	0.09	1100830	keystroke_l	l	n/a
550.55	0.15	1101100	keystroke_t	t	n/a
550.715	0.1055	1101430	keystroke_Key.space	Key.space	n/a
551.3155	0.15	1102631	keystroke_u	u	n/a
551.3605	0.12	1102721	keystroke_n	n	n/a
551.5255	0.074	1103051	keystroke_w	w	n/a
551.9745	0.121	1103949	keystroke_r	r	n/a
552.11	0.1195	1104220	keystroke_a	a	n/a
552.53	0.12	1105060	keystroke_p	p	n/a
552.71	0.105	1105420	keystroke_Key.enter	Key.enter	n/a
552.8215	8.5305	1105643	prompt	n/a	camera knew essentials checklist\n
553.4005	0.09	1106801	keystroke_c	c	n/a
553.5055	0.135	1107011	keystroke_a	a	n/a
553.6255	0.104	1107251	keystroke_m	m	n/a
553.7455	0.0895	1107491	keystroke_e	e	n/a
553.91	0.105	1107820	keystroke_r	r	n/a
554.03	0.166	1108060	keystroke_a	a	n/a
554.165	0.136	1108330	keystroke_Key.space	Key.space	n/a
554.525	0.1345	1109050	keystroke_k	k	n/a
554.6455	0.0895	1109291	keystroke_n	n	n/a
555.125	0.12	1110250	keystroke_e	e	n/a
555.1995	0.151	1110399	keystroke_w	w	n/a
555.425	0.1205	1110850	keystroke_Key.space	Key.space	n/a
555.935	0.09	1111870	keystroke_e	e	n/a
556.1155	0.0895	1112231	keystroke_s	s	n/a
556.295	0.12	1112590	keystroke_s	s	n/a
557.9755	0.1205	1115951	keystroke_e	e	n/a
558.0975	0.088	1116195	keystroke_n	n	n/a
558.53	0.105	1117060	keystroke_t	t	n/a
558.65	0.12	1117300	keystroke_i	i	n/a
558.74	0.135	1117480	keystroke_a	a	n/a
558.9055	0.1345	1117811	keystroke_l	l	n/a
559.0255	0.1795	1118051	keystroke_s	s	n/a
559.2195	0.151	1118439	keystroke_Key.space	Key.space	n/a
559.6695	0.09	1119339	keystroke_c	c	n/a
559.8355	0.09	1119671	keystroke_h	h	n/a
559.9395	0.0905	1119879	keystroke_e	e	n/a
560.21	0.1205	1120420	keystroke_c	c	n/a
560.3155	0.105	1120631	keystroke_k	k	n/a
560.75	0.091	1121500	keystroke_l	l	n/a
560.8995	0.135	1121799	keystroke_i	i	n/a
560.99	0.12	1121980	keystroke_s	s	n/a
561.0955	0.135	1122191	keystroke_t	t	n/a
561.245	0.105	1122490	keystroke_Key.enter	Key.enter	n/a
561.3565	11.185	1122713	prompt	n/a	variables business bradley consent\n
562.4005	0.09	1124801	keystroke_v	v	n/a
562.5655	0.1045	1125131	keystroke_a	a	n/a
562.8055	0.1045	1125611	keystroke_r	r	n/a
562.9405	0.1045	1125881	keystroke_i	i	n/a
563.075	0.1055	1126150	keystroke_a	a	n/a
563.9755	0.09	1127951	keystroke_b	b	n/a
564.095	0.1355	1128190	keystroke_l	l	n/a
564.1705	0.195	1128341	keystroke_e	e	n/a
564.3055	0.165	1128611	keystroke_s	s	n/a
564.4855	0.1045	1128971	keystroke_Key.space	Key.space	n/a
565.235	0.15	1130470	keystroke_b	b	n/a
565.31	0.135	1130620	keystroke_u	u	n/a
565.4305	0.12	1130861	keystroke_s	s	n/a
565.7305	0.089	1131461	keystroke_i	i	n/a
566.39	0.1055	1132780	keystroke_n	n	n/a
566.4355	0.135	1132871	keystroke_e	e	n/a
566.555	0.1355	1133110	keystroke_s	s	n/a
566.7655	0.135	1133531	keystroke_s	s	n/a
566.915	0.1205	1133830	keystroke_Key.space	Key.space	n/a
567.5155	0.1045	1135031	keystroke_b	b	n/a
567.5755	0.105	1135151	keystroke_r	r	n/a
567.6955	0.1195	1135391	keystroke_a	a	n/a
567.83	0.1655	1135660	keystroke_d	d	n/a
568.2505	0.105	1136501	keystroke_l	l	n/a
568.5055	0.135	1137011	keystroke_e	e	n/a
568.8055	0.09	1137611	keystroke_y	y	n/a
568.9995	0.1215	1137999	keystroke_Key.space	Key.space	n/a
569.72	0.1355	1139440	keystroke_c	c	n/a
569.81	0.0905	1139620	keystroke_o	o	n/a
570.0205	0.105	1140041	keystroke_n	n	n/a
570.14	0.121	1140280	keystroke_s	s	n/a
570.845	0.1805	1141690	keystroke_e	e	n/a
571.1305	0.105	1142261	keystroke_n	n	n/a
571.3555	0.136	1142711	keystroke_t	t	n/a
572.435	0.1055	1144870	keystroke_Key.enter	Key.enter	n/a
572.5475	10.899	1145095	prompt	n/a	jets tier momentum chart\n
573.546	0.089	1147092	keystroke_j	j	n/a
573.5905	0.1195	1147181	keystroke_e	e	n/a
573.74	0.06	1147480	keystroke_y	y	n/a
573.755	0.0755	1147510	keystroke_t	t	n/a
574.3995	0.091	1148799	keystroke_Key.backspace	Key.backspace	n/a
574.7	0.0905	1149400	keystroke_Key.backspace	Key.backspace	n/a
574.88	0.09	1149760	keystroke_y	y	n/a
575.03	0.1505	1150060	keystroke_s	s	n/a
575.42	0.075	1150840	keystroke_Key.backspace	Key.backspace	n/a
575.5705	0.0745	1151141	keystroke_Key.backspace	Key.backspace	n/a
576.245	0.1055	1152490	keystroke_t	t	n/a
576.3655	0.1495	1152731	keystroke_s	s	n/a
576.5	0.135	1153000	keystroke_Key.space	Key.space	n/a
577.2505	0.104	1154501	keystroke_t	t	n/a
577.3405	0.06	1154681	keystroke_i	i	n/a
577.43	0.12	1154860	keystroke_e	e	n/a
578.165	0.105	1156330	keystroke_r	r	n/a
578.51	0.135	1157020	keystroke_Key.space	Key.space	n/a
579.035	0.1195	1158070	keystroke_m	m	n/a
579.1105	0.1645	1158221	keystroke_o	o	n/a
579.2605	0.12	1158521	keystroke_m	m	n/a
579.3955	0.135	1158791	keystroke_e	e	n/a
579.5	0.135	1159000	keystroke_n	n	n/a
579.68	0.105	1159360	keystroke_t	t	n/a
580.3855	0.09	1160771	keystroke_u	u	n/a
580.4305	0.15	1160861	keystroke_m	m	n/a
580.91	0.1205	1161820	keystroke_Key.space	Key.space	n/a
581.18	0.1205	1162360	keystroke_c	c	n/a
581.3025	0.102	1162605	keystroke_h	h	n/a
581.3905	0.0595	1162781	keystroke_a	a	n/a
581.4055	0.0895	1162811	keystroke_s	s	n/a
581.511	0.119	1163022	keystroke_r	r	n/a
581.75	0.09	1163500	keystroke_y	y	n/a
582.2305	0.06	1164461	keystroke_Key.backspace	Key.backspace	n/a
582.3655	0.0895	1164731	keystroke_Key.backspace	Key.backspace	n/a
582.7255	0.105	1165451	keystroke_Key.backspace	Key.backspace	n/a
583.1	0.09	1166200	keystroke_r	r	n/a
583.2505	0.1195	1166501	keystroke_t	t	n/a
583.34	0.105	1166680	keystroke_Key.enter	Key.enter	n/a
583.4495	9.4475	1166899	prompt	n/a	movie doctor importance punk\n
584.2255	0.1195	1168451	keystroke_m	m	n/a
584.2855	0.1495	1168571	keystroke_o	o	n/a
584.405	0.0895	1168810	keystroke_v	v	n/a
584.6005	0.12	1169201	keystroke_i	i	n/a
584.7505	0.12	1169501	keystroke_e	e	n/a
585.005	0.1055	1170010	keystroke_Key.space	Key.space	n/a
585.2755	0.1195	1170551	keystroke_d	d	n/a
585.3495	0.136	1170699	keystroke_o	o	n/a
585.5155	0.105	1171031	keystroke_c	c	n/a
585.7405	0.1045	1171481	keystroke_t	t	n/a
585.785	0.1205	1171570	keystroke_o	o	n/a
585.92	0.1505	1171840	keystroke_r	r	n/a
586.071	0.1485	1172142	keystroke_Key.space	Key.space	n/a
586.5505	0.18	1173101	keystroke_i	i	n/a
586.6405	0.135	1173281	keystroke_m	m	n/a
586.8655	0.18	1173731	keystroke_p	p	n/a
587.0305	0.09	1174061	keystroke_r	r	n/a
587.075	0.1495	1174150	keystroke_o	o	n/a
