onset	duration	sample	value	key	prompt_text
3.6145	12.122	7229	prompt	n/a	the quick brown fox jumps over a lazy dog\n
5.25	0.071	10500	keystroke_t	t	n/a
5.369	0.064	10738	keystroke_h	h	n/a
5.449	0.088	10898	keystroke_e	e	n/a
5.617	0.072	11234	keystroke_Key.space	Key.space	n/a
6.3535	0.128	12707	keystroke_q	q	n/a
6.5055	0.072	13011	keystroke_u	u	n/a
6.7055	0.088	13411	keystroke_i	i	n/a
6.8015	0.104	13603	keystroke_c	c	n/a
6.9455	0.072	13891	keystroke_k	k	n/a
7.0975	0.081	14195	keystroke_Key.space	Key.space	n/a
7.326	0.072	14652	keystroke_b	b	n/a
7.534	0.08	15068	keystroke_r	r	n/a
7.67	0.0775	15340	keystroke_o	o	n/a
7.7955	0.08	15591	keystroke_w	w	n/a
7.9155	0.072	15831	keystroke_n	n	n/a
8.0675	0.08	16135	keystroke_Key.space	Key.space	n/a
8.373	0.088	16746	keystroke_f	f	n/a
8.517	0.072	17034	keystroke_o	o	n/a
8.798	0.072	17596	keystroke_x	x	n/a
8.918	0.1125	17836	keystroke_Key.space	Key.space	n/a
9.5985	0.064	19197	keystroke_j	j	n/a
9.7505	0.072	19501	keystroke_u	u	n/a
9.9425	0.08	19885	keystroke_m	m	n/a
10.0945	0.08	20189	keystroke_p	p	n/a
10.1985	0.096	20397	keystroke_s	s	n/a
10.3025	0.072	20605	keystroke_Key.space	Key.space	n/a
10.4545	0.08	20909	keystroke_o	o	n/a
10.6705	0.104	21341	keystroke_v	v	n/a
11.1425	0.096	22285	keystroke_e	e	n/a
11.431	0.12	22862	keystroke_r	r	n/a
12.11	0.064	24220	keystroke_Key.space	Key.space	n/a
12.319	0.112	24638	keystroke_a	a	n/a
12.438	0.096	24876	keystroke_Key.space	Key.space	n/a
12.711	0.112	25422	keystroke_l	l	n/a
12.855	0.088	25710	keystroke_a	a	n/a
13.079	0.0955	26158	keystroke_z	z	n/a
13.3585	0.064	26717	keystroke_y	y	n/a
13.4785	0.08	26957	keystroke_Key.space	Key.space	n/a
14.0465	0.08	28093	keystroke_d	d	n/a
14.1585	0.096	28317	keystroke_o	o	n/a
14.3265	0.0555	28653	keystroke_g	g	n/a
15.6465	0.088	31293	keystroke_Key.enter	Key.enter	n/a
15.74	15.476	31480	prompt	n/a	prairie tide graphical presidential\n
16.7995	0.103	33599	keystroke_p	p	n/a
16.9505	0.089	33901	keystroke_r	r	n/a
17.1265	0.088	34253	keystroke_i	i	n/a
17.455	0.1035	34910	keystroke_a	a	n/a
20.1265	0.08	40253	keystroke_Key.backspace	Key.backspace	n/a
20.2945	0.072	40589	keystroke_Key.backspace	Key.backspace	n/a
20.5905	0.096	41181	keystroke_a	a	n/a
22.455	0.104	44910	keystroke_i	i	n/a
22.839	0.12	45678	keystroke_r	r	n/a
23.007	0.072	46014	keystroke_i	i	n/a
23.151	0.096	46302	keystroke_e	e	n/a
23.519	0.072	47038	keystroke_Key.space	Key.space	n/a
23.727	0.088	47454	keystroke_t	t	n/a
23.887	0.088	47774	keystroke_i	i	n/a
24.039	0.104	48078	keystroke_d	d	n/a
24.215	0.088	48430	keystroke_e	e	n/a
24.343	0.088	48686	keystroke_Key.space	Key.space	n/a
24.959	0.088	49918	keystroke_g	g	n/a
25.479	0.1115	50958	keystroke_r	r	n/a
25.8705	0.081	51741	keystroke_a	a	n/a
26.0065	0.096	52013	keystroke_p	p	n/a
27.5905	0.096	55181	keystroke_h	h	n/a
27.7915	0.111	55583	keystroke_i	i	n/a
27.9825	0.112	55965	keystroke_c	c	n/a
28.2145	0.08	56429	keystroke_a	a	n/a
28.3825	0.128	56765	keystroke_l	l	n/a
28.8385	0.104	57677	keystroke_Key.space	Key.space	n/a
29.0555	0.087	58111	keystroke_p	p	n/a
29.1505	0.0885	58301	keystroke_r	r	n/a
29.247	0.08	58494	keystroke_e	e	n/a
29.423	0.096	58846	keystroke_s	s	n/a
29.551	0.072	59102	keystroke_i	i	n/a
29.855	0.168	59710	keystroke_d	d	n/a
30.079	0.1205	60158	keystroke_e	e	n/a
30.1915	0.088	60383	keystroke_n	n	n/a
30.335	0.072	60670	keystroke_t	t	n/a
30.471	0.104	60942	keystroke_i	i	n/a
30.623	0.08	61246	keystroke_a	a	n/a
30.759	0.112	61518	keystroke_l	l	n/a
31.126	0.088	62252	keystroke_Key.enter	Key.enter	n/a
31.2195	17.0045	62439	prompt	n/a	logged shouldn't've benchmark advertisement\n
31.871	0.1685	63742	keystroke_l	l	n/a
32.1595	0.0635	64319	keystroke_o	o	n/a
32.3035	0.0795	64607	keystroke_g	g	n/a
32.463	0.08	64926	keystroke_g	g	n/a
32.663	0.0645	65326	keystroke_e	e	n/a
32.8555	0.0715	65711	keystroke_d	d	n/a
32.966	0.088	65932	keystroke_Key.space	Key.space	n/a
33.119	0.0885	66238	keystroke_s	s	n/a
33.2475	0.064	66495	keystroke_h	h	n/a
33.3995	0.088	66799	keystroke_o	o	n/a
33.4955	0.08	66991	keystroke_u	u	n/a
33.7435	0.096	67487	keystroke_l	l	n/a
34.0795	0.112	68159	keystroke_v	v	n/a
34.719	0.127	69438	keystroke_Key.backspace	Key.backspace	n/a
37.423	0.087	74846	keystroke_d	d	n/a
38.847	0.096	77694	keystroke_n	n	n/a
39.479	0.1045	78958	keystroke_'	'	n/a
41.575	0.08	83150	keystroke_t	t	n/a
41.886	0.128	83772	keystroke_'	'	n/a
42.551	0.127	85102	keystroke_v	v	n/a
42.926	0.105	85852	keystroke_e	e	n/a
43.406	0.104	86812	keystroke_Key.space	Key.space	n/a
43.814	0.088	87628	keystroke_b	b	n/a
44.054	0.097	88108	keystroke_e	e	n/a
44.175	0.095	88350	keystroke_n	n	n/a
44.343	0.095	88686	keystroke_c	c	n/a
44.447	0.071	88894	keystroke_h	h	n/a
44.726	0.112	89452	keystroke_m	m	n/a
44.894	0.112	89788	keystroke_a	a	n/a
45.078	0.08	90156	keystroke_r	r	n/a
45.23	0.121	90460	keystroke_k	k	n/a
45.47	0.104	90940	keystroke_Key.space	Key.space	n/a
45.678	0.113	91356	keystroke_a	a	n/a
45.831	0.104	91662	keystroke_d	d	n/a
46.143	0.079	92286	keystroke_v	v	n/a
46.358	0.072	92716	keystroke_e	e	n/a
46.518	0.088	93036	keystroke_r	r	n/a
46.718	0.064	93436	keystroke_t	t	n/a
46.854	0.096	93708	keystroke_i	i	n/a
47.118	0.113	94236	keystroke_s	s	n/a
47.343	0.079	94686	keystroke_e	e	n/a
47.462	0.104	94924	keystroke_m	m	n/a
47.582	0.088	95164	keystroke_e	e	n/a
47.686	0.065	95372	keystroke_n	n	n/a
47.806	0.064	95612	keystroke_t	t	n/a
48.142	0.08	96284	keystroke_Key.enter	Key.enter	n/a
48.227	10.141	96454	prompt	n/a	forums take folk legitimate\n
48.982	0.112	97964	keystroke_f	f	n/a
49.174	0.064	98348	keystroke_o	o	n/a
49.318	0.072	98636	keystroke_r	r	n/a
49.526	0.096	99052	keystroke_u	u	n/a
49.814	0.105	99628	keystroke_m	m	n/a
50.046	0.105	100092	keystroke_s	s	n/a
50.182	0.096	100364	keystroke_Key.space	Key.space	n/a
50.382	0.08	100764	keystroke_t	t	n/a
50.558	0.088	101116	keystroke_a	a	n/a
50.686	0.112	101372	keystroke_k	k	n/a
50.822	0.064	101644	keystroke_e	e	n/a
50.934	0.104	101868	keystroke_Key.space	Key.space	n/a
51.398	0.088	102796	keystroke_f	f	n/a
51.551	0.087	103102	keystroke_o	o	n/a
51.758	0.089	103516	keystroke_l	l	n/a
51.854	0.089	103708	keystroke_d	d	n/a
53.094	0.12	106188	keystroke_Key.backspace	Key.backspace	n/a
53.335	0.112	106670	keystroke_d	d	n/a
53.774	0.152	107548	keystroke_Key.backspace	Key.backspace	n/a
54.318	0.088	108636	keystroke_f	f	n/a
54.446	0.12	108892	keystroke_Key.space	Key.space	n/a
55.2545	0.08	110509	keystroke_Key.backspace	Key.backspace	n/a
55.4065	0.104	110813	keystroke_Key.backspace	Key.backspace	n/a
55.7105	0.088	111421	keystroke_k	k	n/a
55.8865	0.104	111773	keystroke_Key.space	Key.space	n/a
56.2785	0.104	112557	keystroke_l	l	n/a
56.4145	0.088	112829	keystroke_e	e	n/a
56.6065	0.088	113213	keystroke_g	g	n/a
56.7185	0.096	113437	keystroke_i	i	n/a
56.8785	0.064	113757	keystroke_t	t	n/a
57.0305	0.088	114061	keystroke_i	i	n/a
57.2945	0.104	114589	keystroke_m	m	n/a
57.4945	0.104	114989	keystroke_a	a	n/a
57.7585	0.072	115517	keystroke_t	t	n/a
57.9265	0.088	115853	keystroke_e	e	n/a
58.2945	0.072	116589	keystroke_Key.enter	Key.enter	n/a
58.3705	6.8535	116741	prompt	n/a	star president applicants david\n
58.9585	0.096	117917	keystroke_s	s	n/a
59.1585	0.08	118317	keystroke_t	t	n/a
59.3185	0.088	118637	keystroke_a	a	n/a
59.4625	0.096	118925	keystroke_r	r	n/a
59.9185	0.104	119837	keystroke_Key.space	Key.space	n/a
60.1825	0.08	120365	keystroke_s	s	n/a
60.4785	0.08	120957	keystroke_Key.backspace	Key.backspace	n/a
60.7185	0.08	121437	keystroke_p	p	n/a
60.8385	0.08	121677	keystroke_r	r	n/a
60.9185	0.104	121837	keystroke_e	e	n/a
61.1185	0.128	122237	keystroke_s	s	n/a
61.2945	0.088	122589	keystroke_i	i	n/a
61.4785	0.112	122957	keystroke_d	d	n/a
61.6625	0.096	123325	keystroke_e	e	n/a
61.7585	0.072	123517	keystroke_n	n	n/a
61.8865	0.064	123773	keystroke_t	t	n/a
62.0465	0.104	124093	keystroke_Key.space	Key.space	n/a
62.2385	0.088	124477	keystroke_a	a	n/a
62.3665	0.088	124733	keystroke_p	p	n/a
62.5425	0.064	125085	keystroke_p	p	n/a
62.6785	0.096	125357	keystroke_l	l	n/a
62.8945	0.096	125789	keystroke_i	i	n/a
63.0305	0.088	126061	keystroke_c	c	n/a
63.1505	0.096	126301	keystroke_a	a	n/a
63.2545	0.064	126509	keystroke_n	n	n/a
63.3905	0.072	126781	keystroke_t	t	n/a
63.5985	0.096	127197	keystroke_s	s	n/a
63.9105	0.096	127821	keystroke_Key.space	Key.space	n/a
64.0945	0.104	128189	keystroke_d	d	n/a
64.2705	0.096	128541	keystroke_a	a	n/a
64.5105	0.056	129021	keystroke_v	v	n/a
64.7505	0.096	129501	keystroke_i	i	n/a
64.8785	0.088	129757	keystroke_d	d	n/a
65.1505	0.072	130301	keystroke_Key.enter	Key.enter	n/a
65.227	6.509	130454	prompt	n/a	spanking option collar proved\n
65.8785	0.088	131757	keystroke_s	s	n/a
65.9825	0.12	131965	keystroke_p	p	n/a
66.1585	0.08	132317	keystroke_a	a	n/a
66.3025	0.08	132605	keystroke_n	n	n/a
66.4945	0.072	132989	keystroke_k	k	n/a
66.6705	0.112	133341	keystroke_i	i	n/a
66.7665	0.088	133533	keystroke_n	n	n/a
66.9185	0.064	133837	keystroke_g	g	n/a
67.0145	0.096	134029	keystroke_Key.space	Key.space	n/a
67.1825	0.096	134365	keystroke_o	o	n/a
67.3985	0.08	134797	keystroke_p	p	n/a
67.5585	0.064	135117	keystroke_t	t	n/a
67.6945	0.072	135389	keystroke_i	i	n/a
67.9105	0.04	135821	keystroke_o	o	n/a
68.0545	0.088	136109	keystroke_n	n	n/a
68.6545	0.08	137309	keystroke_Key.space	Key.space	n/a
68.9265	0.088	137853	keystroke_c	c	n/a
69.0625	0.088	138125	keystroke_o	o	n/a
69.2705	0.072	138541	keystroke_l	l	n/a
69.4145	0.096	138829	keystroke_l	l	n/a
69.5505	0.096	139101	keystroke_a	a	n/a
69.7185	0.072	139437	keystroke_r	r	n/a
69.8865	0.096	139773	keystroke_Key.space	Key.space	n/a
70.1345	0.088	140269	keystroke_p	p	n/a
70.2945	0.072	140589	keystroke_r	r	n/a
70.4305	0.072	140861	keystroke_o	o	n/a
70.6945	0.08	141389	keystroke_v	v	n/a
70.8945	0.08	141789	keystroke_e	e	n/a
71.0945	0.08	142189	keystroke_d	d	n/a
71.6545	0.08	143309	keystroke_Key.enter	Key.enter	n/a
71.7405	13.403	143481	prompt	n/a	sharon discovered attribute deutschland\n
72.4865	0.08	144973	keystroke_s	s	n/a
72.5985	0.08	145197	keystroke_h	h	n/a
72.7265	0.104	145453	keystroke_a	a	n/a
72.9185	0.072	145837	keystroke_r	r	n/a
73.0385	0.072	146077	keystroke_o	o	n/a
73.2305	0.072	146461	keystroke_n	n	n/a
73.4785	0.096	146957	keystroke_Key.space	Key.space	n/a
73.8225	0.088	147645	keystroke_d	d	n/a
73.9425	0.088	147885	keystroke_i	i	n/a
74.0785	0.104	148157	keystroke_s	s	n/a
74.4385	0.08	148877	keystroke_c	c	n/a
74.9345	0.136	149869	keystroke_o	o	n/a
75.2705	0.096	150541	keystroke_v	v	n/a
75.4865	0.08	150973	keystroke_e	e	n/a
75.6385	0.08	151277	keystroke_r	r	n/a
75.7425	0.072	151485	keystroke_e	e	n/a
75.9025	0.096	151805	keystroke_d	d	n/a
76.2145	0.088	152429	keystroke_Key.space	Key.space	n/a
76.4705	0.112	152941	keystroke_a	a	n/a
76.6865	0.072	153373	keystroke_t	t	n/a
76.8625	0.056	153725	keystroke_t	t	n/a
76.9745	0.088	153949	keystroke_r	r	n/a
77.0945	0.088	154189	keystroke_i	i	n/a
77.5105	0.104	155021	keystroke_u	u	n/a
77.8545	0.096	155709	keystroke_Key.backspace	Key.backspace	n/a
78.0945	0.088	156189	keystroke_b	b	n/a
78.3905	0.12	156781	keystroke_u	u	n/a
78.5745	0.088	157149	keystroke_t	t	n/a
78.7905	0.072	157581	keystroke_e	e	n/a
79.3025	0.128	158605	keystroke_Key.space	Key.space	n/a
80.3985	0.104	160797	keystroke_d	d	n/a
81.0545	0.112	162109	keystroke_e	e	n/a
81.4145	0.104	162829	keystroke_u	u	n/a
82.7425	0.096	165485	keystroke_t	t	n/a
83.7905	0.096	167581	keystroke_s	s	n/a
84.014	0.096	168028	keystroke_c	c	n/a
84.118	0.0955	168236	keystroke_h	h	n/a
84.3815	0.113	168763	keystroke_l	l	n/a
84.5175	0.105	169035	keystroke_a	a	n/a
84.6465	0.071	169293	keystroke_n	n	n/a
84.7345	0.079	169469	keystroke_d	d	n/a
85.0615	0.081	170123	keystroke_Key.enter	Key.enter	n/a
85.148	10.395	170296	prompt	n/a	drama according pharmacy struct\n
85.807	0.111	171614	keystroke_d	d	n/a
86.086	0.049	172172	keystroke_t	t	n/a
86.374	0.089	172748	keystroke_a	a	n/a
86.71	0.08	173420	keystroke_=	=	n/a
86.886	0.056	173772	keystroke_Key.backspace	Key.backspace	n/a
87.318	0.112	174636	keystroke_Key.backspace	Key.backspace	n/a
87.574	0.064	175148	keystroke_Key.backspace	Key.backspace	n/a
87.751	0.104	175502	keystroke_r	r	n/a
87.943	0.095	175886	keystroke_a	a	n/a
88.078	0.104	176156	keystroke_m	m	n/a
88.27	0.048	176540	keystroke_e	e	n/a
88.606	0.072	177212	keystroke_Key.backspace	Key.backspace	n/a
88.718	0.088	177436	keystroke_a	a	n/a
89.238	0.104	178476	keystroke_Key.space	Key.space	n/a
89.6375	0.105	179275	keystroke_a	a	n/a
89.8465	0.088	179693	keystroke_c	c	n/a
90.0225	0.095	180045	keystroke_c	c	n/a
90.1585	0.0885	180317	keystroke_o	o	n/a
90.286	0.065	180572	keystroke_r	r	n/a
90.4625	0.0805	180925	keystroke_d	d	n/a
90.5575	0.121	181115	keystroke_i	i	n/a
90.6545	0.103	181309	keystroke_n	n	n/a
90.7655	0.073	181531	keystroke_g	g	n/a
90.8855	0.096	181771	keystroke_Key.space	Key.space	n/a
91.0695	0.096	182139	keystroke_p	p	n/a
91.2215	0.08	182443	keystroke_r	r	n/a
91.6535	0.088	183307	keystroke_Key.backspace	Key.backspace	n/a
91.9255	0.088	183851	keystroke_h	h	n/a
92.5895	0.112	185179	keystroke_a	a	n/a
92.7975	0.073	185595	keystroke_r	r	n/a
92.9655	0.088	185931	keystroke_m	m	n/a
93.1015	0.088	186203	keystroke_a	a	n/a
93.3015	0.081	186603	keystroke_c	c	n/a
93.5415	0.064	187083	keystroke_y	y	n/a
93.6935	0.096	187387	keystroke_Key.space	Key.space	n/a
93.8455	0.096	187691	keystroke_s	s	n/a
94.0465	0.087	188093	keystroke_t	t	n/a
94.2055	0.088	188411	keystroke_r	r	n/a
94.3975	0.088	188795	keystroke_u	u	n/a
94.5495	0.104	189099	keystroke_c	c	n/a
95.0695	0.08	190139	keystroke_t	t	n/a
95.4455	0.096	190891	keystroke_Key.enter	Key.enter	n/a
95.545	7.846	191090	prompt	n/a	must've medal operates ready\n
96.2295	0.112	192459	keystroke_m	m	n/a
96.4775	0.072	192955	keystroke_u	u	n/a
96.6135	0.096	193227	keystroke_s	s	n/a
96.8055	0.072	193611	keystroke_t	t	n/a
97.1335	0.113	194267	keystroke_'	'	n/a
97.3095	0.112	194619	keystroke_v	v	n/a
97.5095	0.072	195019	keystroke_e	e	n/a
97.6375	0.088	195275	keystroke_Key.space	Key.space	n/a
97.8455	0.096	195691	keystroke_m	m	n/a
97.9815	0.08	195963	keystroke_e	e	n/a
98.1975	0.088	196395	keystroke_d	d	n/a
99.5175	0.096	199035	keystroke_a	a	n/a
99.6465	0.135	199293	keystroke_l	l	n/a
99.8615	0.088	199723	keystroke_Key.space	Key.space	n/a
100.0615	0.088	200123	keystroke_o	o	n/a
100.2695	0.081	200539	keystroke_p	p	n/a
100.3975	0.08	200795	keystroke_e	e	n/a
100.5585	0.095	201117	keystroke_r	r	n/a
100.7335	0.088	201467	keystroke_a	a	n/a
100.9255	0.081	201851	keystroke_t	t	n/a
101.0855	0.096	202171	keystroke_e	e	n/a
101.8135	0.08	203627	keystroke_s	s	n/a
102.0455	0.096	204091	keystroke_Key.space	Key.space	n/a
102.2375	0.088	204475	keystroke_r	r	n/a
102.3735	0.056	204747	keystroke_e	e	n/a
102.5015	0.072	205003	keystroke_a	a	n/a
102.6295	0.096	205259	keystroke_d	d	n/a
102.9025	0.071	205805	keystroke_y	y	n/a
103.302	0.088	206604	keystroke_Key.enter	Key.enter	n/a
103.394	12.437	206788	prompt	n/a	photographs shake minister they'd\n
104.118	0.104	208236	keystroke_p	p	n/a
104.342	0.072	208684	keystroke_h	h	n/a
104.502	0.08	209004	keystroke_o	o	n/a
104.606	0.072	209212	keystroke_t	t	n/a
104.702	0.072	209404	keystroke_o	o	n/a
105.166	0.112	210332	keystroke_f	f	n/a
105.694	0.128	211388	keystroke_Key.backspace	Key.backspace	n/a
105.982	0.048	211964	keystroke_f	f	n/a
106.406	0.104	212812	keystroke_Key.backspace	Key.backspace	n/a
106.91	0.072	213820	keystroke_g	g	n/a
107.166	0.072	214332	keystroke_r	r	n/a
108.006	0.088	216012	keystroke_a	a	n/a
108.15	0.096	216300	keystroke_p	p	n/a
108.39	0.08	216780	keystroke_h	h	n/a
108.518	0.08	217036	keystroke_s	s	n/a
108.966	0.088	217932	keystroke_Key.space	Key.space	n/a
109.27	0.096	218540	keystroke_s	s	n/a
109.414	0.0715	218828	keystroke_h	h	n/a
109.5095	0.096	219019	keystroke_a	a	n/a
109.6935	0.0965	219387	keystroke_k	k	n/a
109.846	0.072	219692	keystroke_e	e	n/a
110.142	0.104	220284	keystroke_Key.space	Key.space	n/a
110.454	0.112	220908	keystroke_m	m	n/a
110.646	0.088	221292	keystroke_i	i	n/a
110.822	0.048	221644	keystroke_s	s	n/a
111.47	0.088	222940	keystroke_Key.backspace	Key.backspace	n/a
111.734	0.088	223468	keystroke_n	n	n/a
111.902	0.072	223804	keystroke_i	i	n/a
112.03	0.104	224060	keystroke_s	s	n/a
112.246	0.08	224492	keystroke_t	t	n/a
112.382	0.096	224764	keystroke_e	e	n/a
112.51	0.072	225020	keystroke_r	r	n/a
112.662	0.104	225324	keystroke_Key.space	Key.space	n/a
113.238	0.088	226476	keystroke_t	t	n/a
113.398	0.064	226796	keystroke_h	h	n/a
113.494	0.088	226988	keystroke_e	e	n/a
113.686	0.072	227372	keystroke_y	y	n/a
115.038	0.112	230076	keystroke_'	'	n/a
115.262	0.104	230524	keystroke_d	d	n/a
115.734	0.096	231468	keystroke_Key.enter	Key.enter	n/a
115.8345	9.1485	231669	prompt	n/a	ideal departure equally closer\n
116.582	0.104	233164	keystroke_i	i	n/a
116.838	0.08	233676	keystroke_d	d	n/a
116.99	0.096	233980	keystroke_e	e	n/a
117.166	0.088	234332	keystroke_a	a	n/a
117.294	0.128	234588	keystroke_l	l	n/a
117.534	0.088	235068	keystroke_Key.space	Key.space	n/a
117.75	0.096	235500	keystroke_d	d	n/a
117.926	0.072	235852	keystroke_e	e	n/a
118.07	0.104	236140	keystroke_p	p	n/a
118.214	0.072	236428	keystroke_a	a	n/a
118.39	0.088	236780	keystroke_r	r	n/a
118.598	0.072	237196	keystroke_t	t	n/a
119.414	0.128	238828	keystroke_u	u	n/a
119.838	0.088	239676	keystroke_r	r	n/a
120.014	0.08	240028	keystroke_e	e	n/a
120.422	0.128	240844	keystroke_Key.space	Key.space	n/a
120.782	0.112	241564	keystroke_e	e	n/a
121.398	0.096	242796	keystroke_q	q	n/a
121.662	0.152	243324	keystroke_u	u	n/a
122.078	0.12	244156	keystroke_a	a	n/a
122.278	0.112	244556	keystroke_l	l	n/a
122.454	0.112	244908	keystroke_l	l	n/a
122.622	0.104	245244	keystroke_y	y	n/a
123.014	0.112	246028	keystroke_Key.space	Key.space	n/a
123.302	0.112	246604	keystroke_c	c	n/a
123.462	0.088	246924	keystroke_l	l	n/a
123.646	0.08	247292	keystroke_o	o	n/a
123.774	0.088	247548	keystroke_s	s	n/a
123.958	0.096	247916	keystroke_e	e	n/a
124.118	0.088	248236	keystroke_r	r	n/a
124.894	0.088	249788	keystroke_Key.enter	Key.enter	n/a
124.986	9.789	249972	prompt	n/a	textile tags weren't till\n
125.67	0.08	251340	keystroke_t	t	n/a
125.83	0.072	251660	keystroke_e	e	n/a
126.038	0.088	252076	keystroke_x	x	n/a
126.246	0.064	252492	keystroke_t	t	n/a
126.35	0.12	252700	keystroke_i	i	n/a
126.63	0.08	253260	keystroke_l	l	n/a
126.75	0.072	253500	keystroke_e	e	n/a
126.99	0.104	253980	keystroke_Key.space	Key.space	n/a
127.278	0.088	254556	keystroke_t	t	n/a
127.558	0.104	255116	keystroke_a	a	n/a
127.798	0.048	255596	keystroke_g	g	n/a
128.15	0.088	256300	keystroke_s	s	n/a
128.646	0.088	257292	keystroke_Key.space	Key.space	n/a
128.878	0.104	257756	keystroke_w	w	n/a
129.118	0.088	258236	keystroke_e	e	n/a
129.518	0.144	259036	keystroke_'	'	n/a
130.07	0.104	260140	keystroke_Key.backspace	Key.backspace	n/a
130.43	0.088	260860	keystroke_r	r	n/a
130.662	0.08	261324	keystroke_e	e	n/a
130.974	0.12	261948	keystroke_n	n	n/a
132.142	0.112	264284	keystroke_'	'	n/a
132.838	0.088	265676	keystroke_t	t	n/a
133.606	0.088	267212	keystroke_Key.space	Key.space	n/a
134.038	0.072	268076	keystroke_t	t	n/a
134.166	0.088	268332	keystroke_i	i	n/a
134.382	0.072	268764	keystroke_l	l	n/a
134.534	0.08	269068	keystroke_l	l	n/a
134.702	0.072	269404	keystroke_Key.enter	Key.enter	n/a
134.778	19.2935	269556	prompt	n/a	decade influenced architects consoles\n
135.382	0.096	270764	keystroke_d	d	n/a
135.55	0.088	271100	keystroke_e	e	n/a
135.75	0.08	271500	keystroke_c	c	n/a
135.886	0.12	271772	keystroke_a	a	n/a
139.702	0.096	279404	keystroke_d	d	n/a
139.918	0.08	279836	keystroke_e	e	n/a
140.398	0.088	280796	keystroke_Key.space	Key.space	n/a
140.622	0.112	281244	keystroke_i	i	n/a
140.83	0.088	281660	keystroke_n	n	n/a
141.198	0.08	282396	keystroke_g	g	n/a
141.374	0.112	282748	keystroke_l	l	n/a
141.766	0.072	283532	keystroke_Key.backspace	Key.backspace	n/a
141.918	0.072	283836	keystroke_Key.backspace	Key.backspace	n/a
142.014	0.096	284028	keystroke_d	d	n/a
142.542	0.088	285084	keystroke_Key.backspace	Key.backspace	n/a
142.654	0.08	285308	keystroke_f	f	n/a
143.198	0.088	286396	keystroke_;	;	n/a
143.718	0.128	287436	keystroke_Key.backspace	Key.backspace	n/a
144.142	0.08	288284	keystroke_l	l	n/a
144.398	0.072	288796	keystroke_u	u	n/a
144.574	0.088	289148	keystroke_e	e	n/a
144.734	0.096	289468	keystroke_n	n	n/a
145.118	0.096	290236	keystroke_c	c	n/a
146.062	0.096	292124	keystroke_e	e	n/a
146.294	0.088	292588	keystroke_d	d	n/a
146.526	0.12	293052	keystroke_Key.space	Key.space	n/a
146.782	0.1115	293564	keystroke_a	a	n/a
147.2055	0.104	294411	keystroke_r	r	n/a
147.7095	0.112	295419	keystroke_Key.backspace	Key.backspace	n/a
148.2625	0.151	296525	keystroke_r	r	n/a
148.7095	0.097	297419	keystroke_c	c	n/a
149.0135	0.152	298027	keystroke_h	h	n/a
149.3255	0.112	298651	keystroke_i	i	n/a
150.3095	0.096	300619	keystroke_t	t	n/a
150.4855	0.08	300971	keystroke_e	e	n/a
150.6775	0.096	301355	keystroke_c	c	n/a
150.8935	0.072	301787	keystroke_t	t	n/a
151.1025	0.08	302205	keystroke_s	s	n/a
151.3575	0.088	302715	keystroke_Key.space	Key.space	n/a
151.4935	0.088	302987	keystroke_c	c	n/a
151.6215	0.096	303243	keystroke_o	o	n/a
151.8935	0.096	303787	keystroke_n	n	n/a
152.2855	0.112	304571	keystroke_s	s	n/a
152.4455	0.096	304891	keystroke_o	o	n/a
152.6695	0.113	305339	keystroke_l	l	n/a
152.8695	0.088	305739	keystroke_s	s	n/a
153.5015	0.104	307003	keystroke_Key.backspace	Key.backspace	n/a
153.6135	0.064	307227	keystroke_e	e	n/a
153.7815	0.088	307563	keystroke_s	s	n/a
153.9815	0.088	307963	keystroke_Key.enter	Key.enter	n/a
154.0785	11.449	308157	prompt	n/a	literature invisible miles pierre\n
154.7665	0.143	309533	keystroke_l	l	n/a
155.0135	0.088	310027	keystroke_i	i	n/a
155.1655	0.064	310331	keystroke_t	t	n/a
155.2775	0.088	310555	keystroke_e	e	n/a
155.3895	0.08	310779	keystroke_r	r	n/a
156.5175	0.104	313035	keystroke_a	a	n/a
156.7425	0.104	313485	keystroke_t	t	n/a
156.8775	0.088	313755	keystroke_u	u	n/a
157.0375	0.112	314075	keystroke_r	r	n/a
157.6775	0.08	315355	keystroke_e	e	n/a
157.9495	0.08	315899	keystroke_Key.space	Key.space	n/a
158.1255	0.105	316251	keystroke_i	i	n/a
158.3105	0.088	316621	keystroke_n	n	n/a
159.0385	0.071	318077	keystroke_v	v	n/a
159.157	0.08	318314	keystroke_i	i	n/a
159.373	0.08	318746	keystroke_d	d	n/a
159.493	0.097	318986	keystroke_i	i	n/a
159.885	0.088	319770	keystroke_Key.backspace	Key.backspace	n/a
160.093	0.064	320186	keystroke_Key.backspace	Key.backspace	n/a
160.774	0.095	321548	keystroke_s	s	n/a
161.013	0.104	322026	keystroke_i	i	n/a
161.197	0.096	322394	keystroke_b	b	n/a
161.357	0.12	322714	keystroke_l	l	n/a
161.541	0.081	323082	keystroke_e	e	n/a
162.157	0.112	324314	keystroke_Key.space	Key.space	n/a
162.437	0.112	324874	keystroke_m	m	n/a
162.654	0.095	325308	keystroke_i	i	n/a
162.893	0.096	325786	keystroke_l	l	n/a
163.053	0.088	326106	keystroke_e	e	n/a
163.261	0.113	326522	keystroke_s	s	n/a
163.397	0.08	326794	keystroke_Key.space	Key.space	n/a
163.581	0.104	327162	keystroke_p	p	n/a
163.821	0.08	327642	keystroke_i	i	n/a
163.957	0.104	327914	keystroke_e	e	n/a
164.621	0.104	329242	keystroke_r	r	n/a
164.821	0.08	329642	keystroke_r	r	n/a
164.965	0.096	329930	keystroke_e	e	n/a
165.445	0.08	330890	keystroke_Key.enter	Key.enter	n/a
165.533	12.858	331066	prompt	n/a	attending revenge albums lightning\n
166.134	0.096	332268	keystroke_a	a	n/a
166.365	0.064	332730	keystroke_t	t	n/a
166.525	0.064	333050	keystroke_t	t	n/a
166.645	0.08	333290	keystroke_e	e	n/a
166.749	0.088	333498	keystroke_n	n	n/a
166.901	0.08	333802	keystroke_d	d	n/a
167.085	0.088	334170	keystroke_e	e	n/a
167.621	0.08	335242	keystroke_Key.backspace	Key.backspace	n/a
167.917	0.088	335834	keystroke_i	i	n/a
168.085	0.088	336170	keystroke_n	n	n/a
168.221	0.08	336442	keystroke_g	g	n/a
168.413	0.088	336826	keystroke_Key.space	Key.space	n/a
168.861	0.096	337722	keystroke_r	r	n/a
169.077	0.08	338154	keystroke_e	e	n/a
169.293	0.072	338586	keystroke_b	b	n/a
169.485	0.088	338970	keystroke_e	e	n/a
169.589	0.064	339178	keystroke_n	n	n/a
169.901	0.096	339802	keystroke_Key.backspace	Key.backspace	n/a
170.077	0.072	340154	keystroke_Key.backspace	Key.backspace	n/a
170.237	0.088	340474	keystroke_Key.backspace	Key.backspace	n/a
170.821	0.072	341642	keystroke_v	v	n/a
170.965	0.08	341930	keystroke_e	e	n/a
171.053	0.072	342106	keystroke_n	n	n/a
171.261	0.056	342522	keystroke_g	g	n/a
171.837	0.096	343674	keystroke_e	e	n/a
172.397	0.112	344794	keystroke_Key.space	Key.space	n/a
172.573	0.096	345146	keystroke_a	a	n/a
172.701	0.096	345402	keystroke_l	l	n/a
173.1255	0.08	346251	keystroke_n	n	n/a
173.3415	0.112	346683	keystroke_u	u	n/a
173.8775	0.104	347755	keystroke_Key.backspace	Key.backspace	n/a
174.0695	0.096	348139	keystroke_Key.backspace	Key.backspace	n/a
174.7415	0.056	349483	keystroke_b	b	n/a
174.9255	0.088	349851	keystroke_u	u	n/a
175.1415	0.08	350283	keystroke_m	m	n/a
175.2775	0.096	350555	keystroke_s	s	n/a
175.6615	0.096	351323	keystroke_Key.space	Key.space	n/a
175.8535	0.088	351707	keystroke_l	l	n/a
176.0455	0.112	352091	keystroke_i	i	n/a
176.2135	0.088	352427	keystroke_g	g	n/a
176.4695	0.096	352939	keystroke_h	h	n/a
176.6615	0.0235	353323	keystroke_t	t	n/a
177.0135	0.088	354027	keystroke_n	n	n/a
177.1735	0.072	354347	keystroke_i	i	n/a
177.2535	0.088	354507	keystroke_n	n	n/a
177.4215	0.064	354843	keystroke_g	g	n/a
178.3095	0.08	356619	keystroke_Key.enter	Key.enter	n/a
178.3975	13.9855	356795	prompt	n/a	simpson relatives modifications widespread\n
179.1015	0.104	358203	keystroke_s	s	n/a
179.1895	0.112	358379	keystroke_i	i	n/a
179.3975	0.104	358795	keystroke_m	m	n/a
179.5975	0.112	359195	keystroke_p	p	n/a
179.8935	0.096	359787	keystroke_s	s	n/a
180.0215	0.096	360043	keystroke_o	o	n/a
180.1655	0.112	360331	keystroke_n	n	n/a
180.4455	0.104	360891	keystroke_Key.space	Key.space	n/a
181.2375	0.088	362475	keystroke_r	r	n/a
181.4615	0.088	362923	keystroke_e	e	n/a
181.9575	0.12	363915	keystroke_l	l	n/a
182.2455	0.12	364491	keystroke_a	a	n/a
182.5175	0.08	365035	keystroke_t	t	n/a
182.6535	0.072	365307	keystroke_i	i	n/a
182.8135	0.104	365627	keystroke_v	v	n/a
183.0295	0.072	366059	keystroke_e	e	n/a
183.2215	0.08	366443	keystroke_s	s	n/a
183.3175	0.128	366635	keystroke_Key.space	Key.space	n/a
183.5735	0.112	367147	keystroke_m	m	n/a
183.6775	0.096	367355	keystroke_o	o	n/a
183.8295	0.088	367659	keystroke_d	d	n/a
183.9735	0.088	367947	keystroke_i	i	n/a
184.6215	0.136	369243	keystroke_f	f	n/a
185.0935	0.12	370187	keystroke_i	i	n/a
186.9415	0.104	373883	keystroke_c	c	n/a
187.3175	0.144	374635	keystroke_a	a	n/a
187.629	0.08	375258	keystroke_t	t	n/a
187.741	0.08	375482	keystroke_i	i	n/a
187.933	0.096	375866	keystroke_o	o	n/a
188.101	0.104	376202	keystroke_n	n	n/a
188.5255	0.088	377051	keystroke_s	s	n/a
188.7655	0.096	377531	keystroke_Key.space	Key.space	n/a
189.005	0.088	378010	keystroke_w	w	n/a
189.1415	0.096	378283	keystroke_i	i	n/a
189.3975	0.0555	378795	keystroke_d	d	n/a
189.8135	0.112	379627	keystroke_e	e	n/a
190.205	0.128	380410	keystroke_s	s	n/a
190.549	0.144	381098	keystroke_p	p	n/a
190.8695	0.0955	381739	keystroke_r	r	n/a
191.077	0.08	382154	keystroke_e	e	n/a
191.301	0.096	382602	keystroke_a	a	n/a
191.5175	0.032	383035	keystroke_d	d	n/a
192.301	0.08	384602	keystroke_Key.enter	Key.enter	n/a
192.3895	7.9135	384779	prompt	n/a	witch vendor incidents perhaps\n
193.196	0.089	386392	keystroke_w	w	n/a
193.317	0.08	386634	keystroke_i	i	n/a
193.461	0.064	386922	keystroke_t	t	n/a
193.573	0.088	387146	keystroke_h	h	n/a
194.413	0.095	388826	keystroke_Key.backspace	Key.backspace	n/a
194.7415	0.096	389483	keystroke_c	c	n/a
194.8935	0.1035	389787	keystroke_h	h	n/a
195.197	0.088	390394	keystroke_Key.space	Key.space	n/a
195.501	0.096	391002	keystroke_v	v	n/a
195.757	0.096	391514	keystroke_e	e	n/a
195.901	0.104	391802	keystroke_n	n	n/a
196.069	0.08	392138	keystroke_d	d	n/a
196.2215	0.088	392443	keystroke_o	o	n/a
196.4615	0.096	392923	keystroke_r	r	n/a
196.9335	0.0785	393867	keystroke_Key.space	Key.space	n/a
197.109	0.08	394218	keystroke_i	i	n/a
197.2615	0.0875	394523	keystroke_n	n	n/a
197.549	0.112	395098	keystroke_c	c	n/a
197.669	0.08	395338	keystroke_i	i	n/a
197.861	0.096	395722	keystroke_d	d	n/a
198.061	0.096	396122	keystroke_e	e	n/a
198.181	0.072	396362	keystroke_n	n	n/a
198.309	0.064	396618	keystroke_t	t	n/a
198.533	0.096	397066	keystroke_s	s	n/a
198.7	0.088	397400	keystroke_Key.space	Key.space	n/a
198.909	0.104	397818	keystroke_p	p	n/a
199.053	0.096	398106	keystroke_e	e	n/a
199.237	0.064	398474	keystroke_r	r	n/a
199.397	0.08	398794	keystroke_h	h	n/a
199.541	0.088	399082	keystroke_a	a	n/a
199.701	0.096	399402	keystroke_p	p	n/a
199.837	0.088	399674	keystroke_s	s	n/a
200.221	0.08	400442	keystroke_Key.enter	Key.enter	n/a
200.3085	8.434	400617	prompt	n/a	prepaid graduated scanner brief\n
200.901	0.112	401802	keystroke_p	p	n/a
201.093	0.096	402186	keystroke_r	r	n/a
201.205	0.08	402410	keystroke_e	e	n/a
201.405	0.08	402810	keystroke_p	p	n/a
201.573	0.112	403146	keystroke_a	a	n/a
201.789	0.088	403578	keystroke_i	i	n/a
201.981	0.072	403962	keystroke_d	d	n/a
202.189	0.103	404378	keystroke_Key.space	Key.space	n/a
202.509	0.12	405018	keystroke_g	g	n/a
202.805	0.088	405610	keystroke_r	r	n/a
203.213	0.128	406426	keystroke_a	a	n/a
203.685	0.096	407370	keystroke_d	d	n/a
203.893	0.079	407786	keystroke_u	u	n/a
204.076	0.12	408152	keystroke_a	a	n/a
204.293	0.112	408586	keystroke_t	t	n/a
204.565	0.088	409130	keystroke_e	e	n/a
204.901	0.096	409802	keystroke_d	d	n/a
205.173	0.088	410346	keystroke_Key.space	Key.space	n/a
205.309	0.08	410618	keystroke_s	s	n/a
205.509	0.072	411018	keystroke_c	c	n/a
205.653	0.088	411306	keystroke_a	a	n/a
205.853	0.08	411706	keystroke_n	n	n/a
206.021	0.08	412042	keystroke_n	n	n/a
206.165	0.08	412330	keystroke_e	e	n/a
206.325	0.072	412650	keystroke_r	r	n/a
206.437	0.096	412874	keystroke_Key.space	Key.space	n/a
206.709	0.096	413418	keystroke_b	b	n/a
207.004	0.088	414008	keystroke_r	r	n/a
207.389	0.104	414778	keystroke_i	i	n/a
207.652	0.105	415304	keystroke_e	e	n/a
208.0365	0.088	416073	keystroke_f	f	n/a
208.6445	0.096	417289	keystroke_Key.enter	Key.enter	n/a
208.7575	6.601	417515	prompt	n/a	scenic marie principles suse\n
209.5245	0.096	419049	keystroke_s	s	n/a
209.7245	0.096	419449	keystroke_c	c	n/a
209.9245	0.08	419849	keystroke_e	e	n/a
210.0765	0.104	420153	keystroke_n	n	n/a
210.2525	0.08	420505	keystroke_i	i	n/a
210.4205	0.096	420841	keystroke_c	c	n/a
210.6125	0.104	421225	keystroke_Key.space	Key.space	n/a
210.8445	0.104	421689	keystroke_m	m	n/a
210.9965	0.104	421993	keystroke_a	a	n/a
211.1805	0.08	422361	keystroke_r	r	n/a
211.2925	0.096	422585	keystroke_i	i	n/a
211.4045	0.088	422809	keystroke_e	e	n/a
211.5485	0.096	423097	keystroke_Key.space	Key.space	n/a
211.7805	0.08	423561	keystroke_p	p	n/a
211.9485	0.08	423897	keystroke_r	r	n/a
212.0925	0.08	424185	keystroke_i	i	n/a
212.2045	0.088	424409	keystroke_n	n	n/a
212.4525	0.088	424905	keystroke_c	c	n/a
212.7405	0.112	425481	keystroke_i	i	n/a
213.1245	0.144	426249	keystroke_p	p	n/a
213.5965	0.112	427193	keystroke_l	l	n/a
213.7565	0.08	427513	keystroke_e	e	n/a
214.0685	0.072	428137	keystroke_s	s	n/a
214.4445	0.096	428889	keystroke_Key.space	Key.space	n/a
214.6685	0.096	429337	keystroke_s	s	n/a
214.8205	0.096	429641	keystroke_u	u	n/a
214.9565	0.08	429913	keystroke_s	s	n/a
215.1405	0.08	430281	keystroke_e	e	n/a
215.2845	0.072	430569	keystroke_Key.enter	Key.enter	n/a
215.3635	7.851	430727	prompt	n/a	indicates featured neil rise\n
216.0925	0.104	432185	keystroke_i	i	n/a
216.2685	0.08	432537	keystroke_n	n	n/a
216.6445	0.096	433289	keystroke_i	i	n/a
217.0125	0.08	434025	keystroke_Key.backspace	Key.backspace	n/a
217.1245	0.104	434249	keystroke_d	d	n/a
217.5005	0.096	435001	keystroke_i	i	n/a
217.7005	0.112	435401	keystroke_c	c	n/a
217.9165	0.104	435833	keystroke_a	a	n/a
218.1405	0.08	436281	keystroke_t	t	n/a
218.3005	0.08	436601	keystroke_e	e	n/a
218.5005	0.088	437001	keystroke_s	s	n/a
218.6125	0.104	437225	keystroke_Key.space	Key.space	n/a
218.9725	0.104	437945	keystroke_f	f	n/a
219.2045	0.096	438409	keystroke_e	e	n/a
219.4205	0.096	438841	keystroke_a	a	n/a
219.6525	0.072	439305	keystroke_t	t	n/a
219.7725	0.088	439545	keystroke_u	u	n/a
219.9005	0.088	439801	keystroke_r	r	n/a
220.0045	0.12	440009	keystroke_e	e	n/a
220.2685	0.104	440537	keystroke_d	d	n/a
220.6365	0.08	441273	keystroke_Key.space	Key.space	n/a
220.8845	0.112	441769	keystroke_n	n	n/a
221.0365	0.096	442073	keystroke_e	e	n/a
221.2845	0.104	442569	keystroke_i	i	n/a
221.6365	0.136	443273	keystroke_l	l	n/a
222.1565	0.104	444313	keystroke_Key.space	Key.space	n/a
222.4125	0.08	444825	keystroke_r	r	n/a
222.5565	0.096	445113	keystroke_i	i	n/a
222.7005	0.088	445401	keystroke_s	s	n/a
222.8925	0.096	445785	keystroke_e	e	n/a
223.1405	0.072	446281	keystroke_Key.enter	Key.enter	n/a
223.221	12.0645	446442	prompt	n/a	warriors ralph seniors murder\n
223.9645	0.112	447929	keystroke_w	w	n/a
224.1645	0.096	448329	keystroke_a	a	n/a
224.3725	0.104	448745	keystroke_r	r	n/a
224.5805	0.08	449161	keystroke_r	r	n/a
225.0445	0.104	450089	keystroke_i	i	n/a
225.3245	0.088	450649	keystroke_o	o	n/a
225.5485	0.088	451097	keystroke_r	r	n/a
225.8685	0.096	451737	keystroke_s	s	n/a
226.0845	0.104	452169	keystroke_Key.space	Key.space	n/a
226.3645	0.128	452729	keystroke_r	r	n/a
226.6685	0.088	453337	keystroke_a	a	n/a
226.8765	0.104	453753	keystroke_p	p	n/a
227.1565	0.128	454313	keystroke_h	h	n/a
227.7405	0.128	455481	keystroke_l	l	n/a
228.0605	0.096	456121	keystroke_Key.backspace	Key.backspace	n/a
228.2365	0.08	456473	keystroke_Key.backspace	Key.backspace	n/a
228.5885	0.136	457177	keystroke_l	l	n/a
229.4445	0.112	458889	keystroke_Key.backspace	Key.backspace	n/a
229.9565	0.12	459913	keystroke_Key.backspace	Key.backspace	n/a
230.2365	0.128	460473	keystroke_l	l	n/a
230.7165	0.096	461433	keystroke_p	p	n/a
230.9565	0.096	461913	keystroke_j	j	n/a
231.4845	0.088	462969	keystroke_Key.backspace	Key.backspace	n/a
231.9405	0.08	463881	keystroke_h	h	n/a
232.5085	0.088	465017	keystroke_Key.space	Key.space	n/a
232.7485	0.096	465497	keystroke_s	s	n/a
232.9725	0.096	465945	keystroke_e	e	n/a
233.1325	0.104	466265	keystroke_n	n	n/a
233.3165	0.096	466633	keystroke_i	i	n/a
233.5565	0.088	467113	keystroke_o	o	n/a
233.6845	0.104	467369	keystroke_r	r	n/a
233.9245	0.096	467849	keystroke_s	s	n/a
234.0525	0.088	468105	keystroke_Key.space	Key.space	n/a
234.2285	0.088	468457	keystroke_m	m	n/a
234.4445	0.08	468889	keystroke_u	u	n/a
234.5805	0.096	469161	keystroke_r	r	n/a
234.8125	0.096	469625	keystroke_d	d	n/a
234.9565	0.08	469913	keystroke_e	e	n/a
235.0765	0.072	470153	keystroke_r	r	n/a
235.2125	0.072	470425	keystroke_Key.enter	Key.enter	n/a
235.2905	8.619	470581	prompt	n/a	amanda tested adjustments toolbox\n
235.9885	0.096	471977	keystroke_a	a	n/a
236.1725	0.112	472345	keystroke_m	m	n/a
236.3405	0.096	472681	keystroke_a	a	n/a
236.4685	0.072	472937	keystroke_n	n	n/a
236.5965	0.096	473193	keystroke_d	d	n/a
236.7485	0.096	473497	keystroke_a	a	n/a
236.9165	0.104	473833	keystroke_Key.space	Key.space	n/a
237.1325	0.088	474265	keystroke_t	t	n/a
237.3005	0.072	474601	keystroke_e	e	n/a
237.4685	0.08	474937	keystroke_s	s	n/a
237.66	0.072	475320	keystroke_t	t	n/a
237.796	0.104	475592	keystroke_e	e	n/a
238.044	0.104	476088	keystroke_d	d	n/a
238.364	0.0965	476728	keystroke_Key.space	Key.space	n/a
238.5485	0.112	477097	keystroke_a	a	n/a
238.74	0.104	477480	keystroke_d	d	n/a
239.0765	0.112	478153	keystroke_j	j	n/a
239.3085	0.064	478617	keystroke_u	u	n/a
239.4205	0.1035	478841	keystroke_s	s	n/a
239.772	0.072	479544	keystroke_t	t	n/a
240.044	0.112	480088	keystroke_m	m	n/a
240.1725	0.112	480345	keystroke_e	e	n/a
240.292	0.0885	480584	keystroke_n	n	n/a
240.4045	0.056	480809	keystroke_t	t	n/a
240.604	0.08	481208	keystroke_s	s	n/a
240.716	0.096	481432	keystroke_Key.space	Key.space	n/a
240.876	0.072	481752	keystroke_t	t	n/a
240.98	0.08	481960	keystroke_o	o	n/a
241.14	0.096	482280	keystroke_o	o	n/a
241.452	0.104	482904	keystroke_l	l	n/a
241.932	0.08	483864	keystroke_b	b	n/a
242.052	0.08	484104	keystroke_o	o	n/a
242.26	0.112	484520	keystroke_c	c	n/a
242.844	0.088	485688	keystroke_Key.backspace	Key.backspace	n/a
242.98	0.096	485960	keystroke_x	x	n/a
243.828	0.08	487656	keystroke_Key.enter	Key.enter	n/a
243.915	7.331	487830	prompt	n/a	lord spell butts breakfast\n
244.508	0.136	489016	keystroke_l	l	n/a
244.732	0.08	489464	keystroke_o	o	n/a
244.836	0.08	489672	keystroke_r	r	n/a
245.036	0.088	490072	keystroke_d	d	n/a
245.156	0.088	490312	keystroke_Key.space	Key.space	n/a
245.316	0.112	490632	keystroke_s	s	n/a
245.452	0.088	490904	keystroke_p	p	n/a
245.588	0.072	491176	keystroke_e	e	n/a
245.708	0.088	491416	keystroke_l	l	n/a
245.892	0.088	491784	keystroke_l	l	n/a
246.02	0.088	492040	keystroke_Key.space	Key.space	n/a
246.212	0.088	492424	keystroke_b	b	n/a
246.332	0.072	492664	keystroke_u	u	n/a
246.476	0.064	492952	keystroke_t	t	n/a
246.636	0.072	493272	keystroke_t	t	n/a
246.868	0.088	493736	keystroke_s	s	n/a
248.1	0.096	496200	keystroke_Key.space	Key.space	n/a
248.38	0.112	496760	keystroke_b	b	n/a
248.604	0.088	497208	keystroke_r	r	n/a
248.732	0.096	497464	keystroke_e	e	n/a
248.9	0.08	497800	keystroke_a	a	n/a
249.02	0.096	498040	keystroke_k	k	n/a
249.428	0.08	498856	keystroke_d	d	n/a
249.7	0.12	499400	keystroke_a	a	n/a
249.948	0.064	499896	keystroke_Key.backspace	Key.backspace	n/a
250.092	0.08	500184	keystroke_Key.backspace	Key.backspace	n/a
250.156	0.096	500312	keystroke_f	f	n/a
250.308	0.096	500616	keystroke_a	a	n/a
250.476	0.112	500952	keystroke_s	s	n/a
250.732	0.088	501464	keystroke_t	t	n/a
251.164	0.08	502328	keystroke_Key.enter	Key.enter	n/a
251.2515	6.93	502503	prompt	n/a	attached lower setting rage\n
252.18	0.144	504360	keystroke_a	a	n/a
252.444	0.08	504888	keystroke_t	t	n/a
252.62	0.064	505240	keystroke_t	t	n/a
252.772	0.104	505544	keystroke_a	a	n/a
252.964	0.088	505928	keystroke_c	c	n/a
253.1	0.04	506200	keystroke_h	h	n/a
253.9	0.088	507800	keystroke_e	e	n/a
254.14	0.104	508280	keystroke_d	d	n/a
254.316	0.112	508632	keystroke_Key.space	Key.space	n/a
254.508	0.096	509016	keystroke_l	l	n/a
254.7	0.072	509400	keystroke_o	o	n/a
254.8195	0.088	509639	keystroke_w	w	n/a
254.9955	0.08	509991	keystroke_e	e	n/a
255.204	0.064	510408	keystroke_r	r	n/a
255.348	0.088	510696	keystroke_Key.space	Key.space	n/a
255.476	0.088	510952	keystroke_s	s	n/a
255.692	0.08	511384	keystroke_e	e	n/a
255.868	0.096	511736	keystroke_t	t	n/a
256.076	0.064	512152	keystroke_t	t	n/a
256.204	0.088	512408	keystroke_i	i	n/a
256.332	0.104	512664	keystroke_n	n	n/a
256.524	0.08	513048	keystroke_g	g	n/a
256.852	0.104	513704	keystroke_Key.space	Key.space	n/a
257.0595	0.096	514119	keystroke_r	r	n/a
257.2515	0.104	514503	keystroke_a	a	n/a
257.4595	0.096	514919	keystroke_g	g	n/a
257.6355	0.072	515271	keystroke_e	e	n/a
258.0995	0.08	516199	keystroke_Key.enter	Key.enter	n/a
258.1875	6.314	516375	prompt	n/a	bowl lock slovak hook\n
258.9875	0.088	517975	keystroke_b	b	n/a
259.1155	0.08	518231	keystroke_o	o	n/a
259.2595	0.072	518519	keystroke_w	w	n/a
259.4595	0.104	518919	keystroke_l	l	n/a
259.8355	0.104	519671	keystroke_Key.space	Key.space	n/a
260.0275	0.088	520055	keystroke_l	l	n/a
260.2195	0.088	520439	keystroke_o	o	n/a
260.3715	0.088	520743	keystroke_c	c	n/a
260.4915	0.072	520983	keystroke_k	k	n/a
260.7955	0.104	521591	keystroke_Key.space	Key.space	n/a
261.1395	0.112	522279	keystroke_s	s	n/a
261.3635	0.112	522727	keystroke_l	l	n/a
261.6195	0.072	523239	keystroke_o	o	n/a
261.8915	0.104	523783	keystroke_v	v	n/a
262.8595	0.096	525719	keystroke_a	a	n/a
263.0915	0.144	526183	keystroke_k	k	n/a
263.3635	0.096	526727	keystroke_Key.space	Key.space	n/a
263.5475	0.08	527095	keystroke_h	h	n/a
263.7395	0.08	527479	keystroke_o	o	n/a
263.8995	0.072	527799	keystroke_o	o	n/a
264.0435	0.104	528087	keystroke_k	k	n/a
264.4275	0.072	528855	keystroke_Key.enter	Key.enter	n/a
264.507	6.026	529014	prompt	n/a	brakes hostels rivers ever\n
265.2035	0.096	530407	keystroke_b	b	n/a
265.4195	0.096	530839	keystroke_r	r	n/a
265.6355	0.104	531271	keystroke_a	a	n/a
265.7955	0.088	531591	keystroke_k	k	n/a
265.9395	0.096	531879	keystroke_e	e	n/a
266.1635	0.104	532327	keystroke_s	s	n/a
266.3555	0.08	532711	keystroke_Key.space	Key.space	n/a
266.6035	0.072	533207	keystroke_h	h	n/a
266.7635	0.096	533527	keystroke_o	o	n/a
266.8915	0.096	533783	keystroke_s	s	n/a
267.0835	0.08	534167	keystroke_t	t	n/a
267.2355	0.08	534471	keystroke_e	e	n/a
267.435	0.1285	534870	keystroke_l	l	n/a
267.6595	0.072	535319	keystroke_s	s	n/a
267.8435	0.08	535687	keystroke_Key.space	Key.space	n/a
268.0435	0.08	536087	keystroke_r	r	n/a
268.1875	0.0795	536375	keystroke_i	i	n/a
268.379	0.096	536758	keystroke_v	v	n/a
268.5955	0.072	537191	keystroke_e	e	n/a
268.7475	0.072	537495	keystroke_r	r	n/a
268.9395	0.096	537879	keystroke_s	s	n/a
269.0995	0.104	538199	keystroke_Key.space	Key.space	n/a
269.3955	0.088	538791	keystroke_e	e	n/a
269.6185	0.081	539237	keystroke_v	v	n/a
269.7715	0.088	539543	keystroke_e	e	n/a
269.9315	0.08	539863	keystroke_r	r	n/a
270.4435	0.088	540887	keystroke_Key.enter	Key.enter	n/a
270.5365	9.772	541073	prompt	n/a	wine excellence describes shaped\n
271.3075	0.104	542615	keystroke_w	w	n/a
271.4515	0.08	542903	keystroke_i	i	n/a
271.6355	0.088	543271	keystroke_n	n	n/a
271.9315	0.08	543863	keystroke_c	c	n/a
272.2835	0.088	544567	keystroke_Key.backspace	Key.backspace	n/a
272.3795	0.088	544759	keystroke_e	e	n/a
272.603	0.104	545206	keystroke_Key.space	Key.space	n/a
272.891	0.104	545782	keystroke_e	e	n/a
273.131	0.104	546262	keystroke_x	x	n/a
273.395	0.088	546790	keystroke_c	c	n/a
273.667	0.112	547334	keystroke_e	e	n/a
273.947	0.08	547894	keystroke_l	l	n/a
274.115	0.104	548230	keystroke_l	l	n/a
274.275	0.072	548550	keystroke_e	e	n/a
274.459	0.112	548918	keystroke_n	n	n/a
274.707	0.088	549414	keystroke_c	c	n/a
275.1555	0.0955	550311	keystroke_e	e	n/a
275.339	0.087	550678	keystroke_Key.space	Key.space	n/a
275.539	0.104	551078	keystroke_d	d	n/a
275.731	0.072	551462	keystroke_e	e	n/a
275.923	0.088	551846	keystroke_s	s	n/a
276.155	0.096	552310	keystroke_c	c	n/a
276.379	0.064	552758	keystroke_r	r	n/a
276.499	0.088	552998	keystroke_i	i	n/a
277.107	0.144	554214	keystroke_e	e	n/a
277.619	0.096	555238	keystroke_Key.backspace	Key.backspace	n/a
278.251	0.096	556502	keystroke_b	b	n/a
278.523	0.104	557046	keystroke_e	e	n/a
278.787	0.104	557574	keystroke_s	s	n/a
279.0185	0.096	558037	keystroke_Key.space	Key.space	n/a
279.1625	0.096	558325	keystroke_s	s	n/a
279.355	0.08	558710	keystroke_h	h	n/a
279.507	0.096	559014	keystroke_a	a	n/a
279.683	0.12	559366	keystroke_p	p	n/a
279.891	0.072	559782	keystroke_e	e	n/a
280.075	0.064	560150	keystroke_d	d	n/a
280.235	0.072	560470	keystroke_Key.enter	Key.enter	n/a
280.3145	9.178	560629	prompt	n/a	fluid raised theories services\n
281.427	0.072	562854	keystroke_f	f	n/a
281.539	0.088	563078	keystroke_l	l	n/a
281.779	0.072	563558	keystroke_u	u	n/a
281.955	0.08	563910	keystroke_i	i	n/a
282.163	0.088	564326	keystroke_d	d	n/a
282.45	0.105	564900	keystroke_Key.space	Key.space	n/a
282.667	0.144	565334	keystroke_r	r	n/a
282.971	0.096	565942	keystroke_a	a	n/a
283.067	0.095	566134	keystroke_i	i	n/a
283.251	0.08	566502	keystroke_s	s	n/a
283.459	0.08	566918	keystroke_e	e	n/a
283.667	0.088	567334	keystroke_d	d	n/a
283.939	0.08	567878	keystroke_Key.space	Key.space	n/a
284.107	0.072	568214	keystroke_t	t	n/a
284.259	0.08	568518	keystroke_h	h	n/a
284.643	0.112	569286	keystroke_e	e	n/a
284.898	0.072	569796	keystroke_Key.backspace	Key.backspace	n/a
285.379	0.08	570758	keystroke_e	e	n/a
285.683	0.096	571366	keystroke_o	o	n/a
286.059	0.104	572118	keystroke_r	r	n/a
286.315	0.096	572630	keystroke_i	i	n/a
286.435	0.08	572870	keystroke_e	e	n/a
286.675	0.096	573350	keystroke_s	s	n/a
287.123	0.103	574246	keystroke_Key.space	Key.space	n/a
287.363	0.136	574726	keystroke_s	s	n/a
287.619	0.08	575238	keystroke_e	e	n/a
287.787	0.088	575574	keystroke_r	r	n/a
288.019	0.08	576038	keystroke_v	v	n/a
288.163	0.104	576326	keystroke_i	i	n/a
288.347	0.072	576694	keystroke_c	c	n/a
288.523	0.08	577046	keystroke_e	e	n/a
288.723	0.104	577446	keystroke_s	s	n/a
289.411	0.079	578822	keystroke_Key.enter	Key.enter	n/a
289.5005	7.6885	579001	prompt	n/a	situations weighted mins lotus\n
290.307	0.128	580614	keystroke_s	s	n/a
290.459	0.08	580918	keystroke_i	i	n/a
290.707	0.08	581414	keystroke_t	t	n/a
290.843	0.088	581686	keystroke_u	u	n/a
291.154	0.089	582308	keystroke_a	a	n/a
291.658	0.073	583316	keystroke_t	t	n/a
291.787	0.096	583574	keystroke_i	i	n/a
291.994	0.089	583988	keystroke_o	o	n/a
292.155	0.112	584310	keystroke_n	n	n/a
292.323	0.088	584646	keystroke_s	s	n/a
292.427	0.112	584854	keystroke_Key.space	Key.space	n/a
292.675	0.096	585350	keystroke_w	w	n/a
293.123	0.096	586246	keystroke_e	e	n/a
293.323	0.088	586646	keystroke_i	i	n/a
293.619	0.112	587238	keystroke_g	g	n/a
293.851	0.104	587702	keystroke_h	h	n/a
294.035	0.088	588070	keystroke_t	t	n/a
294.2355	0.088	588471	keystroke_e	e	n/a
294.635	0.072	589270	keystroke_d	d	n/a
295.2505	0.0885	590501	keystroke_Key.space	Key.space	n/a
295.451	0.1035	590902	keystroke_m	m	n/a
295.627	0.088	591254	keystroke_i	i	n/a
295.699	0.104	591398	keystroke_n	n	n/a
295.883	0.104	591766	keystroke_s	s	n/a
295.9945	0.0885	591989	keystroke_Key.space	Key.space	n/a
296.171	0.08	592342	keystroke_l	l	n/a
296.362	0.073	592724	keystroke_o	o	n/a
296.523	0.08	593046	keystroke_t	t	n/a
296.683	0.064	593366	keystroke_u	u	n/a
296.859	0.08	593718	keystroke_s	s	n/a
297.115	0.072	594230	keystroke_Key.enter	Key.enter	n/a
297.195	6.7375	594390	prompt	n/a	middle informative attending weak\n
297.89	0.113	595780	keystroke_m	m	n/a
298.395	0.088	596790	keystroke_i	i	n/a
298.619	0.088	597238	keystroke_d	d	n/a
298.803	0.104	597606	keystroke_d	d	n/a
298.955	0.088	597910	keystroke_l	l	n/a
299.147	0.08	598294	keystroke_e	e	n/a
299.283	0.071	598566	keystroke_Key.space	Key.space	n/a
299.459	0.088	598918	keystroke_i	i	n/a
299.619	0.08	599238	keystroke_n	n	n/a
299.851	0.103	599702	keystroke_f	f	n/a
300.011	0.088	600022	keystroke_o	o	n/a
300.155	0.063	600310	keystroke_r	r	n/a
300.307	0.08	600614	keystroke_m	m	n/a
300.474	0.089	600948	keystroke_a	a	n/a
300.675	0.064	601350	keystroke_t	t	n/a
300.762	0.081	601524	keystroke_i	i	n/a
300.914	0.105	601828	keystroke_v	v	n/a
301.106	0.081	602212	keystroke_e	e	n/a
301.41	0.08	602820	keystroke_Key.space	Key.space	n/a
301.731	0.12	603462	keystroke_a	a	n/a
301.939	0.079	603878	keystroke_t	t	n/a
302.107	0.063	604214	keystroke_t	t	n/a
302.219	0.071	604438	keystroke_e	e	n/a
302.331	0.08	604662	keystroke_n	n	n/a
302.427	0.087	604854	keystroke_d	d	n/a
302.547	0.112	605094	keystroke_i	i	n/a
302.635	0.088	605270	keystroke_n	n	n/a
302.77	0.065	605540	keystroke_g	g	n/a
302.858	0.096	605716	keystroke_Key.space	Key.space	n/a
302.995	0.103	605990	keystroke_w	w	n/a
303.178	0.088	606356	keystroke_e	e	n/a
303.354	0.097	606708	keystroke_a	a	n/a
303.531	0.135	607062	keystroke_k	k	n/a
303.842	0.088	607684	keystroke_Key.enter	Key.enter	n/a
303.9365	12.517	607873	prompt	n/a	how'll iraqi jewel disabilities\n
304.667	0.064	609334	keystroke_h	h	n/a
304.81	0.096	609620	keystroke_o	o	n/a
304.979	0.103	609958	keystroke_w	w	n/a
305.427	0.127	610854	keystroke_'	'	n/a
305.907	0.135	611814	keystroke_l	l	n/a
306.179	0.088	612358	keystroke_l	l	n/a
306.458	0.089	612916	keystroke_Key.space	Key.space	n/a
306.667	0.104	613334	keystroke_i	i	n/a
307.203	0.08	614406	keystroke_w	w	n/a
307.53	0.088	615060	keystroke_Key.backspace	Key.backspace	n/a
307.658	0.096	615316	keystroke_r	r	n/a
308.067	0.0955	616134	keystroke_a	a	n/a
308.65	0.1045	617300	keystroke_q	q	n/a
309.2905	0.136	618581	keystroke_i	i	n/a
309.5545	0.088	619109	keystroke_Key.space	Key.space	n/a
309.7945	0.056	619589	keystroke_j	j	n/a
310.3225	0.0885	620645	keystroke_e	e	n/a
310.5545	0.112	621109	keystroke_w	w	n/a
310.7865	0.096	621573	keystroke_e	e	n/a
310.9465	0.12	621893	keystroke_l	l	n/a
311.2985	0.096	622597	keystroke_Key.space	Key.space	n/a
311.7945	0.104	623589	keystroke_s	s	n/a
312.5865	0.081	625173	keystroke_Key.backspace	Key.backspace	n/a
312.7155	0.079	625431	keystroke_d	d	n/a
312.8585	0.08	625717	keystroke_i	i	n/a
313.0105	0.088	626021	keystroke_s	s	n/a
313.4185	0.088	626837	keystroke_a	a	n/a
313.7475	0.079	627495	keystroke_v	v	n/a
314.2985	0.088	628597	keystroke_Key.backspace	Key.backspace	n/a
314.3785	0.073	628757	keystroke_b	b	n/a
314.6185	0.1205	629237	keystroke_i	i	n/a
314.8905	0.104	629781	keystroke_l	l	n/a
315.0985	0.088	630197	keystroke_i	i	n/a
315.2585	0.08	630517	keystroke_t	t	n/a
315.3785	0.08	630757	keystroke_i	i	n/a
315.4985	0.072	630997	keystroke_e	e	n/a
315.6825	0.088	631365	keystroke_s	s	n/a
316.3785	0.072	632757	keystroke_Key.enter	Key.enter	n/a
316.459	10.7535	632918	prompt	n/a	steve celebs adjustable retailers\n
317.1705	0.088	634341	keystroke_s	s	n/a
317.387	0.072	634774	keystroke_t	t	n/a
317.523	0.072	635046	keystroke_e	e	n/a
317.7225	0.0645	635445	keystroke_v	v	n/a
317.8745	0.088	635749	keystroke_e	e	n/a
318.0505	0.096	636101	keystroke_Key.space	Key.space	n/a
318.435	0.1195	636870	keystroke_c	c	n/a
318.6825	0.0885	637365	keystroke_e	e	n/a
318.851	0.112	637702	keystroke_l	l	n/a
319.0105	0.072	638021	keystroke_e	e	n/a
319.307	0.096	638614	keystroke_v	v	n/a
319.907	0.064	639814	keystroke_Key.backspace	Key.backspace	n/a
320.011	0.088	640022	keystroke_b	b	n/a
320.251	0.088	640502	keystroke_s	s	n/a
321.1315	0.087	642263	keystroke_Key.space	Key.space	n/a
321.3555	0.096	642711	keystroke_a	a	n/a
321.5235	0.112	643047	keystroke_d	d	n/a
321.7945	0.097	643589	keystroke_j	j	n/a
322.0435	0.08	644087	keystroke_u	u	n/a
322.1795	0.087	644359	keystroke_s	s	n/a
322.3875	0.08	644775	keystroke_t	t	n/a
322.715	0.088	645430	keystroke_a	a	n/a
323.0355	0.096	646071	keystroke_b	b	n/a
323.171	0.104	646342	keystroke_l	l	n/a
323.339	0.064	646678	keystroke_e	e	n/a
323.5555	0.08	647111	keystroke_s	s	n/a
324.0505	0.072	648101	keystroke_Key.backspace	Key.backspace	n/a
324.2505	0.1115	648501	keystroke_Key.space	Key.space	n/a
324.539	0.096	649078	keystroke_r	r	n/a
324.7545	0.081	649509	keystroke_e	e	n/a
325.4675	0.096	650935	keystroke_t	t	n/a
325.7635	0.087	651527	keystroke_a	a	n/a
325.9625	0.081	651925	keystroke_i	i	n/a
326.1795	0.096	652359	keystroke_l	l	n/a
326.3155	0.079	652631	keystroke_e	e	n/a
326.5875	0.096	653175	keystroke_r	r	n/a
326.8505	0.096	653701	keystroke_s	s	n/a
327.1395	0.0705	654279	keystroke_Key.enter	Key.enter	n/a
327.2195	6.6175	654439	prompt	n/a	town stronger provisions days\n
327.891	0.088	655782	keystroke_t	t	n/a
328.019	0.08	656038	keystroke_o	o	n/a
328.123	0.071	656246	keystroke_w	w	n/a
328.251	0.08	656502	keystroke_n	n	n/a
328.451	0.087	656902	keystroke_Key.space	Key.space	n/a
328.547	0.096	657094	keystroke_s	s	n/a
328.762	0.073	657524	keystroke_t	t	n/a
328.986	0.12	657972	keystroke_r	r	n/a
329.251	0.0885	658502	keystroke_o	o	n/a
329.395	0.08	658790	keystroke_n	n	n/a
329.539	0.08	659078	keystroke_g	g	n/a
329.747	0.096	659494	keystroke_e	e	n/a
329.931	0.088	659862	keystroke_r	r	n/a
330.138	0.113	660276	keystroke_Key.space	Key.space	n/a
330.355	0.111	660710	keystroke_p	p	n/a
330.507	0.0805	661014	keystroke_r	r	n/a
330.643	0.08	661286	keystroke_o	o	n/a
330.827	0.095	661654	keystroke_v	v	n/a
331.01	0.088	662020	keystroke_i	i	n/a
331.234	0.089	662468	keystroke_s	s	n/a
331.4355	0.104	662871	keystroke_i	i	n/a
331.6435	0.088	663287	keystroke_o	o	n/a
331.7715	0.096	663543	keystroke_n	n	n/a
331.9315	0.064	663863	keystroke_s	s	n/a
332.1155	0.087	664231	keystroke_Key.space	Key.space	n/a
332.4755	0.111	664951	keystroke_d	d	n/a
332.7155	0.104	665431	keystroke_a	a	n/a
332.9315	0.072	665863	keystroke_y	y	n/a
333.4995	0.096	666999	keystroke_s	s	n/a
333.7555	0.08	667511	keystroke_Key.enter	Key.enter	n/a
333.8425	10.8905	667685	prompt	n/a	relative analyzes archived consultants\n
334.5875	0.087	669175	keystroke_r	r	n/a
334.7395	0.112	669479	keystroke_e	e	n/a
334.9635	0.072	669927	keystroke_l	l	n/a
335.1235	0.104	670247	keystroke_a	a	n/a
335.3555	0.072	670711	keystroke_t	t	n/a
335.6275	0.088	671255	keystroke_i	i	n/a
335.9395	0.12	671879	keystroke_v	v	n/a
336.1635	0.088	672327	keystroke_e	e	n/a
336.3545	0.136	672709	keystroke_Key.space	Key.space	n/a
336.715	0.12	673430	keystroke_a	a	n/a
337.1075	0.096	674215	keystroke_n	n	n/a
337.2835	0.088	674567	keystroke_a	a	n/a
337.4275	0.12	674855	keystroke_l	l	n/a
338.331	0.063	676662	keystroke_y	y	n/a
338.675	0.128	677350	keystroke_z	z	n/a
338.97	0.104	677940	keystroke_e	e	n/a
339.523	0.104	679046	keystroke_s	s	n/a
340.026	0.112	680052	keystroke_Key.space	Key.space	n/a
340.291	0.12	680582	keystroke_a	a	n/a
340.515	0.112	681030	keystroke_r	r	n/a
341.011	0.08	682022	keystroke_c	c	n/a
341.179	0.088	682358	keystroke_h	h	n/a
341.347	0.079	682694	keystroke_i	i	n/a
341.835	0.112	683670	keystroke_v	v	n/a
342.067	0.095	684134	keystroke_e	e	n/a
342.283	0.096	684566	keystroke_d	d	n/a
342.514	0.096	685028	keystroke_Key.space	Key.space	n/a
342.931	0.08	685862	keystroke_c	c	n/a
343.027	0.087	686054	keystroke_o	o	n/a
343.1385	0.08	686277	keystroke_n	n	n/a
343.2905	0.096	686581	keystroke_s	s	n/a
343.4505	0.088	686901	keystroke_u	u	n/a
343.6665	0.096	687333	keystroke_l	l	n/a
343.8425	0.08	687685	keystroke_t	t	n/a
344.0025	0.096	688005	keystroke_a	a	n/a
344.0905	0.064	688181	keystroke_n	n	n/a
344.2025	0.056	688405	keystroke_t	t	n/a
344.3705	0.08	688741	keystroke_s	s	n/a
344.6585	0.072	689317	keystroke_Key.enter	Key.enter	n/a
344.739	7.4095	689478	prompt	n/a	albums today borders spider\n
345.3555	0.103	690711	keystroke_a	a	n/a
345.6505	0.032	691301	keystroke_b	b	n/a
346.0585	0.064	692117	keystroke_Key.backspace	Key.backspace	n/a
346.2915	0.087	692583	keystroke_l	l	n/a
346.7385	0.096	693477	keystroke_b	b	n/a
346.938	0.0885	693876	keystroke_u	u	n/a
347.1785	0.104	694357	keystroke_m	m	n/a
347.3635	0.095	694727	keystroke_s	s	n/a
347.634	0.096	695268	keystroke_Key.space	Key.space	n/a
347.818	0.08	695636	keystroke_t	t	n/a
347.938	0.072	695876	keystroke_o	o	n/a
348.0745	0.088	696149	keystroke_d	d	n/a
348.2265	0.088	696453	keystroke_a	a	n/a
348.4345	0.08	696869	keystroke_y	y	n/a
348.5785	0.096	697157	keystroke_Key.space	Key.space	n/a
348.8105	0.088	697621	keystroke_b	b	n/a
348.9225	0.072	697845	keystroke_o	o	n/a
349.0825	0.0875	698165	keystroke_r	r	n/a
349.53	0.112	699060	keystroke_d	d	n/a
349.73	0.088	699460	keystroke_e	e	n/a
349.906	0.08	699812	keystroke_r	r	n/a
350.41	0.096	700820	keystroke_s	s	n/a
350.7385	0.096	701477	keystroke_Key.space	Key.space	n/a
350.914	0.0725	701828	keystroke_s	s	n/a
351.0185	0.104	702037	keystroke_p	p	n/a
351.2425	0.0795	702485	keystroke_i	i	n/a
351.362	0.064	702724	keystroke_d	d	n/a
351.498	0.088	702996	keystroke_e	e	n/a
351.618	0.08	703236	keystroke_r	r	n/a
352.074	0.072	704148	keystroke_Key.enter	Key.enter	n/a
352.1545	7.417	704309	prompt	n/a	legacy academics moreover constantly\n
352.819	0.103	705638	keystroke_l	l	n/a
352.978	0.096	705956	keystroke_e	e	n/a
353.186	0.072	706372	keystroke_g	g	n/a
353.322	0.096	706644	keystroke_a	a	n/a
353.586	0.096	707172	keystroke_c	c	n/a
353.858	0.056	707716	keystroke_y	y	n/a
354.098	0.088	708196	keystroke_Key.space	Key.space	n/a
354.266	0.096	708532	keystroke_a	a	n/a
354.482	0.08	708964	keystroke_c	c	n/a
354.65	0.096	709300	keystroke_a	a	n/a
355.026	0.112	710052	keystroke_d	d	n/a
355.226	0.08	710452	keystroke_e	e	n/a
355.347	0.111	710694	keystroke_m	m	n/a
355.538	0.088	711076	keystroke_i	i	n/a
355.674	0.08	711348	keystroke_c	c	n/a
355.834	0.088	711668	keystroke_s	s	n/a
355.962	0.104	711924	keystroke_Key.space	Key.space	n/a
356.17	0.0875	712340	keystroke_m	m	n/a
356.2975	0.072	712595	keystroke_o	o	n/a
356.4095	0.104	712819	keystroke_r	r	n/a
356.538	0.096	713076	keystroke_e	e	n/a
356.794	0.08	713588	keystroke_o	o	n/a
356.946	0.088	713892	keystroke_v	v	n/a
357.13	0.08	714260	keystroke_e	e	n/a
357.298	0.072	714596	keystroke_r	r	n/a
357.482	0.104	714964	keystroke_Key.space	Key.space	n/a
357.738	0.088	715476	keystroke_c	c	n/a
357.834	0.088	715668	keystroke_o	o	n/a
357.994	0.072	715988	keystroke_n	n	n/a
358.146	0.096	716292	keystroke_s	s	n/a
358.338	0.072	716676	keystroke_t	t	n/a
358.49	0.088	716980	keystroke_a	a	n/a
358.579	0.063	717158	keystroke_n	n	n/a
358.698	0.072	717396	keystroke_t	t	n/a
359.09	0.128	718180	keystroke_l	l	n/a
359.258	0.08	718516	keystroke_y	y	n/a
359.4975	0.072	718995	keystroke_Key.enter	Key.enter	n/a
359.5755	8.308	719151	prompt	n/a	model airlines variable quilt\n
360.1225	0.103	720245	keystroke_m	m	n/a
360.2575	0.0795	720515	keystroke_o	o	n/a
360.3775	0.08	720755	keystroke_d	d	n/a
360.5295	0.08	721059	keystroke_e	e	n/a
360.6335	0.08	721267	keystroke_l	l	n/a
360.8095	0.096	721619	keystroke_Key.space	Key.space	n/a
360.9535	0.128	721907	keystroke_a	a	n/a
361.2815	0.104	722563	keystroke_i	i	n/a
361.4815	0.064	722963	keystroke_r	r	n/a
361.6575	0.104	723315	keystroke_l	l	n/a
361.8735	0.112	723747	keystroke_i	i	n/a
361.9775	0.096	723955	keystroke_n	n	n/a
362.1375	0.064	724275	keystroke_e	e	n/a
362.3535	0.096	724707	keystroke_s	s	n/a
362.7215	0.104	725443	keystroke_Key.space	Key.space	n/a
362.9135	0.104	725827	keystroke_v	v	n/a
363.1535	0.112	726307	keystroke_a	a	n/a
363.5055	0.08	727011	keystroke_r	r	n/a
363.6895	0.104	727379	keystroke_i	i	n/a
363.8415	0.088	727683	keystroke_a	a	n/a
364.1215	0.088	728243	keystroke_b	b	n/a
364.2345	0.087	728469	keystroke_l	l	n/a
364.3775	0.064	728755	keystroke_e	e	n/a
364.5855	0.088	729171	keystroke_Key.space	Key.space	n/a
364.9055	0.104	729811	keystroke_q	q	n/a
365.0575	0.104	730115	keystroke_u	u	n/a
365.2735	0.08	730547	keystroke_i	i	n/a
365.5295	0.056	731059	keystroke_t	t	n/a
366.4175	0.128	732835	keystroke_Key.backspace	Key.backspace	n/a
366.8105	0.127	733621	keystroke_l	l	n/a
367.0975	0.08	734195	keystroke_t	t	n/a
367.7935	0.088	735587	keystroke_Key.enter	Key.enter	n/a
367.889	5.8425	735778	prompt	n/a	outlet compare chair wearing\n
368.5785	0.103	737157	keystroke_o	o	n/a
368.8815	0.088	737763	keystroke_u	u	n/a
369.2015	0.072	738403	keystroke_t	t	n/a
369.4335	0.096	738867	keystroke_l	l	n/a
369.5855	0.096	739171	keystroke_e	e	n/a
369.8015	0.072	739603	keystroke_t	t	n/a
369.9935	0.096	739987	keystroke_Key.space	Key.space	n/a
370.1295	0.096	740259	keystroke_c	c	n/a
370.2335	0.072	740467	keystroke_o	o	n/a
370.3615	0.072	740723	keystroke_m	m	n/a
370.5135	0.072	741027	keystroke_p	p	n/a
370.6495	0.104	741299	keystroke_a	a	n/a
370.8175	0.112	741635	keystroke_r	r	n/a
370.9375	0.096	741875	keystroke_e	e	n/a
371.1215	0.104	742243	keystroke_Key.space	Key.space	n/a
371.3615	0.096	742723	keystroke_c	c	n/a
371.5135	0.08	743027	keystroke_h	h	n/a
371.6095	0.08	743219	keystroke_a	a	n/a
371.7375	0.08	743475	keystroke_i	i	n/a
371.8575	0.072	743715	keystroke_r	r	n/a
372.4975	0.08	744995	keystroke_Key.space	Key.space	n/a
372.7055	0.104	745411	keystroke_w	w	n/a
372.8735	0.096	745747	keystroke_e	e	n/a
373.0415	0.088	746083	keystroke_a	a	n/a
373.218	0.072	746436	keystroke_r	r	n/a
373.338	0.096	746676	keystroke_i	i	n/a
373.41	0.08	746820	keystroke_n	n	n/a
373.538	0.056	747076	keystroke_g	g	n/a
373.658	0.072	747316	keystroke_Key.enter	Key.enter	n/a
373.736	10.9955	747472	prompt	n/a	industry genesis chevy daniel\n
374.3925	0.088	748785	keystroke_i	i	n/a
374.562	0.08	749124	keystroke_n	n	n/a
374.698	0.088	749396	keystroke_d	d	n/a
374.826	0.08	749652	keystroke_u	u	n/a
374.946	0.088	749892	keystroke_s	s	n/a
375.274	0.096	750548	keystroke_t	t	n/a
375.434	0.128	750868	keystroke_r	r	n/a
375.682	0.08	751364	keystroke_y	y	n/a
376.002	0.072	752004	keystroke_Key.space	Key.space	n/a
376.53	0.104	753060	keystroke_f	f	n/a
376.818	0.08	753636	keystroke_e	e	n/a
377.058	0.072	754116	keystroke_Key.backspace	Key.backspace	n/a
377.193	0.08	754386	keystroke_Key.backspace	Key.backspace	n/a
377.266	0.096	754532	keystroke_g	g	n/a
377.69	0.072	755380	keystroke_e	e	n/a
377.81	0.104	755620	keystroke_n	n	n/a
378.034	0.096	756068	keystroke_e	e	n/a
378.242	0.088	756484	keystroke_r	r	n/a
379.0255	0.0885	758051	keystroke_Key.backspace	Key.backspace	n/a
379.2015	0.0875	758403	keystroke_s	s	n/a
379.322	0.112	758644	keystroke_i	i	n/a
379.458	0.0955	758916	keystroke_s	s	n/a
379.9135	0.0965	759827	keystroke_Key.space	Key.space	n/a
380.2175	0.112	760435	keystroke_c	c	n/a
380.3935	0.088	760787	keystroke_h	h	n/a
380.618	0.0945	761236	keystroke_e	e	n/a
380.89	0.088	761780	keystroke_v	v	n/a
381.0645	0.0975	762129	keystroke_e	e	n/a
381.426	0.0785	762852	keystroke_Key.backspace	Key.backspace	n/a
381.5455	0.088	763091	keystroke_y	y	n/a
381.969	0.113	763938	keystroke_Key.space	Key.space	n/a
382.4095	0.112	764819	keystroke_d	d	n/a
382.6335	0.1205	765267	keystroke_a	a	n/a
382.778	0.096	765556	keystroke_n	n	n/a
383.746	0.144	767492	keystroke_i	i	n/a
384.042	0.096	768084	keystroke_e	e	n/a
384.146	0.103	768292	keystroke_l	l	n/a
384.6485	0.08	769297	keystroke_Key.enter	Key.enter	n/a
384.739	6.464	769478	prompt	n/a	display finger this's speaks\n
385.3855	0.096	770771	keystroke_d	d	n/a
385.4895	0.08	770979	keystroke_i	i	n/a
385.6255	0.08	771251	keystroke_s	s	n/a
385.7775	0.0875	771555	keystroke_p	p	n/a
385.9455	0.08	771891	keystroke_l	l	n/a
386.0255	0.096	772051	keystroke_a	a	n/a
386.2495	0.08	772499	keystroke_y	y	n/a
386.4015	0.0875	772803	keystroke_Key.space	Key.space	n/a
386.6015	0.104	773203	keystroke_f	f	n/a
386.7685	0.088	773537	keystroke_i	i	n/a
386.8815	0.08	773763	keystroke_n	n	n/a
387.0975	0.128	774195	keystroke_e	e	n/a
387.5455	0.063	775091	keystroke_Key.backspace	Key.backspace	n/a
387.6415	0.112	775283	keystroke_g	g	n/a
387.8255	0.079	775651	keystroke_e	e	n/a
388.1615	0.08	776323	keystroke_r	r	n/a
388.2965	0.096	776593	keystroke_Key.space	Key.space	n/a
388.4965	0.072	776993	keystroke_t	t	n/a
388.6655	0.104	777331	keystroke_h	h	n/a
388.8575	0.088	777715	keystroke_i	i	n/a
388.9935	0.08	777987	keystroke_s	s	n/a
389.3375	0.096	778675	keystroke_'	'	n/a
389.4805	0.081	778961	keystroke_s	s	n/a
389.7215	0.096	779443	keystroke_Key.space	Key.space	n/a
389.9775	0.096	779955	keystroke_s	s	n/a
390.0815	0.104	780163	keystroke_p	p	n/a
390.2495	0.079	780499	keystroke_e	e	n/a
390.4175	0.103	780835	keystroke_a	a	n/a
390.5615	0.112	781123	keystroke_k	k	n/a
390.8975	0.088	781795	keystroke_s	s	n/a
391.1295	0.072	782259	keystroke_Key.enter	Key.enter	n/a
391.2085	9.37	782417	prompt	n/a	refine shine fishing lincoln\n
391.753	0.08	783506	keystroke_d	d	n/a
392.0565	0.08	784113	keystroke_Key.backspace	Key.backspace	n/a
392.1455	0.072	784291	keystroke_r	r	n/a
392.2095	0.112	784419	keystroke_e	e	n/a
392.5535	0.088	785107	keystroke_d	d	n/a
392.9445	0.072	785889	keystroke_Key.backspace	Key.backspace	n/a
393.0495	0.088	786099	keystroke_f	f	n/a
393.2335	0.088	786467	keystroke_i	i	n/a
393.425	0.0885	786850	keystroke_n	n	n/a
393.6095	0.064	787219	keystroke_e	e	n/a
393.7525	0.088	787505	keystroke_Key.space	Key.space	n/a
393.8735	0.087	787747	keystroke_s	s	n/a
393.9775	0.08	787955	keystroke_h	h	n/a
394.1055	0.088	788211	keystroke_i	i	n/a
394.1775	0.104	788355	keystroke_n	n	n/a
394.3455	0.088	788691	keystroke_e	e	n/a
394.4805	0.096	788961	keystroke_Key.space	Key.space	n/a
394.697	0.104	789394	keystroke_s	s	n/a
395.0325	0.072	790065	keystroke_Key.backspace	Key.backspace	n/a
395.1135	0.087	790227	keystroke_f	f	n/a
395.3045	0.081	790609	keystroke_i	i	n/a
395.4335	0.096	790867	keystroke_s	s	n/a
395.9135	0.096	791827	keystroke_h	h	n/a
396.0975	0.12	792195	keystroke_i	i	n/a
396.1925	0.104	792385	keystroke_n	n	n/a
396.3695	0.072	792739	keystroke_g	g	n/a
396.537	0.088	793074	keystroke_Key.space	Key.space	n/a
396.929	0.1365	793858	keystroke_l	l	n/a
397.1935	0.088	794387	keystroke_i	i	n/a
397.353	0.0725	794706	keystroke_n	n	n/a
397.4735	0.096	794947	keystroke_c	c	n/a
397.6255	0.12	795251	keystroke_o	o	n/a
397.8815	0.119	795763	keystroke_i	i	n/a
398.1455	0.1275	796291	keystroke_l	l	n/a
398.504	0.08	797008	keystroke_Key.backspace	Key.backspace	n/a
398.9455	0.0235	797891	keystroke_n	n	n/a
399.2805	0.08	798561	keystroke_Key.backspace	Key.backspace	n/a
399.4325	0.1035	798865	keystroke_Key.backspace	Key.backspace	n/a
400.129	0.08	800258	keystroke_l	l	n/a
400.3205	0.072	800641	keystroke_n	n	n/a
400.497	0.079	800994	keystroke_Key.enter	Key.enter	n/a
400.584	12.498	801168	prompt	n/a	corpus harvest mediterranean manager\n
401.481	0.119	802962	keystroke_c	c	n/a
401.609	0.072	803218	keystroke_o	o	n/a
401.769	0.08	803538	keystroke_r	r	n/a
401.944	0.0725	803888	keystroke_p	p	n/a
402.112	0.081	804224	keystroke_u	u	n/a
402.249	0.096	804498	keystroke_s	s	n/a
403.105	0.095	806210	keystroke_Key.space	Key.space	n/a
403.4325	0.072	806865	keystroke_h	h	n/a
403.5445	0.096	807089	keystroke_a	a	n/a
403.7205	0.08	807441	keystroke_r	r	n/a
403.9925	0.1115	807985	keystroke_v	v	n/a
404.208	0.0965	808416	keystroke_e	e	n/a
404.3845	0.088	808769	keystroke_s	s	n/a
404.5605	0.072	809121	keystroke_t	t	n/a
404.6805	0.08	809361	keystroke_Key.space	Key.space	n/a
404.8645	0.08	809729	keystroke_m	m	n/a
405.0885	0.096	810177	keystroke_e	e	n/a
405.3045	0.096	810609	keystroke_d	d	n/a
405.4965	0.096	810993	keystroke_i	i	n/a
405.7365	0.08	811473	keystroke_t	t	n/a
406.0245	0.08	812049	keystroke_e	e	n/a
406.6805	0.08	813361	keystroke_r	r	n/a
406.9445	0.088	813889	keystroke_r	r	n/a
407.2885	0.088	814577	keystroke_a	a	n/a
407.9765	0.128	815953	keystroke_n	n	n/a
408.3765	0.104	816753	keystroke_e	e	n/a
409.4085	0.088	818817	keystroke_a	a	n/a
409.5285	0.112	819057	keystroke_n	n	n/a
409.8885	0.088	819777	keystroke_Key.space	Key.space	n/a
410.2085	0.112	820417	keystroke_m	m	n/a
410.9125	0.112	821825	keystroke_a	a	n/a
411.0805	0.08	822161	keystroke_n	n	n/a
411.2245	0.104	822449	keystroke_g	g	n/a
411.5605	0.104	823121	keystroke_e	e	n/a
411.9365	0.08	823873	keystroke_Key.backspace	Key.backspace	n/a
412.0805	0.08	824161	keystroke_Key.backspace	Key.backspace	n/a
412.1605	0.088	824321	keystroke_a	a	n/a
412.3285	0.096	824657	keystroke_g	g	n/a
412.4885	0.12	824977	keystroke_e	e	n/a
412.6565	0.08	825313	keystroke_r	r	n/a
412.9925	0.088	825985	keystroke_Key.enter	Key.enter	n/a
413.087	10.4185	826174	prompt	n/a	notification genuine wiley interpreted\n
413.9205	0.088	827841	keystroke_n	n	n/a
414.0965	0.088	828193	keystroke_o	o	n/a
414.2165	0.072	828433	keystroke_t	t	n/a
414.3285	0.072	828657	keystroke_i	i	n/a
414.8085	0.056	829617	keystroke_f	f	n/a
415.1445	0.096	830289	keystroke_i	i	n/a
415.4325	0.112	830865	keystroke_c	c	n/a
415.6565	0.12	831313	keystroke_a	a	n/a
415.8965	0.072	831793	keystroke_t	t	n/a
416.0085	0.08	832017	keystroke_i	i	n/a
416.1925	0.096	832385	keystroke_o	o	n/a
416.3285	0.088	832657	keystroke_n	n	n/a
416.5045	0.104	833009	keystroke_Key.space	Key.space	n/a
416.7845	0.104	833569	keystroke_g	g	n/a
416.9845	0.08	833969	keystroke_e	e	n/a
417.1365	0.104	834273	keystroke_n	n	n/a
417.4085	0.112	834817	keystroke_u	u	n/a
417.6725	0.096	835345	keystroke_i	i	n/a
417.8645	0.088	835729	keystroke_n	n	n/a
418.0965	0.08	836193	keystroke_e	e	n/a
418.4565	0.08	836913	keystroke_Key.space	Key.space	n/a
418.816	0.104	837632	keystroke_w	w	n/a
419.152	0.1285	838304	keystroke_l	l	n/a
419.496	0.072	838992	keystroke_Key.backspace	Key.backspace	n/a
419.752	0.104	839504	keystroke_i	i	n/a
419.992	0.08	839984	keystroke_l	l	n/a
420.2	0.112	840400	keystroke_e	e	n/a
420.44	0.088	840880	keystroke_y	y	n/a
420.688	0.072	841376	keystroke_Key.space	Key.space	n/a
420.872	0.096	841744	keystroke_i	i	n/a
421.024	0.088	842048	keystroke_n	n	n/a
421.192	0.096	842384	keystroke_t	t	n/a
421.488	0.096	842976	keystroke_e	e	n/a
421.688	0.088	843376	keystroke_r	r	n/a
421.832	0.096	843664	keystroke_p	p	n/a
421.952	0.104	843904	keystroke_r	r	n/a
422.064	0.112	844128	keystroke_e	e	n/a
422.312	0.088	844624	keystroke_t	t	n/a
422.52	0.08	845040	keystroke_e	e	n/a
422.688	0.104	845376	keystroke_d	d	n/a
423.432	0.072	846864	keystroke_Key.enter	Key.enter	n/a
423.5115	9.474	847023	prompt	n/a	survivor gross mali pages\n
424.288	0.12	848576	keystroke_s	s	n/a
424.424	0.08	848848	keystroke_u	u	n/a
424.6	0.08	849200	keystroke_r	r	n/a
424.912	0.096	849824	keystroke_v	v	n/a
425.256	0.096	850512	keystroke_i	i	n/a
425.624	0.128	851248	keystroke_v	v	n/a
426.008	0.096	852016	keystroke_o	o	n/a
426.344	0.12	852688	keystroke_r	r	n/a
426.776	0.096	853552	keystroke_Key.space	Key.space	n/a
427.12	0.112	854240	keystroke_g	g	n/a
427.432	0.104	854864	keystroke_r	r	n/a
427.68	0.08	855360	keystroke_o	o	n/a
427.896	0.072	855792	keystroke_s	s	n/a
428.056	0.096	856112	keystroke_s	s	n/a
428.224	0.08	856448	keystroke_Key.space	Key.space	n/a
428.408	0.08	856816	keystroke_m	m	n/a
428.496	0.096	856992	keystroke_a	a	n/a
428.624	0.096	857248	keystroke_i	i	n/a
428.856	0.088	857712	keystroke_l	l	n/a
429.448	0.08	858896	keystroke_Key.backspace	Key.backspace	n/a
429.616	0.096	859232	keystroke_Key.backspace	Key.backspace	n/a
429.936	0.112	859872	keystroke_l	l	n/a
430.384	0.096	860768	keystroke_i	i	n/a
431.56	0.088	863120	keystroke_Key.space	Key.space	n/a
431.7515	0.072	863503	keystroke_p	p	n/a
431.912	0.096	863824	keystroke_a	a	n/a
432.112	0.08	864224	keystroke_g	g	n/a
432.256	0.088	864512	keystroke_e	e	n/a
432.44	0.08	864880	keystroke_s	s	n/a
432.896	0.088	865792	keystroke_Key.enter	Key.enter	n/a
432.9905	10.4665	865981	prompt	n/a	responsibility instructor excuse dedicated\n
433.664	0.08	867328	keystroke_r	r	n/a
433.792	0.088	867584	keystroke_e	e	n/a
433.976	0.088	867952	keystroke_s	s	n/a
434.104	0.088	868208	keystroke_p	p	n/a
434.296	0.08	868592	keystroke_o	o	n/a
434.44	0.08	868880	keystroke_n	n	n/a
434.592	0.096	869184	keystroke_s	s	n/a
434.712	0.088	869424	keystroke_i	i	n/a
434.952	0.104	869904	keystroke_b	b	n/a
435.144	0.104	870288	keystroke_i	i	n/a
435.384	0.1195	870768	keystroke_l	l	n/a
435.6315	0.0805	871263	keystroke_i	i	n/a
435.904	0.088	871808	keystroke_t	t	n/a
436.128	0.1035	872256	keystroke_y	y	n/a
436.8475	0.08	873695	keystroke_Key.space	Key.space	n/a
437.0555	0.088	874111	keystroke_i	i	n/a
437.2075	0.072	874415	keystroke_n	n	n/a
437.312	0.096	874624	keystroke_s	s	n/a
437.504	0.088	875008	keystroke_t	t	n/a
437.6235	0.1045	875247	keystroke_r	r	n/a
437.7995	0.08	875599	keystroke_u	u	n/a
437.984	0.1115	875968	keystroke_c	c	n/a
438.24	0.0715	876480	keystroke_t	t	n/a
438.3915	0.08	876783	keystroke_o	o	n/a
438.5275	0.08	877055	keystroke_r	r	n/a
438.6875	0.072	877375	keystroke_Key.space	Key.space	n/a
438.9675	0.096	877935	keystroke_e	e	n/a
439.2315	0.104	878463	keystroke_x	x	n/a
439.5835	0.1125	879167	keystroke_c	c	n/a
439.816	0.0955	879632	keystroke_u	u	n/a
440.456	0.096	880912	keystroke_s	s	n/a
440.72	0.088	881440	keystroke_e	e	n/a
440.9515	0.104	881903	keystroke_Key.space	Key.space	n/a
441.1355	0.0805	882271	keystroke_d	d	n/a
441.352	0.088	882704	keystroke_e	e	n/a
442.056	0.08	884112	keystroke_d	d	n/a
442.312	0.08	884624	keystroke_i	i	n/a
442.488	0.096	884976	keystroke_c	c	n/a
442.632	0.096	885264	keystroke_a	a	n/a
442.824	0.08	885648	keystroke_t	t	n/a
442.944	0.088	885888	keystroke_e	e	n/a
443.1195	0.08	886239	keystroke_d	d	n/a
443.383	0.072	886766	keystroke_Key.enter	Key.enter	n/a
443.462	8.3715	886924	prompt	n/a	fraction chains stockings various\n
444.175	0.145	888350	keystroke_f	f	n/a
444.44	0.136	888880	keystroke_r	r	n/a
444.648	0.112	889296	keystroke_a	a	n/a
445.112	0.159	890224	keystroke_c	c	n/a
445.408	0.08	890816	keystroke_t	t	n/a
445.52	0.079	891040	keystroke_i	i	n/a
445.696	0.096	891392	keystroke_o	o	n/a
445.856	0.088	891712	keystroke_n	n	n/a
446.031	0.097	892062	keystroke_Key.space	Key.space	n/a
446.232	0.112	892464	keystroke_c	c	n/a
446.336	0.088	892672	keystroke_h	h	n/a
446.464	0.088	892928	keystroke_a	a	n/a
446.559	0.081	893118	keystroke_i	i	n/a
446.736	0.08	893472	keystroke_n	n	n/a
447.104	0.079	894208	keystroke_s	s	n/a
447.399	0.096	894798	keystroke_Key.space	Key.space	n/a
447.552	0.111	895104	keystroke_s	s	n/a
447.743	0.089	895486	keystroke_t	t	n/a
447.864	0.104	895728	keystroke_o	o	n/a
448.024	0.072	896048	keystroke_c	c	n/a
448.128	0.096	896256	keystroke_k	k	n/a
448.328	0.096	896656	keystroke_i	i	n/a
448.4	0.104	896800	keystroke_n	n	n/a
448.52	0.08	897040	keystroke_g	g	n/a
448.736	0.088	897472	keystroke_s	s	n/a
448.84	0.087	897680	keystroke_Key.space	Key.space	n/a
449.744	0.112	899488	keystroke_v	v	n/a
450.088	0.12	900176	keystroke_a	a	n/a
450.384	0.112	900768	keystroke_r	r	n/a
450.536	0.088	901072	keystroke_i	i	n/a
450.76	0.08	901520	keystroke_o	o	n/a
450.96	0.064	901920	keystroke_u	u	n/a
451.072	0.064	902144	keystroke_s	s	n/a
451.767	0.065	903534	keystroke_Key.enter	Key.enter	n/a
451.8395	13.458	903679	prompt	n/a	each programming y'all urls\n
452.472	0.072	904944	keystroke_e	e	n/a
452.616	0.088	905232	keystroke_a	a	n/a
452.767	0.089	905534	keystroke_c	c	n/a
452.856	0.087	905712	keystroke_h	h	n/a
453.047	0.096	906094	keystroke_Key.space	Key.space	n/a
453.232	0.088	906464	keystroke_p	p	n/a
453.343	0.113	906686	keystroke_r	r	n/a
453.792	0.08	907584	keystroke_o	o	n/a
454.224	0.104	908448	keystroke_g	g	n/a
454.608	0.112	909216	keystroke_r	r	n/a
454.832	0.079	909664	keystroke_a	a	n/a
454.991	0.113	909982	keystroke_m	m	n/a
456.24	0.104	912480	keystroke_m	m	n/a
456.432	0.12	912864	keystroke_i	i	n/a
456.528	0.088	913056	keystroke_n	n	n/a
456.655	0.105	913310	keystroke_g	g	n/a
456.791	0.096	913582	keystroke_Key.space	Key.space	n/a
457.615	0.105	915230	keystroke_t	t	n/a
458.175	0.128	916350	keystroke_Key.backspace	Key.backspace	n/a
458.447	0.081	916894	keystroke_y	y	n/a
458.656	0.12	917312	keystroke_a	a	n/a
459.135	0.105	918270	keystroke_;	;	n/a
459.487	0.113	918974	keystroke_l	l	n/a
459.704	0.104	919408	keystroke_l	l	n/a
460.2315	0.088	920463	keystroke_Key.space	Key.space	n/a
460.8315	0.0955	921663	keystroke_Key.backspace	Key.backspace	n/a
461.015	0.08	922030	keystroke_Key.backspace	Key.backspace	n/a
461.183	0.096	922366	keystroke_Key.backspace	Key.backspace	n/a
461.8475	0.104	923695	keystroke_Key.backspace	Key.backspace	n/a
462.063	0.1125	924126	keystroke_Key.backspace	Key.backspace	n/a
463.0715	0.104	926143	keystroke_'	'	n/a
463.279	0.104	926558	keystroke_a	a	n/a
463.6475	0.1035	927295	keystroke_l	l	n/a
463.8395	0.1035	927679	keystroke_l	l	n/a
464.0555	0.096	928111	keystroke_Key.space	Key.space	n/a
464.2795	0.0875	928559	keystroke_u	u	n/a
464.535	0.08	929070	keystroke_r	r	n/a
464.7595	0.104	929519	keystroke_l	l	n/a
464.991	0.072	929982	keystroke_s	s	n/a
465.215	0.08	930430	keystroke_Key.enter	Key.enter	n/a
465.305	6.1365	930610	prompt	n/a	land ministries modem korea\n
465.9595	0.144	931919	keystroke_l	l	n/a
466.1115	0.1035	932223	keystroke_a	a	n/a
466.223	0.072	932446	keystroke_n	n	n/a
466.303	0.088	932606	keystroke_d	d	n/a
466.431	0.0885	932862	keystroke_Key.space	Key.space	n/a
466.591	0.08	933182	keystroke_m	m	n/a
466.743	0.08	933486	keystroke_i	i	n/a
466.855	0.064	933710	keystroke_n	n	n/a
466.983	0.088	933966	keystroke_i	i	n/a
467.4475	0.128	934895	keystroke_s	s	n/a
467.7515	0.08	935503	keystroke_t	t	n/a
467.9835	0.096	935967	keystroke_r	r	n/a
468.1115	0.088	936223	keystroke_i	i	n/a
468.2395	0.096	936479	keystroke_e	e	n/a
468.4875	0.112	936975	keystroke_s	s	n/a
468.9115	0.08	937823	keystroke_Key.space	Key.space	n/a
469.0555	0.088	938111	keystroke_m	m	n/a
469.1835	0.088	938367	keystroke_o	o	n/a
469.3035	0.088	938607	keystroke_d	d	n/a
469.4715	0.088	938943	keystroke_e	e	n/a
469.6555	0.104	939311	keystroke_m	m	n/a
469.911	0.072	939822	keystroke_Key.space	Key.space	n/a
470.111	0.096	940222	keystroke_k	k	n/a
470.423	0.096	940846	keystroke_o	o	n/a
470.735	0.0965	941470	keystroke_r	r	n/a
471.0315	0.104	942063	keystroke_e	e	n/a
471.2315	0.088	942463	keystroke_a	a	n/a
471.3675	0.072	942735	keystroke_Key.enter	Key.enter	n/a
471.447	9.13	942894	prompt	n/a	checks roland release eric\n
472.2395	0.12	944479	keystroke_c	c	n/a
472.3515	0.072	944703	keystroke_h	h	n/a
472.4795	0.08	944959	keystroke_e	e	n/a
472.6555	0.08	945311	keystroke_c	c	n/a
472.7435	0.088	945487	keystroke_k	k	n/a
472.8875	0.08	945775	keystroke_s	s	n/a
473.0155	0.088	946031	keystroke_Key.space	Key.space	n/a
473.2475	0.088	946495	keystroke_r	r	n/a
473.3835	0.08	946767	keystroke_o	o	n/a
473.6715	0.104	947343	keystroke_l	l	n/a
473.8155	0.104	947631	keystroke_a	a	n/a
473.9995	0.072	947999	keystroke_n	n	n/a
474.1515	0.096	948303	keystroke_d	d	n/a
474.3675	0.088	948735	keystroke_Key.space	Key.space	n/a
474.6395	0.104	949279	keystroke_r	r	n/a
474.7915	0.08	949583	keystroke_e	e	n/a
474.9515	0.072	949903	keystroke_a	a	n/a
475.0795	0.088	950159	keystroke_l	l	n/a
475.2395	0.104	950479	keystroke_e	e	n/a
475.5915	0.096	951183	keystroke_a	a	n/a
475.7675	0.088	951535	keystroke_s	s	n/a
476.4155	0.104	952831	keystroke_e	e	n/a
476.8555	0.08	953711	keystroke_Key.backspace	Key.backspace	n/a
477.0315	0.056	954063	keystroke_Key.backspace	Key.backspace	n/a
477.1835	0.08	954367	keystroke_Key.backspace	Key.backspace	n/a
477.3275	0.08	954655	keystroke_Key.backspace	Key.backspace	n/a
477.4795	0.088	954959	keystroke_Key.backspace	Key.backspace	n/a
477.6395	0.096	955279	keystroke_Key.backspace	Key.backspace	n/a
477.935	0.112	955870	keystroke_l	l	n/a
478.1515	0.0955	956303	keystroke_e	e	n/a
478.311	0.104	956622	keystroke_a	a	n/a
478.463	0.088	956926	keystroke_s	s	n/a
478.639	0.08	957278	keystroke_e	e	n/a
478.767	0.096	957534	keystroke_Key.space	Key.space	n/a
478.951	0.12	957902	keystroke_e	e	n/a
479.1425	0.072	958285	keystroke_r	r	n/a
479.2465	0.08	958493	keystroke_i	i	n/a
479.447	0.128	958894	keystroke_d	d	n/a
479.999	0.08	959998	keystroke_Key.backspace	Key.backspace	n/a
480.072	0.111	960144	keystroke_c	c	n/a
480.495	0.08	960990	keystroke_Key.enter	Key.enter	n/a
480.5855	8.64	961171	prompt	n/a	accurately brazil send math\n
481.536	0.096	963072	keystroke_a	a	n/a
481.727	0.08	963454	keystroke_c	c	n/a
481.904	0.087	963808	keystroke_c	c	n/a
482.039	0.088	964078	keystroke_u	u	n/a
482.479	0.08	964958	keystroke_t	t	n/a
483.095	0.096	966190	keystroke_Key.backspace	Key.backspace	n/a
483.503	0.104	967006	keystroke_r	r	n/a
483.767	0.096	967534	keystroke_a	a	n/a
484.135	0.088	968270	keystroke_t	t	n/a
484.679	0.112	969358	keystroke_e	e	n/a
484.951	0.12	969902	keystroke_l	l	n/a
485.2145	0.104	970429	keystroke_y	y	n/a
485.3985	0.104	970797	keystroke_Key.space	Key.space	n/a
485.6635	0.095	971327	keystroke_b	b	n/a
485.9505	0.096	971901	keystroke_r	r	n/a
486.1745	0.104	972349	keystroke_a	a	n/a
486.6865	0.128	973373	keystroke_z	z	n/a
486.8545	0.128	973709	keystroke_i	i	n/a
487.1905	0.1365	974381	keystroke_l	l	n/a
487.3985	0.096	974797	keystroke_Key.space	Key.space	n/a
487.5425	0.08	975085	keystroke_s	s	n/a
487.7265	0.088	975453	keystroke_e	e	n/a
487.8225	0.08	975645	keystroke_n	n	n/a
487.9825	0.08	975965	keystroke_d	d	n/a
488.4145	0.08	976829	keystroke_Key.space	Key.space	n/a
488.5985	0.088	977197	keystroke_m	m	n/a
488.6945	0.088	977389	keystroke_a	a	n/a
488.8715	0.071	977743	keystroke_t	t	n/a
488.9585	0.064	977917	keystroke_h	h	n/a
489.1505	0.072	978301	keystroke_Key.enter	Key.enter	n/a
489.2305	15.6985	978461	prompt	n/a	bool lithuania pursuit columns\n
489.9115	0.087	979823	keystroke_b	b	n/a
490.0545	0.096	980109	keystroke_o	o	n/a
490.2625	0.072	980525	keystroke_o	o	n/a
490.4785	0.104	980957	keystroke_l	l	n/a
490.7505	0.1035	981501	keystroke_Key.space	Key.space	n/a
491.0305	0.12	982061	keystroke_l	l	n/a
491.254	0.096	982508	keystroke_i	i	n/a
491.7745	0.12	983549	keystroke_h	h	n/a
491.9905	0.12	983981	keystroke_u	u	n/a
492.6065	0.096	985213	keystroke_a	a	n/a
493.0465	0.128	986093	keystroke_n	n	n/a
493.4145	0.168	986829	keystroke_i	i	n/a
493.7265	0.128	987453	keystroke_a	a	n/a
493.8385	0.08	987677	keystroke_Key.space	Key.space	n/a
494.9345	0.104	989869	keystroke_Key.backspace	Key.backspace	n/a
495.118	0.0725	990236	keystroke_Key.backspace	Key.backspace	n/a
495.278	0.072	990556	keystroke_Key.backspace	Key.backspace	n/a
495.438	0.0725	990876	keystroke_Key.backspace	Key.backspace	n/a
495.5985	0.0795	991197	keystroke_Key.backspace	Key.backspace	n/a
495.7825	0.104	991565	keystroke_Key.backspace	Key.backspace	n/a
496.2385	0.112	992477	keystroke_Key.backspace	Key.backspace	n/a
497.142	0.064	994284	keystroke_t	t	n/a
497.246	0.08	994492	keystroke_h	h	n/a
497.446	0.088	994892	keystroke_u	u	n/a
497.646	0.088	995292	keystroke_a	a	n/a
497.9105	0.0795	995821	keystroke_n	n	n/a
498.07	0.08	996140	keystroke_i	i	n/a
498.182	0.08	996364	keystroke_a	a	n/a
498.518	0.0725	997036	keystroke_Key.space	Key.space	n/a
500.4305	0.1035	1000861	keystroke_p	p	n/a
500.686	0.064	1001372	keystroke_u	u	n/a
500.854	0.08	1001708	keystroke_r	r	n/a
501.07	0.096	1002140	keystroke_s	s	n/a
501.182	0.088	1002364	keystroke_u	u	n/a
501.382	0.088	1002764	keystroke_i	i	n/a
501.55	0.096	1003100	keystroke_t	t	n/a
502.062	0.104	1004124	keystroke_Key.space	Key.space	n/a
502.27	0.08	1004540	keystroke_c	c	n/a
502.446	0.096	1004892	keystroke_o	o	n/a
502.694	0.128	1005388	keystroke_l	l	n/a
503.534	0.104	1007068	keystroke_u	u	n/a
503.806	0.096	1007612	keystroke_m	m	n/a
504.0775	0.08	1008155	keystroke_n	n	n/a
504.342	0.104	1008684	keystroke_s	s	n/a
504.846	0.08	1009692	keystroke_Key.enter	Key.enter	n/a
504.935	19.2335	1009870	prompt	n/a	athletic treasurer opposition split\n
505.638	0.128	1011276	keystroke_a	a	n/a
506.382	0.104	1012764	keystroke_t	t	n/a
506.614	0.088	1013228	keystroke_h	h	n/a
508.07	0.048	1016140	keystroke_e	e	n/a
508.422	0.12	1016844	keystroke_l	l	n/a
508.614	0.096	1017228	keystroke_e	e	n/a
510.054	0.128	1020108	keystroke_Key.backspace	Key.backspace	n/a
512.318	0.104	1024636	keystroke_Key.backspace	Key.backspace	n/a
512.582	0.104	1025164	keystroke_Key.backspace	Key.backspace	n/a
512.902	0.16	1025804	keystroke_l	l	n/a
513.23	0.112	1026460	keystroke_e	e	n/a
513.462	0.096	1026924	keystroke_t	t	n/a
513.59	0.064	1027180	keystroke_i	i	n/a
513.782	0.08	1027564	keystroke_c	c	n/a
514.214	0.096	1028428	keystroke_Key.space	Key.space	n/a
514.422	0.088	1028844	keystroke_t	t	n/a
514.566	0.072	1029132	keystroke_e	e	n/a
514.59	0.056	1029180	keystroke_r	r	n/a
515.47	0.088	1030940	keystroke_Key.backspace	Key.backspace	n/a
515.622	0.088	1031244	keystroke_Key.backspace	Key.backspace	n/a
516.886	0.0805	1033772	keystroke_r	r	n/a
517.0145	0.072	1034029	keystroke_e	e	n/a
517.1985	0.048	1034397	keystroke_a	a	n/a
517.4305	0.104	1034861	keystroke_s	s	n/a
517.5585	0.08	1035117	keystroke_u	u	n/a
517.7105	0.128	1035421	keystroke_r	r	n/a
517.9105	0.088	1035821	keystroke_e	e	n/a
518.2545	0.12	1036509	keystroke_r	r	n/a
518.7425	0.104	1037485	keystroke_Key.space	Key.space	n/a
519.1185	0.112	1038237	keystroke_o	o	n/a
519.3585	0.097	1038717	keystroke_p	p	n/a
519.5265	0.096	1039053	keystroke_p	p	n/a
519.7265	0.088	1039453	keystroke_o	o	n/a
519.9985	0.104	1039997	keystroke_s	s	n/a
520.1585	0.088	1040317	keystroke_i	i	n/a
520.3505	0.072	1040701	keystroke_t	t	n/a
520.4385	0.088	1040877	keystroke_i	i	n/a
520.6385	0.08	1041277	keystroke_o	o	n/a
520.8225	0.096	1041645	keystroke_n	n	n/a
521.0465	0.088	1042093	keystroke_Key.space	Key.space	n/a
521.2465	0.088	1042493	keystroke_s	s	n/a
521.5025	0.112	1043005	keystroke_p	p	n/a
523.1665	0.072	1046333	keystroke_l	l	n/a
523.3585	0.056	1046717	keystroke_i	i	n/a
523.4865	0.072	1046973	keystroke_t	t	n/a
524.0945	0.072	1048189	keystroke_Key.enter	Key.enter	n/a
524.1745	6.4425	1048349	prompt	n/a	ones proved shower newton\n
524.6865	0.096	1049373	keystroke_o	o	n/a
524.8865	0.08	1049773	keystroke_n	n	n/a
525.0065	0.08	1050013	keystroke_e	e	n/a
525.1905	0.096	1050381	keystroke_s	s	n/a
525.2945	0.088	1050589	keystroke_Key.space	Key.space	n/a
525.4785	0.089	1050957	keystroke_p	p	n/a
525.6145	0.088	1051229	keystroke_r	r	n/a
525.7585	0.088	1051517	keystroke_o	o	n/a
525.9745	0.128	1051949	keystroke_v	v	n/a
526.3185	0.096	1052637	keystroke_e	e	n/a
526.5665	0.096	1053133	keystroke_d	d	n/a
526.8625	0.072	1053725	keystroke_Key.space	Key.space	n/a
526.9825	0.096	1053965	keystroke_s	s	n/a
527.0865	0.072	1054173	keystroke_h	h	n/a
527.2385	0.08	1054477	keystroke_o	o	n/a
527.3345	0.088	1054669	keystroke_w	w	n/a
527.5105	0.088	1055021	keystroke_e	e	n/a
527.7185	0.072	1055437	keystroke_r	r	n/a
527.8465	0.088	1055693	keystroke_Key.space	Key.space	n/a
528.1265	0.08	1056253	keystroke_n	n	n/a
528.2145	0.104	1056429	keystroke_e	e	n/a
528.4305	0.096	1056861	keystroke_w	w	n/a
528.7105	0.08	1057421	keystroke_t	t	n/a
528.9265	0.088	1057853	keystroke_o	o	n/a
529.2305	0.056	1058461	keystroke_m	m	n/a
529.3345	0.112	1058669	keystroke_n	n	n/a
529.8465	0.072	1059693	keystroke_Key.backspace	Key.backspace	n/a
529.9825	0.072	1059965	keystroke_Key.backspace	Key.backspace	n/a
530.1745	0.088	1060349	keystroke_n	n	n/a
530.5425	0.072	1061085	keystroke_Key.enter	Key.enter	n/a
530.6225	8.834	1061245	prompt	n/a	electronics suspension agree bone\n
531.3505	0.08	1062701	keystroke_e	e	n/a
531.5105	0.088	1063021	keystroke_l	l	n/a
531.6145	0.096	1063229	keystroke_e	e	n/a
531.8305	0.104	1063661	keystroke_c	c	n/a
532.0545	0.08	1064109	keystroke_t	t	n/a
532.7345	0.08	1065469	keystroke_r	r	n/a
532.9105	0.104	1065821	keystroke_o	o	n/a
533.1025	0.088	1066205	keystroke_n	n	n/a
533.2625	0.096	1066525	keystroke_i	i	n/a
533.4545	0.088	1066909	keystroke_c	c	n/a
533.6705	0.08	1067341	keystroke_s	s	n/a
533.8145	0.096	1067629	keystroke_Key.space	Key.space	n/a
533.9905	0.072	1067981	keystroke_s	s	n/a
534.1345	0.08	1068269	keystroke_u	u	n/a
534.4225	0.08	1068845	keystroke_s	s	n/a
534.6865	0.112	1069373	keystroke_p	p	n/a
534.9025	0.096	1069805	keystroke_e	e	n/a
535.0945	0.096	1070189	keystroke_n	n	n/a
535.2545	0.072	1070509	keystroke_s	s	n/a
535.3825	0.112	1070765	keystroke_i	i	n/a
535.6545	0.08	1071309	keystroke_o	o	n/a
535.8385	0.088	1071677	keystroke_n	n	n/a
536.1825	0.096	1072365	keystroke_Key.space	Key.space	n/a
536.3745	0.088	1072749	keystroke_a	a	n/a
536.6465	0.144	1073293	keystroke_f	f	n/a
537.1505	0.072	1074301	keystroke_Key.backspace	Key.backspace	n/a
537.4465	0.12	1074893	keystroke_g	g	n/a
537.7265	0.152	1075453	keystroke_r	r	n/a
537.9745	0.08	1075949	keystroke_e	e	n/a
538.1505	0.08	1076301	keystroke_e	e	n/a
538.3105	0.088	1076621	keystroke_Key.space	Key.space	n/a
538.5825	0.08	1077165	keystroke_b	b	n/a
538.6865	0.104	1077373	keystroke_o	o	n/a
538.8865	0.088	1077773	keystroke_n	n	n/a
539.1425	0.072	1078285	keystroke_e	e	n/a
539.3825	0.072	1078765	keystroke_Key.enter	Key.enter	n/a
539.4615	8.172	1078923	prompt	n/a	parliament identity duration boxes\n
540.0145	0.128	1080029	keystroke_p	p	n/a
540.1905	0.112	1080381	keystroke_a	a	n/a
540.4705	0.096	1080941	keystroke_r	r	n/a
540.7105	0.088	1081421	keystroke_l	l	n/a
540.9105	0.08	1081821	keystroke_i	i	n/a
540.9985	0.096	1081997	keystroke_a	a	n/a
541.1585	0.096	1082317	keystroke_m	m	n/a
541.2945	0.104	1082589	keystroke_e	e	n/a
541.3825	0.072	1082765	keystroke_n	n	n/a
541.5185	0.072	1083037	keystroke_t	t	n/a
541.6465	0.08	1083293	keystroke_Key.space	Key.space	n/a
541.8225	0.088	1083645	keystroke_i	i	n/a
541.9585	0.08	1083917	keystroke_d	d	n/a
542.1185	0.08	1084237	keystroke_e	e	n/a
542.3425	0.096	1084685	keystroke_n	n	n/a
542.5665	0.072	1085133	keystroke_t	t	n/a
542.7105	0.08	1085421	keystroke_i	i	n/a
542.8465	0.08	1085693	keystroke_t	t	n/a
543.0545	0.08	1086109	keystroke_y	y	n/a
543.359	0.0795	1086718	keystroke_Key.space	Key.space	n/a
543.543	0.096	1087086	keystroke_d	d	n/a
543.719	0.0795	1087438	keystroke_u	u	n/a
543.9185	0.0885	1087837	keystroke_r	r	n/a
544.127	0.104	1088254	keystroke_a	a	n/a
544.4225	0.056	1088845	keystroke_t	t	n/a
544.5505	0.0965	1089101	keystroke_i	i	n/a
544.743	0.072	1089486	keystroke_o	o	n/a
544.9185	0.088	1089837	keystroke_n	n	n/a
545.063	0.096	1090126	keystroke_Key.space	Key.space	n/a
545.407	0.088	1090814	keystroke_b	b	n/a
545.6465	0.072	1091293	keystroke_o	o	n/a
545.8865	0.12	1091773	keystroke_c	c	n/a
546.1745	0.0955	1092349	keystroke_e	e	n/a
546.438	0.072	1092876	keystroke_Key.backspace	Key.backspace	n/a
546.582	0.0725	1093164	keystroke_Key.backspace	Key.backspace	n/a
546.6465	0.112	1093293	keystroke_x	x	n/a
546.8625	0.104	1093725	keystroke_e	e	n/a
547.0945	0.096	1094189	keystroke_s	s	n/a
547.5505	0.08	1095101	keystroke_Key.enter	Key.enter	n/a
547.638	8.6995	1095276	prompt	n/a	liquid banners enzyme join\n
548.3185	0.096	1096637	keystroke_l	l	n/a
548.5185	0.088	1097037	keystroke_i	i	n/a
548.6625	0.104	1097325	keystroke_q	q	n/a
548.7825	0.08	1097565	keystroke_u	u	n/a
548.9825	0.08	1097965	keystroke_i	i	n/a
549.1585	0.1045	1098317	keystroke_d	d	n/a
549.494	0.08	1098988	keystroke_Key.space	Key.space	n/a
549.95	0.081	1099900	keystroke_b	b	n/a
550.127	0.096	1100254	keystroke_a	a	n/a
550.255	0.072	1100510	keystroke_n	n	n/a
550.415	0.08	1100830	keystroke_n	n	n/a
550.527	0.072	1101054	keystroke_e	e	n/a
550.671	0.08	1101342	keystroke_r	r	n/a
550.886	0.081	1101772	keystroke_s	s	n/a
551.246	0.0975	1102492	keystroke_Key.space	Key.space	n/a
551.9995	0.08	1103999	keystroke_e	e	n/a
552.1435	0.08	1104287	keystroke_n	n	n/a
552.607	0.112	1105214	keystroke_z	z	n/a
553.1425	0.0885	1106285	keystroke_y	y	n/a
553.527	0.128	1107054	keystroke_n	n	n/a
553.9665	0.089	1107933	keystroke_Key.backspace	Key.backspace	n/a
554.19	0.105	1108380	keystroke_m	m	n/a
554.391	0.088	1108782	keystroke_e	e	n/a
554.631	0.096	1109262	keystroke_s	s	n/a
555.022	0.08	1110044	keystroke_Key.backspace	Key.backspace	n/a
555.2075	0.1105	1110415	keystroke_Key.space	Key.space	n/a
555.527	0.16	1111054	keystroke_j	j	n/a
555.727	0.096	1111454	keystroke_o	o	n/a
555.9275	0.096	1111855	keystroke_i	i	n/a
556.0075	0.079	1112015	keystroke_n	n	n/a
556.263	0.072	1112526	keystroke_Key.enter	Key.enter	n/a
556.3425	6.05	1112685	prompt	n/a	grab alan jane denied\n
557.2145	0.1045	1114429	keystroke_g	g	n/a
557.439	0.0955	1114878	keystroke_r	r	n/a
557.6705	0.096	1115341	keystroke_a	a	n/a
558.087	0.08	1116174	keystroke_b	b	n/a
558.398	0.088	1116796	keystroke_Key.space	Key.space	n/a
559.143	0.096	1118286	keystroke_a	a	n/a
559.311	0.088	1118622	keystroke_l	l	n/a
559.487	0.072	1118974	keystroke_a	a	n/a
559.607	0.079	1119214	keystroke_n	n	n/a
559.799	0.087	1119598	keystroke_Key.space	Key.space	n/a
560.031	0.096	1120062	keystroke_j	j	n/a
560.182	0.089	1120364	keystroke_a	a	n/a
560.366	0.089	1120732	keystroke_n	n	n/a
560.519	0.08	1121038	keystroke_e	e	n/a
560.846	0.096	1121692	keystroke_Key.space	Key.space	n/a
561.311	0.08	1122622	keystroke_d	d	n/a
561.471	0.087	1122942	keystroke_e	e	n/a
561.607	0.08	1123214	keystroke_n	n	n/a
561.759	0.08	1123518	keystroke_i	i	n/a
561.879	0.096	1123758	keystroke_e	e	n/a
562.063	0.095	1124126	keystroke_d	d	n/a
562.326	0.064	1124652	keystroke_Key.enter	Key.enter	n/a
562.3975	10.1475	1124795	prompt	n/a	abroad floppy pulse craft\n
563.055	0.088	1126110	keystroke_a	a	n/a
563.303	0.08	1126606	keystroke_b	b	n/a
563.527	0.096	1127054	keystroke_r	r	n/a
563.695	0.064	1127390	keystroke_o	o	n/a
563.854	0.073	1127708	keystroke_u	u	n/a
564.023	0.088	1128046	keystroke_d	d	n/a
564.374	0.081	1128748	keystroke_Key.backspace	Key.backspace	n/a
564.495	0.104	1128990	keystroke_a	a	n/a
564.615	0.072	1129230	keystroke_d	d	n/a
565.014	0.08	1130028	keystroke_Key.backspace	Key.backspace	n/a
565.19	0.072	1130380	keystroke_Key.backspace	Key.backspace	n/a
565.35	0.113	1130700	keystroke_Key.backspace	Key.backspace	n/a
566.359	0.12	1132718	keystroke_a	a	n/a
566.551	0.087	1133102	keystroke_d	d	n/a
566.782	0.088	1133564	keystroke_Key.space	Key.space	n/a
567.6055	0.073	1135211	keystroke_f	f	n/a
567.7255	0.096	1135451	keystroke_l	l	n/a
567.9505	0.079	1135901	keystroke_o	o	n/a
568.2065	0.079	1136413	keystroke_p	p	n/a
568.3665	0.08	1136733	keystroke_p	p	n/a
568.5255	0.105	1137051	keystroke_y	y	n/a
568.7015	0.0725	1137403	keystroke_Key.space	Key.space	n/a
569.1825	0.087	1138365	keystroke_p	p	n/a
569.3735	0.0885	1138747	keystroke_u	u	n/a
569.7345	0.104	1139469	keystroke_l	l	n/a
570.1265	0.088	1140253	keystroke_s	s	n/a
570.3015	0.089	1140603	keystroke_e	e	n/a
570.4615	0.088	1140923	keystroke_Key.space	Key.space	n/a
570.7185	0.159	1141437	keystroke_c	c	n/a
570.9905	0.087	1141981	keystroke_r	r	n/a
571.238	0.104	1142476	keystroke_a	a	n/a
571.414	0.12	1142828	keystroke_f	f	n/a
571.662	0.08	1143324	keystroke_t	t	n/a
572.47	0.072	1144940	keystroke_Key.enter	Key.enter	n/a
572.551	12.1855	1145102	prompt	n/a	invasion confused endif jonathan\n
573.206	0.096	1146412	keystroke_i	i	n/a
573.398	0.064	1146796	keystroke_n	n	n/a
573.582	0.096	1147164	keystroke_v	v	n/a
573.822	0.12	1147644	keystroke_a	a	n/a
574.07	0.08	1148140	keystroke_s	s	n/a
574.198	0.088	1148396	keystroke_i	i	n/a
574.398	0.088	1148796	keystroke_o	o	n/a
574.558	0.08	1149116	keystroke_n	n	n/a
574.742	0.096	1149484	keystroke_Key.space	Key.space	n/a
574.998	0.104	1149996	keystroke_c	c	n/a
575.11	0.08	1150220	keystroke_o	o	n/a
575.262	0.088	1150524	keystroke_n	n	n/a
575.454	0.096	1150908	keystroke_d	d	n/a
575.63	0.072	1151260	keystroke_u	u	n/a
575.782	0.08	1151564	keystroke_s	s	n/a
575.99	0.064	1151980	keystroke_e	e	n/a
576.31	0.088	1152620	keystroke_Key.backspace	Key.backspace	n/a
576.486	0.088	1152972	keystroke_Key.backspace	Key.backspace	n/a
576.662	0.0805	1153324	keystroke_Key.backspace	Key.backspace	n/a
576.8145	0.096	1153629	keystroke_Key.backspace	Key.backspace	n/a
577.0705	0.096	1154141	keystroke_d	d	n/a
577.3505	0.0715	1154701	keystroke_Key.backspace	Key.backspace	n/a
577.43	0.08	1154860	keystroke_f	f	n/a
577.886	0.12	1155772	keystroke_u	u	n/a
578.0865	0.08	1156173	keystroke_s	s	n/a
578.27	0.08	1156540	keystroke_e	e	n/a
578.4545	0.08	1156909	keystroke_d	d	n/a
578.67	0.1045	1157340	keystroke_Key.space	Key.space	n/a
578.8625	0.0875	1157725	keystroke_e	e	n/a
579.158	0.112	1158316	keystroke_n	n	n/a
579.438	0.088	1158876	keystroke_d	d	n/a
579.566	0.096	1159132	keystroke_i	i	n/a
579.8385	0.072	1159677	keystroke_g	g	n/a
580.4065	0.104	1160813	keystroke_Key.backspace	Key.backspace	n/a
580.5985	0.08	1161197	keystroke_Key.backspace	Key.backspace	n/a
581.6705	0.104	1163341	keystroke_i	i	n/a
581.862	0.072	1163724	keystroke_f	f	n/a
582.19	0.12	1164380	keystroke_Key.space	Key.space	n/a
582.502	0.1285	1165004	keystroke_j	j	n/a
582.7425	0.088	1165485	keystroke_o	o	n/a
583.35	0.096	1166700	keystroke_n	n	n/a
583.654	0.088	1167308	keystroke_a	a	n/a
583.854	0.072	1167708	keystroke_t	t	n/a
583.966	0.096	1167932	keystroke_h	h	n/a
584.1745	0.0715	1168349	keystroke_a	a	n/a
584.262	0.08	1168524	keystroke_n	n	n/a
584.6625	0.0715	1169325	keystroke_Key.enter	Key.enter	n/a
584.743	9.4325	1169486	prompt	n/a	david problem starts pontiac\n
585.91	0.08	1171820	keystroke_d	d	n/a
586.046	0.088	1172092	keystroke_a	a	n/a
586.342	0.072	1172684	keystroke_v	v	n/a
586.438	0.08	1172876	keystroke_i	i	n/a
586.854	0.088	1173708	keystroke_d	d	n/a
586.9745	0.0875	1173949	keystroke_Key.space	Key.space	n/a
587.774	0.112	1175548	keystroke_p	p	n/a
588.046	0.072	1176092	keystroke_r	r	n/a
588.158	0.08	1176316	keystroke_o	o	n/a
588.366	0.096	1176732	keystroke_b	b	n/a
588.582	0.128	1177164	keystroke_l	l	n/a
588.798	0.072	1177596	keystroke_e	e	n/a
589.022	0.12	1178044	keystroke_m	m	n/a
589.478	0.096	1178956	keystroke_Key.space	Key.space	n/a
589.614	0.096	1179228	keystroke_s	s	n/a
589.734	0.064	1179468	keystroke_l	l	n/a
590.03	0.072	1180060	keystroke_Key.backspace	Key.backspace	n/a
590.166	0.08	1180332	keystroke_t	t	n/a
590.71	0.128	1181420	keystroke_a	a	n/a
590.982	0.112	1181964	keystroke_r	r	n/a
591.294	0.072	1182588	keystroke_t	t	n/a
591.542	0.08	1183084	keystroke_s	s	n/a
592.006	0.112	1184012	keystroke_Key.space	Key.space	n/a
592.262	0.104	1184524	keystroke_p	p	n/a
592.486	0.104	1184972	keystroke_o	o	n/a
592.726	0.104	1185452	keystroke_n	n	n/a
593.126	0.104	1186252	keystroke_t	t	n/a
593.254	0.08	1186508	keystroke_i	i	n/a
593.398	0.088	1186796	keystroke_a	a	n/a
593.606	0.104	1187212	keystroke_c	c	n/a
594.094	0.08	1188188	keystroke_Key.enter	Key.enter	n/a
594.183	6.2305	1188366	prompt	n/a	challenging males card sara\n
594.934	0.104	1189868	keystroke_c	c	n/a
595.046	0.072	1190092	keystroke_h	h	n/a
595.158	0.08	1190316	keystroke_a	a	n/a
595.302	0.096	1190604	keystroke_l	l	n/a
595.502	0.08	1191004	keystroke_l	l	n/a
595.678	0.08	1191356	keystroke_e	e	n/a
595.902	0.104	1191804	keystroke_n	n	n/a
596.214	0.088	1192428	keystroke_g	g	n/a
596.334	0.12	1192668	keystroke_i	i	n/a
596.438	0.12	1192876	keystroke_n	n	n/a
596.622	0.072	1193244	keystroke_g	g	n/a
596.958	0.0875	1193916	keystroke_Key.space	Key.space	n/a
597.174	0.096	1194348	keystroke_m	m	n/a
597.278	0.104	1194556	keystroke_a	a	n/a
597.406	0.096	1194812	keystroke_l	l	n/a
597.534	0.0955	1195068	keystroke_e	e	n/a
597.7255	0.104	1195451	keystroke_s	s	n/a
598.0775	0.104	1196155	keystroke_Key.space	Key.space	n/a
598.4135	0.104	1196827	keystroke_c	c	n/a
598.5655	0.096	1197131	keystroke_a	a	n/a
598.7575	0.08	1197515	keystroke_r	r	n/a
598.9575	0.096	1197915	keystroke_d	d	n/a
599.1415	0.088	1198283	keystroke_Key.space	Key.space	n/a
599.4375	0.088	1198875	keystroke_s	s	n/a
599.6215	0.0955	1199243	keystroke_a	a	n/a
599.797	0.12	1199594	keystroke_r	r	n/a
600.0045	0.112	1200009	keystroke_a	a	n/a
600.332	0.08	1200664	keystroke_Key.enter	Key.enter	n/a
600.4195	15.572	1200839	prompt	n/a	monitored provincial configuring themes\n
601.0425	0.0955	1202085	keystroke_m	m	n/a
601.2175	0.088	1202435	keystroke_o	o	n/a
601.4255	0.088	1202851	keystroke_n	n	n/a
601.601	0.096	1203202	keystroke_i	i	n/a
601.801	0.088	1203602	keystroke_t	t	n/a
603.1905	0.088	1206381	keystroke_o	o	n/a
603.39	0.072	1206780	keystroke_t	t	n/a
603.598	0.0875	1207196	keystroke_e	e	n/a
603.7895	0.088	1207579	keystroke_d	d	n/a
603.9175	0.0955	1207835	keystroke_Key.space	Key.space	n/a
604.653	0.0955	1209306	keystroke_Key.backspace	Key.backspace	n/a
604.8445	0.08	1209689	keystroke_Key.backspace	Key.backspace	n/a
605.02	0.08	1210040	keystroke_Key.backspace	Key.backspace	n/a
605.204	0.088	1210408	keystroke_Key.backspace	Key.backspace	n/a
605.4755	0.096	1210951	keystroke_r	r	n/a
605.6435	0.1135	1211287	keystroke_e	e	n/a
605.965	0.0955	1211930	keystroke_d	d	n/a
606.278	0.104	1212556	keystroke_Key.space	Key.space	n/a
606.5815	0.1515	1213163	keystroke_p	p	n/a
606.8465	0.08	1213693	keystroke_r	r	n/a
607.022	0.104	1214044	keystroke_o	o	n/a
607.4145	0.096	1214829	keystroke_n	n	n/a
607.8695	0.0965	1215739	keystroke_Key.backspace	Key.backspace	n/a
608.086	0.1035	1216172	keystroke_c	c	n/a
608.3815	0.1215	1216763	keystroke_i	i	n/a
608.7185	0.0795	1217437	keystroke_Key.backspace	Key.backspace	n/a
608.854	0.096	1217708	keystroke_Key.backspace	Key.backspace	n/a
609.454	0.08	1218908	keystroke_v	v	n/a
609.5905	0.0955	1219181	keystroke_i	i	n/a
609.838	0.1355	1219676	keystroke_n	n	n/a
611.1425	0.104	1222285	keystroke_c	c	n/a
611.2465	0.1115	1222493	keystroke_i	i	n/a
611.406	0.096	1222812	keystroke_a	a	n/a
611.526	0.12	1223052	keystroke_l	l	n/a
611.694	0.0955	1223388	keystroke_Key.space	Key.space	n/a
611.8855	0.088	1223771	keystroke_c	c	n/a
611.9655	0.088	1223931	keystroke_o	o	n/a
612.133	0.089	1224266	keystroke_n	n	n/a
612.358	0.1115	1224716	keystroke_f	f	n/a
612.5335	0.12	1225067	keystroke_i	i	n/a
612.854	0.088	1225708	keystroke_g	g	n/a
612.998	0.104	1225996	keystroke_u	u	n/a
613.8465	0.088	1227693	keystroke_r	r	n/a
613.9985	0.1435	1227997	keystroke_i	i	n/a
614.126	0.104	1228252	keystroke_n	n	n/a
614.27	0.0885	1228540	keystroke_g	g	n/a
614.39	0.088	1228780	keystroke_Key.space	Key.space	n/a
614.55	0.08	1229100	keystroke_t	t	n/a
614.646	0.0955	1229292	keystroke_h	h	n/a
614.7495	0.072	1229499	keystroke_e	e	n/a
614.8695	0.0805	1229739	keystroke_m	m	n/a
614.942	0.072	1229884	keystroke_e	e	n/a
615.1415	0.072	1230283	keystroke_s	s	n/a
615.918	0.072	1231836	keystroke_Key.enter	Key.enter	n/a
615.997	9.3785	1231994	prompt	n/a	bond informal plants foam\n
616.822	0.0795	1233644	keystroke_b	b	n/a
616.9095	0.081	1233819	keystroke_o	o	n/a
617.062	0.08	1234124	keystroke_n	n	n/a
617.214	0.0875	1234428	keystroke_d	d	n/a
617.3495	0.08	1234699	keystroke_Key.space	Key.space	n/a
617.597	0.088	1235194	keystroke_i	i	n/a
617.7485	0.08	1235497	keystroke_n	n	n/a
617.9245	0.097	1235849	keystroke_f	f	n/a
618.053	0.104	1236106	keystroke_o	o	n/a
619.213	0.088	1238426	keystroke_r	r	n/a
619.4365	0.12	1238873	keystroke_m	m	n/a
619.8455	0.08	1239691	keystroke_a	a	n/a
620.214	0.1195	1240428	keystroke_l	l	n/a
620.621	0.1195	1241242	keystroke_Key.space	Key.space	n/a
620.9005	0.112	1241801	keystroke_p	p	n/a
621.084	0.104	1242168	keystroke_l	l	n/a
621.2445	0.12	1242489	keystroke_a	a	n/a
621.3725	0.072	1242745	keystroke_n	n	n/a
621.564	0.08	1243128	keystroke_t	t	n/a
621.797	0.088	1243594	keystroke_s	s	n/a
621.9405	0.088	1243881	keystroke_Key.space	Key.space	n/a
622.2845	0.1045	1244569	keystroke_g	g	n/a
622.469	0.088	1244938	keystroke_o	o	n/a
622.894	0.064	1245788	keystroke_Key.backspace	Key.backspace	n/a
623.03	0.0875	1246060	keystroke_Key.backspace	Key.backspace	n/a
623.581	0.1035	1247162	keystroke_f	f	n/a
623.7005	0.072	1247401	keystroke_o	o	n/a
624.589	0.128	1249178	keystroke_a	a	n/a
624.8865	0.1115	1249773	keystroke_m	m	n/a
625.294	0.0795	1250588	keystroke_Key.enter	Key.enter	n/a
625.381	7.594	1250762	prompt	n/a	massive maine never subscribers\n
626.087	0.104	1252174	keystroke_m	m	n/a
626.271	0.096	1252542	keystroke_a	a	n/a
626.448	0.064	1252896	keystroke_s	s	n/a
626.584	0.088	1253168	keystroke_s	s	n/a
626.696	0.064	1253392	keystroke_i	i	n/a
626.8155	0.096	1253631	keystroke_c	c	n/a
627.0315	0.104	1254063	keystroke_e	e	n/a
