onset	duration	sample	value	key	prompt_text
13.9715	0.1125	27943	keystroke	Key.media_volume_up	n/a
23.9725	0.0805	47945	keystroke	Key.down	n/a
24.2765	0.068	48553	keystroke	Key.down	n/a
24.5025	0.0895	49005	keystroke	Key.down	n/a
24.6815	0.0785	49363	keystroke	Key.down	n/a
24.8615	0.0785	49723	keystroke	Key.down	n/a
25.0415	0.0785	50083	keystroke	Key.down	n/a
29.9135	0.1005	59827	keystroke	j	n/a
29.9805	0.045	59961	keystroke	o	n/a
30.036	0.0905	60072	keystroke	s	n/a
30.0815	0.068	60163	keystroke	e	n/a
30.1375	0.113	60275	keystroke	p	n/a
30.217	0.067	60434	keystroke	h	n/a
30.262	0.0905	60524	keystroke	z	n/a
30.464	0.056	60928	keystroke	Key.tab	n/a
30.9815	0.09	61963	keystroke	Key.space	n/a
31.2525	0.044	62505	keystroke	Key.down	n/a
31.3865	0.0565	62773	keystroke	Key.down	n/a
31.5775	0.0675	63155	keystroke	Key.space	n/a
31.736	0.0895	63472	keystroke	Key.tab	n/a
32.1295	0.168	64259	keystroke	Key.cmd	n/a
32.23	0.079	64460	keystroke	v	n/a
32.579	0.1015	65158	keystroke	Key.tab	n/a
33.1075	0.079	66215	keystroke	Key.tab	n/a
33.288	0.067	66576	keystroke	Key.space	n/a
33.648	0.0895	67296	keystroke	Key.tab	n/a
33.9855	0.056	67971	keystroke	Key.space	n/a
37.0605	9.5715	74121	prompt	n/a	the quick brown fox jumps over a lazy dog\n
41.264	0.056	82528	keystroke	t	n/a
41.5565	0.068	83113	keystroke	h	n/a
41.703	0.0895	83406	keystroke	e	n/a
41.838	0.09	83676	keystroke	Key.space	n/a
41.951	0.1105	83902	keystroke	q	n/a
42.115	0.0785	84230	keystroke	u	n/a
42.25	0.0785	84500	keystroke	i	n/a
42.3395	0.061	84679	keystroke	c	n/a
42.4625	0.1025	84925	keystroke	k	n/a
42.539	0.0865	85078	keystroke	Key.space	n/a
42.631	0.068	85262	keystroke	b	n/a
42.8	0.065	85600	keystroke	r	n/a
42.9045	0.0715	85809	keystroke	o	n/a
42.9925	0.0675	85985	keystroke	w	n/a
43.101	0.0735	86202	keystroke	n	n/a
43.2815	0.0535	86563	keystroke	Key.space	n/a
43.3965	0.0755	86793	keystroke	f	n/a
43.501	0.0825	87002	keystroke	o	n/a
43.5905	0.064	87181	keystroke	x	n/a
43.722	0.0715	87444	keystroke	Key.space	n/a
43.819	0.0805	87638	keystroke	j	n/a
43.9855	0.08	87971	keystroke	u	n/a
44.174	0.1085	88348	keystroke	m	n/a
44.2435	0.0935	88487	keystroke	p	n/a
44.338	0.092	88676	keystroke	s	n/a
44.438	0.0795	88876	keystroke	Key.space	n/a
44.5585	0.066	89117	keystroke	o	n/a
44.634	0.097	89268	keystroke	v	n/a
44.788	0.1115	89576	keystroke	e	n/a
44.855	0.112	89710	keystroke	r	n/a
44.955	0.089	89910	keystroke	Key.space	n/a
45.0565	0.101	90113	keystroke	a	n/a
45.2045	0.0775	90409	keystroke	Key.space	n/a
45.3715	0.0785	90743	keystroke	l	n/a
45.4725	0.09	90945	keystroke	a	n/a
45.653	0.0885	91306	keystroke	z	n/a
45.753	0.09	91506	keystroke	y	n/a
45.8545	0.0675	91709	keystroke	Key.space	n/a
45.956	0.0895	91912	keystroke	d	n/a
46.046	0.09	92092	keystroke	o	n/a
46.203	0.0785	92406	keystroke	g	n/a
46.563	0.0675	93126	keystroke	Key.enter	n/a
46.638	4.8875	93276	prompt	n/a	sept vacancies brian corps\n
47.306	0.08	94612	keystroke	s	n/a
47.5195	0.067	95039	keystroke	e	n/a
47.6205	0.1015	95241	keystroke	p	n/a
47.7445	0.0895	95489	keystroke	t	n/a
47.823	0.068	95646	keystroke	Key.space	n/a
48.0255	0.0785	96051	keystroke	v	n/a
48.0815	0.102	96163	keystroke	a	n/a
48.308	0.0555	96616	keystroke	c	n/a
48.4305	0.0795	96861	keystroke	a	n/a
48.622	0.0785	97244	keystroke	n	n/a
48.7345	0.09	97469	keystroke	c	n/a
48.8585	0.078	97717	keystroke	i	n/a
48.971	0.1125	97942	keystroke	e	n/a
49.061	0.1015	98122	keystroke	s	n/a
49.174	0.067	98348	keystroke	Key.space	n/a
49.3195	0.079	98639	keystroke	b	n/a
49.533	0.045	99066	keystroke	r	n/a
49.612	0.091	99224	keystroke	i	n/a
49.714	0.078	99428	keystroke	a	n/a
49.815	0.112	99630	keystroke	n	n/a
49.938	0.0675	99876	keystroke	Key.space	n/a
50.1295	0.0785	100259	keystroke	c	n/a
50.253	0.0785	100506	keystroke	o	n/a
50.366	0.0785	100732	keystroke	r	n/a
50.523	0.1355	101046	keystroke	p	n/a
50.7255	0.0675	101451	keystroke	s	n/a
51.434	0.0905	102868	keystroke	Key.enter	n/a
51.531	8.24	103062	prompt	n/a	description endangered treaty quarterly\n
52.154	0.045	104308	keystroke	d	n/a
52.391	0.056	104782	keystroke	e	n/a
52.537	0.067	105074	keystroke	s	n/a
52.694	0.0675	105388	keystroke	c	n/a
52.863	0.0785	105726	keystroke	r	n/a
52.987	0.1465	105974	keystroke	i	n/a
53.0995	0.0785	106199	keystroke	p	n/a
53.1555	0.0675	106311	keystroke	t	n/a
53.336	0.1345	106672	keystroke	i	n/a
53.403	0.18	106806	keystroke	o	n/a
53.5715	0.114	107143	keystroke	n	n/a
53.696	0.1005	107392	keystroke	Key.space	n/a
54.044	0.079	108088	keystroke	d	n/a
54.393	0.0565	108786	keystroke	Key.backspace	n/a
54.573	0.0675	109146	keystroke	e	n/a
54.663	0.1015	109326	keystroke	n	n/a
54.888	0.0675	109776	keystroke	d	n/a
54.989	0.0905	109978	keystroke	a	n/a
55.1135	0.1015	110227	keystroke	n	n/a
55.226	0.0895	110452	keystroke	g	n/a
55.394	0.1015	110788	keystroke	e	n/a
55.4505	0.079	110901	keystroke	r	n/a
55.788	0.0675	111576	keystroke	e	n/a
55.968	0.1015	111936	keystroke	d	n/a
56.0585	0.089	112117	keystroke	Key.space	n/a
56.2375	0.0795	112475	keystroke	t	n/a
56.4295	0.1005	112859	keystroke	r	n/a
56.463	0.112	112926	keystroke	e	n/a
56.5865	0.09	113173	keystroke	a	n/a
56.665	0.068	113330	keystroke	t	n/a
56.8225	0.0905	113645	keystroke	y	n/a
56.9245	0.09	113849	keystroke	Key.space	n/a
57.115	0.079	114230	keystroke	e	n/a
57.374	0.0675	114748	keystroke	Key.backspace	n/a
57.4755	0.079	114951	keystroke	q	n/a
57.622	0.0895	115244	keystroke	u	n/a
57.7	0.124	115400	keystroke	a	n/a
57.8025	0.0775	115605	keystroke	r	n/a
57.9705	0.067	115941	keystroke	t	n/a
58.2415	0.0445	116483	keystroke	e	n/a
58.533	0.056	117066	keystroke	r	n/a
58.724	0.1575	117448	keystroke	l	n/a
58.882	0.1005	117764	keystroke	y	n/a
59.6915	0.079	119383	keystroke	Key.enter	n/a
59.7765	3.921	119553	prompt	n/a	bulk automobile morgan type\n
60.502	0.09	121004	keystroke	b	n/a
60.6265	0.1115	121253	keystroke	u	n/a
60.772	0.1235	121544	keystroke	l	n/a
60.8505	0.1125	121701	keystroke	k	n/a
61.008	0.0785	122016	keystroke	Key.space	n/a
61.188	0.067	122376	keystroke	a	n/a
61.289	0.0805	122578	keystroke	u	n/a
61.3905	0.0565	122781	keystroke	t	n/a
61.4805	0.112	122961	keystroke	o	n/a
61.6045	0.1345	123209	keystroke	m	n/a
61.7725	0.0905	123545	keystroke	o	n/a
61.9195	0.0785	123839	keystroke	b	n/a
62.032	0.135	124064	keystroke	i	n/a
62.1105	0.09	124221	keystroke	l	n/a
62.2005	0.0905	124401	keystroke	e	n/a
62.3025	0.0555	124605	keystroke	Key.space	n/a
62.4025	0.1015	124805	keystroke	m	n/a
62.4595	0.101	124919	keystroke	o	n/a
62.5495	0.0675	125099	keystroke	r	n/a
62.6955	0.1125	125391	keystroke	g	n/a
62.7745	0.09	125549	keystroke	a	n/a
62.887	0.0895	125774	keystroke	n	n/a
62.9655	0.079	125931	keystroke	Key.space	n/a
63.0555	0.0785	126111	keystroke	t	n/a
63.169	0.1115	126338	keystroke	y	n/a
63.247	0.112	126494	keystroke	p	n/a
63.3705	0.09	126741	keystroke	e	n/a
63.629	0.0675	127258	keystroke	Key.enter	n/a
63.7025	4.474	127405	prompt	n/a	fresh foundation albany honey\n
64.3375	0.068	128675	keystroke	f	n/a
64.507	0.0895	129014	keystroke	r	n/a
64.563	0.067	129126	keystroke	e	n/a
64.6645	0.101	129329	keystroke	s	n/a
64.788	0.09	129576	keystroke	h	n/a
64.878	0.0785	129756	keystroke	Key.space	n/a
64.979	0.068	129958	keystroke	f	n/a
65.0585	0.112	130117	keystroke	o	n/a
65.1255	0.0675	130251	keystroke	u	n/a
65.2945	0.101	130589	keystroke	n	n/a
65.362	0.057	130724	keystroke	d	n/a
65.4855	0.09	130971	keystroke	a	n/a
65.5415	0.0785	131083	keystroke	t	n/a
65.6315	0.1355	131263	keystroke	i	n/a
65.6875	0.113	131375	keystroke	o	n/a
65.7555	0.1135	131511	keystroke	n	n/a
65.8115	0.091	131623	keystroke	Key.space	n/a
65.924	0.102	131848	keystroke	a	n/a
66.0485	0.0895	132097	keystroke	l	n/a
66.138	0.0675	132276	keystroke	b	n/a
66.284	0.102	132568	keystroke	a	n/a
66.6215	0.101	133243	keystroke	n	n/a
66.824	0.0905	133648	keystroke	y	n/a
66.9485	0.078	133897	keystroke	Key.space	n/a
67.1505	0.113	134301	keystroke	h	n/a
67.2745	0.1125	134549	keystroke	o	n/a
67.353	0.101	134706	keystroke	n	n/a
67.465	0.0675	134930	keystroke	e	n/a
67.6115	0.091	135223	keystroke	y	n/a
68.1065	0.069	136213	keystroke	Key.enter	n/a
68.182	6.383	136364	prompt	n/a	hiking buffalo transfers shops\n
68.8155	0.124	137631	keystroke	h	n/a
68.906	0.0905	137812	keystroke	i	n/a
69.0755	0.0775	138151	keystroke	k	n/a
69.232	0.101	138464	keystroke	i	n/a
69.2995	0.0895	138599	keystroke	n	n/a
69.378	0.079	138756	keystroke	g	n/a
69.434	0.079	138868	keystroke	Key.space	n/a
69.5915	0.09	139183	keystroke	b	n/a
69.7155	0.0675	139431	keystroke	u	n/a
69.8625	0.09	139725	keystroke	a	n/a
70.0755	0.0675	140151	keystroke	f	n/a
70.1995	0.0895	140399	keystroke	f	n/a
70.683	0.056	141366	keystroke	Key.backspace	n/a
70.819	0.0445	141638	keystroke	Key.backspace	n/a
70.9415	0.068	141883	keystroke	Key.backspace	n/a
71.077	0.0565	142154	keystroke	f	n/a
71.212	0.0785	142424	keystroke	f	n/a
71.3125	0.1355	142625	keystroke	a	n/a
71.471	0.0785	142942	keystroke	l	n/a
71.6395	0.0675	143279	keystroke	o	n/a
71.7625	0.0905	143525	keystroke	Key.space	n/a
72.022	0.0335	144044	keystroke	t	n/a
72.169	0.078	144338	keystroke	r	n/a
72.258	0.113	144516	keystroke	a	n/a
72.4155	0.0675	144831	keystroke	n	n/a
72.4715	0.101	144943	keystroke	s	n/a
72.584	0.1125	145168	keystroke	f	n/a
72.7645	0.1235	145529	keystroke	e	n/a
72.8205	0.1125	145641	keystroke	r	n/a
72.967	0.1125	145934	keystroke	Key.space	n/a
73.4735	0.056	146947	keystroke	Key.backspace	n/a
73.608	0.0675	147216	keystroke	s	n/a
73.743	0.0785	147486	keystroke	Key.space	n/a
73.889	0.0565	147778	keystroke	s	n/a
73.979	0.158	147958	keystroke	h	n/a
74.0805	0.112	148161	keystroke	o	n/a
74.1255	0.135	148251	keystroke	p	n/a
74.2495	0.078	148499	keystroke	s	n/a
74.4965	0.0675	148993	keystroke	Key.enter	n/a
74.5725	6.608	149145	prompt	n/a	beautiful boulder gives yarn\n
75.138	0.0785	150276	keystroke	b	n/a
75.284	0.102	150568	keystroke	e	n/a
75.363	0.056	150726	keystroke	a	n/a
75.554	0.079	151108	keystroke	t	n/a
75.7005	0.146	151401	keystroke	u	n/a
75.836	0.0895	151672	keystroke	i	n/a
76.207	0.0455	152414	keystroke	Key.backspace	n/a
76.3415	0.045	152683	keystroke	Key.backspace	n/a
76.4655	0.067	152931	keystroke	Key.backspace	n/a
77.0615	0.091	154123	keystroke	u	n/a
77.4555	0.0675	154911	keystroke	t	n/a
77.5905	0.101	155181	keystroke	i	n/a
77.7025	0.0905	155405	keystroke	f	n/a
77.849	0.124	155698	keystroke	u	n/a
77.95	0.102	155900	keystroke	l	n/a
78.164	0.0905	156328	keystroke	Key.space	n/a
78.4115	0.0905	156823	keystroke	b	n/a
78.513	0.1015	157026	keystroke	o	n/a
78.592	0.101	157184	keystroke	u	n/a
78.7265	0.068	157453	keystroke	l	n/a
78.828	0.0785	157656	keystroke	d	n/a
78.974	0.135	157948	keystroke	e	n/a
79.0305	0.09	158061	keystroke	r	n/a
79.0975	0.0795	158195	keystroke	Key.space	n/a
79.233	0.0785	158466	keystroke	g	n/a
79.3905	0.0675	158781	keystroke	i	n/a
79.4695	0.101	158939	keystroke	v	n/a
79.559	0.135	159118	keystroke	e	n/a
79.638	0.102	159276	keystroke	s	n/a
79.7055	0.1135	159411	keystroke	Key.space	n/a
79.8295	0.135	159659	keystroke	a	n/a
80.1775	0.079	160355	keystroke	Key.backspace	n/a
80.583	0.1025	161166	keystroke	y	n/a
80.6955	0.1235	161391	keystroke	a	n/a
80.7855	0.0785	161571	keystroke	r	n/a
80.92	0.102	161840	keystroke	n	n/a
81.1225	0.057	162245	keystroke	Key.enter	n/a
81.186	4.494	162372	prompt	n/a	discipline review flow stadium\n
81.7085	0.067	163417	keystroke	d	n/a
81.9225	0.089	163845	keystroke	i	n/a
82.079	0.0675	164158	keystroke	s	n/a
82.237	0.067	164474	keystroke	c	n/a
82.3265	0.113	164653	keystroke	i	n/a
82.507	0.135	165014	keystroke	p	n/a
82.81	0.147	165620	keystroke	l	n/a
82.9	0.147	165800	keystroke	i	n/a
83.013	0.1015	166026	keystroke	n	n/a
83.103	0.1125	166206	keystroke	e	n/a
83.204	0.068	166408	keystroke	Key.space	n/a
83.3855	0.111	166771	keystroke	r	n/a
83.4625	0.0675	166925	keystroke	e	n/a
83.62	0.0795	167240	keystroke	v	n/a
83.7105	0.0785	167421	keystroke	i	n/a
83.8115	0.102	167623	keystroke	e	n/a
83.869	0.1005	167738	keystroke	w	n/a
83.9805	0.056	167961	keystroke	Key.space	n/a
84.048	0.0895	168096	keystroke	f	n/a
84.16	0.0565	168320	keystroke	l	n/a
84.284	0.0685	168568	keystroke	o	n/a
84.374	0.079	168748	keystroke	w	n/a
84.4415	0.0905	168883	keystroke	Key.space	n/a
84.588	0.112	169176	keystroke	s	n/a
84.7115	0.0575	169423	keystroke	t	n/a
84.8025	0.1005	169605	keystroke	a	n/a
84.9815	0.068	169963	keystroke	d	n/a
85.128	0.1465	170256	keystroke	i	n/a
85.2405	0.079	170481	keystroke	u	n/a
85.4315	0.113	170863	keystroke	m	n/a
85.626	0.053	171252	keystroke	Key.enter	n/a
85.6855	5.7555	171371	prompt	n/a	offer telephone commands entering\n
86.2195	0.0675	172439	keystroke	o	n/a
86.3205	0.0785	172641	keystroke	f	n/a
86.4675	0.0895	172935	keystroke	f	n/a
86.591	0.1125	173182	keystroke	e	n/a
86.658	0.135	173316	keystroke	r	n/a
86.7715	0.0895	173543	keystroke	Key.space	n/a
87.1085	0.0785	174217	keystroke	e	n/a
87.2205	0.0785	174441	keystroke	l	n/a
87.536	0.0335	175072	keystroke	Key.backspace	n/a
87.6595	0.067	175319	keystroke	Key.backspace	n/a
87.8055	0.1135	175611	keystroke	t	n/a
87.929	0.0675	175858	keystroke	e	n/a
88.019	0.0905	176038	keystroke	l	n/a
88.1205	0.0905	176241	keystroke	e	n/a
88.346	0.101	176692	keystroke	p	n/a
88.413	0.146	176826	keystroke	h	n/a
88.5815	0.113	177163	keystroke	o	n/a
88.683	0.101	177366	keystroke	n	n/a
88.7625	0.09	177525	keystroke	e	n/a
88.819	0.089	177638	keystroke	Key.space	n/a
88.9755	0.079	177951	keystroke	c	n/a
89.043	0.079	178086	keystroke	o	n/a
89.0995	0.067	178199	keystroke	m	n/a
89.2455	0.0785	178491	keystroke	m	n/a
89.358	0.1125	178716	keystroke	a	n/a
89.448	0.0785	178896	keystroke	n	n/a
89.5605	0.1235	179121	keystroke	d	n/a
89.628	0.125	179256	keystroke	s	n/a
89.73	0.101	179460	keystroke	Key.space	n/a
89.92	0.0795	179840	keystroke	t	n/a
90.1795	0.0675	180359	keystroke	Key.backspace	n/a
90.326	0.0895	180652	keystroke	e	n/a
90.438	0.1125	180876	keystroke	n	n/a
90.562	0.067	181124	keystroke	t	n/a
90.7085	0.1125	181417	keystroke	e	n/a
90.776	0.09	181552	keystroke	r	n/a
90.911	0.112	181822	keystroke	i	n/a
90.978	0.1125	181956	keystroke	n	n/a
91.1025	0.0665	182205	keystroke	g	n/a
91.372	0.0675	182744	keystroke	Key.enter	n/a
91.447	4.7065	182894	prompt	n/a	provisions prospect delay close\n
91.957	0.09	183914	keystroke	p	n/a
92.0915	0.068	184183	keystroke	r	n/a
92.171	0.0785	184342	keystroke	o	n/a
92.272	0.0895	184544	keystroke	v	n/a
92.373	0.056	184746	keystroke	i	n/a
92.4965	0.057	184993	keystroke	s	n/a
92.5645	0.135	185129	keystroke	i	n/a
92.643	0.146	185286	keystroke	o	n/a
92.7565	0.1135	185513	keystroke	n	n/a
92.8455	0.1015	185691	keystroke	s	n/a
92.936	0.0895	185872	keystroke	Key.space	n/a
93.0485	0.1005	186097	keystroke	p	n/a
93.1715	0.079	186343	keystroke	r	n/a
93.588	0.0675	187176	keystroke	o	n/a
93.7685	0.0555	187537	keystroke	s	n/a
93.926	0.1005	187852	keystroke	p	n/a
94.0605	0.0565	188121	keystroke	e	n/a
94.2295	0.0785	188459	keystroke	c	n/a
94.398	0.09	188796	keystroke	t	n/a
94.4655	0.0905	188931	keystroke	Key.space	n/a
94.6115	0.0795	189223	keystroke	d	n/a
94.7695	0.0785	189539	keystroke	e	n/a
94.893	0.0785	189786	keystroke	l	n/a
95.0165	0.079	190033	keystroke	a	n/a
95.175	0.078	190350	keystroke	y	n/a
95.2985	0.067	190597	keystroke	Key.space	n/a
95.478	0.0675	190956	keystroke	c	n/a
95.559	0.054	191118	keystroke	l	n/a
95.7815	0.0115	191563	keystroke	o	n/a
95.804	0.1015	191608	keystroke	s	n/a
95.872	0.09	191744	keystroke	e	n/a
96.0855	0.067	192171	keystroke	Key.enter	n/a
96.1595	10.536	192319	prompt	n/a	guitars conspiracy exceptions recovery\n
96.7155	0.0895	193431	keystroke	g	n/a
96.8615	0.135	193723	keystroke	u	n/a
96.9625	0.068	193925	keystroke	i	n/a
97.0415	0.09	194083	keystroke	t	n/a
97.1765	0.124	194353	keystroke	a	n/a
97.267	0.0915	194534	keystroke	r	n/a
97.447	0.101	194894	keystroke	s	n/a
97.525	0.068	195050	keystroke	Key.space	n/a
97.9305	0.079	195861	keystroke	c	n/a
98.0205	0.112	196041	keystroke	o	n/a
98.111	0.101	196222	keystroke	n	n/a
98.2005	0.0785	196401	keystroke	s	n/a
98.3355	0.1125	196671	keystroke	p	n/a
98.414	0.1015	196828	keystroke	i	n/a
98.549	0.103	197098	keystroke	r	n/a
98.651	0.0685	197302	keystroke	a	n/a
98.8195	0.0785	197639	keystroke	c	n/a
98.943	0.079	197886	keystroke	y	n/a
99.0445	0.0895	198089	keystroke	Key.space	n/a
99.191	0.0675	198382	keystroke	e	n/a
99.3485	0.067	198697	keystroke	x	n/a
99.5165	0.0675	199033	keystroke	e	n/a
99.6865	0.078	199373	keystroke	c	n/a
99.843	0.068	199686	keystroke	p	n/a
99.9335	0.0785	199867	keystroke	t	n/a
100.069	0.146	200138	keystroke	i	n/a
100.136	0.1125	200272	keystroke	o	n/a
100.2255	0.101	200451	keystroke	n	n/a
100.3045	0.09	200609	keystroke	s	n/a
100.4395	0.0895	200879	keystroke	Key.space	n/a
100.6645	0.135	201329	keystroke	r	n/a
100.7655	0.1015	201531	keystroke	e	n/a
101.1145	0.045	202229	keystroke	Key.backspace	n/a
101.2605	0.0455	202521	keystroke	Key.backspace	n/a
101.3615	0.0675	202723	keystroke	Key.backspace	n/a
101.508	0.056	203016	keystroke	Key.backspace	n/a
101.643	0.057	203286	keystroke	Key.backspace	n/a
101.779	0.058	203558	keystroke	Key.backspace	n/a
101.9245	0.0465	203849	keystroke	Key.backspace	n/a
102.048	0.0565	204096	keystroke	Key.backspace	n/a
102.1835	0.0695	204367	keystroke	Key.backspace	n/a
102.4205	0.0445	204841	keystroke	Key.backspace	n/a
102.904	0.0335	205808	keystroke	Key.backspace	n/a
103.061	0.0675	206122	keystroke	Key.backspace	n/a
103.23	0.057	206460	keystroke	Key.backspace	n/a
103.455	0.0675	206910	keystroke	e	n/a
103.6695	0.0895	207339	keystroke	x	n/a
104.0865	0.077	208173	keystroke	c	n/a
104.2875	0.045	208575	keystroke	e	n/a
104.4675	0.0895	208935	keystroke	p	n/a
104.5795	0.08	209159	keystroke	t	n/a
104.749	0.1685	209498	keystroke	i	n/a
104.8045	0.169	209609	keystroke	o	n/a
104.94	0.113	209880	keystroke	n	n/a
105.0865	0.078	210173	keystroke	s	n/a
105.2665	0.1115	210533	keystroke	Key.space	n/a
105.436	0.123	210872	keystroke	r	n/a
105.503	0.09	211006	keystroke	e	n/a
105.6935	0.0905	211387	keystroke	c	n/a
105.795	0.0795	211590	keystroke	o	n/a
105.8865	0.0885	211773	keystroke	v	n/a
106.065	0.112	212130	keystroke	e	n/a
106.1205	0.101	212241	keystroke	r	n/a
106.3005	0.1125	212601	keystroke	y	n/a
106.5935	0.101	213187	keystroke	Key.enter	n/a
106.701	4.461	213402	prompt	n/a	his often lowest temple\n
107.3805	0.09	214761	keystroke	h	n/a
107.437	0.0785	214874	keystroke	i	n/a
107.504	0.102	215008	keystroke	s	n/a
107.5835	0.102	215167	keystroke	Key.space	n/a
107.752	0.0785	215504	keystroke	o	n/a
107.966	0.0675	215932	keystroke	f	n/a
108.146	0.0895	216292	keystroke	t	n/a
108.281	0.0895	216562	keystroke	e	n/a
108.393	0.09	216786	keystroke	n	n/a
108.483	0.096	216966	keystroke	Key.space	n/a
108.6075	0.078	217215	keystroke	l	n/a
108.753	0.079	217506	keystroke	o	n/a
108.877	0.112	217754	keystroke	w	n/a
109.0565	0.1355	218113	keystroke	e	n/a
109.192	0.1235	218384	keystroke	s	n/a
109.293	0.1355	218586	keystroke	t	n/a
109.408	0.088	218816	keystroke	Key.space	n/a
109.5295	0.123	219059	keystroke	t	n/a
109.6415	0.09	219283	keystroke	e	n/a
109.754	0.1915	219508	keystroke	m	n/a
109.889	0.0905	219778	keystroke	p	n/a
109.9455	0.113	219891	keystroke	l	n/a
110.0805	0.169	220161	keystroke	t	n/a
110.2155	0.135	220431	keystroke	e	n/a
110.486	0.0555	220972	keystroke	Key.backspace	n/a
110.643	0.0565	221286	keystroke	Key.backspace	n/a
110.7785	0.0675	221557	keystroke	e	n/a
111.0705	0.0905	222141	keystroke	Key.enter	n/a
111.167	4.641	222334	prompt	n/a	idol float frequencies connector\n
111.8025	0.067	223605	keystroke	i	n/a
111.9035	0.078	223807	keystroke	d	n/a
112.0155	0.079	224031	keystroke	o	n/a
112.1735	0.1005	224347	keystroke	l	n/a
112.319	0.0795	224638	keystroke	Key.space	n/a
112.499	0.09	224998	keystroke	f	n/a
112.5895	0.0675	225179	keystroke	l	n/a
112.7585	0.056	225517	keystroke	o	n/a
112.826	0.112	225652	keystroke	a	n/a
112.9605	0.0905	225921	keystroke	t	n/a
113.052	0.055	226104	keystroke	Key.space	n/a
113.1965	0.0565	226393	keystroke	f	n/a
113.366	0.112	226732	keystroke	r	n/a
113.4445	0.1125	226889	keystroke	e	n/a
113.569	0.101	227138	keystroke	q	n/a
113.692	0.0675	227384	keystroke	u	n/a
113.804	0.0905	227608	keystroke	e	n/a
113.8835	0.112	227767	keystroke	n	n/a
114.007	0.112	228014	keystroke	c	n/a
114.1415	0.0565	228283	keystroke	i	n/a
114.2435	0.112	228487	keystroke	e	n/a
114.311	0.0895	228622	keystroke	s	n/a
114.4115	0.08	228823	keystroke	Key.space	n/a
114.547	0.09	229094	keystroke	c	n/a
114.648	0.101	229296	keystroke	o	n/a
114.704	0.0675	229408	keystroke	n	n/a
114.8505	0.0905	229701	keystroke	n	n/a
114.952	0.0445	229904	keystroke	e	n/a
115.143	0.079	230286	keystroke	c	n/a
115.3455	0.0565	230691	keystroke	t	n/a
115.4465	0.0565	230893	keystroke	o	n/a
115.526	0.067	231052	keystroke	r	n/a
115.751	0.0555	231502	keystroke	Key.enter	n/a
115.8135	5.2365	231627	prompt	n/a	challenging probably scores assess\n
116.3695	0.079	232739	keystroke	c	n/a
116.493	0.0785	232986	keystroke	h	n/a
116.583	0.079	233166	keystroke	a	n/a
116.684	0.068	233368	keystroke	l	n/a
116.8305	0.056	233661	keystroke	l	n/a
116.909	0.0905	233818	keystroke	e	n/a
117.011	0.067	234022	keystroke	n	n/a
117.1115	0.079	234223	keystroke	g	n/a
117.269	0.1125	234538	keystroke	i	n/a
117.348	0.1125	234696	keystroke	n	n/a
117.438	0.113	234876	keystroke	g	n/a
117.528	0.079	235056	keystroke	Key.space	n/a
117.8095	0.079	235619	keystroke	p	n/a
117.8995	0.0785	235799	keystroke	r	n/a
118.0005	0.0785	236001	keystroke	o	n/a
118.124	0.0795	236248	keystroke	b	n/a
118.226	0.1005	236452	keystroke	a	n/a
118.304	0.079	236608	keystroke	b	n/a
118.507	0.112	237014	keystroke	l	n/a
118.5855	0.1125	237171	keystroke	y	n/a
118.7205	0.09	237441	keystroke	Key.space	n/a
118.878	0.0795	237756	keystroke	s	n/a
119.0585	0.09	238117	keystroke	c	n/a
119.1595	0.056	238319	keystroke	o	n/a
119.283	0.113	238566	keystroke	r	n/a
119.373	0.1135	238746	keystroke	e	n/a
119.4635	0.135	238927	keystroke	s	n/a
119.587	0.09	239174	keystroke	Key.space	n/a
119.711	0.0895	239422	keystroke	a	n/a
119.8575	0.078	239715	keystroke	s	n/a
120.026	0.078	240052	keystroke	s	n/a
120.1835	0.0895	240367	keystroke	e	n/a
120.307	0.067	240614	keystroke	s	n/a
120.453	0.0675	240906	keystroke	s	n/a
120.9815	0.0675	241963	keystroke	Key.enter	n/a
121.0555	5.845	242111	prompt	n/a	arab guitars columbia wondering\n
121.6115	0.102	243223	keystroke	a	n/a
121.747	0.112	243494	keystroke	r	n/a
121.8815	0.0905	243763	keystroke	a	n/a
122.096	0.0785	244192	keystroke	b	n/a
122.287	0.0675	244574	keystroke	Key.space	n/a
122.523	0.1125	245046	keystroke	c	n/a
122.849	0.0455	245698	keystroke	Key.backspace	n/a
123.0525	0.078	246105	keystroke	g	n/a
123.2315	0.1245	246463	keystroke	u	n/a
123.3215	0.1015	246643	keystroke	i	n/a
123.5135	0.09	247027	keystroke	t	n/a
123.671	0.123	247342	keystroke	a	n/a
123.7605	0.09	247521	keystroke	r	n/a
123.9525	0.0665	247905	keystroke	s	n/a
124.053	0.0675	248106	keystroke	Key.space	n/a
124.2225	0.078	248445	keystroke	c	n/a
124.301	0.056	248602	keystroke	o	n/a
124.4585	0.1345	248917	keystroke	l	n/a
124.604	0.068	249208	keystroke	u	n/a
124.784	0.1015	249568	keystroke	m	n/a
124.8965	0.09	249793	keystroke	b	n/a
125.009	0.0795	250018	keystroke	i	n/a
125.0995	0.101	250199	keystroke	a	n/a
125.2115	0.0795	250423	keystroke	Key.space	n/a
125.313	0.079	250626	keystroke	w	n/a
125.426	0.112	250852	keystroke	o	n/a
125.504	0.102	251008	keystroke	n	n/a
125.6285	0.0785	251257	keystroke	d	n/a
126.112	0.1345	252224	keystroke	e	n/a
126.224	0.079	252448	keystroke	r	n/a
126.404	0.1125	252808	keystroke	i	n/a
126.483	0.113	252966	keystroke	n	n/a
126.6295	0.0785	253259	keystroke	g	n/a
126.8435	0.056	253687	keystroke	Key.enter	n/a
126.906	4.0785	253812	prompt	n/a	involving internal lives cedar\n
127.451	0.123	254902	keystroke	i	n/a
127.552	0.0895	255104	keystroke	n	n/a
127.653	0.0675	255306	keystroke	v	n/a
127.7545	0.068	255509	keystroke	o	n/a
127.934	0.068	255868	keystroke	l	n/a
128.036	0.09	256072	keystroke	v	n/a
128.1485	0.112	256297	keystroke	i	n/a
128.2155	0.1125	256431	keystroke	n	n/a
128.3055	0.1135	256611	keystroke	g	n/a
128.384	0.1015	256768	keystroke	Key.space	n/a
128.553	0.1015	257106	keystroke	i	n/a
128.621	0.1015	257242	keystroke	n	n/a
128.7225	0.09	257445	keystroke	t	n/a
128.8795	0.101	257759	keystroke	e	n/a
128.9245	0.0785	257849	keystroke	r	n/a
129.0485	0.101	258097	keystroke	n	n/a
129.127	0.0905	258254	keystroke	a	n/a
129.24	0.0675	258480	keystroke	l	n/a
129.3295	0.0785	258659	keystroke	Key.space	n/a
129.465	0.1345	258930	keystroke	l	n/a
129.5545	0.09	259109	keystroke	i	n/a
129.656	0.1135	259312	keystroke	v	n/a
129.757	0.1125	259514	keystroke	e	n/a
129.8245	0.135	259649	keystroke	s	n/a
129.9485	0.0785	259897	keystroke	Key.space	n/a
130.117	0.0685	260234	keystroke	c	n/a
130.308	0.0455	260616	keystroke	e	n/a
130.4655	0.0795	260931	keystroke	d	n/a
130.6005	0.1355	261201	keystroke	a	n/a
130.703	0.089	261406	keystroke	r	n/a
130.9155	0.068	261831	keystroke	Key.enter	n/a
130.99	12.663	261980	prompt	n/a	disclosure paraguay westminster respond\n
133.5485	0.067	267097	keystroke	d	n/a
133.6265	0.0795	267253	keystroke	i	n/a
133.7735	0.0675	267547	keystroke	s	n/a
133.9415	0.0675	267883	keystroke	c	n/a
134.0205	0.0785	268041	keystroke	l	n/a
134.178	0.079	268356	keystroke	o	n/a
135.191	0.0895	270382	keystroke	s	n/a
135.371	0.078	270742	keystroke	u	n/a
135.4835	0.1355	270967	keystroke	r	n/a
135.573	0.1235	271146	keystroke	e	n/a
135.6745	0.0895	271349	keystroke	Key.space	n/a
135.9105	0.09	271821	keystroke	p	n/a
136.0115	0.1015	272023	keystroke	a	n/a
136.079	0.1125	272158	keystroke	r	n/a
136.2035	0.0895	272407	keystroke	a	n/a
136.361	0.0785	272722	keystroke	g	n/a
136.5185	0.1345	273037	keystroke	u	n/a
136.6645	0.056	273329	keystroke	a	n/a
136.8335	0.0895	273667	keystroke	y	n/a
136.991	0.0785	273982	keystroke	Key.space	n/a
137.4295	0.067	274859	keystroke	w	n/a
137.5535	0.09	275107	keystroke	e	n/a
137.711	0.056	275422	keystroke	s	n/a
137.7335	0.1005	275467	keystroke	t	n/a
138.206	0.135	276412	keystroke	m	n/a
138.3525	0.134	276705	keystroke	i	n/a
138.4415	0.113	276883	keystroke	n	n/a
138.6555	0.0785	277311	keystroke	n	n/a
138.9595	0.067	277919	keystroke	Key.backspace	n/a
139.162	0.0785	278324	keystroke	i	n/a
139.286	0.1125	278572	keystroke	s	n/a
139.376	0.101	278752	keystroke	t	n/a
139.5335	0.124	279067	keystroke	e	n/a
139.6005	0.0905	279201	keystroke	r	n/a
140.017	0.0565	280034	keystroke	Key.space	n/a
140.4555	0.0675	280911	keystroke	Key.backspace	n/a
140.793	0.124	281586	keystroke	r	n/a
140.8605	0.0905	281721	keystroke	e	n/a
141.232	0.045	282464	keystroke	Key.backspace	n/a
141.356	0.0555	282712	keystroke	Key.backspace	n/a
141.5135	0.0785	283027	keystroke	Key.space	n/a
141.6365	0.135	283273	keystroke	r	n/a
141.817	0.1015	283634	keystroke	e	n/a
142.019	0.0795	284038	keystroke	s	n/a
142.8075	0.1115	285615	keystroke	p	n/a
142.8635	0.157	285727	keystroke	o	n/a
142.998	0.1125	285996	keystroke	n	n/a
143.156	0.078	286312	keystroke	d	n/a
143.594	0.058	287188	keystroke	Key.enter	n/a
143.6585	8.2955	287317	prompt	n/a	cartridge titans revenues instead\n
144.427	0.0455	288854	keystroke	c	n/a
144.517	0.124	289034	keystroke	a	n/a
144.6295	0.09	289259	keystroke	r	n/a
144.8095	0.0785	289619	keystroke	t	n/a
144.9445	0.0785	289889	keystroke	i	n/a
145.8245	0.0645	291649	keystroke	Key.backspace	n/a
146.047	0.088	292094	keystroke	r	n/a
146.148	0.081	292296	keystroke	i	n/a
146.249	0.0905	292498	keystroke	d	n/a
146.407	0.112	292814	keystroke	g	n/a
146.508	0.0905	293016	keystroke	e	n/a
146.7115	0.0665	293423	keystroke	Key.space	n/a
147.374	0.079	294748	keystroke	t	n/a
147.4755	0.0675	294951	keystroke	i	n/a
147.577	0.0785	295154	keystroke	t	n/a
147.7005	0.1015	295401	keystroke	a	n/a
147.8585	0.1125	295717	keystroke	n	n/a
148.094	0.058	296188	keystroke	s	n/a
148.533	0.0785	297066	keystroke	Key.space	n/a
148.7585	0.112	297517	keystroke	r	n/a
148.848	0.0785	297696	keystroke	e	n/a
149.0055	0.1015	298011	keystroke	v	n/a
149.096	0.0895	298192	keystroke	e	n/a
149.287	0.067	298574	keystroke	n	n/a
149.467	0.09	298934	keystroke	u	n/a
149.5795	0.0675	299159	keystroke	e	n/a
149.7485	0.078	299497	keystroke	s	n/a
149.9395	0.056	299879	keystroke	Key.space	n/a
150.7045	0.1345	301409	keystroke	i	n/a
150.7945	0.112	301589	keystroke	n	n/a
151.0645	0.0785	302129	keystroke	s	n/a
151.177	0.1345	302354	keystroke	t	n/a
151.278	0.091	302556	keystroke	e	n/a
151.357	0.101	302714	keystroke	a	n/a
151.447	0.0905	302894	keystroke	d	n/a
151.874	0.079	303748	keystroke	Key.enter	n/a
151.961	6.012	303922	prompt	n/a	offline before cheats immediate\n
152.617	0.045	305234	keystroke	o	n/a
152.707	0.0785	305414	keystroke	f	n/a
152.8415	0.0905	305683	keystroke	f	n/a
152.9995	0.1795	305999	keystroke	l	n/a
153.112	0.1345	306224	keystroke	i	n/a
153.202	0.101	306404	keystroke	n	n/a
153.2805	0.1015	306561	keystroke	e	n/a
153.371	0.0785	306742	keystroke	Key.space	n/a
153.5165	0.1025	307033	keystroke	b	n/a
153.652	0.135	307304	keystroke	e	n/a
153.798	0.09	307596	keystroke	f	n/a
153.911	0.0895	307822	keystroke	o	n/a
154.012	0.1015	308024	keystroke	r	n/a
154.0795	0.1015	308159	keystroke	e	n/a
154.1585	0.0675	308317	keystroke	Key.space	n/a
154.428	0.101	308856	keystroke	c	n/a
154.664	0.102	309328	keystroke	h	n/a
154.811	0.0895	309622	keystroke	e	n/a
154.878	0.1355	309756	keystroke	a	n/a
155.002	0.0785	310004	keystroke	t	n/a
155.1255	0.0785	310251	keystroke	s	n/a
155.441	0.078	310882	keystroke	Key.space	n/a
155.9585	0.0895	311917	keystroke	i	n/a
156.026	0.067	312052	keystroke	m	n/a
156.1715	0.1015	312343	keystroke	m	n/a
156.341	0.101	312682	keystroke	e	n/a
156.769	0.0785	313538	keystroke	d	n/a
156.892	0.09	313784	keystroke	i	n/a
157.027	0.0785	314054	keystroke	a	n/a
157.3305	0.113	314661	keystroke	t	n/a
157.4775	0.0895	314955	keystroke	e	n/a
157.9265	0.0455	315853	keystroke	Key.enter	n/a
157.9785	6.4645	315957	prompt	n/a	casino microphone ugly types\n
159.423	0.0795	318846	keystroke	c	n/a
159.547	0.09	319094	keystroke	a	n/a
159.7045	0.0675	319409	keystroke	s	n/a
159.8965	0.089	319793	keystroke	i	n/a
160.155	0.112	320310	keystroke	n	n/a
160.357	0.0905	320714	keystroke	o	n/a
160.6155	0.068	321231	keystroke	Key.space	n/a
160.8855	0.1125	321771	keystroke	m	n/a
160.9645	0.1015	321929	keystroke	i	n/a
161.0885	0.0565	322177	keystroke	c	n/a
161.2575	0.0785	322515	keystroke	r	n/a
161.3585	0.0785	322717	keystroke	o	n/a
161.583	0.124	323166	keystroke	p	n/a
161.6855	0.1335	323371	keystroke	h	n/a
161.8415	0.1245	323683	keystroke	o	n/a
161.943	0.113	323886	keystroke	n	n/a
162.0225	0.113	324045	keystroke	e	n/a
162.123	0.09	324246	keystroke	Key.space	n/a
162.393	0.0675	324786	keystroke	u	n/a
162.585	0.067	325170	keystroke	g	n/a
162.708	0.146	325416	keystroke	l	n/a
162.843	0.079	325686	keystroke	y	n/a
163.0685	0.0785	326137	keystroke	Key.space	n/a
163.1585	0.09	326317	keystroke	t	n/a
163.5855	0.0905	327171	keystroke	y	n/a
163.788	0.09	327576	keystroke	p	n/a
163.923	0.135	327846	keystroke	e	n/a
164.0245	0.101	328049	keystroke	s	n/a
164.3625	0.079	328725	keystroke	Key.enter	n/a
164.4485	7.644	328897	prompt	n/a	multimedia abstract suite align\n
167.1335	0.078	334267	keystroke	m	n/a
167.312	0.043	334624	keystroke	u	n/a
167.4505	0.0905	334901	keystroke	l	n/a
167.601	0.0905	335202	keystroke	t	n/a
167.6765	0.085	335353	keystroke	i	n/a
168.0905	0.076	336181	keystroke	m	n/a
168.2175	0.062	336435	keystroke	e	n/a
168.3875	0.038	336775	keystroke	d	n/a
168.447	0.079	336894	keystroke	i	n/a
168.5485	0.0935	337097	keystroke	a	n/a
168.688	0.0855	337376	keystroke	Key.space	n/a
169.0315	0.101	338063	keystroke	a	n/a
169.188	0.082	338376	keystroke	b	n/a
169.3135	0.134	338627	keystroke	s	n/a
169.4595	0.078	338919	keystroke	t	n/a
169.6275	0.102	339255	keystroke	r	n/a
169.687	0.0765	339374	keystroke	a	n/a
169.8755	0.0675	339751	keystroke	c	n/a
170.0555	0.0895	340111	keystroke	t	n/a
170.123	0.067	340246	keystroke	Key.space	n/a
170.258	0.0905	340516	keystroke	s	n/a
170.471	0.1235	340942	keystroke	u	n/a
170.561	0.1135	341122	keystroke	i	n/a
170.73	0.1235	341460	keystroke	t	n/a
170.865	0.1125	341730	keystroke	e	n/a
170.9895	0.0675	341979	keystroke	Key.space	n/a
171.0895	0.0905	342179	keystroke	a	n/a
171.213	0.1135	342426	keystroke	l	n/a
171.2925	0.112	342585	keystroke	i	n/a
171.4505	0.069	342901	keystroke	g	n/a
171.541	0.112	343082	keystroke	n	n/a
172.013	0.0785	344026	keystroke	Key.enter	n/a
172.0985	9.8715	344197	prompt	n/a	changed expenses between upgrade\n
177.255	0.0785	354510	keystroke	c	n/a
177.3785	0.067	354757	keystroke	h	n/a
177.457	0.09	354914	keystroke	a	n/a
177.592	0.0785	355184	keystroke	n	n/a
177.705	0.115	355410	keystroke	g	n/a
177.806	0.0905	355612	keystroke	e	n/a
177.9865	0.079	355973	keystroke	d	n/a
178.1665	0.078	356333	keystroke	Key.space	n/a
178.481	0.034	356962	keystroke	e	n/a
178.6155	0.0905	357231	keystroke	x	n/a
178.7395	0.0795	357479	keystroke	p	n/a
178.8405	0.09	357681	keystroke	e	n/a
179.021	0.0785	358042	keystroke	n	n/a
179.111	0.078	358222	keystroke	s	n/a
179.2355	0.1005	358471	keystroke	e	n/a
179.403	0.101	358806	keystroke	d	n/a
179.493	0.0785	358986	keystroke	Key.space	n/a
179.7525	0.078	359505	keystroke	b	n/a
179.887	0.09	359774	keystroke	e	n/a
180.0665	0.0565	360133	keystroke	t	n/a
180.1355	0.0885	360271	keystroke	w	n/a
180.258	0.1015	360516	keystroke	e	n/a
180.4265	0.0675	360853	keystroke	e	n/a
180.562	0.09	361124	keystroke	n	n/a
180.663	0.0785	361326	keystroke	Key.space	n/a
180.9105	0.079	361821	keystroke	u	n/a
181.0795	0.079	362159	keystroke	p	n/a
181.2035	0.078	362407	keystroke	g	n/a
181.383	0.113	362766	keystroke	r	n/a
181.4615	0.068	362923	keystroke	a	n/a
181.608	0.068	363216	keystroke	d	n/a
181.766	0.045	363532	keystroke	e	n/a
181.9115	0.0575	363823	keystroke	Key.enter	n/a
181.9755	4.6965	363951	prompt	n/a	warehouse reports equity romance\n
182.5645	0.112	365129	keystroke	w	n/a
182.7105	0.1015	365421	keystroke	a	n/a
182.7895	0.135	365579	keystroke	r	n/a
182.9135	0.101	365827	keystroke	e	n/a
183.093	0.1015	366186	keystroke	h	n/a
183.2505	0.1125	366501	keystroke	o	n/a
183.3405	0.101	366681	keystroke	u	n/a
183.4305	0.113	366861	keystroke	s	n/a
183.498	0.124	366996	keystroke	e	n/a
183.611	0.0895	367222	keystroke	Key.space	n/a
183.7685	0.123	367537	keystroke	r	n/a
183.836	0.0895	367672	keystroke	e	n/a
184.0495	0.101	368099	keystroke	p	n/a
184.1055	0.1015	368211	keystroke	o	n/a
184.219	0.0775	368438	keystroke	r	n/a
184.387	0.068	368774	keystroke	t	n/a
184.4995	0.101	368999	keystroke	s	n/a
184.6115	0.113	369223	keystroke	Key.space	n/a
184.7805	0.1125	369561	keystroke	e	n/a
184.904	0.0905	369808	keystroke	q	n/a
185.0735	0.1125	370147	keystroke	u	n/a
185.141	0.101	370282	keystroke	i	n/a
185.253	0.079	370506	keystroke	t	n/a
185.3995	0.0905	370799	keystroke	y	n/a
185.512	0.079	371024	keystroke	Key.space	n/a
185.692	0.0895	371384	keystroke	r	n/a
185.793	0.1355	371586	keystroke	o	n/a
185.928	0.0905	371856	keystroke	m	n/a
186.0295	0.0785	372059	keystroke	a	n/a
186.1305	0.09	372261	keystroke	n	n/a
186.2545	0.079	372509	keystroke	c	n/a
186.4355	0.055	372871	keystroke	e	n/a
186.6035	0.0675	373207	keystroke	Key.enter	n/a
186.678	6.17	373356	prompt	n/a	advances childhood roland antiques\n
187.2335	0.0895	374467	keystroke	a	n/a
187.369	0.0785	374738	keystroke	d	n/a
187.5035	0.123	375007	keystroke	v	n/a
187.604	0.0795	375208	keystroke	a	n/a
187.728	0.091	375456	keystroke	n	n/a
187.819	0.078	375638	keystroke	c	n/a
187.998	0.0565	375996	keystroke	e	n/a
188.2005	0.0565	376401	keystroke	d	n/a
188.538	0.068	377076	keystroke	Key.backspace	n/a
188.7195	0.055	377439	keystroke	s	n/a
188.899	0.0675	377798	keystroke	Key.space	n/a
189.2815	0.0785	378563	keystroke	c	n/a
189.4615	0.1345	378923	keystroke	h	n/a
189.552	0.145	379104	keystroke	i	n/a
189.63	0.123	379260	keystroke	l	n/a
189.7755	0.113	379551	keystroke	d	n/a
189.945	0.112	379890	keystroke	h	n/a
190.0125	0.0675	380025	keystroke	o	n/a
190.1815	0.0785	380363	keystroke	o	n/a
190.3045	0.069	380609	keystroke	d	n/a
190.4285	0.0785	380857	keystroke	Key.space	n/a
190.631	0.068	381262	keystroke	r	n/a
190.7215	0.0785	381443	keystroke	o	n/a
190.902	0.0775	381804	keystroke	l	n/a
191.0135	0.068	382027	keystroke	a	n/a
191.115	0.101	382230	keystroke	n	n/a
191.2045	0.09	382409	keystroke	d	n/a
191.306	0.0795	382612	keystroke	Key.space	n/a
191.497	0.09	382994	keystroke	a	n/a
191.643	0.1015	383286	keystroke	n	n/a
191.756	0.0795	383512	keystroke	t	n/a
191.891	0.079	383782	keystroke	i	n/a
192.003	0.1015	384006	keystroke	q	n/a
192.1495	0.0785	384299	keystroke	u	n/a
192.2735	0.112	384547	keystroke	e	n/a
192.3405	0.113	384681	keystroke	s	n/a
192.802	0.045	385604	keystroke	Key.enter	n/a
192.853	7.005	385706	prompt	n/a	returned infections stolen sensor\n
193.4435	0.0895	386887	keystroke	r	n/a
193.49	0.077	386980	keystroke	e	n/a
193.6795	0.079	387359	keystroke	t	n/a
193.837	0.09	387674	keystroke	u	n/a
193.938	0.0905	387876	keystroke	r	n/a
194.0625	0.112	388125	keystroke	n	n/a
194.1635	0.056	388327	keystroke	e	n/a
194.3095	0.1015	388619	keystroke	d	n/a
194.4	0.078	388800	keystroke	Key.space	n/a
194.6135	0.09	389227	keystroke	i	n/a
194.67	0.1005	389340	keystroke	n	n/a
194.748	0.1125	389496	keystroke	f	n/a
194.8945	0.068	389789	keystroke	e	n/a
195.0855	0.0565	390171	keystroke	c	n/a
195.255	0.056	390510	keystroke	t	n/a
195.3225	0.1125	390645	keystroke	i	n/a
195.356	0.1125	390712	keystroke	o	n/a
195.435	0.0895	390870	keystroke	n	n/a
195.513	0.068	391026	keystroke	s	n/a
195.693	0.0565	391386	keystroke	Key.space	n/a
196.4135	0.0675	392827	keystroke	s	n/a
196.6045	0.101	393209	keystroke	o	n/a
197.347	0.056	394694	keystroke	Key.backspace	n/a
197.4375	0.067	394875	keystroke	t	n/a
197.538	0.0805	395076	keystroke	o	n/a
197.685	0.0895	395370	keystroke	l	n/a
197.8195	0.068	395639	keystroke	e	n/a
198.18	0.1125	396360	keystroke	n	n/a
198.5515	0.1005	397103	keystroke	Key.space	n/a
198.956	0.113	397912	keystroke	s	n/a
199.023	0.1125	398046	keystroke	e	n/a
199.1695	0.101	398339	keystroke	n	n/a
199.282	0.09	398564	keystroke	s	n/a
199.383	0.0795	398766	keystroke	o	n/a
199.496	0.0675	398992	keystroke	r	n/a
199.8	0.0565	399600	keystroke	Key.enter	n/a
199.8635	21.695	399727	prompt	n/a	exclude dominant spreading serving\n
214.5485	0.067	429097	keystroke	e	n/a
214.717	0.079	429434	keystroke	x	n/a
214.8525	0.1005	429705	keystroke	c	n/a
215.0095	0.135	430019	keystroke	l	n/a
215.088	0.0905	430176	keystroke	u	n/a
215.178	0.079	430356	keystroke	d	n/a
215.358	0.1125	430716	keystroke	e	n/a
215.426	0.101	430852	keystroke	Key.space	n/a
217.361	0.0785	434722	keystroke	s	n/a
217.687	0.0565	435374	keystroke	Key.backspace	n/a
217.7775	0.078	435555	keystroke	d	n/a
217.902	0.122	435804	keystroke	o	n/a
217.9795	0.135	435959	keystroke	m	n/a
218.171	0.1125	436342	keystroke	i	n/a
218.238	0.1145	436476	keystroke	n	n/a
218.3285	0.1015	436657	keystroke	a	n/a
218.5195	0.09	437039	keystroke	n	n/a
218.6435	0.102	437287	keystroke	t	n/a
218.756	0.09	437512	keystroke	Key.space	n/a
218.9475	0.101	437895	keystroke	s	n/a
219.082	0.09	438164	keystroke	p	n/a
219.2055	0.1135	438411	keystroke	r	n/a
219.274	0.0895	438548	keystroke	e	n/a
219.3745	0.124	438749	keystroke	a	n/a
219.4535	0.1015	438907	keystroke	d	n/a
219.589	0.113	439178	keystroke	i	n/a
219.656	0.1235	439312	keystroke	n	n/a
219.746	0.101	439492	keystroke	g	n/a
219.8365	0.101	439673	keystroke	Key.space	n/a
220.219	0.1005	440438	keystroke	s	n/a
220.2855	0.1125	440571	keystroke	e	n/a
220.5	0.0895	441000	keystroke	r	n/a
220.7475	0.079	441495	keystroke	v	n/a
220.961	0.1245	441922	keystroke	i	n/a
221.073	0.124	442146	keystroke	n	n/a
221.243	0.078	442486	keystroke	g	n/a
221.478	0.0795	442956	keystroke	Key.enter	n/a
221.5635	6.781	443127	prompt	n/a	inside hitting preliminary homepage\n
222.5585	0.1125	445117	keystroke	i	n/a
222.6255	0.1125	445251	keystroke	n	n/a
222.727	0.0785	445454	keystroke	s	n/a
222.852	0.0885	445704	keystroke	i	n/a
222.952	0.0675	445904	keystroke	d	n/a
223.1095	0.09	446219	keystroke	e	n/a
223.211	0.0785	446422	keystroke	Key.space	n/a
223.5035	0.0895	447007	keystroke	h	n/a
223.638	0.034	447276	keystroke	e	n/a
223.6835	0.0785	447367	keystroke	i	n/a
224.01	0.056	448020	keystroke	Key.backspace	n/a
224.1335	0.0785	448267	keystroke	Key.backspace	n/a
224.3245	0.079	448649	keystroke	i	n/a
224.4375	0.0685	448875	keystroke	t	n/a
224.595	0.0675	449190	keystroke	t	n/a
224.6515	0.1005	449303	keystroke	i	n/a
224.7295	0.1015	449459	keystroke	n	n/a
224.8195	0.09	449639	keystroke	g	n/a
224.887	0.102	449774	keystroke	Key.space	n/a
225.191	0.1125	450382	keystroke	p	n/a
225.315	0.123	450630	keystroke	r	n/a
225.393	0.1015	450786	keystroke	e	n/a
225.517	0.1355	451034	keystroke	l	n/a
225.63	0.123	451260	keystroke	i	n/a
225.7195	0.1465	451439	keystroke	m	n/a
225.8775	0.1245	451755	keystroke	i	n/a
225.9895	0.1015	451979	keystroke	n	n/a
226.114	0.1005	452228	keystroke	a	n/a
226.192	0.0785	452384	keystroke	r	n/a
226.282	0.09	452564	keystroke	y	n/a
226.4055	0.0795	452811	keystroke	Key.space	n/a
226.541	0.142	453082	keystroke	h	n/a
226.6935	0.145	453387	keystroke	o	n/a
226.7905	0.1565	453581	keystroke	m	n/a
226.948	0.112	453896	keystroke	p	n/a
227.4025	0.0505	454805	keystroke	Key.backspace	n/a
227.5105	0.0435	455021	keystroke	e	n/a
227.6355	0.0985	455271	keystroke	p	n/a
227.745	0.141	455490	keystroke	a	n/a
227.886	0.1115	455772	keystroke	g	n/a
227.974	0.0895	455948	keystroke	e	n/a
228.29	0.0515	456580	keystroke	Key.enter	n/a
228.357	7.41	456714	prompt	n/a	jacket universities limitation ne'er\n
230.152	0.071	460304	keystroke	j	n/a
230.242	0.09	460484	keystroke	a	n/a
230.4445	0.0815	460889	keystroke	c	n/a
230.5565	0.1015	461113	keystroke	k	n/a
230.7705	0.0565	461541	keystroke	e	n/a
231.03	0.078	462060	keystroke	t	n/a
231.21	0.0555	462420	keystroke	Key.space	n/a
231.412	0.068	462824	keystroke	u	n/a
231.615	0.1005	463230	keystroke	n	n/a
231.682	0.0785	463364	keystroke	i	n/a
231.795	0.0785	463590	keystroke	v	n/a
231.963	0.0675	463926	keystroke	e	n/a
232.0025	0.0735	464005	keystroke	r	n/a
232.1215	0.0895	464243	keystroke	s	n/a
232.256	0.0895	464512	keystroke	i	n/a
232.4025	0.09	464805	keystroke	t	n/a
232.5035	0.0785	465007	keystroke	i	n/a
232.627	0.1125	465254	keystroke	e	n/a
232.6835	0.1235	465367	keystroke	s	n/a
232.819	0.0895	465638	keystroke	Key.space	n/a
233.167	0.1125	466334	keystroke	l	n/a
233.2455	0.124	466491	keystroke	i	n/a
233.3585	0.147	466717	keystroke	m	n/a
233.471	0.09	466942	keystroke	i	n/a
233.595	0.079	467190	keystroke	t	n/a
233.696	0.101	467392	keystroke	a	n/a
233.764	0.067	467528	keystroke	t	n/a
233.842	0.135	467684	keystroke	i	n/a
233.898	0.102	467796	keystroke	o	n/a
233.9665	0.102	467933	keystroke	n	n/a
234.0335	0.09	468067	keystroke	Key.space	n/a
234.236	0.0905	468472	keystroke	n	n/a
234.393	0.0905	468786	keystroke	e	n/a
234.8435	0.1015	469687	keystroke	'	n/a
235.1585	0.1125	470317	keystroke	e	n/a
235.2485	0.0785	470497	keystroke	r	n/a
235.71	0.056	471420	keystroke	Key.enter	n/a
235.7725	7.3515	471545	prompt	n/a	gathered rounds router forward\n
237.3745	0.0785	474749	keystroke	g	n/a
237.4875	0.1125	474975	keystroke	a	n/a
237.5775	0.0895	475155	keystroke	t	n/a
237.7685	0.0895	475537	keystroke	h	n/a
237.847	0.113	475694	keystroke	e	n/a
237.892	0.1235	475784	keystroke	r	n/a
238.0725	0.09	476145	keystroke	e	n/a
238.241	0.101	476482	keystroke	d	n/a
238.331	0.0895	476662	keystroke	Key.space	n/a
238.489	0.089	476978	keystroke	r	n/a
238.612	0.1015	477224	keystroke	o	n/a
238.68	0.0785	477360	keystroke	u	n/a
238.8715	0.0895	477743	keystroke	n	n/a
238.9495	0.1125	477899	keystroke	d	n/a
239.0055	0.1015	478011	keystroke	s	n/a
239.1525	0.078	478305	keystroke	Key.space	n/a
239.4335	0.0785	478867	keystroke	r	n/a
239.5455	0.1015	479091	keystroke	o	n/a
239.6135	0.0895	479227	keystroke	u	n/a
239.771	0.0785	479542	keystroke	t	n/a
239.9855	0.1115	479971	keystroke	e	n/a
240.041	0.0895	480082	keystroke	r	n/a
240.536	0.079	481072	keystroke	Key.space	n/a
241.3355	0.0895	482671	keystroke	f	n/a
241.6045	0.079	483209	keystroke	o	n/a
241.728	0.079	483456	keystroke	r	n/a
242.1785	0.101	484357	keystroke	w	n/a
242.3245	0.124	484649	keystroke	a	n/a
242.415	0.1005	484830	keystroke	r	n/a
242.6185	0.0665	485237	keystroke	d	n/a
243.056	0.067	486112	keystroke	Key.enter	n/a
243.1295	15.925	486259	prompt	n/a	explains devoted hasn't dist\n
251.9095	0.045	503819	keystroke	e	n/a
252.067	0.0785	504134	keystroke	x	n/a
252.1795	0.1125	504359	keystroke	p	n/a
252.2355	0.1125	504471	keystroke	l	n/a
252.3595	0.09	504719	keystroke	a	n/a
252.483	0.1355	504966	keystroke	i	n/a
252.562	0.1235	505124	keystroke	n	n/a
252.6405	0.0675	505281	keystroke	s	n/a
252.7755	0.09	505551	keystroke	Key.space	n/a
253.0455	0.023	506091	keystroke	d	n/a
253.2035	0.0785	506407	keystroke	e	n/a
253.3835	0.0785	506767	keystroke	v	n/a
253.473	0.0795	506946	keystroke	o	n/a
253.5855	0.135	507171	keystroke	t	n/a
253.698	0.079	507396	keystroke	e	n/a
253.8555	0.0675	507711	keystroke	d	n/a
254.07	0.0785	508140	keystroke	Key.space	n/a
254.497	0.0565	508994	keystroke	Key.backspace	n/a
255.4085	0.09	510817	keystroke	Key.space	n/a
256.297	0.068	512594	keystroke	h	n/a
256.4095	0.113	512819	keystroke	a	n/a
256.466	0.146	512932	keystroke	s	n/a
256.893	0.1355	513786	keystroke	n	n/a
257.0395	0.0905	514079	keystroke	'	n/a
257.22	0.0675	514440	keystroke	t	n/a
257.512	0.0675	515024	keystroke	Key.space	n/a
257.737	0.0785	515474	keystroke	d	n/a
257.872	0.0795	515744	keystroke	i	n/a
257.9955	0.09	515991	keystroke	s	n/a
258.21	0.067	516420	keystroke	t	n/a
258.997	0.0565	517994	keystroke	Key.enter	n/a
259.0595	10.007	518119	prompt	n/a	johnston catch cited routers\n
261.517	0.1355	523034	keystroke	j	n/a
261.7305	0.113	523461	keystroke	o	n/a
261.8325	0.1125	523665	keystroke	h	n/a
262.0685	0.0895	524137	keystroke	n	n/a
262.248	0.125	524496	keystroke	s	n/a
262.338	0.0905	524676	keystroke	t	n/a
262.485	0.112	524970	keystroke	o	n/a
262.5635	0.101	525127	keystroke	n	n/a
262.6755	0.09	525351	keystroke	Key.space	n/a
262.878	0.113	525756	keystroke	c	n/a
262.98	0.124	525960	keystroke	a	n/a
263.227	0.0675	526454	keystroke	t	n/a
263.43	0.078	526860	keystroke	c	n/a
263.576	0.09	527152	keystroke	h	n/a
264.499	0.0895	528998	keystroke	Key.space	n/a
266.0065	0.0335	532013	keystroke	Key.space	n/a
266.0195	0.0545	532039	keystroke	c	n/a
266.1525	0.067	532305	keystroke	i	n/a
266.2765	0.105	532553	keystroke	t	n/a
266.4785	0.0785	532957	keystroke	i	n/a
266.929	0.0675	533858	keystroke	e	n/a
267.1985	0.045	534397	keystroke	Key.backspace	n/a
267.324	0.078	534648	keystroke	Key.backspace	n/a
267.45	0.0975	534900	keystroke	e	n/a
267.611	0.0935	535222	keystroke	d	n/a
267.806	0.0795	535612	keystroke	Key.space	n/a
267.9745	0.0795	535949	keystroke	r	n/a
268.088	0.0895	536176	keystroke	o	n/a
268.144	0.09	536288	keystroke	u	n/a
268.2565	0.0895	536513	keystroke	t	n/a
268.4135	0.1125	536827	keystroke	e	n/a
268.4695	0.079	536939	keystroke	r	n/a
268.627	0.0675	537254	keystroke	s	n/a
269.0095	0.056	538019	keystroke	Key.enter	n/a
269.0745	4.8415	538149	prompt	n/a	west preventing crimes particle\n
270.112	0.113	540224	keystroke	w	n/a
270.2025	0.0895	540405	keystroke	e	n/a
270.3595	0.1235	540719	keystroke	s	n/a
270.4495	0.124	540899	keystroke	t	n/a
270.54	0.09	541080	keystroke	Key.space	n/a
270.7535	0.1015	541507	keystroke	p	n/a
270.889	0.113	541778	keystroke	r	n/a
270.9555	0.0905	541911	keystroke	e	n/a
271.1135	0.0785	542227	keystroke	v	n/a
271.158	0.113	542316	keystroke	e	n/a
271.316	0.1125	542632	keystroke	n	n/a
271.419	0.0775	542838	keystroke	t	n/a
271.564	0.1005	543128	keystroke	i	n/a
271.62	0.123	543240	keystroke	n	n/a
271.698	0.125	543396	keystroke	g	n/a
271.755	0.09	543510	keystroke	Key.space	n/a
271.9575	0.0675	543915	keystroke	c	n/a
272.131	0.0735	544262	keystroke	r	n/a
272.2385	0.114	544477	keystroke	i	n/a
272.3065	0.1135	544613	keystroke	m	n/a
272.385	0.146	544770	keystroke	e	n/a
272.475	0.147	544950	keystroke	s	n/a
272.599	0.0895	545198	keystroke	Key.space	n/a
272.756	0.1045	545512	keystroke	p	n/a
272.8465	0.1005	545693	keystroke	a	n/a
272.9245	0.104	545849	keystroke	r	n/a
273.0935	0.087	546187	keystroke	t	n/a
273.206	0.09	546412	keystroke	i	n/a
273.33	0.1005	546660	keystroke	c	n/a
273.4535	0.0895	546907	keystroke	l	n/a
273.577	0.0795	547154	keystroke	e	n/a
273.8585	0.0565	547717	keystroke	Key.enter	n/a
273.9215	7.858	547843	prompt	n/a	restored meters pilot notion\n
278.223	0.1355	556446	keystroke	r	n/a
278.372	0.11	556744	keystroke	e	n/a
278.4825	0.101	556965	keystroke	s	n/a
278.662	0.0905	557324	keystroke	t	n/a
278.7745	0.0675	557549	keystroke	o	n/a
278.8765	0.1685	557753	keystroke	r	n/a
278.978	0.1	557956	keystroke	e	n/a
279.1465	0.1005	558293	keystroke	d	n/a
279.236	0.0675	558472	keystroke	Key.space	n/a
279.348	0.1125	558696	keystroke	m	n/a
279.416	0.124	558832	keystroke	e	n/a
279.529	0.09	559058	keystroke	t	n/a
279.6745	0.113	559349	keystroke	e	n/a
279.7425	0.09	559485	keystroke	r	n/a
279.8995	0.1125	559799	keystroke	s	n/a
280.0015	0.0895	560003	keystroke	Key.space	n/a
280.2035	0.135	560407	keystroke	p	n/a
280.272	0.123	560544	keystroke	i	n/a
280.463	0.089	560926	keystroke	l	n/a
280.631	0.0565	561262	keystroke	o	n/a
280.7325	0.1235	561465	keystroke	t	n/a
280.834	0.078	561668	keystroke	Key.space	n/a
280.9475	0.1115	561895	keystroke	n	n/a
281.014	0.101	562028	keystroke	o	n/a
281.1595	0.0785	562319	keystroke	t	n/a
281.2605	0.169	562521	keystroke	i	n/a
281.317	0.1575	562634	keystroke	o	n/a
281.441	0.1125	562882	keystroke	n	n/a
281.7115	0.067	563423	keystroke	Key.enter	n/a
281.7845	6.35	563569	prompt	n/a	progress channel convicted travelers\n
282.532	0.1015	565064	keystroke	p	n/a
282.645	0.09	565290	keystroke	r	n/a
282.7575	0.068	565515	keystroke	o	n/a
282.859	0.0675	565718	keystroke	g	n/a
283.0615	0.0905	566123	keystroke	r	n/a
283.106	0.079	566212	keystroke	e	n/a
283.2745	0.068	566549	keystroke	s	n/a
283.4215	0.101	566843	keystroke	s	n/a
283.5355	0.0665	567071	keystroke	Key.space	n/a
283.6915	0.067	567383	keystroke	c	n/a
283.781	0.0785	567562	keystroke	h	n/a
283.871	0.09	567742	keystroke	a	n/a
283.9945	0.068	567989	keystroke	n	n/a
284.1635	0.079	568327	keystroke	n	n/a
284.3435	0.0675	568687	keystroke	e	n/a
284.4565	0.0895	568913	keystroke	l	n/a
284.58	0.09	569160	keystroke	Key.space	n/a
284.782	0.09	569564	keystroke	c	n/a
284.8945	0.1015	569789	keystroke	o	n/a
284.9515	0.112	569903	keystroke	n	n/a
285.086	0.101	570172	keystroke	v	n/a
285.3	0.0685	570600	keystroke	i	n/a
285.4235	0.102	570847	keystroke	e	n/a
285.829	0.0675	571658	keystroke	Key.backspace	n/a
285.919	0.078	571838	keystroke	c	n/a
286.133	0.089	572266	keystroke	t	n/a
286.211	0.0785	572422	keystroke	e	n/a
286.3795	0.079	572759	keystroke	d	n/a
286.4695	0.0905	572939	keystroke	Key.space	n/a
286.638	0.09	573276	keystroke	t	n/a
286.8185	0.112	573637	keystroke	r	n/a
286.8855	0.0785	573771	keystroke	a	n/a
287.0315	0.124	574063	keystroke	v	n/a
287.1675	0.1115	574335	keystroke	e	n/a
287.313	0.101	574626	keystroke	l	n/a
287.4705	0.1005	574941	keystroke	e	n/a
287.526	0.0785	575052	keystroke	r	n/a
287.684	0.067	575368	keystroke	s	n/a
288.0665	0.067	576133	keystroke	Key.enter	n/a
288.1395	4.888	576279	prompt	n/a	arguments made previous frequently\n
288.7175	0.068	577435	keystroke	a	n/a
288.9095	0.0565	577819	keystroke	r	n/a
289.055	0.079	578110	keystroke	g	n/a
289.1455	0.0675	578291	keystroke	u	n/a
289.3475	0.09	578695	keystroke	m	n/a
289.4495	0.078	578899	keystroke	e	n/a
289.5495	0.079	579099	keystroke	n	n/a
289.6395	0.057	579279	keystroke	t	n/a
289.7755	0.091	579551	keystroke	s	n/a
289.854	0.0785	579708	keystroke	Key.space	n/a
289.989	0.09	579978	keystroke	m	n/a
290.1125	0.112	580225	keystroke	a	n/a
290.2135	0.1025	580427	keystroke	d	n/a
290.405	0.09	580810	keystroke	e	n/a
290.472	0.0795	580944	keystroke	Key.space	n/a
290.6525	0.0675	581305	keystroke	p	n/a
290.709	0.124	581418	keystroke	r	n/a
290.787	0.079	581574	keystroke	e	n/a
290.945	0.0905	581890	keystroke	v	n/a
291.0795	0.1915	582159	keystroke	i	n/a
291.159	0.146	582318	keystroke	o	n/a
291.26	0.101	582520	keystroke	u	n/a
291.35	0.0895	582700	keystroke	s	n/a
291.4285	0.0905	582857	keystroke	Key.space	n/a
291.5855	0.09	583171	keystroke	f	n/a
291.7775	0.101	583555	keystroke	r	n/a
291.834	0.112	583668	keystroke	e	n/a
291.9235	0.0785	583847	keystroke	q	n/a
292.047	0.0905	584094	keystroke	u	n/a
292.183	0.0785	584366	keystroke	e	n/a
292.284	0.09	584568	keystroke	n	n/a
292.3965	0.0675	584793	keystroke	t	n/a
292.5325	0.135	585065	keystroke	l	n/a
292.6435	0.101	585287	keystroke	y	n/a
292.9585	0.068	585917	keystroke	Key.enter	n/a
293.0325	4.4615	586065	prompt	n/a	gifts tuner sender dropped\n
293.7015	0.068	587403	keystroke	g	n/a
293.8705	0.0675	587741	keystroke	i	n/a
294.005	0.09	588010	keystroke	f	n/a
294.333	0.077	588666	keystroke	t	n/a
294.5455	0.0555	589091	keystroke	s	n/a
294.725	0.0785	589450	keystroke	Key.space	n/a
294.906	0.089	589812	keystroke	t	n/a
294.984	0.079	589968	keystroke	u	n/a
295.153	0.113	590306	keystroke	n	n/a
295.276	0.124	590552	keystroke	e	n/a
295.3215	0.1125	590643	keystroke	r	n/a
295.4115	0.0785	590823	keystroke	Key.space	n/a
295.5465	0.112	591093	keystroke	s	n/a
295.6135	0.1025	591227	keystroke	e	n/a
295.7825	0.079	591565	keystroke	n	n/a
295.884	0.09	591768	keystroke	d	n/a
296.0525	0.124	592105	keystroke	e	n/a
296.12	0.09	592240	keystroke	r	n/a
296.1875	0.0675	592375	keystroke	Key.space	n/a
296.3695	0.066	592739	keystroke	d	n/a
296.491	0.09	592982	keystroke	r	n/a
296.638	0.1345	593276	keystroke	o	n/a
296.7055	0.0895	593411	keystroke	p	n/a
296.897	0.0895	593794	keystroke	p	n/a
297.009	0.0575	594018	keystroke	e	n/a
297.166	0.0565	594332	keystroke	d	n/a
297.425	0.068	594850	keystroke	Key.enter	n/a
297.4995	6.036	594999	prompt	n/a	cincinnati gateway monitors pioneer\n
298.1565	0.0675	596313	keystroke	c	n/a
298.269	0.1575	596538	keystroke	i	n/a
298.37	0.1465	596740	keystroke	n	n/a
298.5615	0.103	597123	keystroke	c	n/a
298.6865	0.139	597373	keystroke	i	n/a
298.8335	0.1025	597667	keystroke	n	n/a
299.025	0.079	598050	keystroke	n	n/a
299.154	0.0805	598308	keystroke	a	n/a
299.337	0.0885	598674	keystroke	t	n/a
299.5175	0.084	599035	keystroke	i	n/a
299.753	0.05	599506	keystroke	Key.space	n/a
299.9545	0.075	599909	keystroke	g	n/a
300.039	0.1015	600078	keystroke	a	n/a
300.1485	0.149	600297	keystroke	t	n/a
300.2885	0.1005	600577	keystroke	e	n/a
300.352	0.1225	600704	keystroke	w	n/a
300.452	0.1015	600904	keystroke	a	n/a
300.587	0.0905	601174	keystroke	y	n/a
300.6885	0.0905	601377	keystroke	Key.space	n/a
300.914	0.1235	601828	keystroke	m	n/a
301.0035	0.112	602007	keystroke	o	n/a
301.138	0.125	602276	keystroke	n	n/a
301.2285	0.093	602457	keystroke	i	n/a
301.3635	0.09	602727	keystroke	t	n/a
301.4875	0.068	602975	keystroke	o	n/a
301.5775	0.0675	603155	keystroke	r	n/a
301.7365	0.089	603473	keystroke	s	n/a
301.8145	0.0665	603629	keystroke	Key.space	n/a
301.9715	0.123	603943	keystroke	p	n/a
302.0615	0.135	604123	keystroke	i	n/a
302.6345	0.091	605269	keystroke	o	n/a
302.748	0.1365	605496	keystroke	n	n/a
302.961	0.068	605922	keystroke	e	n/a
303.119	0.09	606238	keystroke	e	n/a
303.2425	0.092	606485	keystroke	r	n/a
303.468	0.0665	606936	keystroke	Key.enter	n/a
303.5415	3.8885	607083	prompt	n/a	shorts globe august prep\n
304.131	0.07	608262	keystroke	s	n/a
304.2545	0.103	608509	keystroke	h	n/a
304.322	0.1015	608644	keystroke	o	n/a
304.4355	0.0665	608871	keystroke	r	n/a
304.6375	0.068	609275	keystroke	t	n/a
304.762	0.1	609524	keystroke	s	n/a
304.8755	0.054	609751	keystroke	Key.space	n/a
304.997	0.08	609994	keystroke	g	n/a
305.11	0.0675	610220	keystroke	l	n/a
305.2585	0.078	610517	keystroke	o	n/a
305.3745	0.062	610749	keystroke	b	n/a
305.5375	0.0905	611075	keystroke	e	n/a
305.618	0.067	611236	keystroke	Key.space	n/a
305.753	0.0885	611506	keystroke	a	n/a
305.8985	0.089	611797	keystroke	u	n/a
305.999	0.089	611998	keystroke	g	n/a
306.1445	0.091	612289	keystroke	u	n/a
306.2915	0.102	612583	keystroke	s	n/a
306.4485	0.1125	612897	keystroke	t	n/a
306.618	0.0895	613236	keystroke	Key.space	n/a
306.7635	0.102	613527	keystroke	p	n/a
306.868	0.135	613736	keystroke	r	n/a
306.955	0.1015	613910	keystroke	e	n/a
307.0675	0.1125	614135	keystroke	p	n/a
307.36	0.068	614720	keystroke	Key.enter	n/a
307.4435	5.23	614887	prompt	n/a	retirement suburban india regular\n
308.182	0.1245	616364	keystroke	r	n/a
308.2485	0.0915	616497	keystroke	e	n/a
308.4405	0.0785	616881	keystroke	t	n/a
308.5655	0.078	617131	keystroke	i	n/a
308.6545	0.1135	617309	keystroke	r	n/a
308.7215	0.0825	617443	keystroke	e	n/a
308.823	0.102	617646	keystroke	m	n/a
308.937	0.078	617874	keystroke	e	n/a
309.026	0.102	618052	keystroke	n	n/a
309.1155	0.124	618231	keystroke	t	n/a
309.2185	0.0885	618437	keystroke	Key.space	n/a
309.375	0.101	618750	keystroke	s	n/a
309.5095	0.0925	619019	keystroke	u	n/a
309.612	0.0775	619224	keystroke	b	n/a
309.8695	0.0785	619739	keystroke	u	n/a
309.993	0.0925	619986	keystroke	r	n/a
310.219	0.101	620438	keystroke	b	n/a
310.3425	0.0895	620685	keystroke	a	n/a
310.4885	0.114	620977	keystroke	n	n/a
310.657	0.068	621314	keystroke	Key.space	n/a
310.8145	0.123	621629	keystroke	i	n/a
310.9155	0.1135	621831	keystroke	n	n/a
311.0735	0.067	622147	keystroke	d	n/a
311.1745	0.09	622349	keystroke	i	n/a
311.2985	0.078	622597	keystroke	a	n/a
311.502	0.055	623004	keystroke	Key.space	n/a
311.6925	0.112	623385	keystroke	r	n/a
311.793	0.0585	623586	keystroke	e	n/a
311.9285	0.09	623857	keystroke	g	n/a
312.0855	0.113	624171	keystroke	u	n/a
312.1645	0.126	624329	keystroke	l	n/a
312.2555	0.114	624511	keystroke	a	n/a
312.336	0.076	624672	keystroke	r	n/a
312.6145	0.0565	625229	keystroke	Key.enter	n/a
312.6865	6.6915	625373	prompt	n/a	french reservation couple gods\n
315.4035	0.0455	630807	keystroke	f	n/a
315.552	0.1335	631104	keystroke	r	n/a
315.6415	0.0885	631283	keystroke	e	n/a
315.764	0.105	631528	keystroke	n	n/a
315.865	0.0795	631730	keystroke	c	n/a
315.9895	0.1005	631979	keystroke	h	n/a
316.0795	0.1085	632159	keystroke	Key.space	n/a
316.2475	0.1385	632495	keystroke	r	n/a
316.3375	0.1145	632675	keystroke	e	n/a
316.5405	0.112	633081	keystroke	s	n/a
316.6415	0.136	633283	keystroke	e	n/a
316.7325	0.0895	633465	keystroke	r	n/a
316.9235	0.0895	633847	keystroke	v	n/a
317.058	0.123	634116	keystroke	a	n/a
317.1475	0.0565	634295	keystroke	t	n/a
317.238	0.1575	634476	keystroke	i	n/a
317.3075	0.122	634615	keystroke	o	n/a
317.3725	0.1245	634745	keystroke	n	n/a
317.441	0.0895	634882	keystroke	Key.space	n/a
317.644	0.0915	635288	keystroke	c	n/a
317.745	0.1255	635490	keystroke	o	n/a
317.8225	0.1475	635645	keystroke	u	n/a
317.9585	0.135	635917	keystroke	p	n/a
318.0375	0.134	636075	keystroke	l	n/a
318.195	0.091	636390	keystroke	e	n/a
318.33	0.078	636660	keystroke	Key.space	n/a
318.5545	0.0905	637109	keystroke	g	n/a
318.656	0.079	637312	keystroke	o	n/a
318.7795	0.1355	637559	keystroke	d	n/a
318.882	0.089	637764	keystroke	s	n/a
319.2965	0.0795	638593	keystroke	Key.enter	n/a
319.39	6.9645	638780	prompt	n/a	york characteristics listening thin\n
320.2875	0.1015	640575	keystroke	y	n/a
320.4355	0.1005	640871	keystroke	o	n/a
320.569	0.0665	641138	keystroke	r	n/a
320.6815	0.105	641363	keystroke	k	n/a
320.7935	0.045	641587	keystroke	Key.space	n/a
320.953	0.077	641906	keystroke	c	n/a
321.0535	0.101	642107	keystroke	h	n/a
321.1535	0.1125	642307	keystroke	a	n/a
321.2325	0.1125	642465	keystroke	r	n/a
321.357	0.067	642714	keystroke	a	n/a
321.503	0.09	643006	keystroke	c	n/a
321.672	0.1145	643344	keystroke	t	n/a
321.841	0.112	643682	keystroke	e	n/a
321.908	0.0795	643816	keystroke	r	n/a
322.0995	0.07	644199	keystroke	i	n/a
322.2025	0.088	644405	keystroke	s	n/a
322.2565	0.0905	644513	keystroke	t	n/a
322.359	0.0785	644718	keystroke	i	n/a
322.482	0.1125	644964	keystroke	c	n/a
322.5595	0.113	645119	keystroke	s	n/a
322.7295	0.078	645459	keystroke	Key.space	n/a
322.864	0.1015	645728	keystroke	l	n/a
322.92	0.1125	645840	keystroke	i	n/a
323.0685	0.088	646137	keystroke	s	n/a
323.1105	0.0925	646221	keystroke	t	n/a
323.2365	0.1335	646473	keystroke	i	n/a
323.325	0.1295	646650	keystroke	n	n/a
323.4545	0.0725	646909	keystroke	g	n/a
324.1905	0.0455	648381	keystroke	Key.backspace	n/a
324.3265	0.0475	648653	keystroke	Key.backspace	n/a
324.4625	0.057	648925	keystroke	Key.backspace	n/a
324.631	0.089	649262	keystroke	e	n/a
324.935	0.111	649870	keystroke	n	n/a
325.1595	0.1025	650319	keystroke	i	n/a
325.2275	0.1	650455	keystroke	n	n/a
325.3615	0.126	650723	keystroke	g	n/a
325.462	0.091	650924	keystroke	Key.space	n/a
325.6545	0.056	651309	keystroke	t	n/a
325.744	0.126	651488	keystroke	h	n/a
325.856	0.1485	651712	keystroke	i	n/a
325.98	0.089	651960	keystroke	n	n/a
326.2865	0.066	652573	keystroke	Key.enter	n/a
326.365	4.184	652730	prompt	n/a	circles current rover prizes\n
327.086	0.1	654172	keystroke	c	n/a
327.1965	0.0895	654393	keystroke	i	n/a
327.3075	0.068	654615	keystroke	r	n/a
327.4765	0.0895	654953	keystroke	c	n/a
327.578	0.0785	655156	keystroke	l	n/a
327.678	0.1485	655356	keystroke	e	n/a
327.77	0.1005	655540	keystroke	s	n/a
327.859	0.0785	655718	keystroke	Key.space	n/a
328.0165	0.09	656033	keystroke	c	n/a
328.165	0.077	656330	keystroke	u	n/a
328.288	0.055	656576	keystroke	r	n/a
328.422	0.1225	656844	keystroke	r	n/a
328.4895	0.09	656979	keystroke	e	n/a
328.59	0.101	657180	keystroke	n	n/a
328.7035	0.079	657407	keystroke	t	n/a
328.771	0.0555	657542	keystroke	Key.space	n/a
328.9625	0.067	657925	keystroke	r	n/a
329.0635	0.067	658127	keystroke	o	n/a
329.175	0.1135	658350	keystroke	v	n/a
329.3695	0.134	658739	keystroke	e	n/a
329.446	0.1005	658892	keystroke	r	n/a
329.5475	0.067	659095	keystroke	Key.space	n/a
329.693	0.101	659386	keystroke	p	n/a
329.7835	0.0785	659567	keystroke	r	n/a
329.92	0.0665	659840	keystroke	i	n/a
329.9965	0.092	659993	keystroke	z	n/a
330.154	0.1355	660308	keystroke	e	n/a
330.2445	0.102	660489	keystroke	s	n/a
330.503	0.0445	661006	keystroke	Key.enter	n/a
330.56	13.2865	661120	prompt	n/a	messenger slides interests cleared\n
337.8495	0.0795	675699	keystroke	m	n/a
338.009	0.0545	676018	keystroke	e	n/a
338.1755	0.068	676351	keystroke	s	n/a
338.3215	0.0815	676643	keystroke	s	n/a
338.378	0.135	676756	keystroke	e	n/a
338.547	0.112	677094	keystroke	n	n/a
338.649	0.1115	677298	keystroke	g	n/a
338.8735	0.148	677747	keystroke	e	n/a
338.9405	0.1465	677881	keystroke	r	n/a
339.0645	0.0675	678129	keystroke	Key.space	n/a
339.237	0.0675	678474	keystroke	s	n/a
339.37	0.121	678740	keystroke	l	n/a
339.4465	0.0905	678893	keystroke	i	n/a
339.5365	0.0915	679073	keystroke	d	n/a
339.728	0.102	679456	keystroke	e	n/a
339.7875	0.0655	679575	keystroke	r	n/a
340.054	0.0455	680108	keystroke	Key.backspace	n/a
340.179	0.058	680358	keystroke	Key.backspace	n/a
340.3055	0.076	680611	keystroke	s	n/a
340.6955	0.0465	681391	keystroke	Key.backspace	n/a
340.788	0.121	681576	keystroke	e	n/a
340.898	0.113	681796	keystroke	s	n/a
341.056	0.081	682112	keystroke	Key.space	n/a
341.315	0.1235	682630	keystroke	i	n/a
341.382	0.113	682764	keystroke	n	n/a
341.589	0.098	683178	keystroke	t	n/a
341.7315	0.1125	683463	keystroke	e	n/a
341.7985	0.158	683597	keystroke	r	n/a
341.934	0.1485	683868	keystroke	e	n/a
342.0035	0.121	684007	keystroke	s	n/a
342.092	0.1005	684184	keystroke	t	n/a
342.238	0.089	684476	keystroke	s	n/a
342.3955	0.0665	684791	keystroke	Key.space	n/a
342.7425	0.0675	685485	keystroke	c	n/a
342.833	0.0785	685666	keystroke	l	n/a
342.923	0.1345	685846	keystroke	e	n/a
343.0125	0.124	686025	keystroke	a	n/a
343.103	0.146	686206	keystroke	r	n/a
343.2155	0.101	686431	keystroke	e	n/a
343.395	0.0675	686790	keystroke	d	n/a
343.7775	0.068	687555	keystroke	Key.enter	n/a
343.8535	13.3295	687707	prompt	n/a	grams solved distributed translate\n
345.1275	0.079	690255	keystroke	g	n/a
345.3415	0.104	690683	keystroke	r	n/a
345.4205	0.1015	690841	keystroke	a	n/a
345.555	0.091	691110	keystroke	m	n/a
345.693	0.0875	691386	keystroke	s	n/a
345.8255	0.0675	691651	keystroke	Key.space	n/a
346.2305	0.067	692461	keystroke	s	n/a
346.332	0.0505	692664	keystroke	o	n/a
346.455	0.1015	692910	keystroke	l	n/a
346.5335	0.105	693067	keystroke	v	n/a
346.6375	0.056	693275	keystroke	e	n/a
346.783	0.0835	693566	keystroke	d	n/a
346.894	0.08	693788	keystroke	Key.space	n/a
350.8555	0.025	701711	keystroke	d	n/a
350.923	0.0935	701846	keystroke	i	n/a
351.008	0.0835	702016	keystroke	s	n/a
351.227	0.081	702454	keystroke	u	n/a
351.5115	0.0525	703023	keystroke	Key.backspace	n/a
352.2505	0.081	704501	keystroke	t	n/a
352.748	0.09	705496	keystroke	r	n/a
352.9155	0.0995	705831	keystroke	i	n/a
353.4995	0.079	706999	keystroke	b	n/a
353.639	0.0855	707278	keystroke	u	n/a
353.7835	0.1445	707567	keystroke	t	n/a
353.916	0.0905	707832	keystroke	e	n/a
354.265	0.058	708530	keystroke	d	n/a
354.456	0.07	708912	keystroke	Key.space	n/a
354.839	0.0555	709678	keystroke	t	n/a
354.9965	0.092	709993	keystroke	r	n/a
355.055	0.087	710110	keystroke	a	n/a
355.1895	0.103	710379	keystroke	n	n/a
355.256	0.077	710512	keystroke	s	n/a
355.4455	0.0795	710891	keystroke	l	n/a
355.8735	0.0105	711747	keystroke	Key.backspace	n/a
356.3895	0.091	712779	keystroke	l	n/a
356.5255	0.0915	713051	keystroke	a	n/a
356.606	0.136	713212	keystroke	t	n/a
356.707	0.1005	713414	keystroke	e	n/a
357.111	0.0685	714222	keystroke	Key.enter	n/a
357.1955	20.136	714391	prompt	n/a	mustn't worth victorian joined\n
370.714	0.092	741428	keystroke	m	n/a
370.906	0.078	741812	keystroke	u	n/a
370.9955	0.1285	741991	keystroke	s	n/a
371.062	0.079	742124	keystroke	t	n/a
371.3665	0.119	742733	keystroke	'	n/a
371.816	0.0575	743632	keystroke	Key.backspace	n/a
372.019	0.125	744038	keystroke	n	n/a
372.1075	0.102	744215	keystroke	'	n/a
372.3465	0.0775	744693	keystroke	t	n/a
372.6155	0.09	745231	keystroke	Key.space	n/a
373.055	0.0675	746110	keystroke	w	n/a
373.1325	0.0785	746265	keystroke	o	n/a
373.223	0.077	746446	keystroke	r	n/a
373.3565	0.0685	746713	keystroke	t	n/a
373.4405	0.1	746881	keystroke	h	n/a
373.5515	0.064	747103	keystroke	Key.space	n/a
373.797	0.078	747594	keystroke	v	n/a
373.942	0.092	747884	keystroke	i	n/a
374.1345	0.078	748269	keystroke	c	n/a
374.3575	0.0825	748715	keystroke	t	n/a
374.91	0.0665	749820	keystroke	a	n/a
375.195	0.051	750390	keystroke	Key.backspace	n/a
375.3815	0.0935	750763	keystroke	o	n/a
375.505	0.0805	751010	keystroke	r	n/a
375.6625	0.0685	751325	keystroke	i	n/a
375.765	0.085	751530	keystroke	a	n/a
375.8665	0.0785	751733	keystroke	n	n/a
375.98	0.077	751960	keystroke	Key.space	n/a
376.2595	0.1385	752519	keystroke	j	n/a
376.489	0.158	752978	keystroke	o	n/a
376.597	0.135	753194	keystroke	i	n/a
376.6875	0.138	753375	keystroke	n	n/a
376.79	0.077	753580	keystroke	e	n/a
376.96	0.054	753920	keystroke	d	n/a
377.2615	0.0675	754523	keystroke	Key.enter	n/a
377.344	4.4875	754688	prompt	n/a	earthquake drag prime couldn't\n
377.9505	0.0885	755901	keystroke	e	n/a
378.0265	0.146	756053	keystroke	a	n/a
378.1845	0.091	756369	keystroke	r	n/a
378.3505	0.08	756701	keystroke	t	n/a
378.4645	0.1	756929	keystroke	h	n/a
378.6565	0.0785	757313	keystroke	q	n/a
378.769	0.079	757538	keystroke	u	n/a
378.8465	0.105	757693	keystroke	a	n/a
379.006	0.1015	758012	keystroke	k	n/a
379.0825	0.092	758165	keystroke	e	n/a
379.161	0.094	758322	keystroke	Key.space	n/a
379.388	0.0685	758776	keystroke	d	n/a
379.5675	0.0895	759135	keystroke	r	n/a
379.6685	0.078	759337	keystroke	a	n/a
379.773	0.078	759546	keystroke	g	n/a
379.9055	0.0915	759811	keystroke	Key.space	n/a
380.106	0.0915	760212	keystroke	p	n/a
380.199	0.066	760398	keystroke	r	n/a
380.334	0.0995	760668	keystroke	i	n/a
380.401	0.0995	760802	keystroke	m	n/a
380.474	0.0945	760948	keystroke	e	n/a
380.5355	0.078	761071	keystroke	Key.space	n/a
380.684	0.1005	761368	keystroke	c	n/a
380.775	0.0855	761550	keystroke	o	n/a
380.8395	0.0885	761679	keystroke	u	n/a
380.985	0.0895	761970	keystroke	l	n/a
381.0845	0.091	762169	keystroke	d	n/a
381.2235	0.1005	762447	keystroke	n	n/a
381.278	0.1175	762556	keystroke	'	n/a
381.3995	0.075	762799	keystroke	t	n/a
381.76	0.069	763520	keystroke	Key.enter	n/a
381.845	3.712	763690	prompt	n/a	poly minds maiden quickly\n
382.4735	0.1005	764947	keystroke	p	n/a
382.55	0.0995	765100	keystroke	o	n/a
382.729	0.135	765458	keystroke	l	n/a
382.8415	0.0895	765683	keystroke	y	n/a
382.9985	0.091	765997	keystroke	Key.space	n/a
383.0995	0.146	766199	keystroke	m	n/a
383.2575	0.1525	766515	keystroke	i	n/a
383.373	0.1255	766746	keystroke	n	n/a
383.4825	0.1225	766965	keystroke	d	n/a
383.55	0.1465	767100	keystroke	s	n/a
383.662	0.0795	767324	keystroke	Key.space	n/a
383.7635	0.1255	767527	keystroke	m	n/a
383.856	0.0865	767712	keystroke	a	n/a
384.008	0.0655	768016	keystroke	i	n/a
384.068	0.0715	768136	keystroke	d	n/a
384.201	0.0805	768402	keystroke	e	n/a
384.325	0.113	768650	keystroke	n	n/a
384.4145	0.105	768829	keystroke	Key.space	n/a
384.622	0.0695	769244	keystroke	q	n/a
384.7425	0.1345	769485	keystroke	u	n/a
384.8225	0.088	769645	keystroke	i	n/a
384.9225	0.078	769845	keystroke	c	n/a
385.002	0.112	770004	keystroke	k	n/a
385.149	0.1445	770298	keystroke	l	n/a
385.2605	0.1245	770521	keystroke	y	n/a
385.45	0.1025	770900	keystroke	Key.enter	n/a
385.5675	3.665	771135	prompt	n/a	priority undo aren't trick\n
386.047	0.1585	772094	keystroke	p	n/a
386.2495	0.102	772499	keystroke	r	n/a
386.3405	0.122	772681	keystroke	i	n/a
386.4065	0.1025	772813	keystroke	o	n/a
386.53	0.103	773060	keystroke	r	n/a
386.6765	0.101	773353	keystroke	i	n/a
386.779	0.0665	773558	keystroke	t	n/a
386.9055	0.109	773811	keystroke	y	n/a
387.0025	0.1035	774005	keystroke	Key.space	n/a
387.1945	0.0455	774389	keystroke	u	n/a
387.3525	0.103	774705	keystroke	n	n/a
387.4555	0.054	774911	keystroke	d	n/a
387.5555	0.08	775111	keystroke	o	n/a
387.6445	0.0795	775289	keystroke	Key.space	n/a
387.7455	0.1125	775491	keystroke	a	n/a
387.8695	0.137	775739	keystroke	r	n/a
387.974	0.088	775948	keystroke	e	n/a
388.1285	0.113	776257	keystroke	n	n/a
388.196	0.102	776392	keystroke	'	n/a
388.319	0.07	776638	keystroke	t	n/a
388.3985	0.0785	776797	keystroke	Key.space	n/a
388.5225	0.0785	777045	keystroke	t	n/a
388.6915	0.0675	777383	keystroke	r	n/a
388.7825	0.077	777565	keystroke	i	n/a
388.894	0.0805	777788	keystroke	c	n/a
388.9945	0.0905	777989	keystroke	k	n/a
389.155	0.0755	778310	keystroke	Key.enter	n/a
389.2435	3.79	778487	prompt	n/a	place katrina asking random\n
389.8065	0.0995	779613	keystroke	p	n/a
389.951	0.0805	779902	keystroke	l	n/a
390.0525	0.103	780105	keystroke	a	n/a
390.1315	0.079	780263	keystroke	c	n/a
390.2995	0.1005	780599	keystroke	e	n/a
390.3915	0.064	780783	keystroke	Key.space	n/a
390.5465	0.085	781093	keystroke	k	n/a
390.614	0.1255	781228	keystroke	a	n/a
390.728	0.079	781456	keystroke	t	n/a
390.8745	0.078	781749	keystroke	r	n/a
390.965	0.1345	781930	keystroke	i	n/a
391.077	0.114	782154	keystroke	n	n/a
391.156	0.089	782312	keystroke	a	n/a
391.29	0.089	782580	keystroke	Key.space	n/a
391.3915	0.0905	782783	keystroke	a	n/a
391.573	0.087	783146	keystroke	s	n/a
391.707	0.0835	783414	keystroke	k	n/a
391.8855	0.1035	783771	keystroke	i	n/a
391.9415	0.1185	783883	keystroke	n	n/a
392.0325	0.066	784065	keystroke	g	n/a
392.0895	0.088	784179	keystroke	Key.space	n/a
392.2355	0.09	784471	keystroke	r	n/a
392.313	0.0805	784626	keystroke	a	n/a
392.4145	0.112	784829	keystroke	n	n/a
392.526	0.0475	785052	keystroke	d	n/a
392.6285	0.1285	785257	keystroke	o	n/a
392.718	0.107	785436	keystroke	m	n/a
392.974	0.0585	785948	keystroke	Key.enter	n/a
393.0405	4.6685	786081	prompt	n/a	fruit waste notifications flat\n
393.811	0.0885	787622	keystroke	f	n/a
393.9775	0.102	787955	keystroke	r	n/a
394.1135	0.1605	788227	keystroke	u	n/a
394.2275	0.087	788455	keystroke	i	n/a
394.326	0.092	788652	keystroke	t	n/a
394.384	0.089	788768	keystroke	Key.space	n/a
394.5305	0.1115	789061	keystroke	w	n/a
394.7105	0.1345	789421	keystroke	a	n/a
394.8	0.1235	789600	keystroke	s	n/a
394.934	0.1385	789868	keystroke	t	n/a
395.3415	0.0775	790683	keystroke	e	n/a
395.4755	0.1	790951	keystroke	Key.space	n/a
395.667	0.111	791334	keystroke	n	n/a
395.7335	0.0675	791467	keystroke	o	n/a
395.8355	0.078	791671	keystroke	t	n/a
395.9465	0.0685	791893	keystroke	i	n/a
396.026	0.0915	792052	keystroke	f	n/a
396.1395	0.0765	792279	keystroke	i	n/a
396.227	0.08	792454	keystroke	c	n/a
396.331	0.1265	792662	keystroke	a	n/a
396.4315	0.079	792863	keystroke	t	n/a
396.4985	0.1365	792997	keystroke	i	n/a
396.5465	0.13	793093	keystroke	o	n/a
396.623	0.1155	793246	keystroke	n	n/a
396.6775	0.1245	793355	keystroke	s	n/a
396.792	0.0895	793584	keystroke	Key.space	n/a
396.9145	0.101	793829	keystroke	f	n/a
397.0265	0.078	794053	keystroke	l	n/a
397.1285	0.1485	794257	keystroke	a	n/a
397.252	0.079	794504	keystroke	t	n/a
397.662	0.045	795324	keystroke	Key.enter	n/a
397.7215	5.7315	795443	prompt	n/a	presentation being count eyed\n
398.343	0.068	796686	keystroke	p	n/a
398.465	0.1035	796930	keystroke	r	n/a
398.546	0.102	797092	keystroke	e	n/a
398.6385	0.121	797277	keystroke	s	n/a
398.7265	0.1025	797453	keystroke	e	n/a
398.8645	0.1095	797729	keystroke	n	n/a
398.9625	0.0785	797925	keystroke	t	n/a
399.0635	0.101	798127	keystroke	a	n/a
399.144	0.0665	798288	keystroke	t	n/a
399.2225	0.189	798445	keystroke	i	n/a
399.29	0.134	798580	keystroke	o	n/a
399.3785	0.113	798757	keystroke	n	n/a
399.4455	0.0905	798891	keystroke	Key.space	n/a
399.891	0.0655	799782	keystroke	b	n/a
400.031	0.0805	800062	keystroke	e	n/a
400.1435	0.1235	800287	keystroke	i	n/a
400.2355	0.115	800471	keystroke	n	n/a
400.29	0.09	800580	keystroke	g	n/a
400.358	0.067	800716	keystroke	Key.space	n/a
400.5465	0.0805	801093	keystroke	c	n/a
400.7075	0.117	801415	keystroke	o	n/a
400.7975	0.0935	801595	keystroke	u	n/a
401.01	0.09	802020	keystroke	n	n/a
401.079	0.101	802158	keystroke	t	n/a
401.3065	0.0745	802613	keystroke	e	n/a
401.4405	0.075	802881	keystroke	y	n/a
401.5275	0.1025	803055	keystroke	e	n/a
401.9225	0.056	803845	keystroke	Key.backspace	n/a
402.047	0.065	804094	keystroke	Key.backspace	n/a
402.1685	0.0785	804337	keystroke	Key.backspace	n/a
402.2935	0.0895	804587	keystroke	Key.space	n/a
402.4275	0.09	804855	keystroke	e	n/a
402.551	0.091	805102	keystroke	y	n/a
402.656	0.087	805312	keystroke	e	n/a
403.046	0.0815	806092	keystroke	d	n/a
403.3755	0.0755	806751	keystroke	Key.enter	n/a
403.4645	6.718	806929	prompt	n/a	worcester bedrooms remainder strongly\n
404.138	0.0585	808276	keystroke	w	n/a
404.2395	0.079	808479	keystroke	o	n/a
404.3305	0.094	808661	keystroke	r	n/a
404.7345	0.0895	809469	keystroke	c	n/a
404.925	0.07	809850	keystroke	e	n/a
405.094	0.1055	810188	keystroke	s	n/a
405.2085	0.101	810417	keystroke	t	n/a
405.442	0.1505	810884	keystroke	e	n/a
405.522	0.146	811044	keystroke	r	n/a
405.644	0.0795	811288	keystroke	Key.space	n/a
405.848	0.0915	811696	keystroke	b	n/a
406.016	0.1015	812032	keystroke	e	n/a
406.569	0.0885	813138	keystroke	d	n/a
406.838	0.089	813676	keystroke	r	n/a
406.9945	0.0575	813989	keystroke	o	n/a
407.152	0.114	814304	keystroke	o	n/a
407.2435	0.125	814487	keystroke	m	n/a
407.3445	0.114	814689	keystroke	s	n/a
407.4475	0.087	814895	keystroke	Key.space	n/a
407.6825	0.0665	815365	keystroke	r	n/a
407.9565	0.051	815913	keystroke	e	n/a
408.1305	0.114	816261	keystroke	m	n/a
408.279	0.094	816558	keystroke	a	n/a
408.397	0.117	816794	keystroke	i	n/a
408.4725	0.109	816945	keystroke	n	n/a
408.6075	0.07	817215	keystroke	d	n/a
408.7615	0.127	817523	keystroke	e	n/a
408.8285	0.102	817657	keystroke	r	n/a
408.9185	0.09	817837	keystroke	Key.space	n/a
409.133	0.0995	818266	keystroke	s	n/a
409.2005	0.0895	818401	keystroke	t	n/a
409.348	0.1005	818696	keystroke	r	n/a
409.4725	0.1005	818945	keystroke	o	n/a
409.5495	0.1125	819099	keystroke	n	n/a
409.65	0.0815	819300	keystroke	g	n/a
409.789	0.142	819578	keystroke	l	n/a
409.923	0.0925	819846	keystroke	y	n/a
410.0775	0.103	820155	keystroke	Key.enter	n/a
410.1965	10.3795	820393	prompt	n/a	players weeks flip puerto\n
416.774	0.1095	833548	keystroke	p	n/a
416.8275	0.1235	833655	keystroke	l	n/a
416.9635	0.0925	833927	keystroke	a	n/a
417.0895	0.066	834179	keystroke	y	n/a
417.175	0.118	834350	keystroke	e	n/a
417.2325	0.078	834465	keystroke	r	n/a
417.378	0.1125	834756	keystroke	s	n/a
417.481	0.0875	834962	keystroke	Key.space	n/a
417.6055	0.102	835211	keystroke	w	n/a
417.684	0.0905	835368	keystroke	e	n/a
417.8615	0.069	835723	keystroke	e	n/a
417.975	0.0915	835950	keystroke	k	n/a
418.301	0.055	836602	keystroke	s	n/a
418.4825	0.0765	836965	keystroke	Key.space	n/a
418.717	0.068	837434	keystroke	f	n/a
418.8305	0.1465	837661	keystroke	l	n/a
418.923	0.155	837846	keystroke	i	n/a
419.0555	0.1225	838111	keystroke	p	n/a
419.193	0.0935	838386	keystroke	Key.space	n/a
419.374	0.1305	838748	keystroke	p	n/a
419.5705	0.103	839141	keystroke	u	n/a
419.7635	0.1145	839527	keystroke	e	n/a
419.925	0.0635	839850	keystroke	r	n/a
420.112	0.048	840224	keystroke	t	n/a
420.205	0.087	840410	keystroke	o	n/a
420.4935	0.0805	840987	keystroke	Key.enter	n/a
420.5925	5.0155	841185	prompt	n/a	chemistry thesis submitting packed\n
421.225	0.0825	842450	keystroke	c	n/a
421.317	0.078	842634	keystroke	h	n/a
421.418	0.072	842836	keystroke	e	n/a
421.562	0.129	843124	keystroke	m	n/a
421.6435	0.0905	843287	keystroke	i	n/a
421.7115	0.0885	843423	keystroke	s	n/a
421.8225	0.078	843645	keystroke	t	n/a
421.983	0.093	843966	keystroke	r	n/a
422.093	0.081	844186	keystroke	y	n/a
422.1825	0.0905	844365	keystroke	Key.space	n/a
422.309	0.089	844618	keystroke	t	n/a
422.4415	0.089	844883	keystroke	h	n/a
422.5225	0.0535	845045	keystroke	e	n/a
422.7005	0.0785	845401	keystroke	s	n/a
422.8575	0.082	845715	keystroke	i	n/a
422.9485	0.058	845897	keystroke	s	n/a
423.184	0.0665	846368	keystroke	Key.space	n/a
423.352	0.114	846704	keystroke	s	n/a
423.544	0.0675	847088	keystroke	u	n/a
423.6335	0.079	847267	keystroke	b	n/a
423.78	0.112	847560	keystroke	m	n/a
423.8475	0.0955	847695	keystroke	i	n/a
423.972	0.053	847944	keystroke	t	n/a
424.095	0.07	848190	keystroke	t	n/a
424.1975	0.1	848395	keystroke	i	n/a
424.255	0.119	848510	keystroke	n	n/a
424.3535	0.09	848707	keystroke	g	n/a
424.4105	0.09	848821	keystroke	Key.space	n/a
424.546	0.111	849092	keystroke	p	n/a
424.634	0.079	849268	keystroke	a	n/a
424.7725	0.089	849545	keystroke	c	n/a
424.85	0.077	849700	keystroke	k	n/a
424.983	0.0795	849966	keystroke	e	n/a
425.141	0.055	850282	keystroke	d	n/a
425.5235	0.0825	851047	keystroke	Key.enter	n/a
425.619	6.84	851238	prompt	n/a	vernon rendered shortcuts actors\n
426.424	0.067	852848	keystroke	v	n/a
426.58	0.1135	853160	keystroke	e	n/a
426.626	0.101	853252	keystroke	r	n/a
427.008	0.1135	854016	keystroke	n	n/a
427.1545	0.123	854309	keystroke	o	n/a
427.2445	0.1165	854489	keystroke	n	n/a
427.368	0.103	854736	keystroke	Key.space	n/a
427.5265	0.134	855053	keystroke	r	n/a
427.6735	0.089	855347	keystroke	e	n/a
427.8195	0.0765	855639	keystroke	n	n/a
427.8755	0.1005	855751	keystroke	d	n/a
428.0435	0.1125	856087	keystroke	e	n/a
428.1235	0.145	856247	keystroke	r	n/a
428.234	0.0805	856468	keystroke	e	n/a
428.414	0.1025	856828	keystroke	d	n/a
428.4925	0.1025	856985	keystroke	Key.space	n/a
428.8315	0.08	857663	keystroke	s	n/a
429.212	0.09	858424	keystroke	h	n/a
429.4605	0.0575	858921	keystroke	o	n/a
429.5975	0.0665	859195	keystroke	r	n/a
429.765	0.067	859530	keystroke	t	n/a
429.9895	0.09	859979	keystroke	c	n/a
430.117	0.0935	860234	keystroke	u	n/a
430.273	0.077	860546	keystroke	t	n/a
430.4965	0.079	860993	keystroke	s	n/a
431.2155	0.0795	862431	keystroke	Key.space	n/a
431.431	0.0775	862862	keystroke	a	n/a
431.577	0.0895	863154	keystroke	c	n/a
431.778	0.068	863556	keystroke	t	n/a
431.9025	0.0785	863805	keystroke	o	n/a
431.9935	0.0675	863987	keystroke	r	n/a
432.1385	0.0675	864277	keystroke	s	n/a
432.3855	0.07	864771	keystroke	Key.enter	n/a
432.4705	8.69	864941	prompt	n/a	workout chen glass potatoes\n
433.139	0.091	866278	keystroke	w	n/a
433.2555	0.075	866511	keystroke	o	n/a
433.3425	0.068	866685	keystroke	r	n/a
433.456	0.101	866912	keystroke	k	n/a
433.8615	0.0985	867723	keystroke	o	n/a
433.938	0.0905	867876	keystroke	u	n/a
434.0765	0.1085	868153	keystroke	t	n/a
434.1625	0.0785	868325	keystroke	Key.space	n/a
435.2465	0.1085	870493	keystroke	c	n/a
435.4335	0.1125	870867	keystroke	h	n/a
435.585	0.0625	871170	keystroke	e	n/a
435.8395	0.067	871679	keystroke	n	n/a
435.985	0.0895	871970	keystroke	Key.space	n/a
436.5025	0.0835	873005	keystroke	g	n/a
436.5925	0.056	873185	keystroke	l	n/a
436.694	0.0675	873388	keystroke	a	n/a
436.8625	0.0445	873725	keystroke	s	n/a
436.9875	0.0775	873975	keystroke	s	n/a
437.095	0.0915	874190	keystroke	Key.space	n/a
438.3245	0.135	876649	keystroke	p	n/a
438.426	0.1125	876852	keystroke	o	n/a
438.584	0.079	877168	keystroke	t	n/a
438.7075	0.1135	877415	keystroke	a	n/a
438.7745	0.0905	877549	keystroke	t	n/a
438.9215	0.067	877843	keystroke	o	n/a
439.0445	0.0795	878089	keystroke	s	n/a
440.181	0.067	880362	keystroke	Key.backspace	n/a
440.2825	0.0785	880565	keystroke	e	n/a
440.4625	0.067	880925	keystroke	s	n/a
441.1045	0.055	882209	keystroke	Key.enter	n/a
441.1665	8.6675	882333	prompt	n/a	reduced marie agricultural affect\n
443.3985	0.1235	886797	keystroke	r	n/a
443.455	0.0895	886910	keystroke	e	n/a
443.8595	0.0905	887719	keystroke	d	n/a
444.096	0.079	888192	keystroke	u	n/a
444.198	0.0895	888396	keystroke	c	n/a
444.3995	0.056	888799	keystroke	e	n/a
444.558	0.113	889116	keystroke	d	n/a
444.6925	0.101	889385	keystroke	Key.space	n/a
444.9625	0.112	889925	keystroke	m	n/a
445.0635	0.112	890127	keystroke	a	n/a
445.2435	0.09	890487	keystroke	r	n/a
445.379	0.0925	890758	keystroke	i	n/a
445.581	0.0565	891162	keystroke	e	n/a
445.7495	0.068	891499	keystroke	Key.space	n/a
446.4255	0.0895	892851	keystroke	a	n/a
446.65	0.0675	893300	keystroke	g	n/a
446.8295	0.079	893659	keystroke	r	n/a
446.9645	0.101	893929	keystroke	i	n/a
447.1445	0.09	894289	keystroke	c	n/a
447.302	0.1125	894604	keystroke	u	n/a
447.372	0.0875	894744	keystroke	l	n/a
447.4935	0.0895	894987	keystroke	t	n/a
447.6055	0.1125	895211	keystroke	u	n/a
447.707	0.1015	895414	keystroke	r	n/a
447.7745	0.1015	895549	keystroke	a	n/a
447.8985	0.0785	895797	keystroke	l	n/a
448.022	0.113	896044	keystroke	Key.space	n/a
448.191	0.0795	896382	keystroke	a	n/a
448.3145	0.0785	896629	keystroke	f	n/a
448.461	0.1235	896922	keystroke	f	n/a
448.5625	0.092	897125	keystroke	e	n/a
448.754	0.067	897508	keystroke	c	n/a
448.9445	0.056	897889	keystroke	t	n/a
449.777	0.056	899554	keystroke	Key.enter	n/a
449.84	9.399	899680	prompt	n/a	greetings rare create pepper\n
455.0985	0.011	910197	keystroke	g	n/a
455.188	0.1235	910376	keystroke	r	n/a
455.2665	0.0675	910533	keystroke	e	n/a
455.425	0.089	910850	keystroke	e	n/a
455.661	0.0675	911322	keystroke	t	n/a
455.9305	0.1355	911861	keystroke	i	n/a
455.9985	0.124	911997	keystroke	n	n/a
456.1105	0.0675	912221	keystroke	g	n/a
456.304	0.0765	912608	keystroke	s	n/a
456.4255	0.1015	912851	keystroke	Key.space	n/a
456.64	0.1005	913280	keystroke	r	n/a
456.7295	0.113	913459	keystroke	a	n/a
456.831	0.135	913662	keystroke	r	n/a
456.921	0.1005	913842	keystroke	e	n/a
457.0555	0.0905	914111	keystroke	Key.space	n/a
457.337	0.1015	914674	keystroke	c	n/a
457.551	0.124	915102	keystroke	r	n/a
457.6185	0.1015	915237	keystroke	e	n/a
457.731	0.112	915462	keystroke	a	n/a
457.8205	0.124	915641	keystroke	t	n/a
457.888	0.1125	915776	keystroke	e	n/a
458.057	0.113	916114	keystroke	Key.space	n/a
458.316	0.079	916632	keystroke	p	n/a
458.439	0.079	916878	keystroke	e	n/a
458.5295	0.067	917059	keystroke	p	n/a
458.664	0.0905	917328	keystroke	p	n/a
458.788	0.113	917576	keystroke	e	n/a
458.8555	0.0795	917711	keystroke	r	n/a
459.1705	0.0675	918341	keystroke	Key.enter	n/a
459.2455	8.545	918491	prompt	n/a	lying independent commissioner displays\n
459.9805	0.09	919961	keystroke	l	n/a
460.116	0.1015	920232	keystroke	y	n/a
460.3295	0.124	920659	keystroke	i	n/a
460.397	0.124	920794	keystroke	n	n/a
460.487	0.1125	920974	keystroke	g	n/a
460.566	0.0895	921132	keystroke	Key.space	n/a
460.6785	0.125	921357	keystroke	i	n/a
460.757	0.1135	921514	keystroke	n	n/a
460.8135	0.101	921627	keystroke	d	n/a
460.9935	0.09	921987	keystroke	e	n/a
461.1055	0.136	922211	keystroke	p	n/a
461.2415	0.0665	922483	keystroke	e	n/a
461.3535	0.1015	922707	keystroke	n	n/a
461.4435	0.067	922887	keystroke	d	n/a
461.5785	0.067	923157	keystroke	e	n/a
461.6685	0.0785	923337	keystroke	n	n/a
461.7805	0.102	923561	keystroke	t	n/a
461.893	0.0785	923786	keystroke	Key.space	n/a
462.0735	0.1015	924147	keystroke	c	n/a
462.197	0.079	924394	keystroke	o	n/a
462.2535	0.1685	924507	keystroke	m	n/a
462.4105	0.0675	924821	keystroke	i	n/a
462.557	0.0565	925114	keystroke	s	n/a
462.6805	0.0675	925361	keystroke	s	n/a
462.771	0.136	925542	keystroke	i	n/a
462.839	0.1005	925678	keystroke	o	n/a
462.9175	0.1225	925835	keystroke	n	n/a
463.638	0.056	927276	keystroke	Key.backspace	n/a
463.818	0.0115	927636	keystroke	Key.backspace	n/a
463.896	0.0685	927792	keystroke	Key.backspace	n/a
464.044	0.0555	928088	keystroke	Key.backspace	n/a
464.1885	0.0355	928377	keystroke	Key.backspace	n/a
464.3025	0.0705	928605	keystroke	Key.backspace	n/a
465.055	0.1135	930110	keystroke	m	n/a
465.27	0.078	930540	keystroke	i	n/a
465.461	0.066	930922	keystroke	s	n/a
465.607	0.078	931214	keystroke	s	n/a
465.6965	0.1585	931393	keystroke	i	n/a
465.7645	0.101	931529	keystroke	o	n/a
465.8215	0.111	931643	keystroke	n	n/a
465.989	0.0795	931978	keystroke	e	n/a
466.138	0.099	932276	keystroke	r	n/a
466.496	0.078	932992	keystroke	Key.space	n/a
466.664	0.0785	933328	keystroke	d	n/a
466.7765	0.068	933553	keystroke	i	n/a
466.8565	0.066	933713	keystroke	s	n/a
466.992	0.113	933984	keystroke	p	n/a
467.058	0.1145	934116	keystroke	l	n/a
467.184	0.078	934368	keystroke	a	n/a
467.306	0.1	934612	keystroke	y	n/a
467.418	0.07	934836	keystroke	s	n/a
467.733	0.0555	935466	keystroke	Key.enter	n/a
467.7995	11.0615	935599	prompt	n/a	phoenix throat roman credit\n
469.0265	0.123	938053	keystroke	p	n/a
469.1055	0.1245	938211	keystroke	h	n/a
469.289	0.109	938578	keystroke	o	n/a
469.3555	0.11	938711	keystroke	n	n/a
469.443	0.079	938886	keystroke	e	n/a
470.1175	0.046	940235	keystroke	Key.backspace	n/a
470.2415	0.057	940483	keystroke	Key.backspace	n/a
470.366	0.067	940732	keystroke	Key.backspace	n/a
471.4905	0.056	942981	keystroke	o	n/a
471.604	0.0775	943208	keystroke	e	n/a
472.1775	0.1	944355	keystroke	n	n/a
473.189	0.0785	946378	keystroke	i	n/a
473.279	0.094	946558	keystroke	x	n/a
473.482	0.078	946964	keystroke	Key.space	n/a
474.3065	0.0755	948613	keystroke	t	n/a
474.6965	0.079	949393	keystroke	h	n/a
474.8435	0.112	949687	keystroke	a	n/a
475.5405	0.081	951081	keystroke	Key.backspace	n/a
475.7315	0.101	951463	keystroke	r	n/a
475.923	0.068	951846	keystroke	o	n/a
476.0385	0.0995	952077	keystroke	a	n/a
476.395	0.0335	952790	keystroke	t	n/a
476.5975	0.0895	953195	keystroke	Key.space	n/a
476.8905	0.0665	953781	keystroke	r	n/a
477.004	0.134	954008	keystroke	o	n/a
477.127	0.1005	954254	keystroke	m	n/a
477.2395	0.0825	954479	keystroke	a	n/a
477.3555	0.099	954711	keystroke	n	n/a
477.4975	0.101	954995	keystroke	Key.space	n/a
477.8385	0.0865	955677	keystroke	c	n/a
478.026	0.124	956052	keystroke	r	n/a
478.1045	0.0915	956209	keystroke	e	n/a
478.276	0.088	956552	keystroke	d	n/a
478.388	0.09	956776	keystroke	i	n/a
478.4985	0.08	956997	keystroke	t	n/a
478.792	0.067	957584	keystroke	Key.enter	n/a
478.8735	5.3765	957747	prompt	n/a	pockets stack orchestra his\n
479.455	0.1375	958910	keystroke	p	n/a
479.5915	0.088	959183	keystroke	o	n/a
479.7485	0.102	959497	keystroke	c	n/a
479.8605	0.1005	959721	keystroke	k	n/a
479.9725	0.1015	959945	keystroke	e	n/a
480.04	0.0675	960080	keystroke	t	n/a
480.187	0.1025	960374	keystroke	s	n/a
480.255	0.09	960510	keystroke	Key.space	n/a
480.5055	0.041	961011	keystroke	s	n/a
480.6485	0.1015	961297	keystroke	s	n/a
480.7375	0.09	961475	keystroke	t	n/a
481.0545	0.034	962109	keystroke	Key.backspace	n/a
481.155	0.066	962310	keystroke	Key.backspace	n/a
481.2995	0.1125	962599	keystroke	t	n/a
481.457	0.068	962914	keystroke	a	n/a
481.581	0.092	963162	keystroke	c	n/a
481.6825	0.0905	963365	keystroke	k	n/a
481.8065	0.0895	963613	keystroke	Key.space	n/a
482.0655	0.1005	964131	keystroke	o	n/a
482.481	0.079	964962	keystroke	r	n/a
482.708	0.0895	965416	keystroke	c	n/a
482.8295	0.092	965659	keystroke	h	n/a
482.954	0.0685	965908	keystroke	e	n/a
483.179	0.1015	966358	keystroke	s	n/a
483.2715	0.0665	966543	keystroke	t	n/a
483.415	0.113	966830	keystroke	r	n/a
483.483	0.0895	966966	keystroke	a	n/a
483.641	0.0895	967282	keystroke	Key.space	n/a
483.7975	0.1015	967595	keystroke	h	n/a
483.8655	0.09	967731	keystroke	i	n/a
483.944	0.0785	967888	keystroke	s	n/a
484.172	0.0755	968344	keystroke	Key.enter	n/a
484.26	6.3215	968520	prompt	n/a	techno garcia less system\n
484.934	0.079	969868	keystroke	t	n/a
485.0465	0.101	970093	keystroke	e	n/a
485.2385	0.0995	970477	keystroke	c	n/a
485.328	0.067	970656	keystroke	h	n/a
485.521	0.1015	971042	keystroke	n	n/a
485.575	0.1135	971150	keystroke	o	n/a
485.699	0.0895	971398	keystroke	Key.space	n/a
485.8785	0.102	971757	keystroke	g	n/a
486.038	0.111	972076	keystroke	a	n/a
486.1055	0.0885	972211	keystroke	r	n/a
486.3295	0.0665	972659	keystroke	c	n/a
486.429	0.079	972858	keystroke	i	n/a
486.5545	0.078	973109	keystroke	a	n/a
486.939	0.066	973878	keystroke	Key.space	n/a
487.2395	0.073	974479	keystroke	l	n/a
487.3905	0.064	974781	keystroke	e	n/a
487.578	0.0335	975156	keystroke	s	n/a
487.7135	0.112	975427	keystroke	s	n/a
487.7805	0.101	975561	keystroke	Key.space	n/a
488.4995	0.0675	976999	keystroke	s	n/a
488.613	0.078	977226	keystroke	y	n/a
488.6795	0.113	977359	keystroke	s	n/a
488.8055	0.1345	977611	keystroke	t	n/a
488.906	0.101	977812	keystroke	e	n/a
488.996	0.112	977992	keystroke	m	n/a
490.491	0.0895	980982	keystroke	Key.enter	n/a
490.589	12.641	981178	prompt	n/a	clearly ecommerce abstracts throw\n
492.6065	0.0825	985213	keystroke	c	n/a
492.689	0.0865	985378	keystroke	l	n/a
492.81	0.1225	985620	keystroke	e	n/a
492.8905	0.1085	985781	keystroke	a	n/a
492.9555	0.089	985911	keystroke	r	n/a
493.124	0.149	986248	keystroke	l	n/a
493.2375	0.0995	986475	keystroke	y	n/a
493.3485	0.0785	986697	keystroke	Key.space	n/a
493.461	0.0815	986922	keystroke	e	n/a
493.6745	0.136	987349	keystroke	m	n/a
493.777	0.0785	987554	keystroke	o	n/a
494.204	0.101	988408	keystroke	m	n/a
494.7105	0.0565	989421	keystroke	Key.backspace	n/a
494.8455	0.059	989691	keystroke	Key.backspace	n/a
494.9915	0.056	989983	keystroke	Key.backspace	n/a
495.137	0.0685	990274	keystroke	Key.backspace	n/a
495.4985	0.079	990997	keystroke	e	n/a
495.734	0.079	991468	keystroke	c	n/a
495.8805	0.091	991761	keystroke	o	n/a
495.959	0.08	991918	keystroke	m	n/a
496.105	0.0905	992210	keystroke	m	n/a
496.354	0.134	992708	keystroke	e	n/a
496.4545	0.08	992909	keystroke	r	n/a
496.6455	0.092	993291	keystroke	c	n/a
496.838	0.089	993676	keystroke	e	n/a
496.96	0.102	993920	keystroke	Key.space	n/a
497.151	0.071	994302	keystroke	a	n/a
497.276	0.1125	994552	keystroke	b	n/a
497.4775	0.128	994955	keystroke	s	n/a
497.556	0.101	995112	keystroke	t	n/a
497.7715	0.1025	995543	keystroke	r	n/a
497.884	0.092	995768	keystroke	a	n/a
498.096	0.0915	996192	keystroke	c	n/a
498.368	0.078	996736	keystroke	t	n/a
498.9875	0.0535	997975	keystroke	s	n/a
499.177	0.0785	998354	keystroke	Key.space	n/a
499.751	0.0785	999502	keystroke	t	n/a
499.854	0.088	999708	keystroke	h	n/a
499.954	0.068	999908	keystroke	r	n/a
500.043	0.079	1000086	keystroke	o	n/a
500.155	0.068	1000310	keystroke	w	n/a
503.1815	0.045	1006363	keystroke	Key.enter	n/a
503.242	10.44	1006484	prompt	n/a	survey california healthy identifies\n
505.296	0.0905	1010592	keystroke	s	n/a
505.533	0.078	1011066	keystroke	u	n/a
505.995	0.0665	1011990	keystroke	r	n/a
507.221	0.055	1014442	keystroke	v	n/a
507.433	0.058	1014866	keystroke	e	n/a
507.659	0.101	1015318	keystroke	y	n/a
508.076	0.081	1016152	keystroke	Key.space	n/a
508.605	0.044	1017210	keystroke	Key.backspace	n/a
509.0215	0.0555	1018043	keystroke	Key.space	n/a
509.3465	0.1125	1018693	keystroke	c	n/a
509.541	0.075	1019082	keystroke	a	n/a
509.7185	0.1035	1019437	keystroke	l	n/a
509.9885	0.088	1019977	keystroke	i	n/a
510.247	0.0105	1020494	keystroke	f	n/a
510.2725	0.0635	1020545	keystroke	o	n/a
510.3585	0.068	1020717	keystroke	r	n/a
510.46	0.112	1020920	keystroke	n	n/a
510.5275	0.113	1021055	keystroke	i	n/a
510.617	0.0825	1021234	keystroke	a	n/a
510.755	0.0665	1021510	keystroke	Key.space	n/a
511.045	0.093	1022090	keystroke	h	n/a
511.146	0.0795	1022292	keystroke	e	n/a
511.205	0.0665	1022410	keystroke	a	n/a
511.259	0.0805	1022518	keystroke	l	n/a
511.406	0.067	1022812	keystroke	t	n/a
511.4845	0.0585	1022969	keystroke	h	n/a
511.63	0.093	1023260	keystroke	y	n/a
511.732	0.0565	1023464	keystroke	Key.space	n/a
511.901	0.078	1023802	keystroke	i	n/a
512.004	0.067	1024008	keystroke	d	n/a
512.1585	0.0675	1024317	keystroke	e	n/a
512.2485	0.0915	1024497	keystroke	n	n/a
512.3615	0.0795	1024723	keystroke	t	n/a
512.454	0.0675	1024908	keystroke	i	n/a
512.5755	0.067	1025151	keystroke	f	n/a
512.6575	0.0755	1025315	keystroke	i	n/a
512.789	0.1255	1025578	keystroke	e	n/a
512.908	0.0515	1025816	keystroke	s	n/a
513.599	0.0795	1027198	keystroke	Key.enter	n/a
513.6955	5.8895	1027391	prompt	n/a	webcam plymouth fifth traveller\n
514.296	0.101	1028592	keystroke	w	n/a
514.3745	0.091	1028749	keystroke	e	n/a
514.5675	0.0665	1029135	keystroke	b	n/a
514.792	0.068	1029584	keystroke	c	n/a
514.8715	0.0775	1029743	keystroke	a	n/a
514.9835	0.101	1029967	keystroke	m	n/a
515.106	0.101	1030212	keystroke	Key.space	n/a
515.3875	0.1255	1030775	keystroke	p	n/a
515.477	0.102	1030954	keystroke	l	n/a
515.67	0.0895	1031340	keystroke	y	n/a
515.9285	0.125	1031857	keystroke	m	n/a
516.0535	0.101	1032107	keystroke	o	n/a
516.165	0.1	1032330	keystroke	u	n/a
516.3225	0.0555	1032645	keystroke	t	n/a
516.4115	0.101	1032823	keystroke	h	n/a
516.5235	0.057	1033047	keystroke	Key.space	n/a
516.704	0.0555	1033408	keystroke	f	n/a
516.798	0.0745	1033596	keystroke	i	n/a
516.872	0.0675	1033744	keystroke	f	n/a
517.053	0.055	1034106	keystroke	t	n/a
517.1535	0.123	1034307	keystroke	h	n/a
517.378	0.0785	1034756	keystroke	Key.space	n/a
518.1665	0.055	1036333	keystroke	t	n/a
518.3235	0.1125	1036647	keystroke	r	n/a
518.403	0.0775	1036806	keystroke	a	n/a
518.548	0.0795	1037096	keystroke	v	n/a
518.6605	0.0785	1037321	keystroke	e	n/a
518.853	0.044	1037706	keystroke	l	n/a
518.976	0.0785	1037952	keystroke	l	n/a
519.1105	0.113	1038221	keystroke	e	n/a
519.1675	0.089	1038335	keystroke	r	n/a
519.5275	0.056	1039055	keystroke	Key.enter	n/a
519.592	4.7285	1039184	prompt	n/a	ending heavily atlas herein\n
520.203	0.0775	1040406	keystroke	e	n/a
520.3485	0.1125	1040697	keystroke	n	n/a
520.472	0.056	1040944	keystroke	d	n/a
520.573	0.1015	1041146	keystroke	i	n/a
520.653	0.0775	1041306	keystroke	n	n/a
520.686	0.1005	1041372	keystroke	g	n/a
520.753	0.079	1041506	keystroke	Key.space	n/a
520.888	0.09	1041776	keystroke	h	n/a
520.9705	0.0865	1041941	keystroke	e	n/a
521.046	0.0785	1042092	keystroke	a	n/a
521.17	0.089	1042340	keystroke	v	n/a
521.3265	0.1575	1042653	keystroke	i	n/a
521.473	0.158	1042946	keystroke	l	n/a
521.5975	0.1005	1043195	keystroke	y	n/a
521.721	0.0895	1043442	keystroke	Key.space	n/a
521.912	0.1015	1043824	keystroke	a	n/a
522.272	0.0675	1044544	keystroke	t	n/a
522.4525	0.078	1044905	keystroke	l	n/a
522.564	0.068	1045128	keystroke	a	n/a
522.7225	0.056	1045445	keystroke	s	n/a
523.1265	0.0795	1046253	keystroke	Key.space	n/a
523.464	0.0795	1046928	keystroke	h	n/a
523.566	0.101	1047132	keystroke	e	n/a
523.6105	0.0905	1047221	keystroke	r	n/a
523.779	0.124	1047558	keystroke	i	n/a
523.8695	0.1005	1047739	keystroke	n	n/a
524.2405	0.079	1048481	keystroke	Key.enter	n/a
524.327	11.593	1048654	prompt	n/a	royalty rescue jets ones\n
531.823	0.0675	1063646	keystroke	r	n/a
531.924	0.09	1063848	keystroke	o	n/a
532.239	0.1135	1064478	keystroke	y	n/a
532.8575	0.09	1065715	keystroke	a	n/a
532.982	0.0895	1065964	keystroke	l	n/a
533.1395	0.0795	1066279	keystroke	t	n/a
533.2745	0.1005	1066549	keystroke	y	n/a
533.3865	0.0785	1066773	keystroke	Key.space	n/a
533.544	0.113	1067088	keystroke	r	n/a
533.623	0.079	1067246	keystroke	e	n/a
533.8025	0.068	1067605	keystroke	s	n/a
533.9825	0.0675	1067965	keystroke	c	n/a
534.1065	0.09	1068213	keystroke	u	n/a
534.2075	0.0905	1068415	keystroke	e	n/a
534.287	0.1005	1068574	keystroke	Key.space	n/a
534.557	0.0895	1069114	keystroke	j	n/a
534.6575	0.1015	1069315	keystroke	e	n/a
534.7255	0.0675	1069451	keystroke	t	n/a
534.8605	0.1015	1069721	keystroke	s	n/a
534.973	0.1015	1069946	keystroke	Key.space	n/a
535.2315	0.1015	1070463	keystroke	o	n/a
535.3215	0.1125	1070643	keystroke	n	n/a
535.457	0.123	1070914	keystroke	e	n/a
535.547	0.112	1071094	keystroke	s	n/a
535.8505	0.0685	1071701	keystroke	Key.enter	n/a
535.927	6.506	1071854	prompt	n/a	massive lycos obvious calculations\n
536.5815	0.0455	1073163	keystroke	m	n/a
536.6265	0.09	1073253	keystroke	a	n/a
536.728	0.067	1073456	keystroke	s	n/a
536.863	0.079	1073726	keystroke	s	n/a
537.0765	0.0675	1074153	keystroke	i	n/a
537.1665	0.1365	1074333	keystroke	v	n/a
537.2905	0.112	1074581	keystroke	e	n/a
537.3695	0.101	1074739	keystroke	Key.space	n/a
537.561	0.0895	1075122	keystroke	l	n/a
537.7855	0.0785	1075571	keystroke	y	n/a
537.9315	0.101	1075863	keystroke	c	n/a
538.044	0.079	1076088	keystroke	o	n/a
538.449	0.101	1076898	keystroke	s	n/a
538.9555	0.079	1077911	keystroke	Key.space	n/a
539.214	0.0675	1078428	keystroke	o	n/a
539.3265	0.0905	1078653	keystroke	b	n/a
539.6755	0.067	1079351	keystroke	v	n/a
539.9	0.17	1079800	keystroke	i	n/a
540.0575	0.158	1080115	keystroke	o	n/a
540.2045	0.09	1080409	keystroke	u	n/a
540.3395	0.0795	1080679	keystroke	s	n/a
540.542	0.0785	1081084	keystroke	Key.space	n/a
540.9245	0.067	1081849	keystroke	c	n/a
541.0365	0.0785	1082073	keystroke	a	n/a
541.1265	0.09	1082253	keystroke	l	n/a
541.25	0.079	1082500	keystroke	c	n/a
541.386	0.1235	1082772	keystroke	u	n/a
541.4645	0.09	1082929	keystroke	l	n/a
541.543	0.1235	1083086	keystroke	a	n/a
541.644	0.068	1083288	keystroke	t	n/a
541.7115	0.18	1083423	keystroke	i	n/a
541.79	0.158	1083580	keystroke	o	n/a
541.88	0.1245	1083760	keystroke	n	n/a
542.038	0.0675	1084076	keystroke	s	n/a
542.364	0.068	1084728	keystroke	Key.enter	n/a
542.439	4.2685	1084878	prompt	n/a	just credit organizing auto\n
543.028	0.091	1086056	keystroke	j	n/a
543.197	0.09	1086394	keystroke	u	n/a
543.298	0.101	1086596	keystroke	s	n/a
543.3655	0.0785	1086731	keystroke	t	n/a
543.4325	0.0905	1086865	keystroke	Key.space	n/a
543.7255	0.0895	1087451	keystroke	c	n/a
543.928	0.135	1087856	keystroke	r	n/a
544.019	0.078	1088038	keystroke	e	n/a
544.1645	0.0895	1088329	keystroke	d	n/a
544.344	0.09	1088688	keystroke	i	n/a
544.4225	0.0905	1088845	keystroke	t	n/a
544.5025	0.0665	1089005	keystroke	Key.space	n/a
544.625	0.0905	1089250	keystroke	o	n/a
544.716	0.067	1089432	keystroke	r	n/a
544.884	0.09	1089768	keystroke	g	n/a
544.9625	0.102	1089925	keystroke	a	n/a
545.053	0.157	1090106	keystroke	n	n/a
545.1425	0.1015	1090285	keystroke	i	n/a
545.2215	0.068	1090443	keystroke	z	n/a
545.4245	0.1455	1090849	keystroke	i	n/a
545.514	0.1235	1091028	keystroke	n	n/a
545.604	0.113	1091208	keystroke	g	n/a
545.694	0.079	1091388	keystroke	Key.space	n/a
545.8855	0.079	1091771	keystroke	a	n/a
546.032	0.067	1092064	keystroke	u	n/a
546.1215	0.0785	1092243	keystroke	t	n/a
546.234	0.1015	1092468	keystroke	o	n/a
546.662	0.0445	1093324	keystroke	Key.enter	n/a
546.713	8.411	1093426	prompt	n/a	thick required examined neighborhood\n
548.721	0.067	1097442	keystroke	t	n/a
548.867	0.1025	1097734	keystroke	h	n/a
549.3615	0.135	1098723	keystroke	i	n/a
549.666	0.0785	1099332	keystroke	c	n/a
549.7785	0.091	1099557	keystroke	k	n/a
549.9025	0.078	1099805	keystroke	Key.space	n/a
550.284	0.1015	1100568	keystroke	r	n/a
551.117	0.102	1102234	keystroke	e	n/a
551.2065	0.09	1102413	keystroke	q	n/a
551.4545	0.135	1102909	keystroke	u	n/a
551.5215	0.114	1103043	keystroke	i	n/a
551.657	0.1345	1103314	keystroke	r	n/a
551.7355	0.0895	1103471	keystroke	e	n/a
551.904	0.113	1103808	keystroke	d	n/a
551.985	0.088	1103970	keystroke	Key.space	n/a
552.1745	0.056	1104349	keystroke	e	n/a
552.343	0.1125	1104686	keystroke	x	n/a
552.4215	0.0905	1104843	keystroke	a	n/a
552.5695	0.1105	1105139	keystroke	m	n/a
552.7365	0.1355	1105473	keystroke	i	n/a
552.839	0.1155	1105678	keystroke	n	n/a
552.962	0.067	1105924	keystroke	e	n/a
553.108	0.112	1106216	keystroke	d	n/a
553.209	0.079	1106418	keystroke	Key.space	n/a
553.389	0.08	1106778	keystroke	n	n/a
553.4355	0.0775	1106871	keystroke	e	n/a
553.58	0.079	1107160	keystroke	i	n/a
553.682	0.0785	1107364	keystroke	g	n/a
553.7955	0.091	1107591	keystroke	h	n/a
553.8975	0.0945	1107795	keystroke	b	n/a
554.0225	0.0885	1108045	keystroke	o	n/a
554.147	0.0565	1108294	keystroke	r	n/a
554.2895	0.093	1108579	keystroke	h	n/a
554.359	0.051	1108718	keystroke	o	n/a
554.4815	0.093	1108963	keystroke	o	n/a
554.596	0.0655	1109192	keystroke	d	n/a
555.045	0.0775	1110090	keystroke	Key.enter	n/a
555.1345	6.774	1110269	prompt	n/a	packed join grants strategic\n
557.8335	0.1395	1115667	keystroke	p	n/a
557.971	0.0645	1115942	keystroke	a	n/a
558.059	0.1045	1116118	keystroke	c	n/a
558.153	0.0855	1116306	keystroke	k	n/a
558.2735	0.0665	1116547	keystroke	e	n/a
558.4205	0.1005	1116841	keystroke	d	n/a
558.5085	0.068	1117017	keystroke	Key.space	n/a
558.623	0.167	1117246	keystroke	j	n/a
