onset	duration	sample	value	key	prompt_text
15.6205	0.405	31241	keystroke_Key.ctrl_l	Key.ctrl_l	n/a
15.7405	0.12	31481	keystroke_		n/a
15.894	8.384	31788	prompt	n/a	the quick brown fox jumps over a lazy dog\n
18.4405	0.09	36881	keystroke_h	h	n/a
18.4855	0.09	36971	keystroke_e	e	n/a
18.6055	0.075	37211	keystroke_Key.space	Key.space	n/a
18.6955	0.135	37391	keystroke_q	q	n/a
18.8155	0.075	37631	keystroke_u	u	n/a
18.9955	0.075	37991	keystroke_i	i	n/a
19.1305	0.105	38261	keystroke_c	c	n/a
19.2655	0.105	38531	keystroke_k	k	n/a
19.5205	0.06	39041	keystroke_Key.space	Key.space	n/a
19.7005	0.09	39401	keystroke_b	b	n/a
19.8355	0.105	39671	keystroke_r	r	n/a
19.9255	0.09	39851	keystroke_o	o	n/a
20.0605	0.12	40121	keystroke_w	w	n/a
20.1655	0.075	40331	keystroke_n	n	n/a
20.3005	0.09	40601	keystroke_Key.space	Key.space	n/a
20.5405	0.075	41081	keystroke_f	f	n/a
20.6605	0.105	41321	keystroke_o	o	n/a
20.8405	0.12	41681	keystroke_x	x	n/a
20.9755	0.075	41951	keystroke_Key.space	Key.space	n/a
21.1255	0.075	42251	keystroke_j	j	n/a
21.2905	0.075	42581	keystroke_u	u	n/a
21.4705	0.075	42941	keystroke_m	m	n/a
21.5905	0.105	43181	keystroke_p	p	n/a
21.7405	0.105	43481	keystroke_s	s	n/a
21.8905	0.06	43781	keystroke_Key.space	Key.space	n/a
22.025	0.0905	44050	keystroke_o	o	n/a
22.175	0.09	44350	keystroke_v	v	n/a
22.34	0.135	44680	keystroke_e	e	n/a
22.445	0.12	44890	keystroke_r	r	n/a
22.64	0.075	45280	keystroke_Key.space	Key.space	n/a
22.76	0.12	45520	keystroke_a	a	n/a
22.865	0.06	45730	keystroke_Key.space	Key.space	n/a
23.075	0.075	46150	keystroke_l	l	n/a
23.1805	0.09	46361	keystroke_a	a	n/a
23.3755	0.12	46751	keystroke_z	z	n/a
23.5255	0.075	47051	keystroke_y	y	n/a
23.6605	0.09	47321	keystroke_Key.space	Key.space	n/a
23.7805	0.12	47561	keystroke_d	d	n/a
23.8855	0.075	47771	keystroke_o	o	n/a
24.0055	0.09	48011	keystroke_g	g	n/a
24.185	0.09	48370	keystroke_Key.enter	Key.enter	n/a
24.2835	8.2895	48567	prompt	n/a	commissions weather glow research\n
25.04	0.105	50080	keystroke_c	c	n/a
25.161	0.104	50322	keystroke_o	o	n/a
25.325	0.09	50650	keystroke_m	m	n/a
25.67	0.075	51340	keystroke_m	m	n/a
25.895	0.075	51790	keystroke_i	i	n/a
26.06	0.105	52120	keystroke_s	s	n/a
26.285	0.06	52570	keystroke_s	s	n/a
26.45	0.075	52900	keystroke_i	i	n/a
26.825	0.075	53650	keystroke_o	o	n/a
27.065	0.1055	54130	keystroke_n	n	n/a
27.3355	0.105	54671	keystroke_s	s	n/a
27.5905	0.09	55181	keystroke_Key.space	Key.space	n/a
27.9505	0.12	55901	keystroke_w	w	n/a
28.0555	0.15	56111	keystroke_e	e	n/a
28.1905	0.165	56381	keystroke_a	a	n/a
28.3105	0.12	56621	keystroke_t	t	n/a
28.4455	0.12	56891	keystroke_h	h	n/a
28.6255	0.165	57251	keystroke_e	e	n/a
28.7455	0.135	57491	keystroke_r	r	n/a
28.9555	0.105	57911	keystroke_Key.space	Key.space	n/a
29.5255	0.075	59051	keystroke_g	g	n/a
29.7355	0.075	59471	keystroke_l	l	n/a
29.9305	0.105	59861	keystroke_o	o	n/a
30.2455	0.015	60491	keystroke_w	w	n/a
30.2755	0.09	60551	keystroke_Key.space	Key.space	n/a
30.4705	0.12	60941	keystroke_r	r	n/a
30.5755	0.105	61151	keystroke_e	e	n/a
30.6955	0.105	61391	keystroke_a	a	n/a
31.1755	0.09	62351	keystroke_Key.backspace	Key.backspace	n/a
31.2955	0.12	62591	keystroke_s	s	n/a
31.4455	0.12	62891	keystroke_e	e	n/a
31.5805	0.15	63161	keystroke_a	a	n/a
31.6855	0.075	63371	keystroke_r	r	n/a
31.9555	0.09	63911	keystroke_c	c	n/a
32.1205	0.105	64241	keystroke_h	h	n/a
32.4505	0.12	64901	keystroke_Key.enter	Key.enter	n/a
32.579	7.4485	65158	prompt	n/a	worse palace interact processors\n
33.3355	0.105	66671	keystroke_w	w	n/a
33.4555	0.09	66911	keystroke_o	o	n/a
33.5605	0.075	67121	keystroke_r	r	n/a
33.7405	0.09	67481	keystroke_s	s	n/a
33.8155	0.075	67631	keystroke_e	e	n/a
33.9505	0.075	67901	keystroke_Key.space	Key.space	n/a
34.0855	0.09	68171	keystroke_p	p	n/a
34.3105	0.135	68621	keystroke_a	a	n/a
34.6255	0.105	69251	keystroke_l	l	n/a
34.8505	0.12	69701	keystroke_a	a	n/a
35.2405	0.105	70481	keystroke_c	c	n/a
35.6455	0.105	71291	keystroke_e	e	n/a
35.8855	0.09	71771	keystroke_Key.space	Key.space	n/a
36.0655	0.075	72131	keystroke_i	i	n/a
36.2905	0.09	72581	keystroke_n	n	n/a
36.4555	0.105	72911	keystroke_t	t	n/a
36.6505	0.105	73301	keystroke_e	e	n/a
36.8905	0.06	73781	keystroke_r	r	n/a
37.1005	0.135	74201	keystroke_a	a	n/a
37.2955	0.12	74591	keystroke_c	c	n/a
37.5505	0.09	75101	keystroke_t	t	n/a
37.6855	0.09	75371	keystroke_Key.space	Key.space	n/a
37.8515	0.104	75703	keystroke_p	p	n/a
37.9855	0.105	75971	keystroke_r	r	n/a
38.1355	0.105	76271	keystroke_o	o	n/a
38.3755	0.075	76751	keystroke_c	c	n/a
38.5405	0.075	77081	keystroke_e	e	n/a
38.7505	0.075	77501	keystroke_s	s	n/a
38.9155	0.09	77831	keystroke_s	s	n/a
39.1105	0.105	78221	keystroke_o	o	n/a
39.2755	0.09	78551	keystroke_r	r	n/a
39.6505	0.09	79301	keystroke_s	s	n/a
39.9505	0.075	79901	keystroke_Key.enter	Key.enter	n/a
40.032	7.8255	80064	prompt	n/a	myspace taking socks northeast\n
40.8215	0.074	81643	keystroke_m	m	n/a
41.0455	0.075	82091	keystroke_y	y	n/a
41.2405	0.105	82481	keystroke_s	s	n/a
41.4805	0.075	82961	keystroke_p	p	n/a
41.6005	0.135	83201	keystroke_a	a	n/a
41.7955	0.06	83591	keystroke_c	c	n/a
41.8855	0.105	83771	keystroke_e	e	n/a
42.0955	0.075	84191	keystroke_Key.space	Key.space	n/a
42.5155	0.09	85031	keystroke_t	t	n/a
42.6955	0.135	85391	keystroke_a	a	n/a
42.8605	0.075	85721	keystroke_k	k	n/a
43.0855	0.075	86171	keystroke_i	i	n/a
43.3405	0.12	86681	keystroke_n	n	n/a
43.5205	0.09	87041	keystroke_g	g	n/a
43.7305	0.12	87461	keystroke_Key.space	Key.space	n/a
44.0005	0.09	88001	keystroke_s	s	n/a
44.3005	0.09	88601	keystroke_o	o	n/a
44.4505	0.105	88901	keystroke_c	c	n/a
44.6015	0.089	89203	keystroke_k	k	n/a
44.8105	0.09	89621	keystroke_s	s	n/a
45.0355	0.09	90071	keystroke_Key.space	Key.space	n/a
45.5605	0.075	91121	keystroke_n	n	n/a
45.7255	0.12	91451	keystroke_o	o	n/a
45.8155	0.12	91631	keystroke_r	r	n/a
45.9655	0.105	91931	keystroke_t	t	n/a
46.0855	0.12	92171	keystroke_h	h	n/a
46.5505	0.15	93101	keystroke_e	e	n/a
46.8055	0.15	93611	keystroke_a	a	n/a
46.9255	0.135	93851	keystroke_s	s	n/a
47.1055	0.09	94211	keystroke_t	t	n/a
47.7355	0.12	95471	keystroke_Key.enter	Key.enter	n/a
47.8625	8.44	95725	prompt	n/a	deposit biol commander permission\n
48.6355	0.075	97271	keystroke_d	d	n/a
48.8455	0.075	97691	keystroke_e	e	n/a
49.0555	0.06	98111	keystroke_p	p	n/a
49.2655	0.09	98531	keystroke_o	o	n/a
49.4905	0.12	98981	keystroke_s	s	n/a
49.7155	0.09	99431	keystroke_i	i	n/a
50.0005	0.105	100001	keystroke_t	t	n/a
50.6155	0.09	101231	keystroke_Key.space	Key.space	n/a
50.8705	0.075	101741	keystroke_b	b	n/a
51.0655	0.075	102131	keystroke_i	i	n/a
51.2605	0.09	102521	keystroke_o	o	n/a
51.5155	0.135	103031	keystroke_l	l	n/a
52.0255	0.09	104051	keystroke_Key.space	Key.space	n/a
52.2505	0.105	104501	keystroke_c	c	n/a
52.3715	0.089	104743	keystroke_o	o	n/a
52.5805	0.09	105161	keystroke_m	m	n/a
52.7755	0.06	105551	keystroke_m	m	n/a
52.8955	0.135	105791	keystroke_a	a	n/a
53.0455	0.09	106091	keystroke_n	n	n/a
53.1805	0.09	106361	keystroke_d	d	n/a
53.3905	0.075	106781	keystroke_e	e	n/a
53.6005	0.075	107201	keystroke_r	r	n/a
54.0505	0.075	108101	keystroke_Key.space	Key.space	n/a
54.3355	0.09	108671	keystroke_p	p	n/a
54.5005	0.075	109001	keystroke_e	e	n/a
54.6805	0.09	109361	keystroke_r	r	n/a
54.7855	0.09	109571	keystroke_m	m	n/a
54.9955	0.075	109991	keystroke_i	i	n/a
55.1905	0.03	110381	keystroke_s	s	n/a
55.3255	0.06	110651	keystroke_s	s	n/a
55.4155	0.09	110831	keystroke_i	i	n/a
55.5955	0.135	111191	keystroke_o	o	n/a
55.6855	0.09	111371	keystroke_n	n	n/a
56.2105	0.09	112421	keystroke_Key.enter	Key.enter	n/a
56.3075	7.301	112615	prompt	n/a	when's varied count contacts\n
57.0505	0.12	114101	keystroke_w	w	n/a
57.2155	0.09	114431	keystroke_h	h	n/a
57.3205	0.105	114641	keystroke_e	e	n/a
57.4405	0.09	114881	keystroke_n	n	n/a
57.7255	0.106	115451	keystroke_'	'	n/a
58.0105	0.09	116021	keystroke_s	s	n/a
58.1305	0.105	116261	keystroke_Key.space	Key.space	n/a
58.4005	0.045	116801	keystroke_v	v	n/a
58.6405	0.12	117281	keystroke_a	a	n/a
58.7905	0.12	117581	keystroke_r	r	n/a
58.9405	0.105	117881	keystroke_i	i	n/a
59.0905	0.075	118181	keystroke_e	e	n/a
59.2855	0.075	118571	keystroke_d	d	n/a
59.4805	0.09	118961	keystroke_Key.space	Key.space	n/a
59.9305	0.09	119861	keystroke_c	c	n/a
60.0355	0.09	120071	keystroke_o	o	n/a
60.2305	0.09	120461	keystroke_u	u	n/a
60.3505	0.135	120701	keystroke_n	n	n/a
60.5165	0.074	121033	keystroke_t	t	n/a
60.6655	0.075	121331	keystroke_Key.space	Key.space	n/a
60.8155	0.12	121631	keystroke_c	c	n/a
60.9205	0.105	121841	keystroke_o	o	n/a
61.0105	0.12	122021	keystroke_n	n	n/a
61.1605	0.075	122321	keystroke_t	t	n/a
61.3555	0.151	122711	keystroke_a	a	n/a
62.721	0.089	125442	keystroke_c	c	n/a
62.96	0.0455	125920	keystroke_t	t	n/a
63.1255	0.105	126251	keystroke_s	s	n/a
63.5	0.1055	127000	keystroke_Key.enter	Key.enter	n/a
63.615	5.618	127230	prompt	n/a	timothy all class ballet\n
64.295	0.105	128590	keystroke_t	t	n/a
64.416	0.074	128832	keystroke_i	i	n/a
64.58	0.075	129160	keystroke_m	m	n/a
64.7755	0.1045	129551	keystroke_o	o	n/a
64.925	0.09	129850	keystroke_t	t	n/a
65.06	0.075	130120	keystroke_h	h	n/a
65.27	0.075	130540	keystroke_y	y	n/a
65.42	0.105	130840	keystroke_Key.space	Key.space	n/a
65.84	0.135	131680	keystroke_a	a	n/a
66.005	0.075	132010	keystroke_l	l	n/a
66.185	0.06	132370	keystroke_l	l	n/a
66.29	0.09	132580	keystroke_Key.space	Key.space	n/a
66.395	0.121	132790	keystroke_c	c	n/a
66.711	0.089	133422	keystroke_l	l	n/a
66.845	0.135	133690	keystroke_a	a	n/a
66.935	0.09	133870	keystroke_s	s	n/a
67.115	0.09	134230	keystroke_s	s	n/a
67.31	0.105	134620	keystroke_Key.space	Key.space	n/a
67.835	0.075	135670	keystroke_b	b	n/a
67.97	0.135	135940	keystroke_a	a	n/a
68.12	0.075	136240	keystroke_l	l	n/a
68.285	0.075	136570	keystroke_l	l	n/a
68.39	0.105	136780	keystroke_e	e	n/a
68.6	0.105	137200	keystroke_t	t	n/a
69.14	0.09	138280	keystroke_Key.enter	Key.enter	n/a
69.241	6.247	138482	prompt	n/a	fraud in thickness capitol\n
69.83	0.075	139660	keystroke_f	f	n/a
70.055	0.075	140110	keystroke_r	r	n/a
70.326	0.119	140652	keystroke_a	a	n/a
70.791	0.104	141582	keystroke_u	u	n/a
71.045	0.105	142090	keystroke_d	d	n/a
71.255	0.075	142510	keystroke_Key.space	Key.space	n/a
71.435	0.06	142870	keystroke_i	i	n/a
71.6	0.105	143200	keystroke_n	n	n/a
71.735	0.075	143470	keystroke_Key.space	Key.space	n/a
72.02	0.09	144040	keystroke_t	t	n/a
72.096	0.089	144192	keystroke_h	h	n/a
72.275	0.12	144550	keystroke_i	i	n/a
72.44	0.135	144880	keystroke_c	c	n/a
72.741	0.074	145482	keystroke_k	k	n/a
73.175	0.09	146350	keystroke_n	n	n/a
73.28	0.075	146560	keystroke_e	e	n/a
73.445	0.075	146890	keystroke_s	s	n/a
73.61	0.09	147220	keystroke_s	s	n/a
73.73	0.075	147460	keystroke_Key.space	Key.space	n/a
73.88	0.076	147760	keystroke_c	c	n/a
74.255	0.105	148510	keystroke_a	a	n/a
74.435	0.075	148870	keystroke_p	p	n/a
74.675	0.075	149350	keystroke_i	i	n/a
74.81	0.075	149620	keystroke_t	t	n/a
74.99	0.091	149980	keystroke_o	o	n/a
75.185	0.075	150370	keystroke_l	l	n/a
75.425	0.06	150850	keystroke_Key.enter	Key.enter	n/a
75.493	7.434	150986	prompt	n/a	beautifully specified patrol drink\n
76.325	0.09	152650	keystroke_b	b	n/a
76.491	0.074	152982	keystroke_e	e	n/a
76.55	0.165	153100	keystroke_a	a	n/a
76.7	0.105	153400	keystroke_u	u	n/a
76.925	0.09	153850	keystroke_t	t	n/a
77.075	0.075	154150	keystroke_i	i	n/a
77.226	0.089	154452	keystroke_f	f	n/a
77.36	0.075	154720	keystroke_u	u	n/a
77.571	0.059	155142	keystroke_l	l	n/a
77.72	0.076	155440	keystroke_l	l	n/a
77.975	0.075	155950	keystroke_y	y	n/a
78.155	0.09	156310	keystroke_Key.space	Key.space	n/a
78.426	0.104	156852	keystroke_s	s	n/a
78.621	0.075	157242	keystroke_p	p	n/a
78.8	0.075	157600	keystroke_e	e	n/a
79.071	0.0895	158142	keystroke_c	c	n/a
79.3095	0.09	158619	keystroke_i	i	n/a
79.4905	0.089	158981	keystroke_f	f	n/a
79.6545	0.076	159309	keystroke_i	i	n/a
79.7755	0.06	159551	keystroke_e	e	n/a
79.9695	0.091	159939	keystroke_d	d	n/a
80.4645	0.09	160929	keystroke_Key.space	Key.space	n/a
80.8095	0.09	161619	keystroke_p	p	n/a
80.9145	0.165	161829	keystroke_a	a	n/a
81.0655	0.06	162131	keystroke_t	t	n/a
81.2155	0.105	162431	keystroke_r	r	n/a
81.3505	0.089	162701	keystroke_o	o	n/a
81.5455	0.089	163091	keystroke_l	l	n/a
81.7095	0.12	163419	keystroke_Key.space	Key.space	n/a
81.9355	0.09	163871	keystroke_d	d	n/a
82.1605	0.075	164321	keystroke_r	r	n/a
82.3095	0.09	164619	keystroke_i	i	n/a
82.4755	0.149	164951	keystroke_n	n	n/a
82.6095	0.091	165219	keystroke_k	k	n/a
82.8495	0.075	165699	keystroke_Key.enter	Key.enter	n/a
82.931	5.591	165862	prompt	n/a	prot answer massive snow\n
83.5995	0.06	167199	keystroke_p	p	n/a
83.7945	0.105	167589	keystroke_r	r	n/a
83.9295	0.121	167859	keystroke_o	o	n/a
84.0795	0.091	168159	keystroke_t	t	n/a
84.2295	0.09	168459	keystroke_Key.space	Key.space	n/a
84.5295	0.12	169059	keystroke_a	a	n/a
84.6955	0.104	169391	keystroke_n	n	n/a
84.8455	0.074	169691	keystroke_s	s	n/a
85.0405	0.104	170081	keystroke_w	w	n/a
85.1605	0.164	170321	keystroke_e	e	n/a
85.3695	0.091	170739	keystroke_r	r	n/a
85.9695	0.09	171939	keystroke_Key.space	Key.space	n/a
86.3005	0.09	172601	keystroke_m	m	n/a
86.4045	0.136	172809	keystroke_a	a	n/a
86.5105	0.074	173021	keystroke_s	s	n/a
86.6755	0.104	173351	keystroke_s	s	n/a
86.8245	0.091	173649	keystroke_i	i	n/a
86.9605	0.089	173921	keystroke_v	v	n/a
87.1255	0.09	174251	keystroke_e	e	n/a
87.2895	0.135	174579	keystroke_Key.space	Key.space	n/a
87.6795	0.106	175359	keystroke_s	s	n/a
87.8445	0.151	175689	keystroke_n	n	n/a
88.0695	0.106	176139	keystroke_o	o	n/a
88.2195	0.091	176439	keystroke_w	w	n/a
88.4155	0.104	176831	keystroke_Key.enter	Key.enter	n/a
88.5275	6.3245	177055	prompt	n/a	selections golf shopper drag\n
89.2405	0.09	178481	keystroke_s	s	n/a
89.4655	0.09	178931	keystroke_e	e	n/a
89.7055	0.105	179411	keystroke_l	l	n/a
89.8855	0.075	179771	keystroke_e	e	n/a
90.1405	0.09	180281	keystroke_c	c	n/a
90.3495	0.09	180699	keystroke_t	t	n/a
90.4855	0.09	180971	keystroke_i	i	n/a
90.6505	0.134	181301	keystroke_o	o	n/a
90.7555	0.119	181511	keystroke_n	n	n/a
90.9805	0.105	181961	keystroke_s	s	n/a
91.2795	0.015	182559	keystroke_Key.space	Key.space	n/a
91.4305	0.059	182861	keystroke_g	g	n/a
91.6545	0.076	183309	keystroke_o	o	n/a
91.8355	0.089	183671	keystroke_l	l	n/a
91.9995	0.12	183999	keystroke_f	f	n/a
92.1795	0.09	184359	keystroke_Key.space	Key.space	n/a
92.6155	0.12	185231	keystroke_s	s	n/a
92.7945	0.091	185589	keystroke_h	h	n/a
92.9905	0.105	185981	keystroke_o	o	n/a
93.2305	0.09	186461	keystroke_p	p	n/a
93.3945	0.106	186789	keystroke_p	p	n/a
93.5155	0.105	187031	keystroke_e	e	n/a
93.7405	0.09	187481	keystroke_r	r	n/a
93.9645	0.091	187929	keystroke_Key.space	Key.space	n/a
94.0705	0.074	188141	keystroke_d	d	n/a
94.2355	0.105	188471	keystroke_r	r	n/a
94.3695	0.136	188739	keystroke_a	a	n/a
94.4905	0.105	188981	keystroke_g	g	n/a
94.7595	0.09	189519	keystroke_Key.enter	Key.enter	n/a
94.8555	6.431	189711	prompt	n/a	floppy countries luck four\n
95.5855	0.12	191171	keystroke_f	f	n/a
95.7205	0.09	191441	keystroke_l	l	n/a
95.9305	0.075	191861	keystroke_o	o	n/a
96.1405	0.09	192281	keystroke_p	p	n/a
96.3505	0.06	192701	keystroke_p	p	n/a
96.6195	0.106	193239	keystroke_y	y	n/a
96.8305	0.119	193661	keystroke_Key.space	Key.space	n/a
97.0695	0.121	194139	keystroke_c	c	n/a
97.1755	0.09	194351	keystroke_o	o	n/a
97.3705	0.075	194741	keystroke_u	u	n/a
97.5505	0.12	195101	keystroke_n	n	n/a
97.7605	0.105	195521	keystroke_t	t	n/a
97.9705	0.075	195941	keystroke_i	i	n/a
98.3605	0.075	196721	keystroke_Key.backspace	Key.backspace	n/a
98.4955	0.105	196991	keystroke_r	r	n/a
98.6905	0.105	197381	keystroke_i	i	n/a
98.8245	0.076	197649	keystroke_e	e	n/a
99.0505	0.12	198101	keystroke_s	s	n/a
99.3355	0.104	198671	keystroke_Key.space	Key.space	n/a
99.6505	0.075	199301	keystroke_l	l	n/a
99.8305	0.075	199661	keystroke_u	u	n/a
100.0555	0.105	200111	keystroke_c	c	n/a
100.2055	0.06	200411	keystroke_k	k	n/a
100.3545	0.09	200709	keystroke_Key.space	Key.space	n/a
100.5355	0.105	201071	keystroke_f	f	n/a
100.6855	0.09	201371	keystroke_o	o	n/a
100.8655	0.09	201731	keystroke_u	u	n/a
100.9705	0.09	201941	keystroke_r	r	n/a
101.1805	0.105	202361	keystroke_Key.enter	Key.enter	n/a
101.292	11.14	202584	prompt	n/a	certificate january average arena\n
101.9905	0.09	203981	keystroke_c	c	n/a
102.2005	0.09	204401	keystroke_e	e	n/a
102.4255	0.075	204851	keystroke_r	r	n/a
102.6355	0.075	205271	keystroke_t	t	n/a
102.8305	0.135	205661	keystroke_i	i	n/a
103.0105	0.105	206021	keystroke_f	f	n/a
103.2055	0.09	206411	keystroke_i	i	n/a
103.3555	0.105	206711	keystroke_c	c	n/a
103.5205	0.15	207041	keystroke_a	a	n/a
103.7155	0.075	207431	keystroke_t	t	n/a
103.9105	0.09	207821	keystroke_e	e	n/a
104.3305	0.09	208661	keystroke_Key.space	Key.space	n/a
104.6755	0.105	209351	keystroke_j	j	n/a
104.8705	0.135	209741	keystroke_a	a	n/a
105.0505	0.075	210101	keystroke_n	n	n/a
105.3205	0.09	210641	keystroke_u	u	n/a
105.5005	0.135	211001	keystroke_a	a	n/a
105.7555	0.09	211511	keystroke_r	r	n/a
106.0255	0.09	212051	keystroke_y	y	n/a
106.2655	0.09	212531	keystroke_Key.space	Key.space	n/a
106.8205	0.105	213641	keystroke_a	a	n/a
107.0005	0.12	214001	keystroke_v	v	n/a
107.2855	0.105	214571	keystroke_e	e	n/a
110.4685	0.042	220937	keystroke_r	r	n/a
110.5855	0.1645	221171	keystroke_a	a	n/a
110.78	0.09	221560	keystroke_g	g	n/a
110.9905	0.075	221981	keystroke_e	e	n/a
111.1255	0.105	222251	keystroke_Key.space	Key.space	n/a
111.3505	0.135	222701	keystroke_a	a	n/a
111.6355	0.075	223271	keystroke_r	r	n/a
111.8005	0.0895	223601	keystroke_e	e	n/a
112.0105	0.09	224021	keystroke_n	n	n/a
112.1605	0.1195	224321	keystroke_a	a	n/a
112.325	0.105	224650	keystroke_Key.enter	Key.enter	n/a
112.438	7.464	224876	prompt	n/a	indian header take dramatically\n
113.1805	0.075	226361	keystroke_i	i	n/a
113.405	0.12	226810	keystroke_n	n	n/a
113.66	0.105	227320	keystroke_d	d	n/a
113.84	0.1205	227680	keystroke_i	i	n/a
114.08	0.12	228160	keystroke_a	a	n/a
114.305	0.075	228610	keystroke_n	n	n/a
114.515	0.06	229030	keystroke_Key.space	Key.space	n/a
114.695	0.09	229390	keystroke_h	h	n/a
114.8	0.09	229600	keystroke_e	e	n/a
114.9655	0.1345	229931	keystroke_a	a	n/a
115.175	0.09	230350	keystroke_d	d	n/a
115.445	0.1055	230890	keystroke_e	e	n/a
115.7005	0.0745	231401	keystroke_r	r	n/a
115.9255	0.1045	231851	keystroke_Key.space	Key.space	n/a
116.315	0.105	232630	keystroke_t	t	n/a
116.54	0.12	233080	keystroke_a	a	n/a
116.735	0.075	233470	keystroke_k	k	n/a
116.93	0.1205	233860	keystroke_e	e	n/a
117.1105	0.1045	234221	keystroke_Key.space	Key.space	n/a
117.53	0.09	235060	keystroke_d	d	n/a
117.7405	0.0745	235481	keystroke_r	r	n/a
117.8755	0.1345	235751	keystroke_a	a	n/a
118.1155	0.0895	236231	keystroke_m	m	n/a
118.2505	0.1345	236501	keystroke_a	a	n/a
118.49	0.09	236980	keystroke_t	t	n/a
118.67	0.105	237340	keystroke_i	i	n/a
118.805	0.1055	237610	keystroke_c	c	n/a
118.911	0.1345	237822	keystroke_a	a	n/a
119.075	0.0755	238150	keystroke_l	l	n/a
119.256	0.074	238512	keystroke_l	l	n/a
119.5255	0.0595	239051	keystroke_y	y	n/a
119.795	0.105	239590	keystroke_Key.enter	Key.enter	n/a
119.9065	6.7455	239813	prompt	n/a	closer residence polished gains\n
120.695	0.12	241390	keystroke_c	c	n/a
120.875	0.075	241750	keystroke_l	l	n/a
121.055	0.105	242110	keystroke_o	o	n/a
121.22	0.09	242440	keystroke_s	s	n/a
121.4455	0.0895	242891	keystroke_e	e	n/a
121.67	0.075	243340	keystroke_r	r	n/a
122.075	0.105	244150	keystroke_Key.space	Key.space	n/a
122.45	0.12	244900	keystroke_r	r	n/a
122.555	0.12	245110	keystroke_e	e	n/a
122.795	0.09	245590	keystroke_s	s	n/a
122.93	0.09	245860	keystroke_i	i	n/a
123.035	0.06	246070	keystroke_d	d	n/a
123.2	0.09	246400	keystroke_e	e	n/a
123.35	0.135	246700	keystroke_n	n	n/a
123.53	0.12	247060	keystroke_c	c	n/a
123.62	0.105	247240	keystroke_e	e	n/a
123.845	0.09	247690	keystroke_Key.space	Key.space	n/a
124.175	0.06	248350	keystroke_p	p	n/a
124.37	0.075	248740	keystroke_o	o	n/a
124.595	0.045	249190	keystroke_l	l	n/a
124.745	0.075	249490	keystroke_i	i	n/a
124.85	0.105	249700	keystroke_s	s	n/a
124.97	0.09	249940	keystroke_h	h	n/a
125.09	0.09	250180	keystroke_e	e	n/a
125.3	0.09	250600	keystroke_d	d	n/a
125.48	0.12	250960	keystroke_Key.space	Key.space	n/a
125.78	0.075	251560	keystroke_g	g	n/a
125.885	0.135	251770	keystroke_a	a	n/a
126.035	0.03	252070	keystroke_i	i	n/a
126.17	0.09	252340	keystroke_n	n	n/a
126.32	0.075	252640	keystroke_s	s	n/a
126.53	0.12	253060	keystroke_Key.enter	Key.enter	n/a
126.656	5.2605	253312	prompt	n/a	vitamin tabs thee project\n
127.52	0.09	255040	keystroke_v	v	n/a
127.655	0.075	255310	keystroke_i	i	n/a
127.775	0.06	255550	keystroke_t	t	n/a
127.895	0.12	255790	keystroke_a	a	n/a
128.12	0.09	256240	keystroke_m	m	n/a
128.315	0.06	256630	keystroke_i	i	n/a
128.495	0.09	256990	keystroke_n	n	n/a
128.675	0.105	257350	keystroke_Key.space	Key.space	n/a
128.885	0.075	257770	keystroke_t	t	n/a
129.02	0.15	258040	keystroke_a	a	n/a
129.2	0.09	258400	keystroke_b	b	n/a
129.485	0.09	258970	keystroke_s	s	n/a
129.635	0.09	259270	keystroke_Key.space	Key.space	n/a
129.785	0.12	259570	keystroke_t	t	n/a
129.935	0.105	259870	keystroke_h	h	n/a
130.115	0.06	260230	keystroke_e	e	n/a
130.295	0.075	260590	keystroke_e	e	n/a
130.505	0.075	261010	keystroke_Key.space	Key.space	n/a
130.655	0.105	261310	keystroke_p	p	n/a
130.79	0.105	261580	keystroke_r	r	n/a
130.91	0.075	261820	keystroke_o	o	n/a
131.075	0.09	262150	keystroke_j	j	n/a
131.18	0.075	262360	keystroke_e	e	n/a
131.315	0.09	262630	keystroke_c	c	n/a
131.555	0.075	263110	keystroke_t	t	n/a
131.84	0.075	263680	keystroke_Key.enter	Key.enter	n/a
131.921	11.9815	263842	prompt	n/a	sitting dice protection salad\n
139.359	0.086	278718	keystroke_s	s	n/a
139.46	0.12	278920	keystroke_i	i	n/a
139.625	0.06	279250	keystroke_t	t	n/a
139.76	0.105	279520	keystroke_t	t	n/a
139.91	0.06	279820	keystroke_i	i	n/a
140.075	0.105	280150	keystroke_n	n	n/a
140.225	0.075	280450	keystroke_g	g	n/a
140.36	0.09	280720	keystroke_Key.space	Key.space	n/a
140.51	0.12	281020	keystroke_d	d	n/a
140.631	0.089	281262	keystroke_i	i	n/a
140.78	0.105	281560	keystroke_c	c	n/a
140.93	0.105	281860	keystroke_e	e	n/a
141.095	0.09	282190	keystroke_Key.space	Key.space	n/a
141.305	0.075	282610	keystroke_p	p	n/a
141.41	0.12	282820	keystroke_r	r	n/a
141.545	0.075	283090	keystroke_o	o	n/a
141.65	0.105	283300	keystroke_t	t	n/a
141.74	0.09	283480	keystroke_e	e	n/a
141.92	0.09	283840	keystroke_c	c	n/a
142.1	0.091	284200	keystroke_t	t	n/a
142.25	0.09	284500	keystroke_i	i	n/a
142.4	0.12	284800	keystroke_o	o	n/a
142.49	0.105	284980	keystroke_n	n	n/a
142.7	0.09	285400	keystroke_Key.space	Key.space	n/a
142.835	0.09	285670	keystroke_s	s	n/a
143.045	0.135	286090	keystroke_a	a	n/a
143.225	0.105	286450	keystroke_l	l	n/a
143.375	0.09	286750	keystroke_a	a	n/a
143.54	0.105	287080	keystroke_d	d	n/a
143.81	0.09	287620	keystroke_Key.enter	Key.enter	n/a
143.9075	6.6845	287815	prompt	n/a	american prix province island\n
144.695	0.135	289390	keystroke_a	a	n/a
144.845	0.105	289690	keystroke_m	m	n/a
144.98	0.076	289960	keystroke_e	e	n/a
145.145	0.09	290290	keystroke_r	r	n/a
145.28	0.09	290560	keystroke_i	i	n/a
145.415	0.121	290830	keystroke_c	c	n/a
145.52	0.166	291040	keystroke_a	a	n/a
145.715	0.105	291430	keystroke_n	n	n/a
145.97	0.105	291940	keystroke_Key.space	Key.space	n/a
146.286	0.09	292572	keystroke_p	p	n/a
146.421	0.104	292842	keystroke_r	r	n/a
146.57	0.12	293140	keystroke_i	i	n/a
146.75	0.106	293500	keystroke_x	x	n/a
146.975	0.09	293950	keystroke_Key.space	Key.space	n/a
147.8	0.09	295600	keystroke_p	p	n/a
147.935	0.121	295870	keystroke_r	r	n/a
148.085	0.1055	296170	keystroke_o	o	n/a
148.2355	0.105	296471	keystroke_v	v	n/a
148.4005	0.09	296801	keystroke_i	i	n/a
148.6255	0.12	297251	keystroke_n	n	n/a
148.8205	0.105	297641	keystroke_c	c	n/a
149.0155	0.09	298031	keystroke_e	e	n/a
149.4505	0.075	298901	keystroke_Key.space	Key.space	n/a
149.6605	0.09	299321	keystroke_i	i	n/a
149.7955	0.09	299591	keystroke_s	s	n/a
149.9305	0.09	299861	keystroke_l	l	n/a
150.0355	0.12	300071	keystroke_a	a	n/a
150.1855	0.09	300371	keystroke_n	n	n/a
150.3205	0.09	300641	keystroke_d	d	n/a
150.4705	0.12	300941	keystroke_Key.enter	Key.enter	n/a
150.6	5.782	301200	prompt	n/a	stating here wall curious\n
151.3555	0.09	302711	keystroke_s	s	n/a
151.5505	0.06	303101	keystroke_t	t	n/a
151.7005	0.135	303401	keystroke_a	a	n/a
151.9705	0.09	303941	keystroke_t	t	n/a
152.3305	0.09	304661	keystroke_i	i	n/a
152.5105	0.135	305021	keystroke_n	n	n/a
152.7055	0.105	305411	keystroke_g	g	n/a
152.8405	0.075	305681	keystroke_Key.space	Key.space	n/a
153.0055	0.105	306011	keystroke_h	h	n/a
153.1855	0.105	306371	keystroke_e	e	n/a
153.4105	0.09	306821	keystroke_r	r	n/a
153.6505	0.075	307301	keystroke_e	e	n/a
153.8455	0.09	307691	keystroke_Key.space	Key.space	n/a
154.1155	0.075	308231	keystroke_w	w	n/a
154.2955	0.105	308591	keystroke_a	a	n/a
154.5205	0.075	309041	keystroke_l	l	n/a
154.6855	0.075	309371	keystroke_l	l	n/a
154.8205	0.105	309641	keystroke_Key.space	Key.space	n/a
154.9705	0.105	309941	keystroke_c	c	n/a
155.2405	0.09	310481	keystroke_u	u	n/a
155.3905	0.09	310781	keystroke_r	r	n/a
155.5255	0.12	311051	keystroke_i	i	n/a
155.7505	0.075	311501	keystroke_o	o	n/a
155.9605	0.075	311921	keystroke_u	u	n/a
156.08	0.105	312160	keystroke_s	s	n/a
156.29	0.09	312580	keystroke_Key.enter	Key.enter	n/a
156.386	9.5655	312772	prompt	n/a	hurricane healing purchases wilson\n
157.22	0.075	314440	keystroke_h	h	n/a
157.655	0.12	315310	keystroke_u	u	n/a
157.85	0.105	315700	keystroke_r	r	n/a
158.06	0.09	316120	keystroke_r	r	n/a
158.81	0.105	317620	keystroke_i	i	n/a
159.02	0.09	318040	keystroke_c	c	n/a
159.23	0.135	318460	keystroke_a	a	n/a
159.515	0.105	319030	keystroke_n	n	n/a
159.725	0.09	319450	keystroke_e	e	n/a
159.995	0.12	319990	keystroke_Key.space	Key.space	n/a
160.295	0.105	320590	keystroke_h	h	n/a
160.415	0.075	320830	keystroke_e	e	n/a
160.55	0.18	321100	keystroke_a	a	n/a
160.7	0.09	321400	keystroke_l	l	n/a
160.91	0.075	321820	keystroke_i	i	n/a
161.105	0.09	322210	keystroke_n	n	n/a
161.3	0.12	322600	keystroke_g	g	n/a
161.9	0.09	323800	keystroke_Key.space	Key.space	n/a
162.125	0.105	324250	keystroke_p	p	n/a
162.425	0.105	324850	keystroke_u	u	n/a
162.545	0.06	325090	keystroke_r	r	n/a
162.68	0.12	325360	keystroke_c	c	n/a
162.815	0.09	325630	keystroke_h	h	n/a
162.95	0.165	325900	keystroke_a	a	n/a
163.55	0.105	327100	keystroke_s	s	n/a
163.79	0.075	327580	keystroke_e	e	n/a
163.985	0.09	327970	keystroke_s	s	n/a
164.69	0.09	329380	keystroke_Key.space	Key.space	n/a
164.96	0.135	329920	keystroke_w	w	n/a
165.08	0.09	330160	keystroke_i	i	n/a
165.23	0.105	330460	keystroke_l	l	n/a
165.365	0.12	330730	keystroke_s	s	n/a
165.47	0.105	330940	keystroke_o	o	n/a
165.545	0.1045	331090	keystroke_n	n	n/a
165.845	0.105	331690	keystroke_Key.enter	Key.enter	n/a
165.9555	9.0715	331911	prompt	n/a	idea delay whenever avoiding\n
166.7755	0.09	333551	keystroke_i	i	n/a
166.8955	0.075	333791	keystroke_d	d	n/a
167.0455	0.09	334091	keystroke_e	e	n/a
167.195	0.165	334390	keystroke_a	a	n/a
167.465	0.12	334930	keystroke_Key.space	Key.space	n/a
167.675	0.105	335350	keystroke_d	d	n/a
167.9	0.105	335800	keystroke_e	e	n/a
168.11	0.105	336220	keystroke_l	l	n/a
168.44	0.165	336880	keystroke_a	a	n/a
168.59	0.105	337180	keystroke_y	y	n/a
168.86	0.089	337720	keystroke_Key.space	Key.space	n/a
169.22	0.105	338440	keystroke_w	w	n/a
169.64	0.09	339280	keystroke_h	h	n/a
169.805	0.09	339610	keystroke_e	e	n/a
170.015	0.09	340030	keystroke_n	n	n/a
170.39	0.09	340780	keystroke_e	e	n/a
170.66	0.09	341320	keystroke_v	v	n/a
170.915	0.09	341830	keystroke_e	e	n/a
171.14	0.075	342280	keystroke_r	r	n/a
171.35	0.12	342700	keystroke_Key.space	Key.space	n/a
172.325	0.12	344650	keystroke_a	a	n/a
172.55	0.105	345100	keystroke_v	v	n/a
172.73	0.09	345460	keystroke_o	o	n/a
172.955	0.09	345910	keystroke_i	i	n/a
173.12	0.135	346240	keystroke_d	d	n/a
173.3	0.045	346600	keystroke_i	i	n/a
173.39	0.12	346780	keystroke_n	n	n/a
173.555	0.12	347110	keystroke_g	g	n/a
174.92	0.105	349840	keystroke_Key.enter	Key.enter	n/a
175.032	8.4995	350064	prompt	n/a	font defence filing score\n
176.675	0.1045	353350	keystroke_f	f	n/a
176.8995	0.105	353799	keystroke_o	o	n/a
177.0945	0.135	354189	keystroke_n	n	n/a
177.3495	0.0905	354699	keystroke_t	t	n/a
177.6645	0.105	355329	keystroke_Key.space	Key.space	n/a
177.8895	0.1055	355779	keystroke_d	d	n/a
178.0995	0.09	356199	keystroke_e	e	n/a
178.2945	0.09	356589	keystroke_f	f	n/a
178.4895	0.106	356979	keystroke_e	e	n/a
178.7145	0.135	357429	keystroke_n	n	n/a
178.9095	0.0905	357819	keystroke_c	c	n/a
179.0595	0.106	358119	keystroke_e	e	n/a
179.3445	0.12	358689	keystroke_Key.space	Key.space	n/a
179.6445	0.12	359289	keystroke_f	f	n/a
179.8245	0.09	359649	keystroke_i	i	n/a
180.02	0.0895	360040	keystroke_l	l	n/a
180.23	0.09	360460	keystroke_i	i	n/a
180.395	0.12	360790	keystroke_n	n	n/a
180.59	0.09	361180	keystroke_g	g	n/a
182.36	0.105	364720	keystroke_Key.space	Key.space	n/a
182.735	0.09	365470	keystroke_s	s	n/a
182.885	0.09	365770	keystroke_c	c	n/a
183.02	0.12	366040	keystroke_o	o	n/a
183.155	0.105	366310	keystroke_r	r	n/a
183.215	0.105	366430	keystroke_e	e	n/a
183.455	0.075	366910	keystroke_Key.enter	Key.enter	n/a
183.536	10.061	367072	prompt	n/a	represent investigated orchestra collections\n
184.355	0.135	368710	keystroke_r	r	n/a
184.46	0.09	368920	keystroke_e	e	n/a
184.745	0.105	369490	keystroke_p	p	n/a
184.925	0.12	369850	keystroke_r	r	n/a
185	0.09	370000	keystroke_e	e	n/a
185.3	0.105	370600	keystroke_s	s	n/a
185.345	0.105	370690	keystroke_e	e	n/a
185.87	0.135	371740	keystroke_n	n	n/a
186.095	0.09	372190	keystroke_t	t	n/a
186.365	0.12	372730	keystroke_Key.space	Key.space	n/a
186.695	0.105	373390	keystroke_i	i	n/a
186.935	0.135	373870	keystroke_n	n	n/a
187.175	0.075	374350	keystroke_v	v	n/a
187.4	0.09	374800	keystroke_e	e	n/a
187.58	0.09	375160	keystroke_s	s	n/a
187.745	0.105	375490	keystroke_t	t	n/a
187.91	0.09	375820	keystroke_i	i	n/a
188.03	0.06	376060	keystroke_g	g	n/a
188.12	0.135	376240	keystroke_a	a	n/a
188.21	0.12	376420	keystroke_t	t	n/a
188.39	0.075	376780	keystroke_e	e	n/a
188.585	0.09	377170	keystroke_d	d	n/a
188.81	0.09	377620	keystroke_Key.space	Key.space	n/a
189.17	0.12	378340	keystroke_o	o	n/a
189.425	0.09	378850	keystroke_r	r	n/a
189.695	0.09	379390	keystroke_c	c	n/a
189.845	0.12	379690	keystroke_h	h	n/a
190.07	0.075	380140	keystroke_e	e	n/a
190.2495	0.1055	380499	keystroke_s	s	n/a
190.4	0.0755	380800	keystroke_t	t	n/a
190.52	0.09	381040	keystroke_r	r	n/a
190.6845	0.1355	381369	keystroke_a	a	n/a
191.465	0.0895	382930	keystroke_Key.space	Key.space	n/a
191.6295	0.105	383259	keystroke_c	c	n/a
191.7505	0.0895	383501	keystroke_o	o	n/a
191.9595	0.09	383919	keystroke_l	l	n/a
192.125	0.1045	384250	keystroke_l	l	n/a
192.245	0.075	384490	keystroke_e	e	n/a
192.365	0.0745	384730	keystroke_c	c	n/a
192.5745	0.09	385149	keystroke_t	t	n/a
192.695	0.0895	385390	keystroke_i	i	n/a
192.845	0.1345	385690	keystroke_o	o	n/a
192.92	0.1195	385840	keystroke_n	n	n/a
193.115	0.0895	386230	keystroke_s	s	n/a
193.4895	0.1055	386979	keystroke_Key.enter	Key.enter	n/a
193.602	8.7695	387204	prompt	n/a	discussions restore industries heather\n
194.3445	0.09	388689	keystroke_d	d	n/a
194.4945	0.105	388989	keystroke_i	i	n/a
194.6145	0.075	389229	keystroke_s	s	n/a
194.7045	0.12	389409	keystroke_c	c	n/a
194.8695	0.09	389739	keystroke_u	u	n/a
195.0195	0.06	390039	keystroke_s	s	n/a
195.1695	0.105	390339	keystroke_s	s	n/a
195.3195	0.09	390639	keystroke_i	i	n/a
195.5145	0.105	391029	keystroke_o	o	n/a
195.5745	0.135	391149	keystroke_n	n	n/a
195.8295	0.09	391659	keystroke_s	s	n/a
196.0845	0.12	392169	keystroke_Key.space	Key.space	n/a
196.3695	0.12	392739	keystroke_r	r	n/a
196.4745	0.15	392949	keystroke_e	e	n/a
196.7745	0.09	393549	keystroke_s	s	n/a
196.9255	0.089	393851	keystroke_t	t	n/a
197.1195	0.12	394239	keystroke_o	o	n/a
197.2995	0.12	394599	keystroke_r	r	n/a
197.4045	0.135	394809	keystroke_e	e	n/a
197.9595	0.09	395919	keystroke_Key.space	Key.space	n/a
198.1995	0.075	396399	keystroke_i	i	n/a
198.4095	0.105	396819	keystroke_n	n	n/a
198.5745	0.12	397149	keystroke_d	d	n/a
198.7545	0.09	397509	keystroke_u	u	n/a
198.9045	0.105	397809	keystroke_s	s	n/a
199.1595	0.061	398319	keystroke_t	t	n/a
199.3395	0.105	398679	keystroke_r	r	n/a
199.5345	0.105	399069	keystroke_i	i	n/a
199.6845	0.061	399369	keystroke_e	e	n/a
199.8945	0.12	399789	keystroke_s	s	n/a
200.6595	0.075	401319	keystroke_Key.space	Key.space	n/a
200.8845	0.105	401769	keystroke_h	h	n/a
201.0195	0.15	402039	keystroke_e	e	n/a
201.1395	0.135	402279	keystroke_a	a	n/a
201.3195	0.09	402639	keystroke_t	t	n/a
201.4545	0.105	402909	keystroke_h	h	n/a
201.6045	0.15	403209	keystroke_e	e	n/a
201.7095	0.12	403419	keystroke_r	r	n/a
202.2495	0.12	404499	keystroke_Key.enter	Key.enter	n/a
202.375	10.0475	404750	prompt	n/a	infringement likewise wires perspectives\n
203.2245	0.075	406449	keystroke_i	i	n/a
203.4345	0.09	406869	keystroke_n	n	n/a
203.5395	0.09	407079	keystroke_f	f	n/a
203.6895	0.12	407379	keystroke_r	r	n/a
203.9295	0.06	407859	keystroke_i	i	n/a
204.1545	0.12	408309	keystroke_n	n	n/a
204.3345	0.105	408669	keystroke_g	g	n/a
204.7695	0.105	409539	keystroke_e	e	n/a
205.0845	0.09	410169	keystroke_m	m	n/a
205.2795	0.105	410559	keystroke_e	e	n/a
205.3995	0.12	410799	keystroke_n	n	n/a
205.5795	0.105	411159	keystroke_t	t	n/a
205.8195	0.075	411639	keystroke_Key.space	Key.space	n/a
206.0445	0.075	412089	keystroke_l	l	n/a
206.2395	0.075	412479	keystroke_i	i	n/a
206.4345	0.09	412869	keystroke_k	k	n/a
206.5395	0.09	413079	keystroke_e	e	n/a
206.8695	0.09	413739	keystroke_w	w	n/a
207.0195	0.09	414039	keystroke_i	i	n/a
207.1995	0.075	414399	keystroke_s	s	n/a
207.3945	0.106	414789	keystroke_e	e	n/a
207.5895	0.12	415179	keystroke_Key.space	Key.space	n/a
207.8605	0.119	415721	keystroke_w	w	n/a
208.0845	0.09	416169	keystroke_i	i	n/a
208.2795	0.09	416559	keystroke_r	r	n/a
208.4455	0.089	416891	keystroke_e	e	n/a
208.7295	0.09	417459	keystroke_s	s	n/a
209.1795	0.105	418359	keystroke_Key.space	Key.space	n/a
209.5845	0.09	419169	keystroke_p	p	n/a
209.9445	0.09	419889	keystroke_e	e	n/a
210.1545	0.075	420309	keystroke_r	r	n/a
210.3945	0.105	420789	keystroke_s	s	n/a
210.6055	0.119	421211	keystroke_p	p	n/a
210.7695	0.075	421539	keystroke_e	e	n/a
210.9345	0.075	421869	keystroke_c	c	n/a
211.1595	0.09	422319	keystroke_t	t	n/a
211.3395	0.105	422679	keystroke_i	i	n/a
211.4895	0.075	422979	keystroke_v	v	n/a
211.6695	0.06	423339	keystroke_e	e	n/a
211.8495	0.075	423699	keystroke_s	s	n/a
212.2995	0.12	424599	keystroke_Key.enter	Key.enter	n/a
212.4285	6.758	424857	prompt	n/a	ncaa lions latina election\n
213.1395	0.09	426279	keystroke_n	n	n/a
213.2745	0.105	426549	keystroke_a	a	n/a
213.6195	0.09	427239	keystroke_Key.backspace	Key.backspace	n/a
213.7855	0.104	427571	keystroke_c	c	n/a
214.0845	0.105	428169	keystroke_a	a	n/a
214.3095	0.09	428619	keystroke_a	a	n/a
214.5495	0.075	429099	keystroke_Key.space	Key.space	n/a
214.7295	0.076	429459	keystroke_l	l	n/a
214.9245	0.075	429849	keystroke_i	i	n/a
215.1045	0.105	430209	keystroke_o	o	n/a
215.1945	0.15	430389	keystroke_n	n	n/a
215.4345	0.105	430869	keystroke_s	s	n/a
216.0195	0.075	432039	keystroke_Key.space	Key.space	n/a
216.2145	0.105	432429	keystroke_l	l	n/a
216.3495	0.12	432699	keystroke_a	a	n/a
216.5445	0.135	433089	keystroke_t	t	n/a
216.6945	0.075	433389	keystroke_i	i	n/a
216.8595	0.135	433719	keystroke_n	n	n/a
217.1145	0.12	434229	keystroke_a	a	n/a
217.4445	0.105	434889	keystroke_Key.space	Key.space	n/a
217.7895	0.091	435579	keystroke_e	e	n/a
217.9845	0.091	435969	keystroke_l	l	n/a
218.1055	0.089	436211	keystroke_e	e	n/a
218.2395	0.105	436479	keystroke_c	c	n/a
218.4495	0.091	436899	keystroke_t	t	n/a
218.5545	0.09	437109	keystroke_i	i	n/a
218.7045	0.135	437409	keystroke_o	o	n/a
218.7945	0.105	437589	keystroke_n	n	n/a
219.0795	0.105	438159	keystroke_Key.enter	Key.enter	n/a
219.1905	7.1815	438381	prompt	n/a	elected never refers plastics\n
219.8755	0.074	439751	keystroke_e	e	n/a
220.0555	0.119	440111	keystroke_l	l	n/a
220.2345	0.075	440469	keystroke_e	e	n/a
220.4295	0.09	440859	keystroke_c	c	n/a
220.6545	0.075	441309	keystroke_t	t	n/a
220.8505	0.06	441701	keystroke_e	e	n/a
221.0445	0.075	442089	keystroke_d	d	n/a
221.1945	0.105	442389	keystroke_Key.space	Key.space	n/a
221.4195	0.075	442839	keystroke_n	n	n/a
221.5405	0.074	443081	keystroke_e	e	n/a
221.7345	0.105	443469	keystroke_v	v	n/a
221.9295	0.076	443859	keystroke_e	e	n/a
222.0195	0.09	444039	keystroke_r	r	n/a
223.0845	0.12	446169	keystroke_Key.space	Key.space	n/a
223.4305	0.089	446861	keystroke_r	r	n/a
223.6245	0.091	447249	keystroke_e	e	n/a
223.8045	0.09	447609	keystroke_f	f	n/a
223.9845	0.135	447969	keystroke_e	e	n/a
224.0895	0.105	448179	keystroke_r	r	n/a
224.3745	0.09	448749	keystroke_s	s	n/a
224.7795	0.09	449559	keystroke_Key.space	Key.space	n/a
224.9895	0.076	449979	keystroke_p	p	n/a
225.2155	0.12	450431	keystroke_l	l	n/a
225.3645	0.15	450729	keystroke_a	a	n/a
225.5005	0.105	451001	keystroke_s	s	n/a
225.6355	0.089	451271	keystroke_t	t	n/a
225.8005	0.089	451601	keystroke_i	i	n/a
225.9205	0.089	451841	keystroke_c	c	n/a
226.0395	0.075	452079	keystroke_s	s	n/a
226.2645	0.105	452529	keystroke_Key.enter	Key.enter	n/a
226.376	7.151	452752	prompt	n/a	sydney spotlight blue presently\n
227.1045	0.106	454209	keystroke_s	s	n/a
227.3755	0.104	454751	keystroke_y	y	n/a
227.5255	0.12	455051	keystroke_d	d	n/a
227.8545	0.105	455709	keystroke_n	n	n/a
228.0345	0.09	456069	keystroke_e	e	n/a
228.2605	0.09	456521	keystroke_y	y	n/a
228.4395	0.105	456879	keystroke_Key.space	Key.space	n/a
228.5895	0.105	457179	keystroke_s	s	n/a
228.8445	0.091	457689	keystroke_p	p	n/a
229.0555	0.089	458111	keystroke_o	o	n/a
229.1895	0.091	458379	keystroke_t	t	n/a
229.3695	0.076	458739	keystroke_l	l	n/a
229.5495	0.076	459099	keystroke_i	i	n/a
229.6855	0.104	459371	keystroke_g	g	n/a
229.8205	0.135	459641	keystroke_h	h	n/a
230.0305	0.074	460061	keystroke_t	t	n/a
230.1495	0.09	460299	keystroke_Key.space	Key.space	n/a
230.4645	0.075	460929	keystroke_b	b	n/a
230.6445	0.06	461289	keystroke_l	l	n/a
230.8395	0.076	461679	keystroke_u	u	n/a
231.0045	0.091	462009	keystroke_e	e	n/a
231.1095	0.09	462219	keystroke_Key.space	Key.space	n/a
231.3205	0.075	462641	keystroke_p	p	n/a
231.5145	0.12	463029	keystroke_r	r	n/a
231.7395	0.151	463479	keystroke_e	e	n/a
232.1005	0.12	464201	keystroke_s	s	n/a
232.2805	0.12	464561	keystroke_e	e	n/a
232.4895	0.135	464979	keystroke_n	n	n/a
232.6995	0.091	465399	keystroke_t	t	n/a
232.8955	0.075	465791	keystroke_l	l	n/a
233.1645	0.061	466329	keystroke_y	y	n/a
233.4205	0.104	466841	keystroke_Key.enter	Key.enter	n/a
233.5325	7.2845	467065	prompt	n/a	blog nutten witnesses practical\n
234.3205	0.075	468641	keystroke_b	b	n/a
234.5005	0.074	469001	keystroke_l	l	n/a
234.6505	0.105	469301	keystroke_o	o	n/a
234.8005	0.105	469601	keystroke_g	g	n/a
234.8755	0.074	469751	keystroke_Key.space	Key.space	n/a
235.0105	0.075	470021	keystroke_n	n	n/a
235.1305	0.09	470261	keystroke_u	u	n/a
235.3255	0.104	470651	keystroke_t	t	n/a
235.5055	0.104	471011	keystroke_t	t	n/a
235.8805	0.09	471761	keystroke_e	e	n/a
236.1345	0.106	472269	keystroke_n	n	n/a
236.3605	0.09	472721	keystroke_Key.space	Key.space	n/a
236.5705	0.119	473141	keystroke_w	w	n/a
236.7205	0.075	473441	keystroke_i	i	n/a
236.9155	0.089	473831	keystroke_t	t	n/a
237.1255	0.089	474251	keystroke_n	n	n/a
237.2755	0.059	474551	keystroke_e	e	n/a
237.4555	0.09	474911	keystroke_s	s	n/a
237.6505	0.09	475301	keystroke_s	s	n/a
237.9055	0.075	475811	keystroke_e	e	n/a
238.1005	0.105	476201	keystroke_s	s	n/a
238.3395	0.075	476679	keystroke_Key.space	Key.space	n/a
238.5655	0.105	477131	keystroke_p	p	n/a
238.7455	0.09	477491	keystroke_r	r	n/a
238.9105	0.119	477821	keystroke_a	a	n/a
239.2705	0.09	478541	keystroke_c	c	n/a
239.5255	0.075	479051	keystroke_t	t	n/a
239.7205	0.089	479441	keystroke_i	i	n/a
239.8555	0.12	479711	keystroke_c	c	n/a
240.0505	0.135	480101	keystroke_a	a	n/a
240.3505	0.089	480701	keystroke_l	l	n/a
240.7095	0.105	481419	keystroke_Key.enter	Key.enter	n/a
240.8205	7.047	481641	prompt	n/a	pork returning scoop albert\n
241.4605	0.075	482921	keystroke_p	p	n/a
241.6705	0.12	483341	keystroke_o	o	n/a
241.8505	0.104	483701	keystroke_r	r	n/a
242.0605	0.06	484121	keystroke_k	k	n/a
242.2405	0.09	484481	keystroke_Key.space	Key.space	n/a
242.6305	0.075	485261	keystroke_r	r	n/a
242.7805	0.09	485561	keystroke_e	e	n/a
242.9605	0.09	485921	keystroke_t	t	n/a
243.1855	0.09	486371	keystroke_u	u	n/a
243.3505	0.105	486701	keystroke_r	r	n/a
243.5005	0.09	487001	keystroke_n	n	n/a
243.7105	0.15	487421	keystroke_i	i	n/a
243.8155	0.135	487631	keystroke_n	n	n/a
244.0555	0.12	488111	keystroke_g	g	n/a
244.8055	0.09	489611	keystroke_Key.space	Key.space	n/a
245.0455	0.09	490091	keystroke_s	s	n/a
245.2255	0.09	490451	keystroke_c	c	n/a
245.3905	0.09	490781	keystroke_o	o	n/a
245.5855	0.075	491171	keystroke_o	o	n/a
245.8255	0.045	491651	keystroke_p	p	n/a
245.9905	0.09	491981	keystroke_Key.space	Key.space	n/a
246.41	0.1505	492820	keystroke_a	a	n/a
246.725	0.09	493450	keystroke_l	l	n/a
246.9955	0.075	493991	keystroke_b	b	n/a
247.0855	0.0745	494171	keystroke_e	e	n/a
247.25	0.1055	494500	keystroke_r	r	n/a
247.46	0.075	494920	keystroke_t	t	n/a
247.7605	0.1045	495521	keystroke_Key.enter	Key.enter	n/a
247.8785	9.6785	495757	prompt	n/a	port allocated agriculture coordinated\n
248.495	0.075	496990	keystroke_p	p	n/a
248.75	0.1055	497500	keystroke_o	o	n/a
248.885	0.105	497770	keystroke_r	r	n/a
249.095	0.09	498190	keystroke_t	t	n/a
249.335	0.105	498670	keystroke_Key.space	Key.space	n/a
249.47	0.135	498940	keystroke_a	a	n/a
249.68	0.0755	499360	keystroke_l	l	n/a
249.86	0.06	499720	keystroke_l	l	n/a
250.04	0.09	500080	keystroke_o	o	n/a
250.145	0.135	500290	keystroke_c	c	n/a
250.31	0.15	500620	keystroke_a	a	n/a
250.445	0.105	500890	keystroke_t	t	n/a
250.685	0.06	501370	keystroke_e	e	n/a
250.865	0.075	501730	keystroke_d	d	n/a
251.24	0.105	502480	keystroke_Key.space	Key.space	n/a
251.405	0.15	502810	keystroke_a	a	n/a
251.705	0.075	503410	keystroke_g	g	n/a
251.915	0.09	503830	keystroke_r	r	n/a
252.17	0.09	504340	keystroke_i	i	n/a
252.44	0.105	504880	keystroke_c	c	n/a
252.65	0.075	505300	keystroke_u	u	n/a
252.89	0.09	505780	keystroke_l	l	n/a
253.295	0.09	506590	keystroke_t	t	n/a
253.595	0.105	507190	keystroke_u	u	n/a
253.85	0.075	507700	keystroke_r	r	n/a
254.09	0.09	508180	keystroke_e	e	n/a
254.735	0.135	509470	keystroke_Key.space	Key.space	n/a
254.945	0.135	509890	keystroke_c	c	n/a
255.215	0.09	510430	keystroke_o	o	n/a
255.425	0.09	510850	keystroke_o	o	n/a
255.56	0.09	511120	keystroke_r	r	n/a
255.785	0.09	511570	keystroke_d	d	n/a
255.95	0.06	511900	keystroke_i	i	n/a
256.115	0.105	512230	keystroke_n	n	n/a
256.25	0.15	512500	keystroke_a	a	n/a
256.415	0.075	512830	keystroke_t	t	n/a
256.58	0.075	513160	keystroke_e	e	n/a
256.79	0.075	513580	keystroke_d	d	n/a
257.465	0.09	514930	keystroke_Key.enter	Key.enter	n/a
257.562	8.665	515124	prompt	n/a	collectables protein bridges hormone\n
258.23	0.105	516460	keystroke_c	c	n/a
258.5	0.015	517000	keystroke_o	o	n/a
258.62	0.075	517240	keystroke_l	l	n/a
258.8	0.105	517600	keystroke_l	l	n/a
258.92	0.075	517840	keystroke_e	e	n/a
259.055	0.105	518110	keystroke_c	c	n/a
259.295	0.075	518590	keystroke_t	t	n/a
259.475	0.135	518950	keystroke_a	a	n/a
259.67	0.105	519340	keystroke_b	b	n/a
259.895	0.105	519790	keystroke_l	l	n/a
260.06	0.06	520120	keystroke_e	e	n/a
260.285	0.105	520570	keystroke_s	s	n/a
260.915	0.09	521830	keystroke_Key.space	Key.space	n/a
261.14	0.09	522280	keystroke_p	p	n/a
261.275	0.12	522550	keystroke_r	r	n/a
261.395	0.105	522790	keystroke_o	o	n/a
261.515	0.12	523030	keystroke_t	t	n/a
261.62	0.105	523240	keystroke_e	e	n/a
261.875	0.06	523750	keystroke_i	i	n/a
262.055	0.105	524110	keystroke_n	n	n/a
262.37	0.105	524740	keystroke_Key.space	Key.space	n/a
262.625	0.105	525250	keystroke_b	b	n/a
262.805	0.12	525610	keystroke_r	r	n/a
263.015	0.105	526030	keystroke_i	i	n/a
263.15	0.09	526300	keystroke_d	d	n/a
263.3	0.105	526600	keystroke_g	g	n/a
263.57	0.06	527140	keystroke_e	e	n/a
263.78	0.105	527560	keystroke_s	s	n/a
264.17	0.12	528340	keystroke_Key.space	Key.space	n/a
264.59	0.06	529180	keystroke_h	h	n/a
264.77	0.105	529540	keystroke_o	o	n/a
264.92	0.105	529840	keystroke_r	r	n/a
265.13	0.09	530260	keystroke_m	m	n/a
265.355	0.075	530710	keystroke_o	o	n/a
265.55	0.12	531100	keystroke_n	n	n/a
265.79	0.075	531580	keystroke_e	e	n/a
266.135	0.09	532270	keystroke_Key.enter	Key.enter	n/a
266.2315	10.4045	532463	prompt	n/a	governor saskatchewan flows faqs\n
267.11	0.09	534220	keystroke_g	g	n/a
267.26	0.105	534520	keystroke_o	o	n/a
267.395	0.09	534790	keystroke_v	v	n/a
267.62	0.075	535240	keystroke_e	e	n/a
267.935	0.105	535870	keystroke_r	r	n/a
268.325	0.09	536650	keystroke_n	n	n/a
268.55	0.12	537100	keystroke_o	o	n/a
268.805	0.12	537610	keystroke_r	r	n/a
269.36	0.12	538720	keystroke_Key.space	Key.space	n/a
269.57	0.105	539140	keystroke_s	s	n/a
269.825	0.12	539650	keystroke_a	a	n/a
270.065	0.09	540130	keystroke_s	s	n/a
270.38	0.105	540760	keystroke_k	k	n/a
270.86	0.135	541720	keystroke_a	a	n/a
271.07	0.09	542140	keystroke_t	t	n/a
271.445	0.09	542890	keystroke_c	c	n/a
271.61	0.12	543220	keystroke_h	h	n/a
271.835	0.06	543670	keystroke_e	e	n/a
272.15	0.105	544300	keystroke_w	w	n/a
272.36	0.135	544720	keystroke_a	a	n/a
272.615	0.105	545230	keystroke_n	n	n/a
273.2745	0.105	546549	keystroke_Key.space	Key.space	n/a
273.4245	0.12	546849	keystroke_f	f	n/a
273.6345	0.045	547269	keystroke_l	l	n/a
273.7995	0.09	547599	keystroke_o	o	n/a
273.9195	0.075	547839	keystroke_w	w	n/a
274.1445	0.105	548289	keystroke_s	s	n/a
274.3845	0.09	548769	keystroke_Key.space	Key.space	n/a
274.6095	0.09	549219	keystroke_f	f	n/a
274.8195	0.12	549639	keystroke_a	a	n/a
275.0595	0.075	550119	keystroke_q	q	n/a
275.5095	0.09	551019	keystroke_s	s	n/a
276.5445	0.09	553089	keystroke_Key.enter	Key.enter	n/a
276.641	6.4605	553282	prompt	n/a	advanced let's tamil ebook\n
277.4295	0.12	554859	keystroke_a	a	n/a
277.6245	0.105	555249	keystroke_d	d	n/a
277.8195	0.09	555639	keystroke_v	v	n/a
277.9995	0.135	555999	keystroke_a	a	n/a
278.1795	0.12	556359	keystroke_n	n	n/a
278.3735	0.09	556747	keystroke_c	c	n/a
278.6295	0.09	557259	keystroke_e	e	n/a
278.884	0.061	557768	keystroke_d	d	n/a
279.259	0.105	558518	keystroke_Key.space	Key.space	n/a
279.545	0.089	559090	keystroke_l	l	n/a
279.664	0.106	559328	keystroke_e	e	n/a
279.83	0.1045	559660	keystroke_t	t	n/a
280.1295	0.075	560259	keystroke_'	'	n/a
280.3545	0.105	560709	keystroke_s	s	n/a
280.5945	0.09	561189	keystroke_Key.space	Key.space	n/a
281.0445	0.06	562089	keystroke_t	t	n/a
281.1645	0.15	562329	keystroke_a	a	n/a
281.3295	0.06	562659	keystroke_m	m	n/a
281.5395	0.075	563079	keystroke_i	i	n/a
281.7045	0.09	563409	keystroke_l	l	n/a
281.8695	0.105	563739	keystroke_Key.space	Key.space	n/a
282.0045	0.12	564009	keystroke_e	e	n/a
282.2595	0.075	564519	keystroke_b	b	n/a
282.4395	0.075	564879	keystroke_o	o	n/a
282.6795	0.015	565359	keystroke_o	o	n/a
282.7845	0.06	565569	keystroke_k	k	n/a
283.0395	0.06	566079	keystroke_Key.enter	Key.enter	n/a
283.1055	7.436	566211	prompt	n/a	institute tower sunday node\n
283.8495	0.075	567699	keystroke_i	i	n/a
284.0895	0.105	568179	keystroke_n	n	n/a
284.2395	0.105	568479	keystroke_s	s	n/a
284.4945	0.12	568989	keystroke_t	t	n/a
284.7495	0.12	569499	keystroke_i	i	n/a
284.9745	0.105	569949	keystroke_t	t	n/a
285.1395	0.105	570279	keystroke_u	u	n/a
285.3945	0.105	570789	keystroke_e	e	n/a
285.9195	0.105	571839	keystroke_Key.backspace	Key.backspace	n/a
286.1295	0.06	572259	keystroke_t	t	n/a
286.3095	0.09	572619	keystroke_e	e	n/a
286.5195	0.09	573039	keystroke_Key.space	Key.space	n/a
286.775	0.105	573550	keystroke_t	t	n/a
286.924	0.106	573848	keystroke_o	o	n/a
287.06	0.09	574120	keystroke_w	w	n/a
287.254	0.12	574508	keystroke_e	e	n/a
287.36	0.12	574720	keystroke_r	r	n/a
287.959	0.091	575918	keystroke_Key.space	Key.space	n/a
288.199	0.121	576398	keystroke_s	s	n/a
288.334	0.075	576668	keystroke_u	u	n/a
288.47	0.12	576940	keystroke_n	n	n/a
288.604	0.121	577208	keystroke_d	d	n/a
288.71	0.135	577420	keystroke_a	a	n/a
288.919	0.106	577838	keystroke_y	y	n/a
289.159	0.105	578318	keystroke_Key.space	Key.space	n/a
289.549	0.12	579098	keystroke_n	n	n/a
289.775	0.089	579550	keystroke_o	o	n/a
289.925	0.09	579850	keystroke_d	d	n/a
290.164	0.06	580328	keystroke_e	e	n/a
290.434	0.105	580868	keystroke_Key.enter	Key.enter	n/a
290.546	10.5705	581092	prompt	n/a	charleston survivor reunion contact\n
291.304	0.121	582608	keystroke_c	c	n/a
291.484	0.12	582968	keystroke_h	h	n/a
291.8	0.075	583600	keystroke_e	e	n/a
292.1	0.104	584200	keystroke_r	r	n/a
292.609	0.09	585218	keystroke_Key.backspace	Key.backspace	n/a
292.79	0.104	585580	keystroke_Key.backspace	Key.backspace	n/a
292.925	0.09	585850	keystroke_a	a	n/a
293.09	0.105	586180	keystroke_r	r	n/a
293.314	0.12	586628	keystroke_l	l	n/a
293.51	0.06	587020	keystroke_e	e	n/a
293.705	0.104	587410	keystroke_s	s	n/a
293.914	0.106	587828	keystroke_t	t	n/a
294.094	0.151	588188	keystroke_o	o	n/a
294.229	0.136	588458	keystroke_n	n	n/a
294.935	0.104	589870	keystroke_Key.space	Key.space	n/a
295.114	0.151	590228	keystroke_s	s	n/a
295.325	0.105	590650	keystroke_u	u	n/a
295.475	0.105	590950	keystroke_r	r	n/a
295.865	0.12	591730	keystroke_v	v	n/a
296.074	0.136	592148	keystroke_i	i	n/a
296.33	0.09	592660	keystroke_v	v	n/a
296.54	0.105	593080	keystroke_o	o	n/a
296.735	0.105	593470	keystroke_r	r	n/a
296.974	0.121	593948	keystroke_Key.space	Key.space	n/a
297.559	0.091	595118	keystroke_r	r	n/a
297.77	0.105	595540	keystroke_e	e	n/a
297.995	0.09	595990	keystroke_u	u	n/a
298.22	0.09	596440	keystroke_n	n	n/a
298.43	0.075	596860	keystroke_i	i	n/a
298.64	0.06	597280	keystroke_o	o	n/a
298.805	0.135	597610	keystroke_n	n	n/a
299.435	0.119	598870	keystroke_Key.space	Key.space	n/a
299.78	0.105	599560	keystroke_c	c	n/a
299.915	0.06	599830	keystroke_o	o	n/a
300.065	0.105	600130	keystroke_n	n	n/a
300.185	0.09	600370	keystroke_t	t	n/a
300.38	0.135	600760	keystroke_a	a	n/a
300.515	0.09	601030	keystroke_c	c	n/a
300.74	0.075	601480	keystroke_t	t	n/a
301.01	0.105	602020	keystroke_Key.enter	Key.enter	n/a
301.1205	8.3215	602241	prompt	n/a	providing attempt browsers arts\n
301.835	0.09	603670	keystroke_p	p	n/a
301.985	0.09	603970	keystroke_r	r	n/a
302.105	0.105	604210	keystroke_o	o	n/a
302.24	0.12	604480	keystroke_v	v	n/a
302.42	0.135	604840	keystroke_i	i	n/a
302.585	0.15	605170	keystroke_d	d	n/a
302.75	0.045	605500	keystroke_i	i	n/a
303.23	0.135	606460	keystroke_n	n	n/a
303.485	0.075	606970	keystroke_g	g	n/a
303.844	0.0905	607688	keystroke_Key.space	Key.space	n/a
304.2345	0.105	608469	keystroke_a	a	n/a
304.4445	0.06	608889	keystroke_t	t	n/a
304.5945	0.045	609189	keystroke_t	t	n/a
304.7595	0.09	609519	keystroke_e	e	n/a
304.8945	0.075	609789	keystroke_m	m	n/a
305.0895	0.135	610179	keystroke_p	p	n/a
305.2845	0.105	610569	keystroke_t	t	n/a
305.8395	0.105	611679	keystroke_Key.space	Key.space	n/a
306.2295	0.105	612459	keystroke_b	b	n/a
306.3795	0.105	612759	keystroke_r	r	n/a
306.5295	0.12	613059	keystroke_o	o	n/a
306.7095	0.105	613419	keystroke_w	w	n/a
307.0095	0.15	614019	keystroke_s	s	n/a
307.3845	0.09	614769	keystroke_e	e	n/a
307.6545	0.09	615309	keystroke_r	r	n/a
307.9545	0.09	615909	keystroke_s	s	n/a
308.4045	0.105	616809	keystroke_Key.space	Key.space	n/a
308.4945	0.135	616989	keystroke_a	a	n/a
308.7195	0.09	617439	keystroke_r	r	n/a
308.8845	0.075	617769	keystroke_t	t	n/a
309.0795	0.105	618159	keystroke_s	s	n/a
309.3345	0.105	618669	keystroke_Key.enter	Key.enter	n/a
309.449	8.768	618898	prompt	n/a	guys utah identical ecommerce\n
310.1745	0.09	620349	keystroke_g	g	n/a
310.3245	0.075	620649	keystroke_u	u	n/a
310.5645	0.09	621129	keystroke_y	y	n/a
310.7295	0.106	621459	keystroke_s	s	n/a
310.8495	0.105	621699	keystroke_Key.space	Key.space	n/a
311.0295	0.165	622059	keystroke_a	a	n/a
311.4045	0.075	622809	keystroke_Key.backspace	Key.backspace	n/a
311.6745	0.09	623349	keystroke_u	u	n/a
311.8395	0.135	623679	keystroke_t	t	n/a
312.1245	0.12	624249	keystroke_a	a	n/a
312.5295	0.09	625059	keystroke_h	h	n/a
312.8145	0.105	625629	keystroke_Key.space	Key.space	n/a
313.3845	0.09	626769	keystroke_i	i	n/a
313.5645	0.06	627129	keystroke_d	d	n/a
313.7595	0.075	627519	keystroke_e	e	n/a
313.9395	0.075	627879	keystroke_n	n	n/a
314.1345	0.09	628269	keystroke_t	t	n/a
314.3295	0.105	628659	keystroke_i	i	n/a
314.5095	0.105	629019	keystroke_c	c	n/a
314.6745	0.135	629349	keystroke_a	a	n/a
314.9745	0.09	629949	keystroke_l	l	n/a
315.2745	0.105	630549	keystroke_Key.space	Key.space	n/a
315.7545	0.06	631509	keystroke_e	e	n/a
316.0845	0.06	632169	keystroke_c	c	n/a
316.5195	0.09	633039	keystroke_o	o	n/a
316.7895	0.075	633579	keystroke_m	m	n/a
316.9845	0.075	633969	keystroke_m	m	n/a
317.1645	0.09	634329	keystroke_e	e	n/a
317.3745	0.09	634749	keystroke_r	r	n/a
317.6145	0.06	635229	keystroke_c	c	n/a
317.8245	0.075	635649	keystroke_e	e	n/a
318.1245	0.0905	636249	keystroke_Key.enter	Key.enter	n/a
318.2215	9.415	636443	prompt	n/a	nascar establish kenya epson\n
318.995	0.09	637990	keystroke_n	n	n/a
319.265	0.135	638530	keystroke_a	a	n/a
319.505	0.09	639010	keystroke_s	s	n/a
319.745	0.075	639490	keystroke_c	c	n/a
319.895	0.135	639790	keystroke_a	a	n/a
320.105	0.105	640210	keystroke_r	r	n/a
320.33	0.105	640660	keystroke_Key.space	Key.space	n/a
321.155	0.06	642310	keystroke_e	e	n/a
321.365	0.09	642730	keystroke_s	s	n/a
321.515	0.09	643030	keystroke_t	t	n/a
321.665	0.15	643330	keystroke_a	a	n/a
321.83	0.09	643660	keystroke_b	b	n/a
322.055	0.075	644110	keystroke_l	l	n/a
322.265	0.075	644530	keystroke_i	i	n/a
322.415	0.09	644830	keystroke_s	s	n/a
322.595	0.12	645190	keystroke_h	h	n/a
323.12	0.105	646240	keystroke_Key.space	Key.space	n/a
323.375	0.075	646750	keystroke_k	k	n/a
323.615	0.09	647230	keystroke_e	e	n/a
324.32	0.075	648640	keystroke_n	n	n/a
324.575	0.09	649150	keystroke_y	y	n/a
324.815	0.105	649630	keystroke_a	a	n/a
325.01	0.105	650020	keystroke_Key.space	Key.space	n/a
325.4	0.09	650800	keystroke_e	e	n/a
325.895	0.09	651790	keystroke_p	p	n/a
326.135	0.09	652270	keystroke_s	s	n/a
326.33	0.09	652660	keystroke_o	o	n/a
326.555	0.09	653110	keystroke_n	n	n/a
327.545	0.09	655090	keystroke_Key.enter	Key.enter	n/a
327.6415	10.8855	655283	prompt	n/a	should've consultation prefer particularly\n
328.4	0.12	656800	keystroke_s	s	n/a
328.595	0.09	657190	keystroke_h	h	n/a
328.76	0.165	657520	keystroke_o	o	n/a
328.88	0.105	657760	keystroke_u	u	n/a
329.09	0.105	658180	keystroke_l	l	n/a
329.21	0.09	658420	keystroke_d	d	n/a
329.48	0.12	658960	keystroke_'	'	n/a
329.72	0.075	659440	keystroke_v	v	n/a
329.975	0.105	659950	keystroke_e	e	n/a
330.245	0.12	660490	keystroke_Key.space	Key.space	n/a
330.485	0.105	660970	keystroke_c	c	n/a
330.65	0.09	661300	keystroke_o	o	n/a
330.875	0.105	661750	keystroke_n	n	n/a
331.1	0.12	662200	keystroke_s	s	n/a
331.265	0.09	662530	keystroke_u	u	n/a
331.505	0.09	663010	keystroke_l	l	n/a
331.7	0.09	663400	keystroke_t	t	n/a
332.075	0.15	664150	keystroke_a	a	n/a
332.33	0.09	664660	keystroke_t	t	n/a
332.48	0.105	664960	keystroke_i	i	n/a
332.675	0.105	665350	keystroke_o	o	n/a
332.765	0.165	665530	keystroke_n	n	n/a
333.155	0.09	666310	keystroke_Key.space	Key.space	n/a
333.41	0.09	666820	keystroke_p	p	n/a
333.65	0.075	667300	keystroke_e	e	n/a
333.965	0.075	667930	keystroke_Key.backspace	Key.backspace	n/a
334.115	0.075	668230	keystroke_r	r	n/a
334.355	0.09	668710	keystroke_e	e	n/a
334.655	0.105	669310	keystroke_f	f	n/a
334.985	0.075	669970	keystroke_e	e	n/a
335.2695	0.1055	670539	keystroke_r	r	n/a
335.84	0.075	671680	keystroke_Key.space	Key.space	n/a
336.095	0.09	672190	keystroke_p	p	n/a
336.26	0.12	672520	keystroke_a	a	n/a
336.4245	0.1055	672849	keystroke_r	r	n/a
336.59	0.1045	673180	keystroke_t	t	n/a
336.7555	0.089	673511	keystroke_i	i	n/a
336.9195	0.1205	673839	keystroke_c	c	n/a
337.055	0.075	674110	keystroke_u	u	n/a
337.2645	0.105	674529	keystroke_l	l	n/a
337.4	0.1495	674800	keystroke_a	a	n/a
337.5645	0.09	675129	keystroke_r	r	n/a
337.7595	0.09	675519	keystroke_l	l	n/a
338.0895	0.09	676179	keystroke_y	y	n/a
338.4195	0.105	676839	keystroke_Key.enter	Key.enter	n/a
338.5345	6.6535	677069	prompt	n/a	element manually discs hear\n
339.2595	0.09	678519	keystroke_e	e	n/a
339.4545	0.09	678909	keystroke_l	l	n/a
339.6195	0.09	679239	keystroke_e	e	n/a
339.8895	0.105	679779	keystroke_m	m	n/a
340.0995	0.135	680199	keystroke_e	e	n/a
340.2945	0.105	680589	keystroke_n	n	n/a
340.5795	0.09	681159	keystroke_t	t	n/a
340.8645	0.1205	681729	keystroke_Key.space	Key.space	n/a
341.6595	0.075	683319	keystroke_m	m	n/a
341.8095	0.18	683619	keystroke_a	a	n/a
342.0045	0.045	684009	keystroke_n	n	n/a
342.1245	0.105	684249	keystroke_u	u	n/a
342.2745	0.1205	684549	keystroke_a	a	n/a
342.4395	0.075	684879	keystroke_l	l	n/a
342.6345	0.075	685269	keystroke_l	l	n/a
342.9045	0.09	685809	keystroke_y	y	n/a
343.1295	0.09	686259	keystroke_Key.space	Key.space	n/a
343.2945	0.105	686589	keystroke_d	d	n/a
343.4595	0.105	686919	keystroke_i	i	n/a
343.6245	0.075	687249	keystroke_s	s	n/a
343.7595	0.09	687519	keystroke_c	c	n/a
343.9845	0.09	687969	keystroke_s	s	n/a
344.2245	0.06	688449	keystroke_Key.space	Key.space	n/a
344.4045	0.09	688809	keystroke_h	h	n/a
344.5095	0.12	689019	keystroke_e	e	n/a
344.6445	0.135	689289	keystroke_a	a	n/a
344.7645	0.09	689529	keystroke_r	r	n/a
345.0795	0.105	690159	keystroke_Key.enter	Key.enter	n/a
345.201	9.8705	690402	prompt	n/a	refer receiver bullet influence\n
346.0695	0.06	692139	keystroke_r	r	n/a
346.1445	0.105	692289	keystroke_e	e	n/a
346.3545	0.09	692709	keystroke_f	f	n/a
346.6395	0.105	693279	keystroke_e	e	n/a
346.8645	0.09	693729	keystroke_r	r	n/a
347.1795	0.15	694359	keystroke_Key.space	Key.space	n/a
347.7045	0.09	695409	keystroke_r	r	n/a
347.9145	0.09	695829	keystroke_e	e	n/a
348.1395	0.06	696279	keystroke_c	c	n/a
349.3995	0.105	698799	keystroke_e	e	n/a
349.6245	0.09	699249	keystroke_i	i	n/a
349.8345	0.09	699669	keystroke_v	v	n/a
350.0445	0.09	700089	keystroke_e	e	n/a
350.2695	0.09	700539	keystroke_r	r	n/a
350.6145	0.135	701229	keystroke_Key.space	Key.space	n/a
350.9745	0.075	701949	keystroke_b	b	n/a
351.1545	0.09	702309	keystroke_u	u	n/a
351.3795	0.06	702759	keystroke_l	l	n/a
351.5445	0.09	703089	keystroke_l	l	n/a
351.6645	0.105	703329	keystroke_e	e	n/a
351.8595	0.075	703719	keystroke_t	t	n/a
351.9945	0.09	703989	keystroke_Key.space	Key.space	n/a
352.1745	0.06	704349	keystroke_i	i	n/a
352.3395	0.105	704679	keystroke_n	n	n/a
352.4595	0.075	704919	keystroke_f	f	n/a
352.6245	0.105	705249	keystroke_f	f	n/a
353.1345	0.075	706269	keystroke_Key.backspace	Key.backspace	n/a
353.3895	0.105	706779	keystroke_l	l	n/a
353.6295	0.075	707259	keystroke_u	u	n/a
353.8095	0.12	707619	keystroke_e	e	n/a
353.9895	0.105	707979	keystroke_n	n	n/a
354.1995	0.09	708399	keystroke_c	c	n/a
354.3345	0.105	708669	keystroke_e	e	n/a
354.9345	0.135	709869	keystroke_Key.enter	Key.enter	n/a
355.0755	9.7005	710151	prompt	n/a	crude mongolia javascript competing\n
355.7895	0.105	711579	keystroke_c	c	n/a
356.0145	0.1205	712029	keystroke_r	r	n/a
356.165	0.089	712330	keystroke_u	u	n/a
356.315	0.075	712630	keystroke_d	d	n/a
356.524	0.061	713048	keystroke_e	e	n/a
356.674	0.105	713348	keystroke_Key.space	Key.space	n/a
356.96	0.09	713920	keystroke_m	m	n/a
357.17	0.105	714340	keystroke_o	o	n/a
357.499	0.091	714998	keystroke_n	n	n/a
357.799	0.105	715598	keystroke_g	g	n/a
358.37	0.12	716740	keystroke_o	o	n/a
358.7	0.09	717400	keystroke_l	l	n/a
358.955	0.075	717910	keystroke_i	i	n/a
359.21	0.135	718420	keystroke_a	a	n/a
359.389	0.105	718778	keystroke_Key.space	Key.space	n/a
359.779	0.106	719558	keystroke_j	j	n/a
359.99	0.119	719980	keystroke_a	a	n/a
360.169	0.121	720338	keystroke_v	v	n/a
360.335	0.134	720670	keystroke_a	a	n/a
360.65	0.09	721300	keystroke_s	s	n/a
360.8	0.075	721600	keystroke_c	c	n/a
360.935	0.119	721870	keystroke_r	r	n/a
361.07	0.09	722140	keystroke_i	i	n/a
361.265	0.089	722530	keystroke_p	p	n/a
361.384	0.106	722768	keystroke_t	t	n/a
361.564	0.12	723128	keystroke_Key.space	Key.space	n/a
362.4045	0.105	724809	keystroke_c	c	n/a
362.5995	0.12	725199	keystroke_o	o	n/a
362.7795	0.12	725559	keystroke_m	m	n/a
363.0495	0.09	726099	keystroke_p	p	n/a
363.1995	0.12	726399	keystroke_e	e	n/a
363.4545	0.075	726909	keystroke_t	t	n/a
363.6645	0.06	727329	keystroke_i	i	n/a
363.7845	0.12	727569	keystroke_n	n	n/a
363.9645	0.09	727929	keystroke_g	g	n/a
364.6695	0.105	729339	keystroke_Key.enter	Key.enter	n/a
364.7815	8.6945	729563	prompt	n/a	whats deer alert qualities\n
365.4795	0.105	730959	keystroke_w	w	n/a
365.6295	0.105	731259	keystroke_h	h	n/a
365.7495	0.165	731499	keystroke_a	a	n/a
365.8695	0.105	731739	keystroke_t	t	n/a
366.1245	0.105	732249	keystroke_s	s	n/a
366.3195	0.105	732639	keystroke_Key.space	Key.space	n/a
366.4695	0.09	732939	keystroke_d	d	n/a
366.6795	0.06	733359	keystroke_e	e	n/a
366.8445	0.075	733689	keystroke_e	e	n/a
367.0845	0.09	734169	keystroke_r	r	n/a
367.3395	0.105	734679	keystroke_Key.space	Key.space	n/a
367.7745	0.15	735549	keystroke_a	a	n/a
367.9545	0.09	735909	keystroke_l	l	n/a
368.1195	0.09	736239	keystroke_e	e	n/a
368.3445	0.105	736689	keystroke_r	r	n/a
368.5545	0.105	737109	keystroke_t	t	n/a
368.8395	0.12	737679	keystroke_Key.space	Key.space	n/a
369.5295	0.105	739059	keystroke_q	q	n/a
369.6945	0.105	739389	keystroke_u	u	n/a
369.8895	0.135	739779	keystroke_a	a	n/a
370.3245	0.105	740649	keystroke_l	l	n/a
370.9395	0.12	741879	keystroke_i	i	n/a
371.2545	0.135	742509	keystroke_t	t	n/a
371.7045	0.135	743409	keystroke_i	i	n/a
371.9445	0.09	743889	keystroke_t	t	n/a
372.7395	0.105	745479	keystroke_Key.backspace	Key.backspace	n/a
372.8595	0.09	745719	keystroke_e	e	n/a
373.0845	0.105	746169	keystroke_s	s	n/a
373.3695	0.105	746739	keystroke_Key.enter	Key.enter	n/a
373.4805	9.776	746961	prompt	n/a	replacement ought programs collection\n
374.1945	0.105	748389	keystroke_r	r	n/a
374.2545	0.12	748509	keystroke_e	e	n/a
374.4495	0.075	748899	keystroke_p	p	n/a
374.6295	0.105	749259	keystroke_l	l	n/a
374.7495	0.076	749499	keystroke_a	a	n/a
374.7945	0.105	749589	keystroke_c	c	n/a
375.0195	0.12	750039	keystroke_m	m	n/a
375.1995	0.135	750399	keystroke_e	e	n/a
375.3945	0.09	750789	keystroke_n	n	n/a
375.6495	0.075	751299	keystroke_Key.backspace	Key.backspace	n/a
375.7995	0.075	751599	keystroke_Key.backspace	Key.backspace	n/a
375.9495	0.075	751899	keystroke_Key.backspace	Key.backspace	n/a
376.0995	0.135	752199	keystroke_e	e	n/a
376.3995	0.105	752799	keystroke_m	m	n/a
376.5945	0.12	753189	keystroke_e	e	n/a
376.7445	0.105	753489	keystroke_n	n	n/a
376.9245	0.09	753849	keystroke_t	t	n/a
377.0595	0.09	754119	keystroke_Key.space	Key.space	n/a
377.3595	0.105	754719	keystroke_o	o	n/a
377.6895	0.09	755379	keystroke_u	u	n/a
377.8245	0.12	755649	keystroke_g	g	n/a
377.9895	0.105	755979	keystroke_h	h	n/a
378.2445	0.105	756489	keystroke_t	t	n/a
378.829	0.091	757658	keystroke_Key.space	Key.space	n/a
379.145	0.09	758290	keystroke_p	p	n/a
379.28	0.09	758560	keystroke_r	r	n/a
379.385	0.104	758770	keystroke_o	o	n/a
379.58	0.074	759160	keystroke_g	g	n/a
379.7	0.12	759400	keystroke_r	r	n/a
379.805	0.15	759610	keystroke_a	a	n/a
380.03	0.09	760060	keystroke_m	m	n/a
380.51	0.15	761020	keystroke_s	s	n/a
380.704	0.12	761408	keystroke_Key.space	Key.space	n/a
380.99	0.105	761980	keystroke_c	c	n/a
381.11	0.09	762220	keystroke_o	o	n/a
381.335	0.075	762670	keystroke_l	l	n/a
381.485	0.075	762970	keystroke_l	l	n/a
381.544	0.106	763088	keystroke_e	e	n/a
381.68	0.075	763360	keystroke_c	c	n/a
381.89	0.09	763780	keystroke_t	t	n/a
382.085	0.105	764170	keystroke_i	i	n/a
382.22	0.18	764440	keystroke_o	o	n/a
382.34	0.105	764680	keystroke_n	n	n/a
383.135	0.119	766270	keystroke_Key.enter	Key.enter	n/a
383.2615	10.96	766523	prompt	n/a	shower rehabilitation panama compression\n
383.9	0.135	767800	keystroke_s	s	n/a
384.065	0.09	768130	keystroke_h	h	n/a
384.17	0.12	768340	keystroke_o	o	n/a
384.335	0.105	768670	keystroke_w	w	n/a
384.545	0.15	769090	keystroke_e	e	n/a
384.755	0.105	769510	keystroke_r	r	n/a
385.01	0.12	770020	keystroke_Key.space	Key.space	n/a
385.37	0.12	770740	keystroke_r	r	n/a
385.475	0.105	770950	keystroke_e	e	n/a
385.94	0.09	771880	keystroke_h	h	n/a
386.195	0.15	772390	keystroke_a	a	n/a
386.39	0.075	772780	keystroke_b	b	n/a
386.63	0.09	773260	keystroke_i	i	n/a
386.855	0.09	773710	keystroke_l	l	n/a
387.095	0.12	774190	keystroke_i	i	n/a
387.32	0.105	774640	keystroke_t	t	n/a
388.295	0.12	776590	keystroke_a	a	n/a
388.505	0.105	777010	keystroke_t	t	n/a
388.7	0.105	777400	keystroke_i	i	n/a
388.88	0.105	777760	keystroke_o	o	n/a
389.03	0.135	778060	keystroke_n	n	n/a
389.299	0.09	778598	keystroke_Key.space	Key.space	n/a
389.525	0.09	779050	keystroke_p	p	n/a
389.81	0.135	779620	keystroke_a	a	n/a
390.125	0.09	780250	keystroke_n	n	n/a
390.38	0.135	780760	keystroke_a	a	n/a
390.68	0.09	781360	keystroke_m	m	n/a
390.92	0.12	781840	keystroke_a	a	n/a
391.58	0.09	783160	keystroke_Key.space	Key.space	n/a
391.76	0.135	783520	keystroke_c	c	n/a
391.955	0.105	783910	keystroke_o	o	n/a
392.15	0.09	784300	keystroke_m	m	n/a
392.345	0.105	784690	keystroke_p	p	n/a
392.525	0.119	785050	keystroke_r	r	n/a
392.6145	0.09	785229	keystroke_e	e	n/a
392.8995	0.076	785799	keystroke_s	s	n/a
393.094	0.075	786188	keystroke_s	s	n/a
393.3045	0.0895	786609	keystroke_i	i	n/a
393.4845	0.1195	786969	keystroke_o	o	n/a
393.589	0.135	787178	keystroke_n	n	n/a
394.129	0.09	788258	keystroke_Key.enter	Key.enter	n/a
394.2265	10.03	788453	prompt	n/a	browser harassment plug montreal\n
394.91	0.089	789820	keystroke_b	b	n/a
395.074	0.075	790148	keystroke_r	r	n/a
395.2845	0.09	790569	keystroke_w	w	n/a
395.435	0.119	790870	keystroke_o	o	n/a
395.809	0.075	791618	keystroke_Key.backspace	Key.backspace	n/a
395.959	0.105	791918	keystroke_Key.backspace	Key.backspace	n/a
396.2295	0.105	792459	keystroke_o	o	n/a
396.439	0.09	792878	keystroke_w	w	n/a
396.7245	0.0745	793449	keystroke_s	s	n/a
396.994	0.075	793988	keystroke_e	e	n/a
397.339	0.075	794678	keystroke_r	r	n/a
397.8345	0.0895	795669	keystroke_Key.space	Key.space	n/a
398.059	0.105	796118	keystroke_h	h	n/a
398.329	0.105	796658	keystroke_a	a	n/a
398.539	0.075	797078	keystroke_r	r	n/a
398.8845	0.12	797769	keystroke_a	a	n/a
399.1245	0.0745	798249	keystroke_s	s	n/a
399.3195	0.06	798639	keystroke_s	s	n/a
399.619	0.09	799238	keystroke_m	m	n/a
399.815	0.1195	799630	keystroke_e	e	n/a
399.994	0.135	799988	keystroke_n	n	n/a
400.204	0.09	800408	keystroke_t	t	n/a
400.444	0.09	800888	keystroke_Key.space	Key.space	n/a
400.699	0.09	801398	keystroke_p	p	n/a
401.03	0.059	802060	keystroke_l	l	n/a
401.239	0.09	802478	keystroke_u	u	n/a
401.449	0.09	802898	keystroke_g	g	n/a
401.674	0.075	803348	keystroke_Key.space	Key.space	n/a
402.124	0.075	804248	keystroke_m	m	n/a
402.304	0.075	804608	keystroke_o	o	n/a
402.514	0.075	805028	keystroke_n	n	n/a
402.71	0.074	805420	keystroke_t	t	n/a
402.919	0.135	805838	keystroke_r	r	n/a
403.144	0.09	806288	keystroke_e	e	n/a
403.489	0.09	806978	keystroke_a	a	n/a
403.834	0.09	807668	keystroke_l	l	n/a
404.179	0.075	808358	keystroke_Key.enter	Key.enter	n/a
404.262	9.67	808524	prompt	n/a	wilson andrews tournament status\n
406.343	0.071	812686	keystroke_w	w	n/a
406.429	0.06	812858	keystroke_i	i	n/a
406.579	0.12	813158	keystroke_l	l	n/a
406.789	0.076	813578	keystroke_s	s	n/a
406.984	0.075	813968	keystroke_o	o	n/a
407.135	0.089	814270	keystroke_n	n	n/a
407.794	0.075	815588	keystroke_Key.space	Key.space	n/a
407.914	0.09	815828	keystroke_a	a	n/a
408.169	0.105	816338	keystroke_n	n	n/a
408.335	0.075	816670	keystroke_d	d	n/a
408.529	0.105	817058	keystroke_r	r	n/a
408.649	0.105	817298	keystroke_e	e	n/a
408.904	0.09	817808	keystroke_w	w	n/a
409.189	0.091	818378	keystroke_s	s	n/a
409.579	0.105	819158	keystroke_Key.space	Key.space	n/a
409.879	0.136	819758	keystroke_t	t	n/a
410.089	0.076	820178	keystroke_o	o	n/a
410.299	0.091	820598	keystroke_u	u	n/a
410.434	0.121	820868	keystroke_r	r	n/a
410.824	0.121	821648	keystroke_n	n	n/a
411.14	0.135	822280	keystroke_a	a	n/a
411.44	0.104	822880	keystroke_m	m	n/a
411.65	0.149	823300	keystroke_e	e	n/a
411.844	0.165	823688	keystroke_n	n	n/a
412.069	0.106	824138	keystroke_t	t	n/a
412.279	0.135	824558	keystroke_Key.space	Key.space	n/a
412.67	0.074	825340	keystroke_s	s	n/a
412.849	0.075	825698	keystroke_t	t	n/a
412.984	0.12	825968	keystroke_a	a	n/a
413.044	0.12	826088	keystroke_t	t	n/a
413.254	0.105	826508	keystroke_u	u	n/a
413.405	0.09	826810	keystroke_s	s	n/a
413.824	0.106	827648	keystroke_Key.enter	Key.enter	n/a
413.938	8.2885	827876	prompt	n/a	automobile believed every bloomberg\n
414.679	0.12	829358	keystroke_a	a	n/a
414.86	0.089	829720	keystroke_u	u	n/a
414.964	0.09	829928	keystroke_t	t	n/a
415.1	0.074	830200	keystroke_o	o	n/a
415.295	0.105	830590	keystroke_m	m	n/a
415.505	0.074	831010	keystroke_o	o	n/a
415.729	0.075	831458	keystroke_b	b	n/a
415.88	0.09	831760	keystroke_i	i	n/a
416.06	0.104	832120	keystroke_l	l	n/a
416.225	0.119	832450	keystroke_e	e	n/a
416.42	0.119	832840	keystroke_Key.space	Key.space	n/a
416.915	0.075	833830	keystroke_b	b	n/a
417.035	0.119	834070	keystroke_e	e	n/a
417.349	0.076	834698	keystroke_l	l	n/a
417.559	0.09	835118	keystroke_i	i	n/a
417.725	0.074	835450	keystroke_e	e	n/a
417.919	0.076	835838	keystroke_v	v	n/a
418.115	0.074	836230	keystroke_e	e	n/a
418.355	0.075	836710	keystroke_d	d	n/a
418.79	0.104	837580	keystroke_Key.space	Key.space	n/a
418.969	0.106	837938	keystroke_e	e	n/a
419.18	0.089	838360	keystroke_v	v	n/a
419.45	0.135	838900	keystroke_e	e	n/a
419.614	0.121	839228	keystroke_r	r	n/a
419.899	0.09	839798	keystroke_y	y	n/a
420.109	0.091	840218	keystroke_Key.space	Key.space	n/a
420.424	0.075	840848	keystroke_b	b	n/a
420.635	0.045	841270	keystroke_l	l	n/a
420.8	0.075	841600	keystroke_o	o	n/a
420.949	0.1045	841898	keystroke_o	o	n/a
421.0995	0.09	842199	keystroke_m	m	n/a
421.3095	0.06	842619	keystroke_b	b	n/a
421.3985	0.105	842797	keystroke_e	e	n/a
421.5935	0.105	843187	keystroke_r	r	n/a
421.7895	0.09	843579	keystroke_g	g	n/a
422.1345	0.089	844269	keystroke_Key.enter	Key.enter	n/a
422.2325	6.788	844465	prompt	n/a	asbestos tapes schools tight\n
422.9895	0.12	845979	keystroke_a	a	n/a
423.3045	0.105	846609	keystroke_s	s	n/a
423.5895	0.089	847179	keystroke_b	b	n/a
423.8145	0.059	847629	keystroke_e	e	n/a
423.9945	0.09	847989	keystroke_s	s	n/a
424.2045	0.105	848409	keystroke_t	t	n/a
424.3995	0.12	848799	keystroke_o	o	n/a
424.6095	0.105	849219	keystroke_s	s	n/a
424.8195	0.075	849639	keystroke_Key.space	Key.space	n/a
425.0595	0.075	850119	keystroke_t	t	n/a
425.2095	0.135	850419	keystroke_a	a	n/a
425.5995	0.075	851199	keystroke_p	p	n/a
425.7495	0.045	851499	keystroke_e	e	n/a
425.9435	0.106	851887	keystroke_s	s	n/a
426.1395	0.09	852279	keystroke_Key.space	Key.space	n/a
426.3945	0.105	852789	keystroke_s	s	n/a
426.6345	0.075	853269	keystroke_c	c	n/a
426.7545	0.09	853509	keystroke_h	h	n/a
426.8895	0.105	853779	keystroke_o	o	n/a
427.0835	0.105	854167	keystroke_o	o	n/a
427.3245	0.135	854649	keystroke_l	l	n/a
427.5645	0.105	855129	keystroke_s	s	n/a
427.8645	0.104	855729	keystroke_Key.space	Key.space	n/a
428.1345	0.105	856269	keystroke_t	t	n/a
428.3295	0.075	856659	keystroke_i	i	n/a
428.4345	0.09	856869	keystroke_g	g	n/a
428.5545	0.09	857109	keystroke_h	h	n/a
428.6595	0.105	857319	keystroke_t	t	n/a
428.9145	0.104	857829	keystroke_Key.enter	Key.enter	n/a
429.0255	9.191	858051	prompt	n/a	porter textbook stores southampton\n
429.7995	0.09	859599	keystroke_p	p	n/a
430.0395	0.104	860079	keystroke_o	o	n/a
430.1745	0.105	860349	keystroke_r	r	n/a
430.3695	0.09	860739	keystroke_t	t	n/a
430.5945	0.104	861189	keystroke_e	e	n/a
430.7745	0.089	861549	keystroke_r	r	n/a
431.0895	0.105	862179	keystroke_Key.space	Key.space	n/a
431.3445	0.059	862689	keystroke_t	t	n/a
431.5095	0.075	863019	keystroke_e	e	n/a
431.7045	0.134	863409	keystroke_x	x	n/a
431.8545	0.09	863709	keystroke_t	t	n/a
432.1395	0.075	864279	keystroke_b	b	n/a
432.3495	0.09	864699	keystroke_o	o	n/a
432.5435	0.076	865087	keystroke_o	o	n/a
432.7545	0.075	865509	keystroke_k	k	n/a
432.9485	0.091	865897	keystroke_Key.space	Key.space	n/a
433.1145	0.09	866229	keystroke_s	s	n/a
433.3685	0.061	866737	keystroke_t	t	n/a
433.5345	0.105	867069	keystroke_o	o	n/a
433.6545	0.12	867309	keystroke_r	r	n/a
433.7895	0.105	867579	keystroke_e	e	n/a
434.0595	0.09	868119	keystroke_s	s	n/a
434.4645	0.12	868929	keystroke_Key.space	Key.space	n/a
434.7045	0.12	869409	keystroke_s	s	n/a
435.0045	0.06	870009	keystroke_o	o	n/a
435.1845	0.09	870369	keystroke_u	u	n/a
435.3195	0.09	870639	keystroke_t	t	n/a
435.4545	0.12	870909	keystroke_h	h	n/a
436.0385	0.136	872077	keystroke_a	a	n/a
436.3245	0.075	872649	keystroke_m	m	n/a
436.5795	0.075	873159	keystroke_p	p	n/a
436.7295	0.105	873459	keystroke_t	t	n/a
436.9995	0.029	873999	keystroke_i	i	n/a
437.4345	0.089	874869	keystroke_Key.backspace	Key.backspace	n/a
437.6895	0.075	875379	keystroke_o	o	n/a
437.8845	0.075	875769	keystroke_n	n	n/a
438.1245	0.09	876249	keystroke_Key.enter	Key.enter	n/a
438.2215	13.3745	876443	prompt	n/a	television wherever individuals chronicle\n
439.7295	0.09	879459	keystroke_t	t	n/a
439.9095	0.09	879819	keystroke_e	e	n/a
440.1045	0.12	880209	keystroke_l	l	n/a
440.2995	0.105	880599	keystroke_e	e	n/a
440.6145	0.105	881229	keystroke_v	v	n/a
440.7945	0.12	881589	keystroke_i	i	n/a
440.9745	0.15	881949	keystroke_s	s	n/a
441.1695	0.105	882339	keystroke_i	i	n/a
441.4095	0.09	882819	keystroke_o	o	n/a
441.6945	0.105	883389	keystroke_n	n	n/a
443.3295	0.15	886659	keystroke_Key.space	Key.space	n/a
443.5545	0.135	887109	keystroke_w	w	n/a
443.7645	0.12	887529	keystroke_h	h	n/a
443.9595	0.105	887919	keystroke_e	e	n/a
444.2145	0.105	888429	keystroke_r	r	n/a
445.2045	0.135	890409	keystroke_e	e	n/a
445.5795	0.09	891159	keystroke_v	v	n/a
445.8195	0.09	891639	keystroke_e	e	n/a
446.0445	0.075	892089	keystroke_r	r	n/a
446.2695	0.09	892539	keystroke_Key.space	Key.space	n/a
446.5245	0.09	893049	keystroke_i	i	n/a
446.7495	0.15	893499	keystroke_n	n	n/a
447.0195	0.105	894039	keystroke_d	d	n/a
447.2145	0.18	894429	keystroke_i	i	n/a
447.4845	0.09	894969	keystroke_v	v	n/a
447.7995	0.12	895599	keystroke_i	i	n/a
447.9945	0.105	895989	keystroke_d	d	n/a
448.3095	0.105	896619	keystroke_u	u	n/a
448.5495	0.135	897099	keystroke_a	a	n/a
448.7895	0.105	897579	keystroke_l	l	n/a
448.9995	0.12	897999	keystroke_s	s	n/a
449.5695	0.12	899139	keystroke_Key.space	Key.space	n/a
449.8545	0.12	899709	keystroke_c	c	n/a
450.0645	0.09	900129	keystroke_h	h	n/a
450.1995	0.12	900399	keystroke_r	r	n/a
450.3495	0.09	900699	keystroke_o	o	n/a
450.5745	0.09	901149	keystroke_n	n	n/a
450.7995	0.105	901599	keystroke_i	i	n/a
450.9195	0.135	901839	keystroke_c	c	n/a
451.1145	0.105	902229	keystroke_l	l	n/a
451.2795	0.075	902559	keystroke_e	e	n/a
451.5045	0.09	903009	keystroke_Key.enter	Key.enter	n/a
451.5995	9.2515	903199	prompt	n/a	changes artwork advocacy webcam\n
452.2995	0.105	904599	keystroke_c	c	n/a
452.4495	0.09	904899	keystroke_h	h	n/a
452.5545	0.165	905109	keystroke_a	a	n/a
452.7045	0.1045	905409	keystroke_n	n	n/a
452.8695	0.075	905739	keystroke_g	g	n/a
453.139	0.1055	906278	keystroke_e	e	n/a
453.3945	0.12	906789	keystroke_s	s	n/a
453.7095	0.12	907419	keystroke_Key.space	Key.space	n/a
454.354	0.105	908708	keystroke_a	a	n/a
454.519	0.12	909038	keystroke_r	r	n/a
454.7295	0.105	909459	keystroke_t	t	n/a
454.9845	0.135	909969	keystroke_w	w	n/a
455.1345	0.105	910269	keystroke_o	o	n/a
455.2545	0.1045	910509	keystroke_r	r	n/a
455.4195	0.09	910839	keystroke_k	k	n/a
455.6595	0.135	911319	keystroke_Key.space	Key.space	n/a
455.8395	0.1045	911679	keystroke_a	a	n/a
456.9195	0.105	913839	keystroke_d	d	n/a
457.2945	0.12	914589	keystroke_v	v	n/a
457.5345	0.09	915069	keystroke_o	o	n/a
457.7595	0.09	915519	keystroke_c	c	n/a
458.0295	0.1045	916059	keystroke_a	a	n/a
458.1945	0.0895	916389	keystroke_c	c	n/a
458.479	0.0755	916958	keystroke_y	y	n/a
458.7045	0.09	917409	keystroke_Key.space	Key.space	n/a
459.4695	0.0895	918939	keystroke_w	w	n/a
459.6645	0.105	919329	keystroke_e	e	n/a
459.8895	0.0895	919779	keystroke_b	b	n/a
460.084	0.0905	920168	keystroke_c	c	n/a
460.1445	0.1345	920289	keystroke_a	a	n/a
460.309	0.09	920618	keystroke_m	m	n/a
460.7445	0.105	921489	keystroke_Key.enter	Key.enter	n/a
460.859	7.089	921718	prompt	n/a	nickel roster farm sunset\n
461.674	0.0755	923348	keystroke_n	n	n/a
461.8695	0.0895	923739	keystroke_i	i	n/a
461.9895	0.1195	923979	keystroke_c	c	n/a
462.154	0.0905	924308	keystroke_k	k	n/a
462.379	0.105	924758	keystroke_l	l	n/a
462.5895	0.0895	925179	keystroke_e	e	n/a
463.354	0.075	926708	keystroke_Key.backspace	Key.backspace	n/a
463.534	0.0905	927068	keystroke_Key.backspace	Key.backspace	n/a
463.729	0.075	927458	keystroke_e	e	n/a
463.939	0.09	927878	keystroke_l	l	n/a
464.209	0.105	928418	keystroke_Key.space	Key.space	n/a
464.539	0.105	929078	keystroke_r	r	n/a
464.674	0.105	929348	keystroke_o	o	n/a
464.809	0.105	929618	keystroke_s	s	n/a
465.049	0.075	930098	keystroke_t	t	n/a
465.259	0.12	930518	keystroke_e	e	n/a
465.514	0.09	931028	keystroke_r	r	n/a
465.694	0.075	931388	keystroke_Key.space	Key.space	n/a
465.814	0.09	931628	keystroke_f	f	n/a
465.9645	0.1045	931929	keystroke_a	a	n/a
466.144	0.09	932288	keystroke_r	r	n/a
466.414	0.09	932828	keystroke_m	m	n/a
466.624	0.075	933248	keystroke_Key.space	Key.space	n/a
466.804	0.105	933608	keystroke_s	s	n/a
466.984	0.075	933968	keystroke_u	u	n/a
467.149	0.075	934298	keystroke_n	n	n/a
467.254	0.105	934508	keystroke_s	s	n/a
467.404	0.105	934808	keystroke_e	e	n/a
467.584	0.105	935168	keystroke_t	t	n/a
467.824	0.12	935648	keystroke_Key.enter	Key.enter	n/a
467.9545	11.1675	935909	prompt	n/a	incentives bouquet travelling probability\n
468.679	0.09	937358	keystroke_i	i	n/a
468.889	0.105	937778	keystroke_n	n	n/a
469.039	0.105	938078	keystroke_c	c	n/a
469.159	0.12	938318	keystroke_e	e	n/a
469.369	0.105	938738	keystroke_n	n	n/a
469.534	0.105	939068	keystroke_t	t	n/a
469.714	0.105	939428	keystroke_i	i	n/a
469.864	0.075	939728	keystroke_v	v	n/a
470.059	0.105	940118	keystroke_e	e	n/a
470.134	0.12	940268	keystroke_s	s	n/a
470.749	0.09	941498	keystroke_Key.space	Key.space	n/a
471.004	0.075	942008	keystroke_b	b	n/a
471.169	0.105	942338	keystroke_o	o	n/a
471.739	0.09	943478	keystroke_u	u	n/a
471.994	0.105	943988	keystroke_q	q	n/a
472.234	0.12	944468	keystroke_u	u	n/a
472.489	0.105	944978	keystroke_e	e	n/a
472.789	0.105	945578	keystroke_t	t	n/a
473.119	0.105	946238	keystroke_Key.space	Key.space	n/a
473.389	0.075	946778	keystroke_t	t	n/a
473.539	0.105	947078	keystroke_r	r	n/a
473.659	0.15	947318	keystroke_a	a	n/a
473.794	0.09	947588	keystroke_v	v	n/a
473.974	0.09	947948	keystroke_e	e	n/a
474.169	0.105	948338	keystroke_l	l	n/a
474.439	0.06	948878	keystroke_i	i	n/a
475.009	0.06	950018	keystroke_Key.backspace	Key.backspace	n/a
475.249	0.105	950498	keystroke_l	l	n/a
475.504	0.06	951008	keystroke_i	i	n/a
475.684	0.105	951368	keystroke_n	n	n/a
475.879	0.105	951758	keystroke_g	g	n/a
476.509	0.105	953018	keystroke_Key.space	Key.space	n/a
476.719	0.105	953438	keystroke_p	p	n/a
476.869	0.105	953738	keystroke_r	r	n/a
476.9745	0.1045	953949	keystroke_o	o	n/a
477.214	0.105	954428	keystroke_b	b	n/a
477.394	0.135	954788	keystroke_a	a	n/a
477.499	0.105	954998	keystroke_b	b	n/a
477.709	0.105	955418	keystroke_i	i	n/a
477.874	0.165	955748	keystroke_l	l	n/a
478.009	0.135	956018	keystroke_i	i	n/a
478.264	0.075	956528	keystroke_t	t	n/a
478.459	0.105	956918	keystroke_y	y	n/a
479.029	0.09	958058	keystroke_Key.enter	Key.enter	n/a
479.1265	14.5445	958253	prompt	n/a	phillips threatened mice contacts\n
479.869	0.09	959738	keystroke_p	p	n/a
480.124	0.075	960248	keystroke_h	h	n/a
480.274	0.075	960548	keystroke_i	i	n/a
480.394	0.165	960788	keystroke_l	l	n/a
480.544	0.15	961088	keystroke_i	i	n/a
480.769	0.165	961538	keystroke_p	p	n/a
481.114	0.105	962228	keystroke_s	s	n/a
481.939	0.12	963878	keystroke_Key.space	Key.space	n/a
483.814	0.09	967628	keystroke_Key.backspace	Key.backspace	n/a
484.069	0.06	968138	keystroke_Key.backspace	Key.backspace	n/a
484.294	0.06	968588	keystroke_Key.backspace	Key.backspace	n/a
484.744	0.06	969488	keystroke_Key.backspace	Key.backspace	n/a
485.059	0.105	970118	keystroke_l	l	n/a
485.314	0.075	970628	keystroke_i	i	n/a
485.539	0.105	971078	keystroke_p	p	n/a
485.734	0.15	971468	keystroke_s	s	n/a
485.989	0.15	971978	keystroke_Key.space	Key.space	n/a
486.514	0.105	973028	keystroke_t	t	n/a
486.649	0.105	973298	keystroke_h	h	n/a
486.799	0.12	973598	keystroke_r	r	n/a
486.904	0.15	973808	keystroke_e	e	n/a
487.084	0.121	974168	keystroke_a	a	n/a
487.174	0.105	974348	keystroke_t	t	n/a
487.444	0.105	974888	keystroke_e	e	n/a
488.074	0.09	976148	keystroke_n	n	n/a
488.494	0.09	976988	keystroke_e	e	n/a
488.779	0.075	977558	keystroke_d	d	n/a
491.632	0.012	983264	keystroke_Key.space	Key.space	n/a
491.764	0.06	983528	keystroke_m	m	n/a
491.914	0.075	983828	keystroke_i	i	n/a
491.974	0.12	983948	keystroke_c	c	n/a
492.109	0.09	984218	keystroke_e	e	n/a
492.229	0.075	984458	keystroke_Key.space	Key.space	n/a
492.349	0.105	984698	keystroke_c	c	n/a
492.424	0.135	984848	keystroke_o	o	n/a
492.499	0.12	984998	keystroke_n	n	n/a
492.604	0.105	985208	keystroke_t	t	n/a
492.784	0.135	985568	keystroke_a	a	n/a
492.904	0.09	985808	keystroke_c	c	n/a
493.114	0.075	986228	keystroke_t	t	n/a
493.249	0.09	986498	keystroke_s	s	n/a
493.564	0.105	987128	keystroke_Key.enter	Key.enter	n/a
493.677	11.6645	987354	prompt	n/a	regression perfume hadn't consequences\n
494.449	0.12	988898	keystroke_r	r	n/a
494.524	0.09	989048	keystroke_e	e	n/a
494.674	0.135	989348	keystroke_g	g	n/a
494.764	0.12	989528	keystroke_r	r	n/a
494.84	0.089	989680	keystroke_e	e	n/a
495.034	0.045	990068	keystroke_s	s	n/a
495.169	0.06	990338	keystroke_s	s	n/a
495.349	0.09	990698	keystroke_i	i	n/a
495.499	0.12	990998	keystroke_o	o	n/a
495.589	0.105	991178	keystroke_n	n	n/a
495.799	0.105	991598	keystroke_Key.space	Key.space	n/a
496.174	0.075	992348	keystroke_p	p	n/a
496.414	0.075	992828	keystroke_e	e	n/a
496.579	0.09	993158	keystroke_r	r	n/a
496.789	0.09	993578	keystroke_f	f	n/a
497.029	0.09	994058	keystroke_u	u	n/a
497.344	0.105	994688	keystroke_m	m	n/a
497.569	0.09	995138	keystroke_e	e	n/a
498.304	0.075	996608	keystroke_Key.space	Key.space	n/a
498.499	0.075	996998	keystroke_h	h	n/a
498.619	0.105	997238	keystroke_a	a	n/a
498.814	0.12	997628	keystroke_d	d	n/a
499.084	0.105	998168	keystroke_n	n	n/a
499.369	0.09	998738	keystroke_'	'	n/a
499.654	0.105	999308	keystroke_t	t	n/a
499.909	0.09	999818	keystroke_Key.space	Key.space	n/a
500.269	0.105	1000538	keystroke_c	c	n/a
500.434	0.12	1000868	keystroke_o	o	n/a
500.599	0.165	1001198	keystroke_n	n	n/a
500.809	0.09	1001618	keystroke_s	s	n/a
501.304	0.12	1002608	keystroke_e	e	n/a
501.589	0.105	1003178	keystroke_q	q	n/a
501.829	0.075	1003658	keystroke_u	u	n/a
501.964	0.15	1003928	keystroke_e	e	n/a
502.144	0.12	1004288	keystroke_n	n	n/a
502.474	0.09	1004948	keystroke_e	e	n/a
502.654	0.12	1005308	keystroke_s	s	n/a
503.149	0.105	1006298	keystroke_Key.backspace	Key.backspace	n/a
503.344	0.075	1006688	keystroke_Key.backspace	Key.backspace	n/a
504.379	0.09	1008758	keystroke_c	c	n/a
504.574	0.06	1009148	keystroke_e	e	n/a
504.739	0.105	1009478	keystroke_s	s	n/a
505.249	0.09	1010498	keystroke_Key.enter	Key.enter	n/a
505.347	8.1085	1010694	prompt	n/a	thinkpad thailand puts traveling\n
506.194	0.105	1012388	keystroke_t	t	n/a
506.329	0.12	1012658	keystroke_h	h	n/a
506.465	0.089	1012930	keystroke_i	i	n/a
506.584	0.12	1013168	keystroke_n	n	n/a
506.674	0.09	1013348	keystroke_k	k	n/a
506.854	0.105	1013708	keystroke_p	p	n/a
506.944	0.105	1013888	keystroke_a	a	n/a
507.289	0.015	1014578	keystroke_d	d	n/a
507.349	0.09	1014698	keystroke_Key.space	Key.space	n/a
507.469	0.105	1014938	keystroke_t	t	n/a
507.589	0.12	1015178	keystroke_h	h	n/a
507.8895	0.1195	1015779	keystroke_a	a	n/a
508.114	0.105	1016228	keystroke_i	i	n/a
508.324	0.12	1016648	keystroke_l	l	n/a
508.519	0.3305	1017038	keystroke_a	a	n/a
508.9245	0.149	1017849	keystroke_n	n	n/a
509.7335	0.105	1019467	keystroke_d	d	n/a
510.5735	0.12	1021147	keystroke_Key.space	Key.space	n/a
510.7385	0.09	1021477	keystroke_p	p	n/a
510.9495	0.089	1021899	keystroke_u	u	n/a
511.0235	0.09	1022047	keystroke_t	t	n/a
511.1735	0.12	1022347	keystroke_s	s	n/a
511.3235	0.105	1022647	keystroke_Key.space	Key.space	n/a
511.4135	0.105	1022827	keystroke_t	t	n/a
511.5195	0.104	1023039	keystroke_r	r	n/a
511.6085	0.135	1023217	keystroke_a	a	n/a
511.7745	0.059	1023549	keystroke_v	v	n/a
511.8935	0.105	1023787	keystroke_e	e	n/a
512.1035	0.105	1024207	keystroke_l	l	n/a
512.3585	0.105	1024717	keystroke_i	i	n/a
512.4935	0.15	1024987	keystroke_n	n	n/a
512.6585	0.105	1025317	keystroke_g	g	n/a
513.3485	0.105	1026697	keystroke_Key.enter	Key.enter	n/a
513.46	10.7955	1026920	prompt	n/a	completed offering medicaid bailey\n
514.2785	0.121	1028557	keystroke_c	c	n/a
514.4135	0.12	1028827	keystroke_o	o	n/a
514.5195	0.119	1029039	keystroke_m	m	n/a
514.6235	0.09	1029247	keystroke_p	p	n/a
514.8185	0.105	1029637	keystroke_l	l	n/a
514.8485	0.12	1029697	keystroke_e	e	n/a
514.9385	0.135	1029877	keystroke_t	t	n/a
515.0585	0.06	1030117	keystroke_e	e	n/a
515.2235	0.075	1030447	keystroke_d	d	n/a
515.3435	0.09	1030687	keystroke_Key.space	Key.space	n/a
515.6885	0.09	1031377	keystroke_c	c	n/a
515.8385	0.09	1031677	keystroke_o	o	n/a
516.1235	0.015	1032247	keystroke_=	=	n/a
516.1535	0.03	1032307	keystroke_Key.backspace	Key.backspace	n/a
516.2585	0.105	1032517	keystroke_Key.backspace	Key.backspace	n/a
516.4535	0.09	1032907	keystroke_Key.backspace	Key.backspace	n/a
516.7385	0.09	1033477	keystroke_o	o	n/a
516.9485	0.075	1033897	keystroke_f	f	n/a
517.1135	0.075	1034227	keystroke_f	f	n/a
517.3235	0.12	1034647	keystroke_e	e	n/a
517.5485	0.121	1035097	keystroke_r	r	n/a
517.7885	0.06	1035577	keystroke_i	i	n/a
518.0435	0.12	1036087	keystroke_n	n	n/a
518.2985	0.09	1036597	keystroke_g	g	n/a
518.7035	0.105	1037407	keystroke_Key.space	Key.space	n/a
518.9585	0.09	1037917	keystroke_m	m	n/a
519.1535	0.046	1038307	keystroke_e	e	n/a
519.3185	0.091	1038637	keystroke_d	d	n/a
519.5585	0.12	1039117	keystroke_i	i	n/a
519.8885	0.09	1039777	keystroke_c	c	n/a
520.0835	0.12	1040167	keystroke_a	a	n/a
520.3385	0.121	1040677	keystroke_i	i	n/a
520.5635	0.09	1041127	keystroke_d	d	n/a
520.7885	0.06	1041577	keystroke_Key.space	Key.space	n/a
520.9845	0.089	1041969	keystroke_b	b	n/a
521.2535	0.075	1042507	keystroke_a	a	n/a
523.2495	0.119	1046499	keystroke_i	i	n/a
523.4435	0.12	1046887	keystroke_l	l	n/a
523.6245	0.089	1047249	keystroke_e	e	n/a
523.9085	0.061	1047817	keystroke_y	y	n/a
524.1635	0.09	1048327	keystroke_Key.enter	Key.enter	n/a
524.261	8.6045	1048522	prompt	n/a	thompson nails reader newcastle\n
524.9135	0.12	1049827	keystroke_t	t	n/a
525.0485	0.09	1050097	keystroke_h	h	n/a
525.2435	0.105	1050487	keystroke_o	o	n/a
525.4535	0.105	1050907	keystroke_m	m	n/a
525.6485	0.105	1051297	keystroke_p	p	n/a
526.1885	0.105	1052377	keystroke_s	s	n/a
526.3395	0.089	1052679	keystroke_o	o	n/a
526.5935	0.09	1053187	keystroke_n	n	n/a
526.8045	0.119	1053609	keystroke_Key.space	Key.space	n/a
527.2995	0.09	1054599	keystroke_n	n	n/a
527.4335	0.15	1054867	keystroke_a	a	n/a
527.5235	0.075	1055047	keystroke_i	i	n/a
527.6745	0.089	1055349	keystroke_l	l	n/a
527.8235	0.105	1055647	keystroke_s	s	n/a
527.9435	0.06	1055887	keystroke_Key.space	Key.space	n/a
528.0795	0.089	1056159	keystroke_n	n	n/a
528.4535	0.09	1056907	keystroke_Key.backspace	Key.backspace	n/a
528.6185	0.136	1057237	keystroke_r	r	n/a
528.7395	0.104	1057479	keystroke_e	e	n/a
528.8885	0.121	1057777	keystroke_a	a	n/a
529.0395	0.09	1058079	keystroke_d	d	n/a
529.2635	0.091	1058527	keystroke_e	e	n/a
529.5035	0.091	1059007	keystroke_r	r	n/a
529.8035	0.105	1059607	keystroke_Key.space	Key.space	n/a
530.1945	0.119	1060389	keystroke_n	n	n/a
530.3295	0.12	1060659	keystroke_e	e	n/a
530.4185	0.106	1060837	keystroke_w	w	n/a
530.6435	0.091	1061287	keystroke_s	s	n/a
531.2735	0.105	1062547	keystroke_Key.backspace	Key.backspace	n/a
531.4245	0.105	1062849	keystroke_c	c	n/a
531.5885	0.105	1063177	keystroke_a	a	n/a
531.6795	0.135	1063359	keystroke_s	s	n/a
531.8585	0.105	1063717	keystroke_t	t	n/a
532.0385	0.1055	1064077	keystroke_l	l	n/a
532.189	0.075	1064378	keystroke_e	e	n/a
532.774	0.09	1065548	keystroke_Key.enter	Key.enter	n/a
532.871	6.67	1065742	prompt	n/a	leslie ever duration gardens\n
533.644	0.09	1067288	keystroke_l	l	n/a
533.764	0.06	1067528	keystroke_e	e	n/a
533.944	0.105	1067888	keystroke_s	s	n/a
534.199	0.09	1068398	keystroke_l	l	n/a
534.409	0.09	1068818	keystroke_i	i	n/a
534.574	0.075	1069148	keystroke_e	e	n/a
534.679	0.09	1069358	keystroke_Key.space	Key.space	n/a
534.814	0.09	1069628	keystroke_e	e	n/a
534.994	0.12	1069988	keystroke_v	v	n/a
535.279	0.12	1070558	keystroke_e	e	n/a
535.519	0.075	1071038	keystroke_r	r	n/a
535.804	0.09	1071608	keystroke_Key.space	Key.space	n/a
536.059	0.075	1072118	keystroke_d	d	n/a
536.359	0.105	1072718	keystroke_u	u	n/a
536.524	0.075	1073048	keystroke_r	r	n/a
536.689	0.135	1073378	keystroke_a	a	n/a
536.869	0.105	1073738	keystroke_t	t	n/a
537.064	0.105	1074128	keystroke_i	i	n/a
537.289	0.09	1074578	keystroke_o	o	n/a
537.424	0.105	1074848	keystroke_n	n	n/a
537.664	0.075	1075328	keystroke_Key.space	Key.space	n/a
537.754	0.09	1075508	keystroke_g	g	n/a
537.904	0.135	1075808	keystroke_a	a	n/a
538.054	0.09	1076108	keystroke_r	r	n/a
538.459	0.075	1076918	keystroke_d	d	n/a
538.654	0.075	1077308	keystroke_e	e	n/a
538.819	0.105	1077638	keystroke_n	n	n/a
538.984	0.105	1077968	keystroke_s	s	n/a
539.449	0.09	1078898	keystroke_Key.enter	Key.enter	n/a
539.546	8.3195	1079092	prompt	n/a	ranch production broad equality\n
540.169	0.15	1080338	keystroke_r	r	n/a
540.304	0.165	1080608	keystroke_a	a	n/a
540.484	0.12	1080968	keystroke_n	n	n/a
540.844	0.105	1081688	keystroke_c	c	n/a
541.024	0.105	1082048	keystroke_h	h	n/a
541.309	0.09	1082618	keystroke_Key.space	Key.space	n/a
541.579	0.075	1083158	keystroke_p	p	n/a
541.729	0.09	1083458	keystroke_r	r	n/a
541.879	0.09	1083758	keystroke_o	o	n/a
542.029	0.105	1084058	keystroke_d	d	n/a
542.149	0.09	1084298	keystroke_u	u	n/a
542.284	0.105	1084568	keystroke_c	c	n/a
542.509	0.09	1085018	keystroke_t	t	n/a
542.719	0.06	1085438	keystroke_i	i	n/a
543.019	0.12	1086038	keystroke_o	o	n/a
543.349	0.09	1086698	keystroke_n	n	n/a
543.649	0.105	1087298	keystroke_Key.space	Key.space	n/a
543.994	0.075	1087988	keystroke_b	b	n/a
544.204	0.105	1088408	keystroke_r	r	n/a
544.384	0.105	1088768	keystroke_o	o	n/a
544.534	0.105	1089068	keystroke_a	a	n/a
544.7585	0.12	1089517	keystroke_d	d	n/a
545.0885	0.09	1090177	keystroke_Key.space	Key.space	n/a
545.3585	0.105	1090717	keystroke_e	e	n/a
545.5835	0.12	1091167	keystroke_q	q	n/a
545.8095	0.119	1091619	keystroke_u	u	n/a
546.0335	0.135	1092067	keystroke_a	a	n/a
546.3335	0.105	1092667	keystroke_l	l	n/a
546.5735	0.09	1093147	keystroke_i	i	n/a
546.7835	0.105	1093567	keystroke_t	t	n/a
547.0085	0.09	1094017	keystroke_y	y	n/a
547.6985	0.165	1095397	keystroke_Key.enter	Key.enter	n/a
547.87	8.0055	1095740	prompt	n/a	cell jacksonville cooler springs\n
548.5835	0.09	1097167	keystroke_c	c	n/a
548.7795	0.089	1097559	keystroke_e	e	n/a
548.9735	0.075	1097947	keystroke_l	l	n/a
549.1535	0.105	1098307	keystroke_l	l	n/a
549.2735	0.075	1098547	keystroke_Key.space	Key.space	n/a
549.3795	0.134	1098759	keystroke_j	j	n/a
549.5285	0.12	1099057	keystroke_a	a	n/a
549.6335	0.09	1099267	keystroke_c	c	n/a
549.7985	0.12	1099597	keystroke_k	k	n/a
550.0085	0.03	1100017	keystroke_e	e	n/a
550.3235	0.105	1100647	keystroke_Key.backspace	Key.backspace	n/a
550.5185	0.12	1101037	keystroke_s	s	n/a
550.6985	0.09	1101397	keystroke_o	o	n/a
550.8795	0.104	1101759	keystroke_n	n	n/a
551.1635	0.106	1102327	keystroke_v	v	n/a
551.3585	0.075	1102717	keystroke_i	i	n/a
551.5385	0.075	1103077	keystroke_l	l	n/a
551.7185	0.12	1103437	keystroke_l	l	n/a
551.9135	0.091	1103827	keystroke_e	e	n/a
552.4835	0.12	1104967	keystroke_Key.space	Key.space	n/a
552.6645	0.104	1105329	keystroke_c	c	n/a
552.8145	0.074	1105629	keystroke_o	o	n/a
552.9935	0.106	1105987	keystroke_o	o	n/a
553.2195	0.104	1106439	keystroke_l	l	n/a
553.4285	0.09	1106857	keystroke_e	e	n/a
553.6685	0.091	1107337	keystroke_r	r	n/a
553.9535	0.09	1107907	keystroke_Key.space	Key.space	n/a
554.2985	0.106	1108597	keystroke_s	s	n/a
554.5085	0.09	1109017	keystroke_p	p	n/a
554.7185	0.135	1109437	keystroke_r	r	n/a
554.9135	0.061	1109827	keystroke_i	i	n/a
555.0785	0.106	1110157	keystroke_n	n	n/a
555.2445	0.059	1110489	keystroke_g	g	n/a
555.4835	0.09	1110967	keystroke_s	s	n/a
555.7685	0.105	1111537	keystroke_Key.enter	Key.enter	n/a
555.8805	5.7105	1111761	prompt	n/a	history pretty south hunting\n
556.6535	0.06	1113307	keystroke_h	h	n/a
556.7885	0.106	1113577	keystroke_i	i	n/a
556.9085	0.135	1113817	keystroke_s	s	n/a
557.0135	0.105	1114027	keystroke_t	t	n/a
557.0745	0.104	1114149	keystroke_o	o	n/a
557.2845	0.104	1114569	keystroke_r	r	n/a
557.5385	0.105	1115077	keystroke_y	y	n/a
557.8385	0.09	1115677	keystroke_Key.space	Key.space	n/a
558.0785	0.075	1116157	keystroke_p	p	n/a
558.1835	0.135	1116367	keystroke_r	r	n/a
558.2735	0.091	1116547	keystroke_e	e	n/a
558.4385	0.09	1116877	keystroke_t	t	n/a
558.6035	0.105	1117207	keystroke_t	t	n/a
558.8285	0.09	1117657	keystroke_y	y	n/a
558.9485	0.075	1117897	keystroke_Key.space	Key.space	n/a
559.0385	0.12	1118077	keystroke_s	s	n/a
559.1445	0.135	1118289	keystroke_o	o	n/a
559.2185	0.165	1118437	keystroke_u	u	n/a
559.4745	0.105	1118949	keystroke_t	t	n/a
559.7585	0.09	1119517	keystroke_h	h	n/a
559.9535	0.075	1119907	keystroke_Key.space	Key.space	n/a
560.0745	0.104	1120149	keystroke_h	h	n/a
560.2995	0.06	1120599	keystroke_u	u	n/a
560.4935	0.181	1120987	keystroke_n	n	n/a
560.7645	0.135	1121529	keystroke_t	t	n/a
560.9435	0.15	1121887	keystroke_i	i	n/a
561.0795	0.12	1122159	keystroke_n	n	n/a
561.2585	0.075	1122517	keystroke_g	g	n/a
561.5135	0.075	1123027	keystroke_Key.enter	Key.enter	n/a
561.5995	8.3015	1123199	prompt	n/a	jamaica cricket affiliates upon\n
562.2795	0.135	1124559	keystroke_j	j	n/a
562.4435	0.165	1124887	keystroke_a	a	n/a
562.7745	0.09	1125549	keystroke_m	m	n/a
563.0885	0.135	1126177	keystroke_a	a	n/a
563.3295	0.09	1126659	keystroke_i	i	n/a
563.5545	0.135	1127109	keystroke_c	c	n/a
563.8245	0.15	1127649	keystroke_a	a	n/a
564.4085	0.105	1128817	keystroke_Key.space	Key.space	n/a
564.6495	0.104	1129299	keystroke_c	c	n/a
564.8445	0.105	1129689	keystroke_r	r	n/a
565.0385	0.105	1130077	keystroke_i	i	n/a
565.2345	0.104	1130469	keystroke_c	c	n/a
565.5945	0.075	1131189	keystroke_k	k	n/a
565.7895	0.104	1131579	keystroke_e	e	n/a
566.0885	0.09	1132177	keystroke_t	t	n/a
566.2835	0.105	1132567	keystroke_Key.space	Key.space	n/a
566.4935	0.09	1132987	keystroke_a	a	n/a
566.7345	0.06	1133469	keystroke_f	f	n/a
566.8995	0.09	1133799	keystroke_f	f	n/a
567.1545	0.075	1134309	keystroke_i	i	n/a
567.3935	0.09	1134787	keystroke_l	l	n/a
567.6345	0.089	1135269	keystroke_i	i	n/a
567.8595	0.135	1135719	keystroke_a	a	n/a
568.0985	0.106	1136197	keystroke_t	t	n/a
568.3085	0.091	1136617	keystroke_e	e	n/a
568.5035	0.136	1137007	keystroke_s	s	n/a
568.7135	0.09	1137427	keystroke_Key.space	Key.space	n/a
568.9695	0.089	1137939	keystroke_u	u	n/a
569.1485	0.106	1138297	keystroke_p	p	n/a
569.3745	0.074	1138749	keystroke_o	o	n/a
569.5385	0.075	1139077	keystroke_n	n	n/a
569.7935	0.105	1139587	keystroke_Key.enter	Key.enter	n/a
569.9055	7.5555	1139811	prompt	n/a	delivery bomb quarterly tulsa\n
570.5585	0.106	1141117	keystroke_d	d	n/a
570.7545	0.104	1141509	keystroke_e	e	n/a
570.9035	0.075	1141807	keystroke_l	l	n/a
571.0995	0.09	1142199	keystroke_i	i	n/a
571.2345	0.105	1142469	keystroke_v	v	n/a
571.4445	0.104	1142889	keystroke_e	e	n/a
571.6395	0.09	1143279	keystroke_r	r	n/a
571.8795	0.075	1143759	keystroke_y	y	n/a
572.0285	0.075	1144057	keystroke_Key.space	Key.space	n/a
572.2245	0.09	1144449	keystroke_b	b	n/a
572.4335	0.091	1144867	keystroke_o	o	n/a
572.6295	0.089	1145259	keystroke_m	m	n/a
572.9295	0.09	1145859	keystroke_b	b	n/a
573.1535	0.076	1146307	keystroke_Key.space	Key.space	n/a
573.5895	0.09	1147179	keystroke_q	q	n/a
573.8445	0.075	1147689	keystroke_u	u	n/a
574.0845	0.105	1148169	keystroke_a	a	n/a
574.2795	0.075	1148559	keystroke_r	r	n/a
574.4585	0.09	1148917	keystroke_t	t	n/a
574.8345	0.09	1149669	keystroke_e	e	n/a
575.0445	0.06	1150089	keystroke_r	r	n/a
575.2995	0.09	1150599	keystroke_l	l	n/a
575.5995	0.075	1151199	keystroke_y	y	n/a
575.7945	0.089	1151589	keystroke_Key.space	Key.space	n/a
575.9445	0.105	1151889	keystroke_t	t	n/a
576.1385	0.091	1152277	keystroke_u	u	n/a
576.6635	0.106	1153327	keystroke_l	l	n/a
576.8595	0.074	1153719	keystroke_s	s	n/a
577.0845	0.09	1154169	keystroke_a	a	n/a
577.3535	0.106	1154707	keystroke_Key.enter	Key.enter	n/a
577.466	6.925	1154932	prompt	n/a	dublin largely college trains\n
578.0895	0.09	1156179	keystroke_d	d	n/a
578.2845	0.09	1156569	keystroke_u	u	n/a
578.5085	0.076	1157017	keystroke_b	b	n/a
578.7495	0.06	1157499	keystroke_l	l	n/a
578.9295	0.06	1157859	keystroke_i	i	n/a
579.1245	0.075	1158249	keystroke_n	n	n/a
579.3045	0.075	1158609	keystroke_Key.space	Key.space	n/a
579.4995	0.09	1158999	keystroke_l	l	n/a
579.6045	0.12	1159209	keystroke_a	a	n/a
579.7545	0.09	1159509	keystroke_r	r	n/a
579.8895	0.075	1159779	keystroke_g	g	n/a
580.0545	0.075	1160109	keystroke_e	e	n/a
580.2195	0.075	1160439	keystroke_l	l	n/a
580.4595	0.06	1160919	keystroke_y	y	n/a
580.5945	0.075	1161189	keystroke_Key.space	Key.space	n/a
580.7745	0.09	1161549	keystroke_f	f	n/a
580.8795	0.075	1161759	keystroke_o	o	n/a
581.1795	0.09	1162359	keystroke_Key.backspace	Key.backspace	n/a
581.3445	0.105	1162689	keystroke_Key.backspace	Key.backspace	n/a
581.4645	0.12	1162929	keystroke_c	c	n/a
581.6295	0.09	1163259	keystroke_o	o	n/a
581.8395	0.075	1163679	keystroke_l	l	n/a
581.9895	0.09	1163979	keystroke_l	l	n/a
582.1245	0.075	1164249	keystroke_e	e	n/a
582.4245	0.075	1164849	keystroke_g	g	n/a
582.6345	0.075	1165269	keystroke_e	e	n/a
582.9195	0.12	1165839	keystroke_Key.space	Key.space	n/a
583.3395	0.075	1166679	keystroke_t	t	n/a
583.4745	0.15	1166949	keystroke_r	r	n/a
583.5945	0.15	1167189	keystroke_a	a	n/a
583.759	0.06	1167518	keystroke_i	i	n/a
583.8495	0.1195	1167699	keystroke_n	n	n/a
584.014	0.09	1168028	keystroke_s	s	n/a
584.284	0.105	1168568	keystroke_Key.enter	Key.enter	n/a
584.408	9.043	1168816	prompt	n/a	lightweight running interfaces columbia\n
585.154	0.105	1170308	keystroke_l	l	n/a
585.274	0.105	1170548	keystroke_i	i	n/a
585.424	0.09	1170848	keystroke_g	g	n/a
585.544	0.09	1171088	keystroke_h	h	n/a
585.619	0.06	1171238	keystroke_t	t	n/a
585.739	0.15	1171478	keystroke_w	w	n/a
585.904	0.12	1171808	keystroke_e	e	n/a
586.099	0.09	1172198	keystroke_i	i	n/a
586.204	0.105	1172408	keystroke_g	g	n/a
586.384	0.12	1172768	keystroke_h	h	n/a
586.594	0.075	1173188	keystroke_t	t	n/a
586.684	0.09	1173368	keystroke_Key.space	Key.space	n/a
586.879	0.09	1173758	keystroke_r	r	n/a
587.029	0.09	1174058	keystroke_u	u	n/a
587.299	0.075	1174598	keystroke_n	n	n/a
587.449	0.09	1174898	keystroke_n	n	n/a
587.629	0.12	1175258	keystroke_i	i	n/a
587.734	0.135	1175468	keystroke_n	n	n/a
587.914	0.12	1175828	keystroke_g	g	n/a
588.049	0.12	1176098	keystroke_Key.space	Key.space	n/a
588.334	0.075	1176668	keystroke_t	t	n/a
588.469	0.075	1176938	keystroke_i	i	n/a
588.754	0.09	1177508	keystroke_Key.backspace	Key.backspace	n/a
588.934	0.075	1177868	keystroke_Key.backspace	Key.backspace	n/a
589.174	0.06	1178348	keystroke_i	i	n/a
589.249	0.12	1178498	keystroke_n	n	n/a
589.414	0.105	1178828	keystroke_t	t	n/a
589.624	0.135	1179248	keystroke_e	e	n/a
589.714	0.09	1179428	keystroke_r	r	n/a
589.9235	0.0905	1179847	keystroke_f	f	n/a
590.0585	0.105	1180117	keystroke_a	a	n/a
590.209	0.09	1180418	keystroke_c	c	n/a
590.4485	0.105	1180897	keystroke_e	e	n/a
590.719	0.1045	1181438	keystroke_s	s	n/a
591.8735	0.0905	1183747	keystroke_Key.space	Key.space	n/a
592.0835	0.1355	1184167	keystroke_c	c	n/a
592.2035	0.075	1184407	keystroke_o	o	n/a
592.3835	0.075	1184767	keystroke_l	l	n/a
592.5635	0.045	1185127	keystroke_u	u	n/a
592.7135	0.06	1185427	keystroke_m	m	n/a
592.8935	0.06	1185787	keystroke_b	b	n/a
593.044	0.0745	1186088	keystroke_i	i	n/a
593.1785	0.09	1186357	keystroke_a	a	n/a
593.3585	0.09	1186717	keystroke_Key.enter	Key.enter	n/a
593.456	9.099	1186912	prompt	n/a	tray colleagues guaranteed belts\n
594.2585	0.09	1188517	keystroke_t	t	n/a
594.4235	0.09	1188847	keystroke_r	r	n/a
595.0535	0.105	1190107	keystroke_a	a	n/a
595.2635	0.09	1190527	keystroke_y	y	n/a
595.5185	0.075	1191037	keystroke_Key.space	Key.space	n/a
595.7585	0.09	1191517	keystroke_c	c	n/a
595.8935	0.09	1191787	keystroke_o	o	n/a
596.1185	0.06	1192237	keystroke_l	l	n/a
596.2535	0.105	1192507	keystroke_l	l	n/a
596.3885	0.105	1192777	keystroke_e	e	n/a
596.5085	0.12	1193017	keystroke_a	a	n/a
596.7635	0.09	1193527	keystroke_g	g	n/a
596.9585	0.105	1193917	keystroke_u	u	n/a
597.1235	0.075	1194247	keystroke_e	e	n/a
597.3185	0.105	1194637	keystroke_s	s	n/a
597.7385	0.105	1195477	keystroke_Key.space	Key.space	n/a
598.0235	0.12	1196047	keystroke_g	g	n/a
598.3085	0.12	1196617	keystroke_u	u	n/a
