onset	duration	sample	value	key	prompt_text
18.1595	20.5105	36319	prompt	n/a	the quick brown fox jumps over a lazy dog\n
24.689	0.0575	49378	keystroke_h	h	n/a
25.1065	0.18	50213	keystroke_Key.backspace	Key.backspace	n/a
25.362	0.1345	50724	keystroke_t	t	n/a
25.527	0.15	51054	keystroke_h	h	n/a
25.5875	0.15	51175	keystroke_e	e	n/a
25.7815	0.135	51563	keystroke_Key.space	Key.space	n/a
28.4845	0.073	56969	keystroke_q	q	n/a
28.572	0.1505	57144	keystroke_u	u	n/a
28.6765	0.151	57353	keystroke_i	i	n/a
28.887	0.1345	57774	keystroke_c	c	n/a
29.008	0.1335	58016	keystroke_k	k	n/a
29.2915	0.135	58583	keystroke_Key.space	Key.space	n/a
30.042	0.105	60084	keystroke_b	b	n/a
30.177	0.12	60354	keystroke_r	r	n/a
30.342	0.1355	60684	keystroke_o	o	n/a
30.582	0.1505	61164	keystroke_w	w	n/a
30.7925	0.18	61585	keystroke_n	n	n/a
30.9115	0.135	61823	keystroke_Key.space	Key.space	n/a
31.7525	0.09	63505	keystroke_f	f	n/a
31.7975	0.165	63595	keystroke_o	o	n/a
34.378	0.119	68756	keystroke_o	o	n/a
35.0225	0.2695	70045	keystroke_e	e	n/a
35.2165	0.1355	70433	keystroke_r	r	n/a
35.487	0.2405	70974	keystroke_a	a	n/a
35.637	0.12	71274	keystroke_Key.space	Key.space	n/a
36.507	0.165	73014	keystroke_l	l	n/a
36.8525	0.1645	73705	keystroke_a	a	n/a
37.272	0.1495	74544	keystroke_z	z	n/a
37.4515	0.166	74903	keystroke_y	y	n/a
37.572	0.15	75144	keystroke_Key.space	Key.space	n/a
38.037	0.135	76074	keystroke_d	d	n/a
38.1425	0.1495	76285	keystroke_o	o	n/a
38.367	0.12	76734	keystroke_g	g	n/a
38.592	0.0745	77184	keystroke_Key.enter	Key.enter	n/a
38.6755	22.419	77351	prompt	n/a	stronger mobile packed containers\n
53.715	0.058	107430	keystroke_t	t	n/a
53.758	0.1795	107516	keystroke_r	r	n/a
53.9225	0.1205	107845	keystroke_o	o	n/a
54.118	0.119	108236	keystroke_n	n	n/a
54.178	0.15	108356	keystroke_g	g	n/a
54.417	0.241	108834	keystroke_e	e	n/a
54.537	0.1505	109074	keystroke_r	r	n/a
54.6725	0.1045	109345	keystroke_Key.space	Key.space	n/a
55.452	0.1055	110904	keystroke_o	o	n/a
55.572	0.1505	111144	keystroke_b	b	n/a
55.693	0.089	111386	keystroke_l	l	n/a
56.082	0.15	112164	keystroke_Key.backspace	Key.backspace	n/a
56.6525	0.1205	113305	keystroke_i	i	n/a
56.8775	0.12	113755	keystroke_l	l	n/a
56.9815	0.1355	113963	keystroke_e	e	n/a
57.1015	0.1055	114203	keystroke_Key.space	Key.space	n/a
57.7475	0.1795	115495	keystroke_a	a	n/a
57.9725	0.165	115945	keystroke_c	c	n/a
58.0925	0.135	116185	keystroke_k	k	n/a
58.2425	0.225	116485	keystroke_e	e	n/a
58.392	0.1355	116784	keystroke_d	d	n/a
58.992	0.12	117984	keystroke_Key.space	Key.space	n/a
59.1875	0.24	118375	keystroke_c	c	n/a
59.3375	0.0745	118675	keystroke_o	o	n/a
59.487	0.1355	118974	keystroke_n	n	n/a
59.6525	0.134	119305	keystroke_t	t	n/a
59.9825	0.194	119965	keystroke_a	a	n/a
60.117	0.1205	120234	keystroke_i	i	n/a
60.252	0.1505	120504	keystroke_r	r	n/a
60.388	0.135	120776	keystroke_n	n	n/a
60.582	0.2405	121164	keystroke_e	e	n/a
60.7175	0.135	121435	keystroke_r	r	n/a
61.032	0.0605	122064	keystroke_Key.enter	Key.enter	n/a
61.1005	11.7085	122201	prompt	n/a	conventions selecting deficit civilian\n
62.007	0.135	124014	keystroke_c	c	n/a
62.0985	0.0885	124197	keystroke_o	o	n/a
62.3675	0.12	124735	keystroke_n	n	n/a
62.637	0.1205	125274	keystroke_v	v	n/a
62.982	0.15	125964	keystroke_e	e	n/a
63.133	0.105	126266	keystroke_n	n	n/a
63.2825	0.1205	126565	keystroke_t	t	n/a
63.448	0.165	126896	keystroke_i	i	n/a
63.583	0.09	127166	keystroke_o	o	n/a
63.747	0.105	127494	keystroke_n	n	n/a
63.807	0.1805	127614	keystroke_s	s	n/a
63.972	0.09	127944	keystroke_Key.space	Key.space	n/a
64.107	0.1955	128214	keystroke_c	c	n/a
64.227	0.105	128454	keystroke_o	o	n/a
65.0525	0.0895	130105	keystroke_Key.backspace	Key.backspace	n/a
65.232	0.105	130464	keystroke_Key.backspace	Key.backspace	n/a
65.3525	0.1805	130705	keystroke_s	s	n/a
65.457	0.165	130914	keystroke_e	e	n/a
65.577	0.1505	131154	keystroke_l	l	n/a
65.832	0.1505	131664	keystroke_e	e	n/a
66.162	0.121	132324	keystroke_c	c	n/a
66.5525	0.165	133105	keystroke_t	t	n/a
66.7025	0.075	133405	keystroke_i	i	n/a
66.8825	0.075	133765	keystroke_n	n	n/a
66.9575	0.15	133915	keystroke_g	g	n/a
67.0775	0.09	134155	keystroke_Key.space	Key.space	n/a
67.7675	0.1795	135535	keystroke_d	d	n/a
67.9315	0.151	135863	keystroke_e	e	n/a
68.1265	0.151	136253	keystroke_f	f	n/a
68.2325	0.12	136465	keystroke_i	i	n/a
68.742	0.105	137484	keystroke_t	t	n/a
69.238	0.165	138476	keystroke_=	=	n/a
69.5525	0.0905	139105	keystroke_c	c	n/a
69.658	0.1495	139316	keystroke_i	i	n/a
69.837	0.165	139674	keystroke_t	t	n/a
69.987	0.1055	139974	keystroke_Key.space	Key.space	n/a
70.7525	0.18	141505	keystroke_c	c	n/a
71.3375	0.15	142675	keystroke_i	i	n/a
71.6525	0.12	143305	keystroke_v	v	n/a
71.727	0.0905	143454	keystroke_i	i	n/a
71.9375	0.104	143875	keystroke_l	l	n/a
72.163	0.0895	144326	keystroke_i	i	n/a
72.3125	0.135	144625	keystroke_a	a	n/a
72.4025	0.12	144805	keystroke_n	n	n/a
72.7325	0.075	145465	keystroke_Key.enter	Key.enter	n/a
72.8185	9.156	145637	prompt	n/a	strictly durable devel clean\n
74.157	0.1055	148314	keystroke_s	s	n/a
74.7275	0.1495	149455	keystroke_t	t	n/a
74.937	0.15	149874	keystroke_r	r	n/a
75.057	0.15	150114	keystroke_i	i	n/a
75.6425	0.1955	151285	keystroke_c	c	n/a
76.227	0.15	152454	keystroke_t	t	n/a
77.5025	0.119	155005	keystroke_l	l	n/a
77.653	0.12	155306	keystroke_y	y	n/a
77.787	0.105	155574	keystroke_Key.space	Key.space	n/a
78.492	0.1505	156984	keystroke_d	d	n/a
78.8225	0.105	157645	keystroke_r	r	n/a
78.9725	0.195	157945	keystroke_a	a	n/a
79.0925	0.1045	158185	keystroke_b	b	n/a
79.3175	0.1045	158635	keystroke_l	l	n/a
79.4075	0.12	158815	keystroke_e	e	n/a
79.5425	0.09	159085	keystroke_Key.space	Key.space	n/a
79.9475	0.165	159895	keystroke_d	d	n/a
80.053	0.165	160106	keystroke_e	e	n/a
80.352	0.18	160704	keystroke_v	v	n/a
80.5025	0.165	161005	keystroke_e	e	n/a
80.6075	0.194	161215	keystroke_l	l	n/a
80.7125	0.12	161425	keystroke_Key.space	Key.space	n/a
80.9825	0.181	161965	keystroke_c	c	n/a
81.1325	0.18	162265	keystroke_l	l	n/a
81.328	0.09	162656	keystroke_e	e	n/a
81.478	0.1645	162956	keystroke_a	a	n/a
81.553	0.1645	163106	keystroke_n	n	n/a
81.897	0.0755	163794	keystroke_Key.enter	Key.enter	n/a
81.9795	8.935	163959	prompt	n/a	devices eleven locator niagara\n
83.0375	0.21	166075	keystroke_d	d	n/a
83.2175	0.225	166435	keystroke_e	e	n/a
83.5465	0.136	167093	keystroke_v	v	n/a
83.697	0.136	167394	keystroke_i	i	n/a
83.8925	0.1795	167785	keystroke_d	d	n/a
83.9825	0.1355	167965	keystroke_e	e	n/a
84.642	0.0755	169284	keystroke_Key.backspace	Key.backspace	n/a
84.837	0.06	169674	keystroke_Key.backspace	Key.backspace	n/a
84.943	0.225	169886	keystroke_c	c	n/a
85.092	0.195	170184	keystroke_e	e	n/a
85.407	0.18	170814	keystroke_s	s	n/a
85.542	0.135	171084	keystroke_Key.space	Key.space	n/a
86.187	0.135	172374	keystroke_e	e	n/a
86.292	0.09	172584	keystroke_l	l	n/a
86.397	0.106	172794	keystroke_e	e	n/a
86.6675	0.1205	173335	keystroke_v	v	n/a
86.818	0.165	173636	keystroke_e	e	n/a
86.953	0.1945	173906	keystroke_n	n	n/a
87.0575	0.135	174115	keystroke_Key.space	Key.space	n/a
87.4325	0.1195	174865	keystroke_l	l	n/a
87.657	0.1355	175314	keystroke_o	o	n/a
88.0625	0.15	176125	keystroke_c	c	n/a
88.1375	0.165	176275	keystroke_a	a	n/a
88.5275	0.15	177055	keystroke_t	t	n/a
88.678	0.134	177356	keystroke_o	o	n/a
88.8425	0.1495	177685	keystroke_r	r	n/a
88.962	0.1205	177924	keystroke_Key.space	Key.space	n/a
89.337	0.1055	178674	keystroke_n	n	n/a
89.517	0.121	179034	keystroke_i	i	n/a
89.623	0.104	179246	keystroke_a	a	n/a
89.9075	0.105	179815	keystroke_g	g	n/a
90.148	0.1185	180296	keystroke_a	a	n/a
90.3875	0.1195	180775	keystroke_r	r	n/a
90.552	0.1355	181104	keystroke_a	a	n/a
90.8525	0.0595	181705	keystroke_Key.enter	Key.enter	n/a
90.92	8.725	181840	prompt	n/a	charm disposal wagner keywords\n
91.783	0.1635	183566	keystroke_c	c	n/a
91.933	0.1185	183866	keystroke_h	h	n/a
92.008	0.1345	184016	keystroke_a	a	n/a
92.2925	0.06	184585	keystroke_r	r	n/a
93.417	0.181	186834	keystroke_m	m	n/a
93.552	0.1355	187104	keystroke_Key.space	Key.space	n/a
94.2425	0.1495	188485	keystroke_d	d	n/a
94.3175	0.105	188635	keystroke_i	i	n/a
94.467	0.1655	188934	keystroke_s	s	n/a
94.6175	0.21	189235	keystroke_p	p	n/a
94.753	0.1495	189506	keystroke_o	o	n/a
95.142	0.18	190284	keystroke_s	s	n/a
95.307	0.1505	190614	keystroke_a	a	n/a
95.397	0.195	190794	keystroke_l	l	n/a
95.5025	0.1495	191005	keystroke_Key.space	Key.space	n/a
95.772	0.1505	191544	keystroke_w	w	n/a
95.9975	0.1505	191995	keystroke_a	a	n/a
96.973	0.1335	193946	keystroke_g	g	n/a
97.1225	0.09	194245	keystroke_n	n	n/a
97.2725	0.195	194545	keystroke_e	e	n/a
97.3765	0.12	194753	keystroke_r	r	n/a
97.4815	0.1355	194963	keystroke_Key.space	Key.space	n/a
98.0825	0.09	196165	keystroke_k	k	n/a
98.1875	0.15	196375	keystroke_e	e	n/a
98.4575	0.1495	196915	keystroke_y	y	n/a
98.7575	0.15	197515	keystroke_w	w	n/a
98.8625	0.135	197725	keystroke_o	o	n/a
99.0275	0.0905	198055	keystroke_r	r	n/a
99.2825	0.1645	198565	keystroke_d	d	n/a
99.402	0.09	198804	keystroke_s	s	n/a
99.567	0.0755	199134	keystroke_Key.enter	Key.enter	n/a
99.65	14.169	199300	prompt	n/a	exhibition popular manual phenomenon\n
100.708	0.1195	201416	keystroke_e	e	n/a
101.3965	0.166	202793	keystroke_h	h	n/a
101.489	0.1185	202978	keystroke_i	i	n/a
101.7275	0.09	203455	keystroke_b	b	n/a
101.9225	0.105	203845	keystroke_i	i	n/a
102.207	0.15	204414	keystroke_t	t	n/a
102.312	0.15	204624	keystroke_i	i	n/a
102.3875	0.135	204775	keystroke_o	o	n/a
102.627	0.1655	205254	keystroke_n	n	n/a
102.7015	0.105	205403	keystroke_Key.space	Key.space	n/a
103.287	0.1955	206574	keystroke_p	p	n/a
103.437	0.1805	206874	keystroke_o	o	n/a
103.6315	0.211	207263	keystroke_p	p	n/a
104.0375	0.075	208075	keystroke_i	i	n/a
104.0985	0.134	208197	keystroke_u	u	n/a
104.6825	0.1045	209365	keystroke_Key.backspace	Key.backspace	n/a
104.892	0.135	209784	keystroke_Key.backspace	Key.backspace	n/a
105.402	0.1355	210804	keystroke_u	u	n/a
105.7475	0.12	211495	keystroke_l	l	n/a
105.8975	0.134	211795	keystroke_a	a	n/a
106.182	0.12	212364	keystroke_r	r	n/a
106.3325	0.104	212665	keystroke_Key.space	Key.space	n/a
106.588	0.1355	213176	keystroke_m	m	n/a
106.7375	0.165	213475	keystroke_a	a	n/a
106.8725	0.0905	213745	keystroke_n	n	n/a
107.0675	0.105	214135	keystroke_u	u	n/a
108.103	0.1645	216206	keystroke_a	a	n/a
108.252	0.2255	216504	keystroke_l	l	n/a
108.3725	0.1645	216745	keystroke_Key.space	Key.space	n/a
108.748	0.1345	217496	keystroke_p	p	n/a
109.1665	0.1655	218333	keystroke_h	h	n/a
109.978	0.1345	219956	keystroke_e	e	n/a
110.2475	0.0745	220495	keystroke_n	n	n/a
110.457	0.1055	220914	keystroke_o	o	n/a
110.757	0.136	221514	keystroke_m	m	n/a
110.922	0.1505	221844	keystroke_e	e	n/a
111.3875	0.03	222775	keystroke_m	m	n/a
112.1225	0.105	224245	keystroke_Key.backspace	Key.backspace	n/a
113.113	0.0745	226226	keystroke_n	n	n/a
113.3075	0.045	226615	keystroke_o	o	n/a
113.4875	0.0905	226975	keystroke_n	n	n/a
113.7575	0.0595	227515	keystroke_Key.enter	Key.enter	n/a
113.8275	8.9615	227655	prompt	n/a	proxy born amendments mariah\n
114.8975	0.061	229795	keystroke_p	p	n/a
115.2575	0.1355	230515	keystroke_r	r	n/a
115.4075	0.09	230815	keystroke_o	o	n/a
116.0535	0.179	232107	keystroke_x	x	n/a
116.2925	0.165	232585	keystroke_y	y	n/a
116.3965	0.106	232793	keystroke_Key.space	Key.space	n/a
116.6375	0.105	233275	keystroke_b	b	n/a
116.7575	0.09	233515	keystroke_a	a	n/a
117.0275	0.1645	234055	keystroke_r	r	n/a
117.177	0.2105	234354	keystroke_n	n	n/a
117.2975	0.12	234595	keystroke_Key.space	Key.space	n/a
117.7775	0.12	235555	keystroke_a	a	n/a
117.8825	0.15	235765	keystroke_m	m	n/a
118.0625	0.12	236125	keystroke_e	e	n/a
119.052	0.09	238104	keystroke_n	n	n/a
119.202	0.12	238404	keystroke_d	d	n/a
119.772	0.136	239544	keystroke_m	m	n/a
119.922	0.151	239844	keystroke_e	e	n/a
120.028	0.089	240056	keystroke_n	n	n/a
120.177	0.091	240354	keystroke_t	t	n/a
120.387	0.1655	240774	keystroke_s	s	n/a
120.477	0.1055	240954	keystroke_Key.space	Key.space	n/a
120.6875	0.135	241375	keystroke_m	m	n/a
120.793	0.1045	241586	keystroke_a	a	n/a
120.9275	0.15	241855	keystroke_r	r	n/a
121.0625	0.135	242125	keystroke_i	i	n/a
121.2425	0.165	242485	keystroke_d	d	n/a
121.4525	0.15	242905	keystroke_a	a	n/a
121.8425	0.0745	243685	keystroke_Key.backspace	Key.backspace	n/a
122.007	0.105	244014	keystroke_Key.backspace	Key.backspace	n/a
122.128	0.15	244256	keystroke_a	a	n/a
122.292	0.105	244584	keystroke_h	h	n/a
122.7265	0.0605	245453	keystroke_Key.enter	Key.enter	n/a
122.797	13.597	245594	prompt	n/a	mills lessons safe medicaid\n
124.0025	0.1205	248005	keystroke_m	m	n/a
124.3625	0.12	248725	keystroke_i	i	n/a
124.618	0.0745	249236	keystroke_l	l	n/a
124.7525	0.1205	249505	keystroke_l	l	n/a
124.8575	0.1655	249715	keystroke_s	s	n/a
125.0375	0.09	250075	keystroke_Key.space	Key.space	n/a
125.2325	0.15	250465	keystroke_l	l	n/a
125.3375	0.1055	250675	keystroke_e	e	n/a
125.5475	0.21	251095	keystroke_a	a	n/a
125.7425	0.06	251485	keystroke_s	s	n/a
125.9075	0.135	251815	keystroke_s	s	n/a
125.9815	0.1215	251963	keystroke_o	o	n/a
126.3425	0.09	252685	keystroke_Key.backspace	Key.backspace	n/a
126.5525	0.09	253105	keystroke_Key.backspace	Key.backspace	n/a
126.7475	0.12	253495	keystroke_Key.backspace	Key.backspace	n/a
127.1075	0.105	254215	keystroke_Key.backspace	Key.backspace	n/a
127.3325	0.1505	254665	keystroke_d	d	n/a
127.558	0.06	255116	keystroke_o	o	n/a
128.0075	0.12	256015	keystroke_Key.backspace	Key.backspace	n/a
128.2925	0.105	256585	keystroke_s	s	n/a
128.5025	0.1805	257005	keystroke_s	s	n/a
128.623	0.1645	257246	keystroke_o	o	n/a
129.0875	0.09	258175	keystroke_Key.backspace	Key.backspace	n/a
129.3275	0.0895	258655	keystroke_Key.backspace	Key.backspace	n/a
129.552	0.105	259104	keystroke_Key.backspace	Key.backspace	n/a
129.792	0.105	259584	keystroke_Key.backspace	Key.backspace	n/a
130.078	0.0895	260156	keystroke_s	s	n/a
130.272	0.1355	260544	keystroke_s	s	n/a
130.392	0.135	260784	keystroke_o	o	n/a
130.6625	0.12	261325	keystroke_n	n	n/a
130.8575	0.165	261715	keystroke_s	s	n/a
131.0225	0.09	262045	keystroke_Key.space	Key.space	n/a
131.638	0.1945	263276	keystroke_s	s	n/a
131.8025	0.1495	263605	keystroke_a	a	n/a
131.9835	0.164	263967	keystroke_k	k	n/a
132.2525	0.09	264505	keystroke_e	e	n/a
132.763	0.0895	265526	keystroke_Key.backspace	Key.backspace	n/a
132.9125	0.12	265825	keystroke_Key.backspace	Key.backspace	n/a
133.0335	0.149	266067	keystroke_f	f	n/a
133.1225	0.15	266245	keystroke_e	e	n/a
133.2725	0.12	266545	keystroke_Key.space	Key.space	n/a
133.603	0.1345	267206	keystroke_m	m	n/a
133.7975	0.135	267595	keystroke_e	e	n/a
134.458	0.149	268916	keystroke_d	d	n/a
135.043	0.075	270086	keystroke_i	i	n/a
135.417	0.151	270834	keystroke_c	c	n/a
135.5375	0.165	271075	keystroke_a	a	n/a
135.8375	0.1055	271675	keystroke_i	i	n/a
135.957	0.1055	271914	keystroke_d	d	n/a
136.347	0.0455	272694	keystroke_Key.enter	Key.enter	n/a
136.401	11.918	272802	prompt	n/a	communist jenny basement rapidly\n
139.9805	0.1175	279961	keystroke_c	c	n/a
140.0825	0.06	280165	keystroke_o	o	n/a
140.4875	0.0455	280975	keystroke_m	m	n/a
140.593	0.0895	281186	keystroke_m	m	n/a
140.8325	0.0755	281665	keystroke_u	u	n/a
141.027	0.091	282054	keystroke_n	n	n/a
141.208	0.074	282416	keystroke_i	i	n/a
141.702	0.165	283404	keystroke_s	s	n/a
142.062	0.136	284124	keystroke_t	t	n/a
142.168	0.104	284336	keystroke_Key.space	Key.space	n/a
142.4525	0.06	284905	keystroke_h	h	n/a
142.4825	0.165	284965	keystroke_e	e	n/a
142.9635	0.089	285927	keystroke_n	n	n/a
143.1275	0.135	286255	keystroke_n	n	n/a
143.3975	0.195	286795	keystroke_y	y	n/a
143.517	0.135	287034	keystroke_Key.space	Key.space	n/a
144.2225	0.1355	288445	keystroke_b	b	n/a
144.3425	0.21	288685	keystroke_a	a	n/a
144.492	0.136	288984	keystroke_s	s	n/a
144.717	0.135	289434	keystroke_e	e	n/a
144.8225	0.0755	289645	keystroke_m	m	n/a
144.928	0.119	289856	keystroke_e	e	n/a
144.973	0.105	289946	keystroke_n	n	n/a
145.0925	0.12	290185	keystroke_t	t	n/a
145.182	0.105	290364	keystroke_Key.space	Key.space	n/a
145.4075	0.136	290815	keystroke_p	p	n/a
145.5275	0.18	291055	keystroke_a	a	n/a
146.1425	0.075	292285	keystroke_Key.backspace	Key.backspace	n/a
146.2925	0.12	292585	keystroke_Key.backspace	Key.backspace	n/a
146.3825	0.105	292765	keystroke_r	r	n/a
146.548	0.165	293096	keystroke_a	a	n/a
146.7275	0.09	293455	keystroke_p	p	n/a
147.133	0.1045	294266	keystroke_i	i	n/a
147.523	0.1205	295046	keystroke_d	d	n/a
147.628	0.09	295256	keystroke_l	l	n/a
147.9275	0.0755	295855	keystroke_y	y	n/a
148.2575	0.06	296515	keystroke_Key.enter	Key.enter	n/a
148.326	12.159	296652	prompt	n/a	statutes cars drop alignment\n
149.113	0.12	298226	keystroke_s	s	n/a
149.3975	0.105	298795	keystroke_a	a	n/a
149.8175	0.1505	299635	keystroke_t	t	n/a
150.028	0.1655	300056	keystroke_a	a	n/a
150.703	0.105	301406	keystroke_Key.backspace	Key.backspace	n/a
150.898	0.105	301796	keystroke_Key.backspace	Key.backspace	n/a
151.0925	0.1045	302185	keystroke_Key.backspace	Key.backspace	n/a
152.2025	0.105	304405	keystroke_t	t	n/a
152.608	0.1795	305216	keystroke_a	a	n/a
153.0125	0.15	306025	keystroke_t	t	n/a
153.7325	0.135	307465	keystroke_u	u	n/a
153.8685	0.119	307737	keystroke_t	t	n/a
154.048	0.1495	308096	keystroke_e	e	n/a
154.2725	0.15	308545	keystroke_s	s	n/a
154.3925	0.135	308785	keystroke_Key.space	Key.space	n/a
154.6625	0.135	309325	keystroke_c	c	n/a
154.7675	0.195	309535	keystroke_a	a	n/a
155.5325	0.15	311065	keystroke_r	r	n/a
155.6225	0.15	311245	keystroke_e	e	n/a
155.8485	0.194	311697	keystroke_s	s	n/a
155.9675	0.165	311935	keystroke_Key.space	Key.space	n/a
156.1785	0.299	312357	keystroke_f	f	n/a
156.3575	0.15	312715	keystroke_r	r	n/a
157.1675	0.0745	314335	keystroke_Key.backspace	Key.backspace	n/a
157.4525	0.03	314905	keystroke_Key.backspace	Key.backspace	n/a
157.468	0.09	314936	keystroke_d	d	n/a
157.708	0.1495	315416	keystroke_r	r	n/a
157.9175	0.15	315835	keystroke_o	o	n/a
158.0825	0.2405	316165	keystroke_p	p	n/a
158.2325	0.12	316465	keystroke_Key.space	Key.space	n/a
158.4125	0.18	316825	keystroke_a	a	n/a
158.5025	0.105	317005	keystroke_l	l	n/a
158.698	0.075	317396	keystroke_i	i	n/a
158.8485	0.134	317697	keystroke_n	n	n/a
159.3725	0.1055	318745	keystroke_Key.backspace	Key.backspace	n/a
159.523	0.134	319046	keystroke_g	g	n/a
159.658	0.0595	319316	keystroke_n	n	n/a
159.853	0.0745	319706	keystroke_m	m	n/a
159.9125	0.1045	319825	keystroke_e	e	n/a
159.9875	0.12	319975	keystroke_n	n	n/a
160.1225	0.105	320245	keystroke_t	t	n/a
160.3775	0.105	320755	keystroke_Key.enter	Key.enter	n/a
160.489	6.67	320978	prompt	n/a	spaces rugs spare moves\n
161.2925	0.1355	322585	keystroke_s	s	n/a
161.3985	0.1195	322797	keystroke_p	p	n/a
161.6975	0.2105	323395	keystroke_c	c	n/a
161.833	0.18	323666	keystroke_a	a	n/a
162.132	0.106	324264	keystroke_e	e	n/a
162.402	0.031	324804	keystroke_s	s	n/a
162.417	0.105	324834	keystroke_Key.space	Key.space	n/a
162.5685	0.165	325137	keystroke_r	r	n/a
162.7025	0.1355	325405	keystroke_u	u	n/a
162.9725	0.135	325945	keystroke_g	g	n/a
163.0335	0.179	326067	keystroke_s	s	n/a
163.2725	0.12	326545	keystroke_Key.space	Key.space	n/a
164.367	0.1655	328734	keystroke_s	s	n/a
164.502	0.106	329004	keystroke_p	p	n/a
164.6525	0.135	329305	keystroke_a	a	n/a
165.118	0.045	330236	keystroke_c	c	n/a
165.5225	0.12	331045	keystroke_Key.backspace	Key.backspace	n/a
165.6575	0.105	331315	keystroke_r	r	n/a
165.7175	0.135	331435	keystroke_e	e	n/a
165.8375	0.09	331675	keystroke_Key.space	Key.space	n/a
166.0775	0.12	332155	keystroke_m	m	n/a
166.3025	0.105	332605	keystroke_o	o	n/a
166.4225	0.1345	332845	keystroke_v	v	n/a
166.6775	0.1355	333355	keystroke_e	e	n/a
166.9175	0.15	333835	keystroke_s	s	n/a
167.0825	0.075	334165	keystroke_Key.enter	Key.enter	n/a
167.1635	8.5755	334327	prompt	n/a	shooting intimate reuters commission\n
167.9525	0.15	335905	keystroke_s	s	n/a
168.298	0.105	336596	keystroke_h	h	n/a
168.522	0.076	337044	keystroke_o	o	n/a
168.673	0.121	337346	keystroke_o	o	n/a
168.808	0.12	337616	keystroke_t	t	n/a
168.913	0.09	337826	keystroke_i	i	n/a
169.0775	0.105	338155	keystroke_n	n	n/a
169.1675	0.15	338335	keystroke_g	g	n/a
169.3325	0.015	338665	keystroke_Key.space	Key.space	n/a
169.5275	0.105	339055	keystroke_i	i	n/a
169.7225	0.105	339445	keystroke_n	n	n/a
170.098	0.135	340196	keystroke_t	t	n/a
170.188	0.0895	340376	keystroke_i	i	n/a
170.472	0.151	340944	keystroke_m	m	n/a
170.6375	0.121	341275	keystroke_a	a	n/a
170.8475	0.151	341695	keystroke_t	t	n/a
171.073	0.18	342146	keystroke_e	e	n/a
171.3575	0.09	342715	keystroke_Key.space	Key.space	n/a
171.658	0.1795	343316	keystroke_r	r	n/a
171.7175	0.21	343435	keystroke_e	e	n/a
172.0325	0.135	344065	keystroke_s	s	n/a
172.1975	0.105	344395	keystroke_u	u	n/a
172.378	0.135	344756	keystroke_t	t	n/a
172.618	0.1945	345236	keystroke_e	e	n/a
172.722	0.121	345444	keystroke_r	r	n/a
172.963	0.135	345926	keystroke_s	s	n/a
173.067	0.106	346134	keystroke_Key.space	Key.space	n/a
173.443	0.1495	346886	keystroke_c	c	n/a
173.5025	0.061	347005	keystroke_o	o	n/a
173.6975	0.076	347395	keystroke_m	m	n/a
173.8325	0.0905	347665	keystroke_m	m	n/a
174.238	0.1045	348476	keystroke_i	i	n/a
174.8675	0.105	349735	keystroke_s	s	n/a
175.0625	0.136	350125	keystroke_s	s	n/a
175.123	0.1345	350246	keystroke_i	i	n/a
175.2125	0.1205	350425	keystroke_o	o	n/a
175.408	0.105	350816	keystroke_n	n	n/a
175.663	0.0745	351326	keystroke_Key.enter	Key.enter	n/a
175.747	10.957	351494	prompt	n/a	libraries practice francisco line\n
177.4175	0.075	354835	keystroke_l	l	n/a
177.6275	0.09	355255	keystroke_i	i	n/a
177.898	0.1055	355796	keystroke_b	b	n/a
178.048	0.104	356096	keystroke_r	r	n/a
178.242	0.151	356484	keystroke_a	a	n/a
178.438	0.1495	356876	keystroke_r	r	n/a
178.5575	0.12	357115	keystroke_i	i	n/a
178.6325	0.135	357265	keystroke_e	e	n/a
178.873	0.15	357746	keystroke_s	s	n/a
178.977	0.106	357954	keystroke_Key.space	Key.space	n/a
179.1725	0.135	358345	keystroke_p	p	n/a
179.4575	0.105	358915	keystroke_r	r	n/a
179.6675	0.15	359335	keystroke_a	a	n/a
179.9075	0.135	359815	keystroke_c	c	n/a
180.238	0.165	360476	keystroke_t	t	n/a
180.5675	0.165	361135	keystroke_i	i	n/a
180.7475	0.2405	361495	keystroke_c	c	n/a
181.003	0.18	362006	keystroke_e	e	n/a
181.152	0.136	362304	keystroke_Key.space	Key.space	n/a
181.8135	0.1945	363627	keystroke_f	f	n/a
181.9035	0.1495	363807	keystroke_r	r	n/a
182.233	0.1495	364466	keystroke_a	a	n/a
182.4435	0.135	364887	keystroke_n	n	n/a
182.608	0.12	365216	keystroke_c	c	n/a
182.983	0.24	365966	keystroke_i	i	n/a
183.3425	0.135	366685	keystroke_s	s	n/a
184.228	0.18	368456	keystroke_c	c	n/a
184.423	0.195	368846	keystroke_o	o	n/a
184.528	0.135	369056	keystroke_Key.space	Key.space	n/a
184.827	0.166	369654	keystroke_l	l	n/a
186.0575	0.1195	372115	keystroke_i	i	n/a
186.2835	0.1195	372567	keystroke_n	n	n/a
186.3725	0.1045	372745	keystroke_e	e	n/a
186.643	0.059	373286	keystroke_Key.enter	Key.enter	n/a
186.7145	10.0845	373429	prompt	n/a	effective arab friendship corruption\n
187.513	0.1195	375026	keystroke_e	e	n/a
187.753	0.075	375506	keystroke_f	f	n/a
187.887	0.106	375774	keystroke_f	f	n/a
188.0085	0.1345	376017	keystroke_e	e	n/a
188.713	0.165	377426	keystroke_c	c	n/a
189.058	0.15	378116	keystroke_t	t	n/a
189.193	0.1645	378386	keystroke_i	i	n/a
189.478	0.1945	378956	keystroke_v	v	n/a
189.5975	0.1805	379195	keystroke_e	e	n/a
189.7475	0.12	379495	keystroke_Key.space	Key.space	n/a
189.9425	0.1505	379885	keystroke_a	a	n/a
190.212	0.136	380424	keystroke_r	r	n/a
190.4225	0.1805	380845	keystroke_a	a	n/a
190.7085	0.15	381417	keystroke_b	b	n/a
191.0075	0.1055	382015	keystroke_Key.space	Key.space	n/a
191.503	0.225	383006	keystroke_f	f	n/a
191.638	0.195	383276	keystroke_r	r	n/a
191.7735	0.1045	383547	keystroke_i	i	n/a
191.893	0.195	383786	keystroke_e	e	n/a
191.983	0.106	383966	keystroke_n	n	n/a
192.058	0.165	384116	keystroke_d	d	n/a
192.298	0.195	384596	keystroke_s	s	n/a
192.358	0.18	384716	keystroke_h	h	n/a
192.448	0.1645	384896	keystroke_i	i	n/a
192.7335	0.164	385467	keystroke_p	p	n/a
193.0175	0.12	386035	keystroke_Key.space	Key.space	n/a
193.3175	0.15	386635	keystroke_c	c	n/a
193.423	0.1045	386846	keystroke_o	o	n/a
193.6475	0.0605	387295	keystroke_r	r	n/a
193.7975	0.1655	387595	keystroke_r	r	n/a
193.978	0.0745	387956	keystroke_y	y	n/a
193.9925	0.09	387985	keystroke_u	u	n/a
194.8635	0.0895	389727	keystroke_Key.backspace	Key.backspace	n/a
195.043	0.1195	390086	keystroke_Key.backspace	Key.backspace	n/a
195.478	0.09	390956	keystroke_u	u	n/a
195.733	0.089	391466	keystroke_p	p	n/a
195.883	0.15	391766	keystroke_t	t	n/a
196.018	0.149	392036	keystroke_i	i	n/a
196.1225	0.1505	392245	keystroke_o	o	n/a
196.377	0.15	392754	keystroke_n	n	n/a
196.737	0.061	393474	keystroke_Key.enter	Key.enter	n/a
196.806	11.3185	393612	prompt	n/a	riders alan gamespot postings\n
197.728	0.135	395456	keystroke_r	r	n/a
197.848	0.104	395696	keystroke_i	i	n/a
198.012	0.076	396024	keystroke_r	r	n/a
198.057	0.1955	396114	keystroke_e	e	n/a
198.7925	0.0605	397585	keystroke_Key.backspace	Key.backspace	n/a
198.973	0.06	397946	keystroke_Key.backspace	Key.backspace	n/a
199.198	0.225	398396	keystroke_d	d	n/a
199.318	0.165	398636	keystroke_e	e	n/a
199.557	0.1355	399114	keystroke_s	s	n/a
199.917	0.181	399834	keystroke_Key.backspace	Key.backspace	n/a
200.0385	0.1945	400077	keystroke_e	e	n/a
200.1285	0.134	400257	keystroke_r	r	n/a
200.5175	0.166	401035	keystroke_s	s	n/a
201.282	0.106	402564	keystroke_Key.space	Key.space	n/a
201.4475	0.1505	402895	keystroke_a	a	n/a
201.553	0.135	403106	keystroke_l	l	n/a
201.703	0.165	403406	keystroke_a	a	n/a
201.988	0.165	403976	keystroke_n	n	n/a
202.093	0.135	404186	keystroke_Key.space	Key.space	n/a
202.678	0.105	405356	keystroke_g	g	n/a
202.7685	0.134	405537	keystroke_a	a	n/a
202.993	0.1045	405986	keystroke_m	m	n/a
203.533	0.1345	407066	keystroke_s	s	n/a
203.9525	0.15	407905	keystroke_Key.backspace	Key.backspace	n/a
204.148	0.1645	408296	keystroke_e	e	n/a
204.552	0.121	409104	keystroke_s	s	n/a
204.8525	0.1655	409705	keystroke_t	t	n/a
205.482	0.121	410964	keystroke_Key.backspace	Key.backspace	n/a
205.978	0.1505	411956	keystroke_p	p	n/a
206.2335	0.1345	412467	keystroke_o	o	n/a
206.413	0.15	412826	keystroke_t	t	n/a
206.578	0.12	413156	keystroke_Key.space	Key.space	n/a
206.893	0.255	413786	keystroke_p	p	n/a
207.043	0.15	414086	keystroke_o	o	n/a
207.1935	0.1045	414387	keystroke_s	s	n/a
207.4635	0.119	414927	keystroke_t	t	n/a
207.5085	0.089	415017	keystroke_i	i	n/a
207.6725	0.1205	415345	keystroke_n	n	n/a
207.748	0.09	415496	keystroke_g	g	n/a
207.8975	0.165	415795	keystroke_s	s	n/a
208.0475	0.0755	416095	keystroke_Key.enter	Key.enter	n/a
208.1285	11.471	416257	prompt	n/a	looksmart actually dominican significantly\n
208.873	0.12	417746	keystroke_l	l	n/a
209.097	0.0615	418194	keystroke_o	o	n/a
209.248	0.105	418496	keystroke_o	o	n/a
209.683	0.135	419366	keystroke_k	k	n/a
209.8775	0.1655	419755	keystroke_s	s	n/a
210.163	0.1355	420326	keystroke_m	m	n/a
210.2835	0.1495	420567	keystroke_a	a	n/a
210.568	0.075	421136	keystroke_r	r	n/a
210.7775	0.0605	421555	keystroke_t	t	n/a
210.8675	0.15	421735	keystroke_Key.space	Key.space	n/a
211.348	0.12	422696	keystroke_a	a	n/a
211.558	0.1645	423116	keystroke_c	c	n/a
212.263	0.135	424526	keystroke_t	t	n/a
212.4135	0.1195	424827	keystroke_u	u	n/a
212.5625	0.165	425125	keystroke_a	a	n/a
212.683	0.06	425366	keystroke_l	l	n/a
212.8175	0.0605	425635	keystroke_l	l	n/a
213.0575	0.18	426115	keystroke_y	y	n/a
213.1475	0.12	426295	keystroke_Key.space	Key.space	n/a
213.343	0.165	426686	keystroke_d	d	n/a
213.5225	0.1205	427045	keystroke_o	o	n/a
213.8085	0.134	427617	keystroke_m	m	n/a
214.0625	0.076	428125	keystroke_i	i	n/a
214.2425	0.1055	428485	keystroke_n	n	n/a
214.468	0.119	428936	keystroke_i	i	n/a
214.648	0.135	429296	keystroke_c	c	n/a
214.7985	0.1645	429597	keystroke_a	a	n/a
214.978	0.21	429956	keystroke_l	l	n/a
215.563	0.12	431126	keystroke_Key.backspace	Key.backspace	n/a
215.923	0.165	431846	keystroke_n	n	n/a
216.088	0.165	432176	keystroke_Key.space	Key.space	n/a
217.4975	0.1205	434995	keystroke_s	s	n/a
217.6335	0.1485	435267	keystroke_i	i	n/a
217.843	0.149	435686	keystroke_g	g	n/a
218.008	0.074	436016	keystroke_n	n	n/a
218.187	0.15	436374	keystroke_i	i	n/a
218.427	0.121	436854	keystroke_f	f	n/a
218.5325	0.1055	437065	keystroke_i	i	n/a
218.7425	0.1205	437485	keystroke_c	c	n/a
218.818	0.2095	437636	keystroke_a	a	n/a
218.9825	0.105	437965	keystroke_n	n	n/a
219.1925	0.09	438385	keystroke_t	t	n/a
219.253	0.1195	438506	keystroke_l	l	n/a
219.418	0.075	438836	keystroke_y	y	n/a
219.523	0.0745	439046	keystroke_Key.enter	Key.enter	n/a
219.604	6.671	439208	prompt	n/a	needn't helps lamps click\n
220.288	0.1195	440576	keystroke_n	n	n/a
220.4525	0.105	440905	keystroke_e	e	n/a
220.6325	0.166	441265	keystroke_e	e	n/a
220.7835	0.179	441567	keystroke_d	d	n/a
220.9335	0.1345	441867	keystroke_n	n	n/a
221.368	0.164	442736	keystroke_'	'	n/a
221.503	0.15	443006	keystroke_t	t	n/a
221.668	0.09	443336	keystroke_Key.space	Key.space	n/a
222.1775	0.1055	444355	keystroke_h	h	n/a
222.298	0.1345	444596	keystroke_e	e	n/a
222.4175	0.0905	444835	keystroke_l	l	n/a
222.7175	0.1655	445435	keystroke_s	s	n/a
222.808	0.135	445616	keystroke_Key.space	Key.space	n/a
223.243	0.09	446486	keystroke_Key.backspace	Key.backspace	n/a
223.423	0.119	446846	keystroke_Key.backspace	Key.backspace	n/a
223.678	0.165	447356	keystroke_p	p	n/a
223.8725	0.1655	447745	keystroke_s	s	n/a
223.992	0.09	447984	keystroke_Key.space	Key.space	n/a
224.188	0.12	448376	keystroke_l	l	n/a
224.278	0.18	448556	keystroke_a	a	n/a
224.683	0.12	449366	keystroke_m	m	n/a
224.923	0.134	449846	keystroke_o	o	n/a
225.0275	0.166	450055	keystroke_s	s	n/a
225.177	0.091	450354	keystroke_Key.space	Key.space	n/a
225.463	0.165	450926	keystroke_c	c	n/a
225.523	0.075	451046	keystroke_l	l	n/a
225.7035	0.1045	451407	keystroke_i	i	n/a
225.809	0.134	451618	keystroke_c	c	n/a
225.913	0.135	451826	keystroke_k	k	n/a
226.198	0.0745	452396	keystroke_Key.enter	Key.enter	n/a
226.282	12.0525	452564	prompt	n/a	supplied efficient referenced rise\n
227.233	0.09	454466	keystroke_s	s	n/a
227.2935	0.1045	454587	keystroke_u	u	n/a
227.608	0.0605	455216	keystroke_p	p	n/a
227.757	0.075	455514	keystroke_p	p	n/a
227.937	0.091	455874	keystroke_l	l	n/a
228.1475	0.1355	456295	keystroke_i	i	n/a
228.2675	0.1955	456535	keystroke_e	e	n/a
228.418	0.12	456836	keystroke_d	d	n/a
229.003	0.12	458006	keystroke_Key.space	Key.space	n/a
229.272	0.1515	458544	keystroke_e	e	n/a
229.512	0.1055	459024	keystroke_f	f	n/a
229.678	0.134	459356	keystroke_f	f	n/a
229.767	0.106	459534	keystroke_i	i	n/a
230.008	0.179	460016	keystroke_c	c	n/a
230.128	0.12	460256	keystroke_i	i	n/a
230.293	0.15	460586	keystroke_e	e	n/a
230.413	0.09	460826	keystroke_n	n	n/a
230.682	0.136	461364	keystroke_Key.space	Key.space	n/a
231.208	0.12	462416	keystroke_t	t	n/a
231.358	0.1345	462716	keystroke_Key.backspace	Key.backspace	n/a
231.6125	0.1205	463225	keystroke_Key.backspace	Key.backspace	n/a
231.9275	0.135	463855	keystroke_t	t	n/a
232.0775	0.1205	464155	keystroke_Key.space	Key.space	n/a
232.498	0.1805	464996	keystroke_r	r	n/a
232.6185	0.1495	465237	keystroke_e	e	n/a
232.9175	0.166	465835	keystroke_f	f	n/a
233.0685	0.2095	466137	keystroke_e	e	n/a
234.148	0.12	468296	keystroke_r	r	n/a
234.253	0.1645	468506	keystroke_e	e	n/a
234.6735	0.1345	469347	keystroke_n	n	n/a
234.853	0.21	469706	keystroke_c	c	n/a
235.003	0.15	470006	keystroke_e	e	n/a
235.468	0.09	470936	keystroke_s	s	n/a
236.0685	0.089	472137	keystroke_=	=	n/a
236.4875	0.135	472975	keystroke_Key.backspace	Key.backspace	n/a
236.788	0.135	473576	keystroke_Key.backspace	Key.backspace	n/a
237.088	0.1345	474176	keystroke_d	d	n/a
237.208	0.1495	474416	keystroke_Key.space	Key.space	n/a
237.4935	0.105	474987	keystroke_r	r	n/a
237.583	0.1505	475166	keystroke_i	i	n/a
237.7775	0.195	475555	keystroke_s	s	n/a
237.8975	0.165	475795	keystroke_e	e	n/a
238.288	0.045	476576	keystroke_Key.enter	Key.enter	n/a
238.34	7.569	476680	prompt	n/a	gains spain leisure macedonia\n
239.398	0.12	478796	keystroke_g	g	n/a
239.458	0.21	478916	keystroke_a	a	n/a
239.6235	0.1045	479247	keystroke_i	i	n/a
239.818	0.1055	479636	keystroke_n	n	n/a
239.9375	0.135	479875	keystroke_s	s	n/a
240.0575	0.1055	480115	keystroke_Key.space	Key.space	n/a
240.5075	0.1205	481015	keystroke_s	s	n/a
240.613	0.12	481226	keystroke_p	p	n/a
240.763	0.135	481526	keystroke_a	a	n/a
240.883	0.1195	481766	keystroke_i	i	n/a
241.1225	0.181	482245	keystroke_n	n	n/a
241.2425	0.1205	482485	keystroke_Key.space	Key.space	n/a
241.5435	0.1345	483087	keystroke_l	l	n/a
241.7835	0.1645	483567	keystroke_e	e	n/a
241.918	0.135	483836	keystroke_i	i	n/a
242.863	0.1345	485726	keystroke_s	s	n/a
243.0125	0.105	486025	keystroke_u	u	n/a
243.1485	0.1345	486297	keystroke_r	r	n/a
243.223	0.18	486446	keystroke_e	e	n/a
243.418	0.15	486836	keystroke_Key.space	Key.space	n/a
244.213	0.15	488426	keystroke_m	m	n/a
244.333	0.135	488666	keystroke_a	a	n/a
244.738	0.1645	489476	keystroke_c	c	n/a
244.9325	0.15	489865	keystroke_e	e	n/a
245.1425	0.1505	490285	keystroke_d	d	n/a
245.2325	0.075	490465	keystroke_o	o	n/a
245.3825	0.076	490765	keystroke_n	n	n/a
245.518	0.105	491036	keystroke_i	i	n/a
245.608	0.1495	491216	keystroke_a	a	n/a
245.8775	0.03	491755	keystroke_Key.enter	Key.enter	n/a
245.912	5.6825	491824	prompt	n/a	tomorrow scene madness launches\n
246.8235	0.1495	493647	keystroke_t	t	n/a
246.9425	0.105	493885	keystroke_o	o	n/a
247.1685	0.0895	494337	keystroke_m	m	n/a
247.3325	0.1205	494665	keystroke_o	o	n/a
247.4535	0.0595	494907	keystroke_r	r	n/a
247.588	0.12	495176	keystroke_r	r	n/a
247.708	0.09	495416	keystroke_o	o	n/a
247.813	0.1495	495626	keystroke_w	w	n/a
247.933	0.1045	495866	keystroke_Key.space	Key.space	n/a
248.173	0.1355	496346	keystroke_s	s	n/a
248.4585	0.1335	496917	keystroke_c	c	n/a
248.6225	0.1355	497245	keystroke_e	e	n/a
248.743	0.105	497486	keystroke_n	n	n/a
248.833	0.15	497666	keystroke_e	e	n/a
248.998	0.074	497996	keystroke_Key.space	Key.space	n/a
249.193	0.12	498386	keystroke_m	m	n/a
249.283	0.105	498566	keystroke_a	a	n/a
249.4485	0.1795	498897	keystroke_d	d	n/a
249.748	0.12	499496	keystroke_n	n	n/a
249.852	0.106	499704	keystroke_e	e	n/a
250.0635	0.045	500127	keystroke_s	s	n/a
250.2275	0.09	500455	keystroke_s	s	n/a
250.2875	0.0905	500575	keystroke_Key.space	Key.space	n/a
250.453	0.1055	500906	keystroke_l	l	n/a
250.5285	0.149	501057	keystroke_a	a	n/a
250.6925	0.076	501385	keystroke_u	u	n/a
250.8735	0.12	501747	keystroke_n	n	n/a
250.9625	0.181	501925	keystroke_c	c	n/a
251.1135	0.105	502227	keystroke_h	h	n/a
251.2335	0.12	502467	keystroke_e	e	n/a
251.4135	0.1195	502827	keystroke_s	s	n/a
251.518	0.075	503036	keystroke_Key.enter	Key.enter	n/a
251.601	7.8985	503202	prompt	n/a	numerous jokes enzyme cash\n
252.5235	0.104	505047	keystroke_n	n	n/a
252.748	0.075	505496	keystroke_u	u	n/a
252.9735	0.12	505947	keystroke_m	m	n/a
253.273	0.135	506546	keystroke_e	e	n/a
253.5285	0.105	507057	keystroke_r	r	n/a
253.5885	0.2095	507177	keystroke_o	o	n/a
253.723	0.135	507446	keystroke_u	u	n/a
253.828	0.18	507656	keystroke_s	s	n/a
253.963	0.075	507926	keystroke_Key.space	Key.space	n/a
254.3085	0.0895	508617	keystroke_o	o	n/a
254.503	0.0905	509006	keystroke_k	k	n/a
254.608	0.105	509216	keystroke_e	e	n/a
254.818	0.105	509636	keystroke_s	s	n/a
254.893	0.104	509786	keystroke_Key.space	Key.space	n/a
255.043	0.1505	510086	keystroke_e	e	n/a
255.148	0.12	510296	keystroke_n	n	n/a
255.448	0.0745	510896	keystroke_h	h	n/a
256.078	0.134	512156	keystroke_Key.backspace	Key.backspace	n/a
256.3925	0.2255	512785	keystroke_z	z	n/a
256.753	0.1355	513506	keystroke_y	y	n/a
257.7425	0.166	515485	keystroke_m	m	n/a
258.3425	0.1655	516685	keystroke_e	e	n/a
258.4175	0.15	516835	keystroke_Key.space	Key.space	n/a
258.7175	0.15	517435	keystroke_c	c	n/a
258.8075	0.271	517615	keystroke_a	a	n/a
258.988	0.18	517976	keystroke_s	s	n/a
259.1685	0.089	518337	keystroke_h	h	n/a
259.4375	0.0605	518875	keystroke_Key.enter	Key.enter	n/a
259.505	8.7695	519010	prompt	n/a	congressional grave mesa mumbai\n
260.263	0.1345	520526	keystroke_c	c	n/a
260.3225	0.09	520645	keystroke_o	o	n/a
260.488	0.104	520976	keystroke_n	n	n/a
260.6385	0.194	521277	keystroke_g	g	n/a
260.7585	0.165	521517	keystroke_r	r	n/a
261.7175	0.121	523435	keystroke_e	e	n/a
261.9875	0.09	523975	keystroke_s	s	n/a
262.1825	0.1505	524365	keystroke_s	s	n/a
262.2885	0.1495	524577	keystroke_i	i	n/a
262.378	0.12	524756	keystroke_o	o	n/a
262.5885	0.1045	525177	keystroke_n	n	n/a
262.6625	0.1505	525325	keystroke_a	a	n/a
263.203	0.225	526406	keystroke_l	l	n/a
263.368	0.105	526736	keystroke_Key.space	Key.space	n/a
263.9825	0.105	527965	keystroke_g	g	n/a
264.0725	0.105	528145	keystroke_r	r	n/a
264.298	0.1495	528596	keystroke_a	a	n/a
264.4035	0.105	528807	keystroke_v	v	n/a
264.598	0.15	529196	keystroke_e	e	n/a
264.703	0.09	529406	keystroke_Key.space	Key.space	n/a
264.928	0.1205	529856	keystroke_m	m	n/a
264.988	0.24	529976	keystroke_a	a	n/a
265.678	0.1345	531356	keystroke_Key.backspace	Key.backspace	n/a
265.8435	0.135	531687	keystroke_e	e	n/a
266.158	0.1505	532316	keystroke_s	s	n/a
266.4585	0.1495	532917	keystroke_a	a	n/a
266.5785	0.1335	533157	keystroke_Key.space	Key.space	n/a
266.998	0.135	533996	keystroke_m	m	n/a
267.2685	0.105	534537	keystroke_u	u	n/a
267.4935	0.075	534987	keystroke_m	m	n/a
267.6725	0.1055	535345	keystroke_b	b	n/a
267.793	0.1495	535586	keystroke_a	a	n/a
267.898	0.0895	535796	keystroke_i	i	n/a
268.2125	0.06	536425	keystroke_Key.enter	Key.enter	n/a
268.2795	13.2255	536559	prompt	n/a	liechtenstein achievement failing adjustment\n
270.764	0.001	541528	keystroke_l	l	n/a
270.973	0.135	541946	keystroke_i	i	n/a
271.678	0.1345	543356	keystroke_e	e	n/a
272.083	0.1355	544166	keystroke_c	c	n/a
272.188	0.09	544376	keystroke_h	h	n/a
272.443	0.1345	544886	keystroke_t	t	n/a
272.638	0.1645	545276	keystroke_e	e	n/a
272.7875	0.0755	545575	keystroke_n	n	n/a
272.923	0.1345	545846	keystroke_s	s	n/a
273.0425	0.1955	546085	keystroke_h	h	n/a
273.853	0.15	547706	keystroke_Key.backspace	Key.backspace	n/a
274.018	0.12	548036	keystroke_t	t	n/a
274.2135	0.1195	548427	keystroke_e	e	n/a
274.2875	0.1055	548575	keystroke_i	i	n/a
274.498	0.135	548996	keystroke_n	n	n/a
274.5875	0.105	549175	keystroke_Key.space	Key.space	n/a
275.0975	0.1505	550195	keystroke_a	a	n/a
275.3535	0.104	550707	keystroke_c	c	n/a
275.443	0.1655	550886	keystroke_h	h	n/a
275.5785	0.135	551157	keystroke_i	i	n/a
275.6675	0.1805	551335	keystroke_e	e	n/a
276.748	0.24	553496	keystroke_v	v	n/a
276.943	0.12	553886	keystroke_e	e	n/a
277.048	0.075	554096	keystroke_m	m	n/a
277.138	0.12	554276	keystroke_e	e	n/a
277.2135	0.105	554427	keystroke_n	n	n/a
277.3335	0.1355	554667	keystroke_t	t	n/a
277.5125	0.075	555025	keystroke_Key.space	Key.space	n/a
278.3525	0.12	556705	keystroke_f	f	n/a
278.4585	0.21	556917	keystroke_a	a	n/a
278.5475	0.1055	557095	keystroke_i	i	n/a
278.758	0.0595	557516	keystroke_l	l	n/a
278.938	0.075	557876	keystroke_i	i	n/a
279.103	0.105	558206	keystroke_n	n	n/a
279.193	0.1355	558386	keystroke_g	g	n/a
279.298	0.135	558596	keystroke_Key.space	Key.space	n/a
279.4635	0.1645	558927	keystroke_a	a	n/a
280.063	0.15	560126	keystroke_d	d	n/a
280.228	0.105	560456	keystroke_j	j	n/a
280.408	0.1045	560816	keystroke_u	u	n/a
280.4675	0.1355	560935	keystroke_s	s	n/a
280.738	0.09	561476	keystroke_t	t	n/a
280.873	0.075	561746	keystroke_m	m	n/a
280.948	0.135	561896	keystroke_e	e	n/a
281.053	0.12	562106	keystroke_n	n	n/a
281.143	0.12	562286	keystroke_t	t	n/a
281.413	0.0895	562826	keystroke_Key.enter	Key.enter	n/a
281.509	7.3605	563018	prompt	n/a	voluntary concord treasure phys\n
282.4485	0.12	564897	keystroke_v	v	n/a
282.5085	0.075	565017	keystroke_o	o	n/a
282.6885	0.03	565377	keystroke_l	l	n/a
282.839	0.0745	565678	keystroke_u	u	n/a
283.048	0.1355	566096	keystroke_n	n	n/a
283.1985	0.104	566397	keystroke_t	t	n/a
283.378	0.1655	566756	keystroke_a	a	n/a
283.5125	0.165	567025	keystroke_r	r	n/a
283.6175	0.165	567235	keystroke_y	y	n/a
283.7075	0.12	567415	keystroke_Key.space	Key.space	n/a
283.918	0.1505	567836	keystroke_c	c	n/a
283.9935	0.09	567987	keystroke_o	o	n/a
284.1885	0.1195	568377	keystroke_n	n	n/a
285.028	0.165	570056	keystroke_c	c	n/a
285.178	0.135	570356	keystroke_o	o	n/a
285.4335	0.1045	570867	keystroke_r	r	n/a
285.703	0.165	571406	keystroke_d	d	n/a
285.853	0.119	571706	keystroke_Key.space	Key.space	n/a
286.0785	0.15	572157	keystroke_t	t	n/a
286.2295	0.18	572459	keystroke_r	r	n/a
286.498	0.135	572996	keystroke_e	e	n/a
286.6925	0.1805	573385	keystroke_a	a	n/a
287.098	0.18	574196	keystroke_s	s	n/a
287.263	0.1195	574526	keystroke_u	u	n/a
287.4275	0.12	574855	keystroke_r	r	n/a
287.503	0.1645	575006	keystroke_e	e	n/a
287.6525	0.09	575305	keystroke_Key.space	Key.space	n/a
287.833	0.1045	575666	keystroke_p	p	n/a
288.1475	0.06	576295	keystroke_h	h	n/a
288.313	0.15	576626	keystroke_y	y	n/a
288.4335	0.119	576867	keystroke_s	s	n/a
288.8225	0.045	577645	keystroke_Key.enter	Key.enter	n/a
288.875	5.8745	577750	prompt	n/a	passes alloy might starter\n
289.5135	0.135	579027	keystroke_p	p	n/a
289.633	0.255	579266	keystroke_a	a	n/a
289.813	0.105	579626	keystroke_s	s	n/a
289.993	0.12	579986	keystroke_s	s	n/a
290.232	0.106	580464	keystroke_e	e	n/a
290.413	0.1505	580826	keystroke_s	s	n/a
290.517	0.1205	581034	keystroke_Key.space	Key.space	n/a
290.668	0.195	581336	keystroke_a	a	n/a
290.803	0.075	581606	keystroke_l	l	n/a
290.9835	0.0595	581967	keystroke_l	l	n/a
291.149	0.104	582298	keystroke_o	o	n/a
291.433	0.1195	582866	keystroke_y	y	n/a
291.673	0.09	583346	keystroke_Key.space	Key.space	n/a
292.303	0.12	584606	keystroke_m	m	n/a
292.5135	0.1205	585027	keystroke_i	i	n/a
292.6485	0.12	585297	keystroke_g	g	n/a
292.7535	0.0895	585507	keystroke_h	h	n/a
292.858	0.1355	585716	keystroke_t	t	n/a
292.963	0.09	585926	keystroke_Key.space	Key.space	n/a
293.4725	0.15	586945	keystroke_s	s	n/a
293.5925	0.1505	587185	keystroke_t	t	n/a
293.758	0.166	587516	keystroke_a	a	n/a
293.8625	0.076	587725	keystroke_r	r	n/a
294.0135	0.134	588027	keystroke_t	t	n/a
294.1035	0.2245	588207	keystroke_e	e	n/a
294.2235	0.1345	588447	keystroke_r	r	n/a
294.673	0.074	589346	keystroke_Key.enter	Key.enter	n/a
294.753	12.9285	589506	prompt	n/a	simulation interesting chevrolet tropical\n
295.7235	0.135	591447	keystroke_s	s	n/a
295.7975	0.076	591595	keystroke_i	i	n/a
295.9775	0.076	591955	keystroke_m	m	n/a
296.1735	0.06	592347	keystroke_u	u	n/a
296.383	0.1195	592766	keystroke_l	l	n/a
296.443	0.1045	592886	keystroke_a	a	n/a
296.6685	0.104	593337	keystroke_t	t	n/a
296.7285	0.134	593457	keystroke_i	i	n/a
296.8175	0.106	593635	keystroke_o	o	n/a
297.0575	0.15	594115	keystroke_n	n	n/a
297.1475	0.1055	594295	keystroke_Key.space	Key.space	n/a
297.4175	0.0905	594835	keystroke_i	i	n/a
297.598	0.1345	595196	keystroke_n	n	n/a
297.7175	0.0755	595435	keystroke_t	t	n/a
297.853	0.435	595706	keystroke_e	e	n/a
297.9435	0.2245	595887	keystroke_r	r	n/a
298.348	0.165	596696	keystroke_s	s	n/a
298.5435	0.105	597087	keystroke_t	t	n/a
298.6935	0.0895	597387	keystroke_i	i	n/a
298.8885	0.0745	597777	keystroke_n	n	n/a
298.978	0.1355	597956	keystroke_g	g	n/a
299.053	0.09	598106	keystroke_Key.space	Key.space	n/a
300.643	0.18	601286	keystroke_c	c	n/a
300.898	0.0895	601796	keystroke_h	h	n/a
301.003	0.15	602006	keystroke_e	e	n/a
301.453	0.135	602906	keystroke_v	v	n/a
302.5475	0.135	605095	keystroke_r	r	n/a
302.653	0.0755	605306	keystroke_o	o	n/a
302.8475	0.046	605695	keystroke_k	k	n/a
302.969	0.1195	605938	keystroke_t	t	n/a
303.388	0.12	606776	keystroke_Key.backspace	Key.backspace	n/a
303.583	0.09	607166	keystroke_Key.backspace	Key.backspace	n/a
303.853	0.09	607706	keystroke_k	k	n/a
303.928	0.1505	607856	keystroke_t	t	n/a
304.408	0.09	608816	keystroke_Key.backspace	Key.backspace	n/a
304.5725	0.1205	609145	keystroke_Key.backspace	Key.backspace	n/a
305.158	0.09	610316	keystroke_l	l	n/a
305.3085	0.1205	610617	keystroke_e	e	n/a
305.488	0.12	610976	keystroke_t	t	n/a
305.578	0.12	611156	keystroke_Key.space	Key.space	n/a
305.9085	0.1645	611817	keystroke_t	t	n/a
306.148	0.165	612296	keystroke_r	r	n/a
306.298	0.1355	612596	keystroke_o	o	n/a
306.553	0.106	613106	keystroke_p	p	n/a
306.808	0.135	613616	keystroke_i	i	n/a
306.9575	0.136	613915	keystroke_c	c	n/a
307.0335	0.1645	614067	keystroke_a	a	n/a
307.213	0.045	614426	keystroke_l	l	n/a
307.558	0.1205	615116	keystroke_Key.enter	Key.enter	n/a
307.7005	9.2345	615401	prompt	n/a	imposed holy filter babe\n
309.3435	0.075	618687	keystroke_i	i	n/a
309.509	0.089	619018	keystroke_m	m	n/a
309.703	0.195	619406	keystroke_p	p	n/a
309.823	0.15	619646	keystroke_o	o	n/a
309.8835	0.1945	619767	keystroke_s	s	n/a
310.0475	0.166	620095	keystroke_e	e	n/a
310.5725	0.1655	621145	keystroke_d	d	n/a
310.723	0.09	621446	keystroke_Key.space	Key.space	n/a
310.918	0.106	621836	keystroke_h	h	n/a
311.143	0.105	622286	keystroke_o	o	n/a
311.398	0.015	622796	keystroke_l	l	n/a
311.7285	0.15	623457	keystroke_y	y	n/a
311.7885	0.179	623577	keystroke_Key.space	Key.space	n/a
312.688	0.1355	625376	keystroke_f	f	n/a
312.7785	0.1195	625557	keystroke_i	i	n/a
313.168	0.15	626336	keystroke_l	l	n/a
313.363	0.105	626726	keystroke_t	t	n/a
313.603	0.195	627206	keystroke_e	e	n/a
313.693	0.195	627386	keystroke_r	r	n/a
313.843	0.15	627686	keystroke_Key.space	Key.space	n/a
314.203	0.1055	628406	keystroke_f	f	n/a
314.773	0.1345	629546	keystroke_Key.backspace	Key.backspace	n/a
315.2985	0.105	630597	keystroke_b	b	n/a
315.373	0.181	630746	keystroke_a	a	n/a
315.6125	0.121	631225	keystroke_b	b	n/a
315.9425	0.1055	631885	keystroke_y	y	n/a
316.438	0.12	632876	keystroke_Key.backspace	Key.backspace	n/a
316.5735	0.1195	633147	keystroke_e	e	n/a
316.858	0.0745	633716	keystroke_Key.enter	Key.enter	n/a
316.944	11.631	633888	prompt	n/a	rentals cafe accompanied balloon\n
317.9385	0.1495	635877	keystroke_r	r	n/a
318.0435	0.1645	636087	keystroke_e	e	n/a
318.148	0.105	636296	keystroke_n	n	n/a
318.268	0.09	636536	keystroke_t	t	n/a
318.403	0.1955	636806	keystroke_a	a	n/a
318.509	0.209	637018	keystroke_l	l	n/a
319.063	0.15	638126	keystroke_s	s	n/a
319.243	0.135	638486	keystroke_Key.space	Key.space	n/a
319.5435	0.165	639087	keystroke_c	c	n/a
319.693	0.1505	639386	keystroke_a	a	n/a
320.623	0.18	641246	keystroke_f	f	n/a
320.7285	0.15	641457	keystroke_e	e	n/a
320.8335	0.135	641667	keystroke_Key.space	Key.space	n/a
321.358	0.1355	642716	keystroke_a	a	n/a
321.8085	0.1045	643617	keystroke_c	c	n/a
321.9875	0.1355	643975	keystroke_c	c	n/a
323.489	0.1035	646978	keystroke_o	o	n/a
323.7125	0.106	647425	keystroke_m	m	n/a
323.954	0.1195	647908	keystroke_p	p	n/a
324.119	0.1795	648238	keystroke_a	a	n/a
324.3135	0.09	648627	keystroke_n	n	n/a
324.4935	0.1345	648987	keystroke_i	i	n/a
324.5985	0.1205	649197	keystroke_e	e	n/a
324.899	0.1345	649798	keystroke_d	d	n/a
325.0625	0.135	650125	keystroke_Key.space	Key.space	n/a
325.723	0.015	651446	keystroke_p	p	n/a
326.098	0.15	652196	keystroke_Key.backspace	Key.backspace	n/a
326.2635	0.0895	652527	keystroke_b	b	n/a
326.4585	0.165	652917	keystroke_a	a	n/a
326.5935	0.0595	653187	keystroke_l	l	n/a
326.7285	0.12	653457	keystroke_l	l	n/a
327.0135	0.075	654027	keystroke_o	o	n/a
327.1645	0.0885	654329	keystroke_o	o	n/a
327.3425	0.106	654685	keystroke_n	n	n/a
328.513	0.0595	657026	keystroke_Key.enter	Key.enter	n/a
328.5805	9.9545	657161	prompt	n/a	toolkit mysterious character notion\n
330.193	0.121	660386	keystroke_t	t	n/a
330.2985	0.075	660597	keystroke_o	o	n/a
330.448	0.06	660896	keystroke_o	o	n/a
330.643	0.076	661286	keystroke_l	l	n/a
331.093	0.09	662186	keystroke_k	k	n/a
331.2725	0.121	662545	keystroke_i	i	n/a
331.514	0.1195	663028	keystroke_t	t	n/a
331.6025	0.135	663205	keystroke_Key.space	Key.space	n/a
332.2635	0.1495	664527	keystroke_m	m	n/a
332.5935	0.1355	665187	keystroke_y	y	n/a
332.699	0.105	665398	keystroke_s	s	n/a
332.909	0.0885	665818	keystroke_t	t	n/a
333.0575	0.18	666115	keystroke_e	e	n/a
333.1625	0.1215	666325	keystroke_r	r	n/a
333.2685	0.1345	666537	keystroke_i	i	n/a
333.6135	0.135	667227	keystroke_o	o	n/a
333.854	0.1185	667708	keystroke_u	u	n/a
334.0475	0.121	668095	keystroke_s	s	n/a
334.6925	0.106	669385	keystroke_Key.space	Key.space	n/a
335.0835	0.1945	670167	keystroke_c	c	n/a
335.2335	0.104	670467	keystroke_h	h	n/a
335.2925	0.166	670585	keystroke_a	a	n/a
335.5775	0.091	671155	keystroke_r	r	n/a
335.729	0.254	671458	keystroke_a	a	n/a
336.163	0.15	672326	keystroke_c	c	n/a
336.539	0.1045	673078	keystroke_t	t	n/a
336.7635	0.15	673527	keystroke_e	e	n/a
336.8235	0.135	673647	keystroke_r	r	n/a
336.9875	0.106	673975	keystroke_Key.space	Key.space	n/a
337.4085	0.075	674817	keystroke_n	n	n/a
337.5735	0.1945	675147	keystroke_o	o	n/a
337.679	0.1645	675358	keystroke_t	t	n/a
337.7525	0.181	675505	keystroke_i	i	n/a
337.9025	0.091	675805	keystroke_o	o	n/a
338.0975	0.106	676195	keystroke_n	n	n/a
338.4735	0.059	676947	keystroke_Key.enter	Key.enter	n/a
338.5475	7.142	677095	prompt	n/a	headlines ward party sudan\n
339.344	0.1045	678688	keystroke_h	h	n/a
339.4035	0.135	678807	keystroke_e	e	n/a
339.6135	0.195	679227	keystroke_a	a	n/a
339.7635	0.135	679527	keystroke_d	d	n/a
339.9735	0.0895	679947	keystroke_l	l	n/a
340.1835	0.0595	680367	keystroke_i	i	n/a
340.334	0.104	680668	keystroke_n	n	n/a
340.439	0.089	680878	keystroke_e	e	n/a
340.5885	0.1655	681177	keystroke_s	s	n/a
340.738	0.0905	681476	keystroke_Key.space	Key.space	n/a
340.9795	0.1195	681959	keystroke_w	w	n/a
341.1585	0.15	682317	keystroke_a	a	n/a
341.3535	0.1195	682707	keystroke_r	r	n/a
341.639	0.164	683278	keystroke_d	d	n/a
341.788	0.1055	683576	keystroke_Key.space	Key.space	n/a
342.2385	0.135	684477	keystroke_p	p	n/a
342.553	0.2095	685106	keystroke_a	a	n/a
342.8385	0.1795	685677	keystroke_r	r	n/a
343.108	0.1505	686216	keystroke_t	t	n/a
343.828	0.151	687656	keystroke_y	y	n/a
344.053	0.135	688106	keystroke_Key.space	Key.space	n/a
344.4135	0.195	688827	keystroke_s	s	n/a
344.533	0.1505	689066	keystroke_u	u	n/a
344.743	0.196	689486	keystroke_d	d	n/a
344.9835	0.21	689967	keystroke_a	a	n/a
345.1635	0.135	690327	keystroke_n	n	n/a
345.6135	0.0745	691227	keystroke_Key.enter	Key.enter	n/a
345.6955	7.539	691391	prompt	n/a	climbing concord user details\n
346.5885	0.15	693177	keystroke_c	c	n/a
346.6635	0.12	693327	keystroke_l	l	n/a
346.889	0.075	693778	keystroke_i	i	n/a
347.0985	0.0755	694197	keystroke_m	m	n/a
347.338	0.0905	694676	keystroke_b	b	n/a
347.5325	0.09	695065	keystroke_i	i	n/a
347.7275	0.06	695455	keystroke_n	n	n/a
347.789	0.149	695578	keystroke_g	g	n/a
347.908	0.1045	695816	keystroke_Key.space	Key.space	n/a
348.2685	0.165	696537	keystroke_c	c	n/a
348.3285	0.089	696657	keystroke_o	o	n/a
348.5085	0.1195	697017	keystroke_n	n	n/a
348.583	0.1795	697166	keystroke_c	c	n/a
348.8535	0.12	697707	keystroke_o	o	n/a
349.1675	0.12	698335	keystroke_r	r	n/a
349.408	0.1955	698816	keystroke_d	d	n/a
349.6785	0.135	699357	keystroke_Key.space	Key.space	n/a
350.2485	0.135	700497	keystroke_u	u	n/a
350.3535	0.2105	700707	keystroke_s	s	n/a
350.474	0.24	700948	keystroke_e	e	n/a
350.998	0.135	701996	keystroke_r	r	n/a
351.193	0.105	702386	keystroke_Key.space	Key.space	n/a
351.958	0.18	703916	keystroke_d	d	n/a
352.048	0.18	704096	keystroke_e	e	n/a
352.363	0.09	704726	keystroke_t	t	n/a
352.5585	0.1645	705117	keystroke_a	a	n/a
352.663	0.0905	705326	keystroke_i	i	n/a
352.858	0.1205	705716	keystroke_l	l	n/a
352.963	0.136	705926	keystroke_s	s	n/a
353.158	0.075	706316	keystroke_Key.enter	Key.enter	n/a
353.2385	14.156	706477	prompt	n/a	promo appearing knowledge voyeurweb\n
353.9985	0.1505	707997	keystroke_p	p	n/a
354.3135	0.15	708627	keystroke_r	r	n/a
354.733	0.105	709466	keystroke_o	o	n/a
354.9885	0.075	709977	keystroke_m	m	n/a
355.1685	0.1055	710337	keystroke_o	o	n/a
355.438	0.12	710876	keystroke_Key.space	Key.space	n/a
355.6935	0.1345	711387	keystroke_a	a	n/a
355.873	0.046	711746	keystroke_[	[	n/a
356.0685	0.075	712137	keystroke_[	[	n/a
356.518	0.105	713036	keystroke_Key.backspace	Key.backspace	n/a
356.7135	0.1355	713427	keystroke_Key.backspace	Key.backspace	n/a
356.998	0.0455	713996	keystroke_p	p	n/a
357.118	0.12	714236	keystroke_p	p	n/a
357.9585	0.134	715917	keystroke_e	e	n/a
358.1385	0.18	716277	keystroke_a	a	n/a
358.4835	0.1495	716967	keystroke_r	r	n/a
358.558	0.105	717116	keystroke_i	i	n/a
358.7385	0.105	717477	keystroke_n	n	n/a
358.8285	0.135	717657	keystroke_g	g	n/a
358.9475	0.105	717895	keystroke_Key.space	Key.space	n/a
359.3675	0.106	718735	keystroke_k	k	n/a
359.5935	0.09	719187	keystroke_n	n	n/a
359.8935	0.0155	719787	keystroke_o	o	n/a
359.924	0.1335	719848	keystroke_w	w	n/a
360.2535	0.1045	720507	keystroke_l	l	n/a
360.4625	0.0905	720925	keystroke_e	e	n/a
360.703	0.121	721406	keystroke_d	d	n/a
360.808	0.09	721616	keystroke_g	g	n/a
360.944	0.149	721888	keystroke_e	e	n/a
361.078	0.0905	722156	keystroke_Key.space	Key.space	n/a
362.4875	0.0755	724975	keystroke_v	v	n/a
362.578	0.135	725156	keystroke_o	o	n/a
362.8775	0.1355	725755	keystroke_y	y	n/a
364.573	0.1205	729146	keystroke_e	e	n/a
365.1885	0.045	730377	keystroke_u	u	n/a
365.549	0.105	731098	keystroke_r	r	n/a
366.508	0.196	733016	keystroke_w	w	n/a
366.598	0.1805	733196	keystroke_e	e	n/a
366.913	0.121	733826	keystroke_b	b	n/a
367.3485	0.0445	734697	keystroke_Key.enter	Key.enter	n/a
367.399	7.961	734798	prompt	n/a	advertiser harder monica engineering\n
368.1285	0.1195	736257	keystroke_a	a	n/a
368.368	0.12	736736	keystroke_d	d	n/a
368.669	0.089	737338	keystroke_v	v	n/a
368.774	0.179	737548	keystroke_e	e	n/a
368.863	0.105	737726	keystroke_r	r	n/a
369.0885	0.09	738177	keystroke_t	t	n/a
369.2235	0.12	738447	keystroke_i	i	n/a
369.4035	0.195	738807	keystroke_s	s	n/a
369.5385	0.3	739077	keystroke_e	e	n/a
369.7485	0.18	739497	keystroke_r	r	n/a
369.9735	0.135	739947	keystroke_Key.space	Key.space	n/a
370.6485	0.105	741297	keystroke_h	h	n/a
370.693	0.135	741386	keystroke_a	a	n/a
370.903	0.136	741806	keystroke_r	r	n/a
371.189	0.089	742378	keystroke_d	d	n/a
371.368	0.1805	742736	keystroke_e	e	n/a
371.458	0.135	742916	keystroke_r	r	n/a
371.5635	0.09	743127	keystroke_Key.space	Key.space	n/a
371.758	0.1055	743516	keystroke_m	m	n/a
371.9385	0.075	743877	keystroke_o	o	n/a
372.088	0.1055	744176	keystroke_n	n	n/a
372.2835	0.1045	744567	keystroke_i	i	n/a
372.4635	0.1955	744927	keystroke_c	c	n/a
372.5985	0.1945	745197	keystroke_a	a	n/a
372.7335	0.0895	745467	keystroke_Key.space	Key.space	n/a
373.063	0.151	746126	keystroke_e	e	n/a
373.153	0.135	746306	keystroke_n	n	n/a
373.798	0.1355	747596	keystroke_g	g	n/a
373.873	0.0905	747746	keystroke_i	i	n/a
374.143	0.015	748286	keystroke_n	n	n/a
374.159	0.105	748318	keystroke_e	e	n/a
374.3385	0.2405	748677	keystroke_e	e	n/a
374.4885	0.1495	748977	keystroke_r	r	n/a
374.6535	0.0895	749307	keystroke_i	i	n/a
374.8935	0.0295	749787	keystroke_n	n	n/a
374.9085	0.1205	749817	keystroke_g	g	n/a
375.2985	0.0595	750597	keystroke_Key.enter	Key.enter	n/a
375.365	9.1755	750730	prompt	n/a	inclusive oscar object hardwood\n
376.1835	0.105	752367	keystroke_i	i	n/a
376.3775	0.106	752755	keystroke_n	n	n/a
376.6635	0.1655	753327	keystroke_c	c	n/a
376.7835	0.06	753567	keystroke_l	l	n/a
376.963	0.105	753926	keystroke_u	u	n/a
377.083	0.135	754166	keystroke_s	s	n/a
377.1885	0.1045	754377	keystroke_i	i	n/a
377.4135	0.165	754827	keystroke_v	v	n/a
377.7135	0.1655	755427	keystroke_e	e	n/a
377.9525	0.12	755905	keystroke_Key.space	Key.space	n/a
378.5385	0.12	757077	keystroke_o	o	n/a
378.6885	0.105	757377	keystroke_r	r	n/a
379.3185	0.0895	758637	keystroke_Key.backspace	Key.backspace	n/a
379.483	0.0905	758966	keystroke_s	s	n/a
379.723	0.1205	759446	keystroke_c	c	n/a
379.888	0.1355	759776	keystroke_a	a	n/a
380.203	0.15	760406	keystroke_r	r	n/a
380.338	0.12	760676	keystroke_Key.space	Key.space	n/a
380.8035	0.105	761607	keystroke_o	o	n/a
381.0435	0.12	762087	keystroke_b	b	n/a
381.374	0.1345	762748	keystroke_j	j	n/a
381.539	0.1345	763078	keystroke_e	e	n/a
381.8225	0.1365	763645	keystroke_c	c	n/a
382.1225	0.151	764245	keystroke_t	t	n/a
382.2125	0.105	764425	keystroke_Key.space	Key.space	n/a
382.393	0.1045	764786	keystroke_h	h	n/a
382.5125	0.121	765025	keystroke_a	a	n/a
382.6635	0.135	765327	keystroke_r	r	n/a
382.9175	0.1205	765835	keystroke_d	d	n/a
383.263	0.1655	766526	keystroke_w	w	n/a
383.413	0.0605	766826	keystroke_o	o	n/a
383.789	0.104	767578	keystroke_o	o	n/a
384.1335	0.1505	768267	keystroke_d	d	n/a
384.4785	0.06	768957	keystroke_Key.enter	Key.enter	n/a
384.554	10.2905	769108	prompt	n/a	encountered mode agreements forth\n
385.2885	0.165	770577	keystroke_e	e	n/a
385.4385	0.105	770877	keystroke_n	n	n/a
385.9625	0.12	771925	keystroke_c	c	n/a
386.9385	0.18	773877	keystroke_o	o	n/a
387.0585	0.105	774117	keystroke_u	u	n/a
387.2975	0.121	774595	keystroke_n	n	n/a
387.448	0.0455	774896	keystroke_t	t	n/a
387.5985	0.179	775197	keystroke_e	e	n/a
387.7025	0.241	775405	keystroke_r	r	n/a
387.8535	0.165	775707	keystroke_e	e	n/a
388.1985	0.1655	776397	keystroke_d	d	n/a
388.3785	0.06	776757	keystroke_Key.space	Key.space	n/a
388.588	0.075	777176	keystroke_m	m	n/a
388.768	0.105	777536	keystroke_o	o	n/a
388.888	0.21	777776	keystroke_d	d	n/a
389.039	0.209	778078	keystroke_e	e	n/a
389.263	0.1505	778526	keystroke_Key.space	Key.space	n/a
389.4285	0.1795	778857	keystroke_a	a	n/a
389.729	0.12	779458	keystroke_d	d	n/a
390.043	0.1055	780086	keystroke_Key.backspace	Key.backspace	n/a
390.163	0.1655	780326	keystroke_g	g	n/a
390.299	0.149	780598	keystroke_r	r	n/a
390.553	0.105	781106	keystroke_e	e	n/a
390.7635	0.0595	781527	keystroke_w	w	n/a
390.9885	0.165	781977	keystroke_w	w	n/a
391.093	0.0605	782186	keystroke_m	m	n/a
391.2435	0.12	782487	keystroke_n	n	n/a
391.379	0.104	782758	keystroke_t	t	n/a
392.5935	0.135	785187	keystroke_t	t	n/a
392.909	0.149	785818	keystroke_s	s	n/a
393.013	0.135	786026	keystroke_Key.space	Key.space	n/a
393.7635	0.15	787527	keystroke_f	f	n/a
393.8985	0.12	787797	keystroke_o	o	n/a
394.2585	0.15	788517	keystroke_r	r	n/a
394.3635	0.18	788727	keystroke_t	t	n/a
394.514	0.0895	789028	keystroke_h	h	n/a
394.768	0.075	789536	keystroke_Key.enter	Key.enter	n/a
394.85	10.2995	789700	prompt	n/a	railroad cave nextel realty\n
395.654	0.105	791308	keystroke_r	r	n/a
395.833	0.1805	791666	keystroke_a	a	n/a
395.968	0.0905	791936	keystroke_i	i	n/a
396.1785	0.1345	792357	keystroke_l	l	n/a
396.4485	0.1045	792897	keystroke_r	r	n/a
396.538	0.1205	793076	keystroke_o	o	n/a
396.703	0.195	793406	keystroke_a	a	n/a
396.8835	0.1505	793767	keystroke_d	d	n/a
397.0185	0.135	794037	keystroke_Key.space	Key.space	n/a
397.4235	0.12	794847	keystroke_c	c	n/a
397.4985	0.1945	794997	keystroke_a	a	n/a
397.8135	0.105	795627	keystroke_b	b	n/a
397.9325	0.166	795865	keystroke_e	e	n/a
398.0835	0.105	796167	keystroke_Key.space	Key.space	n/a
399.5085	0.105	799017	keystroke_Key.backspace	Key.backspace	n/a
399.8085	0.06	799617	keystroke_Key.backspace	Key.backspace	n/a
400.0185	0.12	800037	keystroke_Key.backspace	Key.backspace	n/a
400.8435	0.1505	801687	keystroke_v	v	n/a
400.9485	0.18	801897	keystroke_e	e	n/a
401.068	0.1055	802136	keystroke_Key.space	Key.space	n/a
401.3085	0.1345	802617	keystroke_n	n	n/a
401.3685	0.0905	802737	keystroke_e	e	n/a
401.6385	0.105	803277	keystroke_c	c	n/a
402.0435	0.135	804087	keystroke_Key.backspace	Key.backspace	n/a
402.2675	0.1355	804535	keystroke_x	x	n/a
402.4485	0.12	804897	keystroke_t	t	n/a
402.689	0.134	805378	keystroke_e	e	n/a
402.943	0.135	805886	keystroke_l	l	n/a
403.0035	0.1495	806007	keystroke_Key.space	Key.space	n/a
403.273	0.165	806546	keystroke_r	r	n/a
403.363	0.1655	806726	keystroke_e	e	n/a
403.619	0.1645	807238	keystroke_a	a	n/a
403.7235	0.1355	807447	keystroke_l	l	n/a
404.3985	0.105	808797	keystroke_t	t	n/a
404.699	0.119	809398	keystroke_y	y	n/a
405.0885	0.06	810177	keystroke_Key.enter	Key.enter	n/a
405.1545	12.056	810309	prompt	n/a	surface tribes spreading questionnaire\n
405.989	0.1795	811978	keystroke_s	s	n/a
406.1535	0.135	812307	keystroke_u	u	n/a
406.3035	0.12	812607	keystroke_r	r	n/a
406.708	0.121	813416	keystroke_f	f	n/a
406.844	0.1795	813688	keystroke_a	a	n/a
407.234	0.15	814468	keystroke_e	e	n/a
407.3385	0.15	814677	keystroke_Key.space	Key.space	n/a
407.5635	0.135	815127	keystroke_t	t	n/a
407.6385	0.18	815277	keystroke_r	r	n/a
407.8335	0.12	815667	keystroke_i	i	n/a
408.073	0.106	816146	keystroke_v	v	n/a
408.1335	0.1945	816267	keystroke_e	e	n/a
408.388	0.2105	816776	keystroke_s	s	n/a
408.538	0.12	817076	keystroke_Key.space	Key.space	n/a
409.6335	0.165	819267	keystroke_s	s	n/a
409.7685	0.135	819537	keystroke_p	p	n/a
409.9335	0.136	819867	keystroke_r	r	n/a
409.9925	0.136	819985	keystroke_e	e	n/a
410.234	0.1645	820468	keystroke_a	a	n/a
410.3085	0.18	820617	keystroke_d	d	n/a
410.519	0.09	821038	keystroke_i	i	n/a
410.684	0.0895	821368	keystroke_n	n	n/a
410.7135	0.12	821427	keystroke_g	g	n/a
410.893	0.06	821786	keystroke_Key.space	Key.space	n/a
411.388	0.226	822776	keystroke_q	q	n/a
411.644	0.135	823288	keystroke_u	u	n/a
411.899	0.104	823798	keystroke_e	e	n/a
412.063	0.1505	824126	keystroke_s	s	n/a
412.2885	0.135	824577	keystroke_t	t	n/a
412.394	0.165	824788	keystroke_i	i	n/a
412.4985	0.105	824997	keystroke_o	o	n/a
412.6785	0.1055	825357	keystroke_n	n	n/a
412.7685	0.15	825537	keystroke_a	a	n/a
412.8885	0.06	825777	keystroke_n	n	n/a
413.0235	0.059	826047	keystroke_n	n	n/a
413.728	0.0755	827456	keystroke_Key.backspace	Key.backspace	n/a
414.1635	0.1195	828327	keystroke_Key.backspace	Key.backspace	n/a
414.568	0.1205	829136	keystroke_Key.backspace	Key.backspace	n/a
414.898	0.1355	829796	keystroke_n	n	n/a
415.0485	0.135	830097	keystroke_a	a	n/a
415.2435	0.15	830487	keystroke_r	r	n/a
415.3035	0.1195	830607	keystroke_i	i	n/a
416.2185	0.09	832437	keystroke_Key.backspace	Key.backspace	n/a
416.3835	0.135	832767	keystroke_Key.backspace	Key.backspace	n/a
416.6535	0.1355	833307	keystroke_i	i	n/a
416.773	0.151	833546	keystroke_r	r	n/a
416.8635	0.1355	833727	keystroke_e	e	n/a
417.1485	0.0595	834297	keystroke_Key.enter	Key.enter	n/a
417.216	13.524	834432	prompt	n/a	organ ceiling rehabilitation evaluate\n
418.2885	0.105	836577	keystroke_o	o	n/a
418.4835	0.1355	836967	keystroke_r	r	n/a
418.709	0.12	837418	keystroke_g	g	n/a
418.859	0.18	837718	keystroke_a	a	n/a
419.024	0.165	838048	keystroke_n	n	n/a
419.1285	0.1495	838257	keystroke_Key.space	Key.space	n/a
419.383	0.196	838766	keystroke_c	c	n/a
419.623	0.135	839246	keystroke_e	e	n/a
419.713	0.1355	839426	keystroke_i	i	n/a
419.999	0.134	839998	keystroke_l	l	n/a
420.3435	0.12	840687	keystroke_i	i	n/a
420.5535	0.105	841107	keystroke_n	n	n/a
421.859	0.1345	843718	keystroke_g	g	n/a
421.9785	0.12	843957	keystroke_Key.space	Key.space	n/a
422.878	0.106	845756	keystroke_r	r	n/a
422.909	0.15	845818	keystroke_e	e	n/a
423.088	0.1055	846176	keystroke_h	h	n/a
423.209	0.1495	846418	keystroke_a	a	n/a
423.4935	0.09	846987	keystroke_b	b	n/a
423.6735	0.075	847347	keystroke_i	i	n/a
423.8695	0.074	847739	keystroke_l	l	n/a
424.0635	0.105	848127	keystroke_i	i	n/a
424.1835	0.105	848367	keystroke_t	t	n/a
424.3635	0.12	848727	keystroke_a	a	n/a
424.5735	0.15	849147	keystroke_t	t	n/a
424.6485	0.15	849297	keystroke_i	i	n/a
424.7245	0.1195	849449	keystroke_o	o	n/a
424.9635	0.135	849927	keystroke_n	n	n/a
425.0375	0.121	850075	keystroke_Key.space	Key.space	n/a
425.2035	0.1655	850407	keystroke_e	e	n/a
425.384	0.165	850768	keystroke_v	v	n/a
425.5335	0.195	851067	keystroke_a	a	n/a
425.954	0.045	851908	keystroke_u	u	n/a
426.3435	0.12	852687	keystroke_Key.backspace	Key.backspace	n/a
426.5835	0.135	853167	keystroke_k	k	n/a
426.839	0.0745	853678	keystroke_a	a	n/a
427.2285	0.105	854457	keystroke_Key.backspace	Key.backspace	n/a
427.438	0.1205	854876	keystroke_Key.backspace	Key.backspace	n/a
427.6935	0.1205	855387	keystroke_l	l	n/a
427.9635	0.09	855927	keystroke_u	u	n/a
428.1735	0.135	856347	keystroke_a	a	n/a
428.4135	0.09	856827	keystroke_t	t	n/a
428.6385	0.18	857277	keystroke_e	e	n/a
428.803	0.046	857606	keystroke_d	d	n/a
429.2835	0.1045	858567	keystroke_Key.backspace	Key.backspace	n/a
430.663	0.075	861326	keystroke_Key.enter	Key.enter	n/a
430.7465	9.0535	861493	prompt	n/a	cyprus nominations heath along\n
431.909	0.1645	863818	keystroke_c	c	n/a
432.1935	0.105	864387	keystroke_y	y	n/a
432.5535	0.09	865107	keystroke_p	p	n/a
432.7035	0.106	865407	keystroke_r	r	n/a
432.794	0.1345	865588	keystroke_i	i	n/a
433.244	0.1045	866488	keystroke_Key.backspace	Key.backspace	n/a
433.5135	0.1505	867027	keystroke_u	u	n/a
433.664	0.1495	867328	keystroke_s	s	n/a
433.7985	0.12	867597	keystroke_Key.space	Key.space	n/a
434.414	0.1045	868828	keystroke_n	n	n/a
434.609	0.09	869218	keystroke_o	o	n/a
434.804	0.06	869608	keystroke_m	m	n/a
434.983	0.0765	869966	keystroke_i	i	n/a
435.178	0.121	870356	keystroke_n	n	n/a
435.314	0.1195	870628	keystroke_a	a	n/a
435.6885	0.15	871377	keystroke_i	i	n/a
436.1535	0.135	872307	keystroke_Key.backspace	Key.backspace	n/a
437.2635	0.1505	874527	keystroke_t	t	n/a
437.354	0.164	874708	keystroke_i	i	n/a
437.4435	0.105	874887	keystroke_o	o	n/a
437.6535	0.15	875307	keystroke_n	n	n/a
437.759	0.1345	875518	keystroke_s	s	n/a
437.8935	0.105	875787	keystroke_Key.space	Key.space	n/a
438.163	0.1205	876326	keystroke_h	h	n/a
438.2685	0.1345	876537	keystroke_e	e	n/a
438.4485	0.1505	876897	keystroke_a	a	n/a
438.569	0.0745	877138	keystroke_l	l	n/a
438.7635	0.12	877527	keystroke_t	t	n/a
438.809	0.1495	877618	keystroke_h	h	n/a
438.8985	0.105	877797	keystroke_Key.space	Key.space	n/a
439.0335	0.15	878067	keystroke_a	a	n/a
439.124	0.0745	878248	keystroke_l	l	n/a
439.3035	0.06	878607	keystroke_o	o	n/a
439.4535	0.0895	878907	keystroke_n	n	n/a
439.528	0.106	879056	keystroke_g	g	n/a
439.723	0.075	879446	keystroke_Key.enter	Key.enter	n/a
439.804	10.481	879608	prompt	n/a	removing astronomy congratulations doug\n
440.6385	0.15	881277	keystroke_r	r	n/a
440.714	0.1645	881428	keystroke_e	e	n/a
440.8335	0.1055	881667	keystroke_m	m	n/a
441.0735	0.12	882147	keystroke_o	o	n/a
441.284	0.1345	882568	keystroke_v	v	n/a
441.3885	0.09	882777	keystroke_i	i	n/a
441.5535	0.1055	883107	keystroke_n	n	n/a
441.6435	0.1655	883287	keystroke_g	g	n/a
441.7935	0.105	883587	keystroke_Key.space	Key.space	n/a
442.499	0.1495	884998	keystroke_a	a	n/a
442.7075	0.136	885415	keystroke_s	s	n/a
442.994	0.15	885988	keystroke_t	t	n/a
443.069	0.165	886138	keystroke_r	r	n/a
443.174	0.09	886348	keystroke_o	o	n/a
443.398	0.091	886796	keystroke_n	n	n/a
443.548	0.09	887096	keystroke_o	o	n/a
443.759	0.06	887518	keystroke_l	l	n/a
444.133	0.0905	888266	keystroke_Key.backspace	Key.backspace	n/a
444.3585	0.1355	888717	keystroke_m	m	n/a
444.7045	0.164	889409	keystroke_y	y	n/a
444.8085	0.135	889617	keystroke_Key.space	Key.space	n/a
445.453	0.1355	890906	keystroke_c	c	n/a
445.513	0.076	891026	keystroke_o	o	n/a
445.693	0.09	891386	keystroke_n	n	n/a
445.978	0.105	891956	keystroke_g	g	n/a
446.068	0.12	892136	keystroke_r	r	n/a
446.324	0.075	892648	keystroke_a	a	n/a
446.5035	0.0895	893007	keystroke_t	t	n/a
446.5635	0.0745	893127	keystroke_u	u	n/a
446.759	0.1355	893518	keystroke_l	l	n/a
446.8635	0.1345	893727	keystroke_a	a	n/a
447.059	0.1495	894118	keystroke_t	t	n/a
447.133	0.1505	894266	keystroke_i	i	n/a
447.224	0.1045	894448	keystroke_o	o	n/a
447.4495	0.0735	894899	keystroke_n	n	n/a
447.5085	0.1205	895017	keystroke_s	s	n/a
449.1285	0.0895	898257	keystroke_Key.space	Key.space	n/a
449.638	0.1515	899276	keystroke_d	d	n/a
449.7285	0.1645	899457	keystroke_o	o	n/a
449.8495	0.1345	899699	keystroke_u	u	n/a
450.043	0.105	900086	keystroke_g	g	n/a
450.223	0.06	900446	keystroke_Key.enter	Key.enter	n/a
450.2895	8.5915	900579	prompt	n/a	sensor floral examines balanced\n
451.094	0.134	902188	keystroke_s	s	n/a
451.349	0.18	902698	keystroke_e	e	n/a
451.483	0.121	902966	keystroke_n	n	n/a
452.1145	0.1795	904229	keystroke_s	s	n/a
452.249	0.135	904498	keystroke_o	o	n/a
452.4135	0.1645	904827	keystroke_r	r	n/a
452.533	0.12	905066	keystroke_Key.space	Key.space	n/a
453.1785	0.135	906357	keystroke_f	f	n/a
453.2385	0.09	906477	keystroke_l	l	n/a
453.4335	0.105	906867	keystroke_o	o	n/a
453.5535	0.09	907107	keystroke_r	r	n/a
453.7185	0.15	907437	keystroke_a	a	n/a
453.764	0.2545	907528	keystroke_l	l	n/a
453.9435	0.12	907887	keystroke_Key.space	Key.space	n/a
454.2595	0.12	908519	keystroke_e	e	n/a
454.7685	0.2255	909537	keystroke_x	x	n/a
454.9335	0.21	909867	keystroke_a	a	n/a
455.0985	0.106	910197	keystroke_m	m	n/a
455.309	0.09	910618	keystroke_i	i	n/a
455.4735	0.105	910947	keystroke_n	n	n/a
455.5945	0.089	911189	keystroke_e	e	n/a
455.7585	0.1505	911517	keystroke_s	s	n/a
455.878	0.09	911756	keystroke_Key.space	Key.space	n/a
456.089	0.104	912178	keystroke_b	b	n/a
456.149	0.119	912298	keystroke_a	a	n/a
456.313	0.12	912626	keystroke_l	l	n/a
456.374	0.164	912748	keystroke_a	a	n/a
456.5535	0.105	913107	keystroke_n	n	n/a
456.6885	0.166	913377	keystroke_d	d	n/a
457.858	0.135	915716	keystroke_Key.backspace	Key.backspace	n/a
458.008	0.166	916016	keystroke_c	c	n/a
458.189	0.1495	916378	keystroke_e	e	n/a
458.5645	0.1045	917129	keystroke_d	d	n/a
458.8485	0.03	917697	keystroke_Key.enter	Key.enter	n/a
458.8855	7.0445	917771	prompt	n/a	meet shirts jamaica active\n
459.659	0.135	919318	keystroke_m	m	n/a
459.7785	0.075	919557	keystroke_e	e	n/a
459.9435	0.0905	919887	keystroke_e	e	n/a
460.139	0.105	920278	keystroke_t	t	n/a
460.213	0.121	920426	keystroke_Key.space	Key.space	n/a
460.379	0.135	920758	keystroke_s	s	n/a
460.439	0.149	920878	keystroke_h	h	n/a
460.529	0.15	921058	keystroke_i	i	n/a
460.754	0.165	921508	keystroke_r	r	n/a
461.024	0.105	922048	keystroke_t	t	n/a
461.174	0.1645	922348	keystroke_s	s	n/a
461.308	0.1055	922616	keystroke_Key.space	Key.space	n/a
461.669	0.1195	923338	keystroke_j	j	n/a
461.744	0.18	923488	keystroke_a	a	n/a
462.6435	0.1045	925287	keystroke_m	m	n/a
462.809	0.134	925618	keystroke_a	a	n/a
462.913	0.105	925826	keystroke_i	i	n/a
463.139	0.1195	926278	keystroke_l	l	n/a
463.724	0.104	927448	keystroke_Key.backspace	Key.backspace	n/a
463.8585	0.15	927717	keystroke_c	c	n/a
463.964	0.2095	927928	keystroke_e	e	n/a
464.1435	0.1495	928287	keystroke_Key.space	Key.space	n/a
464.5935	0.15	929187	keystroke_a	a	n/a
464.8485	0.1045	929697	keystroke_c	c	n/a
465.1335	0.105	930267	keystroke_t	t	n/a
465.2235	0.105	930447	keystroke_i	i	n/a
465.5085	0.1505	931017	keystroke_v	v	n/a
465.5545	0.195	931109	keystroke_e	e	n/a
465.8685	0.06	931737	keystroke_Key.enter	Key.enter	n/a
465.935	8.2455	931870	prompt	n/a	stayed broken airplane mega\n
467.324	0.1195	934648	keystroke_s	s	n/a
467.4135	0.12	934827	keystroke_t	t	n/a
467.519	0.1505	935038	keystroke_a	a	n/a
468.3135	0.105	936627	keystroke_y	y	n/a
468.4035	0.1655	936807	keystroke_e	e	n/a
468.584	0.15	937168	keystroke_d	d	n/a
468.7635	0.0895	937527	keystroke_Key.space	Key.space	n/a
468.943	0.12	937886	keystroke_b	b	n/a
469.078	0.1215	938156	keystroke_r	r	n/a
469.169	0.134	938338	keystroke_o	o	n/a
469.349	0.12	938698	keystroke_k	k	n/a
469.7085	0.151	939417	keystroke_e	e	n/a
469.828	0.166	939656	keystroke_n	n	n/a
469.934	0.119	939868	keystroke_Key.space	Key.space	n/a
470.4435	0.165	940887	keystroke_a	a	n/a
470.5935	0.106	941187	keystroke_i	i	n/a
471.3135	0.105	942627	keystroke_r	r	n/a
471.4635	0.121	942927	keystroke_p	p	n/a
471.7035	0.105	943407	keystroke_l	l	n/a
471.8385	0.1955	943677	keystroke_a	a	n/a
472.0935	0.1205	944187	keystroke_v	v	n/a
472.2735	0.15	944547	keystroke_e	e	n/a
472.3635	0.105	944727	keystroke_Key.space	Key.space	n/a
472.6045	0.134	945209	keystroke_m	m	n/a
472.7085	0.15	945417	keystroke_e	e	n/a
473.7285	0.0895	947457	keystroke_g	g	n/a
473.849	0.12	947698	keystroke_a	a	n/a
474.1335	0.0445	948267	keystroke_Key.enter	Key.enter	n/a
474.1855	9.7145	948371	prompt	n/a	asylum warranties diving usgs\n
474.913	0.1505	949826	keystroke_a	a	n/a
475.2135	0.105	950427	keystroke_y	y	n/a
476.0385	0.15	952077	keystroke_Key.backspace	Key.backspace	n/a
476.309	0.1805	952618	keystroke_s	s	n/a
476.4435	0.135	952887	keystroke_y	y	n/a
477.478	0.076	954956	keystroke_l	l	n/a
477.7635	0.0755	955527	keystroke_u	u	n/a
478.0485	0.2555	956097	keystroke_m	m	n/a
478.1985	0.12	956397	keystroke_Key.space	Key.space	n/a
478.814	0.1355	957628	keystroke_w	w	n/a
479.0385	0.12	958077	keystroke_a	a	n/a
479.264	0.0905	958528	keystroke_r	r	n/a
479.414	0.136	958828	keystroke_r	r	n/a
479.534	0.194	959068	keystroke_a	a	n/a
479.698	0.12	959396	keystroke_n	n	n/a
479.7885	0.1355	959577	keystroke_t	t	n/a
479.909	0.12	959818	keystroke_i	i	n/a
480.014	0.15	960028	keystroke_e	e	n/a
480.285	0.1485	960570	keystroke_s	s	n/a
480.763	0.15	961526	keystroke_Key.space	Key.space	n/a
481.484	0.12	962968	keystroke_d	d	n/a
481.619	0.135	963238	keystroke_i	i	n/a
481.798	0.1355	963596	keystroke_v	v	n/a
481.8895	0.09	963779	keystroke_i	i	n/a
482.0835	0.075	964167	keystroke_n	n	n/a
482.1735	0.12	964347	keystroke_g	g	n/a
482.294	0.1645	964588	keystroke_Key.space	Key.space	n/a
482.8345	0.12	965669	keystroke_u	u	n/a
483.1185	0.1805	966237	keystroke_s	s	n/a
483.4635	0.091	966927	keystroke_g	g	n/a
483.5395	0.0895	967079	keystroke_s	s	n/a
483.8535	0.045	967707	keystroke_Key.enter	Key.enter	n/a
483.905	8.935	967810	prompt	n/a	medicines phases childrens tokyo\n
484.919	0.135	969838	keystroke_m	m	n/a
485.039	0.135	970078	keystroke_e	e	n/a
485.324	0.1355	970648	keystroke_d	d	n/a
485.444	0.1345	970888	keystroke_i	i	n/a
485.8035	0.135	971607	keystroke_c	c	n/a
485.9535	0.15	971907	keystroke_i	i	n/a
486.2985	0.12	972597	keystroke_n	n	n/a
486.4635	0.135	972927	keystroke_e	e	n/a
486.6585	0.166	973317	keystroke_s	s	n/a
486.809	0.1195	973618	keystroke_Key.space	Key.space	n/a
487.049	0.09	974098	keystroke_p	p	n/a
487.3035	0.1205	974607	keystroke_h	h	n/a
487.679	0.2245	975358	keystroke_a	a	n/a
487.829	0.165	975658	keystroke_s	s	n/a
488.1595	0.1035	976319	keystroke_e	e	n/a
488.354	0.1495	976708	keystroke_s	s	n/a
488.474	0.149	976948	keystroke_Key.space	Key.space	n/a
488.759	0.12	977518	keystroke_c	c	n/a
488.834	0.135	977668	keystroke_h	h	n/a
489.164	0.15	978328	keystroke_i	i	n/a
489.449	0.15	978898	keystroke_l	l	n/a
489.584	0.1205	979168	keystroke_d	d	n/a
489.869	0.15	979738	keystroke_r	r	n/a
489.944	0.21	979888	keystroke_e	e	n/a
490.139	0.135	980278	keystroke_n	n	n/a
490.6185	0.165	981237	keystroke_s	s	n/a
490.7685	0.1205	981537	keystroke_Key.space	Key.space	n/a
491.234	0.1345	982468	keystroke_t	t	n/a
491.3535	0.1205	982707	keystroke_o	o	n/a
491.729	0.135	983458	keystroke_k	k	n/a
492.044	0.105	984088	keystroke_y	y	n/a
492.404	0.0905	984808	keystroke_o	o	n/a
492.779	0.059	985558	keystroke_Key.enter	Key.enter	n/a
492.8485	9.6365	985697	prompt	n/a	foundation generation universal jefferson\n
493.843	0.121	987686	keystroke_f	f	n/a
493.9035	0.2095	987807	keystroke_o	o	n/a
494.038	0.105	988076	keystroke_u	u	n/a
494.2785	0.1055	988557	keystroke_n	n	n/a
494.3685	0.106	988737	keystroke_d	d	n/a
494.4285	0.1645	988857	keystroke_a	a	n/a
494.7285	0.15	989457	keystroke_t	t	n/a
494.8045	0.149	989609	keystroke_i	i	n/a
494.8935	0.105	989787	keystroke_o	o	n/a
495.119	0.1805	990238	keystroke_n	n	n/a
495.2235	0.135	990447	keystroke_Key.space	Key.space	n/a
495.7335	0.105	991467	keystroke_g	g	n/a
495.8535	0.0905	991707	keystroke_e	e	n/a
495.9585	0.12	991917	keystroke_n	n	n/a
496.0035	0.1205	992007	keystroke_e	e	n/a
496.3485	0.091	992697	keystroke_t	t	n/a
496.709	0.1345	993418	keystroke_Key.backspace	Key.backspace	n/a
496.8285	0.075	993657	keystroke_r	r	n/a
496.9035	0.136	993807	keystroke_a	a	n/a
497.1135	0.15	994227	keystroke_t	t	n/a
497.219	0.1495	994438	keystroke_i	i	n/a
497.2935	0.12	994587	keystroke_o	o	n/a
497.519	0.0905	995038	keystroke_n	n	n/a
497.714	0.1195	995428	keystroke_Key.space	Key.space	n/a
498.1795	0.0885	996359	keystroke_u	u	n/a
498.359	0.09	996718	keystroke_n	n	n/a
498.524	0.134	997048	keystroke_i	i	n/a
498.704	0.12	997408	keystroke_v	v	n/a
498.943	0.211	997886	keystroke_e	e	n/a
499.049	0.134	998098	keystroke_r	r	n/a
499.335	0.194	998670	keystroke_s	s	n/a
499.499	0.21	998998	keystroke_a	a	n/a
499.514	0.315	999028	keystroke_l	l	n/a
500.249	0.149	1000498	keystroke_Key.space	Key.space	n/a
500.5485	0.136	1001097	keystroke_j	j	n/a
500.6995	0.12	1001399	keystroke_e	e	n/a
501.1485	0.09	1002297	keystroke_f	f	n/a
501.3135	0.0905	1002627	keystroke_f	f	n/a
501.464	0.1945	1002928	keystroke_e	e	n/a
501.569	0.1505	1003138	keystroke_r	r	n/a
501.884	0.225	1003768	keystroke_s	s	n/a
502.019	0.075	1004038	keystroke_o	o	n/a
502.199	0.09	1004398	keystroke_n	n	n/a
502.424	0.06	1004848	keystroke_Key.enter	Key.enter	n/a
502.493	11.063	1004986	prompt	n/a	mike item guest buttons\n
503.1735	0.12	1006347	keystroke_m	m	n/a
503.4135	0.0755	1006827	keystroke_i	i	n/a
503.6385	0.105	1007277	keystroke_l	l	n/a
504.119	0.1045	1008238	keystroke_Key.backspace	Key.backspace	n/a
504.4335	0.1055	1008867	keystroke_k	k	n/a
504.5985	0.151	1009197	keystroke_e	e	n/a
504.6885	0.105	1009377	keystroke_Key.space	Key.space	n/a
504.899	0.09	1009798	keystroke_i	i	n/a
505.004	0.0895	1010008	keystroke_t	t	n/a
505.1695	0.18	1010339	keystroke_e	e	n/a
505.7835	0.0455	1011567	keystroke_,	,	n/a
505.8885	0.1205	1011777	keystroke_Key.space	Key.space	n/a
506.5185	0.0905	1013037	keystroke_Key.backspace	Key.backspace	n/a
506.6835	0.1355	1013367	keystroke_Key.backspace	Key.backspace	n/a
507.314	0.1495	1014628	keystroke_m	m	n/a
507.4185	0.1205	1014837	keystroke_Key.space	Key.space	n/a
507.689	0.1045	1015378	keystroke_g	g	n/a
507.7785	0.09	1015557	keystroke_u	u	n/a
507.8985	0.12	1015797	keystroke_e	e	n/a
508.094	0.1495	1016188	keystroke_s	s	n/a
508.394	0.1655	1016788	keystroke_t	t	n/a
508.5735	0.09	1017147	keystroke_Key.space	Key.space	n/a
509.114	0.1355	1018228	keystroke_u	u	n/a
509.2785	0.075	1018557	keystroke_t	t	n/a
509.429	0.12	1018858	keystroke_t	t	n/a
509.519	0.0605	1019038	keystroke_o	o	n/a
509.669	0.12	1019338	keystroke_n	n	n/a
509.774	0.135	1019548	keystroke_s	s	n/a
510.839	0.075	1021678	keystroke_Key.backspace	Key.backspace	n/a
511.019	0.09	1022038	keystroke_Key.backspace	Key.backspace	n/a
511.2135	0.0745	1022427	keystroke_Key.backspace	Key.backspace	n/a
511.409	0.0895	1022818	keystroke_Key.backspace	Key.backspace	n/a
511.6185	0.1205	1023237	keystroke_Key.backspace	Key.backspace	n/a
511.9635	0.1055	1023927	keystroke_Key.backspace	Key.backspace	n/a
512.519	0.074	1025038	keystroke_b	b	n/a
512.654	0.135	1025308	keystroke_u	u	n/a
512.804	0.06	1025608	keystroke_t	t	n/a
512.954	0.09	1025908	keystroke_t	t	n/a
513.029	0.074	1026058	keystroke_o	o	n/a
513.1635	0.12	1026327	keystroke_n	n	n/a
513.2385	0.135	1026477	keystroke_s	s	n/a
513.5385	0.015	1027077	keystroke_Key.enter	Key.enter	n/a
513.5645	11.2705	1027129	prompt	n/a	efficiency quarterly shadow liability\n
514.349	0.135	1028698	keystroke_e	e	n/a
514.588	0.0905	1029176	keystroke_f	f	n/a
514.7835	0.09	1029567	keystroke_f	f	n/a
514.859	0.1195	1029718	keystroke_i	i	n/a
515.2335	0.1505	1030467	keystroke_c	c	n/a
515.3385	0.105	1030677	keystroke_i	i	n/a
515.4735	0.151	1030947	keystroke_e	e	n/a
515.594	0.1045	1031188	keystroke_n	n	n/a
515.819	0.1795	1031638	keystroke_c	c	n/a
515.9235	0.211	1031847	keystroke_y	y	n/a
516.0435	0.15	1032087	keystroke_Key.space	Key.space	n/a
517.5435	0.1205	1035087	keystroke_q	q	n/a
518.1885	0.12	1036377	keystroke_u	u	n/a
518.609	0.1345	1037218	keystroke_a	a	n/a
518.9245	0.0895	1037849	keystroke_r	r	n/a
519.164	0.06	1038328	keystroke_t	t	n/a
519.284	0.181	1038568	keystroke_e	e	n/a
519.389	0.12	1038778	keystroke_r	r	n/a
519.569	0.1055	1039138	keystroke_l	l	n/a
519.854	0.165	1039708	keystroke_y	y	n/a
519.959	0.1355	1039918	keystroke_Key.space	Key.space	n/a
520.2885	0.12	1040577	keystroke_s	s	n/a
520.3635	0.12	1040727	keystroke_h	h	n/a
520.6185	0.12	1041237	keystroke_o	o	n/a
520.8435	0.136	1041687	keystroke_w	w	n/a
521.249	0.0745	1042498	keystroke_Key.backspace	Key.backspace	n/a
521.4135	0.1045	1042827	keystroke_Key.backspace	Key.backspace	n/a
521.4735	0.1655	1042947	keystroke_a	a	n/a
521.7735	0.15	1043547	keystroke_d	d	n/a
521.8785	0.1045	1043757	keystroke_o	o	n/a
522.103	0.046	1044206	keystroke_w	w	n/a
522.659	0.1195	1045318	keystroke_Key.space	Key.space	n/a
522.9745	0.1045	1045949	keystroke_l	l	n/a
523.1985	0.12	1046397	keystroke_i	i	n/a
523.2885	0.165	1046577	keystroke_a	a	n/a
523.4685	0.12	1046937	keystroke_b	b	n/a
523.6635	0.1205	1047327	keystroke_i	i	n/a
523.9195	0.074	1047839	keystroke_l	l	n/a
524.114	0.09	1048228	keystroke_i	i	n/a
524.2335	0.1205	1048467	keystroke_t	t	n/a
524.339	0.18	1048678	keystroke_y	y	n/a
524.7735	0.06	1049547	keystroke_Key.enter	Key.enter	n/a
524.8445	10.596	1049689	prompt	n/a	promoting arising salvador academic\n
525.9435	0.1355	1051887	keystroke_p	p	n/a
526.0935	0.1355	1052187	keystroke_r	r	n/a
526.244	0.075	1052488	keystroke_o	o	n/a
526.6495	0.0745	1053299	keystroke_m	m	n/a
526.8435	0.091	1053687	keystroke_o	o	n/a
526.9645	0.149	1053929	keystroke_t	t	n/a
527.1445	0.105	1054289	keystroke_i	i	n/a
527.339	0.1045	1054678	keystroke_n	n	n/a
527.4445	0.165	1054889	keystroke_g	g	n/a
527.5935	0.105	1055187	keystroke_Key.space	Key.space	n/a
527.7435	0.1805	1055487	keystroke_a	a	n/a
527.999	0.15	1055998	keystroke_r	r	n/a
528.164	0.165	1056328	keystroke_i	i	n/a
528.331	0.163	1056662	keystroke_s	s	n/a
528.464	0.12	1056928	keystroke_i	i	n/a
528.6895	0.119	1057379	keystroke_n	n	n/a
528.7935	0.15	1057587	keystroke_g	g	n/a
528.9285	0.135	1057857	keystroke_Key.space	Key.space	n/a
529.4845	0.134	1058969	keystroke_s	s	n/a
529.604	0.1195	1059208	keystroke_l	l	n/a
529.8435	0.165	1059687	keystroke_a	a	n/a
530.4135	0.121	1060827	keystroke_v	v	n/a
530.5645	0.2095	1061129	keystroke_a	a	n/a
531.164	0.1645	1062328	keystroke_d	d	n/a
531.3135	0.12	1062627	keystroke_o	o	n/a
531.494	0.1045	1062988	keystroke_r	r	n/a
531.509	0.105	1063018	keystroke_e	e	n/a
533.099	0.12	1066198	keystroke_Key.space	Key.space	n/a
533.354	0.105	1066708	keystroke_a	a	n/a
533.624	0.1355	1067248	keystroke_c	c	n/a
533.7145	0.179	1067429	keystroke_a	a	n/a
534.4195	0.105	1068839	keystroke_d	d	n/a
534.6445	0.149	1069289	keystroke_e	e	n/a
534.7785	0.1055	1069557	keystroke_m	m	n/a
535.0335	0.106	1070067	keystroke_i	i	n/a
535.109	0.12	1070218	keystroke_c	c	n/a
535.379	0.0595	1070758	keystroke_Key.enter	Key.enter	n/a
535.449	8.3765	1070898	prompt	n/a	idol collaborative reforms deck\n
536.3235	0.15	1072647	keystroke_i	i	n/a
536.743	0.121	1073486	keystroke_d	d	n/a
536.804	0.075	1073608	keystroke_o	o	n/a
536.984	0.18	1073968	keystroke_l	l	n/a
537.089	0.104	1074178	keystroke_Key.space	Key.space	n/a
537.5535	0.1505	1075107	keystroke_c	c	n/a
537.6445	0.1045	1075289	keystroke_o	o	n/a
537.869	0.0605	1075738	keystroke_l	l	n/a
538.0195	0.1195	1076039	keystroke_l	l	n/a
538.154	0.15	1076308	keystroke_a	a	n/a
538.319	0.1055	1076638	keystroke_b	b	n/a
538.544	0.135	1077088	keystroke_o	o	n/a
538.7235	0.091	1077447	keystroke_r	r	n/a
538.8595	0.18	1077719	keystroke_a	a	n/a
539.279	0.18	1078558	keystroke_t	t	n/a
539.444	0.135	1078888	keystroke_i	i	n/a
539.804	0.0895	1079608	keystroke_v	v	n/a
539.8635	0.225	1079727	keystroke_e	e	n/a
540.254	0.149	1080508	keystroke_Key.space	Key.space	n/a
540.599	0.21	1081198	keystroke_r	r	n/a
540.719	0.165	1081438	keystroke_e	e	n/a
540.989	0.12	1081978	keystroke_f	f	n/a
541.0795	0.1205	1082159	keystroke_o	o	n/a
541.215	0.119	1082430	keystroke_r	r	n/a
541.469	0.165	1082938	keystroke_s	s	n/a
542.0235	0.105	1084047	keystroke_Key.backspace	Key.backspace	n/a
542.309	0.0895	1084618	keystroke_m	m	n/a
542.369	0.1655	1084738	keystroke_s	s	n/a
542.5345	0.1045	1085069	keystroke_Key.space	Key.space	n/a
542.9395	0.179	1085879	keystroke_d	d	n/a
543.044	0.1345	1086088	keystroke_e	e	n/a
543.329	0.12	1086658	keystroke_c	c	n/a
543.404	0.12	1086808	keystroke_k	k	n/a
543.7485	0.0755	1087497	keystroke_Key.enter	Key.enter	n/a
543.833	9.818	1087666	prompt	n/a	civil hawk secret facts\n
546.5555	0.088	1093111	keystroke_c	c	n/a
546.629	0.1205	1093258	keystroke_i	i	n/a
547.019	0.15	1094038	keystroke_v	v	n/a
547.094	0.06	1094188	keystroke_i	i	n/a
547.2885	0.196	1094577	keystroke_l	l	n/a
547.4235	0.1055	1094847	keystroke_Key.space	Key.space	n/a
547.6495	0.119	1095299	keystroke_h	h	n/a
547.7245	0.1045	1095449	keystroke_a	a	n/a
547.9335	0.12	1095867	keystroke_e	e	n/a
548.504	0.1345	1097008	keystroke_Key.backspace	Key.backspace	n/a
549.0145	0.134	1098029	keystroke_w	w	n/a
549.1935	0.106	1098387	keystroke_k	k	n/a
549.794	0.075	1099588	keystroke_Key.space	Key.space	n/a
550.169	0.15	1100338	keystroke_s	s	n/a
550.425	0.0745	1100850	keystroke_e	e	n/a
550.664	0.1655	1101328	keystroke_c	c	n/a
551.8345	0.1495	1103669	keystroke_r	r	n/a
551.894	0.1655	1103788	keystroke_e	e	n/a
552.149	0.12	1104298	keystroke_t	t	n/a
552.254	0.15	1104508	keystroke_Key.space	Key.space	n/a
552.51	0.149	1105020	keystroke_f	f	n/a
552.6295	0.18	1105259	keystroke_a	a	n/a
552.854	0.15	1105708	keystroke_c	c	n/a
553.1545	0.1045	1106309	keystroke_t	t	n/a
553.379	0.1505	1106758	keystroke_s	s	n/a
553.559	0.0895	1107118	keystroke_Key.enter	Key.enter	n/a
553.6635	8.7325	1107327	prompt	n/a	stanley taught square minority\n
554.624	0.1795	1109248	keystroke_s	s	n/a
554.864	0.1045	1109728	keystroke_t	t	n/a
554.9835	0.136	1109967	keystroke_a	a	n/a
555.134	0.12	1110268	keystroke_n	n	n/a
555.748	0.076	1111496	keystroke_l	l	n/a
555.8545	0.1495	1111709	keystroke_e	e	n/a
556.0485	0.1805	1112097	keystroke_y	y	n/a
556.1835	0.1205	1112367	keystroke_Key.space	Key.space	n/a
557.0845	0.0895	1114169	keystroke_t	t	n/a
557.249	0.18	1114498	keystroke_a	a	n/a
557.354	0.1355	1114708	keystroke_u	u	n/a
557.549	0.0905	1115098	keystroke_g	g	n/a
557.774	0.075	1115548	keystroke_h	h	n/a
557.834	0.135	1115668	keystroke_t	t	n/a
557.954	0.105	1115908	keystroke_Key.space	Key.space	n/a
558.584	0.12	1117168	keystroke_s	s	n/a
559.02	0.1495	1118040	keystroke_q	q	n/a
559.184	0.0895	1118368	keystroke_u	u	n/a
559.289	0.12	1118578	keystroke_a	a	n/a
559.5295	0.1195	1119059	keystroke_r	r	n/a
559.589	0.165	1119178	keystroke_e	e	n/a
559.724	0.135	1119448	keystroke_Key.space	Key.space	n/a
560.159	0.09	1120318	keystroke_m	m	n/a
560.669	0.105	1121338	keystroke_i	i	n/a
561.119	0.075	1122238	keystroke_n	n	n/a
561.299	0.105	1122598	keystroke_o	o	n/a
561.6435	0.121	1123287	keystroke_r	r	n/a
561.7345	0.059	1123469	keystroke_i	i	n/a
561.884	0.135	1123768	keystroke_t	t	n/a
561.9735	0.105	1123947	keystroke_y	y	n/a
562.3045	0.09	1124609	keystroke_Key.enter	Key.enter	n/a
562.401	9.76	1124802	prompt	n/a	detroit selling wouldn't patrol\n
563.265	0.1495	1126530	keystroke_d	d	n/a
563.3985	0.151	1126797	keystroke_e	e	n/a
563.6545	0.1505	1127309	keystroke_t	t	n/a
563.7595	0.18	1127519	keystroke_r	r	n/a
563.8935	0.256	1127787	keystroke_o	o	n/a
564.075	0.1485	1128150	keystroke_u	u	n/a
564.2095	0.15	1128419	keystroke_t	t	n/a
564.3285	0.1355	1128657	keystroke_Key.space	Key.space	n/a
564.5545	0.1645	1129109	keystroke_s	s	n/a
564.689	0.105	1129378	keystroke_o	o	n/a
565.169	0.075	1130338	keystroke_Key.backspace	Key.backspace	n/a
565.349	0.12	1130698	keystroke_Key.backspace	Key.backspace	n/a
565.589	0.075	1131178	keystroke_Key.backspace	Key.backspace	n/a
565.784	0.1205	1131568	keystroke_Key.backspace	Key.backspace	n/a
566.0845	0.1345	1132169	keystroke_Key.backspace	Key.backspace	n/a
566.549	0.0755	1133098	keystroke_i	i	n/a
566.7745	0.135	1133549	keystroke_t	t	n/a
566.91	0.1035	1133820	keystroke_Key.space	Key.space	n/a
567.0585	0.2105	1134117	keystroke_s	s	n/a
567.164	0.2255	1134328	keystroke_e	e	n/a
567.3285	0.061	1134657	keystroke_l	l	n/a
567.4645	0.075	1134929	keystroke_l	l	n/a
567.644	0.09	1135288	keystroke_i	i	n/a
567.8245	0.074	1135649	keystroke_n	n	n/a
567.8835	0.105	1135767	keystroke_g	g	n/a
568.0035	0.121	1136007	keystroke_Key.space	Key.space	n/a
568.3045	0.179	1136609	keystroke_w	w	n/a
568.3495	0.2555	1136699	keystroke_o	o	n/a
568.5285	0.0905	1137057	keystroke_u	u	n/a
569.084	0.09	1138168	keystroke_l	l	n/a
569.204	0.15	1138408	keystroke_d	d	n/a
569.324	0.15	1138648	keystroke_n	n	n/a
569.699	0.1505	1139398	keystroke_'	'	n/a
569.8645	0.135	1139729	keystroke_t	t	n/a
569.9845	0.1345	1139969	keystroke_Key.space	Key.space	n/a
570.629	0.0595	1141258	keystroke_p	p	n/a
570.7345	0.1645	1141469	keystroke_a	a	n/a
571.0795	0.1345	1142159	keystroke_t	t	n/a
571.1695	0.164	1142339	keystroke_r	r	n/a
571.544	0.121	1143088	keystroke_o	o	n/a
571.799	0.105	1143598	keystroke_l	l	n/a
572.069	0.09	1144138	keystroke_Key.enter	Key.enter	n/a
572.1655	9.28	1144331	prompt	n/a	greg association learners kitty\n
573.6595	0.1195	1147319	keystroke_g	g	n/a
574.1085	0.106	1148217	keystroke_r	r	n/a
574.139	0.2095	1148278	keystroke_e	e	n/a
574.3195	0.2545	1148639	keystroke_g	g	n/a
574.484	0.1205	1148968	keystroke_Key.space	Key.space	n/a
574.949	0.1345	1149898	keystroke_a	a	n/a
575.3985	0.1215	1150797	keystroke_s	s	n/a
575.594	0.1505	1151188	keystroke_s	s	n/a
575.789	0.21	1151578	keystroke_o	o	n/a
576.014	0.1505	1152028	keystroke_c	c	n/a
576.179	0.15	1152358	keystroke_i	i	n/a
576.314	0.135	1152628	keystroke_a	a	n/a
576.6435	0.121	1153287	keystroke_t	t	n/a
576.7345	0.165	1153469	keystroke_i	i	n/a
576.825	0.1195	1153650	keystroke_o	o	n/a
577.0645	0.1345	1154129	keystroke_n	n	n/a
577.1685	0.06	1154337	keystroke_Key.space	Key.space	n/a
577.3495	0.1345	1154699	keystroke_l	l	n/a
577.4395	0.135	1154879	keystroke_e	e	n/a
577.679	0.18	1155358	keystroke_r	r	n/a
578.4885	0.121	1156977	keystroke_Key.backspace	Key.backspace	n/a
578.6245	0.135	1157249	keystroke_a	a	n/a
579.1795	0.195	1158359	keystroke_r	r	n/a
579.4795	0.104	1158959	keystroke_n	n	n/a
579.5685	0.226	1159137	keystroke_e	e	n/a
579.6895	0.135	1159379	keystroke_r	r	n/a
579.914	0.165	1159828	keystroke_s	s	n/a
580.0485	0.105	1160097	keystroke_Key.space	Key.space	n/a
580.274	0.105	1160548	keystroke_k	k	n/a
580.4985	0.1205	1160997	keystroke_i	i	n/a
580.589	0.091	1161178	keystroke_t	t	n/a
580.769	0.165	1161538	keystroke_t	t	n/a
581.0395	0.1045	1162079	keystroke_y	y	n/a
581.384	0.06	1162768	keystroke_Key.enter	Key.enter	n/a
581.45	8.17	1162900	prompt	n/a	turning daughters tons stephen\n
582.449	0.1045	1164898	keystroke_t	t	n/a
582.659	0.15	1165318	keystroke_r	r	n/a
583.094	0.089	1166188	keystroke_Key.backspace	Key.backspace	n/a
583.364	0.105	1166728	keystroke_u	u	n/a
583.4545	0.135	1166909	keystroke_r	r	n/a
583.5895	0.0895	1167179	keystroke_n	n	n/a
583.769	0.0755	1167538	keystroke_i	i	n/a
583.919	0.0905	1167838	keystroke_n	n	n/a
583.979	0.105	1167958	keystroke_g	g	n/a
584.114	0.09	1168228	keystroke_Key.space	Key.space	n/a
584.52	0.149	1169040	keystroke_d	d	n/a
584.5945	0.18	1169189	keystroke_a	a	n/a
584.6985	0.106	1169397	keystroke_u	u	n/a
584.8945	0.075	1169789	keystroke_g	g	n/a
585.0745	0.105	1170149	keystroke_h	h	n/a
585.2095	0.045	1170419	keystroke_t	t	n/a
585.315	0.2095	1170630	keystroke_e	e	n/a
585.4345	0.135	1170869	keystroke_r	r	n/a
585.584	0.1205	1171168	keystroke_n	n	n/a
585.749	0.121	1171498	keystroke_s	s	n/a
586.289	0.135	1172578	keystroke_Key.backspace	Key.backspace	n/a
586.589	0.135	1173178	keystroke_Key.backspace	Key.backspace	n/a
586.8	0.1035	1173600	keystroke_s	s	n/a
586.9635	0.1205	1173927	keystroke_Key.space	Key.space	n/a
587.5045	0.104	1175009	keystroke_t	t	n/a
587.564	0.1045	1175128	keystroke_o	o	n/a
587.7595	0.104	1175519	keystroke_n	n	n/a
587.8785	0.151	1175757	keystroke_s	s	n/a
587.9985	0.121	1175997	keystroke_Key.space	Key.space	n/a
588.4345	0.1495	1176869	keystroke_s	s	n/a
588.554	0.09	1177108	keystroke_t	t	n/a
588.704	0.135	1177408	keystroke_e	e	n/a
588.869	0.0755	1177738	keystroke_p	p	n/a
589.064	0.091	1178128	keystroke_h	h	n/a
589.169	0.165	1178338	keystroke_e	e	n/a
589.289	0.1205	1178578	keystroke_n	n	n/a
589.559	0.06	1179118	keystroke_Key.enter	Key.enter	n/a
589.628	8.7375	1179256	prompt	n/a	paying bali reaction mortgage\n
590.385	0.12	1180770	keystroke_p	p	n/a
590.534	0.1195	1181068	keystroke_a	a	n/a
590.669	0.075	1181338	keystroke_y	y	n/a
590.8495	0.0895	1181699	keystroke_i	i	n/a
591.0295	0.0745	1182059	keystroke_n	n	n/a
591.089	0.105	1182178	keystroke_g	g	n/a
591.2395	0.044	1182479	keystroke_Key.space	Key.space	n/a
591.39	0.1345	1182780	keystroke_a	a	n/a
592.199	0.075	1184398	keystroke_Key.backspace	Key.backspace	n/a
592.454	0.0905	1184908	keystroke_b	b	n/a
592.5595	0.165	1185119	keystroke_a	a	n/a
592.9945	0.135	1185989	keystroke_l	l	n/a
593.2795	0.2255	1186559	keystroke_i	i	n/a
593.444	0.1045	1186888	keystroke_Key.space	Key.space	n/a
593.789	0.0895	1187578	keystroke_r	r	n/a
593.834	0.1505	1187668	keystroke_e	e	n/a
594.1045	0.18	1188209	keystroke_a	a	n/a
594.2395	0.149	1188479	keystroke_c	c	n/a
594.6295	0.149	1189259	keystroke_t	t	n/a
594.6895	0.15	1189379	keystroke_i	i	n/a
594.765	0.1345	1189530	keystroke_o	o	n/a
595.0185	0.1205	1190037	keystroke_n	n	n/a
595.0935	0.12	1190187	keystroke_Key.space	Key.space	n/a
595.35	0.1035	1190700	keystroke_m	m	n/a
595.5135	0.15	1191027	keystroke_o	o	n/a
595.5595	0.134	1191119	keystroke_r	r	n/a
595.8145	0.1655	1191629	keystroke_t	t	n/a
596.159	0.1205	1192318	keystroke_h	h	n/a
596.459	0.195	1192918	keystroke_a	a	n/a
597.1345	0.1195	1194269	keystroke_Key.backspace	Key.backspace	n/a
597.344	0.15	1194688	keystroke_Key.backspace	Key.backspace	n/a
597.7645	0.09	1195529	keystroke_g	g	n/a
597.8835	0.121	1195767	keystroke_a	a	n/a
597.9595	0.134	1195919	keystroke_g	g	n/a
598.0785	0.151	1196157	keystroke_e	e	n/a
598.3035	0.06	1196607	keystroke_Key.enter	Key.enter	n/a
598.371	14.23	1196742	prompt	n/a	rapidly decor raised consistently\n
599.1745	0.119	1198349	keystroke_r	r	n/a
599.2335	0.1655	1198467	keystroke_e	e	n/a
599.519	0.241	1199038	keystroke_p	p	n/a
599.714	0.15	1199428	keystroke_i	i	n/a
599.9995	0.1195	1199999	keystroke_d	d	n/a
600.104	0.12	1200208	keystroke_l	l	n/a
600.4195	0.1495	1200839	keystroke_y	y	n/a
600.5245	0.1205	1201049	keystroke_Key.space	Key.space	n/a
600.7195	0.1345	1201439	keystroke_r	r	n/a
600.794	0.1655	1201588	keystroke_e	e	n/a
601.514	0.075	1203028	keystroke_Key.backspace	Key.backspace	n/a
601.664	0.135	1203328	keystroke_Key.backspace	Key.backspace	n/a
601.739	0.135	1203478	keystroke_d	d	n/a
601.829	0.195	1203658	keystroke_e	e	n/a
601.994	0.136	1203988	keystroke_r	r	n/a
602.234	0.1345	1204468	keystroke_o	o	n/a
602.729	0.09	1205458	keystroke_Key.backspace	Key.backspace	n/a
602.894	0.135	1205788	keystroke_Key.backspace	Key.backspace	n/a
603.044	0.1505	1206088	keystroke_c	c	n/a
603.2095	0.0595	1206419	keystroke_i	i	n/a
603.3295	0.164	1206659	keystroke_r	r	n/a
603.674	0.0895	1207348	keystroke_Key.backspace	Key.backspace	n/a
603.8545	0.1195	1207709	keystroke_Key.backspace	Key.backspace	n/a
604.124	0.1505	1208248	keystroke_o	o	n/a
604.2895	0.15	1208579	keystroke_r	r	n/a
604.4395	0.1345	1208879	keystroke_Key.space	Key.space	n/a
606.9005	0.044	1213801	keystroke_r	r	n/a
607.0495	0.1645	1214099	keystroke_a	a	n/a
607.1245	0.1195	1214249	keystroke_i	i	n/a
607.319	0.151	1214638	keystroke_s	s	n/a
607.574	0.1805	1215148	keystroke_e	e	n/a
607.664	0.1645	1215328	keystroke_d	d	n/a
607.799	0.135	1215598	keystroke_Key.space	Key.space	n/a
608.024	0.195	1216048	keystroke_c	c	n/a
608.2345	0.03	1216469	keystroke_o	o	n/a
608.505	0.134	1217010	keystroke_n	n	n/a
608.699	0.18	1217398	keystroke_s	s	n/a
609.0445	0.0905	1218089	keystroke_i	i	n/a
609.1045	0.12	1218209	keystroke_s	s	n/a
609.344	0.06	1218688	keystroke_t	t	n/a
609.494	0.1355	1218988	keystroke_e	e	n/a
609.584	0.1055	1219168	keystroke_n	n	n/a
609.749	0.1055	1219498	keystroke_t	t	n/a
609.824	0.0905	1219648	keystroke_k	k	n/a
610.0045	0.075	1220009	keystroke_y	y	n/a
610.5745	0.09	1221149	keystroke_Key.backspace	Key.backspace	n/a
610.709	0.105	1221418	keystroke_Key.backspace	Key.backspace	n/a
611.024	0.015	1222048	keystroke_Key.backspace	Key.backspace	n/a
611.9095	0.18	1223819	keystroke_t	t	n/a
612.2545	0.104	1224509	keystroke_l	l	n/a
612.3885	0.1505	1224777	keystroke_y	y	n/a
612.494	0.1055	1224988	keystroke_Key.enter	Key.enter	n/a
612.6085	7.162	1225217	prompt	n/a	can mayor gary russian\n
615.827	0.0725	1231654	keystroke_c	c	n/a
615.8275	0.177	1231655	keystroke_a	a	n/a
615.9295	0.105	1231859	keystroke_n	n	n/a
615.9895	0.09	1231979	keystroke_Key.space	Key.space	n/a
616.169	0.0745	1232338	keystroke_m	m	n/a
616.1995	0.135	1232399	keystroke_a	a	n/a
616.4095	0.075	1232819	keystroke_y	y	n/a
616.5895	0.105	1233179	keystroke_o	o	n/a
616.6945	0.1195	1233389	keystroke_r	r	n/a
616.799	0.105	1233598	keystroke_Key.space	Key.space	n/a
617.144	0.075	1234288	keystroke_g	g	n/a
617.3695	0.1195	1234739	keystroke_a	a	n/a
617.624	0.12	1235248	keystroke_r	r	n/a
617.6395	0.1495	1235279	keystroke_y	y	n/a
617.759	0.09	1235518	keystroke_Key.space	Key.space	n/a
617.954	0.1505	1235908	keystroke_r	r	n/a
618.0445	0.135	1236089	keystroke_u	u	n/a
618.2395	0.09	1236479	keystroke_s	s	n/a
618.39	0.149	1236780	keystroke_s	s	n/a
618.4795	0.0745	1236959	keystroke_i	i	n/a
618.659	0.061	1237318	keystroke_i	i	n/a
619.154	0.09	1238308	keystroke_Key.backspace	Key.backspace	n/a
619.289	0.12	1238578	keystroke_a	a	n/a
619.41	0.0895	1238820	keystroke_n	n	n/a
619.6945	0.075	1239389	keystroke_Key.enter	Key.enter	n/a
619.7775	8.141	1239555	prompt	n/a	collector obligations tuning angry\n
620.6395	0.15	1241279	keystroke_c	c	n/a
620.7295	0.0755	1241459	keystroke_o	o	n/a
620.909	0.0605	1241818	keystroke_l	l	n/a
621.029	0.1055	1242058	keystroke_l	l	n/a
621.105	0.089	1242210	keystroke_e	e	n/a
621.2995	0.1045	1242599	keystroke_c	c	n/a
621.5695	0.0745	1243139	keystroke_t	t	n/a
621.629	0.105	1243258	keystroke_o	o	n/a
621.7795	0.1495	1243559	keystroke_r	r	n/a
621.8845	0.1195	1243769	keystroke_Key.space	Key.space	n/a
622.214	0.1055	1244428	keystroke_o	o	n/a
622.4395	0.105	1244879	keystroke_b	b	n/a
622.7395	0.06	1245479	keystroke_l	l	n/a
622.9345	0.105	1245869	keystroke_i	i	n/a
623.7895	0.105	1247579	keystroke_g	g	n/a
623.9245	0.15	1247849	keystroke_a	a	n/a
624.2245	0.105	1248449	keystroke_t	t	n/a
624.2695	0.135	1248539	keystroke_i	i	n/a
624.3445	0.105	1248689	keystroke_o	o	n/a
624.5385	0.0905	1249077	keystroke_n	n	n/a
624.5995	0.1495	1249199	keystroke_s	s	n/a
624.764	0.09	1249528	keystroke_Key.space	Key.space	n/a
624.884	0.15	1249768	keystroke_t	t	n/a
624.974	0.12	1249948	keystroke_u	u	n/a
625.349	0.0745	1250698	keystroke_n	n	n/a
625.5445	0.0905	1251089	keystroke_i	i	n/a
625.709	0.091	1251418	keystroke_n	n	n/a
625.845	0.119	1251690	keystroke_g	g	n/a
626.3995	0.1345	1252799	keystroke_Key.space	Key.space	n/a
626.6095	0.1645	1253219	keystroke_a	a	n/a
626.714	0.09	1253428	keystroke_n	n	n/a
627.3145	0.076	1254629	keystroke_g	g	n/a
627.4195	0.119	1254839	keystroke_r	r	n/a
627.509	0.106	1255018	keystroke_y	y	n/a
627.839	0.075	1255678	keystroke_Key.enter	Key.enter	n/a
627.923	7.223	1255846	prompt	n/a	this receiver proud trailers\n
628.68	0.1345	1257360	keystroke_t	t	n/a
628.77	0.164	1257540	keystroke_h	h	n/a
628.8745	0.135	1257749	keystroke_i	i	n/a
629.0115	0.118	1258023	keystroke_s	s	n/a
629.0995	0.105	1258199	keystroke_Key.space	Key.space	n/a
629.28	0.1495	1258560	keystroke_r	r	n/a
629.3695	0.135	1258739	keystroke_e	e	n/a
629.7295	0.12	1259459	keystroke_c	c	n/a
629.82	0.1945	1259640	keystroke_e	e	n/a
629.9545	0.1345	1259909	keystroke_i	i	n/a
630.2385	0.106	1260477	keystroke_v	v	n/a
630.3745	0.21	1260749	keystroke_e	e	n/a
630.4795	0.134	1260959	keystroke_r	r	n/a
630.599	0.105	1261198	keystroke_Key.space	Key.space	n/a
631.0195	0.135	1262039	keystroke_p	p	n/a
631.23	0.15	1262460	keystroke_r	r	n/a
631.319	0.151	1262638	keystroke_o	o	n/a
632.054	0.0755	1264108	keystroke_u	u	n/a
632.595	0.164	1265190	keystroke_d	d	n/a
632.714	0.105	1265428	keystroke_Key.space	Key.space	n/a
633.1045	0.06	1266209	keystroke_t	t	n/a
633.689	0.1505	1267378	keystroke_r	r	n/a
633.8835	0.2115	1267767	keystroke_a	a	n/a
634.005	0.104	1268010	keystroke_i	i	n/a
634.2445	0.12	1268489	keystroke_l	l	n/a
634.4545	0.21	1268909	keystroke_e	e	n/a
634.5595	0.15	1269119	keystroke_r	r	n/a
634.8595	0.15	1269719	keystroke_s	s	n/a
635.0695	0.075	1270139	keystroke_Key.enter	Key.enter	n/a
635.1645	8.156	1270329	prompt	n/a	puppy naval webshots lloyd\n
636.3145	0.15	1272629	keystroke_p	p	n/a
636.5535	0.135	1273107	keystroke_u	u	n/a
636.8545	0.045	1273709	keystroke_p	p	n/a
636.9735	0.135	1273947	keystroke_p	p	n/a
637.244	0.105	1274488	keystroke_y	y	n/a
637.529	0.12	1275058	keystroke_Key.space	Key.space	n/a
638.189	0.1205	1276378	keystroke_n	n	n/a
638.279	0.18	1276558	keystroke_a	a	n/a
638.624	0.12	1277248	keystroke_v	v	n/a
638.759	0.12	1277518	keystroke_a	a	n/a
639.1345	0.2255	1278269	keystroke_l	l	n/a
639.269	0.1345	1278538	keystroke_Key.space	Key.space	n/a
639.765	0.2095	1279530	keystroke_w	w	n/a
639.8845	0.18	1279769	keystroke_e	e	n/a
640.0955	0.1045	1280191	keystroke_b	b	n/a
640.2745	0.165	1280549	keystroke_s	s	n/a
640.4245	0.105	1280849	keystroke_h	h	n/a
640.5745	0.1345	1281149	keystroke_o	o	n/a
640.665	0.104	1281330	keystroke_t	t	n/a
640.844	0.1655	1281688	keystroke_s	s	n/a
640.9795	0.06	1281959	keystroke_Key.space	Key.space	n/a
641.19	0.089	1282380	keystroke_l	l	n/a
641.34	0.119	1282680	keystroke_l	l	n/a
641.565	0.1045	1283130	keystroke_o	o	n/a
641.819	0.12	1283638	keystroke_y	y	n/a
642.029	0.0455	1284058	keystroke_s	s	n/a
642.5545	0.0895	1285109	keystroke_Key.backspace	Key.backspace	n/a
642.659	0.1205	1285318	keystroke_d	d	n/a
643.244	0.0755	1286488	keystroke_Key.enter	Key.enter	n/a
643.329	9.772	1286658	prompt	n/a	pork pioneer teaches apparatus\n
644.759	0.15	1289518	keystroke_p	p	n/a
644.9245	0.135	1289849	keystroke_r	r	n/a
