onset	duration	sample	value	key	prompt_text
3.0525	15.7365	6105	prompt	n/a	the quick brown fox jumps over a lazy dog\n
10.479	0.0125	20958	keystroke_t	t	n/a
10.5065	0.06	21013	keystroke_h	h	n/a
10.626	0.0455	21252	keystroke_e	e	n/a
10.8965	0.0755	21793	keystroke_Key.space	Key.space	n/a
11.4215	0.075	22843	keystroke_q	q	n/a
11.6015	0.105	23203	keystroke_u	u	n/a
11.6615	0.09	23323	keystroke_i	i	n/a
11.856	0.06	23712	keystroke_c	c	n/a
11.901	0.105	23802	keystroke_k	k	n/a
12.141	0.06	24282	keystroke_Key.space	Key.space	n/a
12.351	0.06	24702	keystroke_b	b	n/a
12.471	0.09	24942	keystroke_r	r	n/a
12.562	0.059	25124	keystroke_o	o	n/a
12.6965	0.06	25393	keystroke_w	w	n/a
12.8465	0.06	25693	keystroke_n	n	n/a
13.0265	0.0905	26053	keystroke_Key.space	Key.space	n/a
13.2965	0.075	26593	keystroke_f	f	n/a
13.3865	0.06	26773	keystroke_o	o	n/a
13.5365	0.09	27073	keystroke_x	x	n/a
13.6865	0.0755	27373	keystroke_Key.space	Key.space	n/a
13.972	0.075	27944	keystroke_j	j	n/a
14.122	0.075	28244	keystroke_u	u	n/a
14.4665	0.105	28933	keystroke_p	p	n/a
14.977	0.075	29954	keystroke_Key.backspace	Key.backspace	n/a
15.3365	0.075	30673	keystroke_m	m	n/a
15.4865	0.075	30973	keystroke_p	p	n/a
15.6965	0.0605	31393	keystroke_s	s	n/a
15.802	0.09	31604	keystroke_Key.space	Key.space	n/a
16.042	0.075	32084	keystroke_o	o	n/a
16.162	0.0895	32324	keystroke_v	v	n/a
16.2815	0.12	32563	keystroke_e	e	n/a
16.3415	0.1045	32683	keystroke_r	r	n/a
16.476	0.075	32952	keystroke_Key.space	Key.space	n/a
16.582	0.12	33164	keystroke_a	a	n/a
16.672	0.12	33344	keystroke_Key.space	Key.space	n/a
17.017	0.09	34034	keystroke_l	l	n/a
17.197	0.105	34394	keystroke_a	a	n/a
17.677	0.045	35354	keystroke_z	z	n/a
17.917	0.06	35834	keystroke_y	y	n/a
18.127	0.09	36254	keystroke_Key.space	Key.space	n/a
18.3065	0.06	36613	keystroke_d	d	n/a
18.3815	0.075	36763	keystroke_o	o	n/a
18.5165	0.075	37033	keystroke_g	g	n/a
18.7265	0.06	37453	keystroke_Key.enter	Key.enter	n/a
18.792	7.947	37584	prompt	n/a	intranet sample context retrieved\n
19.6265	0.135	39253	keystroke_i	i	n/a
19.6865	0.105	39373	keystroke_n	n	n/a
19.8065	0.105	39613	keystroke_t	t	n/a
20.0465	0.075	40093	keystroke_r	r	n/a
20.1065	0.075	40213	keystroke_a	a	n/a
20.3165	0.06	40633	keystroke_n	n	n/a
20.4215	0.15	40843	keystroke_e	e	n/a
20.6015	0.105	41203	keystroke_t	t	n/a
20.9015	0.075	41803	keystroke_Key.space	Key.space	n/a
21.081	0.076	42162	keystroke_s	s	n/a
21.246	0.106	42492	keystroke_a	a	n/a
21.352	0.105	42704	keystroke_m	m	n/a
21.532	0.165	43064	keystroke_p	p	n/a
21.652	0.105	43304	keystroke_l	l	n/a
21.802	0.0455	43604	keystroke_e	e	n/a
22.0425	0.09	44085	keystroke_Key.space	Key.space	n/a
22.387	0.105	44774	keystroke_c	c	n/a
22.597	0.1805	45194	keystroke_o	o	n/a
22.7325	0.0895	45465	keystroke_n	n	n/a
22.882	0.1795	45764	keystroke_t	t	n/a
23.0625	0.089	46125	keystroke_e	e	n/a
23.3165	0.09	46633	keystroke_x	x	n/a
23.3915	0.0905	46783	keystroke_t	t	n/a
23.6015	0.075	47203	keystroke_Key.space	Key.space	n/a
24.112	0.135	48224	keystroke_r	r	n/a
24.217	0.09	48434	keystroke_e	e	n/a
24.532	0.105	49064	keystroke_t	t	n/a
24.742	0.075	49484	keystroke_r	r	n/a
24.937	0.075	49874	keystroke_i	i	n/a
25.162	0.105	50324	keystroke_e	e	n/a
25.387	0.045	50774	keystroke_n	n	n/a
25.897	0.0755	51794	keystroke_Key.backspace	Key.backspace	n/a
25.9875	0.12	51975	keystroke_v	v	n/a
26.0775	0.09	52155	keystroke_e	e	n/a
26.3475	0.075	52695	keystroke_d	d	n/a
26.6615	0.075	53323	keystroke_Key.enter	Key.enter	n/a
26.742	11.3065	53484	prompt	n/a	definitely microwave bufing fire\n
27.5015	0.105	55003	keystroke_d	d	n/a
27.5915	0.12	55183	keystroke_e	e	n/a
27.8465	0.135	55693	keystroke_n	n	n/a
27.9215	0.105	55843	keystroke_i	i	n/a
28.0415	0.075	56083	keystroke_t	t	n/a
28.897	0.06	57794	keystroke_Key.backspace	Key.backspace	n/a
29.017	0.0905	58034	keystroke_Key.backspace	Key.backspace	n/a
29.1375	0.09	58275	keystroke_Key.backspace	Key.backspace	n/a
29.347	0.06	58694	keystroke_f	f	n/a
29.452	0.09	58904	keystroke_i	i	n/a
29.692	0.1055	59384	keystroke_n	n	n/a
29.752	0.0905	59504	keystroke_i	i	n/a
29.872	0.135	59744	keystroke_t	t	n/a
29.977	0.105	59954	keystroke_e	e	n/a
30.067	0.075	60134	keystroke_l	l	n/a
30.292	0.075	60584	keystroke_y	y	n/a
30.727	0.075	61454	keystroke_Key.space	Key.space	n/a
31.1615	0.1355	62323	keystroke_m	m	n/a
31.252	0.105	62504	keystroke_i	i	n/a
31.552	0.06	63104	keystroke_c	c	n/a
31.717	0.105	63434	keystroke_r	r	n/a
31.8665	0.075	63733	keystroke_o	o	n/a
31.9865	0.06	63973	keystroke_w	w	n/a
32.1365	0.1205	64273	keystroke_a	a	n/a
32.572	0.105	65144	keystroke_v	v	n/a
32.647	0.105	65294	keystroke_e	e	n/a
33.202	0.075	66404	keystroke_Key.space	Key.space	n/a
34.012	0.06	68024	keystroke_b	b	n/a
34.087	0.09	68174	keystroke_u	u	n/a
34.417	0.06	68834	keystroke_f	f	n/a
34.567	0.075	69134	keystroke_f	f	n/a
34.687	0.12	69374	keystroke_i	i	n/a
34.762	0.06	69524	keystroke_n	n	n/a
34.912	0.045	69824	keystroke_g	g	n/a
36.037	0.03	72074	keystroke_Key.backspace	Key.backspace	n/a
36.157	0.045	72314	keystroke_Key.backspace	Key.backspace	n/a
36.262	0.045	72524	keystroke_Key.backspace	Key.backspace	n/a
36.367	0.06	72734	keystroke_Key.backspace	Key.backspace	n/a
36.787	0.0895	73574	keystroke_i	i	n/a
36.832	0.0595	73664	keystroke_n	n	n/a
37.0415	0.045	74083	keystroke_g	g	n/a
37.1465	0.105	74293	keystroke_Key.space	Key.space	n/a
37.4465	0.09	74893	keystroke_f	f	n/a
37.5515	0.075	75103	keystroke_i	i	n/a
37.6865	0.12	75373	keystroke_r	r	n/a
37.7615	0.09	75523	keystroke_e	e	n/a
37.9715	0.075	75943	keystroke_Key.enter	Key.enter	n/a
38.052	10.1365	76104	prompt	n/a	consortium paraguay bags suzuki\n
38.9925	0.09	77985	keystroke_c	c	n/a
39.0675	0.165	78135	keystroke_o	o	n/a
39.1575	0.09	78315	keystroke_n	n	n/a
39.3375	0.075	78675	keystroke_s	s	n/a
39.4725	0.075	78945	keystroke_o	o	n/a
39.6075	0.06	79215	keystroke_r	r	n/a
39.8175	0.03	79635	keystroke_t	t	n/a
40.012	0.075	80024	keystroke_i	i	n/a
40.7325	0.074	81465	keystroke_u	u	n/a
41.0015	0.075	82003	keystroke_m	m	n/a
41.4665	0.09	82933	keystroke_Key.space	Key.space	n/a
41.872	0.075	83744	keystroke_p	p	n/a
41.977	0.075	83954	keystroke_a	a	n/a
42.097	0.135	84194	keystroke_r	r	n/a
42.217	0.075	84434	keystroke_a	a	n/a
42.472	0.09	84944	keystroke_g	g	n/a
42.697	0.075	85394	keystroke_u	u	n/a
43.222	0.105	86444	keystroke_a	a	n/a
43.522	0.075	87044	keystroke_y	y	n/a
43.987	0.09	87974	keystroke_Key.space	Key.space	n/a
44.392	0.09	88784	keystroke_b	b	n/a
44.467	0.06	88934	keystroke_a	a	n/a
44.632	0.09	89264	keystroke_g	g	n/a
44.872	0.045	89744	keystroke_s	s	n/a
45.052	0.09	90104	keystroke_Key.space	Key.space	n/a
45.697	0.075	91394	keystroke_s	s	n/a
45.937	0.075	91874	keystroke_u	u	n/a
46.162	0.045	92324	keystroke_z	z	n/a
46.342	0.075	92684	keystroke_k	k	n/a
46.5075	0.075	93015	keystroke_i	i	n/a
46.8815	0.03	93763	keystroke_Key.backspace	Key.backspace	n/a
46.9715	0.0905	93943	keystroke_Key.backspace	Key.backspace	n/a
47.2575	0.075	94515	keystroke_u	u	n/a
47.6925	0.075	95385	keystroke_k	k	n/a
47.8575	0.075	95715	keystroke_i	i	n/a
48.1275	0.06	96255	keystroke_Key.enter	Key.enter	n/a
48.192	14.097	96384	prompt	n/a	legislature arthritis grammar moderators\n
49.0425	0.075	98085	keystroke_l	l	n/a
49.2365	0.075	98473	keystroke_e	e	n/a
49.4015	0.09	98803	keystroke_g	g	n/a
49.4765	0.09	98953	keystroke_i	i	n/a
49.5965	0.105	99193	keystroke_s	s	n/a
50.0015	0.105	100003	keystroke_l	l	n/a
50.2575	0.164	100515	keystroke_a	a	n/a
50.4365	0.105	100873	keystroke_t	t	n/a
50.647	0.06	101294	keystroke_u	u	n/a
50.932	0.09	101864	keystroke_r	r	n/a
51.292	0.06	102584	keystroke_e	e	n/a
51.502	0.075	103004	keystroke_Key.space	Key.space	n/a
51.862	0.1355	103724	keystroke_a	a	n/a
52.1175	0.075	104235	keystroke_r	r	n/a
52.3125	0.06	104625	keystroke_t	t	n/a
52.3875	0.075	104775	keystroke_h	h	n/a
52.5375	0.105	105075	keystroke_i	i	n/a
52.8075	0.105	105615	keystroke_t	t	n/a
52.9425	0.075	105885	keystroke_i	i	n/a
53.377	0.045	106754	keystroke_s	s	n/a
53.617	0.06	107234	keystroke_Key.space	Key.space	n/a
53.977	0.0745	107954	keystroke_g	g	n/a
54.1565	0.12	108313	keystroke_r	r	n/a
54.2615	0.09	108523	keystroke_a	a	n/a
54.4115	0.06	108823	keystroke_m	m	n/a
54.5315	0.091	109063	keystroke_m	m	n/a
54.667	0.105	109334	keystroke_a	a	n/a
54.8325	0.1045	109665	keystroke_r	r	n/a
55.1775	0.075	110355	keystroke_Key.space	Key.space	n/a
55.4175	0.12	110835	keystroke_m	m	n/a
55.5075	0.105	111015	keystroke_o	o	n/a
55.6875	0.12	111375	keystroke_d	d	n/a
55.7775	0.105	111555	keystroke_e	e	n/a
55.9275	0.105	111855	keystroke_r	r	n/a
56.0475	0.12	112095	keystroke_a	a	n/a
56.1825	0.09	112365	keystroke_t	t	n/a
56.3325	0.06	112665	keystroke_o	o	n/a
56.557	0.03	113114	keystroke_r	r	n/a
56.812	0.06	113624	keystroke_s	s	n/a
57.4275	0.06	114855	keystroke_s	s	n/a
59.107	0.06	118214	keystroke_Key.backspace	Key.backspace	n/a
59.392	0.09	118784	keystroke_\	\	n/a
61.2675	0.075	122535	keystroke_Key.backspace	Key.backspace	n/a
62.272	0.015	124544	keystroke_Key.enter	Key.enter	n/a
62.2925	10.8415	124585	prompt	n/a	tunnel virginia findarticles hoped\n
63.292	0.075	126584	keystroke_t	t	n/a
63.352	0.06	126704	keystroke_u	u	n/a
63.577	0.045	127154	keystroke_n	n	n/a
63.697	0.075	127394	keystroke_n	n	n/a
63.817	0.06	127634	keystroke_e	e	n/a
63.922	0.09	127844	keystroke_l	l	n/a
64.177	0.075	128354	keystroke_Key.space	Key.space	n/a
64.7615	0.075	129523	keystroke_v	v	n/a
64.8675	0.105	129735	keystroke_i	i	n/a
64.9875	0.044	129975	keystroke_r	r	n/a
65.1975	0.09	130395	keystroke_g	g	n/a
65.3025	0.06	130605	keystroke_i	i	n/a
65.5275	0.0745	131055	keystroke_n	n	n/a
65.557	0.105	131114	keystroke_i	i	n/a
65.737	0.09	131474	keystroke_a	a	n/a
66.082	0.09	132164	keystroke_Key.space	Key.space	n/a
66.7425	0.06	133485	keystroke_f	f	n/a
66.8175	0.105	133635	keystroke_i	i	n/a
66.8775	0.089	133755	keystroke_n	n	n/a
67.897	0.225	135794	keystroke_d	d	n/a
68.242	0.105	136484	keystroke_a	a	n/a
68.7365	0.121	137473	keystroke_r	r	n/a
69.5775	0.1045	139155	keystroke_t	t	n/a
69.727	0.075	139454	keystroke_i	i	n/a
69.952	0.09	139904	keystroke_c	c	n/a
70.087	0.075	140174	keystroke_l	l	n/a
70.222	0.06	140444	keystroke_e	e	n/a
70.417	0.0755	140834	keystroke_s	s	n/a
70.8375	0.09	141675	keystroke_Key.space	Key.space	n/a
71.242	0.075	142484	keystroke_h	h	n/a
71.497	0.06	142994	keystroke_p	p	n/a
71.977	0.09	143954	keystroke_Key.backspace	Key.backspace	n/a
72.262	0.075	144524	keystroke_o	o	n/a
72.457	0.075	144914	keystroke_p	p	n/a
72.592	0.075	145184	keystroke_e	e	n/a
72.802	0.075	145604	keystroke_d	d	n/a
73.072	0.06	146144	keystroke_Key.enter	Key.enter	n/a
73.138	8.381	146276	prompt	n/a	vista abandoned radius voted\n
74.017	0.09	148034	keystroke_v	v	n/a
74.092	0.075	148184	keystroke_i	i	n/a
74.212	0.1355	148424	keystroke_s	s	n/a
74.3025	0.105	148605	keystroke_t	t	n/a
74.4225	0.105	148845	keystroke_a	a	n/a
74.7675	0.089	149535	keystroke_Key.space	Key.space	n/a
75.277	0.075	150554	keystroke_a	a	n/a
75.457	0.06	150914	keystroke_b	b	n/a
75.562	0.09	151124	keystroke_a	a	n/a
75.682	0.075	151364	keystroke_n	n	n/a
75.877	0.12	151754	keystroke_d	d	n/a
76.117	0.09	152234	keystroke_o	o	n/a
76.357	0.06	152714	keystroke_n	n	n/a
77.002	0.15	154004	keystroke_e	e	n/a
77.377	0.09	154754	keystroke_d	d	n/a
77.692	0.075	155384	keystroke_Key.space	Key.space	n/a
78.0975	0.105	156195	keystroke_r	r	n/a
78.2175	0.075	156435	keystroke_a	a	n/a
78.442	0.075	156884	keystroke_d	d	n/a
78.577	0.045	157154	keystroke_i	i	n/a
78.817	0.18	157634	keystroke_o	o	n/a
78.937	0.09	157874	keystroke_u	u	n/a
79.3725	0.075	158745	keystroke_Key.backspace	Key.backspace	n/a
79.4925	0.075	158985	keystroke_Key.backspace	Key.backspace	n/a
79.8075	0.06	159615	keystroke_u	u	n/a
79.9275	0.075	159855	keystroke_s	s	n/a
80.1825	0.075	160365	keystroke_Key.space	Key.space	n/a
80.587	0.075	161174	keystroke_v	v	n/a
80.677	0.06	161354	keystroke_o	o	n/a
80.797	0.165	161594	keystroke_t	t	n/a
80.887	0.12	161774	keystroke_e	e	n/a
81.127	0.12	162254	keystroke_d	d	n/a
81.442	0.075	162884	keystroke_Key.enter	Key.enter	n/a
81.523	8.2155	163046	prompt	n/a	shipped seasons activists jesus\n
82.3115	0.046	164623	keystroke_s	s	n/a
82.447	0.09	164894	keystroke_h	h	n/a
82.672	0.075	165344	keystroke_i	i	n/a
82.897	0.03	165794	keystroke_p	p	n/a
82.987	0.0745	165974	keystroke_p	p	n/a
83.1065	0.075	166213	keystroke_e	e	n/a
83.302	0.075	166604	keystroke_d	d	n/a
83.437	0.09	166874	keystroke_Key.space	Key.space	n/a
83.587	0.105	167174	keystroke_s	s	n/a
84.4415	0.075	168883	keystroke_e	e	n/a
84.652	0.105	169304	keystroke_a	a	n/a
84.742	0.135	169484	keystroke_s	s	n/a
84.922	0.1505	169844	keystroke_o	o	n/a
85.0275	0.06	170055	keystroke_n	n	n/a
85.1475	0.06	170295	keystroke_s	s	n/a
85.5675	0.105	171135	keystroke_a	a	n/a
86.1525	0.119	172305	keystroke_Key.backspace	Key.backspace	n/a
86.4675	0.104	172935	keystroke_Key.space	Key.space	n/a
86.5575	0.149	173115	keystroke_a	a	n/a
86.6925	0.06	173385	keystroke_c	c	n/a
86.8715	0.0905	173743	keystroke_t	t	n/a
86.977	0.06	173954	keystroke_i	i	n/a
87.1265	0.0755	174253	keystroke_v	v	n/a
87.2165	0.0905	174433	keystroke_i	i	n/a
87.7715	0.12	175543	keystroke_s	s	n/a
87.8765	0.0905	175753	keystroke_t	t	n/a
88.072	0.075	176144	keystroke_s	s	n/a
88.417	0.0895	176834	keystroke_Key.space	Key.space	n/a
88.9565	0.09	177913	keystroke_j	j	n/a
89.0765	0.0605	178153	keystroke_e	e	n/a
89.257	0.06	178514	keystroke_s	s	n/a
89.347	0.075	178694	keystroke_u	u	n/a
89.437	0.06	178874	keystroke_s	s	n/a
89.662	0.075	179324	keystroke_Key.enter	Key.enter	n/a
89.7415	9.102	179483	prompt	n/a	pads blonde finishing tripadvisor\n
90.4715	0.045	180943	keystroke_p	p	n/a
90.7115	0.06	181423	keystroke_d	d	n/a
91.402	0.1495	182804	keystroke_Key.backspace	Key.backspace	n/a
91.5665	0.06	183133	keystroke_a	a	n/a
91.6115	0.09	183223	keystroke_d	d	n/a
92.2715	0.075	184543	keystroke_s	s	n/a
92.4665	0.09	184933	keystroke_Key.space	Key.space	n/a
92.917	0.075	185834	keystroke_b	b	n/a
93.007	0.06	186014	keystroke_l	l	n/a
93.202	0.12	186404	keystroke_o	o	n/a
93.277	0.09	186554	keystroke_n	n	n/a
93.412	0.21	186824	keystroke_d	d	n/a
93.577	0.12	187154	keystroke_e	e	n/a
94.087	0.075	188174	keystroke_Key.space	Key.space	n/a
94.4325	0.089	188865	keystroke_f	f	n/a
94.5065	0.09	189013	keystroke_i	i	n/a
94.5665	0.12	189133	keystroke_n	n	n/a
94.6715	0.075	189343	keystroke_i	i	n/a
94.8065	0.075	189613	keystroke_s	s	n/a
94.9265	0.06	189853	keystroke_h	h	n/a
95.0615	0.15	190123	keystroke_i	i	n/a
95.1815	0.09	190363	keystroke_n	n	n/a
95.3765	0.075	190753	keystroke_g	g	n/a
95.722	0.09	191444	keystroke_Key.space	Key.space	n/a
96.142	0.075	192284	keystroke_t	t	n/a
96.337	0.06	192674	keystroke_r	r	n/a
96.547	0.075	193094	keystroke_i	i	n/a
96.772	0.0905	193544	keystroke_p	p	n/a
96.9225	0.105	193845	keystroke_a	a	n/a
97.0725	0.105	194145	keystroke_d	d	n/a
97.3875	0.09	194775	keystroke_v	v	n/a
97.4925	0.0595	194985	keystroke_i	i	n/a
97.7775	0.09	195555	keystroke_r	r	n/a
98.1815	0.06	196363	keystroke_Key.backspace	Key.backspace	n/a
98.2715	0.06	196543	keystroke_s	s	n/a
98.4365	0.061	196873	keystroke_o	o	n/a
98.5275	0.104	197055	keystroke_r	r	n/a
98.7965	0.045	197593	keystroke_Key.enter	Key.enter	n/a
98.8465	8.052	197693	prompt	n/a	fifty distribute base archives\n
99.7265	0.075	199453	keystroke_f	f	n/a
99.8165	0.09	199633	keystroke_i	i	n/a
99.9215	0.075	199843	keystroke_f	f	n/a
100.192	0.075	200384	keystroke_t	t	n/a
100.327	0.06	200654	keystroke_y	y	n/a
100.792	0.09	201584	keystroke_Key.space	Key.space	n/a
101.1965	0.106	202393	keystroke_d	d	n/a
101.3165	0.09	202633	keystroke_i	i	n/a
101.4515	0.09	202903	keystroke_s	s	n/a
101.5865	0.105	203173	keystroke_t	t	n/a
101.7825	0.074	203565	keystroke_r	r	n/a
102.1875	0.09	204375	keystroke_i	i	n/a
102.5465	0.0905	205093	keystroke_b	b	n/a
102.622	0.105	205244	keystroke_u	u	n/a
102.772	0.15	205544	keystroke_t	t	n/a
102.892	0.075	205784	keystroke_e	e	n/a
103.387	0.075	206774	keystroke_Key.space	Key.space	n/a
103.702	0.075	207404	keystroke_b	b	n/a
103.792	0.135	207584	keystroke_a	a	n/a
103.837	0.135	207674	keystroke_s	s	n/a
103.912	0.09	207824	keystroke_e	e	n/a
104.242	0.105	208484	keystroke_Key.space	Key.space	n/a
104.7365	0.106	209473	keystroke_a	a	n/a
104.9615	0.061	209923	keystroke_r	r	n/a
105.1415	0.075	210283	keystroke_c	c	n/a
105.2315	0.12	210463	keystroke_h	h	n/a
105.3215	0.09	210643	keystroke_i	i	n/a
105.7565	0.105	211513	keystroke_e	e	n/a
106.1765	0.075	212353	keystroke_Key.backspace	Key.backspace	n/a
106.2665	0.12	212533	keystroke_v	v	n/a
106.3565	0.09	212713	keystroke_e	e	n/a
106.5965	0.045	213193	keystroke_s	s	n/a
106.8365	0.06	213673	keystroke_Key.enter	Key.enter	n/a
106.901	9.8375	213802	prompt	n/a	humanitarian marsh receiver playback\n
107.947	0.12	215894	keystroke_h	h	n/a
108.082	0.015	216164	keystroke_u	u	n/a
108.232	0.09	216464	keystroke_m	m	n/a
108.337	0.075	216674	keystroke_a	a	n/a
108.772	0.09	217544	keystroke_n	n	n/a
108.9515	0.075	217903	keystroke_i	i	n/a
109.252	0.075	218504	keystroke_r	r	n/a
109.5965	0.06	219193	keystroke_Key.backspace	Key.backspace	n/a
109.6415	0.12	219283	keystroke_t	t	n/a
109.7765	0.06	219553	keystroke_a	a	n/a
110.0765	0.106	220153	keystroke_r	r	n/a
110.2565	0.061	220513	keystroke_i	i	n/a
110.4065	0.075	220813	keystroke_a	a	n/a
110.5725	0.059	221145	keystroke_n	n	n/a
110.9015	0.0905	221803	keystroke_Key.space	Key.space	n/a
111.457	0.06	222914	keystroke_m	m	n/a
111.577	0.105	223154	keystroke_a	a	n/a
111.637	0.105	223274	keystroke_r	r	n/a
111.892	0.075	223784	keystroke_s	s	n/a
112.027	0.075	224054	keystroke_h	h	n/a
112.432	0.09	224864	keystroke_Key.space	Key.space	n/a
113.317	0.09	226634	keystroke_r	r	n/a
113.392	0.09	226784	keystroke_e	e	n/a
113.617	0.135	227234	keystroke_c	c	n/a
113.707	0.09	227414	keystroke_e	e	n/a
113.827	0.075	227654	keystroke_i	i	n/a
113.977	0.135	227954	keystroke_v	v	n/a
114.157	0.12	228314	keystroke_e	e	n/a
114.232	0.105	228464	keystroke_r	r	n/a
114.487	0.12	228974	keystroke_Key.space	Key.space	n/a
114.757	0.15	229514	keystroke_p	p	n/a
115.0715	0.075	230143	keystroke_a	a	n/a
115.3865	0.075	230773	keystroke_Key.backspace	Key.backspace	n/a
115.6265	0.09	231253	keystroke_l	l	n/a
115.7465	0.09	231493	keystroke_a	a	n/a
115.8815	0.0605	231763	keystroke_y	y	n/a
116.182	0.06	232364	keystroke_b	b	n/a
116.287	0.105	232574	keystroke_a	a	n/a
116.377	0.1195	232754	keystroke_c	c	n/a
116.4815	0.075	232963	keystroke_k	k	n/a
116.6765	0.06	233353	keystroke_Key.enter	Key.enter	n/a
116.7415	6.252	233483	prompt	n/a	tooth christians poster edge\n
117.5315	0.075	235063	keystroke_t	t	n/a
117.6365	0.06	235273	keystroke_o	o	n/a
117.7715	0.09	235543	keystroke_o	o	n/a
118.0115	0.06	236023	keystroke_t	t	n/a
118.1325	0.074	236265	keystroke_h	h	n/a
118.4625	0.09	236925	keystroke_Key.space	Key.space	n/a
118.9275	0.045	237855	keystroke_c	c	n/a
119.0025	0.06	238005	keystroke_h	h	n/a
119.0925	0.075	238185	keystroke_r	r	n/a
119.1975	0.075	238395	keystroke_i	i	n/a
119.3475	0.09	238695	keystroke_s	s	n/a
119.4525	0.09	238905	keystroke_t	t	n/a
119.6925	0.075	239385	keystroke_i	i	n/a
119.9025	0.09	239805	keystroke_a	a	n/a
120.0675	0.06	240135	keystroke_n	n	n/a
120.2025	0.075	240405	keystroke_s	s	n/a
120.4725	0.09	240945	keystroke_Key.space	Key.space	n/a
120.742	0.15	241484	keystroke_p	p	n/a
120.817	0.09	241634	keystroke_o	o	n/a
120.877	0.105	241754	keystroke_s	s	n/a
120.967	0.12	241934	keystroke_t	t	n/a
121.117	0.1795	242234	keystroke_e	e	n/a
121.2515	0.09	242503	keystroke_r	r	n/a
121.9715	0.075	243943	keystroke_Key.space	Key.space	n/a
122.2275	0.104	244455	keystroke_e	e	n/a
122.4375	0.075	244875	keystroke_d	d	n/a
122.6315	0.136	245263	keystroke_g	g	n/a
122.7365	0.106	245473	keystroke_e	e	n/a
122.9165	0.075	245833	keystroke_Key.enter	Key.enter	n/a
122.9965	8.202	245993	prompt	n/a	leaders suspension trade movie\n
123.7425	0.0895	247485	keystroke_l	l	n/a
123.802	0.12	247604	keystroke_e	e	n/a
123.907	0.105	247814	keystroke_q	q	n/a
124.072	0.15	248144	keystroke_d	d	n/a
124.432	0.075	248864	keystroke_Key.backspace	Key.backspace	n/a
124.567	0.075	249134	keystroke_Key.backspace	Key.backspace	n/a
124.627	0.135	249254	keystroke_a	a	n/a
124.747	0.12	249494	keystroke_d	d	n/a
124.852	0.165	249704	keystroke_e	e	n/a
124.972	0.09	249944	keystroke_r	r	n/a
125.197	0.075	250394	keystroke_s	s	n/a
125.407	0.0745	250814	keystroke_Key.space	Key.space	n/a
125.6165	0.06	251233	keystroke_s	s	n/a
125.7065	0.075	251413	keystroke_u	u	n/a
125.7825	0.059	251565	keystroke_s	s	n/a
126.1115	0.06	252223	keystroke_o	o	n/a
126.2615	0.075	252523	keystroke_e	e	n/a
126.3975	0.059	252795	keystroke_n	n	n/a
126.8165	0.03	253633	keystroke_Key.backspace	Key.backspace	n/a
126.8915	0.075	253783	keystroke_Key.backspace	Key.backspace	n/a
127.0115	0.075	254023	keystroke_Key.backspace	Key.backspace	n/a
127.2825	0.075	254565	keystroke_p	p	n/a
127.4015	0.06	254803	keystroke_s	s	n/a
127.6875	0.06	255375	keystroke_n	n	n/a
128.002	0.06	256004	keystroke_Key.backspace	Key.backspace	n/a
128.137	0.06	256274	keystroke_Key.backspace	Key.backspace	n/a
128.2565	0.075	256513	keystroke_e	e	n/a
128.3915	0.045	256783	keystroke_n	n	n/a
128.4815	0.09	256963	keystroke_s	s	n/a
128.5865	0.12	257173	keystroke_i	i	n/a
128.6615	0.075	257323	keystroke_o	o	n/a
128.8415	0.09	257683	keystroke_n	n	n/a
129.1115	0.09	258223	keystroke_Key.space	Key.space	n/a
129.3515	0.09	258703	keystroke_t	t	n/a
129.5165	0.1355	259033	keystroke_r	r	n/a
129.6525	0.074	259305	keystroke_a	a	n/a
129.937	0.1495	259874	keystroke_d	d	n/a
130.102	0.105	260204	keystroke_e	e	n/a
130.3415	0.075	260683	keystroke_Key.space	Key.space	n/a
130.5365	0.105	261073	keystroke_m	m	n/a
130.5965	0.09	261193	keystroke_o	o	n/a
130.7465	0.09	261493	keystroke_v	v	n/a
130.867	0.0895	261734	keystroke_i	i	n/a
131.0015	0.06	262003	keystroke_e	e	n/a
131.122	0.0745	262244	keystroke_Key.enter	Key.enter	n/a
131.201	9.4325	262402	prompt	n/a	ipaq attitude sheep incredible\n
132.337	0.075	264674	keystroke_i	i	n/a
132.7265	0.12	265453	keystroke_q	q	n/a
133.5215	0.09	267043	keystroke_a	a	n/a
134.0015	0.075	268003	keystroke_Key.backspace	Key.backspace	n/a
134.1365	0.0905	268273	keystroke_Key.backspace	Key.backspace	n/a
134.4375	0.074	268875	keystroke_p	p	n/a
134.5565	0.09	269113	keystroke_a	a	n/a
135.487	0.075	270974	keystroke_q	q	n/a
135.892	0.075	271784	keystroke_Key.space	Key.space	n/a
136.2815	0.105	272563	keystroke_a	a	n/a
136.537	0.0595	273074	keystroke_t	t	n/a
136.7015	0.0755	273403	keystroke_t	t	n/a
136.8065	0.075	273613	keystroke_i	i	n/a
136.9865	0.09	273973	keystroke_t	t	n/a
137.0915	0.075	274183	keystroke_u	u	n/a
137.392	0.105	274784	keystroke_d	d	n/a
137.4665	0.1055	274933	keystroke_e	e	n/a
137.797	0.0745	275594	keystroke_Key.space	Key.space	n/a
138.0215	0.075	276043	keystroke_s	s	n/a
138.1415	0.075	276283	keystroke_h	h	n/a
138.2915	0.075	276583	keystroke_e	e	n/a
138.442	0.06	276884	keystroke_e	e	n/a
138.547	0.09	277094	keystroke_p	p	n/a
138.802	0.075	277604	keystroke_Key.space	Key.space	n/a
139.042	0.105	278084	keystroke_i	i	n/a
139.102	0.09	278204	keystroke_n	n	n/a
139.342	0.09	278684	keystroke_c	c	n/a
139.567	0.045	279134	keystroke_r	r	n/a
139.582	0.09	279164	keystroke_e	e	n/a
139.807	0.09	279614	keystroke_d	d	n/a
139.927	0.075	279854	keystroke_i	i	n/a
140.122	0.075	280244	keystroke_b	b	n/a
140.287	0.075	280574	keystroke_l	l	n/a
140.422	0.0745	280844	keystroke_e	e	n/a
140.5565	0.075	281113	keystroke_Key.enter	Key.enter	n/a
140.637	9.806	281274	prompt	n/a	prove permalink blocking informational\n
141.8615	0.075	283723	keystroke_r	r	n/a
142.2065	0.09	284413	keystroke_Key.backspace	Key.backspace	n/a
142.4475	0.074	284895	keystroke_p	p	n/a
142.5375	0.074	285075	keystroke_r	r	n/a
142.6565	0.076	285313	keystroke_o	o	n/a
143.2125	0.135	286425	keystroke_v	v	n/a
143.3325	0.105	286665	keystroke_e	e	n/a
143.6325	0.089	287265	keystroke_Key.space	Key.space	n/a
143.887	0.06	287774	keystroke_p	p	n/a
143.992	0.12	287984	keystroke_e	e	n/a
144.052	0.09	288104	keystroke_r	r	n/a
144.9965	0.075	289993	keystroke_m	m	n/a
145.1165	0.09	290233	keystroke_a	a	n/a
145.2365	0.12	290473	keystroke_l	l	n/a
145.3115	0.075	290623	keystroke_i	i	n/a
145.4915	0.105	290983	keystroke_n	n	n/a
145.5515	0.076	291103	keystroke_k	k	n/a
145.9865	0.09	291973	keystroke_Key.space	Key.space	n/a
146.6165	0.075	293233	keystroke_b	b	n/a
146.7215	0.06	293443	keystroke_l	l	n/a
146.8865	0.091	293773	keystroke_c	c	n/a
147.4415	0.09	294883	keystroke_Key.backspace	Key.backspace	n/a
147.6815	0.075	295363	keystroke_o	o	n/a
147.7715	0.06	295543	keystroke_c	c	n/a
147.8915	0.06	295783	keystroke_k	k	n/a
148.0265	0.105	296053	keystroke_i	i	n/a
148.1015	0.06	296203	keystroke_n	n	n/a
148.2065	0.06	296413	keystroke_g	g	n/a
148.3565	0.075	296713	keystroke_Key.space	Key.space	n/a
148.6115	0.105	297223	keystroke_i	i	n/a
148.6715	0.076	297343	keystroke_n	n	n/a
148.9275	0.074	297855	keystroke_f	f	n/a
149.0315	0.0755	298063	keystroke_o	o	n/a
149.0925	0.1045	298185	keystroke_r	r	n/a
149.257	0.06	298514	keystroke_m	m	n/a
149.377	0.105	298754	keystroke_a	a	n/a
149.422	0.09	298844	keystroke_t	t	n/a
149.482	0.105	298964	keystroke_i	i	n/a
149.542	0.09	299084	keystroke_o	o	n/a
149.677	0.105	299354	keystroke_n	n	n/a
149.842	0.075	299684	keystroke_a	a	n/a
150.0365	0.0905	300073	keystroke_l	l	n/a
150.3665	0.075	300733	keystroke_Key.enter	Key.enter	n/a
150.4465	7.962	300893	prompt	n/a	syntax provided driving denmark\n
151.2515	0.06	302503	keystroke_s	s	n/a
151.3415	0.075	302683	keystroke_y	y	n/a
151.5515	0.075	303103	keystroke_n	n	n/a
151.7615	0.09	303523	keystroke_t	t	n/a
152.0165	0.09	304033	keystroke_a	a	n/a
152.4215	0.015	304843	keystroke_x	x	n/a
152.6315	0.075	305263	keystroke_Key.space	Key.space	n/a
152.8565	0.045	305713	keystroke_p	p	n/a
152.9165	0.06	305833	keystroke_r	r	n/a
153.0215	0.105	306043	keystroke_o	o	n/a
153.5915	0.075	307183	keystroke_v	v	n/a
153.6965	0.0755	307393	keystroke_i	i	n/a
153.832	0.135	307664	keystroke_d	d	n/a
153.937	0.09	307874	keystroke_e	e	n/a
154.1615	0.075	308323	keystroke_d	d	n/a
154.3865	0.09	308773	keystroke_Key.space	Key.space	n/a
154.7775	0.074	309555	keystroke_d	d	n/a
154.9265	0.091	309853	keystroke_r	r	n/a
155.0465	0.06	310093	keystroke_i	i	n/a
155.1815	0.075	310363	keystroke_v	v	n/a
155.2715	0.09	310543	keystroke_i	i	n/a
155.3325	0.074	310665	keystroke_n	n	n/a
155.4225	0.059	310845	keystroke_g	g	n/a
155.8115	0.075	311623	keystroke_Key.space	Key.space	n/a
156.0665	0.135	312133	keystroke_d	d	n/a
156.1565	0.105	312313	keystroke_e	e	n/a
156.2765	0.06	312553	keystroke_n	n	n/a
156.682	0.075	313364	keystroke_m	m	n/a
156.817	0.075	313634	keystroke_a	a	n/a
157.297	0.0145	314594	keystroke_c	c	n/a
157.6565	0.075	315313	keystroke_Key.backspace	Key.backspace	n/a
157.9715	0.06	315943	keystroke_r	r	n/a
158.0915	0.09	316183	keystroke_k	k	n/a
158.3315	0.075	316663	keystroke_Key.enter	Key.enter	n/a
158.411	6.1775	316822	prompt	n/a	yahoo samba under aruba\n
159.3065	0.075	318613	keystroke_y	y	n/a
159.3965	0.075	318793	keystroke_a	a	n/a
159.4865	0.075	318973	keystroke_h	h	n/a
159.6665	0.06	319333	keystroke_o	o	n/a
159.7865	0.075	319573	keystroke_o	o	n/a
160.0715	0.09	320143	keystroke_Key.space	Key.space	n/a
160.3265	0.09	320653	keystroke_s	s	n/a
160.4315	0.105	320863	keystroke_a	a	n/a
160.5515	0.09	321103	keystroke_m	m	n/a
160.6865	0.06	321373	keystroke_o	o	n/a
161.317	0.075	322634	keystroke_Key.backspace	Key.backspace	n/a
161.632	0.06	323264	keystroke_b	b	n/a
161.722	0.075	323444	keystroke_a	a	n/a
162.412	0.06	324824	keystroke_Key.space	Key.space	n/a
162.712	0.06	325424	keystroke_u	u	n/a
162.877	0.09	325754	keystroke_n	n	n/a
162.982	0.12	325964	keystroke_d	d	n/a
163.117	0.135	326234	keystroke_e	e	n/a
163.192	0.09	326384	keystroke_r	r	n/a
163.432	0.09	326864	keystroke_Key.space	Key.space	n/a
163.8665	0.15	327733	keystroke_a	a	n/a
163.9565	0.105	327913	keystroke_r	r	n/a
164.0765	0.075	328153	keystroke_u	u	n/a
164.3015	0.06	328603	keystroke_b	b	n/a
164.3915	0.0905	328783	keystroke_a	a	n/a
164.512	0.075	329024	keystroke_Key.enter	Key.enter	n/a
164.591	10.5125	329182	prompt	n/a	epic hardcover animated assists\n
165.4115	0.076	330823	keystroke_e	e	n/a
165.5315	0.165	331063	keystroke_p	p	n/a
165.6665	0.075	331333	keystroke_i	i	n/a
165.9065	0.075	331813	keystroke_c	c	n/a
166.2665	0.075	332533	keystroke_Key.space	Key.space	n/a
166.7765	0.09	333553	keystroke_h	h	n/a
166.8515	0.15	333703	keystroke_a	a	n/a
166.9415	0.075	333883	keystroke_r	r	n/a
167.1365	0.106	334273	keystroke_d	d	n/a
167.4965	0.015	334993	keystroke_d	d	n/a
168.0665	0.075	336133	keystroke_Key.backspace	Key.backspace	n/a
168.2025	0.089	336405	keystroke_c	c	n/a
168.3365	0.075	336673	keystroke_o	o	n/a
168.4415	0.12	336883	keystroke_v	v	n/a
168.6225	0.135	337245	keystroke_e	e	n/a
169.102	0.075	338204	keystroke_r	r	n/a
169.522	0.09	339044	keystroke_Key.space	Key.space	n/a
170.422	0.06	340844	keystroke_a	a	n/a
170.5865	0.12	341173	keystroke_n	n	n/a
170.6915	0.06	341383	keystroke_i	i	n/a
171.022	0.12	342044	keystroke_m	m	n/a
171.127	0.135	342254	keystroke_a	a	n/a
171.232	0.135	342464	keystroke_t	t	n/a
171.337	0.075	342674	keystroke_e	e	n/a
171.532	0.075	343064	keystroke_d	d	n/a
171.712	0.075	343424	keystroke_Key.space	Key.space	n/a
171.877	0.12	343754	keystroke_a	a	n/a
172.042	0.03	344084	keystroke_a	a	n/a
172.057	0.075	344114	keystroke_s	s	n/a
172.222	0.075	344444	keystroke_s	s	n/a
172.357	0.075	344714	keystroke_i	i	n/a
172.9565	0.06	345913	keystroke_Key.backspace	Key.backspace	n/a
173.0615	0.075	346123	keystroke_Key.backspace	Key.backspace	n/a
173.197	0.075	346394	keystroke_Key.backspace	Key.backspace	n/a
173.587	0.09	347174	keystroke_Key.backspace	Key.backspace	n/a
173.812	0.075	347624	keystroke_s	s	n/a
173.977	0.06	347954	keystroke_s	s	n/a
174.1565	0.06	348313	keystroke_i	i	n/a
174.3215	0.2255	348643	keystroke_s	s	n/a
174.5165	0.0905	349033	keystroke_t	t	n/a
174.817	0.06	349634	keystroke_s	s	n/a
175.027	0.075	350054	keystroke_Key.enter	Key.enter	n/a
175.1065	7.9165	350213	prompt	n/a	champions pound women awesome\n
175.972	0.09	351944	keystroke_c	c	n/a
176.092	0.075	352184	keystroke_h	h	n/a
176.182	0.075	352364	keystroke_a	a	n/a
176.302	0.075	352604	keystroke_m	m	n/a
176.4965	0.075	352993	keystroke_p	p	n/a
176.8115	0.12	353623	keystroke_i	i	n/a
176.8865	0.09	353773	keystroke_n	n	n/a
177.322	0.09	354644	keystroke_Key.backspace	Key.backspace	n/a
177.577	0.12	355154	keystroke_o	o	n/a
177.652	0.06	355304	keystroke_n	n	n/a
177.802	0.075	355604	keystroke_s	s	n/a
178.012	0.075	356024	keystroke_Key.space	Key.space	n/a
178.237	0.09	356474	keystroke_p	p	n/a
178.462	0.045	356924	keystroke_i	i	n/a
179.122	0.09	358244	keystroke_Key.backspace	Key.backspace	n/a
179.467	0.15	358934	keystroke_o	o	n/a
179.6915	0.09	359383	keystroke_u	u	n/a
179.9165	0.075	359833	keystroke_n	n	n/a
180.0965	0.075	360193	keystroke_d	d	n/a
180.4415	0.075	360883	keystroke_Key.space	Key.space	n/a
180.772	0.09	361544	keystroke_w	w	n/a
180.847	0.0595	361694	keystroke_o	o	n/a
181.0265	0.076	362053	keystroke_m	m	n/a
181.1775	0.075	362355	keystroke_e	e	n/a
181.3125	0.075	362625	keystroke_n	n	n/a
181.6725	0.075	363345	keystroke_Key.space	Key.space	n/a
181.8525	0.1045	363705	keystroke_a	a	n/a
182.092	0.075	364184	keystroke_w	w	n/a
182.287	0.045	364574	keystroke_e	e	n/a
182.467	0.075	364934	keystroke_s	s	n/a
182.557	0.09	365114	keystroke_o	o	n/a
182.602	0.075	365204	keystroke_m	m	n/a
182.707	0.09	365414	keystroke_e	e	n/a
182.947	0.075	365894	keystroke_Key.enter	Key.enter	n/a
183.028	13.87	366056	prompt	n/a	released wind descriptions diagnostic\n
183.862	0.1055	367724	keystroke_r	r	n/a
183.937	0.1055	367874	keystroke_e	e	n/a
184.0275	0.06	368055	keystroke_l	l	n/a
184.1165	0.091	368233	keystroke_e	e	n/a
184.3425	0.1045	368685	keystroke_a	a	n/a
184.8515	0.15	369703	keystroke_s	s	n/a
184.9865	0.1205	369973	keystroke_e	e	n/a
185.2415	0.0905	370483	keystroke_d	d	n/a
185.5125	0.075	371025	keystroke_Key.space	Key.space	n/a
185.7375	0.09	371475	keystroke_w	w	n/a
185.8425	0.0895	371685	keystroke_i	i	n/a
185.887	0.06	371774	keystroke_n	n	n/a
186.007	0.09	372014	keystroke_d	d	n/a
186.517	0.09	373034	keystroke_Key.space	Key.space	n/a
186.8925	0.15	373785	keystroke_d	d	n/a
186.9975	0.075	373995	keystroke_e	e	n/a
187.1775	0.075	374355	keystroke_s	s	n/a
187.3875	0.045	374775	keystroke_c	c	n/a
187.5375	0.09	375075	keystroke_r	r	n/a
187.6125	0.06	375225	keystroke_i	i	n/a
187.912	0.0755	375824	keystroke_t	t	n/a
188.0025	0.0895	376005	keystroke_i	i	n/a
188.2865	0.061	376573	keystroke_Key.backspace	Key.backspace	n/a
188.3925	0.074	376785	keystroke_Key.backspace	Key.backspace	n/a
188.6165	0.076	377233	keystroke_o	o	n/a
188.6315	0.046	377263	keystroke_p	p	n/a
188.7065	0.075	377413	keystroke_t	t	n/a
188.7975	0.12	377595	keystroke_i	i	n/a
188.8725	0.075	377745	keystroke_o	o	n/a
189.0375	0.06	378075	keystroke_n	n	n/a
189.306	0.061	378612	keystroke_Key.backspace	Key.backspace	n/a
189.4265	0.061	378853	keystroke_Key.backspace	Key.backspace	n/a
189.547	0.045	379094	keystroke_Key.backspace	Key.backspace	n/a
190.657	0.015	381314	keystroke_Key.backspace	Key.backspace	n/a
190.7465	0.06	381493	keystroke_Key.backspace	Key.backspace	n/a
190.8515	0.0745	381703	keystroke_Key.backspace	Key.backspace	n/a
191.092	0.075	382184	keystroke_p	p	n/a
191.272	0.06	382544	keystroke_t	t	n/a
191.347	0.12	382694	keystroke_i	i	n/a
191.4225	0.0895	382845	keystroke_o	o	n/a
191.586	0.091	383172	keystroke_n	n	n/a
192.097	0.09	384194	keystroke_s	s	n/a
192.262	0.089	384524	keystroke_Key.space	Key.space	n/a
192.5465	0.105	385093	keystroke_d	d	n/a
192.9515	0.09	385903	keystroke_i	i	n/a
193.1015	0.075	386203	keystroke_a	a	n/a
193.4625	0.075	386925	keystroke_g	g	n/a
193.8365	0.06	387673	keystroke_b	b	n/a
194.0015	0.075	388003	keystroke_o	o	n/a
194.2415	0.06	388483	keystroke_s	s	n/a
194.6465	0.06	389293	keystroke_Key.backspace	Key.backspace	n/a
194.7815	0.06	389563	keystroke_Key.backspace	Key.backspace	n/a
194.8865	0.105	389773	keystroke_Key.backspace	Key.backspace	n/a
195.172	0.06	390344	keystroke_n	n	n/a
195.277	0.06	390554	keystroke_o	o	n/a
195.937	0.075	391874	keystroke_s	s	n/a
196.042	0.075	392084	keystroke_i	i	n/a
196.132	0.075	392264	keystroke_s	s	n/a
196.8215	0.075	393643	keystroke_Key.enter	Key.enter	n/a
196.901	9.5225	393802	prompt	n/a	terrorist generated volumes condo\n
197.767	0.075	395534	keystroke_r	r	n/a
198.067	0.075	396134	keystroke_Key.backspace	Key.backspace	n/a
198.157	0.12	396314	keystroke_t	t	n/a
198.292	0.18	396584	keystroke_e	e	n/a
198.412	0.105	396824	keystroke_r	r	n/a
198.607	0.075	397214	keystroke_r	r	n/a
198.742	0.09	397484	keystroke_o	o	n/a
198.937	0.075	397874	keystroke_r	r	n/a
199.057	0.09	398114	keystroke_i	i	n/a
199.252	0.105	398504	keystroke_s	s	n/a
199.312	0.075	398624	keystroke_t	t	n/a
199.687	0.075	399374	keystroke_Key.space	Key.space	n/a
200.002	0.0895	400004	keystroke_g	g	n/a
200.0765	0.12	400153	keystroke_e	e	n/a
200.1815	0.09	400363	keystroke_n	n	n/a
200.2865	0.135	400573	keystroke_e	e	n/a
200.4515	0.12	400903	keystroke_r	r	n/a
200.6015	0.105	401203	keystroke_a	a	n/a
200.7365	0.105	401473	keystroke_t	t	n/a
200.8265	0.09	401653	keystroke_e	e	n/a
201.022	0.09	402044	keystroke_d	d	n/a
201.502	0.075	403004	keystroke_Key.space	Key.space	n/a
201.9365	0.09	403873	keystroke_v	v	n/a
201.9965	0.06	403993	keystroke_o	o	n/a
202.0115	0.03	404023	keystroke_i	i	n/a
202.1465	0.105	404293	keystroke_l	l	n/a
202.237	0.0745	404474	keystroke_u	u	n/a
202.4165	0.0905	404833	keystroke_m	m	n/a
202.552	0.09	405104	keystroke_e	e	n/a
202.762	0.06	405524	keystroke_s	s	n/a
202.957	0.0745	405914	keystroke_Key.backspace	Key.backspace	n/a
203.0915	0.045	406183	keystroke_Key.backspace	Key.backspace	n/a
203.197	0.06	406394	keystroke_Key.backspace	Key.backspace	n/a
203.347	0.03	406694	keystroke_Key.backspace	Key.backspace	n/a
203.437	0.06	406874	keystroke_Key.backspace	Key.backspace	n/a
203.572	0.06	407144	keystroke_Key.backspace	Key.backspace	n/a
204.412	0.06	408824	keystroke_o	o	n/a
204.5915	0.075	409183	keystroke_l	l	n/a
204.7415	0.0755	409483	keystroke_u	u	n/a
204.937	0.09	409874	keystroke_m	m	n/a
205.102	0.06	410204	keystroke_e	e	n/a
205.327	0.075	410654	keystroke_s	s	n/a
205.507	0.075	411014	keystroke_Key.space	Key.space	n/a
205.807	0.09	411614	keystroke_c	c	n/a
205.882	0.105	411764	keystroke_o	o	n/a
205.957	0.06	411914	keystroke_n	n	n/a
206.032	0.09	412064	keystroke_d	d	n/a
206.152	0.075	412304	keystroke_o	o	n/a
206.362	0.06	412724	keystroke_Key.enter	Key.enter	n/a
206.4265	8.1415	412853	prompt	n/a	lotus concrete thrown programmes\n
207.246	0.0755	414492	keystroke_l	l	n/a
207.3965	0.09	414793	keystroke_o	o	n/a
207.5615	0.06	415123	keystroke_t	t	n/a
207.6665	0.0755	415333	keystroke_u	u	n/a
207.907	0.06	415814	keystroke_s	s	n/a
208.1465	0.075	416293	keystroke_Key.space	Key.space	n/a
208.4165	0.105	416833	keystroke_c	c	n/a
208.4915	0.12	416983	keystroke_o	o	n/a
208.5665	0.0755	417133	keystroke_n	n	n/a
208.717	0.089	417434	keystroke_r	r	n/a
209.077	0.075	418154	keystroke_Key.backspace	Key.backspace	n/a
209.1365	0.0905	418273	keystroke_c	c	n/a
209.332	0.12	418664	keystroke_r	r	n/a
209.422	0.06	418844	keystroke_e	e	n/a
209.587	0.1345	419174	keystroke_a	a	n/a
209.6765	0.12	419353	keystroke_t	t	n/a
210.1715	0.06	420343	keystroke_Key.backspace	Key.backspace	n/a
210.3065	0.09	420613	keystroke_Key.backspace	Key.backspace	n/a
210.5915	0.135	421183	keystroke_t	t	n/a
210.712	0.0895	421424	keystroke_e	e	n/a
210.9815	0.0755	421963	keystroke_Key.space	Key.space	n/a
211.2965	0.075	422593	keystroke_t	t	n/a
211.387	0.06	422774	keystroke_h	h	n/a
211.492	0.06	422984	keystroke_r	r	n/a
211.597	0.06	423194	keystroke_o	o	n/a
211.717	0.06	423434	keystroke_w	w	n/a
211.867	0.06	423734	keystroke_n	n	n/a
212.317	0.075	424634	keystroke_Key.space	Key.space	n/a
212.6615	0.06	425323	keystroke_p	p	n/a
212.752	0.075	425504	keystroke_r	r	n/a
212.857	0.075	425714	keystroke_o	o	n/a
213.022	0.09	426044	keystroke_g	g	n/a
213.217	0.135	426434	keystroke_r	r	n/a
213.382	0.075	426764	keystroke_a	a	n/a
213.607	0.06	427214	keystroke_m	m	n/a
213.757	0.06	427514	keystroke_m	m	n/a
213.862	0.09	427724	keystroke_e	e	n/a
213.922	0.075	427844	keystroke_r	r	n/a
214.102	0.09	428204	keystroke_s	s	n/a
214.477	0.09	428954	keystroke_Key.enter	Key.enter	n/a
214.572	8.501	429144	prompt	n/a	throat salad thehun moscow\n
215.556	0.075	431112	keystroke_t	t	n/a
215.616	0.075	431232	keystroke_h	h	n/a
215.736	0.09	431472	keystroke_r	r	n/a
215.841	0.0755	431682	keystroke_o	o	n/a
215.9765	0.135	431953	keystroke_a	a	n/a
216.1265	0.075	432253	keystroke_t	t	n/a
216.5315	0.075	433063	keystroke_Key.space	Key.space	n/a
216.8015	0.0745	433603	keystroke_s	s	n/a
216.936	0.06	433872	keystroke_l	l	n/a
216.966	0.09	433932	keystroke_a	a	n/a
217.581	0.06	435162	keystroke_Key.backspace	Key.backspace	n/a
217.671	0.09	435342	keystroke_Key.backspace	Key.backspace	n/a
217.791	0.091	435582	keystroke_a	a	n/a
217.927	0.074	435854	keystroke_l	l	n/a
218.076	0.061	436152	keystroke_a	a	n/a
218.406	0.1205	436812	keystroke_d	d	n/a
218.7215	0.075	437443	keystroke_Key.space	Key.space	n/a
218.9615	0.075	437923	keystroke_t	t	n/a
219.0665	0.075	438133	keystroke_h	h	n/a
219.2015	0.075	438403	keystroke_e	e	n/a
220.026	0.061	440052	keystroke_h	h	n/a
220.177	0.06	440354	keystroke_u	u	n/a
220.356	0.091	440712	keystroke_n	n	n/a
220.9565	0.075	441913	keystroke_Key.space	Key.space	n/a
221.256	0.121	442512	keystroke_m	m	n/a
221.391	0.0755	442782	keystroke_o	o	n/a
221.6015	0.075	443203	keystroke_s	s	n/a
221.9915	0.09	443983	keystroke_c	c	n/a
222.0965	0.075	444193	keystroke_o	o	n/a
222.2465	0.015	444493	keystroke_r	r	n/a
222.7265	0.06	445453	keystroke_Key.backspace	Key.backspace	n/a
222.8315	0.075	445663	keystroke_w	w	n/a
222.9815	0.09	445963	keystroke_Key.enter	Key.enter	n/a
223.075	7.063	446150	prompt	n/a	promised rides description admit\n
223.9715	0.045	447943	keystroke_p	p	n/a
224.0615	0.075	448123	keystroke_r	r	n/a
224.1515	0.09	448303	keystroke_o	o	n/a
224.3915	0.12	448783	keystroke_m	m	n/a
224.4365	0.105	448873	keystroke_i	i	n/a
224.7365	0.195	449473	keystroke_s	s	n/a
224.9015	0.1045	449803	keystroke_e	e	n/a
225.141	0.075	450282	keystroke_d	d	n/a
225.651	0.0755	451302	keystroke_Key.space	Key.space	n/a
225.9665	0.075	451933	keystroke_r	r	n/a
226.0565	0.06	452113	keystroke_i	i	n/a
226.1765	0.165	452353	keystroke_d	d	n/a
226.2965	0.09	452593	keystroke_e	e	n/a
226.521	0.09	453042	keystroke_s	s	n/a
226.701	0.075	453402	keystroke_Key.space	Key.space	n/a
227.061	0.15	454122	keystroke_d	d	n/a
227.166	0.105	454332	keystroke_e	e	n/a
227.376	0.075	454752	keystroke_s	s	n/a
227.541	0.06	455082	keystroke_c	c	n/a
227.721	0.06	455442	keystroke_r	r	n/a
227.782	0.074	455564	keystroke_i	i	n/a
227.946	0.09	455892	keystroke_o	o	n/a
228.066	0.075	456132	keystroke_t	t	n/a
228.096	0.135	456192	keystroke_i	i	n/a
228.201	0.075	456402	keystroke_o	o	n/a
228.336	0.09	456672	keystroke_n	n	n/a
229.251	0.06	458502	keystroke_Key.space	Key.space	n/a
229.521	0.1205	459042	keystroke_a	a	n/a
229.6115	0.12	459223	keystroke_d	d	n/a
229.716	0.1205	459432	keystroke_m	m	n/a
229.7915	0.1045	459583	keystroke_i	i	n/a
229.926	0.09	459852	keystroke_t	t	n/a
230.061	0.075	460122	keystroke_Key.enter	Key.enter	n/a
230.141	7.632	460282	prompt	n/a	milan policy proved examinations\n
230.886	0.1505	461772	keystroke_m	m	n/a
230.9915	0.09	461983	keystroke_i	i	n/a
231.2015	0.075	462403	keystroke_l	l	n/a
231.3215	0.075	462643	keystroke_a	a	n/a
231.4565	0.075	462913	keystroke_n	n	n/a
231.7565	0.09	463513	keystroke_Key.space	Key.space	n/a
232.1165	0.06	464233	keystroke_p	p	n/a
232.3265	0.06	464653	keystroke_o	o	n/a
232.5365	0.075	465073	keystroke_l	l	n/a
232.5815	0.105	465163	keystroke_i	i	n/a
232.9565	0.0595	465913	keystroke_c	c	n/a
233.077	0.074	466154	keystroke_y	y	n/a
233.616	0.075	467232	keystroke_Key.space	Key.space	n/a
233.931	0.076	467862	keystroke_p	p	n/a
234.066	0.075	468132	keystroke_r	r	n/a
234.126	0.075	468252	keystroke_o	o	n/a
234.366	0.075	468732	keystroke_v	v	n/a
234.471	0.1205	468942	keystroke_e	e	n/a
234.7115	0.06	469423	keystroke_d	d	n/a
234.9215	0.075	469843	keystroke_Key.space	Key.space	n/a
235.1765	0.075	470353	keystroke_e	e	n/a
235.4015	0.045	470803	keystroke_x	x	n/a
235.5215	0.12	471043	keystroke_a	a	n/a
235.7315	0.105	471463	keystroke_m	m	n/a
235.7915	0.105	471583	keystroke_i	i	n/a
236.812	0.075	473624	keystroke_n	n	n/a
236.947	0.1045	473894	keystroke_a	a	n/a
237.127	0.09	474254	keystroke_t	t	n/a
237.202	0.09	474404	keystroke_i	i	n/a
237.262	0.06	474524	keystroke_o	o	n/a
237.397	0.09	474794	keystroke_n	n	n/a
237.517	0.075	475034	keystroke_s	s	n/a
237.712	0.06	475424	keystroke_Key.enter	Key.enter	n/a
237.776	6.717	475552	prompt	n/a	i'd upcoming sides place\n
238.6865	0.06	477373	keystroke_i	i	n/a
239.301	0.075	478602	keystroke_'	'	n/a
239.556	0.061	479112	keystroke_d	d	n/a
239.841	0.075	479682	keystroke_Key.space	Key.space	n/a
240.5015	0.06	481003	keystroke_u	u	n/a
240.9365	0.075	481873	keystroke_p	p	n/a
241.402	0.09	482804	keystroke_c	c	n/a
241.432	0.075	482864	keystroke_o	o	n/a
241.477	0.075	482954	keystroke_m	m	n/a
241.611	0.106	483222	keystroke_i	i	n/a
241.672	0.075	483344	keystroke_n	n	n/a
241.807	0.06	483614	keystroke_g	g	n/a
242.3915	0.0895	484783	keystroke_Key.space	Key.space	n/a
242.616	0.09	485232	keystroke_s	s	n/a
242.721	0.0905	485442	keystroke_i	i	n/a
242.8265	0.12	485653	keystroke_d	d	n/a
242.9015	0.105	485803	keystroke_e	e	n/a
243.1115	0.0895	486223	keystroke_s	s	n/a
243.336	0.09	486672	keystroke_Key.space	Key.space	n/a
243.756	0.135	487512	keystroke_p	p	n/a
243.831	0.12	487662	keystroke_l	l	n/a
243.936	0.12	487872	keystroke_a	a	n/a
244.146	0.12	488292	keystroke_c	c	n/a
244.221	0.09	488442	keystroke_e	e	n/a
244.416	0.075	488832	keystroke_Key.enter	Key.enter	n/a
244.496	10.362	488992	prompt	n/a	enquiry strict apollo stuck\n
246.1115	0.06	492223	keystroke_e	e	n/a
246.2165	0.075	492433	keystroke_n	n	n/a
246.5915	0.135	493183	keystroke_q	q	n/a
246.7565	0.0605	493513	keystroke_u	u	n/a
246.7865	0.1055	493573	keystroke_i	i	n/a
246.997	0.06	493994	keystroke_r	r	n/a
247.117	0.075	494234	keystroke_y	y	n/a
247.597	0.09	495194	keystroke_Key.space	Key.space	n/a
248.1515	0.105	496303	keystroke_s	s	n/a
248.3165	0.075	496633	keystroke_t	t	n/a
248.4665	0.06	496933	keystroke_i	i	n/a
248.4815	0.046	496963	keystroke_u	u	n/a
249.0515	0.075	498103	keystroke_Key.backspace	Key.backspace	n/a
249.1865	0.09	498373	keystroke_Key.backspace	Key.backspace	n/a
249.4865	0.075	498973	keystroke_r	r	n/a
249.7115	0.075	499423	keystroke_i	i	n/a
250.162	0.06	500324	keystroke_t	t	n/a
250.417	0.105	500834	keystroke_Key.space	Key.space	n/a
250.6565	0.09	501313	keystroke_a	a	n/a
251.8415	0.09	503683	keystroke_p	p	n/a
252.0515	0.09	504103	keystroke_o	o	n/a
252.2915	0.075	504583	keystroke_l	l	n/a
252.442	0.075	504884	keystroke_o	o	n/a
253.2065	0.015	506413	keystroke_Key.backspace	Key.backspace	n/a
253.3415	0.075	506683	keystroke_l	l	n/a
253.5215	0.09	507043	keystroke_o	o	n/a
254.0015	0.045	508003	keystroke_Key.space	Key.space	n/a
254.1215	0.09	508243	keystroke_s	s	n/a
254.1815	0.075	508363	keystroke_t	t	n/a
254.2865	0.075	508573	keystroke_u	u	n/a
254.5115	0.075	509023	keystroke_c	c	n/a
254.6165	0.075	509233	keystroke_k	k	n/a
254.7815	0.075	509563	keystroke_Key.enter	Key.enter	n/a
254.861	7.722	509722	prompt	n/a	chemical scsi opera electrical\n
255.6815	0.09	511363	keystroke_c	c	n/a
255.7865	0.06	511573	keystroke_h	h	n/a
255.8915	0.06	511783	keystroke_e	e	n/a
256.0715	0.03	512143	keystroke_m	m	n/a
256.1465	0.09	512293	keystroke_i	i	n/a
256.491	0.136	512982	keystroke_c	c	n/a
256.597	0.09	513194	keystroke_a	a	n/a
256.746	0.091	513492	keystroke_l	l	n/a
257.316	0.105	514632	keystroke_Key.space	Key.space	n/a
257.737	0.1195	515474	keystroke_s	s	n/a
257.9615	0.09	515923	keystroke_c	c	n/a
258.2915	0.075	516583	keystroke_s	s	n/a
258.4115	0.105	516823	keystroke_i	i	n/a
258.8315	0.075	517663	keystroke_Key.space	Key.space	n/a
259.3715	0.06	518743	keystroke_o	o	n/a
259.5815	0.06	519163	keystroke_p	p	n/a
259.7015	0.105	519403	keystroke_e	e	n/a
259.8815	0.135	519763	keystroke_r	r	n/a
260.0175	0.089	520035	keystroke_a	a	n/a
260.3315	0.09	520663	keystroke_Key.space	Key.space	n/a
260.617	0.09	521234	keystroke_e	e	n/a
260.797	0.075	521594	keystroke_l	l	n/a
260.917	0.2095	521834	keystroke_e	e	n/a
261.0665	0.09	522133	keystroke_c	c	n/a
261.2915	0.075	522583	keystroke_t	t	n/a
261.4565	0.075	522913	keystroke_r	r	n/a
261.6365	0.045	523273	keystroke_i	i	n/a
262.071	0.135	524142	keystroke_c	c	n/a
262.161	0.105	524322	keystroke_a	a	n/a
262.281	0.075	524562	keystroke_l	l	n/a
262.521	0.06	525042	keystroke_Key.enter	Key.enter	n/a
262.586	6.222	525172	prompt	n/a	dana games junk creation\n
263.422	0.1045	526844	keystroke_a	a	n/a
263.8265	0.075	527653	keystroke_Key.backspace	Key.backspace	n/a
263.9765	0.12	527953	keystroke_d	d	n/a
264.1565	0.09	528313	keystroke_a	a	n/a
264.4265	0.075	528853	keystroke_n	n	n/a
264.562	0.075	529124	keystroke_a	a	n/a
264.757	0.09	529514	keystroke_Key.space	Key.space	n/a
265.132	0.105	530264	keystroke_g	g	n/a
265.252	0.0745	530504	keystroke_a	a	n/a
265.3115	0.09	530623	keystroke_m	m	n/a
265.4315	0.075	530863	keystroke_e	e	n/a
265.6565	0.075	531313	keystroke_s	s	n/a
265.8215	0.09	531643	keystroke_Key.space	Key.space	n/a
266.3015	0.06	532603	keystroke_j	j	n/a
266.4215	0.1055	532843	keystroke_u	u	n/a
266.647	0.075	533294	keystroke_n	n	n/a
266.857	0.075	533714	keystroke_k	k	n/a
267.3815	0.075	534763	keystroke_Key.space	Key.space	n/a
267.6065	0.075	535213	keystroke_c	c	n/a
267.7715	0.09	535543	keystroke_r	r	n/a
267.8315	0.075	535663	keystroke_e	e	n/a
267.8915	0.165	535783	keystroke_a	a	n/a
268.0115	0.09	536023	keystroke_t	t	n/a
268.1315	0.09	536263	keystroke_i	i	n/a
268.1765	0.09	536353	keystroke_o	o	n/a
268.3565	0.105	536713	keystroke_n	n	n/a
268.7315	0.075	537463	keystroke_Key.enter	Key.enter	n/a
268.813	6.2655	537626	prompt	n/a	report dose edited centers\n
269.5715	0.09	539143	keystroke_r	r	n/a
269.6465	0.12	539293	keystroke_e	e	n/a
269.6765	0.15	539353	keystroke_p	p	n/a
269.7815	0.075	539563	keystroke_o	o	n/a
269.8415	0.09	539683	keystroke_t	t	n/a
270.592	0.074	541184	keystroke_Key.backspace	Key.backspace	n/a
270.726	0.075	541452	keystroke_r	r	n/a
270.906	0.06	541812	keystroke_t	t	n/a
271.056	0.09	542112	keystroke_Key.space	Key.space	n/a
271.282	0.1195	542564	keystroke_d	d	n/a
271.4165	0.06	542833	keystroke_o	o	n/a
271.4765	0.105	542953	keystroke_e	e	n/a
271.9715	0.075	543943	keystroke_Key.backspace	Key.backspace	n/a
272.1065	0.12	544213	keystroke_s	s	n/a
272.1815	0.12	544363	keystroke_e	e	n/a
272.5265	0.075	545053	keystroke_Key.space	Key.space	n/a
272.8115	0.0605	545623	keystroke_e	e	n/a
272.977	0.075	545954	keystroke_d	d	n/a
273.097	0.059	546194	keystroke_i	i	n/a
273.172	0.165	546344	keystroke_t	t	n/a
273.322	0.12	546644	keystroke_e	e	n/a
273.547	0.105	547094	keystroke_d	d	n/a
273.802	0.09	547604	keystroke_Key.space	Key.space	n/a
274.027	0.1045	548054	keystroke_c	c	n/a
274.1165	0.09	548233	keystroke_e	e	n/a
274.1765	0.09	548353	keystroke_n	n	n/a
274.2815	0.12	548563	keystroke_t	t	n/a
274.4025	0.104	548805	keystroke_e	e	n/a
274.4615	0.105	548923	keystroke_r	r	n/a
274.6565	0.09	549313	keystroke_s	s	n/a
275.0015	0.075	550003	keystroke_Key.enter	Key.enter	n/a
275.0815	8.6065	550163	prompt	n/a	italia instruction malawi moral\n
276.427	0.089	552854	keystroke_i	i	n/a
276.621	0.121	553242	keystroke_t	t	n/a
276.757	0.0295	553514	keystroke_a	a	n/a
276.8465	0.12	553693	keystroke_l	l	n/a
276.9365	0.075	553873	keystroke_i	i	n/a
277.0415	0.09	554083	keystroke_a	a	n/a
277.5065	0.09	555013	keystroke_Key.space	Key.space	n/a
278.031	0.1355	556062	keystroke_i	i	n/a
278.122	0.0895	556244	keystroke_n	n	n/a
278.2265	0.12	556453	keystroke_s	s	n/a
278.3315	0.09	556663	keystroke_t	t	n/a
278.5115	0.09	557023	keystroke_r	r	n/a
278.632	0.09	557264	keystroke_u	u	n/a
278.7815	0.0755	557563	keystroke_c	c	n/a
279.0965	0.075	558193	keystroke_t	t	n/a
279.2015	0.09	558403	keystroke_i	i	n/a
279.2465	0.09	558493	keystroke_o	o	n/a
279.4265	0.075	558853	keystroke_n	n	n/a
280.3865	0.09	560773	keystroke_Key.space	Key.space	n/a
280.6115	0.075	561223	keystroke_m	m	n/a
280.7165	0.075	561433	keystroke_a	a	n/a
280.8365	0.06	561673	keystroke_l	l	n/a
280.9565	0.06	561913	keystroke_a	a	n/a
281.9915	0.06	563983	keystroke_w	w	n/a
282.1265	0.09	564253	keystroke_i	i	n/a
282.5315	0.075	565063	keystroke_Key.space	Key.space	n/a
282.8165	0.105	565633	keystroke_m	m	n/a
282.8615	0.09	565723	keystroke_o	o	n/a
283.0715	0.15	566143	keystroke_r	r	n/a
283.2065	0.09	566413	keystroke_a	a	n/a
283.3565	0.0745	566713	keystroke_l	l	n/a
283.6265	0.06	567253	keystroke_Key.enter	Key.enter	n/a
283.691	12.117	567382	prompt	n/a	consulting conducted imperial generations\n
284.5865	0.03	569173	keystroke_c	c	n/a
284.8115	0.15	569623	keystroke_o	o	n/a
284.9015	0.075	569803	keystroke_n	n	n/a
285.1265	0.12	570253	keystroke_s	s	n/a
285.2475	0.074	570495	keystroke_u	u	n/a
285.2615	0.045	570523	keystroke_i	i	n/a
285.4415	0.06	570883	keystroke_l	l	n/a
285.6665	0.075	571333	keystroke_t	t	n/a
285.9965	0.045	571993	keystroke_Key.backspace	Key.backspace	n/a
286.1015	0.18	572203	keystroke_Key.backspace	Key.backspace	n/a
286.4315	0.06	572863	keystroke_l	l	n/a
286.6865	0.045	573373	keystroke_Key.backspace	Key.backspace	n/a
286.7915	0.0895	573583	keystroke_Key.backspace	Key.backspace	n/a
287.047	0.059	574094	keystroke_l	l	n/a
287.197	0.06	574394	keystroke_t	t	n/a
287.302	0.105	574604	keystroke_i	i	n/a
287.376	0.06	574752	keystroke_n	n	n/a
287.511	0.045	575022	keystroke_g	g	n/a
287.9465	0.09	575893	keystroke_Key.space	Key.space	n/a
288.2315	0.075	576463	keystroke_c	c	n/a
288.2615	0.12	576523	keystroke_o	o	n/a
288.3515	0.06	576703	keystroke_n	n	n/a
289.3115	0.075	578623	keystroke_d	d	n/a
289.4015	0.0755	578803	keystroke_u	u	n/a
289.5215	0.105	579043	keystroke_c	c	n/a
289.8215	0.075	579643	keystroke_t	t	n/a
289.9715	0.09	579943	keystroke_e	e	n/a
290.1815	0.075	580363	keystroke_d	d	n/a
290.3915	0.09	580783	keystroke_Key.space	Key.space	n/a
290.9015	0.0895	581803	keystroke_i	i	n/a
291.037	0.089	582074	keystroke_m	m	n/a
291.231	0.06	582462	keystroke_p	p	n/a
291.246	0.03	582492	keystroke_o	o	n/a
291.351	0.076	582702	keystroke_e	e	n/a
291.486	0.09	582972	keystroke_r	r	n/a
291.606	0.076	583212	keystroke_i	i	n/a
291.771	0.0755	583542	keystroke_a	a	n/a
291.8765	0.075	583753	keystroke_l	l	n/a
292.4765	0.09	584953	keystroke_Key.space	Key.space	n/a
292.9565	0.1195	585913	keystroke_g	g	n/a
293.061	0.105	586122	keystroke_e	e	n/a
293.196	0.09	586392	keystroke_n	n	n/a
293.271	0.09	586542	keystroke_e	e	n/a
293.421	0.105	586842	keystroke_r	r	n/a
293.541	0.105	587082	keystroke_a	a	n/a
293.706	0.12	587412	keystroke_i	i	n/a
293.766	0.105	587532	keystroke_o	o	n/a
293.931	0.075	587862	keystroke_t	t	n/a
294.051	0.09	588102	keystroke_n	n	n/a
294.396	0.046	588792	keystroke_=	=	n/a
294.411	0.06	588822	keystroke_Key.backspace	Key.backspace	n/a
294.516	0.06	589032	keystroke_Key.backspace	Key.backspace	n/a
294.636	0.045	589272	keystroke_Key.backspace	Key.backspace	n/a
294.741	0.075	589482	keystroke_Key.backspace	Key.backspace	n/a
294.891	0.075	589782	keystroke_Key.backspace	Key.backspace	n/a
295.1315	0.075	590263	keystroke_t	t	n/a
295.2365	0.075	590473	keystroke_i	i	n/a
295.2815	0.075	590563	keystroke_o	o	n/a
295.431	0.09	590862	keystroke_n	n	n/a
295.5665	0.075	591133	keystroke_s	s	n/a
295.716	0.09	591432	keystroke_Key.enter	Key.enter	n/a
295.8115	10.0915	591623	prompt	n/a	invest extensive perfume dancing\n
296.5865	0.105	593173	keystroke_i	i	n/a
296.6465	0.09	593293	keystroke_n	n	n/a
296.9315	0.15	593863	keystroke_v	v	n/a
297.2165	0.075	594433	keystroke_e	e	n/a
297.5315	0.165	595063	keystroke_s	s	n/a
297.6665	0.105	595333	keystroke_t	t	n/a
298.101	0.075	596202	keystroke_Key.space	Key.space	n/a
298.387	0.09	596774	keystroke_e	e	n/a
298.5965	0.09	597193	keystroke_x	x	n/a
298.8215	0.12	597643	keystroke_t	t	n/a
298.9115	0.09	597823	keystroke_e	e	n/a
299.0315	0.0605	598063	keystroke_n	n	n/a
299.167	0.0745	598334	keystroke_s	s	n/a
299.2565	0.075	598513	keystroke_i	i	n/a
299.4515	0.075	598903	keystroke_v	v	n/a
299.5115	0.12	599023	keystroke_e	e	n/a
300.576	0.06	601152	keystroke_Key.space	Key.space	n/a
300.786	0.06	601572	keystroke_o	o	n/a
300.801	0.03	601602	keystroke_p	p	n/a
300.861	0.105	601722	keystroke_e	e	n/a
300.921	0.075	601842	keystroke_r	r	n/a
301.086	0.1055	602172	keystroke_f	f	n/a
301.1765	0.06	602353	keystroke_u	u	n/a
301.506	0.06	603012	keystroke_e	e	n/a
302.001	0.045	604002	keystroke_Key.backspace	Key.backspace	n/a
302.061	0.03	604122	keystroke_Key.backspace	Key.backspace	n/a
302.166	0.03	604332	keystroke_Key.backspace	Key.backspace	n/a
302.286	0.03	604572	keystroke_Key.backspace	Key.backspace	n/a
302.391	0.045	604782	keystroke_Key.backspace	Key.backspace	n/a
302.5265	0.06	605053	keystroke_Key.backspace	Key.backspace	n/a
302.7215	0.09	605443	keystroke_Key.backspace	Key.backspace	n/a
303.3065	0.06	606613	keystroke_p	p	n/a
303.3815	0.105	606763	keystroke_e	e	n/a
303.4415	0.075	606883	keystroke_r	r	n/a
303.6065	0.105	607213	keystroke_f	f	n/a
303.7265	0.075	607453	keystroke_u	u	n/a
303.9215	0.075	607843	keystroke_m	m	n/a
304.0565	0.06	608113	keystroke_e	e	n/a
304.3715	0.09	608743	keystroke_Key.space	Key.space	n/a
304.6865	0.105	609373	keystroke_d	d	n/a
304.8365	0.075	609673	keystroke_n	n	n/a
304.8965	0.075	609793	keystroke_a	a	n/a
305.3765	0.09	610753	keystroke_c	c	n/a
305.4815	0.09	610963	keystroke_i	i	n/a
305.5115	0.075	611023	keystroke_n	n	n/a
305.6165	0.075	611233	keystroke_g	g	n/a
305.8565	0.045	611713	keystroke_Key.enter	Key.enter	n/a
305.906	11.772	611812	prompt	n/a	documented measured paperback practitioner\n
307.5215	0.105	615043	keystroke_d	d	n/a
307.6865	0.06	615373	keystroke_o	o	n/a
307.8965	0.1055	615793	keystroke_c	c	n/a
308.017	0.045	616034	keystroke_u	u	n/a
308.2265	0.0595	616453	keystroke_m	m	n/a
308.331	0.075	616662	keystroke_e	e	n/a
308.436	0.0755	616872	keystroke_n	n	n/a
308.5265	0.105	617053	keystroke_t	t	n/a
308.7065	0.075	617413	keystroke_e	e	n/a
308.901	0.0905	617802	keystroke_d	d	n/a
309.066	0.09	618132	keystroke_Key.space	Key.space	n/a
309.366	0.1055	618732	keystroke_m	m	n/a
309.5315	0.09	619063	keystroke_e	e	n/a
309.8765	0.15	619753	keystroke_s	s	n/a
310.1465	0.075	620293	keystroke_u	u	n/a
310.2965	0.12	620593	keystroke_r	r	n/a
310.3865	0.0595	620773	keystroke_e	e	n/a
310.581	0.0455	621162	keystroke_Key.backspace	Key.backspace	n/a
310.686	0.0605	621372	keystroke_Key.backspace	Key.backspace	n/a
310.7915	0.06	621583	keystroke_Key.backspace	Key.backspace	n/a
310.896	0.0755	621792	keystroke_Key.backspace	Key.backspace	n/a
311.0015	0.1195	622003	keystroke_a	a	n/a
311.181	0.135	622362	keystroke_s	s	n/a
311.361	0.075	622722	keystroke_u	u	n/a
311.556	0.1205	623112	keystroke_r	r	n/a
311.631	0.1055	623262	keystroke_e	e	n/a
311.9015	0.075	623803	keystroke_d	d	n/a
312.2315	0.09	624463	keystroke_Key.space	Key.space	n/a
312.4265	0.0745	624853	keystroke_p	p	n/a
312.981	0.06	625962	keystroke_a	a	n/a
313.176	0.075	626352	keystroke_p	p	n/a
313.311	0.135	626622	keystroke_e	e	n/a
313.401	0.075	626802	keystroke_r	r	n/a
313.626	0.076	627252	keystroke_b	b	n/a
313.791	0.061	627582	keystroke_a	a	n/a
313.941	0.105	627882	keystroke_c	c	n/a
314.106	0.06	628212	keystroke_k	k	n/a
314.451	0.075	628902	keystroke_Key.space	Key.space	n/a
314.736	0.075	629472	keystroke_p	p	n/a
314.841	0.12	629682	keystroke_r	r	n/a
314.931	0.076	629862	keystroke_a	a	n/a
315.261	0.091	630522	keystroke_t	t	n/a
315.756	0.075	631512	keystroke_Key.backspace	Key.backspace	n/a
315.892	0.074	631784	keystroke_c	c	n/a
316.087	0.075	632174	keystroke_t	t	n/a
316.206	0.105	632412	keystroke_i	i	n/a
316.266	0.075	632532	keystroke_o	o	n/a
316.432	0.0895	632864	keystroke_n	n	n/a
316.5965	0.21	633193	keystroke_e	e	n/a
316.7165	0.075	633433	keystroke_r	r	n/a
317.5865	0.09	635173	keystroke_Key.enter	Key.enter	n/a
317.681	7.857	635362	prompt	n/a	representations housewares arbor additional\n
318.4115	0.1205	636823	keystroke_r	r	n/a
318.487	0.105	636974	keystroke_e	e	n/a
318.637	0.075	637274	keystroke_p	p	n/a
318.727	0.134	637454	keystroke_r	r	n/a
318.816	0.091	637632	keystroke_e	e	n/a
319.3865	0.105	638773	keystroke_s	s	n/a
319.4465	0.105	638893	keystroke_e	e	n/a
319.5365	0.075	639073	keystroke_n	n	n/a
319.7165	0.075	639433	keystroke_t	t	n/a
319.8515	0.12	639703	keystroke_a	a	n/a
319.9265	0.105	639853	keystroke_t	t	n/a
320.0315	0.09	640063	keystroke_i	i	n/a
320.0765	0.09	640153	keystroke_o	o	n/a
320.2565	0.075	640513	keystroke_n	n	n/a
320.3615	0.09	640723	keystroke_s	s	n/a
320.6315	0.015	641263	keystroke_Key.space	Key.space	n/a
320.9015	0.0895	641803	keystroke_h	h	n/a
321.021	0.15	642042	keystroke_o	o	n/a
321.096	0.105	642192	keystroke_u	u	n/a
321.172	0.089	642344	keystroke_s	s	n/a
321.231	0.105	642462	keystroke_e	e	n/a
321.396	0.12	642792	keystroke_w	w	n/a
321.561	0.135	643122	keystroke_a	a	n/a
321.636	0.1805	643272	keystroke_r	r	n/a
321.756	0.0905	643512	keystroke_e	e	n/a
321.9815	0.06	643963	keystroke_s	s	n/a
322.3565	0.0895	644713	keystroke_Key.space	Key.space	n/a
322.761	0.1805	645522	keystroke_a	a	n/a
322.8815	0.12	645763	keystroke_r	r	n/a
323.046	0.045	646092	keystroke_b	b	n/a
323.151	0.09	646302	keystroke_o	o	n/a
323.346	0.045	646692	keystroke_r	r	n/a
323.871	0.06	647742	keystroke_Key.space	Key.space	n/a
324.127	0.164	648254	keystroke_a	a	n/a
324.261	0.105	648522	keystroke_d	d	n/a
324.426	0.09	648852	keystroke_d	d	n/a
324.531	0.09	649062	keystroke_i	i	n/a
324.756	0.105	649512	keystroke_t	t	n/a
324.846	0.075	649692	keystroke_i	i	n/a
324.891	0.075	649782	keystroke_o	o	n/a
325.042	0.075	650084	keystroke_n	n	n/a
325.177	0.06	650354	keystroke_a	a	n/a
325.297	0.0895	650594	keystroke_l	l	n/a
325.4615	0.075	650923	keystroke_Key.enter	Key.enter	n/a
325.5405	7.3625	651081	prompt	n/a	kevin crisis correctly also\n
326.4965	0.075	652993	keystroke_k	k	n/a
326.6015	0.075	653203	keystroke_e	e	n/a
326.8415	0.06	653683	keystroke_v	v	n/a
326.9465	0.075	653893	keystroke_i	i	n/a
326.9765	0.06	653953	keystroke_n	n	n/a
327.2915	0.105	654583	keystroke_Key.space	Key.space	n/a
327.6065	0.075	655213	keystroke_c	c	n/a
327.7715	0.075	655543	keystroke_r	r	n/a
327.9065	0.0745	655813	keystroke_i	i	n/a
328.0415	0.06	656083	keystroke_s	s	n/a
328.1165	0.075	656233	keystroke_i	i	n/a
328.2515	0.09	656503	keystroke_s	s	n/a
328.6265	0.1055	657253	keystroke_Key.space	Key.space	n/a
329.002	0.09	658004	keystroke_c	c	n/a
329.077	0.0745	658154	keystroke_o	o	n/a
329.5115	0.105	659023	keystroke_r	r	n/a
329.6915	0.15	659383	keystroke_r	r	n/a
329.8565	0.1205	659713	keystroke_e	e	n/a
330.006	0.091	660012	keystroke_c	c	n/a
330.217	0.06	660434	keystroke_t	t	n/a
330.322	0.06	660644	keystroke_k	k	n/a
330.532	0.06	661064	keystroke_y	y	n/a
331.2515	0.06	662503	keystroke_Key.backspace	Key.backspace	n/a
331.3715	0.06	662743	keystroke_Key.backspace	Key.backspace	n/a
331.7015	0.075	663403	keystroke_l	l	n/a
331.9715	0.06	663943	keystroke_y	y	n/a
332.1815	0.09	664363	keystroke_Key.space	Key.space	n/a
332.3165	0.075	664633	keystroke_a	a	n/a
332.4515	0.06	664903	keystroke_l	l	n/a
332.6015	0.1055	665203	keystroke_s	s	n/a
332.692	0.06	665384	keystroke_o	o	n/a
332.872	0.0295	665744	keystroke_Key.enter	Key.enter	n/a
332.906	6.672	665812	prompt	n/a	flashing outdoors how's engaging\n
333.6965	0.075	667393	keystroke_f	f	n/a
333.8015	0.075	667603	keystroke_l	l	n/a
333.8915	0.105	667783	keystroke_a	a	n/a
334.057	0.15	668114	keystroke_s	s	n/a
334.177	0.105	668354	keystroke_h	h	n/a
334.267	0.15	668534	keystroke_i	i	n/a
334.372	0.09	668744	keystroke_n	n	n/a
334.507	0.075	669014	keystroke_g	g	n/a
334.762	0.075	669524	keystroke_Key.space	Key.space	n/a
335.212	0.12	670424	keystroke_o	o	n/a
335.272	0.105	670544	keystroke_u	u	n/a
335.392	0.0595	670784	keystroke_t	t	n/a
335.6015	0.075	671203	keystroke_d	d	n/a
335.7215	0.06	671443	keystroke_o	o	n/a
335.8415	0.09	671683	keystroke_o	o	n/a
335.9615	0.09	671923	keystroke_r	r	n/a
336.2165	0.045	672433	keystroke_s	s	n/a
336.3215	0.075	672643	keystroke_Key.space	Key.space	n/a
336.5765	0.135	673153	keystroke_h	h	n/a
336.6815	0.075	673363	keystroke_o	o	n/a
337.0565	0.06	674113	keystroke_w	w	n/a
337.4015	0.075	674803	keystroke_'	'	n/a
337.5365	0.075	675073	keystroke_s	s	n/a
337.9415	0.075	675883	keystroke_Key.space	Key.space	n/a
338.197	0.075	676394	keystroke_e	e	n/a
338.302	0.09	676604	keystroke_n	n	n/a
338.452	0.089	676904	keystroke_g	g	n/a
338.512	0.12	677024	keystroke_a	a	n/a
338.647	0.09	677294	keystroke_g	g	n/a
338.782	0.09	677564	keystroke_i	i	n/a
338.827	0.075	677654	keystroke_n	n	n/a
339.007	0.03	678014	keystroke_g	g	n/a
339.502	0.075	679004	keystroke_Key.enter	Key.enter	n/a
339.5805	9.0575	679161	prompt	n/a	maternity immediate roulette volleyball\n
340.4315	0.0305	680863	keystroke_m	m	n/a
340.897	0.075	681794	keystroke_a	a	n/a
341.077	0.105	682154	keystroke_t	t	n/a
341.197	0.165	682394	keystroke_e	e	n/a
341.302	0.09	682604	keystroke_r	r	n/a
341.557	0.12	683114	keystroke_n	n	n/a
341.617	0.105	683234	keystroke_i	i	n/a
341.767	0.075	683534	keystroke_t	t	n/a
341.917	0.0895	683834	keystroke_y	y	n/a
342.2465	0.09	684493	keystroke_Key.space	Key.space	n/a
342.6965	0.075	685393	keystroke_i	i	n/a
342.9065	0.0445	685813	keystroke_m	m	n/a
343.026	0.09	686052	keystroke_m	m	n/a
343.176	0.105	686352	keystroke_e	e	n/a
343.371	0.12	686742	keystroke_d	d	n/a
343.566	0.06	687132	keystroke_i	i	n/a
343.671	0.105	687342	keystroke_a	a	n/a
343.791	0.135	687582	keystroke_t	t	n/a
343.941	0.09	687882	keystroke_e	e	n/a
344.271	0.09	688542	keystroke_Key.space	Key.space	n/a
344.661	0.09	689322	keystroke_r	r	n/a
344.736	0.12	689472	keystroke_o	o	n/a
344.811	0.075	689622	keystroke_u	u	n/a
344.9915	0.09	689983	keystroke_l	l	n/a
345.0965	0.165	690193	keystroke_e	e	n/a
345.2015	0.075	690403	keystroke_t	t	n/a
345.3665	0.135	690733	keystroke_t	t	n/a
345.5315	0.105	691063	keystroke_e	e	n/a
346.2815	0.09	692563	keystroke_Key.space	Key.space	n/a
346.6865	0.09	693373	keystroke_v	v	n/a
346.7615	0.03	693523	keystroke_o	o	n/a
347.2415	0.06	694483	keystroke_l	l	n/a
347.3765	0.105	694753	keystroke_l	l	n/a
347.766	0.075	695532	keystroke_e	e	n/a
347.871	0.075	695742	keystroke_y	y	n/a
348.081	0.075	696162	keystroke_b	b	n/a
348.216	0.075	696432	keystroke_a	a	n/a
348.321	0.045	696642	keystroke_l	l	n/a
348.426	0.105	696852	keystroke_l	l	n/a
348.5765	0.06	697153	keystroke_Key.enter	Key.enter	n/a
348.6405	13.903	697281	prompt	n/a	initial symptoms genealogy ashley\n
349.4465	0.09	698893	keystroke_i	i	n/a
349.4915	0.09	698983	keystroke_n	n	n/a
349.6265	0.105	699253	keystroke_i	i	n/a
350.527	0.075	701054	keystroke_t	t	n/a
350.602	0.06	701204	keystroke_i	i	n/a
350.782	0.075	701564	keystroke_a	a	n/a
350.902	0.09	701804	keystroke_l	l	n/a
351.2465	0.075	702493	keystroke_Key.space	Key.space	n/a
351.5165	0.105	703033	keystroke_s	s	n/a
351.6365	0.06	703273	keystroke_y	y	n/a
351.817	0.014	703634	keystroke_n	n	n/a
351.847	0.045	703694	keystroke_m	m	n/a
351.952	0.075	703904	keystroke_o	o	n/a
351.982	0.03	703964	keystroke_p	p	n/a
352.086	0.06	704172	keystroke_t	t	n/a
352.162	0.105	704324	keystroke_i	i	n/a
352.191	0.12	704382	keystroke_o	o	n/a
352.612	0.044	705224	keystroke_Key.backspace	Key.backspace	n/a
352.716	0.046	705432	keystroke_Key.backspace	Key.backspace	n/a
352.836	0.06	705672	keystroke_Key.backspace	Key.backspace	n/a
352.956	0.045	705912	keystroke_Key.backspace	Key.backspace	n/a
353.0615	0.075	706123	keystroke_Key.backspace	Key.backspace	n/a
353.1965	0.09	706393	keystroke_Key.backspace	Key.backspace	n/a
353.4365	0.06	706873	keystroke_Key.backspace	Key.backspace	n/a
354.2915	0.06	708583	keystroke_m	m	n/a
354.607	0.074	709214	keystroke_p	p	n/a
354.771	0.09	709542	keystroke_t	t	n/a
354.892	0.149	709784	keystroke_o	o	n/a
355.671	0.06	711342	keystroke_m	m	n/a
356.497	0.075	712994	keystroke_s	s	n/a
357.037	0.044	714074	keystroke_Key.space	Key.space	n/a
357.8765	0.1345	715753	keystroke_g	g	n/a
358.026	0.12	716052	keystroke_e	e	n/a
358.282	0.09	716564	keystroke_n	n	n/a
358.447	0.089	716894	keystroke_e	e	n/a
358.7765	0.075	717553	keystroke_a	a	n/a
358.9565	0.06	717913	keystroke_l	l	n/a
359.0915	0.09	718183	keystroke_o	o	n/a
359.391	0.06	718782	keystroke_g	g	n/a
359.586	0.075	719172	keystroke_y	y	n/a
360.051	0.075	720102	keystroke_Key.space	Key.space	n/a
360.411	0.165	720822	keystroke_a	a	n/a
360.531	0.12	721062	keystroke_s	s	n/a
360.636	0.075	721272	keystroke_h	h	n/a
360.8315	0.075	721663	keystroke_e	e	n/a
360.9515	0.075	721903	keystroke_l	l	n/a
361.431	0.075	722862	keystroke_Key.backspace	Key.backspace	n/a
361.551	0.075	723102	keystroke_Key.backspace	Key.backspace	n/a
361.881	0.016	723762	keystroke_l	l	n/a
362.092	0.06	724184	keystroke_e	e	n/a
362.212	0.06	724424	keystroke_y	y	n/a
362.4515	0.09	724903	keystroke_Key.enter	Key.enter	n/a
362.549	6.309	725098	prompt	n/a	mere series signs amino\n
363.3065	0.0905	726613	keystroke_m	m	n/a
363.412	0.12	726824	keystroke_e	e	n/a
363.517	0.135	727034	keystroke_r	r	n/a
363.637	0.09	727274	keystroke_e	e	n/a
363.952	0.105	727904	keystroke_Key.space	Key.space	n/a
364.4315	0.135	728863	keystroke_s	s	n/a
364.5065	0.105	729013	keystroke_e	e	n/a
364.8065	0.12	729613	keystroke_r	r	n/a
365.0615	0.06	730123	keystroke_i	i	n/a
365.1515	0.09	730303	keystroke_e	e	n/a
365.3615	0.0905	730723	keystroke_s	s	n/a
365.572	0.09	731144	keystroke_Key.space	Key.space	n/a
365.857	0.105	731714	keystroke_s	s	n/a
365.947	0.06	731894	keystroke_i	i	n/a
366.112	0.075	732224	keystroke_g	g	n/a
366.217	0.06	732434	keystroke_n	n	n/a
366.382	0.03	732764	keystroke_e	e	n/a
366.8465	0.075	733693	keystroke_Key.backspace	Key.backspace	n/a
366.9965	0.06	733993	keystroke_s	s	n/a
367.1765	0.06	734353	keystroke_Key.space	Key.space	n/a
367.3265	0.09	734653	keystroke_a	a	n/a
368.0315	0.1205	736063	keystroke_m	m	n/a
368.121	0.09	736242	keystroke_i	i	n/a
368.316	0.09	736632	keystroke_n	n	n/a
368.421	0.09	736842	keystroke_o	o	n/a
368.781	0.075	737562	keystroke_Key.enter	Key.enter	n/a
368.8615	8.0065	737723	prompt	n/a	apps translation algebra legacy\n
369.576	0.0905	739152	keystroke_a	a	n/a
369.681	0.06	739362	keystroke_p	p	n/a
369.801	0.075	739602	keystroke_p	p	n/a
369.951	0.075	739902	keystroke_s	s	n/a
370.131	0.075	740262	keystroke_Key.space	Key.space	n/a
370.2515	0.135	740503	keystroke_t	t	n/a
370.3715	0.075	740743	keystroke_a	a	n/a
370.4915	0.165	740983	keystroke_r	r	n/a
370.926	0.045	741852	keystroke_Key.backspace	Key.backspace	n/a
371.031	0.075	742062	keystroke_Key.backspace	Key.backspace	n/a
371.166	0.105	742332	keystroke_r	r	n/a
371.256	0.075	742512	keystroke_a	a	n/a
371.376	0.075	742752	keystroke_n	n	n/a
371.571	0.09	743142	keystroke_s	s	n/a
371.721	0.06	743442	keystroke_l	l	n/a
371.871	0.075	743742	keystroke_a	a	n/a
372.156	0.09	744312	keystroke_t	t	n/a
372.261	0.105	744522	keystroke_i	i	n/a
372.321	0.09	744642	keystroke_o	o	n/a
372.4865	0.09	744973	keystroke_n	n	n/a
372.9215	0.09	745843	keystroke_Key.space	Key.space	n/a
373.0865	0.09	746173	keystroke_a	a	n/a
373.2065	0.075	746413	keystroke_l	l	n/a
373.506	0.105	747012	keystroke_g	g	n/a
373.971	0.09	747942	keystroke_e	e	n/a
374.256	0.075	748512	keystroke_b	b	n/a
374.346	0.12	748692	keystroke_r	r	n/a
374.436	0.075	748872	keystroke_a	a	n/a
374.811	0.09	749622	keystroke_Key.space	Key.space	n/a
375.7415	0.075	751483	keystroke_l	l	n/a
375.8315	0.105	751663	keystroke_e	e	n/a
376.0865	0.105	752173	keystroke_g	g	n/a
376.2515	0.09	752503	keystroke_a	a	n/a
376.4015	0.09	752803	keystroke_c	c	n/a
376.5515	0.075	753103	keystroke_y	y	n/a
376.7915	0.075	753583	keystroke_Key.enter	Key.enter	n/a
376.871	6.4915	753742	prompt	n/a	puppy slim amount harrison\n
377.6315	0.075	755263	keystroke_p	p	n/a
377.8565	0.075	755713	keystroke_u	u	n/a
378.036	0.06	756072	keystroke_p	p	n/a
378.156	0.075	756312	keystroke_p	p	n/a
378.201	0.06	756402	keystroke_y	y	n/a
379.0415	0.09	758083	keystroke_Key.space	Key.space	n/a
379.2965	0.075	758593	keystroke_s	s	n/a
379.7465	0.18	759493	keystroke_l	l	n/a
379.8965	0.09	759793	keystroke_i	i	n/a
380.166	0.075	760332	keystroke_m	m	n/a
380.6015	0.075	761203	keystroke_Key.space	Key.space	n/a
380.7215	0.105	761443	keystroke_a	a	n/a
380.8865	0.1045	761773	keystroke_m	m	n/a
381.066	0.15	762132	keystroke_o	o	n/a
381.156	0.09	762312	keystroke_u	u	n/a
381.366	0.075	762732	keystroke_n	n	n/a
381.516	0.06	763032	keystroke_t	t	n/a
381.696	0.0755	763392	keystroke_Key.space	Key.space	n/a
382.2815	0.075	764563	keystroke_h	h	n/a
382.4015	0.1795	764803	keystroke_a	a	n/a
382.476	0.09	764952	keystroke_r	r	n/a
382.641	0.105	765282	keystroke_r	r	n/a
382.776	0.075	765552	keystroke_i	i	n/a
382.941	0.06	765882	keystroke_s	s	n/a
383.046	0.0905	766092	keystroke_o	o	n/a
383.091	0.0755	766182	keystroke_n	n	n/a
383.2865	0.075	766573	keystroke_Key.enter	Key.enter	n/a
383.3665	9.836	766733	prompt	n/a	economic harmful sealed specialty\n
384.486	0.09	768972	keystroke_e	e	n/a
384.726	0.09	769452	keystroke_c	c	n/a
384.817	0.059	769634	keystroke_o	o	n/a
385.0565	0.105	770113	keystroke_n	n	n/a
385.1765	0.075	770353	keystroke_o	o	n/a
385.3715	0.135	770743	keystroke_m	m	n/a
385.4465	0.12	770893	keystroke_i	i	n/a
385.6265	0.12	771253	keystroke_c	c	n/a
385.7165	0.075	771433	keystroke_a	a	n/a
385.8515	0.0605	771703	keystroke_l	l	n/a
386.2115	0.075	772423	keystroke_Key.space	Key.space	n/a
386.7215	0.075	773443	keystroke_h	h	n/a
386.8115	0.135	773623	keystroke_a	a	n/a
386.8865	0.075	773773	keystroke_r	r	n/a
387.0815	0.09	774163	keystroke_m	m	n/a
387.2765	0.075	774553	keystroke_f	f	n/a
387.3815	0.06	774763	keystroke_u	u	n/a
387.6215	0.075	775243	keystroke_l	l	n/a
388.0715	0.06	776143	keystroke_Key.space	Key.space	n/a
388.2665	0.12	776533	keystroke_s	s	n/a
388.4465	0.075	776893	keystroke_e	e	n/a
389.1815	0.09	778363	keystroke_a	a	n/a
389.3165	0.09	778633	keystroke_l	l	n/a
389.4515	0.075	778903	keystroke_e	e	n/a
389.6915	0.075	779383	keystroke_d	d	n/a
389.8865	0.09	779773	keystroke_Key.space	Key.space	n/a
390.1415	0.075	780283	keystroke_s	s	n/a
390.2615	0.06	780523	keystroke_p	p	n/a
390.3515	0.09	780703	keystroke_e	e	n/a
390.6215	0.09	781243	keystroke_c	c	n/a
390.7265	0.075	781453	keystroke_i	i	n/a
390.8315	0.075	781663	keystroke_a	a	n/a
390.9515	0.06	781903	keystroke_l	l	n/a
391.1015	0.0295	782203	keystroke_y	y	n/a
391.221	0.06	782442	keystroke_y	y	n/a
391.971	0.045	783942	keystroke_Key.backspace	Key.backspace	n/a
392.091	0.075	784182	keystroke_Key.backspace	Key.backspace	n/a
392.5565	0.045	785113	keystroke_t	t	n/a
392.676	0.045	785352	keystroke_y	y	n/a
393.141	0.06	786282	keystroke_Key.enter	Key.enter	n/a
393.2055	8.4275	786411	prompt	n/a	consists titten fighting axis\n
393.951	0.105	787902	keystroke_c	c	n/a
394.026	0.09	788052	keystroke_o	o	n/a
394.087	0.074	788174	keystroke_n	n	n/a
394.206	0.06	788412	keystroke_s	s	n/a
394.2965	0.0745	788593	keystroke_i	i	n/a
394.401	0.105	788802	keystroke_s	s	n/a
394.491	0.09	788982	keystroke_t	t	n/a
394.911	0.045	789822	keystroke_s	s	n/a
395.736	0.075	791472	keystroke_Key.space	Key.space	n/a
396.381	0.06	792762	keystroke_t	t	n/a
396.426	0.09	792852	keystroke_i	i	n/a
396.621	0.09	793242	keystroke_l	l	n/a
397.581	0.045	795162	keystroke_Key.backspace	Key.backspace	n/a
397.716	0.06	795432	keystroke_t	t	n/a
397.866	0.075	795732	keystroke_t	t	n/a
398.076	0.075	796152	keystroke_e	e	n/a
398.241	0.03	796482	keystroke_n	n	n/a
398.466	0.09	796932	keystroke_Key.space	Key.space	n/a
399.2315	0.06	798463	keystroke_f	f	n/a
399.3215	0.06	798643	keystroke_i	i	n/a
399.4265	0.06	798853	keystroke_g	g	n/a
399.5165	0.045	799033	keystroke_h	h	n/a
399.6065	0.075	799213	keystroke_t	t	n/a
399.6965	0.09	799393	keystroke_i	i	n/a
399.7415	0.06	799483	keystroke_n	n	n/a
399.9065	0.06	799813	keystroke_g	g	n/a
400.1915	0.105	800383	keystroke_Key.space	Key.space	n/a
400.4015	0.1195	800803	keystroke_a	a	n/a
400.746	0.06	801492	keystroke_x	x	n/a
400.8665	0.06	801733	keystroke_i	i	n/a
401.0315	0.045	802063	keystroke_s	s	n/a
401.5415	0.09	803083	keystroke_Key.enter	Key.enter	n/a
401.6355	6.718	803271	prompt	n/a	negative giant pace operation\n
402.3815	0.075	804763	keystroke_n	n	n/a
402.4865	0.105	804973	keystroke_e	e	n/a
402.6515	0.075	805303	keystroke_g	g	n/a
402.7415	0.135	805483	keystroke_a	a	n/a
402.8915	0.0905	805783	keystroke_t	t	n/a
403.0115	0.075	806023	keystroke_i	i	n/a
403.1315	0.135	806263	keystroke_v	v	n/a
403.2365	0.105	806473	keystroke_e	e	n/a
403.8815	0.075	807763	keystroke_Key.space	Key.space	n/a
404.2865	0.06	808573	keystroke_g	g	n/a
404.3615	0.075	808723	keystroke_i	i	n/a
404.4515	0.105	808903	keystroke_a	a	n/a
404.6765	0.045	809353	keystroke_n	n	n/a
404.8565	0.0605	809713	keystroke_t	t	n/a
405.097	0.09	810194	keystroke_Key.space	Key.space	n/a
405.5165	0.075	811033	keystroke_p	p	n/a
405.6215	0.105	811243	keystroke_a	a	n/a
405.847	0.1645	811694	keystroke_c	c	n/a
405.9365	0.06	811873	keystroke_e	e	n/a
406.3115	0.105	812623	keystroke_Key.space	Key.space	n/a
406.7765	0.075	813553	keystroke_o	o	n/a
406.9565	0.06	813913	keystroke_p	p	n/a
407.0605	0.091	814121	keystroke_e	e	n/a
407.2265	0.12	814453	keystroke_r	r	n/a
407.3615	0.105	814723	keystroke_a	a	n/a
407.4815	0.09	814963	keystroke_t	t	n/a
407.5565	0.1045	815113	keystroke_i	i	n/a
407.6165	0.0745	815233	keystroke_o	o	n/a
407.781	0.075	815562	keystroke_n	n	n/a
408.2905	0.0605	816581	keystroke_Key.enter	Key.enter	n/a
408.3565	11.8615	816713	prompt	n/a	finding msgstr whereas overall\n
409.5365	0.135	819073	keystroke_i	i	n/a
409.6415	0.09	819283	keystroke_n	n	n/a
410.0915	0.045	820183	keystroke_Key.backspace	Key.backspace	n/a
410.1965	0.06	820393	keystroke_Key.backspace	Key.backspace	n/a
410.3015	0.075	820603	keystroke_Key.backspace	Key.backspace	n/a
410.4065	0.0895	820813	keystroke_f	f	n/a
410.571	0.075	821142	keystroke_i	i	n/a
410.601	0.06	821202	keystroke_n	n	n/a
410.706	0.075	821412	keystroke_d	d	n/a
410.826	0.075	821652	keystroke_i	i	n/a
411.3065	0.06	822613	keystroke_n	n	n/a
411.937	0.059	823874	keystroke_g	g	n/a
412.101	0.0745	824202	keystroke_Key.space	Key.space	n/a
412.7465	0.075	825493	keystroke_m	m	n/a
413.481	0.075	826962	keystroke_s	s	n/a
414.171	0.075	828342	keystroke_g	g	n/a
414.441	0.0755	828882	keystroke_s	s	n/a
414.996	0.015	829992	keystroke_r	r	n/a
415.491	0.09	830982	keystroke_Key.backspace	Key.backspace	n/a
415.611	0.075	831222	keystroke_t	t	n/a
415.821	0.06	831642	keystroke_r	r	n/a
416.076	0.09	832152	keystroke_Key.space	Key.space	n/a
416.421	0.165	832842	keystroke_w	w	n/a
416.541	0.12	833082	keystroke_e	e	n/a
416.571	0.06	833142	keystroke_h	h	n/a
417.351	0.06	834702	keystroke_Key.backspace	Key.backspace	n/a
417.456	0.075	834912	keystroke_Key.backspace	Key.backspace	n/a
417.726	0.06	835452	keystroke_h	h	n/a
417.816	0.15	835632	keystroke_e	e	n/a
417.936	0.12	835872	keystroke_r	r	n/a
418.071	0.015	836142	keystroke_e	e	n/a
418.401	0.135	836802	keystroke_a	a	n/a
418.476	0.1205	836952	keystroke_s	s	n/a
418.7165	0.089	837433	keystroke_Key.space	Key.space	n/a
419.271	0.075	838542	keystroke_o	o	n/a
419.406	0.12	838812	keystroke_v	v	n/a
419.541	0.136	839082	keystroke_e	e	n/a
419.6155	0.1055	839231	keystroke_r	r	n/a
419.7655	0.105	839531	keystroke_a	a	n/a
419.8855	0.0455	839771	keystroke_l	l	n/a
419.9905	0.091	839981	keystroke_l	l	n/a
420.1415	0.075	840283	keystroke_Key.enter	Key.enter	n/a
420.221	5.9065	840442	prompt	n/a	wisdom for enters forbidden\n
420.9515	0.075	841903	keystroke_w	w	n/a
421.0415	0.06	842083	keystroke_i	i	n/a
421.1315	0.0745	842263	keystroke_s	s	n/a
421.4465	0.075	842893	keystroke_d	d	n/a
421.5515	0.105	843103	keystroke_o	o	n/a
421.6265	0.075	843253	keystroke_m	m	n/a
422.1815	0.09	844363	keystroke_Key.space	Key.space	n/a
422.6015	0.075	845203	keystroke_f	f	n/a
422.6915	0.06	845383	keystroke_o	o	n/a
422.7815	0.075	845563	keystroke_r	r	n/a
422.9465	0.09	845893	keystroke_Key.space	Key.space	n/a
423.456	0.075	846912	keystroke_e	e	n/a
423.591	0.075	847182	keystroke_n	n	n/a
423.681	0.12	847362	keystroke_t	t	n/a
423.816	0.12	847632	keystroke_e	e	n/a
423.876	0.105	847752	keystroke_r	r	n/a
424.056	0.12	848112	keystroke_s	s	n/a
424.236	0.09	848472	keystroke_Key.space	Key.space	n/a
424.536	0.075	849072	keystroke_f	f	n/a
424.626	0.075	849252	keystroke_o	o	n/a
424.731	0.0755	849462	keystroke_e	e	n/a
425.0015	0.09	850003	keystroke_b	b	n/a
425.0765	0.09	850153	keystroke_i	i	n/a
425.421	0.09	850842	keystroke_d	d	n/a
425.571	0.09	851142	keystroke_d	d	n/a
425.781	0.075	851562	keystroke_e	e	n/a
425.9165	0.06	851833	keystroke_n	n	n/a
426.0515	0.075	852103	keystroke_Key.enter	Key.enter	n/a
426.131	6.102	852262	prompt	n/a	of retired homeless songs\n
426.921	0.06	853842	keystroke_o	o	n/a
427.056	0.06	854112	keystroke_r	r	n/a
427.491	0.06	854982	keystroke_Key.backspace	Key.backspace	n/a
427.656	0.061	855312	keystroke_f	f	n/a
427.791	0.075	855582	keystroke_Key.space	Key.space	n/a
427.986	0.09	855972	keystroke_r	r	n/a
428.046	0.105	856092	keystroke_e	e	n/a
428.226	0.06	856452	keystroke_i	i	n/a
428.541	0.09	857082	keystroke_t	t	n/a
428.886	0.045	857772	keystroke_Key.backspace	Key.backspace	n/a
428.976	0.075	857952	keystroke_Key.backspace	Key.backspace	n/a
429.096	0.09	858192	keystroke_t	t	n/a
429.216	0.09	858432	keystroke_i	i	n/a
429.321	0.105	858642	keystroke_r	r	n/a
429.396	0.075	858792	keystroke_e	e	n/a
429.591	0.076	859182	keystroke_d	d	n/a
429.786	0.075	859572	keystroke_Key.space	Key.space	n/a
430.147	0.089	860294	keystroke_h	h	n/a
430.281	0.12	860562	keystroke_o	o	n/a
430.341	0.105	860682	keystroke_m	m	n/a
430.476	0.075	860952	keystroke_e	e	n/a
430.5965	0.075	861193	keystroke_l	l	n/a
430.7165	0.075	861433	keystroke_e	e	n/a
430.9415	0.06	861883	keystroke_s	s	n/a
431.0915	0.03	862183	keystroke_s	s	n/a
431.3165	0.075	862633	keystroke_Key.space	Key.space	n/a
431.4515	0.09	862903	keystroke_s	s	n/a
431.5265	0.09	863053	keystroke_o	o	n/a
431.6015	0.06	863203	keystroke_n	n	n/a
431.7365	0.09	863473	keystroke_g	g	n/a
432.0065	0.075	864013	keystroke_s	s	n/a
432.1415	0.09	864283	keystroke_Key.enter	Key.enter	n/a
432.237	7.781	864474	prompt	n/a	allowed conversation lyrics primary\n
433.086	0.12	866172	keystroke_a	a	n/a
433.236	0.075	866472	keystroke_l	l	n/a
433.371	0.09	866742	keystroke_l	l	n/a
433.551	0.075	867102	keystroke_o	o	n/a
433.656	0.135	867312	keystroke_w	w	n/a
433.746	0.09	867492	keystroke_e	e	n/a
433.926	0.105	867852	keystroke_d	d	n/a
434.091	0.09	868182	keystroke_Key.space	Key.space	n/a
434.316	0.105	868632	keystroke_c	c	n/a
434.406	0.09	868812	keystroke_o	o	n/a
434.466	0.09	868932	keystroke_n	n	n/a
434.571	0.09	869142	keystroke_v	v	n/a
434.676	0.12	869352	keystroke_e	e	n/a
434.751	0.09	869502	keystroke_r	r	n/a
435.5165	0.105	871033	keystroke_s	s	n/a
435.6365	0.15	871273	keystroke_a	a	n/a
435.7565	0.105	871513	keystroke_t	t	n/a
435.8465	0.09	871693	keystroke_i	i	n/a
435.8915	0.09	871783	keystroke_o	o	n/a
436.0715	0.075	872143	keystroke_n	n	n/a
436.2965	0.06	872593	keystroke_Key.space	Key.space	n/a
436.476	0.09	872952	keystroke_l	l	n/a
436.626	0.075	873252	keystroke_y	y	n/a
436.761	0.09	873522	keystroke_r	r	n/a
436.896	0.076	873792	keystroke_i	i	n/a
437.256	0.105	874512	keystroke_c	c	n/a
437.481	0.075	874962	keystroke_s	s	n/a
437.601	0.09	875202	keystroke_Key.space	Key.space	n/a
437.856	0.075	875712	keystroke_p	p	n/a
437.961	0.075	875922	keystroke_r	r	n/a
438.0665	0.075	876133	keystroke_i	i	n/a
438.3215	0.075	876643	keystroke_m	m	n/a
438.441	0.135	876882	keystroke_a	a	n/a
438.876	0.045	877752	keystroke_y	y	n/a
438.921	0.045	877842	keystroke_r	r	n/a
439.401	0.06	878802	keystroke_Key.backspace	Key.backspace	n/a
439.521	0.09	879042	keystroke_Key.backspace	Key.backspace	n/a
439.641	0.06	879282	keystroke_r	r	n/a
439.776	0.06	879552	keystroke_y	y	n/a
439.941	0.075	879882	keystroke_Key.enter	Key.enter	n/a
440.021	11.727	880042	prompt	n/a	reliance analysts accessible interest\n
440.8115	0.075	881623	keystroke_r	r	n/a
440.8265	0.105	881653	keystroke_e	e	n/a
440.9615	0.075	881923	keystroke_l	l	n/a
441.0815	0.045	882163	keystroke_e	e	n/a
441.2315	0.075	882463	keystroke_a	a	n/a
441.3815	0.075	882763	keystroke_n	n	n/a
441.741	0.045	883482	keystroke_Key.backspace	Key.backspace	n/a
441.846	0.045	883692	keystroke_Key.backspace	Key.backspace	n/a
441.951	0.075	883902	keystroke_Key.backspace	Key.backspace	n/a
442.191	0.06	884382	keystroke_i	i	n/a
442.341	0.09	884682	keystroke_a	a	n/a
442.447	0.059	884894	keystroke_n	n	n/a
442.611	0.135	885222	keystroke_c	c	n/a
442.701	0.09	885402	keystroke_e	e	n/a
443.0015	0.09	886003	keystroke_Key.space	Key.space	n/a
443.4365	0.12	886873	keystroke_a	a	n/a
443.6015	0.09	887203	keystroke_n	n	n/a
443.7065	0.09	887413	keystroke_a	a	n/a
443.8265	0.105	887653	keystroke_l	l	n/a
444.0815	0.06	888163	keystroke_y	y	n/a
444.1565	0.105	888313	keystroke_s	s	n/a
444.2315	0.075	888463	keystroke_t	t	n/a
444.3965	0.06	888793	keystroke_s	s	n/a
445.251	0.075	890502	keystroke_Key.space	Key.space	n/a
445.371	0.105	890742	keystroke_a	a	n/a
445.596	0.075	891192	keystroke_c	c	n/a
445.746	0.18	891492	keystroke_c	c	n/a
445.881	0.105	891762	keystroke_e	e	n/a
446.121	0.045	892242	keystroke_s	s	n/a
446.256	0.045	892512	keystroke_s	s	n/a
446.7665	0.075	893533	keystroke_Key.backspace	Key.backspace	n/a
447.4715	0.075	894943	keystroke_s	s	n/a
447.6365	0.06	895273	keystroke_i	i	n/a
447.966	0.09	895932	keystroke_n	n	n/a
448.146	0.075	896292	keystroke_l	l	n/a
448.5815	0.06	897163	keystroke_Key.backspace	Key.backspace	n/a
448.7015	0.045	897403	keystroke_Key.backspace	Key.backspace	n/a
448.8665	0.045	897733	keystroke_b	b	n/a
449.151	0.075	898302	keystroke_l	l	n/a
449.331	0.06	898662	keystroke_e	e	n/a
449.481	0.06	898962	keystroke_Key.space	Key.space	n/a
449.736	0.09	899472	keystroke_i	i	n/a
449.781	0.09	899562	keystroke_n	n	n/a
449.841	0.106	899682	keystroke_t	t	n/a
449.9315	0.1645	899863	keystroke_e	e	n/a
450.022	0.1195	900044	keystroke_r	r	n/a
450.3065	0.15	900613	keystroke_s	s	n/a
450.4115	0.09	900823	keystroke_t	t	n/a
450.8915	0.0595	901783	keystroke_Key.backspace	Key.backspace	n/a
451.026	0.075	902052	keystroke_e	e	n/a
451.236	0.15	902472	keystroke_s	s	n/a
451.341	0.09	902682	keystroke_t	t	n/a
451.656	0.09	903312	keystroke_Key.enter	Key.enter	n/a
451.7535	9.8495	903507	prompt	n/a	agrees establishing were carriers\n
452.7065	0.06	905413	keystroke_a	a	n/a
452.8565	0.105	905713	keystroke_g	g	n/a
453.0815	0.15	906163	keystroke_r	r	n/a
453.1565	0.12	906313	keystroke_e	e	n/a
453.3815	0.075	906763	keystroke_e	e	n/a
454.056	0.075	908112	keystroke_s	s	n/a
454.251	0.09	908502	keystroke_Key.space	Key.space	n/a
454.431	0.045	908862	keystroke_a	a	n/a
454.6565	0.06	909313	keystroke_e	e	n/a
454.9115	0.075	909823	keystroke_Key.backspace	Key.backspace	n/a
455.0465	0.03	910093	keystroke_Key.backspace	Key.backspace	n/a
455.2865	0.075	910573	keystroke_e	e	n/a
455.4815	0.135	910963	keystroke_s	s	n/a
455.6765	0.105	911353	keystroke_t	t	n/a
456.1865	0.075	912373	keystroke_a	a	n/a
457.281	0.09	914562	keystroke_b	b	n/a
457.581	0.12	915162	keystroke_l	l	n/a
457.656	0.09	915312	keystroke_i	i	n/a
457.851	0.061	915702	keystroke_s	s	n/a
457.926	0.045	915852	keystroke_h	h	n/a
457.972	0.149	915944	keystroke_i	i	n/a
458.091	0.075	916182	keystroke_n	n	n/a
458.226	0.06	916452	keystroke_g	g	n/a
458.4965	0.09	916993	keystroke_Key.space	Key.space	n/a
458.7515	0.1195	917503	keystroke_w	w	n/a
458.8265	0.0895	917653	keystroke_e	e	n/a
459.006	0.135	918012	keystroke_r	r	n/a
459.111	0.09	918222	keystroke_e	e	n/a
459.321	0.09	918642	keystroke_Key.space	Key.space	n/a
459.681	0.105	919362	keystroke_c	c	n/a
459.771	0.165	919542	keystroke_a	a	n/a
459.891	0.09	919782	keystroke_r	r	n/a
460.071	0.09	920142	keystroke_r	r	n/a
460.206	0.075	920412	keystroke_i	i	n/a
460.371	0.075	920742	keystroke_e	e	n/a
461.136	0.09	922272	keystroke_r	r	n/a
461.361	0.06	922722	keystroke_s	s	n/a
461.496	0.105	922992	keystroke_Key.enter	Key.enter	n/a
461.6075	9.4	923215	prompt	n/a	dispute cincinnati peace valid\n
462.801	0.045	925602	keystroke_d	d	n/a
462.861	0.06	925722	keystroke_u	u	n/a
462.876	0.0155	925752	keystroke_i	i	n/a
463.011	0.075	926022	keystroke_Key.backspace	Key.backspace	n/a
463.356	0.105	926712	keystroke_Key.backspace	Key.backspace	n/a
463.656	0.075	927312	keystroke_i	i	n/a
463.7915	0.0895	927583	keystroke_s	s	n/a
464.031	0.0905	928062	keystroke_p	p	n/a
464.2415	0.06	928483	keystroke_u	u	n/a
464.391	0.06	928782	keystroke_t	t	n/a
465.5465	0.0595	931093	keystroke_e	e	n/a
465.8765	0.0745	931753	keystroke_Key.space	Key.space	n/a
466.4615	0.105	932923	keystroke_c	c	n/a
466.5365	0.06	933073	keystroke_i	i	n/a
466.7315	0.075	933463	keystroke_n	n	n/a
467.3605	0.091	934721	keystroke_c	c	n/a
467.4665	0.074	934933	keystroke_i	i	n/a
467.7365	0.06	935473	keystroke_n	n	n/a
467.8865	0.045	935773	keystroke_n	n	n/a
468.0365	0.15	936073	keystroke_a	a	n/a
468.1555	0.061	936311	keystroke_t	t	n/a
468.2915	0.059	936583	keystroke_i	i	n/a
468.8165	0.075	937633	keystroke_Key.space	Key.space	n/a
469.056	0.075	938112	keystroke_p	p	n/a
469.146	0.135	938292	keystroke_e	e	n/a
469.266	0.105	938532	keystroke_a	a	n/a
469.521	0.09	939042	keystroke_c	c	n/a
469.566	0.09	939132	keystroke_e	e	n/a
469.791	0.075	939582	keystroke_Key.space	Key.space	n/a
470.271	0.105	940542	keystroke_v	v	n/a
470.391	0.12	940782	keystroke_a	a	n/a
470.541	0.15	941082	keystroke_l	l	n/a
470.646	0.09	941292	keystroke_i	i	n/a
470.766	0.075	941532	keystroke_d	d	n/a
470.946	0.06	941892	keystroke_Key.enter	Key.enter	n/a
471.01	8.4575	942020	prompt	n/a	spirituality toshiba nothing warren\n
472.1765	0.075	944353	keystroke_s	s	n/a
472.3715	0.105	944743	keystroke_o	o	n/a
472.9565	0.0895	945913	keystroke_Key.backspace	Key.backspace	n/a
473.286	0.075	946572	keystroke_p	p	n/a
473.496	0.075	946992	keystroke_i	i	n/a
473.721	0.061	947442	keystroke_r	r	n/a
473.811	0.09	947622	keystroke_i	i	n/a
474.0065	0.075	948013	keystroke_t	t	n/a
474.1115	0.06	948223	keystroke_u	u	n/a
474.2765	0.075	948553	keystroke_a	a	n/a
474.3665	0.06	948733	keystroke_l	l	n/a
474.4865	0.09	948973	keystroke_l	l	n/a
474.6965	0.06	949393	keystroke_y	y	n/a
474.996	0.09	949992	keystroke_Key.space	Key.space	n/a
475.521	0.06	951042	keystroke_t	t	n/a
475.596	0.075	951192	keystroke_o	o	n/a
475.8065	0.06	951613	keystroke_s	s	n/a
475.8815	0.135	951763	keystroke_h	h	n/a
475.9715	0.06	951943	keystroke_i	i	n/a
476.3015	0.06	952603	keystroke_b	b	n/a
476.451	0.09	952902	keystroke_a	a	n/a
476.991	0.075	953982	keystroke_Key.space	Key.space	n/a
477.366	0.09	954732	keystroke_n	n	n/a
477.471	0.06	954942	keystroke_o	o	n/a
477.576	0.075	955152	keystroke_t	t	n/a
477.636	0.075	955272	keystroke_h	h	n/a
477.666	0.165	955332	keystroke_i	i	n/a
477.786	0.09	955572	keystroke_n	n	n/a
477.936	0.045	955872	keystroke_g	g	n/a
478.146	0.09	956292	keystroke_Key.space	Key.space	n/a
478.476	0.105	956952	keystroke_w	w	n/a
478.701	0.165	957402	keystroke_a	a	n/a
478.836	0.075	957672	keystroke_r	r	n/a
479.001	0.12	958002	keystroke_r	r	n/a
479.106	0.09	958212	keystroke_e	e	n/a
479.256	0.09	958512	keystroke_n	n	n/a
479.376	0.09	958752	keystroke_Key.enter	Key.enter	n/a
479.471	7.8415	958942	prompt	n/a	serbia talent publisher unless\n
480.1265	0.15	960253	keystroke_s	s	n/a
480.2315	0.105	960463	keystroke_e	e	n/a
480.4115	0.105	960823	keystroke_r	r	n/a
480.6515	0.0895	961303	keystroke_b	b	n/a
480.7115	0.0745	961423	keystroke_i	i	n/a
480.981	0.075	961962	keystroke_a	a	n/a
481.4615	0.104	962923	keystroke_Key.space	Key.space	n/a
481.8065	0.18	963613	keystroke_t	t	n/a
481.9565	0.09	963913	keystroke_a	a	n/a
482.4515	0.09	964903	keystroke_l	l	n/a
482.6015	0.0605	965203	keystroke_e	e	n/a
482.766	0.045	965532	keystroke_n	n	n/a
482.841	0.06	965682	keystroke_t	t	n/a
483.246	0.09	966492	keystroke_Key.space	Key.space	n/a
483.561	0.09	967122	keystroke_p	p	n/a
483.771	0.06	967542	keystroke_u	u	n/a
484.926	0.075	969852	keystroke_b	b	n/a
485.136	0.105	970272	keystroke_l	l	n/a
485.181	0.09	970362	keystroke_i	i	n/a
485.361	0.06	970722	keystroke_s	s	n/a
485.436	0.0755	970872	keystroke_h	h	n/a
485.6765	0.105	971353	keystroke_e	e	n/a
485.7365	0.075	971473	keystroke_r	r	n/a
486.0055	0.076	972011	keystroke_Key.space	Key.space	n/a
486.2915	0.075	972583	keystroke_u	u	n/a
486.4565	0.075	972913	keystroke_n	n	n/a
486.6065	0.075	973213	keystroke_l	l	n/a
486.711	0.09	973422	keystroke_e	e	n/a
486.921	0.06	973842	keystroke_s	s	n/a
487.041	0.06	974082	keystroke_s	s	n/a
487.236	0.075	974472	keystroke_Key.enter	Key.enter	n/a
487.3155	8.247	974631	prompt	n/a	dishes stretch lesbians remain\n
488.091	0.1195	976182	keystroke_d	d	n/a
488.1805	0.06	976361	keystroke_i	i	n/a
488.2865	0.089	976573	keystroke_s	s	n/a
488.4655	0.045	976931	keystroke_h	h	n/a
488.5705	0.165	977141	keystroke_s	s	n/a
488.7055	0.12	977411	keystroke_e	e	n/a
488.9465	0.074	977893	keystroke_s	s	n/a
489.3055	0.03	978611	keystroke_Key.backspace	Key.backspace	n/a
489.4105	0.0455	978821	keystroke_Key.backspace	Key.backspace	n/a
489.5155	0.0605	979031	keystroke_Key.backspace	Key.backspace	n/a
490.4615	0.075	980923	keystroke_e	e	n/a
490.6715	0.075	981343	keystroke_s	s	n/a
490.8365	0.09	981673	keystroke_Key.space	Key.space	n/a
491.1065	0.075	982213	keystroke_s	s	n/a
491.2415	0.105	982483	keystroke_t	t	n/a
491.4215	0.135	982843	keystroke_r	r	n/a
491.5115	0.09	983023	keystroke_e	e	n/a
491.7065	0.075	983413	keystroke_t	t	n/a
491.9465	0.09	983893	keystroke_c	c	n/a
492.0665	0.06	984133	keystroke_h	h	n/a
492.4115	0.0745	984823	keystroke_Key.space	Key.space	n/a
492.666	0.09	985332	keystroke_l	l	n/a
492.771	0.06	985542	keystroke_e	e	n/a
492.921	0.09	985842	keystroke_s	s	n/a
493.131	0.06	986262	keystroke_b	b	n/a
493.311	0.045	986622	keystroke_i	i	n/a
493.461	0.0755	986922	keystroke_a	a	n/a
493.6565	0.06	987313	keystroke_n	n	n/a
493.8665	0.06	987733	keystroke_s	s	n/a
494.3165	0.09	988633	keystroke_Key.space	Key.space	n/a
494.571	0.09	989142	keystroke_r	r	n/a
494.631	0.075	989262	keystroke_e	e	n/a
494.721	0.105	989442	keystroke_m	m	n/a
494.9015	0.09	989803	keystroke_a	a	n/a
495.0365	0.12	990073	keystroke_i	i	n/a
495.1265	0.075	990253	keystroke_n	n	n/a
495.4865	0.0745	990973	keystroke_Key.enter	Key.enter	n/a
495.5655	7.407	991131	prompt	n/a	granny estates fridge effort\n
496.566	0.075	993132	keystroke_g	g	n/a
496.746	0.12	993492	keystroke_r	r	n/a
496.851	0.105	993702	keystroke_a	a	n/a
497.061	0.03	994122	keystroke_n	n	n/a
497.181	0.06	994362	keystroke_n	n	n/a
497.346	0.075	994692	keystroke_y	y	n/a
497.7365	0.075	995473	keystroke_Key.space	Key.space	n/a
498.0065	0.09	996013	keystroke_e	e	n/a
498.2015	0.165	996403	keystroke_s	s	n/a
498.3515	0.105	996703	keystroke_t	t	n/a
498.4705	0.105	996941	keystroke_a	a	n/a
498.5615	0.195	997123	keystroke_t	t	n/a
498.7265	0.045	997453	keystroke_e	e	n/a
498.9065	0.09	997813	keystroke_s	s	n/a
499.4155	0.075	998831	keystroke_Key.space	Key.space	n/a
499.7465	0.09	999493	keystroke_f	f	n/a
499.9115	0.075	999823	keystroke_r	r	n/a
500.0915	0.045	1000183	keystroke_i	i	n/a
500.4215	0.06	1000843	keystroke_g	g	n/a
500.6765	0.089	1001353	keystroke_Key.backspace	Key.backspace	n/a
500.8415	0.09	1001683	keystroke_d	d	n/a
501.036	0.1345	1002072	keystroke_g	g	n/a
501.1415	0.104	1002283	keystroke_e	e	n/a
501.3805	0.09	1002761	keystroke_Key.space	Key.space	n/a
501.711	0.105	1003422	keystroke_e	e	n/a
501.876	0.075	1003752	keystroke_f	f	n/a
502.026	0.105	1004052	keystroke_f	f	n/a
502.221	0.045	1004442	keystroke_o	o	n/a
502.267	0.059	1004534	keystroke_r	r	n/a
502.476	0.06	1004952	keystroke_t	t	n/a
502.896	0.075	1005792	keystroke_Key.enter	Key.enter	n/a
502.975	11.3975	1005950	prompt	n/a	invitation excuse monday slightly\n
503.7815	0.09	1007563	keystroke_i	i	n/a
503.8265	0.075	1007653	keystroke_n	n	n/a
504.0515	0.075	1008103	keystroke_v	v	n/a
504.0815	0.075	1008163	keystroke_i	i	n/a
504.3665	0.1195	1008733	keystroke_t	t	n/a
504.501	0.075	1009002	keystroke_a	a	n/a
504.621	0.03	1009242	keystroke_i	i	n/a
504.636	0.09	1009272	keystroke_o	o	n/a
504.846	0.03	1009692	keystroke_n	n	n/a
505.191	0.06	1010382	keystroke_Key.backspace	Key.backspace	n/a
505.311	0.06	1010622	keystroke_Key.backspace	Key.backspace	n/a
505.431	0.045	1010862	keystroke_Key.backspace	Key.backspace	n/a
506.286	0.075	1012572	keystroke_t	t	n/a
506.421	0.12	1012842	keystroke_o	o	n/a
507.2765	0.075	1014553	keystroke_Key.backspace	Key.backspace	n/a
507.7565	0.09	1015513	keystroke_i	i	n/a
507.8015	0.075	1015603	keystroke_o	o	n/a
508.0115	0.06	1016023	keystroke_n	n	n/a
508.4465	0.075	1016893	keystroke_Key.space	Key.space	n/a
508.6415	0.09	1017283	keystroke_e	e	n/a
509.421	0.12	1018842	keystroke_x	x	n/a
509.676	0.12	1019352	keystroke_c	c	n/a
509.841	0.06	1019682	keystroke_u	u	n/a
509.961	0.1205	1019922	keystroke_s	s	n/a
510.0515	0.09	1020103	keystroke_e	e	n/a
510.891	0.105	1021782	keystroke_Key.space	Key.space	n/a
511.1765	0.119	1022353	keystroke_m	m	n/a
511.2505	0.075	1022501	keystroke_o	o	n/a
511.4605	0.075	1022921	keystroke_n	n	n/a
511.6265	0.089	1023253	keystroke_d	d	n/a
511.6705	0.075	1023341	keystroke_a	a	n/a
511.7905	0.075	1023581	keystroke_y	y	n/a
512.2105	0.075	1024421	keystroke_Key.space	Key.space	n/a
512.4805	0.09	1024961	keystroke_s	s	n/a
512.5855	0.1055	1025171	keystroke_l	l	n/a
512.6465	0.0895	1025293	keystroke_i	i	n/a
512.796	0.06	1025592	keystroke_g	g	n/a
512.886	0.075	1025772	keystroke_h	h	n/a
512.991	0.045	1025982	keystroke_t	t	n/a
513.096	0.09	1026192	keystroke_l	l	n/a
513.156	0.045	1026312	keystroke_u	u	n/a
513.306	0.045	1026612	keystroke_y	y	n/a
513.741	0.06	1027482	keystroke_Key.backspace	Key.backspace	n/a
513.876	0.075	1027752	keystroke_Key.backspace	Key.backspace	n/a
514.1155	0.0455	1028231	keystroke_y	y	n/a
514.311	0.0595	1028622	keystroke_Key.enter	Key.enter	n/a
514.3755	7.542	1028751	prompt	n/a	elections briefly incentives valid\n
515.166	0.09	1030332	keystroke_e	e	n/a
515.301	0.0755	1030602	keystroke_l	l	n/a
515.3615	0.135	1030723	keystroke_e	e	n/a
515.5715	0.015	1031143	keystroke_v	v	n/a
515.7515	0.09	1031503	keystroke_t	t	n/a
516.081	0.06	1032162	keystroke_Key.backspace	Key.backspace	n/a
516.186	0.075	1032372	keystroke_Key.backspace	Key.backspace	n/a
516.246	0.075	1032492	keystroke_c	c	n/a
516.426	0.06	1032852	keystroke_t	t	n/a
516.471	0.09	1032942	keystroke_i	i	n/a
516.516	0.09	1033032	keystroke_o	o	n/a
516.666	0.0905	1033332	keystroke_n	n	n/a
516.8165	0.059	1033633	keystroke_s	s	n/a
517.1465	0.074	1034293	keystroke_Key.space	Key.space	n/a
517.8365	0.09	1035673	keystroke_b	b	n/a
517.9865	0.075	1035973	keystroke_r	r	n/a
518.0765	0.075	1036153	keystroke_i	i	n/a
518.211	0.075	1036422	keystroke_e	e	n/a
518.406	0.0755	1036812	keystroke_f	f	n/a
518.5705	0.106	1037141	keystroke_l	l	n/a
518.8415	0.06	1037683	keystroke_y	y	n/a
519.1705	0.075	1038341	keystroke_Key.space	Key.space	n/a
519.3655	0.1055	1038731	keystroke_i	i	n/a
519.426	0.075	1038852	keystroke_n	n	n/a
519.636	0.105	1039272	keystroke_c	c	n/a
519.726	0.06	1039452	keystroke_e	e	n/a
519.801	0.09	1039602	keystroke_n	n	n/a
519.921	0.09	1039842	keystroke_t	t	n/a
520.056	0.075	1040112	keystroke_i	i	n/a
520.176	0.15	1040352	keystroke_v	v	n/a
520.341	0.12	1040682	keystroke_e	e	n/a
520.581	0.075	1041162	keystroke_s	s	n/a
520.716	0.0755	1041432	keystroke_Key.space	Key.space	n/a
521.2265	0.105	1042453	keystroke_v	v	n/a
521.3465	0.12	1042693	keystroke_a	a	n/a
521.4515	0.12	1042903	keystroke_l	l	n/a
521.5265	0.06	1043053	keystroke_i	i	n/a
521.6465	0.09	1043293	keystroke_d	d	n/a
521.8565	0.06	1043713	keystroke_Key.enter	Key.enter	n/a
521.9205	6.1325	1043841	prompt	n/a	luis permit resorts nova\n
522.6365	0.09	1045273	keystroke_l	l	n/a
522.8765	0.105	1045753	keystroke_u	u	n/a
522.9515	0.06	1045903	keystroke_i	i	n/a
523.0565	0.075	1046113	keystroke_s	s	n/a
523.2215	0.06	1046443	keystroke_Key.space	Key.space	n/a
523.4165	0.06	1046833	keystroke_p	p	n/a
523.4915	0.09	1046983	keystroke_e	e	n/a
523.5365	0.06	1047073	keystroke_r	r	n/a
523.6265	0.105	1047253	keystroke_m	m	n/a
523.7015	0.09	1047403	keystroke_i	i	n/a
524.2565	0.06	1048513	keystroke_t	t	n/a
524.601	0.09	1049202	keystroke_Key.space	Key.space	n/a
525.0365	0.135	1050073	keystroke_r	r	n/a
525.1115	0.09	1050223	keystroke_e	e	n/a
525.2915	0.105	1050583	keystroke_s	s	n/a
525.4115	0.135	1050823	keystroke_r	r	n/a
525.4265	0.06	1050853	keystroke_o	o	n/a
525.9955	0.0605	1051991	keystroke_Key.backspace	Key.backspace	n/a
526.116	0.075	1052232	keystroke_Key.backspace	Key.backspace	n/a
526.3265	0.0895	1052653	keystroke_o	o	n/a
526.446	0.0745	1052892	keystroke_r	r	n/a
526.6105	0.09	1053221	keystroke_t	t	n/a
526.8355	0.09	1053671	keystroke_s	s	n/a
526.9555	0.1055	1053911	keystroke_Key.space	Key.space	n/a
527.256	0.15	1054512	keystroke_n	n	n/a
527.361	0.075	1054722	keystroke_o	o	n/a
527.466	0.12	1054932	keystroke_v	v	n/a
527.601	0.09	1055202	keystroke_a	a	n/a
527.991	0.06	1055982	keystroke_Key.enter	Key.enter	n/a
528.0555	8.157	1056111	prompt	n/a	ratings seeds threatened rates\n
528.921	0.1355	1057842	keystroke_r	r	n/a
529.0265	0.105	1058053	keystroke_a	a	n/a
529.1615	0.09	1058323	keystroke_t	t	n/a
529.2665	0.0895	1058533	keystroke_i	i	n/a
529.326	0.0605	1058652	keystroke_n	n	n/a
529.4465	0.105	1058893	keystroke_g	g	n/a
529.686	0.0755	1059372	keystroke_s	s	n/a
529.8815	0.0895	1059763	keystroke_Key.space	Key.space	n/a
530.121	0.105	1060242	keystroke_s	s	n/a
530.181	0.09	1060362	keystroke_e	e	n/a
530.361	0.1205	1060722	keystroke_e	e	n/a
530.6765	0.1645	1061353	keystroke_d	d	n/a
530.811	0.105	1061622	keystroke_s	s	n/a
531.051	0.075	1062102	keystroke_Key.space	Key.space	n/a
531.351	0.12	1062702	keystroke_t	t	n/a
531.426	0.09	1062852	keystroke_h	h	n/a
531.501	0.12	1063002	keystroke_e	e	n/a
531.606	0.12	1063212	keystroke_r	r	n/a
531.741	0.045	1063482	keystroke_e	e	n/a
532.266	0.09	1064532	keystroke_Key.backspace	Key.backspace	n/a
532.506	0.06	1065012	keystroke_Key.backspace	Key.backspace	n/a
532.731	0.15	1065462	keystroke_a	a	n/a
532.971	0.1345	1065942	keystroke_t	t	n/a
533.5415	0.059	1067083	keystroke_e	e	n/a
533.6315	0.059	1067263	keystroke_n	n	n/a
534.4265	0.089	1068853	keystroke_e	e	n/a
534.6805	0.06	1069361	keystroke_d	d	n/a
534.9505	0.0905	1069901	keystroke_Key.space	Key.space	n/a
535.2665	0.09	1070533	keystroke_r	r	n/a
535.3865	0.09	1070773	keystroke_a	a	n/a
535.4915	0.18	1070983	keystroke_t	t	n/a
535.5965	0.1345	1071193	keystroke_e	e	n/a
535.8665	0.06	1071733	keystroke_s	s	n/a
536.151	0.0605	1072302	keystroke_Key.enter	Key.enter	n/a
536.217	6.011	1072434	prompt	n/a	chapters agenda broker name\n
537.0515	0.1195	1074103	keystroke_c	c	n/a
537.111	0.075	1074222	keystroke_h	h	n/a
537.216	0.0905	1074432	keystroke_a	a	n/a
537.3365	0.06	1074673	keystroke_p	p	n/a
537.5165	0.21	1075033	keystroke_t	t	n/a
537.9515	0.15	1075903	keystroke_e	e	n/a
538.0565	0.09	1076113	keystroke_r	r	n/a
538.266	0.09	1076532	keystroke_s	s	n/a
538.536	0.09	1077072	keystroke_Key.space	Key.space	n/a
538.986	0.1055	1077972	keystroke_a	a	n/a
539.2115	0.09	1078423	keystroke_g	g	n/a
539.2715	0.09	1078543	keystroke_e	e	n/a
539.3765	0.074	1078753	keystroke_n	n	n/a
539.5115	0.1345	1079023	keystroke_d	d	n/a
539.616	0.075	1079232	keystroke_a	a	n/a
539.976	0.075	1079952	keystroke_Key.space	Key.space	n/a
540.276	0.075	1080552	keystroke_b	b	n/a
540.366	0.0745	1080732	keystroke_r	r	n/a
540.4555	0.091	1080911	keystroke_o	o	n/a
540.5765	0.089	1081153	keystroke_k	k	n/a
540.7405	0.106	1081481	keystroke_e	e	n/a
