onset	duration	sample	value	key	prompt_text
1.788	11.106	3576	prompt	n/a	the quick brown fox jumps over a lazy dog\n
4.3815	0.042	8763	keystroke_t	t	n/a
4.4085	0.09	8817	keystroke_h	h	n/a
4.483	0.1355	8966	keystroke_e	e	n/a
4.5885	0.105	9177	keystroke_Key.space	Key.space	n/a
4.7385	0.135	9477	keystroke_q	q	n/a
4.8585	0.09	9717	keystroke_u	u	n/a
5.1435	0.12	10287	keystroke_i	i	n/a
5.4435	0.105	10887	keystroke_c	c	n/a
5.5635	0.135	11127	keystroke_k	k	n/a
5.8785	0.105	11757	keystroke_Key.space	Key.space	n/a
6.1965	0.077	12393	keystroke_b	b	n/a
6.3795	0.104	12759	keystroke_r	r	n/a
6.4685	0.09	12937	keystroke_o	o	n/a
6.6035	0.091	13207	keystroke_w	w	n/a
6.6785	0.123	13357	keystroke_n	n	n/a
6.8465	0.105	13693	keystroke_Key.space	Key.space	n/a
6.9815	0.12	13963	keystroke_f	f	n/a
7.0715	0.09	14143	keystroke_o	o	n/a
7.2815	0.12	14563	keystroke_x	x	n/a
7.4765	0.075	14953	keystroke_Key.space	Key.space	n/a
7.6115	0.119	15223	keystroke_j	j	n/a
7.7905	0.06	15581	keystroke_u	u	n/a
7.9705	0.075	15941	keystroke_m	m	n/a
8.285	0.105	16570	keystroke_s	s	n/a
8.705	0.15	17410	keystroke_Key.backspace	Key.backspace	n/a
9.036	0.09	18072	keystroke_p	p	n/a
9.3815	0.09	18763	keystroke_s	s	n/a
9.5315	0.12	19063	keystroke_Key.space	Key.space	n/a
9.6665	0.104	19333	keystroke_o	o	n/a
9.7855	0.135	19571	keystroke_v	v	n/a
9.9665	0.194	19933	keystroke_e	e	n/a
10.0855	0.135	20171	keystroke_r	r	n/a
10.1755	0.075	20351	keystroke_Key.space	Key.space	n/a
10.3715	0.074	20743	keystroke_a	a	n/a
10.4005	0.12	20801	keystroke_Key.space	Key.space	n/a
10.4755	0.12	20951	keystroke_l	l	n/a
10.6705	0.105	21341	keystroke_a	a	n/a
10.9105	0.135	21821	keystroke_z	z	n/a
11.1065	0.15	22213	keystroke_y	y	n/a
11.1955	0.135	22391	keystroke_Key.space	Key.space	n/a
11.4505	0.075	22901	keystroke_f	f	n/a
11.5115	0.09	23023	keystroke_o	o	n/a
11.8705	0.075	23741	keystroke_Key.backspace	Key.backspace	n/a
12.0355	0.06	24071	keystroke_Key.backspace	Key.backspace	n/a
12.186	0.105	24372	keystroke_d	d	n/a
12.276	0.105	24552	keystroke_o	o	n/a
12.471	0.075	24942	keystroke_g	g	n/a
12.606	0.089	25212	keystroke_Key.space	Key.space	n/a
12.801	0.09	25602	keystroke_Key.enter	Key.enter	n/a
12.9005	9.9825	25801	prompt	n/a	norm courier ages costa\n
13.851	0.09	27702	keystroke_n	n	n/a
13.986	0.105	27972	keystroke_o	o	n/a
14.121	0.105	28242	keystroke_r	r	n/a
14.256	0.105	28512	keystroke_m	m	n/a
14.4655	0.075	28931	keystroke_Key.space	Key.space	n/a
14.6615	0.134	29323	keystroke_c	c	n/a
14.7515	0.164	29503	keystroke_o	o	n/a
14.8565	0.12	29713	keystroke_u	u	n/a
15.0955	0.09	30191	keystroke_r	r	n/a
15.3515	0.089	30703	keystroke_i	i	n/a
15.5455	0.12	31091	keystroke_e	e	n/a
15.7855	0.105	31571	keystroke_r	r	n/a
15.9065	0.089	31813	keystroke_Key.space	Key.space	n/a
16.1455	0.105	32291	keystroke_a	a	n/a
16.3255	0.106	32651	keystroke_g	g	n/a
16.4605	0.091	32921	keystroke_e	e	n/a
16.6105	0.135	33221	keystroke_s	s	n/a
16.7605	0.06	33521	keystroke_Key.space	Key.space	n/a
16.8815	0.104	33763	keystroke_c	c	n/a
17.0015	0.059	34003	keystroke_o	o	n/a
17.1065	0.119	34213	keystroke_a	a	n/a
17.2415	0.149	34483	keystroke_s	s	n/a
17.4815	0.105	34963	keystroke_t	t	n/a
17.6005	0.075	35201	keystroke_Key.space	Key.space	n/a
17.7655	0.121	35531	keystroke_a	a	n/a
18.1265	0.074	36253	keystroke_Key.backspace	Key.backspace	n/a
18.2755	0.09	36551	keystroke_Key.backspace	Key.backspace	n/a
18.6805	0.135	37361	keystroke_a	a	n/a
19.5655	0.075	39131	keystroke_Key.backspace	Key.backspace	n/a
19.7315	0.074	39463	keystroke_Key.backspace	Key.backspace	n/a
19.8955	0.06	39791	keystroke_Key.backspace	Key.backspace	n/a
20.0305	0.135	40061	keystroke_Key.backspace	Key.backspace	n/a
20.2555	0.135	40511	keystroke_s	s	n/a
21.3205	0.09	42641	keystroke_Key.backspace	Key.backspace	n/a
21.8765	0.164	43753	keystroke_s	s	n/a
22.3715	0.105	44743	keystroke_t	t	n/a
22.5815	0.104	45163	keystroke_a	a	n/a
22.8205	0.06	45641	keystroke_Key.enter	Key.enter	n/a
22.8875	7.8255	45775	prompt	n/a	frozen nursing hotel beautifully\n
23.736	0.12	47472	keystroke_f	f	n/a
23.931	0.135	47862	keystroke_r	r	n/a
24.051	0.09	48102	keystroke_o	o	n/a
24.396	0.15	48792	keystroke_z	z	n/a
24.786	0.105	49572	keystroke_e	e	n/a
24.936	0.09	49872	keystroke_n	n	n/a
25.101	0.09	50202	keystroke_Key.space	Key.space	n/a
25.311	0.105	50622	keystroke_n	n	n/a
25.521	0.09	51042	keystroke_u	u	n/a
25.641	0.075	51282	keystroke_r	r	n/a
25.941	0.075	51882	keystroke_s	s	n/a
26.031	0.075	52062	keystroke_i	i	n/a
26.181	0.075	52362	keystroke_n	n	n/a
26.301	0.09	52602	keystroke_g	g	n/a
26.436	0.06	52872	keystroke_Key.space	Key.space	n/a
26.601	0.09	53202	keystroke_h	h	n/a
26.721	0.105	53442	keystroke_o	o	n/a
26.901	0.09	53802	keystroke_l	l	n/a
27.3205	0.075	54641	keystroke_Key.backspace	Key.backspace	n/a
27.6065	0.075	55213	keystroke_t	t	n/a
27.7705	0.105	55541	keystroke_e	e	n/a
27.9205	0.225	55841	keystroke_l	l	n/a
28.0555	0.165	56111	keystroke_Key.space	Key.space	n/a
28.2815	0.074	56563	keystroke_b	b	n/a
28.3865	0.12	56773	keystroke_e	e	n/a
28.5815	0.104	57163	keystroke_a	a	n/a
28.8205	0.12	57641	keystroke_u	u	n/a
29.2405	0.075	58481	keystroke_t	t	n/a
29.3455	0.075	58691	keystroke_i	i	n/a
29.5405	0.105	59081	keystroke_f	f	n/a
29.6765	0.105	59353	keystroke_u	u	n/a
29.9155	0.075	59831	keystroke_l	l	n/a
30.0505	0.12	60101	keystroke_l	l	n/a
30.2465	0.165	60493	keystroke_y	y	n/a
30.3805	0.135	60761	keystroke_Key.space	Key.space	n/a
30.6065	0.104	61213	keystroke_Key.enter	Key.enter	n/a
30.7245	8.389	61449	prompt	n/a	toys anniversary length detection\n
31.4615	0.09	62923	keystroke_t	t	n/a
31.5655	0.09	63131	keystroke_o	o	n/a
31.8215	0.09	63643	keystroke_y	y	n/a
31.9715	0.119	63943	keystroke_s	s	n/a
32.0615	0.105	64123	keystroke_Key.space	Key.space	n/a
32.2265	0.165	64453	keystroke_a	a	n/a
32.3765	0.059	64753	keystroke_n	n	n/a
32.5115	0.075	65023	keystroke_n	n	n/a
32.6315	0.09	65263	keystroke_i	i	n/a
32.7515	0.135	65503	keystroke_v	v	n/a
32.9015	0.2395	65803	keystroke_e	e	n/a
33.036	0.12	66072	keystroke_r	r	n/a
33.246	0.12	66492	keystroke_s	s	n/a
33.501	0.195	67002	keystroke_a	a	n/a
33.756	0.075	67512	keystroke_r	r	n/a
33.876	0.135	67752	keystroke_y	y	n/a
33.966	0.12	67932	keystroke_Key.space	Key.space	n/a
34.146	0.09	68292	keystroke_l	l	n/a
34.281	0.12	68562	keystroke_e	e	n/a
34.386	0.075	68772	keystroke_n	n	n/a
34.761	0.075	69522	keystroke_g	g	n/a
35.691	0.06	71382	keystroke_t	t	n/a
35.856	0.09	71712	keystroke_h	h	n/a
37.1905	0.091	74381	keystroke_Key.space	Key.space	n/a
37.3415	0.09	74683	keystroke_d	d	n/a
37.5065	0.12	75013	keystroke_e	e	n/a
37.7315	0.104	75463	keystroke_t	t	n/a
37.8655	0.106	75731	keystroke_e	e	n/a
38.076	0.12	76152	keystroke_c	c	n/a
38.331	0.075	76662	keystroke_t	t	n/a
38.421	0.36	76842	keystroke_i	i	n/a
38.556	0.255	77112	keystroke_o	o	n/a
38.676	0.18	77352	keystroke_n	n	n/a
38.796	0.135	77592	keystroke_Key.space	Key.space	n/a
39.021	0.09	78042	keystroke_Key.enter	Key.enter	n/a
39.1185	9.37	78237	prompt	n/a	manufacture excel marina collection\n
40.356	0.105	80712	keystroke_m	m	n/a
40.476	0.105	80952	keystroke_a	a	n/a
40.731	0.075	81462	keystroke_n	n	n/a
40.881	0.09	81762	keystroke_u	u	n/a
41.091	0.12	82182	keystroke_f	f	n/a
41.256	0.105	82512	keystroke_a	a	n/a
41.496	0.105	82992	keystroke_c	c	n/a
41.721	0.075	83442	keystroke_t	t	n/a
41.811	0.09	83622	keystroke_u	u	n/a
41.931	0.135	83862	keystroke_r	r	n/a
42.051	0.135	84102	keystroke_e	e	n/a
42.201	0.12	84402	keystroke_Key.space	Key.space	n/a
42.351	0.091	84702	keystroke_e	e	n/a
42.577	0.104	85154	keystroke_x	x	n/a
42.816	0.09	85632	keystroke_c	c	n/a
43.027	0.104	86054	keystroke_e	e	n/a
43.221	0.09	86442	keystroke_l	l	n/a
43.491	0.09	86982	keystroke_Key.space	Key.space	n/a
43.806	0.105	87612	keystroke_m	m	n/a
43.926	0.105	87852	keystroke_a	a	n/a
44.166	0.09	88332	keystroke_r	r	n/a
44.271	0.06	88542	keystroke_i	i	n/a
44.466	0.09	88932	keystroke_n	n	n/a
44.631	0.12	89262	keystroke_a	a	n/a
44.781	0.06	89562	keystroke_Key.space	Key.space	n/a
44.946	0.135	89892	keystroke_c	c	n/a
45.036	0.091	90072	keystroke_o	o	n/a
45.351	0.105	90702	keystroke_l	l	n/a
45.426	0.12	90852	keystroke_e	e	n/a
45.652	0.149	91304	keystroke_c	c	n/a
45.936	0.075	91872	keystroke_t	t	n/a
46.476	0.045	92952	keystroke_Key.backspace	Key.backspace	n/a
46.611	0.06	93222	keystroke_Key.backspace	Key.backspace	n/a
46.746	0.105	93492	keystroke_Key.backspace	Key.backspace	n/a
47.106	0.09	94212	keystroke_l	l	n/a
47.257	0.104	94514	keystroke_e	e	n/a
47.466	0.12	94932	keystroke_c	c	n/a
47.736	0.075	95472	keystroke_t	t	n/a
47.826	0.33	95652	keystroke_i	i	n/a
47.946	0.211	95892	keystroke_o	o	n/a
48.052	0.179	96104	keystroke_n	n	n/a
48.171	0.135	96342	keystroke_Key.space	Key.space	n/a
48.396	0.09	96792	keystroke_Key.enter	Key.enter	n/a
48.4945	5.0795	96989	prompt	n/a	aids sessions skin shows\n
49.177	0.104	98354	keystroke_a	a	n/a
49.326	0.106	98652	keystroke_i	i	n/a
49.461	0.136	98922	keystroke_d	d	n/a
49.641	0.15	99282	keystroke_s	s	n/a
49.776	0.09	99552	keystroke_Key.space	Key.space	n/a
50.106	0.045	100212	keystroke_a	a	n/a
50.496	0.105	100992	keystroke_Key.backspace	Key.backspace	n/a
50.631	0.135	101262	keystroke_s	s	n/a
50.811	0.091	101622	keystroke_e	e	n/a
50.991	0.076	101982	keystroke_s	s	n/a
51.126	0.09	102252	keystroke_s	s	n/a
51.247	0.104	102494	keystroke_i	i	n/a
51.427	0.074	102854	keystroke_o	o	n/a
51.606	0.06	103212	keystroke_n	n	n/a
51.696	0.135	103392	keystroke_s	s	n/a
51.846	0.06	103692	keystroke_Key.space	Key.space	n/a
52.011	0.12	104022	keystroke_s	s	n/a
52.102	0.074	104204	keystroke_k	k	n/a
52.251	0.075	104502	keystroke_i	i	n/a
52.431	0.075	104862	keystroke_n	n	n/a
52.582	0.074	105164	keystroke_Key.space	Key.space	n/a
52.716	0.106	105432	keystroke_s	s	n/a
52.836	0.12	105672	keystroke_h	h	n/a
52.911	0.15	105822	keystroke_o	o	n/a
53.077	0.059	106154	keystroke_w	w	n/a
53.241	0.09	106482	keystroke_s	s	n/a
53.346	0.09	106692	keystroke_Key.space	Key.space	n/a
53.481	0.09	106962	keystroke_Key.enter	Key.enter	n/a
53.58	8.678	107160	prompt	n/a	termination andrea requirement favorite\n
54.457	0.089	108914	keystroke_t	t	n/a
54.576	0.18	109152	keystroke_e	e	n/a
54.696	0.12	109392	keystroke_r	r	n/a
54.801	0.09	109602	keystroke_m	m	n/a
54.936	0.075	109872	keystroke_i	i	n/a
55.116	0.075	110232	keystroke_n	n	n/a
55.206	0.165	110412	keystroke_a	a	n/a
55.401	0.121	110802	keystroke_t	t	n/a
55.506	0.241	111012	keystroke_i	i	n/a
55.611	0.18	111222	keystroke_o	o	n/a
55.686	0.15	111372	keystroke_n	n	n/a
55.776	0.15	111552	keystroke_Key.space	Key.space	n/a
55.912	0.165	111824	keystroke_a	a	n/a
56.091	0.075	112182	keystroke_n	n	n/a
56.256	0.15	112512	keystroke_d	d	n/a
56.436	0.15	112872	keystroke_r	r	n/a
56.556	0.225	113112	keystroke_e	e	n/a
56.751	0.121	113502	keystroke_a	a	n/a
56.886	0.075	113772	keystroke_Key.space	Key.space	n/a
57.186	0.1355	114372	keystroke_e	e	n/a
57.6805	0.12	115361	keystroke_Key.backspace	Key.backspace	n/a
58.0855	0.166	116171	keystroke_r	r	n/a
58.2065	0.18	116413	keystroke_e	e	n/a
58.476	0.135	116952	keystroke_q	q	n/a
58.596	0.09	117192	keystroke_u	u	n/a
58.746	0.09	117492	keystroke_i	i	n/a
58.986	0.105	117972	keystroke_e	e	n/a
59.406	0.09	118812	keystroke_Key.backspace	Key.backspace	n/a
59.632	0.149	119264	keystroke_r	r	n/a
59.766	0.12	119532	keystroke_e	e	n/a
59.946	0.105	119892	keystroke_m	m	n/a
60.127	0.179	120254	keystroke_e	e	n/a
60.246	0.076	120492	keystroke_n	n	n/a
60.426	0.09	120852	keystroke_t	t	n/a
60.5615	0.1045	121123	keystroke_Key.space	Key.space	n/a
60.756	0.1505	121512	keystroke_f	f	n/a
60.9365	0.12	121873	keystroke_a	a	n/a
61.1915	0.06	122383	keystroke_v	v	n/a
61.2815	0.0745	122563	keystroke_o	o	n/a
61.416	0.105	122832	keystroke_r	r	n/a
61.536	0.075	123072	keystroke_i	i	n/a
61.716	0.09	123432	keystroke_t	t	n/a
61.851	0.12	123702	keystroke_e	e	n/a
62.016	0.09	124032	keystroke_Key.space	Key.space	n/a
62.181	0.075	124362	keystroke_Key.enter	Key.enter	n/a
62.2655	6.4725	124531	prompt	n/a	citation hollywood moms pools\n
63.021	0.105	126042	keystroke_c	c	n/a
63.171	0.135	126342	keystroke_l	l	n/a
63.531	0.075	127062	keystroke_Key.backspace	Key.backspace	n/a
63.756	0.09	127512	keystroke_i	i	n/a
63.951	0.12	127902	keystroke_t	t	n/a
64.131	0.15	128262	keystroke_a	a	n/a
64.371	0.12	128742	keystroke_t	t	n/a
64.476	0.285	128952	keystroke_i	i	n/a
64.611	0.18	129222	keystroke_o	o	n/a
64.686	0.15	129372	keystroke_n	n	n/a
64.776	0.135	129552	keystroke_Key.space	Key.space	n/a
64.971	0.12	129942	keystroke_h	h	n/a
65.136	0.09	130272	keystroke_o	o	n/a
65.346	0.045	130692	keystroke_l	l	n/a
65.451	0.105	130902	keystroke_l	l	n/a
65.646	0.09	131292	keystroke_y	y	n/a
65.856	0.075	131712	keystroke_w	w	n/a
65.961	0.075	131922	keystroke_o	o	n/a
66.096	0.09	132192	keystroke_o	o	n/a
66.201	0.105	132402	keystroke_d	d	n/a
66.321	0.0895	132642	keystroke_Key.space	Key.space	n/a
66.9055	0.105	133811	keystroke_m	m	n/a
67.0555	0.091	134111	keystroke_o	o	n/a
67.1905	0.0905	134381	keystroke_m	m	n/a
67.386	0.105	134772	keystroke_s	s	n/a
67.506	0.0595	135012	keystroke_Key.space	Key.space	n/a
67.7765	0.075	135553	keystroke_p	p	n/a
67.9565	0.075	135913	keystroke_o	o	n/a
68.1065	0.09	136213	keystroke_o	o	n/a
68.3015	0.12	136603	keystroke_l	l	n/a
68.4665	0.12	136933	keystroke_s	s	n/a
68.6605	0.075	137321	keystroke_Key.enter	Key.enter	n/a
68.742	7.3905	137484	prompt	n/a	tight potatoes courses writings\n
69.4415	0.089	138883	keystroke_t	t	n/a
69.5465	0.075	139093	keystroke_i	i	n/a
69.6665	0.09	139333	keystroke_g	g	n/a
69.7715	0.075	139543	keystroke_h	h	n/a
69.8765	0.09	139753	keystroke_t	t	n/a
69.9955	0.12	139991	keystroke_Key.space	Key.space	n/a
70.1765	0.075	140353	keystroke_p	p	n/a
70.3715	0.12	140743	keystroke_o	o	n/a
70.7915	0.1195	141583	keystroke_t	t	n/a
71.001	0.12	142002	keystroke_a	a	n/a
71.286	0.091	142572	keystroke_t	t	n/a
71.391	0.09	142782	keystroke_o	o	n/a
71.526	0.105	143052	keystroke_e	e	n/a
71.706	0.12	143412	keystroke_s	s	n/a
71.856	0.09	143712	keystroke_Key.space	Key.space	n/a
72.021	0.12	144042	keystroke_c	c	n/a
72.246	0.15	144492	keystroke_o	o	n/a
72.336	0.12	144672	keystroke_u	u	n/a
72.486	0.105	144972	keystroke_r	r	n/a
73.101	0.06	146202	keystroke_Key.backspace	Key.backspace	n/a
73.746	0.075	147492	keystroke_r	r	n/a
73.926	0.1055	147852	keystroke_s	s	n/a
74.0915	0.075	148183	keystroke_e	e	n/a
74.2565	0.104	148513	keystroke_s	s	n/a
74.3915	0.12	148783	keystroke_Key.space	Key.space	n/a
74.6465	0.09	149293	keystroke_w	w	n/a
74.8415	0.105	149683	keystroke_r	r	n/a
74.9615	0.074	149923	keystroke_i	i	n/a
75.1415	0.09	150283	keystroke_t	t	n/a
75.2465	0.045	150493	keystroke_i	i	n/a
75.4115	0.06	150823	keystroke_n	n	n/a
75.5165	0.105	151033	keystroke_g	g	n/a
75.6965	0.12	151393	keystroke_s	s	n/a
75.8315	0.135	151663	keystroke_Key.space	Key.space	n/a
76.0265	0.1045	152053	keystroke_Key.enter	Key.enter	n/a
76.139	5.5	152278	prompt	n/a	weblog center racial craig\n
76.776	0.12	153552	keystroke_w	w	n/a
76.956	0.105	153912	keystroke_e	e	n/a
77.226	0.06	154452	keystroke_b	b	n/a
77.451	0.09	154902	keystroke_l	l	n/a
77.646	0.09	155292	keystroke_o	o	n/a
77.9165	0.075	155833	keystroke_g	g	n/a
78.0655	0.105	156131	keystroke_Key.space	Key.space	n/a
78.4265	0.075	156853	keystroke_c	c	n/a
78.6055	0.106	157211	keystroke_e	e	n/a
78.6965	0.075	157393	keystroke_n	n	n/a
78.8605	0.076	157721	keystroke_t	t	n/a
78.9815	0.195	157963	keystroke_e	e	n/a
79.0855	0.121	158171	keystroke_r	r	n/a
79.2205	0.121	158441	keystroke_Key.space	Key.space	n/a
79.3565	0.105	158713	keystroke_r	r	n/a
79.5365	0.119	159073	keystroke_a	a	n/a
79.7615	0.1045	159523	keystroke_c	c	n/a
79.881	0.074	159762	keystroke_i	i	n/a
80.046	0.105	160092	keystroke_a	a	n/a
80.136	0.1655	160272	keystroke_l	l	n/a
80.2565	0.149	160513	keystroke_Key.space	Key.space	n/a
80.4365	0.12	160873	keystroke_c	c	n/a
80.6615	0.105	161323	keystroke_r	r	n/a
80.8565	0.105	161713	keystroke_a	a	n/a
80.9765	0.09	161953	keystroke_i	i	n/a
81.2905	0.061	162581	keystroke_g	g	n/a
81.3965	0.089	162793	keystroke_Key.space	Key.space	n/a
81.5315	0.104	163063	keystroke_Key.enter	Key.enter	n/a
81.645	10.4475	163290	prompt	n/a	custom encyclopedia effort recently\n
82.491	0.12	164982	keystroke_c	c	n/a
82.5965	0.0745	165193	keystroke_u	u	n/a
82.73	0.121	165460	keystroke_s	s	n/a
82.941	0.0905	165882	keystroke_t	t	n/a
83.046	0.225	166092	keystroke_o	o	n/a
83.166	0.18	166332	keystroke_m	m	n/a
83.301	0.12	166602	keystroke_Key.space	Key.space	n/a
83.811	0.091	167622	keystroke_e	e	n/a
83.991	0.09	167982	keystroke_n	n	n/a
84.246	0.165	168492	keystroke_c	c	n/a
84.455	0.076	168910	keystroke_y	y	n/a
84.876	0.105	169752	keystroke_c	c	n/a
85.011	0.075	170022	keystroke_l	l	n/a
86.0015	0.075	172003	keystroke_o	o	n/a
86.3165	0.075	172633	keystroke_p	p	n/a
86.4815	0.09	172963	keystroke_e	e	n/a
86.9465	0.089	173893	keystroke_d	d	n/a
87.0215	0.075	174043	keystroke_i	i	n/a
87.2015	0.1045	174403	keystroke_a	a	n/a
87.291	0.105	174582	keystroke_Key.space	Key.space	n/a
87.501	0.105	175002	keystroke_e	e	n/a
87.756	0.06	175512	keystroke_f	f	n/a
87.891	0.106	175782	keystroke_f	f	n/a
88.026	0.105	176052	keystroke_o	o	n/a
88.146	0.09	176292	keystroke_r	r	n/a
88.386	0.105	176772	keystroke_t	t	n/a
88.521	0.105	177042	keystroke_Key.space	Key.space	n/a
89.0155	0.12	178031	keystroke_r	r	n/a
89.1055	0.135	178211	keystroke_e	e	n/a
89.3455	0.09	178691	keystroke_c	c	n/a
89.5105	0.135	179021	keystroke_e	e	n/a
89.8405	0.09	179681	keystroke_t	t	n/a
90.0055	0.1055	180011	keystroke_n	n	n/a
90.5905	0.0755	181181	keystroke_Key.backspace	Key.backspace	n/a
90.726	0.075	181452	keystroke_Key.backspace	Key.backspace	n/a
91.026	0.06	182052	keystroke_n	n	n/a
91.221	0.075	182442	keystroke_t	t	n/a
91.341	0.075	182682	keystroke_l	l	n/a
91.6255	0.135	183251	keystroke_y	y	n/a
91.7305	0.105	183461	keystroke_Key.space	Key.space	n/a
92.0305	0.06	184061	keystroke_Key.enter	Key.enter	n/a
92.099	7.7345	184198	prompt	n/a	warnings statutory knitting gaps\n
92.7505	0.075	185501	keystroke_w	w	n/a
92.9015	0.164	185803	keystroke_a	a	n/a
93.0805	0.12	186161	keystroke_r	r	n/a
93.1855	0.075	186371	keystroke_n	n	n/a
93.3355	0.075	186671	keystroke_i	i	n/a
93.4705	0.076	186941	keystroke_n	n	n/a
93.5905	0.105	187181	keystroke_g	g	n/a
93.7405	0.15	187481	keystroke_s	s	n/a
93.8755	0.09	187751	keystroke_Key.space	Key.space	n/a
94.176	0.0895	188352	keystroke_t	t	n/a
94.5805	0.091	189161	keystroke_Key.backspace	Key.backspace	n/a
94.7155	0.136	189431	keystroke_s	s	n/a
94.9855	0.09	189971	keystroke_t	t	n/a
95.2555	0.151	190511	keystroke_a	a	n/a
95.6465	0.059	191293	keystroke_t	t	n/a
96.1415	0.105	192283	keystroke_u	u	n/a
96.8165	0.09	193633	keystroke_t	t	n/a
96.9215	0.089	193843	keystroke_o	o	n/a
97.0415	0.104	194083	keystroke_r	r	n/a
97.2055	0.15	194411	keystroke_y	y	n/a
97.3105	0.12	194621	keystroke_Key.space	Key.space	n/a
97.5515	0.09	195103	keystroke_k	k	n/a
97.7465	0.06	195493	keystroke_n	n	n/a
97.8505	0.09	195701	keystroke_i	i	n/a
98.0765	0.075	196153	keystroke_t	t	n/a
98.2105	0.121	196421	keystroke_t	t	n/a
98.3605	0.121	196721	keystroke_i	i	n/a
98.4965	0.119	196993	keystroke_n	n	n/a
98.6305	0.105	197261	keystroke_g	g	n/a
98.7205	0.09	197441	keystroke_Key.space	Key.space	n/a
98.9465	0.09	197893	keystroke_g	g	n/a
99.1705	0.105	198341	keystroke_a	a	n/a
99.3215	0.089	198643	keystroke_p	p	n/a
99.4715	0.105	198943	keystroke_s	s	n/a
99.5765	0.104	199153	keystroke_Key.space	Key.space	n/a
99.7255	0.105	199451	keystroke_Key.enter	Key.enter	n/a
99.838	5.035	199676	prompt	n/a	easily maple myth spent\n
100.476	0.105	200952	keystroke_e	e	n/a
100.656	0.12	201312	keystroke_a	a	n/a
100.911	0.015	201822	keystroke_s	s	n/a
100.941	0.075	201882	keystroke_i	i	n/a
101.121	0.075	202242	keystroke_l	l	n/a
101.346	0.12	202692	keystroke_y	y	n/a
101.421	0.12	202842	keystroke_Key.space	Key.space	n/a
101.631	0.09	203262	keystroke_m	m	n/a
101.796	0.135	203592	keystroke_a	a	n/a
101.961	0.075	203922	keystroke_p	p	n/a
102.141	0.105	204282	keystroke_l	l	n/a
102.261	0.105	204522	keystroke_e	e	n/a
102.381	0.09	204762	keystroke_Key.space	Key.space	n/a
102.531	0.09	205062	keystroke_m	m	n/a
102.771	0.09	205542	keystroke_y	y	n/a
102.981	0.105	205962	keystroke_t	t	n/a
103.056	0.15	206112	keystroke_h	h	n/a
103.566	0.12	207132	keystroke_Key.space	Key.space	n/a
103.776	0.121	207552	keystroke_s	s	n/a
103.926	0.09	207852	keystroke_p	p	n/a
104.061	0.105	208122	keystroke_e	e	n/a
104.196	0.09	208392	keystroke_n	n	n/a
104.511	0.09	209022	keystroke_t	t	n/a
104.616	0.105	209232	keystroke_Key.space	Key.space	n/a
104.766	0.105	209532	keystroke_Key.enter	Key.enter	n/a
104.878	9.6855	209756	prompt	n/a	locations momentum voyeurweb acres\n
105.6955	0.075	211391	keystroke_l	l	n/a
105.861	0.075	211722	keystroke_o	o	n/a
105.9805	0.1505	211961	keystroke_c	c	n/a
106.146	0.135	212292	keystroke_a	a	n/a
106.326	0.105	212652	keystroke_t	t	n/a
106.416	0.195	212832	keystroke_i	i	n/a
106.476	0.165	212952	keystroke_o	o	n/a
106.581	0.135	213162	keystroke_n	n	n/a
106.671	0.105	213342	keystroke_s	s	n/a
106.761	0.18	213522	keystroke_Key.space	Key.space	n/a
106.881	0.135	213762	keystroke_m	m	n/a
106.986	0.135	213972	keystroke_o	o	n/a
107.136	0.1645	214272	keystroke_m	m	n/a
107.3905	0.135	214781	keystroke_e	e	n/a
107.5265	0.104	215053	keystroke_n	n	n/a
107.7655	0.075	215531	keystroke_t	t	n/a
107.9605	0.075	215921	keystroke_u	u	n/a
108.2305	0.18	216461	keystroke_m	m	n/a
108.3655	0.12	216731	keystroke_Key.space	Key.space	n/a
108.8005	0.135	217601	keystroke_v	v	n/a
109.1005	0.09	218201	keystroke_o	o	n/a
109.4155	0.105	218831	keystroke_y	y	n/a
109.626	0.1345	219252	keystroke_e	e	n/a
110.2255	0.105	220451	keystroke_u	u	n/a
110.4215	0.089	220843	keystroke_r	r	n/a
110.7055	0.166	221411	keystroke_w	w	n/a
110.8555	0.121	221711	keystroke_e	e	n/a
111.1255	0.076	222251	keystroke_b	b	n/a
111.2605	0.12	222521	keystroke_Key.space	Key.space	n/a
111.4415	0.119	222883	keystroke_a	a	n/a
111.6965	0.134	223393	keystroke_c	c	n/a
112.2505	0.1505	224501	keystroke_r	r	n/a
112.385	0.15	224770	keystroke_e	e	n/a
112.64	0.106	225280	keystroke_s	s	n/a
114.411	0.15	228822	keystroke_Key.enter	Key.enter	n/a
114.5685	5.1245	229137	prompt	n/a	surprised tiny hawk commons\n
115.296	0.135	230592	keystroke_s	s	n/a
115.461	0.12	230922	keystroke_u	u	n/a
115.611	0.09	231222	keystroke_r	r	n/a
115.731	0.105	231462	keystroke_p	p	n/a
115.911	0.105	231822	keystroke_r	r	n/a
116.001	0.09	232002	keystroke_i	i	n/a
116.316	0.105	232632	keystroke_s	s	n/a
116.481	0.075	232962	keystroke_e	e	n/a
116.661	0.105	233322	keystroke_d	d	n/a
116.781	0.075	233562	keystroke_Key.space	Key.space	n/a
117.006	0.09	234012	keystroke_t	t	n/a
117.081	0.075	234162	keystroke_i	i	n/a
117.246	0.09	234492	keystroke_n	n	n/a
117.501	0.135	235002	keystroke_y	y	n/a
117.606	0.105	235212	keystroke_Key.space	Key.space	n/a
117.756	0.09	235512	keystroke_h	h	n/a
117.861	0.12	235722	keystroke_a	a	n/a
118.086	0.075	236172	keystroke_w	w	n/a
118.236	0.135	236472	keystroke_k	k	n/a
118.416	0.12	236832	keystroke_Key.space	Key.space	n/a
118.611	0.135	237222	keystroke_c	c	n/a
118.686	0.09	237372	keystroke_o	o	n/a
118.881	0.075	237762	keystroke_m	m	n/a
119.016	0.105	238032	keystroke_m	m	n/a
119.166	0.15	238332	keystroke_o	o	n/a
119.286	0.09	238572	keystroke_n	n	n/a
119.451	0.105	238902	keystroke_s	s	n/a
119.616	0.075	239232	keystroke_Key.enter	Key.enter	n/a
119.699	5.424	239398	prompt	n/a	tiger firewall delete what'll\n
120.411	0.09	240822	keystroke_t	t	n/a
120.502	0.089	241004	keystroke_i	i	n/a
120.666	0.12	241332	keystroke_g	g	n/a
120.771	0.21	241542	keystroke_e	e	n/a
120.906	0.12	241812	keystroke_r	r	n/a
121.041	0.075	242082	keystroke_Key.space	Key.space	n/a
121.191	0.105	242382	keystroke_f	f	n/a
121.281	0.075	242562	keystroke_i	i	n/a
121.401	0.12	242802	keystroke_r	r	n/a
121.491	0.165	242982	keystroke_e	e	n/a
121.746	0.105	243492	keystroke_w	w	n/a
121.971	0.15	243942	keystroke_a	a	n/a
122.106	0.075	244212	keystroke_l	l	n/a
122.241	0.165	244482	keystroke_l	l	n/a
122.361	0.135	244722	keystroke_Key.space	Key.space	n/a
122.511	0.09	245022	keystroke_d	d	n/a
122.691	0.09	245382	keystroke_e	e	n/a
122.826	0.09	245652	keystroke_l	l	n/a
122.946	0.135	245892	keystroke_e	e	n/a
123.171	0.075	246342	keystroke_t	t	n/a
123.276	0.12	246552	keystroke_e	e	n/a
123.411	0.105	246822	keystroke_Key.space	Key.space	n/a
123.546	0.12	247092	keystroke_w	w	n/a
123.681	0.09	247362	keystroke_h	h	n/a
123.831	0.18	247662	keystroke_a	a	n/a
124.041	0.09	248082	keystroke_t	t	n/a
124.192	0.119	248384	keystroke_'	'	n/a
124.566	0.075	249132	keystroke_l	l	n/a
124.686	0.105	249372	keystroke_l	l	n/a
124.866	0.105	249732	keystroke_Key.space	Key.space	n/a
125.031	0.09	250062	keystroke_Key.enter	Key.enter	n/a
125.1285	8.1695	250257	prompt	n/a	importantly tanzania swimming gate\n
125.811	0.09	251622	keystroke_i	i	n/a
125.991	0.105	251982	keystroke_m	m	n/a
126.651	0.09	253302	keystroke_p	p	n/a
126.816	0.12	253632	keystroke_o	o	n/a
126.981	0.09	253962	keystroke_r	r	n/a
127.191	0.075	254382	keystroke_t	t	n/a
127.371	0.105	254742	keystroke_a	a	n/a
127.491	0.09	254982	keystroke_n	n	n/a
127.746	0.075	255492	keystroke_t	t	n/a
127.881	0.12	255762	keystroke_l	l	n/a
128.196	0.09	256392	keystroke_y	y	n/a
128.271	0.135	256542	keystroke_Key.space	Key.space	n/a
128.526	0.09	257052	keystroke_t	t	n/a
128.691	0.12	257382	keystroke_a	a	n/a
128.826	0.075	257652	keystroke_n	n	n/a
129.036	0.105	258072	keystroke_z	z	n/a
129.276	0.12	258552	keystroke_a	a	n/a
129.411	0.075	258822	keystroke_n	n	n/a
129.606	0.075	259212	keystroke_i	i	n/a
129.786	0.135	259572	keystroke_a	a	n/a
129.936	0.075	259872	keystroke_Key.space	Key.space	n/a
130.311	0.12	260622	keystroke_s	s	n/a
130.626	0.075	261252	keystroke_w	w	n/a
130.716	0.09	261432	keystroke_i	i	n/a
130.971	0.075	261942	keystroke_n	n	n/a
131.331	0.09	262662	keystroke_Key.backspace	Key.backspace	n/a
131.6	0.046	263200	keystroke_m	m	n/a
131.721	0.075	263442	keystroke_m	m	n/a
131.871	0.105	263742	keystroke_i	i	n/a
132.021	0.06	264042	keystroke_n	n	n/a
132.111	0.09	264222	keystroke_g	g	n/a
132.246	0.075	264492	keystroke_Key.space	Key.space	n/a
132.381	0.09	264762	keystroke_g	g	n/a
132.546	0.165	265092	keystroke_a	a	n/a
132.771	0.15	265542	keystroke_t	t	n/a
132.906	0.105	265812	keystroke_e	e	n/a
133.026	0.105	266052	keystroke_Key.space	Key.space	n/a
133.206	0.09	266412	keystroke_Key.enter	Key.enter	n/a
133.3025	5.65	266605	prompt	n/a	todd tampa singer greetings\n
134.031	0.075	268062	keystroke_t	t	n/a
134.121	0.09	268242	keystroke_o	o	n/a
134.436	0.09	268872	keystroke_d	d	n/a
134.736	0.09	269472	keystroke_Key.space	Key.space	n/a
135.201	0.03	270402	keystroke_Key.backspace	Key.backspace	n/a
135.276	0.15	270552	keystroke_d	d	n/a
135.38	0.106	270760	keystroke_Key.space	Key.space	n/a
135.606	0.09	271212	keystroke_t	t	n/a
135.786	0.135	271572	keystroke_a	a	n/a
135.891	0.105	271782	keystroke_m	m	n/a
136.071	0.09	272142	keystroke_p	p	n/a
136.251	0.105	272502	keystroke_a	a	n/a
136.371	0.075	272742	keystroke_Key.space	Key.space	n/a
136.506	0.15	273012	keystroke_s	s	n/a
136.626	0.045	273252	keystroke_i	i	n/a
136.761	0.09	273522	keystroke_n	n	n/a
136.881	0.105	273762	keystroke_g	g	n/a
137.001	0.21	274002	keystroke_e	e	n/a
137.121	0.105	274242	keystroke_r	r	n/a
137.211	0.089	274422	keystroke_Key.space	Key.space	n/a
137.376	0.075	274752	keystroke_g	g	n/a
137.54	0.061	275080	keystroke_r	r	n/a
137.706	0.075	275412	keystroke_e	e	n/a
137.855	0.121	275710	keystroke_e	e	n/a
138.051	0.075	276102	keystroke_t	t	n/a
138.156	0.135	276312	keystroke_i	i	n/a
138.246	0.149	276492	keystroke_n	n	n/a
138.411	0.09	276822	keystroke_g	g	n/a
138.591	0.105	277182	keystroke_s	s	n/a
138.697	0.104	277394	keystroke_Key.space	Key.space	n/a
138.891	0.059	277782	keystroke_Key.enter	Key.enter	n/a
138.958	9.1155	277916	prompt	n/a	anatomy apartments replica southwest\n
139.6255	0.105	279251	keystroke_a	a	n/a
139.8205	0.09	279641	keystroke_n	n	n/a
140.0905	0.18	280181	keystroke_a	a	n/a
140.4655	0.075	280931	keystroke_t	t	n/a
140.5705	0.075	281141	keystroke_o	o	n/a
140.7655	0.105	281531	keystroke_m	m	n/a
141.066	0.12	282132	keystroke_y	y	n/a
141.156	0.135	282312	keystroke_Key.space	Key.space	n/a
141.306	0.12	282612	keystroke_a	a	n/a
141.516	0.075	283032	keystroke_p	p	n/a
141.651	0.195	283302	keystroke_a	a	n/a
141.816	0.09	283632	keystroke_r	r	n/a
141.981	0.09	283962	keystroke_t	t	n/a
142.086	0.09	284172	keystroke_m	m	n/a
142.221	0.1505	284442	keystroke_e	e	n/a
142.326	0.0895	284652	keystroke_n	n	n/a
142.4455	0.091	284891	keystroke_t	t	n/a
142.6415	0.134	285283	keystroke_s	s	n/a
142.7605	0.075	285521	keystroke_Key.space	Key.space	n/a
142.9255	0.135	285851	keystroke_r	r	n/a
143.0305	0.15	286061	keystroke_e	e	n/a
143.2105	0.0605	286421	keystroke_p	p	n/a
143.361	0.104	286722	keystroke_l	l	n/a
143.57	0.091	287140	keystroke_c	c	n/a
144.2	0.075	288400	keystroke_Key.backspace	Key.backspace	n/a
144.4105	0.0295	288821	keystroke_Key.backspace	Key.backspace	n/a
144.891	0.09	289782	keystroke_l	l	n/a
145.041	0.0895	290082	keystroke_i	i	n/a
145.1905	0.15	290381	keystroke_c	c	n/a
145.3555	0.165	290711	keystroke_a	a	n/a
145.5355	0.075	291071	keystroke_Key.space	Key.space	n/a
145.8955	0.195	291791	keystroke_s	s	n/a
146.0155	0.165	292031	keystroke_o	o	n/a
146.1205	0.135	292241	keystroke_u	u	n/a
146.4205	0.09	292841	keystroke_t	t	n/a
146.5255	0.06	293051	keystroke_h	h	n/a
147.1255	0.165	294251	keystroke_w	w	n/a
147.2155	0.225	294431	keystroke_e	e	n/a
147.4255	0.21	294851	keystroke_s	s	n/a
147.6505	0.12	295301	keystroke_t	t	n/a
147.7855	0.105	295571	keystroke_Key.space	Key.space	n/a
147.9805	0.09	295961	keystroke_Key.enter	Key.enter	n/a
148.082	11.0455	296164	prompt	n/a	quantities psychological pump generated\n
148.7755	0.105	297551	keystroke_q	q	n/a
148.9405	0.09	297881	keystroke_u	u	n/a
149.1055	0.165	298211	keystroke_a	a	n/a
149.2555	0.09	298511	keystroke_n	n	n/a
149.5555	0.06	299111	keystroke_t	t	n/a
149.6305	0.06	299261	keystroke_i	i	n/a
149.7955	0.075	299591	keystroke_t	t	n/a
149.8855	0.06	299771	keystroke_i	i	n/a
149.9905	0.09	299981	keystroke_e	e	n/a
150.1555	0.12	300311	keystroke_s	s	n/a
150.3205	0.075	300641	keystroke_Key.space	Key.space	n/a
150.8005	0.135	301601	keystroke_p	p	n/a
150.9655	0.15	301931	keystroke_s	s	n/a
151.1005	0.06	302201	keystroke_y	y	n/a
151.1305	0.03	302261	keystroke_u	u	n/a
151.2355	0.12	302471	keystroke_c	c	n/a
151.3405	0.06	302681	keystroke_h	h	n/a
151.4905	0.105	302981	keystroke_o	o	n/a
151.7455	0.06	303491	keystroke_l	l	n/a
151.9255	0.075	303851	keystroke_o	o	n/a
152.2405	0.075	304481	keystroke_Key.backspace	Key.backspace	n/a
152.3905	0.075	304781	keystroke_Key.backspace	Key.backspace	n/a
152.5405	0.075	305081	keystroke_Key.backspace	Key.backspace	n/a
152.6905	0.06	305381	keystroke_Key.backspace	Key.backspace	n/a
152.8405	0.075	305681	keystroke_Key.backspace	Key.backspace	n/a
153.0055	0.09	306011	keystroke_Key.backspace	Key.backspace	n/a
153.2915	0.104	306583	keystroke_s	s	n/a
154.6705	0.075	309341	keystroke_Key.backspace	Key.backspace	n/a
154.8215	0.149	309643	keystroke_c	c	n/a
154.9555	0.075	309911	keystroke_h	h	n/a
155.0755	0.105	310151	keystroke_o	o	n/a
155.2705	0.06	310541	keystroke_l	l	n/a
155.4205	0.075	310841	keystroke_o	o	n/a
155.6305	0.09	311261	keystroke_g	g	n/a
155.7055	0.075	311411	keystroke_i	i	n/a
155.885	0.1355	311770	keystroke_c	c	n/a
156.0055	0.15	312011	keystroke_a	a	n/a
156.1705	0.135	312341	keystroke_l	l	n/a
156.2755	0.12	312551	keystroke_Key.space	Key.space	n/a
156.4405	0.12	312881	keystroke_p	p	n/a
156.6205	0.06	313241	keystroke_u	u	n/a
156.8305	0.105	313661	keystroke_m	m	n/a
156.9955	0.105	313991	keystroke_p	p	n/a
157.1455	0.09	314291	keystroke_Key.space	Key.space	n/a
157.5805	0.09	315161	keystroke_g	g	n/a
157.7155	0.105	315431	keystroke_e	e	n/a
157.8505	0.075	315701	keystroke_n	n	n/a
158.0155	0.151	316031	keystroke_e	e	n/a
158.1055	0.15	316211	keystroke_r	r	n/a
158.316	0.15	316632	keystroke_a	a	n/a
158.481	0.105	316962	keystroke_t	t	n/a
158.571	0.12	317142	keystroke_e	e	n/a
158.796	0.105	317592	keystroke_d	d	n/a
158.886	0.105	317772	keystroke_Key.space	Key.space	n/a
159.051	0.075	318102	keystroke_Key.enter	Key.enter	n/a
159.1315	5.666	318263	prompt	n/a	maximize nepal roger wayne\n
159.816	0.105	319632	keystroke_m	m	n/a
159.951	0.09	319902	keystroke_a	a	n/a
160.4605	0.105	320921	keystroke_x	x	n/a
160.5355	0.075	321071	keystroke_i	i	n/a
160.775	0.105	321550	keystroke_m	m	n/a
160.925	0.075	321850	keystroke_i	i	n/a
161.1955	0.105	322391	keystroke_z	z	n/a
161.3605	0.105	322721	keystroke_e	e	n/a
161.5255	0.075	323051	keystroke_Key.space	Key.space	n/a
161.6905	0.106	323381	keystroke_n	n	n/a
161.8105	0.12	323621	keystroke_e	e	n/a
162.3215	0.104	324643	keystroke_p	p	n/a
162.5005	0.12	325001	keystroke_a	a	n/a
162.6505	0.196	325301	keystroke_l	l	n/a
162.8005	0.105	325601	keystroke_Key.space	Key.space	n/a
162.9805	0.105	325961	keystroke_r	r	n/a
163.0705	0.09	326141	keystroke_o	o	n/a
163.2505	0.105	326501	keystroke_g	g	n/a
163.3705	0.21	326741	keystroke_e	e	n/a
163.4755	0.165	326951	keystroke_r	r	n/a
163.6255	0.105	327251	keystroke_Key.space	Key.space	n/a
163.7755	0.105	327551	keystroke_w	w	n/a
163.9705	0.165	327941	keystroke_a	a	n/a
164.1205	0.075	328241	keystroke_y	y	n/a
164.3155	0.09	328631	keystroke_n	n	n/a
164.4355	0.12	328871	keystroke_e	e	n/a
164.5705	0.105	329141	keystroke_Key.space	Key.space	n/a
164.7205	0.075	329441	keystroke_Key.enter	Key.enter	n/a
164.8015	9.3905	329603	prompt	n/a	outcome metals illustration exceptional\n
165.7715	0.164	331543	keystroke_o	o	n/a
165.9055	0.12	331811	keystroke_u	u	n/a
166.0705	0.076	332141	keystroke_t	t	n/a
166.3405	0.12	332681	keystroke_c	c	n/a
166.4755	0.18	332951	keystroke_o	o	n/a
166.5505	0.165	333101	keystroke_m	m	n/a
166.7305	0.09	333461	keystroke_e	e	n/a
166.8505	0.09	333701	keystroke_Key.space	Key.space	n/a
167.0455	0.105	334091	keystroke_m	m	n/a
167.1655	0.121	334331	keystroke_e	e	n/a
167.3915	0.089	334783	keystroke_t	t	n/a
167.5855	0.12	335171	keystroke_a	a	n/a
167.6905	0.076	335381	keystroke_l	l	n/a
167.8255	0.105	335651	keystroke_s	s	n/a
167.9155	0.12	335831	keystroke_Key.space	Key.space	n/a
168.0055	0.09	336011	keystroke_i	i	n/a
168.23	0.0755	336460	keystroke_l	l	n/a
168.3655	0.12	336731	keystroke_l	l	n/a
168.5455	0.09	337091	keystroke_u	u	n/a
168.6955	0.12	337391	keystroke_s	s	n/a
168.9055	0.06	337811	keystroke_t	t	n/a
169.0555	0.09	338111	keystroke_r	r	n/a
169.2505	0.075	338501	keystroke_a	a	n/a
169.8055	0.12	339611	keystroke_t	t	n/a
169.9105	0.36	339821	keystroke_i	i	n/a
170.0155	0.24	340031	keystroke_o	o	n/a
170.1355	0.195	340271	keystroke_n	n	n/a
170.2855	0.135	340571	keystroke_Key.space	Key.space	n/a
170.8855	0.09	341771	keystroke_e	e	n/a
171.3655	0.075	342731	keystroke_c	c	n/a
171.935	0.1055	343870	keystroke_Key.backspace	Key.backspace	n/a
172.1615	0.135	344323	keystroke_x	x	n/a
172.567	0.1205	345134	keystroke_c	c	n/a
172.8065	0.106	345613	keystroke_e	e	n/a
172.943	0.075	345886	keystroke_p	p	n/a
173.152	0.091	346304	keystroke_t	t	n/a
173.2575	0.255	346515	keystroke_i	i	n/a
173.3625	0.195	346725	keystroke_o	o	n/a
173.4525	0.1505	346905	keystroke_n	n	n/a
173.678	0.121	347356	keystroke_a	a	n/a
173.753	0.1515	347506	keystroke_l	l	n/a
173.9185	0.09	347837	keystroke_Key.space	Key.space	n/a
174.1285	0.06	348257	keystroke_Key.enter	Key.enter	n/a
174.196	9.43	348392	prompt	n/a	gently especially puzzles asia\n
174.896	0.075	349792	keystroke_g	g	n/a
175	0.151	350000	keystroke_e	e	n/a
175.121	0.0895	350242	keystroke_n	n	n/a
175.4965	0.1045	350993	keystroke_l	l	n/a
175.736	0.1365	351472	keystroke_y	y	n/a
175.8265	0.135	351653	keystroke_Key.space	Key.space	n/a
175.9775	0.09	351955	keystroke_e	e	n/a
176.143	0.135	352286	keystroke_s	s	n/a
176.263	0.074	352526	keystroke_p	p	n/a
176.7125	0.0605	353425	keystroke_Key.backspace	Key.backspace	n/a
176.893	0.045	353786	keystroke_Key.backspace	Key.backspace	n/a
177.043	0.0305	354086	keystroke_Key.backspace	Key.backspace	n/a
177.1785	0.06	354357	keystroke_Key.backspace	Key.backspace	n/a
177.2985	0.0755	354597	keystroke_Key.backspace	Key.backspace	n/a
177.449	0.09	354898	keystroke_Key.backspace	Key.backspace	n/a
177.689	0.0905	355378	keystroke_t	t	n/a
177.8995	0.0905	355799	keystroke_l	l	n/a
178.231	0.1355	356462	keystroke_y	y	n/a
178.335	0.1505	356670	keystroke_Key.space	Key.space	n/a
178.5015	0.089	357003	keystroke_e	e	n/a
178.6655	0.1505	357331	keystroke_s	s	n/a
178.787	0.104	357574	keystroke_p	p	n/a
178.906	0.0755	357812	keystroke_e	e	n/a
179.0865	0.105	358173	keystroke_c	c	n/a
179.2065	0.091	358413	keystroke_i	i	n/a
179.373	0.134	358746	keystroke_a	a	n/a
179.478	0.075	358956	keystroke_l	l	n/a
179.6285	0.1045	359257	keystroke_l	l	n/a
179.823	0.1505	359646	keystroke_y	y	n/a
179.9285	0.12	359857	keystroke_Key.space	Key.space	n/a
180.079	0.134	360158	keystroke_p	p	n/a
180.229	0.09	360458	keystroke_u	u	n/a
180.4395	0.27	360879	keystroke_z	z	n/a
180.7245	0.0905	361449	keystroke_l	l	n/a
181.7905	0.09	363581	keystroke_Key.backspace	Key.backspace	n/a
181.987	0.15	363974	keystroke_z	z	n/a
182.166	0.1065	364332	keystroke_l	l	n/a
182.3165	0.091	364633	keystroke_e	e	n/a
182.4665	0.1055	364933	keystroke_s	s	n/a
182.602	0.09	365204	keystroke_Key.space	Key.space	n/a
182.858	0.0895	365716	keystroke_a	a	n/a
183.0685	0.074	366137	keystroke_s	s	n/a
183.1585	0.0755	366317	keystroke_i	i	n/a
183.278	0.135	366556	keystroke_a	a	n/a
183.383	0.076	366766	keystroke_Key.space	Key.space	n/a
183.5485	0.075	367097	keystroke_Key.enter	Key.enter	n/a
183.6305	5.4505	367261	prompt	n/a	rooms subject zones longer\n
184.2555	0.075	368511	keystroke_r	r	n/a
184.3895	0.06	368779	keystroke_o	o	n/a
184.5245	0.0765	369049	keystroke_o	o	n/a
184.676	0.105	369352	keystroke_m	m	n/a
184.811	0.0895	369622	keystroke_s	s	n/a
184.9165	0.075	369833	keystroke_Key.space	Key.space	n/a
185.382	0.105	370764	keystroke_s	s	n/a
185.487	0.0895	370974	keystroke_u	u	n/a
185.6815	0.076	371363	keystroke_b	b	n/a
186.042	0.091	372084	keystroke_j	j	n/a
186.1925	0.09	372385	keystroke_e	e	n/a
186.3875	0.105	372775	keystroke_c	c	n/a
186.598	0.075	373196	keystroke_t	t	n/a
186.703	0.075	373406	keystroke_Key.space	Key.space	n/a
186.9145	0.105	373829	keystroke_z	z	n/a
187.0485	0.075	374097	keystroke_o	o	n/a
187.26	0.06	374520	keystroke_n	n	n/a
187.365	0.075	374730	keystroke_e	e	n/a
187.53	0.105	375060	keystroke_s	s	n/a
187.665	0.075	375330	keystroke_Key.space	Key.space	n/a
187.83	0.0305	375660	keystroke_l	l	n/a
187.9805	0.06	375961	keystroke_o	o	n/a
188.356	0.06	376712	keystroke_n	n	n/a
188.476	0.09	376952	keystroke_g	g	n/a
188.596	0.1805	377192	keystroke_e	e	n/a
188.6865	0.165	377373	keystroke_r	r	n/a
188.8215	0.09	377643	keystroke_Key.space	Key.space	n/a
188.987	0.09	377974	keystroke_Key.enter	Key.enter	n/a
189.0865	5.235	378173	prompt	n/a	dallas fist student fuel\n
189.708	0.12	379416	keystroke_d	d	n/a
190.068	0.1055	380136	keystroke_a	a	n/a
190.2485	0.075	380497	keystroke_l	l	n/a
190.3835	0.0905	380767	keystroke_l	l	n/a
190.504	0.135	381008	keystroke_a	a	n/a
190.624	0.1355	381248	keystroke_s	s	n/a
190.7745	0.075	381549	keystroke_Key.space	Key.space	n/a
190.9695	0.12	381939	keystroke_f	f	n/a
191.0745	0.046	382149	keystroke_i	i	n/a
191.1645	0.1505	382329	keystroke_s	s	n/a
191.39	0.0905	382780	keystroke_t	t	n/a
191.4955	0.105	382991	keystroke_Key.space	Key.space	n/a
192.082	0.12	384164	keystroke_s	s	n/a
192.276	0.1055	384552	keystroke_t	t	n/a
192.3965	0.0765	384793	keystroke_u	u	n/a
192.547	0.09	385094	keystroke_d	d	n/a
192.727	0.135	385454	keystroke_e	e	n/a
192.863	0.0605	385726	keystroke_n	n	n/a
192.9975	0.076	385995	keystroke_t	t	n/a
193.0875	0.0905	386175	keystroke_Key.space	Key.space	n/a
193.268	0.105	386536	keystroke_f	f	n/a
193.388	0.0755	386776	keystroke_u	u	n/a
193.5535	0.075	387107	keystroke_e	e	n/a
193.6435	0.18	387287	keystroke_l	l	n/a
193.7785	0.09	387557	keystroke_Key.space	Key.space	n/a
194.2295	0.09	388459	keystroke_Key.enter	Key.enter	n/a
194.326	6.9355	388652	prompt	n/a	lambda reaction knowing strategic\n
195.161	0.09	390322	keystroke_l	l	n/a
195.311	0.1205	390622	keystroke_a	a	n/a
195.5065	0.105	391013	keystroke_m	m	n/a
195.882	0.09	391764	keystroke_b	b	n/a
196.1825	0.105	392365	keystroke_d	d	n/a
196.3775	0.1205	392755	keystroke_a	a	n/a
196.558	0.075	393116	keystroke_Key.space	Key.space	n/a
196.8135	0.105	393627	keystroke_r	r	n/a
196.8735	0.15	393747	keystroke_e	e	n/a
197.099	0.12	394198	keystroke_a	a	n/a
197.294	0.12	394588	keystroke_c	c	n/a
197.5495	0.12	395099	keystroke_t	t	n/a
197.6845	0.3155	395369	keystroke_i	i	n/a
197.775	0.226	395550	keystroke_o	o	n/a
197.865	0.195	395730	keystroke_n	n	n/a
198.015	0.1205	396030	keystroke_Key.space	Key.space	n/a
198.3005	0.105	396601	keystroke_k	k	n/a
198.4655	0.1055	396931	keystroke_n	n	n/a
198.586	0.09	397172	keystroke_o	o	n/a
198.706	0.1055	397412	keystroke_w	w	n/a
198.796	0.0755	397592	keystroke_i	i	n/a
198.9315	0.075	397863	keystroke_n	n	n/a
199.0965	0.0905	398193	keystroke_g	g	n/a
199.188	0.059	398376	keystroke_Key.space	Key.space	n/a
199.307	0.135	398614	keystroke_s	s	n/a
199.562	0.06	399124	keystroke_t	t	n/a
199.7125	0.105	399425	keystroke_r	r	n/a
199.9075	0.1505	399815	keystroke_a	a	n/a
200.163	0.1055	400326	keystroke_t	t	n/a
200.2835	0.165	400567	keystroke_e	e	n/a
200.6285	0.045	401257	keystroke_g	g	n/a
200.6885	0.0755	401377	keystroke_i	i	n/a
200.899	0.075	401798	keystroke_c	c	n/a
201.004	0.0755	402008	keystroke_Key.space	Key.space	n/a
201.1845	0.075	402369	keystroke_Key.enter	Key.enter	n/a
201.2655	5.358	402531	prompt	n/a	commentary criteria at surname\n
201.9505	0.12	403901	keystroke_c	c	n/a
202.0405	0.105	404081	keystroke_o	o	n/a
202.2505	0.0755	404501	keystroke_m	m	n/a
202.402	0.074	404804	keystroke_m	m	n/a
202.506	0.1655	405012	keystroke_e	e	n/a
202.641	0.1055	405282	keystroke_n	n	n/a
202.7765	0.09	405553	keystroke_t	t	n/a
202.9565	0.1655	405913	keystroke_a	a	n/a
203.107	0.12	406214	keystroke_r	r	n/a
203.257	0.1055	406514	keystroke_y	y	n/a
203.3325	0.12	406665	keystroke_Key.space	Key.space	n/a
203.4825	0.105	406965	keystroke_c	c	n/a
203.6775	0.09	407355	keystroke_r	r	n/a
203.7825	0.0755	407565	keystroke_i	i	n/a
203.933	0.09	407866	keystroke_t	t	n/a
204.053	0.1805	408106	keystroke_e	e	n/a
204.1585	0.1505	408317	keystroke_r	r	n/a
204.324	0.075	408648	keystroke_i	i	n/a
204.504	0.105	409008	keystroke_a	a	n/a
204.624	0.075	409248	keystroke_Key.space	Key.space	n/a
204.8195	0.15	409639	keystroke_a	a	n/a
205.0445	0.105	410089	keystroke_t	t	n/a
205.1795	0.0905	410359	keystroke_Key.space	Key.space	n/a
205.345	0.09	410690	keystroke_s	s	n/a
205.465	0.09	410930	keystroke_u	u	n/a
205.6155	0.09	411231	keystroke_r	r	n/a
205.8405	0.09	411681	keystroke_n	n	n/a
206.0505	0.12	412101	keystroke_a	a	n/a
206.1555	0.075	412311	keystroke_m	m	n/a
206.2755	0.0755	412551	keystroke_e	e	n/a
206.396	0.09	412792	keystroke_Key.space	Key.space	n/a
206.546	0.075	413092	keystroke_Key.enter	Key.enter	n/a
206.629	5.3555	413258	prompt	n/a	simpsons correct flat sofa\n
207.252	0.091	414504	keystroke_s	s	n/a
207.4475	0.09	414895	keystroke_i	i	n/a
207.6575	0.105	415315	keystroke_m	m	n/a
207.8525	0.0915	415705	keystroke_p	p	n/a
208.048	0.15	416096	keystroke_s	s	n/a
208.213	0.1355	416426	keystroke_o	o	n/a
208.288	0.1505	416576	keystroke_n	n	n/a
208.4685	0.12	416937	keystroke_s	s	n/a
208.5735	0.105	417147	keystroke_Key.space	Key.space	n/a
208.724	0.15	417448	keystroke_c	c	n/a
208.829	0.09	417658	keystroke_o	o	n/a
208.9795	0.075	417959	keystroke_r	r	n/a
209.1295	0.105	418259	keystroke_r	r	n/a
209.2645	0.105	418529	keystroke_e	e	n/a
209.49	0.105	418980	keystroke_c	c	n/a
209.715	0.06	419430	keystroke_t	t	n/a
209.82	0.09	419640	keystroke_Key.space	Key.space	n/a
209.97	0.1055	419940	keystroke_f	f	n/a
210.0605	0.09	420121	keystroke_l	l	n/a
210.2255	0.135	420451	keystroke_a	a	n/a
210.467	0.089	420934	keystroke_t	t	n/a
210.586	0.075	421172	keystroke_Key.space	Key.space	n/a
210.7365	0.12	421473	keystroke_s	s	n/a
210.8415	0.09	421683	keystroke_o	o	n/a
211.0215	0.0905	422043	keystroke_f	f	n/a
211.322	0.12	422644	keystroke_a	a	n/a
211.6075	0.06	423215	keystroke_t	t	n/a
211.6975	0.09	423395	keystroke_Key.space	Key.space	n/a
211.9075	0.0755	423815	keystroke_Key.enter	Key.enter	n/a
211.9885	6.769	423977	prompt	n/a	awards sudden discussions oils\n
213.3195	0.12	426639	keystroke_a	a	n/a
213.5445	0.0905	427089	keystroke_w	w	n/a
213.755	0.1805	427510	keystroke_a	a	n/a
213.9505	0.105	427901	keystroke_r	r	n/a
214.297	0.014	428594	keystroke_d	d	n/a
214.326	0.12	428652	keystroke_s	s	n/a
214.491	0.075	428982	keystroke_Key.space	Key.space	n/a
214.611	0.1055	429222	keystroke_s	s	n/a
215.1665	0.0905	430333	keystroke_u	u	n/a
215.362	0.09	430724	keystroke_d	d	n/a
215.497	0.105	430994	keystroke_d	d	n/a
215.692	0.1065	431384	keystroke_e	e	n/a
215.8125	0.225	431625	keystroke_n	n	n/a
216.0075	0.105	432015	keystroke_Key.space	Key.space	n/a
216.248	0.09	432496	keystroke_d	d	n/a
216.353	0.09	432706	keystroke_i	i	n/a
216.503	0.09	433006	keystroke_s	s	n/a
216.7135	0.12	433427	keystroke_c	c	n/a
216.8185	0.09	433637	keystroke_u	u	n/a
216.9685	0.0615	433937	keystroke_s	s	n/a
217.104	0.075	434208	keystroke_s	s	n/a
217.224	0.2855	434448	keystroke_i	i	n/a
217.3295	0.195	434659	keystroke_o	o	n/a
217.4495	0.12	434899	keystroke_n	n	n/a
217.5855	0.134	435171	keystroke_s	s	n/a
217.6895	0.1055	435379	keystroke_Key.space	Key.space	n/a
217.885	0.12	435770	keystroke_o	o	n/a
218.05	0.0895	436100	keystroke_i	i	n/a
218.2155	0.1055	436431	keystroke_l	l	n/a
218.396	0.1495	436792	keystroke_s	s	n/a
218.5305	0.075	437061	keystroke_Key.space	Key.space	n/a
218.6655	0.0905	437331	keystroke_Key.enter	Key.enter	n/a
218.7635	7.0035	437527	prompt	n/a	rare lancaster everything investing\n
219.597	0.105	439194	keystroke_r	r	n/a
219.777	0.1955	439554	keystroke_a	a	n/a
219.9425	0.135	439885	keystroke_r	r	n/a
220.0325	0.165	440065	keystroke_e	e	n/a
220.1825	0.0905	440365	keystroke_Key.space	Key.space	n/a
220.348	0.09	440696	keystroke_l	l	n/a
220.528	0.075	441056	keystroke_a	a	n/a
220.633	0.045	441266	keystroke_n	n	n/a
220.9485	0.15	441897	keystroke_c	c	n/a
221.1135	0.15	442227	keystroke_a	a	n/a
221.2785	0.15	442557	keystroke_s	s	n/a
221.6535	0.0905	443307	keystroke_t	t	n/a
221.774	0.21	443548	keystroke_e	e	n/a
221.894	0.12	443788	keystroke_r	r	n/a
222.044	0.105	444088	keystroke_Key.space	Key.space	n/a
222.4645	0.105	444929	keystroke_e	e	n/a
222.6745	0.12	445349	keystroke_v	v	n/a
222.8395	0.18	445679	keystroke_e	e	n/a
222.9595	0.135	445919	keystroke_r	r	n/a
223.1245	0.09	446249	keystroke_y	y	n/a
223.3045	0.09	446609	keystroke_t	t	n/a
223.4095	0.09	446819	keystroke_h	h	n/a
223.5595	0.165	447119	keystroke_i	i	n/a
223.6795	0.15	447359	keystroke_n	n	n/a
223.8445	0.09	447689	keystroke_g	g	n/a
223.9495	0.0895	447899	keystroke_Key.space	Key.space	n/a
224.144	0.06	448288	keystroke_i	i	n/a
224.3095	0.09	448619	keystroke_n	n	n/a
224.4445	0.1055	448889	keystroke_v	v	n/a
224.579	0.12	449158	keystroke_e	e	n/a
224.789	0.12	449578	keystroke_s	s	n/a
224.984	0.105	449968	keystroke_t	t	n/a
225.074	0.165	450148	keystroke_i	i	n/a
225.194	0.105	450388	keystroke_n	n	n/a
225.389	0.105	450778	keystroke_g	g	n/a
225.509	0.045	451018	keystroke_Key.space	Key.space	n/a
225.659	0.105	451318	keystroke_Key.enter	Key.enter	n/a
225.7745	9.783	451549	prompt	n/a	excellent bibliography possibly bestsellers\n
226.6035	0.105	453207	keystroke_e	e	n/a
226.8585	0.1205	453717	keystroke_x	x	n/a
227.0985	0.09	454197	keystroke_c	c	n/a
227.2935	0.105	454587	keystroke_e	e	n/a
227.4285	0.075	454857	keystroke_l	l	n/a
227.5635	0.075	455127	keystroke_l	l	n/a
227.7135	0.09	455427	keystroke_i	i	n/a
227.8635	0.09	455727	keystroke_n	n	n/a
227.9685	0.075	455937	keystroke_g	g	n/a
228.0885	0.075	456177	keystroke_Key.space	Key.space	n/a
228.2235	0.09	456447	keystroke_b	b	n/a
228.3285	0.09	456657	keystroke_i	i	n/a
228.6735	0.09	457347	keystroke_b	b	n/a
229.0335	0.135	458067	keystroke_l	l	n/a
229.1985	0.075	458397	keystroke_i	i	n/a
229.3335	0.09	458667	keystroke_o	o	n/a
229.648	0.06	459296	keystroke_g	g	n/a
229.828	0.075	459656	keystroke_r	r	n/a
230.473	0.105	460946	keystroke_a	a	n/a
230.6525	0.105	461305	keystroke_p	p	n/a
230.8475	0.09	461695	keystroke_h	h	n/a
231.0725	0.15	462145	keystroke_y	y	n/a
231.1925	0.12	462385	keystroke_Key.space	Key.space	n/a
231.4175	0.09	462835	keystroke_p	p	n/a
231.5675	0.09	463135	keystroke_o	o	n/a
231.6875	0.075	463375	keystroke_s	s	n/a
231.8375	0.105	463675	keystroke_s	s	n/a
231.9875	0.105	463975	keystroke_i	i	n/a
232.3025	0.09	464605	keystroke_b	b	n/a
232.4225	0.12	464845	keystroke_l	l	n/a
232.6925	0.1045	465385	keystroke_y	y	n/a
232.782	0.12	465564	keystroke_Key.space	Key.space	n/a
233.097	0.09	466194	keystroke_b	b	n/a
233.232	0.135	466464	keystroke_e	e	n/a
233.382	0.15	466764	keystroke_s	s	n/a
233.607	0.075	467214	keystroke_t	t	n/a
234.2515	0.09	468503	keystroke_s	s	n/a
234.4165	0.105	468833	keystroke_e	e	n/a
234.6565	0.06	469313	keystroke_l	l	n/a
234.806	0.09	469612	keystroke_l	l	n/a
234.911	0.15	469822	keystroke_e	e	n/a
235.001	0.105	470002	keystroke_r	r	n/a
235.196	0.09	470392	keystroke_s	s	n/a
235.331	0.075	470662	keystroke_Key.space	Key.space	n/a
235.466	0.09	470932	keystroke_Key.enter	Key.enter	n/a
235.5615	5.9645	471123	prompt	n/a	tray wonderful fisheries monster\n
236.291	0.075	472582	keystroke_t	t	n/a
236.471	0.09	472942	keystroke_r	r	n/a
236.8005	0.075	473601	keystroke_a	a	n/a
236.9055	0.165	473811	keystroke_y	y	n/a
237.0555	0.12	474111	keystroke_Key.space	Key.space	n/a
237.2505	0.1045	474501	keystroke_w	w	n/a
237.34	0.075	474680	keystroke_o	o	n/a
237.4905	0.075	474981	keystroke_n	n	n/a
237.6105	0.091	475221	keystroke_d	d	n/a
237.7755	0.1945	475551	keystroke_e	e	n/a
237.91	0.105	475820	keystroke_r	r	n/a
238.15	0.105	476300	keystroke_f	f	n/a
238.27	0.09	476540	keystroke_u	u	n/a
238.435	0.195	476870	keystroke_l	l	n/a
238.585	0.105	477170	keystroke_Key.space	Key.space	n/a
238.735	0.1045	477470	keystroke_f	f	n/a
238.81	0.0745	477620	keystroke_i	i	n/a
238.9755	0.104	477951	keystroke_s	s	n/a
239.0945	0.075	478189	keystroke_h	h	n/a
239.2145	0.195	478429	keystroke_e	e	n/a
239.3345	0.091	478669	keystroke_r	r	n/a
239.4695	0.075	478939	keystroke_i	i	n/a
239.5755	0.119	479151	keystroke_e	e	n/a
239.7545	0.1345	479509	keystroke_s	s	n/a
239.904	0.045	479808	keystroke_Key.space	Key.space	n/a
240.129	0.075	480258	keystroke_m	m	n/a
240.3995	0.09	480799	keystroke_o	o	n/a
240.5945	0.046	481189	keystroke_n	n	n/a
240.7455	0.119	481491	keystroke_s	s	n/a
240.954	0.09	481908	keystroke_t	t	n/a
241.059	0.195	482118	keystroke_e	e	n/a
241.194	0.135	482388	keystroke_r	r	n/a
241.344	0.105	482688	keystroke_Key.space	Key.space	n/a
241.434	0.09	482868	keystroke_Key.enter	Key.enter	n/a
241.53	9.878	483060	prompt	n/a	mozilla solutions chevy passing\n
242.214	0.15	484428	keystroke_m	m	n/a
242.394	0.0895	484788	keystroke_o	o	n/a
242.814	0.1045	485628	keystroke_z	z	n/a
242.9335	0.075	485867	keystroke_i	i	n/a
243.1295	0.059	486259	keystroke_l	l	n/a
243.2185	0.12	486437	keystroke_l	l	n/a
243.4585	0.0595	486917	keystroke_l	l	n/a
243.9385	0.0745	487877	keystroke_Key.backspace	Key.backspace	n/a
244.119	0.119	488238	keystroke_a	a	n/a
244.253	0.06	488506	keystroke_Key.space	Key.space	n/a
245.093	0.12	490186	keystroke_c	c	n/a
245.228	0.075	490456	keystroke_o	o	n/a
245.424	0.1035	490848	keystroke_l	l	n/a
245.6475	0.09	491295	keystroke_u	u	n/a
245.8875	0.106	491775	keystroke_s	s	n/a
246.7725	0.09	493545	keystroke_Key.backspace	Key.backspace	n/a
246.9375	0.075	493875	keystroke_Key.backspace	Key.backspace	n/a
247.0875	0.075	494175	keystroke_Key.backspace	Key.backspace	n/a
247.2225	0.06	494445	keystroke_Key.backspace	Key.backspace	n/a
247.3875	0.075	494775	keystroke_Key.backspace	Key.backspace	n/a
247.568	0.119	495136	keystroke_s	s	n/a
247.673	0.089	495346	keystroke_o	o	n/a
247.852	0.1055	495704	keystroke_l	l	n/a
248.0325	0.075	496065	keystroke_u	u	n/a
248.2125	0.09	496425	keystroke_t	t	n/a
248.3025	0.27	496605	keystroke_i	i	n/a
248.4075	0.18	496815	keystroke_o	o	n/a
248.4975	0.15	496995	keystroke_n	n	n/a
248.6625	0.105	497325	keystroke_s	s	n/a
248.7525	0.09	497505	keystroke_Key.space	Key.space	n/a
248.9025	0.105	497805	keystroke_c	c	n/a
249.292	0.105	498584	keystroke_h	h	n/a
249.472	0.09	498944	keystroke_e	e	n/a
249.862	0.09	499724	keystroke_v	v	n/a
249.997	0.135	499994	keystroke_y	y	n/a
250.087	0.105	500174	keystroke_Key.space	Key.space	n/a
250.2515	0.09	500503	keystroke_p	p	n/a
250.3865	0.12	500773	keystroke_a	a	n/a
250.5665	0.075	501133	keystroke_s	s	n/a
250.7315	0.135	501463	keystroke_s	s	n/a
250.8365	0.165	501673	keystroke_i	i	n/a
250.9415	0.135	501883	keystroke_n	n	n/a
251.0615	0.075	502123	keystroke_g	g	n/a
251.1665	0.105	502333	keystroke_Key.space	Key.space	n/a
251.3165	0.089	502633	keystroke_Key.enter	Key.enter	n/a
251.412	6.084	502824	prompt	n/a	teaches portfolio yoga lauren\n
252.126	0.075	504252	keystroke_t	t	n/a
252.261	0.15	504522	keystroke_e	e	n/a
252.425	0.121	504850	keystroke_a	a	n/a
252.636	0.12	505272	keystroke_c	c	n/a
252.741	0.09	505482	keystroke_h	h	n/a
252.846	0.09	505692	keystroke_e	e	n/a
252.981	0.15	505962	keystroke_s	s	n/a
253.146	0.09	506292	keystroke_Key.space	Key.space	n/a
253.3115	0.0745	506623	keystroke_p	p	n/a
253.4765	0.09	506953	keystroke_o	o	n/a
253.5815	0.09	507163	keystroke_r	r	n/a
253.7915	0.075	507583	keystroke_t	t	n/a
254.0765	0.09	508153	keystroke_f	f	n/a
254.1815	0.06	508363	keystroke_o	o	n/a
254.436	0.105	508872	keystroke_l	l	n/a
254.616	0.06	509232	keystroke_i	i	n/a
254.811	0.0745	509622	keystroke_o	o	n/a
254.9755	0.12	509951	keystroke_Key.space	Key.space	n/a
255.291	0.0895	510582	keystroke_y	y	n/a
255.4255	0.105	510851	keystroke_o	o	n/a
255.6955	0.075	511391	keystroke_g	g	n/a
255.86	0.15	511720	keystroke_a	a	n/a
256.025	0.104	512050	keystroke_Key.space	Key.space	n/a
256.145	0.09	512290	keystroke_l	l	n/a
256.28	0.165	512560	keystroke_a	a	n/a
256.49	0.06	512980	keystroke_u	u	n/a
256.64	0.105	513280	keystroke_r	r	n/a
256.73	0.1495	513460	keystroke_e	e	n/a
256.9095	0.165	513819	keystroke_n	n	n/a
257.0445	0.09	514089	keystroke_Key.space	Key.space	n/a
257.4195	0.075	514839	keystroke_Key.enter	Key.enter	n/a
257.501	8.8265	515002	prompt	n/a	influences incl statements activists\n
259.054	0.075	518108	keystroke_i	i	n/a
259.219	0.09	518438	keystroke_n	n	n/a
259.3835	0.105	518767	keystroke_f	f	n/a
259.4585	0.105	518917	keystroke_l	l	n/a
259.6835	0.075	519367	keystroke_u	u	n/a
259.8785	0.1045	519757	keystroke_e	e	n/a
259.998	0.105	519996	keystroke_n	n	n/a
260.148	0.1355	520296	keystroke_c	c	n/a
260.718	0.09	521436	keystroke_e	e	n/a
260.898	0.165	521796	keystroke_s	s	n/a
261.078	0.045	522156	keystroke_Key.space	Key.space	n/a
261.243	0.075	522486	keystroke_i	i	n/a
261.453	0.075	522906	keystroke_n	n	n/a
261.708	0.1355	523416	keystroke_c	c	n/a
261.8725	0.1195	523745	keystroke_l	l	n/a
262.127	0.0905	524254	keystroke_Key.space	Key.space	n/a
262.337	0.12	524674	keystroke_s	s	n/a
262.547	0.09	525094	keystroke_t	t	n/a
262.697	0.21	525394	keystroke_a	a	n/a
262.862	0.1045	525724	keystroke_t	t	n/a
262.9675	0.134	525935	keystroke_e	e	n/a
263.1465	0.091	526293	keystroke_m	m	n/a
263.2815	0.1805	526563	keystroke_e	e	n/a
263.4175	0.0735	526835	keystroke_n	n	n/a
263.537	0.104	527074	keystroke_t	t	n/a
263.746	0.105	527492	keystroke_s	s	n/a
263.911	0.06	527822	keystroke_Key.space	Key.space	n/a
264.421	0.12	528842	keystroke_a	a	n/a
264.601	0.12	529202	keystroke_c	c	n/a
264.856	0.075	529712	keystroke_t	t	n/a
264.946	0.075	529892	keystroke_i	i	n/a
265.126	0.105	530252	keystroke_v	v	n/a
265.246	0.06	530492	keystroke_i	i	n/a
265.366	0.1205	530732	keystroke_s	s	n/a
265.6365	0.089	531273	keystroke_t	t	n/a
265.8605	0.12	531721	keystroke_s	s	n/a
266.25	0.075	532500	keystroke_Key.enter	Key.enter	n/a
266.3315	6.0705	532663	prompt	n/a	income extreme bath real\n
266.97	0.075	533940	keystroke_i	i	n/a
267.165	0.045	534330	keystroke_n	n	n/a
267.2705	0.105	534541	keystroke_c	c	n/a
267.3455	0.15	534691	keystroke_o	o	n/a
267.4655	0.105	534931	keystroke_m	m	n/a
267.6005	0.105	535201	keystroke_e	e	n/a
267.7355	0.045	535471	keystroke_Key.space	Key.space	n/a
267.9005	0.09	535801	keystroke_e	e	n/a
268.5455	0.121	537091	keystroke_x	x	n/a
268.8905	0.075	537781	keystroke_t	t	n/a
269.0405	0.09	538081	keystroke_r	r	n/a
269.2365	0.119	538473	keystroke_e	e	n/a
269.3565	0.089	538713	keystroke_m	m	n/a
269.5055	0.135	539011	keystroke_e	e	n/a
270.3755	0.09	540751	keystroke_Key.space	Key.space	n/a
270.66	0.106	541320	keystroke_b	b	n/a
270.84	0.105	541680	keystroke_a	a	n/a
271.125	0.075	542250	keystroke_t	t	n/a
271.245	0.135	542490	keystroke_h	h	n/a
271.335	0.15	542670	keystroke_Key.space	Key.space	n/a
271.53	0.1045	543060	keystroke_r	r	n/a
271.5895	0.24	543179	keystroke_e	e	n/a
271.8145	0.105	543629	keystroke_a	a	n/a
271.9495	0.1945	543899	keystroke_l	l	n/a
272.129	0.12	544258	keystroke_Key.space	Key.space	n/a
272.339	0.06	544678	keystroke_Key.enter	Key.enter	n/a
272.4075	10.1905	544815	prompt	n/a	payroll competitors intensity yukon\n
273.24	0.089	546480	keystroke_p	p	n/a
273.449	0.12	546898	keystroke_a	a	n/a
273.6295	0.104	547259	keystroke_y	y	n/a
273.8685	0.105	547737	keystroke_r	r	n/a
273.9595	0.104	547919	keystroke_o	o	n/a
274.183	0.27	548366	keystroke_l	l	n/a
274.603	0.15	549206	keystroke_l	l	n/a
275.128	0.09	550256	keystroke_Key.space	Key.space	n/a
275.338	0.15	550676	keystroke_c	c	n/a
275.414	0.224	550828	keystroke_o	o	n/a
275.563	0.166	551126	keystroke_m	m	n/a
276.058	0.105	552116	keystroke_p	p	n/a
276.283	0.12	552566	keystroke_e	e	n/a
276.643	0.105	553286	keystroke_t	t	n/a
276.7785	0.089	553557	keystroke_i	i	n/a
277.1385	0.09	554277	keystroke_t	t	n/a
277.2285	0.075	554457	keystroke_o	o	n/a
277.3935	0.075	554787	keystroke_r	r	n/a
277.723	0.105	555446	keystroke_s	s	n/a
277.858	0.0895	555716	keystroke_Key.space	Key.space	n/a
278.098	0.09	556196	keystroke_i	i	n/a
278.308	0.0895	556616	keystroke_n	n	n/a
278.892	0.045	557784	keystroke_s	s	n/a
279.357	0.076	558714	keystroke_Key.backspace	Key.backspace	n/a
279.553	0.0745	559106	keystroke_t	t	n/a
279.6875	0.1345	559375	keystroke_e	e	n/a
279.807	0.09	559614	keystroke_n	n	n/a
279.987	0.105	559974	keystroke_s	s	n/a
280.077	0.06	560154	keystroke_i	i	n/a
280.408	0.074	560816	keystroke_t	t	n/a
280.497	0.15	560994	keystroke_y	y	n/a
280.632	0.12	561264	keystroke_Key.space	Key.space	n/a
280.887	0.09	561774	keystroke_y	y	n/a
281.097	0.105	562194	keystroke_u	u	n/a
281.5765	0.105	563153	keystroke_k	k	n/a
281.7865	0.0595	563573	keystroke_o	o	n/a
282.2215	0.0895	564443	keystroke_n	n	n/a
282.506	0.09	565012	keystroke_Key.enter	Key.enter	n/a
282.603	5.3185	565206	prompt	n/a	nathan install month biology\n
283.241	0.09	566482	keystroke_n	n	n/a
283.361	0.105	566722	keystroke_a	a	n/a
283.601	0.12	567202	keystroke_t	t	n/a
283.706	0.06	567412	keystroke_h	h	n/a
283.856	0.09	567712	keystroke_a	a	n/a
283.916	0.165	567832	keystroke_n	n	n/a
284.066	0.15	568132	keystroke_Key.space	Key.space	n/a
284.186	0.225	568372	keystroke_i	i	n/a
284.366	0.105	568732	keystroke_n	n	n/a
284.501	0.18	569002	keystroke_s	s	n/a
284.711	0.105	569422	keystroke_t	t	n/a
284.891	0.165	569782	keystroke_a	a	n/a
284.996	0.09	569992	keystroke_l	l	n/a
285.161	0.12	570322	keystroke_l	l	n/a
285.266	0.165	570532	keystroke_Key.space	Key.space	n/a
285.371	0.1645	570742	keystroke_m	m	n/a
285.4905	0.165	570981	keystroke_o	o	n/a
285.6405	0.09	571281	keystroke_n	n	n/a
285.8655	0.075	571731	keystroke_t	t	n/a
285.9555	0.12	571911	keystroke_h	h	n/a
286.0765	0.119	572153	keystroke_Key.space	Key.space	n/a
286.2705	0.09	572541	keystroke_b	b	n/a
286.5705	0.105	573141	keystroke_i	i	n/a
286.765	0.075	573530	keystroke_o	o	n/a
286.96	0.06	573920	keystroke_l	l	n/a
287.125	0.106	574250	keystroke_o	o	n/a
287.365	0.075	574730	keystroke_g	g	n/a
287.485	0.165	574970	keystroke_y	y	n/a
287.605	0.135	575210	keystroke_Key.space	Key.space	n/a
287.845	0.075	575690	keystroke_Key.enter	Key.enter	n/a
287.9275	5.333	575855	prompt	n/a	monte poster player tank\n
288.55	0.1495	577100	keystroke_m	m	n/a
288.7595	0.105	577519	keystroke_o	o	n/a
288.8945	0.075	577789	keystroke_n	n	n/a
289.0895	0.12	578179	keystroke_t	t	n/a
289.2245	0.15	578449	keystroke_e	e	n/a
289.3895	0.105	578779	keystroke_Key.space	Key.space	n/a
289.5555	0.0585	579111	keystroke_p	p	n/a
289.674	0.105	579348	keystroke_o	o	n/a
289.809	0.105	579618	keystroke_s	s	n/a
290.02	0.0885	580040	keystroke_t	t	n/a
290.1095	0.209	580219	keystroke_e	e	n/a
290.2295	0.12	580459	keystroke_r	r	n/a
290.3335	0.15	580667	keystroke_Key.space	Key.space	n/a
290.4385	0.091	580877	keystroke_p	p	n/a
290.6945	0.06	581389	keystroke_l	l	n/a
290.7985	0.15	581597	keystroke_a	a	n/a
290.9645	0.075	581929	keystroke_y	y	n/a
291.0985	0.195	582197	keystroke_e	e	n/a
291.2185	0.106	582437	keystroke_r	r	n/a
291.3095	0.104	582619	keystroke_Key.space	Key.space	n/a
291.4745	0.105	582949	keystroke_t	t	n/a
291.6695	0.149	583339	keystroke_a	a	n/a
291.8045	0.059	583609	keystroke_n	n	n/a
291.954	0.075	583908	keystroke_t	t	n/a
292.5985	0.076	585197	keystroke_Key.backspace	Key.backspace	n/a
292.809	0.12	585618	keystroke_k	k	n/a
293.1235	0.015	586247	keystroke_Key.space	Key.space	n/a
293.1535	0.105	586307	keystroke_Key.enter	Key.enter	n/a
293.2655	7.1035	586531	prompt	n/a	walt score incident assessed\n
293.978	0.075	587956	keystroke_w	w	n/a
294.1435	0.1495	588287	keystroke_a	a	n/a
294.263	0.105	588526	keystroke_l	l	n/a
294.593	0.105	589186	keystroke_t	t	n/a
294.773	0.075	589546	keystroke_Key.space	Key.space	n/a
295.043	0.105	590086	keystroke_s	s	n/a
295.253	0.105	590506	keystroke_c	c	n/a
295.388	0.075	590776	keystroke_o	o	n/a
295.523	0.105	591046	keystroke_r	r	n/a
295.598	0.165	591196	keystroke_e	e	n/a
295.778	0.135	591556	keystroke_Key.space	Key.space	n/a
295.868	0.1045	591736	keystroke_i	i	n/a
296.0475	0.105	592095	keystroke_n	n	n/a
296.2275	0.12	592455	keystroke_c	c	n/a
296.3625	0.045	592725	keystroke_i	i	n/a
296.5425	0.09	593085	keystroke_c	c	n/a
297.082	0.09	594164	keystroke_Key.backspace	Key.backspace	n/a
297.262	0.135	594524	keystroke_d	d	n/a
298.222	0.135	596444	keystroke_e	e	n/a
298.328	0.104	596656	keystroke_n	n	n/a
298.492	0.105	596984	keystroke_t	t	n/a
298.612	0.1045	597224	keystroke_Key.space	Key.space	n/a
298.8365	0.12	597673	keystroke_a	a	n/a
299.0765	0.045	598153	keystroke_s	s	n/a
299.1965	0.075	598393	keystroke_s	s	n/a
299.3315	0.09	598663	keystroke_e	e	n/a
299.5415	0.06	599083	keystroke_s	s	n/a
299.677	0.105	599354	keystroke_s	s	n/a
299.827	0.075	599654	keystroke_e	e	n/a
300.007	0.1195	600014	keystroke_d	d	n/a
300.1415	0.09	600283	keystroke_Key.space	Key.space	n/a
300.2765	0.09	600553	keystroke_Key.enter	Key.enter	n/a
300.3755	4.6425	600751	prompt	n/a	sent tricks drug adverse\n
300.9815	0.09	601963	keystroke_s	s	n/a
301.1315	0.12	602263	keystroke_e	e	n/a
301.2525	0.074	602505	keystroke_n	n	n/a
301.4165	0.105	602833	keystroke_t	t	n/a
301.5365	0.09	603073	keystroke_Key.space	Key.space	n/a
301.7765	0.06	603553	keystroke_t	t	n/a
301.9115	0.1045	603823	keystroke_r	r	n/a
302.031	0.075	604062	keystroke_i	i	n/a
302.181	0.12	604362	keystroke_c	c	n/a
302.286	0.09	604572	keystroke_k	k	n/a
302.421	0.12	604842	keystroke_s	s	n/a
302.556	0.06	605112	keystroke_Key.space	Key.space	n/a
302.796	0.135	605592	keystroke_d	d	n/a
303.0515	0.09	606103	keystroke_r	r	n/a
303.1715	0.09	606343	keystroke_u	u	n/a
303.366	0.09	606732	keystroke_g	g	n/a
303.485	0.091	606970	keystroke_Key.space	Key.space	n/a
303.681	0.09	607362	keystroke_a	a	n/a
303.846	0.09	607692	keystroke_d	d	n/a
304.041	0.09	608082	keystroke_v	v	n/a
304.191	0.1645	608382	keystroke_e	e	n/a
304.266	0.1345	608532	keystroke_r	r	n/a
304.4905	0.12	608981	keystroke_s	s	n/a
304.5955	0.105	609191	keystroke_e	e	n/a
304.7605	0.105	609521	keystroke_Key.space	Key.space	n/a
304.9105	0.105	609821	keystroke_Key.enter	Key.enter	n/a
305.0365	6.8185	610073	prompt	n/a	alarm overnight ministries proceed\n
305.84	0.12	611680	keystroke_a	a	n/a
305.93	0.075	611860	keystroke_l	l	n/a
306.08	0.165	612160	keystroke_a	a	n/a
306.26	0.1495	612520	keystroke_r	r	n/a
306.3945	0.135	612789	keystroke_m	m	n/a
306.4995	0.15	612999	keystroke_Key.space	Key.space	n/a
306.6345	0.105	613269	keystroke_o	o	n/a
306.7695	0.1045	613539	keystroke_v	v	n/a
306.904	0.21	613808	keystroke_e	e	n/a
307.039	0.12	614078	keystroke_r	r	n/a
307.234	0.09	614468	keystroke_n	n	n/a
307.399	0.075	614798	keystroke_i	i	n/a
307.519	0.09	615038	keystroke_g	g	n/a
307.624	0.06	615248	keystroke_h	h	n/a
307.714	0.1045	615428	keystroke_t	t	n/a
307.8335	0.165	615667	keystroke_Key.space	Key.space	n/a
307.9685	0.105	615937	keystroke_i	i	n/a
308.1485	0.075	616297	keystroke_n	n	n/a
308.5235	0.06	617047	keystroke_Key.backspace	Key.backspace	n/a
308.6585	0.075	617317	keystroke_Key.backspace	Key.backspace	n/a
308.8685	0.105	617737	keystroke_m	m	n/a
309.0035	0.09	618007	keystroke_i	i	n/a
309.1835	0.06	618367	keystroke_n	n	n/a
309.2885	0.0755	618577	keystroke_i	i	n/a
309.454	0.12	618908	keystroke_s	s	n/a
309.664	0.075	619328	keystroke_t	t	n/a
309.799	0.105	619598	keystroke_r	r	n/a
309.919	0.075	619838	keystroke_i	i	n/a
310.009	0.135	620018	keystroke_e	e	n/a
310.204	0.12	620408	keystroke_s	s	n/a
310.339	0.1045	620678	keystroke_Key.space	Key.space	n/a
310.4735	0.075	620947	keystroke_p	p	n/a
310.6085	0.09	621217	keystroke_r	r	n/a
310.7135	0.105	621427	keystroke_o	o	n/a
310.8485	0.105	621697	keystroke_c	c	n/a
311.0285	0.075	622057	keystroke_e	e	n/a
311.2985	0.105	622597	keystroke_e	e	n/a
311.5685	0.105	623137	keystroke_d	d	n/a
311.7485	0.105	623497	keystroke_Key.enter	Key.enter	n/a
311.8595	5.53	623719	prompt	n/a	brazil searched vids minority\n
312.5735	0.075	625147	keystroke_b	b	n/a
312.7685	0.075	625537	keystroke_r	r	n/a
312.9335	0.09	625867	keystroke_a	a	n/a
313.173	0.075	626346	keystroke_z	z	n/a
313.323	0.06	626646	keystroke_i	i	n/a
313.473	0.165	626946	keystroke_l	l	n/a
313.608	0.105	627216	keystroke_Key.space	Key.space	n/a
313.758	0.075	627516	keystroke_s	s	n/a
313.908	0.195	627816	keystroke_e	e	n/a
314.058	0.255	628116	keystroke_a	a	n/a
314.268	0.12	628536	keystroke_r	r	n/a
314.538	0.09	629076	keystroke_c	c	n/a
314.643	0.09	629286	keystroke_h	h	n/a
314.763	0.09	629526	keystroke_e	e	n/a
314.943	0.105	629886	keystroke_d	d	n/a
315.063	0.0595	630126	keystroke_Key.space	Key.space	n/a
315.317	0.0305	630634	keystroke_v	v	n/a
315.3325	0.0445	630665	keystroke_i	i	n/a
315.5125	0.12	631025	keystroke_d	d	n/a
315.7075	0.12	631415	keystroke_s	s	n/a
315.8425	0.165	631685	keystroke_Key.space	Key.space	n/a
315.9625	0.15	631925	keystroke_m	m	n/a
316.0675	0.09	632135	keystroke_i	i	n/a
316.2325	0.12	632465	keystroke_n	n	n/a
316.3675	0.06	632735	keystroke_o	o	n/a
316.5925	0.075	633185	keystroke_r	r	n/a
316.6975	0.075	633395	keystroke_i	i	n/a
316.8475	0.09	633695	keystroke_t	t	n/a
316.9675	0.135	633935	keystroke_y	y	n/a
317.0725	0.105	634145	keystroke_Key.space	Key.space	n/a
317.3125	0.075	634625	keystroke_Key.enter	Key.enter	n/a
317.393	6.0545	634786	prompt	n/a	daily major courage transformation\n
318.182	0.165	636364	keystroke_d	d	n/a
318.317	0.195	636634	keystroke_a	a	n/a
318.422	0.075	636844	keystroke_i	i	n/a
318.572	0.1195	637144	keystroke_l	l	n/a
318.8115	0.105	637623	keystroke_y	y	n/a
318.9015	0.09	637803	keystroke_Key.space	Key.space	n/a
319.0515	0.1355	638103	keystroke_m	m	n/a
319.202	0.12	638404	keystroke_a	a	n/a
319.682	0.09	639364	keystroke_j	j	n/a
319.802	0.09	639604	keystroke_o	o	n/a
319.967	0.105	639934	keystroke_r	r	n/a
320.1015	0.105	640203	keystroke_Key.space	Key.space	n/a
320.282	0.1495	640564	keystroke_c	c	n/a
320.3565	0.15	640713	keystroke_o	o	n/a
320.4465	0.09	640893	keystroke_u	u	n/a
320.5965	0.0745	641193	keystroke_r	r	n/a
320.746	0.2105	641492	keystroke_a	a	n/a
320.8965	0.12	641793	keystroke_g	g	n/a
320.9865	0.165	641973	keystroke_e	e	n/a
321.1365	0.0895	642273	keystroke_Key.space	Key.space	n/a
321.346	0.06	642692	keystroke_t	t	n/a
321.496	0.09	642992	keystroke_r	r	n/a
321.631	0.165	643262	keystroke_a	a	n/a
321.781	0.075	643562	keystroke_n	n	n/a
321.901	0.1045	643802	keystroke_s	s	n/a
322.1255	0.09	644251	keystroke_f	f	n/a
322.2455	0.0755	644491	keystroke_o	o	n/a
322.322	0.074	644644	keystroke_r	r	n/a
322.441	0.09	644882	keystroke_m	m	n/a
322.591	0.18	645182	keystroke_a	a	n/a
322.7555	0.1205	645511	keystroke_t	t	n/a
322.936	0.2395	645872	keystroke_i	i	n/a
322.9655	0.195	645931	keystroke_o	o	n/a
323.0705	0.15	646141	keystroke_n	n	n/a
323.1905	0.105	646381	keystroke_Key.space	Key.space	n/a
323.3705	0.075	646741	keystroke_Key.enter	Key.enter	n/a
323.4525	8.2125	646905	prompt	n/a	colombia flashing tunisia divide\n
324.18	0.105	648360	keystroke_c	c	n/a
324.27	0.075	648540	keystroke_o	o	n/a
324.435	0.09	648870	keystroke_l	l	n/a
324.6	0.075	649200	keystroke_o	o	n/a
324.78	0.105	649560	keystroke_m	m	n/a
325.08	0.075	650160	keystroke_b	b	n/a
325.17	0.075	650340	keystroke_i	i	n/a
325.29	0.12	650580	keystroke_a	a	n/a
325.425	0.075	650850	keystroke_Key.space	Key.space	n/a
325.71	0.09	651420	keystroke_f	f	n/a
325.86	0.1645	651720	keystroke_a	a	n/a
326.895	0.0895	653790	keystroke_Key.backspace	Key.backspace	n/a
327.1495	0.135	654299	keystroke_l	l	n/a
327.3295	0.105	654659	keystroke_a	a	n/a
327.5095	0.106	655019	keystroke_s	s	n/a
327.6595	0.09	655319	keystroke_h	h	n/a
327.7945	0.1795	655589	keystroke_i	i	n/a
327.9445	0.1045	655889	keystroke_n	n	n/a
328.079	0.09	656158	keystroke_g	g	n/a
328.184	0.075	656368	keystroke_Key.space	Key.space	n/a
328.379	0.075	656758	keystroke_t	t	n/a
328.544	0.06	657088	keystroke_u	u	n/a
328.784	0.075	657568	keystroke_n	n	n/a
328.949	0.075	657898	keystroke_i	i	n/a
329.324	0.09	658648	keystroke_s	s	n/a
329.399	0.09	658798	keystroke_i	i	n/a
329.534	0.1195	659068	keystroke_a	a	n/a
329.6835	0.075	659367	keystroke_Key.space	Key.space	n/a
330.2985	0.06	660597	keystroke_d	d	n/a
330.5685	0.075	661137	keystroke_i	i	n/a
330.7485	0.09	661497	keystroke_v	v	n/a
330.8545	0.059	661709	keystroke_i	i	n/a
330.9735	0.0895	661947	keystroke_d	d	n/a
331.243	0.09	662486	keystroke_e	e	n/a
331.408	0.105	662816	keystroke_Key.space	Key.space	n/a
331.558	0.105	663116	keystroke_Key.enter	Key.enter	n/a
331.6695	6.4145	663339	prompt	n/a	wishing athletic locations girl\n
332.398	0.09	664796	keystroke_w	w	n/a
332.503	0.075	665006	keystroke_i	i	n/a
332.623	0.12	665246	keystroke_s	s	n/a
333.193	0.0745	666386	keystroke_h	h	n/a
333.3275	0.09	666655	keystroke_i	i	n/a
333.5675	0.06	667135	keystroke_n	n	n/a
333.7475	0.06	667495	keystroke_g	g	n/a
333.8375	0.09	667675	keystroke_Key.space	Key.space	n/a
334.213	0.105	668426	keystroke_a	a	n/a
334.438	0.09	668876	keystroke_t	t	n/a
334.558	0.03	669116	keystroke_h	h	n/a
334.663	0.0895	669326	keystroke_l	l	n/a
334.7975	0.15	669595	keystroke_e	e	n/a
335.0975	0.075	670195	keystroke_t	t	n/a
335.1875	0.09	670375	keystroke_i	i	n/a
335.3525	0.12	670705	keystroke_c	c	n/a
335.4575	0.09	670915	keystroke_Key.space	Key.space	n/a
335.6225	0.075	671245	keystroke_l	l	n/a
335.7725	0.09	671545	keystroke_o	o	n/a
335.8775	0.15	671755	keystroke_c	c	n/a
336.0425	0.15	672085	keystroke_a	a	n/a
336.2075	0.12	672415	keystroke_t	t	n/a
336.3285	0.3135	672657	keystroke_i	i	n/a
336.402	0.211	672804	keystroke_o	o	n/a
336.538	0.209	673076	keystroke_n	n	n/a
336.822	0.105	673644	keystroke_s	s	n/a
336.987	0.075	673974	keystroke_Key.space	Key.space	n/a
337.392	0.075	674784	keystroke_g	g	n/a
337.482	0.075	674964	keystroke_i	i	n/a
337.602	0.06	675204	keystroke_r	r	n/a
337.677	0.18	675354	keystroke_l	l	n/a
337.827	0.09	675654	keystroke_Key.space	Key.space	n/a
338.007	0.075	676014	keystroke_Key.enter	Key.enter	n/a
338.089	7.2845	676178	prompt	n/a	helicopter sorry estimates framing\n
338.772	0.09	677544	keystroke_h	h	n/a
338.9065	0.09	677813	keystroke_e	e	n/a
338.9815	0.09	677963	keystroke_l	l	n/a
339.1915	0.09	678383	keystroke_o	o	n/a
339.5665	0.045	679133	keystroke_Key.backspace	Key.backspace	n/a
339.7765	0.075	679553	keystroke_i	i	n/a
340.0765	0.12	680153	keystroke_c	c	n/a
340.1815	0.12	680363	keystroke_o	o	n/a
340.3615	0.105	680723	keystroke_p	p	n/a
340.6015	0.06	681203	keystroke_e	e	n/a
341.201	0.09	682402	keystroke_Key.backspace	Key.backspace	n/a
341.381	0.135	682762	keystroke_t	t	n/a
341.531	0.21	683062	keystroke_e	e	n/a
341.651	0.135	683302	keystroke_r	r	n/a
341.771	0.09	683542	keystroke_Key.space	Key.space	n/a
341.936	0.105	683872	keystroke_s	s	n/a
342.011	0.09	684022	keystroke_o	o	n/a
342.176	0.09	684352	keystroke_r	r	n/a
342.326	0.12	684652	keystroke_r	r	n/a
342.476	0.1195	684952	keystroke_y	y	n/a
342.5805	0.09	685161	keystroke_Key.space	Key.space	n/a
342.6555	0.09	685311	keystroke_e	e	n/a
342.8205	0.135	685641	keystroke_s	s	n/a
343.0605	0.075	686121	keystroke_t	t	n/a
343.1205	0.075	686241	keystroke_i	i	n/a
343.3005	0.09	686601	keystroke_m	m	n/a
343.4205	0.1945	686841	keystroke_a	a	n/a
343.585	0.135	687170	keystroke_t	t	n/a
343.705	0.15	687410	keystroke_e	e	n/a
343.87	0.12	687740	keystroke_s	s	n/a
344.005	0.09	688010	keystroke_Key.space	Key.space	n/a
344.155	0.075	688310	keystroke_f	f	n/a
344.32	0.09	688640	keystroke_r	r	n/a
344.485	0.135	688970	keystroke_a	a	n/a
344.605	0.075	689210	keystroke_m	m	n/a
344.77	0.0595	689540	keystroke_i	i	n/a
344.935	0.045	689870	keystroke_n	n	n/a
345.01	0.105	690020	keystroke_g	g	n/a
345.16	0.06	690320	keystroke_Key.space	Key.space	n/a
345.28	0.09	690560	keystroke_Key.enter	Key.enter	n/a
345.378	11.226	690756	prompt	n/a	villages questionnaire sweden versions\n
346.2695	0.09	692539	keystroke_v	v	n/a
346.389	0.075	692778	keystroke_i	i	n/a
346.629	0.06	693258	keystroke_l	l	n/a
346.749	0.075	693498	keystroke_l	l	n/a
346.884	0.165	693768	keystroke_a	a	n/a
347.034	0.12	694068	keystroke_g	g	n/a
347.124	0.15	694248	keystroke_e	e	n/a
347.289	0.135	694578	keystroke_s	s	n/a
347.439	0.06	694878	keystroke_Key.space	Key.space	n/a
347.634	0.105	695268	keystroke_q	q	n/a
347.754	0.075	695508	keystroke_u	u	n/a
347.904	0.09	695808	keystroke_e	e	n/a
348.909	0.105	697818	keystroke_s	s	n/a
349.209	0.105	698418	keystroke_t	t	n/a
349.299	0.3145	698598	keystroke_i	i	n/a
349.434	0.2095	698868	keystroke_o	o	n/a
349.539	0.15	699078	keystroke_n	n	n/a
349.8835	0.09	699767	keystroke_n	n	n/a
350.0935	0.135	700187	keystroke_a	a	n/a
350.2735	0.09	700547	keystroke_i	i	n/a
350.4235	0.09	700847	keystroke_r	r	n/a
350.7535	0.12	701507	keystroke_e	e	n/a
350.9335	0.075	701867	keystroke_Key.space	Key.space	n/a
351.2185	0.09	702437	keystroke_s	s	n/a
351.4135	0.12	702827	keystroke_w	w	n/a
351.6235	0.06	703247	keystroke_e	e	n/a
351.743	0.105	703486	keystroke_e	e	n/a
352.013	0.105	704026	keystroke_d	d	n/a
352.178	0.12	704356	keystroke_e	e	n/a
352.313	0.09	704626	keystroke_n	n	n/a
353.318	0.09	706636	keystroke_Key.backspace	Key.backspace	n/a
353.483	0.06	706966	keystroke_Key.backspace	Key.backspace	n/a
353.633	0.045	707266	keystroke_Key.backspace	Key.backspace	n/a
353.753	0.09	707506	keystroke_Key.backspace	Key.backspace	n/a
354.7575	0.0755	709515	keystroke_d	d	n/a
354.923	0.1045	709846	keystroke_e	e	n/a
355.0575	0.165	710115	keystroke_n	n	n/a
355.2075	0.12	710415	keystroke_Key.space	Key.space	n/a
355.3425	0.12	710685	keystroke_v	v	n/a
355.4925	0.195	710985	keystroke_e	e	n/a
355.6125	0.12	711225	keystroke_r	r	n/a
355.8375	0.12	711675	keystroke_s	s	n/a
355.9275	0.3	711855	keystroke_i	i	n/a
356.0775	0.151	712155	keystroke_o	o	n/a
356.1375	0.15	712275	keystroke_n	n	n/a
356.3175	0.105	712635	keystroke_s	s	n/a
356.4075	0.135	712815	keystroke_Key.space	Key.space	n/a
356.5275	0.075	713055	keystroke_Key.enter	Key.enter	n/a
356.611	7.6265	713222	prompt	n/a	crack stereo from shapes\n
357.382	0.135	714764	keystroke_c	c	n/a
357.622	0.09	715244	keystroke_r	r	n/a
357.787	0.1495	715574	keystroke_a	a	n/a
358.0115	0.09	716023	keystroke_c	c	n/a
358.1465	0.165	716293	keystroke_k	k	n/a
358.2815	0.135	716563	keystroke_Key.space	Key.space	n/a
358.4015	0.135	716803	keystroke_s	s	n/a
358.6265	0.09	717253	keystroke_t	t	n/a
358.8065	0.195	717613	keystroke_e	e	n/a
358.9715	0.135	717943	keystroke_r	r	n/a
359.5265	0.105	719053	keystroke_e	e	n/a
359.7365	0.0895	719473	keystroke_o	o	n/a
359.946	0.09	719892	keystroke_Key.space	Key.space	n/a
360.231	0.09	720462	keystroke_f	f	n/a
360.426	0.09	720852	keystroke_r	r	n/a
360.531	0.18	721062	keystroke_o	o	n/a
360.636	0.15	721272	keystroke_m	m	n/a
360.741	0.165	721482	keystroke_Key.space	Key.space	n/a
360.936	0.135	721872	keystroke_Key.shift	Key.shift	n/a
361.041	0.15	722082	keystroke_S	S	n/a
361.311	0.09	722622	keystroke_h	h	n/a
361.491	0.06	722982	keystroke_a	a	n/a
361.866	0.0595	723732	keystroke_Key.backspace	Key.backspace	n/a
362.0305	0.075	724061	keystroke_Key.backspace	Key.backspace	n/a
362.1955	0.03	724391	keystroke_Key.backspace	Key.backspace	n/a
362.3155	0.06	724631	keystroke_Key.backspace	Key.backspace	n/a
362.675	0.075	725350	keystroke_Key.space	Key.space	n/a
362.8265	0.1185	725653	keystroke_s	s	n/a
363.276	0.119	726552	keystroke_h	h	n/a
363.485	0.121	726970	keystroke_a	a	n/a
363.59	0.075	727180	keystroke_p	p	n/a
363.725	0.09	727450	keystroke_e	e	n/a
363.876	0.149	727752	keystroke_s	s	n/a
363.995	0.075	727990	keystroke_Key.space	Key.space	n/a
364.16	0.0755	728320	keystroke_Key.enter	Key.enter	n/a
364.242	11.904	728484	prompt	n/a	belt submitted chess visual\n
365.015	0.075	730030	keystroke_b	b	n/a
365.21	0.105	730420	keystroke_e	e	n/a
365.615	0.1495	731230	keystroke_l	l	n/a
365.8845	0.075	731769	keystroke_t	t	n/a
366.0345	0.09	732069	keystroke_Key.space	Key.space	n/a
366.3505	0.089	732701	keystroke_s	s	n/a
366.4695	0.075	732939	keystroke_u	u	n/a
366.7395	0.12	733479	keystroke_m	m	n/a
366.831	0.1035	733662	keystroke_i	i	n/a
367.0245	0.075	734049	keystroke_t	t	n/a
367.1445	0.09	734289	keystroke_t	t	n/a
367.3095	0.09	734619	keystroke_e	e	n/a
367.4895	0.12	734979	keystroke_d	d	n/a
367.5945	0.075	735189	keystroke_Key.space	Key.space	n/a
367.7595	0.136	735519	keystroke_c	c	n/a
367.8495	0.09	735699	keystroke_h	h	n/a
367.9995	0.076	735999	keystroke_e	e	n/a
368.1495	0.075	736299	keystroke_s	s	n/a
368.2995	0.106	736599	keystroke_s	s	n/a
368.3895	0.09	736779	keystroke_Key.space	Key.space	n/a
368.5845	0.075	737169	keystroke_v	v	n/a
368.6595	0.075	737319	keystroke_i	i	n/a
369.094	0.075	738188	keystroke_Key.backspace	Key.backspace	n/a
369.259	0.045	738518	keystroke_Key.backspace	Key.backspace	n/a
369.3935	0.06	738787	keystroke_Key.backspace	Key.backspace	n/a
369.5285	0.06	739057	keystroke_Key.backspace	Key.backspace	n/a
369.6785	0.045	739357	keystroke_Key.backspace	Key.backspace	n/a
369.8285	0.045	739657	keystroke_Key.backspace	Key.backspace	n/a
369.9785	0.06	739957	keystroke_Key.backspace	Key.backspace	n/a
370.1435	0.06	740287	keystroke_Key.backspace	Key.backspace	n/a
370.3085	0.045	740617	keystroke_Key.backspace	Key.backspace	n/a
370.458	0.06	740916	keystroke_Key.backspace	Key.backspace	n/a
370.623	0.06	741246	keystroke_Key.backspace	Key.backspace	n/a
370.788	0.045	741576	keystroke_Key.backspace	Key.backspace	n/a
370.953	0.03	741906	keystroke_Key.backspace	Key.backspace	n/a
371.088	0.075	742176	keystroke_Key.backspace	Key.backspace	n/a
371.253	0.075	742506	keystroke_Key.backspace	Key.backspace	n/a
371.554	0.089	743108	keystroke_b	b	n/a
371.703	0.105	743406	keystroke_m	m	n/a
371.898	0.061	743796	keystroke_i	i	n/a
372.078	0.06	744156	keystroke_t	t	n/a
372.198	0.1055	744396	keystroke_t	t	n/a
372.3335	0.09	744667	keystroke_e	e	n/a
372.544	0.09	745088	keystroke_d	d	n/a
372.649	0.06	745298	keystroke_Key.space	Key.space	n/a
372.9635	0.09	745927	keystroke_c	c	n/a
373.0685	0.075	746137	keystroke_h	h	n/a
373.1885	0.09	746377	keystroke_e	e	n/a
373.3685	0.075	746737	keystroke_l	l	n/a
373.5185	0.075	747037	keystroke_l	l	n/a
373.8785	0.06	747757	keystroke_Key.backspace	Key.backspace	n/a
374.0135	0.075	748027	keystroke_Key.backspace	Key.backspace	n/a
374.2385	0.09	748477	keystroke_s	s	n/a
374.3885	0.1195	748777	keystroke_s	s	n/a
374.553	0.105	749106	keystroke_Key.space	Key.space	n/a
374.913	0.105	749826	keystroke_v	v	n/a
375.003	0.075	750006	keystroke_i	i	n/a
375.318	0.105	750636	keystroke_s	s	n/a
375.438	0.09	750876	keystroke_u	u	n/a
375.618	0.1045	751236	keystroke_a	a	n/a
375.693	0.1345	751386	keystroke_l	l	n/a
375.8425	0.105	751685	keystroke_Key.space	Key.space	n/a
376.068	0.075	752136	keystroke_Key.enter	Key.enter	n/a
376.1505	5.199	752301	prompt	n/a	desk sitting lighting shame\n
376.8325	0.09	753665	keystroke_d	d	n/a
377.267	0.06	754534	keystroke_e	e	n/a
377.552	0.09	755104	keystroke_s	s	n/a
377.717	0.12	755434	keystroke_k	k	n/a
377.897	0.105	755794	keystroke_Key.space	Key.space	n/a
378.107	0.105	756214	keystroke_s	s	n/a
378.182	0.075	756364	keystroke_i	i	n/a
378.362	0.075	756724	keystroke_t	t	n/a
378.497	0.09	756994	keystroke_t	t	n/a
378.557	0.21	757114	keystroke_i	i	n/a
378.692	0.136	757384	keystroke_n	n	n/a
378.797	0.075	757594	keystroke_g	g	n/a
378.917	0.09	757834	keystroke_Key.space	Key.space	n/a
379.037	0.09	758074	keystroke_l	l	n/a
379.097	0.105	758194	keystroke_i	i	n/a
379.232	0.105	758464	keystroke_g	g	n/a
379.397	0.15	758794	keystroke_h	h	n/a
379.608	0.089	759216	keystroke_t	t	n/a
379.727	0.195	759454	keystroke_i	i	n/a
379.877	0.165	759754	keystroke_n	n	n/a
380.072	0.09	760144	keystroke_g	g	n/a
380.192	0.075	760384	keystroke_Key.space	Key.space	n/a
380.5665	0.075	761133	keystroke_s	s	n/a
380.6115	0.075	761223	keystroke_h	h	n/a
380.7915	0.12	761583	keystroke_a	a	n/a
380.8965	0.075	761793	keystroke_m	m	n/a
381.0025	0.105	762005	keystroke_e	e	n/a
381.1215	0.075	762243	keystroke_Key.space	Key.space	n/a
381.2865	0.06	762573	keystroke_Key.enter	Key.enter	n/a
381.3545	4.9885	762709	prompt	n/a	guatemala pins wash pens\n
382.1715	0.0605	764343	keystroke_g	g	n/a
382.622	0.09	765244	keystroke_u	u	n/a
382.7865	0.135	765573	keystroke_a	a	n/a
383.0265	0.09	766053	keystroke_t	t	n/a
383.1315	0.12	766263	keystroke_e	e	n/a
383.2215	0.12	766443	keystroke_m	m	n/a
383.4315	0.12	766863	keystroke_a	a	n/a
383.5365	0.09	767073	keystroke_l	l	n/a
383.6865	0.135	767373	keystroke_a	a	n/a
383.8065	0.09	767613	keystroke_Key.space	Key.space	n/a
384.031	0.0305	768062	keystroke_p	p	n/a
384.1665	0.0755	768333	keystroke_i	i	n/a
384.346	0.0765	768692	keystroke_n	n	n/a
384.4515	0.1195	768903	keystroke_s	s	n/a
384.572	0.074	769144	keystroke_Key.space	Key.space	n/a
384.721	0.075	769442	keystroke_w	w	n/a
384.886	0.135	769772	keystroke_a	a	n/a
384.991	0.15	769982	keystroke_s	s	n/a
385.216	0.18	770432	keystroke_h	h	n/a
385.366	0.12	770732	keystroke_Key.space	Key.space	n/a
385.636	0.075	771272	keystroke_p	p	n/a
385.771	0.105	771542	keystroke_e	e	n/a
385.906	0.075	771812	keystroke_n	n	n/a
386.011	0.165	772022	keystroke_s	s	n/a
386.131	0.09	772262	keystroke_Key.space	Key.space	n/a
386.281	0.06	772562	keystroke_Key.enter	Key.enter	n/a
386.3475	4.78	772695	prompt	n/a	rankings between corn hate\n
387.0905	0.105	774181	keystroke_r	r	n/a
387.2405	0.1345	774481	keystroke_a	a	n/a
387.36	0.075	774720	keystroke_n	n	n/a
387.526	0.059	775052	keystroke_k	k	n/a
387.676	0.074	775352	keystroke_i	i	n/a
387.796	0.105	775592	keystroke_n	n	n/a
387.916	0.0595	775832	keystroke_g	g	n/a
388.0355	0.135	776071	keystroke_s	s	n/a
388.1555	0.075	776311	keystroke_Key.space	Key.space	n/a
388.3055	0.09	776611	keystroke_b	b	n/a
388.4555	0.105	776911	keystroke_e	e	n/a
388.6795	0.091	777359	keystroke_t	t	n/a
388.8455	0.134	777691	keystroke_w	w	n/a
389.0555	0.075	778111	keystroke_e	e	n/a
389.1905	0.119	778381	keystroke_e	e	n/a
389.3555	0.15	778711	keystroke_n	n	n/a
389.4595	0.121	778919	keystroke_Key.space	Key.space	n/a
389.5955	0.12	779191	keystroke_c	c	n/a
389.6845	0.091	779369	keystroke_o	o	n/a
389.8205	0.105	779641	keystroke_r	r	n/a
389.9705	0.18	779941	keystroke_n	n	n/a
390.1045	0.121	780209	keystroke_Key.space	Key.space	n/a
390.3005	0.09	780601	keystroke_h	h	n/a
390.4205	0.21	780841	keystroke_a	a	n/a
390.6595	0.1205	781319	keystroke_t	t	n/a
390.75	0.15	781500	keystroke_e	e	n/a
390.87	0.105	781740	keystroke_Key.space	Key.space	n/a
391.035	0.09	782070	keystroke_Key.enter	Key.enter	n/a
391.1335	11.9755	782267	prompt	n/a	flux reno tremendous independence\n
391.8445	0.105	783689	keystroke_f	f	n/a
392.0095	0.12	784019	keystroke_l	l	n/a
392.2045	0.09	784409	keystroke_u	u	n/a
392.4595	0.1505	784919	keystroke_x	x	n/a
392.7445	0.075	785489	keystroke_Key.space	Key.space	n/a
393.0445	0.12	786089	keystroke_r	r	n/a
393.1345	0.12	786269	keystroke_e	e	n/a
393.3295	0.15	786659	keystroke_n	n	n/a
393.4645	0.09	786929	keystroke_o	o	n/a
393.659	0.075	787318	keystroke_Key.space	Key.space	n/a
393.869	0.105	787738	keystroke_t	t	n/a
393.989	0.165	787978	keystroke_e	e	n/a
394.139	0.075	788278	keystroke_r	r	n/a
394.484	0.12	788968	keystroke_m	m	n/a
394.679	0.105	789358	keystroke_e	e	n/a
394.799	0.075	789598	keystroke_n	n	n/a
394.979	0.105	789958	keystroke_d	d	n/a
395.099	0.2695	790198	keystroke_o	o	n/a
395.3385	0.12	790677	keystroke_u	u	n/a
395.5935	0.12	791187	keystroke_s	s	n/a
395.7285	0.09	791457	keystroke_Key.space	Key.space	n/a
397.1235	0.06	794247	keystroke_Key.backspace	Key.backspace	n/a
397.3185	0.045	794637	keystroke_Key.backspace	Key.backspace	n/a
397.4835	0.06	794967	keystroke_Key.backspace	Key.backspace	n/a
397.6185	0.075	795237	keystroke_Key.backspace	Key.backspace	n/a
397.7985	0.06	795597	keystroke_Key.backspace	Key.backspace	n/a
397.9335	0.075	795867	keystroke_Key.backspace	Key.backspace	n/a
398.0835	0.075	796167	keystroke_Key.backspace	Key.backspace	n/a
398.248	0.075	796496	keystroke_Key.backspace	Key.backspace	n/a
398.413	0.06	796826	keystroke_Key.backspace	Key.backspace	n/a
398.593	0.045	797186	keystroke_Key.backspace	Key.backspace	n/a
398.818	0.151	797636	keystroke_r	r	n/a
398.983	0.105	797966	keystroke_e	e	n/a
399.133	0.105	798266	keystroke_m	m	n/a
399.298	0.105	798596	keystroke_e	e	n/a
399.433	0.06	798866	keystroke_n	n	n/a
399.599	0.119	799198	keystroke_d	d	n/a
399.703	0.195	799406	keystroke_o	o	n/a
400.063	0.105	800126	keystroke_u	u	n/a
400.243	0.12	800486	keystroke_s	s	n/a
400.393	0.075	800786	keystroke_Key.space	Key.space	n/a
400.633	0.075	801266	keystroke_i	i	n/a
400.783	0.105	801566	keystroke_n	n	n/a
400.933	0.075	801866	keystroke_d	d	n/a
401.0975	0.105	802195	keystroke_e	e	n/a
401.2625	0.075	802525	keystroke_p	p	n/a
401.3825	0.105	802765	keystroke_e	e	n/a
401.4725	0.075	802945	keystroke_n	n	n/a
401.6225	0.105	803245	keystroke_d	d	n/a
401.8025	0.09	803605	keystroke_e	e	n/a
401.9525	0.105	803905	keystroke_n	n	n/a
402.523	0.09	805046	keystroke_c	c	n/a
402.703	0.135	805406	keystroke_e	e	n/a
402.853	0.09	805706	keystroke_Key.space	Key.space	n/a
403.018	0.089	806036	keystroke_Key.enter	Key.enter	n/a
403.1165	10.1605	806233	prompt	n/a	bangladesh mating zealand furthermore\n
403.9625	0.075	807925	keystroke_b	b	n/a
404.1425	0.075	808285	keystroke_l	l	n/a
404.6825	0.06	809365	keystroke_Key.backspace	Key.backspace	n/a
405.1475	0.12	810295	keystroke_a	a	n/a
405.2525	0.09	810505	keystroke_n	n	n/a
405.4775	0.075	810955	keystroke_g	g	n/a
405.5975	0.075	811195	keystroke_l	l	n/a
405.7775	0.105	811555	keystroke_a	a	n/a
405.9875	0.075	811975	keystroke_d	d	n/a
406.1825	0.09	812365	keystroke_e	e	n/a
407.1865	0.09	814373	keystroke_s	s	n/a
407.3515	0.1505	814703	keystroke_h	h	n/a
407.471	0.105	814942	keystroke_Key.space	Key.space	n/a
407.667	0.075	815334	keystroke_m	m	n/a
407.801	0.075	815602	keystroke_a	a	n/a
408.101	0.061	816202	keystroke_t	t	n/a
408.177	0.105	816354	keystroke_i	i	n/a
408.297	0.105	816594	keystroke_n	n	n/a
408.431	0.091	816862	keystroke_g	g	n/a
408.536	0.061	817072	keystroke_Key.space	Key.space	n/a
408.731	0.121	817462	keystroke_z	z	n/a
408.942	0.15	817884	keystroke_e	e	n/a
409.062	0.12	818124	keystroke_a	a	n/a
409.196	0.091	818392	keystroke_l	l	n/a
409.422	0.12	818844	keystroke_a	a	n/a
409.543	0.058	819086	keystroke_n	n	n/a
409.617	0.134	819234	keystroke_d	d	n/a
409.946	0.121	819892	keystroke_f	f	n/a
410.367	0.0895	820734	keystroke_Key.backspace	Key.backspace	n/a
410.5465	0.09	821093	keystroke_Key.space	Key.space	n/a
410.8015	0.1195	821603	keystroke_f	f	n/a
410.906	0.075	821812	keystroke_i	i	n/a
411.011	0.12	822022	keystroke_r	r	n/a
411.371	0.075	822742	keystroke_Key.backspace	Key.backspace	n/a
411.521	0.075	823042	keystroke_Key.backspace	Key.backspace	n/a
411.761	0.075	823522	keystroke_u	u	n/a
411.881	0.105	823762	keystroke_r	r	n/a
412.091	0.12	824182	keystroke_t	t	n/a
412.166	0.105	824332	keystroke_h	h	n/a
412.286	0.1945	824572	keystroke_e	e	n/a
412.3905	0.12	824781	keystroke_r	r	n/a
412.5855	0.135	825171	keystroke_m	m	n/a
412.6905	0.1205	825381	keystroke_o	o	n/a
412.841	0.135	825682	keystroke_r	r	n/a
412.946	0.165	825892	keystroke_e	e	n/a
413.081	0.075	826162	keystroke_Key.space	Key.space	n/a
413.1855	0.09	826371	keystroke_Key.enter	Key.enter	n/a
413.282	5.876	826564	prompt	n/a	pearl instead calculate casual\n
414.026	0.075	828052	keystroke_p	p	n/a
414.146	0.165	828292	keystroke_e	e	n/a
414.281	0.225	828562	keystroke_a	a	n/a
414.461	0.135	828922	keystroke_r	r	n/a
414.566	0.18	829132	keystroke_l	l	n/a
414.686	0.12	829372	keystroke_Key.space	Key.space	n/a
414.836	0.09	829672	keystroke_i	i	n/a
415.001	0.075	830002	keystroke_n	n	n/a
415.121	0.135	830242	keystroke_s	s	n/a
415.331	0.12	830662	keystroke_t	t	n/a
415.511	0.0895	831022	keystroke_e	e	n/a
415.6305	0.09	831261	keystroke_a	a	n/a
415.7505	0.165	831501	keystroke_d	d	n/a
415.8855	0.09	831771	keystroke_Key.space	Key.space	n/a
416.111	0.1355	832222	keystroke_c	c	n/a
416.2605	0.135	832521	keystroke_a	a	n/a
416.4105	0.105	832821	keystroke_l	l	n/a
416.6805	0.12	833361	keystroke_c	c	n/a
416.8015	0.074	833603	keystroke_u	u	n/a
417.0105	0.0595	834021	keystroke_l	l	n/a
417.13	0.256	834260	keystroke_a	a	n/a
417.401	0.135	834802	keystroke_t	t	n/a
417.521	0.135	835042	keystroke_e	e	n/a
417.641	0.105	835282	keystroke_Key.space	Key.space	n/a
417.791	0.15	835582	keystroke_c	c	n/a
417.955	0.105	835910	keystroke_a	a	n/a
418.3295	0.106	836659	keystroke_s	s	n/a
418.3905	0.104	836781	keystroke_u	u	n/a
418.6155	0.135	837231	keystroke_a	a	n/a
418.7355	0.18	837471	keystroke_l	l	n/a
418.8555	0.105	837711	keystroke_Key.space	Key.space	n/a
419.0805	0.075	838161	keystroke_Key.enter	Key.enter	n/a
419.163	10.958	838326	prompt	n/a	experiencing competitive bingo frames\n
419.845	0.09	839690	keystroke_e	e	n/a
420.055	0.15	840110	keystroke_x	x	n/a
420.19	0.075	840380	keystroke_p	p	n/a
420.37	0.12	840740	keystroke_e	e	n/a
420.5495	0.0905	841099	keystroke_i	i	n/a
420.7	0.1045	841400	keystroke_r	r	n/a
420.82	0.1045	841640	keystroke_n	n	n/a
421.8545	0.09	843709	keystroke_Key.backspace	Key.backspace	n/a
422.2895	0.075	844579	keystroke_Key.backspace	Key.backspace	n/a
422.8145	0.09	845629	keystroke_Key.backspace	Key.backspace	n/a
423.3545	0.074	846709	keystroke_Key.backspace	Key.backspace	n/a
424.165	0.1195	848330	keystroke_e	e	n/a
424.4035	0.091	848807	keystroke_r	r	n/a
424.5095	0.089	849019	keystroke_i	i	n/a
424.6445	0.104	849289	keystroke_e	e	n/a
424.7495	0.104	849499	keystroke_n	n	n/a
424.8695	0.104	849739	keystroke_c	c	n/a
425.0645	0.059	850129	keystroke_i	i	n/a
425.2285	0.046	850457	keystroke_n	n	n/a
425.3035	0.091	850607	keystroke_g	g	n/a
425.4685	0.045	850937	keystroke_Key.space	Key.space	n/a
425.6335	0.091	851267	keystroke_c	c	n/a
425.7845	0.165	851569	keystroke_o	o	n/a
426.0545	0.1345	852109	keystroke_m	m	n/a
426.234	0.0905	852468	keystroke_p	p	n/a
426.3845	0.12	852769	keystroke_e	e	n/a
426.6695	0.0445	853339	keystroke_t	t	n/a
426.728	0.061	853456	keystroke_i	i	n/a
426.864	0.09	853728	keystroke_t	t	n/a
426.954	0.074	853908	keystroke_i	i	n/a
427.314	0.15	854628	keystroke_v	v	n/a
427.418	0.166	854836	keystroke_e	e	n/a
427.584	0.074	855168	keystroke_Key.space	Key.space	n/a
428.0935	0.075	856187	keystroke_b	b	n/a
428.1985	0.075	856397	keystroke_i	i	n/a
428.3785	0.09	856757	keystroke_n	n	n/a
428.6485	0.075	857297	keystroke_g	g	n/a
428.7385	0.135	857477	keystroke_o	o	n/a
428.8885	0.075	857777	keystroke_Key.space	Key.space	n/a
429.0835	0.09	858167	keystroke_f	f	n/a
429.2785	0.09	858557	keystroke_r	r	n/a
429.4435	0.12	858887	keystroke_a	a	n/a
429.5645	0.089	859129	keystroke_m	m	n/a
429.7135	0.105	859427	keystroke_s	s	n/a
429.9085	0.06	859817	keystroke_Key.space	Key.space	n/a
430.0585	0.06	860117	keystroke_Key.enter	Key.enter	n/a
430.125	10.2245	860250	prompt	n/a	yields observations communities referral\n
431.438	0.06	862876	keystroke_y	y	n/a
431.723	0.075	863446	keystroke_i	i	n/a
431.888	0.075	863776	keystroke_e	e	n/a
432.008	0.075	864016	keystroke_l	l	n/a
432.143	0.09	864286	keystroke_d	d	n/a
432.6975	0.121	865395	keystroke_s	s	n/a
432.8775	0.09	865755	keystroke_Key.space	Key.space	n/a
433.0725	0.061	866145	keystroke_o	o	n/a
433.2975	0.091	866595	keystroke_b	b	n/a
433.4625	0.21	866925	keystroke_e	e	n/a
433.6125	0.105	867225	keystroke_r	r	n/a
434.257	0.09	868514	keystroke_Key.backspace	Key.backspace	n/a
434.437	0.105	868874	keystroke_Key.backspace	Key.backspace	n/a
434.558	0.239	869116	keystroke_s	s	n/a
434.722	0.195	869444	keystroke_e	e	n/a
434.842	0.121	869684	keystroke_r	r	n/a
435.098	0.135	870196	keystroke_v	v	n/a
435.247	0.211	870494	keystroke_a	a	n/a
435.428	0.09	870856	keystroke_t	t	n/a
435.503	0.225	871006	keystroke_i	i	n/a
435.592	0.151	871184	keystroke_o	o	n/a
435.667	0.12	871334	keystroke_n	n	n/a
435.788	0.104	871576	keystroke_s	s	n/a
435.908	0.074	871816	keystroke_Key.space	Key.space	n/a
436.042	0.1355	872084	keystroke_c	c	n/a
436.117	0.0905	872234	keystroke_o	o	n/a
436.313	0.059	872626	keystroke_m	m	n/a
436.433	0.105	872866	keystroke_m	m	n/a
436.658	0.059	873316	keystroke_u	u	n/a
436.8375	0.0755	873675	keystroke_n	n	n/a
436.9415	0.061	873883	keystroke_i	i	n/a
437.1225	0.074	874245	keystroke_t	t	n/a
437.2125	0.06	874425	keystroke_i	i	n/a
437.317	0.09	874634	keystroke_e	e	n/a
437.497	0.105	874994	keystroke_s	s	n/a
437.9325	0.119	875865	keystroke_Key.space	Key.space	n/a
438.2025	0.135	876405	keystroke_r	r	n/a
438.4125	0.104	876825	keystroke_e	e	n/a
438.6975	0.119	877395	keystroke_f	f	n/a
439.1925	0.15	878385	keystroke_e	e	n/a
439.4775	0.074	878955	keystroke_r	r	n/a
439.6265	0.105	879253	keystroke_r	r	n/a
439.8215	0.106	879643	keystroke_a	a	n/a
439.9285	0.179	879857	keystroke_l	l	n/a
440.0615	0.09	880123	keystroke_Key.space	Key.space	n/a
440.2575	0.089	880515	keystroke_Key.enter	Key.enter	n/a
440.3555	6.308	880711	prompt	n/a	prize tags enterprises beijing\n
441.051	0.076	882102	keystroke_p	p	n/a
441.157	0.09	882314	keystroke_r	r	n/a
441.277	0.06	882554	keystroke_i	i	n/a
441.441	0.121	882882	keystroke_z	z	n/a
441.577	0.119	883154	keystroke_e	e	n/a
441.726	0.09	883452	keystroke_Key.space	Key.space	n/a
441.876	0.091	883752	keystroke_t	t	n/a
442.041	0.166	884082	keystroke_a	a	n/a
442.237	0.089	884474	keystroke_g	g	n/a
442.431	0.091	884862	keystroke_s	s	n/a
442.551	0.105	885102	keystroke_Key.space	Key.space	n/a
443.1065	0.105	886213	keystroke_e	e	n/a
443.2265	0.09	886453	keystroke_n	n	n/a
443.4205	0.136	886841	keystroke_t	t	n/a
443.5115	0.194	887023	keystroke_e	e	n/a
443.6305	0.12	887261	keystroke_r	r	n/a
443.7815	0.075	887563	keystroke_p	p	n/a
443.9755	0.091	887951	keystroke_r	r	n/a
444.0215	0.075	888043	keystroke_i	i	n/a
444.2005	0.106	888401	keystroke_s	s	n/a
444.3505	0.076	888701	keystroke_e	e	n/a
444.5165	0.104	889033	keystroke_s	s	n/a
444.6505	0.09	889301	keystroke_Key.space	Key.space	n/a
445.0705	0.09	890141	keystroke_b	b	n/a
445.2065	0.104	890413	keystroke_e	e	n/a
445.5065	0.075	891013	keystroke_i	i	n/a
445.8655	0.091	891731	keystroke_j	j	n/a
446.0005	0.075	892001	keystroke_i	i	n/a
446.1655	0.076	892331	keystroke_n	n	n/a
446.3155	0.121	892631	keystroke_g	g	n/a
446.4505	0.06	892901	keystroke_Key.space	Key.space	n/a
446.5855	0.075	893171	keystroke_Key.enter	Key.enter	n/a
446.668	7.9595	893336	prompt	n/a	elements engagement sought greene\n
447.3655	0.091	894731	keystroke_e	e	n/a
447.4865	0.089	894973	keystroke_l	l	n/a
447.6065	0.119	895213	keystroke_e	e	n/a
447.7105	0.0905	895421	keystroke_m	m	n/a
447.951	0.135	895902	keystroke_e	e	n/a
448.07	0.09	896140	keystroke_n	n	n/a
448.205	0.09	896410	keystroke_t	t	n/a
448.4	0.12	896800	keystroke_s	s	n/a
448.521	0.089	897042	keystroke_Key.space	Key.space	n/a
448.985	0.105	897970	keystroke_e	e	n/a
449.105	0.09	898210	keystroke_n	n	n/a
449.36	0.09	898720	keystroke_g	g	n/a
449.495	0.211	898990	keystroke_a	a	n/a
450.065	0.121	900130	keystroke_g	g	n/a
450.17	0.15	900340	keystroke_e	e	n/a
450.336	0.104	900672	keystroke_m	m	n/a
450.485	0.135	900970	keystroke_e	e	n/a
450.59	0.075	901180	keystroke_n	n	n/a
450.711	0.104	901422	keystroke_t	t	n/a
450.89	0.0745	901780	keystroke_Key.space	Key.space	n/a
451.356	0.1045	902712	keystroke_s	s	n/a
451.5045	0.195	903009	keystroke_o	o	n/a
451.6395	0.12	903279	keystroke_u	u	n/a
452.6	0.09	905200	keystroke_g	g	n/a
452.675	0.106	905350	keystroke_h	h	n/a
452.795	0.105	905590	keystroke_t	t	n/a
452.945	0.075	905890	keystroke_Key.space	Key.space	n/a
453.3645	0.06	906729	keystroke_g	g	n/a
453.4995	0.075	906999	keystroke_r	r	n/a
453.6795	0.075	907359	keystroke_e	e	n/a
453.8145	0.196	907629	keystroke_e	e	n/a
454.0245	0.045	908049	keystroke_n	n	n/a
454.2195	0.091	908439	keystroke_e	e	n/a
454.3545	0.105	908709	keystroke_Key.space	Key.space	n/a
454.5495	0.076	909099	keystroke_Key.enter	Key.enter	n/a
454.632	5.545	909264	prompt	n/a	repairs fail query gently\n
455.5255	0.135	911051	keystroke_r	r	n/a
455.6445	0.136	911289	keystroke_e	e	n/a
455.8105	0.089	911621	keystroke_p	p	n/a
455.9445	0.12	911889	keystroke_a	a	n/a
456.0355	0.075	912071	keystroke_i	i	n/a
456.1395	0.105	912279	keystroke_r	r	n/a
456.3205	0.119	912641	keystroke_s	s	n/a
456.454	0.09	912908	keystroke_Key.space	Key.space	n/a
456.619	0.121	913238	keystroke_f	f	n/a
456.769	0.151	913538	keystroke_a	a	n/a
456.844	0.09	913688	keystroke_i	i	n/a
457.024	0.135	914048	keystroke_l	l	n/a
457.129	0.135	914258	keystroke_Key.space	Key.space	n/a
457.31	0.12	914620	keystroke_q	q	n/a
457.475	0.09	914950	keystroke_u	u	n/a
457.85	0.15	915700	keystroke_e	e	n/a
458.105	0.104	916210	keystroke_r	r	n/a
458.239	0.136	916478	keystroke_y	y	n/a
458.344	0.136	916688	keystroke_Key.space	Key.space	n/a
458.63	0.104	917260	keystroke_g	g	n/a
458.75	0.1795	917500	keystroke_e	e	n/a
458.9145	0.09	917829	keystroke_n	n	n/a
459.1545	0.076	918309	keystroke_t	t	n/a
459.2895	0.121	918579	keystroke_l	l	n/a
459.724	0.1205	919448	keystroke_y	y	n/a
459.9045	0.1205	919809	keystroke_Key.space	Key.space	n/a
460.0845	0.09	920169	keystroke_Key.enter	Key.enter	n/a
460.182	12.487	920364	prompt	n/a	goods tablets electronics roommates\n
461.0145	0.0895	922029	keystroke_g	g	n/a
461.164	0.075	922328	keystroke_o	o	n/a
461.33	0.075	922660	keystroke_o	o	n/a
461.555	0.104	923110	keystroke_d	d	n/a
461.794	0.136	923588	keystroke_s	s	n/a
461.9885	0.105	923977	keystroke_Key.space	Key.space	n/a
462.4995	0.059	924999	keystroke_t	t	n/a
462.6485	0.12	925297	keystroke_a	a	n/a
462.8885	0.075	925777	keystroke_b	b	n/a
462.9945	0.089	925989	keystroke_l	l	n/a
463.2635	0.105	926527	keystroke_e	e	n/a
464.4795	0.089	928959	keystroke_t	t	n/a
464.7335	0.06	929467	keystroke_s	s	n/a
464.8235	0.1045	929647	keystroke_Key.space	Key.space	n/a
465.003	0.106	930006	keystroke_e	e	n/a
465.1235	0.121	930247	keystroke_l	l	n/a
465.2585	0.091	930517	keystroke_e	e	n/a
465.469	0.12	930938	keystroke_c	c	n/a
465.6785	0.045	931357	keystroke_r	r	n/a
465.6795	0.059	931359	keystroke_t	t	n/a
465.8135	0.06	931627	keystroke_o	o	n/a
466.0085	0.075	932017	keystroke_n	n	n/a
466.1435	0.0595	932287	keystroke_i	i	n/a
466.293	0.105	932586	keystroke_c	c	n/a
466.609	0.089	933218	keystroke_s	s	n/a
466.758	0.045	933516	keystroke_Key.space	Key.space	n/a
467.118	0.09	934236	keystroke_r	r	n/a
467.523	0.075	935046	keystroke_Key.backspace	Key.backspace	n/a
467.658	0.075	935316	keystroke_Key.backspace	Key.backspace	n/a
467.838	0.06	935676	keystroke_Key.backspace	Key.backspace	n/a
467.973	0.06	935946	keystroke_Key.backspace	Key.backspace	n/a
468.138	0.06	936276	keystroke_Key.backspace	Key.backspace	n/a
468.303	0.06	936606	keystroke_Key.backspace	Key.backspace	n/a
468.453	0.06	936906	keystroke_Key.backspace	Key.backspace	n/a
468.618	0.06	937236	keystroke_Key.backspace	Key.backspace	n/a
468.768	0.06	937536	keystroke_Key.backspace	Key.backspace	n/a
469.548	0.075	939096	keystroke_t	t	n/a
469.713	0.105	939426	keystroke_r	r	n/a
469.803	0.075	939606	keystroke_o	o	n/a
469.983	0.045	939966	keystroke_n	n	n/a
470.103	0.075	940206	keystroke_i	i	n/a
470.208	0.135	940416	keystroke_c	c	n/a
470.388	0.105	940776	keystroke_s	s	n/a
470.553	0.075	941106	keystroke_Key.space	Key.space	n/a
470.763	0.06	941526	keystroke_r	r	n/a
470.853	0.06	941706	keystroke_o	o	n/a
471.003	0.06	942006	keystroke_o	o	n/a
471.153	0.09	942306	keystroke_m	m	n/a
471.393	0.0905	942786	keystroke_m	m	n/a
471.7085	0.134	943417	keystroke_a	a	n/a
471.9785	0.089	943957	keystroke_t	t	n/a
472.142	0.075	944284	keystroke_e	e	n/a
472.262	0.136	944524	keystroke_s	s	n/a
472.427	0.0895	944854	keystroke_Key.space	Key.space	n/a
472.5775	0.089	945155	keystroke_Key.enter	Key.enter	n/a
472.6735	6.7495	945347	prompt	n/a	cooler saudi response messages\n
474.284	0.12	948568	keystroke_c	c	n/a
474.4485	0.075	948897	keystroke_o	o	n/a
474.5985	0.06	949197	keystroke_o	o	n/a
474.763	0.105	949526	keystroke_l	l	n/a
474.883	0.1645	949766	keystroke_e	e	n/a
475.0025	0.105	950005	keystroke_r	r	n/a
