onset	duration	sample	value	key	prompt_text
13.2015	0.012	26403	keystroke_Key.tab	Key.tab	n/a
13.24	19.912	26480	prompt	n/a	the quick brown fox jumps over a lazy dog\n
14.6985	0.0905	29397	keystroke_t	t	n/a
14.789	0.0895	29578	keystroke_h	h	n/a
14.969	0.09	29938	keystroke_e	e	n/a
15.1635	0.0755	30327	keystroke_Key.space	Key.space	n/a
15.4785	0.06	30957	keystroke_q	q	n/a
15.5535	0.105	31107	keystroke_u	u	n/a
15.7185	0.09	31437	keystroke_i	i	n/a
15.9435	0.045	31887	keystroke_c	c	n/a
15.9735	0.1205	31947	keystroke_k	k	n/a
16.784	0.075	33568	keystroke_Key.space	Key.space	n/a
26.8055	0.001	53611	keystroke_b	b	n/a
26.9835	0.0905	53967	keystroke_r	r	n/a
27.418	0.061	54836	keystroke_o	o	n/a
27.793	0.105	55586	keystroke_w	w	n/a
27.914	0.075	55828	keystroke_n	n	n/a
28.0945	0.059	56189	keystroke_Key.space	Key.space	n/a
28.2735	0.076	56547	keystroke_f	f	n/a
28.394	0.06	56788	keystroke_o	o	n/a
28.6785	0.075	57357	keystroke_x	x	n/a
28.814	0.0595	57628	keystroke_Key.space	Key.space	n/a
29.0685	0.06	58137	keystroke_j	j	n/a
29.3085	0.015	58617	keystroke_u	u	n/a
29.4435	0.075	58887	keystroke_m	m	n/a
29.6695	0.045	59339	keystroke_p	p	n/a
30.044	0.09	60088	keystroke_s	s	n/a
30.209	0.075	60418	keystroke_Key.space	Key.space	n/a
30.404	0.06	60808	keystroke_o	o	n/a
30.494	0.105	60988	keystroke_v	v	n/a
30.674	0.18	61348	keystroke_e	e	n/a
30.869	0.105	61738	keystroke_r	r	n/a
31.004	0.09	62008	keystroke_Key.space	Key.space	n/a
31.124	0.105	62248	keystroke_a	a	n/a
31.214	0.059	62428	keystroke_Key.space	Key.space	n/a
31.409	0.075	62818	keystroke_l	l	n/a
31.544	0.09	63088	keystroke_a	a	n/a
31.754	0.09	63508	keystroke_z	z	n/a
31.844	0.12	63688	keystroke_y	y	n/a
31.979	0.075	63958	keystroke_Key.space	Key.space	n/a
32.234	0.015	64468	keystroke_d	d	n/a
32.264	0.06	64528	keystroke_o	o	n/a
32.429	0.075	64858	keystroke_g	g	n/a
33.029	0.12	66058	keystroke_Key.enter	Key.enter	n/a
33.1565	7.314	66313	prompt	n/a	shakira criminal isolated customize\n
33.8385	0.09	67677	keystroke_s	s	n/a
34.0485	0.075	68097	keystroke_h	h	n/a
34.1535	0.09	68307	keystroke_a	a	n/a
34.3485	0.075	68697	keystroke_k	k	n/a
34.5135	0.075	69027	keystroke_i	i	n/a
34.6335	0.075	69267	keystroke_r	r	n/a
34.8435	0.105	69687	keystroke_a	a	n/a
34.9635	0.075	69927	keystroke_Key.space	Key.space	n/a
35.2935	0.09	70587	keystroke_c	c	n/a
35.5485	0.045	71097	keystroke_r	r	n/a
35.6385	0.0755	71277	keystroke_i	i	n/a
35.789	0.105	71578	keystroke_m	m	n/a
36.074	0.075	72148	keystroke_i	i	n/a
36.224	0.09	72448	keystroke_n	n	n/a
36.359	0.105	72718	keystroke_a	a	n/a
36.509	0.075	73018	keystroke_l	l	n/a
36.644	0.075	73288	keystroke_Key.space	Key.space	n/a
36.929	0.075	73858	keystroke_i	i	n/a
37.079	0.0755	74158	keystroke_s	s	n/a
37.214	0.075	74428	keystroke_o	o	n/a
37.4095	0.075	74819	keystroke_l	l	n/a
37.4995	0.09	74999	keystroke_a	a	n/a
37.7245	0.075	75449	keystroke_t	t	n/a
37.919	0.075	75838	keystroke_e	e	n/a
38.114	0.075	76228	keystroke_d	d	n/a
38.219	0.075	76438	keystroke_Key.space	Key.space	n/a
38.414	0.075	76828	keystroke_c	c	n/a
38.519	0.09	77038	keystroke_u	u	n/a
38.684	0.09	77368	keystroke_s	s	n/a
38.924	0.06	77848	keystroke_t	t	n/a
39.029	0.075	78058	keystroke_o	o	n/a
39.239	0.06	78478	keystroke_m	m	n/a
39.359	0.09	78718	keystroke_i	i	n/a
39.539	0.075	79078	keystroke_z	z	n/a
39.7935	0.06	79587	keystroke_e	e	n/a
40.3785	0.09	80757	keystroke_Key.enter	Key.enter	n/a
40.4735	7.137	80947	prompt	n/a	tigers theory bull celebrities\n
41.159	0.09	82318	keystroke_t	t	n/a
41.279	0.06	82558	keystroke_h	h	n/a
42.2235	0.075	84447	keystroke_Key.backspace	Key.backspace	n/a
42.6135	0.06	85227	keystroke_i	i	n/a
42.8685	0.06	85737	keystroke_g	g	n/a
43.0335	0.09	86067	keystroke_e	e	n/a
43.2285	0.091	86457	keystroke_r	r	n/a
43.4835	0.091	86967	keystroke_s	s	n/a
43.739	0.105	87478	keystroke_Key.space	Key.space	n/a
44.084	0.075	88168	keystroke_t	t	n/a
44.174	0.075	88348	keystroke_h	h	n/a
44.294	0.09	88588	keystroke_e	e	n/a
44.474	0.045	88948	keystroke_o	o	n/a
44.594	0.0905	89188	keystroke_r	r	n/a
44.7735	0.06	89547	keystroke_y	y	n/a
44.8635	0.075	89727	keystroke_Key.space	Key.space	n/a
45.0445	0.045	90089	keystroke_b	b	n/a
45.1495	0.09	90299	keystroke_u	u	n/a
45.4195	0.059	90839	keystroke_l	l	n/a
45.5545	0.075	91109	keystroke_l	l	n/a
45.644	0.09	91288	keystroke_Key.space	Key.space	n/a
45.779	0.09	91558	keystroke_c	c	n/a
45.944	0.09	91888	keystroke_e	e	n/a
46.064	0.09	92128	keystroke_l	l	n/a
46.169	0.075	92338	keystroke_e	e	n/a
46.454	0.075	92908	keystroke_b	b	n/a
46.604	0.075	93208	keystroke_r	r	n/a
46.694	0.075	93388	keystroke_i	i	n/a
46.829	0.075	93658	keystroke_t	t	n/a
46.949	0.06	93898	keystroke_i	i	n/a
47.039	0.075	94078	keystroke_e	e	n/a
47.249	0.09	94498	keystroke_s	s	n/a
47.549	0.06	95098	keystroke_Key.enter	Key.enter	n/a
47.6135	6.672	95227	prompt	n/a	blue kidney grows idaho\n
48.8835	0.075	97767	keystroke_b	b	n/a
49.1685	0.075	98337	keystroke_l	l	n/a
49.3485	0.075	98697	keystroke_u	u	n/a
49.4835	0.09	98967	keystroke_e	e	n/a
49.6485	0.075	99297	keystroke_Key.space	Key.space	n/a
49.9635	0.06	99927	keystroke_k	k	n/a
50.1285	0.0605	100257	keystroke_i	i	n/a
50.2795	0.0745	100559	keystroke_d	d	n/a
50.369	0.09	100738	keystroke_n	n	n/a
50.549	0.075	101098	keystroke_e	e	n/a
50.684	0.075	101368	keystroke_y	y	n/a
50.789	0.09	101578	keystroke_Key.space	Key.space	n/a
50.969	0.0905	101938	keystroke_g	g	n/a
51.179	0.075	102358	keystroke_r	r	n/a
51.284	0.075	102568	keystroke_o	o	n/a
51.404	0.09	102808	keystroke_w	w	n/a
51.6585	0.075	103317	keystroke_s	s	n/a
51.7485	0.06	103497	keystroke_Key.space	Key.space	n/a
51.9285	0.075	103857	keystroke_i	i	n/a
52.0785	0.075	104157	keystroke_d	d	n/a
52.2585	0.075	104517	keystroke_a	a	n/a
52.3785	0.0755	104757	keystroke_g	g	n/a
53.0245	0.06	106049	keystroke_Key.backspace	Key.backspace	n/a
53.2945	0.06	106589	keystroke_h	h	n/a
53.4895	0.075	106979	keystroke_o	o	n/a
54.179	0.1055	108358	keystroke_Key.enter	Key.enter	n/a
54.2885	6.6725	108577	prompt	n/a	bracelet decent unix failure\n
55.3495	0.075	110699	keystroke_b	b	n/a
55.5295	0.075	111059	keystroke_r	r	n/a
55.7245	0.09	111449	keystroke_a	a	n/a
55.9645	0.045	111929	keystroke_c	c	n/a
56.0845	0.09	112169	keystroke_e	e	n/a
56.2045	0.075	112409	keystroke_l	l	n/a
56.3245	0.09	112649	keystroke_e	e	n/a
56.504	0.0755	113008	keystroke_t	t	n/a
56.744	0.075	113488	keystroke_Key.space	Key.space	n/a
56.999	0.09	113998	keystroke_d	d	n/a
57.149	0.09	114298	keystroke_e	e	n/a
57.359	0.09	114718	keystroke_c	c	n/a
57.509	0.09	115018	keystroke_e	e	n/a
57.614	0.09	115228	keystroke_n	n	n/a
57.764	0.09	115528	keystroke_t	t	n/a
57.884	0.09	115768	keystroke_Key.space	Key.space	n/a
58.154	0.09	116308	keystroke_u	u	n/a
58.319	0.09	116638	keystroke_n	n	n/a
58.499	0.09	116998	keystroke_i	i	n/a
58.649	0.105	117298	keystroke_x	x	n/a
58.964	0.06	117928	keystroke_Key.space	Key.space	n/a
59.204	0.06	118408	keystroke_f	f	n/a
59.414	0.075	118828	keystroke_a	a	n/a
59.504	0.06	119008	keystroke_i	i	n/a
59.729	0.09	119458	keystroke_l	l	n/a
60.134	0.09	120268	keystroke_u	u	n/a
60.2695	0.0895	120539	keystroke_r	r	n/a
60.344	0.09	120688	keystroke_e	e	n/a
60.899	0.06	121798	keystroke_Key.enter	Key.enter	n/a
60.964	5.577	121928	prompt	n/a	sally hear disclose median\n
61.634	0.075	123268	keystroke_s	s	n/a
61.814	0.09	123628	keystroke_a	a	n/a
61.889	0.075	123778	keystroke_l	l	n/a
62.024	0.075	124048	keystroke_l	l	n/a
62.219	0.09	124438	keystroke_y	y	n/a
62.324	0.075	124648	keystroke_Key.space	Key.space	n/a
62.684	0.045	125368	keystroke_h	h	n/a
62.834	0.075	125668	keystroke_e	e	n/a
63.074	0.09	126148	keystroke_a	a	n/a
63.419	0.105	126838	keystroke_r	r	n/a
63.584	0.105	127168	keystroke_Key.space	Key.space	n/a
63.824	0.09	127648	keystroke_d	d	n/a
63.944	0.09	127888	keystroke_i	i	n/a
64.064	0.075	128128	keystroke_s	s	n/a
64.289	0.075	128578	keystroke_c	c	n/a
64.409	0.09	128818	keystroke_l	l	n/a
64.619	0.03	129238	keystroke_o	o	n/a
64.694	0.09	129388	keystroke_s	s	n/a
64.904	0.075	129808	keystroke_e	e	n/a
65.054	0.105	130108	keystroke_Key.space	Key.space	n/a
65.234	0.105	130468	keystroke_m	m	n/a
65.384	0.09	130768	keystroke_e	e	n/a
65.609	0.0595	131218	keystroke_d	d	n/a
65.7135	0.076	131427	keystroke_i	i	n/a
65.8485	0.105	131697	keystroke_a	a	n/a
65.9545	0.09	131909	keystroke_n	n	n/a
66.4635	0.075	132927	keystroke_Key.enter	Key.enter	n/a
66.5465	6.0995	133093	prompt	n/a	reduces loading actually virginia\n
67.3335	0.105	134667	keystroke_r	r	n/a
67.4835	0.076	134967	keystroke_e	e	n/a
67.694	0.09	135388	keystroke_d	d	n/a
67.829	0.0895	135658	keystroke_u	u	n/a
67.9635	0.075	135927	keystroke_c	c	n/a
68.1585	0.075	136317	keystroke_e	e	n/a
68.3835	0.075	136767	keystroke_s	s	n/a
68.4595	0.089	136919	keystroke_Key.space	Key.space	n/a
68.6835	0.0605	137367	keystroke_l	l	n/a
68.834	0.06	137668	keystroke_o	o	n/a
68.939	0.09	137878	keystroke_a	a	n/a
69.119	0.06	138238	keystroke_d	d	n/a
69.194	0.075	138388	keystroke_i	i	n/a
69.359	0.075	138718	keystroke_n	n	n/a
69.464	0.075	138928	keystroke_g	g	n/a
69.569	0.09	139138	keystroke_Key.space	Key.space	n/a
69.704	0.09	139408	keystroke_a	a	n/a
69.914	0.09	139828	keystroke_c	c	n/a
70.199	0.045	140398	keystroke_t	t	n/a
70.274	0.09	140548	keystroke_u	u	n/a
70.469	0.075	140938	keystroke_a	a	n/a
70.544	0.06	141088	keystroke_l	l	n/a
70.694	0.06	141388	keystroke_l	l	n/a
70.874	0.075	141748	keystroke_y	y	n/a
70.964	0.09	141928	keystroke_Key.space	Key.space	n/a
71.159	0.075	142318	keystroke_v	v	n/a
71.264	0.075	142528	keystroke_i	i	n/a
71.384	0.09	142768	keystroke_r	r	n/a
71.624	0.045	143248	keystroke_g	g	n/a
71.714	0.06	143428	keystroke_i	i	n/a
71.849	0.0745	143698	keystroke_n	n	n/a
71.9985	0.075	143997	keystroke_i	i	n/a
72.1785	0.045	144357	keystroke_a	a	n/a
72.5695	0.075	145139	keystroke_Key.enter	Key.enter	n/a
72.649	5.9365	145298	prompt	n/a	lovers diversity casey burden\n
73.2445	0.09	146489	keystroke_l	l	n/a
73.3795	0.09	146759	keystroke_o	o	n/a
73.4995	0.06	146999	keystroke_v	v	n/a
73.6495	0.12	147299	keystroke_e	e	n/a
73.7845	0.09	147569	keystroke_r	r	n/a
74.0245	0.075	148049	keystroke_s	s	n/a
74.1135	0.105	148227	keystroke_Key.space	Key.space	n/a
74.2795	0.09	148559	keystroke_d	d	n/a
74.3995	0.0745	148799	keystroke_i	i	n/a
74.534	0.075	149068	keystroke_v	v	n/a
74.714	0.135	149428	keystroke_e	e	n/a
74.834	0.09	149668	keystroke_r	r	n/a
75.044	0.0905	150088	keystroke_s	s	n/a
75.224	0.045	150448	keystroke_i	i	n/a
75.3145	0.0895	150629	keystroke_t	t	n/a
75.434	0.0755	150868	keystroke_y	y	n/a
75.554	0.06	151108	keystroke_Key.space	Key.space	n/a
75.734	0.06	151468	keystroke_c	c	n/a
75.929	0.075	151858	keystroke_a	a	n/a
76.079	0.105	152158	keystroke_s	s	n/a
76.679	0.075	153358	keystroke_e	e	n/a
76.784	0.09	153568	keystroke_y	y	n/a
77.129	0.09	154258	keystroke_Key.space	Key.space	n/a
77.369	0.045	154738	keystroke_b	b	n/a
77.4895	0.075	154979	keystroke_u	u	n/a
77.6095	0.09	155219	keystroke_r	r	n/a
77.8195	0.09	155639	keystroke_d	d	n/a
77.9695	0.09	155939	keystroke_e	e	n/a
78.0895	0.105	156179	keystroke_n	n	n/a
78.509	0.075	157018	keystroke_Key.enter	Key.enter	n/a
78.5885	10.1065	157177	prompt	n/a	factory slovak holidays linked\n
79.3945	0.075	158789	keystroke_f	f	n/a
79.5895	0.0595	159179	keystroke_a	a	n/a
79.754	0.075	159508	keystroke_c	c	n/a
79.9485	0.09	159897	keystroke_t	t	n/a
80.0835	0.06	160167	keystroke_o	o	n/a
80.2185	0.06	160437	keystroke_r	r	n/a
80.2935	0.105	160587	keystroke_y	y	n/a
80.4135	0.09	160827	keystroke_Key.space	Key.space	n/a
80.5785	0.075	161157	keystroke_s	s	n/a
80.6985	0.075	161397	keystroke_l	l	n/a
80.9835	0.075	161967	keystroke_v	v	n/a
81.2985	0.06	162597	keystroke_Key.backspace	Key.backspace	n/a
81.5245	0.075	163049	keystroke_o	o	n/a
81.6745	0.06	163349	keystroke_v	v	n/a
81.914	0.1055	163828	keystroke_a	a	n/a
82.034	0.06	164068	keystroke_k	k	n/a
82.289	0.059	164578	keystroke_Key.space	Key.space	n/a
82.544	0.0605	165088	keystroke_h	h	n/a
82.754	0.075	165508	keystroke_o	o	n/a
82.949	0.06	165898	keystroke_l	l	n/a
83.114	0.075	166228	keystroke_i	i	n/a
83.219	0.09	166438	keystroke_d	d	n/a
83.399	0.06	166798	keystroke_a	a	n/a
83.4895	0.0745	166979	keystroke_y	y	n/a
83.624	0.09	167248	keystroke_s	s	n/a
83.714	0.075	167428	keystroke_Key.space	Key.space	n/a
83.924	0.06	167848	keystroke_l	l	n/a
84.134	0.06	168268	keystroke_i	i	n/a
84.299	0.045	168598	keystroke_n	n	n/a
84.404	0.075	168808	keystroke_k	k	n/a
84.524	0.09	169048	keystroke_e	e	n/a
84.764	0.075	169528	keystroke_d	d	n/a
88.681	0.013	177362	keystroke_Key.enter	Key.enter	n/a
88.698	9.1625	177396	prompt	n/a	deposit salvation hungry there'll\n
89.519	0.075	179038	keystroke_d	d	n/a
89.6835	0.0755	179367	keystroke_e	e	n/a
89.969	0.09	179938	keystroke_p	p	n/a
90.149	0.0895	180298	keystroke_o	o	n/a
90.284	0.1045	180568	keystroke_s	s	n/a
90.4035	0.075	180807	keystroke_i	i	n/a
90.5835	0.0905	181167	keystroke_t	t	n/a
90.7335	0.09	181467	keystroke_Key.space	Key.space	n/a
91.0185	0.0605	182037	keystroke_s	s	n/a
91.199	0.075	182398	keystroke_a	a	n/a
91.274	0.06	182548	keystroke_l	l	n/a
91.439	0.075	182878	keystroke_v	v	n/a
91.634	0.075	183268	keystroke_a	a	n/a
91.829	0.09	183658	keystroke_t	t	n/a
91.934	0.09	183868	keystroke_i	i	n/a
92.249	0.06	184498	keystroke_n	n	n/a
93.164	0.075	186328	keystroke_Key.backspace	Key.backspace	n/a
93.479	0.075	186958	keystroke_o	o	n/a
93.7185	0.09	187437	keystroke_n	n	n/a
93.9435	0.075	187887	keystroke_Key.space	Key.space	n/a
94.1385	0.075	188277	keystroke_h	h	n/a
94.2735	0.075	188547	keystroke_u	u	n/a
94.4385	0.075	188877	keystroke_n	n	n/a
94.4985	0.105	188997	keystroke_g	g	n/a
94.6935	0.105	189387	keystroke_r	r	n/a
94.7835	0.09	189567	keystroke_y	y	n/a
94.9035	0.09	189807	keystroke_Key.space	Key.space	n/a
95.1435	0.075	190287	keystroke_t	t	n/a
95.2485	0.075	190497	keystroke_h	h	n/a
95.3535	0.135	190707	keystroke_e	e	n/a
95.6085	0.09	191217	keystroke_r	r	n/a
96.5085	0.0905	193017	keystroke_'	'	n/a
97.004	0.06	194008	keystroke_l	l	n/a
97.109	0.09	194218	keystroke_l	l	n/a
97.769	0.09	195538	keystroke_Key.enter	Key.enter	n/a
97.863	12.3575	195726	prompt	n/a	mounted reward palace unsubscribe\n
98.7585	0.075	197517	keystroke_m	m	n/a
98.9835	0.105	197967	keystroke_o	o	n/a
99.0585	0.09	198117	keystroke_u	u	n/a
99.269	0.075	198538	keystroke_n	n	n/a
99.389	0.075	198778	keystroke_t	t	n/a
99.554	0.075	199108	keystroke_e	e	n/a
99.779	0.09	199558	keystroke_d	d	n/a
99.899	0.105	199798	keystroke_Key.space	Key.space	n/a
100.049	0.12	200098	keystroke_r	r	n/a
100.154	0.105	200308	keystroke_e	e	n/a
100.499	0.075	200998	keystroke_q	q	n/a
101.849	0.06	203698	keystroke_Key.backspace	Key.backspace	n/a
102.044	0.09	204088	keystroke_w	w	n/a
102.254	0.09	204508	keystroke_a	a	n/a
102.479	0.075	204958	keystroke_r	r	n/a
102.689	0.105	205378	keystroke_d	d	n/a
102.824	0.105	205648	keystroke_Key.space	Key.space	n/a
103.379	0.09	206758	keystroke_p	p	n/a
103.6485	0.06	207297	keystroke_a	a	n/a
103.7385	0.075	207477	keystroke_l	l	n/a
103.8585	0.0755	207717	keystroke_a	a	n/a
104.054	0.075	208108	keystroke_c	c	n/a
104.204	0.105	208408	keystroke_e	e	n/a
104.324	0.0895	208648	keystroke_Key.space	Key.space	n/a
104.5035	0.075	209007	keystroke_u	u	n/a
104.7285	0.075	209457	keystroke_n	n	n/a
104.8335	0.09	209667	keystroke_s	s	n/a
104.9835	0.06	209967	keystroke_u	u	n/a
105.1635	0.075	210327	keystroke_b	b	n/a
105.3435	0.09	210687	keystroke_s	s	n/a
105.5535	0.0905	211107	keystroke_c	c	n/a
105.7035	0.06	211407	keystroke_i	i	n/a
106.0335	0.0305	212067	keystroke_r	r	n/a
106.109	0.075	212218	keystroke_b	b	n/a
106.439	0.075	212878	keystroke_Key.backspace	Key.backspace	n/a
106.589	0.075	213178	keystroke_Key.backspace	Key.backspace	n/a
106.784	0.075	213568	keystroke_r	r	n/a
107.4735	0.045	214947	keystroke_Key.backspace	Key.backspace	n/a
107.7735	0.045	215547	keystroke_Key.backspace	Key.backspace	n/a
108.0445	0.045	216089	keystroke_r	r	n/a
108.1335	0.075	216267	keystroke_i	i	n/a
108.3585	0.076	216717	keystroke_b	b	n/a
108.5235	0.075	217047	keystroke_e	e	n/a
110.1435	0.075	220287	keystroke_Key.enter	Key.enter	n/a
110.2235	5.8175	220447	prompt	n/a	colored record newspapers mono\n
110.9385	0.09	221877	keystroke_c	c	n/a
111.0135	0.075	222027	keystroke_o	o	n/a
111.2235	0.045	222447	keystroke_l	l	n/a
111.3585	0.075	222717	keystroke_o	o	n/a
111.4935	0.0755	222987	keystroke_r	r	n/a
111.5985	0.075	223197	keystroke_e	e	n/a
111.8085	0.075	223617	keystroke_d	d	n/a
111.9135	0.105	223827	keystroke_Key.space	Key.space	n/a
112.0485	0.15	224097	keystroke_r	r	n/a
112.1835	0.09	224367	keystroke_e	e	n/a
112.3935	0.075	224787	keystroke_c	c	n/a
112.5285	0.075	225057	keystroke_o	o	n/a
112.6335	0.105	225267	keystroke_r	r	n/a
112.8735	0.0755	225747	keystroke_d	d	n/a
112.964	0.09	225928	keystroke_Key.space	Key.space	n/a
113.159	0.105	226318	keystroke_n	n	n/a
113.339	0.09	226678	keystroke_e	e	n/a
113.579	0.06	227158	keystroke_w	w	n/a
113.789	0.06	227578	keystroke_s	s	n/a
113.984	0.06	227968	keystroke_p	p	n/a
114.119	0.105	228238	keystroke_a	a	n/a
114.224	0.0755	228448	keystroke_p	p	n/a
114.4045	0.0895	228809	keystroke_e	e	n/a
114.539	0.09	229078	keystroke_r	r	n/a
114.7645	0.0895	229529	keystroke_s	s	n/a
114.839	0.0755	229678	keystroke_Key.space	Key.space	n/a
115.0045	0.06	230009	keystroke_m	m	n/a
115.1545	0.075	230309	keystroke_o	o	n/a
115.3195	0.03	230639	keystroke_n	n	n/a
115.424	0.0905	230848	keystroke_o	o	n/a
115.949	0.09	231898	keystroke_Key.enter	Key.enter	n/a
116.0435	7.662	232087	prompt	n/a	zinc beatles ensure handmade\n
117.0435	0.105	234087	keystroke_z	z	n/a
117.179	0.0745	234358	keystroke_i	i	n/a
117.3585	0.06	234717	keystroke_n	n	n/a
117.4785	0.09	234957	keystroke_c	c	n/a
117.6735	0.075	235347	keystroke_Key.space	Key.space	n/a
117.8535	0.075	235707	keystroke_b	b	n/a
117.9735	0.09	235947	keystroke_e	e	n/a
118.1535	0.09	236307	keystroke_a	a	n/a
118.364	0.0745	236728	keystroke_t	t	n/a
118.4535	0.075	236907	keystroke_l	l	n/a
118.5885	0.09	237177	keystroke_e	e	n/a
118.9185	0.0755	237837	keystroke_s	s	n/a
119.4585	0.075	238917	keystroke_Key.space	Key.space	n/a
119.6835	0.075	239367	keystroke_e	e	n/a
119.7735	0.09	239547	keystroke_n	n	n/a
119.9235	0.105	239847	keystroke_s	s	n/a
120.0435	0.06	240087	keystroke_u	u	n/a
120.1335	0.105	240267	keystroke_r	r	n/a
120.2085	0.105	240417	keystroke_e	e	n/a
120.3735	0.09	240747	keystroke_Key.space	Key.space	n/a
120.6735	0.09	241347	keystroke_h	h	n/a
120.8385	0.09	241677	keystroke_a	a	n/a
120.9435	0.09	241887	keystroke_n	n	n/a
121.0645	0.105	242129	keystroke_d	d	n/a
121.2295	0.075	242459	keystroke_m	m	n/a
121.3345	0.1045	242669	keystroke_a	a	n/a
121.529	0.09	243058	keystroke_d	d	n/a
121.724	0.075	243448	keystroke_e	e	n/a
123.6135	0.09	247227	keystroke_Key.enter	Key.enter	n/a
123.709	6.3865	247418	prompt	n/a	hired victoria headline alex\n
124.424	0.0605	248848	keystroke_h	h	n/a
124.5895	0.06	249179	keystroke_i	i	n/a
124.6785	0.106	249357	keystroke_r	r	n/a
124.7845	0.104	249569	keystroke_e	e	n/a
125.0095	0.12	250019	keystroke_d	d	n/a
125.1435	0.0905	250287	keystroke_Key.space	Key.space	n/a
125.459	0.075	250918	keystroke_v	v	n/a
125.549	0.075	251098	keystroke_i	i	n/a
125.6985	0.09	251397	keystroke_c	c	n/a
125.969	0.06	251938	keystroke_t	t	n/a
126.074	0.075	252148	keystroke_o	o	n/a
126.494	0.1195	252988	keystroke_r	r	n/a
126.7485	0.09	253497	keystroke_i	i	n/a
126.9885	0.12	253977	keystroke_a	a	n/a
127.1535	0.15	254307	keystroke_Key.space	Key.space	n/a
127.4685	0.091	254937	keystroke_h	h	n/a
127.6185	0.105	255237	keystroke_e	e	n/a
127.7985	0.0905	255597	keystroke_a	a	n/a
127.994	0.09	255988	keystroke_d	d	n/a
128.144	0.075	256288	keystroke_l	l	n/a
128.339	0.075	256678	keystroke_i	i	n/a
128.474	0.09	256948	keystroke_n	n	n/a
128.639	0.105	257278	keystroke_e	e	n/a
128.774	0.09	257548	keystroke_Key.space	Key.space	n/a
129.149	0.045	258298	keystroke_a	a	n/a
129.269	0.06	258538	keystroke_l	l	n/a
129.494	0.06	258988	keystroke_e	e	n/a
129.734	0.09	259468	keystroke_x	x	n/a
130.004	0.09	260008	keystroke_Key.enter	Key.enter	n/a
130.098	6.147	260196	prompt	n/a	segments manuals emperor divide\n
130.904	0.075	261808	keystroke_s	s	n/a
131.084	0.0895	262168	keystroke_e	e	n/a
131.1885	0.075	262377	keystroke_g	g	n/a
131.4435	0.09	262887	keystroke_m	m	n/a
131.5635	0.1055	263127	keystroke_e	e	n/a
131.669	0.09	263338	keystroke_n	n	n/a
131.804	0.075	263608	keystroke_t	t	n/a
132.059	0.06	264118	keystroke_s	s	n/a
132.149	0.075	264298	keystroke_Key.space	Key.space	n/a
132.464	0.045	264928	keystroke_m	m	n/a
132.569	0.075	265138	keystroke_a	a	n/a
132.689	0.075	265378	keystroke_n	n	n/a
132.839	0.09	265678	keystroke_u	u	n/a
133.034	0.09	266068	keystroke_a	a	n/a
133.154	0.075	266308	keystroke_l	l	n/a
133.3195	0.074	266639	keystroke_s	s	n/a
133.4245	0.074	266849	keystroke_Key.space	Key.space	n/a
133.5595	0.0895	267119	keystroke_e	e	n/a
133.6335	0.0755	267267	keystroke_m	m	n/a
133.859	0.09	267718	keystroke_p	p	n/a
134.039	0.09	268078	keystroke_e	e	n/a
134.234	0.06	268468	keystroke_r	r	n/a
134.309	0.06	268618	keystroke_o	o	n/a
134.4435	0.09	268887	keystroke_r	r	n/a
134.5935	0.0905	269187	keystroke_Key.space	Key.space	n/a
134.9235	0.09	269847	keystroke_d	d	n/a
135.0285	0.075	270057	keystroke_i	i	n/a
135.1935	0.06	270387	keystroke_v	v	n/a
135.2985	0.09	270597	keystroke_i	i	n/a
135.5385	0.06	271077	keystroke_d	d	n/a
135.7035	0.075	271407	keystroke_e	e	n/a
136.1535	0.09	272307	keystroke_Key.enter	Key.enter	n/a
136.2485	7.587	272497	prompt	n/a	politics massive organizations wikipedia\n
137.0385	0.06	274077	keystroke_p	p	n/a
137.2035	0.09	274407	keystroke_o	o	n/a
137.4145	0.0595	274829	keystroke_l	l	n/a
137.579	0.0605	275158	keystroke_i	i	n/a
137.6985	0.091	275397	keystroke_t	t	n/a
137.8035	0.075	275607	keystroke_i	i	n/a
138.0435	0.06	276087	keystroke_c	c	n/a
138.2235	0.075	276447	keystroke_s	s	n/a
138.3135	0.09	276627	keystroke_Key.space	Key.space	n/a
138.4795	0.089	276959	keystroke_m	m	n/a
138.5835	0.076	277167	keystroke_a	a	n/a
138.7785	0.0605	277557	keystroke_s	s	n/a
138.929	0.09	277858	keystroke_s	s	n/a
139.034	0.045	278068	keystroke_i	i	n/a
139.169	0.075	278338	keystroke_v	v	n/a
139.304	0.135	278608	keystroke_e	e	n/a
139.454	0.0755	278908	keystroke_Key.space	Key.space	n/a
139.6345	0.075	279269	keystroke_o	o	n/a
139.7545	0.09	279509	keystroke_r	r	n/a
139.9645	0.06	279929	keystroke_g	g	n/a
140.204	0.105	280408	keystroke_a	a	n/a
140.294	0.075	280588	keystroke_n	n	n/a
140.459	0.075	280918	keystroke_i	i	n/a
140.594	0.06	281188	keystroke_z	z	n/a
140.789	0.09	281578	keystroke_a	a	n/a
141.029	0.075	282058	keystroke_t	t	n/a
141.134	0.09	282268	keystroke_i	i	n/a
141.314	0.06	282628	keystroke_o	o	n/a
141.494	0.06	282988	keystroke_n	n	n/a
141.599	0.075	283198	keystroke_s	s	n/a
141.734	0.075	283468	keystroke_Key.space	Key.space	n/a
141.899	0.075	283798	keystroke_w	w	n/a
142.019	0.045	284038	keystroke_i	i	n/a
142.169	0.075	284338	keystroke_k	k	n/a
142.319	0.09	284638	keystroke_i	i	n/a
142.559	0.075	285118	keystroke_p	p	n/a
142.679	0.075	285358	keystroke_e	e	n/a
142.859	0.06	285718	keystroke_d	d	n/a
142.949	0.09	285898	keystroke_i	i	n/a
143.129	0.075	286258	keystroke_a	a	n/a
143.729	0.105	287458	keystroke_Key.enter	Key.enter	n/a
143.84	7.24	287680	prompt	n/a	mile collectible widespread back\n
144.434	0.06	288868	keystroke_m	m	n/a
144.539	0.105	289078	keystroke_i	i	n/a
144.779	0.075	289558	keystroke_l	l	n/a
144.884	0.09	289768	keystroke_e	e	n/a
145.079	0.105	290158	keystroke_Key.space	Key.space	n/a
145.244	0.105	290488	keystroke_c	c	n/a
145.364	0.06	290728	keystroke_o	o	n/a
145.544	0.06	291088	keystroke_l	l	n/a
145.664	0.09	291328	keystroke_l	l	n/a
145.739	0.09	291478	keystroke_e	e	n/a
145.889	0.12	291778	keystroke_c	c	n/a
146.144	0.09	292288	keystroke_t	t	n/a
146.279	0.075	292558	keystroke_i	i	n/a
146.489	0.06	292978	keystroke_b	b	n/a
146.699	0.06	293398	keystroke_l	l	n/a
146.819	0.075	293638	keystroke_e	e	n/a
146.909	0.0745	293818	keystroke_Key.space	Key.space	n/a
147.1935	0.091	294387	keystroke_w	w	n/a
147.2985	0.09	294597	keystroke_i	i	n/a
147.659	0.09	295318	keystroke_d	d	n/a
147.779	0.105	295558	keystroke_e	e	n/a
148.109	0.075	296218	keystroke_s	s	n/a
148.229	0.06	296458	keystroke_p	p	n/a
148.499	0.09	296998	keystroke_r	r	n/a
148.604	0.105	297208	keystroke_e	e	n/a
148.784	0.105	297568	keystroke_a	a	n/a
149.009	0.06	298018	keystroke_d	d	n/a
149.114	0.09	298228	keystroke_Key.space	Key.space	n/a
149.324	0.06	298648	keystroke_b	b	n/a
149.459	0.0745	298918	keystroke_a	a	n/a
149.6685	0.06	299337	keystroke_c	c	n/a
149.7435	0.09	299487	keystroke_k	k	n/a
151.0035	0.075	302007	keystroke_Key.enter	Key.enter	n/a
151.083	6.5675	302166	prompt	n/a	template impression circular chicks\n
151.9185	0.075	303837	keystroke_t	t	n/a
152.0685	0.09	304137	keystroke_e	e	n/a
152.1585	0.09	304317	keystroke_m	m	n/a
152.3535	0.075	304707	keystroke_p	p	n/a
152.5335	0.09	305067	keystroke_l	l	n/a
152.654	0.105	305308	keystroke_a	a	n/a
152.8785	0.06	305757	keystroke_t	t	n/a
152.984	0.0745	305968	keystroke_e	e	n/a
153.1485	0.075	306297	keystroke_Key.space	Key.space	n/a
153.2985	0.0755	306597	keystroke_i	i	n/a
153.4935	0.09	306987	keystroke_m	m	n/a
153.7185	0.075	307437	keystroke_p	p	n/a
153.8685	0.12	307737	keystroke_r	r	n/a
153.9735	0.09	307947	keystroke_e	e	n/a
154.2585	0.06	308517	keystroke_s	s	n/a
154.4085	0.06	308817	keystroke_s	s	n/a
154.4835	0.0755	308967	keystroke_i	i	n/a
154.6485	0.0595	309297	keystroke_o	o	n/a
154.828	0.0755	309656	keystroke_n	n	n/a
154.9335	0.0895	309867	keystroke_Key.space	Key.space	n/a
155.1735	0.09	310347	keystroke_c	c	n/a
155.2785	0.075	310557	keystroke_i	i	n/a
155.3845	0.0895	310769	keystroke_r	r	n/a
155.639	0.09	311278	keystroke_c	c	n/a
155.744	0.075	311488	keystroke_u	u	n/a
155.954	0.045	311908	keystroke_l	l	n/a
156.044	0.105	312088	keystroke_a	a	n/a
156.224	0.075	312448	keystroke_r	r	n/a
156.344	0.075	312688	keystroke_Key.space	Key.space	n/a
156.509	0.075	313018	keystroke_c	c	n/a
156.569	0.075	313138	keystroke_h	h	n/a
156.689	0.075	313378	keystroke_i	i	n/a
156.794	0.09	313588	keystroke_c	c	n/a
156.899	0.075	313798	keystroke_k	k	n/a
157.034	0.09	314068	keystroke_s	s	n/a
157.589	0.06	315178	keystroke_Key.enter	Key.enter	n/a
157.6545	5.531	315309	prompt	n/a	stays homepage rendered alliance\n
158.3235	0.045	316647	keystroke_s	s	n/a
158.4885	0.0605	316977	keystroke_t	t	n/a
158.6835	0.0905	317367	keystroke_a	a	n/a
158.759	0.09	317518	keystroke_y	y	n/a
158.909	0.09	317818	keystroke_s	s	n/a
159.029	0.09	318058	keystroke_Key.space	Key.space	n/a
159.194	0.075	318388	keystroke_h	h	n/a
159.344	0.075	318688	keystroke_o	o	n/a
159.524	0.075	319048	keystroke_m	m	n/a
159.614	0.075	319228	keystroke_e	e	n/a
159.734	0.075	319468	keystroke_p	p	n/a
159.884	0.09	319768	keystroke_a	a	n/a
160.049	0.075	320098	keystroke_g	g	n/a
160.169	0.09	320338	keystroke_e	e	n/a
160.289	0.075	320578	keystroke_Key.space	Key.space	n/a
160.439	0.105	320878	keystroke_r	r	n/a
160.559	0.09	321118	keystroke_e	e	n/a
160.664	0.09	321328	keystroke_n	n	n/a
160.829	0.075	321658	keystroke_d	d	n/a
160.979	0.135	321958	keystroke_e	e	n/a
161.129	0.12	322258	keystroke_r	r	n/a
161.294	0.045	322588	keystroke_e	e	n/a
161.4735	0.075	322947	keystroke_d	d	n/a
161.5935	0.0755	323187	keystroke_Key.space	Key.space	n/a
161.804	0.089	323608	keystroke_a	a	n/a
161.909	0.03	323818	keystroke_l	l	n/a
162.014	0.075	324028	keystroke_l	l	n/a
162.194	0.06	324388	keystroke_i	i	n/a
162.299	0.105	324598	keystroke_a	a	n/a
162.404	0.075	324808	keystroke_n	n	n/a
162.524	0.075	325048	keystroke_c	c	n/a
162.674	0.075	325348	keystroke_e	e	n/a
163.109	0.075	326218	keystroke_Key.enter	Key.enter	n/a
163.188	5.9375	326376	prompt	n/a	common peace degrees dozen\n
164.3685	0.076	328737	keystroke_c	c	n/a
164.4295	0.06	328859	keystroke_o	o	n/a
164.609	0.06	329218	keystroke_m	m	n/a
164.744	0.045	329488	keystroke_m	m	n/a
164.849	0.06	329698	keystroke_o	o	n/a
164.999	0.075	329998	keystroke_n	n	n/a
165.089	0.09	330178	keystroke_Key.space	Key.space	n/a
165.299	0.075	330598	keystroke_p	p	n/a
165.449	0.075	330898	keystroke_e	e	n/a
165.599	0.075	331198	keystroke_a	a	n/a
165.794	0.06	331588	keystroke_c	c	n/a
165.914	0.105	331828	keystroke_e	e	n/a
166.034	0.09	332068	keystroke_Key.space	Key.space	n/a
166.229	0.075	332458	keystroke_d	d	n/a
166.364	0.105	332728	keystroke_e	e	n/a
166.6185	0.075	333237	keystroke_g	g	n/a
166.7235	0.09	333447	keystroke_r	r	n/a
166.8285	0.075	333657	keystroke_e	e	n/a
167.0235	0.075	334047	keystroke_e	e	n/a
167.2935	0.09	334587	keystroke_s	s	n/a
167.534	0.075	335068	keystroke_Key.space	Key.space	n/a
167.819	0.0745	335638	keystroke_d	d	n/a
167.8785	0.09	335757	keystroke_o	o	n/a
168.1035	0.09	336207	keystroke_z	z	n/a
168.3285	0.075	336657	keystroke_e	e	n/a
168.3735	0.12	336747	keystroke_n	n	n/a
169.034	0.09	338068	keystroke_Key.enter	Key.enter	n/a
169.128	6.0575	338256	prompt	n/a	dense hidden issues roommate\n
169.7235	0.105	339447	keystroke_d	d	n/a
169.9035	0.09	339807	keystroke_e	e	n/a
169.9785	0.09	339957	keystroke_n	n	n/a
170.144	0.09	340288	keystroke_s	s	n/a
170.294	0.09	340588	keystroke_e	e	n/a
170.429	0.045	340858	keystroke_Key.space	Key.space	n/a
170.564	0.06	341128	keystroke_h	h	n/a
170.669	0.09	341338	keystroke_i	i	n/a
170.789	0.09	341578	keystroke_d	d	n/a
170.939	0.135	341878	keystroke_d	d	n/a
171.104	0.105	342208	keystroke_e	e	n/a
171.239	0.075	342478	keystroke_n	n	n/a
171.329	0.105	342658	keystroke_Key.space	Key.space	n/a
171.689	0.075	343378	keystroke_i	i	n/a
171.899	0.075	343798	keystroke_s	s	n/a
172.064	0.06	344128	keystroke_s	s	n/a
172.154	0.09	344308	keystroke_u	u	n/a
172.274	0.075	344548	keystroke_e	e	n/a
172.469	0.075	344938	keystroke_s	s	n/a
172.574	0.09	345148	keystroke_Key.space	Key.space	n/a
172.754	0.075	345508	keystroke_r	r	n/a
172.844	0.045	345688	keystroke_o	o	n/a
172.964	0.06	345928	keystroke_o	o	n/a
173.129	0.09	346258	keystroke_m	m	n/a
173.279	0.09	346558	keystroke_a	a	n/a
173.9685	0.045	347937	keystroke_Key.backspace	Key.backspace	n/a
174.254	0.075	348508	keystroke_m	m	n/a
174.359	0.075	348718	keystroke_a	a	n/a
174.554	0.0745	349108	keystroke_t	t	n/a
174.6885	0.09	349377	keystroke_e	e	n/a
175.1085	0.075	350217	keystroke_Key.enter	Key.enter	n/a
175.188	6.1325	350376	prompt	n/a	serum charged russia recording\n
176.1135	0.09	352227	keystroke_s	s	n/a
176.3535	0.15	352707	keystroke_e	e	n/a
176.5635	0.045	353127	keystroke_r	r	n/a
176.7285	0.105	353457	keystroke_u	u	n/a
177.0435	0.105	354087	keystroke_m	m	n/a
177.2535	0.075	354507	keystroke_Key.space	Key.space	n/a
177.524	0.09	355048	keystroke_c	c	n/a
177.629	0.09	355258	keystroke_h	h	n/a
177.734	0.075	355468	keystroke_a	a	n/a
177.884	0.075	355768	keystroke_r	r	n/a
177.989	0.06	355978	keystroke_g	g	n/a
178.064	0.075	356128	keystroke_e	e	n/a
178.244	0.09	356488	keystroke_d	d	n/a
178.349	0.09	356698	keystroke_Key.space	Key.space	n/a
178.469	0.09	356938	keystroke_r	r	n/a
178.574	0.075	357148	keystroke_u	u	n/a
178.724	0.06	357448	keystroke_s	s	n/a
178.874	0.045	357748	keystroke_s	s	n/a
178.979	0.075	357958	keystroke_i	i	n/a
179.114	0.105	358228	keystroke_a	a	n/a
179.249	0.09	358498	keystroke_Key.space	Key.space	n/a
179.534	0.09	359068	keystroke_r	r	n/a
179.654	0.075	359308	keystroke_e	e	n/a
179.864	0.09	359728	keystroke_c	c	n/a
179.999	0.075	359998	keystroke_o	o	n/a
180.164	0.09	360328	keystroke_r	r	n/a
180.373	0.061	360746	keystroke_d	d	n/a
180.449	0.06	360898	keystroke_i	i	n/a
180.569	0.09	361138	keystroke_n	n	n/a
180.734	0.075	361468	keystroke_g	g	n/a
181.259	0.06	362518	keystroke_Key.enter	Key.enter	n/a
181.323	8.337	362646	prompt	n/a	crossing bulletin retailer humanitarian\n
182.084	0.105	364168	keystroke_c	c	n/a
182.294	0.075	364588	keystroke_r	r	n/a
182.384	0.075	364768	keystroke_o	o	n/a
182.549	0.075	365098	keystroke_s	s	n/a
182.714	0.09	365428	keystroke_s	s	n/a
182.834	0.075	365668	keystroke_i	i	n/a
182.969	0.075	365938	keystroke_n	n	n/a
183.074	0.075	366148	keystroke_g	g	n/a
183.164	0.09	366328	keystroke_Key.space	Key.space	n/a
183.464	0.075	366928	keystroke_b	b	n/a
183.689	0.09	367378	keystroke_u	u	n/a
183.944	0.045	367888	keystroke_l	l	n/a
184.049	0.09	368098	keystroke_l	l	n/a
184.304	0.075	368608	keystroke_e	e	n/a
184.529	0.075	369058	keystroke_t	t	n/a
184.619	0.075	369238	keystroke_i	i	n/a
184.799	0.075	369598	keystroke_n	n	n/a
184.964	0.09	369928	keystroke_Key.space	Key.space	n/a
185.1445	0.089	370289	keystroke_r	r	n/a
185.5485	0.06	371097	keystroke_t	t	n/a
185.909	0.06	371818	keystroke_Key.backspace	Key.backspace	n/a
186.029	0.105	372058	keystroke_e	e	n/a
186.209	0.075	372418	keystroke_t	t	n/a
186.434	0.09	372868	keystroke_a	a	n/a
186.5085	0.0905	373017	keystroke_i	i	n/a
186.7185	0.0755	373437	keystroke_l	l	n/a
186.8235	0.135	373647	keystroke_e	e	n/a
186.974	0.09	373948	keystroke_r	r	n/a
187.1085	0.105	374217	keystroke_Key.space	Key.space	n/a
187.3035	0.06	374607	keystroke_h	h	n/a
187.3485	0.075	374697	keystroke_u	u	n/a
187.7085	0.06	375417	keystroke_m	m	n/a
187.8285	0.105	375657	keystroke_a	a	n/a
187.9185	0.075	375837	keystroke_n	n	n/a
188.1135	0.06	376227	keystroke_i	i	n/a
188.2485	0.105	376497	keystroke_t	t	n/a
188.4885	0.12	376977	keystroke_a	a	n/a
188.6385	0.09	377277	keystroke_r	r	n/a
188.7435	0.09	377487	keystroke_i	i	n/a
188.8785	0.09	377757	keystroke_a	a	n/a
188.9835	0.075	377967	keystroke_n	n	n/a
189.5835	0.075	379167	keystroke_Key.enter	Key.enter	n/a
189.663	14.8175	379326	prompt	n/a	various romania directors limousines\n
190.5435	0.06	381087	keystroke_v	v	n/a
190.7535	0.105	381507	keystroke_a	a	n/a
190.9335	0.075	381867	keystroke_r	r	n/a
191.0385	0.075	382077	keystroke_i	i	n/a
191.2935	0.015	382587	keystroke_o	o	n/a
191.3235	0.03	382647	keystroke_o	o	n/a
191.3385	0.075	382677	keystroke_u	u	n/a
191.4735	0.09	382947	keystroke_s	s	n/a
191.6235	0.105	383247	keystroke_Key.space	Key.space	n/a
191.9235	0.075	383847	keystroke_r	r	n/a
192.0135	0.06	384027	keystroke_o	o	n/a
192.1785	0.105	384357	keystroke_m	m	n/a
192.3135	0.09	384627	keystroke_a	a	n/a
192.4185	0.06	384837	keystroke_n	n	n/a
192.5835	0.075	385167	keystroke_i	i	n/a
192.7035	0.09	385407	keystroke_a	a	n/a
194.4135	0.06	388827	keystroke_Key.backspace	Key.backspace	n/a
194.759	0.075	389518	keystroke_Key.backspace	Key.backspace	n/a
195.119	0.06	390238	keystroke_Key.backspace	Key.backspace	n/a
195.464	0.075	390928	keystroke_Key.backspace	Key.backspace	n/a
195.809	0.075	391618	keystroke_Key.backspace	Key.backspace	n/a
196.169	0.09	392338	keystroke_Key.backspace	Key.backspace	n/a
196.499	0.09	392998	keystroke_Key.backspace	Key.backspace	n/a
196.844	0.075	393688	keystroke_Key.backspace	Key.backspace	n/a
197.174	0.09	394348	keystroke_Key.backspace	Key.backspace	n/a
197.5485	0.1055	395097	keystroke_Key.backspace	Key.backspace	n/a
197.9985	0.09	395997	keystroke_Key.backspace	Key.backspace	n/a
198.6735	0.06	397347	keystroke_u	u	n/a
199.0185	0.06	398037	keystroke_s	s	n/a
199.4985	0.075	398997	keystroke_Key.space	Key.space	n/a
199.7385	0.09	399477	keystroke_r	r	n/a
199.9485	0.075	399897	keystroke_o	o	n/a
200.1435	0.09	400287	keystroke_m	m	n/a
200.2485	0.105	400497	keystroke_a	a	n/a
200.3385	0.06	400677	keystroke_n	n	n/a
200.4585	0.09	400917	keystroke_i	i	n/a
200.5935	0.09	401187	keystroke_a	a	n/a
200.6985	0.09	401397	keystroke_Key.space	Key.space	n/a
201.209	0.09	402418	keystroke_d	d	n/a
201.284	0.09	402568	keystroke_i	i	n/a
201.434	0.075	402868	keystroke_r	r	n/a
201.569	0.09	403138	keystroke_e	e	n/a
201.779	0.075	403558	keystroke_c	c	n/a
201.989	0.075	403978	keystroke_t	t	n/a
202.094	0.075	404188	keystroke_o	o	n/a
202.199	0.075	404398	keystroke_r	r	n/a
202.424	0.075	404848	keystroke_s	s	n/a
202.529	0.105	405058	keystroke_Key.space	Key.space	n/a
202.724	0.06	405448	keystroke_l	l	n/a
202.8895	0.06	405779	keystroke_i	i	n/a
203.0245	0.06	406049	keystroke_m	m	n/a
203.1895	0.135	406379	keystroke_o	o	n/a
203.2935	0.091	406587	keystroke_u	u	n/a
203.4745	0.0745	406949	keystroke_s	s	n/a
203.6685	0.06	407337	keystroke_i	i	n/a
203.7885	0.09	407577	keystroke_n	n	n/a
203.9085	0.09	407817	keystroke_e	e	n/a
204.1185	0.09	408237	keystroke_s	s	n/a
204.3885	0.09	408777	keystroke_Key.enter	Key.enter	n/a
204.4835	7.3165	408967	prompt	n/a	controller complicated humanitarian idol\n
205.1535	0.09	410307	keystroke_c	c	n/a
205.2285	0.075	410457	keystroke_o	o	n/a
205.3935	0.09	410787	keystroke_n	n	n/a
205.4985	0.105	410997	keystroke_t	t	n/a
205.6785	0.09	411357	keystroke_r	r	n/a
205.7985	0.0755	411597	keystroke_o	o	n/a
205.979	0.075	411958	keystroke_l	l	n/a
206.099	0.09	412198	keystroke_l	l	n/a
206.204	0.12	412408	keystroke_e	e	n/a
206.309	0.105	412618	keystroke_r	r	n/a
206.428	0.091	412856	keystroke_Key.space	Key.space	n/a
206.594	0.075	413188	keystroke_c	c	n/a
206.639	0.09	413278	keystroke_o	o	n/a
206.789	0.105	413578	keystroke_m	m	n/a
206.999	0.06	413998	keystroke_p	p	n/a
207.179	0.0605	414358	keystroke_l	l	n/a
207.3295	0.0745	414659	keystroke_i	i	n/a
207.434	0.075	414868	keystroke_c	c	n/a
207.614	0.075	415228	keystroke_a	a	n/a
207.794	0.09	415588	keystroke_t	t	n/a
207.944	0.075	415888	keystroke_e	e	n/a
208.124	0.09	416248	keystroke_d	d	n/a
208.244	0.1045	416488	keystroke_Key.space	Key.space	n/a
208.3935	0.09	416787	keystroke_h	h	n/a
208.5135	0.105	417027	keystroke_u	u	n/a
208.739	0.075	417478	keystroke_m	m	n/a
208.859	0.105	417718	keystroke_a	a	n/a
208.949	0.06	417898	keystroke_n	n	n/a
209.084	0.075	418168	keystroke_i	i	n/a
209.219	0.075	418438	keystroke_t	t	n/a
209.429	0.09	418858	keystroke_a	a	n/a
209.579	0.105	419158	keystroke_r	r	n/a
209.729	0.09	419458	keystroke_i	i	n/a
210.134	0.075	420268	keystroke_a	a	n/a
210.224	0.09	420448	keystroke_n	n	n/a
210.329	0.09	420658	keystroke_Key.space	Key.space	n/a
210.554	0.075	421108	keystroke_i	i	n/a
210.8245	0.089	421649	keystroke_d	d	n/a
210.8995	0.074	421799	keystroke_o	o	n/a
211.1095	0.075	422219	keystroke_l	l	n/a
211.7235	0.075	423447	keystroke_Key.enter	Key.enter	n/a
211.804	7.3465	423608	prompt	n/a	charles attach mobility surprise\n
212.399	0.075	424798	keystroke_c	c	n/a
212.489	0.075	424978	keystroke_h	h	n/a
212.594	0.09	425188	keystroke_a	a	n/a
212.714	0.09	425428	keystroke_r	r	n/a
212.819	0.075	425638	keystroke_l	l	n/a
212.999	0.075	425998	keystroke_e	e	n/a
213.224	0.075	426448	keystroke_s	s	n/a
213.374	0.075	426748	keystroke_Key.space	Key.space	n/a
213.539	0.06	427078	keystroke_a	a	n/a
213.719	0.075	427438	keystroke_t	t	n/a
213.869	0.09	427738	keystroke_t	t	n/a
214.064	0.075	428128	keystroke_a	a	n/a
214.244	0.09	428488	keystroke_c	c	n/a
214.349	0.09	428698	keystroke_h	h	n/a
215.999	0.075	431998	keystroke_Key.space	Key.space	n/a
216.254	0.075	432508	keystroke_m	m	n/a
216.389	0.075	432778	keystroke_o	o	n/a
216.5685	0.06	433137	keystroke_b	b	n/a
216.7185	0.06	433437	keystroke_i	i	n/a
216.9135	0.06	433827	keystroke_l	l	n/a
217.0785	0.075	434157	keystroke_i	i	n/a
217.2285	0.075	434457	keystroke_t	t	n/a
217.3185	0.075	434637	keystroke_y	y	n/a
217.4535	0.09	434907	keystroke_Key.space	Key.space	n/a
217.8435	0.076	435687	keystroke_s	s	n/a
217.9035	0.09	435807	keystroke_u	u	n/a
218.0245	0.074	436049	keystroke_r	r	n/a
218.1585	0.076	436317	keystroke_p	p	n/a
218.2795	0.105	436559	keystroke_r	r	n/a
218.4145	0.075	436829	keystroke_i	i	n/a
218.5335	0.09	437067	keystroke_s	s	n/a
218.6985	0.075	437397	keystroke_e	e	n/a
219.0735	0.075	438147	keystroke_Key.enter	Key.enter	n/a
219.1535	7.587	438307	prompt	n/a	statistics compiled jersey treatments\n
219.734	0.09	439468	keystroke_s	s	n/a
219.914	0.075	439828	keystroke_t	t	n/a
220.079	0.105	440158	keystroke_a	a	n/a
220.304	0.075	440608	keystroke_t	t	n/a
220.409	0.09	440818	keystroke_i	i	n/a
220.559	0.0745	441118	keystroke_s	s	n/a
220.7685	0.075	441537	keystroke_t	t	n/a
220.8735	0.09	441747	keystroke_i	i	n/a
221.0535	0.075	442107	keystroke_c	c	n/a
221.7745	0.059	443549	keystroke_s	s	n/a
221.9385	0.09	443877	keystroke_Key.space	Key.space	n/a
222.2985	0.075	444597	keystroke_c	c	n/a
222.3585	0.06	444717	keystroke_o	o	n/a
222.4935	0.105	444987	keystroke_m	m	n/a
222.7335	0.015	445467	keystroke_p	p	n/a
222.9135	0.09	445827	keystroke_i	i	n/a
223.1535	0.075	446307	keystroke_l	l	n/a
223.2885	0.075	446577	keystroke_e	e	n/a
223.4835	0.075	446967	keystroke_d	d	n/a
223.6035	0.105	447207	keystroke_Key.space	Key.space	n/a
223.7685	0.09	447537	keystroke_j	j	n/a
223.9335	0.105	447867	keystroke_e	e	n/a
224.0835	0.09	448167	keystroke_r	r	n/a
224.3085	0.09	448617	keystroke_s	s	n/a
224.4735	0.09	448947	keystroke_e	e	n/a
224.6235	0.076	449247	keystroke_y	y	n/a
224.7585	0.09	449517	keystroke_Key.space	Key.space	n/a
224.9685	0.075	449937	keystroke_t	t	n/a
225.1185	0.091	450237	keystroke_r	r	n/a
225.2385	0.09	450477	keystroke_e	e	n/a
225.4185	0.075	450837	keystroke_a	a	n/a
225.6135	0.075	451227	keystroke_t	t	n/a
225.7345	0.089	451469	keystroke_m	m	n/a
225.9285	0.076	451857	keystroke_e	e	n/a
226.019	0.0745	452038	keystroke_n	n	n/a
226.1235	0.09	452247	keystroke_t	t	n/a
226.3485	0.105	452697	keystroke_s	s	n/a
226.6485	0.09	453297	keystroke_Key.enter	Key.enter	n/a
226.745	6.1455	453490	prompt	n/a	angeles bloom radiation emails\n
227.4585	0.105	454917	keystroke_a	a	n/a
227.6385	0.075	455277	keystroke_n	n	n/a
227.8035	0.075	455607	keystroke_g	g	n/a
227.9535	0.075	455907	keystroke_e	e	n/a
228.0585	0.075	456117	keystroke_l	l	n/a
228.1635	0.09	456327	keystroke_e	e	n/a
228.4035	0.06	456807	keystroke_s	s	n/a
228.5535	0.12	457107	keystroke_Key.space	Key.space	n/a
229.1835	0.06	458367	keystroke_b	b	n/a
229.3935	0.06	458787	keystroke_l	l	n/a
229.5435	0.06	459087	keystroke_o	o	n/a
229.6635	0.06	459327	keystroke_o	o	n/a
229.7835	0.09	459567	keystroke_m	m	n/a
229.9185	0.105	459837	keystroke_Key.space	Key.space	n/a
230.0385	0.12	460077	keystroke_r	r	n/a
230.3685	0.09	460737	keystroke_a	a	n/a
230.5635	0.09	461127	keystroke_d	d	n/a
230.6685	0.075	461337	keystroke_i	i	n/a
230.8035	0.09	461607	keystroke_a	a	n/a
231.0435	0.09	462087	keystroke_t	t	n/a
231.1185	0.075	462237	keystroke_i	i	n/a
231.2685	0.06	462537	keystroke_o	o	n/a
231.4185	0.105	462837	keystroke_n	n	n/a
231.5385	0.06	463077	keystroke_Key.space	Key.space	n/a
231.6435	0.075	463287	keystroke_e	e	n/a
231.7485	0.09	463497	keystroke_m	m	n/a
231.8835	0.105	463767	keystroke_a	a	n/a
231.9585	0.09	463917	keystroke_i	i	n/a
232.1535	0.105	464307	keystroke_l	l	n/a
232.3185	0.09	464637	keystroke_s	s	n/a
232.8135	0.0755	465627	keystroke_Key.enter	Key.enter	n/a
232.894	9.4015	465788	prompt	n/a	clearly liability poem towns\n
233.894	0.09	467788	keystroke_c	c	n/a
234.014	0.09	468028	keystroke_l	l	n/a
234.164	0.0905	468328	keystroke_e	e	n/a
234.4795	0.105	468959	keystroke_a	a	n/a
234.6745	0.06	469349	keystroke_r	r	n/a
234.7195	0.075	469439	keystroke_l	l	n/a
234.9295	0.075	469859	keystroke_y	y	n/a
235.0195	0.09	470039	keystroke_Key.space	Key.space	n/a
235.3645	0.075	470729	keystroke_l	l	n/a
235.5445	0.09	471089	keystroke_i	i	n/a
235.7245	0.09	471449	keystroke_a	a	n/a
235.7995	0.059	471599	keystroke_b	b	n/a
235.9495	0.09	471899	keystroke_i	i	n/a
236.1745	0.06	472349	keystroke_l	l	n/a
236.3235	0.091	472647	keystroke_i	i	n/a
236.4745	0.09	472949	keystroke_t	t	n/a
236.5935	0.091	473187	keystroke_y	y	n/a
236.6985	0.075	473397	keystroke_Key.space	Key.space	n/a
236.9095	0.074	473819	keystroke_p	p	n/a
237.1045	0.074	474209	keystroke_o	o	n/a
237.4035	0.075	474807	keystroke_w	w	n/a
237.8085	0.045	475617	keystroke_Key.backspace	Key.backspace	n/a
237.9285	0.091	475857	keystroke_e	e	n/a
238.0945	0.104	476189	keystroke_n	n	n/a
238.4235	0.06	476847	keystroke_Key.backspace	Key.backspace	n/a
238.6795	0.089	477359	keystroke_m	m	n/a
238.9185	0.09	477837	keystroke_Key.space	Key.space	n/a
239.2635	0.075	478527	keystroke_t	t	n/a
239.3535	0.075	478707	keystroke_o	o	n/a
239.5035	0.076	479007	keystroke_w	w	n/a
239.5935	0.09	479187	keystroke_n	n	n/a
241.0485	0.09	482097	keystroke_s	s	n/a
242.1735	0.12	484347	keystroke_Key.enter	Key.enter	n/a
242.2985	5.817	484597	prompt	n/a	survivors they'd guest paris\n
242.9235	0.09	485847	keystroke_s	s	n/a
243.0285	0.075	486057	keystroke_u	u	n/a
243.1635	0.09	486327	keystroke_r	r	n/a
243.4035	0.075	486807	keystroke_v	v	n/a
243.5235	0.06	487047	keystroke_i	i	n/a
243.7035	0.075	487407	keystroke_v	v	n/a
243.8385	0.075	487677	keystroke_o	o	n/a
243.9585	0.075	487917	keystroke_r	r	n/a
244.1835	0.06	488367	keystroke_s	s	n/a
244.2735	0.09	488547	keystroke_Key.space	Key.space	n/a
244.4685	0.09	488937	keystroke_t	t	n/a
244.5135	0.105	489027	keystroke_h	h	n/a
244.6635	0.09	489327	keystroke_e	e	n/a
244.7545	0.104	489509	keystroke_y	y	n/a
245.0235	0.06	490047	keystroke_'	'	n/a
245.189	0.075	490378	keystroke_d	d	n/a
245.339	0.09	490678	keystroke_Key.space	Key.space	n/a
245.594	0.09	491188	keystroke_g	g	n/a
245.879	0.06	491758	keystroke_u	u	n/a
246.059	0.06	492118	keystroke_s	s	n/a
246.359	0.06	492718	keystroke_Key.backspace	Key.backspace	n/a
246.449	0.0905	492898	keystroke_e	e	n/a
246.6285	0.09	493257	keystroke_s	s	n/a
246.8535	0.06	493707	keystroke_t	t	n/a
246.9735	0.09	493947	keystroke_Key.space	Key.space	n/a
247.1835	0.075	494367	keystroke_p	p	n/a
247.2745	0.074	494549	keystroke_a	a	n/a
247.3935	0.1055	494787	keystroke_r	r	n/a
247.514	0.075	495028	keystroke_i	i	n/a
247.649	0.075	495298	keystroke_s	s	n/a
248.024	0.09	496048	keystroke_Key.enter	Key.enter	n/a
248.118	6.5975	496236	prompt	n/a	extraction wheels alabama character\n
248.924	0.09	497848	keystroke_e	e	n/a
249.179	0.105	498358	keystroke_x	x	n/a
249.419	0.075	498838	keystroke_t	t	n/a
249.584	0.09	499168	keystroke_r	r	n/a
249.764	0.06	499528	keystroke_a	a	n/a
249.944	0.075	499888	keystroke_c	c	n/a
250.169	0.075	500338	keystroke_t	t	n/a
250.259	0.09	500518	keystroke_i	i	n/a
250.439	0.045	500878	keystroke_o	o	n/a
250.589	0.075	501178	keystroke_n	n	n/a
250.664	0.075	501328	keystroke_Key.space	Key.space	n/a
250.754	0.075	501508	keystroke_w	w	n/a
250.844	0.075	501688	keystroke_h	h	n/a
250.949	0.09	501898	keystroke_e	e	n/a
251.129	0.075	502258	keystroke_e	e	n/a
251.234	0.075	502468	keystroke_l	l	n/a
251.384	0.075	502768	keystroke_s	s	n/a
251.489	0.09	502978	keystroke_Key.space	Key.space	n/a
251.624	0.075	503248	keystroke_a	a	n/a
251.774	0.06	503548	keystroke_l	l	n/a
251.864	0.075	503728	keystroke_a	a	n/a
252.074	0.045	504148	keystroke_b	b	n/a
252.224	0.075	504448	keystroke_a	a	n/a
252.329	0.075	504658	keystroke_m	m	n/a
252.479	0.09	504958	keystroke_a	a	n/a
252.629	0.075	505258	keystroke_Key.space	Key.space	n/a
252.779	0.075	505558	keystroke_c	c	n/a
252.869	0.075	505738	keystroke_h	h	n/a
252.959	0.075	505918	keystroke_a	a	n/a
253.094	0.075	506188	keystroke_r	r	n/a
253.244	0.09	506488	keystroke_a	a	n/a
253.439	0.075	506878	keystroke_c	c	n/a
253.664	0.075	507328	keystroke_t	t	n/a
253.844	0.12	507688	keystroke_e	e	n/a
253.964	0.105	507928	keystroke_r	r	n/a
254.639	0.075	509278	keystroke_Key.enter	Key.enter	n/a
254.7185	8.757	509437	prompt	n/a	paint referral twice judgment\n
255.359	0.075	510718	keystroke_p	p	n/a
255.449	0.105	510898	keystroke_a	a	n/a
255.584	0.075	511168	keystroke_i	i	n/a
255.7345	0.0745	511469	keystroke_n	n	n/a
255.839	0.075	511678	keystroke_t	t	n/a
255.959	0.0905	511918	keystroke_Key.space	Key.space	n/a
256.0945	0.12	512189	keystroke_r	r	n/a
256.1995	0.105	512399	keystroke_e	e	n/a
256.4245	0.075	512849	keystroke_f	f	n/a
256.5595	0.105	513119	keystroke_e	e	n/a
256.8145	0.06	513629	keystroke_r	r	n/a
256.9345	0.09	513869	keystroke_r	r	n/a
257.2645	0.075	514529	keystroke_a	a	n/a
257.3545	0.075	514709	keystroke_l	l	n/a
257.4595	0.09	514919	keystroke_Key.space	Key.space	n/a
257.6545	0.075	515309	keystroke_t	t	n/a
257.8495	0.075	515699	keystroke_w	w	n/a
257.9395	0.075	515879	keystroke_i	i	n/a
258.0445	0.105	516089	keystroke_c	c	n/a
258.1945	0.09	516389	keystroke_e	e	n/a
258.2845	0.09	516569	keystroke_Key.space	Key.space	n/a
258.4195	0.09	516839	keystroke_j	j	n/a
258.5845	0.075	517169	keystroke_u	u	n/a
258.7045	0.09	517409	keystroke_d	d	n/a
258.8245	0.075	517649	keystroke_g	g	n/a
258.9295	0.0895	517859	keystroke_e	e	n/a
259.0945	0.059	518189	keystroke_m	m	n/a
259.1835	0.091	518367	keystroke_e	e	n/a
259.3195	0.059	518639	keystroke_n	n	n/a
259.4385	0.0905	518877	keystroke_t	t	n/a
260.5935	0.045	521187	keystroke_Key.backspace	Key.backspace	n/a
260.8935	0.06	521787	keystroke_Key.backspace	Key.backspace	n/a
261.1785	0.075	522357	keystroke_Key.backspace	Key.backspace	n/a
261.4635	0.075	522927	keystroke_Key.backspace	Key.backspace	n/a
261.7635	0.075	523527	keystroke_Key.backspace	Key.backspace	n/a
262.7235	0.075	525447	keystroke_m	m	n/a
262.8285	0.09	525657	keystroke_e	e	n/a
262.9335	0.075	525867	keystroke_n	n	n/a
263.0985	0.06	526197	keystroke_t	t	n/a
263.3985	0.075	526797	keystroke_Key.enter	Key.enter	n/a
263.479	7.8565	526958	prompt	n/a	channels subscription pakistan planes\n
264.419	0.09	528838	keystroke_c	c	n/a
264.494	0.075	528988	keystroke_h	h	n/a
264.599	0.105	529198	keystroke_a	a	n/a
264.719	0.06	529438	keystroke_n	n	n/a
264.824	0.075	529648	keystroke_n	n	n/a
264.9445	0.09	529889	keystroke_e	e	n/a
265.0645	0.075	530129	keystroke_l	l	n/a
265.1995	0.09	530399	keystroke_s	s	n/a
265.3195	0.09	530639	keystroke_Key.space	Key.space	n/a
265.4695	0.09	530939	keystroke_s	s	n/a
265.5745	0.06	531149	keystroke_u	u	n/a
265.7695	0.06	531539	keystroke_b	b	n/a
265.8745	0.09	531749	keystroke_s	s	n/a
266.0545	0.105	532109	keystroke_c	c	n/a
266.2195	0.075	532439	keystroke_i	i	n/a
266.7295	0.06	533459	keystroke_Key.backspace	Key.backspace	n/a
266.9845	0.03	533969	keystroke_r	r	n/a
267.0595	0.09	534119	keystroke_i	i	n/a
267.2845	0.06	534569	keystroke_p	p	n/a
267.4495	0.075	534899	keystroke_t	t	n/a
267.5695	0.0745	535139	keystroke_i	i	n/a
267.7345	0.045	535469	keystroke_o	o	n/a
267.8995	0.059	535799	keystroke_n	n	n/a
267.9895	0.089	535979	keystroke_Key.space	Key.space	n/a
268.1845	0.06	536369	keystroke_p	p	n/a
268.3045	0.089	536609	keystroke_a	a	n/a
268.4245	0.075	536849	keystroke_k	k	n/a
268.5735	0.076	537147	keystroke_i	i	n/a
268.6645	0.075	537329	keystroke_s	s	n/a
268.8595	0.06	537719	keystroke_t	t	n/a
269.0385	0.076	538077	keystroke_a	a	n/a
269.1295	0.075	538259	keystroke_n	n	n/a
269.2185	0.105	538437	keystroke_Key.space	Key.space	n/a
269.3995	0.059	538799	keystroke_p	p	n/a
269.5795	0.06	539159	keystroke_l	l	n/a
269.6685	0.075	539337	keystroke_a	a	n/a
269.9085	0.075	539817	keystroke_n	n	n/a
270.0435	0.105	540087	keystroke_e	e	n/a
270.2835	0.075	540567	keystroke_s	s	n/a
271.274	0.06	542548	keystroke_Key.enter	Key.enter	n/a
271.3385	6.973	542677	prompt	n/a	dental aging nicaragua airfare\n
272.249	0.09	544498	keystroke_e	e	n/a
272.594	0.075	545188	keystroke_Key.backspace	Key.backspace	n/a
272.729	0.09	545458	keystroke_d	d	n/a
272.894	0.09	545788	keystroke_e	e	n/a
273.029	0.09	546058	keystroke_n	n	n/a
273.239	0.06	546478	keystroke_t	t	n/a
273.419	0.09	546838	keystroke_a	a	n/a
273.494	0.105	546988	keystroke_l	l	n/a
273.629	0.06	547258	keystroke_Key.space	Key.space	n/a
273.764	0.075	547528	keystroke_a	a	n/a
273.869	0.06	547738	keystroke_g	g	n/a
274.034	0.06	548068	keystroke_i	i	n/a
274.169	0.075	548338	keystroke_n	n	n/a
274.274	0.075	548548	keystroke_g	g	n/a
274.364	0.09	548728	keystroke_Key.space	Key.space	n/a
274.544	0.06	549088	keystroke_n	n	n/a
274.709	0.075	549418	keystroke_i	i	n/a
274.799	0.09	549598	keystroke_c	c	n/a
275.0095	0.075	550019	keystroke_a	a	n/a
275.189	0.06	550378	keystroke_r	r	n/a
275.339	0.09	550678	keystroke_a	a	n/a
275.669	0.06	551338	keystroke_g	g	n/a
275.729	0.105	551458	keystroke_u	u	n/a
275.954	0.09	551908	keystroke_a	a	n/a
276.119	0.075	552238	keystroke_Key.space	Key.space	n/a
276.299	0.075	552598	keystroke_a	a	n/a
276.434	0.06	552868	keystroke_i	i	n/a
276.764	0.075	553528	keystroke_r	r	n/a
277.259	0.075	554518	keystroke_f	f	n/a
277.604	0.06	555208	keystroke_a	a	n/a
277.799	0.09	555598	keystroke_r	r	n/a
277.904	0.075	555808	keystroke_e	e	n/a
278.234	0.075	556468	keystroke_Key.enter	Key.enter	n/a
278.3165	5.529	556633	prompt	n/a	alignment officers mpeg many\n
279.029	0.09	558058	keystroke_a	a	n/a
279.134	0.06	558268	keystroke_l	l	n/a
279.329	0.06	558658	keystroke_i	i	n/a
279.419	0.075	558838	keystroke_g	g	n/a
279.584	0.09	559168	keystroke_n	n	n/a
280.124	0.09	560248	keystroke_m	m	n/a
280.349	0.105	560698	keystroke_e	e	n/a
280.439	0.075	560878	keystroke_n	n	n/a
280.589	0.075	561178	keystroke_t	t	n/a
280.694	0.105	561388	keystroke_Key.space	Key.space	n/a
280.859	0.075	561718	keystroke_o	o	n/a
280.979	0.075	561958	keystroke_f	f	n/a
281.114	0.075	562228	keystroke_f	f	n/a
281.219	0.075	562438	keystroke_i	i	n/a
281.339	0.075	562678	keystroke_c	c	n/a
281.489	0.105	562978	keystroke_e	e	n/a
281.624	0.09	563248	keystroke_r	r	n/a
281.849	0.075	563698	keystroke_s	s	n/a
281.939	0.09	563878	keystroke_Key.space	Key.space	n/a
282.104	0.09	564208	keystroke_m	m	n/a
282.404	0.06	564808	keystroke_p	p	n/a
282.584	0.06	565168	keystroke_e	e	n/a
282.704	0.075	565408	keystroke_g	g	n/a
282.869	0.075	565738	keystroke_Key.space	Key.space	n/a
283.049	0.075	566098	keystroke_m	m	n/a
283.139	0.09	566278	keystroke_a	a	n/a
283.214	0.075	566428	keystroke_n	n	n/a
283.394	0.075	566788	keystroke_y	y	n/a
283.754	0.09	567508	keystroke_Key.enter	Key.enter	n/a
283.8485	5.817	567697	prompt	n/a	download dominant ancient polyester\n
284.414	0.075	568828	keystroke_d	d	n/a
284.504	0.06	569008	keystroke_o	o	n/a
284.639	0.075	569278	keystroke_w	w	n/a
284.729	0.06	569458	keystroke_n	n	n/a
284.924	0.075	569848	keystroke_l	l	n/a
285.104	0.045	570208	keystroke_o	o	n/a
285.194	0.09	570388	keystroke_a	a	n/a
285.404	0.105	570808	keystroke_d	d	n/a
285.524	0.09	571048	keystroke_Key.space	Key.space	n/a
285.809	0.09	571618	keystroke_d	d	n/a
285.884	0.06	571768	keystroke_o	o	n/a
286.109	0.015	572218	keystroke_m	m	n/a
286.184	0.06	572368	keystroke_i	i	n/a
286.319	0.075	572638	keystroke_n	n	n/a
286.424	0.075	572848	keystroke_a	a	n/a
286.514	0.09	573028	keystroke_n	n	n/a
286.679	0.075	573358	keystroke_t	t	n/a
286.784	0.075	573568	keystroke_Key.space	Key.space	n/a
286.919	0.09	573838	keystroke_a	a	n/a
286.994	0.075	573988	keystroke_n	n	n/a
287.144	0.09	574288	keystroke_c	c	n/a
287.264	0.075	574528	keystroke_i	i	n/a
287.369	0.105	574738	keystroke_e	e	n/a
287.519	0.075	575038	keystroke_n	n	n/a
287.654	0.075	575308	keystroke_t	t	n/a
287.744	0.075	575488	keystroke_Key.space	Key.space	n/a
287.909	0.075	575818	keystroke_p	p	n/a
288.104	0.06	576208	keystroke_o	o	n/a
288.269	0.06	576538	keystroke_l	l	n/a
288.449	0.075	576898	keystroke_y	y	n/a
288.584	0.09	577168	keystroke_e	e	n/a
288.809	0.045	577618	keystroke_s	s	n/a
289.004	0.075	578008	keystroke_t	t	n/a
289.124	0.075	578248	keystroke_e	e	n/a
289.214	0.09	578428	keystroke_r	r	n/a
289.604	0.06	579208	keystroke_Key.enter	Key.enter	n/a
289.6685	5.877	579337	prompt	n/a	attempts hours flashing dated\n
290.399	0.075	580798	keystroke_a	a	n/a
290.609	0.075	581218	keystroke_t	t	n/a
290.744	0.09	581488	keystroke_t	t	n/a
290.894	0.105	581788	keystroke_e	e	n/a
290.984	0.09	581968	keystroke_m	m	n/a
291.164	0.075	582328	keystroke_p	p	n/a
291.299	0.075	582598	keystroke_t	t	n/a
291.554	0.075	583108	keystroke_s	s	n/a
291.689	0.09	583378	keystroke_Key.space	Key.space	n/a
292.019	0.06	584038	keystroke_h	h	n/a
292.199	0.105	584398	keystroke_o	o	n/a
292.274	0.09	584548	keystroke_u	u	n/a
292.379	0.09	584758	keystroke_r	r	n/a
292.604	0.075	585208	keystroke_s	s	n/a
292.709	0.105	585418	keystroke_Key.space	Key.space	n/a
292.859	0.09	585718	keystroke_f	f	n/a
292.994	0.075	585988	keystroke_l	l	n/a
293.189	0.075	586378	keystroke_a	a	n/a
293.384	0.075	586768	keystroke_s	s	n/a
293.654	0.075	587308	keystroke_h	h	n/a
293.819	0.06	587638	keystroke_i	i	n/a
293.969	0.06	587938	keystroke_n	n	n/a
294.059	0.075	588118	keystroke_g	g	n/a
294.149	0.075	588298	keystroke_Key.space	Key.space	n/a
294.284	0.09	588568	keystroke_d	d	n/a
294.434	0.105	588868	keystroke_a	a	n/a
294.644	0.075	589288	keystroke_t	t	n/a
294.734	0.09	589468	keystroke_e	e	n/a
295.199	0.105	590398	keystroke_d	d	n/a
295.454	0.09	590908	keystroke_Key.enter	Key.enter	n/a
295.5495	5.711	591099	prompt	n/a	value diverse firms magazines\n
296.354	0.06	592708	keystroke_v	v	n/a
296.534	0.105	593068	keystroke_a	a	n/a
296.624	0.09	593248	keystroke_l	l	n/a
296.759	0.09	593518	keystroke_u	u	n/a
296.894	0.1195	593788	keystroke_e	e	n/a
297.0885	0.075	594177	keystroke_Key.space	Key.space	n/a
297.2835	0.075	594567	keystroke_d	d	n/a
297.3885	0.075	594777	keystroke_i	i	n/a
297.6285	0.075	595257	keystroke_v	v	n/a
297.7935	0.12	595587	keystroke_e	e	n/a
297.8985	0.075	595797	keystroke_r	r	n/a
298.1085	0.075	596217	keystroke_s	s	n/a
298.2585	0.075	596517	keystroke_e	e	n/a
298.4085	0.06	596817	keystroke_Key.space	Key.space	n/a
298.6485	0.06	597297	keystroke_f	f	n/a
298.7095	0.089	597419	keystroke_i	i	n/a
298.8735	0.09	597747	keystroke_r	r	n/a
298.9935	0.075	597987	keystroke_m	m	n/a
299.1735	0.075	598347	keystroke_s	s	n/a
299.3235	0.06	598647	keystroke_Key.space	Key.space	n/a
299.5035	0.105	599007	keystroke_m	m	n/a
299.6385	0.075	599277	keystroke_a	a	n/a
299.8185	0.06	599637	keystroke_g	g	n/a
299.9085	0.1055	599817	keystroke_a	a	n/a
300.1185	0.105	600237	keystroke_z	z	n/a
300.2085	0.075	600417	keystroke_i	i	n/a
300.3435	0.075	600687	keystroke_n	n	n/a
300.4335	0.09	600867	keystroke_e	e	n/a
300.7185	0.075	601437	keystroke_s	s	n/a
301.1985	0.06	602397	keystroke_Key.enter	Key.enter	n/a
301.263	5.607	602526	prompt	n/a	tribune signing clerk watch\n
301.8885	0.075	603777	keystroke_t	t	n/a
302.0685	0.075	604137	keystroke_r	r	n/a
302.1585	0.06	604317	keystroke_i	i	n/a
302.3235	0.075	604647	keystroke_b	b	n/a
302.4285	0.09	604857	keystroke_u	u	n/a
302.6835	0.06	605367	keystroke_n	n	n/a
302.7735	0.09	605547	keystroke_e	e	n/a
302.9235	0.0755	605847	keystroke_Key.space	Key.space	n/a
303.164	0.075	606328	keystroke_s	s	n/a
303.254	0.075	606508	keystroke_i	i	n/a
303.404	0.09	606808	keystroke_g	g	n/a
303.479	0.075	606958	keystroke_n	n	n/a
303.614	0.075	607228	keystroke_i	i	n/a
303.749	0.06	607498	keystroke_n	n	n/a
303.869	0.075	607738	keystroke_g	g	n/a
303.989	0.09	607978	keystroke_Key.space	Key.space	n/a
304.169	0.09	608338	keystroke_c	c	n/a
304.274	0.09	608548	keystroke_l	l	n/a
304.394	0.075	608788	keystroke_e	e	n/a
304.574	0.075	609148	keystroke_a	a	n/a
305.009	0.06	610018	keystroke_Key.backspace	Key.backspace	n/a
305.2335	0.061	610467	keystroke_r	r	n/a
305.3385	0.09	610677	keystroke_k	k	n/a
305.5935	0.075	611187	keystroke_Key.space	Key.space	n/a
305.8035	0.06	611607	keystroke_w	w	n/a
305.9385	0.106	611877	keystroke_a	a	n/a
306.1485	0.075	612297	keystroke_t	t	n/a
306.3885	0.075	612777	keystroke_c	c	n/a
306.4785	0.075	612957	keystroke_h	h	n/a
306.7785	0.09	613557	keystroke_Key.enter	Key.enter	n/a
306.8735	10.4815	613747	prompt	n/a	faculty cabin paragraphs any\n
307.7385	0.075	615477	keystroke_f	f	n/a
307.9335	0.06	615867	keystroke_a	a	n/a
308.1285	0.06	616257	keystroke_c	c	n/a
308.2185	0.075	616437	keystroke_u	u	n/a
308.3985	0.09	616797	keystroke_l	l	n/a
308.5485	0.09	617097	keystroke_t	t	n/a
308.7135	0.09	617427	keystroke_y	y	n/a
308.8335	0.075	617667	keystroke_Key.space	Key.space	n/a
309.0135	0.075	618027	keystroke_c	c	n/a
309.2085	0.075	618417	keystroke_a	a	n/a
309.2685	0.075	618537	keystroke_b	b	n/a
309.4335	0.075	618867	keystroke_i	i	n/a
309.5985	0.075	619197	keystroke_n	n	n/a
309.6885	0.09	619377	keystroke_Key.space	Key.space	n/a
309.8835	0.06	619767	keystroke_p	p	n/a
309.9735	0.075	619947	keystroke_a	a	n/a
310.0785	0.09	620157	keystroke_r	r	n/a
310.2735	0.09	620547	keystroke_a	a	n/a
310.4235	0.06	620847	keystroke_g	g	n/a
310.6935	0.045	621387	keystroke_r	r	n/a
310.8435	0.075	621687	keystroke_p	p	n/a
311.0985	0.06	622197	keystroke_a	a	n/a
311.1735	0.105	622347	keystroke_h	h	n/a
311.8035	0.045	623607	keystroke_Key.backspace	Key.backspace	n/a
311.9385	0.06	623877	keystroke_Key.backspace	Key.backspace	n/a
312.1485	0.075	624297	keystroke_h	h	n/a
312.2685	0.075	624537	keystroke_s	s	n/a
312.9885	0.09	625977	keystroke_Key.space	Key.space	n/a
314.5185	0.045	629037	keystroke_Key.backspace	Key.backspace	n/a
314.8335	0.045	629667	keystroke_Key.backspace	Key.backspace	n/a
315.1035	0.075	630207	keystroke_Key.backspace	Key.backspace	n/a
315.3885	0.075	630777	keystroke_Key.backspace	Key.backspace	n/a
315.6735	0.06	631347	keystroke_a	a	n/a
315.7635	0.06	631527	keystroke_p	p	n/a
315.9585	0.075	631917	keystroke_h	h	n/a
316.0785	0.09	632157	keystroke_s	s	n/a
316.2885	0.075	632577	keystroke_Key.space	Key.space	n/a
316.4235	0.09	632847	keystroke_a	a	n/a
316.4985	0.075	632997	keystroke_n	n	n/a
316.6335	0.09	633267	keystroke_y	y	n/a
317.2785	0.075	634557	keystroke_Key.enter	Key.enter	n/a
317.359	5.006	634718	prompt	n/a	acid containers parking liver\n
318.1185	0.075	636237	keystroke_a	a	n/a
318.2985	0.075	636597	keystroke_c	c	n/a
318.4185	0.0755	636837	keystroke_i	i	n/a
318.569	0.0895	637138	keystroke_d	d	n/a
318.8685	0.09	637737	keystroke_Key.space	Key.space	n/a
319.0035	0.09	638007	keystroke_c	c	n/a
319.1085	0.06	638217	keystroke_o	o	n/a
319.2435	0.09	638487	keystroke_n	n	n/a
319.3485	0.075	638697	keystroke_t	t	n/a
319.5285	0.1055	639057	keystroke_a	a	n/a
319.6185	0.0605	639237	keystroke_i	i	n/a
319.754	0.09	639508	keystroke_n	n	n/a
319.874	0.105	639748	keystroke_e	e	n/a
320.009	0.12	640018	keystroke_r	r	n/a
320.234	0.09	640468	keystroke_s	s	n/a
320.339	0.105	640678	keystroke_Key.space	Key.space	n/a
320.504	0.105	641008	keystroke_p	p	n/a
320.594	0.09	641188	keystroke_a	a	n/a
320.714	0.105	641428	keystroke_r	r	n/a
320.804	0.06	641608	keystroke_k	k	n/a
320.939	0.06	641878	keystroke_i	i	n/a
321.059	0.075	642118	keystroke_n	n	n/a
321.164	0.09	642328	keystroke_g	g	n/a
321.239	0.075	642478	keystroke_Key.space	Key.space	n/a
321.479	0.015	642958	keystroke_l	l	n/a
321.569	0.075	643138	keystroke_i	i	n/a
321.659	0.105	643318	keystroke_v	v	n/a
321.899	0.105	643798	keystroke_e	e	n/a
322.019	0.09	644038	keystroke_r	r	n/a
322.244	0.12	644488	keystroke_Key.enter	Key.enter	n/a
322.368	6.822	644736	prompt	n/a	advertising announced portrait pacific\n
322.994	0.12	645988	keystroke_a	a	n/a
323.099	0.105	646198	keystroke_d	d	n/a
323.324	0.045	646648	keystroke_v	v	n/a
323.444	0.15	646888	keystroke_e	e	n/a
323.579	0.105	647158	keystroke_r	r	n/a
323.774	0.075	647548	keystroke_t	t	n/a
323.894	0.09	647788	keystroke_i	i	n/a
324.059	0.09	648118	keystroke_s	s	n/a
324.164	0.075	648328	keystroke_i	i	n/a
324.329	0.06	648658	keystroke_n	n	n/a
324.449	0.09	648898	keystroke_g	g	n/a
324.554	0.075	649108	keystroke_Key.space	Key.space	n/a
324.734	0.09	649468	keystroke_a	a	n/a
324.824	0.06	649648	keystroke_n	n	n/a
324.944	0.09	649888	keystroke_n	n	n/a
325.124	0.105	650248	keystroke_o	o	n/a
325.199	0.06	650398	keystroke_u	u	n/a
325.394	0.075	650788	keystroke_n	n	n/a
325.514	0.105	651028	keystroke_c	c	n/a
325.664	0.105	651328	keystroke_e	e	n/a
325.874	0.075	651748	keystroke_d	d	n/a
325.979	0.09	651958	keystroke_Key.space	Key.space	n/a
326.144	0.075	652288	keystroke_p	p	n/a
326.324	0.075	652648	keystroke_o	o	n/a
326.444	0.075	652888	keystroke_r	r	n/a
326.639	0.06	653278	keystroke_t	t	n/a
326.969	0.045	653938	keystroke_r	r	n/a
327.134	0.09	654268	keystroke_a	a	n/a
327.239	0.06	654478	keystroke_i	i	n/a
327.599	0.0895	655198	keystroke_t	t	n/a
327.7485	0.09	655497	keystroke_Key.space	Key.space	n/a
328.0335	0.075	656067	keystroke_p	p	n/a
328.1235	0.075	656247	keystroke_a	a	n/a
328.2735	0.09	656547	keystroke_c	c	n/a
328.3785	0.09	656757	keystroke_i	i	n/a
328.5285	0.075	657057	keystroke_f	f	n/a
328.6335	0.075	657267	keystroke_i	i	n/a
328.7685	0.075	657537	keystroke_c	c	n/a
329.0985	0.09	658197	keystroke_Key.enter	Key.enter	n/a
329.193	6.267	658386	prompt	n/a	hollywood reduction promo sunset\n
330.0135	0.06	660027	keystroke_h	h	n/a
330.1935	0.06	660387	keystroke_o	o	n/a
330.4035	0.045	660807	keystroke_l	l	n/a
330.5085	0.075	661017	keystroke_l	l	n/a
330.6585	0.105	661317	keystroke_y	y	n/a
330.8385	0.105	661677	keystroke_w	w	n/a
331.0335	0.06	662067	keystroke_o	o	n/a
331.1835	0.075	662367	keystroke_o	o	n/a
331.3335	0.09	662667	keystroke_d	d	n/a
331.6035	0.09	663207	keystroke_Key.space	Key.space	n/a
331.858	0.075	663716	keystroke_r	r	n/a
331.949	0.074	663898	keystroke_e	e	n/a
332.308	0.0755	664616	keystroke_d	d	n/a
332.4285	0.075	664857	keystroke_u	u	n/a
332.5645	0.089	665129	keystroke_c	c	n/a
332.8045	0.074	665609	keystroke_t	t	n/a
332.8645	0.074	665729	keystroke_i	i	n/a
332.9985	0.075	665997	keystroke_o	o	n/a
333.1785	0.076	666357	keystroke_n	n	n/a
333.2685	0.06	666537	keystroke_Key.space	Key.space	n/a
333.4335	0.06	666867	keystroke_p	p	n/a
333.5685	0.075	667137	keystroke_r	r	n/a
333.6585	0.075	667317	keystroke_o	o	n/a
333.8085	0.075	667617	keystroke_m	m	n/a
333.9435	0.075	667887	keystroke_o	o	n/a
334.2135	0.06	668427	keystroke_Key.space	Key.space	n/a
334.3335	0.091	668667	keystroke_s	s	n/a
334.4685	0.015	668937	keystroke_u	u	n/a
334.5585	0.075	669117	keystroke_n	n	n/a
334.7085	0.06	669417	keystroke_s	s	n/a
334.9635	0.015	669927	keystroke_e	e	n/a
335.0835	0.075	670167	keystroke_t	t	n/a
335.3835	0.075	670767	keystroke_Key.enter	Key.enter	n/a
335.463	6.9125	670926	prompt	n/a	pendant novels star technological\n
336.2085	0.06	672417	keystroke_p	p	n/a
336.3585	0.0755	672717	keystroke_e	e	n/a
336.5385	0.075	673077	keystroke_n	n	n/a
336.7035	0.06	673407	keystroke_d	d	n/a
336.8685	0.09	673737	keystroke_a	a	n/a
337.0335	0.09	674067	keystroke_n	n	n/a
337.2585	0.09	674517	keystroke_t	t	n/a
337.4535	0.06	674907	keystroke_Key.space	Key.space	n/a
337.7085	0.075	675417	keystroke_n	n	n/a
337.8885	0.075	675777	keystroke_o	o	n/a
338.0985	0.075	676197	keystroke_v	v	n/a
338.2785	0.075	676557	keystroke_e	e	n/a
338.3685	0.09	676737	keystroke_l	l	n/a
338.4885	0.075	676977	keystroke_Key.space	Key.space	n/a
338.6235	0.06	677247	keystroke_s	s	n/a
338.7885	0.075	677577	keystroke_t	t	n/a
338.9685	0.105	677937	keystroke_a	a	n/a
339.0885	0.105	678177	keystroke_r	r	n/a
339.2835	0.06	678567	keystroke_t	t	n/a
339.5985	0.0455	679197	keystroke_Key.backspace	Key.backspace	n/a
339.8835	0.075	679767	keystroke_Key.space	Key.space	n/a
340.0785	0.09	680157	keystroke_t	t	n/a
340.2435	0.09	680487	keystroke_e	e	n/a
340.4835	0.075	680967	keystroke_c	c	n/a
340.5735	0.075	681147	keystroke_h	h	n/a
340.7685	0.045	681537	keystroke_n	n	n/a
340.9035	0.075	681807	keystroke_o	o	n/a
341.1135	0.045	682227	keystroke_l	l	n/a
341.2485	0.06	682497	keystroke_o	o	n/a
341.3985	0.06	682797	keystroke_g	g	n/a
341.4735	0.06	682947	keystroke_i	i	n/a
341.6235	0.06	683247	keystroke_c	c	n/a
341.7885	0.0895	683577	keystroke_a	a	n/a
341.8635	0.105	683727	keystroke_l	l	n/a
342.3135	0.06	684627	keystroke_Key.enter	Key.enter	n/a
342.3785	6.492	684757	prompt	n/a	mathematics starts fairly visual\n
342.974	0.075	685948	keystroke_m	m	n/a
343.244	0.06	686488	keystroke_a	a	n/a
343.454	0.075	686908	keystroke_t	t	n/a
343.514	0.075	687028	keystroke_h	h	n/a
343.634	0.075	687268	keystroke_e	e	n/a
343.799	0.09	687598	keystroke_m	m	n/a
343.979	0.075	687958	keystroke_a	a	n/a
344.174	0.06	688348	keystroke_t	t	n/a
344.279	0.075	688558	keystroke_i	i	n/a
344.429	0.09	688858	keystroke_c	c	n/a
344.609	0.075	689218	keystroke_s	s	n/a
344.744	0.09	689488	keystroke_Key.space	Key.space	n/a
344.924	0.06	689848	keystroke_f	f	n/a
345.194	0.06	690388	keystroke_Key.backspace	Key.backspace	n/a
345.284	0.09	690568	keystroke_s	s	n/a
345.479	0.075	690958	keystroke_t	t	n/a
345.659	0.09	691318	keystroke_a	a	n/a
345.824	0.075	691648	keystroke_r	r	n/a
345.989	0.06	691978	keystroke_t	t	n/a
346.199	0.06	692398	keystroke_s	s	n/a
346.274	0.075	692548	keystroke_Key.space	Key.space	n/a
346.394	0.075	692788	keystroke_f	f	n/a
346.544	0.105	693088	keystroke_a	a	n/a
346.634	0.075	693268	keystroke_i	i	n/a
346.829	0.075	693658	keystroke_r	r	n/a
346.919	0.06	693838	keystroke_l	l	n/a
347.099	0.075	694198	keystroke_y	y	n/a
347.219	0.075	694438	keystroke_Key.space	Key.space	n/a
347.624	0.075	695248	keystroke_v	v	n/a
347.729	0.09	695458	keystroke_i	i	n/a
347.924	0.075	695848	keystroke_s	s	n/a
347.984	0.09	695968	keystroke_u	u	n/a
348.164	0.09	696328	keystroke_a	a	n/a
348.314	0.075	696628	keystroke_l	l	n/a
348.794	0.075	697588	keystroke_Key.enter	Key.enter	n/a
348.8735	6.747	697747	prompt	n/a	loads principle venezuela chronic\n
349.709	0.06	699418	keystroke_l	l	n/a
349.859	0.06	699718	keystroke_o	o	n/a
349.904	0.105	699808	keystroke_a	a	n/a
350.069	0.09	700138	keystroke_d	d	n/a
350.234	0.105	700468	keystroke_s	s	n/a
350.354	0.075	700708	keystroke_Key.space	Key.space	n/a
350.519	0.075	701038	keystroke_p	p	n/a
350.699	0.075	701398	keystroke_r	r	n/a
350.819	0.06	701638	keystroke_i	i	n/a
350.954	0.09	701908	keystroke_n	n	n/a
351.059	0.075	702118	keystroke_c	c	n/a
351.194	0.06	702388	keystroke_i	i	n/a
351.404	0.06	702808	keystroke_p	p	n/a
351.569	0.105	703138	keystroke_l	l	n/a
351.689	0.075	703378	keystroke_e	e	n/a
351.794	0.09	703588	keystroke_Key.space	Key.space	n/a
351.944	0.06	703888	keystroke_v	v	n/a
352.094	0.075	704188	keystroke_e	e	n/a
352.169	0.105	704338	keystroke_n	n	n/a
352.379	0.09	704758	keystroke_e	e	n/a
352.799	0.09	705598	keystroke_z	z	n/a
352.994	0.075	705988	keystroke_u	u	n/a
353.234	0.06	706468	keystroke_e	e	n/a
353.339	0.06	706678	keystroke_l	l	n/a
353.534	0.075	707068	keystroke_a	a	n/a
353.699	0.075	707398	keystroke_Key.space	Key.space	n/a
354.119	0.0905	708238	keystroke_c	c	n/a
354.2395	0.09	708479	keystroke_h	h	n/a
354.5235	0.075	709047	keystroke_r	r	n/a
354.6295	0.104	709259	keystroke_o	o	n/a
354.8095	0.059	709619	keystroke_n	n	n/a
354.9285	0.075	709857	keystroke_i	i	n/a
355.0795	0.09	710159	keystroke_c	c	n/a
355.5585	0.06	711117	keystroke_Key.enter	Key.enter	n/a
355.6245	12.401	711249	prompt	n/a	tops heel story forum\n
356.8335	0.09	713667	keystroke_t	t	n/a
356.9385	0.076	713877	keystroke_i	i	n/a
357.1485	0.061	714297	keystroke_o	o	n/a
357.2835	0.09	714567	keystroke_s	s	n/a
357.4485	0.09	714897	keystroke_Key.space	Key.space	n/a
357.6595	0.059	715319	keystroke_h	h	n/a
357.7785	0.075	715557	keystroke_e	e	n/a
357.9285	0.075	715857	keystroke_e	e	n/a
358.0485	0.06	716097	keystroke_l	l	n/a
358.1385	0.075	716277	keystroke_Key.space	Key.space	n/a
358.2585	0.075	716517	keystroke_s	s	n/a
358.4385	0.075	716877	keystroke_t	t	n/a
358.5435	0.076	717087	keystroke_o	o	n/a
358.6485	0.09	717297	keystroke_r	r	n/a
358.7535	0.075	717507	keystroke_y	y	n/a
358.8435	0.075	717687	keystroke_Key.space	Key.space	n/a
359.1435	0.03	718287	keystroke_f	f	n/a
359.7135	0.06	719427	keystroke_Key.backspace	Key.backspace	n/a
360.0285	0.06	720057	keystroke_Key.backspace	Key.backspace	n/a
360.3285	0.075	720657	keystroke_Key.backspace	Key.backspace	n/a
360.5985	0.075	721197	keystroke_Key.backspace	Key.backspace	n/a
360.9135	0.075	721827	keystroke_Key.backspace	Key.backspace	n/a
361.2135	0.075	722427	keystroke_Key.backspace	Key.backspace	n/a
361.5135	0.09	723027	keystroke_Key.backspace	Key.backspace	n/a
361.7985	0.075	723597	keystroke_Key.backspace	Key.backspace	n/a
362.0985	0.075	724197	keystroke_Key.backspace	Key.backspace	n/a
362.3685	0.075	724737	keystroke_Key.backspace	Key.backspace	n/a
362.6685	0.075	725337	keystroke_Key.backspace	Key.backspace	n/a
362.9385	0.075	725877	keystroke_Key.backspace	Key.backspace	n/a
363.2085	0.075	726417	keystroke_Key.backspace	Key.backspace	n/a
363.4635	0.075	726927	keystroke_Key.backspace	Key.backspace	n/a
363.7185	0.075	727437	keystroke_Key.backspace	Key.backspace	n/a
364.0185	0.075	728037	keystroke_Key.backspace	Key.backspace	n/a
364.6635	0.06	729327	keystroke_o	o	n/a
364.8585	0.045	729717	keystroke_p	p	n/a
365.3385	0.09	730677	keystroke_s	s	n/a
365.4735	0.075	730947	keystroke_Key.space	Key.space	n/a
365.639	0.0895	731278	keystroke_h	h	n/a
365.7885	0.06	731577	keystroke_e	e	n/a
365.9085	0.091	731817	keystroke_e	e	n/a
366.0135	0.075	732027	keystroke_l	l	n/a
366.1185	0.075	732237	keystroke_Key.space	Key.space	n/a
366.2235	0.09	732447	keystroke_s	s	n/a
366.4185	0.091	732837	keystroke_t	t	n/a
366.5385	0.075	733077	keystroke_o	o	n/a
366.6585	0.09	733317	keystroke_r	r	n/a
366.7935	0.075	733587	keystroke_y	y	n/a
366.8995	0.075	733799	keystroke_Key.space	Key.space	n/a
367.1085	0.091	734217	keystroke_f	f	n/a
367.1995	0.06	734399	keystroke_o	o	n/a
367.3185	0.061	734637	keystroke_r	r	n/a
367.3935	0.09	734787	keystroke_u	u	n/a
367.6335	0.06	735267	keystroke_m	m	n/a
367.9485	0.075	735897	keystroke_Key.enter	Key.enter	n/a
368.028	6.8675	736056	prompt	n/a	nowhere protocols conversation automatic\n
368.7885	0.075	737577	keystroke_n	n	n/a
368.9685	0.06	737937	keystroke_o	o	n/a
369.0885	0.09	738177	keystroke_w	w	n/a
369.1935	0.075	738387	keystroke_h	h	n/a
369.3285	0.06	738657	keystroke_e	e	n/a
369.4785	0.075	738957	keystroke_r	r	n/a
369.5685	0.075	739137	keystroke_e	e	n/a
369.7035	0.09	739407	keystroke_Key.space	Key.space	n/a
369.9885	0.075	739977	keystroke_p	p	n/a
370.0935	0.105	740187	keystroke_r	r	n/a
370.2135	0.075	740427	keystroke_o	o	n/a
370.3485	0.06	740697	keystroke_t	t	n/a
370.4385	0.0755	740877	keystroke_o	o	n/a
370.7385	0.075	741477	keystroke_c	c	n/a
370.8435	0.075	741687	keystroke_o	o	n/a
371.0385	0.075	742077	keystroke_l	l	n/a
371.1585	0.075	742317	keystroke_s	s	n/a
371.2785	0.09	742557	keystroke_Key.space	Key.space	n/a
371.5785	0.06	743157	keystroke_c	c	n/a
371.6535	0.075	743307	keystroke_o	o	n/a
371.8335	0.0755	743667	keystroke_n	n	n/a
371.924	0.06	743848	keystroke_v	v	n/a
372.044	0.18	744088	keystroke_e	e	n/a
372.194	0.105	744388	keystroke_r	r	n/a
372.419	0.06	744838	keystroke_s	s	n/a
372.599	0.09	745198	keystroke_a	a	n/a
372.779	0.09	745558	keystroke_t	t	n/a
372.884	0.075	745768	keystroke_i	i	n/a
373.034	0.075	746068	keystroke_o	o	n/a
373.214	0.075	746428	keystroke_n	n	n/a
373.274	0.09	746548	keystroke_Key.space	Key.space	n/a
373.379	0.09	746758	keystroke_a	a	n/a
373.484	0.09	746968	keystroke_u	u	n/a
373.604	0.09	747208	keystroke_t	t	n/a
373.739	0.06	747478	keystroke_o	o	n/a
373.889	0.075	747778	keystroke_m	m	n/a
374.024	0.075	748048	keystroke_a	a	n/a
374.204	0.075	748408	keystroke_t	t	n/a
374.384	0.06	748768	keystroke_i	i	n/a
374.489	0.09	748978	keystroke_c	c	n/a
374.804	0.09	749608	keystroke_Key.enter	Key.enter	n/a
374.902	6.068	749804	prompt	n/a	sleeve kids retailer they're\n
375.479	0.105	750958	keystroke_s	s	n/a
375.6435	0.0755	751287	keystroke_l	l	n/a
375.734	0.09	751468	keystroke_e	e	n/a
375.884	0.09	751768	keystroke_e	e	n/a
376.124	0.06	752248	keystroke_v	v	n/a
376.244	0.075	752488	keystroke_e	e	n/a
376.364	0.09	752728	keystroke_Key.space	Key.space	n/a
376.634	0.03	753268	keystroke_r	r	n/a
376.919	0.075	753838	keystroke_Key.backspace	Key.backspace	n/a
377.174	0.06	754348	keystroke_k	k	n/a
377.354	0.06	754708	keystroke_i	i	n/a
377.549	0.075	755098	keystroke_d	d	n/a
377.729	0.075	755458	keystroke_s	s	n/a
377.879	0.09	755758	keystroke_Key.space	Key.space	n/a
378.074	0.09	756148	keystroke_r	r	n/a
378.254	0.06	756508	keystroke_e	e	n/a
378.584	0.06	757168	keystroke_t	t	n/a
378.809	0.075	757618	keystroke_a	a	n/a
378.869	0.075	757738	keystroke_i	i	n/a
379.094	0.06	758188	keystroke_l	l	n/a
379.184	0.12	758368	keystroke_e	e	n/a
379.319	0.09	758638	keystroke_r	r	n/a
379.439	0.09	758878	keystroke_Key.space	Key.space	n/a
379.574	0.105	759148	keystroke_t	t	n/a
379.664	0.09	759328	keystroke_h	h	n/a
379.799	0.075	759598	keystroke_e	e	n/a
379.889	0.075	759778	keystroke_y	y	n/a
380.144	0.06	760288	keystroke_'	'	n/a
380.219	0.09	760438	keystroke_r	r	n/a
380.294	0.075	760588	keystroke_e	e	n/a
380.909	0.06	761818	keystroke_Key.enter	Key.enter	n/a
380.973	7.1075	761946	prompt	n/a	separate investigate dream canyon\n
381.584	0.0895	763168	keystroke_s	s	n/a
381.7785	0.105	763557	keystroke_e	e	n/a
381.8995	0.074	763799	keystroke_p	p	n/a
382.1985	0.09	764397	keystroke_a	a	n/a
382.3485	0.09	764697	keystroke_r	r	n/a
382.5135	0.075	765027	keystroke_a	a	n/a
382.6935	0.075	765387	keystroke_t	t	n/a
382.8135	0.135	765627	keystroke_e	e	n/a
382.9935	0.075	765987	keystroke_Key.space	Key.space	n/a
383.1735	0.06	766347	keystroke_i	i	n/a
383.3085	0.09	766617	keystroke_n	n	n/a
383.4285	0.09	766857	keystroke_v	v	n/a
383.5935	0.075	767187	keystroke_e	e	n/a
383.7885	0.075	767577	keystroke_s	s	n/a
383.9535	0.06	767907	keystroke_t	t	n/a
384.0285	0.075	768057	keystroke_i	i	n/a
384.2085	0.045	768417	keystroke_g	g	n/a
384.3885	0.075	768777	keystroke_a	a	n/a
384.7335	0.075	769467	keystroke_t	t	n/a
384.8385	0.09	769677	keystroke_e	e	n/a
385.0185	0.06	770037	keystroke_Key.space	Key.space	n/a
385.2435	0.03	770487	keystroke_s	s	n/a
385.499	0.0745	770998	keystroke_Key.backspace	Key.backspace	n/a
385.6335	0.09	771267	keystroke_d	d	n/a
385.8585	0.06	771717	keystroke_r	r	n/a
385.9335	0.075	771867	keystroke_e	e	n/a
386.1885	0.09	772377	keystroke_a	a	n/a
386.3085	0.09	772617	keystroke_m	m	n/a
386.4885	0.075	772977	keystroke_Key.space	Key.space	n/a
386.6235	0.075	773247	keystroke_c	c	n/a
386.8185	0.075	773637	keystroke_a	a	n/a
386.9235	0.105	773847	keystroke_n	n	n/a
387.1485	0.06	774297	keystroke_y	y	n/a
387.3735	0.06	774747	keystroke_o	o	n/a
387.5235	0.0755	775047	keystroke_n	n	n/a
388.004	0.075	776008	keystroke_Key.enter	Key.enter	n/a
388.083	10.2725	776166	prompt	n/a	museums conversion thou foundations\n
388.724	0.06	777448	keystroke_m	m	n/a
388.859	0.105	777718	keystroke_u	u	n/a
389.6395	0.104	779279	keystroke_s	s	n/a
390.1035	0.09	780207	keystroke_e	e	n/a
390.1785	0.076	780357	keystroke_u	u	n/a
390.3735	0.091	780747	keystroke_m	m	n/a
390.5095	0.089	781019	keystroke_s	s	n/a
390.7335	0.09	781467	keystroke_Key.space	Key.space	n/a
390.9745	0.074	781949	keystroke_c	c	n/a
391.0335	0.06	782067	keystroke_o	o	n/a
391.1985	0.075	782397	keystroke_n	n	n/a
391.3195	0.044	782639	keystroke_v	v	n/a
391.4545	0.134	782909	keystroke_e	e	n/a
391.6035	0.09	783207	keystroke_r	r	n/a
391.9785	0.12	783957	keystroke_s	s	n/a
392.1135	0.075	784227	keystroke_i	i	n/a
392.2785	0.06	784557	keystroke_o	o	n/a
392.4885	0.09	784977	keystroke_n	n	n/a
393.1635	0.09	786327	keystroke_Key.space	Key.space	n/a
393.7935	0.09	787587	keystroke_t	t	n/a
393.8685	0.09	787737	keystroke_h	h	n/a
394.0785	0.091	788157	keystroke_o	o	n/a
394.1535	0.09	788307	keystroke_u	u	n/a
394.3035	0.045	788607	keystroke_g	g	n/a
394.7685	0.105	789537	keystroke_h	h	n/a
395.4735	0.075	790947	keystroke_Key.backspace	Key.backspace	n/a
395.8185	0.075	791637	keystroke_Key.backspace	Key.backspace	n/a
396.359	0.075	792718	keystroke_Key.space	Key.space	n/a
396.524	0.09	793048	keystroke_f	f	n/a
396.644	0.105	793288	keystroke_o	o	n/a
396.719	0.09	793438	keystroke_u	u	n/a
396.974	0.075	793948	keystroke_n	n	n/a
397.094	0.09	794188	keystroke_d	d	n/a
397.244	0.09	794488	keystroke_a	a	n/a
397.469	0.075	794938	keystroke_t	t	n/a
397.559	0.09	795118	keystroke_i	i	n/a
397.694	0.09	795388	keystroke_o	o	n/a
397.874	0.09	795748	keystroke_n	n	n/a
398.054	0.06	796108	keystroke_s	s	n/a
398.264	0.09	796528	keystroke_Key.enter	Key.enter	n/a
398.3585	7.2425	796717	prompt	n/a	madagascar banks rwanda annual\n
399.149	0.075	798298	keystroke_m	m	n/a
399.239	0.075	798478	keystroke_a	a	n/a
399.404	0.075	798808	keystroke_d	d	n/a
399.539	0.105	799078	keystroke_a	a	n/a
399.659	0.09	799318	keystroke_g	g	n/a
399.809	0.075	799618	keystroke_a	a	n/a
399.974	0.09	799948	keystroke_s	s	n/a
400.214	0.06	800428	keystroke_c	c	n/a
400.379	0.09	800758	keystroke_a	a	n/a
400.5595	0.09	801119	keystroke_r	r	n/a
400.6795	0.075	801359	keystroke_Key.space	Key.space	n/a
400.8145	0.075	801629	keystroke_b	b	n/a
400.9045	0.12	801809	keystroke_a	a	n/a
401.0095	0.09	802019	keystroke_n	n	n/a
401.1895	0.09	802379	keystroke_k	k	n/a
402.449	0.105	804898	keystroke_s	s	n/a
402.6435	0.075	805287	keystroke_Key.space	Key.space	n/a
402.8385	0.105	805677	keystroke_r	r	n/a
403.0935	0.105	806187	keystroke_w	w	n/a
403.3335	0.075	806667	keystroke_a	a	n/a
403.4385	0.09	806877	keystroke_n	n	n/a
403.6785	0.075	807357	keystroke_d	d	n/a
403.7985	0.105	807597	keystroke_a	a	n/a
403.9935	0.075	807987	keystroke_Key.space	Key.space	n/a
404.1435	0.09	808287	keystroke_a	a	n/a
404.2485	0.075	808497	keystroke_n	n	n/a
404.3835	0.075	808767	keystroke_n	n	n/a
404.6085	0.06	809217	keystroke_u	u	n/a
404.7585	0.075	809517	keystroke_a	a	n/a
404.8935	0.06	809787	keystroke_l	l	n/a
405.5235	0.075	811047	keystroke_Key.enter	Key.enter	n/a
405.6035	7.782	811207	prompt	n/a	ended consortium landscape earning\n
406.6335	0.075	813267	keystroke_e	e	n/a
406.7835	0.06	813567	keystroke_n	n	n/a
406.9035	0.09	813807	keystroke_d	d	n/a
407.0385	0.12	814077	keystroke_e	e	n/a
407.2635	0.1055	814527	keystroke_d	d	n/a
407.384	0.105	814768	keystroke_Key.space	Key.space	n/a
407.729	0.075	815458	keystroke_c	c	n/a
407.789	0.075	815578	keystroke_o	o	n/a
407.969	0.075	815938	keystroke_n	n	n/a
408.104	0.12	816208	keystroke_s	s	n/a
408.239	0.075	816478	keystroke_o	o	n/a
408.719	0.09	817438	keystroke_r	r	n/a
408.989	0.09	817978	keystroke_t	t	n/a
409.229	0.15	818458	keystroke_i	i	n/a
409.394	0.12	818788	keystroke_u	u	n/a
409.664	0.09	819328	keystroke_m	m	n/a
409.844	0.105	819688	keystroke_Key.space	Key.space	n/a
410.144	0.06	820288	keystroke_l	l	n/a
410.264	0.075	820528	keystroke_a	a	n/a
410.339	0.09	820678	keystroke_n	n	n/a
410.534	0.09	821068	keystroke_d	d	n/a
410.684	0.09	821368	keystroke_s	s	n/a
410.879	0.09	821758	keystroke_c	c	n/a
411.059	0.075	822118	keystroke_a	a	n/a
411.149	0.075	822298	keystroke_p	p	n/a
411.284	0.0895	822568	keystroke_e	e	n/a
411.4195	0.074	822839	keystroke_Key.space	Key.space	n/a
411.6145	0.074	823229	keystroke_e	e	n/a
411.8085	0.061	823617	keystroke_a	a	n/a
411.9595	0.074	823919	keystroke_r	r	n/a
412.0485	0.06	824097	keystroke_n	n	n/a
412.1685	0.075	824337	keystroke_i	i	n/a
412.3045	0.089	824609	keystroke_n	n	n/a
412.4385	0.091	824877	keystroke_g	g	n/a
413.3235	0.06	826647	keystroke_Key.enter	Key.enter	n/a
413.388	6.1175	826776	prompt	n/a	predict programmers spare currently\n
414.0885	0.06	828177	keystroke_p	p	n/a
414.2085	0.105	828417	keystroke_r	r	n/a
414.2835	0.105	828567	keystroke_e	e	n/a
414.5085	0.075	829017	keystroke_d	d	n/a
414.5985	0.075	829197	keystroke_i	i	n/a
414.7185	0.12	829437	keystroke_c	c	n/a
415.0035	0.075	830007	keystroke_t	t	n/a
415.1535	0.09	830307	keystroke_Key.space	Key.space	n/a
415.3185	0.09	830637	keystroke_p	p	n/a
415.4685	0.075	830937	keystroke_r	r	n/a
415.5585	0.075	831117	keystroke_o	o	n/a
415.6635	0.09	831327	keystroke_g	g	n/a
415.8435	0.09	831687	keystroke_r	r	n/a
416.0385	0.09	832077	keystroke_a	a	n/a
416.1435	0.06	832287	keystroke_m	m	n/a
416.2635	0.075	832527	keystroke_m	m	n/a
416.3685	0.105	832737	keystroke_e	e	n/a
416.4885	0.09	832977	keystroke_r	r	n/a
416.6985	0.09	833397	keystroke_s	s	n/a
416.8185	0.105	833637	keystroke_Key.space	Key.space	n/a
416.9835	0.075	833967	keystroke_s	s	n/a
417.0735	0.06	834147	keystroke_p	p	n/a
417.2235	0.105	834447	keystroke_a	a	n/a
417.4185	0.075	834837	keystroke_r	r	n/a
417.4785	0.105	834957	keystroke_e	e	n/a
417.6285	0.075	835257	keystroke_Key.space	Key.space	n/a
417.7635	0.09	835527	keystroke_c	c	n/a
417.9135	0.09	835827	keystroke_u	u	n/a
418.0635	0.075	836127	keystroke_r	r	n/a
418.2285	0.075	836457	keystroke_r	r	n/a
418.3485	0.105	836697	keystroke_e	e	n/a
418.4385	0.06	836877	keystroke_n	n	n/a
418.6335	0.06	837267	keystroke_t	t	n/a
418.6635	0.105	837327	keystroke_l	l	n/a
418.8735	0.09	837747	keystroke_y	y	n/a
419.4285	0.075	838857	keystroke_Key.enter	Key.enter	n/a
419.508	6.7175	839016	prompt	n/a	powerseller comp easily family\n
420.239	0.06	840478	keystroke_p	p	n/a
420.404	0.075	840808	keystroke_o	o	n/a
420.494	0.165	840988	keystroke_w	w	n/a
420.614	0.12	841228	keystroke_e	e	n/a
420.794	0.105	841588	keystroke_r	r	n/a
421.019	0.06	842038	keystroke_s	s	n/a
421.184	0.075	842368	keystroke_e	e	n/a
421.274	0.06	842548	keystroke_l	l	n/a
421.409	0.075	842818	keystroke_l	l	n/a
421.514	0.09	843028	keystroke_e	e	n/a
421.679	0.075	843358	keystroke_r	r	n/a
421.769	0.09	843538	keystroke_Key.space	Key.space	n/a
421.934	0.105	843868	keystroke_c	c	n/a
421.979	0.075	843958	keystroke_o	o	n/a
422.114	0.075	844228	keystroke_m	m	n/a
422.294	0.075	844588	keystroke_p	p	n/a
423.434	0.06	846868	keystroke_Key.space	Key.space	n/a
423.599	0.075	847198	keystroke_e	e	n/a
423.764	0.09	847528	keystroke_a	a	n/a
423.929	0.12	847858	keystroke_s	s	n/a
424.064	0.075	848128	keystroke_i	i	n/a
424.214	0.075	848428	keystroke_l	l	n/a
424.409	0.12	848818	keystroke_y	y	n/a
424.514	0.09	849028	keystroke_Key.space	Key.space	n/a
424.709	0.075	849418	keystroke_f	f	n/a
424.859	0.105	849718	keystroke_a	a	n/a
424.964	0.09	849928	keystroke_m	m	n/a
425.069	0.09	850138	keystroke_i	i	n/a
425.264	0.075	850528	keystroke_l	l	n/a
425.429	0.12	850858	keystroke_y	y	n/a
426.119	0.105	852238	keystroke_Key.enter	Key.enter	n/a
426.2285	10.422	852457	prompt	n/a	congratulations wordpress unavailable thai\n
426.899	0.09	853798	keystroke_c	c	n/a
427.004	0.06	854008	keystroke_o	o	n/a
427.199	0.045	854398	keystroke_n	n	n/a
427.259	0.09	854518	keystroke_g	g	n/a
428.174	0.075	856348	keystroke_r	r	n/a
428.354	0.105	856708	keystroke_a	a	n/a
428.714	0.075	857428	keystroke_t	t	n/a
428.804	0.06	857608	keystroke_u	u	n/a
429.074	0.075	858148	keystroke_l	l	n/a
429.209	0.09	858418	keystroke_a	a	n/a
429.419	0.09	858838	keystroke_t	t	n/a
429.524	0.075	859048	keystroke_i	i	n/a
429.704	0.03	859408	keystroke_o	o	n/a
429.839	0.075	859678	keystroke_n	n	n/a
429.929	0.105	859858	keystroke_s	s	n/a
430.034	0.075	860068	keystroke_Key.space	Key.space	n/a
430.304	0.075	860608	keystroke_w	w	n/a
430.379	0.09	860758	keystroke_o	o	n/a
430.499	0.075	860998	keystroke_r	r	n/a
430.709	0.06	861418	keystroke_d	d	n/a
430.844	0.075	861688	keystroke_p	p	n/a
431.024	0.09	862048	keystroke_e	e	n/a
431.429	0.06	862858	keystroke_Key.backspace	Key.backspace	n/a
431.549	0.075	863098	keystroke_r	r	n/a
431.639	0.09	863278	keystroke_e	e	n/a
431.894	0.06	863788	keystroke_s	s	n/a
432.044	0.075	864088	keystroke_s	s	n/a
432.404	0.09	864808	keystroke_Key.space	Key.space	n/a
432.704	0.075	865408	keystroke_u	u	n/a
432.929	0.06	865858	keystroke_n	n	n/a
433.079	0.09	866158	keystroke_a	a	n/a
433.199	0.06	866398	keystroke_v	v	n/a
434.024	0.06	868048	keystroke_a	a	n/a
434.099	0.09	868198	keystroke_i	i	n/a
434.339	0.06	868678	keystroke_l	l	n/a
434.624	0.075	869248	keystroke_a	a	n/a
434.714	0.075	869428	keystroke_b	b	n/a
434.939	0.075	869878	keystroke_l	l	n/a
435.059	0.09	870118	keystroke_e	e	n/a
435.179	0.09	870358	keystroke_Key.space	Key.space	n/a
435.404	0.075	870808	keystroke_t	t	n/a
435.464	0.09	870928	keystroke_h	h	n/a
435.839	0.09	871678	keystroke_a	a	n/a
435.959	0.09	871918	keystroke_i	i	n/a
436.544	0.105	873088	keystroke_Key.enter	Key.enter	n/a
436.653	10.5275	873306	prompt	n/a	nationwide observation pressure escorts\n
437.699	0.075	875398	keystroke_n	n	n/a
437.789	0.105	875578	keystroke_a	a	n/a
437.999	0.075	875998	keystroke_t	t	n/a
438.929	0.105	877858	keystroke_i	i	n/a
439.109	0.09	878218	keystroke_o	o	n/a
439.334	0.06	878668	keystroke_n	n	n/a
439.469	0.105	878938	keystroke_w	w	n/a
439.544	0.0905	879088	keystroke_i	i	n/a
439.709	0.09	879418	keystroke_d	d	n/a
439.874	0.09	879748	keystroke_e	e	n/a
440.384	0.105	880768	keystroke_Key.space	Key.space	n/a
440.564	0.075	881128	keystroke_o	o	n/a
440.759	0.09	881518	keystroke_b	b	n/a
440.924	0.105	881848	keystroke_s	s	n/a
441.119	0.09	882238	keystroke_e	e	n/a
441.299	0.075	882598	keystroke_r	r	n/a
441.434	0.075	882868	keystroke_v	v	n/a
441.524	0.075	883048	keystroke_a	a	n/a
441.704	0.075	883408	keystroke_t	t	n/a
441.794	0.105	883588	keystroke_i	i	n/a
442.034	0.03	884068	keystroke_o	o	n/a
442.199	0.075	884398	keystroke_n	n	n/a
442.304	0.075	884608	keystroke_Key.space	Key.space	n/a
442.514	0.075	885028	keystroke_p	p	n/a
442.619	0.105	885238	keystroke_r	r	n/a
442.694	0.105	885388	keystroke_e	e	n/a
442.964	0.06	885928	keystroke_s	s	n/a
443.114	0.09	886228	keystroke_s	s	n/a
443.294	0.09	886588	keystroke_u	u	n/a
443.429	0.135	886858	keystroke_r	r	n/a
443.534	0.09	887068	keystroke_e	e	n/a
443.639	0.09	887278	keystroke_Key.space	Key.space	n/a
443.894	0.03	887788	keystroke_e	e	n/a
444.2535	0.06	888507	keystroke_s	s	n/a
444.4485	0.075	888897	keystroke_c	c	n/a
444.5835	0.045	889167	keystroke_o	o	n/a
444.7335	0.09	889467	keystroke_r	r	n/a
444.9735	0.075	889947	keystroke_t	t	n/a
445.2135	0.09	890427	keystroke_s	s	n/a
447.1035	0.075	894207	keystroke_Key.enter	Key.enter	n/a
447.1835	8.217	894367	prompt	n/a	fridge song driven varying\n
447.8385	0.09	895677	keystroke_d	d	n/a
448.0335	0.09	896067	keystroke_r	r	n/a
448.1685	0.06	896337	keystroke_i	i	n/a
448.7685	0.06	897537	keystroke_Key.backspace	Key.backspace	n/a
449.0535	0.045	898107	keystroke_Key.backspace	Key.backspace	n/a
449.2635	0.09	898527	keystroke_Key.backspace	Key.backspace	n/a
449.9385	0.075	899877	keystroke_f	f	n/a
450.4035	0.06	900807	keystroke_r	r	n/a
450.5235	0.09	901047	keystroke_i	i	n/a
450.6885	0.09	901377	keystroke_d	d	n/a
450.8535	0.075	901707	keystroke_g	g	n/a
451.0035	0.09	902007	keystroke_e	e	n/a
451.2435	0.075	902487	keystroke_Key.space	Key.space	n/a
451.4685	0.075	902937	keystroke_s	s	n/a
451.5435	0.075	903087	keystroke_o	o	n/a
451.7385	0.075	903477	keystroke_n	n	n/a
451.8735	0.105	903747	keystroke_g	g	n/a
451.9935	0.09	903987	keystroke_Key.space	Key.space	n/a
452.2185	0.0755	904437	keystroke_d	d	n/a
452.4135	0.075	904827	keystroke_r	r	n/a
452.5035	0.09	905007	keystroke_i	i	n/a
452.6385	0.105	905277	keystroke_v	v	n/a
452.8935	0.075	905787	keystroke_e	e	n/a
452.9985	0.09	905997	keystroke_n	n	n/a
453.1485	0.09	906297	keystroke_Key.space	Key.space	n/a
453.5985	0.135	907197	keystroke_a	a	n/a
453.9735	0.075	907947	keystroke_Key.backspace	Key.backspace	n/a
454.1535	0.06	908307	keystroke_v	v	n/a
454.3635	0.105	908727	keystroke_a	a	n/a
454.5435	0.09	909087	keystroke_r	r	n/a
454.6345	0.074	909269	keystroke_y	y	n/a
454.7985	0.075	909597	keystroke_i	i	n/a
454.9485	0.0755	909897	keystroke_n	n	n/a
455.0835	0.075	910167	keystroke_g	g	n/a
455.3235	0.075	910647	keystroke_Key.enter	Key.enter	n/a
455.405	5.6205	910810	prompt	n/a	larry dude wasn't guides\n
456.074	0.075	912148	keystroke_l	l	n/a
456.194	0.075	912388	keystroke_a	a	n/a
456.479	0.06	912958	keystroke_r	r	n/a
456.614	0.09	913228	keystroke_r	r	n/a
456.704	0.09	913408	keystroke_y	y	n/a
456.809	0.075	913618	keystroke_Key.space	Key.space	n/a
456.974	0.06	913948	keystroke_d	d	n/a
457.049	0.09	914098	keystroke_u	u	n/a
457.154	0.06	914308	keystroke_d	d	n/a
457.334	0.075	914668	keystroke_e	e	n/a
457.469	0.075	914938	keystroke_Key.space	Key.space	n/a
457.589	0.075	915178	keystroke_w	w	n/a
457.754	0.09	915508	keystroke_a	a	n/a
458.129	0.09	916258	keystroke_s	s	n/a
458.234	0.09	916468	keystroke_n	n	n/a
458.429	0.045	916858	keystroke_'	'	n/a
458.579	0.075	917158	keystroke_t	t	n/a
458.759	0.105	917518	keystroke_Key.space	Key.space	n/a
459.3735	0.09	918747	keystroke_g	g	n/a
459.4785	0.09	918957	keystroke_u	u	n/a
459.6285	0.09	919257	keystroke_i	i	n/a
459.7935	0.075	919587	keystroke_d	d	n/a
459.9435	0.09	919887	keystroke_e	e	n/a
460.1835	0.075	920367	keystroke_s	s	n/a
460.9335	0.09	921867	keystroke_Key.enter	Key.enter	n/a
461.028	5.4425	922056	prompt	n/a	intake quiz started blend\n
461.8035	0.075	923607	keystroke_i	i	n/a
461.9685	0.06	923937	keystroke_n	n	n/a
462.0885	0.075	924177	keystroke_t	t	n/a
462.2835	0.075	924567	keystroke_a	a	n/a
462.3435	0.075	924687	keystroke_k	k	n/a
462.4935	0.075	924987	keystroke_e	e	n/a
462.6135	0.09	925227	keystroke_Key.space	Key.space	n/a
462.9435	0.09	925887	keystroke_u	u	n/a
463.2735	0.06	926547	keystroke_Key.backspace	Key.backspace	n/a
463.4235	0.075	926847	keystroke_q	q	n/a
463.5285	0.105	927057	keystroke_u	u	n/a
463.7235	0.09	927447	keystroke_i	i	n/a
463.9935	0.09	927987	keystroke_z	z	n/a
464.1285	0.09	928257	keystroke_Key.space	Key.space	n/a
464.3235	0.075	928647	keystroke_s	s	n/a
464.5185	0.075	929037	keystroke_t	t	n/a
464.6835	0.135	929367	keystroke_a	a	n/a
464.8335	0.09	929667	keystroke_r	r	n/a
464.9835	0.09	929967	keystroke_t	t	n/a
465.1335	0.09	930267	keystroke_e	e	n/a
465.3285	0.09	930657	keystroke_d	d	n/a
465.4335	0.09	930867	keystroke_Key.space	Key.space	n/a
465.6735	0.015	931347	keystroke_b	b	n/a
465.8085	0.075	931617	keystroke_l	l	n/a
465.8985	0.105	931797	keystroke_e	e	n/a
466.0335	0.09	932067	keystroke_n	n	n/a
466.1685	0.12	932337	keystroke_d	d	n/a
466.3635	0.105	932727	keystroke_Key.enter	Key.enter	n/a
466.4725	7.318	932945	prompt	n/a	unemployment am walnut whom'st\n
467.1285	0.06	934257	keystroke_u	u	n/a
467.279	0.0745	934558	keystroke_n	n	n/a
467.3835	0.105	934767	keystroke_e	e	n/a
467.4885	0.09	934977	keystroke_m	m	n/a
467.7135	0.06	935427	keystroke_p	p	n/a
467.9085	0.075	935817	keystroke_l	l	n/a
468.0735	0.06	936147	keystroke_o	o	n/a
468.2985	0.075	936597	keystroke_y	y	n/a
468.6435	0.075	937287	keystroke_e	e	n/a
468.9885	0.06	937977	keystroke_Key.backspace	Key.backspace	n/a
469.2435	0.075	938487	keystroke_m	m	n/a
469.3635	0.105	938727	keystroke_e	e	n/a
469.4835	0.075	938967	keystroke_n	n	n/a
469.6485	0.075	939297	keystroke_t	t	n/a
469.7685	0.075	939537	keystroke_Key.space	Key.space	n/a
469.9485	0.105	939897	keystroke_a	a	n/a
470.3085	0.09	940617	keystroke_m	m	n/a
470.4885	0.09	940977	keystroke_Key.space	Key.space	n/a
470.7435	0.09	941487	keystroke_w	w	n/a
470.9085	0.09	941817	keystroke_a	a	n/a
471.029	0.09	942058	keystroke_l	l	n/a
471.3135	0.0905	942627	keystroke_n	n	n/a
471.629	0.0445	943258	keystroke_u	u	n/a
471.7785	0.075	943557	keystroke_t	t	n/a
471.9885	0.075	943977	keystroke_Key.space	Key.space	n/a
472.1535	0.06	944307	keystroke_w	w	n/a
472.2285	0.075	944457	keystroke_h	h	n/a
472.4535	0.045	944907	keystroke_o	o	n/a
472.6335	0.075	945267	keystroke_m	m	n/a
472.9035	0.03	945807	keystroke_'	'	n/a
473.0985	0.075	946197	keystroke_s	s	n/a
473.3385	0.075	946677	keystroke_t	t	n/a
473.7285	0.06	947457	keystroke_Key.enter	Key.enter	n/a
473.793	6.6575	947586	prompt	n/a	musician deeply bend manhattan\n
475.3785	0.09	950757	keystroke_m	m	n/a
475.5735	0.105	951147	keystroke_u	u	n/a
475.8135	0.09	951627	keystroke_s	s	n/a
475.9185	0.075	951837	keystroke_i	i	n/a
476.0535	0.09	952107	keystroke_c	c	n/a
476.1735	0.105	952347	keystroke_i	i	n/a
476.3835	0.09	952767	keystroke_a	a	n/a
476.4885	0.09	952977	keystroke_n	n	n/a
476.5935	0.075	953187	keystroke_Key.space	Key.space	n/a
476.8935	0.045	953787	keystroke_d	d	n/a
477.0435	0.09	954087	keystroke_e	e	n/a
477.2235	0.06	954447	keystroke_e	e	n/a
477.3135	0.09	954627	keystroke_p	p	n/a
477.5085	0.075	955017	keystroke_l	l	n/a
477.689	0.09	955378	keystroke_y	y	n/a
477.764	0.09	955528	keystroke_Key.space	Key.space	n/a
477.959	0.075	955918	keystroke_b	b	n/a
478.079	0.09	956158	keystroke_e	e	n/a
478.228	0.091	956456	keystroke_n	n	n/a
478.4385	0.075	956877	keystroke_d	d	n/a
478.5435	0.09	957087	keystroke_Key.space	Key.space	n/a
478.7235	0.09	957447	keystroke_m	m	n/a
478.8285	0.105	957657	keystroke_a	a	n/a
478.9485	0.06	957897	keystroke_n	n	n/a
479.0985	0.075	958197	keystroke_h	h	n/a
479.2035	0.105	958407	keystroke_a	a	n/a
479.4435	0.075	958887	keystroke_t	t	n/a
479.579	0.075	959158	keystroke_t	t	n/a
479.744	0.09	959488	keystroke_a	a	n/a
479.864	0.075	959728	keystroke_n	n	n/a
480.344	0.105	960688	keystroke_Key.enter	Key.enter	n/a
480.4535	6.7315	960907	prompt	n/a	procedure menus rotation juan\n
481.169	0.075	962338	keystroke_p	p	n/a
481.979	0.09	963958	keystroke_r	r	n/a
482.0535	0.0905	964107	keystroke_o	o	n/a
482.309	0.045	964618	keystroke_c	c	n/a
482.474	0.075	964948	keystroke_e	e	n/a
482.699	0.105	965398	keystroke_d	d	n/a
482.789	0.09	965578	keystroke_u	u	n/a
482.969	0.075	965938	keystroke_r	r	n/a
483.059	0.09	966118	keystroke_e	e	n/a
483.179	0.09	966358	keystroke_Key.space	Key.space	n/a
483.344	0.09	966688	keystroke_m	m	n/a
483.449	0.075	966898	keystroke_e	e	n/a
483.659	0.09	967318	keystroke_u	u	n/a
484.169	0.03	968338	keystroke_Key.backspace	Key.backspace	n/a
484.394	0.06	968788	keystroke_n	n	n/a
484.529	0.075	969058	keystroke_u	u	n/a
484.709	0.06	969418	keystroke_s	s	n/a
484.889	0.075	969778	keystroke_Key.space	Key.space	n/a
485.054	0.075	970108	keystroke_r	r	n/a
485.144	0.06	970288	keystroke_o	o	n/a
485.264	0.09	970528	keystroke_t	t	n/a
485.444	0.075	970888	keystroke_a	a	n/a
485.624	0.09	971248	keystroke_t	t	n/a
485.714	0.09	971428	keystroke_i	i	n/a
485.879	0.06	971758	keystroke_o	o	n/a
486.029	0.09	972058	keystroke_n	n	n/a
486.134	0.09	972268	keystroke_Key.space	Key.space	n/a
486.329	0.075	972658	keystroke_j	j	n/a
486.479	0.09	972958	keystroke_u	u	n/a
486.719	0.075	973438	keystroke_a	a	n/a
486.779	0.09	973558	keystroke_n	n	n/a
487.109	0.075	974218	keystroke_Key.enter	Key.enter	n/a
487.188	5.4425	974376	prompt	n/a	elderly shipping denmark scsi\n
487.799	0.105	975598	keystroke_e	e	n/a
488.159	0.06	976318	keystroke_l	l	n/a
488.309	0.075	976618	keystroke_d	d	n/a
488.474	0.105	976948	keystroke_e	e	n/a
488.594	0.09	977188	keystroke_r	r	n/a
488.744	0.075	977488	keystroke_l	l	n/a
488.924	0.09	977848	keystroke_y	y	n/a
489.029	0.075	978058	keystroke_Key.space	Key.space	n/a
489.224	0.075	978448	keystroke_s	s	n/a
489.314	0.06	978628	keystroke_h	h	n/a
489.434	0.075	978868	keystroke_i	i	n/a
489.644	0.045	979288	keystroke_p	p	n/a
489.749	0.075	979498	keystroke_p	p	n/a
489.959	0.03	979918	keystroke_i	i	n/a
490.049	0.09	980098	keystroke_n	n	n/a
490.199	0.075	980398	keystroke_g	g	n/a
490.289	0.075	980578	keystroke_Key.space	Key.space	n/a
490.469	0.06	980938	keystroke_d	d	n/a
490.589	0.09	981178	keystroke_e	e	n/a
490.694	0.0755	981388	keystroke_n	n	n/a
490.889	0.075	981778	keystroke_m	m	n/a
490.979	0.105	981958	keystroke_a	a	n/a
491.129	0.09	982258	keystroke_r	r	n/a
491.234	0.09	982468	keystroke_k	k	n/a
491.354	0.09	982708	keystroke_Key.space	Key.space	n/a
491.474	0.09	982948	keystroke_s	s	n/a
491.669	0.09	983338	keystroke_c	c	n/a
491.984	0.075	983968	keystroke_s	s	n/a
492.044	0.1355	984088	keystroke_i	i	n/a
492.5545	0.075	985109	keystroke_Key.enter	Key.enter	n/a
492.6335	5.502	985267	prompt	n/a	respect reproductive buttons role\n
493.304	0.12	986608	keystroke_r	r	n/a
493.409	0.09	986818	keystroke_e	e	n/a
493.634	0.06	987268	keystroke_s	s	n/a
493.709	0.075	987418	keystroke_p	p	n/a
493.799	0.09	987598	keystroke_e	e	n/a
494.009	0.075	988018	keystroke_c	c	n/a
494.204	0.075	988408	keystroke_t	t	n/a
494.309	0.09	988618	keystroke_Key.space	Key.space	n/a
494.489	0.075	988978	keystroke_r	r	n/a
494.654	0.075	989308	keystroke_e	e	n/a
494.879	0.075	989758	keystroke_p	p	n/a
495.029	0.075	990058	keystroke_r	r	n/a
495.134	0.06	990268	keystroke_o	o	n/a
495.269	0.09	990538	keystroke_d	d	n/a
495.374	0.09	990748	keystroke_u	u	n/a
495.494	0.09	990988	keystroke_c	c	n/a
495.719	0.075	991438	keystroke_t	t	n/a
495.839	0.09	991678	keystroke_i	i	n/a
495.989	0.06	991978	keystroke_v	v	n/a
496.154	0.075	992308	keystroke_e	e	n/a
496.229	0.09	992458	keystroke_Key.space	Key.space	n/a
496.439	0.045	992878	keystroke_b	b	n/a
496.529	0.075	993058	keystroke_u	u	n/a
496.634	0.09	993268	keystroke_t	t	n/a
496.799	0.075	993598	keystroke_t	t	n/a
496.904	0.06	993808	keystroke_o	o	n/a
497.069	0.06	994138	keystroke_n	n	n/a
497.174	0.09	994348	keystroke_s	s	n/a
497.294	0.075	994588	keystroke_Key.space	Key.space	n/a
497.414	0.09	994828	keystroke_r	r	n/a
497.519	0.06	995038	keystroke_o	o	n/a
497.699	0.045	995398	keystroke_l	l	n/a
497.774	0.09	995548	keystroke_e	e	n/a
498.059	0.075	996118	keystroke_Key.enter	Key.enter	n/a
498.138	8.4275	996276	prompt	n/a	yard sheffield pantyhose lung\n
499.064	0.075	998128	keystroke_y	y	n/a
499.199	0.12	998398	keystroke_a	a	n/a
499.379	0.075	998758	keystroke_r	r	n/a
499.589	0.075	999178	keystroke_d	d	n/a
499.694	0.105	999388	keystroke_Key.space	Key.space	n/a
499.859	0.075	999718	keystroke_s	s	n/a
499.949	0.075	999898	keystroke_h	h	n/a
500.054	0.09	1000108	keystroke_e	e	n/a
500.309	0.06	1000618	keystroke_f	f	n/a
500.429	0.09	1000858	keystroke_f	f	n/a
500.564	0.09	1001128	keystroke_i	i	n/a
500.714	0.09	1001428	keystroke_e	e	n/a
500.834	0.09	1001668	keystroke_l	l	n/a
501.014	0.09	1002028	keystroke_d	d	n/a
501.164	0.105	1002328	keystroke_Key.space	Key.space	n/a
501.764	0.06	1003528	keystroke_p	p	n/a
501.884	0.075	1003768	keystroke_a	a	n/a
501.974	0.09	1003948	keystroke_n	n	n/a
502.154	0.09	1004308	keystroke_y	y	n/a
503.414	0.0755	1006828	keystroke_Key.backspace	Key.backspace	n/a
503.564	0.075	1007128	keystroke_t	t	n/a
503.714	0.09	1007428	keystroke_y	y	n/a
503.954	0.045	1007908	keystroke_h	h	n/a
504.119	0.06	1008238	keystroke_o	o	n/a
504.239	0.075	1008478	keystroke_s	s	n/a
504.419	0.09	1008838	keystroke_e	e	n/a
504.569	0.075	1009138	keystroke_Key.space	Key.space	n/a
504.734	0.06	1009468	keystroke_l	l	n/a
504.854	0.075	1009708	keystroke_u	u	n/a
505.049	0.06	1010098	keystroke_n	n	n/a
505.139	0.075	1010278	keystroke_g	g	n/a
506.4885	0.075	1012977	keystroke_Key.enter	Key.enter	n/a
506.568	7.3325	1013136	prompt	n/a	relating municipality traditions programs\n
507.3135	0.106	1014627	keystroke_r	r	n/a
507.4485	0.09	1014897	keystroke_e	e	n/a
507.5395	0.074	1015079	keystroke_l	l	n/a
507.7185	0.06	1015437	keystroke_a	a	n/a
507.8835	0.075	1015767	keystroke_t	t	n/a
507.9735	0.06	1015947	keystroke_i	i	n/a
508.0935	0.075	1016187	keystroke_n	n	n/a
508.199	0.09	1016398	keystroke_g	g	n/a
508.274	0.06	1016548	keystroke_Key.space	Key.space	n/a
508.424	0.075	1016848	keystroke_m	m	n/a
508.5745	0.0895	1017149	keystroke_u	u	n/a
508.7095	0.0745	1017419	keystroke_n	n	n/a
508.874	0.06	1017748	keystroke_i	i	n/a
