onset	duration	sample	value	key	prompt_text
6.5825	11.93	13165	prompt	n/a	the quick brown fox jumps over a lazy dog\n
8.2825	0.001	16565	keystroke_t	t	n/a
8.3255	0.09	16651	keystroke_h	h	n/a
8.4595	0.075	16919	keystroke_e	e	n/a
8.6395	0.06	17279	keystroke_Key.space	Key.space	n/a
8.9405	0.075	17881	keystroke_q	q	n/a
9.0745	0.06	18149	keystroke_u	u	n/a
9.2405	0.06	18481	keystroke_i	i	n/a
9.3295	0.076	18659	keystroke_c	c	n/a
9.585	0.075	19170	keystroke_k	k	n/a
9.78	0.045	19560	keystroke_Key.space	Key.space	n/a
9.975	0.06	19950	keystroke_b	b	n/a
10.095	0.06	20190	keystroke_r	r	n/a
10.305	0.105	20610	keystroke_o	o	n/a
10.59	0.06	21180	keystroke_w	w	n/a
10.71	0.06	21420	keystroke_n	n	n/a
10.875	0.06	21750	keystroke_Key.space	Key.space	n/a
11.07	0.045	22140	keystroke_f	f	n/a
11.19	0.1045	22380	keystroke_o	o	n/a
11.4295	0.06	22859	keystroke_x	x	n/a
11.7145	0.075	23429	keystroke_Key.space	Key.space	n/a
11.985	0.0605	23970	keystroke_j	j	n/a
12.255	0.06	24510	keystroke_u	u	n/a
12.465	0.06	24930	keystroke_m	m	n/a
12.7045	0.06	25409	keystroke_p	p	n/a
13.3045	0.06	26609	keystroke_s	s	n/a
13.4695	0.06	26939	keystroke_Key.space	Key.space	n/a
13.6945	0.09	27389	keystroke_o	o	n/a
13.8295	0.06	27659	keystroke_c	c	n/a
14.055	0.09	28110	keystroke_e	e	n/a
14.07	0.105	28140	keystroke_r	r	n/a
14.16	0.105	28320	keystroke_Key.space	Key.space	n/a
14.55	0.09	29100	keystroke_Key.backspace	Key.backspace	n/a
14.745	0.075	29490	keystroke_Key.backspace	Key.backspace	n/a
14.91	0.09	29820	keystroke_Key.backspace	Key.backspace	n/a
15.3	0.06	30600	keystroke_Key.backspace	Key.backspace	n/a
15.675	0.06	31350	keystroke_v	v	n/a
15.84	0.12	31680	keystroke_e	e	n/a
15.87	0.12	31740	keystroke_r	r	n/a
16.005	0.089	32010	keystroke_Key.space	Key.space	n/a
16.154	0.076	32308	keystroke_a	a	n/a
16.214	0.105	32428	keystroke_Key.space	Key.space	n/a
16.6345	0.075	33269	keystroke_l	l	n/a
16.7245	0.09	33449	keystroke_a	a	n/a
16.89	0.09	33780	keystroke_z	z	n/a
17.205	0.06	34410	keystroke_y	y	n/a
17.295	0.0745	34590	keystroke_Key.space	Key.space	n/a
17.6545	0.03	35309	keystroke_d	d	n/a
17.7445	0.09	35489	keystroke_o	o	n/a
17.8645	0.06	35729	keystroke_g	g	n/a
18.4345	0.075	36869	keystroke_Key.enter	Key.enter	n/a
18.517	13.105	37034	prompt	n/a	editorials emotional interpretation phenomenon\n
19.4105	0.0595	38821	keystroke_e	e	n/a
19.62	0.06	39240	keystroke_d	d	n/a
19.74	0.09	39480	keystroke_i	i	n/a
19.9945	0.06	39989	keystroke_t	t	n/a
20.2045	0.09	40409	keystroke_o	o	n/a
20.3845	0.075	40769	keystroke_r	r	n/a
20.4745	0.105	40949	keystroke_i	i	n/a
20.6395	0.15	41279	keystroke_a	a	n/a
20.8045	0.105	41609	keystroke_l	l	n/a
20.9545	0.105	41909	keystroke_s	s	n/a
21.3745	0.105	42749	keystroke_Key.space	Key.space	n/a
21.7945	0.06	43589	keystroke_e	e	n/a
22.125	0.06	44250	keystroke_m	m	n/a
22.335	0.09	44670	keystroke_o	o	n/a
22.485	0.06	44970	keystroke_t	t	n/a
22.605	0.105	45210	keystroke_i	i	n/a
22.68	0.105	45360	keystroke_o	o	n/a
22.845	0.075	45690	keystroke_n	n	n/a
22.98	0.105	45960	keystroke_a	a	n/a
23.1	0.105	46200	keystroke_l	l	n/a
23.31	0.059	46620	keystroke_Key.space	Key.space	n/a
23.52	0.119	47040	keystroke_i	i	n/a
23.579	0.106	47158	keystroke_n	n	n/a
24	0.059	48000	keystroke_t	t	n/a
24.225	0.09	48450	keystroke_e	e	n/a
24.42	0.0745	48840	keystroke_r	r	n/a
24.6005	0.089	49201	keystroke_p	p	n/a
24.78	0.1045	49560	keystroke_r	r	n/a
24.8395	0.09	49679	keystroke_e	e	n/a
25.0345	0.075	50069	keystroke_t	t	n/a
25.2145	0.09	50429	keystroke_a	a	n/a
25.2895	0.061	50579	keystroke_t	t	n/a
25.4095	0.105	50819	keystroke_i	i	n/a
25.4545	0.091	50909	keystroke_o	o	n/a
25.6505	0.074	51301	keystroke_n	n	n/a
26.2645	0.06	52529	keystroke_Key.space	Key.space	n/a
27.2695	0.105	54539	keystroke_p	p	n/a
27.5695	0.06	55139	keystroke_h	h	n/a
28.7995	0.06	57599	keystroke_e	e	n/a
29.04	0.045	58080	keystroke_n	n	n/a
29.43	0.105	58860	keystroke_o	o	n/a
29.6845	0.105	59369	keystroke_m	m	n/a
30.21	0.06	60420	keystroke_e	e	n/a
30.54	0.06	61080	keystroke_n	n	n/a
30.855	0.09	61710	keystroke_o	o	n/a
31.095	0.06	62190	keystroke_n	n	n/a
31.545	0.075	63090	keystroke_Key.enter	Key.enter	n/a
31.625	9.1475	63250	prompt	n/a	month classification recovered branches\n
32.34	0.06	64680	keystroke_m	m	n/a
32.52	0.105	65040	keystroke_o	o	n/a
32.715	0.075	65430	keystroke_n	n	n/a
32.985	0.09	65970	keystroke_t	t	n/a
33.075	0.105	66150	keystroke_h	h	n/a
33.33	0.06	66660	keystroke_Key.space	Key.space	n/a
33.72	0.09	67440	keystroke_c	c	n/a
33.87	0.0895	67740	keystroke_l	l	n/a
34.0045	0.075	68009	keystroke_a	a	n/a
34.2145	0.03	68429	keystroke_s	s	n/a
34.2895	0.075	68579	keystroke_s	s	n/a
34.4395	0.075	68879	keystroke_i	i	n/a
34.71	0.06	69420	keystroke_f	f	n/a
34.83	0.12	69660	keystroke_i	i	n/a
34.965	0.06	69930	keystroke_c	c	n/a
35.085	0.09	70170	keystroke_a	a	n/a
35.34	0.075	70680	keystroke_t	t	n/a
35.46	0.105	70920	keystroke_i	i	n/a
35.505	0.105	71010	keystroke_o	o	n/a
35.685	0.0895	71370	keystroke_n	n	n/a
35.8945	0.075	71789	keystroke_Key.space	Key.space	n/a
36.6445	0.12	73289	keystroke_r	r	n/a
36.7195	0.09	73439	keystroke_e	e	n/a
36.9145	0.075	73829	keystroke_c	c	n/a
37.0645	0.09	74129	keystroke_o	o	n/a
37.1995	0.075	74399	keystroke_v	v	n/a
37.365	0.12	74730	keystroke_e	e	n/a
37.44	0.105	74880	keystroke_r	r	n/a
37.605	0.09	75210	keystroke_e	e	n/a
37.815	0.09	75630	keystroke_d	d	n/a
37.92	0.09	75840	keystroke_Key.space	Key.space	n/a
38.7	0.0445	77400	keystroke_b	b	n/a
38.76	0.0455	77520	keystroke_r	r	n/a
38.9245	0.076	77849	keystroke_a	a	n/a
39.4795	0.045	78959	keystroke_n	n	n/a
39.7055	0.059	79411	keystroke_c	c	n/a
39.8705	0.074	79741	keystroke_h	h	n/a
40.14	0.06	80280	keystroke_e	e	n/a
40.335	0.075	80670	keystroke_s	s	n/a
40.68	0.09	81360	keystroke_Key.enter	Key.enter	n/a
40.776	10.0305	81552	prompt	n/a	enzyme icon nancy estimated\n
41.58	0.06	83160	keystroke_e	e	n/a
41.82	0.06	83640	keystroke_n	n	n/a
42.2545	0.09	84509	keystroke_z	z	n/a
42.7495	0.015	85499	keystroke_y	y	n/a
43.1845	0.09	86369	keystroke_m	m	n/a
43.4545	0.061	86909	keystroke_e	e	n/a
43.6495	0.045	87299	keystroke_Key.space	Key.space	n/a
45.3	0.06	90600	keystroke_i	i	n/a
45.525	0.045	91050	keystroke_c	c	n/a
45.78	0.12	91560	keystroke_o	o	n/a
45.84	0.105	91680	keystroke_n	n	n/a
46.095	0.075	92190	keystroke_Key.space	Key.space	n/a
46.68	0.06	93360	keystroke_n	n	n/a
46.785	0.09	93570	keystroke_a	a	n/a
46.89	0.075	93780	keystroke_n	n	n/a
47.145	0.059	94290	keystroke_c	c	n/a
47.595	0.06	95190	keystroke_y	y	n/a
47.745	0.075	95490	keystroke_Key.space	Key.space	n/a
48.4495	0.06	96899	keystroke_e	e	n/a
48.6595	0.075	97319	keystroke_s	s	n/a
48.8545	0.06	97709	keystroke_t	t	n/a
49.005	0.15	98010	keystroke_i	i	n/a
49.095	0.105	98190	keystroke_m	m	n/a
49.215	0.075	98430	keystroke_a	a	n/a
49.395	0.12	98790	keystroke_t	t	n/a
49.455	0.09	98910	keystroke_e	e	n/a
49.635	0.105	99270	keystroke_d	d	n/a
50.7445	0.06	101489	keystroke_Key.enter	Key.enter	n/a
50.8105	9.4475	101621	prompt	n/a	gift photo mattress experiment\n
51.705	0.06	103410	keystroke_g	g	n/a
51.84	0.09	103680	keystroke_i	i	n/a
52.0195	0.06	104039	keystroke_f	f	n/a
52.1995	0.075	104399	keystroke_t	t	n/a
52.3345	0.075	104669	keystroke_Key.space	Key.space	n/a
53.115	0.06	106230	keystroke_p	p	n/a
53.43	0.045	106860	keystroke_h	h	n/a
53.58	0.12	107160	keystroke_o	o	n/a
53.925	0.045	107850	keystroke_t	t	n/a
54	0.09	108000	keystroke_o	o	n/a
54.24	0.06	108480	keystroke_Key.space	Key.space	n/a
54.5395	0.06	109079	keystroke_m	m	n/a
54.9745	0.09	109949	keystroke_a	a	n/a
55.2145	0.045	110429	keystroke_t	t	n/a
55.3045	0.075	110609	keystroke_t	t	n/a
55.4695	0.12	110939	keystroke_e	e	n/a
55.9045	0.1055	111809	keystroke_Key.backspace	Key.backspace	n/a
56.13	0.135	112260	keystroke_r	r	n/a
56.19	0.105	112380	keystroke_e	e	n/a
56.43	0.045	112860	keystroke_s	s	n/a
56.535	0.09	113070	keystroke_s	s	n/a
56.715	0.09	113430	keystroke_Key.space	Key.space	n/a
57.3	0.06	114600	keystroke_e	e	n/a
57.6295	0.075	115259	keystroke_x	x	n/a
58.1845	0.09	116369	keystroke_p	p	n/a
58.3795	0.075	116759	keystroke_e	e	n/a
58.5745	0.075	117149	keystroke_r	r	n/a
58.6945	0.06	117389	keystroke_i	i	n/a
58.9045	0.015	117809	keystroke_m	m	n/a
59.0095	0.06	118019	keystroke_e	e	n/a
59.2195	0.105	118439	keystroke_n	n	n/a
59.3395	0.105	118679	keystroke_t	t	n/a
60.15	0.105	120300	keystroke_Key.enter	Key.enter	n/a
60.2635	8.258	120527	prompt	n/a	actress discussion movies zones\n
60.9905	0.0895	121981	keystroke_a	a	n/a
61.215	0.0455	122430	keystroke_c	c	n/a
61.41	0.06	122820	keystroke_t	t	n/a
61.7255	0.12	123451	keystroke_r	r	n/a
62.115	0.045	124230	keystroke_e	e	n/a
62.235	0.12	124470	keystroke_e	e	n/a
62.43	0.105	124860	keystroke_Key.space	Key.space	n/a
62.865	0.105	125730	keystroke_d	d	n/a
62.955	0.105	125910	keystroke_i	i	n/a
63.09	0.075	126180	keystroke_s	s	n/a
63.21	0.09	126420	keystroke_c	c	n/a
63.315	0.12	126630	keystroke_u	u	n/a
63.555	0.06	127110	keystroke_s	s	n/a
63.66	0.105	127320	keystroke_s	s	n/a
63.81	0.1505	127620	keystroke_i	i	n/a
63.855	0.1505	127710	keystroke_o	o	n/a
64.5155	0.075	129031	keystroke_n	n	n/a
64.7245	0.075	129449	keystroke_Key.space	Key.space	n/a
65.2045	0.15	130409	keystroke_m	m	n/a
65.2955	0.12	130591	keystroke_o	o	n/a
65.5205	0.0445	131041	keystroke_v	v	n/a
65.61	0.12	131220	keystroke_i	i	n/a
66	0.06	132000	keystroke_e	e	n/a
66.24	0.06	132480	keystroke_s	s	n/a
66.7645	0.06	133529	keystroke_Key.space	Key.space	n/a
67.2595	0.075	134519	keystroke_z	z	n/a
67.5595	0.135	135119	keystroke_o	o	n/a
67.6495	0.075	135299	keystroke_n	n	n/a
67.8895	0.0605	135779	keystroke_e	e	n/a
68.055	0.09	136110	keystroke_s	s	n/a
68.49	0.03	136980	keystroke_Key.enter	Key.enter	n/a
68.5275	6.024	137055	prompt	n/a	marketing the arising bear\n
69.39	0.075	138780	keystroke_m	m	n/a
69.48	0.06	138960	keystroke_a	a	n/a
69.6745	0.06	139349	keystroke_r	r	n/a
69.7945	0.1055	139589	keystroke_k	k	n/a
69.945	0.0755	139890	keystroke_e	e	n/a
70.1105	0.075	140221	keystroke_t	t	n/a
70.2155	0.1195	140431	keystroke_i	i	n/a
70.29	0.075	140580	keystroke_n	n	n/a
70.366	0.089	140732	keystroke_g	g	n/a
70.485	0.09	140970	keystroke_Key.space	Key.space	n/a
70.935	0.06	141870	keystroke_t	t	n/a
71.025	0.075	142050	keystroke_h	h	n/a
71.13	0.0755	142260	keystroke_e	e	n/a
71.2495	0.09	142499	keystroke_Key.space	Key.space	n/a
71.5655	0.0745	143131	keystroke_a	a	n/a
71.835	0.06	143670	keystroke_r	r	n/a
71.985	0.105	143970	keystroke_i	i	n/a
72.405	0.06	144810	keystroke_s	s	n/a
72.5395	0.135	145079	keystroke_i	i	n/a
72.6155	0.089	145231	keystroke_n	n	n/a
72.7955	0.0745	145591	keystroke_g	g	n/a
72.885	0.075	145770	keystroke_Key.space	Key.space	n/a
73.455	0.075	146910	keystroke_b	b	n/a
73.545	0.075	147090	keystroke_e	e	n/a
73.77	0.12	147540	keystroke_a	a	n/a
73.98	0.105	147960	keystroke_r	r	n/a
74.475	0.075	148950	keystroke_Key.enter	Key.enter	n/a
74.557	7.87	149114	prompt	n/a	loud rental mega reasonably\n
75.2995	0.075	150599	keystroke_l	l	n/a
76.545	0.15	153090	keystroke_o	o	n/a
76.605	0.105	153210	keystroke_u	u	n/a
76.725	0.06	153450	keystroke_d	d	n/a
76.905	0.075	153810	keystroke_Key.space	Key.space	n/a
77.385	0.1195	154770	keystroke_r	r	n/a
77.4595	0.075	154919	keystroke_e	e	n/a
77.6395	0.09	155279	keystroke_n	n	n/a
77.8195	0.09	155639	keystroke_t	t	n/a
78.2695	0.06	156539	keystroke_a	a	n/a
78.3595	0.12	156719	keystroke_l	l	n/a
78.615	0.075	157230	keystroke_Key.space	Key.space	n/a
78.8995	0.075	157799	keystroke_m	m	n/a
79.0195	0.075	158039	keystroke_e	e	n/a
79.2445	0.06	158489	keystroke_g	g	n/a
79.41	0.075	158820	keystroke_a	a	n/a
79.53	0.105	159060	keystroke_Key.space	Key.space	n/a
80.085	0.09	160170	keystroke_r	r	n/a
80.355	0.015	160710	keystroke_e	e	n/a
80.475	0.105	160950	keystroke_a	a	n/a
80.76	0.045	161520	keystroke_s	s	n/a
81.015	0.135	162030	keystroke_o	o	n/a
81.135	0.06	162270	keystroke_n	n	n/a
81.3	0.12	162600	keystroke_a	a	n/a
81.48	0.075	162960	keystroke_b	b	n/a
81.72	0.135	163440	keystroke_l	l	n/a
81.84	0.105	163680	keystroke_y	y	n/a
82.3495	0.075	164699	keystroke_Key.enter	Key.enter	n/a
82.43	7.9765	164860	prompt	n/a	failing oaks pride broadcast\n
83.34	0.045	166680	keystroke_f	f	n/a
83.49	0.09	166980	keystroke_a	a	n/a
83.595	0.075	167190	keystroke_i	i	n/a
83.7895	0.09	167579	keystroke_l	l	n/a
84.0145	0.105	168029	keystroke_i	i	n/a
84.0895	0.06	168179	keystroke_n	n	n/a
84.1645	0.075	168329	keystroke_g	g	n/a
84.2695	0.09	168539	keystroke_Key.space	Key.space	n/a
84.63	0.09	169260	keystroke_o	o	n/a
84.84	0.105	169680	keystroke_a	a	n/a
85.3945	0.106	170789	keystroke_k	k	n/a
85.4845	0.09	170969	keystroke_s	s	n/a
85.6495	0.06	171299	keystroke_Key.space	Key.space	n/a
86.9995	0.09	173999	keystroke_p	p	n/a
87.1495	0.075	174299	keystroke_r	r	n/a
87.2995	0.105	174599	keystroke_i	i	n/a
87.5245	0.075	175049	keystroke_d	d	n/a
87.6895	0.105	175379	keystroke_e	e	n/a
87.8395	0.1055	175679	keystroke_Key.space	Key.space	n/a
88.455	0.045	176910	keystroke_b	b	n/a
88.56	0.09	177120	keystroke_r	r	n/a
88.905	0.09	177810	keystroke_o	o	n/a
89.07	0.105	178140	keystroke_a	a	n/a
89.28	0.0595	178560	keystroke_d	d	n/a
89.49	0.075	178980	keystroke_c	c	n/a
89.6845	0.075	179369	keystroke_a	a	n/a
89.8495	0.075	179699	keystroke_s	s	n/a
90.06	0.075	180120	keystroke_t	t	n/a
90.33	0.075	180660	keystroke_Key.enter	Key.enter	n/a
90.4095	7.5575	180819	prompt	n/a	weapons screens taught personals\n
91.1695	0.03	182339	keystroke_w	w	n/a
91.2745	0.06	182549	keystroke_e	e	n/a
91.4845	0.06	182969	keystroke_a	a	n/a
91.6345	0.15	183269	keystroke_p	p	n/a
91.7245	0.105	183449	keystroke_o	o	n/a
91.995	0.075	183990	keystroke_n	n	n/a
92.1	0.075	184200	keystroke_s	s	n/a
92.22	0.09	184440	keystroke_Key.space	Key.space	n/a
92.85	0.075	185700	keystroke_s	s	n/a
93.015	0.075	186030	keystroke_c	c	n/a
93.21	0.075	186420	keystroke_r	r	n/a
93.39	0.045	186780	keystroke_e	e	n/a
93.495	0.075	186990	keystroke_e	e	n/a
93.6	0.105	187200	keystroke_n	n	n/a
93.765	0.075	187530	keystroke_s	s	n/a
93.885	0.075	187770	keystroke_Key.space	Key.space	n/a
94.335	0.06	188670	keystroke_t	t	n/a
94.5	0.09	189000	keystroke_a	a	n/a
94.7545	0.075	189509	keystroke_u	u	n/a
94.9495	0.06	189899	keystroke_g	g	n/a
95.0395	0.09	190079	keystroke_h	h	n/a
95.1445	0.09	190289	keystroke_t	t	n/a
95.3395	0.075	190679	keystroke_Key.space	Key.space	n/a
95.745	0.09	191490	keystroke_p	p	n/a
95.819	0.12	191638	keystroke_e	e	n/a
95.894	0.09	191788	keystroke_r	r	n/a
96.09	0.075	192180	keystroke_s	s	n/a
96.644	0.12	193288	keystroke_o	o	n/a
96.704	0.076	193408	keystroke_n	n	n/a
96.899	0.106	193798	keystroke_a	a	n/a
97.2595	0.121	194519	keystroke_l	l	n/a
97.3945	0.09	194789	keystroke_s	s	n/a
97.9045	0.0605	195809	keystroke_Key.enter	Key.enter	n/a
97.9705	7.7505	195941	prompt	n/a	maybe watt beaver concerns\n
98.729	0.061	197458	keystroke_m	m	n/a
98.834	0.075	197668	keystroke_a	a	n/a
99.135	0.119	198270	keystroke_y	y	n/a
99.48	0.089	198960	keystroke_b	b	n/a
99.584	0.06	199168	keystroke_e	e	n/a
99.735	0.075	199470	keystroke_Key.space	Key.space	n/a
100.1545	0.06	200309	keystroke_w	w	n/a
100.3345	0.09	200669	keystroke_a	a	n/a
100.9495	0.06	201899	keystroke_t	t	n/a
101.0695	0.105	202139	keystroke_t	t	n/a
101.3695	0.075	202739	keystroke_Key.space	Key.space	n/a
102.1195	0.015	204239	keystroke_b	b	n/a
102.2245	0.075	204449	keystroke_e	e	n/a
102.4045	0.06	204809	keystroke_a	a	n/a
102.66	0.045	205320	keystroke_v	v	n/a
102.9	0.105	205800	keystroke_e	e	n/a
102.99	0.075	205980	keystroke_r	r	n/a
103.125	0.09	206250	keystroke_Key.space	Key.space	n/a
103.5	0.075	207000	keystroke_c	c	n/a
103.68	0.105	207360	keystroke_o	o	n/a
103.905	0.06	207810	keystroke_n	n	n/a
104.055	0.075	208110	keystroke_c	c	n/a
104.28	0.12	208560	keystroke_e	e	n/a
104.475	0.075	208950	keystroke_r	r	n/a
104.6845	0.075	209369	keystroke_n	n	n/a
105.2245	0.09	210449	keystroke_s	s	n/a
105.6445	0.075	211289	keystroke_Key.enter	Key.enter	n/a
105.725	7.5415	211450	prompt	n/a	plot rank already extended\n
106.4395	0.105	212879	keystroke_p	p	n/a
106.6495	0.075	213299	keystroke_l	l	n/a
106.8745	0.105	213749	keystroke_o	o	n/a
107.0545	0.105	214109	keystroke_t	t	n/a
107.2195	0.075	214439	keystroke_Key.space	Key.space	n/a
107.9545	0.0455	215909	keystroke_r	r	n/a
108.12	0.075	216240	keystroke_a	a	n/a
108.315	0.06	216630	keystroke_n	n	n/a
108.7795	0.06	217559	keystroke_k	k	n/a
109.0045	0.06	218009	keystroke_Key.space	Key.space	n/a
109.1695	0.105	218339	keystroke_a	a	n/a
109.3195	0.12	218639	keystroke_l	l	n/a
109.4995	0.135	218999	keystroke_r	r	n/a
109.5745	0.1205	219149	keystroke_e	e	n/a
109.845	0.105	219690	keystroke_a	a	n/a
109.89	0.12	219780	keystroke_d	d	n/a
110.07	0.1045	220140	keystroke_y	y	n/a
110.3395	0.06	220679	keystroke_Key.space	Key.space	n/a
111.315	0.06	222630	keystroke_e	e	n/a
111.555	0.045	223110	keystroke_x	x	n/a
111.81	0.045	223620	keystroke_t	t	n/a
112.0045	0.0755	224009	keystroke_e	e	n/a
112.215	0.075	224430	keystroke_n	n	n/a
112.365	0.075	224730	keystroke_d	d	n/a
112.56	0.045	225120	keystroke_e	e	n/a
112.7095	0.075	225419	keystroke_d	d	n/a
113.25	0.015	226500	keystroke_Key.enter	Key.enter	n/a
113.2715	8.2445	226543	prompt	n/a	farmer cache thompson buttons\n
114.0595	0.09	228119	keystroke_f	f	n/a
114.2545	0.09	228509	keystroke_a	a	n/a
114.4495	0.06	228899	keystroke_r	r	n/a
114.6145	0.09	229229	keystroke_m	m	n/a
114.7645	0.1355	229529	keystroke_e	e	n/a
114.84	0.105	229680	keystroke_r	r	n/a
115.005	0.09	230010	keystroke_Key.space	Key.space	n/a
115.35	0.06	230700	keystroke_c	c	n/a
115.4845	0.105	230969	keystroke_a	a	n/a
115.8145	0.075	231629	keystroke_c	c	n/a
116.0395	0.075	232079	keystroke_h	h	n/a
116.1445	0.075	232289	keystroke_e	e	n/a
116.3095	0.075	232619	keystroke_Key.space	Key.space	n/a
116.9545	0.075	233909	keystroke_t	t	n/a
117.2095	0.045	234419	keystroke_h	h	n/a
117.5095	0.09	235019	keystroke_o	o	n/a
117.7495	0.045	235499	keystroke_m	m	n/a
117.9145	0.075	235829	keystroke_p	p	n/a
118.094	0.075	236188	keystroke_s	s	n/a
118.274	0.135	236548	keystroke_o	o	n/a
118.365	0.06	236730	keystroke_n	n	n/a
118.559	0.076	237118	keystroke_Key.space	Key.space	n/a
119.5195	0.06	239039	keystroke_b	b	n/a
119.6695	0.09	239339	keystroke_u	u	n/a
119.865	0.0145	239730	keystroke_t	t	n/a
119.939	0.076	239878	keystroke_t	t	n/a
120.6295	0.15	241259	keystroke_o	o	n/a
120.7045	0.105	241409	keystroke_n	n	n/a
121.1845	0.06	242369	keystroke_s	s	n/a
121.4395	0.0755	242879	keystroke_Key.enter	Key.enter	n/a
121.5215	8.455	243043	prompt	n/a	lending photos song tobago\n
122.5045	0.09	245009	keystroke_l	l	n/a
122.6245	0.06	245249	keystroke_e	e	n/a
122.8945	0.0905	245789	keystroke_n	n	n/a
123.24	0.075	246480	keystroke_d	d	n/a
123.4645	0.105	246929	keystroke_i	i	n/a
123.5095	0.075	247019	keystroke_n	n	n/a
123.6295	0.0755	247259	keystroke_g	g	n/a
123.735	0.09	247470	keystroke_Key.space	Key.space	n/a
124.4395	0.105	248879	keystroke_p	p	n/a
124.6645	0.06	249329	keystroke_h	h	n/a
124.8295	0.09	249659	keystroke_o	o	n/a
125.0545	0.045	250109	keystroke_t	t	n/a
125.1445	0.12	250289	keystroke_o	o	n/a
125.5045	0.045	251009	keystroke_s	s	n/a
125.5795	0.09	251159	keystroke_Key.space	Key.space	n/a
126.39	0.09	252780	keystroke_s	s	n/a
126.63	0.105	253260	keystroke_o	o	n/a
126.9	0.105	253800	keystroke_n	n	n/a
127.11	0.075	254220	keystroke_g	g	n/a
127.245	0.09	254490	keystroke_Key.space	Key.space	n/a
128.07	0.045	256140	keystroke_t	t	n/a
128.13	0.045	256260	keystroke_o	o	n/a
128.745	0.075	257490	keystroke_b	b	n/a
128.835	0.09	257670	keystroke_a	a	n/a
129.075	0.075	258150	keystroke_g	g	n/a
129.39	0.105	258780	keystroke_o	o	n/a
129.8995	0.075	259799	keystroke_Key.enter	Key.enter	n/a
129.98	7.4215	259960	prompt	n/a	detective espn rose protecting\n
130.9795	0.06	261959	keystroke_d	d	n/a
131.1595	0.075	262319	keystroke_e	e	n/a
131.3545	0.06	262709	keystroke_t	t	n/a
131.5345	0.09	263069	keystroke_e	e	n/a
131.6545	0.075	263309	keystroke_c	c	n/a
131.8495	0.075	263699	keystroke_t	t	n/a
132.0595	0.105	264119	keystroke_i	i	n/a
132.2095	0.045	264419	keystroke_v	v	n/a
132.4195	0.09	264839	keystroke_e	e	n/a
132.615	0.089	265230	keystroke_Key.space	Key.space	n/a
133.1995	0.105	266399	keystroke_e	e	n/a
133.3795	0.075	266759	keystroke_s	s	n/a
133.4695	0.105	266939	keystroke_p	p	n/a
133.7395	0.045	267479	keystroke_n	n	n/a
133.9045	0.0745	267809	keystroke_Key.space	Key.space	n/a
134.039	0.06	268078	keystroke_r	r	n/a
134.159	0.106	268318	keystroke_o	o	n/a
134.354	0.076	268708	keystroke_s	s	n/a
134.549	0.076	269098	keystroke_e	e	n/a
134.654	0.09	269308	keystroke_Key.space	Key.space	n/a
135.135	0.1045	270270	keystroke_p	p	n/a
135.2845	0.075	270569	keystroke_r	r	n/a
135.855	0.06	271710	keystroke_o	o	n/a
136.0345	0.06	272069	keystroke_t	t	n/a
136.1695	0.075	272339	keystroke_e	e	n/a
136.3645	0.045	272729	keystroke_c	c	n/a
136.5445	0.09	273089	keystroke_t	t	n/a
136.6495	0.135	273299	keystroke_i	i	n/a
136.7245	0.09	273449	keystroke_n	n	n/a
136.8295	0.06	273659	keystroke_g	g	n/a
137.2945	0.105	274589	keystroke_Key.enter	Key.enter	n/a
137.4055	12.506	274811	prompt	n/a	museums thinks employers receivers\n
138.2395	0.075	276479	keystroke_m	m	n/a
138.7045	0.06	277409	keystroke_u	u	n/a
138.8845	0.045	277769	keystroke_s	s	n/a
139.0795	0.06	278159	keystroke_e	e	n/a
139.3045	0.06	278609	keystroke_u	u	n/a
139.53	0.045	279060	keystroke_m	m	n/a
139.649	0.0755	279298	keystroke_s	s	n/a
139.7545	0.06	279509	keystroke_Key.space	Key.space	n/a
140.3545	0.075	280709	keystroke_t	t	n/a
140.4445	0.06	280889	keystroke_h	h	n/a
140.6395	0.06	281279	keystroke_n	n	n/a
141.6295	0.09	283259	keystroke_Key.backspace	Key.backspace	n/a
141.96	0.104	283920	keystroke_i	i	n/a
142.1845	0.075	284369	keystroke_n	n	n/a
142.3795	0.105	284759	keystroke_k	k	n/a
142.5295	0.075	285059	keystroke_s	s	n/a
142.6345	0.09	285269	keystroke_Key.space	Key.space	n/a
143.4895	0.06	286979	keystroke_e	e	n/a
143.6695	0.075	287339	keystroke_m	m	n/a
143.8495	0.09	287699	keystroke_p	p	n/a
144.0145	0.075	288029	keystroke_l	l	n/a
144.1945	0.075	288389	keystroke_o	o	n/a
145.034	0.015	290068	keystroke_Key.backspace	Key.backspace	n/a
145.875	0.075	291750	keystroke_o	o	n/a
146.115	0.059	292230	keystroke_y	y	n/a
146.2945	0.1055	292589	keystroke_e	e	n/a
146.505	0.09	293010	keystroke_r	r	n/a
146.73	0.075	293460	keystroke_s	s	n/a
146.865	0.075	293730	keystroke_Key.space	Key.space	n/a
147.06	0.045	294120	keystroke_e	e	n/a
147.405	0.09	294810	keystroke_Key.backspace	Key.backspace	n/a
147.51	0.15	295020	keystroke_r	r	n/a
147.6	0.105	295200	keystroke_e	e	n/a
148.1545	0.105	296309	keystroke_c	c	n/a
148.3195	0.061	296639	keystroke_e	e	n/a
148.4845	0.09	296969	keystroke_i	i	n/a
148.7695	0.075	297539	keystroke_v	v	n/a
149.0395	0.075	298079	keystroke_e	e	n/a
149.1595	0.06	298319	keystroke_r	r	n/a
149.3395	0.075	298679	keystroke_s	s	n/a
149.4295	0.105	298859	keystroke_Key.space	Key.space	n/a
149.82	0.09	299640	keystroke_Key.enter	Key.enter	n/a
149.915	10.331	299830	prompt	n/a	alexandria assembly according variations\n
150.525	0.09	301050	keystroke_a	a	n/a
151.155	0.09	302310	keystroke_l	l	n/a
151.4995	0.06	302999	keystroke_e	e	n/a
151.8595	0.06	303719	keystroke_x	x	n/a
152.0395	0.09	304079	keystroke_a	a	n/a
152.1595	0.075	304319	keystroke_n	n	n/a
152.4295	0.045	304859	keystroke_d	d	n/a
152.6845	0.06	305369	keystroke_r	r	n/a
152.7895	0.12	305579	keystroke_i	i	n/a
152.9695	0.09	305939	keystroke_a	a	n/a
153.3295	0.09	306659	keystroke_Key.space	Key.space	n/a
153.7795	0.09	307559	keystroke_a	a	n/a
154.0195	0.03	308039	keystroke_e	e	n/a
154.425	0.09	308850	keystroke_Key.backspace	Key.backspace	n/a
154.68	0.06	309360	keystroke_s	s	n/a
155.265	0.045	310530	keystroke_s	s	n/a
155.505	0.045	311010	keystroke_e	e	n/a
155.625	0.06	311250	keystroke_m	m	n/a
155.88	0.06	311760	keystroke_b	b	n/a
156.36	0.105	312720	keystroke_l	l	n/a
156.495	0.09	312990	keystroke_y	y	n/a
156.615	0.09	313230	keystroke_Key.space	Key.space	n/a
156.795	0.09	313590	keystroke_a	a	n/a
157.065	0.03	314130	keystroke_c	c	n/a
157.155	0.075	314310	keystroke_c	c	n/a
157.275	0.12	314550	keystroke_o	o	n/a
157.425	0.06	314850	keystroke_r	r	n/a
157.605	0.06	315210	keystroke_d	d	n/a
157.695	0.135	315390	keystroke_i	i	n/a
157.77	0.09	315540	keystroke_n	n	n/a
157.905	0.075	315810	keystroke_g	g	n/a
157.98	0.105	315960	keystroke_Key.space	Key.space	n/a
158.64	0.0595	317280	keystroke_v	v	n/a
158.7895	0.105	317579	keystroke_a	a	n/a
158.9395	0.09	317879	keystroke_r	r	n/a
159.0595	0.105	318119	keystroke_i	i	n/a
159.2095	0.09	318419	keystroke_a	a	n/a
159.4045	0.075	318809	keystroke_t	t	n/a
159.5095	0.105	319019	keystroke_i	i	n/a
159.5395	0.12	319079	keystroke_o	o	n/a
159.7345	0.075	319469	keystroke_n	n	n/a
159.8395	0.09	319679	keystroke_s	s	n/a
160.1695	0.075	320339	keystroke_Key.enter	Key.enter	n/a
160.25	8.9665	320500	prompt	n/a	episode anyone reproduction navy\n
161.0995	0.075	322199	keystroke_e	e	n/a
161.3245	0.09	322649	keystroke_p	p	n/a
161.5645	0.045	323129	keystroke_i	i	n/a
161.7745	0.06	323549	keystroke_s	s	n/a
161.8645	0.1205	323729	keystroke_o	o	n/a
161.999	0.075	323998	keystroke_d	d	n/a
162.194	0.0465	324388	keystroke_e	e	n/a
162.344	0.075	324688	keystroke_Key.space	Key.space	n/a
162.855	0.015	325710	keystroke_a	a	n/a
163.035	0.075	326070	keystroke_n	n	n/a
163.17	0.075	326340	keystroke_y	y	n/a
163.605	0.1195	327210	keystroke_o	o	n/a
163.6945	0.06	327389	keystroke_n	n	n/a
163.7845	0.075	327569	keystroke_e	e	n/a
163.9195	0.0905	327839	keystroke_Key.space	Key.space	n/a
165.5095	0.12	331019	keystroke_r	r	n/a
165.5845	0.075	331169	keystroke_e	e	n/a
165.8245	0.105	331649	keystroke_p	p	n/a
165.9745	0.0605	331949	keystroke_r	r	n/a
166.065	0.105	332130	keystroke_o	o	n/a
166.26	0.075	332520	keystroke_d	d	n/a
166.425	0.06	332850	keystroke_u	u	n/a
166.515	0.06	333030	keystroke_c	c	n/a
166.71	0.09	333420	keystroke_t	t	n/a
166.77	0.135	333540	keystroke_i	i	n/a
166.815	0.12	333630	keystroke_o	o	n/a
167.025	0.075	334050	keystroke_n	n	n/a
167.2195	0.075	334439	keystroke_Key.space	Key.space	n/a
167.7595	0.045	335519	keystroke_n	n	n/a
167.8495	0.12	335699	keystroke_a	a	n/a
168.495	0.075	336990	keystroke_v	v	n/a
168.69	0.105	337380	keystroke_y	y	n/a
169.11	0.1045	338220	keystroke_Key.enter	Key.enter	n/a
169.22	8.306	338440	prompt	n/a	fail worried medical fragrances\n
170.4895	0.09	340979	keystroke_f	f	n/a
170.6845	0.0905	341369	keystroke_a	a	n/a
170.88	0.075	341760	keystroke_i	i	n/a
171.03	0.12	342060	keystroke_l	l	n/a
171.33	0.059	342660	keystroke_Key.space	Key.space	n/a
171.885	0.075	343770	keystroke_w	w	n/a
171.99	0.09	343980	keystroke_o	o	n/a
172.14	0.06	344280	keystroke_r	r	n/a
172.23	0.09	344460	keystroke_r	r	n/a
172.35	0.12	344700	keystroke_i	i	n/a
172.455	0.045	344910	keystroke_e	e	n/a
172.635	0.075	345270	keystroke_d	d	n/a
172.724	0.091	345448	keystroke_Key.space	Key.space	n/a
173.025	0.06	346050	keystroke_m	m	n/a
173.19	0.06	346380	keystroke_e	e	n/a
173.415	0.06	346830	keystroke_d	d	n/a
173.49	0.105	346980	keystroke_i	i	n/a
173.745	0.045	347490	keystroke_c	c	n/a
173.91	0.0745	347820	keystroke_a	a	n/a
174	0.1045	348000	keystroke_l	l	n/a
174.2395	0.075	348479	keystroke_Key.space	Key.space	n/a
175.095	0.044	350190	keystroke_g	g	n/a
175.439	0.09	350878	keystroke_Key.backspace	Key.backspace	n/a
175.545	0.03	351090	keystroke_f	f	n/a
175.694	0.06	351388	keystroke_r	r	n/a
175.86	0.074	351720	keystroke_a	a	n/a
176.039	0.06	352078	keystroke_g	g	n/a
176.219	0.075	352438	keystroke_r	r	n/a
176.399	0.06	352798	keystroke_a	a	n/a
176.519	0.075	353038	keystroke_n	n	n/a
176.7145	0.135	353429	keystroke_c	c	n/a
176.7895	0.09	353579	keystroke_e	e	n/a
176.9845	0.09	353969	keystroke_s	s	n/a
177.4645	0.06	354929	keystroke_Key.enter	Key.enter	n/a
177.5315	10.345	355063	prompt	n/a	pride salvador equality simulation\n
178.5445	0.045	357089	keystroke_p	p	n/a
178.6045	0.06	357209	keystroke_r	r	n/a
178.7095	0.105	357419	keystroke_i	i	n/a
178.8895	0.06	357779	keystroke_d	d	n/a
179.069	0.061	358138	keystroke_e	e	n/a
179.174	0.09	358348	keystroke_Key.space	Key.space	n/a
179.5495	0.06	359099	keystroke_s	s	n/a
180.1045	0.075	360209	keystroke_a	a	n/a
180.2395	0.09	360479	keystroke_l	l	n/a
180.5095	0.045	361019	keystroke_v	v	n/a
180.6745	0.075	361349	keystroke_a	a	n/a
180.8845	0.045	361769	keystroke_d	d	n/a
181.0045	0.12	362009	keystroke_o	o	n/a
181.1545	0.09	362309	keystroke_r	r	n/a
181.2895	0.075	362579	keystroke_Key.space	Key.space	n/a
182.819	0.045	365638	keystroke_e	e	n/a
183.314	0.075	366628	keystroke_q	q	n/a
183.434	0.075	366868	keystroke_u	u	n/a
183.584	0.075	367168	keystroke_a	a	n/a
183.719	0.09	367438	keystroke_l	l	n/a
183.929	0.0755	367858	keystroke_i	i	n/a
184.0345	0.06	368069	keystroke_t	t	n/a
184.1845	0.09	368369	keystroke_y	y	n/a
184.3045	0.0905	368609	keystroke_Key.space	Key.space	n/a
184.9045	0.075	369809	keystroke_s	s	n/a
185.2045	0.06	370409	keystroke_i	i	n/a
185.4145	0.09	370829	keystroke_m	m	n/a
186.0445	0.075	372089	keystroke_u	u	n/a
186.2395	0.0755	372479	keystroke_l	l	n/a
186.525	0.105	373050	keystroke_a	a	n/a
186.675	0.105	373350	keystroke_t	t	n/a
186.795	0.105	373590	keystroke_i	i	n/a
186.855	0.12	373710	keystroke_o	o	n/a
187.035	0.0745	374070	keystroke_n	n	n/a
187.3195	0.06	374639	keystroke_Key.space	Key.space	n/a
187.8295	0.045	375659	keystroke_Key.enter	Key.enter	n/a
187.8795	8.0215	375759	prompt	n/a	finland browse assistant movement\n
188.775	0.06	377550	keystroke_f	f	n/a
188.91	0.135	377820	keystroke_i	i	n/a
189	0.075	378000	keystroke_n	n	n/a
189.24	0.09	378480	keystroke_l	l	n/a
189.39	0.09	378780	keystroke_a	a	n/a
189.54	0.074	379080	keystroke_n	n	n/a
189.675	0.06	379350	keystroke_d	d	n/a
189.764	0.09	379528	keystroke_Key.space	Key.space	n/a
190.53	0.06	381060	keystroke_b	b	n/a
190.695	0.06	381390	keystroke_r	r	n/a
190.83	0.105	381660	keystroke_o	o	n/a
191.07	0.1195	382140	keystroke_w	w	n/a
191.3695	0.06	382739	keystroke_s	s	n/a
191.5495	0.105	383099	keystroke_e	e	n/a
191.6845	0.09	383369	keystroke_Key.space	Key.space	n/a
192.1795	0.09	384359	keystroke_a	a	n/a
192.3895	0.03	384779	keystroke_s	s	n/a
192.495	0.075	384990	keystroke_s	s	n/a
192.585	0.09	385170	keystroke_i	i	n/a
192.69	0.09	385380	keystroke_s	s	n/a
192.915	0.06	385830	keystroke_t	t	n/a
193.05	0.09	386100	keystroke_a	a	n/a
193.155	0.09	386310	keystroke_n	n	n/a
193.425	0.06	386850	keystroke_t	t	n/a
193.53	0.089	387060	keystroke_Key.space	Key.space	n/a
194.505	0.045	389010	keystroke_m	m	n/a
194.67	0.089	389340	keystroke_o	o	n/a
194.819	0.046	389638	keystroke_v	v	n/a
195	0.045	390000	keystroke_e	e	n/a
195.06	0.089	390120	keystroke_m	m	n/a
195.21	0.074	390420	keystroke_e	e	n/a
195.315	0.09	390630	keystroke_n	n	n/a
195.42	0.074	390840	keystroke_t	t	n/a
195.81	0.089	391620	keystroke_Key.enter	Key.enter	n/a
195.905	11.741	391810	prompt	n/a	chester sophisticated significant consequence\n
196.769	0.06	393538	keystroke_c	c	n/a
196.934	0.06	393868	keystroke_h	h	n/a
197.084	0.045	394168	keystroke_e	e	n/a
197.249	0.06	394498	keystroke_s	s	n/a
197.429	0.06	394858	keystroke_t	t	n/a
197.669	0.075	395338	keystroke_e	e	n/a
197.714	0.105	395428	keystroke_r	r	n/a
198.479	0.045	396958	keystroke_Key.space	Key.space	n/a
198.749	0.06	397498	keystroke_s	s	n/a
199.109	0.06	398218	keystroke_o	o	n/a
199.289	0.09	398578	keystroke_p	p	n/a
199.544	0.06	399088	keystroke_h	h	n/a
199.694	0.09	399388	keystroke_i	i	n/a
200.0695	0.09	400139	keystroke_s	s	n/a
200.5345	0.06	401069	keystroke_t	t	n/a
200.6245	0.105	401249	keystroke_i	i	n/a
200.7895	0.075	401579	keystroke_c	c	n/a
200.9245	0.105	401849	keystroke_a	a	n/a
201.1645	0.075	402329	keystroke_t	t	n/a
201.2095	0.06	402419	keystroke_e	e	n/a
201.3895	0.09	402779	keystroke_d	d	n/a
201.4945	0.09	402989	keystroke_Key.space	Key.space	n/a
202.289	0.075	404578	keystroke_s	s	n/a
202.394	0.09	404788	keystroke_i	i	n/a
202.544	0.06	405088	keystroke_g	g	n/a
202.664	0.06	405328	keystroke_n	n	n/a
202.829	0.12	405658	keystroke_i	i	n/a
202.994	0.075	405988	keystroke_f	f	n/a
203.099	0.105	406198	keystroke_i	i	n/a
203.189	0.105	406378	keystroke_c	c	n/a
203.309	0.06	406618	keystroke_a	a	n/a
203.4595	0.09	406919	keystroke_n	n	n/a
203.5945	0.09	407189	keystroke_t	t	n/a
203.6995	0.09	407399	keystroke_Key.space	Key.space	n/a
204.2995	0.06	408599	keystroke_c	c	n/a
204.4495	0.075	408899	keystroke_o	o	n/a
204.6595	0.06	409319	keystroke_n	n	n/a
205.259	0.06	410518	keystroke_s	s	n/a
205.484	0.075	410968	keystroke_e	e	n/a
206.2195	0.09	412439	keystroke_q	q	n/a
206.399	0.075	412798	keystroke_u	u	n/a
206.534	0.075	413068	keystroke_e	e	n/a
206.654	0.075	413308	keystroke_n	n	n/a
206.8345	0.18	413669	keystroke_c	c	n/a
206.9395	0.18	413879	keystroke_e	e	n/a
207.539	0.105	415078	keystroke_Key.enter	Key.enter	n/a
207.6495	8.3215	415299	prompt	n/a	mortgage athletic syntax exam\n
208.47	0.105	416940	keystroke_m	m	n/a
208.65	0.075	417300	keystroke_o	o	n/a
208.74	0.045	417480	keystroke_r	r	n/a
208.89	0.0595	417780	keystroke_t	t	n/a
209.1445	0.06	418289	keystroke_g	g	n/a
209.3245	0.075	418649	keystroke_a	a	n/a
209.5345	0.105	419069	keystroke_g	g	n/a
209.5945	0.105	419189	keystroke_e	e	n/a
209.7445	0.09	419489	keystroke_Key.space	Key.space	n/a
210.059	0.09	420118	keystroke_a	a	n/a
210.464	0.03	420928	keystroke_t	t	n/a
210.509	0.09	421018	keystroke_h	h	n/a
211.229	0.075	422458	keystroke_l	l	n/a
211.349	0.06	422698	keystroke_e	e	n/a
211.529	0.06	423058	keystroke_t	t	n/a
211.7095	0.105	423419	keystroke_i	i	n/a
211.8295	0.075	423659	keystroke_c	c	n/a
211.9945	0.075	423989	keystroke_Key.space	Key.space	n/a
212.8345	0.015	425669	keystroke_s	s	n/a
213.075	0.105	426150	keystroke_y	y	n/a
213.33	0.06	426660	keystroke_n	n	n/a
213.57	0.045	427140	keystroke_t	t	n/a
213.765	0.09	427530	keystroke_a	a	n/a
214.275	0.075	428550	keystroke_x	x	n/a
214.485	0.089	428970	keystroke_Key.space	Key.space	n/a
215.025	0.06	430050	keystroke_e	e	n/a
215.2495	0.06	430499	keystroke_x	x	n/a
215.4445	0.09	430889	keystroke_a	a	n/a
215.5945	0.0895	431189	keystroke_m	m	n/a
215.849	0.1205	431698	keystroke_Key.enter	Key.enter	n/a
215.9745	7.8565	431949	prompt	n/a	minimum sequence pieces draw\n
216.75	0.075	433500	keystroke_m	m	n/a
216.945	0.0895	433890	keystroke_i	i	n/a
217.1395	0.075	434279	keystroke_n	n	n/a
217.3195	0.09	434639	keystroke_i	i	n/a
217.5295	0.06	435059	keystroke_m	m	n/a
217.7545	0.075	435509	keystroke_u	u	n/a
217.979	0.061	435958	keystroke_m	m	n/a
218.205	0.074	436410	keystroke_Key.space	Key.space	n/a
218.775	0.06	437550	keystroke_s	s	n/a
218.985	0.06	437970	keystroke_e	e	n/a
219.24	0.045	438480	keystroke_q	q	n/a
219.344	0.061	438688	keystroke_u	u	n/a
220.0345	0.06	440069	keystroke_e	e	n/a
220.1395	0.09	440279	keystroke_n	n	n/a
220.3645	0.15	440729	keystroke_c	c	n/a
220.5895	0.105	441179	keystroke_e	e	n/a
220.7245	0.075	441449	keystroke_Key.space	Key.space	n/a
221.3995	0.165	442799	keystroke_p	p	n/a
221.4745	0.12	442949	keystroke_i	i	n/a
221.6695	0.09	443339	keystroke_e	e	n/a
221.9095	0.09	443819	keystroke_c	c	n/a
222.0445	0.075	444089	keystroke_e	e	n/a
222.2695	0.12	444539	keystroke_s	s	n/a
222.3445	0.09	444689	keystroke_Key.space	Key.space	n/a
222.959	0.075	445918	keystroke_d	d	n/a
223.049	0.06	446098	keystroke_r	r	n/a
223.229	0.105	446458	keystroke_a	a	n/a
223.454	0.075	446908	keystroke_w	w	n/a
223.709	0.12	447418	keystroke_Key.enter	Key.enter	n/a
223.8345	6.852	447669	prompt	n/a	loop subscriber would equipped\n
224.624	0.09	449248	keystroke_l	l	n/a
224.834	0.06	449668	keystroke_o	o	n/a
224.999	0.0605	449998	keystroke_o	o	n/a
225.1495	0.09	450299	keystroke_p	p	n/a
225.359	0.09	450718	keystroke_Key.space	Key.space	n/a
225.764	0.075	451528	keystroke_s	s	n/a
225.914	0.075	451828	keystroke_u	u	n/a
226.1695	0.105	452339	keystroke_b	b	n/a
226.3945	0.075	452789	keystroke_s	s	n/a
226.5745	0.06	453149	keystroke_c	c	n/a
226.7545	0.075	453509	keystroke_r	r	n/a
226.9045	0.09	453809	keystroke_i	i	n/a
227.1595	0.0895	454319	keystroke_b	b	n/a
227.294	0.135	454588	keystroke_e	e	n/a
227.369	0.105	454738	keystroke_r	r	n/a
227.519	0.12	455038	keystroke_Key.space	Key.space	n/a
228.105	0.015	456210	keystroke_w	w	n/a
228.12	0.12	456240	keystroke_o	o	n/a
228.195	0.0895	456390	keystroke_u	u	n/a
228.344	0.105	456688	keystroke_l	l	n/a
228.479	0.09	456958	keystroke_d	d	n/a
228.614	0.075	457228	keystroke_Key.space	Key.space	n/a
229.259	0.0605	458518	keystroke_e	e	n/a
229.5445	0.075	459089	keystroke_q	q	n/a
229.6345	0.06	459269	keystroke_u	u	n/a
229.8295	0.06	459659	keystroke_i	i	n/a
230.01	0.06	460020	keystroke_p	p	n/a
230.145	0.105	460290	keystroke_p	p	n/a
230.235	0.06	460470	keystroke_e	e	n/a
230.43	0.075	460860	keystroke_d	d	n/a
230.61	0.075	461220	keystroke_Key.enter	Key.enter	n/a
230.691	10.4655	461382	prompt	n/a	inappropriate brazil goal inspection\n
231.63	0.06	463260	keystroke_i	i	n/a
231.809	0.045	463618	keystroke_n	n	n/a
231.929	0.105	463858	keystroke_a	a	n/a
232.094	0.0455	464188	keystroke_p	p	n/a
232.2295	0.06	464459	keystroke_p	p	n/a
232.3945	0.075	464789	keystroke_r	r	n/a
232.4845	0.105	464969	keystroke_o	o	n/a
232.7245	0.075	465449	keystroke_p	p	n/a
232.8595	0.075	465719	keystroke_r	r	n/a
232.9645	0.09	465929	keystroke_i	i	n/a
233.7295	0.105	467459	keystroke_Key.backspace	Key.backspace	n/a
233.9095	0.12	467819	keystroke_Key.backspace	Key.backspace	n/a
235.1695	0.045	470339	keystroke_r	r	n/a
235.2735	0.076	470547	keystroke_i	i	n/a
235.3645	0.06	470729	keystroke_a	a	n/a
235.5735	0.106	471147	keystroke_t	t	n/a
235.6345	0.09	471269	keystroke_e	e	n/a
235.7695	0.075	471539	keystroke_Key.space	Key.space	n/a
236.369	0.0605	472738	keystroke_b	b	n/a
236.4745	0.06	472949	keystroke_r	r	n/a
236.6545	0.075	473309	keystroke_a	a	n/a
237.0295	0.06	474059	keystroke_z	z	n/a
237.1495	0.06	474299	keystroke_i	i	n/a
237.3595	0.075	474719	keystroke_l	l	n/a
237.569	0.06	475138	keystroke_Key.space	Key.space	n/a
238.41	0.014	476820	keystroke_g	g	n/a
238.454	0.076	476908	keystroke_o	o	n/a
238.589	0.091	477178	keystroke_a	a	n/a
238.709	0.091	477418	keystroke_l	l	n/a
238.9495	0.075	477899	keystroke_Key.space	Key.space	n/a
239.5945	0.105	479189	keystroke_i	i	n/a
239.6545	0.075	479309	keystroke_n	n	n/a
239.7895	0.075	479579	keystroke_s	s	n/a
239.9695	0.075	479939	keystroke_p	p	n/a
240.0745	0.105	480149	keystroke_e	e	n/a
240.1645	0.0755	480329	keystroke_c	c	n/a
240.374	0.061	480748	keystroke_t	t	n/a
240.464	0.105	480928	keystroke_i	i	n/a
240.509	0.106	481018	keystroke_o	o	n/a
240.674	0.09	481348	keystroke_n	n	n/a
241.049	0.105	482098	keystroke_Key.enter	Key.enter	n/a
241.1605	9.0855	482321	prompt	n/a	further highlights whenever bracket\n
242.115	0.089	484230	keystroke_f	f	n/a
242.3545	0.075	484709	keystroke_u	u	n/a
242.4745	0.045	484949	keystroke_r	r	n/a
242.6545	0.045	485309	keystroke_t	t	n/a
242.7595	0.075	485519	keystroke_h	h	n/a
243.0145	0.135	486029	keystroke_e	e	n/a
243.1195	0.075	486239	keystroke_r	r	n/a
243.5395	0.015	487079	keystroke_Key.space	Key.space	n/a
244.124	0.045	488248	keystroke_h	h	n/a
244.274	0.075	488548	keystroke_i	i	n/a
244.424	0.06	488848	keystroke_g	g	n/a
244.499	0.075	488998	keystroke_h	h	n/a
244.709	0.135	489418	keystroke_l	l	n/a
244.799	0.075	489598	keystroke_i	i	n/a
244.9645	0.075	489929	keystroke_g	g	n/a
245.0245	0.105	490049	keystroke_h	h	n/a
245.1745	0.06	490349	keystroke_t	t	n/a
245.3245	0.09	490649	keystroke_s	s	n/a
245.4745	0.09	490949	keystroke_Key.space	Key.space	n/a
246.404	0.09	492808	keystroke_w	w	n/a
246.659	0.075	493318	keystroke_h	h	n/a
246.794	0.06	493588	keystroke_e	e	n/a
246.869	0.09	493738	keystroke_n	n	n/a
247.034	0.075	494068	keystroke_e	e	n/a
247.229	0.06	494458	keystroke_v	v	n/a
247.394	0.105	494788	keystroke_e	e	n/a
247.454	0.09	494908	keystroke_r	r	n/a
247.5895	0.0895	495179	keystroke_Key.space	Key.space	n/a
248.354	0.06	496708	keystroke_b	b	n/a
248.444	0.075	496888	keystroke_r	r	n/a
248.624	0.06	497248	keystroke_a	a	n/a
248.834	0.06	497668	keystroke_c	c	n/a
249.029	0.075	498058	keystroke_k	k	n/a
249.524	0.15	499048	keystroke_e	e	n/a
249.614	0.105	499228	keystroke_t	t	n/a
250.1245	0.12	500249	keystroke_Key.enter	Key.enter	n/a
250.249	6.387	500498	prompt	n/a	area cumulative abuse leaf\n
250.815	0.105	501630	keystroke_a	a	n/a
251.1145	0.1205	502229	keystroke_r	r	n/a
251.295	0.12	502590	keystroke_e	e	n/a
251.61	0.09	503220	keystroke_a	a	n/a
251.745	0.09	503490	keystroke_Key.space	Key.space	n/a
252.0895	0.06	504179	keystroke_c	c	n/a
252.375	0.075	504750	keystroke_u	u	n/a
252.5845	0.06	505169	keystroke_m	m	n/a
252.7795	0.06	505559	keystroke_u	u	n/a
252.975	0.075	505950	keystroke_l	l	n/a
253.095	0.09	506190	keystroke_a	a	n/a
253.214	0.091	506428	keystroke_t	t	n/a
253.32	0.119	506640	keystroke_i	i	n/a
253.469	0.09	506938	keystroke_v	v	n/a
253.664	0.105	507328	keystroke_e	e	n/a
253.784	0.06	507568	keystroke_Key.space	Key.space	n/a
254.115	0.105	508230	keystroke_a	a	n/a
254.46	0.09	508920	keystroke_b	b	n/a
254.685	0.09	509370	keystroke_u	u	n/a
254.835	0.06	509670	keystroke_s	s	n/a
255	0.09	510000	keystroke_e	e	n/a
255.135	0.074	510270	keystroke_Key.space	Key.space	n/a
255.734	0.076	511468	keystroke_l	l	n/a
255.84	0.074	511680	keystroke_e	e	n/a
256.034	0.09	512068	keystroke_a	a	n/a
256.229	0.091	512458	keystroke_f	f	n/a
256.544	0.09	513088	keystroke_Key.enter	Key.enter	n/a
256.6395	9.3265	513279	prompt	n/a	somebody powell discovery adolescent\n
257.474	0.046	514948	keystroke_s	s	n/a
257.594	0.1505	515188	keystroke_o	o	n/a
257.6995	0.105	515399	keystroke_m	m	n/a
257.7895	0.075	515579	keystroke_e	e	n/a
258.0295	0.045	516059	keystroke_b	b	n/a
258.18	0.089	516360	keystroke_o	o	n/a
258.479	0.09	516958	keystroke_d	d	n/a
258.7645	0.075	517529	keystroke_y	y	n/a
258.8845	0.09	517769	keystroke_Key.space	Key.space	n/a
259.349	0.105	518698	keystroke_p	p	n/a
259.544	0.09	519088	keystroke_o	o	n/a
259.739	0.075	519478	keystroke_w	w	n/a
259.9495	0.09	519899	keystroke_e	e	n/a
260.1595	0.045	520319	keystroke_l	l	n/a
260.2795	0.105	520559	keystroke_l	l	n/a
260.534	0.075	521068	keystroke_Key.space	Key.space	n/a
261.014	0.045	522028	keystroke_d	d	n/a
261.074	0.09	522148	keystroke_i	i	n/a
261.179	0.075	522358	keystroke_s	s	n/a
261.329	0.075	522658	keystroke_c	c	n/a
261.434	0.105	522868	keystroke_o	o	n/a
261.659	0.06	523318	keystroke_v	v	n/a
261.809	0.105	523618	keystroke_e	e	n/a
261.869	0.09	523738	keystroke_r	r	n/a
262.079	0.075	524158	keystroke_y	y	n/a
262.199	0.09	524398	keystroke_Key.space	Key.space	n/a
262.829	0.105	525658	keystroke_a	a	n/a
263.789	0.06	527578	keystroke_d	d	n/a
264.029	0.075	528058	keystroke_o	o	n/a
264.479	0.075	528958	keystroke_l	l	n/a
264.614	0.075	529228	keystroke_e	e	n/a
264.854	0.075	529708	keystroke_s	s	n/a
265.034	0.06	530068	keystroke_c	c	n/a
265.199	0.105	530398	keystroke_e	e	n/a
265.3195	0.075	530639	keystroke_n	n	n/a
265.4245	0.09	530849	keystroke_t	t	n/a
265.874	0.09	531748	keystroke_Key.enter	Key.enter	n/a
265.969	12.222	531938	prompt	n/a	basement array bibliography newbie\n
266.924	0.046	533848	keystroke_b	b	n/a
267.029	0.075	534058	keystroke_a	a	n/a
267.255	0.059	534510	keystroke_s	s	n/a
267.4645	0.03	534929	keystroke_e	e	n/a
267.5845	0.09	535169	keystroke_m	m	n/a
267.7045	0.06	535409	keystroke_e	e	n/a
267.8095	0.105	535619	keystroke_n	n	n/a
268.4545	0.075	536909	keystroke_t	t	n/a
268.8895	0.09	537779	keystroke_Key.space	Key.space	n/a
269.0545	0.09	538109	keystroke_a	a	n/a
269.3545	0.015	538709	keystroke_r	r	n/a
269.4445	0.09	538889	keystroke_r	r	n/a
269.5795	0.09	539159	keystroke_a	a	n/a
269.819	0.075	539638	keystroke_y	y	n/a
269.924	0.0905	539848	keystroke_Key.space	Key.space	n/a
270.809	0.045	541618	keystroke_b	b	n/a
271.064	0.09	542128	keystroke_i	i	n/a
271.319	0.06	542638	keystroke_b	b	n/a
272.4295	0.12	544859	keystroke_l	l	n/a
273.1795	0.1055	546359	keystroke_i	i	n/a
273.345	0.09	546690	keystroke_o	o	n/a
273.735	0.06	547470	keystroke_g	g	n/a
273.9	0.075	547800	keystroke_r	r	n/a
274.125	0.09	548250	keystroke_a	a	n/a
274.335	0.105	548670	keystroke_p	p	n/a
274.575	0.09	549150	keystroke_h	h	n/a
274.71	0.09	549420	keystroke_y	y	n/a
274.92	0.09	549840	keystroke_Key.space	Key.space	n/a
275.865	0.06	551730	keystroke_n	n	n/a
276.015	0.045	552030	keystroke_e	e	n/a
276.3745	0.045	552749	keystroke_w	w	n/a
276.6745	0.06	553349	keystroke_b	b	n/a
277.5895	0.09	555179	keystroke_i	i	n/a
277.6945	0.06	555389	keystroke_e	e	n/a
278.115	0.075	556230	keystroke_Key.enter	Key.enter	n/a
278.196	8.995	556392	prompt	n/a	wireless lectures radios lambda\n
278.97	0.06	557940	keystroke_w	w	n/a
279.449	0.061	558898	keystroke_i	i	n/a
279.629	0.105	559258	keystroke_r	r	n/a
279.704	0.09	559408	keystroke_e	e	n/a
279.809	0.09	559618	keystroke_l	l	n/a
279.9445	0.06	559889	keystroke_e	e	n/a
280.1395	0.045	560279	keystroke_s	s	n/a
280.2445	0.105	560489	keystroke_s	s	n/a
280.394	0.075	560788	keystroke_Key.space	Key.space	n/a
280.8	0.074	561600	keystroke_l	l	n/a
280.919	0.09	561838	keystroke_e	e	n/a
281.129	0.075	562258	keystroke_c	c	n/a
281.324	0.06	562648	keystroke_t	t	n/a
281.564	0.075	563128	keystroke_u	u	n/a
281.729	0.105	563458	keystroke_r	r	n/a
281.789	0.075	563578	keystroke_e	e	n/a
281.999	0.075	563998	keystroke_s	s	n/a
282.104	0.075	564208	keystroke_Key.space	Key.space	n/a
282.734	0.045	565468	keystroke_r	r	n/a
282.899	0.105	565798	keystroke_a	a	n/a
283.124	0.075	566248	keystroke_d	d	n/a
283.319	0.06	566638	keystroke_i	i	n/a
283.469	0.09	566938	keystroke_o	o	n/a
283.619	0.09	567238	keystroke_s	s	n/a
283.769	0.06	567538	keystroke_Key.space	Key.space	n/a
284.5645	0.075	569129	keystroke_l	l	n/a
284.6995	0.105	569399	keystroke_a	a	n/a
284.8795	0.075	569759	keystroke_m	m	n/a
286.2145	0.09	572429	keystroke_d	d	n/a
286.4695	0.105	572939	keystroke_a	a	n/a
287.1	0.09	574200	keystroke_Key.enter	Key.enter	n/a
287.1945	10.272	574389	prompt	n/a	convert lingerie moderator authorities\n
288.06	0.06	576120	keystroke_c	c	n/a
288.135	0.06	576270	keystroke_o	o	n/a
288.3	0.075	576600	keystroke_n	n	n/a
288.405	0.075	576810	keystroke_v	v	n/a
288.5845	0.12	577169	keystroke_e	e	n/a
288.6595	0.09	577319	keystroke_r	r	n/a
288.8695	0.075	577739	keystroke_t	t	n/a
289.0045	0.105	578009	keystroke_Key.space	Key.space	n/a
289.7695	0.075	579539	keystroke_l	l	n/a
289.965	0.06	579930	keystroke_i	i	n/a
290.205	0.06	580410	keystroke_n	n	n/a
290.52	0.0595	581040	keystroke_g	g	n/a
290.67	0.12	581340	keystroke_e	e	n/a
290.76	0.09	581520	keystroke_r	r	n/a
291.7795	0.09	583559	keystroke_i	i	n/a
291.8845	0.075	583769	keystroke_e	e	n/a
292.0495	0.075	584099	keystroke_Key.space	Key.space	n/a
292.59	0.06	585180	keystroke_m	m	n/a
292.815	0.105	585630	keystroke_o	o	n/a
292.995	0.075	585990	keystroke_d	d	n/a
293.175	0.135	586350	keystroke_e	e	n/a
293.295	0.09	586590	keystroke_r	r	n/a
293.535	0.075	587070	keystroke_a	a	n/a
293.67	0.09	587340	keystroke_t	t	n/a
294.135	0.134	588270	keystroke_o	o	n/a
294.255	0.0895	588510	keystroke_r	r	n/a
294.5395	0.09	589079	keystroke_Key.space	Key.space	n/a
295.0345	0.12	590069	keystroke_a	a	n/a
295.4845	0.06	590969	keystroke_u	u	n/a
295.6345	0.075	591269	keystroke_t	t	n/a
295.7395	0.075	591479	keystroke_h	h	n/a
295.9795	0.09	591959	keystroke_o	o	n/a
296.13	0.089	592260	keystroke_r	r	n/a
296.294	0.105	592588	keystroke_i	i	n/a
296.4595	0.075	592919	keystroke_t	t	n/a
296.5495	0.12	593099	keystroke_i	i	n/a
296.8645	0.06	593729	keystroke_e	e	n/a
297.0445	0.09	594089	keystroke_s	s	n/a
297.3745	0.0895	594749	keystroke_Key.enter	Key.enter	n/a
297.4695	10.2115	594939	prompt	n/a	fonts disclosure creek specialists\n
298.319	0.045	596638	keystroke_c	c	n/a
298.5595	0.105	597119	keystroke_Key.backspace	Key.backspace	n/a
298.7245	0.075	597449	keystroke_f	f	n/a
298.919	0.12	597838	keystroke_o	o	n/a
298.994	0.075	597988	keystroke_n	n	n/a
299.099	0.06	598198	keystroke_t	t	n/a
299.325	0.104	598650	keystroke_s	s	n/a
299.444	0.09	598888	keystroke_Key.space	Key.space	n/a
300.5695	0.09	601139	keystroke_d	d	n/a
300.7195	0.09	601439	keystroke_i	i	n/a
300.7945	0.075	601589	keystroke_s	s	n/a
301.0645	0.075	602129	keystroke_c	c	n/a
301.2895	0.06	602579	keystroke_l	l	n/a
301.4695	0.075	602939	keystroke_o	o	n/a
301.7095	0.06	603419	keystroke_s	s	n/a
301.875	0.0895	603750	keystroke_u	u	n/a
302.0995	0.12	604199	keystroke_r	r	n/a
302.1745	0.09	604349	keystroke_e	e	n/a
302.3245	0.09	604649	keystroke_Key.space	Key.space	n/a
303.0595	0.105	606119	keystroke_c	c	n/a
303.2545	0.075	606509	keystroke_r	r	n/a
303.4345	0.06	606869	keystroke_e	e	n/a
303.5395	0.105	607079	keystroke_e	e	n/a
303.7495	0.045	607499	keystroke_k	k	n/a
304.6945	0.075	609389	keystroke_Key.space	Key.space	n/a
304.9045	0.075	609809	keystroke_s	s	n/a
305.3245	0.0895	610649	keystroke_p	p	n/a
305.459	0.075	610918	keystroke_e	e	n/a
305.669	0.06	611338	keystroke_c	c	n/a
305.774	0.075	611548	keystroke_i	i	n/a
305.894	0.0905	611788	keystroke_a	a	n/a
306.0745	0.105	612149	keystroke_l	l	n/a
306.4345	0.075	612869	keystroke_i	i	n/a
306.5695	0.105	613139	keystroke_s	s	n/a
306.8095	0.06	613619	keystroke_t	t	n/a
306.9745	0.12	613949	keystroke_s	s	n/a
307.5745	0.105	615149	keystroke_Key.enter	Key.enter	n/a
307.684	7.137	615368	prompt	n/a	format striking reactions logs\n
308.5045	0.045	617009	keystroke_f	f	n/a
308.6095	0.075	617219	keystroke_o	o	n/a
308.7445	0.045	617489	keystroke_r	r	n/a
308.8345	0.075	617669	keystroke_m	m	n/a
308.9395	0.075	617879	keystroke_a	a	n/a
309.1345	0.075	618269	keystroke_t	t	n/a
309.2245	0.09	618449	keystroke_Key.space	Key.space	n/a
309.794	0.06	619588	keystroke_s	s	n/a
309.974	0.06	619948	keystroke_t	t	n/a
310.139	0.06	620278	keystroke_r	r	n/a
310.274	0.09	620548	keystroke_i	i	n/a
310.514	0.06	621028	keystroke_k	k	n/a
310.694	0.12	621388	keystroke_i	i	n/a
310.769	0.09	621538	keystroke_n	n	n/a
310.889	0.075	621778	keystroke_g	g	n/a
310.979	0.105	621958	keystroke_Key.space	Key.space	n/a
311.5495	0.105	623099	keystroke_r	r	n/a
311.6095	0.075	623219	keystroke_e	e	n/a
311.8045	0.105	623609	keystroke_a	a	n/a
311.8945	0.0895	623789	keystroke_c	c	n/a
312.1945	0.06	624389	keystroke_t	t	n/a
312.3445	0.12	624689	keystroke_i	i	n/a
312.4045	0.105	624809	keystroke_o	o	n/a
312.5995	0.075	625199	keystroke_n	n	n/a
312.7195	0.09	625439	keystroke_s	s	n/a
312.8395	0.0895	625679	keystroke_Key.space	Key.space	n/a
313.679	0.06	627358	keystroke_l	l	n/a
313.859	0.09	627718	keystroke_o	o	n/a
314.129	0.0605	628258	keystroke_g	g	n/a
314.3095	0.075	628619	keystroke_s	s	n/a
314.7295	0.09	629459	keystroke_Key.enter	Key.enter	n/a
314.8245	10.1215	629649	prompt	n/a	exhibitions minolta experts incredible\n
315.674	0.06	631348	keystroke_e	e	n/a
316.0495	0.06	632099	keystroke_x	x	n/a
316.3795	0.09	632759	keystroke_h	h	n/a
316.6795	0.075	633359	keystroke_i	i	n/a
316.934	0.06	633868	keystroke_b	b	n/a
317.144	0.09	634288	keystroke_i	i	n/a
317.309	0.075	634618	keystroke_t	t	n/a
317.459	0.105	634918	keystroke_i	i	n/a
317.504	0.105	635008	keystroke_o	o	n/a
317.699	0.075	635398	keystroke_n	n	n/a
317.819	0.09	635638	keystroke_s	s	n/a
317.954	0.075	635908	keystroke_Key.space	Key.space	n/a
318.959	0.06	637918	keystroke_m	m	n/a
319.124	0.075	638248	keystroke_i	i	n/a
319.274	0.045	638548	keystroke_n	n	n/a
319.439	0.075	638878	keystroke_o	o	n/a
319.634	0.075	639268	keystroke_l	l	n/a
319.709	0.06	639418	keystroke_t	t	n/a
319.874	0.09	639748	keystroke_a	a	n/a
319.994	0.0905	639988	keystroke_Key.space	Key.space	n/a
320.399	0.06	640798	keystroke_e	e	n/a
320.6395	0.075	641279	keystroke_x	x	n/a
320.8795	0.09	641759	keystroke_p	p	n/a
320.9845	0.12	641969	keystroke_e	e	n/a
321.0745	0.09	642149	keystroke_r	r	n/a
321.599	0.09	643198	keystroke_t	t	n/a
321.764	0.1055	643528	keystroke_s	s	n/a
321.8845	0.09	643769	keystroke_Key.space	Key.space	n/a
322.7995	0.09	645599	keystroke_i	i	n/a
322.9945	0.06	645989	keystroke_n	n	n/a
323.1595	0.045	646319	keystroke_c	c	n/a
323.339	0.106	646678	keystroke_r	r	n/a
323.414	0.075	646828	keystroke_e	e	n/a
323.5945	0.075	647189	keystroke_d	d	n/a
323.6845	0.105	647369	keystroke_i	i	n/a
323.8945	0.0745	647789	keystroke_b	b	n/a
324.119	0.105	648238	keystroke_l	l	n/a
324.239	0.075	648478	keystroke_e	e	n/a
324.869	0.075	649738	keystroke_Key.enter	Key.enter	n/a
324.9495	6.8365	649899	prompt	n/a	main businesses airports heights\n
325.709	0.075	651418	keystroke_m	m	n/a
325.829	0.105	651658	keystroke_a	a	n/a
326.009	0.1355	652018	keystroke_i	i	n/a
326.0845	0.09	652169	keystroke_n	n	n/a
326.3095	0.09	652619	keystroke_Key.space	Key.space	n/a
326.879	0.165	653758	keystroke_b	b	n/a
326.969	0.12	653938	keystroke_u	u	n/a
327.194	0.075	654388	keystroke_s	s	n/a
327.314	0.06	654628	keystroke_i	i	n/a
327.494	0.09	654988	keystroke_n	n	n/a
327.599	0.075	655198	keystroke_e	e	n/a
327.794	0.06	655588	keystroke_s	s	n/a
327.914	0.09	655828	keystroke_s	s	n/a
328.019	0.105	656038	keystroke_Key.space	Key.space	n/a
328.394	0.105	656788	keystroke_a	a	n/a
328.634	0.075	657268	keystroke_i	i	n/a
328.814	0.075	657628	keystroke_r	r	n/a
328.964	0.075	657928	keystroke_p	p	n/a
329.144	0.105	658288	keystroke_o	o	n/a
329.264	0.06	658528	keystroke_r	r	n/a
329.429	0.06	658858	keystroke_t	t	n/a
329.594	0.09	659188	keystroke_s	s	n/a
329.714	0.09	659428	keystroke_Key.space	Key.space	n/a
330.599	0.045	661198	keystroke_h	h	n/a
330.674	0.075	661348	keystroke_e	e	n/a
330.899	0.09	661798	keystroke_i	i	n/a
331.079	0.045	662158	keystroke_g	g	n/a
331.139	0.075	662278	keystroke_h	h	n/a
331.244	0.06	662488	keystroke_t	t	n/a
331.409	0.105	662818	keystroke_s	s	n/a
331.7245	0.06	663449	keystroke_Key.enter	Key.enter	n/a
331.7885	9.0575	663577	prompt	n/a	sheet yard pond checkout\n
332.4895	0.06	664979	keystroke_s	s	n/a
332.774	0.045	665548	keystroke_h	h	n/a
332.834	0.06	665668	keystroke_e	e	n/a
332.9545	0.09	665909	keystroke_e	e	n/a
333.1495	0.075	666299	keystroke_t	t	n/a
333.2695	0.075	666539	keystroke_Key.space	Key.space	n/a
333.8695	0.045	667739	keystroke_t	t	n/a
334.319	0.075	668638	keystroke_Key.backspace	Key.backspace	n/a
334.409	0.075	668818	keystroke_y	y	n/a
334.604	0.075	669208	keystroke_a	a	n/a
334.829	0.045	669658	keystroke_r	r	n/a
335.054	0.09	670108	keystroke_d	d	n/a
335.294	0.075	670588	keystroke_Key.space	Key.space	n/a
336.104	0.105	672208	keystroke_p	p	n/a
336.164	0.12	672328	keystroke_o	o	n/a
336.479	0.09	672958	keystroke_n	n	n/a
336.8545	0.09	673709	keystroke_d	d	n/a
336.9595	0.1195	673919	keystroke_Key.space	Key.space	n/a
338.0095	0.075	676019	keystroke_c	c	n/a
338.1595	0.09	676319	keystroke_h	h	n/a
338.354	0.09	676708	keystroke_e	e	n/a
338.564	0.06	677128	keystroke_c	c	n/a
338.669	0.0905	677338	keystroke_k	k	n/a
338.9545	0.135	677909	keystroke_o	o	n/a
339.0445	0.105	678089	keystroke_u	u	n/a
339.1795	0.105	678359	keystroke_t	t	n/a
340.769	0.075	681538	keystroke_Key.enter	Key.enter	n/a
340.8505	9.4005	681701	prompt	n/a	mixture wearing lane deutschland\n
341.6995	0.06	683399	keystroke_m	m	n/a
341.8795	0.089	683759	keystroke_i	i	n/a
342.1945	0.075	684389	keystroke_x	x	n/a
342.5845	0.075	685169	keystroke_t	t	n/a
342.6745	0.09	685349	keystroke_u	u	n/a
342.9595	0.12	685919	keystroke_r	r	n/a
343.0195	0.105	686039	keystroke_e	e	n/a
343.3035	0.015	686607	keystroke_Key.space	Key.space	n/a
343.6795	0.06	687359	keystroke_w	w	n/a
343.844	0.045	687688	keystroke_e	e	n/a
344.0095	0.06	688019	keystroke_a	a	n/a
344.1895	0.075	688379	keystroke_r	r	n/a
344.3545	0.15	688709	keystroke_i	i	n/a
344.4445	0.074	688889	keystroke_n	n	n/a
344.5345	0.075	689069	keystroke_g	g	n/a
344.6535	0.09	689307	keystroke_Key.space	Key.space	n/a
344.9695	0.074	689939	keystroke_l	l	n/a
345.0595	0.105	690119	keystroke_a	a	n/a
345.3295	0.0745	690659	keystroke_n	n	n/a
345.464	0.075	690928	keystroke_e	e	n/a
345.599	0.06	691198	keystroke_Key.space	Key.space	n/a
346.4095	0.0745	692819	keystroke_d	d	n/a
346.6495	0.045	693299	keystroke_e	e	n/a
347.2185	0.0605	694437	keystroke_u	u	n/a
347.894	0.0605	695788	keystroke_t	t	n/a
348.329	0.09	696658	keystroke_s	s	n/a
348.614	0.076	697228	keystroke_c	c	n/a
348.854	0.06	697708	keystroke_h	h	n/a
349.109	0.12	698218	keystroke_l	l	n/a
349.304	0.1055	698608	keystroke_a	a	n/a
349.7245	0.09	699449	keystroke_n	n	n/a
349.9195	0.09	699839	keystroke_d	d	n/a
350.1745	0.0745	700349	keystroke_Key.enter	Key.enter	n/a
350.257	10.104	700514	prompt	n/a	four distribution equivalent rats\n
351.105	0.044	702210	keystroke_f	f	n/a
351.254	0.12	702508	keystroke_o	o	n/a
351.314	0.106	702628	keystroke_u	u	n/a
351.824	0.06	703648	keystroke_r	r	n/a
351.944	0.075	703888	keystroke_Key.space	Key.space	n/a
352.874	0.075	705748	keystroke_d	d	n/a
353.189	0.09	706378	keystroke_i	i	n/a
353.504	0.075	707008	keystroke_s	s	n/a
353.759	0.045	707518	keystroke_t	t	n/a
353.924	0.0605	707848	keystroke_r	r	n/a
354.0745	0.09	708149	keystroke_i	i	n/a
354.3895	0.075	708779	keystroke_b	b	n/a
354.5545	0.09	709109	keystroke_u	u	n/a
354.7645	0.045	709529	keystroke_t	t	n/a
354.9295	0.105	709859	keystroke_i	i	n/a
354.9745	0.105	709949	keystroke_o	o	n/a
355.1845	0.075	710369	keystroke_n	n	n/a
355.3945	0.06	710789	keystroke_Key.space	Key.space	n/a
356.6095	0.06	713219	keystroke_e	e	n/a
356.999	0.06	713998	keystroke_q	q	n/a
357.269	0.075	714538	keystroke_u	u	n/a
357.434	0.105	714868	keystroke_i	i	n/a
357.7495	0.06	715499	keystroke_v	v	n/a
357.944	0.09	715888	keystroke_a	a	n/a
358.1545	0.09	716309	keystroke_l	l	n/a
358.3645	0.075	716729	keystroke_e	e	n/a
358.4695	0.09	716939	keystroke_n	n	n/a
358.6045	0.06	717209	keystroke_t	t	n/a
358.7235	0.091	717447	keystroke_Key.space	Key.space	n/a
359.324	0.075	718648	keystroke_r	r	n/a
359.459	0.075	718918	keystroke_a	a	n/a
359.729	0.0755	719458	keystroke_t	t	n/a
359.9395	0.074	719879	keystroke_s	s	n/a
360.254	0.105	720508	keystroke_Key.enter	Key.enter	n/a
360.3655	7.555	720731	prompt	n/a	offensive xanax seating settle\n
361.3035	0.09	722607	keystroke_o	o	n/a
361.5135	0.046	723027	keystroke_f	f	n/a
361.6045	0.075	723209	keystroke_f	f	n/a
361.769	0.06	723538	keystroke_e	e	n/a
361.874	0.075	723748	keystroke_n	n	n/a
362.0245	0.06	724049	keystroke_s	s	n/a
362.1445	0.09	724289	keystroke_i	i	n/a
362.3245	0.045	724649	keystroke_v	v	n/a
362.4745	0.09	724949	keystroke_e	e	n/a
362.5795	0.09	725159	keystroke_Key.space	Key.space	n/a
363.3895	0.06	726779	keystroke_x	x	n/a
363.5545	0.09	727109	keystroke_a	a	n/a
363.6745	0.075	727349	keystroke_n	n	n/a
363.8095	0.09	727619	keystroke_a	a	n/a
364.1095	0.09	728219	keystroke_x	x	n/a
364.2895	0.09	728579	keystroke_Key.space	Key.space	n/a
365.084	0.06	730168	keystroke_s	s	n/a
365.279	0.075	730558	keystroke_e	e	n/a
365.459	0.12	730918	keystroke_a	a	n/a
365.594	0.075	731188	keystroke_t	t	n/a
365.729	0.15	731458	keystroke_i	i	n/a
365.804	0.105	731608	keystroke_n	n	n/a
365.924	0.075	731848	keystroke_g	g	n/a
366.029	0.1055	732058	keystroke_Key.space	Key.space	n/a
366.4645	0.045	732929	keystroke_s	s	n/a
366.6445	0.075	733289	keystroke_e	e	n/a
366.9145	0.0595	733829	keystroke_t	t	n/a
367.019	0.06	734038	keystroke_t	t	n/a
367.139	0.135	734278	keystroke_l	l	n/a
367.289	0.105	734578	keystroke_e	e	n/a
367.844	0.075	735688	keystroke_Key.enter	Key.enter	n/a
367.9255	11.4105	735851	prompt	n/a	laboratory assignments conservative victims\n
368.9995	0.06	737999	keystroke_l	l	n/a
369.1045	0.075	738209	keystroke_a	a	n/a
369.494	0.06	738988	keystroke_b	b	n/a
370.124	0.075	740248	keystroke_o	o	n/a
370.364	0.045	740728	keystroke_r	r	n/a
370.529	0.075	741058	keystroke_a	a	n/a
370.799	0.075	741598	keystroke_t	t	n/a
370.979	0.09	741958	keystroke_o	o	n/a
371.129	0.06	742258	keystroke_r	r	n/a
371.294	0.09	742588	keystroke_y	y	n/a
371.444	0.06	742888	keystroke_Key.space	Key.space	n/a
372.044	0.0905	744088	keystroke_a	a	n/a
372.2395	0.045	744479	keystroke_s	s	n/a
372.3445	0.075	744689	keystroke_s	s	n/a
372.4795	0.105	744959	keystroke_i	i	n/a
372.704	0.075	745408	keystroke_g	g	n/a
372.794	0.09	745588	keystroke_n	n	n/a
373.079	0.045	746158	keystroke_m	m	n/a
373.184	0.075	746368	keystroke_e	e	n/a
373.289	0.105	746578	keystroke_n	n	n/a
373.379	0.09	746758	keystroke_t	t	n/a
373.529	0.105	747058	keystroke_s	s	n/a
373.679	0.09	747358	keystroke_Key.space	Key.space	n/a
374.489	0.075	748978	keystroke_c	c	n/a
374.579	0.06	749158	keystroke_o	o	n/a
374.759	0.09	749518	keystroke_n	n	n/a
374.894	0.06	749788	keystroke_s	s	n/a
375.074	0.1205	750148	keystroke_e	e	n/a
375.1495	0.075	750299	keystroke_r	r	n/a
375.3445	0.06	750689	keystroke_v	v	n/a
375.4795	0.075	750959	keystroke_a	a	n/a
376.0345	0.06	752069	keystroke_t	t	n/a
376.1395	0.105	752279	keystroke_i	i	n/a
376.3945	0.075	752789	keystroke_v	v	n/a
376.5145	0.12	753029	keystroke_e	e	n/a
376.6645	0.12	753329	keystroke_Key.space	Key.space	n/a
377.7895	0.06	755579	keystroke_v	v	n/a
377.9245	0.0745	755849	keystroke_i	i	n/a
378.104	0.06	756208	keystroke_c	c	n/a
378.314	0.03	756628	keystroke_t	t	n/a
378.404	0.135	756808	keystroke_i	i	n/a
378.509	0.105	757018	keystroke_m	m	n/a
378.659	0.09	757318	keystroke_s	s	n/a
379.2445	0.09	758489	keystroke_Key.enter	Key.enter	n/a
379.3395	8.4715	758679	prompt	n/a	hugo introduced kansas claim\n
380.219	0.06	760438	keystroke_h	h	n/a
380.414	0.06	760828	keystroke_u	u	n/a
380.9695	0.09	761939	keystroke_g	g	n/a
381.0745	0.075	762149	keystroke_o	o	n/a
381.2845	0.075	762569	keystroke_Key.space	Key.space	n/a
381.5095	0.135	763019	keystroke_i	i	n/a
381.5845	0.075	763169	keystroke_n	n	n/a
381.7645	0.045	763529	keystroke_t	t	n/a
381.9295	0.06	763859	keystroke_r	r	n/a
382.0345	0.105	764069	keystroke_o	o	n/a
382.3045	0.045	764609	keystroke_d	d	n/a
382.4545	0.075	764909	keystroke_u	u	n/a
382.5445	0.075	765089	keystroke_c	c	n/a
382.7695	0.075	765539	keystroke_e	e	n/a
382.9645	0.075	765929	keystroke_d	d	n/a
383.0545	0.09	766109	keystroke_Key.space	Key.space	n/a
383.8795	0.045	767759	keystroke_k	k	n/a
383.9995	0.09	767999	keystroke_a	a	n/a
384.1045	0.06	768209	keystroke_n	n	n/a
384.2545	0.045	768509	keystroke_s	s	n/a
385.1995	0.09	770399	keystroke_a	a	n/a
385.4245	0.06	770849	keystroke_s	s	n/a
385.5285	0.091	771057	keystroke_Key.space	Key.space	n/a
386.699	0.06	773398	keystroke_c	c	n/a
386.879	0.09	773758	keystroke_l	l	n/a
387.044	0.09	774088	keystroke_a	a	n/a
387.164	0.12	774328	keystroke_i	i	n/a
387.269	0.12	774538	keystroke_m	m	n/a
387.7195	0.09	775439	keystroke_Key.enter	Key.enter	n/a
387.8145	11.021	775629	prompt	n/a	poultry devon explosion calendars\n
388.859	0.12	777718	keystroke_p	p	n/a
388.919	0.105	777838	keystroke_o	o	n/a
389.144	0.075	778288	keystroke_u	u	n/a
389.399	0.075	778798	keystroke_l	l	n/a
389.624	0.045	779248	keystroke_t	t	n/a
389.939	0.09	779878	keystroke_r	r	n/a
390.149	0.075	780298	keystroke_y	y	n/a
390.269	0.075	780538	keystroke_Key.space	Key.space	n/a
391.289	0.045	782578	keystroke_d	d	n/a
391.439	0.06	782878	keystroke_e	e	n/a
392.1585	0.06	784317	keystroke_v	v	n/a
392.3985	0.12	784797	keystroke_o	o	n/a
392.4885	0.06	784977	keystroke_n	n	n/a
392.6835	0.09	785367	keystroke_Key.space	Key.space	n/a
393.344	0.105	786688	keystroke_e	e	n/a
393.554	0.0755	787108	keystroke_x	x	n/a
393.7645	0.105	787529	keystroke_p	p	n/a
393.9745	0.075	787949	keystroke_l	l	n/a
394.1695	0.06	788339	keystroke_o	o	n/a
394.3195	0.075	788639	keystroke_s	s	n/a
394.4695	0.105	788939	keystroke_i	i	n/a
394.5295	0.105	789059	keystroke_o	o	n/a
394.7245	0.06	789449	keystroke_n	n	n/a
394.9045	0.075	789809	keystroke_Key.space	Key.space	n/a
395.804	0.075	791608	keystroke_c	c	n/a
395.9685	0.09	791937	keystroke_a	a	n/a
396.1035	0.105	792207	keystroke_l	l	n/a
396.3135	0.09	792627	keystroke_e	e	n/a
396.4335	0.09	792867	keystroke_n	n	n/a
396.5685	0.075	793137	keystroke_a	a	n/a
396.989	0.105	793978	keystroke_Key.backspace	Key.backspace	n/a
397.109	0.1205	794218	keystroke_d	d	n/a
397.1995	0.105	794399	keystroke_a	a	n/a
397.934	0.105	795868	keystroke_r	r	n/a
398.114	0.12	796228	keystroke_s	s	n/a
398.7745	0.06	797549	keystroke_Key.enter	Key.enter	n/a
398.8385	9.2375	797677	prompt	n/a	struct deal navigation complaint\n
399.5395	0.075	799079	keystroke_s	s	n/a
399.779	0.045	799558	keystroke_t	t	n/a
399.929	0.06	799858	keystroke_r	r	n/a
400.079	0.09	800158	keystroke_u	u	n/a
400.214	0.075	800428	keystroke_c	c	n/a
400.454	0.105	800908	keystroke_t	t	n/a
400.6195	0.075	801239	keystroke_Key.space	Key.space	n/a
401.6995	0.075	803399	keystroke_d	d	n/a
401.8645	0.075	803729	keystroke_e	e	n/a
402.0145	0.09	804029	keystroke_a	a	n/a
402.1645	0.135	804329	keystroke_l	l	n/a
402.4345	0.105	804869	keystroke_Key.space	Key.space	n/a
403.034	0.06	806068	keystroke_n	n	n/a
403.109	0.0905	806218	keystroke_a	a	n/a
403.4695	0.045	806939	keystroke_v	v	n/a
403.5595	0.105	807119	keystroke_i	i	n/a
403.8445	0.06	807689	keystroke_g	g	n/a
403.9945	0.075	807989	keystroke_a	a	n/a
404.2645	0.09	808529	keystroke_t	t	n/a
404.4595	0.135	808919	keystroke_i	i	n/a
404.5195	0.12	809039	keystroke_o	o	n/a
404.7585	0.061	809517	keystroke_n	n	n/a
404.9245	0.089	809849	keystroke_Key.space	Key.space	n/a
405.2545	0.045	810509	keystroke_e	e	n/a
405.5835	0.075	811167	keystroke_Key.backspace	Key.backspace	n/a
405.6885	0.091	811377	keystroke_c	c	n/a
405.8545	0.1195	811709	keystroke_o	o	n/a
405.9295	0.0895	811859	keystroke_m	m	n/a
406.109	0.12	812218	keystroke_p	p	n/a
406.184	0.075	812368	keystroke_l	l	n/a
406.919	0.09	813838	keystroke_a	a	n/a
407.039	0.09	814078	keystroke_i	i	n/a
407.264	0.075	814528	keystroke_n	n	n/a
407.354	0.09	814708	keystroke_t	t	n/a
408.0135	0.061	816027	keystroke_Key.enter	Key.enter	n/a
408.0785	11.3225	816157	prompt	n/a	kijiji boston conservation categories\n
409.259	0.09	818518	keystroke_k	k	n/a
410.144	0.09	820288	keystroke_i	i	n/a
411.3595	0.06	822719	keystroke_j	j	n/a
411.554	0.075	823108	keystroke_i	i	n/a
411.764	0.06	823528	keystroke_j	j	n/a
411.944	0.0905	823888	keystroke_i	i	n/a
412.1845	0.06	824369	keystroke_Key.space	Key.space	n/a
412.5145	0.059	825029	keystroke_b	b	n/a
412.7545	0.09	825509	keystroke_o	o	n/a
412.889	0.075	825778	keystroke_s	s	n/a
413.1585	0.076	826317	keystroke_t	t	n/a
413.2645	0.105	826529	keystroke_o	o	n/a
413.3095	0.09	826619	keystroke_n	n	n/a
413.5035	0.09	827007	keystroke_Key.space	Key.space	n/a
413.9685	0.06	827937	keystroke_c	c	n/a
414.0735	0.106	828147	keystroke_o	o	n/a
414.1345	0.089	828269	keystroke_n	n	n/a
414.3295	0.059	828659	keystroke_s	s	n/a
414.5535	0.121	829107	keystroke_e	e	n/a
414.6435	0.075	829287	keystroke_r	r	n/a
415.364	0.075	830728	keystroke_v	v	n/a
416.054	0.1195	832108	keystroke_a	a	n/a
416.2785	0.076	832557	keystroke_t	t	n/a
416.4135	0.12	832827	keystroke_i	i	n/a
416.4885	0.105	832977	keystroke_o	o	n/a
416.6685	0.075	833337	keystroke_n	n	n/a
416.8635	0.075	833727	keystroke_Key.space	Key.space	n/a
417.4795	0.059	834959	keystroke_c	c	n/a
417.584	0.09	835168	keystroke_a	a	n/a
417.824	0.06	835648	keystroke_t	t	n/a
417.9735	0.06	835947	keystroke_e	e	n/a
418.1385	0.06	836277	keystroke_g	g	n/a
418.2585	0.09	836517	keystroke_o	o	n/a
418.4235	0.06	836847	keystroke_r	r	n/a
418.5135	0.12	837027	keystroke_i	i	n/a
418.6785	0.06	837357	keystroke_e	e	n/a
418.8435	0.075	837687	keystroke_s	s	n/a
419.309	0.09	838618	keystroke_Key.enter	Key.enter	n/a
419.4045	9.0265	838809	prompt	n/a	drawing dynamics professional practitioner\n
420.359	0.03	840718	keystroke_d	d	n/a
420.524	0.0455	841048	keystroke_r	r	n/a
420.6895	0.06	841379	keystroke_a	a	n/a
420.8995	0.06	841799	keystroke_w	w	n/a
421.0945	0.135	842189	keystroke_i	i	n/a
421.1545	0.09	842309	keystroke_n	n	n/a
421.2745	0.06	842549	keystroke_g	g	n/a
421.3795	0.09	842759	keystroke_Key.space	Key.space	n/a
422.264	0.075	844528	keystroke_d	d	n/a
422.519	0.06	845038	keystroke_y	y	n/a
422.684	0.06	845368	keystroke_n	n	n/a
422.804	0.0745	845608	keystroke_a	a	n/a
422.9085	0.075	845817	keystroke_m	m	n/a
423.0885	0.105	846177	keystroke_i	i	n/a
423.2685	0.06	846537	keystroke_c	c	n/a
423.4335	0.075	846867	keystroke_s	s	n/a
423.5385	0.09	847077	keystroke_Key.space	Key.space	n/a
423.9285	0.075	847857	keystroke_p	p	n/a
424.1535	0.075	848307	keystroke_r	r	n/a
424.2435	0.09	848487	keystroke_o	o	n/a
424.3935	0.06	848787	keystroke_f	f	n/a
424.5735	0.075	849147	keystroke_e	e	n/a
424.7835	0.045	849567	keystroke_s	s	n/a
424.8885	0.075	849777	keystroke_s	s	n/a
424.9645	0.1195	849929	keystroke_i	i	n/a
425.024	0.105	850048	keystroke_o	o	n/a
425.174	0.0755	850348	keystroke_n	n	n/a
425.2645	0.1045	850529	keystroke_a	a	n/a
425.384	0.075	850768	keystroke_l	l	n/a
425.579	0.0755	851158	keystroke_Key.space	Key.space	n/a
426.2235	0.09	852447	keystroke_p	p	n/a
426.4035	0.045	852807	keystroke_r	r	n/a
426.5685	0.09	853137	keystroke_a	a	n/a
426.7635	0.06	853527	keystroke_c	c	n/a
426.9885	0.045	853977	keystroke_t	t	n/a
427.1085	0.06	854217	keystroke_i	i	n/a
427.2585	0.075	854517	keystroke_t	t	n/a
427.3485	0.105	854697	keystroke_i	i	n/a
427.4085	0.09	854817	keystroke_o	o	n/a
427.5735	0.09	855147	keystroke_n	n	n/a
427.7835	0.15	855567	keystroke_e	e	n/a
427.8735	0.12	855747	keystroke_r	r	n/a
428.3985	0.03	856797	keystroke_Key.enter	Key.enter	n/a
428.4355	7.255	856871	prompt	n/a	executives cove holiday sort\n
429.3745	0.059	858749	keystroke_e	e	n/a
429.5835	0.045	859167	keystroke_x	x	n/a
429.7635	0.06	859527	keystroke_e	e	n/a
429.8985	0.075	859797	keystroke_c	c	n/a
430.1235	0.075	860247	keystroke_u	u	n/a
430.274	0.075	860548	keystroke_t	t	n/a
430.409	0.12	860818	keystroke_i	i	n/a
430.634	0.06	861268	keystroke_v	v	n/a
430.799	0.075	861598	keystroke_e	e	n/a
430.994	0.0595	861988	keystroke_s	s	n/a
431.0985	0.075	862197	keystroke_Key.space	Key.space	n/a
431.6835	0.075	863367	keystroke_c	c	n/a
431.8035	0.105	863607	keystroke_o	o	n/a
431.9835	0.075	863967	keystroke_v	v	n/a
432.1935	0.105	864387	keystroke_e	e	n/a
432.3435	0.09	864687	keystroke_Key.space	Key.space	n/a
433.139	0.06	866278	keystroke_h	h	n/a
433.289	0.075	866578	keystroke_o	o	n/a
433.499	0.06	866998	keystroke_l	l	n/a
433.7685	0.0755	867537	keystroke_i	i	n/a
433.904	0.12	867808	keystroke_d	d	n/a
434.009	0.0895	868018	keystroke_a	a	n/a
434.2485	0.075	868497	keystroke_y	y	n/a
434.3535	0.09	868707	keystroke_Key.space	Key.space	n/a
434.9385	0.06	869877	keystroke_s	s	n/a
435.0285	0.09	870057	keystroke_o	o	n/a
435.1335	0.075	870267	keystroke_r	r	n/a
435.2985	0.075	870597	keystroke_t	t	n/a
435.6135	0.075	871227	keystroke_Key.enter	Key.enter	n/a
435.694	12.5065	871388	prompt	n/a	veterans kazakhstan medieval perfume\n
436.724	0.06	873448	keystroke_v	v	n/a
436.889	0.12	873778	keystroke_e	e	n/a
437.144	0.06	874288	keystroke_t	t	n/a
437.324	0.12	874648	keystroke_e	e	n/a
437.414	0.09	874828	keystroke_r	r	n/a
437.594	0.0745	875188	keystroke_a	a	n/a
437.8485	0.03	875697	keystroke_n	n	n/a
437.999	0.09	875998	keystroke_s	s	n/a
438.239	0.09	876478	keystroke_Key.space	Key.space	n/a
439.2745	0.045	878549	keystroke_k	k	n/a
439.3945	0.12	878789	keystroke_a	a	n/a
439.7095	0.075	879419	keystroke_z	z	n/a
440.2195	0.075	880439	keystroke_a	a	n/a
441.1645	0.045	882329	keystroke_k	k	n/a
441.4045	0.06	882809	keystroke_h	h	n/a
441.6595	0.075	883319	keystroke_s	s	n/a
441.8545	0.06	883709	keystroke_t	t	n/a
442.0345	0.105	884069	keystroke_a	a	n/a
442.1545	0.09	884309	keystroke_n	n	n/a
442.3645	0.075	884729	keystroke_Key.space	Key.space	n/a
442.7095	0.06	885419	keystroke_m	m	n/a
442.9495	0.09	885899	keystroke_e	e	n/a
443.549	0.045	887098	keystroke_d	d	n/a
444.509	0.075	889018	keystroke_i	i	n/a
444.704	0.075	889408	keystroke_e	e	n/a
445.019	0.045	890038	keystroke_v	v	n/a
445.424	0.09	890848	keystroke_a	a	n/a
446.339	0.06	892678	keystroke_l	l	n/a
446.579	0.06	893158	keystroke_Key.space	Key.space	n/a
446.834	0.105	893668	keystroke_p	p	n/a
446.924	0.12	893848	keystroke_e	e	n/a
446.999	0.06	893998	keystroke_r	r	n/a
447.164	0.09	894328	keystroke_f	f	n/a
447.374	0.0755	894748	keystroke_u	u	n/a
447.5845	0.06	895169	keystroke_m	m	n/a
447.6745	0.09	895349	keystroke_e	e	n/a
448.124	0.075	896248	keystroke_Key.enter	Key.enter	n/a
448.204	8.6065	896408	prompt	n/a	investigation gage contractor assisted\n
449.099	0.06	898198	keystroke_i	i	n/a
449.249	0.06	898498	keystroke_n	n	n/a
449.429	0.06	898858	keystroke_v	v	n/a
449.579	0.075	899158	keystroke_e	e	n/a
449.774	0.06	899548	keystroke_s	s	n/a
449.969	0.045	899938	keystroke_t	t	n/a
450.074	0.075	900148	keystroke_i	i	n/a
450.329	0.06	900658	keystroke_g	g	n/a
450.464	0.075	900928	keystroke_a	a	n/a
450.599	0.105	901198	keystroke_t	t	n/a
450.719	0.105	901438	keystroke_i	i	n/a
450.749	0.105	901498	keystroke_o	o	n/a
450.959	0.075	901918	keystroke_n	n	n/a
451.124	0.105	902248	keystroke_Key.space	Key.space	n/a
451.604	0.06	903208	keystroke_g	g	n/a
451.739	0.075	903478	keystroke_a	a	n/a
451.949	0.105	903898	keystroke_g	g	n/a
452.024	0.09	904048	keystroke_e	e	n/a
452.159	0.105	904318	keystroke_Key.space	Key.space	n/a
452.579	0.06	905158	keystroke_c	c	n/a
452.699	0.12	905398	keystroke_o	o	n/a
452.789	0.0745	905578	keystroke_n	n	n/a
452.8795	0.045	905759	keystroke_t	t	n/a
453.0145	0.075	906029	keystroke_r	r	n/a
453.2245	0.1045	906449	keystroke_a	a	n/a
453.449	0.06	906898	keystroke_c	c	n/a
453.854	0.045	907708	keystroke_t	t	n/a
454.349	0.09	908698	keystroke_o	o	n/a
454.484	0.12	908968	keystroke_r	r	n/a
454.679	0.105	909358	keystroke_Key.space	Key.space	n/a
455.174	0.09	910348	keystroke_a	a	n/a
455.624	0.045	911248	keystroke_s	s	n/a
455.714	0.09	911428	keystroke_s	s	n/a
455.879	0.0745	911758	keystroke_i	i	n/a
455.9685	0.076	911937	keystroke_s	s	n/a
456.1785	0.105	912357	keystroke_t	t	n/a
456.2535	0.105	912507	keystroke_e	e	n/a
456.4485	0.075	912897	keystroke_d	d	n/a
456.7185	0.09	913437	keystroke_Key.enter	Key.enter	n/a
456.814	10.617	913628	prompt	n/a	aviation choices specialties associates\n
457.5285	0.0905	915057	keystroke_a	a	n/a
458.099	0.03	916198	keystroke_v	v	n/a
458.189	0.075	916378	keystroke_i	i	n/a
458.309	0.06	916618	keystroke_a	a	n/a
458.519	0.075	917038	keystroke_t	t	n/a
458.609	0.105	917218	keystroke_i	i	n/a
458.654	0.105	917308	keystroke_o	o	n/a
458.849	0.06	917698	keystroke_n	n	n/a
459.029	0.06	918058	keystroke_Key.space	Key.space	n/a
459.554	0.06	919108	keystroke_c	c	n/a
459.659	0.0595	919318	keystroke_h	h	n/a
459.9135	0.075	919827	keystroke_o	o	n/a
460.0935	0.09	920187	keystroke_i	i	n/a
460.3335	0.135	920667	keystroke_c	c	n/a
460.4085	0.09	920817	keystroke_e	e	n/a
460.6335	0.075	921267	keystroke_s	s	n/a
460.7235	0.06	921447	keystroke_Key.space	Key.space	n/a
460.9935	0.0455	921987	keystroke_s	s	n/a
461.084	0.105	922168	keystroke_p	p	n/a
461.279	0.09	922558	keystroke_e	e	n/a
461.519	0.075	923038	keystroke_c	c	n/a
461.609	0.09	923218	keystroke_i	i	n/a
461.714	0.09	923428	keystroke_a	a	n/a
461.999	0.12	923998	keystroke_l	l	n/a
463.274	0.045	926548	keystroke_i	i	n/a
463.604	0.075	927208	keystroke_Key.backspace	Key.backspace	n/a
463.694	0.09	927388	keystroke_t	t	n/a
463.799	0.09	927598	keystroke_i	i	n/a
464.2035	0.015	928407	keystroke_e	e	n/a
464.3385	0.06	928677	keystroke_s	s	n/a
464.4135	0.075	928827	keystroke_Key.space	Key.space	n/a
465.149	0.09	930298	keystroke_a	a	n/a
465.419	0.06	930838	keystroke_s	s	n/a
465.509	0.075	931018	keystroke_s	s	n/a
465.599	0.105	931198	keystroke_o	o	n/a
466.274	0.09	932548	keystroke_c	c	n/a
466.3795	0.0895	932759	keystroke_i	i	n/a
466.4845	0.09	932969	keystroke_a	a	n/a
466.7095	0.105	933419	keystroke_t	t	n/a
466.7845	0.075	933569	keystroke_e	e	n/a
466.9795	0.09	933959	keystroke_s	s	n/a
467.3545	0.075	934709	keystroke_Key.enter	Key.enter	n/a
467.434	8.502	934868	prompt	n/a	msie maldives hard violent\n
468.4495	0.06	936899	keystroke_m	m	n/a
468.5845	0.09	937169	keystroke_s	s	n/a
468.7945	0.09	937589	keystroke_i	i	n/a
468.8995	0.09	937799	keystroke_e	e	n/a
469.0495	0.09	938099	keystroke_Key.space	Key.space	n/a
469.5595	0.06	939119	keystroke_m	m	n/a
469.6645	0.09	939329	keystroke_a	a	n/a
470.6845	0.045	941369	keystroke_l	l	n/a
471.0145	0.075	942029	keystroke_d	d	n/a
471.1195	0.09	942239	keystroke_i	i	n/a
471.2545	0.06	942509	keystroke_v	v	n/a
471.4795	0.135	942959	keystroke_e	e	n/a
471.7645	0.075	943529	keystroke_s	s	n/a
472.2595	0.075	944519	keystroke_Key.space	Key.space	n/a
473.2645	0.045	946529	keystroke_h	h	n/a
473.3395	0.15	946679	keystroke_a	a	n/a
473.4445	0.06	946889	keystroke_r	r	n/a
473.6995	0.105	947399	keystroke_d	d	n/a
473.8195	0.09	947639	keystroke_Key.space	Key.space	n/a
474.5395	0.06	949079	keystroke_v	v	n/a
474.719	0.075	949438	keystroke_i	i	n/a
474.869	0.09	949738	keystroke_o	o	n/a
475.064	0.09	950128	keystroke_l	l	n/a
475.139	0.075	950278	keystroke_e	e	n/a
475.319	0.06	950638	keystroke_n	n	n/a
475.484	0.09	950968	keystroke_t	t	n/a
475.814	0.12	951628	keystroke_Key.enter	Key.enter	n/a
475.9415	10.6295	951883	prompt	n/a	wilderness relevant determination actors\n
477.029	0.045	954058	keystroke_w	w	n/a
477.119	0.045	954238	keystroke_i	i	n/a
477.299	0.075	954598	keystroke_l	l	n/a
477.359	0.06	954718	keystroke_d	d	n/a
477.539	0.105	955078	keystroke_e	e	n/a
477.614	0.09	955228	keystroke_r	r	n/a
477.749	0.0755	955498	keystroke_n	n	n/a
477.8845	0.0895	955769	keystroke_e	e	n/a
478.109	0.03	956218	keystroke_s	s	n/a
478.2285	0.061	956457	keystroke_s	s	n/a
478.3485	0.105	956697	keystroke_Key.space	Key.space	n/a
478.934	0.075	957868	keystroke_r	r	n/a
478.979	0.06	957958	keystroke_e	e	n/a
479.204	0.105	958408	keystroke_l	l	n/a
479.369	0.09	958738	keystroke_e	e	n/a
479.624	0.045	959248	keystroke_v	v	n/a
479.774	0.09	959548	keystroke_a	a	n/a
479.924	0.105	959848	keystroke_n	n	n/a
480.044	0.0895	960088	keystroke_t	t	n/a
480.1935	0.075	960387	keystroke_Key.space	Key.space	n/a
480.9585	0.075	961917	keystroke_d	d	n/a
481.1385	0.075	962277	keystroke_e	e	n/a
481.3035	0.06	962607	keystroke_t	t	n/a
481.4685	0.12	962937	keystroke_e	e	n/a
481.7535	0.075	963507	keystroke_r	r	n/a
481.9335	0.076	963867	keystroke_m	m	n/a
482.1285	0.135	964257	keystroke_i	i	n/a
482.2485	0.075	964497	keystroke_n	n	n/a
482.4885	0.09	964977	keystroke_a	a	n/a
482.6235	0.09	965247	keystroke_t	t	n/a
482.7435	0.105	965487	keystroke_i	i	n/a
482.7885	0.105	965577	keystroke_o	o	n/a
482.9985	0.075	965997	keystroke_n	n	n/a
483.194	0.0895	966388	keystroke_Key.space	Key.space	n/a
483.3585	0.09	966717	keystroke_a	a	n/a
483.5985	0.06	967197	keystroke_c	c	n/a
483.8235	0.015	967647	keystroke_r	r	n/a
484.934	0.09	969868	keystroke_Key.backspace	Key.backspace	n/a
485.084	0.09	970168	keystroke_t	t	n/a
485.684	0.075	971368	keystroke_o	o	n/a
485.789	0.09	971578	keystroke_r	r	n/a
485.984	0.105	971968	keystroke_s	s	n/a
486.479	0.09	972958	keystroke_Key.enter	Key.enter	n/a
486.574	8.7715	973148	prompt	n/a	instrumental signing guest parker\n
487.5445	0.15	975089	keystroke_i	i	n/a
487.6345	0.075	975269	keystroke_n	n	n/a
487.8145	0.075	975629	keystroke_s	s	n/a
487.9945	0.06	975989	keystroke_t	t	n/a
488.1745	0.06	976349	keystroke_r	r	n/a
488.384	0.015	976768	keystroke_u	u	n/a
488.504	0.0605	977008	keystroke_m	m	n/a
488.5945	0.075	977189	keystroke_e	e	n/a
488.6995	0.09	977399	keystroke_n	n	n/a
488.8045	0.06	977609	keystroke_t	t	n/a
488.9695	0.09	977939	keystroke_a	a	n/a
489.0895	0.12	978179	keystroke_l	l	n/a
489.3435	0.09	978687	keystroke_Key.space	Key.space	n/a
489.989	0.09	979978	keystroke_s	s	n/a
490.109	0.09	980218	keystroke_i	i	n/a
490.289	0.075	980578	keystroke_g	g	n/a
490.859	0.06	981718	keystroke_n	n	n/a
491.429	0.12	982858	keystroke_i	i	n/a
491.489	0.09	982978	keystroke_n	n	n/a
491.609	0.075	983218	keystroke_g	g	n/a
491.744	0.09	983488	keystroke_Key.space	Key.space	n/a
492.914	0.075	985828	keystroke_g	g	n/a
493.094	0.09	986188	keystroke_u	u	n/a
493.259	0.045	986518	keystroke_e	e	n/a
493.469	0.06	986938	keystroke_s	s	n/a
493.694	0.075	987388	keystroke_t	t	n/a
493.814	0.09	987628	keystroke_Key.space	Key.space	n/a
494.1585	0.12	988317	keystroke_p	p	n/a
494.2645	0.165	988529	keystroke_a	a	n/a
494.3845	0.105	988769	keystroke_r	r	n/a
494.6095	0.06	989219	keystroke_k	k	n/a
494.7135	0.121	989427	keystroke_e	e	n/a
494.8045	0.075	989609	keystroke_r	r	n/a
495.2685	0.075	990537	keystroke_Key.enter	Key.enter	n/a
495.349	10.3765	990698	prompt	n/a	emissions rugs navigate diagnostic\n
496.199	0.075	992398	keystroke_e	e	n/a
496.379	0.09	992758	keystroke_m	m	n/a
496.934	0.075	993868	keystroke_i	i	n/a
497.084	0.06	994168	keystroke_s	s	n/a
497.309	0.045	994618	keystroke_s	s	n/a
497.474	0.09	994948	keystroke_i	i	n/a
497.534	0.09	995068	keystroke_o	o	n/a
497.699	0.09	995398	keystroke_n	n	n/a
497.864	0.06	995728	keystroke_s	s	n/a
497.9535	0.091	995907	keystroke_Key.space	Key.space	n/a
498.6585	0.061	997317	keystroke_r	r	n/a
498.9145	0.09	997829	keystroke_u	u	n/a
499.379	0.045	998758	keystroke_g	g	n/a
499.859	0.06	999718	keystroke_s	s	n/a
499.9785	0.075	999957	keystroke_Key.space	Key.space	n/a
500.759	0.045	1001518	keystroke_n	n	n/a
500.849	0.075	1001698	keystroke_a	a	n/a
501.1635	0.06	1002327	keystroke_v	v	n/a
501.2835	0.09	1002567	keystroke_i	i	n/a
501.524	0.045	1003048	keystroke_g	g	n/a
501.704	0.105	1003408	keystroke_a	a	n/a
502.0035	0.106	1004007	keystroke_t	t	n/a
502.0485	0.135	1004097	keystroke_e	e	n/a
502.1685	0.09	1004337	keystroke_Key.space	Key.space	n/a
503.234	0.075	1006468	keystroke_d	d	n/a
503.324	0.075	1006648	keystroke_i	i	n/a
503.504	0.075	1007008	keystroke_a	a	n/a
503.684	0.06	1007368	keystroke_g	g	n/a
503.999	0.045	1007998	keystroke_n	n	n/a
504.194	0.075	1008388	keystroke_o	o	n/a
504.419	0.06	1008838	keystroke_s	s	n/a
504.614	0.075	1009228	keystroke_t	t	n/a
504.719	0.135	1009438	keystroke_i	i	n/a
505.094	0.12	1010188	keystroke_c	c	n/a
505.619	0.105	1011238	keystroke_Key.enter	Key.enter	n/a
505.729	6.1315	1011458	prompt	n/a	killed when line samsung\n
506.5335	0.045	1013067	keystroke_k	k	n/a
506.6835	0.075	1013367	keystroke_i	i	n/a
506.879	0.06	1013758	keystroke_l	l	n/a
507.014	0.09	1014028	keystroke_l	l	n/a
507.089	0.06	1014178	keystroke_e	e	n/a
507.269	0.105	1014538	keystroke_d	d	n/a
507.359	0.0905	1014718	keystroke_Key.space	Key.space	n/a
507.779	0.06	1015558	keystroke_w	w	n/a
507.884	0.105	1015768	keystroke_h	h	n/a
508.004	0.09	1016008	keystroke_e	e	n/a
508.124	0.075	1016248	keystroke_n	n	n/a
508.274	0.105	1016548	keystroke_Key.space	Key.space	n/a
509.024	0.12	1018048	keystroke_l	l	n/a
509.159	0.09	1018318	keystroke_i	i	n/a
509.399	0.075	1018798	keystroke_n	n	n/a
509.519	0.09	1019038	keystroke_e	e	n/a
509.624	0.09	1019248	keystroke_Key.space	Key.space	n/a
510.344	0.045	1020688	keystroke_s	s	n/a
510.524	0.075	1021048	keystroke_a	a	n/a
510.674	0.075	1021348	keystroke_m	m	n/a
510.869	0.06	1021738	keystroke_s	s	n/a
511.094	0.09	1022188	keystroke_u	u	n/a
511.319	0.075	1022638	keystroke_n	n	n/a
511.439	0.105	1022878	keystroke_g	g	n/a
511.799	0.06	1023598	keystroke_Key.enter	Key.enter	n/a
511.864	7.2565	1023728	prompt	n/a	guitar reviews yours teachers\n
512.774	0.0755	1025548	keystroke_g	g	n/a
512.9395	0.075	1025879	keystroke_u	u	n/a
513.1195	0.075	1026239	keystroke_i	i	n/a
513.4195	0.075	1026839	keystroke_t	t	n/a
513.5995	0.075	1027199	keystroke_a	a	n/a
513.7945	0.09	1027589	keystroke_r	r	n/a
513.9285	0.0905	1027857	keystroke_Key.space	Key.space	n/a
514.4845	0.12	1028969	keystroke_r	r	n/a
514.5595	0.09	1029119	keystroke_e	e	n/a
514.7695	0.075	1029539	keystroke_v	v	n/a
514.8595	0.09	1029719	keystroke_i	i	n/a
514.9945	0.06	1029989	keystroke_e	e	n/a
515.1895	0.06	1030379	keystroke_w	w	n/a
515.3995	0.074	1030799	keystroke_s	s	n/a
515.5945	0.089	1031189	keystroke_Key.space	Key.space	n/a
516.224	0.075	1032448	keystroke_y	y	n/a
516.314	0.135	1032628	keystroke_o	o	n/a
516.374	0.105	1032748	keystroke_u	u	n/a
516.584	0.06	1033168	keystroke_r	r	n/a
516.794	0.09	1033588	keystroke_s	s	n/a
516.899	0.075	1033798	keystroke_Key.space	Key.space	n/a
517.709	0.0895	1035418	keystroke_t	t	n/a
517.8585	0.075	1035717	keystroke_e	e	n/a
518.039	0.09	1036078	keystroke_a	a	n/a
518.249	0.06	1036498	keystroke_c	c	n/a
518.369	0.06	1036738	keystroke_h	h	n/a
518.459	0.12	1036918	keystroke_e	e	n/a
518.549	0.075	1037098	keystroke_r	r	n/a
518.729	0.09	1037458	keystroke_s	s	n/a
519.029	0.09	1038058	keystroke_Key.enter	Key.enter	n/a
519.124	7.7665	1038248	prompt	n/a	bearing trailers cancelled required\n
519.914	0.06	1039828	keystroke_b	b	n/a
520.004	0.09	1040008	keystroke_e	e	n/a
520.244	0.075	1040488	keystroke_a	a	n/a
520.439	0.09	1040878	keystroke_r	r	n/a
520.634	0.12	1041268	keystroke_i	i	n/a
520.694	0.09	1041388	keystroke_n	n	n/a
520.814	0.06	1041628	keystroke_g	g	n/a
520.919	0.0895	1041838	keystroke_Key.space	Key.space	n/a
521.5495	0.059	1043099	keystroke_t	t	n/a
521.699	0.075	1043398	keystroke_r	r	n/a
521.879	0.0745	1043758	keystroke_a	a	n/a
521.9685	0.075	1043937	keystroke_i	i	n/a
522.1645	0.074	1044329	keystroke_l	l	n/a
522.2535	0.1355	1044507	keystroke_e	e	n/a
522.3435	0.075	1044687	keystroke_r	r	n/a
522.5385	0.075	1045077	keystroke_s	s	n/a
522.6285	0.075	1045257	keystroke_Key.space	Key.space	n/a
523.109	0.075	1046218	keystroke_c	c	n/a
523.259	0.075	1046518	keystroke_a	a	n/a
523.364	0.0595	1046728	keystroke_n	n	n/a
523.499	0.075	1046998	keystroke_c	c	n/a
523.649	0.075	1047298	keystroke_e	e	n/a
523.769	0.075	1047538	keystroke_l	l	n/a
523.9635	0.075	1047927	keystroke_l	l	n/a
524.1135	0.075	1048227	keystroke_e	e	n/a
524.3085	0.075	1048617	keystroke_d	d	n/a
524.4135	0.075	1048827	keystroke_Key.space	Key.space	n/a
525.134	0.12	1050268	keystroke_r	r	n/a
525.209	0.09	1050418	keystroke_e	e	n/a
525.509	0.06	1051018	keystroke_q	q	n/a
525.644	0.075	1051288	keystroke_u	u	n/a
525.824	0.09	1051648	keystroke_i	i	n/a
526.094	0.09	1052188	keystroke_r	r	n/a
526.244	0.075	1052488	keystroke_e	e	n/a
526.424	0.09	1052848	keystroke_d	d	n/a
526.799	0.09	1053598	keystroke_Key.enter	Key.enter	n/a
526.8935	7.497	1053787	prompt	n/a	earning xanax story everything\n
527.6245	0.075	1055249	keystroke_e	e	n/a
527.8045	0.0595	1055609	keystroke_a	a	n/a
527.969	0.075	1055938	keystroke_r	r	n/a
528.134	0.06	1056268	keystroke_n	n	n/a
528.329	0.105	1056658	keystroke_i	i	n/a
528.404	0.09	1056808	keystroke_n	n	n/a
528.524	0.075	1057048	keystroke_g	g	n/a
528.629	0.09	1057258	keystroke_Key.space	Key.space	n/a
529.3795	0.0595	1058759	keystroke_c	c	n/a
529.724	0.075	1059448	keystroke_Key.backspace	Key.backspace	n/a
529.829	0.075	1059658	keystroke_x	x	n/a
530.009	0.075	1060018	keystroke_a	a	n/a
530.114	0.075	1060228	keystroke_n	n	n/a
530.234	0.075	1060468	keystroke_a	a	n/a
530.459	0.105	1060918	keystroke_x	x	n/a
530.594	0.105	1061188	keystroke_Key.space	Key.space	n/a
531.509	0.075	1063018	keystroke_s	s	n/a
531.704	0.075	1063408	keystroke_t	t	n/a
531.824	0.105	1063648	keystroke_o	o	n/a
532.094	0.105	1064188	keystroke_r	r	n/a
532.214	0.105	1064428	keystroke_y	y	n/a
532.364	0.105	1064728	keystroke_Key.space	Key.space	n/a
532.784	0.09	1065568	keystroke_e	e	n/a
533.009	0.06	1066018	keystroke_v	v	n/a
533.144	0.105	1066288	keystroke_e	e	n/a
533.219	0.09	1066438	keystroke_r	r	n/a
533.414	0.06	1066828	keystroke_y	y	n/a
533.564	0.105	1067128	keystroke_t	t	n/a
533.684	0.105	1067368	keystroke_h	h	n/a
533.729	0.105	1067458	keystroke_i	i	n/a
533.894	0.105	1067788	keystroke_n	n	n/a
533.984	0.075	1067968	keystroke_g	g	n/a
534.284	0.105	1068568	keystroke_Key.enter	Key.enter	n/a
534.3935	8.262	1068787	prompt	n/a	wine gathering luggage joshua\n
535.169	0.075	1070338	keystroke_w	w	n/a
535.664	0.12	1071328	keystroke_i	i	n/a
535.739	0.09	1071478	keystroke_n	n	n/a
535.874	0.09	1071748	keystroke_e	e	n/a
535.994	0.075	1071988	keystroke_Key.space	Key.space	n/a
536.669	0.045	1073338	keystroke_g	g	n/a
536.804	0.09	1073608	keystroke_a	a	n/a
537.299	0.0755	1074598	keystroke_t	t	n/a
537.419	0.06	1074838	keystroke_h	h	n/a
537.599	0.12	1075198	keystroke_e	e	n/a
537.689	0.075	1075378	keystroke_r	r	n/a
537.914	0.1045	1075828	keystroke_i	i	n/a
537.959	0.0895	1075918	keystroke_n	n	n/a
538.0635	0.06	1076127	keystroke_g	g	n/a
538.1685	0.09	1076337	keystroke_Key.space	Key.space	n/a
538.874	0.09	1077748	keystroke_l	l	n/a
539.114	0.075	1078228	keystroke_u	u	n/a
539.444	0.045	1078888	keystroke_g	g	n/a
539.549	0.075	1079098	keystroke_g	g	n/a
539.729	0.06	1079458	keystroke_a	a	n/a
539.9985	0.135	1079997	keystroke_g	g	n/a
540.1185	0.0605	1080237	keystroke_e	e	n/a
540.209	0.09	1080418	keystroke_Key.space	Key.space	n/a
540.8535	0.0605	1081707	keystroke_j	j	n/a
541.0185	0.105	1082037	keystroke_o	o	n/a
541.4695	0.06	1082939	keystroke_s	s	n/a
541.5745	0.06	1083149	keystroke_h	h	n/a
541.7995	0.09	1083599	keystroke_u	u	n/a
541.934	0.1055	1083868	keystroke_a	a	n/a
542.5795	0.075	1085159	keystroke_Key.enter	Key.enter	n/a
542.6585	7.692	1085317	prompt	n/a	coral cubic supporters captured\n
543.479	0.075	1086958	keystroke_c	c	n/a
543.599	0.09	1087198	keystroke_o	o	n/a
543.749	0.06	1087498	keystroke_r	r	n/a
543.929	0.1055	1087858	keystroke_a	a	n/a
544.0495	0.075	1088099	keystroke_l	l	n/a
544.2735	0.06	1088547	keystroke_Key.space	Key.space	n/a
545.0095	0.09	1090019	keystroke_c	c	n/a
545.1295	0.089	1090259	keystroke_u	u	n/a
545.4285	0.061	1090857	keystroke_b	b	n/a
545.879	0.09	1091758	keystroke_i	i	n/a
545.984	0.09	1091968	keystroke_c	c	n/a
546.134	0.105	1092268	keystroke_Key.space	Key.space	n/a
546.869	0.0745	1093738	keystroke_s	s	n/a
547.0485	0.075	1094097	keystroke_u	u	n/a
547.2585	0.06	1094517	keystroke_p	p	n/a
547.4095	0.12	1094819	keystroke_p	p	n/a
547.4685	0.106	1094937	keystroke_o	o	n/a
547.5885	0.061	1095177	keystroke_r	r	n/a
547.7685	0.091	1095537	keystroke_t	t	n/a
547.9345	0.149	1095869	keystroke_e	e	n/a
548.0385	0.09	1096077	keystroke_r	r	n/a
548.2345	0.104	1096469	keystroke_s	s	n/a
548.3535	0.09	1096707	keystroke_Key.space	Key.space	n/a
548.879	0.06	1097758	keystroke_c	c	n/a
549.044	0.105	1098088	keystroke_a	a	n/a
549.134	0.09	1098268	keystroke_p	p	n/a
549.374	0.075	1098748	keystroke_t	t	n/a
549.614	0.0745	1099228	keystroke_u	u	n/a
549.7335	0.12	1099467	keystroke_r	r	n/a
549.8085	0.075	1099617	keystroke_e	e	n/a
550.004	0.09	1100008	keystroke_d	d	n/a
550.259	0.09	1100518	keystroke_Key.enter	Key.enter	n/a
550.3535	8.847	1100707	prompt	n/a	programmer competent attention casa\n
551.429	0.06	1102858	keystroke_p	p	n/a
551.579	0.06	1103158	keystroke_r	r	n/a
551.669	0.09	1103338	keystroke_o	o	n/a
551.864	0.06	1103728	keystroke_g	g	n/a
552.044	0.09	1104088	keystroke_r	r	n/a
552.239	0.09	1104478	keystroke_a	a	n/a
552.5235	0.045	1105047	keystroke_m	m	n/a
552.6435	0.075	1105287	keystroke_m	m	n/a
552.7485	0.135	1105497	keystroke_e	e	n/a
552.8385	0.075	1105677	keystroke_r	r	n/a
553.019	0.09	1106038	keystroke_Key.space	Key.space	n/a
553.469	0.075	1106938	keystroke_c	c	n/a
553.559	0.12	1107118	keystroke_o	o	n/a
553.634	0.075	1107268	keystroke_m	m	n/a
553.814	0.09	1107628	keystroke_p	p	n/a
553.964	0.09	1107928	keystroke_e	e	n/a
554.264	0.075	1108528	keystroke_t	t	n/a
554.744	0.09	1109488	keystroke_e	e	n/a
554.864	0.09	1109728	keystroke_n	n	n/a
554.999	0.0895	1109998	keystroke_t	t	n/a
555.0885	0.09	1110177	keystroke_Key.space	Key.space	n/a
555.7485	0.105	1111497	keystroke_a	a	n/a
555.9885	0.03	1111977	keystroke_t	t	n/a
556.1085	0.09	1112217	keystroke_t	t	n/a
556.889	0.045	1113778	keystroke_e	e	n/a
556.994	0.0895	1113988	keystroke_n	n	n/a
557.1735	0.075	1114347	keystroke_t	t	n/a
557.3385	0.105	1114677	keystroke_i	i	n/a
557.3985	0.105	1114797	keystroke_o	o	n/a
557.5935	0.075	1115187	keystroke_n	n	n/a
557.7885	0.0755	1115577	keystroke_Key.space	Key.space	n/a
558.4045	0.045	1116809	keystroke_c	c	n/a
558.4945	0.105	1116989	keystroke_a	a	n/a
558.6145	0.105	1117229	keystroke_s	s	n/a
558.8095	0.105	1117619	keystroke_a	a	n/a
559.1245	0.0745	1118249	keystroke_Key.enter	Key.enter	n/a
559.2045	7.511	1118409	prompt	n/a	streets inflation elder figure\n
559.829	0.09	1119658	keystroke_s	s	n/a
560.054	0.06	1120108	keystroke_t	t	n/a
560.219	0.06	1120438	keystroke_r	r	n/a
560.399	0.03	1120798	keystroke_e	e	n/a
560.504	0.09	1121008	keystroke_e	e	n/a
560.654	0.06	1121308	keystroke_t	t	n/a
560.834	0.06	1121668	keystroke_s	s	n/a
560.924	0.09	1121848	keystroke_Key.space	Key.space	n/a
561.179	0.135	1122358	keystroke_i	i	n/a
561.254	0.105	1122508	keystroke_n	n	n/a
561.4935	0.06	1122987	keystroke_f	f	n/a
561.5685	0.105	1123137	keystroke_l	l	n/a
561.7035	0.06	1123407	keystroke_a	a	n/a
561.8835	0.09	1123767	keystroke_t	t	n/a
562.094	0.105	1124188	keystroke_i	i	n/a
562.154	0.105	1124308	keystroke_o	o	n/a
562.334	0.075	1124668	keystroke_n	n	n/a
562.529	0.075	1125058	keystroke_Key.space	Key.space	n/a
564.074	0.06	1128148	keystroke_e	e	n/a
564.179	0.075	1128358	keystroke_l	l	n/a
564.299	0.03	1128598	keystroke_s	s	n/a
564.659	0.09	1129318	keystroke_Key.backspace	Key.backspace	n/a
564.764	0.075	1129528	keystroke_d	d	n/a
564.989	0.135	1129978	keystroke_e	e	n/a
565.079	0.105	1130158	keystroke_r	r	n/a
565.244	0.105	1130488	keystroke_Key.space	Key.space	n/a
565.694	0.075	1131388	keystroke_f	f	n/a
565.784	0.09	1131568	keystroke_i	i	n/a
565.889	0.075	1131778	keystroke_g	g	n/a
566.054	0.075	1132108	keystroke_u	u	n/a
566.234	0.15	1132468	keystroke_r	r	n/a
566.324	0.12	1132648	keystroke_e	e	n/a
566.594	0.12	1133188	keystroke_Key.enter	Key.enter	n/a
566.7185	7.392	1133437	prompt	n/a	zimbabwe gotta created html\n
567.734	0.06	1135468	keystroke_z	z	n/a
567.9435	0.075	1135887	keystroke_i	i	n/a
568.0935	0.09	1136187	keystroke_m	m	n/a
568.3785	0.06	1136757	keystroke_b	b	n/a
568.5435	0.045	1137087	keystroke_a	a	n/a
568.6035	0.105	1137207	keystroke_b	b	n/a
568.9935	0.06	1137987	keystroke_w	w	n/a
569.1735	0.1055	1138347	keystroke_e	e	n/a
569.3235	0.075	1138647	keystroke_Key.space	Key.space	n/a
569.9545	0.075	1139909	keystroke_g	g	n/a
570.1045	0.09	1140209	keystroke_o	o	n/a
570.2845	0.045	1140569	keystroke_t	t	n/a
570.3595	0.09	1140719	keystroke_t	t	n/a
570.5545	0.09	1141109	keystroke_a	a	n/a
570.6445	0.09	1141289	keystroke_Key.space	Key.space	n/a
571.1845	0.105	1142369	keystroke_c	c	n/a
571.4095	0.135	1142819	keystroke_r	r	n/a
571.4845	0.135	1142969	keystroke_e	e	n/a
571.6045	0.09	1143209	keystroke_a	a	n/a
571.7845	0.15	1143569	keystroke_t	t	n/a
571.8745	0.0745	1143749	keystroke_e	e	n/a
572.069	0.075	1144138	keystroke_d	d	n/a
572.189	0.09	1144378	keystroke_Key.space	Key.space	n/a
572.789	0.0605	1145578	keystroke_h	h	n/a
573.0895	0.09	1146179	keystroke_t	t	n/a
573.3295	0.045	1146659	keystroke_m	m	n/a
573.6595	0.06	1147319	keystroke_l	l	n/a
574.004	0.105	1148008	keystroke_Key.enter	Key.enter	n/a
574.116	7.7795	1148232	prompt	n/a	smith closely chinese editor\n
574.9345	0.06	1149869	keystroke_s	s	n/a
575.0845	0.075	1150169	keystroke_m	m	n/a
575.3395	0.075	1150679	keystroke_i	i	n/a
575.534	0.09	1151068	keystroke_t	t	n/a
575.654	0.075	1151308	keystroke_h	h	n/a
575.879	0.0755	1151758	keystroke_Key.space	Key.space	n/a
576.1945	0.075	1152389	keystroke_c	c	n/a
576.2985	0.091	1152597	keystroke_l	l	n/a
576.5095	0.09	1153019	keystroke_o	o	n/a
576.6295	0.075	1153259	keystroke_s	s	n/a
576.8395	0.075	1153679	keystroke_e	e	n/a
576.9285	0.106	1153857	keystroke_l	l	n/a
577.0645	0.089	1154129	keystroke_y	y	n/a
577.1985	0.09	1154397	keystroke_Key.space	Key.space	n/a
578.249	0.0605	1156498	keystroke_c	c	n/a
578.3695	0.059	1156739	keystroke_h	h	n/a
578.5495	0.0745	1157099	keystroke_i	i	n/a
578.894	0.06	1157788	keystroke_n	n	n/a
579.089	0.06	1158178	keystroke_e	e	n/a
579.269	0.045	1158538	keystroke_s	s	n/a
579.449	0.06	1158898	keystroke_e	e	n/a
580.079	0.075	1160158	keystroke_Key.space	Key.space	n/a
580.574	0.06	1161148	keystroke_e	e	n/a
580.829	0.06	1161658	keystroke_d	d	n/a
580.949	0.075	1161898	keystroke_i	i	n/a
581.144	0.09	1162288	keystroke_t	t	n/a
581.264	0.12	1162528	keystroke_o	o	n/a
581.444	0.09	1162888	keystroke_r	r	n/a
581.789	0.105	1163578	keystroke_Key.enter	Key.enter	n/a
581.899	8.4565	1163798	prompt	n/a	highway cognitive higher writers\n
582.704	0.06	1165408	keystroke_h	h	n/a
582.839	0.075	1165678	keystroke_i	i	n/a
582.959	0.075	1165918	keystroke_g	g	n/a
583.049	0.06	1166098	keystroke_h	h	n/a
583.274	0.09	1166548	keystroke_w	w	n/a
583.469	0.075	1166938	keystroke_a	a	n/a
583.679	0.06	1167358	keystroke_y	y	n/a
583.799	0.09	1167598	keystroke_Key.space	Key.space	n/a
584.804	0.06	1169608	keystroke_c	c	n/a
584.939	0.09	1169878	keystroke_o	o	n/a
585.089	0.06	1170178	keystroke_g	g	n/a
585.239	0.075	1170478	keystroke_n	n	n/a
585.419	0.075	1170838	keystroke_i	i	n/a
585.599	0.075	1171198	keystroke_t	t	n/a
585.689	0.135	1171378	keystroke_i	i	n/a
585.899	0.0605	1171798	keystroke_v	v	n/a
586.0345	0.12	1172069	keystroke_e	e	n/a
586.1995	0.105	1172399	keystroke_Key.space	Key.space	n/a
586.8585	0.06	1173717	keystroke_h	h	n/a
587.0085	0.09	1174017	keystroke_i	i	n/a
587.1435	0.06	1174287	keystroke_g	g	n/a
587.2185	0.06	1174437	keystroke_h	h	n/a
587.3685	0.105	1174737	keystroke_e	e	n/a
587.4435	0.09	1174887	keystroke_r	r	n/a
587.5635	0.09	1175127	keystroke_Key.space	Key.space	n/a
589.0945	0.045	1178189	keystroke_w	w	n/a
589.2445	0.075	1178489	keystroke_r	r	n/a
589.3945	0.06	1178789	keystroke_i	i	n/a
589.5595	0.075	1179119	keystroke_t	t	n/a
589.7395	0.105	1179479	keystroke_e	e	n/a
589.8145	0.075	1179629	keystroke_r	r	n/a
589.9945	0.09	1179989	keystroke_s	s	n/a
590.2795	0.075	1180559	keystroke_Key.enter	Key.enter	n/a
590.3585	6.702	1180717	prompt	n/a	so choices stops horizon\n
591.2995	0.06	1182599	keystroke_s	s	n/a
591.4045	0.105	1182809	keystroke_o	o	n/a
591.6585	0.076	1183317	keystroke_Key.space	Key.space	n/a
592.1095	0.09	1184219	keystroke_c	c	n/a
592.2595	0.06	1184519	keystroke_h	h	n/a
592.4995	0.135	1184999	keystroke_o	o	n/a
592.6195	0.09	1185239	keystroke_i	i	n/a
592.7835	0.135	1185567	keystroke_c	c	n/a
592.8735	0.09	1185747	keystroke_e	e	n/a
593.0985	0.06	1186197	keystroke_s	s	n/a
593.1885	0.091	1186377	keystroke_Key.space	Key.space	n/a
593.6685	0.045	1187337	keystroke_s	s	n/a
593.8785	0.09	1187757	keystroke_t	t	n/a
594.0885	0.075	1188177	keystroke_o	o	n/a
594.3135	0.045	1188627	keystroke_p	p	n/a
594.4185	0.09	1188837	keystroke_s	s	n/a
594.869	0.09	1189738	keystroke_Key.space	Key.space	n/a
595.454	0.06	1190908	keystroke_h	h	n/a
595.634	0.105	1191268	keystroke_o	o	n/a
595.814	0.075	1191628	keystroke_r	r	n/a
596.114	0.075	1192228	keystroke_i	i	n/a
596.429	0.075	1192858	keystroke_z	z	n/a
596.534	0.12	1193068	keystroke_o	o	n/a
596.609	0.09	1193218	keystroke_n	n	n/a
596.939	0.12	1193878	keystroke_Key.enter	Key.enter	n/a
597.0635	7.332	1194127	prompt	n/a	patrol core reliable console\n
598.1545	0.059	1196309	keystroke_p	p	n/a
598.2885	0.09	1196577	keystroke_a	a	n/a
598.4845	0.059	1196969	keystroke_t	t	n/a
598.6335	0.0905	1197267	keystroke_r	r	n/a
598.769	0.105	1197538	keystroke_o	o	n/a
598.994	0.09	1197988	keystroke_l	l	n/a
599.219	0.06	1198438	keystroke_Key.space	Key.space	n/a
599.504	0.075	1199008	keystroke_c	c	n/a
599.609	0.09	1199218	keystroke_o	o	n/a
599.8045	0.119	1199609	keystroke_r	r	n/a
600.0135	0.075	1200027	keystroke_e	e	n/a
600.1635	0.075	1200327	keystroke_Key.space	Key.space	n/a
600.569	0.12	1201138	keystroke_r	r	n/a
600.644	0.09	1201288	keystroke_e	e	n/a
600.839	0.09	1201678	keystroke_l	l	n/a
601.064	0.06	1202128	keystroke_i	i	n/a
601.214	0.09	1202428	keystroke_a	a	n/a
601.439	0.09	1202878	keystroke_b	b	n/a
601.679	0.09	1203358	keystroke_l	l	n/a
601.784	0.09	1203568	keystroke_e	e	n/a
601.889	0.075	1203778	keystroke_Key.space	Key.space	n/a
602.759	0.075	1205518	keystroke_c	c	n/a
602.8945	0.135	1205789	keystroke_o	o	n/a
602.9995	0.075	1205999	keystroke_n	n	n/a
603.2545	0.045	1206509	keystroke_s	s	n/a
603.3295	0.075	1206659	keystroke_o	o	n/a
603.5095	0.105	1207019	keystroke_l	l	n/a
603.6295	0.075	1207259	keystroke_e	e	n/a
604.2595	0.135	1208519	keystroke_Key.enter	Key.enter	n/a
604.3985	7.437	1208797	prompt	n/a	syndrome ipod stolen arthur\n
605.2185	0.076	1210437	keystroke_s	s	n/a
605.549	0.06	1211098	keystroke_y	y	n/a
605.714	0.075	1211428	keystroke_n	n	n/a
606.044	0.045	1212088	keystroke_d	d	n/a
606.224	0.045	1212448	keystroke_r	r	n/a
606.329	0.1195	1212658	keystroke_o	o	n/a
606.3895	0.089	1212779	keystroke_m	m	n/a
606.5845	0.059	1213169	keystroke_e	e	n/a
606.6885	0.09	1213377	keystroke_Key.space	Key.space	n/a
607.454	0.06	1214908	keystroke_i	i	n/a
607.619	0.105	1215238	keystroke_p	p	n/a
607.874	0.06	1215748	keystroke_o	o	n/a
608.144	0.075	1216288	keystroke_d	d	n/a
608.279	0.075	1216558	keystroke_Key.space	Key.space	n/a
608.714	0.06	1217428	keystroke_s	s	n/a
608.894	0.06	1217788	keystroke_t	t	n/a
609.059	0.075	1218118	keystroke_o	o	n/a
609.299	0.09	1218598	keystroke_l	l	n/a
609.419	0.06	1218838	keystroke_e	e	n/a
609.7195	0.044	1219439	keystroke_n	n	n/a
610.094	0.075	1220188	keystroke_Key.space	Key.space	n/a
610.499	0.075	1220998	keystroke_a	a	n/a
610.769	0.075	1221538	keystroke_r	r	n/a
610.994	0.075	1221988	keystroke_t	t	n/a
611.084	0.06	1222168	keystroke_h	h	n/a
611.324	0.075	1222648	keystroke_u	u	n/a
611.4585	0.09	1222917	keystroke_r	r	n/a
611.7585	0.075	1223517	keystroke_Key.enter	Key.enter	n/a
611.839	5.9215	1223678	prompt	n/a	gather andrea looks older\n
612.6885	0.03	1225377	keystroke_g	g	n/a
612.7935	0.075	1225587	keystroke_a	a	n/a
613.0035	0.075	1226007	keystroke_t	t	n/a
613.1685	0.06	1226337	keystroke_h	h	n/a
613.2585	0.105	1226517	keystroke_e	e	n/a
613.3335	0.09	1226667	keystroke_r	r	n/a
613.5135	0.075	1227027	keystroke_Key.space	Key.space	n/a
614.0385	0.06	1228077	keystroke_a	a	n/a
614.4135	0.045	1228827	keystroke_n	n	n/a
614.6085	0.075	1229217	keystroke_d	d	n/a
614.8335	0.12	1229667	keystroke_r	r	n/a
614.9235	0.105	1229847	keystroke_e	e	n/a
615.1485	0.075	1230297	keystroke_a	a	n/a
615.3435	0.06	1230687	keystroke_Key.space	Key.space	n/a
615.6735	0.09	1231347	keystroke_l	l	n/a
615.9135	0.0605	1231827	keystroke_o	o	n/a
616.064	0.135	1232128	keystroke_o	o	n/a
616.169	0.09	1232338	keystroke_k	k	n/a
616.3785	0.06	1232757	keystroke_s	s	n/a
616.4835	0.09	1232967	keystroke_Key.space	Key.space	n/a
616.8885	0.075	1233777	keystroke_o	o	n/a
617.0985	0.075	1234197	keystroke_l	l	n/a
