onset	duration	sample	value	key	prompt_text
1.4915	18.6805	2983	prompt	n/a	the quick brown fox jumps over a lazy dog\n
5.5445	0.1185	11089	keystroke_t	t	n/a
5.6945	0.104	11389	keystroke_h	h	n/a
5.8395	0.321	11679	keystroke_e	e	n/a
6.022	0.1465	12044	keystroke_Key.space	Key.space	n/a
6.8085	0.112	13617	keystroke_q	q	n/a
7.0085	0.0645	14017	keystroke_u	u	n/a
7.369	0.063	14738	keystroke_i	i	n/a
7.6725	0.112	15345	keystroke_c	c	n/a
7.841	0.0955	15682	keystroke_k	k	n/a
8.0325	0.128	16065	keystroke_Key.space	Key.space	n/a
8.7125	0.0805	17425	keystroke_b	b	n/a
8.8565	0.12	17713	keystroke_r	r	n/a
8.9925	0.064	17985	keystroke_o	o	n/a
9.6725	0.136	19345	keystroke_w	w	n/a
9.8165	0.0805	19633	keystroke_n	n	n/a
9.9525	0.144	19905	keystroke_Key.space	Key.space	n/a
10.185	0.1355	20370	keystroke_f	f	n/a
10.2725	0.088	20545	keystroke_o	o	n/a
10.4645	0.128	20929	keystroke_x	x	n/a
10.736	0.0885	21472	keystroke_Key.space	Key.space	n/a
10.8805	0.1205	21761	keystroke_j	j	n/a
11.105	0.0875	22210	keystroke_u	u	n/a
11.3205	0.072	22641	keystroke_m	m	n/a
12.0805	0.0645	24161	keystroke_p	p	n/a
12.1765	0.168	24353	keystroke_s	s	n/a
12.7925	0.144	25585	keystroke_Key.space	Key.space	n/a
13.3685	0.0635	26737	keystroke_i	i	n/a
13.545	0.088	27090	keystroke_v	v	n/a
13.769	0.1035	27538	keystroke_e	e	n/a
14.025	0.0715	28050	keystroke_Key.backspace	Key.backspace	n/a
14.176	0.0645	28352	keystroke_Key.backspace	Key.backspace	n/a
14.32	0.0885	28640	keystroke_Key.backspace	Key.backspace	n/a
14.904	0.0405	29808	keystroke_o	o	n/a
14.9765	0.0875	29953	keystroke_v	v	n/a
15.2085	0.168	30417	keystroke_e	e	n/a
15.289	0.1435	30578	keystroke_r	r	n/a
15.393	0.1355	30786	keystroke_Key.space	Key.space	n/a
15.5605	0.1605	31121	keystroke_a	a	n/a
15.777	0.096	31554	keystroke_l	l	n/a
16.2645	0.064	32529	keystroke_Key.backspace	Key.backspace	n/a
16.3765	0.144	32753	keystroke_Key.space	Key.space	n/a
16.713	0.1355	33426	keystroke_k	k	n/a
16.8885	0.1285	33777	keystroke_a	a	n/a
17.3365	0.08	34673	keystroke_Key.backspace	Key.backspace	n/a
17.5045	0.072	35009	keystroke_Key.backspace	Key.backspace	n/a
18.561	0.096	37122	keystroke_l	l	n/a
18.64	0.129	37280	keystroke_a	a	n/a
18.905	0.103	37810	keystroke_z	z	n/a
18.985	0.072	37970	keystroke_y	y	n/a
19.192	0.096	38384	keystroke_Key.space	Key.space	n/a
19.3445	0.088	38689	keystroke_d	d	n/a
19.4005	0.08	38801	keystroke_o	o	n/a
19.5605	0.096	39121	keystroke_g	g	n/a
20.048	0.12	40096	keystroke_Key.enter	Key.enter	n/a
20.1775	12.9125	40355	prompt	n/a	conscious subsection pray qualification\n
20.833	0.096	41666	keystroke_c	c	n/a
20.881	0.088	41762	keystroke_o	o	n/a
21.073	0.072	42146	keystroke_n	n	n/a
21.2245	0.1445	42449	keystroke_s	s	n/a
21.48	0.0885	42960	keystroke_c	c	n/a
21.584	0.072	43168	keystroke_i	i	n/a
21.8565	0.216	43713	keystroke_o	o	n/a
22.0405	0.104	44081	keystroke_u	u	n/a
22.1765	0.168	44353	keystroke_s	s	n/a
22.352	0.104	44704	keystroke_Key.space	Key.space	n/a
22.6405	0.0955	45281	keystroke_u	u	n/a
22.864	0.088	45728	keystroke_b	b	n/a
23.9525	0.056	47905	keystroke_Key.backspace	Key.backspace	n/a
24.0885	0.088	48177	keystroke_Key.backspace	Key.backspace	n/a
24.5205	0.136	49041	keystroke_s	s	n/a
24.6085	0.08	49217	keystroke_u	u	n/a
24.825	0.064	49650	keystroke_b	b	n/a
25.129	0.1035	50258	keystroke_s	s	n/a
25.3205	0.1125	50641	keystroke_e	e	n/a
25.6085	0.096	51217	keystroke_c	c	n/a
25.865	0.0795	51730	keystroke_t	t	n/a
25.9525	0.2085	51905	keystroke_i	i	n/a
26.096	0.121	52192	keystroke_o	o	n/a
26.2805	0.08	52561	keystroke_n	n	n/a
26.3925	0.12	52785	keystroke_Key.space	Key.space	n/a
26.601	0.0885	53202	keystroke_p	p	n/a
26.7205	0.112	53441	keystroke_r	r	n/a
27.0565	0.12	54113	keystroke_a	a	n/a
27.3845	0.072	54769	keystroke_y	y	n/a
27.5845	0.128	55169	keystroke_Key.space	Key.space	n/a
28.8885	0.08	57777	keystroke_u	u	n/a
29.8645	0.08	59729	keystroke_Key.backspace	Key.backspace	n/a
30.049	0.12	60098	keystroke_q	q	n/a
30.824	0.088	61648	keystroke_u	u	n/a
30.984	0.1285	61968	keystroke_a	a	n/a
31.2	0.2	62400	keystroke_l	l	n/a
31.352	0.096	62704	keystroke_i	i	n/a
31.5365	0.112	63073	keystroke_f	f	n/a
31.7285	0.096	63457	keystroke_i	i	n/a
31.9125	0.104	63825	keystroke_c	c	n/a
32.0165	0.1445	64033	keystroke_a	a	n/a
32.249	0.1195	64498	keystroke_t	t	n/a
32.3925	0.2085	64785	keystroke_i	i	n/a
32.5365	0.1045	65073	keystroke_o	o	n/a
32.7205	0.088	65441	keystroke_n	n	n/a
33.0085	0.0795	66017	keystroke_Key.enter	Key.enter	n/a
33.0935	10.206	66187	prompt	n/a	june church liquid eddie\n
34.1365	0.136	68273	keystroke_j	j	n/a
34.344	0.08	68688	keystroke_u	u	n/a
34.521	0.0795	69042	keystroke_n	n	n/a
34.744	0.169	69488	keystroke_e	e	n/a
34.952	0.072	69904	keystroke_Key.space	Key.space	n/a
35.184	0.081	70368	keystroke_c	c	n/a
35.273	0.1675	70546	keystroke_h	h	n/a
35.417	0.1275	70834	keystroke_u	u	n/a
36.7045	0.08	73409	keystroke_r	r	n/a
37.0565	0.1685	74113	keystroke_c	c	n/a
37.1765	0.072	74353	keystroke_h	h	n/a
37.3205	0.128	74641	keystroke_Key.space	Key.space	n/a
37.6885	0.2155	75377	keystroke_l	l	n/a
37.816	0.1285	75632	keystroke_i	i	n/a
38.0405	0.1195	76081	keystroke_q	q	n/a
38.256	0.08	76512	keystroke_u	u	n/a
38.504	0.0725	77008	keystroke_i	i	n/a
38.7765	0.1355	77553	keystroke_d	d	n/a
39.12	0.1365	78240	keystroke_Key.space	Key.space	n/a
39.5285	0.112	79057	keystroke_e	e	n/a
39.76	0.064	79520	keystroke_d	d	n/a
39.904	0.088	79808	keystroke_d	d	n/a
40	0.0565	80000	keystroke_i	i	n/a
40.1525	0.128	80305	keystroke_e	e	n/a
43.1605	0.136	86321	keystroke_Key.enter	Key.enter	n/a
43.303	9.2195	86606	prompt	n/a	ranges boolean what loves\n
44.881	0.0955	89762	keystroke_r	r	n/a
45.088	0.1365	90176	keystroke_a	a	n/a
45.1525	0.1195	90305	keystroke_n	n	n/a
45.441	0.103	90882	keystroke_g	g	n/a
45.704	0.184	91408	keystroke_e	e	n/a
45.832	0.1765	91664	keystroke_s	s	n/a
46.1365	0.16	92273	keystroke_Key.space	Key.space	n/a
46.3685	0.12	92737	keystroke_b	b	n/a
46.664	0.0645	93328	keystroke_o	o	n/a
46.8165	0.072	93633	keystroke_o	o	n/a
47.048	0.096	94096	keystroke_k	k	n/a
47.592	0.096	95184	keystroke_Key.backspace	Key.backspace	n/a
48.153	0.096	96306	keystroke_l	l	n/a
48.313	0.168	96626	keystroke_e	e	n/a
48.465	0.152	96930	keystroke_a	a	n/a
48.593	0.095	97186	keystroke_n	n	n/a
48.808	0.128	97616	keystroke_Key.space	Key.space	n/a
49.7605	0.1195	99521	keystroke_w	w	n/a
49.904	0.0965	99808	keystroke_h	h	n/a
50.016	0.1925	100032	keystroke_a	a	n/a
50.193	0.1275	100386	keystroke_t	t	n/a
50.3605	0.112	100721	keystroke_Key.space	Key.space	n/a
51.137	0.087	102274	keystroke_l	l	n/a
51.36	0.0805	102720	keystroke_o	o	n/a
51.4565	0.1355	102913	keystroke_v	v	n/a
51.713	0.192	103426	keystroke_e	e	n/a
51.856	0.161	103712	keystroke_s	s	n/a
52.4165	0.104	104833	keystroke_Key.enter	Key.enter	n/a
52.527	9.8275	105054	prompt	n/a	secrets oklahoma finder linked\n
53.1045	0.096	106209	keystroke_s	s	n/a
53.2245	0.1045	106449	keystroke_e	e	n/a
53.465	0.104	106930	keystroke_c	c	n/a
53.6885	0.112	107377	keystroke_r	r	n/a
53.768	0.1205	107536	keystroke_e	e	n/a
54.104	0.0965	108208	keystroke_t	t	n/a
54.7525	0.152	109505	keystroke_s	s	n/a
54.9605	0.168	109921	keystroke_Key.space	Key.space	n/a
55.2645	0.064	110529	keystroke_o	o	n/a
55.8485	0.072	111697	keystroke_k	k	n/a
56.129	0.0715	112258	keystroke_l	l	n/a
56.328	0.129	112656	keystroke_a	a	n/a
56.9125	0.088	113825	keystroke_h	h	n/a
57.3045	0.08	114609	keystroke_o	o	n/a
57.52	0.08	115040	keystroke_m	m	n/a
57.664	0.144	115328	keystroke_a	a	n/a
57.824	0.1205	115648	keystroke_Key.space	Key.space	n/a
58.0805	0.12	116161	keystroke_f	f	n/a
59.296	0.0805	118592	keystroke_i	i	n/a
59.4805	0.0805	118961	keystroke_n	n	n/a
59.553	0.095	119106	keystroke_d	d	n/a
59.744	0.176	119488	keystroke_e	e	n/a
59.848	0.1365	119696	keystroke_r	r	n/a
59.9765	0.064	119953	keystroke_Key.space	Key.space	n/a
60.321	0.1835	120642	keystroke_l	l	n/a
60.432	0.121	120864	keystroke_i	i	n/a
60.6485	0.168	121297	keystroke_n	n	n/a
60.7525	0.176	121505	keystroke_k	k	n/a
60.9365	0.096	121873	keystroke_e	e	n/a
61.1445	0.112	122289	keystroke_d	d	n/a
62.224	0.128	124448	keystroke_Key.enter	Key.enter	n/a
62.3585	14.628	124717	prompt	n/a	produced progress finland receptor\n
63.024	0.104	126048	keystroke_o	o	n/a
63.152	0.096	126304	keystroke_r	r	n/a
63.265	0.087	126530	keystroke_i	i	n/a
64.312	0.064	128624	keystroke_Key.backspace	Key.backspace	n/a
64.456	0.0645	128912	keystroke_Key.backspace	Key.backspace	n/a
64.6405	0.072	129281	keystroke_Key.backspace	Key.backspace	n/a
65.2885	0.056	130577	keystroke_p	p	n/a
65.4085	0.112	130817	keystroke_r	r	n/a
65.5365	0.064	131073	keystroke_o	o	n/a
65.728	0.1125	131456	keystroke_d	d	n/a
65.848	0.081	131696	keystroke_u	u	n/a
65.992	0.169	131984	keystroke_c	c	n/a
66.145	0.135	132290	keystroke_e	e	n/a
66.3845	0.1515	132769	keystroke_d	d	n/a
66.568	0.1125	133136	keystroke_Key.space	Key.space	n/a
66.752	0.104	133504	keystroke_o	o	n/a
66.872	0.128	133744	keystroke_r	r	n/a
66.9835	0.0805	133967	keystroke_i	i	n/a
67.136	0.088	134272	keystroke_g	g	n/a
67.2725	0.152	134545	keystroke_r	r	n/a
67.473	0.1275	134946	keystroke_e	e	n/a
67.8245	0.072	135649	keystroke_Key.backspace	Key.backspace	n/a
68.008	0.0405	136016	keystroke_Key.backspace	Key.backspace	n/a
68.1605	0.048	136321	keystroke_Key.backspace	Key.backspace	n/a
68.3125	0.0715	136625	keystroke_Key.backspace	Key.backspace	n/a
68.536	0.088	137072	keystroke_Key.backspace	Key.backspace	n/a
68.984	0.08	137968	keystroke_Key.backspace	Key.backspace	n/a
69.401	0.08	138802	keystroke_p	p	n/a
69.553	0.103	139106	keystroke_r	r	n/a
69.649	0.0635	139298	keystroke_o	o	n/a
69.8325	0.128	139665	keystroke_g	g	n/a
70.0965	0.24	140193	keystroke_r	r	n/a
70.265	0.143	140530	keystroke_e	e	n/a
70.5365	0.095	141073	keystroke_s	s	n/a
70.656	0.153	141312	keystroke_s	s	n/a
71.5515	0.113	143103	keystroke_Key.space	Key.space	n/a
71.753	0.1195	143506	keystroke_f	f	n/a
71.8485	0.08	143697	keystroke_i	i	n/a
72.048	0.08	144096	keystroke_n	n	n/a
72.3045	0.0955	144609	keystroke_l	l	n/a
72.432	0.1285	144864	keystroke_a	a	n/a
72.5445	0.072	145089	keystroke_n	n	n/a
72.633	0.127	145266	keystroke_d	d	n/a
72.761	0.119	145522	keystroke_Key.space	Key.space	n/a
72.872	0.152	145744	keystroke_r	r	n/a
72.96	0.129	145920	keystroke_e	e	n/a
73.224	0.176	146448	keystroke_c	c	n/a
73.976	0.112	147952	keystroke_e	e	n/a
75.936	0.072	151872	keystroke_p	p	n/a
76.0805	0.096	152161	keystroke_t	t	n/a
76.2725	0.088	152545	keystroke_o	o	n/a
76.656	0.096	153312	keystroke_r	r	n/a
76.904	0.08	153808	keystroke_Key.enter	Key.enter	n/a
76.993	11.5775	153986	prompt	n/a	fossil maker perry important\n
77.7445	0.0875	155489	keystroke_f	f	n/a
77.8405	0.064	155681	keystroke_o	o	n/a
78.0725	0.088	156145	keystroke_s	s	n/a
78.2165	0.128	156433	keystroke_s	s	n/a
78.3605	0.191	156721	keystroke_i	i	n/a
78.5205	0.096	157041	keystroke_l	l	n/a
78.6405	0.136	157281	keystroke_Key.space	Key.space	n/a
78.8005	0.08	157601	keystroke_m	m	n/a
78.9115	0.113	157823	keystroke_a	a	n/a
78.9925	0.064	157985	keystroke_k	k	n/a
79.1045	0.152	158209	keystroke_e	e	n/a
79.2165	0.1195	158433	keystroke_r	r	n/a
79.344	0.112	158688	keystroke_Key.space	Key.space	n/a
79.544	0.088	159088	keystroke_o	o	n/a
79.6725	0.104	159345	keystroke_r	r	n/a
79.9925	0.1035	159985	keystroke_e	e	n/a
80.488	0.0725	160976	keystroke_Key.backspace	Key.backspace	n/a
80.6645	0.047	161329	keystroke_Key.backspace	Key.backspace	n/a
81.1515	0.0645	162303	keystroke_Key.backspace	Key.backspace	n/a
81.3445	0.064	162689	keystroke_p	p	n/a
81.5125	0.184	163025	keystroke_e	e	n/a
81.7925	0.072	163585	keystroke_r	r	n/a
81.952	0.0875	163904	keystroke_r	r	n/a
82.0245	0.0715	164049	keystroke_y	y	n/a
82.168	0.152	164336	keystroke_Key.space	Key.space	n/a
82.464	0.096	164928	keystroke_i	i	n/a
83.9205	0.088	167841	keystroke_m	m	n/a
84.4325	0.088	168865	keystroke_p	p	n/a
84.6245	0.079	169249	keystroke_o	o	n/a
84.816	0.1845	169632	keystroke_r	r	n/a
84.9605	0.12	169921	keystroke_t	t	n/a
85.3045	0.183	170609	keystroke_a	a	n/a
85.4555	0.112	170911	keystroke_n	n	n/a
85.9605	0.087	171921	keystroke_t	t	n/a
88.48	0.088	176960	keystroke_Key.enter	Key.enter	n/a
88.577	15.362	177154	prompt	n/a	vaccine choir steve inherited\n
89.2005	0.111	178401	keystroke_v	v	n/a
89.416	0.0635	178832	keystroke_a	a	n/a
89.904	0.08	179808	keystroke_c	c	n/a
90.0645	0.0635	180129	keystroke_c	c	n/a
90.704	0.08	181408	keystroke_i	i	n/a
90.96	0.1125	181920	keystroke_e	e	n/a
91.9995	0.0965	183999	keystroke_Key.backspace	Key.backspace	n/a
92.344	0.08	184688	keystroke_n	n	n/a
92.4805	0.176	184961	keystroke_e	e	n/a
92.624	0.136	185248	keystroke_Key.space	Key.space	n/a
93.3195	0.096	186639	keystroke_c	c	n/a
93.4235	0.096	186847	keystroke_h	h	n/a
94.3365	0.1035	188673	keystroke_o	o	n/a
94.5675	0.064	189135	keystroke_i	i	n/a
94.6875	0.128	189375	keystroke_r	r	n/a
94.8875	0.088	189775	keystroke_Key.space	Key.space	n/a
95.12	0.0635	190240	keystroke_s	s	n/a
95.296	0.1115	190592	keystroke_t	t	n/a
95.4955	0.1125	190991	keystroke_e	e	n/a
95.8	0.072	191600	keystroke_v	v	n/a
95.9995	0.16	191999	keystroke_e	e	n/a
96.2155	0.112	192431	keystroke_Key.space	Key.space	n/a
97.2805	0.0955	194561	keystroke_i	i	n/a
97.4795	0.088	194959	keystroke_n	n	n/a
97.7275	0.1125	195455	keystroke_t	t	n/a
98.096	0.0885	196192	keystroke_=	=	n/a
98.368	0.064	196736	keystroke_h	h	n/a
98.7595	0.072	197519	keystroke_Key.backspace	Key.backspace	n/a
98.9035	0.08	197807	keystroke_Key.backspace	Key.backspace	n/a
99.08	0.088	198160	keystroke_Key.backspace	Key.backspace	n/a
99.312	0.0795	198624	keystroke_Key.backspace	Key.backspace	n/a
100.1515	0.0805	200303	keystroke_Key.backspace	Key.backspace	n/a
100.648	0.08	201296	keystroke_i	i	n/a
100.808	0.0715	201616	keystroke_n	n	n/a
101.024	0.0635	202048	keystroke_h	h	n/a
101.256	0.1995	202512	keystroke_e	e	n/a
101.376	0.176	202752	keystroke_r	r	n/a
101.896	0.096	203792	keystroke_i	i	n/a
102.304	0.0955	204608	keystroke_t	t	n/a
102.4795	0.1125	204959	keystroke_e	e	n/a
102.672	0.144	205344	keystroke_d	d	n/a
102.888	0.064	205776	keystroke_'	'	n/a
103.5355	0.096	207071	keystroke_Key.backspace	Key.backspace	n/a
103.8635	0.072	207727	keystroke_Key.enter	Key.enter	n/a
103.943	7.7625	207886	prompt	n/a	participate game cuts closing\n
104.5515	0.104	209103	keystroke_p	p	n/a
104.8	0.168	209600	keystroke_a	a	n/a
104.975	0.2085	209950	keystroke_r	r	n/a
105.192	0.103	210384	keystroke_t	t	n/a
105.328	0.0715	210656	keystroke_i	i	n/a
105.5115	0.1045	211023	keystroke_c	c	n/a
105.624	0.072	211248	keystroke_i	i	n/a
105.936	0.0875	211872	keystroke_p	p	n/a
106.048	0.1835	212096	keystroke_a	a	n/a
106.2	0.16	212400	keystroke_t	t	n/a
106.431	0.137	212862	keystroke_e	e	n/a
106.736	0.136	213472	keystroke_Key.space	Key.space	n/a
107.176	0.1115	214352	keystroke_g	g	n/a
107.312	0.16	214624	keystroke_a	a	n/a
107.416	0.096	214832	keystroke_m	m	n/a
107.496	0.1595	214992	keystroke_e	e	n/a
107.632	0.0875	215264	keystroke_Key.space	Key.space	n/a
107.832	0.0635	215664	keystroke_c	c	n/a
107.9275	0.0805	215855	keystroke_u	u	n/a
108.064	0.104	216128	keystroke_t	t	n/a
108.296	0.1435	216592	keystroke_s	s	n/a
108.432	0.08	216864	keystroke_Key.space	Key.space	n/a
108.5995	0.0885	217199	keystroke_c	c	n/a
108.7675	0.096	217535	keystroke_k	k	n/a
109.343	0.0805	218686	keystroke_Key.backspace	Key.backspace	n/a
109.5755	0.064	219151	keystroke_l	l	n/a
110.2235	0.0725	220447	keystroke_o	o	n/a
110.7595	0.096	221519	keystroke_s	s	n/a
110.8395	0.072	221679	keystroke_i	i	n/a
110.984	0.08	221968	keystroke_n	n	n/a
111.0875	0.128	222175	keystroke_g	g	n/a
111.6155	0.088	223231	keystroke_Key.enter	Key.enter	n/a
111.7095	9.276	223419	prompt	n/a	essays latino scroll get\n
112.744	0.103	225488	keystroke_e	e	n/a
113.151	0.121	226302	keystroke_s	s	n/a
113.376	0.111	226752	keystroke_s	s	n/a
113.5915	0.112	227183	keystroke_a	a	n/a
113.736	0.0955	227472	keystroke_y	y	n/a
114.048	0.112	228096	keystroke_s	s	n/a
114.3435	0.104	228687	keystroke_Key.space	Key.space	n/a
114.7035	0.1205	229407	keystroke_l	l	n/a
115.136	0.1195	230272	keystroke_a	a	n/a
115.3355	0.096	230671	keystroke_t	t	n/a
115.4395	0.184	230879	keystroke_i	i	n/a
115.5995	0.176	231199	keystroke_o	o	n/a
116.2395	0.08	232479	keystroke_Key.backspace	Key.backspace	n/a
116.5035	0.24	233007	keystroke_n	n	n/a
116.7355	0.12	233471	keystroke_o	o	n/a
116.8555	0.112	233711	keystroke_Key.space	Key.space	n/a
117.0235	0.096	234047	keystroke_s	s	n/a
117.7595	0.12	235519	keystroke_c	c	n/a
118.1915	0.064	236383	keystroke_r	r	n/a
118.7835	0.1125	237567	keystroke_o	o	n/a
119.0475	0.0805	238095	keystroke_l	l	n/a
119.2395	0.08	238479	keystroke_l	l	n/a
119.8955	0.112	239791	keystroke_Key.space	Key.space	n/a
120.215	0.0645	240430	keystroke_g	g	n/a
120.375	0.152	240750	keystroke_e	e	n/a
120.5195	0.1195	241039	keystroke_t	t	n/a
120.847	0.136	241694	keystroke_Key.enter	Key.enter	n/a
120.989	7.3085	241978	prompt	n/a	armed lens geological index\n
121.552	0.1035	243104	keystroke_a	a	n/a
121.8395	0.112	243679	keystroke_r	r	n/a
122.1595	0.128	244319	keystroke_m	m	n/a
122.6075	0.1045	245215	keystroke_e	e	n/a
122.8075	0.152	245615	keystroke_d	d	n/a
122.9675	0.096	245935	keystroke_Key.space	Key.space	n/a
123.0795	0.088	246159	keystroke_l	l	n/a
123.1595	0.088	246319	keystroke_e	e	n/a
123.5515	0.104	247103	keystroke_n	n	n/a
123.871	0.16	247742	keystroke_s	s	n/a
124.055	0.12	248110	keystroke_Key.space	Key.space	n/a
124.664	0.071	249328	keystroke_g	g	n/a
124.935	0.12	249870	keystroke_e	e	n/a
125.1435	0.1035	250287	keystroke_o	o	n/a
125.479	0.128	250958	keystroke_l	l	n/a
125.839	0.0725	251678	keystroke_o	o	n/a
126.007	0.0725	252014	keystroke_g	g	n/a
126.2155	0.0715	252431	keystroke_i	i	n/a
126.311	0.136	252622	keystroke_c	c	n/a
126.439	0.1605	252878	keystroke_a	a	n/a
126.5675	0.096	253135	keystroke_l	l	n/a
126.711	0.1445	253422	keystroke_Key.space	Key.space	n/a
127.3115	0.08	254623	keystroke_i	i	n/a
127.4875	0.088	254975	keystroke_n	n	n/a
127.5675	0.096	255135	keystroke_d	d	n/a
127.7355	0.097	255471	keystroke_e	e	n/a
127.9515	0.1275	255903	keystroke_x	x	n/a
128.151	0.144	256302	keystroke_Key.enter	Key.enter	n/a
128.301	19.6435	256602	prompt	n/a	mixture managers committees subscriptions\n
129.08	0.1035	258160	keystroke_m	m	n/a
129.4395	0.08	258879	keystroke_i	i	n/a
129.5985	0.1215	259197	keystroke_x	x	n/a
129.9035	0.112	259807	keystroke_t	t	n/a
130.1195	0.1045	260239	keystroke_u	u	n/a
130.247	0.1525	260494	keystroke_r	r	n/a
130.391	0.1605	260782	keystroke_e	e	n/a
130.655	0.1205	261310	keystroke_Key.space	Key.space	n/a
131.3595	0.096	262719	keystroke_m	m	n/a
131.4395	0.16	262879	keystroke_a	a	n/a
131.5835	0.1125	263167	keystroke_g	g	n/a
132.4475	0.0555	264895	keystroke_Key.backspace	Key.backspace	n/a
132.7435	0.096	265487	keystroke_n	n	n/a
132.9115	0.136	265823	keystroke_a	a	n/a
133.711	0.112	267422	keystroke_g	g	n/a
133.9435	0.151	267887	keystroke_e	e	n/a
134.0315	0.135	268063	keystroke_r	r	n/a
134.3195	0.239	268639	keystroke_s	s	n/a
134.8065	0.089	269613	keystroke_Key.space	Key.space	n/a
135.031	0.1125	270062	keystroke_c	c	n/a
135.1355	0.0715	270271	keystroke_o	o	n/a
135.3195	0.0715	270639	keystroke_m	m	n/a
135.487	0.0965	270974	keystroke_m	m	n/a
135.943	0.096	271886	keystroke_i	i	n/a
136.1035	0.088	272207	keystroke_t	t	n/a
136.2555	0.112	272511	keystroke_t	t	n/a
136.4235	0.128	272847	keystroke_e	e	n/a
137.2545	0.1285	274509	keystroke_e	e	n/a
137.495	0.1525	274990	keystroke_s	s	n/a
137.687	0.0875	275374	keystroke_Key.space	Key.space	n/a
137.9825	0.0725	275965	keystroke_u	u	n/a
138.431	0.0955	276862	keystroke_Key.backspace	Key.backspace	n/a
138.6315	0.12	277263	keystroke_s	s	n/a
138.8225	0.073	277645	keystroke_u	u	n/a
140.351	0.072	280702	keystroke_b	b	n/a
141.1915	0.12	282383	keystroke_s	s	n/a
141.5435	0.096	283087	keystroke_c	c	n/a
142.167	0.08	284334	keystroke_i	i	n/a
142.647	0.128	285294	keystroke_r	r	n/a
143.687	0.08	287374	keystroke_Key.backspace	Key.backspace	n/a
145.0945	0.0805	290189	keystroke_Key.backspace	Key.backspace	n/a
145.5025	0.112	291005	keystroke_r	r	n/a
145.6955	0.072	291391	keystroke_i	i	n/a
145.903	0.064	291806	keystroke_p	p	n/a
146.039	0.096	292078	keystroke_t	t	n/a
146.215	0.224	292430	keystroke_i	i	n/a
146.287	0.104	292574	keystroke_o	o	n/a
147.3595	0.072	294719	keystroke_n	n	n/a
147.479	0.144	294958	keystroke_s	s	n/a
147.823	0.12	295646	keystroke_Key.enter	Key.enter	n/a
147.9485	14.4285	295897	prompt	n/a	palace figure motorola emotional\n
149.031	0.072	298062	keystroke_p	p	n/a
149.759	0.08	299518	keystroke_a	a	n/a
149.9665	0.065	299933	keystroke_l	l	n/a
150.119	0.104	300238	keystroke_a	a	n/a
150.5195	0.1435	301039	keystroke_c	c	n/a
150.719	0.168	301438	keystroke_e	e	n/a
150.863	0.144	301726	keystroke_Key.space	Key.space	n/a
150.991	0.104	301982	keystroke_g	g	n/a
151.5825	0.08	303165	keystroke_Key.backspace	Key.backspace	n/a
151.743	0.0955	303486	keystroke_f	f	n/a
151.8545	0.0645	303709	keystroke_i	i	n/a
152.247	0.04	304494	keystroke_u	u	n/a
152.599	0.056	305198	keystroke_Key.backspace	Key.backspace	n/a
152.671	0.0725	305342	keystroke_g	g	n/a
152.855	0.056	305710	keystroke_u	u	n/a
152.951	0.24	305902	keystroke_r	r	n/a
153.071	0.2	306142	keystroke_e	e	n/a
153.223	0.152	306446	keystroke_Key.space	Key.space	n/a
153.5345	0.1845	307069	keystroke_m	m	n/a
153.679	0.152	307358	keystroke_o	o	n/a
154.0305	0.088	308061	keystroke_t	t	n/a
154.4305	0.073	308861	keystroke_o	o	n/a
154.6155	0.128	309231	keystroke_r	r	n/a
155.614	0.081	311228	keystroke_o	o	n/a
156.4075	0.0875	312815	keystroke_l	l	n/a
156.5105	0.1605	313021	keystroke_a	a	n/a
156.983	0.104	313966	keystroke_Key.space	Key.space	n/a
157.183	0.12	314366	keystroke_e	e	n/a
157.2955	0.0795	314591	keystroke_m	m	n/a
160.255	0.1445	320510	keystroke_o	o	n/a
160.478	0.121	320956	keystroke_t	t	n/a
160.599	0.1675	321198	keystroke_i	i	n/a
160.719	0.128	321438	keystroke_o	o	n/a
160.8865	0.08	321773	keystroke_n	n	n/a
160.983	0.144	321966	keystroke_a	a	n/a
161.143	0.128	322286	keystroke_l	l	n/a
162.295	0.08	324590	keystroke_Key.enter	Key.enter	n/a
162.381	14.5555	324762	prompt	n/a	citation consistently bibliographic worried\n
163.079	0.1115	326158	keystroke_c	c	n/a
163.1915	0.0795	326383	keystroke_i	i	n/a
163.447	0.1035	326894	keystroke_t	t	n/a
163.703	0.2	327406	keystroke_a	a	n/a
163.871	0.079	327742	keystroke_t	t	n/a
163.959	0.1675	327918	keystroke_i	i	n/a
164.0625	0.12	328125	keystroke_o	o	n/a
164.2305	0.096	328461	keystroke_n	n	n/a
164.3345	0.104	328669	keystroke_Key.space	Key.space	n/a
164.8865	0.096	329773	keystroke_c	c	n/a
165.0145	0.0725	330029	keystroke_o	o	n/a
165.2065	0.08	330413	keystroke_n	n	n/a
165.4225	0.152	330845	keystroke_s	s	n/a
165.511	0.0395	331022	keystroke_i	i	n/a
166.2545	0.056	332509	keystroke_s	s	n/a
166.4945	0.1205	332989	keystroke_t	t	n/a
166.975	0.095	333950	keystroke_e	e	n/a
167.1185	0.0645	334237	keystroke_n	n	n/a
167.823	0.1115	335646	keystroke_t	t	n/a
168.0465	0.088	336093	keystroke_l	l	n/a
168.1505	0.1205	336301	keystroke_y	y	n/a
168.5185	0.1125	337037	keystroke_Key.space	Key.space	n/a
168.7515	0.0785	337503	keystroke_b	b	n/a
168.975	0.063	337950	keystroke_i	i	n/a
169.495	0.088	338990	keystroke_b	b	n/a
170.279	0.264	340558	keystroke_l	l	n/a
170.4545	0.12	340909	keystroke_i	i	n/a
171.2705	0.0875	342541	keystroke_o	o	n/a
171.486	0.049	342972	keystroke_g	g	n/a
171.863	0.144	343726	keystroke_r	r	n/a
172.551	0.167	345102	keystroke_a	a	n/a
173.1505	0.0955	346301	keystroke_h	h	n/a
173.6305	0.104	347261	keystroke_Key.backspace	Key.backspace	n/a
173.919	0.071	347838	keystroke_p	p	n/a
174.1585	0.136	348317	keystroke_h	h	n/a
174.4065	0.096	348813	keystroke_i	i	n/a
174.5745	0.16	349149	keystroke_c	c	n/a
174.799	0.1515	349598	keystroke_Key.space	Key.space	n/a
175.039	0.144	350078	keystroke_w	w	n/a
175.679	0.0715	351358	keystroke_o	o	n/a
175.863	0.072	351726	keystroke_r	r	n/a
176.0225	0.104	352045	keystroke_r	r	n/a
176.175	0.1115	352350	keystroke_i	i	n/a
176.3025	0.1365	352605	keystroke_e	e	n/a
176.5265	0.144	353053	keystroke_d	d	n/a
176.8065	0.128	353613	keystroke_Key.enter	Key.enter	n/a
176.941	6.6585	353882	prompt	n/a	mineral player innovations tables\n
177.6785	0.056	355357	keystroke_m	m	n/a
178.222	0.08	356444	keystroke_i	i	n/a
178.406	0.1045	356812	keystroke_n	n	n/a
178.558	0.168	357116	keystroke_e	e	n/a
178.663	0.135	357326	keystroke_r	r	n/a
178.8385	0.12	357677	keystroke_a	a	n/a
178.9265	0.0805	357853	keystroke_l	l	n/a
179.0625	0.12	358125	keystroke_Key.space	Key.space	n/a
179.1825	0.072	358365	keystroke_p	p	n/a
179.367	0.0635	358734	keystroke_l	l	n/a
179.4545	0.136	358909	keystroke_a	a	n/a
179.7345	0.08	359469	keystroke_y	y	n/a
179.8705	0.1605	359741	keystroke_e	e	n/a
179.9985	0.136	359997	keystroke_r	r	n/a
180.1265	0.112	360253	keystroke_Key.space	Key.space	n/a
180.454	0.104	360908	keystroke_i	i	n/a
180.654	0.064	361308	keystroke_n	n	n/a
180.7985	0.08	361597	keystroke_n	n	n/a
180.966	0.08	361932	keystroke_o	o	n/a
181.086	0.1205	362172	keystroke_v	v	n/a
181.214	0.1845	362428	keystroke_a	a	n/a
181.4065	0.12	362813	keystroke_t	t	n/a
181.5345	0.216	363069	keystroke_i	i	n/a
181.67	0.136	363340	keystroke_o	o	n/a
181.862	0.0805	363724	keystroke_n	n	n/a
181.935	0.1675	363870	keystroke_s	s	n/a
182.103	0.079	364206	keystroke_Key.space	Key.space	n/a
182.4145	0.0795	364829	keystroke_t	t	n/a
182.5345	0.1285	365069	keystroke_a	a	n/a
182.654	0.0805	365308	keystroke_b	b	n/a
182.8545	0.104	365709	keystroke_l	l	n/a
182.942	0.1525	365884	keystroke_e	e	n/a
183.086	0.121	366172	keystroke_s	s	n/a
183.422	0.176	366844	keystroke_Key.enter	Key.enter	n/a
183.603	13.837	367206	prompt	n/a	civic tent shade warcraft\n
184.2065	0.104	368413	keystroke_c	c	n/a
184.3185	0.0805	368637	keystroke_i	i	n/a
184.5665	0.1035	369133	keystroke_v	v	n/a
184.91	0.081	369820	keystroke_i	i	n/a
185.342	0.176	370684	keystroke_c	c	n/a
185.6625	0.136	371325	keystroke_Key.space	Key.space	n/a
185.8065	0.112	371613	keystroke_t	t	n/a
185.9905	0.1125	371981	keystroke_e	e	n/a
186.0065	0.111	372013	keystroke_n	n	n/a
186.1825	0.0885	372365	keystroke_e	e	n/a
186.8055	0.032	373611	keystroke_Key.backspace	Key.backspace	n/a
186.903	0.1275	373806	keystroke_t	t	n/a
187.1345	0.096	374269	keystroke_Key.space	Key.space	n/a
187.2865	0.176	374573	keystroke_s	s	n/a
187.3585	0.088	374717	keystroke_h	h	n/a
187.486	0.129	374972	keystroke_a	a	n/a
187.6545	0.12	375309	keystroke_g	g	n/a
187.8465	0.136	375693	keystroke_e	e	n/a
188.1585	0.08	376317	keystroke_Key.backspace	Key.backspace	n/a
188.3265	0.064	376653	keystroke_Key.backspace	Key.backspace	n/a
188.3505	0.104	376701	keystroke_d	d	n/a
188.5425	0.168	377085	keystroke_e	e	n/a
188.7185	0.0795	377437	keystroke_Key.space	Key.space	n/a
189.503	0.159	379006	keystroke_w	w	n/a
189.622	0.1605	379244	keystroke_a	a	n/a
189.8465	0.1035	379693	keystroke_r	r	n/a
190.1025	0.112	380205	keystroke_c	c	n/a
190.3505	0.144	380701	keystroke_r	r	n/a
190.5185	0.112	381037	keystroke_a	a	n/a
190.774	0.136	381548	keystroke_f	f	n/a
191.1025	0.112	382205	keystroke_t	t	n/a
192.958	0.0875	385916	keystroke_Key.backspace	Key.backspace	n/a
193.142	0.0805	386284	keystroke_Key.backspace	Key.backspace	n/a
193.302	0.072	386604	keystroke_Key.backspace	Key.backspace	n/a
196.2785	0.096	392557	keystroke_f	f	n/a
196.4865	0.1035	392973	keystroke_t	t	n/a
197.3255	0.1125	394651	keystroke_Key.enter	Key.enter	n/a
197.4475	12.6245	394895	prompt	n/a	pieces exposure villages protein\n
198.3425	0.0875	396685	keystroke_p	p	n/a
198.5665	0.0795	397133	keystroke_i	i	n/a
198.9025	0.0875	397805	keystroke_e	e	n/a
202.3985	0.16	404797	keystroke_c	c	n/a
202.534	0.2085	405068	keystroke_e	e	n/a
202.678	0.208	405356	keystroke_s	s	n/a
202.887	0.071	405774	keystroke_Key.space	Key.space	n/a
203.158	0.104	406316	keystroke_e	e	n/a
203.406	0.112	406812	keystroke_x	x	n/a
203.7185	0.071	407437	keystroke_p	p	n/a
203.8855	0.0645	407771	keystroke_o	o	n/a
203.99	0.1035	407980	keystroke_s	s	n/a
204.1105	0.064	408221	keystroke_u	u	n/a
204.2215	0.192	408443	keystroke_r	r	n/a
204.3345	0.144	408669	keystroke_e	e	n/a
204.446	0.112	408892	keystroke_Key.space	Key.space	n/a
204.718	0.112	409436	keystroke_v	v	n/a
205.478	0.088	410956	keystroke_i	i	n/a
205.854	0.0565	411708	keystroke_l	l	n/a
206.0305	0.104	412061	keystroke_l	l	n/a
206.566	0.152	413132	keystroke_a	a	n/a
206.702	0.136	413404	keystroke_g	g	n/a
206.8705	0.2155	413741	keystroke_e	e	n/a
206.99	0.176	413980	keystroke_s	s	n/a
207.126	0.128	414252	keystroke_Key.space	Key.space	n/a
207.686	0.136	415372	keystroke_p	p	n/a
207.918	0.1365	415836	keystroke_r	r	n/a
208.0705	0.072	416141	keystroke_o	o	n/a
208.2225	0.136	416445	keystroke_t	t	n/a
208.3985	0.128	416797	keystroke_e	e	n/a
208.5175	0.113	417035	keystroke_n	n	n/a
209.046	0.088	418092	keystroke_Key.backspace	Key.backspace	n/a
209.358	0.088	418716	keystroke_i	i	n/a
209.5265	0.0795	419053	keystroke_n	n	n/a
209.966	0.104	419932	keystroke_Key.enter	Key.enter	n/a
210.075	8.9085	420150	prompt	n/a	breeding manhattan toolkit mode\n
210.8385	0.0875	421677	keystroke_b	b	n/a
210.958	0.12	421916	keystroke_r	r	n/a
211.222	0.08	422444	keystroke_e	e	n/a
211.4385	0.096	422877	keystroke_e	e	n/a
211.7975	0.121	423595	keystroke_d	d	n/a
211.9105	0.08	423821	keystroke_i	i	n/a
212.0385	0.0795	424077	keystroke_n	n	n/a
212.126	0.0885	424252	keystroke_g	g	n/a
212.1815	0.136	424363	keystroke_Key.space	Key.space	n/a
212.39	0.072	424780	keystroke_m	m	n/a
212.4775	0.1205	424955	keystroke_a	a	n/a
212.59	0.0725	425180	keystroke_n	n	n/a
212.774	0.096	425548	keystroke_h	h	n/a
212.902	0.1125	425804	keystroke_a	a	n/a
213.238	0.08	426476	keystroke_t	t	n/a
213.4055	0.08	426811	keystroke_t	t	n/a
213.566	0.064	427132	keystroke_a	a	n/a
213.6465	0.0795	427293	keystroke_n	n	n/a
213.902	0.104	427804	keystroke_Key.space	Key.space	n/a
214.054	0.08	428108	keystroke_b	b	n/a
214.286	0.048	428572	keystroke_o	o	n/a
214.43	0.088	428860	keystroke_o	o	n/a
216.1815	0.072	432363	keystroke_Key.backspace	Key.backspace	n/a
216.3335	0.0795	432667	keystroke_Key.backspace	Key.backspace	n/a
216.5015	0.0715	433003	keystroke_Key.backspace	Key.backspace	n/a
216.8785	0.1035	433757	keystroke_t	t	n/a
217.126	0.056	434252	keystroke_o	o	n/a
217.254	0.072	434508	keystroke_o	o	n/a
217.446	0.072	434892	keystroke_l	l	n/a
217.75	0.08	435500	keystroke_k	k	n/a
217.934	0.0645	435868	keystroke_i	i	n/a
218.046	0.12	436092	keystroke_t	t	n/a
218.198	0.1195	436396	keystroke_Key.space	Key.space	n/a
218.374	0.136	436748	keystroke_m	m	n/a
218.469	0.136	436938	keystroke_o	o	n/a
218.5585	0.072	437117	keystroke_d	d	n/a
218.71	0.1045	437420	keystroke_e	e	n/a
218.9095	0.072	437819	keystroke_Key.enter	Key.enter	n/a
218.988	13.011	437976	prompt	n/a	communicate routes katrina dairy\n
219.646	0.12	439292	keystroke_c	c	n/a
219.702	0.056	439404	keystroke_o	o	n/a
219.862	0.0645	439724	keystroke_m	m	n/a
219.998	0.08	439996	keystroke_m	m	n/a
220.23	0.072	440460	keystroke_u	u	n/a
220.3745	0.088	440749	keystroke_n	n	n/a
220.5665	0.0635	441133	keystroke_i	i	n/a
220.686	0.112	441372	keystroke_c	c	n/a
220.805	0.1855	441610	keystroke_a	a	n/a
220.998	0.08	441996	keystroke_t	t	n/a
221.2295	0.1685	442459	keystroke_e	e	n/a
221.414	0.0715	442828	keystroke_Key.space	Key.space	n/a
221.55	0.1515	443100	keystroke_r	r	n/a
221.6215	0.1595	443243	keystroke_o	o	n/a
221.757	0.0965	443514	keystroke_u	u	n/a
221.8865	0.1265	443773	keystroke_t	t	n/a
222.0615	0.1605	444123	keystroke_e	e	n/a
222.173	0.161	444346	keystroke_s	s	n/a
222.4545	0.104	444909	keystroke_k	k	n/a
222.605	0.145	445210	keystroke_a	a	n/a
223.694	0.08	447388	keystroke_Key.backspace	Key.backspace	n/a
223.8615	0.064	447723	keystroke_Key.backspace	Key.backspace	n/a
224.046	0.04	448092	keystroke_Key.backspace	Key.backspace	n/a
224.31	0.1195	448620	keystroke_Key.space	Key.space	n/a
225.0385	0.0715	450077	keystroke_k	k	n/a
225.142	0.16	450284	keystroke_a	a	n/a
225.886	0.079	451772	keystroke_t	t	n/a
226.158	0.0955	452316	keystroke_r	r	n/a
226.3505	0.056	452701	keystroke_i	i	n/a
226.47	0.104	452940	keystroke_n	n	n/a
226.566	0.12	453132	keystroke_a	a	n/a
226.726	0.0795	453452	keystroke_Key.space	Key.space	n/a
226.9015	0.072	453803	keystroke_d	d	n/a
227.07	0.104	454140	keystroke_a	a	n/a
228.0305	0.0875	456061	keystroke_i	i	n/a
228.166	0.1115	456332	keystroke_r	r	n/a
228.4625	0.0875	456925	keystroke_y	y	n/a
231.8695	0.128	463739	keystroke_Key.enter	Key.enter	n/a
232.0035	10.4755	464007	prompt	n/a	magnitude integrity rage term\n
232.822	0.0955	465644	keystroke_n	n	n/a
233.0455	0.2	466091	keystroke_a	a	n/a
233.5095	0.096	467019	keystroke_Key.backspace	Key.backspace	n/a
233.67	0.096	467340	keystroke_Key.backspace	Key.backspace	n/a
233.974	0.0875	467948	keystroke_m	m	n/a
234.134	0.096	468268	keystroke_a	a	n/a
235.046	0.096	470092	keystroke_g	g	n/a
235.2215	0.1045	470443	keystroke_n	n	n/a
235.3735	0.104	470747	keystroke_i	i	n/a
235.4855	0.096	470971	keystroke_t	t	n/a
235.7015	0.0565	471403	keystroke_u	u	n/a
235.862	0.087	471724	keystroke_d	d	n/a
236.046	0.135	472092	keystroke_e	e	n/a
236.182	0.095	472364	keystroke_Key.space	Key.space	n/a
236.3015	0.0885	472603	keystroke_i	i	n/a
236.469	0.088	472938	keystroke_n	n	n/a
236.549	0.0885	473098	keystroke_t	t	n/a
237.35	0.1115	474700	keystroke_e	e	n/a
237.9335	0.104	475867	keystroke_g	g	n/a
238.6695	0.104	477339	keystroke_r	r	n/a
238.829	0.088	477658	keystroke_i	i	n/a
239.294	0.112	478588	keystroke_t	t	n/a
239.438	0.096	478876	keystroke_y	y	n/a
239.55	0.16	479100	keystroke_Key.space	Key.space	n/a
239.9175	0.12	479835	keystroke_r	r	n/a
240.0935	0.152	480187	keystroke_a	a	n/a
240.2855	0.104	480571	keystroke_g	g	n/a
240.4535	0.208	480907	keystroke_e	e	n/a
240.8935	0.048	481787	keystroke_Key.space	Key.space	n/a
240.958	0.1195	481916	keystroke_t	t	n/a
241.4135	0.136	482827	keystroke_e	e	n/a
241.8135	0.112	483627	keystroke_r	r	n/a
241.9975	0.0805	483995	keystroke_m	m	n/a
242.301	0.1765	484602	keystroke_Key.enter	Key.enter	n/a
242.4835	11.2195	484967	prompt	n/a	treasurer expenditures creature randy\n
243.07	0.095	486140	keystroke_t	t	n/a
243.293	0.1765	486586	keystroke_r	r	n/a
243.413	0.168	486826	keystroke_e	e	n/a
243.654	0.119	487308	keystroke_a	a	n/a
243.8455	0.1285	487691	keystroke_s	s	n/a
243.9895	0.112	487979	keystroke_u	u	n/a
244.1575	0.1675	488315	keystroke_r	r	n/a
244.254	0.175	488508	keystroke_e	e	n/a
244.6535	0.1605	489307	keystroke_e	e	n/a
244.75	0.144	489500	keystroke_r	r	n/a
244.9495	0.1195	489899	keystroke_Key.space	Key.space	n/a
245.262	0.112	490524	keystroke_e	e	n/a
246.2935	0.064	492587	keystroke_Key.backspace	Key.backspace	n/a
246.4455	0.064	492891	keystroke_Key.backspace	Key.backspace	n/a
246.597	0.08	493194	keystroke_Key.backspace	Key.backspace	n/a
247.117	0.0805	494234	keystroke_Key.backspace	Key.backspace	n/a
247.245	0.129	494490	keystroke_r	r	n/a
247.509	0.1285	495018	keystroke_Key.space	Key.space	n/a
248.0135	0.071	496027	keystroke_e	e	n/a
248.214	0.128	496428	keystroke_x	x	n/a
248.374	0.064	496748	keystroke_p	p	n/a
248.51	0.111	497020	keystroke_e	e	n/a
248.6215	0.0805	497243	keystroke_n	n	n/a
248.813	0.0965	497626	keystroke_d	d	n/a
248.9575	0.088	497915	keystroke_i	i	n/a
249.1495	0.088	498299	keystroke_t	t	n/a
249.374	0.088	498748	keystroke_u	u	n/a
249.4855	0.1675	498971	keystroke_r	r	n/a
249.5895	0.144	499179	keystroke_e	e	n/a
249.8445	0.145	499689	keystroke_s	s	n/a
250.037	0.1125	500074	keystroke_Key.space	Key.space	n/a
250.2775	0.08	500555	keystroke_c	c	n/a
250.4855	0.152	500971	keystroke_r	r	n/a
250.5495	0.168	501099	keystroke_e	e	n/a
250.7015	0.208	501403	keystroke_a	a	n/a
250.9415	0.08	501883	keystroke_t	t	n/a
251.1325	0.057	502265	keystroke_u	u	n/a
251.2055	0.143	502411	keystroke_r	r	n/a
251.31	0.1515	502620	keystroke_e	e	n/a
251.5325	0.112	503065	keystroke_Key.space	Key.space	n/a
252.341	0.137	504682	keystroke_r	r	n/a
252.4845	0.1375	504969	keystroke_a	a	n/a
252.7575	0.0965	505515	keystroke_n	n	n/a
252.9655	0.088	505931	keystroke_d	d	n/a
253.2295	0.064	506459	keystroke_y	y	n/a
253.5895	0.1115	507179	keystroke_Key.enter	Key.enter	n/a
253.707	14.7	507414	prompt	n/a	understanding suicide puerto cope\n
254.3175	0.08	508635	keystroke_u	u	n/a
254.4925	0.064	508985	keystroke_n	n	n/a
254.5735	0.104	509147	keystroke_d	d	n/a
254.7815	0.184	509563	keystroke_e	e	n/a
254.9085	0.12	509817	keystroke_r	r	n/a
255.101	0.2965	510202	keystroke_s	s	n/a
255.261	0.1035	510522	keystroke_t	t	n/a
255.3495	0.152	510699	keystroke_a	a	n/a
255.4605	0.097	510921	keystroke_n	n	n/a
256.0615	0.1115	512123	keystroke_d	d	n/a
256.181	0.08	512362	keystroke_i	i	n/a
256.3495	0.0635	512699	keystroke_n	n	n/a
256.4055	0.1275	512811	keystroke_g	g	n/a
256.517	0.08	513034	keystroke_Key.space	Key.space	n/a
256.6935	0.1045	513387	keystroke_s	s	n/a
256.83	0.079	513660	keystroke_u	u	n/a
257.1575	0.0875	514315	keystroke_c	c	n/a
258.038	0.1115	516076	keystroke_Key.backspace	Key.backspace	n/a
258.582	0.0795	517164	keystroke_i	i	n/a
258.805	0.104	517610	keystroke_c	c	n/a
258.981	0.064	517962	keystroke_i	i	n/a
259.141	0.08	518282	keystroke_d	d	n/a
259.3175	0.1515	518635	keystroke_e	e	n/a
259.4775	0.12	518955	keystroke_Key.space	Key.space	n/a
259.645	0.048	519290	keystroke_o	o	n/a
260.3495	0.128	520699	keystroke_Key.backspace	Key.backspace	n/a
260.7655	0.087	521531	keystroke_p	p	n/a
261.0295	0.0725	522059	keystroke_u	u	n/a
261.469	0.1915	522938	keystroke_e	e	n/a
261.5885	0.137	523177	keystroke_r	r	n/a
261.821	0.104	523642	keystroke_t	t	n/a
262.205	0.0885	524410	keystroke_o	o	n/a
262.429	0.0965	524858	keystroke_Key.space	Key.space	n/a
262.741	0.0965	525482	keystroke_c	c	n/a
262.845	0.08	525690	keystroke_u	u	n/a
263.309	0.072	526618	keystroke_Key.backspace	Key.backspace	n/a
263.509	0.0885	527018	keystroke_Key.backspace	Key.backspace	n/a
266.285	0.104	532570	keystroke_c	c	n/a
266.549	0.072	533098	keystroke_o	o	n/a
266.749	0.064	533498	keystroke_p	p	n/a
266.8375	0.136	533675	keystroke_e	e	n/a
268.293	0.112	536586	keystroke_Key.enter	Key.enter	n/a
268.411	9.8435	536822	prompt	n/a	representing note ross survivor\n
269.661	0.088	539322	keystroke_p	p	n/a
269.789	0.216	539578	keystroke_r	r	n/a
269.901	0.1915	539802	keystroke_e	e	n/a
270.4365	0.072	540873	keystroke_Key.backspace	Key.backspace	n/a
270.7405	0.0645	541481	keystroke_Key.backspace	Key.backspace	n/a
270.9005	0.072	541801	keystroke_Key.backspace	Key.backspace	n/a
271.061	0.1765	542122	keystroke_r	r	n/a
271.1565	0.152	542313	keystroke_e	e	n/a
271.3645	0.088	542729	keystroke_p	p	n/a
271.5725	0.1775	543145	keystroke_r	r	n/a
271.653	0.1445	543306	keystroke_e	e	n/a
271.9005	0.1285	543801	keystroke_s	s	n/a
272.013	0.152	544026	keystroke_e	e	n/a
272.1485	0.0885	544297	keystroke_n	n	n/a
272.317	0.12	544634	keystroke_t	t	n/a
272.613	0.088	545226	keystroke_i	i	n/a
272.7575	0.0955	545515	keystroke_n	n	n/a
272.805	0.1435	545610	keystroke_g	g	n/a
272.9405	0.1285	545881	keystroke_Key.space	Key.space	n/a
273.357	0.1525	546714	keystroke_n	n	n/a
273.5415	0.079	547083	keystroke_o	o	n/a
273.5895	0.1115	547179	keystroke_t	t	n/a
273.7975	0.1355	547595	keystroke_e	e	n/a
273.8925	0.1365	547785	keystroke_Key.space	Key.space	n/a
274.621	0.104	549242	keystroke_r	r	n/a
274.749	0.064	549498	keystroke_o	o	n/a
274.877	0.12	549754	keystroke_s	s	n/a
275.0695	0.1355	550139	keystroke_s	s	n/a
275.237	0.104	550474	keystroke_Key.space	Key.space	n/a
275.405	0.112	550810	keystroke_s	s	n/a
275.525	0.096	551050	keystroke_u	u	n/a
275.725	0.088	551450	keystroke_r	r	n/a
277.1815	0.119	554363	keystroke_v	v	n/a
277.349	0.088	554698	keystroke_i	i	n/a
277.5415	0.1195	555083	keystroke_v	v	n/a
277.7325	0.081	555465	keystroke_o	o	n/a
277.8615	0.1515	555723	keystroke_r	r	n/a
278.125	0.1275	556250	keystroke_Key.enter	Key.enter	n/a
278.258	5.9245	556516	prompt	n/a	fantasy spare wage cancer\n
278.893	0.1515	557786	keystroke_f	f	n/a
279.0445	0.152	558089	keystroke_a	a	n/a
279.149	0.08	558298	keystroke_n	n	n/a
279.349	0.136	558698	keystroke_t	t	n/a
279.501	0.1365	559002	keystroke_a	a	n/a
279.973	0.128	559946	keystroke_s	s	n/a
280.173	0.071	560346	keystroke_y	y	n/a
280.364	0.105	560728	keystroke_Key.space	Key.space	n/a
280.589	0.0955	561178	keystroke_s	s	n/a
280.749	0.1035	561498	keystroke_p	p	n/a
281.188	0.1845	562376	keystroke_a	a	n/a
281.356	0.233	562712	keystroke_r	r	n/a
281.4765	0.1765	562953	keystroke_e	e	n/a
281.613	0.12	563226	keystroke_Key.space	Key.space	n/a
281.909	0.272	563818	keystroke_w	w	n/a
281.997	0.1355	563994	keystroke_a	a	n/a
282.2855	0.1035	564571	keystroke_g	g	n/a
282.4935	0.1595	564987	keystroke_e	e	n/a
282.661	0.12	565322	keystroke_Key.space	Key.space	n/a
283.133	0.128	566266	keystroke_c	c	n/a
283.269	0.12	566538	keystroke_a	a	n/a
283.397	0.104	566794	keystroke_n	n	n/a
283.621	0.096	567242	keystroke_c	c	n/a
283.781	0.192	567562	keystroke_e	e	n/a
283.909	0.12	567818	keystroke_r	r	n/a
284.045	0.136	568090	keystroke_Key.enter	Key.enter	n/a
284.187	11.132	568374	prompt	n/a	americans peripherals philips strap\n
284.909	0.136	569818	keystroke_a	a	n/a
285.053	0.0795	570106	keystroke_m	m	n/a
285.1565	0.1525	570313	keystroke_e	e	n/a
285.2365	0.104	570473	keystroke_r	r	n/a
285.3965	0.072	570793	keystroke_i	i	n/a
285.4845	0.12	570969	keystroke_c	c	n/a
285.5965	0.1445	571193	keystroke_a	a	n/a
285.7245	0.0955	571449	keystroke_n	n	n/a
285.8445	0.136	571689	keystroke_s	s	n/a
286.7245	0.1205	573449	keystroke_Key.space	Key.space	n/a
287.117	0.0315	574234	keystroke_p	p	n/a
287.677	0.168	575354	keystroke_e	e	n/a
287.797	0.112	575594	keystroke_r	r	n/a
288.02	0.1045	576040	keystroke_i	i	n/a
288.324	0.0965	576648	keystroke_p	p	n/a
288.564	0.1055	577128	keystroke_h	h	n/a
288.764	0.1215	577528	keystroke_e	e	n/a
288.828	0.153	577656	keystroke_r	r	n/a
288.9885	0.112	577977	keystroke_a	a	n/a
289.1245	0.096	578249	keystroke_l	l	n/a
289.284	0.16	578568	keystroke_s	s	n/a
289.572	0.1285	579144	keystroke_Key.space	Key.space	n/a
290.5245	0.1045	581049	keystroke_p	p	n/a
290.797	0.0795	581594	keystroke_h	h	n/a
291.0445	0.104	582089	keystroke_i	i	n/a
291.724	0.105	583448	keystroke_l	l	n/a
292.0845	0.0875	584169	keystroke_i	i	n/a
292.3645	0.0715	584729	keystroke_p	p	n/a
292.516	0.1605	585032	keystroke_s	s	n/a
292.66	0.12	585320	keystroke_Key.space	Key.space	n/a
293.189	0.103	586378	keystroke_s	s	n/a
293.469	0.12	586938	keystroke_t	t	n/a
293.8045	0.1285	587609	keystroke_r	r	n/a
294.1405	0.1285	588281	keystroke_a	a	n/a
294.909	0.08	589818	keystroke_p	p	n/a
295.197	0.12	590394	keystroke_Key.enter	Key.enter	n/a
295.323	8.155	590646	prompt	n/a	shaped saints varying movies\n
295.853	0.128	591706	keystroke_s	s	n/a
296.005	0.096	592010	keystroke_h	h	n/a
296.125	0.128	592250	keystroke_a	a	n/a
296.237	0.071	592474	keystroke_o	o	n/a
296.38	0.097	592760	keystroke_e	e	n/a
296.796	0.0725	593592	keystroke_Key.backspace	Key.backspace	n/a
296.949	0.0795	593898	keystroke_Key.backspace	Key.backspace	n/a
297.164	0.0885	594328	keystroke_p	p	n/a
297.2845	0.1035	594569	keystroke_e	e	n/a
297.4925	0.152	594985	keystroke_d	d	n/a
297.6685	0.104	595337	keystroke_Key.space	Key.space	n/a
298.0205	0.1445	596041	keystroke_s	s	n/a
298.244	0.129	596488	keystroke_a	a	n/a
298.413	0.088	596826	keystroke_i	i	n/a
298.605	0.0875	597210	keystroke_n	n	n/a
298.7405	0.1125	597481	keystroke_t	t	n/a
298.9405	0.2085	597881	keystroke_s	s	n/a
299.1405	0.104	598281	keystroke_Key.space	Key.space	n/a
299.405	0.048	598810	keystroke_c	c	n/a
300.06	0.1045	600120	keystroke_Key.backspace	Key.backspace	n/a
300.6045	0.1285	601209	keystroke_v	v	n/a
300.8125	0.144	601625	keystroke_a	a	n/a
301.0125	0.128	602025	keystroke_r	r	n/a
301.3805	0.112	602761	keystroke_y	y	n/a
301.5005	0.072	603001	keystroke_i	i	n/a
301.6445	0.0645	603289	keystroke_n	n	n/a
301.6925	0.152	603385	keystroke_g	g	n/a
301.8365	0.104	603673	keystroke_Key.space	Key.space	n/a
302.037	0.144	604074	keystroke_m	m	n/a
302.164	0.121	604328	keystroke_o	o	n/a
302.245	0.112	604490	keystroke_v	v	n/a
302.476	0.049	604952	keystroke_i	i	n/a
302.557	0.12	605114	keystroke_e	e	n/a
303.1005	0.0965	606201	keystroke_s	s	n/a
303.372	0.104	606744	keystroke_Key.enter	Key.enter	n/a
303.4805	7.462	606961	prompt	n/a	score regular poly marking\n
303.917	0.1035	607834	keystroke_s	s	n/a
304.196	0.081	608392	keystroke_c	c	n/a
304.34	0.0725	608680	keystroke_o	o	n/a
304.452	0.16	608904	keystroke_r	r	n/a
304.524	0.184	609048	keystroke_e	e	n/a
304.6765	0.0875	609353	keystroke_Key.space	Key.space	n/a
304.8445	0.1515	609689	keystroke_r	r	n/a
304.9405	0.1285	609881	keystroke_e	e	n/a
305.229	0.087	610458	keystroke_g	g	n/a
305.308	0.0885	610616	keystroke_u	u	n/a
305.5165	0.0965	611033	keystroke_l	l	n/a
305.6135	0.119	611227	keystroke_a	a	n/a
305.813	0.151	611626	keystroke_r	r	n/a
306.02	0.0875	612040	keystroke_Key.space	Key.space	n/a
306.1645	0.104	612329	keystroke_p	p	n/a
306.4365	0.08	612873	keystroke_o	o	n/a
307.021	0.095	614042	keystroke_l	l	n/a
307.285	0.055	614570	keystroke_u	u	n/a
307.668	0.112	615336	keystroke_Key.space	Key.space	n/a
308.188	0.0565	616376	keystroke_Key.backspace	Key.backspace	n/a
308.3165	0.0715	616633	keystroke_Key.backspace	Key.backspace	n/a
308.821	0.079	617642	keystroke_y	y	n/a
308.9565	0.1195	617913	keystroke_Key.space	Key.space	n/a
309.172	0.08	618344	keystroke_m	m	n/a
309.3165	0.1275	618633	keystroke_a	a	n/a
309.66	0.1205	619320	keystroke_r	r	n/a
310.0845	0.0795	620169	keystroke_k	k	n/a
310.308	0.088	620616	keystroke_i	i	n/a
310.444	0.088	620888	keystroke_n	n	n/a
310.524	0.129	621048	keystroke_g	g	n/a
310.868	0.072	621736	keystroke_Key.enter	Key.enter	n/a
310.9495	10.6165	621899	prompt	n/a	coral finest i'll creator\n
311.4845	0.08	622969	keystroke_s	s	n/a
311.6845	0.088	623369	keystroke_c	c	n/a
311.8845	0.08	623769	keystroke_o	o	n/a
312.5245	0.088	625049	keystroke_Key.backspace	Key.backspace	n/a
312.6685	0.064	625337	keystroke_Key.backspace	Key.backspace	n/a
312.8125	0.08	625625	keystroke_Key.backspace	Key.backspace	n/a
313.013	0.0715	626026	keystroke_c	c	n/a
313.2365	0.12	626473	keystroke_r	r	n/a
313.6445	0.088	627289	keystroke_Key.backspace	Key.backspace	n/a
313.8685	0.064	627737	keystroke_o	o	n/a
313.9725	0.064	627945	keystroke_r	r	n/a
314.1085	0.112	628217	keystroke_a	a	n/a
314.2215	0.047	628443	keystroke_l	l	n/a
314.3645	0.088	628729	keystroke_Key.space	Key.space	n/a
314.7005	0.104	629401	keystroke_f	f	n/a
314.7805	0.088	629561	keystroke_i	i	n/a
314.9405	0.08	629881	keystroke_n	n	n/a
315.0445	0.151	630089	keystroke_e	e	n/a
315.1645	0.224	630329	keystroke_s	s	n/a
315.3885	0.136	630777	keystroke_t	t	n/a
315.5325	0.08	631065	keystroke_Key.space	Key.space	n/a
315.8365	0.08	631673	keystroke_i	i	n/a
316.924	0.073	633848	keystroke_'	'	n/a
317.1325	0.1515	634265	keystroke_s	s	n/a
317.3405	0.1435	634681	keystroke_s	s	n/a
317.676	0.096	635352	keystroke_Key.backspace	Key.backspace	n/a
317.852	0.0725	635704	keystroke_Key.backspace	Key.backspace	n/a
318.3885	0.0555	636777	keystroke_l	l	n/a
318.5485	0.088	637097	keystroke_l	l	n/a
318.7	0.096	637400	keystroke_Key.space	Key.space	n/a
319.132	0.072	638264	keystroke_c	c	n/a
319.74	0.1445	639480	keystroke_r	r	n/a
319.812	0.192	639624	keystroke_e	e	n/a
320.004	0.1765	640008	keystroke_a	a	n/a
320.8125	0.064	641625	keystroke_t	t	n/a
320.9405	0.0725	641881	keystroke_o	o	n/a
321.028	0.1205	642056	keystroke_r	r	n/a
321.452	0.112	642904	keystroke_Key.enter	Key.enter	n/a
321.5695	8.4685	643139	prompt	n/a	teaching berry removable soap\n
322.2045	0.1125	644409	keystroke_t	t	n/a
322.4045	0.104	644809	keystroke_e	e	n/a
322.6765	0.1035	645353	keystroke_a	a	n/a
322.86	0.1285	645720	keystroke_c	c	n/a
322.9485	0.1595	645897	keystroke_h	h	n/a
323.052	0.1205	646104	keystroke_i	i	n/a
323.2275	0.097	646455	keystroke_n	n	n/a
323.2925	0.1355	646585	keystroke_g	g	n/a
323.38	0.1445	646760	keystroke_Key.space	Key.space	n/a
323.5405	0.1115	647081	keystroke_b	b	n/a
323.66	0.1365	647320	keystroke_e	e	n/a
323.916	0.064	647832	keystroke_t	t	n/a
324.0765	0.056	648153	keystroke_t	t	n/a
324.3965	0.08	648793	keystroke_Key.backspace	Key.backspace	n/a
324.5405	0.08	649081	keystroke_Key.backspace	Key.backspace	n/a
324.6765	0.056	649353	keystroke_r	r	n/a
324.8125	0.096	649625	keystroke_r	r	n/a
325.2365	0.08	650473	keystroke_y	y	n/a
325.3885	0.136	650777	keystroke_Key.space	Key.space	n/a
325.8045	0.152	651609	keystroke_r	r	n/a
325.8845	0.1765	651769	keystroke_e	e	n/a
326.1885	0.1835	652377	keystroke_m	m	n/a
326.3325	0.1285	652665	keystroke_o	o	n/a
326.5955	0.097	653191	keystroke_v	v	n/a
326.9885	0.095	653977	keystroke_a	a	n/a
327.5405	0.1355	655081	keystroke_b	b	n/a
327.9165	0.1275	655833	keystroke_l	l	n/a
328.0845	0.176	656169	keystroke_e	e	n/a
328.268	0.104	656536	keystroke_Key.space	Key.space	n/a
328.732	0.1125	657464	keystroke_s	s	n/a
328.8125	0.096	657625	keystroke_o	o	n/a
328.9725	0.1115	657945	keystroke_a	a	n/a
329.4835	0.089	658967	keystroke_p	p	n/a
329.9315	0.104	659863	keystroke_Key.enter	Key.enter	n/a
330.0475	11.6545	660095	prompt	n/a	advances glance triple monetary\n
330.5485	0.144	661097	keystroke_a	a	n/a
330.7725	0.112	661545	keystroke_d	d	n/a
330.9885	0.128	661977	keystroke_v	v	n/a
331.5635	0.136	663127	keystroke_a	a	n/a
331.692	0.0805	663384	keystroke_n	n	n/a
331.8125	0.136	663625	keystroke_c	c	n/a
331.9325	0.216	663865	keystroke_e	e	n/a
332.0755	0.1925	664151	keystroke_s	s	n/a
332.2835	0.096	664567	keystroke_Key.space	Key.space	n/a
332.476	0.0795	664952	keystroke_d	d	n/a
332.7555	0.105	665511	keystroke_Key.backspace	Key.backspace	n/a
333.1965	0.12	666393	keystroke_g	g	n/a
334.172	0.088	668344	keystroke_l	l	n/a
334.924	0.112	669848	keystroke_a	a	n/a
335.044	0.096	670088	keystroke_n	n	n/a
335.2045	0.144	670409	keystroke_c	c	n/a
335.316	0.2	670632	keystroke_e	e	n/a
335.508	0.152	671016	keystroke_Key.space	Key.space	n/a
335.78	0.104	671560	keystroke_t	t	n/a
335.965	0.1275	671930	keystroke_r	r	n/a
336.2845	0.072	672569	keystroke_i	i	n/a
336.5965	0.063	673193	keystroke_p	p	n/a
336.7885	0.063	673577	keystroke_l	l	n/a
336.9005	0.183	673801	keystroke_e	e	n/a
337.1235	0.144	674247	keystroke_Key.space	Key.space	n/a
337.42	0.1525	674840	keystroke_m	m	n/a
337.5645	0.1035	675129	keystroke_o	o	n/a
337.78	0.088	675560	keystroke_n	n	n/a
337.9405	0.136	675881	keystroke_e	e	n/a
339.404	0.096	678808	keystroke_t	t	n/a
340.1645	0.152	680329	keystroke_a	a	n/a
340.8365	0.136	681673	keystroke_r	r	n/a
341.0765	0.08	682153	keystroke_y	y	n/a
341.5645	0.136	683129	keystroke_Key.enter	Key.enter	n/a
341.7065	8.547	683413	prompt	n/a	unlimited police files practice\n
342.804	0.08	685608	keystroke_u	u	n/a
342.9805	0.0795	685961	keystroke_n	n	n/a
343.22	0.16	686440	keystroke_l	l	n/a
343.34	0.08	686680	keystroke_i	i	n/a
343.477	0.159	686954	keystroke_m	m	n/a
343.62	0.0965	687240	keystroke_i	i	n/a
343.724	0.1435	687448	keystroke_t	t	n/a
343.9005	0.12	687801	keystroke_e	e	n/a
344.084	0.192	688168	keystroke_d	d	n/a
344.26	0.136	688520	keystroke_Key.space	Key.space	n/a
344.4285	0.1035	688857	keystroke_p	p	n/a
344.924	0.0885	689848	keystroke_o	o	n/a
345.1885	0.231	690377	keystroke_l	l	n/a
345.3325	0.127	690665	keystroke_i	i	n/a
345.4115	0.249	690823	keystroke_c	c	n/a
345.5965	0.2	691193	keystroke_e	e	n/a
345.8995	0.1365	691799	keystroke_Key.space	Key.space	n/a
346.092	0.128	692184	keystroke_f	f	n/a
346.1725	0.184	692345	keystroke_i	i	n/a
346.316	0.168	692632	keystroke_l	l	n/a
346.4195	0.1765	692839	keystroke_e	e	n/a
346.556	0.1675	693112	keystroke_s	s	n/a
346.7155	0.096	693431	keystroke_Key.space	Key.space	n/a
346.8675	0.105	693735	keystroke_p	p	n/a
346.98	0.0965	693960	keystroke_r	r	n/a
347.1165	0.152	694233	keystroke_a	a	n/a
347.3235	0.08	694647	keystroke_c	c	n/a
347.5475	0.12	695095	keystroke_t	t	n/a
347.7085	0.104	695417	keystroke_i	i	n/a
347.852	0.1685	695704	keystroke_s	s	n/a
348.1885	0.0955	696377	keystroke_=	=	n/a
348.332	0.2395	696664	keystroke_c	c	n/a
348.4515	0.168	696903	keystroke_e	e	n/a
348.8035	0.032	697607	keystroke_Key.backspace	Key.backspace	n/a
348.9235	0.0965	697847	keystroke_Key.backspace	Key.backspace	n/a
349.108	0.08	698216	keystroke_Key.backspace	Key.backspace	n/a
349.252	0.103	698504	keystroke_Key.backspace	Key.backspace	n/a
349.532	0.2325	699064	keystroke_c	c	n/a
349.7315	0.1605	699463	keystroke_e	e	n/a
350.1075	0.1445	700215	keystroke_Key.enter	Key.enter	n/a
350.2575	9.4645	700515	prompt	n/a	valid clarity yamaha stands\n
350.9805	0.112	701961	keystroke_v	v	n/a
351.1395	0.145	702279	keystroke_a	a	n/a
351.316	0.2395	702632	keystroke_l	l	n/a
351.4685	0.1355	702937	keystroke_i	i	n/a
351.6275	0.16	703255	keystroke_d	d	n/a
351.8035	0.136	703607	keystroke_Key.space	Key.space	n/a
352.3315	0.105	704663	keystroke_c	c	n/a
352.4675	0.112	704935	keystroke_l	l	n/a
352.628	0.1515	705256	keystroke_a	a	n/a
352.7955	0.1525	705591	keystroke_r	r	n/a
353.164	0.1275	706328	keystroke_i	i	n/a
353.4035	0.0965	706807	keystroke_t	t	n/a
353.6275	0.088	707255	keystroke_y	y	n/a
353.7795	0.128	707559	keystroke_Key.space	Key.space	n/a
354.2925	0.111	708585	keystroke_y	y	n/a
354.4755	0.113	708951	keystroke_a	a	n/a
354.636	0.088	709272	keystroke_m	m	n/a
354.78	0.112	709560	keystroke_a	a	n/a
355.012	0.112	710024	keystroke_s	s	n/a
355.116	0.104	710232	keystroke_h	h	n/a
355.284	0.112	710568	keystroke_a	a	n/a
355.452	0.128	710904	keystroke_Key.space	Key.space	n/a
355.8205	0.0875	711641	keystroke_s	s	n/a
358.4195	0.104	716839	keystroke_t	t	n/a
358.7075	0.0885	717415	keystroke_a	a	n/a
358.812	0.1115	717624	keystroke_n	n	n/a
358.9565	0.0955	717913	keystroke_d	d	n/a
359.276	0.12	718552	keystroke_s	s	n/a
359.612	0.1035	719224	keystroke_Key.enter	Key.enter	n/a
359.722	20.5315	719444	prompt	n/a	harold batteries eclipse trouble\n
360.4125	0.1035	720825	keystroke_h	h	n/a
360.796	0.144	721592	keystroke_a	a	n/a
360.956	0.128	721912	keystroke_r	r	n/a
361.3315	0.0805	722663	keystroke_o	o	n/a
361.564	0.072	723128	keystroke_l	l	n/a
361.66	0.168	723320	keystroke_d	d	n/a
361.804	0.112	723608	keystroke_Key.space	Key.space	n/a
361.924	0.088	723848	keystroke_n	n	n/a
362.052	0.136	724104	keystroke_a	a	n/a
362.252	0.088	724504	keystroke_t	t	n/a
362.404	0.08	724808	keystroke_t	t	n/a
362.58	0.136	725160	keystroke_e	e	n/a
362.636	0.152	725272	keystroke_r	r	n/a
362.82	0.104	725640	keystroke_i	i	n/a
362.932	0.216	725864	keystroke_e	e	n/a
363.052	0.175	726104	keystroke_s	s	n/a
363.235	0.097	726470	keystroke_Key.space	Key.space	n/a
363.356	0.1205	726712	keystroke_e	e	n/a
363.5795	0.088	727159	keystroke_c	c	n/a
363.7725	0.215	727545	keystroke_l	l	n/a
363.9005	0.1185	727801	keystroke_i	i	n/a
364.14	0.0875	728280	keystroke_p	p	n/a
364.2835	0.1285	728567	keystroke_s	s	n/a
364.643	0.105	729286	keystroke_e	e	n/a
364.996	0.127	729992	keystroke_Key.space	Key.space	n/a
365.252	0.104	730504	keystroke_t	t	n/a
365.435	0.112	730870	keystroke_r	r	n/a
365.508	0.2155	731016	keystroke_o	o	n/a
365.676	0.0885	731352	keystroke_u	u	n/a
365.876	0.0795	731752	keystroke_b	b	n/a
366.076	0.072	732152	keystroke_l	l	n/a
366.148	0.136	732296	keystroke_e	e	n/a
367.46	0.088	734920	keystroke_Key.backspace	Key.backspace	n/a
367.6355	0.096	735271	keystroke_Key.backspace	Key.backspace	n/a
367.7875	0.072	735575	keystroke_Key.backspace	Key.backspace	n/a
367.9395	0.0795	735879	keystroke_Key.backspace	Key.backspace	n/a
368.1	0.063	736200	keystroke_Key.backspace	Key.backspace	n/a
368.252	0.0715	736504	keystroke_Key.backspace	Key.backspace	n/a
368.4195	0.064	736839	keystroke_Key.backspace	Key.backspace	n/a
368.58	0.0635	737160	keystroke_Key.backspace	Key.backspace	n/a
368.732	0.072	737464	keystroke_Key.backspace	Key.backspace	n/a
368.8835	0.088	737767	keystroke_Key.backspace	Key.backspace	n/a
369.044	0.0715	738088	keystroke_Key.backspace	Key.backspace	n/a
369.2035	0.08	738407	keystroke_Key.backspace	Key.backspace	n/a
369.3715	0.0725	738743	keystroke_Key.backspace	Key.backspace	n/a
369.5475	0.072	739095	keystroke_Key.backspace	Key.backspace	n/a
369.724	0.056	739448	keystroke_Key.backspace	Key.backspace	n/a
369.884	0.0635	739768	keystroke_Key.backspace	Key.backspace	n/a
370.052	0.072	740104	keystroke_Key.backspace	Key.backspace	n/a
370.228	0.08	740456	keystroke_Key.backspace	Key.backspace	n/a
370.396	0.0795	740792	keystroke_Key.backspace	Key.backspace	n/a
370.572	0.08	741144	keystroke_Key.backspace	Key.backspace	n/a
370.756	0.072	741512	keystroke_Key.backspace	Key.backspace	n/a
370.932	0.071	741864	keystroke_Key.backspace	Key.backspace	n/a
371.1235	0.064	742247	keystroke_Key.backspace	Key.backspace	n/a
371.3155	0.0885	742631	keystroke_Key.backspace	Key.backspace	n/a
371.5395	0.08	743079	keystroke_Key.backspace	Key.backspace	n/a
372.0835	0.08	744167	keystroke_b	b	n/a
372.1795	0.1125	744359	keystroke_a	a	n/a
372.332	0.072	744664	keystroke_t	t	n/a
372.4835	0.064	744967	keystroke_t	t	n/a
372.6115	0.184	745223	keystroke_e	e	n/a
372.7635	0.1045	745527	keystroke_r	r	n/a
373.7475	0.0725	747495	keystroke_i	i	n/a
373.8835	0.2165	747767	keystroke_e	e	n/a
374.036	0.1515	748072	keystroke_s	s	n/a
374.1955	0.12	748391	keystroke_Key.space	Key.space	n/a
374.6115	0.112	749223	keystroke_e	e	n/a
374.9075	0.1035	749815	keystroke_c	c	n/a
376.003	0.089	752006	keystroke_l	l	n/a
376.2355	0.064	752471	keystroke_i	i	n/a
376.4675	0.0645	752935	keystroke_p	p	n/a
378.0035	0.2085	756007	keystroke_s	s	n/a
378.1475	0.224	756295	keystroke_e	e	n/a
378.3635	0.144	756727	keystroke_Key.space	Key.space	n/a
378.756	0.079	757512	keystroke_t	t	n/a
378.988	0.1275	757976	keystroke_r	r	n/a
379.1475	0.1925	758295	keystroke_o	o	n/a
379.291	0.0965	758582	keystroke_u	u	n/a
379.523	0.0805	759046	keystroke_b	b	n/a
379.731	0.0965	759462	keystroke_l	l	n/a
379.8515	0.104	759703	keystroke_e	e	n/a
380.1635	0.088	760327	keystroke_Key.enter	Key.enter	n/a
380.258	11.467	760516	prompt	n/a	attempted unique tube viruses\n
380.891	0.152	761782	keystroke_a	a	n/a
381.076	0.071	762152	keystroke_t	t	n/a
381.2195	0.096	762439	keystroke_t	t	n/a
381.388	0.12	762776	keystroke_e	e	n/a
381.4835	0.0955	762967	keystroke_m	m	n/a
381.636	0.0875	763272	keystroke_t	t	n/a
382.5715	0.096	765143	keystroke_Key.backspace	Key.backspace	n/a
382.908	0.0795	765816	keystroke_p	p	n/a
383.0515	0.128	766103	keystroke_t	t	n/a
383.219	0.113	766438	keystroke_e	e	n/a
383.4195	0.168	766839	keystroke_d	d	n/a
383.5635	0.1035	767127	keystroke_Key.space	Key.space	n/a
383.8835	0.0885	767767	keystroke_u	u	n/a
384.0515	0.096	768103	keystroke_n	n	n/a
384.172	0.1115	768344	keystroke_i	i	n/a
384.2755	0.12	768551	keystroke_q	q	n/a
384.4195	0.0805	768839	keystroke_u	u	n/a
384.5315	0.16	769063	keystroke_e	e	n/a
384.6995	0.136	769399	keystroke_Key.space	Key.space	n/a
384.8435	0.088	769687	keystroke_t	t	n/a
385.2995	0.08	770599	keystroke_u	u	n/a
385.4915	0.048	770983	keystroke_b	b	n/a
385.5715	0.144	771143	keystroke_e	e	n/a
385.7155	0.111	771431	keystroke_Key.space	Key.space	n/a
386.4755	0.08	772951	keystroke_v	v	n/a
386.6195	0.104	773239	keystroke_i	i	n/a
387.4665	0.137	774933	keystroke_s	s	n/a
388.019	0.1045	776038	keystroke_Key.backspace	Key.backspace	n/a
388.172	0.1115	776344	keystroke_r	r	n/a
389.2835	0.072	778567	keystroke_u	u	n/a
389.724	0.199	779448	keystroke_s	s	n/a
389.867	0.16	779734	keystroke_e	e	n/a
391.1795	0.12	782359	keystroke_s	s	n/a
391.6115	0.112	783223	keystroke_Key.enter	Key.enter	n/a
391.7295	8.596	783459	prompt	n/a	prescribed panel hometown leading\n
392.6275	0.0725	785255	keystroke_p	p	n/a
392.6515	0.104	785303	keystroke_r	r	n/a
392.8755	0.1765	785751	keystroke_e	e	n/a
393.531	0.112	787062	keystroke_s	s	n/a
394.2995	0.088	788599	keystroke_c	c	n/a
394.5075	0.112	789015	keystroke_r	r	n/a
394.6755	0.0875	789351	keystroke_i	i	n/a
395.0835	0.0795	790167	keystroke_b	b	n/a
395.276	0.119	790552	keystroke_e	e	n/a
395.467	0.2165	790934	keystroke_d	d	n/a
395.6755	0.128	791351	keystroke_Key.space	Key.space	n/a
395.8835	0.088	791767	keystroke_p	p	n/a
396.0195	0.12	792039	keystroke_a	a	n/a
396.1155	0.096	792231	keystroke_n	n	n/a
396.4915	0.144	792983	keystroke_e	e	n/a
396.6595	0.088	793319	keystroke_l	l	n/a
396.7955	0.128	793591	keystroke_Key.space	Key.space	n/a
397.0035	0.08	794007	keystroke_h	h	n/a
397.1715	0.088	794343	keystroke_o	o	n/a
397.3475	0.08	794695	keystroke_m	m	n/a
397.3955	0.12	794791	keystroke_e	e	n/a
397.5955	0.0805	795191	keystroke_t	t	n/a
397.7075	0.08	795415	keystroke_o	o	n/a
397.8675	0.1205	795735	keystroke_w	w	n/a
397.979	0.088	795958	keystroke_n	n	n/a
398.2915	0.1275	796583	keystroke_Key.space	Key.space	n/a
398.8435	0.1035	797687	keystroke_l	l	n/a
398.948	0.135	797896	keystroke_e	e	n/a
399.075	0.1285	798150	keystroke_a	a	n/a
399.4585	0.153	798917	keystroke_d	d	n/a
399.763	0.1045	799526	keystroke_i	i	n/a
399.9315	0.0795	799863	keystroke_n	n	n/a
399.996	0.1115	799992	keystroke_g	g	n/a
400.2115	0.112	800423	keystroke_Key.enter	Key.enter	n/a
400.3295	12.5555	800659	prompt	n/a	retrieval scenic midlands hose\n
400.9475	0.1835	801895	keystroke_r	r	n/a
401.0435	0.192	802087	keystroke_e	e	n/a
401.275	0.1285	802550	keystroke_t	t	n/a
401.523	0.1125	803046	keystroke_i	i	n/a
401.5315	0.111	803063	keystroke_r	r	n/a
403.251	0.072	806502	keystroke_Key.backspace	Key.backspace	n/a
403.6115	0.0955	807223	keystroke_Key.backspace	Key.backspace	n/a
404.187	0.096	808374	keystroke_r	r	n/a
404.307	0.072	808614	keystroke_i	i	n/a
404.7395	0.104	809479	keystroke_e	e	n/a
405.0835	0.127	810167	keystroke_v	v	n/a
405.5875	0.112	811175	keystroke_a	a	n/a
405.7155	0.064	811431	keystroke_l	l	n/a
405.843	0.1525	811686	keystroke_Key.space	Key.space	n/a
406.0915	0.152	812183	keystroke_s	s	n/a
406.299	0.0965	812598	keystroke_n	n	n/a
406.4995	0.2075	812999	keystroke_c	c	n/a
406.6595	0.1435	813319	keystroke_e	e	n/a
407.059	0.072	814118	keystroke_i	i	n/a
407.6515	0.0315	815303	keystroke_Key.backspace	Key.backspace	n/a
407.7945	0.0565	815589	keystroke_Key.backspace	Key.backspace	n/a
407.9385	0.072	815877	keystroke_Key.backspace	Key.backspace	n/a
408.091	0.072	816182	keystroke_Key.backspace	Key.backspace	n/a
408.3955	0.1675	816791	keystroke_c	c	n/a
409.0275	0.0955	818055	keystroke_e	e	n/a
409.203	0.088	818406	keystroke_n	n	n/a
410.0595	0.047	820119	keystroke_i	i	n/a
410.1555	0.144	820311	keystroke_c	c	n/a
410.339	0.128	820678	keystroke_Key.space	Key.space	n/a
410.731	0.072	821462	keystroke_m	m	n/a
410.915	0.088	821830	keystroke_i	i	n/a
411.163	0.136	822326	keystroke_d	d	n/a
411.331	0.08	822662	keystroke_l	l	n/a
411.444	0.0955	822888	keystroke_a	a	n/a
411.555	0.088	823110	keystroke_n	n	n/a
411.644	0.103	823288	keystroke_d	d	n/a
411.8265	0.1445	823653	keystroke_s	s	n/a
411.9945	0.0885	823989	keystroke_Key.space	Key.space	n/a
412.075	0.112	824150	keystroke_h	h	n/a
412.291	0.072	824582	keystroke_o	o	n/a
412.339	0.176	824678	keystroke_s	s	n/a
412.459	0.168	824918	keystroke_e	e	n/a
412.7475	0.1355	825495	keystroke_Key.enter	Key.enter	n/a
412.889	10.9955	825778	prompt	n/a	casino bear blow twiki\n
413.587	0.096	827174	keystroke_c	c	n/a
413.8265	0.1525	827653	keystroke_a	a	n/a
414.0505	0.136	828101	keystroke_s	s	n/a
414.2185	0.096	828437	keystroke_i	i	n/a
414.5385	0.105	829077	keystroke_n	n	n/a
414.7475	0.0715	829495	keystroke_o	o	n/a
415.0025	0.1285	830005	keystroke_Key.space	Key.space	n/a
415.4035	0.104	830807	keystroke_e	e	n/a
415.7865	0.081	831573	keystroke_Key.backspace	Key.backspace	n/a
416.0185	0.105	832037	keystroke_b	b	n/a
416.3065	0.144	832613	keystroke_e	e	n/a
416.6425	0.16	833285	keystroke_a	a	n/a
416.8665	0.1445	833733	keystroke_r	r	n/a
417.0025	0.1445	834005	keystroke_Key.space	Key.space	n/a
417.195	0.0645	834390	keystroke_b	b	n/a
417.435	0.08	834870	keystroke_l	l	n/a
417.611	0.088	835222	keystroke_o	o	n/a
417.715	0.1365	835430	keystroke_w	w	n/a
417.843	0.088	835686	keystroke_Key.space	Key.space	n/a
418.1715	0.0955	836343	keystroke_w	w	n/a
420.0905	0.097	840181	keystroke_Key.backspace	Key.backspace	n/a
420.2275	0.096	840455	keystroke_t	t	n/a
420.571	0.072	841142	keystroke_i	i	n/a
420.995	0.0875	841990	keystroke_k	k	n/a
421.2355	0.071	842471	keystroke_i	i	n/a
421.651	0.088	843302	keystroke_Key.backspace	Key.backspace	n/a
421.811	0.08	843622	keystroke_Key.backspace	Key.backspace	n/a
421.955	0.088	843910	keystroke_Key.backspace	Key.backspace	n/a
422.619	0.12	845238	keystroke_w	w	n/a
422.7475	0.0785	845495	keystroke_i	i	n/a
422.9555	0.055	845911	keystroke_k	k	n/a
423.123	0.088	846246	keystroke_i	i	n/a
423.779	0.104	847558	keystroke_Key.enter	Key.enter	n/a
423.8925	11.2575	847785	prompt	n/a	ecology evans arranged malpractice\n
424.843	0.104	849686	keystroke_e	e	n/a
425.067	0.112	850134	keystroke_c	c	n/a
425.291	0.064	850582	keystroke_o	o	n/a
425.4755	0.0555	850951	keystroke_l	l	n/a
425.643	0.08	851286	keystroke_o	o	n/a
425.7875	0.0555	851575	keystroke_g	g	n/a
425.939	0.0805	851878	keystroke_y	y	n/a
426.922	0.129	853844	keystroke_Key.space	Key.space	n/a
427.123	0.1195	854246	keystroke_e	e	n/a
427.435	0.128	854870	keystroke_v	v	n/a
427.5785	0.1285	855157	keystroke_a	a	n/a
427.714	0.057	855428	keystroke_n	n	n/a
427.851	0.152	855702	keystroke_s	s	n/a
428.019	0.12	856038	keystroke_Key.space	Key.space	n/a
428.307	0.096	856614	keystroke_a	a	n/a
428.507	0.095	857014	keystroke_r	r	n/a
428.651	0.144	857302	keystroke_r	r	n/a
428.818	0.153	857636	keystroke_a	a	n/a
428.939	0.088	857878	keystroke_n	n	n/a
429.043	0.1195	858086	keystroke_g	g	n/a
429.195	0.144	858390	keystroke_e	e	n/a
429.443	0.136	858886	keystroke_d	d	n/a
430.4025	0.0885	860805	keystroke_Key.space	Key.space	n/a
430.7705	0.0885	861541	keystroke_k	k	n/a
431.347	0.1035	862694	keystroke_Key.backspace	Key.backspace	n/a
431.6275	0.0875	863255	keystroke_m	m	n/a
431.7705	0.1365	863541	keystroke_a	a	n/a
431.9145	0.088	863829	keystroke_l	l	n/a
433.235	0.072	866470	keystroke_p	p	n/a
433.379	0.136	866758	keystroke_r	r	n/a
433.563	0.128	867126	keystroke_a	a	n/a
433.827	0.072	867654	keystroke_c	c	n/a
434.099	0.12	868198	keystroke_t	t	n/a
434.3465	0.088	868693	keystroke_i	i	n/a
434.6985	0.144	869397	keystroke_c	c	n/a
434.8105	0.1605	869621	keystroke_e	e	n/a
435.051	0.0955	870102	keystroke_Key.enter	Key.enter	n/a
435.1525	7.26	870305	prompt	n/a	mustn't i correct diana\n
435.8505	0.2155	871701	keystroke_m	m	n/a
436.059	0.104	872118	keystroke_u	u	n/a
436.226	0.217	872452	keystroke_s	s	n/a
436.395	0.0875	872790	keystroke_t	t	n/a
436.874	0.065	873748	keystroke_n	n	n/a
437.315	0.063	874630	keystroke_'	'	n/a
437.459	0.104	874918	keystroke_t	t	n/a
437.683	0.136	875366	keystroke_Key.space	Key.space	n/a
438.347	0.0955	876694	keystroke_i	i	n/a
438.547	0.0955	877094	keystroke_Key.space	Key.space	n/a
438.7465	0.048	877493	keystroke_c	c	n/a
438.787	0.072	877574	keystroke_o	o	n/a
439.402	0.1285	878804	keystroke_r	r	n/a
439.5945	0.1445	879189	keystroke_r	r	n/a
439.835	0.072	879670	keystroke_r	r	n/a
440.2505	0.096	880501	keystroke_Key.backspace	Key.backspace	n/a
440.3545	0.0885	880709	keystroke_e	e	n/a
440.666	0.121	881332	keystroke_c	c	n/a
440.9865	0.1285	881973	keystroke_t	t	n/a
441.17	0.104	882340	keystroke_Key.space	Key.space	n/a
441.4425	0.1035	882885	keystroke_d	d	n/a
441.562	0.089	883124	keystroke_i	i	n/a
441.939	0.112	883878	keystroke_a	a	n/a
442.051	0.096	884102	keystroke_n	n	n/a
442.155	0.088	884310	keystroke_a	a	n/a
442.307	0.104	884614	keystroke_Key.enter	Key.enter	n/a
442.4165	7.1575	884833	prompt	n/a	deborah college fully modes\n
443.1145	0.0645	886229	keystroke_d	d	n/a
443.2745	0.1045	886549	keystroke_e	e	n/a
443.5945	0.128	887189	keystroke_b	b	n/a
443.819	0.0555	887638	keystroke_o	o	n/a
443.9065	0.096	887813	keystroke_r	r	n/a
444.0425	0.128	888085	keystroke_a	a	n/a
444.1625	0.1125	888325	keystroke_h	h	n/a
444.3385	0.104	888677	keystroke_Key.space	Key.space	n/a
446.339	0.1035	892678	keystroke_c	c	n/a
446.4745	0.0725	892949	keystroke_o	o	n/a
446.819	0.0475	893638	keystroke_l	l	n/a
446.9465	0.088	893893	keystroke_l	l	n/a
447.0425	0.144	894085	keystroke_e	e	n/a
447.1705	0.168	894341	keystroke_g	g	n/a
447.315	0.1515	894630	keystroke_e	e	n/a
447.4425	0.128	894885	keystroke_Key.space	Key.space	n/a
447.6665	0.12	895333	keystroke_f	f	n/a
447.7545	0.0875	895509	keystroke_u	u	n/a
447.971	0.047	895942	keystroke_l	l	n/a
448.099	0.0795	896198	keystroke_l	l	n/a
448.3625	0.08	896725	keystroke_y	y	n/a
448.4745	0.104	896949	keystroke_Key.space	Key.space	n/a
448.7065	0.088	897413	keystroke_m	m	n/a
448.842	0.1125	897684	keystroke_o	o	n/a
449.002	0.0805	898004	keystroke_d	d	n/a
449.1705	0.1755	898341	keystroke_e	e	n/a
449.306	0.16	898612	keystroke_s	s	n/a
449.4505	0.1195	898901	keystroke_Key.enter	Key.enter	n/a
449.5775	6.6185	899155	prompt	n/a	be horizon freeware fully\n
450.1705	0.0805	900341	keystroke_b	b	n/a
450.2425	0.168	900485	keystroke_e	e	n/a
450.3785	0.1285	900757	keystroke_Key.space	Key.space	n/a
450.5145	0.096	901029	keystroke_h	h	n/a
450.6905	0.088	901381	keystroke_o	o	n/a
450.8105	0.0805	901621	keystroke_r	r	n/a
451.0025	0.0795	902005	keystroke_i	i	n/a
451.1535	0.1375	902307	keystroke_z	z	n/a
451.426	0.073	902852	keystroke_o	o	n/a
451.626	0.08	903252	keystroke_n	n	n/a
451.7785	0.1275	903557	keystroke_Key.space	Key.space	n/a
452.01	0.136	904020	keystroke_f	f	n/a
452.291	0.104	904582	keystroke_r	r	n/a
452.7705	0.064	905541	keystroke_e	e	n/a
452.9865	0.08	905973	keystroke_e	e	n/a
453.3625	0.16	906725	keystroke_w	w	n/a
454.018	0.168	908036	keystroke_a	a	n/a
454.154	0.224	908308	keystroke_r	r	n/a
454.29	0.1445	908580	keystroke_e	e	n/a
454.386	0.1205	908772	keystroke_Key.space	Key.space	n/a
454.546	0.152	909092	keystroke_f	f	n/a
454.642	0.08	909284	keystroke_u	u	n/a
454.9865	0.08	909973	keystroke_l	l	n/a
455.1545	0.096	910309	keystroke_l	l	n/a
455.907	0.0955	911814	keystroke_y	y	n/a
456.106	0.088	912212	keystroke_Key.enter	Key.enter	n/a
456.2	13.4035	912400	prompt	n/a	coleman notebooks labs theorem\n
456.3865	0.1355	912773	keystroke_Key.space	Key.space	n/a
456.891	0.1675	913782	keystroke_c	c	n/a
457.3625	0.112	914725	keystroke_Key.backspace	Key.backspace	n/a
457.5385	0.088	915077	keystroke_Key.backspace	Key.backspace	n/a
457.9465	0.128	915893	keystroke_c	c	n/a
458.218	0.0965	916436	keystroke_o	o	n/a
458.4585	0.104	916917	keystroke_l	l	n/a
458.6825	0.128	917365	keystroke_e	e	n/a
458.8175	0.0895	917635	keystroke_m	m	n/a
458.963	0.0875	917926	keystroke_a	a	n/a
459.0505	0.088	918101	keystroke_n	n	n/a
459.2015	0.121	918403	keystroke_Key.space	Key.space	n/a
459.6745	0.0875	919349	keystroke_n	n	n/a
459.8665	0.104	919733	keystroke_o	o	n/a
460.042	0.1125	920084	keystroke_t	t	n/a
460.2825	0.128	920565	keystroke_e	e	n/a
460.7385	0.072	921477	keystroke_m	m	n/a
461.051	0.0875	922102	keystroke_=	=	n/a
461.298	0.073	922596	keystroke_b	b	n/a
461.666	0.0565	923332	keystroke_Key.backspace	Key.backspace	n/a
461.8265	0.0395	923653	keystroke_Key.backspace	Key.backspace	n/a
462.01	0.0795	924020	keystroke_Key.backspace	Key.backspace	n/a
463.202	0.072	926404	keystroke_b	b	n/a
463.411	0.079	926822	keystroke_o	o	n/a
463.562	0.072	927124	keystroke_o	o	n/a
463.7305	0.096	927461	keystroke_k	k	n/a
463.8745	0.1755	927749	keystroke_s	s	n/a
464.106	0.144	928212	keystroke_Key.space	Key.space	n/a
466.083	0.0715	932166	keystroke_l	l	n/a
466.2505	0.0875	932501	keystroke_a	a	n/a
466.4265	0.015	932853	keystroke_b	b	n/a
466.8095	0.153	933619	keystroke_s	s	n/a
466.9865	0.1275	933973	keystroke_Key.space	Key.space	n/a
467.394	0.104	934788	keystroke_t	t	n/a
467.498	0.1365	934996	keystroke_h	h	n/a
467.698	0.1205	935396	keystroke_e	e	n/a
468.034	0.0805	936068	keystroke_o	o	n/a
468.1865	0.0955	936373	keystroke_r	r	n/a
468.5305	0.104	937061	keystroke_e	e	n/a
468.698	0.1205	937396	keystroke_m	m	n/a
469.4745	0.127	938949	keystroke_Key.enter	Key.enter	n/a
469.6075	15.164	939215	prompt	n/a	screensaver regard montana copyright\n
470.2425	0.128	940485	keystroke_s	s	n/a
470.4905	0.1195	940981	keystroke_c	c	n/a
470.714	0.128	941428	keystroke_r	r	n/a
471.002	0.12	942004	keystroke_e	e	n/a
471.17	0.088	942340	keystroke_e	e	n/a
471.3065	0.104	942613	keystroke_n	n	n/a
471.546	0.2	943092	keystroke_s	s	n/a
471.73	0.1445	943460	keystroke_a	a	n/a
471.962	0.0885	943924	keystroke_v	v	n/a
472.1785	0.1995	944357	keystroke_e	e	n/a
472.338	0.144	944676	keystroke_r	r	n/a
472.506	0.1115	945012	keystroke_Key.space	Key.space	n/a
472.7625	0.191	945525	keystroke_r	r	n/a
472.8895	0.1845	945779	keystroke_e	e	n/a
473.634	0.1115	947268	keystroke_g	g	n/a
473.7935	0.2005	947587	keystroke_a	a	n/a
473.986	0.1125	947972	keystroke_r	r	n/a
474.218	0.136	948436	keystroke_d	d	n/a
474.362	0.112	948724	keystroke_Key.space	Key.space	n/a
474.6105	0.1435	949221	keystroke_m	m	n/a
474.722	0.096	949444	keystroke_o	o	n/a
474.906	0.088	949812	keystroke_n	n	n/a
475.026	0.096	950052	keystroke_t	t	n/a
475.3465	0.12	950693	keystroke_a	a	n/a
475.49	0.089	950980	keystroke_n	n	n/a
475.634	0.128	951268	keystroke_a	a	n/a
475.9855	0.105	951971	keystroke_Key.space	Key.space	n/a
476.4425	0.1035	952885	keystroke_c	c	n/a
476.586	0.0805	953172	keystroke_o	o	n/a
476.794	0.08	953588	keystroke_p	p	n/a
476.97	0.12	953940	keystroke_t	t	n/a
477.562	0.0715	955124	keystroke_Key.backspace	Key.backspace	n/a
479.8025	0.08	959605	keystroke_y	y	n/a
483.0745	0.1355	966149	keystroke_r	r	n/a
483.218	0.088	966436	keystroke_i	i	n/a
483.433	0.088	966866	keystroke_g	g	n/a
483.53	0.1115	967060	keystroke_h	h	n/a
483.9215	0.1125	967843	keystroke_t	t	n/a
484.6335	0.136	969267	keystroke_Key.enter	Key.enter	n/a
484.776	8.6355	969552	prompt	n/a	certification personals continent desktop\n
485.442	0.1275	970884	keystroke_c	c	n/a
485.6895	0.16	971379	keystroke_e	e	n/a
485.794	0.1045	971588	keystroke_r	r	n/a
485.9935	0.113	971987	keystroke_t	t	n/a
486.25	0.104	972500	keystroke_i	i	n/a
486.722	0.088	973444	keystroke_f	f	n/a
486.866	0.087	973732	keystroke_i	i	n/a
486.961	0.1215	973922	keystroke_c	c	n/a
487.0825	0.1675	974165	keystroke_a	a	n/a
487.258	0.1285	974516	keystroke_t	t	n/a
487.362	0.16	974724	keystroke_i	i	n/a
487.4425	0.1515	974885	keystroke_o	o	n/a
487.658	0.072	975316	keystroke_n	n	n/a
487.745	0.089	975490	keystroke_Key.space	Key.space	n/a
487.9465	0.088	975893	keystroke_p	p	n/a
488.0665	0.1355	976133	keystroke_e	e	n/a
488.146	0.0965	976292	keystroke_r	r	n/a
488.314	0.104	976628	keystroke_s	s	n/a
488.41	0.072	976820	keystroke_o	o	n/a
488.57	0.088	977140	keystroke_n	n	n/a
488.722	0.112	977444	keystroke_a	a	n/a
488.85	0.088	977700	keystroke_l	l	n/a
488.986	0.136	977972	keystroke_s	s	n/a
489.489	0.113	978978	keystroke_Key.space	Key.space	n/a
489.7305	0.087	979461	keystroke_c	c	n/a
489.8415	0.072	979683	keystroke_o	o	n/a
490.282	0.08	980564	keystroke_n	n	n/a
490.5305	0.12	981061	keystroke_t	t	n/a
490.666	0.072	981332	keystroke_i	i	n/a
490.858	0.08	981716	keystroke_n	n	n/a
490.946	0.151	981892	keystroke_e	e	n/a
491.058	0.08	982116	keystroke_n	n	n/a
491.161	0.081	982322	keystroke_t	t	n/a
491.426	0.103	982852	keystroke_Key.space	Key.space	n/a
491.938	0.064	983876	keystroke_d	d	n/a
492.114	0.1275	984228	keystroke_e	e	n/a
492.2255	0.128	984451	keystroke_s	s	n/a
492.3775	0.0885	984755	keystroke_k	k	n/a
492.714	0.096	985428	keystroke_t	t	n/a
492.89	0.1995	985780	keystroke_o	o	n/a
493.0105	0.151	986021	keystroke_p	p	n/a
493.282	0.1275	986564	keystroke_Key.enter	Key.enter	n/a
493.4215	6.55	986843	prompt	n/a	strictly cotton consoles craps\n
493.9935	0.1125	987987	keystroke_s	s	n/a
494.274	0.104	988548	keystroke_t	t	n/a
494.466	0.088	988932	keystroke_r	r	n/a
494.634	0.08	989268	keystroke_i	i	n/a
494.778	0.104	989556	keystroke_c	c	n/a
495.066	0.1195	990132	keystroke_t	t	n/a
495.2575	0.08	990515	keystroke_l	l	n/a
495.3775	0.105	990755	keystroke_y	y	n/a
495.6735	0.088	991347	keystroke_Key.space	Key.space	n/a
496.114	0.08	992228	keystroke_c	c	n/a
496.21	0.072	992420	keystroke_o	o	n/a
496.418	0.072	992836	keystroke_t	t	n/a
496.5615	0.088	993123	keystroke_t	t	n/a
496.6575	0.0645	993315	keystroke_o	o	n/a
496.8175	0.08	993635	keystroke_n	n	n/a
496.9615	0.088	993923	keystroke_Key.space	Key.space	n/a
497.2415	0.081	994483	keystroke_c	c	n/a
497.338	0.0795	994676	keystroke_o	o	n/a
497.498	0.0715	994996	keystroke_n	n	n/a
497.5945	0.1275	995189	keystroke_s	s	n/a
497.762	0.1035	995524	keystroke_o	o	n/a
497.954	0.1035	995908	keystroke_l	l	n/a
498.074	0.1435	996148	keystroke_e	e	n/a
498.194	0.1515	996388	keystroke_s	s	n/a
498.3615	0.0805	996723	keystroke_Key.space	Key.space	n/a
498.5615	0.104	997123	keystroke_c	c	n/a
498.8335	0.152	997667	keystroke_r	r	n/a
499.202	0.1195	998404	keystroke_a	a	n/a
499.466	0.0645	998932	keystroke_p	p	n/a
499.594	0.12	999188	keystroke_s	s	n/a
499.866	0.104	999732	keystroke_Key.enter	Key.enter	n/a
499.9755	7.02	999951	prompt	n/a	container deck marina wrapped\n
500.57	0.1125	1001140	keystroke_c	c	n/a
500.6905	0.0635	1001381	keystroke_o	o	n/a
500.8495	0.0885	1001699	keystroke_n	n	n/a
500.969	0.081	1001938	keystroke_t	t	n/a
501.185	0.137	1002370	keystroke_a	a	n/a
501.322	0.056	1002644	keystroke_i	i	n/a
501.458	0.08	1002916	keystroke_n	n	n/a
501.5455	0.1525	1003091	keystroke_e	e	n/a
501.642	0.1365	1003284	keystroke_r	r	n/a
501.97	0.1115	1003940	keystroke_Key.space	Key.space	n/a
502.2735	0.0965	1004547	keystroke_d	d	n/a
502.4895	0.08	1004979	keystroke_e	e	n/a
502.738	0.1355	1005476	keystroke_c	c	n/a
502.906	0.088	1005812	keystroke_k	k	n/a
503.1055	0.0885	1006211	keystroke_Key.space	Key.space	n/a
503.554	0.1035	1007108	keystroke_m	m	n/a
503.7215	0.12	1007443	keystroke_a	a	n/a
503.9055	0.1205	1007811	keystroke_r	r	n/a
504.0335	0.081	1008067	keystroke_i	i	n/a
504.1855	0.0885	1008371	keystroke_n	n	n/a
504.266	0.1355	1008532	keystroke_a	a	n/a
504.4335	0.1205	1008867	keystroke_Key.space	Key.space	n/a
504.746	0.048	1009492	keystroke_w	w	n/a
505.114	0.088	1010228	keystroke_r	r	n/a
505.426	0.112	1010852	keystroke_a	a	n/a
505.594	0.04	1011188	keystroke_p	p	n/a
505.722	0.064	1011444	keystroke_p	p	n/a
505.826	0.136	1011652	keystroke_e	e	n/a
505.922	0.136	1011844	keystroke_r	r	n/a
506.402	0.1035	1012804	keystroke_Key.backspace	Key.backspace	n/a
506.618	0.112	1013236	keystroke_d	d	n/a
506.882	0.112	1013764	keystroke_Key.enter	Key.enter	n/a
507.0005	6.116	1014001	prompt	n/a	dollar taxes price minimize\n
507.5375	0.1115	1015075	keystroke_d	d	n/a
507.682	0.0795	1015364	keystroke_o	o	n/a
507.8495	0.072	1015699	keystroke_l	l	n/a
507.986	0.0875	1015972	keystroke_l	l	n/a
508.4015	0.1125	1016803	keystroke_a	a	n/a
508.57	0.16	1017140	keystroke_r	r	n/a
508.738	0.1355	1017476	keystroke_Key.space	Key.space	n/a
508.905	0.112	1017810	keystroke_t	t	n/a
509.121	0.088	1018242	keystroke_a	a	n/a
509.497	0.185	1018994	keystroke_x	x	n/a
509.8175	0.1915	1019635	keystroke_e	e	n/a
509.986	0.1675	1019972	keystroke_s	s	n/a
510.1695	0.104	1020339	keystroke_Key.space	Key.space	n/a
510.362	0.1115	1020724	keystroke_p	p	n/a
510.4815	0.0885	1020963	keystroke_r	r	n/a
510.6015	0.104	1021203	keystroke_i	i	n/a
510.7455	0.128	1021491	keystroke_c	c	n/a
510.874	0.1915	1021748	keystroke_e	e	n/a
511.0655	0.1115	1022131	keystroke_Key.space	Key.space	n/a
511.529	0.201	1023058	keystroke_m	m	n/a
511.697	0.088	1023394	keystroke_i	i	n/a
511.978	0.208	1023956	keystroke_n	n	n/a
512.106	0.1355	1024212	keystroke_i	i	n/a
512.418	0.175	1024836	keystroke_m	m	n/a
512.578	0.096	1025156	keystroke_i	i	n/a
512.657	0.169	1025314	keystroke_z	z	n/a
512.81	0.152	1025620	keystroke_e	e	n/a
512.978	0.136	1025956	keystroke_Key.enter	Key.enter	n/a
513.121	10.4185	1026242	prompt	n/a	where'd henderson above potter\n
513.706	0.144	1027412	keystroke_w	w	n/a
513.8345	0.0955	1027669	keystroke_h	h	n/a
513.946	0.12	1027892	keystroke_e	e	n/a
514.034	0.1515	1028068	keystroke_r	r	n/a
514.1455	0.12	1028291	keystroke_e	e	n/a
514.9055	0.1125	1029811	keystroke_'	'	n/a
515.114	0.168	1030228	keystroke_s	s	n/a
515.297	0.112	1030594	keystroke_Key.space	Key.space	n/a
515.674	0.1035	1031348	keystroke_h	h	n/a
515.9775	0.1275	1031955	keystroke_e	e	n/a
516.113	0.089	1032226	keystroke_n	n	n/a
516.4335	0.0965	1032867	keystroke_d	d	n/a
516.6415	0.1765	1033283	keystroke_e	e	n/a
516.7695	0.1125	1033539	keystroke_r	r	n/a
516.9375	0.112	1033875	keystroke_s	s	n/a
517.0335	0.072	1034067	keystroke_o	o	n/a
517.2175	0.048	1034435	keystroke_n	n	n/a
517.2735	0.096	1034547	keystroke_Key.space	Key.space	n/a
518.146	0.103	1036292	keystroke_a	a	n/a
518.33	0.0795	1036660	keystroke_b	b	n/a
518.922	0.056	1037844	keystroke_o	o	n/a
519.002	0.088	1038004	keystroke_v	v	n/a
519.178	0.168	1038356	keystroke_e	e	n/a
519.361	0.113	1038722	keystroke_Key.space	Key.space	n/a
519.578	0.0875	1039156	keystroke_p	p	n/a
520.0175	0.096	1040035	keystroke_o	o	n/a
520.69	0.0635	1041380	keystroke_t	t	n/a
520.858	0.088	1041716	keystroke_t	t	n/a
521.018	0.1675	1042036	keystroke_e	e	n/a
521.1295	0.12	1042259	keystroke_r	r	n/a
523.417	0.12	1046834	keystroke_Key.enter	Key.enter	n/a
523.5465	7.0085	1047093	prompt	n/a	enormous client allow newfoundland\n
524.2015	0.064	1048403	keystroke_e	e	n/a
524.338	0.08	1048676	keystroke_n	n	n/a
524.5695	0.0805	1049139	keystroke_o	o	n/a
524.6655	0.112	1049331	keystroke_r	r	n/a
524.8655	0.136	1049731	keystroke_m	m	n/a
525.0175	0.2	1050035	keystroke_o	o	n/a
525.2015	0.104	1050403	keystroke_u	u	n/a
525.3135	0.152	1050627	keystroke_s	s	n/a
525.4495	0.12	1050899	keystroke_Key.space	Key.space	n/a
525.993	0.0885	1051986	keystroke_c	c	n/a
526.1775	0.152	1052355	keystroke_l	l	n/a
526.2815	0.1285	1052563	keystroke_i	i	n/a
526.4735	0.1285	1052947	keystroke_e	e	n/a
526.706	0.0955	1053412	keystroke_n	n	n/a
526.8495	0.1205	1053699	keystroke_t	t	n/a
526.9615	0.096	1053923	keystroke_Key.space	Key.space	n/a
527.2015	0.104	1054403	keystroke_a	a	n/a
527.3215	0.088	1054643	keystroke_l	l	n/a
527.45	0.0715	1054900	keystroke_l	l	n/a
527.658	0.063	1055316	keystroke_o	o	n/a
527.7295	0.152	1055459	keystroke_w	w	n/a
527.8655	0.088	1055731	keystroke_Key.space	Key.space	n/a
527.985	0.089	1055970	keystroke_n	n	n/a
528.097	0.193	1056194	keystroke_e	e	n/a
528.226	0.151	1056452	keystroke_w	w	n/a
528.721	0.089	1057442	keystroke_f	f	n/a
528.953	0.224	1057906	keystroke_o	o	n/a
529.1375	0.0875	1058275	keystroke_u	u	n/a
529.4175	0.0875	1058835	keystroke_n	n	n/a
529.65	0.1355	1059300	keystroke_d	d	n/a
529.945	0.08	1059890	keystroke_l	l	n/a
530.0575	0.104	1060115	keystroke_a	a	n/a
530.169	0.088	1060338	keystroke_n	n	n/a
530.249	0.1205	1060498	keystroke_d	d	n/a
530.4655	0.088	1060931	keystroke_Key.enter	Key.enter	n/a
530.559	10.3315	1061118	prompt	n/a	woman tournament marc green\n
531.1615	0.056	1062323	keystroke_a	a	n/a
531.529	0.0965	1063058	keystroke_Key.backspace	Key.backspace	n/a
531.657	0.112	1063314	keystroke_w	w	n/a
531.817	0.056	1063634	keystroke_o	o	n/a
532.0655	0.096	1064131	keystroke_m	m	n/a
532.2815	0.096	1064563	keystroke_a	a	n/a
532.3855	0.08	1064771	keystroke_n	n	n/a
532.5215	0.088	1065043	keystroke_Key.space	Key.space	n/a
532.7375	0.088	1065475	keystroke_h	h	n/a
533.1455	0.12	1066291	keystroke_t	t	n/a
533.3935	0.064	1066787	keystroke_o	o	n/a
533.8495	0.0795	1067699	keystroke_Key.backspace	Key.backspace	n/a
534.0325	0.048	1068065	keystroke_Key.backspace	Key.backspace	n/a
534.441	0.0885	1068882	keystroke_Key.backspace	Key.backspace	n/a
534.6175	0.104	1069235	keystroke_t	t	n/a
534.8895	0.2085	1069779	keystroke_o	o	n/a
535.0415	0.12	1070083	keystroke_u	u	n/a
535.241	0.089	1070482	keystroke_r	r	n/a
535.497	0.096	1070994	keystroke_n	n	n/a
535.6335	0.1115	1071267	keystroke_a	a	n/a
535.962	0.0875	1071924	keystroke_m	m	n/a
536.0575	0.128	1072115	keystroke_e	e	n/a
536.1775	0.08	1072355	keystroke_n	n	n/a
536.2735	0.088	1072547	keystroke_t	t	n/a
536.4815	0.096	1072963	keystroke_Key.space	Key.space	n/a
537.1855	0.064	1074371	keystroke_m	m	n/a
537.257	0.1285	1074514	keystroke_a	a	n/a
537.4895	0.104	1074979	keystroke_r	r	n/a
537.801	0.112	1075602	keystroke_c	c	n/a
538.217	0.1365	1076434	keystroke_Key.space	Key.space	n/a
538.393	0.104	1076786	keystroke_g	g	n/a
538.753	0.1355	1077506	keystroke_e	e	n/a
539.0415	0.0875	1078083	keystroke_e	e	n/a
539.4575	0.0795	1078915	keystroke_Key.backspace	Key.backspace	n/a
539.633	0.08	1079266	keystroke_Key.backspace	Key.backspace	n/a
539.761	0.088	1079522	keystroke_r	r	n/a
540.0575	0.12	1080115	keystroke_e	e	n/a
540.2575	0.112	1080515	keystroke_e	e	n/a
540.4655	0.088	1080931	keystroke_n	n	n/a
540.7615	0.1275	1081523	keystroke_Key.enter	Key.enter	n/a
540.8945	12.068	1081789	prompt	n/a	solve budapest catherine karma\n
541.537	0.136	1083074	keystroke_s	s	n/a
541.625	0.08	1083250	keystroke_o	o	n/a
541.841	0.1125	1083682	keystroke_l	l	n/a
541.977	0.208	1083954	keystroke_v	v	n/a
542.2095	0.1835	1084419	keystroke_e	e	n/a
542.401	0.1045	1084802	keystroke_Key.space	Key.space	n/a
543.121	0.176	1086242	keystroke_b	b	n/a
543.241	0.1125	1086482	keystroke_u	u	n/a
543.497	0.136	1086994	keystroke_d	d	n/a
543.8255	0.0875	1087651	keystroke_a	a	n/a
544.113	0.08	1088226	keystroke_p	p	n/a
544.385	0.152	1088770	keystroke_e	e	n/a
544.5055	0.1995	1089011	keystroke_s	s	n/a
544.713	0.1285	1089426	keystroke_t	t	n/a
544.849	0.12	1089698	keystroke_Key.space	Key.space	n/a
545.1525	0.065	1090305	keystroke_c	c	n/a
545.3535	0.12	1090707	keystroke_a	a	n/a
545.5535	0.1355	1091107	keystroke_t	t	n/a
548.4965	0.089	1096993	keystroke_h	h	n/a
548.7055	0.184	1097411	keystroke_e	e	n/a
548.8335	0.104	1097667	keystroke_r	r	n/a
548.9855	0.088	1097971	keystroke_i	i	n/a
549.1615	0.072	1098323	keystroke_n	n	n/a
549.2495	0.16	1098499	keystroke_e	e	n/a
549.4175	0.0955	1098835	keystroke_Key.space	Key.space	n/a
549.601	0.088	1099202	keystroke_k	k	n/a
549.7215	0.1515	1099443	keystroke_a	a	n/a
549.8735	0.1195	1099747	keystroke_r	r	n/a
550.1125	0.089	1100225	keystroke_a	a	n/a
550.6005	0.1045	1101201	keystroke_Key.backspace	Key.backspace	n/a
551.1205	0.1045	1102241	keystroke_m	m	n/a
551.2725	0.136	1102545	keystroke_a	a	n/a
552.857	0.104	1105714	keystroke_Key.enter	Key.enter	n/a
552.9655	6.445	1105931	prompt	n/a	tent equal fees introduces\n
553.737	0.1125	1107474	keystroke_t	t	n/a
553.8975	0.143	1107795	keystroke_e	e	n/a
553.9775	0.095	1107955	keystroke_n	n	n/a
554.601	0.1035	1109202	keystroke_t	t	n/a
554.817	0.096	1109634	keystroke_Key.space	Key.space	n/a
555.2335	0.1275	1110467	keystroke_e	e	n/a
555.617	0.1435	1111234	keystroke_q	q	n/a
556.017	0.1045	1112034	keystroke_u	u	n/a
556.2005	0.1365	1112401	keystroke_a	a	n/a
556.3295	0.072	1112659	keystroke_l	l	n/a
556.457	0.1045	1112914	keystroke_Key.space	Key.space	n/a
556.625	0.096	1113250	keystroke_f	f	n/a
556.817	0.096	1113634	keystroke_e	e	n/a
557.001	0.0805	1114002	keystroke_e	e	n/a
557.177	0.136	1114354	keystroke_s	s	n/a
557.393	0.0795	1114786	keystroke_Key.space	Key.space	n/a
557.6415	0.0955	1115283	keystroke_i	i	n/a
557.833	0.0645	1115666	keystroke_n	n	n/a
557.945	0.12	1115890	keystroke_t	t	n/a
558.161	0.112	1116322	keystroke_r	r	n/a
558.297	0.088	1116594	keystroke_o	o	n/a
558.537	0.1045	1117074	keystroke_d	d	n/a
558.625	0.0805	1117250	keystroke_u	u	n/a
558.769	0.16	1117538	keystroke_c	c	n/a
558.937	0.176	1117874	keystroke_e	e	n/a
559.0735	0.16	1118147	keystroke_s	s	n/a
559.2965	0.112	1118593	keystroke_Key.enter	Key.enter	n/a
559.4145	13.508	1118829	prompt	n/a	oriental necessarily korea same\n
560.025	0.0965	1120050	keystroke_o	o	n/a
560.129	0.104	1120258	keystroke_r	r	n/a
560.297	0.0805	1120594	keystroke_i	i	n/a
560.433	0.1115	1120866	keystroke_t	t	n/a
560.633	0.104	1121266	keystroke_n	n	n/a
561.241	0.0795	1122482	keystroke_Key.backspace	Key.backspace	n/a
561.385	0.0955	1122770	keystroke_Key.backspace	Key.backspace	n/a
564.0655	0.1755	1128131	keystroke_e	e	n/a
564.369	0.0955	1128738	keystroke_n	n	n/a
564.5855	0.111	1129171	keystroke_t	t	n/a
564.833	0.136	1129666	keystroke_a	a	n/a
564.977	0.0635	1129954	keystroke_l	l	n/a
565.1445	0.12	1130289	keystroke_Key.space	Key.space	n/a
565.4895	0.1035	1130979	keystroke_n	n	n/a
565.601	0.112	1131202	keystroke_e	e	n/a
565.849	0.136	1131698	keystroke_c	c	n/a
566.1925	0.0965	1132385	keystroke_e	e	n/a
566.449	0.0875	1132898	keystroke_s	s	n/a
566.8085	0.1125	1133617	keystroke_a	a	n/a
567.3205	0.088	1134641	keystroke_Key.backspace	Key.backspace	n/a
567.8965	0.113	1135793	keystroke_s	s	n/a
568.257	0.12	1136514	keystroke_a	a	n/a
568.505	0.144	1137010	keystroke_r	r	n/a
568.873	0.208	1137746	keystroke_i	i	n/a
569.017	0.16	1138034	keystroke_l	l	n/a
569.201	0.152	1138402	keystroke_y	y	n/a
569.3925	0.1285	1138785	keystroke_Key.space	Key.space	n/a
569.7205	0.0885	1139441	keystroke_k	k	n/a
569.905	0.0715	1139810	keystroke_o	o	n/a
569.961	0.1515	1139922	keystroke_r	r	n/a
570.041	0.1435	1140082	keystroke_e	e	n/a
570.3285	0.1365	1140657	keystroke_a	a	n/a
570.5525	0.1285	1141105	keystroke_Key.space	Key.space	n/a
570.8485	0.1595	1141697	keystroke_s	s	n/a
571.041	0.095	1142082	keystroke_a	a	n/a
571.2	0.088	1142400	keystroke_m	m	n/a
571.352	0.0885	1142704	keystroke_e	e	n/a
572.785	0.1355	1145570	keystroke_Key.enter	Key.enter	n/a
572.9255	7.349	1145851	prompt	n/a	named religion tear constraints\n
573.5205	0.0955	1147041	keystroke_n	n	n/a
573.608	0.137	1147216	keystroke_a	a	n/a
573.737	0.0875	1147474	keystroke_m	m	n/a
573.8085	0.1755	1147617	keystroke_e	e	n/a
574.081	0.1595	1148162	keystroke_d	d	n/a
574.2485	0.0965	1148497	keystroke_Key.space	Key.space	n/a
574.409	0.151	1148818	keystroke_r	r	n/a
574.505	0.16	1149010	keystroke_e	e	n/a
574.673	0.192	1149346	keystroke_l	l	n/a
574.793	0.096	1149586	keystroke_i	i	n/a
574.897	0.112	1149794	keystroke_g	g	n/a
575.089	0.224	1150178	keystroke_i	i	n/a
575.233	0.128	1150466	keystroke_o	o	n/a
575.4405	0.0965	1150881	keystroke_n	n	n/a
575.5845	0.128	1151169	keystroke_Key.space	Key.space	n/a
575.8805	0.12	1151761	keystroke_r	r	n/a
576.3525	0.104	1152705	keystroke_Key.backspace	Key.backspace	n/a
576.4805	0.1365	1152961	keystroke_t	t	n/a
576.6485	0.1925	1153297	keystroke_e	e	n/a
576.8245	0.1605	1153649	keystroke_a	a	n/a
577.113	0.16	1154226	keystroke_r	r	n/a
577.3205	0.112	1154641	keystroke_Key.space	Key.space	n/a
577.585	0.1035	1155170	keystroke_c	c	n/a
577.6725	0.04	1155345	keystroke_o	o	n/a
577.849	0.0875	1155698	keystroke_n	n	n/a
578.0485	0.1365	1156097	keystroke_s	s	n/a
578.9685	0.0565	1157937	keystroke_t	t	n/a
579.161	0.1035	1158322	keystroke_r	r	n/a
579.2805	0.152	1158561	keystroke_a	a	n/a
579.4965	0.0965	1158993	keystroke_i	i	n/a
579.689	0.08	1159378	keystroke_n	n	n/a
579.769	0.112	1159538	keystroke_t	t	n/a
579.945	0.1355	1159890	keystroke_s	s	n/a
580.144	0.128	1160288	keystroke_Key.enter	Key.enter	n/a
580.2785	7.107	1160557	prompt	n/a	reduced so're cite incentives\n
580.8565	0.096	1161713	keystroke_t	t	n/a
581.1765	0.104	1162353	keystroke_Key.backspace	Key.backspace	n/a
581.3045	0.096	1162609	keystroke_r	r	n/a
581.6005	0.1045	1163201	keystroke_e	e	n/a
581.849	0.1115	1163698	keystroke_d	d	n/a
581.977	0.071	1163954	keystroke_u	u	n/a
582.0965	0.16	1164193	keystroke_c	c	n/a
582.249	0.144	1164498	keystroke_e	e	n/a
582.4885	0.1525	1164977	keystroke_d	d	n/a
582.648	0.096	1165296	keystroke_Key.space	Key.space	n/a
583.096	0.128	1166192	keystroke_s	s	n/a
583.241	0.039	1166482	keystroke_o	o	n/a
583.977	0.08	1167954	keystroke_'	'	n/a
584.088	0.136	1168176	keystroke_r	r	n/a
584.1845	0.16	1168369	keystroke_e	e	n/a
584.7525	0.096	1169505	keystroke_Key.space	Key.space	n/a
584.9365	0.0955	1169873	keystroke_c	c	n/a
585.049	0.055	1170098	keystroke_i	i	n/a
585.392	0.104	1170784	keystroke_t	t	n/a
585.5765	0.1595	1171153	keystroke_e	e	n/a
585.696	0.1285	1171392	keystroke_Key.space	Key.space	n/a
585.848	0.081	1171696	keystroke_i	i	n/a
586.008	0.0725	1172016	keystroke_n	n	n/a
586.0815	0.135	1172163	keystroke_c	c	n/a
586.209	0.1355	1172418	keystroke_e	e	n/a
586.3205	0.0805	1172641	keystroke_n	n	n/a
586.465	0.096	1172930	keystroke_t	t	n/a
586.5685	0.08	1173137	keystroke_i	i	n/a
586.7205	0.16	1173441	keystroke_v	v	n/a
586.8815	0.183	1173763	keystroke_e	e	n/a
587.0325	0.1525	1174065	keystroke_s	s	n/a
587.2965	0.088	1174593	keystroke_Key.enter	Key.enter	n/a
587.388	6.1185	1174776	prompt	n/a	pants personals branches role\n
587.969	0.0875	1175938	keystroke_p	p	n/a
588.0575	0.151	1176115	keystroke_a	a	n/a
588.1845	0.104	1176369	keystroke_n	n	n/a
588.2805	0.096	1176561	keystroke_t	t	n/a
588.4565	0.1365	1176913	keystroke_s	s	n/a
588.6405	0.104	1177281	keystroke_Key.space	Key.space	n/a
589.1525	0.0885	1178305	keystroke_p	p	n/a
589.2725	0.144	1178545	keystroke_e	e	n/a
589.3605	0.088	1178721	keystroke_r	r	n/a
589.5125	0.1285	1179025	keystroke_s	s	n/a
589.593	0.064	1179186	keystroke_o	o	n/a
589.7365	0.072	1179473	keystroke_n	n	n/a
589.8005	0.088	1179601	keystroke_a	a	n/a
589.944	0.08	1179888	keystroke_l	l	n/a
590.0725	0.136	1180145	keystroke_s	s	n/a
590.3845	0.12	1180769	keystroke_Key.space	Key.space	n/a
590.649	0.0795	1181298	keystroke_b	b	n/a
590.8325	0.1115	1181665	keystroke_r	r	n/a
590.992	0.112	1181984	keystroke_a	a	n/a
591.105	0.08	1182210	keystroke_n	n	n/a
591.265	0.1355	1182530	keystroke_c	c	n/a
592.1045	0.1205	1184209	keystroke_h	h	n/a
592.2725	0.208	1184545	keystroke_e	e	n/a
592.401	0.1515	1184802	keystroke_s	s	n/a
592.5605	0.16	1185121	keystroke_Key.space	Key.space	n/a
592.713	0.1435	1185426	keystroke_r	r	n/a
592.8245	0.08	1185649	keystroke_o	o	n/a
593.0325	0.0635	1186065	keystroke_l	l	n/a
593.1685	0.1205	1186337	keystroke_e	e	n/a
593.4325	0.072	1186865	keystroke_Key.enter	Key.enter	n/a
593.511	9.147	1187022	prompt	n/a	moisture unemployment friends forecasts\n
594.1605	0.1915	1188321	keystroke_m	m	n/a
594.5365	0.0725	1189073	keystroke_o	o	n/a
594.8005	0.0875	1189601	keystroke_i	i	n/a
594.968	0.1445	1189936	keystroke_s	s	n/a
595.152	0.104	1190304	keystroke_t	t	n/a
595.312	0.088	1190624	keystroke_u	u	n/a
595.4245	0.176	1190849	keystroke_r	r	n/a
595.52	0.1205	1191040	keystroke_e	e	n/a
595.6325	0.08	1191265	keystroke_Key.space	Key.space	n/a
595.832	0.112	1191664	keystroke_u	u	n/a
596.056	0.073	1192112	keystroke_n	n	n/a
596.624	0.112	1193248	keystroke_e	e	n/a
596.744	0.088	1193488	keystroke_m	m	n/a
596.944	0.096	1193888	keystroke_p	p	n/a
597.1765	0.08	1194353	keystroke_l	l	n/a
597.4	0.08	1194800	keystroke_o	o	n/a
597.648	0.096	1195296	keystroke_y	y	n/a
597.784	0.096	1195568	keystroke_m	m	n/a
597.888	0.1285	1195776	keystroke_e	e	n/a
597.9925	0.0885	1195985	keystroke_n	n	n/a
598.0965	0.112	1196193	keystroke_t	t	n/a
598.2485	0.08	1196497	keystroke_Key.space	Key.space	n/a
598.553	0.1515	1197106	keystroke_f	f	n/a
598.6805	0.152	1197361	keystroke_r	r	n/a
598.8165	0.096	1197633	keystroke_i	i	n/a
598.9595	0.121	1197919	keystroke_e	e	n/a
599.0165	0.096	1198033	keystroke_n	n	n/a
599.2005	0.16	1198401	keystroke_d	d	n/a
599.352	0.1925	1198704	keystroke_s	s	n/a
599.6235	0.097	1199247	keystroke_Key.space	Key.space	n/a
599.8565	0.12	1199713	keystroke_f	f	n/a
599.9525	0.08	1199905	keystroke_o	o	n/a
600.8005	0.176	1201601	keystroke_r	r	n/a
600.9115	0.129	1201823	keystroke_e	e	n/a
601.2165	0.1835	1202433	keystroke_c	c	n/a
601.408	0.184	1202816	keystroke_a	a	n/a
601.5925	0.296	1203185	keystroke_s	s	n/a
601.8485	0.1355	1203697	keystroke_t	t	n/a
602.32	0.12	1204640	keystroke_s	s	n/a
602.5445	0.112	1205089	keystroke_Key.enter	Key.enter	n/a
602.662	12.1635	1205324	prompt	n/a	intake haven't britannica rings\n
603.3125	0.0955	1206625	keystroke_i	i	n/a
603.456	0.112	1206912	keystroke_n	n	n/a
603.616	0.1285	1207232	keystroke_t	t	n/a
603.769	0.119	1207538	keystroke_a	a	n/a
603.848	0.088	1207696	keystroke_k	k	n/a
603.984	0.16	1207968	keystroke_e	e	n/a
604.12	0.128	1208240	keystroke_Key.space	Key.space	n/a
604.5365	0.1195	1209073	keystroke_h	h	n/a
604.672	0.096	1209344	keystroke_a	a	n/a
604.792	0.0635	1209584	keystroke_v	v	n/a
604.896	0.128	1209792	keystroke_e	e	n/a
605.1355	0.056	1210271	keystroke_n	n	n/a
605.7685	0.072	1211537	keystroke_'	'	n/a
605.9445	0.0795	1211889	keystroke_t	t	n/a
606.768	0.128	1213536	keystroke_Key.space	Key.space	n/a
607.1605	0.0795	1214321	keystroke_b	b	n/a
607.288	0.104	1214576	keystroke_r	r	n/a
607.3765	0.0795	1214753	keystroke_i	i	n/a
608.6	0.096	1217200	keystroke_t	t	n/a
608.92	0.12	1217840	keystroke_a	a	n/a
609.041	0.087	1218082	keystroke_n	n	n/a
609.36	0.064	1218720	keystroke_n	n	n/a
609.5595	0.056	1219119	keystroke_i	i	n/a
609.6235	0.113	1219247	keystroke_c	c	n/a
609.7195	0.152	1219439	keystroke_a	a	n/a
609.896	0.12	1219792	keystroke_Key.space	Key.space	n/a
610.3205	0.111	1220641	keystroke_r	r	n/a
610.4165	0.0715	1220833	keystroke_i	i	n/a
610.5595	0.081	1221119	keystroke_n	n	n/a
610.648	0.0715	1221296	keystroke_g	g	n/a
610.88	0.1205	1221760	keystroke_s	s	n/a
614.6965	0.128	1229393	keystroke_Key.enter	Key.enter	n/a
614.831	15.1385	1229662	prompt	n/a	jail baskets least statements\n
615.416	0.104	1230832	keystroke_j	j	n/a
615.592	0.12	1231184	keystroke_a	a	n/a
615.728	0.192	1231456	keystroke_i	i	n/a
615.872	0.136	1231744	keystroke_l	l	n/a
616.072	0.112	1232144	keystroke_Key.space	Key.space	n/a
617.1285	0.0875	1234257	keystroke_b	b	n/a
617.232	0.112	1234464	keystroke_a	a	n/a
617.408	0.128	1234816	keystroke_s	s	n/a
617.536	0.08	1235072	keystroke_k	k	n/a
617.7285	0.1195	1235457	keystroke_t	t	n/a
617.88	0.1275	1235760	keystroke_e	e	n/a
618.0875	0.0965	1236175	keystroke_d	d	n/a
618.608	0.0875	1237216	keystroke_Key.backspace	Key.backspace	n/a
618.9445	0.144	1237889	keystroke_s	s	n/a
619.2165	0.0875	1238433	keystroke_Key.space	Key.space	n/a
619.472	0.096	1238944	keystroke_l	l	n/a
621.352	0.08	1242704	keystroke_Key.backspace	Key.backspace	n/a
621.512	0.072	1243024	keystroke_Key.backspace	Key.backspace	n/a
621.672	0.0715	1243344	keystroke_Key.backspace	Key.backspace	n/a
621.8235	0.0805	1243647	keystroke_Key.backspace	Key.backspace	n/a
621.992	0.104	1243984	keystroke_Key.backspace	Key.backspace	n/a
622.3205	0.207	1244641	keystroke_e	e	n/a
622.4795	0.137	1244959	keystroke_t	t	n/a
622.6805	0.143	1245361	keystroke_s	s	n/a
622.9035	0.12	1245807	keystroke_Key.space	Key.space	n/a
623.3755	0.096	1246751	keystroke_t	t	n/a
623.5515	0.08	1247103	keystroke_l	l	n/a
623.8075	0.0805	1247615	keystroke_Key.backspace	Key.backspace	n/a
623.9595	0.0805	1247919	keystroke_Key.backspace	Key.backspace	n/a
624.192	0.08	1248384	keystroke_l	l	n/a
624.336	0.048	1248672	keystroke_e	e	n/a
624.368	0.128	1248736	keystroke_a	a	n/a
624.8085	0.1755	1249617	keystroke_s	s	n/a
624.9685	0.1275	1249937	keystroke_t	t	n/a
625.16	0.128	1250320	keystroke_Key.space	Key.space	n/a
625.528	0.12	1251056	keystroke_s	s	n/a
625.664	0.128	1251328	keystroke_t	t	n/a
625.8075	0.1845	1251615	keystroke_a	a	n/a
625.936	0.1445	1251872	keystroke_t	t	n/a
626.12	0.1435	1252240	keystroke_e	e	n/a
626.192	0.1045	1252384	keystroke_m	m	n/a
626.4155	0.112	1252831	keystroke_n	n	n/a
626.512	0.1515	1253024	keystroke_t	t	n/a
627.04	0.08	1254080	keystroke_Key.backspace	Key.backspace	n/a
627.1915	0.0885	1254383	keystroke_Key.backspace	Key.backspace	n/a
627.839	0.0805	1255678	keystroke_Key.backspace	Key.backspace	n/a
628.408	0.0955	1256816	keystroke_m	m	n/a
628.536	0.2155	1257072	keystroke_e	e	n/a
628.656	0.0965	1257312	keystroke_n	n	n/a
628.8635	0.1205	1257727	keystroke_t	t	n/a
629.1915	0.1525	1258383	keystroke_s	s	n/a
629.848	0.12	1259696	keystroke_Key.enter	Key.enter	n/a
629.973	10.2055	1259946	prompt	n/a	nicole males range arguments\n
630.696	0.1045	1261392	keystroke_n	n	n/a
630.8725	0.0875	1261745	keystroke_i	i	n/a
631.6155	0.1205	1263231	keystroke_c	c	n/a
631.8165	0.0385	1263633	keystroke_u	u	n/a
632.16	0.0715	1264320	keystroke_Key.backspace	Key.backspace	n/a
632.416	0.0715	1264832	keystroke_o	o	n/a
632.584	0.0635	1265168	keystroke_l	l	n/a
632.6795	0.1915	1265359	keystroke_e	e	n/a
632.848	0.119	1265696	keystroke_Key.space	Key.space	n/a
633.2155	0.096	1266431	keystroke_m	m	n/a
634.359	0.113	1268718	keystroke_a	a	n/a
634.4795	0.1045	1268959	keystroke_k	k	n/a
634.6405	0.2075	1269281	keystroke_e	e	n/a
634.76	0.168	1269520	keystroke_s	s	n/a
634.911	0.088	1269822	keystroke_Key.space	Key.space	n/a
635.12	0.144	1270240	keystroke_r	r	n/a
635.391	0.105	1270782	keystroke_n	n	n/a
635.48	0.111	1270960	keystroke_a	a	n/a
636.255	0.089	1272510	keystroke_Key.backspace	Key.backspace	n/a
636.407	0.088	1272814	keystroke_Key.backspace	Key.backspace	n/a
636.76	0.144	1273520	keystroke_a	a	n/a
636.912	0.096	1273824	keystroke_n	n	n/a
637.064	0.168	1274128	keystroke_g	g	n/a
637.1765	0.1995	1274353	keystroke_e	e	n/a
637.328	0.127	1274656	keystroke_Key.space	Key.space	n/a
637.664	0.152	1275328	keystroke_a	a	n/a
637.848	0.144	1275696	keystroke_r	r	n/a
638.143	0.0965	1276286	keystroke_g	g	n/a
638.264	0.088	1276528	keystroke_u	u	n/a
638.4795	0.1125	1276959	keystroke_m	m	n/a
638.6075	0.136	1277215	keystroke_e	e	n/a
638.7195	0.0965	1277439	keystroke_n	n	n/a
638.8235	0.104	1277647	keystroke_t	t	n/a
639.559	0.1125	1279118	keystroke_s	s	n/a
640.0475	0.1285	1280095	keystroke_Key.enter	Key.enter	n/a
640.182	11.763	1280364	prompt	n/a	commission eyes swiss all\n
640.7845	0.127	1281569	keystroke_c	c	n/a
640.888	0.0635	1281776	keystroke_o	o	n/a
641.056	0.0555	1282112	keystroke_m	m	n/a
641.1915	0.088	1282383	keystroke_m	m	n/a
641.504	0.08	1283008	keystroke_i	i	n/a
642.2315	0.072	1284463	keystroke_s	s	n/a
642.3995	0.072	1284799	keystroke_s	s	n/a
642.5195	0.184	1285039	keystroke_i	i	n/a
642.648	0.1115	1285296	keystroke_o	o	n/a
642.8155	0.097	1285631	keystroke_n	n	n/a
642.9275	0.104	1285855	keystroke_Key.space	Key.space	n/a
643.096	0.1915	1286192	keystroke_e	e	n/a
643.264	0.1515	1286528	keystroke_t	t	n/a
643.4235	0.1525	1286847	keystroke_e	e	n/a
644.1515	0.0965	1288303	keystroke_s	s	n/a
644.447	0.088	1288894	keystroke_Key.backspace	Key.backspace	n/a
644.616	0.0715	1289232	keystroke_Key.backspace	Key.backspace	n/a
644.7835	0.1035	1289567	keystroke_Key.backspace	Key.backspace	n/a
645.344	0.0875	1290688	keystroke_y	y	n/a
