onset	duration	sample	value	key	prompt_text
4.6035	8.003	9207	prompt	n/a	the quick brown fox jumps over a lazy dog\n
6.231	0.028	12462	keystroke_t	t	n/a
6.274	0.105	12548	keystroke_h	h	n/a
6.394	0.09	12788	keystroke_e	e	n/a
6.529	0.165	13058	keystroke_Key.space	Key.space	n/a
6.829	0.105	13658	keystroke_q	q	n/a
6.979	0.12	13958	keystroke_u	u	n/a
7.069	0.105	14138	keystroke_i	i	n/a
7.189	0.135	14378	keystroke_c	c	n/a
7.354	0.18	14708	keystroke_k	k	n/a
7.459	0.105	14918	keystroke_Key.space	Key.space	n/a
7.909	0.075	15818	keystroke_b	b	n/a
8.119	0.105	16238	keystroke_r	r	n/a
8.179	0.09	16358	keystroke_o	o	n/a
8.329	0.09	16658	keystroke_w	w	n/a
8.449	0.105	16898	keystroke_n	n	n/a
8.509	0.134	17018	keystroke_Key.space	Key.space	n/a
8.763	0.09	17526	keystroke_f	f	n/a
8.868	0.105	17736	keystroke_o	o	n/a
9.003	0.15	18006	keystroke_x	x	n/a
9.183	0.09	18366	keystroke_Key.space	Key.space	n/a
9.349	0.074	18698	keystroke_j	j	n/a
9.528	0.06	19056	keystroke_u	u	n/a
9.724	0.1195	19448	keystroke_m	m	n/a
9.784	0.135	19568	keystroke_p	p	n/a
9.8885	0.12	19777	keystroke_s	s	n/a
10.0385	0.15	20077	keystroke_Key.space	Key.space	n/a
10.1735	0.105	20347	keystroke_o	o	n/a
10.2785	0.06	20557	keystroke_v	v	n/a
10.3535	0.15	20707	keystroke_e	e	n/a
10.4735	0.09	20947	keystroke_r	r	n/a
10.608	0.075	21216	keystroke_Key.space	Key.space	n/a
10.729	0.1045	21458	keystroke_a	a	n/a
10.8185	0.09	21637	keystroke_Key.space	Key.space	n/a
11.1935	0.135	22387	keystroke_l	l	n/a
11.3135	0.075	22627	keystroke_a	a	n/a
11.6135	0.12	23227	keystroke_z	z	n/a
11.7785	0.135	23557	keystroke_y	y	n/a
11.8685	0.105	23737	keystroke_Key.space	Key.space	n/a
12.0785	0.12	24157	keystroke_d	d	n/a
12.1835	0.09	24367	keystroke_o	o	n/a
12.3035	0.12	24607	keystroke_g	g	n/a
12.5135	0.0895	25027	keystroke_Key.enter	Key.enter	n/a
12.614	8.541	25228	prompt	n/a	endorsement missile after antique\n
13.354	0.089	26708	keystroke_e	e	n/a
13.428	0.106	26856	keystroke_n	n	n/a
13.624	0.119	27248	keystroke_d	d	n/a
13.758	0.105	27516	keystroke_o	o	n/a
13.848	0.105	27696	keystroke_r	r	n/a
14.028	0.165	28056	keystroke_s	s	n/a
14.148	0.12	28296	keystroke_e	e	n/a
14.298	0.12	28596	keystroke_m	m	n/a
14.403	0.09	28806	keystroke_e	e	n/a
14.568	0.1205	29136	keystroke_n	n	n/a
14.7035	0.09	29407	keystroke_t	t	n/a
14.8985	0.105	29797	keystroke_Key.space	Key.space	n/a
15.8285	0.15	31657	keystroke_m	m	n/a
15.9485	0.135	31897	keystroke_i	i	n/a
16.0685	0.075	32137	keystroke_s	s	n/a
16.6535	0.1195	33307	keystroke_s	s	n/a
16.834	0.104	33668	keystroke_l	l	n/a
17.029	0.059	34058	keystroke_e	e	n/a
17.283	0.06	34566	keystroke_Key.backspace	Key.backspace	n/a
17.448	0.06	34896	keystroke_Key.backspace	Key.backspace	n/a
17.658	0.15	35316	keystroke_i	i	n/a
17.748	0.165	35496	keystroke_l	l	n/a
17.883	0.12	35766	keystroke_e	e	n/a
18.0485	0.105	36097	keystroke_Key.space	Key.space	n/a
18.2135	0.135	36427	keystroke_a	a	n/a
18.3335	0.105	36667	keystroke_f	f	n/a
18.5885	0.18	37177	keystroke_t	t	n/a
19.0385	0.135	38077	keystroke_e	e	n/a
19.1285	0.12	38257	keystroke_r	r	n/a
19.3835	0.06	38767	keystroke_Key.space	Key.space	n/a
19.5935	0.105	39187	keystroke_a	a	n/a
19.6535	0.12	39307	keystroke_n	n	n/a
19.8785	0.09	39757	keystroke_t	t	n/a
19.9835	0.075	39967	keystroke_i	i	n/a
20.3585	0.12	40717	keystroke_q	q	n/a
20.4935	0.09	40987	keystroke_u	u	n/a
20.8535	0.105	41707	keystroke_e	e	n/a
21.0485	0.105	42097	keystroke_Key.enter	Key.enter	n/a
21.1665	10.5335	42333	prompt	n/a	sandwich stephen minimum occupations\n
21.9335	0.12	43867	keystroke_s	s	n/a
22.1285	0.12	44257	keystroke_a	a	n/a
22.2495	0.135	44499	keystroke_n	n	n/a
22.7435	0.09	45487	keystroke_d	d	n/a
22.9985	0.09	45997	keystroke_w	w	n/a
23.1635	0.06	46327	keystroke_i	i	n/a
23.3285	0.135	46657	keystroke_c	c	n/a
23.5235	0.135	47047	keystroke_h	h	n/a
23.6435	0.09	47287	keystroke_Key.space	Key.space	n/a
23.884	0.135	47768	keystroke_s	s	n/a
24.034	0.12	48068	keystroke_t	t	n/a
24.139	0.12	48278	keystroke_e	e	n/a
24.274	0.12	48548	keystroke_p	p	n/a
24.394	0.105	48788	keystroke_h	h	n/a
24.619	0.1045	49238	keystroke_e	e	n/a
24.7535	0.15	49507	keystroke_n	n	n/a
24.8585	0.15	49717	keystroke_Key.space	Key.space	n/a
25.2785	0.15	50557	keystroke_m	m	n/a
25.3985	0.18	50797	keystroke_i	i	n/a
25.5485	0.18	51097	keystroke_n	n	n/a
25.8335	0.135	51667	keystroke_i	i	n/a
27.739	0.105	55478	keystroke_m	m	n/a
28.084	0.105	56168	keystroke_u	u	n/a
28.804	0.104	57608	keystroke_m	m	n/a
28.968	0.135	57936	keystroke_Key.space	Key.space	n/a
29.343	0.121	58686	keystroke_o	o	n/a
29.628	0.06	59256	keystroke_c	c	n/a
29.778	0.0905	59556	keystroke_c	c	n/a
29.8985	0.105	59797	keystroke_u	u	n/a
30.739	0.135	61478	keystroke_p	p	n/a
30.919	0.135	61838	keystroke_a	a	n/a
31.024	0.105	62048	keystroke_t	t	n/a
31.144	0.105	62288	keystroke_i	i	n/a
31.234	0.105	62468	keystroke_o	o	n/a
31.264	0.135	62528	keystroke_n	n	n/a
31.369	0.135	62738	keystroke_s	s	n/a
31.654	0.0445	63308	keystroke_Key.enter	Key.enter	n/a
31.706	6.774	63412	prompt	n/a	positive bleeding circular rocks\n
32.3735	0.135	64747	keystroke_p	p	n/a
32.4785	0.12	64957	keystroke_o	o	n/a
32.6585	0.1205	65317	keystroke_s	s	n/a
32.7935	0.075	65587	keystroke_i	i	n/a
32.8985	0.075	65797	keystroke_t	t	n/a
33.0035	0.09	66007	keystroke_i	i	n/a
33.1535	0.12	66307	keystroke_v	v	n/a
33.244	0.15	66488	keystroke_e	e	n/a
33.4985	0.09	66997	keystroke_Key.space	Key.space	n/a
33.874	0.1195	67748	keystroke_b	b	n/a
34.0085	0.105	68017	keystroke_e	e	n/a
34.4885	0.045	68977	keystroke_Key.backspace	Key.backspace	n/a
34.714	0.09	69428	keystroke_l	l	n/a
34.789	0.06	69578	keystroke_e	e	n/a
34.939	0.06	69878	keystroke_e	e	n/a
35.1335	0.09	70267	keystroke_d	d	n/a
35.2385	0.15	70477	keystroke_i	i	n/a
35.3285	0.135	70657	keystroke_n	n	n/a
35.4485	0.09	70897	keystroke_g	g	n/a
35.5685	0.105	71137	keystroke_Key.space	Key.space	n/a
35.8385	0.12	71677	keystroke_c	c	n/a
35.9435	0.105	71887	keystroke_i	i	n/a
36.0785	0.09	72157	keystroke_r	r	n/a
36.3485	0.12	72697	keystroke_c	c	n/a
36.4835	0.105	72967	keystroke_u	u	n/a
36.5735	0.1345	73147	keystroke_l	l	n/a
36.7535	0.1345	73507	keystroke_a	a	n/a
36.994	0.089	73988	keystroke_r	r	n/a
37.188	0.105	74376	keystroke_Key.space	Key.space	n/a
37.399	0.089	74798	keystroke_r	r	n/a
37.503	0.105	75006	keystroke_o	o	n/a
37.669	0.134	75338	keystroke_c	c	n/a
37.819	0.105	75638	keystroke_k	k	n/a
37.953	0.151	75906	keystroke_s	s	n/a
38.388	0.0905	76776	keystroke_Key.enter	Key.enter	n/a
38.485	6.6405	76970	prompt	n/a	leads radar tobago chapter\n
39.183	0.016	78366	keystroke_l	l	n/a
39.288	0.136	78576	keystroke_e	e	n/a
39.409	0.105	78818	keystroke_a	a	n/a
39.574	0.195	79148	keystroke_s	s	n/a
40.129	0.074	80258	keystroke_Key.backspace	Key.backspace	n/a
40.159	0.135	80318	keystroke_d	d	n/a
40.249	0.135	80498	keystroke_s	s	n/a
40.413	0.136	80826	keystroke_Key.space	Key.space	n/a
40.654	0.1195	81308	keystroke_r	r	n/a
40.7585	0.105	81517	keystroke_a	a	n/a
40.9235	0.105	81847	keystroke_d	d	n/a
41.2535	0.12	82507	keystroke_a	a	n/a
41.3135	0.135	82627	keystroke_r	r	n/a
41.5685	0.1055	83137	keystroke_Key.space	Key.space	n/a
42.079	0.105	84158	keystroke_t	t	n/a
42.229	0.104	84458	keystroke_o	o	n/a
42.469	0.105	84938	keystroke_b	b	n/a
42.619	0.1045	85238	keystroke_a	a	n/a
42.8735	0.1355	85747	keystroke_g	g	n/a
43.069	0.09	86138	keystroke_o	o	n/a
43.428	0.09	86856	keystroke_Key.space	Key.space	n/a
43.804	0.105	87608	keystroke_c	c	n/a
43.879	0.09	87758	keystroke_h	h	n/a
43.999	0.105	87998	keystroke_a	a	n/a
44.134	0.105	88268	keystroke_p	p	n/a
44.269	0.105	88538	keystroke_t	t	n/a
44.479	0.135	88958	keystroke_e	e	n/a
44.569	0.164	89138	keystroke_r	r	n/a
45.019	0.104	90038	keystroke_Key.enter	Key.enter	n/a
45.1315	8.769	90263	prompt	n/a	address flashers bryan device\n
45.844	0.09	91688	keystroke_a	a	n/a
46.008	0.09	92016	keystroke_d	d	n/a
46.188	0.075	92376	keystroke_d	d	n/a
46.369	0.074	92738	keystroke_r	r	n/a
46.413	0.121	92826	keystroke_e	e	n/a
46.639	0.0445	93278	keystroke_s	s	n/a
46.788	0.075	93576	keystroke_s	s	n/a
46.953	0.09	93906	keystroke_Key.space	Key.space	n/a
47.028	0.12	94056	keystroke_f	f	n/a
47.208	0.12	94416	keystroke_l	l	n/a
47.283	0.12	94566	keystroke_a	a	n/a
47.508	0.076	95016	keystroke_s	s	n/a
47.643	0.06	95286	keystroke_h	h	n/a
47.749	0.15	95498	keystroke_e	e	n/a
47.869	0.104	95738	keystroke_r	r	n/a
48.063	0.12	96126	keystroke_s	s	n/a
48.288	0.12	96576	keystroke_Key.space	Key.space	n/a
48.678	0.0905	97356	keystroke_b	b	n/a
48.8885	0.105	97777	keystroke_r	r	n/a
49.0685	0.09	98137	keystroke_y	y	n/a
49.1885	0.165	98377	keystroke_a	a	n/a
49.4285	0.165	98857	keystroke_n	n	n/a
49.5785	0.12	99157	keystroke_Key.space	Key.space	n/a
49.998	0.06	99996	keystroke_Key.backspace	Key.backspace	n/a
50.148	0.075	100296	keystroke_Key.backspace	Key.backspace	n/a
50.328	0.06	100656	keystroke_Key.backspace	Key.backspace	n/a
50.478	0.091	100956	keystroke_Key.backspace	Key.backspace	n/a
51.138	0.135	102276	keystroke_a	a	n/a
51.303	0.12	102606	keystroke_n	n	n/a
51.7085	0.06	103417	keystroke_Key.backspace	Key.backspace	n/a
51.813	0.09	103626	keystroke_Key.backspace	Key.backspace	n/a
52.024	0.09	104048	keystroke_y	y	n/a
52.173	0.151	104346	keystroke_a	a	n/a
52.279	0.165	104558	keystroke_n	n	n/a
52.428	0.135	104856	keystroke_Key.space	Key.space	n/a
52.8335	0.0745	105667	keystroke_d	d	n/a
52.998	0.06	105996	keystroke_e	e	n/a
53.178	0.12	106356	keystroke_v	v	n/a
53.3135	0.1045	106627	keystroke_i	i	n/a
53.4045	0.0735	106809	keystroke_c	c	n/a
53.613	0.0905	107226	keystroke_e	e	n/a
53.808	0.09	107616	keystroke_Key.enter	Key.enter	n/a
53.9065	7.0735	107813	prompt	n/a	candles targets proven alumni\n
54.603	0.12	109206	keystroke_c	c	n/a
54.693	0.106	109386	keystroke_a	a	n/a
54.738	0.091	109476	keystroke_n	n	n/a
54.919	0.075	109838	keystroke_d	d	n/a
55.084	0.12	110168	keystroke_l	l	n/a
55.159	0.09	110318	keystroke_e	e	n/a
55.339	0.12	110678	keystroke_s	s	n/a
55.593	0.12	111186	keystroke_Key.space	Key.space	n/a
56.074	0.104	112148	keystroke_t	t	n/a
56.239	0.12	112478	keystroke_a	a	n/a
56.328	0.105	112656	keystroke_r	r	n/a
56.598	0.0905	113196	keystroke_g	g	n/a
56.6735	0.1345	113347	keystroke_e	e	n/a
56.809	0.135	113618	keystroke_t	t	n/a
56.989	0.105	113978	keystroke_s	s	n/a
57.363	0.075	114726	keystroke_Key.space	Key.space	n/a
57.649	0.075	115298	keystroke_p	p	n/a
57.738	0.076	115476	keystroke_r	r	n/a
57.844	0.104	115688	keystroke_o	o	n/a
58.008	0.12	116016	keystroke_v	v	n/a
58.113	0.121	116226	keystroke_e	e	n/a
58.278	0.135	116556	keystroke_n	n	n/a
58.368	0.12	116736	keystroke_Key.space	Key.space	n/a
58.698	0.075	117396	keystroke_a	a	n/a
58.758	0.12	117516	keystroke_l	l	n/a
58.998	0.09	117996	keystroke_u	u	n/a
59.463	0.09	118926	keystroke_n	n	n/a
59.928	0.075	119856	keystroke_Key.backspace	Key.backspace	n/a
60.169	0.104	120338	keystroke_m	m	n/a
60.499	0.15	120998	keystroke_n	n	n/a
60.619	0.105	121238	keystroke_i	i	n/a
60.903	0.075	121806	keystroke_Key.enter	Key.enter	n/a
60.992	8.748	121984	prompt	n/a	geology commissioners donald pass\n
61.7735	0.09	123547	keystroke_g	g	n/a
61.8485	0.12	123697	keystroke_e	e	n/a
62.0135	0.09	124027	keystroke_o	o	n/a
62.8685	0.105	125737	keystroke_g	g	n/a
63.3185	0.06	126637	keystroke_Key.backspace	Key.backspace	n/a
63.5435	0.105	127087	keystroke_l	l	n/a
63.7385	0.09	127477	keystroke_o	o	n/a
63.8735	0.09	127747	keystroke_g	g	n/a
63.9935	0.15	127987	keystroke_y	y	n/a
64.1585	0.1045	128317	keystroke_Key.space	Key.space	n/a
64.428	0.135	128856	keystroke_c	c	n/a
64.533	0.09	129066	keystroke_o	o	n/a
64.638	0.1205	129276	keystroke_m	m	n/a
64.8335	0.075	129667	keystroke_m	m	n/a
65.1935	0.075	130387	keystroke_Key.backspace	Key.backspace	n/a
65.7335	0.135	131467	keystroke_m	m	n/a
65.8835	0.12	131767	keystroke_i	i	n/a
66.1535	0.075	132307	keystroke_s	s	n/a
66.3335	0.075	132667	keystroke_s	s	n/a
66.3785	0.12	132757	keystroke_i	i	n/a
66.4685	0.135	132937	keystroke_o	o	n/a
66.5435	0.1495	133087	keystroke_n	n	n/a
66.723	0.1805	133446	keystroke_e	e	n/a
66.8585	0.12	133717	keystroke_r	r	n/a
67.0235	0.15	134047	keystroke_s	s	n/a
67.2335	0.105	134467	keystroke_Key.space	Key.space	n/a
67.4735	0.12	134947	keystroke_d	d	n/a
67.6085	0.12	135217	keystroke_o	o	n/a
67.7135	0.135	135427	keystroke_n	n	n/a
67.8635	0.105	135727	keystroke_a	a	n/a
68.0885	0.135	136177	keystroke_l	l	n/a
68.4035	0.12	136807	keystroke_d	d	n/a
68.6735	0.12	137347	keystroke_Key.space	Key.space	n/a
68.974	0.09	137948	keystroke_p	p	n/a
69.049	0.105	138098	keystroke_a	a	n/a
69.199	0.105	138398	keystroke_s	s	n/a
69.394	0.12	138788	keystroke_s	s	n/a
69.633	0.105	139266	keystroke_Key.enter	Key.enter	n/a
69.745	6.79	139490	prompt	n/a	achievements front posting request\n
70.459	0.09	140918	keystroke_a	a	n/a
70.6835	0.1205	141367	keystroke_c	c	n/a
70.8185	0.1045	141637	keystroke_h	h	n/a
70.894	0.134	141788	keystroke_i	i	n/a
71.163	0.106	142326	keystroke_e	e	n/a
71.6735	0.105	143347	keystroke_v	v	n/a
71.7635	0.135	143527	keystroke_e	e	n/a
71.9735	0.105	143947	keystroke_m	m	n/a
72.0935	0.075	144187	keystroke_e	e	n/a
72.2435	0.09	144487	keystroke_n	n	n/a
72.3345	0.089	144669	keystroke_t	t	n/a
72.5735	0.105	145147	keystroke_s	s	n/a
72.7985	0.105	145597	keystroke_Key.space	Key.space	n/a
72.9635	0.075	145927	keystroke_f	f	n/a
73.1585	0.075	146317	keystroke_r	r	n/a
73.3085	0.165	146617	keystroke_o	o	n/a
73.3835	0.165	146767	keystroke_n	n	n/a
73.4885	0.09	146977	keystroke_t	t	n/a
73.6235	0.134	147247	keystroke_Key.space	Key.space	n/a
73.7435	0.165	147487	keystroke_p	p	n/a
74.1485	0.09	148297	keystroke_o	o	n/a
74.3735	0.09	148747	keystroke_s	s	n/a
74.6285	0.09	149257	keystroke_t	t	n/a
74.7935	0.1805	149587	keystroke_i	i	n/a
74.913	0.12	149826	keystroke_n	n	n/a
75.019	0.089	150038	keystroke_g	g	n/a
75.153	0.105	150306	keystroke_Key.space	Key.space	n/a
75.424	0.104	150848	keystroke_r	r	n/a
75.499	0.134	150998	keystroke_e	e	n/a
75.738	0.106	151476	keystroke_q	q	n/a
75.858	0.075	151716	keystroke_u	u	n/a
75.979	0.134	151958	keystroke_e	e	n/a
76.069	0.119	152138	keystroke_s	s	n/a
76.174	0.12	152348	keystroke_t	t	n/a
76.458	0.075	152916	keystroke_Key.enter	Key.enter	n/a
76.5405	9.2345	153081	prompt	n/a	decades listprice enormous springs\n
77.2535	0.09	154507	keystroke_d	d	n/a
77.4335	0.105	154867	keystroke_e	e	n/a
77.5235	0.105	155047	keystroke_a	a	n/a
78.1525	0.09	156305	keystroke_Key.backspace	Key.backspace	n/a
78.3335	0.06	156667	keystroke_e	e	n/a
78.7825	0.076	157565	keystroke_Key.backspace	Key.backspace	n/a
78.888	0.12	157776	keystroke_c	c	n/a
78.978	0.105	157956	keystroke_a	a	n/a
79.638	0.06	159276	keystroke_d	d	n/a
79.848	0.15	159696	keystroke_e	e	n/a
79.999	0.119	159998	keystroke_s	s	n/a
80.343	0.12	160686	keystroke_Key.space	Key.space	n/a
80.688	0.12	161376	keystroke_l	l	n/a
80.763	0.1355	161526	keystroke_i	i	n/a
80.854	0.1495	161708	keystroke_s	s	n/a
80.9885	0.12	161977	keystroke_t	t	n/a
81.2435	0.12	162487	keystroke_p	p	n/a
81.5285	0.075	163057	keystroke_r	r	n/a
81.663	0.106	163326	keystroke_i	i	n/a
81.8135	0.09	163627	keystroke_c	c	n/a
82.0235	0.075	164047	keystroke_e	e	n/a
82.1435	0.12	164287	keystroke_Key.space	Key.space	n/a
82.4135	0.105	164827	keystroke_e	e	n/a
82.5335	0.105	165067	keystroke_n	n	n/a
82.7735	0.15	165547	keystroke_o	o	n/a
82.9085	0.075	165817	keystroke_r	r	n/a
83.1335	0.135	166267	keystroke_m	m	n/a
83.3435	0.135	166687	keystroke_o	o	n/a
83.4335	0.105	166867	keystroke_u	u	n/a
83.5535	0.12	167107	keystroke_s	s	n/a
84.288	0.12	168576	keystroke_Key.space	Key.space	n/a
84.694	0.089	169388	keystroke_s	s	n/a
84.844	0.104	169688	keystroke_p	p	n/a
84.993	0.075	169986	keystroke_r	r	n/a
85.113	0.12	170226	keystroke_i	i	n/a
85.188	0.135	170376	keystroke_n	n	n/a
85.308	0.12	170616	keystroke_g	g	n/a
85.488	0.106	170976	keystroke_s	s	n/a
85.668	0.105	171336	keystroke_Key.enter	Key.enter	n/a
85.793	7.242	171586	prompt	n/a	cherry indicator boss deemed\n
86.494	0.119	172988	keystroke_c	c	n/a
86.583	0.0905	173166	keystroke_h	h	n/a
86.7635	0.09	173527	keystroke_e	e	n/a
86.9585	0.09	173917	keystroke_r	r	n/a
87.1685	0.075	174337	keystroke_r	r	n/a
87.2885	0.12	174577	keystroke_y	y	n/a
87.3775	0.106	174755	keystroke_Key.space	Key.space	n/a
88.023	0.135	176046	keystroke_i	i	n/a
88.113	0.136	176226	keystroke_n	n	n/a
88.278	0.091	176556	keystroke_d	d	n/a
88.398	0.075	176796	keystroke_i	i	n/a
88.608	0.105	177216	keystroke_c	c	n/a
88.728	0.045	177456	keystroke_a	a	n/a
89.073	0.12	178146	keystroke_t	t	n/a
89.283	0.135	178566	keystroke_o	o	n/a
89.448	0.105	178896	keystroke_r	r	n/a
89.658	0.12	179316	keystroke_Key.space	Key.space	n/a
90.228	0.09	180456	keystroke_b	b	n/a
90.319	0.074	180638	keystroke_o	o	n/a
90.424	0.104	180848	keystroke_s	s	n/a
90.633	0.09	181266	keystroke_s	s	n/a
90.663	0.12	181326	keystroke_Key.space	Key.space	n/a
90.828	0.091	181656	keystroke_d	d	n/a
91.053	0.06	182106	keystroke_e	e	n/a
91.218	0.09	182436	keystroke_e	e	n/a
91.413	0.165	182826	keystroke_m	m	n/a
91.7585	0.12	183517	keystroke_s	s	n/a
92.3285	0.09	184657	keystroke_Key.backspace	Key.backspace	n/a
92.3735	0.075	184747	keystroke_e	e	n/a
92.5985	0.135	185197	keystroke_d	d	n/a
92.8985	0.1345	185797	keystroke_Key.enter	Key.enter	n/a
93.0395	6.79	186079	prompt	n/a	adjusted register returning case\n
93.723	0.075	187446	keystroke_a	a	n/a
93.783	0.135	187566	keystroke_d	d	n/a
93.933	0.075	187866	keystroke_j	j	n/a
94.113	0.075	188226	keystroke_u	u	n/a
94.158	0.15	188316	keystroke_s	s	n/a
94.263	0.135	188526	keystroke_t	t	n/a
94.443	0.075	188886	keystroke_e	e	n/a
94.653	0.075	189306	keystroke_d	d	n/a
94.788	0.12	189576	keystroke_Key.space	Key.space	n/a
94.9985	0.09	189997	keystroke_r	r	n/a
95.0435	0.12	190087	keystroke_e	e	n/a
95.3135	0.09	190627	keystroke_g	g	n/a
95.4335	0.09	190867	keystroke_i	i	n/a
95.5835	0.165	191167	keystroke_s	s	n/a
95.7335	0.09	191467	keystroke_t	t	n/a
96.1685	0.165	192337	keystroke_e	e	n/a
96.2885	0.12	192577	keystroke_r	r	n/a
96.4835	0.12	192967	keystroke_Key.space	Key.space	n/a
96.813	0.12	193626	keystroke_r	r	n/a
96.888	0.12	193776	keystroke_e	e	n/a
97.113	0.105	194226	keystroke_t	t	n/a
97.353	0.15	194706	keystroke_r	r	n/a
97.533	0.105	195066	keystroke_u	u	n/a
97.878	0.045	195756	keystroke_Key.backspace	Key.backspace	n/a
97.998	0.09	195996	keystroke_Key.backspace	Key.backspace	n/a
98.178	0.09	196356	keystroke_u	u	n/a
98.283	0.105	196566	keystroke_r	r	n/a
98.403	0.105	196806	keystroke_n	n	n/a
98.493	0.165	196986	keystroke_i	i	n/a
98.614	0.134	197228	keystroke_n	n	n/a
98.733	0.09	197466	keystroke_g	g	n/a
98.808	0.15	197616	keystroke_Key.space	Key.space	n/a
99.123	0.12	198246	keystroke_c	c	n/a
99.183	0.195	198366	keystroke_a	a	n/a
99.363	0.15	198726	keystroke_s	s	n/a
99.468	0.165	198936	keystroke_e	e	n/a
99.738	0.09	199476	keystroke_Key.enter	Key.enter	n/a
99.8335	6.9415	199667	prompt	n/a	cosmetics yeah problem schemes\n
100.5635	0.06	201127	keystroke_o	o	n/a
100.8625	0.045	201725	keystroke_Key.backspace	Key.backspace	n/a
100.9235	0.119	201847	keystroke_c	c	n/a
101.0725	0.106	202145	keystroke_o	o	n/a
101.1785	0.119	202357	keystroke_s	s	n/a
101.3125	0.12	202625	keystroke_m	m	n/a
101.4485	0.164	202897	keystroke_e	e	n/a
101.5975	0.121	203195	keystroke_t	t	n/a
101.7185	0.09	203437	keystroke_i	i	n/a
101.9135	0.045	203827	keystroke_c	c	n/a
102.2135	0.12	204427	keystroke_s	s	n/a
102.3935	0.12	204787	keystroke_Key.space	Key.space	n/a
102.9485	0.0745	205897	keystroke_y	y	n/a
102.994	0.135	205988	keystroke_e	e	n/a
103.083	0.165	206166	keystroke_a	a	n/a
103.203	0.15	206406	keystroke_h	h	n/a
103.323	0.12	206646	keystroke_Key.space	Key.space	n/a
103.578	0.091	207156	keystroke_p	p	n/a
103.683	0.106	207366	keystroke_r	r	n/a
103.773	0.09	207546	keystroke_o	o	n/a
103.983	0.105	207966	keystroke_b	b	n/a
104.073	0.09	208146	keystroke_l	l	n/a
104.194	0.104	208388	keystroke_e	e	n/a
104.313	0.15	208626	keystroke_m	m	n/a
104.418	0.12	208836	keystroke_Key.space	Key.space	n/a
104.749	0.09	209498	keystroke_s	s	n/a
104.943	0.12	209886	keystroke_c	c	n/a
105.064	0.104	210128	keystroke_h	h	n/a
105.213	0.09	210426	keystroke_e	e	n/a
105.798	0.135	211596	keystroke_m	m	n/a
106.008	0.09	212016	keystroke_e	e	n/a
106.458	0.135	212916	keystroke_s	s	n/a
106.653	0.121	213306	keystroke_Key.enter	Key.enter	n/a
106.7805	8.7545	213561	prompt	n/a	programmers preferences voice investigator\n
107.418	0.09	214836	keystroke_p	p	n/a
107.538	0.075	215076	keystroke_r	r	n/a
107.629	0.104	215258	keystroke_o	o	n/a
107.764	0.074	215528	keystroke_g	g	n/a
107.943	0.105	215886	keystroke_r	r	n/a
108.018	0.12	216036	keystroke_a	a	n/a
108.093	0.09	216186	keystroke_m	m	n/a
108.258	0.105	216516	keystroke_m	m	n/a
108.394	0.104	216788	keystroke_e	e	n/a
108.453	0.12	216906	keystroke_r	r	n/a
108.618	0.12	217236	keystroke_s	s	n/a
108.843	0.105	217686	keystroke_Key.space	Key.space	n/a
109.128	0.105	218256	keystroke_p	p	n/a
109.338	0.09	218676	keystroke_r	r	n/a
109.413	0.12	218826	keystroke_e	e	n/a
109.608	0.075	219216	keystroke_f	f	n/a
109.684	0.105	219368	keystroke_e	e	n/a
109.773	0.12	219546	keystroke_r	r	n/a
109.863	0.105	219726	keystroke_e	e	n/a
109.953	0.135	219906	keystroke_n	n	n/a
110.103	0.06	220206	keystroke_c	c	n/a
110.298	0.075	220596	keystroke_e	e	n/a
110.508	0.12	221016	keystroke_Key.space	Key.space	n/a
110.868	0.09	221736	keystroke_v	v	n/a
110.943	0.1355	221886	keystroke_o	o	n/a
111.0485	0.12	222097	keystroke_i	i	n/a
111.1085	0.135	222217	keystroke_c	c	n/a
111.3635	0.075	222727	keystroke_e	e	n/a
111.4835	0.105	222967	keystroke_Key.space	Key.space	n/a
111.663	0.195	223326	keystroke_i	i	n/a
111.783	0.12	223566	keystroke_n	n	n/a
111.918	0.15	223836	keystroke_g	g	n/a
112.053	0.105	224106	keystroke_e	e	n/a
112.368	0.06	224736	keystroke_Key.backspace	Key.backspace	n/a
112.518	0.105	225036	keystroke_Key.backspace	Key.backspace	n/a
112.609	0.105	225218	keystroke_v	v	n/a
112.683	0.135	225366	keystroke_e	e	n/a
113.3135	0.18	226627	keystroke_s	s	n/a
113.5535	0.105	227107	keystroke_t	t	n/a
113.6885	0.12	227377	keystroke_i	i	n/a
113.8385	0.105	227677	keystroke_g	g	n/a
113.9585	0.105	227917	keystroke_a	a	n/a
114.9335	0.119	229867	keystroke_t	t	n/a
115.0385	0.105	230077	keystroke_o	o	n/a
115.1585	0.165	230317	keystroke_r	r	n/a
115.4285	0.105	230857	keystroke_Key.enter	Key.enter	n/a
115.5425	9.9225	231085	prompt	n/a	jewellery fully seems optimize\n
116.2385	0.15	232477	keystroke_j	j	n/a
116.4035	0.09	232807	keystroke_e	e	n/a
117.1835	0.15	234367	keystroke_w	w	n/a
117.4085	0.15	234817	keystroke_e	e	n/a
117.6635	0.075	235327	keystroke_l	l	n/a
117.8435	0.15	235687	keystroke_l	l	n/a
118.0985	0.135	236197	keystroke_e	e	n/a
118.2185	0.12	236437	keystroke_r	r	n/a
118.4135	0.135	236827	keystroke_y	y	n/a
118.4875	0.15	236975	keystroke_Key.space	Key.space	n/a
118.8485	0.105	237697	keystroke_f	f	n/a
118.9685	0.1045	237937	keystroke_u	u	n/a
119.058	0.075	238116	keystroke_l	l	n/a
119.223	0.18	238446	keystroke_l	l	n/a
119.388	0.15	238776	keystroke_y	y	n/a
119.478	0.15	238956	keystroke_Key.space	Key.space	n/a
122.541	0.072	245082	keystroke_s	s	n/a
122.583	0.105	245166	keystroke_e	e	n/a
122.748	0.105	245496	keystroke_e	e	n/a
122.898	0.12	245796	keystroke_m	m	n/a
122.988	0.1355	245976	keystroke_s	s	n/a
123.1535	0.105	246307	keystroke_Key.space	Key.space	n/a
123.5435	0.18	247087	keystroke_o	o	n/a
123.6935	0.165	247387	keystroke_p	p	n/a
124.1285	0.09	248257	keystroke_t	t	n/a
124.2635	0.12	248527	keystroke_i	i	n/a
124.3235	0.195	248647	keystroke_m	m	n/a
124.5035	0.15	249007	keystroke_i	i	n/a
124.9385	0.09	249877	keystroke_z	z	n/a
125.1785	0.105	250357	keystroke_e	e	n/a
125.3735	0.089	250747	keystroke_Key.enter	Key.enter	n/a
125.471	6.5485	250942	prompt	n/a	justify tight terrible tremendous\n
126.0335	0.12	252067	keystroke_j	j	n/a
126.2585	0.075	252517	keystroke_u	u	n/a
126.3185	0.18	252637	keystroke_s	s	n/a
126.4835	0.09	252967	keystroke_t	t	n/a
126.6185	0.1195	253237	keystroke_i	i	n/a
126.738	0.15	253476	keystroke_f	f	n/a
126.903	0.135	253806	keystroke_y	y	n/a
127.023	0.1195	254046	keystroke_Key.space	Key.space	n/a
127.4285	0.075	254857	keystroke_t	t	n/a
127.5335	0.075	255067	keystroke_i	i	n/a
127.6535	0.075	255307	keystroke_g	g	n/a
127.7585	0.135	255517	keystroke_h	h	n/a
127.8635	0.075	255727	keystroke_t	t	n/a
127.9975	0.105	255995	keystroke_Key.space	Key.space	n/a
128.2225	0.121	256445	keystroke_t	t	n/a
128.3285	0.135	256657	keystroke_e	e	n/a
128.5085	0.074	257017	keystroke_r	r	n/a
128.6575	0.075	257315	keystroke_r	r	n/a
128.7935	0.089	257587	keystroke_i	i	n/a
128.8975	0.105	257795	keystroke_b	b	n/a
129.0625	0.135	258125	keystroke_l	l	n/a
129.1825	0.105	258365	keystroke_e	e	n/a
129.3625	0.135	258725	keystroke_Key.space	Key.space	n/a
129.7675	0.075	259535	keystroke_t	t	n/a
129.9625	0.09	259925	keystroke_r	r	n/a
130.0075	0.15	260015	keystroke_e	e	n/a
130.1875	0.12	260375	keystroke_m	m	n/a
130.3225	0.18	260645	keystroke_o	o	n/a
130.4575	0.12	260915	keystroke_u	u	n/a
130.7575	0.075	261515	keystroke_Key.backspace	Key.backspace	n/a
130.9225	0.105	261845	keystroke_Key.backspace	Key.backspace	n/a
131.088	0.09	262176	keystroke_e	e	n/a
131.193	0.105	262386	keystroke_n	n	n/a
131.358	0.105	262716	keystroke_d	d	n/a
131.538	0.1345	263076	keystroke_o	o	n/a
131.628	0.1055	263256	keystroke_u	u	n/a
131.7475	0.135	263495	keystroke_s	s	n/a
131.9275	0.09	263855	keystroke_Key.enter	Key.enter	n/a
132.0245	7.6455	264049	prompt	n/a	dodge other bedding bahrain\n
132.6185	0.12	265237	keystroke_d	d	n/a
132.7685	0.105	265537	keystroke_o	o	n/a
133.128	0.105	266256	keystroke_d	d	n/a
133.248	0.15	266496	keystroke_g	g	n/a
133.368	0.135	266736	keystroke_e	e	n/a
133.623	0.105	267246	keystroke_Key.space	Key.space	n/a
133.803	0.12	267606	keystroke_o	o	n/a
133.953	0.091	267906	keystroke_t	t	n/a
134.058	0.105	268116	keystroke_h	h	n/a
134.148	0.15	268296	keystroke_e	e	n/a
134.253	0.12	268506	keystroke_r	r	n/a
134.343	0.105	268686	keystroke_Key.space	Key.space	n/a
134.868	0.1045	269736	keystroke_b	b	n/a
134.9885	0.105	269977	keystroke_e	e	n/a
135.2135	0.075	270427	keystroke_d	d	n/a
135.3785	0.09	270757	keystroke_d	d	n/a
135.4835	0.15	270967	keystroke_i	i	n/a
135.5735	0.15	271147	keystroke_n	n	n/a
135.6485	0.0895	271297	keystroke_g	g	n/a
135.768	0.12	271536	keystroke_Key.space	Key.space	n/a
136.2635	0.135	272527	keystroke_b	b	n/a
136.4135	0.12	272827	keystroke_e	e	n/a
137.0885	0.0745	274177	keystroke_Key.backspace	Key.backspace	n/a
137.178	0.105	274356	keystroke_a	a	n/a
137.328	0.12	274656	keystroke_h	h	n/a
137.523	0.09	275046	keystroke_a	a	n/a
137.973	0.075	275946	keystroke_Key.backspace	Key.backspace	n/a
138.078	0.09	276156	keystroke_r	r	n/a
138.228	0.09	276456	keystroke_i	i	n/a
138.348	0.165	276696	keystroke_a	a	n/a
138.873	0.075	277746	keystroke_Key.backspace	Key.backspace	n/a
139.023	0.09	278046	keystroke_Key.backspace	Key.backspace	n/a
139.114	0.164	278228	keystroke_a	a	n/a
139.263	0.105	278526	keystroke_i	i	n/a
139.323	0.165	278646	keystroke_n	n	n/a
139.578	0.09	279156	keystroke_Key.enter	Key.enter	n/a
139.6745	9.37	279349	prompt	n/a	fruits oops bargains namely\n
140.358	0.09	280716	keystroke_f	f	n/a
140.568	0.09	281136	keystroke_r	r	n/a
140.703	0.135	281406	keystroke_u	u	n/a
140.778	0.18	281556	keystroke_i	i	n/a
140.973	0.105	281946	keystroke_t	t	n/a
141.5735	0.06	283147	keystroke_Key.backspace	Key.backspace	n/a
141.708	0.12	283416	keystroke_Key.backspace	Key.backspace	n/a
142.488	0.135	284976	keystroke_i	i	n/a
142.638	0.09	285276	keystroke_t	t	n/a
142.998	0.105	285996	keystroke_s	s	n/a
143.208	0.105	286416	keystroke_Key.space	Key.space	n/a
143.388	0.135	286776	keystroke_o	o	n/a
143.538	0.105	287076	keystroke_p	p	n/a
143.718	0.12	287436	keystroke_p	p	n/a
143.883	0.12	287766	keystroke_s	s	n/a
144.048	0.135	288096	keystroke_Key.space	Key.space	n/a
144.708	0.105	289416	keystroke_b	b	n/a
144.978	0.105	289956	keystroke_a	a	n/a
145.068	0.06	290136	keystroke_r	r	n/a
145.758	0.12	291516	keystroke_g	g	n/a
145.878	0.135	291756	keystroke_a	a	n/a
146.058	0.18	292116	keystroke_i	i	n/a
146.133	0.165	292266	keystroke_n	n	n/a
146.268	0.135	292536	keystroke_s	s	n/a
146.463	0.135	292926	keystroke_Key.space	Key.space	n/a
147.108	0.105	294216	keystroke_n	n	n/a
147.214	0.089	294428	keystroke_e	e	n/a
147.408	0.15	294816	keystroke_m	m	n/a
147.933	0.075	295866	keystroke_Key.backspace	Key.backspace	n/a
148.068	0.105	296136	keystroke_Key.backspace	Key.backspace	n/a
148.158	0.136	296316	keystroke_a	a	n/a
148.308	0.09	296616	keystroke_m	m	n/a
148.413	0.15	296826	keystroke_e	e	n/a
148.549	0.209	297098	keystroke_l	l	n/a
148.698	0.165	297396	keystroke_y	y	n/a
148.908	0.135	297816	keystroke_Key.enter	Key.enter	n/a
149.051	6.1885	298102	prompt	n/a	clinton parks defendant get\n
149.718	0.135	299436	keystroke_c	c	n/a
149.838	0.09	299676	keystroke_l	l	n/a
149.868	0.195	299736	keystroke_i	i	n/a
150.018	0.15	300036	keystroke_n	n	n/a
150.183	0.09	300366	keystroke_t	t	n/a
150.288	0.195	300576	keystroke_o	o	n/a
150.393	0.165	300786	keystroke_n	n	n/a
150.543	0.165	301086	keystroke_Key.space	Key.space	n/a
151.068	0.06	302136	keystroke_p	p	n/a
151.143	0.1355	302286	keystroke_a	a	n/a
151.1885	0.135	302377	keystroke_r	r	n/a
151.3385	0.18	302677	keystroke_k	k	n/a
151.758	0.105	303516	keystroke_Key.space	Key.space	n/a
152.193	0.06	304386	keystroke_Key.backspace	Key.backspace	n/a
152.269	0.12	304538	keystroke_s	s	n/a
152.389	0.134	304778	keystroke_Key.space	Key.space	n/a
152.643	0.09	305286	keystroke_d	d	n/a
152.823	0.075	305646	keystroke_e	e	n/a
153.003	0.105	306006	keystroke_f	f	n/a
153.078	0.1195	306156	keystroke_e	e	n/a
153.2135	0.135	306427	keystroke_n	n	n/a
153.5275	0.12	307055	keystroke_d	d	n/a
153.6185	0.12	307237	keystroke_a	a	n/a
153.7225	0.136	307445	keystroke_n	n	n/a
154.0385	0.105	308077	keystroke_t	t	n/a
154.4125	0.105	308825	keystroke_Key.space	Key.space	n/a
154.7285	0.105	309457	keystroke_g	g	n/a
154.8185	0.164	309637	keystroke_e	e	n/a
154.9685	0.18	309937	keystroke_t	t	n/a
155.1035	0.134	310207	keystroke_Key.enter	Key.enter	n/a
155.248	7.2965	310496	prompt	n/a	more republican defensive abstracts\n
156.288	0.06	312576	keystroke_m	m	n/a
156.333	0.06	312666	keystroke_o	o	n/a
156.363	0.12	312726	keystroke_r	r	n/a
156.453	0.105	312906	keystroke_e	e	n/a
156.573	0.105	313146	keystroke_Key.space	Key.space	n/a
156.753	0.09	313506	keystroke_r	r	n/a
156.828	0.105	313656	keystroke_e	e	n/a
157.068	0.15	314136	keystroke_p	p	n/a
157.158	0.12	314316	keystroke_u	u	n/a
157.518	0.105	315036	keystroke_b	b	n/a
157.608	0.135	315216	keystroke_l	l	n/a
157.683	0.135	315366	keystroke_i	i	n/a
157.833	0.15	315666	keystroke_c	c	n/a
157.998	0.105	315996	keystroke_a	a	n/a
158.133	0.165	316266	keystroke_n	n	n/a
158.238	0.135	316476	keystroke_Key.space	Key.space	n/a
158.524	0.104	317048	keystroke_d	d	n/a
158.688	0.09	317376	keystroke_e	e	n/a
158.883	0.12	317766	keystroke_f	f	n/a
159.093	0.1495	318186	keystroke_e	e	n/a
159.3025	0.165	318605	keystroke_n	n	n/a
159.7225	0.12	319445	keystroke_s	s	n/a
159.8575	0.09	319715	keystroke_i	i	n/a
159.9625	0.135	319925	keystroke_v	v	n/a
160.0685	0.12	320137	keystroke_e	e	n/a
160.2025	0.106	320405	keystroke_Key.space	Key.space	n/a
160.3675	0.1055	320735	keystroke_a	a	n/a
160.743	0.105	321486	keystroke_b	b	n/a
161.028	0.12	322056	keystroke_s	s	n/a
161.223	0.075	322446	keystroke_t	t	n/a
161.403	0.105	322806	keystroke_r	r	n/a
161.478	0.09	322956	keystroke_a	a	n/a
161.6725	0.09	323345	keystroke_c	c	n/a
161.8525	0.12	323705	keystroke_t	t	n/a
161.9885	0.164	323977	keystroke_s	s	n/a
162.4375	0.105	324875	keystroke_Key.enter	Key.enter	n/a
162.5495	8.1855	325099	prompt	n/a	beast brought mins belt\n
163.353	0.165	326706	keystroke_b	b	n/a
163.488	0.18	326976	keystroke_a	a	n/a
163.669	0.194	327338	keystroke_s	s	n/a
163.878	0.225	327756	keystroke_e	e	n/a
164.328	0.06	328656	keystroke_Key.backspace	Key.backspace	n/a
164.478	0.075	328956	keystroke_Key.backspace	Key.backspace	n/a
164.598	0.105	329196	keystroke_e	e	n/a
164.643	0.15	329286	keystroke_a	a	n/a
165.108	0.045	330216	keystroke_Key.backspace	Key.backspace	n/a
165.258	0.075	330516	keystroke_Key.backspace	Key.backspace	n/a
165.333	0.15	330666	keystroke_e	e	n/a
165.423	0.15	330846	keystroke_a	a	n/a
165.498	0.105	330996	keystroke_s	s	n/a
165.708	0.06	331416	keystroke_Key.backspace	Key.backspace	n/a
165.873	0.06	331746	keystroke_Key.backspace	Key.backspace	n/a
166.023	0.075	332046	keystroke_Key.backspace	Key.backspace	n/a
166.173	0.105	332346	keystroke_Key.backspace	Key.backspace	n/a
166.233	0.165	332466	keystroke_e	e	n/a
166.323	0.105	332646	keystroke_a	a	n/a
166.413	0.18	332826	keystroke_s	s	n/a
166.638	0.0895	333276	keystroke_t	t	n/a
166.9675	0.12	333935	keystroke_Key.space	Key.space	n/a
167.2985	0.075	334597	keystroke_b	b	n/a
167.5085	0.075	335017	keystroke_r	r	n/a
167.6135	0.15	335227	keystroke_o	o	n/a
167.6885	0.105	335377	keystroke_u	u	n/a
167.7785	0.09	335557	keystroke_g	g	n/a
167.9735	0.18	335947	keystroke_h	h	n/a
168.1835	0.105	336367	keystroke_t	t	n/a
168.3635	0.135	336727	keystroke_Key.space	Key.space	n/a
168.5435	0.21	337087	keystroke_m	m	n/a
168.7235	0.18	337447	keystroke_i	i	n/a
168.8885	0.15	337777	keystroke_n	n	n/a
169.2935	0.12	338587	keystroke_s	s	n/a
169.4875	0.105	338975	keystroke_Key.space	Key.space	n/a
169.893	0.105	339786	keystroke_b	b	n/a
169.998	0.135	339996	keystroke_e	e	n/a
170.148	0.135	340296	keystroke_l	l	n/a
170.343	0.12	340686	keystroke_t	t	n/a
170.643	0.09	341286	keystroke_Key.enter	Key.enter	n/a
170.739	8.8005	341478	prompt	n/a	andorra ocean tiffany freelance\n
171.483	0.135	342966	keystroke_a	a	n/a
171.648	0.12	343296	keystroke_n	n	n/a
171.798	0.12	343596	keystroke_d	d	n/a
171.948	0.105	343896	keystroke_o	o	n/a
172.038	0.09	344076	keystroke_r	r	n/a
172.323	0.09	344646	keystroke_r	r	n/a
172.503	0.135	345006	keystroke_a	a	n/a
172.698	0.09	345396	keystroke_Key.space	Key.space	n/a
173.088	0.075	346176	keystroke_o	o	n/a
173.118	0.12	346236	keystroke_c	c	n/a
173.4035	0.089	346807	keystroke_e	e	n/a
173.6135	0.164	347227	keystroke_n	n	n/a
173.9875	0.075	347975	keystroke_Key.backspace	Key.backspace	n/a
174.0775	0.135	348155	keystroke_a	a	n/a
174.2435	0.134	348487	keystroke_n	n	n/a
174.3475	0.135	348695	keystroke_Key.space	Key.space	n/a
174.8575	0.121	349715	keystroke_f	f	n/a
174.9925	0.15	349985	keystroke_i	i	n/a
175.728	0.075	351456	keystroke_Key.backspace	Key.backspace	n/a
175.863	0.105	351726	keystroke_Key.backspace	Key.backspace	n/a
175.953	0.075	351906	keystroke_t	t	n/a
176.073	0.12	352146	keystroke_i	i	n/a
176.208	0.075	352416	keystroke_f	f	n/a
176.418	0.075	352836	keystroke_f	f	n/a
176.508	0.105	353016	keystroke_a	a	n/a
176.628	0.09	353256	keystroke_n	n	n/a
176.808	0.15	353616	keystroke_c	c	n/a
176.973	0.15	353946	keystroke_y	y	n/a
177.093	0.12	354186	keystroke_Key.space	Key.space	n/a
177.768	0.0745	355536	keystroke_f	f	n/a
177.9625	0.09	355925	keystroke_r	r	n/a
178.0235	0.104	356047	keystroke_e	e	n/a
178.1885	0.074	356377	keystroke_e	e	n/a
178.4275	0.15	356855	keystroke_l	l	n/a
178.5625	0.105	357125	keystroke_a	a	n/a
178.7275	0.09	357455	keystroke_n	n	n/a
178.8185	0.104	357637	keystroke_c	c	n/a
179.0575	0.075	358115	keystroke_e	e	n/a
179.4475	0.09	358895	keystroke_Key.enter	Key.enter	n/a
179.557	13.393	359114	prompt	n/a	addresses princess bulgarian extreme\n
180.1835	0.09	360367	keystroke_a	a	n/a
180.3335	0.089	360667	keystroke_d	d	n/a
180.4975	0.106	360995	keystroke_d	d	n/a
180.7235	0.074	361447	keystroke_r	r	n/a
180.7385	0.15	361477	keystroke_e	e	n/a
181.0085	0.074	362017	keystroke_s	s	n/a
181.1735	0.09	362347	keystroke_s	s	n/a
181.323	0.12	362646	keystroke_e	e	n/a
181.488	0.105	362976	keystroke_s	s	n/a
181.8625	0.09	363725	keystroke_Key.space	Key.space	n/a
182.1025	0.09	364205	keystroke_p	p	n/a
182.1775	0.09	364355	keystroke_r	r	n/a
182.3125	0.15	364625	keystroke_i	i	n/a
182.4025	0.12	364805	keystroke_n	n	n/a
182.6425	0.105	365285	keystroke_c	c	n/a
182.8825	0.09	365765	keystroke_e	e	n/a
183.0925	0.09	366185	keystroke_s	s	n/a
183.2725	0.09	366545	keystroke_s	s	n/a
183.4075	0.12	366815	keystroke_Key.space	Key.space	n/a
183.9325	0.09	367865	keystroke_b	b	n/a
184.0375	0.135	368075	keystroke_u	u	n/a
184.1435	0.195	368287	keystroke_l	l	n/a
184.4135	0.075	368827	keystroke_g	g	n/a
184.8925	0.136	369785	keystroke_a	a	n/a
185.1185	0.074	370237	keystroke_r	r	n/a
185.298	0.06	370596	keystroke_i	i	n/a
185.433	0.105	370866	keystroke_r	r	n/a
185.763	0.165	371526	keystroke_n	n	n/a
186.123	0.075	372246	keystroke_Key.backspace	Key.backspace	n/a
186.288	0.09	372576	keystroke_Key.backspace	Key.backspace	n/a
186.498	0.105	372996	keystroke_Key.backspace	Key.backspace	n/a
187.2625	0.076	374525	keystroke_r	r	n/a
187.3985	0.15	374797	keystroke_i	i	n/a
187.8635	0.045	375727	keystroke_Key.backspace	Key.backspace	n/a
187.9835	0.089	375967	keystroke_Key.backspace	Key.backspace	n/a
188.2235	0.09	376447	keystroke_i	i	n/a
188.3135	0.12	376627	keystroke_a	a	n/a
188.4635	0.12	376927	keystroke_n	n	n/a
188.5535	0.15	377107	keystroke_Key.space	Key.space	n/a
189.0185	0.105	378037	keystroke_e	e	n/a
189.2885	0.167	378577	keystroke_x	x	n/a
189.6175	0.09	379235	keystroke_t	t	n/a
189.8575	0.105	379715	keystroke_r	r	n/a
189.9175	0.15	379835	keystroke_e	e	n/a
190.4875	0.226	380975	keystroke_m	m	n/a
190.9685	0.074	381937	keystroke_Key.backspace	Key.backspace	n/a
191.4325	0.195	382865	keystroke_m	m	n/a
191.6885	0.135	383377	keystroke_e	e	n/a
192.8585	0.09	385717	keystroke_Key.enter	Key.enter	n/a
192.9555	5.874	385911	prompt	n/a	land namely prix poverty\n
193.6535	0.029	387307	keystroke_l	l	n/a
193.6685	0.105	387337	keystroke_a	a	n/a
193.8025	0.121	387605	keystroke_n	n	n/a
193.9085	0.089	387817	keystroke_d	d	n/a
194.0275	0.105	388055	keystroke_Key.space	Key.space	n/a
194.1935	0.104	388387	keystroke_n	n	n/a
194.3275	0.136	388655	keystroke_a	a	n/a
194.4475	0.09	388895	keystroke_m	m	n/a
194.5835	0.119	389167	keystroke_e	e	n/a
194.7485	0.24	389497	keystroke_l	l	n/a
194.8385	0.18	389677	keystroke_y	y	n/a
194.9275	0.18	389855	keystroke_Key.space	Key.space	n/a
195.3185	0.209	390637	keystroke_p	p	n/a
195.5425	0.105	391085	keystroke_r	r	n/a
195.7075	0.105	391415	keystroke_i	i	n/a
196.0375	0.15	392075	keystroke_x	x	n/a
196.653	0.105	393306	keystroke_Key.space	Key.space	n/a
197.058	0.09	394116	keystroke_p	p	n/a
197.313	0.105	394626	keystroke_o	o	n/a
197.583	0.09	395166	keystroke_v	v	n/a
197.688	0.165	395376	keystroke_e	e	n/a
197.823	0.105	395646	keystroke_r	r	n/a
198.393	0.09	396786	keystroke_t	t	n/a
198.513	0.12	397026	keystroke_y	y	n/a
198.753	0.075	397506	keystroke_Key.enter	Key.enter	n/a
198.835	8.4245	397670	prompt	n/a	priorities manufacturing camera luther\n
199.5035	0.105	399007	keystroke_p	p	n/a
199.6525	0.1205	399305	keystroke_r	r	n/a
199.788	0.09	399576	keystroke_i	i	n/a
199.983	0.105	399966	keystroke_o	o	n/a
200.988	0.105	401976	keystroke_r	r	n/a
201.123	0.075	402246	keystroke_i	i	n/a
201.288	0.0755	402576	keystroke_t	t	n/a
201.5735	0.1195	403147	keystroke_i	i	n/a
201.694	0.1345	403388	keystroke_e	e	n/a
201.8135	0.135	403627	keystroke_s	s	n/a
201.9775	0.12	403955	keystroke_Key.space	Key.space	n/a
202.2485	0.09	404497	keystroke_m	m	n/a
202.4285	0.12	404857	keystroke_a	a	n/a
202.5185	0.09	405037	keystroke_n	n	n/a
202.7585	0.09	405517	keystroke_u	u	n/a
203.2385	0.134	406477	keystroke_f	f	n/a
203.3435	0.105	406687	keystroke_a	a	n/a
203.5675	0.105	407135	keystroke_c	c	n/a
203.808	0.105	407616	keystroke_t	t	n/a
203.958	0.09	407916	keystroke_u	u	n/a
204.078	0.105	408156	keystroke_r	r	n/a
204.243	0.15	408486	keystroke_i	i	n/a
204.318	0.15	408636	keystroke_n	n	n/a
204.469	0.074	408938	keystroke_g	g	n/a
204.588	0.105	409176	keystroke_Key.space	Key.space	n/a
204.993	0.105	409986	keystroke_c	c	n/a
205.068	0.105	410136	keystroke_a	a	n/a
205.188	0.12	410376	keystroke_m	m	n/a
205.323	0.12	410646	keystroke_e	e	n/a
205.428	0.165	410856	keystroke_r	r	n/a
205.623	0.12	411246	keystroke_a	a	n/a
205.728	0.1195	411456	keystroke_Key.space	Key.space	n/a
206.3725	0.105	412745	keystroke_l	l	n/a
206.4625	0.09	412925	keystroke_u	u	n/a
206.5675	0.075	413135	keystroke_t	t	n/a
206.7485	0.09	413497	keystroke_h	h	n/a
206.8085	0.15	413617	keystroke_e	e	n/a
206.9285	0.12	413857	keystroke_r	r	n/a
207.1375	0.121	414275	keystroke_Key.enter	Key.enter	n/a
207.266	7.119	414532	prompt	n/a	plumbing i've promotes truly\n
207.978	0.105	415956	keystroke_l	l	n/a
208.368	0.075	416736	keystroke_Key.backspace	Key.backspace	n/a
208.623	0.045	417246	keystroke_p	p	n/a
208.8335	0.225	417667	keystroke_l	l	n/a
209.0435	0.105	418087	keystroke_u	u	n/a
209.3585	0.119	418717	keystroke_m	m	n/a
209.8535	0.09	419707	keystroke_b	b	n/a
209.9585	0.15	419917	keystroke_i	i	n/a
210.0635	0.165	420127	keystroke_n	n	n/a
210.2135	0.075	420427	keystroke_g	g	n/a
210.3175	0.121	420635	keystroke_Key.space	Key.space	n/a
210.7535	0.075	421507	keystroke_i	i	n/a
210.9785	0.09	421957	keystroke_'	'	n/a
211.1435	0.12	422287	keystroke_v	v	n/a
211.2645	0.119	422529	keystroke_e	e	n/a
211.5475	0.105	423095	keystroke_Key.space	Key.space	n/a
211.8785	0.074	423757	keystroke_p	p	n/a
212.1035	0.044	424207	keystroke_r	r	n/a
212.1175	0.061	424235	keystroke_o	o	n/a
212.2385	0.12	424477	keystroke_m	m	n/a
212.3425	0.136	424685	keystroke_o	o	n/a
212.4935	0.105	424987	keystroke_t	t	n/a
212.6135	0.12	425227	keystroke_e	e	n/a
212.8675	0.105	425735	keystroke_d	d	n/a
213.0325	0.105	426065	keystroke_Key.space	Key.space	n/a
213.558	0.075	427116	keystroke_t	t	n/a
213.738	0.105	427476	keystroke_r	r	n/a
213.828	0.12	427656	keystroke_u	u	n/a
213.933	0.195	427866	keystroke_l	l	n/a
214.083	0.105	428166	keystroke_y	y	n/a
214.293	0.09	428586	keystroke_Key.enter	Key.enter	n/a
214.3905	7.3295	428781	prompt	n/a	reached contributing tail substance\n
215.133	0.09	430266	keystroke_r	r	n/a
215.193	0.12	430386	keystroke_e	e	n/a
215.268	0.09	430536	keystroke_a	a	n/a
215.4635	0.104	430927	keystroke_c	c	n/a
215.5525	0.106	431105	keystroke_h	h	n/a
215.6885	0.074	431377	keystroke_e	e	n/a
215.8975	0.075	431795	keystroke_d	d	n/a
216.0035	0.104	432007	keystroke_Key.space	Key.space	n/a
216.2435	0.074	432487	keystroke_c	c	n/a
216.2875	0.151	432575	keystroke_o	o	n/a
216.3635	0.12	432727	keystroke_n	n	n/a
216.5135	0.06	433027	keystroke_t	t	n/a
216.678	0.075	433356	keystroke_r	r	n/a
216.768	0.09	433536	keystroke_i	i	n/a
216.903	0.09	433806	keystroke_b	b	n/a
217.008	0.09	434016	keystroke_u	u	n/a
217.173	0.09	434346	keystroke_t	t	n/a
217.308	0.15	434616	keystroke_i	i	n/a
217.368	0.135	434736	keystroke_n	n	n/a
217.488	0.09	434976	keystroke_g	g	n/a
217.593	0.135	435186	keystroke_Key.space	Key.space	n/a
217.893	0.105	435786	keystroke_t	t	n/a
217.999	0.119	435998	keystroke_a	a	n/a
218.163	0.09	436326	keystroke_l	l	n/a
218.223	0.165	436446	keystroke_i	i	n/a
218.613	0.045	437226	keystroke_Key.backspace	Key.backspace	n/a
218.718	0.075	437436	keystroke_Key.backspace	Key.backspace	n/a
218.973	0.12	437946	keystroke_i	i	n/a
219.033	0.195	438066	keystroke_l	l	n/a
219.183	0.12	438366	keystroke_Key.space	Key.space	n/a
219.663	0.105	439326	keystroke_s	s	n/a
219.783	0.075	439566	keystroke_u	u	n/a
219.918	0.075	439836	keystroke_b	b	n/a
220.263	0.15	440526	keystroke_s	s	n/a
220.848	0.12	441696	keystroke_t	t	n/a
220.938	0.105	441876	keystroke_a	a	n/a
221.073	0.12	442146	keystroke_n	n	n/a
221.178	0.105	442356	keystroke_c	c	n/a
221.403	0.0905	442806	keystroke_e	e	n/a
221.5825	0.1355	443165	keystroke_Key.enter	Key.enter	n/a
221.7255	7.539	443451	prompt	n/a	fits ourselves compressed headquarters\n
222.438	0.0905	444876	keystroke_f	f	n/a
222.5435	0.09	445087	keystroke_i	i	n/a
222.6475	0.121	445295	keystroke_r	r	n/a
222.7525	0.15	445505	keystroke_s	s	n/a
222.9185	0.075	445837	keystroke_t	t	n/a
223.0975	0.12	446195	keystroke_Key.space	Key.space	n/a
223.6375	0.12	447275	keystroke_o	o	n/a
223.7135	0.104	447427	keystroke_u	u	n/a
223.9075	0.09	447815	keystroke_r	r	n/a
224.2075	0.135	448415	keystroke_s	s	n/a
224.2975	0.135	448595	keystroke_e	e	n/a
224.4775	0.165	448955	keystroke_l	l	n/a
224.6725	0.135	449345	keystroke_v	v	n/a
224.7925	0.15	449585	keystroke_e	e	n/a
224.9435	0.119	449887	keystroke_s	s	n/a
225.1675	0.09	450335	keystroke_Key.space	Key.space	n/a
225.4075	0.165	450815	keystroke_c	c	n/a
225.4975	0.09	450995	keystroke_o	o	n/a
225.5575	0.165	451115	keystroke_m	m	n/a
225.6925	0.12	451385	keystroke_p	p	n/a
225.8575	0.105	451715	keystroke_r	r	n/a
225.9325	0.135	451865	keystroke_e	e	n/a
226.143	0.1045	452286	keystroke_s	s	n/a
226.3525	0.105	452705	keystroke_s	s	n/a
226.4725	0.09	452945	keystroke_e	e	n/a
226.6835	0.075	453367	keystroke_d	d	n/a
226.8025	0.12	453605	keystroke_Key.space	Key.space	n/a
227.1175	0.091	454235	keystroke_h	h	n/a
227.2225	0.105	454445	keystroke_e	e	n/a
227.3135	0.09	454627	keystroke_a	a	n/a
227.478	0.075	454956	keystroke_d	d	n/a
227.808	0.09	455616	keystroke_q	q	n/a
227.913	0.075	455826	keystroke_u	u	n/a
228.078	0.12	456156	keystroke_a	a	n/a
228.138	0.12	456276	keystroke_r	r	n/a
228.378	0.075	456756	keystroke_t	t	n/a
228.513	0.135	457026	keystroke_e	e	n/a
228.618	0.09	457236	keystroke_r	r	n/a
228.813	0.12	457626	keystroke_s	s	n/a
229.188	0.075	458376	keystroke_Key.enter	Key.enter	n/a
229.2795	10.2595	458559	prompt	n/a	ears controlling fighters discrimination\n
229.998	0.135	459996	keystroke_e	e	n/a
230.103	0.105	460206	keystroke_a	a	n/a
230.163	0.105	460326	keystroke_r	r	n/a
230.343	0.105	460686	keystroke_s	s	n/a
230.538	0.09	461076	keystroke_Key.space	Key.space	n/a
230.838	0.135	461676	keystroke_c	c	n/a
230.913	0.135	461826	keystroke_o	o	n/a
231.003	0.15	462006	keystroke_n	n	n/a
231.318	0.09	462636	keystroke_r	r	n/a
231.6775	0.105	463355	keystroke_Key.backspace	Key.backspace	n/a
231.7975	0.06	463595	keystroke_t	t	n/a
231.9625	0.075	463925	keystroke_r	r	n/a
232.0675	0.09	464135	keystroke_o	o	n/a
232.3375	0.075	464675	keystroke_l	l	n/a
232.5025	0.105	465005	keystroke_l	l	n/a
232.7125	0.105	465425	keystroke_i	i	n/a
232.7875	0.12	465575	keystroke_n	n	n/a
232.8925	0.105	465785	keystroke_g	g	n/a
233.0425	0.12	466085	keystroke_Key.space	Key.space	n/a
233.4775	0.075	466955	keystroke_g	g	n/a
233.5675	0.12	467135	keystroke_i	i	n/a
234.0025	0.075	468005	keystroke_Key.backspace	Key.backspace	n/a
234.1375	0.075	468275	keystroke_Key.backspace	Key.backspace	n/a
234.2275	0.09	468455	keystroke_f	f	n/a
234.3475	0.09	468695	keystroke_i	i	n/a
234.4825	0.09	468965	keystroke_g	g	n/a
234.6925	0.12	469385	keystroke_h	h	n/a
234.9325	0.105	469865	keystroke_t	t	n/a
235.1275	0.105	470255	keystroke_e	e	n/a
235.2025	0.12	470405	keystroke_r	r	n/a
235.638	0.15	471276	keystroke_s	s	n/a
235.938	0.105	471876	keystroke_Key.space	Key.space	n/a
236.298	0.075	472596	keystroke_d	d	n/a
236.403	0.105	472806	keystroke_i	i	n/a
236.508	0.075	473016	keystroke_s	s	n/a
236.7175	0.09	473435	keystroke_c	c	n/a
236.9425	0.091	473885	keystroke_r	r	n/a
237.0625	0.165	474125	keystroke_i	i	n/a
237.2425	0.12	474485	keystroke_u	u	n/a
237.8725	0.06	475745	keystroke_Key.backspace	Key.backspace	n/a
238.1275	0.195	476255	keystroke_m	m	n/a
238.2775	0.18	476555	keystroke_i	i	n/a
238.4275	0.15	476855	keystroke_n	n	n/a
238.7425	0.12	477485	keystroke_a	a	n/a
238.8325	0.135	477665	keystroke_t	t	n/a
238.9375	0.105	477875	keystroke_i	i	n/a
239.0275	0.105	478055	keystroke_o	o	n/a
239.0725	0.165	478145	keystroke_n	n	n/a
239.4475	0.0895	478895	keystroke_Key.enter	Key.enter	n/a
239.544	6.731	479088	prompt	n/a	cloudy texture conference bonds\n
240.243	0.12	480486	keystroke_c	c	n/a
240.288	0.09	480576	keystroke_l	l	n/a
240.467	0.136	480934	keystroke_o	o	n/a
240.588	0.104	481176	keystroke_u	u	n/a
240.752	0.136	481504	keystroke_d	d	n/a
240.948	0.135	481896	keystroke_y	y	n/a
241.067	0.105	482134	keystroke_Key.space	Key.space	n/a
241.7125	0.135	483425	keystroke_t	t	n/a
241.8025	0.12	483605	keystroke_e	e	n/a
242.0725	0.09	484145	keystroke_x	x	n/a
242.2525	0.09	484505	keystroke_t	t	n/a
242.4025	0.12	484805	keystroke_u	u	n/a
242.4775	0.075	484955	keystroke_r	r	n/a
242.5375	0.105	485075	keystroke_e	e	n/a
242.7025	0.12	485405	keystroke_Key.space	Key.space	n/a
242.9875	0.12	485975	keystroke_c	c	n/a
243.0775	0.12	486155	keystroke_o	o	n/a
243.1085	0.164	486217	keystroke_n	n	n/a
243.2875	0.105	486575	keystroke_f	f	n/a
243.4675	0.1505	486935	keystroke_e	e	n/a
243.603	0.135	487206	keystroke_r	r	n/a
243.723	0.105	487446	keystroke_e	e	n/a
243.918	0.135	487836	keystroke_n	n	n/a
243.993	0.105	487986	keystroke_c	c	n/a
244.248	0.075	488496	keystroke_e	e	n/a
244.473	0.105	488946	keystroke_Key.space	Key.space	n/a
244.953	0.18	489906	keystroke_o	o	n/a
245.043	0.06	490086	keystroke_n	n	n/a
245.328	0.06	490656	keystroke_Key.backspace	Key.backspace	n/a
245.478	0.074	490956	keystroke_Key.backspace	Key.backspace	n/a
245.523	0.09	491046	keystroke_b	b	n/a
245.673	0.165	491346	keystroke_o	o	n/a
245.778	0.15	491556	keystroke_n	n	n/a
245.868	0.15	491736	keystroke_d	d	n/a
245.988	0.12	491976	keystroke_s	s	n/a
246.183	0.09	492366	keystroke_Key.enter	Key.enter	n/a
246.282	10.0725	492564	prompt	n/a	photographic speakers vsnet just\n
246.9625	0.105	493925	keystroke_p	p	n/a
247.0975	0.135	494195	keystroke_h	h	n/a
247.1875	0.12	494375	keystroke_o	o	n/a
247.3225	0.09	494645	keystroke_t	t	n/a
247.4425	0.105	494885	keystroke_o	o	n/a
247.593	0.09	495186	keystroke_g	g	n/a
247.788	0.135	495576	keystroke_r	r	n/a
247.893	0.18	495786	keystroke_p	p	n/a
247.908	0.135	495816	keystroke_a	a	n/a
248.028	0.12	496056	keystroke_h	h	n/a
248.268	0.09	496536	keystroke_y	y	n/a
248.823	0.104	497646	keystroke_Key.backspace	Key.backspace	n/a
249.093	0.09	498186	keystroke_i	i	n/a
249.168	0.12	498336	keystroke_c	c	n/a
249.392	0.135	498784	keystroke_Key.space	Key.space	n/a
249.933	0.075	499866	keystroke_Key.backspace	Key.backspace	n/a
250.113	0.059	500226	keystroke_Key.backspace	Key.backspace	n/a
250.277	0.06	500554	keystroke_Key.backspace	Key.backspace	n/a
250.428	0.074	500856	keystroke_Key.backspace	Key.backspace	n/a
250.593	0.044	501186	keystroke_Key.backspace	Key.backspace	n/a
250.743	0.075	501486	keystroke_Key.backspace	Key.backspace	n/a
250.893	0.149	501786	keystroke_a	a	n/a
251.043	0.15	502086	keystroke_p	p	n/a
251.148	0.12	502296	keystroke_h	h	n/a
251.492	0.1505	502984	keystroke_i	i	n/a
251.6725	0.105	503345	keystroke_c	c	n/a
251.7925	0.15	503585	keystroke_Key.space	Key.space	n/a
252.0775	0.09	504155	keystroke_s	s	n/a
252.1825	0.09	504365	keystroke_p	p	n/a
252.3025	0.12	504605	keystroke_e	e	n/a
252.4075	0.106	504815	keystroke_a	a	n/a
252.5725	0.151	505145	keystroke_k	k	n/a
252.7525	0.15	505505	keystroke_e	e	n/a
252.8725	0.12	505745	keystroke_r	r	n/a
253.0375	0.105	506075	keystroke_s	s	n/a
253.2175	0.0905	506435	keystroke_Key.space	Key.space	n/a
253.6675	0.09	507335	keystroke_s	s	n/a
254.0725	0.09	508145	keystroke_Key.backspace	Key.backspace	n/a
254.2375	0.12	508475	keystroke_v	v	n/a
254.3875	0.15	508775	keystroke_s	s	n/a
255.0925	0.105	510185	keystroke_n	n	n/a
255.2125	0.165	510425	keystroke_e	e	n/a
255.3335	0.104	510667	keystroke_t	t	n/a
255.4675	0.105	510935	keystroke_Key.space	Key.space	n/a
255.6175	0.105	511235	keystroke_j	j	n/a
255.8275	0.06	511655	keystroke_u	u	n/a
255.9175	0.135	511835	keystroke_s	s	n/a
256.0225	0.105	512045	keystroke_t	t	n/a
256.2475	0.105	512495	keystroke_Key.enter	Key.enter	n/a
256.359	5.305	512718	prompt	n/a	jake arising covered link\n
257.042	0.106	514084	keystroke_j	j	n/a
257.163	0.135	514326	keystroke_a	a	n/a
257.313	0.134	514626	keystroke_k	k	n/a
257.417	0.091	514834	keystroke_e	e	n/a
257.537	0.1205	515074	keystroke_Key.space	Key.space	n/a
257.6725	0.135	515345	keystroke_a	a	n/a
257.8375	0.09	515675	keystroke_r	r	n/a
257.9725	0.09	515945	keystroke_i	i	n/a
258.1675	0.12	516335	keystroke_s	s	n/a
258.3175	0.15	516635	keystroke_i	i	n/a
258.4075	0.18	516815	keystroke_n	n	n/a
258.5725	0.09	517145	keystroke_g	g	n/a
258.8725	0.135	517745	keystroke_Key.space	Key.space	n/a
259.3225	0.09	518645	keystroke_o	o	n/a
259.4275	0.165	518855	keystroke_v	v	n/a
259.6975	0.06	519395	keystroke_Key.backspace	Key.backspace	n/a
259.8475	0.075	519695	keystroke_Key.backspace	Key.backspace	n/a
259.8925	0.135	519785	keystroke_c	c	n/a
260.0425	0.12	520085	keystroke_o	o	n/a
260.1775	0.105	520355	keystroke_v	v	n/a
260.2675	0.18	520535	keystroke_e	e	n/a
260.4175	0.15	520835	keystroke_r	r	n/a
260.5525	0.105	521105	keystroke_e	e	n/a
260.7775	0.09	521555	keystroke_d	d	n/a
260.8825	0.105	521765	keystroke_Key.space	Key.space	n/a
261.0025	0.135	522005	keystroke_l	l	n/a
261.0925	0.15	522185	keystroke_i	i	n/a
261.2275	0.135	522455	keystroke_n	n	n/a
261.3175	0.15	522635	keystroke_k	k	n/a
261.5725	0.09	523145	keystroke_Key.enter	Key.enter	n/a
261.67	8.1245	523340	prompt	n/a	departmental blink stops attorney\n
262.3225	0.12	524645	keystroke_d	d	n/a
262.5625	0.06	525125	keystroke_e	e	n/a
262.6375	0.105	525275	keystroke_p	p	n/a
262.7725	0.12	525545	keystroke_a	a	n/a
262.8175	0.105	525635	keystroke_r	r	n/a
263.0275	0.075	526055	keystroke_t	t	n/a
263.1175	0.105	526235	keystroke_m	m	n/a
263.2525	0.105	526505	keystroke_e	e	n/a
263.3875	0.12	526775	keystroke_n	n	n/a
263.5375	0.09	527075	keystroke_t	t	n/a
264.5425	0.12	529085	keystroke_a	a	n/a
264.7225	0.15	529445	keystroke_l	l	n/a
264.8125	0.105	529625	keystroke_Key.space	Key.space	n/a
265.1575	0.09	530315	keystroke_b	b	n/a
265.2775	0.12	530555	keystroke_l	l	n/a
265.3375	0.135	530675	keystroke_i	i	n/a
265.668	0.03	531336	keystroke_c	c	n/a
265.8175	0.075	531635	keystroke_n	n	n/a
266.1025	0.09	532205	keystroke_Key.backspace	Key.backspace	n/a
266.2375	0.09	532475	keystroke_Key.backspace	Key.backspace	n/a
266.4625	0.136	532925	keystroke_n	n	n/a
266.5075	0.1805	533015	keystroke_k	k	n/a
266.6125	0.1355	533225	keystroke_Key.space	Key.space	n/a
266.928	0.15	533856	keystroke_s	s	n/a
267.048	0.09	534096	keystroke_t	t	n/a
267.168	0.075	534336	keystroke_o	o	n/a
267.363	0.105	534726	keystroke_p	p	n/a
267.513	0.134	535026	keystroke_s	s	n/a
267.782	0.135	535564	keystroke_Key.space	Key.space	n/a
268.142	0.135	536284	keystroke_a	a	n/a
268.233	0.09	536466	keystroke_t	t	n/a
268.458	0.075	536916	keystroke_t	t	n/a
268.563	0.089	537126	keystroke_o	o	n/a
268.862	0.135	537724	keystroke_r	r	n/a
269.027	0.135	538054	keystroke_n	n	n/a
269.297	0.106	538594	keystroke_e	e	n/a
269.463	0.12	538926	keystroke_y	y	n/a
269.732	0.0605	539464	keystroke_Key.enter	Key.enter	n/a
269.7995	7.165	539599	prompt	n/a	bend prescribed vaccine tables\n
270.7525	0.105	541505	keystroke_b	b	n/a
270.8425	0.12	541685	keystroke_e	e	n/a
270.9925	0.12	541985	keystroke_n	n	n/a
271.1875	0.12	542375	keystroke_d	d	n/a
271.4125	0.105	542825	keystroke_Key.space	Key.space	n/a
271.7725	0.1045	543545	keystroke_p	p	n/a
271.892	0.105	543784	keystroke_r	r	n/a
271.983	0.119	543966	keystroke_e	e	n/a
272.628	0.074	545256	keystroke_s	s	n/a
272.853	0.105	545706	keystroke_c	c	n/a
273.093	0.06	546186	keystroke_r	r	n/a
273.198	0.09	546396	keystroke_i	i	n/a
273.363	0.1645	546726	keystroke_b	b	n/a
273.5425	0.1205	547085	keystroke_e	e	n/a
273.813	0.105	547626	keystroke_d	d	n/a
274.037	0.075	548074	keystroke_Key.space	Key.space	n/a
274.413	0.15	548826	keystroke_v	v	n/a
274.548	0.09	549096	keystroke_a	a	n/a
274.758	0.09	549516	keystroke_c	c	n/a
274.923	0.09	549846	keystroke_c	c	n/a
275.028	0.165	550056	keystroke_i	i	n/a
275.133	0.135	550266	keystroke_n	n	n/a
275.238	0.09	550476	keystroke_e	e	n/a
275.388	0.104	550776	keystroke_Key.space	Key.space	n/a
275.883	0.105	551766	keystroke_t	t	n/a
275.972	0.121	551944	keystroke_a	a	n/a
276.153	0.089	552306	keystroke_b	b	n/a
276.333	0.089	552666	keystroke_l	l	n/a
276.437	0.18	552874	keystroke_e	e	n/a
276.588	0.15	553176	keystroke_s	s	n/a
276.858	0.105	553716	keystroke_Key.enter	Key.enter	n/a
276.97	14.769	553940	prompt	n/a	amended atlantic johnson insurance\n
277.668	0.105	555336	keystroke_a	a	n/a
277.758	0.105	555516	keystroke_m	m	n/a
277.893	0.09	555786	keystroke_e	e	n/a
278.028	0.09	556056	keystroke_n	n	n/a
278.313	0.09	556626	keystroke_d	d	n/a
278.523	0.06	557046	keystroke_e	e	n/a
278.733	0.075	557466	keystroke_d	d	n/a
279.167	0.12	558334	keystroke_Key.space	Key.space	n/a
279.498	0.09	558996	keystroke_a	a	n/a
279.678	0.165	559356	keystroke_l	l	n/a
280.113	0.09	560226	keystroke_Key.backspace	Key.backspace	n/a
280.248	0.06	560496	keystroke_t	t	n/a
280.353	0.135	560706	keystroke_l	l	n/a
280.8775	0.15	561755	keystroke_a	a	n/a
281.0275	0.1205	562055	keystroke_n	n	n/a
281.208	0.12	562416	keystroke_c	c	n/a
282.243	0.075	564486	keystroke_Key.backspace	Key.backspace	n/a
282.303	0.09	564606	keystroke_t	t	n/a
282.468	0.09	564936	keystroke_i	i	n/a
282.588	0.12	565176	keystroke_c	c	n/a
282.753	0.105	565506	keystroke_Key.space	Key.space	n/a
282.963	0.12	565926	keystroke_j	j	n/a
283.053	0.15	566106	keystroke_o	o	n/a
283.218	0.1045	566436	keystroke_h	h	n/a
283.5025	0.105	567005	keystroke_n	n	n/a
283.803	0.12	567606	keystroke_s	s	n/a
283.938	0.149	567876	keystroke_o	o	n/a
284.058	0.164	568116	keystroke_n	n	n/a
285.392	0.075	570784	keystroke_Key.backspace	Key.backspace	n/a
285.558	0.089	571116	keystroke_Key.backspace	Key.backspace	n/a
285.722	0.09	571444	keystroke_Key.backspace	Key.backspace	n/a
285.887	0.09	571774	keystroke_Key.backspace	Key.backspace	n/a
286.217	0.12	572434	keystroke_a	a	n/a
286.322	0.15	572644	keystroke_n	n	n/a
286.547	0.105	573094	keystroke_t	t	n/a
286.698	0.09	573396	keystroke_i	i	n/a
286.803	0.135	573606	keystroke_c	c	n/a
286.968	0.135	573936	keystroke_Key.space	Key.space	n/a
287.7625	0.105	575525	keystroke_h	h	n/a
287.8825	0.18	575765	keystroke_o	o	n/a
288.3175	0.09	576635	keystroke_Key.backspace	Key.backspace	n/a
288.4525	0.09	576905	keystroke_Key.backspace	Key.backspace	n/a
288.6625	0.105	577325	keystroke_j	j	n/a
288.7075	0.15	577415	keystroke_o	o	n/a
288.9025	0.105	577805	keystroke_h	h	n/a
289.1725	0.12	578345	keystroke_n	n	n/a
289.5325	0.12	579065	keystroke_s	s	n/a
289.6375	0.135	579275	keystroke_o	o	n/a
289.7275	0.165	579455	keystroke_n	n	n/a
289.8775	0.15	579755	keystroke_Key.space	Key.space	n/a
290.4325	0.135	580865	keystroke_i	i	n/a
290.5075	0.12	581015	keystroke_n	n	n/a
290.6285	0.089	581257	keystroke_s	s	n/a
290.7625	0.09	581525	keystroke_u	u	n/a
290.8825	0.15	581765	keystroke_r	r	n/a
291.0175	0.12	582035	keystroke_a	a	n/a
291.1225	0.105	582245	keystroke_n	n	n/a
291.2425	0.09	582485	keystroke_c	c	n/a
291.4525	0.09	582905	keystroke_e	e	n/a
291.6025	0.135	583205	keystroke_Key.enter	Key.enter	n/a
291.7465	12.6975	583493	prompt	n/a	aquarium randy brochures messaging\n
292.4875	0.135	584975	keystroke_a	a	n/a
293.2375	0.12	586475	keystroke_q	q	n/a
293.3275	0.15	586655	keystroke_u	u	n/a
293.4025	0.18	586805	keystroke_i	i	n/a
293.7175	0.165	587435	keystroke_a	a	n/a
294.3625	0.075	588725	keystroke_Key.backspace	Key.backspace	n/a
294.5125	0.105	589025	keystroke_Key.backspace	Key.backspace	n/a
294.6325	0.12	589265	keystroke_a	a	n/a
294.7075	0.18	589415	keystroke_r	r	n/a
296.1925	0.12	592385	keystroke_i	i	n/a
296.6575	0.1045	593315	keystroke_u	u	n/a
297.288	0.149	594576	keystroke_m	m	n/a
297.7075	0.105	595415	keystroke_Key.space	Key.space	n/a
298.082	0.105	596164	keystroke_r	r	n/a
298.172	0.09	596344	keystroke_a	a	n/a
298.277	0.105	596554	keystroke_n	n	n/a
298.368	0.134	596736	keystroke_d	d	n/a
298.637	0.12	597274	keystroke_y	y	n/a
298.742	0.12	597484	keystroke_Key.space	Key.space	n/a
299.132	0.075	598264	keystroke_b	b	n/a
299.342	0.09	598684	keystroke_r	r	n/a
299.448	0.119	598896	keystroke_o	o	n/a
299.702	0.09	599404	keystroke_c	c	n/a
299.7625	0.0745	599525	keystroke_h	h	n/a
299.957	0.076	599914	keystroke_u	u	n/a
300.122	0.105	600244	keystroke_r	r	n/a
300.257	0.196	600514	keystroke_s	s	n/a
300.423	0.134	600846	keystroke_e	e	n/a
301.112	0.06	602224	keystroke_Key.backspace	Key.backspace	n/a
301.247	0.105	602494	keystroke_Key.backspace	Key.backspace	n/a
301.337	0.12	602674	keystroke_e	e	n/a
301.428	0.134	602856	keystroke_s	s	n/a
301.637	0.15	603274	keystroke_Key.space	Key.space	n/a
302.327	0.12	604654	keystroke_m	m	n/a
302.462	0.091	604924	keystroke_e	e	n/a
302.612	0.091	605224	keystroke_s	s	n/a
302.777	0.09	605554	keystroke_s	s	n/a
303.228	0.135	606456	keystroke_a	a	n/a
303.347	0.105	606694	keystroke_g	g	n/a
303.558	0.149	607116	keystroke_i	i	n/a
303.647	0.1655	607294	keystroke_n	n	n/a
303.8425	0.135	607685	keystroke_g	g	n/a
304.3225	0.12	608645	keystroke_Key.enter	Key.enter	n/a
304.4485	7.1515	608897	prompt	n/a	anti she's numerical monsters\n
305.1335	0.119	610267	keystroke_a	a	n/a
305.2675	0.105	610535	keystroke_n	n	n/a
305.4175	0.09	610835	keystroke_t	t	n/a
305.5375	0.135	611075	keystroke_i	i	n/a
305.6575	0.105	611315	keystroke_Key.space	Key.space	n/a
305.8075	0.1055	611615	keystroke_s	s	n/a
305.914	0.1035	611828	keystroke_h	h	n/a
306.0475	0.105	612095	keystroke_e	e	n/a
306.1975	0.12	612395	keystroke_'	'	n/a
306.3925	0.09	612785	keystroke_s	s	n/a
306.5425	0.105	613085	keystroke_Key.space	Key.space	n/a
306.9775	0.075	613955	keystroke_u	u	n/a
307.4725	0.075	614945	keystroke_Key.backspace	Key.backspace	n/a
307.6825	0.0905	615365	keystroke_n	n	n/a
307.937	0.091	615874	keystroke_u	u	n/a
308.178	0.09	616356	keystroke_m	m	n/a
308.298	0.135	616596	keystroke_e	e	n/a
308.448	0.105	616896	keystroke_r	r	n/a
308.568	0.105	617136	keystroke_i	i	n/a
308.823	0.135	617646	keystroke_c	c	n/a
308.943	0.135	617886	keystroke_a	a	n/a
309.048	0.164	618096	keystroke_l	l	n/a
309.182	0.135	618364	keystroke_Key.space	Key.space	n/a
309.888	0.089	619776	keystroke_n	n	n/a
310.217	0.09	620434	keystroke_Key.backspace	Key.backspace	n/a
310.442	0.09	620884	keystroke_m	m	n/a
310.517	0.135	621034	keystroke_o	o	n/a
310.622	0.121	621244	keystroke_n	n	n/a
310.757	0.15	621514	keystroke_s	s	n/a
310.922	0.075	621844	keystroke_t	t	n/a
310.998	0.149	621996	keystroke_e	e	n/a
311.117	0.12	622234	keystroke_r	r	n/a
311.252	0.135	622504	keystroke_s	s	n/a
311.507	0.09	623014	keystroke_Key.enter	Key.enter	n/a
311.6055	8.1985	623211	prompt	n/a	tribune cheats federation cooked\n
312.3625	0.09	624725	keystroke_t	t	n/a
312.5575	0.075	625115	keystroke_r	r	n/a
312.6775	0.105	625355	keystroke_i	i	n/a
312.8575	0.105	625715	keystroke_b	b	n/a
312.9925	0.105	625985	keystroke_u	u	n/a
313.5775	0.135	627155	keystroke_n	n	n/a
313.8025	0.12	627605	keystroke_e	e	n/a
314.0125	0.12	628025	keystroke_Key.space	Key.space	n/a
314.4325	0.105	628865	keystroke_c	c	n/a
314.5525	0.09	629105	keystroke_h	h	n/a
314.6725	0.12	629345	keystroke_e	e	n/a
314.7775	0.15	629555	keystroke_a	a	n/a
314.9125	0.105	629825	keystroke_t	t	n/a
315.0775	0.12	630155	keystroke_s	s	n/a
315.2725	0.12	630545	keystroke_Key.space	Key.space	n/a
315.7525	0.15	631505	keystroke_f	f	n/a
315.8575	0.105	631715	keystroke_e	e	n/a
316.1275	0.12	632255	keystroke_d	d	n/a
316.3825	0.18	632765	keystroke_e	e	n/a
316.5475	0.1345	633095	keystroke_r	r	n/a
316.997	0.1355	633994	keystroke_a	a	n/a
317.1025	0.135	634205	keystroke_t	t	n/a
317.2675	0.106	634535	keystroke_i	i	n/a
317.3575	0.135	634715	keystroke_o	o	n/a
317.4325	0.18	634865	keystroke_n	n	n/a
317.5825	0.18	635165	keystroke_Key.space	Key.space	n/a
318.078	0.12	636156	keystroke_c	c	n/a
318.183	0.09	636366	keystroke_o	o	n/a
318.348	0.135	636696	keystroke_o	o	n/a
318.573	0.09	637146	keystroke_e	e	n/a
319.038	0.06	638076	keystroke_Key.backspace	Key.backspace	n/a
319.233	0.12	638466	keystroke_k	k	n/a
319.323	0.075	638646	keystroke_e	e	n/a
319.533	0.105	639066	keystroke_d	d	n/a
319.698	0.104	639396	keystroke_Key.enter	Key.enter	n/a
319.8095	7.5995	639619	prompt	n/a	monroe newer bookings leonard\n
320.4175	0.15	640835	keystroke_m	m	n/a
320.7175	0.105	641435	keystroke_o	o	n/a
321.0625	0.105	642125	keystroke_n	n	n/a
321.3325	0.105	642665	keystroke_r	r	n/a
321.4675	0.12	642935	keystroke_o	o	n/a
321.663	0.104	643326	keystroke_e	e	n/a
321.9175	0.09	643835	keystroke_Key.space	Key.space	n/a
322.2475	0.12	644495	keystroke_n	n	n/a
322.3685	0.134	644737	keystroke_e	e	n/a
322.4725	0.12	644945	keystroke_w	w	n/a
322.8775	0.121	645755	keystroke_e	e	n/a
322.9525	0.195	645905	keystroke_r	r	n/a
323.3125	0.075	646625	keystroke_Key.backspace	Key.backspace	n/a
323.4625	0.075	646925	keystroke_Key.backspace	Key.backspace	n/a
323.7025	0.135	647405	keystroke_e	e	n/a
323.8225	0.105	647645	keystroke_r	r	n/a
323.9725	0.12	647945	keystroke_Key.space	Key.space	n/a
324.3325	0.12	648665	keystroke_b	b	n/a
324.4225	0.075	648845	keystroke_o	o	n/a
324.5725	0.09	649145	keystroke_o	o	n/a
324.6025	0.135	649205	keystroke_k	k	n/a
324.8725	0.1495	649745	keystroke_i	i	n/a
324.932	0.18	649864	keystroke_n	n	n/a
325.097	0.075	650194	keystroke_g	g	n/a
325.247	0.15	650494	keystroke_s	s	n/a
325.457	0.105	650914	keystroke_Key.space	Key.space	n/a
325.998	0.12	651996	keystroke_l	l	n/a
326.133	0.21	652266	keystroke_e	e	n/a
326.403	0.09	652806	keystroke_o	o	n/a
326.628	0.1195	653256	keystroke_n	n	n/a
326.8225	0.105	653645	keystroke_a	a	n/a
326.8825	0.105	653765	keystroke_r	r	n/a
327.1075	0.15	654215	keystroke_d	d	n/a
327.3025	0.105	654605	keystroke_Key.enter	Key.enter	n/a
327.4145	8.035	654829	prompt	n/a	monkey cancer maybe illinois\n
328.0075	0.12	656015	keystroke_m	m	n/a
328.0975	0.165	656195	keystroke_o	o	n/a
328.2175	0.12	656435	keystroke_n	n	n/a
328.3675	0.105	656735	keystroke_e	e	n/a
328.6825	0.105	657365	keystroke_k	k	n/a
328.9675	0.06	657935	keystroke_Key.backspace	Key.backspace	n/a
329.0875	0.075	658175	keystroke_Key.backspace	Key.backspace	n/a
329.3125	0.075	658625	keystroke_k	k	n/a
329.4175	0.105	658835	keystroke_e	e	n/a
329.5525	0.135	659105	keystroke_y	y	n/a
329.6425	0.105	659285	keystroke_Key.space	Key.space	n/a
329.958	0.09	659916	keystroke_c	c	n/a
330.078	0.165	660156	keystroke_a	a	n/a
330.243	0.105	660486	keystroke_n	n	n/a
330.558	0.12	661116	keystroke_c	c	n/a
330.798	0.135	661596	keystroke_e	e	n/a
330.903	0.135	661806	keystroke_r	r	n/a
331.067	0.12	662134	keystroke_Key.space	Key.space	n/a
331.458	0.105	662916	keystroke_m	m	n/a
331.578	0.135	663156	keystroke_a	a	n/a
331.803	0.134	663606	keystroke_y	y	n/a
332.162	0.12	664324	keystroke_b	b	n/a
332.283	0.104	664566	keystroke_e	e	n/a
332.417	0.105	664834	keystroke_Key.space	Key.space	n/a
332.808	0.105	665616	keystroke_i	i	n/a
332.972	0.136	665944	keystroke_l	l	n/a
333.257	0.076	666514	keystroke_i	i	n/a
333.707	0.09	667414	keystroke_Key.backspace	Key.backspace	n/a
333.9325	0.15	667865	keystroke_l	l	n/a
334.0375	0.15	668075	keystroke_i	i	n/a
334.6525	0.165	669305	keystroke_n	n	n/a
334.7875	0.195	669575	keystroke_o	o	n/a
334.9375	0.135	669875	keystroke_i	i	n/a
335.0875	0.12	670175	keystroke_s	s	n/a
335.3425	0.105	670685	keystroke_Key.enter	Key.enter	n/a
335.4535	6.4005	670907	prompt	n/a	dramatic sugar blackjack paint\n
336.0925	0.105	672185	keystroke_d	d	n/a
336.2875	0.165	672575	keystroke_r	r	n/a
336.4075	0.15	672815	keystroke_a	a	n/a
336.5725	0.0895	673145	keystroke_m	m	n/a
336.722	0.15	673444	keystroke_a	a	n/a
336.842	0.12	673684	keystroke_t	t	n/a
337.007	0.105	674014	keystroke_i	i	n/a
337.127	0.15	674254	keystroke_c	c	n/a
337.637	0.135	675274	keystroke_Key.space	Key.space	n/a
337.908	0.1195	675816	keystroke_s	s	n/a
338.0125	0.075	676025	keystroke_u	u	n/a
338.1175	0.09	676235	keystroke_g	g	n/a
338.2525	0.15	676505	keystroke_a	a	n/a
338.3575	0.121	676715	keystroke_r	r	n/a
338.5525	0.105	677105	keystroke_Key.space	Key.space	n/a
338.7475	0.12	677495	keystroke_b	b	n/a
338.8825	0.12	677765	keystroke_l	l	n/a
338.9725	0.075	677945	keystroke_a	a	n/a
339.1525	0.135	678305	keystroke_c	c	n/a
339.3025	0.09	678605	keystroke_k	k	n/a
339.5725	0.105	679145	keystroke_j	j	n/a
339.7825	0.27	679565	keystroke_a	a	n/a
340.4575	0.165	680915	keystroke_c	c	n/a
340.6375	0.15	681275	keystroke_k	k	n/a
340.7425	0.12	681485	keystroke_Key.space	Key.space	n/a
340.9825	0.075	681965	keystroke_p	p	n/a
341.0725	0.135	682145	keystroke_a	a	n/a
341.2225	0.135	682445	keystroke_i	i	n/a
341.3275	0.15	682655	keystroke_n	n	n/a
341.5525	0.1195	683105	keystroke_t	t	n/a
341.762	0.09	683524	keystroke_Key.enter	Key.enter	n/a
341.862	6.157	683724	prompt	n/a	mistakes silence rugby all\n
342.5125	0.15	685025	keystroke_m	m	n/a
342.6175	0.105	685235	keystroke_i	i	n/a
342.6775	0.135	685355	keystroke_s	s	n/a
342.7975	0.12	685595	keystroke_t	t	n/a
342.9475	0.09	685895	keystroke_a	a	n/a
342.9775	0.12	685955	keystroke_k	k	n/a
343.1875	0.105	686375	keystroke_e	e	n/a
343.2775	0.12	686555	keystroke_s	s	n/a
343.532	0.105	687064	keystroke_Key.space	Key.space	n/a
343.9675	0.135	687935	keystroke_s	s	n/a
344.1175	0.09	688235	keystroke_i	i	n/a
344.1775	0.135	688355	keystroke_l	l	n/a
344.4475	0.105	688895	keystroke_e	e	n/a
344.5825	0.09	689165	keystroke_n	n	n/a
344.7625	0.09	689525	keystroke_c	c	n/a
344.9875	0.075	689975	keystroke_e	e	n/a
345.1825	0.09	690365	keystroke_Key.space	Key.space	n/a
345.6475	0.09	691295	keystroke_r	r	n/a
345.7525	0.075	691505	keystroke_u	u	n/a
345.9175	0.0605	691835	keystroke_d	d	n/a
346.203	0.075	692406	keystroke_Key.backspace	Key.backspace	n/a
346.293	0.09	692586	keystroke_g	g	n/a
346.8625	0.12	693725	keystroke_b	b	n/a
347.0275	0.15	694055	keystroke_y	y	n/a
347.1325	0.105	694265	keystroke_Key.space	Key.space	n/a
347.4475	0.135	694895	keystroke_a	a	n/a
347.5225	0.105	695045	keystroke_l	l	n/a
347.6875	0.12	695375	keystroke_l	l	n/a
347.9275	0.0895	695855	keystroke_Key.enter	Key.enter	n/a
348.0235	10.4205	696047	prompt	n/a	drinking vault voyeurweb transparent\n
348.753	0.105	697506	keystroke_d	d	n/a
348.978	0.075	697956	keystroke_r	r	n/a
349.083	0.15	698166	keystroke_i	i	n/a
349.188	0.149	698376	keystroke_n	n	n/a
349.368	0.12	698736	keystroke_k	k	n/a
349.607	0.1655	699214	keystroke_i	i	n/a
349.683	0.1645	699366	keystroke_n	n	n/a
349.8025	0.09	699605	keystroke_g	g	n/a
349.9375	0.12	699875	keystroke_Key.space	Key.space	n/a
350.2225	0.09	700445	keystroke_v	v	n/a
350.3125	0.135	700625	keystroke_a	a	n/a
350.4175	0.12	700835	keystroke_u	u	n/a
350.4775	0.165	700955	keystroke_l	l	n/a
350.6125	0.09	701225	keystroke_t	t	n/a
350.8375	0.12	701675	keystroke_Key.space	Key.space	n/a
351.3175	0.135	702635	keystroke_v	v	n/a
351.4825	0.12	702965	keystroke_o	o	n/a
351.782	0.091	703564	keystroke_y	y	n/a
352.247	0.15	704494	keystroke_e	e	n/a
352.607	0.105	705214	keystroke_u	u	n/a
352.892	0.135	705784	keystroke_r	r	n/a
353.507	0.105	707014	keystroke_w	w	n/a
353.597	0.105	707194	keystroke_e	e	n/a
353.8225	0.12	707645	keystroke_b	b	n/a
354.182	0.06	708364	keystroke_Key.space	Key.space	n/a
354.378	0.104	708756	keystroke_t	t	n/a
354.602	0.09	709204	keystroke_r	r	n/a
354.647	0.135	709294	keystroke_a	a	n/a
354.887	0.12	709774	keystroke_n	n	n/a
355.263	0.134	710526	keystroke_s	s	n/a
355.832	0.075	711664	keystroke_Key.backspace	Key.backspace	n/a
356.238	0.104	712476	keystroke_s	s	n/a
356.418	0.09	712836	keystroke_p	p	n/a
356.568	0.1195	713136	keystroke_a	a	n/a
356.628	0.1495	713256	keystroke_r	r	n/a
357.1075	0.21	714215	keystroke_r	r	n/a
357.5275	0.075	715055	keystroke_Key.backspace	Key.backspace	n/a
357.6175	0.105	715235	keystroke_e	e	n/a
357.7525	0.1045	715505	keystroke_n	n	n/a
357.842	0.135	715684	keystroke_t	t	n/a
358.3525	0.09	716705	keystroke_Key.enter	Key.enter	n/a
358.4495	6.55	716899	prompt	n/a	basement screens resulted emma\n
359.2675	0.105	718535	keystroke_b	b	n/a
359.3575	0.165	718715	keystroke_a	a	n/a
359.5375	0.15	719075	keystroke_s	s	n/a
359.6425	0.135	719285	keystroke_e	e	n/a
359.912	0.09	719824	keystroke_m	m	n/a
360.0175	0.09	720035	keystroke_e	e	n/a
360.1675	0.09	720335	keystroke_n	n	n/a
360.2875	0.075	720575	keystroke_t	t	n/a
360.4075	0.135	720815	keystroke_Key.space	Key.space	n/a
360.7375	0.105	721475	keystroke_s	s	n/a
360.9475	0.09	721895	keystroke_c	c	n/a
361.1575	0.09	722315	keystroke_r	r	n/a
361.2625	0.09	722525	keystroke_e	e	n/a
361.4575	0.09	722915	keystroke_e	e	n/a
361.5925	0.1355	723185	keystroke_n	n	n/a
361.742	0.121	723484	keystroke_s	s	n/a
361.907	0.105	723814	keystroke_Key.space	Key.space	n/a
362.3575	0.09	724715	keystroke_r	r	n/a
362.4325	0.09	724865	keystroke_e	e	n/a
362.6275	0.105	725255	keystroke_s	s	n/a
362.7775	0.105	725555	keystroke_u	u	n/a
362.8525	0.135	725705	keystroke_l	l	n/a
362.9125	0.105	725825	keystroke_t	t	n/a
363.0175	0.105	726035	keystroke_e	e	n/a
363.2425	0.075	726485	keystroke_d	d	n/a
363.3625	0.09	726725	keystroke_Key.space	Key.space	n/a
363.5875	0.06	727175	keystroke_d	d	n/a
363.8875	0.09	727775	keystroke_Key.backspace	Key.backspace	n/a
363.9925	0.1055	727985	keystroke_e	e	n/a
364.2025	0.075	728405	keystroke_m	m	n/a
364.368	0.0895	728736	keystroke_m	m	n/a
364.5325	0.165	729065	keystroke_a	a	n/a
364.8925	0.105	729785	keystroke_Key.enter	Key.enter	n/a
365.005	13.374	730010	prompt	n/a	navigator kyle advisors traffic\n
365.8075	0.09	731615	keystroke_n	n	n/a
365.9125	0.105	731825	keystroke_a	a	n/a
366.198	0.074	732396	keystroke_g	g	n/a
366.317	0.106	732634	keystroke_i	i	n/a
366.467	0.12	732934	keystroke_v	v	n/a
367.4425	0.06	734885	keystroke_Key.backspace	Key.backspace	n/a
367.5775	0.09	735155	keystroke_Key.backspace	Key.backspace	n/a
367.7575	0.09	735515	keystroke_Key.backspace	Key.backspace	n/a
367.8625	0.105	735725	keystroke_b	b	n/a
368.0125	0.0745	736025	keystroke_i	i	n/a
368.147	0.15	736294	keystroke_g	g	n/a
368.282	0.12	736564	keystroke_a	a	n/a
368.687	0.045	737374	keystroke_Key.backspace	Key.backspace	n/a
368.822	0.075	737644	keystroke_Key.backspace	Key.backspace	n/a
368.972	0.06	737944	keystroke_Key.backspace	Key.backspace	n/a
369.122	0.075	738244	keystroke_Key.backspace	Key.backspace	n/a
369.182	0.121	738364	keystroke_v	v	n/a
369.347	0.09	738694	keystroke_i	i	n/a
369.753	0.134	739506	keystroke_g	g	n/a
369.903	0.104	739806	keystroke_a	a	n/a
370.1275	0.09	740255	keystroke_t	t	n/a
370.2625	0.105	740525	keystroke_o	o	n/a
370.3825	0.12	740765	keystroke_r	r	n/a
370.7275	0.12	741455	keystroke_Key.space	Key.space	n/a
371.1775	0.135	742355	keystroke_k	k	n/a
371.3275	0.105	742655	keystroke_e	e	n/a
371.4925	0.135	742985	keystroke_y	y	n/a
371.5975	0.1805	743195	keystroke_l	l	n/a
372.242	0.09	744484	keystroke_Key.backspace	Key.backspace	n/a
372.392	0.075	744784	keystroke_Key.backspace	Key.backspace	n/a
372.542	0.09	745084	keystroke_Key.backspace	Key.backspace	n/a
372.767	0.15	745534	keystroke_y	y	n/a
372.842	0.18	745684	keystroke_l	l	n/a
372.977	0.09	745954	keystroke_e	e	n/a
373.112	0.12	746224	keystroke_Key.space	Key.space	n/a
373.262	0.105	746524	keystroke_s	s	n/a
373.427	0.135	746854	keystroke_a	a	n/a
373.742	0.06	747484	keystroke_Key.backspace	Key.backspace	n/a
373.877	0.105	747754	keystroke_Key.backspace	Key.backspace	n/a
373.967	0.105	747934	keystroke_a	a	n/a
374.057	0.1505	748114	keystroke_d	d	n/a
374.3125	0.18	748625	keystroke_m	m	n/a
374.7325	0.09	749465	keystroke_Key.backspace	Key.backspace	n/a
374.9275	0.12	749855	keystroke_v	v	n/a
375.0775	0.105	750155	keystroke_i	i	n/a
376.0825	0.1345	752165	keystroke_s	s	n/a
376.187	0.12	752374	keystroke_o	o	n/a
376.413	0.179	752826	keystroke_r	r	n/a
376.577	0.1505	753154	keystroke_s	s	n/a
377.0125	0.135	754025	keystroke_Key.space	Key.space	n/a
377.2525	0.09	754505	keystroke_t	t	n/a
377.4625	0.075	754925	keystroke_r	r	n/a
377.5225	0.09	755045	keystroke_a	a	n/a
377.7025	0.075	755405	keystroke_f	f	n/a
377.8825	0.075	755765	keystroke_f	f	n/a
377.9725	0.09	755945	keystroke_i	i	n/a
378.1075	0.1345	756215	keystroke_c	c	n/a
378.287	0.09	756574	keystroke_Key.enter	Key.enter	n/a
378.3845	8.1095	756769	prompt	n/a	default plastic christopher identity\n
379.023	0.075	758046	keystroke_d	d	n/a
379.218	0.075	758436	keystroke_e	e	n/a
379.577	0.121	759154	keystroke_f	f	n/a
379.712	0.09	759424	keystroke_a	a	n/a
379.847	0.105	759694	keystroke_u	u	n/a
379.892	0.18	759784	keystroke_l	l	n/a
380.027	0.1055	760054	keystroke_t	t	n/a
380.2375	0.135	760475	keystroke_Key.space	Key.space	n/a
380.5225	0.09	761045	keystroke_p	p	n/a
380.7475	0.12	761495	keystroke_l	l	n/a
380.8975	0.105	761795	keystroke_a	a	n/a
381.1225	0.12	762245	keystroke_s	s	n/a
381.3325	0.075	762665	keystroke_t	t	n/a
381.4525	0.105	762905	keystroke_i	i	n/a
381.5875	0.1195	763175	keystroke_c	c	n/a
381.752	0.1205	763504	keystroke_Key.space	Key.space	n/a
382.0375	0.135	764075	keystroke_c	c	n/a
382.1575	0.105	764315	keystroke_h	h	n/a
382.3075	0.09	764615	keystroke_r	r	n/a
382.4425	0.105	764885	keystroke_i	i	n/a
382.9825	0.09	765965	keystroke_s	s	n/a
383.1625	0.09	766325	keystroke_t	t	n/a
383.2825	0.105	766565	keystroke_o	o	n/a
383.5825	0.1945	767165	keystroke_p	p	n/a
383.7475	0.1045	767495	keystroke_h	h	n/a
383.898	0.15	767796	keystroke_e	e	n/a
384.017	0.106	768034	keystroke_r	r	n/a
384.377	0.105	768754	keystroke_Key.space	Key.space	n/a
384.692	0.09	769384	keystroke_i	i	n/a
384.812	0.075	769624	keystroke_d	d	n/a
385.007	0.075	770014	keystroke_e	e	n/a
385.127	0.105	770254	keystroke_n	n	n/a
385.247	0.091	770494	keystroke_t	t	n/a
385.367	0.12	770734	keystroke_i	i	n/a
385.712	0.105	771424	keystroke_t	t	n/a
385.892	0.09	771784	keystroke_y	y	n/a
386.3725	0.12	772745	keystroke_Key.enter	Key.enter	n/a
386.499	7.946	772998	prompt	n/a	dallas connectors reported restored\n
387.2425	0.075	774485	keystroke_d	d	n/a
387.4825	0.1195	774965	keystroke_a	a	n/a
387.647	0.0755	775294	keystroke_l	l	n/a
387.8275	0.09	775655	keystroke_l	l	n/a
387.9175	0.12	775835	keystroke_a	a	n/a
388.3975	0.105	776795	keystroke_s	s	n/a
388.5915	0.091	777183	keystroke_Key.space	Key.space	n/a
388.8625	0.09	777725	keystroke_c	c	n/a
388.9225	0.105	777845	keystroke_o	o	n/a
388.9825	0.135	777965	keystroke_n	n	n/a
389.1925	0.105	778385	keystroke_n	n	n/a
389.3125	0.09	778625	keystroke_e	e	n/a
389.5225	0.12	779045	keystroke_c	c	n/a
389.7175	0.09	779435	keystroke_t	t	n/a
389.8225	0.105	779645	keystroke_o	o	n/a
389.9575	0.075	779915	keystroke_r	r	n/a
390.1075	0.1205	780215	keystroke_s	s	n/a
390.332	0.12	780664	keystroke_Key.space	Key.space	n/a
390.857	0.105	781714	keystroke_r	r	n/a
390.948	0.119	781896	keystroke_e	e	n/a
391.097	0.135	782194	keystroke_p	p	n/a
391.203	0.104	782406	keystroke_o	o	n/a
391.248	0.074	782496	keystroke_r	r	n/a
391.443	0.104	782886	keystroke_t	t	n/a
391.562	0.1055	783124	keystroke_e	e	n/a
391.8025	0.09	783605	keystroke_d	d	n/a
391.9225	0.105	783845	keystroke_Key.space	Key.space	n/a
392.2075	0.075	784415	keystroke_r	r	n/a
392.2525	0.135	784505	keystroke_e	e	n/a
392.4925	0.12	784985	keystroke_s	s	n/a
393.1075	0.09	786215	keystroke_t	t	n/a
393.2275	0.105	786455	keystroke_o	o	n/a
393.3775	0.09	786755	keystroke_r	r	n/a
393.4375	0.12	786875	keystroke_e	e	n/a
393.8275	0.135	787655	keystroke_d	d	n/a
394.397	0.045	788794	keystroke_Key.enter	Key.enter	n/a
394.462	8.9075	788924	prompt	n/a	regulations formula batteries russell\n
395.192	0.09	790384	keystroke_r	r	n/a
395.252	0.105	790504	keystroke_e	e	n/a
395.462	0.105	790924	keystroke_g	g	n/a
395.612	0.105	791224	keystroke_u	u	n/a
395.672	0.18	791344	keystroke_l	l	n/a
395.837	0.165	791674	keystroke_a	a	n/a
396.107	0.0905	792214	keystroke_t	t	n/a
396.2125	0.075	792425	keystroke_i	i	n/a
396.2725	0.18	792545	keystroke_o	o	n/a
396.3475	0.18	792695	keystroke_n	n	n/a
396.5425	0.105	793085	keystroke_s	s	n/a
396.707	0.121	793414	keystroke_Key.space	Key.space	n/a
397.082	0.091	794164	keystroke_f	f	n/a
397.173	0.074	794346	keystroke_o	o	n/a
397.352	0.075	794704	keystroke_r	r	n/a
397.473	0.119	794946	keystroke_m	m	n/a
397.772	0.105	795544	keystroke_u	u	n/a
397.862	0.165	795724	keystroke_l	l	n/a
398.028	0.12	796056	keystroke_a	a	n/a
398.192	0.12	796384	keystroke_Key.space	Key.space	n/a
398.567	0.12	797134	keystroke_b	b	n/a
398.777	0.1505	797554	keystroke_a	a	n/a
398.9725	0.105	797945	keystroke_t	t	n/a
399.1975	0.09	798395	keystroke_t	t	n/a
399.2875	0.136	798575	keystroke_e	e	n/a
399.4245	0.088	798849	keystroke_r	r	n/a
399.5425	0.105	799085	keystroke_i	i	n/a
400.2325	0.165	800465	keystroke_e	e	n/a
400.3675	0.135	800735	keystroke_s	s	n/a
400.7875	0.09	801575	keystroke_Key.space	Key.space	n/a
401.0275	0.12	802055	keystroke_r	r	n/a
401.1175	0.12	802235	keystroke_e	e	n/a
401.4625	0.075	802925	keystroke_Key.backspace	Key.backspace	n/a
401.6425	0.1045	803285	keystroke_u	u	n/a
401.732	0.105	803464	keystroke_s	s	n/a
401.942	0.105	803884	keystroke_s	s	n/a
402.002	0.135	804004	keystroke_e	e	n/a
402.7375	0.09	805475	keystroke_l	l	n/a
402.9325	0.12	805865	keystroke_l	l	n/a
403.3075	0.059	806615	keystroke_Key.enter	Key.enter	n/a
403.3775	5.376	806755	prompt	n/a	feeling drive applications position\n
404.0575	0.12	808115	keystroke_f	f	n/a
404.1475	0.09	808295	keystroke_e	e	n/a
404.3425	0.075	808685	keystroke_e	e	n/a
404.4925	0.1645	808985	keystroke_l	l	n/a
404.5825	0.1495	809165	keystroke_i	i	n/a
404.6725	0.1045	809345	keystroke_n	n	n/a
404.762	0.09	809524	keystroke_g	g	n/a
404.867	0.12	809734	keystroke_Key.space	Key.space	n/a
405.002	0.105	810004	keystroke_d	d	n/a
405.197	0.09	810394	keystroke_r	r	n/a
405.362	0.1055	810724	keystroke_i	i	n/a
405.4685	0.119	810937	keystroke_v	v	n/a
405.5725	0.12	811145	keystroke_e	e	n/a
405.7075	0.105	811415	keystroke_Key.space	Key.space	n/a
405.9625	0.09	811925	keystroke_a	a	n/a
406.0975	0.075	812195	keystroke_p	p	n/a
406.232	0.091	812464	keystroke_p	p	n/a
406.428	0.134	812856	keystroke_l	l	n/a
406.517	0.121	813034	keystroke_i	i	n/a
406.548	0.075	813096	keystroke_c	c	n/a
406.608	0.1045	813216	keystroke_a	a	n/a
406.7425	0.135	813485	keystroke_t	t	n/a
406.8625	0.105	813725	keystroke_i	i	n/a
406.9375	0.15	813875	keystroke_o	o	n/a
407.0125	0.135	814025	keystroke_n	n	n/a
407.1325	0.12	814265	keystroke_s	s	n/a
407.2975	0.105	814595	keystroke_Key.space	Key.space	n/a
407.7025	0.12	815405	keystroke_p	p	n/a
407.7925	0.105	815585	keystroke_o	o	n/a
407.9125	0.09	815825	keystroke_s	s	n/a
408.0475	0.075	816095	keystroke_i	i	n/a
408.1375	0.09	816275	keystroke_t	t	n/a
408.242	0.1055	816484	keystroke_i	i	n/a
408.317	0.135	816634	keystroke_o	o	n/a
408.392	0.15	816784	keystroke_n	n	n/a
408.662	0.09	817324	keystroke_Key.enter	Key.enter	n/a
408.7585	8.501	817517	prompt	n/a	francisco investors harley nylon\n
409.442	0.105	818884	keystroke_f	f	n/a
409.6375	0.1045	819275	keystroke_r	r	n/a
409.697	0.1505	819394	keystroke_a	a	n/a
409.8625	0.12	819725	keystroke_n	n	n/a
410.2075	0.1045	820415	keystroke_c	c	n/a
410.387	0.105	820774	keystroke_i	i	n/a
411.032	0.12	822064	keystroke_s	s	n/a
411.572	0.1045	823144	keystroke_c	c	n/a
411.7225	0.075	823445	keystroke_o	o	n/a
411.9475	0.09	823895	keystroke_Key.space	Key.space	n/a
412.2025	0.12	824405	keystroke_i	i	n/a
412.2775	0.135	824555	keystroke_n	n	n/a
412.4275	0.09	824855	keystroke_v	v	n/a
412.5015	0.121	825003	keystroke_e	e	n/a
412.6525	0.165	825305	keystroke_s	s	n/a
412.8025	0.105	825605	keystroke_t	t	n/a
412.9975	0.12	825995	keystroke_o	o	n/a
413.1625	0.105	826325	keystroke_r	r	n/a
413.7475	0.0895	827495	keystroke_s	s	n/a
413.927	0.105	827854	keystroke_Key.space	Key.space	n/a
414.2875	0.09	828575	keystroke_h	h	n/a
414.4525	0.09	828905	keystroke_a	a	n/a
414.4825	0.12	828965	keystroke_r	r	n/a
414.7675	0.09	829535	keystroke_e	e	n/a
415.3075	0.075	830615	keystroke_Key.backspace	Key.backspace	n/a
415.5475	0.15	831095	keystroke_l	l	n/a
415.7125	0.12	831425	keystroke_e	e	n/a
415.8475	0.12	831695	keystroke_y	y	n/a
415.9375	0.105	831875	keystroke_Key.space	Key.space	n/a
416.2075	0.1045	832415	keystroke_n	n	n/a
416.447	0.105	832894	keystroke_y	y	n/a
416.537	0.1355	833074	keystroke_l	l	n/a
416.7775	0.12	833555	keystroke_o	o	n/a
416.9275	0.15	833855	keystroke_n	n	n/a
417.1825	0.075	834365	keystroke_Key.enter	Key.enter	n/a
417.2695	9.139	834539	prompt	n/a	agenda outstanding derived tops\n
417.9025	0.135	835805	keystroke_a	a	n/a
418.0975	0.12	836195	keystroke_g	g	n/a
418.2025	0.0895	836405	keystroke_e	e	n/a
418.2775	0.1195	836555	keystroke_n	n	n/a
418.457	0.1195	836914	keystroke_c	c	n/a
418.8465	0.075	837693	keystroke_Key.backspace	Key.backspace	n/a
418.892	0.1205	837784	keystroke_d	d	n/a
418.9825	0.18	837965	keystroke_a	a	n/a
419.2065	0.12	838413	keystroke_y	y	n/a
419.3125	0.104	838625	keystroke_Key.space	Key.space	n/a
419.7915	0.076	839583	keystroke_Key.backspace	Key.backspace	n/a
419.9425	0.12	839885	keystroke_Key.backspace	Key.backspace	n/a
420.0325	0.12	840065	keystroke_Key.space	Key.space	n/a
420.3625	0.12	840725	keystroke_o	o	n/a
420.4525	0.105	840905	keystroke_u	u	n/a
420.6325	0.12	841265	keystroke_t	t	n/a
421.4425	0.12	842885	keystroke_s	s	n/a
421.5775	0.1195	843155	keystroke_t	t	n/a
421.652	0.15	843304	keystroke_a	a	n/a
422.237	0.09	844474	keystroke_n	n	n/a
422.387	0.12	844774	keystroke_d	d	n/a
422.537	0.165	845074	keystroke_i	i	n/a
422.642	0.12	845284	keystroke_n	n	n/a
422.748	0.12	845496	keystroke_g	g	n/a
422.882	0.12	845764	keystroke_Key.space	Key.space	n/a
423.377	0.09	846754	keystroke_e	e	n/a
423.692	0.075	847384	keystroke_Key.backspace	Key.backspace	n/a
423.738	0.074	847476	keystroke_d	d	n/a
423.932	0.075	847864	keystroke_e	e	n/a
424.127	0.09	848254	keystroke_r	r	n/a
424.292	0.09	848584	keystroke_i	i	n/a
424.532	0.135	849064	keystroke_v	v	n/a
424.757	0.09	849514	keystroke_e	e	n/a
424.982	0.075	849964	keystroke_d	d	n/a
425.207	0.12	850414	keystroke_Key.space	Key.space	n/a
425.597	0.09	851194	keystroke_t	t	n/a
425.762	0.045	851524	keystroke_o	o	n/a
425.793	0.149	851586	keystroke_p	p	n/a
426.017	0.135	852034	keystroke_s	s	n/a
426.332	0.075	852664	keystroke_Key.enter	Key.enter	n/a
426.4135	8.95	852827	prompt	n/a	interim arrivals since hood\n
427.1275	0.104	854255	keystroke_i	i	n/a
427.1415	0.12	854283	keystroke_n	n	n/a
427.3975	0.134	854795	keystroke_t	t	n/a
427.5175	0.164	855035	keystroke_e	e	n/a
427.6525	0.104	855305	keystroke_r	r	n/a
427.9665	0.075	855933	keystroke_r	r	n/a
428.1025	0.135	856205	keystroke_i	i	n/a
428.1775	0.1645	856355	keystroke_m	m	n/a
428.312	0.15	856624	keystroke_Key.space	Key.space	n/a
429.272	0.075	858544	keystroke_Key.backspace	Key.backspace	n/a
429.437	0.075	858874	keystroke_Key.backspace	Key.backspace	n/a
429.602	0.075	859204	keystroke_Key.backspace	Key.backspace	n/a
429.752	0.09	859504	keystroke_Key.backspace	Key.backspace	n/a
430.007	0.15	860014	keystroke_i	i	n/a
430.052	0.18	860104	keystroke_m	m	n/a
430.172	0.046	860344	keystroke_i	i	n/a
430.202	0.12	860404	keystroke_Key.space	Key.space	n/a
430.487	0.105	860974	keystroke_a	a	n/a
430.607	0.09	861214	keystroke_r	r	n/a
430.787	0.135	861574	keystroke_r	r	n/a
430.937	0.12	861874	keystroke_i	i	n/a
431.402	0.075	862804	keystroke_Key.backspace	Key.backspace	n/a
431.597	0.045	863194	keystroke_Key.backspace	Key.backspace	n/a
431.7315	0.075	863463	keystroke_Key.backspace	Key.backspace	n/a
431.8965	0.06	863793	keystroke_Key.backspace	Key.backspace	n/a
432.0465	0.09	864093	keystroke_Key.backspace	Key.backspace	n/a
432.2115	0.1205	864423	keystroke_Key.backspace	Key.backspace	n/a
432.362	0.135	864724	keystroke_Key.space	Key.space	n/a
432.572	0.105	865144	keystroke_a	a	n/a
432.632	0.105	865264	keystroke_r	r	n/a
432.827	0.105	865654	keystroke_r	r	n/a
432.947	0.105	865894	keystroke_i	i	n/a
433.082	0.12	866164	keystroke_v	v	n/a
433.142	0.135	866284	keystroke_a	a	n/a
433.292	0.135	866584	keystroke_l	l	n/a
433.412	0.09	866824	keystroke_s	s	n/a
433.562	0.105	867124	keystroke_Key.space	Key.space	n/a
433.907	0.12	867814	keystroke_s	s	n/a
433.997	0.135	867994	keystroke_i	i	n/a
434.072	0.15	868144	keystroke_n	n	n/a
434.147	0.105	868294	keystroke_c	c	n/a
434.3725	0.075	868745	keystroke_e	e	n/a
434.4775	0.105	868955	keystroke_Key.space	Key.space	n/a
434.7325	0.105	869465	keystroke_h	h	n/a
434.7925	0.105	869585	keystroke_o	o	n/a
434.9575	0.12	869915	keystroke_o	o	n/a
435.0625	0.12	870125	keystroke_d	d	n/a
435.2875	0.075	870575	keystroke_Key.enter	Key.enter	n/a
435.3715	9.9075	870743	prompt	n/a	arlington females basic administrative\n
436.1575	0.12	872315	keystroke_a	a	n/a
436.4125	0.089	872825	keystroke_r	r	n/a
436.6375	0.1495	873275	keystroke_l	l	n/a
436.757	0.165	873514	keystroke_i	i	n/a
436.862	0.165	873724	keystroke_n	n	n/a
437.297	0.12	874594	keystroke_g	g	n/a
437.702	0.075	875404	keystroke_t	t	n/a
437.852	0.135	875704	keystroke_o	o	n/a
437.927	0.225	875854	keystroke_n	n	n/a
438.138	0.119	876276	keystroke_Key.space	Key.space	n/a
438.3625	0.12	876725	keystroke_f	f	n/a
438.4975	0.105	876995	keystroke_e	e	n/a
438.8725	0.105	877745	keystroke_m	m	n/a
439.0225	0.105	878045	keystroke_a	a	n/a
439.1425	0.12	878285	keystroke_l	l	n/a
439.2475	0.135	878495	keystroke_e	e	n/a
439.3525	0.15	878705	keystroke_s	s	n/a
439.6825	0.119	879365	keystroke_Key.space	Key.space	n/a
440.1925	0.105	880385	keystroke_b	b	n/a
440.2825	0.1045	880565	keystroke_a	a	n/a
440.477	0.105	880954	keystroke_s	s	n/a
440.612	0.105	881224	keystroke_i	i	n/a
440.747	0.105	881494	keystroke_c	c	n/a
440.9715	0.1055	881943	keystroke_Key.space	Key.space	n/a
441.2565	0.09	882513	keystroke_a	a	n/a
441.3765	0.105	882753	keystroke_d	d	n/a
441.5265	0.135	883053	keystroke_m	m	n/a
441.6325	0.12	883265	keystroke_i	i	n/a
441.977	0.12	883954	keystroke_n	n	n/a
442.487	0.12	884974	keystroke_s	s	n/a
442.622	0.09	885244	keystroke_i	i	n/a
442.877	0.075	885754	keystroke_Key.backspace	Key.backspace	n/a
443.012	0.075	886024	keystroke_Key.backspace	Key.backspace	n/a
443.222	0.09	886444	keystroke_i	i	n/a
443.297	0.135	886594	keystroke_s	s	n/a
443.447	0.105	886894	keystroke_t	t	n/a
443.642	0.105	887284	keystroke_r	r	n/a
443.717	0.135	887434	keystroke_a	a	n/a
443.972	0.105	887944	keystroke_t	t	n/a
444.617	0.09	889234	keystroke_i	i	n/a
444.812	0.12	889624	keystroke_v	v	n/a
444.933	0.1335	889866	keystroke_e	e	n/a
445.202	0.075	890404	keystroke_Key.enter	Key.enter	n/a
445.285	12.0085	890570	prompt	n/a	aside steel cattle prevent\n
446.162	0.091	892324	keystroke_a	a	n/a
446.327	0.0605	892654	keystroke_s	s	n/a
447.032	0.075	894064	keystroke_i	i	n/a
447.122	0.045	894244	keystroke_d	d	n/a
447.272	0.075	894544	keystroke_e	e	n/a
447.423	0.104	894846	keystroke_Key.space	Key.space	n/a
447.752	0.09	895504	keystroke_d	d	n/a
448.007	0.165	896014	keystroke_e	e	n/a
448.4425	0.075	896885	keystroke_Key.backspace	Key.backspace	n/a
448.5775	0.09	897155	keystroke_Key.backspace	Key.backspace	n/a
448.6525	0.105	897305	keystroke_s	s	n/a
448.7125	0.105	897425	keystroke_t	t	n/a
448.8775	0.135	897755	keystroke_i	i	n/a
449.2375	0.06	898475	keystroke_Key.backspace	Key.backspace	n/a
449.3275	0.135	898655	keystroke_e	e	n/a
449.4775	0.075	898955	keystroke_l	l	n/a
449.6725	0.135	899345	keystroke_l	l	n/a
449.7475	0.1345	899495	keystroke_Key.space	Key.space	n/a
450.062	0.06	900124	keystroke_a	a	n/a
450.362	0.075	900724	keystroke_Key.backspace	Key.backspace	n/a
450.422	0.09	900844	keystroke_c	c	n/a
450.497	0.09	900994	keystroke_a	a	n/a
450.752	0.09	901504	keystroke_t	t	n/a
450.917	0.09	901834	keystroke_l	l	n/a
451.127	0.06	902254	keystroke_l	l	n/a
451.352	0.06	902704	keystroke_Key.backspace	Key.backspace	n/a
451.487	0.105	902974	keystroke_Key.backspace	Key.backspace	n/a
451.577	0.105	903154	keystroke_t	t	n/a
451.952	0.045	903904	keystroke_Key.backspace	Key.backspace	n/a
452.057	0.075	904114	keystroke_Key.backspace	Key.backspace	n/a
452.222	0.06	904444	keystroke_Key.backspace	Key.backspace	n/a
452.387	0.06	904774	keystroke_Key.backspace	Key.backspace	n/a
452.537	0.09	905074	keystroke_Key.backspace	Key.backspace	n/a
452.687	0.09	905374	keystroke_Key.backspace	Key.backspace	n/a
452.852	0.09	905704	keystroke_Key.backspace	Key.backspace	n/a
452.927	0.09	905854	keystroke_e	e	n/a
453.287	0.15	906574	keystroke_l	l	n/a
453.407	0.12	906814	keystroke_Key.space	Key.space	n/a
454.007	0.12	908014	keystroke_a	a	n/a
454.052	0.105	908104	keystroke_c	c	n/a
454.4115	0.06	908823	keystroke_Key.backspace	Key.backspace	n/a
454.5465	0.09	909093	keystroke_Key.backspace	Key.backspace	n/a
454.6075	0.104	909215	keystroke_c	c	n/a
454.6675	0.134	909335	keystroke_a	a	n/a
454.8615	0.09	909723	keystroke_t	t	n/a
455.0725	0.059	910145	keystroke_t	t	n/a
455.2365	0.12	910473	keystroke_l	l	n/a
455.3715	0.09	910743	keystroke_e	e	n/a
455.6415	0.12	911283	keystroke_Key.space	Key.space	n/a
456.0015	0.105	912003	keystroke_p	p	n/a
456.1365	0.106	912273	keystroke_r	r	n/a
456.2275	0.09	912455	keystroke_e	e	n/a
456.497	0.12	912994	keystroke_v	v	n/a
456.602	0.1205	913204	keystroke_e	e	n/a
456.7375	0.12	913475	keystroke_n	n	n/a
456.9925	0.09	913985	keystroke_t	t	n/a
457.2025	0.09	914405	keystroke_Key.enter	Key.enter	n/a
457.299	9.6995	914598	prompt	n/a	partners elliott register coding\n
457.9675	0.105	915935	keystroke_p	p	n/a
458.2375	0.135	916475	keystroke_a	a	n/a
458.3275	0.1045	916655	keystroke_r	r	n/a
458.567	0.075	917134	keystroke_t	t	n/a
458.762	0.12	917524	keystroke_n	n	n/a
458.897	0.12	917794	keystroke_e	e	n/a
458.987	0.12	917974	keystroke_r	r	n/a
459.152	0.121	918304	keystroke_s	s	n/a
459.377	0.09	918754	keystroke_Key.space	Key.space	n/a
460.052	0.09	920104	keystroke_e	e	n/a
460.382	0.0755	920764	keystroke_f	f	n/a
460.5925	0.09	921185	keystroke_f	f	n/a
460.8475	0.075	921695	keystroke_Key.backspace	Key.backspace	n/a
460.9975	0.09	921995	keystroke_Key.backspace	Key.backspace	n/a
461.2525	0.075	922505	keystroke_l	l	n/a
461.4175	0.09	922835	keystroke_l	l	n/a
461.882	0.15	923764	keystroke_i	i	n/a
462.002	0.15	924004	keystroke_o	o	n/a
462.8125	0.09	925625	keystroke_t	t	n/a
463.1275	0.075	926255	keystroke_t	t	n/a
463.3825	0.1195	926765	keystroke_Key.space	Key.space	n/a
463.5925	0.1045	927185	keystroke_r	r	n/a
463.6675	0.1045	927335	keystroke_e	e	n/a
463.892	0.09	927784	keystroke_g	g	n/a
464.027	0.105	928054	keystroke_i	i	n/a
464.147	0.12	928294	keystroke_s	s	n/a
464.252	0.105	928504	keystroke_t	t	n/a
464.4175	0.12	928835	keystroke_e	e	n/a
464.4925	0.15	928985	keystroke_r	r	n/a
464.8665	0.105	929733	keystroke_Key.space	Key.space	n/a
465.2715	0.121	930543	keystroke_c	c	n/a
465.4065	0.09	930813	keystroke_o	o	n/a
465.5115	0.0905	931023	keystroke_d	d	n/a
465.7065	0.12	931413	keystroke_i	i	n/a
465.7665	0.18	931533	keystroke_n	n	n/a
465.9165	0.075	931833	keystroke_g	g	n/a
466.8765	0.12	933753	keystroke_Key.enter	Key.enter	n/a
467.0035	11.6955	934007	prompt	n/a	indeed sounds checklist exist\n
467.6575	0.12	935315	keystroke_i	i	n/a
467.7925	0.15	935585	keystroke_n	n	n/a
468.1825	0.09	936365	keystroke_d	d	n/a
468.4065	0.061	936813	keystroke_e	e	n/a
468.572	0.075	937144	keystroke_e	e	n/a
468.857	0.09	937714	keystroke_Key.space	Key.space	n/a
469.052	0.12	938104	keystroke_s	s	n/a
469.157	0.12	938314	keystroke_o	o	n/a
469.217	0.105	938434	keystroke_u	u	n/a
469.442	0.09	938884	keystroke_n	n	n/a
469.562	0.12	939124	keystroke_d	d	n/a
469.637	0.1205	939274	keystroke_s	s	n/a
469.8015	0.075	939603	keystroke_Key.backspace	Key.backspace	n/a
469.9815	0.075	939963	keystroke_Key.backspace	Key.backspace	n/a
470.1615	0.045	940323	keystroke_Key.backspace	Key.backspace	n/a
470.2965	0.075	940593	keystroke_Key.backspace	Key.backspace	n/a
470.4465	0.0905	940893	keystroke_Key.backspace	Key.backspace	n/a
470.642	0.06	941284	keystroke_Key.backspace	Key.backspace	n/a
470.777	0.12	941554	keystroke_Key.backspace	Key.backspace	n/a
470.912	0.075	941824	keystroke_d	d	n/a
471.047	0.105	942094	keystroke_Key.space	Key.space	n/a
471.137	0.105	942274	keystroke_s	s	n/a
471.227	0.12	942454	keystroke_o	o	n/a
471.317	0.09	942634	keystroke_u	u	n/a
471.647	0.12	943294	keystroke_d	d	n/a
471.7375	0.1195	943475	keystroke_s	s	n/a
471.812	0.09	943624	keystroke_Key.space	Key.space	n/a
472.082	0.06	944164	keystroke_Key.backspace	Key.backspace	n/a
472.232	0.09	944464	keystroke_Key.backspace	Key.backspace	n/a
472.472	0.1345	944944	keystroke_n	n	n/a
472.6525	0.105	945305	keystroke_d	d	n/a
472.7715	0.12	945543	keystroke_Key.space	Key.space	n/a
473.6725	0.075	947345	keystroke_Key.backspace	Key.backspace	n/a
473.8215	0.09	947643	keystroke_Key.backspace	Key.backspace	n/a
473.9865	0.075	947973	keystroke_Key.backspace	Key.backspace	n/a
474.1515	0.091	948303	keystroke_Key.backspace	Key.backspace	n/a
474.4675	0.0745	948935	keystroke_n	n	n/a
474.782	0.12	949564	keystroke_d	d	n/a
474.917	0.12	949834	keystroke_s	s	n/a
475.142	0.09	950284	keystroke_Key.space	Key.space	n/a
475.352	0.09	950704	keystroke_c	c	n/a
475.427	0.12	950854	keystroke_h	h	n/a
475.607	0.09	951214	keystroke_e	e	n/a
475.8475	0.105	951695	keystroke_c	c	n/a
475.9375	0.12	951875	keystroke_k	k	n/a
476.1775	0.195	952355	keystroke_l	l	n/a
476.2825	0.15	952565	keystroke_i	i	n/a
476.3875	0.134	952775	keystroke_s	s	n/a
476.4925	0.105	952985	keystroke_t	t	n/a
476.6275	0.1045	953255	keystroke_Key.space	Key.space	n/a
477.002	0.075	954004	keystroke_e	e	n/a
477.242	0.09	954484	keystroke_x	x	n/a
477.422	0.105	954844	keystroke_i	i	n/a
477.557	0.105	955114	keystroke_s	s	n/a
477.722	0.1205	955444	keystroke_i	i	n/a
477.9165	0.105	955833	keystroke_t	t	n/a
478.2015	0.075	956403	keystroke_Key.backspace	Key.backspace	n/a
478.3515	0.105	956703	keystroke_Key.backspace	Key.backspace	n/a
478.4265	0.1055	956853	keystroke_t	t	n/a
478.577	0.12	957154	keystroke_Key.enter	Key.enter	n/a
478.706	6.6975	957412	prompt	n/a	unknown expanding shall scout\n
479.372	0.06	958744	keystroke_u	u	n/a
479.582	0.075	959164	keystroke_n	n	n/a
479.717	0.1955	959434	keystroke_k	k	n/a
479.8825	0.12	959765	keystroke_n	n	n/a
479.9275	0.135	959855	keystroke_o	o	n/a
480.0475	0.15	960095	keystroke_n	n	n/a
480.1675	0.105	960335	keystroke_w	w	n/a
480.677	0.045	961354	keystroke_Key.backspace	Key.backspace	n/a
480.797	0.09	961594	keystroke_Key.backspace	Key.backspace	n/a
480.917	0.105	961834	keystroke_w	w	n/a
481.052	0.135	962104	keystroke_n	n	n/a
481.157	0.165	962314	keystroke_Key.space	Key.space	n/a
481.7425	0.089	963485	keystroke_e	e	n/a
481.9675	0.105	963935	keystroke_x	x	n/a
482.0865	0.076	964173	keystroke_p	p	n/a
482.1775	0.105	964355	keystroke_a	a	n/a
482.2975	0.09	964595	keystroke_n	n	n/a
482.4025	0.074	964805	keystroke_d	d	n/a
482.5215	0.1355	965043	keystroke_i	i	n/a
482.597	0.135	965194	keystroke_n	n	n/a
482.702	0.12	965404	keystroke_g	g	n/a
482.807	0.135	965614	keystroke_Key.space	Key.space	n/a
483.137	0.09	966274	keystroke_s	s	n/a
483.212	0.075	966424	keystroke_h	h	n/a
483.377	0.09	966754	keystroke_a	a	n/a
483.407	0.12	966814	keystroke_r	r	n/a
484.052	0.075	968104	keystroke_Key.backspace	Key.backspace	n/a
484.277	0.075	968554	keystroke_l	l	n/a
484.457	0.12	968914	keystroke_l	l	n/a
484.502	0.135	969004	keystroke_Key.space	Key.space	n/a
484.592	0.105	969184	keystroke_s	s	n/a
484.802	0.105	969604	keystroke_c	c	n/a
484.922	0.12	969844	keystroke_o	o	n/a
484.982	0.12	969964	keystroke_u	u	n/a
485.117	0.12	970234	keystroke_t	t	n/a
485.297	0.105	970594	keystroke_Key.enter	Key.enter	n/a
485.409	6.5195	970818	prompt	n/a	shoot cyber analysis textbooks\n
486.032	0.105	972064	keystroke_s	s	n/a
486.122	0.105	972244	keystroke_h	h	n/a
486.212	0.06	972424	keystroke_o	o	n/a
486.332	0.12	972664	keystroke_o	o	n/a
486.452	0.0905	972904	keystroke_t	t	n/a
486.6025	0.1045	973205	keystroke_Key.space	Key.space	n/a
486.932	0.09	973864	keystroke_c	c	n/a
487.007	0.09	974014	keystroke_y	y	n/a
487.517	0.105	975034	keystroke_b	b	n/a
487.697	0.18	975394	keystroke_e	e	n/a
487.832	0.12	975664	keystroke_r	r	n/a
487.937	0.105	975874	keystroke_Key.space	Key.space	n/a
488.117	0.105	976234	keystroke_a	a	n/a
488.207	0.12	976414	keystroke_n	n	n/a
488.342	0.135	976684	keystroke_a	a	n/a
488.507	0.2095	977014	keystroke_l	l	n/a
488.6565	0.165	977313	keystroke_y	y	n/a
489.2115	0.09	978423	keystroke_s	s	n/a
489.3465	0.09	978693	keystroke_i	i	n/a
489.4065	0.105	978813	keystroke_s	s	n/a
489.6015	0.09	979203	keystroke_Key.space	Key.space	n/a
490.1715	0.12	980343	keystroke_t	t	n/a
490.2615	0.135	980523	keystroke_e	e	n/a
490.577	0.075	981154	keystroke_x	x	n/a
490.727	0.12	981454	keystroke_t	t	n/a
491.117	0.12	982234	keystroke_b	b	n/a
491.238	0.074	982476	keystroke_o	o	n/a
491.402	0.105	982804	keystroke_o	o	n/a
491.477	0.12	982954	keystroke_k	k	n/a
491.567	0.1355	983134	keystroke_s	s	n/a
491.8365	0.09	983673	keystroke_Key.enter	Key.enter	n/a
491.9325	7.961	983865	prompt	n/a	unit naturals fork apparatus\n
492.5575	0.0595	985115	keystroke_u	u	n/a
492.782	0.105	985564	keystroke_n	n	n/a
492.857	0.12	985714	keystroke_i	i	n/a
493.022	0.105	986044	keystroke_t	t	n/a
493.202	0.105	986404	keystroke_Key.space	Key.space	n/a
493.772	0.03	987544	keystroke_Key.backspace	Key.backspace	n/a
494.237	0.075	988474	keystroke_Key.space	Key.space	n/a
494.432	0.105	988864	keystroke_n	n	n/a
494.567	0.1645	989134	keystroke_a	a	n/a
494.7015	0.135	989403	keystroke_t	t	n/a
494.9275	0.074	989855	keystroke_u	u	n/a
495.1215	0.165	990243	keystroke_r	r	n/a
495.2565	0.136	990513	keystroke_a	a	n/a
495.4675	0.105	990935	keystroke_l	l	n/a
495.7065	0.12	991413	keystroke_l	l	n/a
496.1415	0.075	992283	keystroke_Key.backspace	Key.backspace	n/a
496.2625	0.105	992525	keystroke_s	s	n/a
496.3965	0.106	992793	keystroke_Key.space	Key.space	n/a
496.622	0.12	993244	keystroke_f	f	n/a
496.742	0.105	993484	keystroke_o	o	n/a
496.847	0.165	993694	keystroke_r	r	n/a
497.072	0.165	994144	keystroke_k	k	n/a
497.192	0.12	994384	keystroke_Key.space	Key.space	n/a
497.492	0.12	994984	keystroke_a	a	n/a
497.597	0.075	995194	keystroke_p	p	n/a
497.747	0.12	995494	keystroke_p	p	n/a
497.957	0.15	995914	keystroke_a	a	n/a
498.167	0.135	996334	keystroke_r	r	n/a
498.602	0.09	997204	keystroke_a	a	n/a
498.947	0.1055	997894	keystroke_u	u	n/a
499.262	0.075	998524	keystroke_Key.backspace	Key.backspace	n/a
499.352	0.06	998704	keystroke_t	t	n/a
499.487	0.075	998974	keystroke_u	u	n/a
499.577	0.12	999154	keystroke_s	s	n/a
499.8165	0.075	999633	keystroke_Key.enter	Key.enter	n/a
499.9	11.424	999800	prompt	n/a	nelson carries criticism opponent\n
500.5815	0.0905	1001163	keystroke_n	n	n/a
500.702	0.105	1001404	keystroke_e	e	n/a
