onset	duration	sample	value	key	prompt_text
3.683	12.708	7366	prompt	n/a	the quick brown fox jumps over a lazy dog\n
5.71	0.026	11420	keystroke_t	t	n/a
5.766	0.06	11532	keystroke_h	h	n/a
5.856	0.105	11712	keystroke_e	e	n/a
5.991	0.09	11982	keystroke_Key.space	Key.space	n/a
6.9225	0.135	13845	keystroke_q	q	n/a
7.1175	0.09	14235	keystroke_u	u	n/a
7.2675	0.105	14535	keystroke_i	i	n/a
7.4175	0.09	14835	keystroke_c	c	n/a
7.522	0.0905	15044	keystroke_k	k	n/a
7.6725	0.105	15345	keystroke_Key.space	Key.space	n/a
7.9725	0.06	15945	keystroke_b	b	n/a
8.1675	0.075	16335	keystroke_r	r	n/a
8.287	0.091	16574	keystroke_o	o	n/a
8.408	0.075	16816	keystroke_w	w	n/a
8.513	0.0745	17026	keystroke_n	n	n/a
8.6925	0.0895	17385	keystroke_Key.space	Key.space	n/a
8.917	0.075	17834	keystroke_f	f	n/a
9.008	0.075	18016	keystroke_o	o	n/a
9.278	0.105	18556	keystroke_x	x	n/a
9.442	0.0755	18884	keystroke_Key.space	Key.space	n/a
9.7575	0.075	19515	keystroke_j	j	n/a
9.9675	0.105	19935	keystroke_u	u	n/a
10.2075	0.075	20415	keystroke_m	m	n/a
10.3425	0.105	20685	keystroke_p	p	n/a
10.4925	0.06	20985	keystroke_e	e	n/a
10.6875	0.06	21375	keystroke_d	d	n/a
10.7175	0.09	21435	keystroke_Key.space	Key.space	n/a
12.503	0.09	25006	keystroke_o	o	n/a
12.578	0.075	25156	keystroke_v	v	n/a
12.773	0.135	25546	keystroke_e	e	n/a
12.863	0.075	25726	keystroke_r	r	n/a
13.298	0.075	26596	keystroke_Key.space	Key.space	n/a
13.5075	0.06	27015	keystroke_a	a	n/a
13.6275	0.0755	27255	keystroke_Key.space	Key.space	n/a
13.8675	0.09	27735	keystroke_l	l	n/a
14.1525	0.075	28305	keystroke_a	a	n/a
14.4375	0.12	28875	keystroke_z	z	n/a
14.6775	0.0605	29355	keystroke_y	y	n/a
14.9025	0.0895	29805	keystroke_Key.space	Key.space	n/a
15.1275	0.06	30255	keystroke_d	d	n/a
15.2175	0.09	30435	keystroke_o	o	n/a
15.3975	0.09	30795	keystroke_g	g	n/a
16.3275	0.06	32655	keystroke_Key.enter	Key.enter	n/a
16.397	9.098	32794	prompt	n/a	usage required vertical pointer\n
17.2275	0.075	34455	keystroke_u	u	n/a
17.4825	0.015	34965	keystroke_s	s	n/a
18.1725	0.12	36345	keystroke_a	a	n/a
18.3675	0.075	36735	keystroke_g	g	n/a
18.5475	0.075	37095	keystroke_e	e	n/a
18.6525	0.075	37305	keystroke_Key.space	Key.space	n/a
18.938	0.105	37876	keystroke_r	r	n/a
18.983	0.105	37966	keystroke_e	e	n/a
19.418	0.09	38836	keystroke_q	q	n/a
19.568	0.09	39136	keystroke_u	u	n/a
19.748	0.1195	39496	keystroke_i	i	n/a
19.8975	0.1055	39795	keystroke_r	r	n/a
19.9275	0.1205	39855	keystroke_e	e	n/a
20.153	0.105	40306	keystroke_d	d	n/a
20.288	0.075	40576	keystroke_Key.space	Key.space	n/a
20.558	0.06	41116	keystroke_v	v	n/a
20.7235	0.1045	41447	keystroke_e	e	n/a
20.7985	0.0595	41597	keystroke_r	r	n/a
21.008	0.045	42016	keystroke_t	t	n/a
21.098	0.09	42196	keystroke_i	i	n/a
21.278	0.09	42556	keystroke_c	c	n/a
21.458	0.06	42916	keystroke_a	a	n/a
21.7275	0.075	43455	keystroke_Key.space	Key.space	n/a
22.658	0.06	45316	keystroke_Key.backspace	Key.backspace	n/a
23.0025	0.075	46005	keystroke_l	l	n/a
23.1975	0.075	46395	keystroke_Key.space	Key.space	n/a
23.4075	0.09	46815	keystroke_p	p	n/a
23.6925	0.0905	47385	keystroke_o	o	n/a
23.9025	0.105	47805	keystroke_i	i	n/a
24.023	0.1195	48046	keystroke_n	n	n/a
24.2475	0.075	48495	keystroke_t	t	n/a
24.3975	0.135	48795	keystroke_e	e	n/a
24.4875	0.09	48975	keystroke_r	r	n/a
25.4325	0.06	50865	keystroke_Key.enter	Key.enter	n/a
25.5	16.75	51000	prompt	n/a	copying effect consist andorra\n
26.1675	0.075	52335	keystroke_c	c	n/a
26.288	0.0745	52576	keystroke_o	o	n/a
26.468	0.105	52936	keystroke_p	p	n/a
26.708	0.0605	53416	keystroke_u	u	n/a
27.1125	0.03	54225	keystroke_i	i	n/a
27.533	0.03	55066	keystroke_Key.backspace	Key.backspace	n/a
27.668	0.075	55336	keystroke_Key.backspace	Key.backspace	n/a
28.313	0.06	56626	keystroke_y	y	n/a
28.538	0.18	57076	keystroke_i	i	n/a
28.733	0.09	57466	keystroke_n	n	n/a
28.9425	0.0755	57885	keystroke_g	g	n/a
29.407	0.061	58814	keystroke_Key.space	Key.space	n/a
29.7225	0.075	59445	keystroke_e	e	n/a
30.0375	0.061	60075	keystroke_f	f	n/a
30.1735	0.104	60347	keystroke_f	f	n/a
30.3375	0.075	60675	keystroke_e	e	n/a
30.5625	0.075	61125	keystroke_c	c	n/a
30.788	0.06	61576	keystroke_g	g	n/a
34.6165	0	69233	keystroke_Key.backspace	Key.backspace	n/a
35.1835	0.074	70367	keystroke_t	t	n/a
35.6925	0.06	71385	keystroke_Key.space	Key.space	n/a
37.1935	0.074	74387	keystroke_c	c	n/a
37.3425	0.181	74685	keystroke_o	o	n/a
37.5075	0.105	75015	keystroke_n	n	n/a
38.1075	0.075	76215	keystroke_s	s	n/a
38.2275	0.091	76455	keystroke_i	i	n/a
38.3325	0.09	76665	keystroke_s	s	n/a
38.5425	0.075	77085	keystroke_t	t	n/a
38.8275	0.075	77655	keystroke_Key.space	Key.space	n/a
39.2185	0.074	78437	keystroke_a	a	n/a
39.3825	0.045	78765	keystroke_n	n	n/a
39.638	0.075	79276	keystroke_d	d	n/a
40.748	0.09	81496	keystroke_o	o	n/a
40.958	0.06	81916	keystroke_r	r	n/a
41.108	0.075	82216	keystroke_r	r	n/a
41.408	0.06	82816	keystroke_a	a	n/a
42.188	0.06	84376	keystroke_Key.enter	Key.enter	n/a
42.256	12.0565	84512	prompt	n/a	seek assure interface maria\n
42.953	0.06	85906	keystroke_s	s	n/a
43.163	0.03	86326	keystroke_e	e	n/a
43.268	0.09	86536	keystroke_e	e	n/a
43.568	0.075	87136	keystroke_k	k	n/a
43.748	0.09	87496	keystroke_Key.space	Key.space	n/a
43.943	0.09	87886	keystroke_a	a	n/a
44.423	0.06	88846	keystroke_s	s	n/a
44.558	0.09	89116	keystroke_s	s	n/a
44.768	0.09	89536	keystroke_u	u	n/a
44.933	0.12	89866	keystroke_r	r	n/a
45.023	0.12	90046	keystroke_e	e	n/a
45.218	0.075	90436	keystroke_Key.space	Key.space	n/a
45.473	0.075	90946	keystroke_i	i	n/a
45.578	0.09	91156	keystroke_n	n	n/a
46.073	0.135	92146	keystroke_e	e	n/a
46.163	0.075	92326	keystroke_r	r	n/a
46.808	0.06	93616	keystroke_f	f	n/a
47.138	0.12	94276	keystroke_a	a	n/a
47.303	0.135	94606	keystroke_c	c	n/a
47.408	0.12	94816	keystroke_e	e	n/a
47.738	0.075	95476	keystroke_Key.space	Key.space	n/a
48.008	0.06	96016	keystroke_m	m	n/a
48.203	0.105	96406	keystroke_a	a	n/a
48.773	0.06	97546	keystroke_Key.backspace	Key.backspace	n/a
48.938	0.06	97876	keystroke_Key.backspace	Key.backspace	n/a
49.088	0.075	98176	keystroke_Key.backspace	Key.backspace	n/a
49.238	0.075	98476	keystroke_Key.backspace	Key.backspace	n/a
49.403	0.06	98806	keystroke_Key.backspace	Key.backspace	n/a
49.568	0.06	99136	keystroke_Key.backspace	Key.backspace	n/a
49.733	0.045	99466	keystroke_Key.backspace	Key.backspace	n/a
49.883	0.045	99766	keystroke_Key.backspace	Key.backspace	n/a
50.033	0.06	100066	keystroke_Key.backspace	Key.backspace	n/a
50.288	0.06	100576	keystroke_t	t	n/a
50.468	0.12	100936	keystroke_e	e	n/a
50.528	0.075	101056	keystroke_r	r	n/a
50.993	0.061	101986	keystroke_f	f	n/a
51.203	0.105	102406	keystroke_a	a	n/a
51.293	0.18	102586	keystroke_c	c	n/a
51.443	0.09	102886	keystroke_e	e	n/a
51.578	0.09	103156	keystroke_Key.space	Key.space	n/a
51.923	0.075	103846	keystroke_m	m	n/a
52.073	0.105	104146	keystroke_a	a	n/a
52.523	0.06	105046	keystroke_r	r	n/a
52.9135	0.075	105827	keystroke_i	i	n/a
53.1385	0.075	106277	keystroke_a	a	n/a
54.2495	0.06	108499	keystroke_Key.enter	Key.enter	n/a
54.3175	12.1395	108635	prompt	n/a	quantity growth classifieds swimming\n
55.2255	0.09	110451	keystroke_q	q	n/a
55.4205	0.09	110841	keystroke_u	u	n/a
55.841	0.105	111682	keystroke_a	a	n/a
56.006	0.091	112012	keystroke_n	n	n/a
57.252	0.075	114504	keystroke_t	t	n/a
57.568	0.075	115136	keystroke_i	i	n/a
57.733	0.06	115466	keystroke_t	t	n/a
57.898	0.06	115796	keystroke_y	y	n/a
58.2135	0.06	116427	keystroke_Key.space	Key.space	n/a
58.964	0.06	117928	keystroke_g	g	n/a
59.159	0.06	118318	keystroke_r	r	n/a
59.339	0.0905	118678	keystroke_o	o	n/a
59.4595	0.09	118919	keystroke_w	w	n/a
59.8045	0.06	119609	keystroke_t	t	n/a
59.9245	0.06	119849	keystroke_h	h	n/a
60.12	0.075	120240	keystroke_Key.space	Key.space	n/a
60.36	0.09	120720	keystroke_c	c	n/a
60.6455	0.135	121291	keystroke_a	a	n/a
61.0955	0.075	122191	keystroke_Key.backspace	Key.backspace	n/a
61.351	0.105	122702	keystroke_l	l	n/a
61.501	0.09	123002	keystroke_a	a	n/a
61.741	0.045	123482	keystroke_s	s	n/a
61.876	0.0605	123752	keystroke_s	s	n/a
62.3565	0.075	124713	keystroke_i	i	n/a
62.627	0.045	125254	keystroke_f	f	n/a
62.777	0.075	125554	keystroke_i	i	n/a
62.867	0.09	125734	keystroke_e	e	n/a
63.1675	0.09	126335	keystroke_d	d	n/a
63.768	0.06	127536	keystroke_Key.space	Key.space	n/a
64.128	0.075	128256	keystroke_s	s	n/a
64.383	0.0755	128766	keystroke_w	w	n/a
64.5785	0.105	129157	keystroke_i	i	n/a
64.8335	0.03	129667	keystroke_m	m	n/a
64.9685	0.0605	129937	keystroke_m	m	n/a
65.479	0.12	130958	keystroke_i	i	n/a
65.614	0.0905	131228	keystroke_n	n	n/a
65.8095	0.075	131619	keystroke_g	g	n/a
66.395	0.06	132790	keystroke_Key.enter	Key.enter	n/a
66.462	9.619	132924	prompt	n/a	payable document finishing front\n
67.1455	0.06	134291	keystroke_p	p	n/a
67.4005	0.0905	134801	keystroke_a	a	n/a
67.521	0.075	135042	keystroke_y	y	n/a
68.1215	0.06	136243	keystroke_a	a	n/a
68.2115	0.075	136423	keystroke_b	b	n/a
68.3765	0.09	136753	keystroke_l	l	n/a
68.6015	0.075	137203	keystroke_e	e	n/a
68.767	0.06	137534	keystroke_Key.space	Key.space	n/a
69.5925	0.105	139185	keystroke_d	d	n/a
69.8775	0.0905	139755	keystroke_o	o	n/a
70.013	0.075	140026	keystroke_c	c	n/a
70.268	0.075	140536	keystroke_u	u	n/a
70.493	0.105	140986	keystroke_m	m	n/a
70.7935	0.09	141587	keystroke_e	e	n/a
70.9285	0.075	141857	keystroke_n	n	n/a
71.0335	0.075	142067	keystroke_t	t	n/a
71.1985	0.06	142397	keystroke_Key.space	Key.space	n/a
71.529	0.075	143058	keystroke_f	f	n/a
71.9495	0.075	143899	keystroke_i	i	n/a
72.1295	0.105	144259	keystroke_n	n	n/a
72.2945	0.105	144589	keystroke_i	i	n/a
72.4445	0.0755	144889	keystroke_s	s	n/a
72.535	0.075	145070	keystroke_h	h	n/a
72.7	0.12	145400	keystroke_i	i	n/a
72.79	0.105	145580	keystroke_n	n	n/a
72.97	0.075	145940	keystroke_g	g	n/a
73.105	0.06	146210	keystroke_Key.space	Key.space	n/a
73.7355	0.075	147471	keystroke_f	f	n/a
74.051	0.06	148102	keystroke_r	r	n/a
74.231	0.12	148462	keystroke_o	o	n/a
74.352	0.1045	148704	keystroke_n	n	n/a
75.1765	0.0755	150353	keystroke_t	t	n/a
76.0025	0.075	152005	keystroke_Key.enter	Key.enter	n/a
76.0875	10.2135	152175	prompt	n/a	candle teenage released constitutes\n
76.843	0.105	153686	keystroke_c	c	n/a
77.038	0.075	154076	keystroke_a	a	n/a
77.128	0.09	154256	keystroke_n	n	n/a
77.398	0.0905	154796	keystroke_d	d	n/a
77.5335	0.09	155067	keystroke_l	l	n/a
77.6835	0.045	155367	keystroke_e	e	n/a
77.7585	0.075	155517	keystroke_Key.space	Key.space	n/a
78.149	0.09	156298	keystroke_t	t	n/a
78.449	0.075	156898	keystroke_e	e	n/a
78.614	0.0755	157228	keystroke_e	e	n/a
78.7345	0.09	157469	keystroke_n	n	n/a
79.0495	0.105	158099	keystroke_a	a	n/a
79.1695	0.106	158339	keystroke_g	g	n/a
79.2755	0.089	158551	keystroke_e	e	n/a
79.4845	0.03	158969	keystroke_Key.space	Key.space	n/a
80.1905	0.12	160381	keystroke_r	r	n/a
80.2955	0.105	160591	keystroke_e	e	n/a
80.6705	0.09	161341	keystroke_l	l	n/a
80.7755	0.105	161551	keystroke_e	e	n/a
81.0305	0.1655	162061	keystroke_a	a	n/a
81.211	0.165	162422	keystroke_s	s	n/a
81.376	0.105	162752	keystroke_e	e	n/a
81.616	0.12	163232	keystroke_d	d	n/a
82.1565	0.075	164313	keystroke_Key.space	Key.space	n/a
82.4715	0.12	164943	keystroke_c	c	n/a
82.697	0.135	165394	keystroke_o	o	n/a
82.787	0.105	165574	keystroke_n	n	n/a
83.3425	0.09	166685	keystroke_s	s	n/a
83.5375	0.09	167075	keystroke_t	t	n/a
83.6425	0.09	167285	keystroke_i	i	n/a
83.8525	0.0755	167705	keystroke_t	t	n/a
83.958	0.09	167916	keystroke_i	i	n/a
84.603	0.105	169206	keystroke_Key.backspace	Key.backspace	n/a
84.9335	0.075	169867	keystroke_u	u	n/a
85.0835	0.105	170167	keystroke_t	t	n/a
85.2335	0.1195	170467	keystroke_e	e	n/a
85.5035	0.091	171007	keystroke_s	s	n/a
86.239	0.06	172478	keystroke_Key.enter	Key.enter	n/a
86.3085	10.784	172617	prompt	n/a	highlights vienna offset support\n
87.0355	0.06	174071	keystroke_h	h	n/a
87.2155	0.074	174431	keystroke_i	i	n/a
87.3945	0.06	174789	keystroke_g	g	n/a
87.4705	0.074	174941	keystroke_h	h	n/a
87.906	0.06	175812	keystroke_t	t	n/a
88.4605	0.075	176921	keystroke_Key.backspace	Key.backspace	n/a
88.7465	0.105	177493	keystroke_l	l	n/a
88.9415	0.0755	177883	keystroke_i	i	n/a
89.107	0.06	178214	keystroke_g	g	n/a
89.181	0.075	178362	keystroke_h	h	n/a
89.302	0.105	178604	keystroke_t	t	n/a
89.542	0.075	179084	keystroke_s	s	n/a
89.647	0.074	179294	keystroke_Key.space	Key.space	n/a
90.0065	0.075	180013	keystroke_v	v	n/a
90.3825	0.074	180765	keystroke_i	i	n/a
90.6365	0.075	181273	keystroke_e	e	n/a
91.133	0.06	182266	keystroke_n	n	n/a
91.268	0.075	182536	keystroke_n	n	n/a
91.418	0.089	182836	keystroke_e	e	n/a
92.0775	0.09	184155	keystroke_Key.backspace	Key.backspace	n/a
92.2725	0.1215	184545	keystroke_a	a	n/a
92.408	0.076	184816	keystroke_Key.space	Key.space	n/a
93.173	0.075	186346	keystroke_o	o	n/a
93.429	0.059	186858	keystroke_f	f	n/a
93.5945	0.075	187189	keystroke_f	f	n/a
94.0145	0.075	188029	keystroke_s	s	n/a
94.1795	0.105	188359	keystroke_e	e	n/a
94.3595	0.09	188719	keystroke_t	t	n/a
94.779	0.075	189558	keystroke_Key.space	Key.space	n/a
95.065	0.09	190130	keystroke_s	s	n/a
95.26	0.075	190520	keystroke_u	u	n/a
95.77	0.0595	191540	keystroke_p	p	n/a
95.9055	0.075	191811	keystroke_p	p	n/a
96.1005	0.105	192201	keystroke_o	o	n/a
96.2505	0.075	192501	keystroke_r	r	n/a
96.4605	0.06	192921	keystroke_t	t	n/a
97.045	0.045	194090	keystroke_Key.enter	Key.enter	n/a
97.0985	7.512	194197	prompt	n/a	captain polls until also\n
97.7655	0.075	195531	keystroke_c	c	n/a
98.0055	0.12	196011	keystroke_a	a	n/a
98.2755	0.09	196551	keystroke_p	p	n/a
98.546	0.09	197092	keystroke_t	t	n/a
98.861	0.045	197722	keystroke_i	i	n/a
99.4615	0.06	198923	keystroke_Key.backspace	Key.backspace	n/a
99.5815	0.105	199163	keystroke_a	a	n/a
99.7315	0.1205	199463	keystroke_i	i	n/a
99.911	0.091	199822	keystroke_n	n	n/a
100.197	0.06	200394	keystroke_Key.space	Key.space	n/a
100.437	0.09	200874	keystroke_p	p	n/a
100.662	0.09	201324	keystroke_o	o	n/a
101.022	0.06	202044	keystroke_l	l	n/a
101.1425	0.075	202285	keystroke_l	l	n/a
101.3375	0.075	202675	keystroke_s	s	n/a
101.4725	0.06	202945	keystroke_Key.space	Key.space	n/a
101.8025	0.075	203605	keystroke_u	u	n/a
101.9975	0.075	203995	keystroke_n	n	n/a
102.2075	0.0905	204415	keystroke_t	t	n/a
102.283	0.09	204566	keystroke_i	i	n/a
102.463	0.105	204926	keystroke_l	l	n/a
102.613	0.06	205226	keystroke_Key.space	Key.space	n/a
103.243	0.12	206486	keystroke_a	a	n/a
103.4535	0.075	206907	keystroke_l	l	n/a
103.6185	0.09	207237	keystroke_s	s	n/a
103.753	0.105	207506	keystroke_o	o	n/a
104.548	0.06	209096	keystroke_Key.enter	Key.enter	n/a
104.615	13.4225	209230	prompt	n/a	beginning spelling trips malawi\n
105.418	0.09	210836	keystroke_b	b	n/a
105.613	0.09	211226	keystroke_e	e	n/a
105.928	0.075	211856	keystroke_g	g	n/a
106.168	0.09	212336	keystroke_i	i	n/a
106.408	0.06	212816	keystroke_n	n	n/a
106.558	0.06	213116	keystroke_n	n	n/a
106.723	0.12	213446	keystroke_i	i	n/a
106.828	0.0745	213656	keystroke_n	n	n/a
106.993	0.075	213986	keystroke_g	g	n/a
107.128	0.09	214256	keystroke_Key.space	Key.space	n/a
107.4875	0.075	214975	keystroke_s	s	n/a
107.5925	0.105	215185	keystroke_p	p	n/a
107.8025	0.075	215605	keystroke_e	e	n/a
108.3875	0.075	216775	keystroke_l	l	n/a
108.5225	0.09	217045	keystroke_l	l	n/a
108.7025	0.18	217405	keystroke_i	i	n/a
108.8675	0.105	217735	keystroke_n	n	n/a
109.0775	0.09	218155	keystroke_g	g	n/a
109.2275	0.075	218455	keystroke_Key.space	Key.space	n/a
109.8125	0.075	219625	keystroke_t	t	n/a
110.008	0.0745	220016	keystroke_r	r	n/a
110.1275	0.105	220255	keystroke_i	i	n/a
110.3075	0.12	220615	keystroke_p	p	n/a
110.5175	0.075	221035	keystroke_s	s	n/a
110.6375	0.09	221275	keystroke_Key.space	Key.space	n/a
111.0275	0.075	222055	keystroke_m	m	n/a
111.1925	0.09	222385	keystroke_a	a	n/a
111.3275	0.09	222655	keystroke_l	l	n/a
112.1075	0.075	224215	keystroke_a	a	n/a
115.3495	0.027	230699	keystroke_w	w	n/a
115.4965	0.075	230993	keystroke_i	i	n/a
118.034	0	236068	keystroke_Key.enter	Key.enter	n/a
118.0445	9.827	236089	prompt	n/a	commented browsers moment flights\n
118.7515	0.074	237503	keystroke_c	c	n/a
118.8855	0.09	237771	keystroke_o	o	n/a
119.1105	0.06	238221	keystroke_m	m	n/a
119.2305	0.09	238461	keystroke_m	m	n/a
119.4405	0.105	238881	keystroke_e	e	n/a
119.5305	0.075	239061	keystroke_n	n	n/a
119.6655	0.09	239331	keystroke_t	t	n/a
119.8305	0.105	239661	keystroke_e	e	n/a
120.0555	0.075	240111	keystroke_d	d	n/a
120.1755	0.075	240351	keystroke_Key.space	Key.space	n/a
120.5355	0.06	241071	keystroke_b	b	n/a
121.33	0.06	242660	keystroke_r	r	n/a
121.735	0.075	243470	keystroke_o	o	n/a
122.365	0.105	244730	keystroke_w	w	n/a
122.876	0.0885	245752	keystroke_s	s	n/a
123.0855	0.149	246171	keystroke_e	e	n/a
123.2045	0.105	246409	keystroke_r	r	n/a
123.4745	0.075	246949	keystroke_s	s	n/a
123.9095	0.075	247819	keystroke_Key.space	Key.space	n/a
124.1495	0.075	248299	keystroke_m	m	n/a
124.3595	0.1045	248719	keystroke_o	o	n/a
124.794	0.075	249588	keystroke_m	m	n/a
125.364	0.075	250728	keystroke_e	e	n/a
125.559	0.06	251118	keystroke_n	n	n/a
125.754	0.075	251508	keystroke_t	t	n/a
125.919	0.06	251838	keystroke_Key.space	Key.space	n/a
126.264	0.06	252528	keystroke_f	f	n/a
126.384	0.105	252768	keystroke_l	l	n/a
126.549	0.09	253098	keystroke_i	i	n/a
126.729	0.06	253458	keystroke_g	g	n/a
126.819	0.075	253638	keystroke_h	h	n/a
126.924	0.09	253848	keystroke_t	t	n/a
127.149	0.09	254298	keystroke_s	s	n/a
127.809	0.06	255618	keystroke_Key.enter	Key.enter	n/a
127.8755	10.0295	255751	prompt	n/a	ribbon insight loops syntax\n
128.7085	0.06	257417	keystroke_r	r	n/a
128.8285	0.09	257657	keystroke_i	i	n/a
129.0985	0.075	258197	keystroke_b	b	n/a
129.4735	0.045	258947	keystroke_o	o	n/a
129.6085	0.121	259217	keystroke_n	n	n/a
130.1635	0.06	260327	keystroke_Key.backspace	Key.backspace	n/a
130.2985	0.09	260597	keystroke_Key.backspace	Key.backspace	n/a
131.3345	0.059	262669	keystroke_b	b	n/a
131.4995	0.12	262999	keystroke_o	o	n/a
131.6945	0.089	263389	keystroke_n	n	n/a
131.9485	0.075	263897	keystroke_Key.space	Key.space	n/a
132.6685	0.09	265337	keystroke_i	i	n/a
132.8035	0.09	265607	keystroke_n	n	n/a
133.0135	0.075	266027	keystroke_s	s	n/a
133.1335	0.076	266267	keystroke_i	i	n/a
133.2685	0.09	266537	keystroke_g	g	n/a
133.4035	0.075	266807	keystroke_h	h	n/a
133.5235	0.075	267047	keystroke_t	t	n/a
133.6135	0.075	267227	keystroke_Key.space	Key.space	n/a
134.048	0.0905	268096	keystroke_l	l	n/a
134.2885	0.061	268577	keystroke_o	o	n/a
134.4235	0.0745	268847	keystroke_o	o	n/a
134.619	0.089	269238	keystroke_p	p	n/a
135.084	0.059	270168	keystroke_s	s	n/a
135.293	0.015	270586	keystroke_Key.space	Key.space	n/a
135.563	0.106	271126	keystroke_s	s	n/a
135.834	0.014	271668	keystroke_y	y	n/a
136.103	0.09	272206	keystroke_n	n	n/a
136.403	0.0745	272806	keystroke_t	t	n/a
136.6885	0.105	273377	keystroke_a	a	n/a
137.0785	0.09	274157	keystroke_x	x	n/a
137.8425	0.06	275685	keystroke_Key.enter	Key.enter	n/a
137.9105	9.4465	275821	prompt	n/a	appreciate want madrid ebooks\n
138.562	0.076	277124	keystroke_a	a	n/a
138.743	0.075	277486	keystroke_p	p	n/a
138.892	0.076	277784	keystroke_p	p	n/a
139.2375	0.135	278475	keystroke_r	r	n/a
139.4015	0.121	278803	keystroke_e	e	n/a
139.9415	0.091	279883	keystroke_c	c	n/a
140.1675	0.089	280335	keystroke_i	i	n/a
140.7075	0.105	281415	keystroke_a	a	n/a
140.9025	0.12	281805	keystroke_t	t	n/a
141.0065	0.136	282013	keystroke_e	e	n/a
141.2015	0.09	282403	keystroke_Key.space	Key.space	n/a
141.426	0.0755	282852	keystroke_w	w	n/a
141.591	0.136	283182	keystroke_a	a	n/a
141.712	0.059	283424	keystroke_n	n	n/a
141.846	0.076	283692	keystroke_t	t	n/a
141.891	0.09	283782	keystroke_Key.space	Key.space	n/a
142.446	0.091	284892	keystroke_m	m	n/a
142.597	0.105	285194	keystroke_a	a	n/a
142.822	0.09	285644	keystroke_d	d	n/a
143.122	0.075	286244	keystroke_r	r	n/a
143.301	0.091	286602	keystroke_i	i	n/a
143.542	0.059	287084	keystroke_d	d	n/a
143.661	0.076	287322	keystroke_Key.space	Key.space	n/a
144.007	0.09	288014	keystroke_e	e	n/a
144.157	0.09	288314	keystroke_b	b	n/a
144.4705	0.061	288941	keystroke_o	o	n/a
144.5915	0.075	289183	keystroke_o	o	n/a
144.7255	0.1215	289451	keystroke_k	k	n/a
144.9065	0.075	289813	keystroke_s	s	n/a
147.354	0	294708	keystroke_Key.enter	Key.enter	n/a
147.362	11.8085	294724	prompt	n/a	action harmony similarly promote\n
148.011	0.135	296022	keystroke_a	a	n/a
148.191	0.09	296382	keystroke_c	c	n/a
148.401	0.105	296802	keystroke_t	t	n/a
148.491	0.135	296982	keystroke_i	i	n/a
148.596	0.119	297192	keystroke_o	o	n/a
148.671	0.105	297342	keystroke_n	n	n/a
148.85	0.0895	297700	keystroke_Key.space	Key.space	n/a
149.1345	0.091	298269	keystroke_h	h	n/a
149.2695	0.091	298539	keystroke_a	a	n/a
149.4505	0.075	298901	keystroke_r	r	n/a
149.6155	0.075	299231	keystroke_m	m	n/a
149.7795	0.121	299559	keystroke_o	o	n/a
149.9005	0.119	299801	keystroke_n	n	n/a
150.1705	0.075	300341	keystroke_y	y	n/a
150.3805	0.089	300761	keystroke_Key.space	Key.space	n/a
150.6355	0.09	301271	keystroke_s	s	n/a
150.8005	0.03	301601	keystroke_j	j	n/a
151.2805	0.075	302561	keystroke_Key.backspace	Key.backspace	n/a
151.58	0.09	303160	keystroke_i	i	n/a
151.804	0.076	303608	keystroke_m	m	n/a
152.69	0.075	305380	keystroke_i	i	n/a
153.14	0.09	306280	keystroke_l	l	n/a
153.53	0.15	307060	keystroke_a	a	n/a
154.4	0.045	308800	keystroke_r	r	n/a
154.76	0.09	309520	keystroke_l	l	n/a
154.9995	0.06	309999	keystroke_y	y	n/a
155.2095	0.074	310419	keystroke_Key.space	Key.space	n/a
155.3745	0.09	310749	keystroke_p	p	n/a
155.5395	0.06	311079	keystroke_r	r	n/a
156.0195	0.105	312039	keystroke_o	o	n/a
156.2595	0.075	312519	keystroke_m	m	n/a
156.7245	0.075	313449	keystroke_t	t	n/a
157.0395	0.0595	314079	keystroke_e	e	n/a
157.459	0.06	314918	keystroke_Key.backspace	Key.backspace	n/a
157.624	0.045	315248	keystroke_Key.backspace	Key.backspace	n/a
158.134	0.075	316268	keystroke_o	o	n/a
158.269	0.12	316538	keystroke_t	t	n/a
158.359	0.105	316718	keystroke_e	e	n/a
159.109	0.06	318218	keystroke_Key.enter	Key.enter	n/a
159.175	7.8555	318350	prompt	n/a	hidden valid closely with\n
159.994	0.075	319988	keystroke_h	h	n/a
160.174	0.075	320348	keystroke_i	i	n/a
160.399	0.0595	320798	keystroke_d	d	n/a
160.5185	0.0905	321037	keystroke_d	d	n/a
160.7735	0.06	321547	keystroke_e	e	n/a
160.9985	0.075	321997	keystroke_n	n	n/a
161.1935	0.075	322387	keystroke_Key.space	Key.space	n/a
161.5235	0.135	323047	keystroke_v	v	n/a
161.7935	0.09	323587	keystroke_a	a	n/a
162.063	0.09	324126	keystroke_l	l	n/a
162.228	0.09	324456	keystroke_i	i	n/a
162.558	0.09	325116	keystroke_d	d	n/a
162.708	0.075	325416	keystroke_Key.space	Key.space	n/a
163.008	0.03	326016	keystroke_s	s	n/a
163.383	0.09	326766	keystroke_Key.backspace	Key.backspace	n/a
163.548	0.06	327096	keystroke_c	c	n/a
163.698	0.09	327396	keystroke_l	l	n/a
163.893	0.09	327786	keystroke_o	o	n/a
164.433	0.105	328866	keystroke_s	s	n/a
164.628	0.09	329256	keystroke_e	e	n/a
165.078	0.1345	330156	keystroke_l	l	n/a
165.3925	0.06	330785	keystroke_y	y	n/a
165.7375	0.075	331475	keystroke_Key.space	Key.space	n/a
165.9775	0.09	331955	keystroke_w	w	n/a
166.0525	0.105	332105	keystroke_i	i	n/a
166.2475	0.075	332495	keystroke_t	t	n/a
166.3075	0.075	332615	keystroke_h	h	n/a
166.9525	0.075	333905	keystroke_Key.enter	Key.enter	n/a
167.0365	6.652	334073	prompt	n/a	roller didn't kinase carol\n
167.7325	0.06	335465	keystroke_r	r	n/a
167.8675	0.09	335735	keystroke_o	o	n/a
168.0775	0.06	336155	keystroke_l	l	n/a
168.1975	0.075	336395	keystroke_l	l	n/a
168.317	0.09	336634	keystroke_e	e	n/a
168.362	0.09	336724	keystroke_r	r	n/a
168.482	0.075	336964	keystroke_Key.space	Key.space	n/a
168.782	0.06	337564	keystroke_d	d	n/a
168.887	0.075	337774	keystroke_i	i	n/a
168.977	0.12	337954	keystroke_d	d	n/a
169.247	0.09	338494	keystroke_n	n	n/a
169.397	0.09	338794	keystroke_'	'	n/a
169.547	0.09	339094	keystroke_t	t	n/a
170.102	0.06	340204	keystroke_Key.space	Key.space	n/a
170.837	0.075	341674	keystroke_k	k	n/a
171.017	0.09	342034	keystroke_i	i	n/a
171.152	0.105	342304	keystroke_n	n	n/a
171.407	0.105	342814	keystroke_a	a	n/a
171.647	0.105	343294	keystroke_s	s	n/a
171.827	0.1195	343654	keystroke_e	e	n/a
172.0215	0.06	344043	keystroke_Key.space	Key.space	n/a
172.2615	0.09	344523	keystroke_c	c	n/a
172.4265	0.12	344853	keystroke_a	a	n/a
172.6515	0.075	345303	keystroke_r	r	n/a
172.8315	0.09	345663	keystroke_o	o	n/a
173.1165	0.015	346233	keystroke_l	l	n/a
173.6265	0.06	347253	keystroke_Key.enter	Key.enter	n/a
173.6935	13.792	347387	prompt	n/a	reduction wikipedia integrity conclusions\n
174.6165	0.105	349233	keystroke_r	r	n/a
174.6615	0.105	349323	keystroke_e	e	n/a
174.9915	0.075	349983	keystroke_d	d	n/a
175.1715	0.06	350343	keystroke_u	u	n/a
175.2915	0.12	350583	keystroke_c	c	n/a
175.546	0.075	351092	keystroke_t	t	n/a
175.591	0.135	351182	keystroke_i	i	n/a
175.771	0.075	351542	keystroke_o	o	n/a
175.801	0.075	351602	keystroke_n	n	n/a
176.011	0.06	352022	keystroke_Key.space	Key.space	n/a
176.296	0.09	352592	keystroke_w	w	n/a
176.416	0.075	352832	keystroke_i	i	n/a
176.611	0.075	353222	keystroke_k	k	n/a
176.791	0.075	353582	keystroke_i	i	n/a
177.061	0.0895	354122	keystroke_p	p	n/a
177.3305	0.0605	354661	keystroke_e	e	n/a
177.5255	0.105	355051	keystroke_d	d	n/a
177.7205	0.075	355441	keystroke_i	i	n/a
177.9155	0.045	355831	keystroke_a	a	n/a
178.0355	0.045	356071	keystroke_Key.space	Key.space	n/a
178.8905	0.075	357781	keystroke_i	i	n/a
179.0555	0.09	358111	keystroke_n	n	n/a
182.8375	0.0125	365675	keystroke_t	t	n/a
183.0445	0.09	366089	keystroke_e	e	n/a
183.5245	0.075	367049	keystroke_g	g	n/a
183.7645	0.075	367529	keystroke_r	r	n/a
184.1095	0.06	368219	keystroke_i	i	n/a
184.514	0.06	369028	keystroke_t	t	n/a
184.589	0.06	369178	keystroke_y	y	n/a
184.844	0.075	369688	keystroke_Key.space	Key.space	n/a
185.0995	0.075	370199	keystroke_c	c	n/a
185.2345	0.12	370469	keystroke_o	o	n/a
185.3245	0.09	370649	keystroke_n	n	n/a
185.669	0.09	371338	keystroke_c	c	n/a
185.819	0.09	371638	keystroke_l	l	n/a
186.014	0.06	372028	keystroke_u	u	n/a
186.254	0.105	372508	keystroke_s	s	n/a
186.374	0.12	372748	keystroke_i	i	n/a
186.479	0.12	372958	keystroke_o	o	n/a
186.554	0.105	373108	keystroke_n	n	n/a
186.764	0.075	373528	keystroke_s	s	n/a
187.424	0.06	374848	keystroke_Key.enter	Key.enter	n/a
187.492	7.5835	374984	prompt	n/a	sunny millions robinson banking\n
188.219	0.06	376438	keystroke_s	s	n/a
188.4285	0.075	376857	keystroke_u	u	n/a
188.6685	0.06	377337	keystroke_n	n	n/a
188.8035	0.06	377607	keystroke_n	n	n/a
188.9985	0.075	377997	keystroke_y	y	n/a
189.1935	0.09	378387	keystroke_Key.space	Key.space	n/a
189.3885	0.09	378777	keystroke_m	m	n/a
189.5985	0.09	379197	keystroke_i	i	n/a
189.8535	0.06	379707	keystroke_l	l	n/a
189.9885	0.075	379977	keystroke_l	l	n/a
190.1535	0.18	380307	keystroke_i	i	n/a
190.3485	0.12	380697	keystroke_o	o	n/a
190.4235	0.12	380847	keystroke_n	n	n/a
190.7535	0.075	381507	keystroke_s	s	n/a
190.9335	0.0595	381867	keystroke_Key.space	Key.space	n/a
191.308	0.09	382616	keystroke_r	r	n/a
191.383	0.105	382766	keystroke_o	o	n/a
191.548	0.105	383096	keystroke_b	b	n/a
191.728	0.135	383456	keystroke_i	i	n/a
191.878	0.15	383756	keystroke_n	n	n/a
192.073	0.075	384146	keystroke_s	s	n/a
192.178	0.135	384356	keystroke_o	o	n/a
192.253	0.105	384506	keystroke_n	n	n/a
192.508	0.075	385016	keystroke_Key.space	Key.space	n/a
192.793	0.09	385586	keystroke_b	b	n/a
192.958	0.075	385916	keystroke_a	a	n/a
193.078	0.06	386156	keystroke_k	k	n/a
193.603	0.075	387206	keystroke_Key.backspace	Key.backspace	n/a
193.813	0.105	387626	keystroke_n	n	n/a
193.978	0.09	387956	keystroke_k	k	n/a
194.158	0.0895	388316	keystroke_i	i	n/a
194.2625	0.12	388525	keystroke_n	n	n/a
194.4575	0.075	388915	keystroke_g	g	n/a
194.9975	0.075	389995	keystroke_Key.enter	Key.enter	n/a
195.0825	8.376	390165	prompt	n/a	flow head tactics jewel\n
195.8225	0.045	391645	keystroke_f	f	n/a
195.9125	0.09	391825	keystroke_l	l	n/a
196.0925	0.105	392185	keystroke_o	o	n/a
196.227	0.0905	392454	keystroke_w	w	n/a
196.3625	0.075	392725	keystroke_Key.space	Key.space	n/a
196.647	0.075	393294	keystroke_h	h	n/a
196.797	0.09	393594	keystroke_e	e	n/a
196.947	0.15	393894	keystroke_a	a	n/a
197.337	0.06	394674	keystroke_d	d	n/a
197.517	0.06	395034	keystroke_Key.space	Key.space	n/a
198.042	0.075	396084	keystroke_t	t	n/a
198.252	0.105	396504	keystroke_a	a	n/a
198.402	0.105	396804	keystroke_c	c	n/a
198.642	0.075	397284	keystroke_t	t	n/a
198.792	0.09	397584	keystroke_i	i	n/a
198.957	0.105	397914	keystroke_v	v	n/a
199.4665	0.075	398933	keystroke_Key.backspace	Key.backspace	n/a
199.5715	0.12	399143	keystroke_c	c	n/a
199.6925	0.089	399385	keystroke_s	s	n/a
199.8865	0.075	399773	keystroke_Key.space	Key.space	n/a
200.5765	0.06	401153	keystroke_j	j	n/a
200.8015	0.075	401603	keystroke_e	e	n/a
201.5365	0.09	403073	keystroke_w	w	n/a
202.4215	0.06	404843	keystroke_e	e	n/a
202.6465	0.075	405293	keystroke_l	l	n/a
203.3965	0.06	406793	keystroke_Key.enter	Key.enter	n/a
203.4645	15.817	406929	prompt	n/a	featured cache limousines antigua\n
204.3415	0.075	408683	keystroke_f	f	n/a
204.521	0.12	409042	keystroke_e	e	n/a
204.746	0.09	409492	keystroke_a	a	n/a
204.927	0.074	409854	keystroke_t	t	n/a
205.151	0.075	410302	keystroke_u	u	n/a
205.272	0.104	410544	keystroke_r	r	n/a
205.347	0.075	410694	keystroke_e	e	n/a
205.586	0.075	411172	keystroke_d	d	n/a
205.691	0.075	411382	keystroke_Key.space	Key.space	n/a
205.976	0.09	411952	keystroke_c	c	n/a
206.156	0.106	412312	keystroke_a	a	n/a
206.321	0.075	412642	keystroke_h	h	n/a
206.906	0.075	413812	keystroke_Key.backspace	Key.backspace	n/a
207.026	0.106	414052	keystroke_c	c	n/a
207.191	0.09	414382	keystroke_h	h	n/a
207.341	0.09	414682	keystroke_e	e	n/a
207.581	0.09	415162	keystroke_Key.space	Key.space	n/a
208.136	0.075	416272	keystroke_l	l	n/a
208.316	0.105	416632	keystroke_i	i	n/a
208.496	0.105	416992	keystroke_m	m	n/a
209.336	0.075	418672	keystroke_o	o	n/a
210.2655	0.075	420531	keystroke_u	u	n/a
210.6555	0.091	421311	keystroke_s	s	n/a
210.9555	0.15	421911	keystroke_i	i	n/a
211.0905	0.121	422181	keystroke_n	n	n/a
211.3605	0.075	422721	keystroke_e	e	n/a
211.5705	0.075	423141	keystroke_s	s	n/a
211.915	0.075	423830	keystroke_Key.space	Key.space	n/a
212.23	0.105	424460	keystroke_a	a	n/a
212.35	0.075	424700	keystroke_n	n	n/a
212.74	0.075	425480	keystroke_t	t	n/a
212.89	0.09	425780	keystroke_i	i	n/a
213.28	0.06	426560	keystroke_f	f	n/a
213.385	0.09	426770	keystroke_u	u	n/a
213.9395	0.075	427879	keystroke_Key.backspace	Key.backspace	n/a
214.0745	0.105	428149	keystroke_Key.backspace	Key.backspace	n/a
214.4345	0.075	428869	keystroke_g	g	n/a
214.5695	0.075	429139	keystroke_u	u	n/a
215.0045	0.091	430009	keystroke_e	e	n/a
216.22	0.06	432440	keystroke_Key.backspace	Key.backspace	n/a
216.355	0.075	432710	keystroke_Key.backspace	Key.backspace	n/a
216.52	0.105	433040	keystroke_a	a	n/a
217.6145	0.06	435229	keystroke_Key.backspace	Key.backspace	n/a
217.9895	0.075	435979	keystroke_u	u	n/a
218.1245	0.105	436249	keystroke_a	a	n/a
219.2045	0.075	438409	keystroke_Key.enter	Key.enter	n/a
219.288	16.1315	438576	prompt	n/a	institution probe transfers renaissance\n
220.1795	0.09	440359	keystroke_i	i	n/a
220.3745	0.105	440749	keystroke_s	s	n/a
220.6145	0.075	441229	keystroke_t	t	n/a
221.0045	0.0745	442009	keystroke_Key.backspace	Key.backspace	n/a
221.2595	0.015	442519	keystroke_Key.backspace	Key.backspace	n/a
221.4095	0.0895	442819	keystroke_n	n	n/a
221.754	0.12	443508	keystroke_s	s	n/a
221.994	0.075	443988	keystroke_t	t	n/a
222.174	0.1055	444348	keystroke_i	i	n/a
222.804	0.105	445608	keystroke_t	t	n/a
223.314	0.075	446628	keystroke_u	u	n/a
224.109	0.075	448218	keystroke_t	t	n/a
224.214	0.1495	448428	keystroke_i	i	n/a
224.349	0.1345	448698	keystroke_o	o	n/a
224.4385	0.09	448877	keystroke_n	n	n/a
224.9035	0.06	449807	keystroke_Key.space	Key.space	n/a
225.2485	0.09	450497	keystroke_p	p	n/a
225.5035	0.075	451007	keystroke_r	r	n/a
225.6235	0.105	451247	keystroke_o	o	n/a
225.833	0.0905	451666	keystroke_b	b	n/a
226.074	0.0585	452148	keystroke_e	e	n/a
226.3275	0.075	452655	keystroke_Key.space	Key.space	n/a
226.8225	0.075	453645	keystroke_t	t	n/a
227.0025	0.105	454005	keystroke_r	r	n/a
227.2425	0.105	454485	keystroke_a	a	n/a
227.4075	0.076	454815	keystroke_n	n	n/a
227.6025	0.105	455205	keystroke_s	s	n/a
228.0525	0.09	456105	keystroke_f	f	n/a
228.2485	0.195	456497	keystroke_e	e	n/a
228.5475	0.12	457095	keystroke_w	w	n/a
229.0425	0.06	458085	keystroke_Key.backspace	Key.backspace	n/a
229.1925	0.045	458385	keystroke_Key.backspace	Key.backspace	n/a
229.2825	0.12	458565	keystroke_r	r	n/a
229.8375	0.09	459675	keystroke_Key.backspace	Key.backspace	n/a
230.1535	0.104	460307	keystroke_e	e	n/a
230.2125	0.105	460425	keystroke_r	r	n/a
230.5125	0.09	461025	keystroke_s	s	n/a
230.7975	0.06	461595	keystroke_Key.space	Key.space	n/a
231.4125	0.105	462825	keystroke_r	r	n/a
231.4435	0.135	462887	keystroke_e	e	n/a
232.537	0.075	465074	keystroke_n	n	n/a
233.017	0.105	466034	keystroke_a	a	n/a
233.482	0.076	466964	keystroke_i	i	n/a
233.917	0.045	467834	keystroke_s	s	n/a
234.052	0.091	468104	keystroke_s	s	n/a
234.278	0.075	468556	keystroke_a	a	n/a
234.398	0.075	468796	keystroke_n	n	n/a
234.532	0.12	469064	keystroke_c	c	n/a
234.607	0.121	469214	keystroke_e	e	n/a
235.342	0.075	470684	keystroke_Key.enter	Key.enter	n/a
235.4245	14.2725	470849	prompt	n/a	downloading accent blood chargers\n
236.482	0.076	472964	keystroke_d	d	n/a
236.588	0.12	473176	keystroke_o	o	n/a
236.738	0.09	473476	keystroke_w	w	n/a
236.858	0.09	473716	keystroke_n	n	n/a
237.083	0.074	474166	keystroke_l	l	n/a
237.263	0.09	474526	keystroke_o	o	n/a
237.457	0.106	474914	keystroke_a	a	n/a
237.623	0.12	475246	keystroke_d	d	n/a
237.787	0.075	475574	keystroke_Key.space	Key.space	n/a
239.7525	0.075	479505	keystroke_a	a	n/a
239.977	0.06	479954	keystroke_c	c	n/a
240.112	0.09	480224	keystroke_c	c	n/a
240.636	0.09	481272	keystroke_e	e	n/a
240.847	0.09	481694	keystroke_n	n	n/a
241.012	0.09	482024	keystroke_t	t	n/a
241.251	0.046	482502	keystroke_Key.space	Key.space	n/a
241.522	0.075	483044	keystroke_b	b	n/a
241.702	0.09	483404	keystroke_l	l	n/a
241.927	0.03	483854	keystroke_o	o	n/a
242.062	0.09	484124	keystroke_o	o	n/a
242.317	0.075	484634	keystroke_k	k	n/a
242.557	0.075	485114	keystroke_d	d	n/a
242.9315	0.075	485863	keystroke_Key.backspace	Key.backspace	n/a
243.0815	0.074	486163	keystroke_Key.backspace	Key.backspace	n/a
243.2015	0.105	486403	keystroke_d	d	n/a
243.3955	0.06	486791	keystroke_Key.space	Key.space	n/a
244.0415	0.09	488083	keystroke_c	c	n/a
244.1465	0.105	488293	keystroke_h	h	n/a
244.3115	0.09	488623	keystroke_a	a	n/a
244.5665	0.03	489133	keystroke_r	r	n/a
244.7015	0.09	489403	keystroke_g	g	n/a
244.8365	0.1195	489673	keystroke_e	e	n/a
245.061	0.105	490122	keystroke_s	s	n/a
248.454	0.012	496908	keystroke_Key.backspace	Key.backspace	n/a
248.7205	0.075	497441	keystroke_r	r	n/a
248.9305	0.075	497861	keystroke_s	s	n/a
249.6205	0.075	499241	keystroke_Key.enter	Key.enter	n/a
249.7025	26.3475	499405	prompt	n/a	changed hierarchy expectations paintball\n
250.6405	0.075	501281	keystroke_c	c	n/a
250.7755	0.09	501551	keystroke_h	h	n/a
250.9855	0.15	501971	keystroke_a	a	n/a
251.1805	0.075	502361	keystroke_n	n	n/a
251.3155	0.105	502631	keystroke_g	g	n/a
251.4505	0.09	502901	keystroke_e	e	n/a
251.6605	0.09	503321	keystroke_d	d	n/a
251.81	0.075	503620	keystroke_Key.space	Key.space	n/a
252.17	0.06	504340	keystroke_h	h	n/a
252.365	0.075	504730	keystroke_e	e	n/a
252.56	0.075	505120	keystroke_i	i	n/a
252.875	0.06	505750	keystroke_Key.backspace	Key.backspace	n/a
253.01	0.06	506020	keystroke_Key.backspace	Key.backspace	n/a
253.2505	0.075	506501	keystroke_i	i	n/a
253.475	0.135	506950	keystroke_e	e	n/a
254.54	0.165	509080	keystroke_a	a	n/a
254.84	0.105	509680	keystroke_r	r	n/a
255.755	0.09	511510	keystroke_c	c	n/a
255.935	0.09	511870	keystroke_h	h	n/a
256.16	0.075	512320	keystroke_y	y	n/a
256.475	0.06	512950	keystroke_Key.space	Key.space	n/a
259.0875	0.027	518175	keystroke_Key.backspace	Key.backspace	n/a
259.2045	0.06	518409	keystroke_Key.backspace	Key.backspace	n/a
259.3695	0.06	518739	keystroke_Key.backspace	Key.backspace	n/a
259.5495	0.03	519099	keystroke_Key.backspace	Key.backspace	n/a
259.6845	0.075	519369	keystroke_Key.backspace	Key.backspace	n/a
261.3045	0.075	522609	keystroke_Key.backspace	Key.backspace	n/a
261.9795	0.075	523959	keystroke_r	r	n/a
262.4295	0.105	524859	keystroke_a	a	n/a
262.6545	0.105	525309	keystroke_r	r	n/a
263.014	0.075	526028	keystroke_c	c	n/a
263.239	0.09	526478	keystroke_h	h	n/a
264.649	0.06	529298	keystroke_y	y	n/a
264.994	0.06	529988	keystroke_Key.space	Key.space	n/a
265.609	0.075	531218	keystroke_e	e	n/a
265.864	0.15	531728	keystroke_x	x	n/a
266.134	0.09	532268	keystroke_p	p	n/a
266.3585	0.075	532717	keystroke_e	e	n/a
266.539	0.105	533078	keystroke_c	c	n/a
266.809	0.075	533618	keystroke_t	t	n/a
266.914	0.1195	533828	keystroke_i	i	n/a
267.0485	0.12	534097	keystroke_o	o	n/a
267.1085	0.105	534217	keystroke_n	n	n/a
267.2885	0.09	534577	keystroke_s	s	n/a
267.4385	0.075	534877	keystroke_Key.space	Key.space	n/a
268.8035	0.075	537607	keystroke_Key.backspace	Key.backspace	n/a
268.9835	0.06	537967	keystroke_Key.backspace	Key.backspace	n/a
269.1635	0.06	538327	keystroke_Key.backspace	Key.backspace	n/a
269.7035	0.075	539407	keystroke_Key.backspace	Key.backspace	n/a
269.8985	0.06	539797	keystroke_Key.backspace	Key.backspace	n/a
270.0785	0.06	540157	keystroke_Key.backspace	Key.backspace	n/a
271.863	0.12	543726	keystroke_t	t	n/a
272.148	0.105	544296	keystroke_a	a	n/a
272.403	0.075	544806	keystroke_t	t	n/a
272.493	0.1195	544986	keystroke_i	i	n/a
272.6425	0.105	545285	keystroke_o	o	n/a
272.7025	0.075	545405	keystroke_n	n	n/a
272.9725	0.015	545945	keystroke_s	s	n/a
273.0475	0.06	546095	keystroke_Key.space	Key.space	n/a
273.5575	0.09	547115	keystroke_p	p	n/a
273.7225	0.12	547445	keystroke_a	a	n/a
273.8575	0.105	547715	keystroke_i	i	n/a
274.0075	0.045	548015	keystroke_n	n	n/a
274.2175	0.075	548435	keystroke_t	t	n/a
274.4575	0.075	548915	keystroke_b	b	n/a
274.7125	0.075	549425	keystroke_a	a	n/a
274.8925	0.06	549785	keystroke_l	l	n/a
275.0125	0.075	550025	keystroke_l	l	n/a
275.972	0.0755	551944	keystroke_Key.enter	Key.enter	n/a
276.057	23.0765	552114	prompt	n/a	locked blink puerto acquire\n
276.7675	0.09	553535	keystroke_l	l	n/a
277.0225	0.0895	554045	keystroke_o	o	n/a
277.232	0.105	554464	keystroke_c	c	n/a
277.352	0.075	554704	keystroke_k	k	n/a
277.532	0.075	555064	keystroke_e	e	n/a
277.742	0.09	555484	keystroke_d	d	n/a
277.892	0.09	555784	keystroke_Key.space	Key.space	n/a
278.177	0.09	556354	keystroke_b	b	n/a
278.357	0.12	556714	keystroke_l	l	n/a
278.552	0.09	557104	keystroke_i	i	n/a
278.702	0.105	557404	keystroke_n	n	n/a
278.852	0.105	557704	keystroke_k	k	n/a
279.032	0.09	558064	keystroke_Key.space	Key.space	n/a
279.542	0.075	559084	keystroke_p	p	n/a
279.872	0.06	559744	keystroke_u	u	n/a
280.217	0.135	560434	keystroke_e	e	n/a
280.322	0.105	560644	keystroke_r	r	n/a
280.577	0.045	561154	keystroke_t	t	n/a
280.832	0.075	561664	keystroke_o	o	n/a
281.072	0.075	562144	keystroke_Key.space	Key.space	n/a
281.627	0.09	563254	keystroke_a	a	n/a
281.777	0.105	563554	keystroke_c	c	n/a
282.917	0.09	565834	keystroke_q	q	n/a
283.097	0.075	566194	keystroke_u	u	n/a
283.622	0.075	567244	keystroke_i	i	n/a
283.772	0.1205	567544	keystroke_r	r	n/a
283.832	0.105	567664	keystroke_e	e	n/a
299.119	0.012	598238	keystroke_Key.enter	Key.enter	n/a
299.139	12.2775	598278	prompt	n/a	owned catholic judicial solid\n
300.601	0.12	601202	keystroke_o	o	n/a
300.751	0.105	601502	keystroke_w	w	n/a
300.886	0.09	601772	keystroke_n	n	n/a
301.126	0.075	602252	keystroke_e	e	n/a
301.306	0.12	602612	keystroke_d	d	n/a
301.8455	0.09	603691	keystroke_Key.space	Key.space	n/a
302.1755	0.09	604351	keystroke_c	c	n/a
302.5655	0.12	605131	keystroke_a	a	n/a
302.8655	0.045	605731	keystroke_t	t	n/a
302.9705	0.075	605941	keystroke_h	h	n/a
303.4655	0.075	606931	keystroke_o	o	n/a
303.6455	0.105	607291	keystroke_l	l	n/a
303.8555	0.075	607711	keystroke_i	i	n/a
304.0355	0.09	608071	keystroke_c	c	n/a
304.1855	0.075	608371	keystroke_Key.space	Key.space	n/a
304.6055	0.075	609211	keystroke_j	j	n/a
304.7855	0.075	609571	keystroke_u	u	n/a
305.97	0.075	611940	keystroke_d	d	n/a
306.135	0.075	612270	keystroke_i	i	n/a
306.75	0.12	613500	keystroke_c	c	n/a
306.945	0.075	613890	keystroke_i	i	n/a
307.125	0.075	614250	keystroke_a	a	n/a
307.215	0.105	614430	keystroke_l	l	n/a
307.395	0.075	614790	keystroke_Key.space	Key.space	n/a
307.89	0.075	615780	keystroke_s	s	n/a
308.01	0.075	616020	keystroke_o	o	n/a
308.16	0.09	616320	keystroke_l	l	n/a
308.385	0.075	616770	keystroke_i	i	n/a
308.625	0.075	617250	keystroke_d	d	n/a
308.79	0.06	617580	keystroke_Key.space	Key.space	n/a
310.335	0.06	620670	keystroke_Key.backspace	Key.backspace	n/a
311.34	0.075	622680	keystroke_Key.enter	Key.enter	n/a
311.4205	18.01	622841	prompt	n/a	sunglasses grammar danger reservations\n
312.435	0.105	624870	keystroke_s	s	n/a
312.555	0.075	625110	keystroke_u	u	n/a
312.87	0.105	625740	keystroke_n	n	n/a
313.17	0.075	626340	keystroke_g	g	n/a
313.9045	0.09	627809	keystroke_l	l	n/a
314.2345	0.105	628469	keystroke_a	a	n/a
314.7145	0.09	629429	keystroke_s	s	n/a
314.9245	0.09	629849	keystroke_s	s	n/a
315.2695	0.06	630539	keystroke_e	e	n/a
315.4345	0.09	630869	keystroke_s	s	n/a
315.7045	0.09	631409	keystroke_Key.space	Key.space	n/a
316.3645	0.075	632729	keystroke_g	g	n/a
316.6345	0.09	633269	keystroke_r	r	n/a
323.432	0.001	646864	keystroke_a	a	n/a
323.564	0.06	647128	keystroke_m	m	n/a
323.684	0.075	647368	keystroke_m	m	n/a
323.879	0.09	647758	keystroke_a	a	n/a
324.089	0.075	648178	keystroke_r	r	n/a
324.254	0.075	648508	keystroke_Key.space	Key.space	n/a
324.809	0.105	649618	keystroke_d	d	n/a
324.975	0.089	649950	keystroke_a	a	n/a
325.154	0.09	650308	keystroke_n	n	n/a
325.364	0.075	650728	keystroke_g	g	n/a
325.559	0.121	651118	keystroke_e	e	n/a
325.604	0.09	651208	keystroke_r	r	n/a
325.799	0.09	651598	keystroke_Key.space	Key.space	n/a
326.114	0.105	652228	keystroke_r	r	n/a
326.174	0.09	652348	keystroke_e	e	n/a
326.414	0.091	652828	keystroke_s	s	n/a
326.624	0.15	653248	keystroke_e	e	n/a
326.954	0.06	653908	keystroke_r	r	n/a
327.224	0.105	654448	keystroke_v	v	n/a
327.4335	0.12	654867	keystroke_a	a	n/a
327.6135	0.105	655227	keystroke_t	t	n/a
327.7485	0.135	655497	keystroke_i	i	n/a
327.8535	0.135	655707	keystroke_o	o	n/a
327.9285	0.12	655857	keystroke_n	n	n/a
328.1545	0.074	656309	keystroke_s	s	n/a
328.3185	0.03	656637	keystroke_Key.space	Key.space	n/a
329.1135	0.075	658227	keystroke_Key.backspace	Key.backspace	n/a
329.3685	0.06	658737	keystroke_Key.enter	Key.enter	n/a
329.435	13.5105	658870	prompt	n/a	insulin sets district audi\n
330.3285	0.105	660657	keystroke_i	i	n/a
330.5385	0.06	661077	keystroke_n	n	n/a
331.0485	0.075	662097	keystroke_s	s	n/a
331.2295	0.059	662459	keystroke_u	u	n/a
331.4085	0.075	662817	keystroke_l	l	n/a
331.5435	0.15	663087	keystroke_i	i	n/a
331.6785	0.075	663357	keystroke_n	n	n/a
331.8585	0.075	663717	keystroke_Key.space	Key.space	n/a
332.2185	0.09	664437	keystroke_s	s	n/a
332.5485	0.105	665097	keystroke_e	e	n/a
332.7435	0.105	665487	keystroke_t	t	n/a
332.9535	0.09	665907	keystroke_s	s	n/a
333.1035	0.075	666207	keystroke_Key.space	Key.space	n/a
333.4185	0.091	666837	keystroke_d	d	n/a
333.6285	0.075	667257	keystroke_e	e	n/a
333.8245	0.075	667649	keystroke_i	i	n/a
334.5735	0.06	669147	keystroke_Key.backspace	Key.backspace	n/a
334.6935	0.075	669387	keystroke_Key.backspace	Key.backspace	n/a
334.9185	0.09	669837	keystroke_i	i	n/a
335.1435	0.09	670287	keystroke_s	s	n/a
335.3235	0.075	670647	keystroke_t	t	n/a
335.5035	0.03	671007	keystroke_r	r	n/a
335.6235	0.075	671247	keystroke_i	i	n/a
336.2085	0.075	672417	keystroke_c	c	n/a
336.4485	0.075	672897	keystroke_t	t	n/a
336.6285	0.06	673257	keystroke_Key.space	Key.space	n/a
337.1985	0.135	674397	keystroke_a	a	n/a
337.5435	0.06	675087	keystroke_u	u	n/a
338.1285	0.09	676257	keystroke_d	d	n/a
338.3385	0.075	676677	keystroke_i	i	n/a
342.932	0.011	685864	keystroke_Key.enter	Key.enter	n/a
342.9495	11.0195	685899	prompt	n/a	calculator quality considered commands\n
343.783	0.091	687566	keystroke_c	c	n/a
344.234	0.074	688468	keystroke_a	a	n/a
344.459	0.104	688918	keystroke_l	l	n/a
344.684	0.104	689368	keystroke_c	c	n/a
344.833	0.091	689666	keystroke_u	u	n/a
345.074	0.09	690148	keystroke_l	l	n/a
345.194	0.12	690388	keystroke_a	a	n/a
345.764	0.075	691528	keystroke_t	t	n/a
345.899	0.105	691798	keystroke_o	o	n/a
346.034	0.075	692068	keystroke_r	r	n/a
346.378	0.075	692756	keystroke_Key.space	Key.space	n/a
346.769	0.09	693538	keystroke_q	q	n/a
346.949	0.09	693898	keystroke_u	u	n/a
347.159	0.105	694318	keystroke_a	a	n/a
347.324	0.09	694648	keystroke_l	l	n/a
347.488	0.091	694976	keystroke_i	i	n/a
347.638	0.076	695276	keystroke_t	t	n/a
347.758	0.076	695516	keystroke_y	y	n/a
347.998	0.075	695996	keystroke_Key.space	Key.space	n/a
348.358	0.075	696716	keystroke_c	c	n/a
348.524	0.105	697048	keystroke_o	o	n/a
348.598	0.105	697196	keystroke_n	n	n/a
349.394	0.075	698788	keystroke_s	s	n/a
349.573	0.076	699146	keystroke_i	i	n/a
349.694	0.075	699388	keystroke_d	d	n/a
350.578	0.091	701156	keystroke_e	e	n/a
350.699	0.135	701398	keystroke_r	r	n/a
350.803	0.135	701606	keystroke_e	e	n/a
351.0735	0.12	702147	keystroke_d	d	n/a
351.3285	0.044	702657	keystroke_Key.space	Key.space	n/a
352.2435	0.075	704487	keystroke_c	c	n/a
352.3775	0.106	704755	keystroke_o	o	n/a
352.6185	0.044	705237	keystroke_m	m	n/a
352.738	0.075	705476	keystroke_m	m	n/a
352.887	0.106	705774	keystroke_a	a	n/a
352.978	0.075	705956	keystroke_n	n	n/a
353.098	0.15	706196	keystroke_d	d	n/a
353.232	0.1205	706464	keystroke_s	s	n/a
353.906	0.061	707812	keystroke_Key.enter	Key.enter	n/a
353.974	13.35	707948	prompt	n/a	howard realize expectations effectively\n
354.7465	0.06	709493	keystroke_h	h	n/a
354.956	0.09	709912	keystroke_o	o	n/a
355.106	0.105	710212	keystroke_w	w	n/a
355.6155	0.105	711231	keystroke_a	a	n/a
355.7955	0.1045	711591	keystroke_r	r	n/a
356.05	0.105	712100	keystroke_d	d	n/a
356.244	0.076	712488	keystroke_Key.space	Key.space	n/a
356.5745	0.105	713149	keystroke_r	r	n/a
356.6345	0.105	713269	keystroke_e	e	n/a
357.128	0.045	714256	keystroke_Key.backspace	Key.backspace	n/a
358.793	0.1045	717586	keystroke_e	e	n/a
359.0175	0.09	718035	keystroke_a	a	n/a
359.3175	0.0745	718635	keystroke_l	l	n/a
359.497	0.075	718994	keystroke_i	i	n/a
359.647	0.12	719294	keystroke_z	z	n/a
359.857	0.0895	719714	keystroke_e	e	n/a
360.0215	0.09	720043	keystroke_Key.space	Key.space	n/a
360.561	0.09	721122	keystroke_e	e	n/a
360.816	0.12	721632	keystroke_x	x	n/a
361.041	0.0895	722082	keystroke_p	p	n/a
361.2055	0.09	722411	keystroke_e	e	n/a
361.4155	0.105	722831	keystroke_c	c	n/a
361.685	0.09	723370	keystroke_t	t	n/a
362.7195	0.12	725439	keystroke_a	a	n/a
362.8545	0.105	725709	keystroke_t	t	n/a
362.9445	0.12	725889	keystroke_i	i	n/a
363.0345	0.1345	726069	keystroke_o	o	n/a
363.094	0.105	726188	keystroke_n	n	n/a
363.304	0.075	726608	keystroke_s	s	n/a
363.454	0.075	726908	keystroke_Key.space	Key.space	n/a
363.8885	0.06	727777	keystroke_e	e	n/a
364.1435	0.06	728287	keystroke_f	f	n/a
364.2635	0.06	728527	keystroke_f	f	n/a
364.383	0.105	728766	keystroke_e	e	n/a
364.653	0.045	729306	keystroke_c	c	n/a
365.3425	0.045	730685	keystroke_t	t	n/a
365.6125	0.075	731225	keystroke_i	i	n/a
365.8675	0.075	731735	keystroke_v	v	n/a
366.1825	0.06	732365	keystroke_e	e	n/a
366.4075	0.075	732815	keystroke_l	l	n/a
366.6025	0.06	733205	keystroke_y	y	n/a
367.2625	0.06	734525	keystroke_Key.enter	Key.enter	n/a
367.331	7.133	734662	prompt	n/a	appeared battle actress donors\n
368.042	0.075	736084	keystroke_a	a	n/a
368.2225	0.075	736445	keystroke_p	p	n/a
368.3725	0.0745	736745	keystroke_p	p	n/a
368.537	0.1205	737074	keystroke_e	e	n/a
368.8075	0.1195	737615	keystroke_a	a	n/a
369.062	0.0905	738124	keystroke_r	r	n/a
369.2575	0.075	738515	keystroke_e	e	n/a
369.437	0.105	738874	keystroke_d	d	n/a
369.587	0.1055	739174	keystroke_Key.space	Key.space	n/a
369.842	0.09	739684	keystroke_b	b	n/a
370.007	0.09	740014	keystroke_a	a	n/a
370.217	0.0605	740434	keystroke_t	t	n/a
370.3375	0.06	740675	keystroke_t	t	n/a
370.457	0.09	740914	keystroke_l	l	n/a
370.562	0.075	741124	keystroke_e	e	n/a
370.667	0.09	741334	keystroke_Key.space	Key.space	n/a
370.9225	0.09	741845	keystroke_a	a	n/a
371.0275	0.12	742055	keystroke_c	c	n/a
371.282	0.105	742564	keystroke_t	t	n/a
371.5075	0.12	743015	keystroke_r	r	n/a
371.792	0.075	743584	keystroke_e	e	n/a
372.1225	0.045	744245	keystroke_s	s	n/a
372.2425	0.06	744485	keystroke_s	s	n/a
372.3775	0.0745	744755	keystroke_Key.space	Key.space	n/a
372.7225	0.075	745445	keystroke_d	d	n/a
372.9325	0.1805	745865	keystroke_o	o	n/a
373.098	0.1195	746196	keystroke_n	n	n/a
373.3975	0.105	746795	keystroke_o	o	n/a
373.5625	0.12	747125	keystroke_r	r	n/a
373.8025	0.075	747605	keystroke_s	s	n/a
374.4025	0.06	748805	keystroke_Key.enter	Key.enter	n/a
374.4705	10.9595	748941	prompt	n/a	houston tech projects resulted\n
375.3325	0.075	750665	keystroke_h	h	n/a
375.5575	0.135	751115	keystroke_o	o	n/a
375.6025	0.135	751205	keystroke_u	u	n/a
375.8575	0.075	751715	keystroke_s	s	n/a
376.0225	0.15	752045	keystroke_o	o	n/a
376.1125	0.09	752225	keystroke_n	n	n/a
376.3675	0.075	752735	keystroke_Key.space	Key.space	n/a
376.9525	0.135	753905	keystroke_t	t	n/a
377.0725	0.105	754145	keystroke_e	e	n/a
377.6575	0.075	755315	keystroke_Key.backspace	Key.backspace	n/a
377.8075	0.075	755615	keystroke_Key.backspace	Key.backspace	n/a
377.9725	0.06	755945	keystroke_Key.backspace	Key.backspace	n/a
378.1225	0.045	756245	keystroke_Key.backspace	Key.backspace	n/a
378.7675	0.06	757535	keystroke_Key.backspace	Key.backspace	n/a
378.9325	0.105	757865	keystroke_t	t	n/a
379.0525	0.12	758105	keystroke_o	o	n/a
379.1425	0.09	758285	keystroke_n	n	n/a
379.3975	0.06	758795	keystroke_Key.space	Key.space	n/a
380.3875	0.12	760775	keystroke_t	t	n/a
380.5525	0.105	761105	keystroke_e	e	n/a
380.7925	0.12	761585	keystroke_c	c	n/a
381.0175	0.06	762035	keystroke_h	h	n/a
381.1975	0.09	762395	keystroke_Key.space	Key.space	n/a
381.5575	0.09	763115	keystroke_p	p	n/a
381.7525	0.09	763505	keystroke_r	r	n/a
381.9025	0.09	763805	keystroke_o	o	n/a
382.2625	0.075	764525	keystroke_j	j	n/a
382.3975	0.06	764795	keystroke_e	e	n/a
382.5475	0.105	765095	keystroke_c	c	n/a
382.7875	0.09	765575	keystroke_t	t	n/a
382.9825	0.075	765965	keystroke_s	s	n/a
383.1025	0.09	766205	keystroke_Key.space	Key.space	n/a
383.4475	0.105	766895	keystroke_r	r	n/a
383.4925	0.105	766985	keystroke_e	e	n/a
383.7925	0.09	767585	keystroke_s	s	n/a
383.9725	0.06	767945	keystroke_u	u	n/a
384.1375	0.09	768275	keystroke_l	l	n/a
384.2725	0.135	768545	keystroke_t	t	n/a
384.3925	0.105	768785	keystroke_e	e	n/a
384.6175	0.105	769235	keystroke_d	d	n/a
385.3675	0.06	770735	keystroke_Key.enter	Key.enter	n/a
385.435	14.3085	770870	prompt	n/a	pediatric reserve kyle metallica\n
386.1475	0.09	772295	keystroke_p	p	n/a
386.4325	0.09	772865	keystroke_e	e	n/a
387.0625	0.075	774125	keystroke_d	d	n/a
387.2275	0.075	774455	keystroke_i	i	n/a
387.4975	0.105	774995	keystroke_a	a	n/a
387.7675	0.09	775535	keystroke_t	t	n/a
388.4575	0.075	776915	keystroke_r	r	n/a
388.652	0.0905	777304	keystroke_i	i	n/a
389.2675	0.075	778535	keystroke_c	c	n/a
389.537	0.06	779074	keystroke_Key.space	Key.space	n/a
390.017	0.105	780034	keystroke_r	r	n/a
390.047	0.105	780094	keystroke_e	e	n/a
390.2725	0.105	780545	keystroke_s	s	n/a
390.5875	0.1345	781175	keystroke_r	r	n/a
391.262	0.09	782524	keystroke_Key.backspace	Key.backspace	n/a
391.397	0.136	782794	keystroke_e	e	n/a
391.472	0.105	782944	keystroke_r	r	n/a
391.712	0.1055	783424	keystroke_v	v	n/a
391.922	0.091	783844	keystroke_e	e	n/a
392.208	0.059	784416	keystroke_Key.space	Key.space	n/a
392.703	0.075	785406	keystroke_k	k	n/a
392.927	0.061	785854	keystroke_y	y	n/a
393.122	0.091	786244	keystroke_l	l	n/a
393.272	0.0895	786544	keystroke_e	e	n/a
393.4215	0.0605	786843	keystroke_Key.space	Key.space	n/a
394.037	0.076	788074	keystroke_m	m	n/a
394.203	0.119	788406	keystroke_e	e	n/a
394.397	0.106	788794	keystroke_t	t	n/a
395.058	0.074	790116	keystroke_a	a	n/a
395.402	0.046	790804	keystroke_l	l	n/a
395.523	0.06	791046	keystroke_l	l	n/a
395.687	0.075	791374	keystroke_i	i	n/a
395.8525	0.09	791705	keystroke_c	c	n/a
396.032	0.12	792064	keystroke_a	a	n/a
399.741	0	799482	keystroke_Key.enter	Key.enter	n/a
399.7485	12.036	799497	prompt	n/a	tours outdoor username corp\n
400.668	0.074	801336	keystroke_t	t	n/a
400.8165	0.166	801633	keystroke_o	o	n/a
400.9075	0.12	801815	keystroke_u	u	n/a
401.072	0.075	802144	keystroke_r	r	n/a
401.253	0.075	802506	keystroke_s	s	n/a
401.342	0.09	802684	keystroke_Key.space	Key.space	n/a
401.672	0.15	803344	keystroke_o	o	n/a
401.733	0.1045	803466	keystroke_u	u	n/a
401.8825	0.075	803765	keystroke_t	t	n/a
402.138	0.104	804276	keystroke_d	d	n/a
402.5125	0.06	805025	keystroke_o	o	n/a
402.6475	0.0755	805295	keystroke_o	o	n/a
402.843	0.06	805686	keystroke_r	r	n/a
402.963	0.089	805926	keystroke_Key.space	Key.space	n/a
403.248	0.09	806496	keystroke_u	u	n/a
403.458	0.09	806916	keystroke_s	s	n/a
403.593	0.12	807186	keystroke_e	e	n/a
403.638	0.09	807276	keystroke_r	r	n/a
403.998	0.074	807996	keystroke_b	b	n/a
404.1925	0.1055	808385	keystroke_a	a	n/a
404.328	0.075	808656	keystroke_m	m	n/a
404.447	0.106	808894	keystroke_e	e	n/a
404.822	0.06	809644	keystroke_Key.backspace	Key.backspace	n/a
404.972	0.06	809944	keystroke_Key.backspace	Key.backspace	n/a
405.122	0.045	810244	keystroke_Key.backspace	Key.backspace	n/a
405.258	0.074	810516	keystroke_Key.backspace	Key.backspace	n/a
405.588	0.045	811176	keystroke_b	b	n/a
405.858	0.075	811716	keystroke_a	a	n/a
406.113	0.06	812226	keystroke_Key.backspace	Key.backspace	n/a
406.248	0.089	812496	keystroke_Key.backspace	Key.backspace	n/a
407.058	0.06	814116	keystroke_n	n	n/a
407.208	0.09	814416	keystroke_a	a	n/a
407.313	0.06	814626	keystroke_m	m	n/a
407.418	0.075	814836	keystroke_e	e	n/a
407.613	0.075	815226	keystroke_Key.space	Key.space	n/a
408.603	0.09	817206	keystroke_c	c	n/a
408.843	0.075	817686	keystroke_o	o	n/a
409.488	0.029	818976	keystroke_r	r	n/a
409.743	0.015	819486	keystroke_o	o	n/a
410.718	0.045	821436	keystroke_Key.backspace	Key.backspace	n/a
411.378	0.06	822756	keystroke_p	p	n/a
411.723	0.06	823446	keystroke_Key.enter	Key.enter	n/a
411.7895	6.8045	823579	prompt	n/a	explaining use twice knit\n
412.533	0.09	825066	keystroke_e	e	n/a
412.968	0.09	825936	keystroke_x	x	n/a
413.208	0.075	826416	keystroke_p	p	n/a
413.403	0.09	826806	keystroke_l	l	n/a
413.538	0.075	827076	keystroke_a	a	n/a
413.688	0.12	827376	keystroke_i	i	n/a
413.809	0.089	827618	keystroke_n	n	n/a
413.973	0.12	827946	keystroke_i	i	n/a
414.078	0.09	828156	keystroke_n	n	n/a
414.198	0.075	828396	keystroke_g	g	n/a
414.318	0.09	828636	keystroke_Key.space	Key.space	n/a
414.603	0.075	829206	keystroke_u	u	n/a
414.693	0.135	829386	keystroke_s	s	n/a
414.813	0.09	829626	keystroke_e	e	n/a
414.948	0.1045	829896	keystroke_Key.space	Key.space	n/a
415.398	0.0745	830796	keystroke_t	t	n/a
415.6825	0.06	831365	keystroke_w	w	n/a
415.9525	0.075	831905	keystroke_i	i	n/a
416.2525	0.15	832505	keystroke_c	c	n/a
416.3875	0.12	832775	keystroke_e	e	n/a
416.868	0.075	833736	keystroke_Key.space	Key.space	n/a
417.0625	0.09	834125	keystroke_k	k	n/a
417.408	0.075	834816	keystroke_n	n	n/a
417.618	0.075	835236	keystroke_i	i	n/a
417.8725	0.09	835745	keystroke_t	t	n/a
418.5325	0.06	837065	keystroke_Key.enter	Key.enter	n/a
418.598	8.5025	837196	prompt	n/a	goal simpsons grants nutrition\n
419.5375	0.06	839075	keystroke_g	g	n/a
419.7325	0.09	839465	keystroke_o	o	n/a
419.9875	0.09	839975	keystroke_a	a	n/a
420.1075	0.09	840215	keystroke_l	l	n/a
420.2875	0.09	840575	keystroke_Key.space	Key.space	n/a
420.6025	0.075	841205	keystroke_s	s	n/a
420.6925	0.12	841385	keystroke_i	i	n/a
420.8275	0.12	841655	keystroke_m	m	n/a
420.9625	0.09	841925	keystroke_p	p	n/a
421.1875	0.075	842375	keystroke_s	s	n/a
421.3675	0.165	842735	keystroke_o	o	n/a
421.5025	0.105	843005	keystroke_n	n	n/a
421.7575	0.075	843515	keystroke_Key.space	Key.space	n/a
422.2375	0.09	844475	keystroke_g	g	n/a
422.4475	0.09	844895	keystroke_r	r	n/a
422.6575	0.075	845315	keystroke_a	a	n/a
422.7475	0.09	845495	keystroke_n	n	n/a
423.3025	0.09	846605	keystroke_t	t	n/a
423.5275	0.09	847055	keystroke_s	s	n/a
423.7825	0.075	847565	keystroke_Key.space	Key.space	n/a
424.5175	0.075	849035	keystroke_n	n	n/a
424.7725	0.06	849545	keystroke_u	u	n/a
425.0425	0.0755	850085	keystroke_t	t	n/a
425.253	0.075	850506	keystroke_r	r	n/a
425.388	0.075	850776	keystroke_i	i	n/a
425.583	0.09	851166	keystroke_t	t	n/a
425.643	0.15	851286	keystroke_i	i	n/a
425.763	0.15	851526	keystroke_o	o	n/a
425.868	0.0895	851736	keystroke_n	n	n/a
427.0225	0.075	854045	keystroke_Key.enter	Key.enter	n/a
427.106	13.87	854212	prompt	n/a	natural greensboro reproductive toward\n
428.1175	0.06	856235	keystroke_b	b	n/a
428.3425	0.135	856685	keystroke_a	a	n/a
429.0325	0.075	858065	keystroke_Key.backspace	Key.backspace	n/a
429.1975	0.075	858395	keystroke_Key.backspace	Key.backspace	n/a
430.3075	0.075	860615	keystroke_n	n	n/a
430.4875	0.12	860975	keystroke_a	a	n/a
430.8775	0.06	861755	keystroke_t	t	n/a
431.0275	0.09	862055	keystroke_u	u	n/a
432.0325	0.09	864065	keystroke_r	r	n/a
432.2575	0.09	864515	keystroke_a	a	n/a
432.3925	0.09	864785	keystroke_l	l	n/a
432.5575	0.105	865115	keystroke_Key.space	Key.space	n/a
432.8875	0.06	865775	keystroke_g	g	n/a
433.0675	0.105	866135	keystroke_r	r	n/a
433.5925	0.075	867185	keystroke_e	e	n/a
433.7575	0.06	867515	keystroke_e	e	n/a
433.9375	0.09	867875	keystroke_n	n	n/a
434.2225	0.075	868445	keystroke_s	s	n/a
434.4775	0.075	868955	keystroke_b	b	n/a
434.6425	0.105	869285	keystroke_o	o	n/a
434.8675	0.06	869735	keystroke_r	r	n/a
434.9575	0.09	869915	keystroke_o	o	n/a
435.1975	0.09	870395	keystroke_Key.space	Key.space	n/a
435.6025	0.12	871205	keystroke_r	r	n/a
435.6625	0.12	871325	keystroke_e	e	n/a
436.2925	0.06	872585	keystroke_p	p	n/a
436.9975	0.06	873995	keystroke_r	r	n/a
437.1325	0.09	874265	keystroke_o	o	n/a
437.4925	0.075	874985	keystroke_d	d	n/a
437.6875	0.075	875375	keystroke_u	u	n/a
438.0025	0.09	876005	keystroke_c	c	n/a
438.2725	0.09	876545	keystroke_t	t	n/a
438.4075	0.105	876815	keystroke_i	i	n/a
438.5725	0.12	877145	keystroke_v	v	n/a
438.7225	0.0905	877445	keystroke_e	e	n/a
438.828	0.075	877656	keystroke_Key.space	Key.space	n/a
439.113	0.09	878226	keystroke_t	t	n/a
439.218	0.09	878436	keystroke_o	o	n/a
439.473	0.105	878946	keystroke_w	w	n/a
439.698	0.12	879396	keystroke_a	a	n/a
439.878	0.105	879756	keystroke_r	r	n/a
440.193	0.075	880386	keystroke_d	d	n/a
440.913	0.06	881826	keystroke_Key.enter	Key.enter	n/a
440.9795	6.8505	881959	prompt	n/a	reported mission answer tions\n
441.723	0.12	883446	keystroke_r	r	n/a
441.783	0.105	883566	keystroke_e	e	n/a
442.053	0.075	884106	keystroke_p	p	n/a
442.233	0.09	884466	keystroke_o	o	n/a
442.338	0.075	884676	keystroke_r	r	n/a
442.518	0.075	885036	keystroke_t	t	n/a
442.638	0.105	885276	keystroke_e	e	n/a
442.848	0.09	885696	keystroke_d	d	n/a
442.953	0.0745	885906	keystroke_Key.space	Key.space	n/a
443.1775	0.075	886355	keystroke_m	m	n/a
443.3725	0.09	886745	keystroke_i	i	n/a
443.5375	0.075	887075	keystroke_s	s	n/a
443.6875	0.075	887375	keystroke_s	s	n/a
443.7475	0.15	887495	keystroke_i	i	n/a
443.9125	0.12	887825	keystroke_o	o	n/a
443.9575	0.09	887915	keystroke_n	n	n/a
444.1675	0.06	888335	keystroke_Key.space	Key.space	n/a
444.4675	0.09	888935	keystroke_a	a	n/a
444.5875	0.09	889175	keystroke_n	n	n/a
444.7375	0.09	889475	keystroke_s	s	n/a
444.9775	0.135	889955	keystroke_w	w	n/a
445.0975	0.12	890195	keystroke_e	e	n/a
445.1725	0.09	890345	keystroke_r	r	n/a
445.5625	0.06	891125	keystroke_Key.space	Key.space	n/a
446.1475	0.075	892295	keystroke_t	t	n/a
446.2675	0.12	892535	keystroke_i	i	n/a
446.4325	0.15	892865	keystroke_o	o	n/a
446.5225	0.105	893045	keystroke_n	n	n/a
446.7625	0.075	893525	keystroke_s	s	n/a
447.7675	0.06	895535	keystroke_Key.enter	Key.enter	n/a
447.836	8.0785	895672	prompt	n/a	relief quite graphs combining\n
448.4575	0.105	896915	keystroke_r	r	n/a
448.5175	0.105	897035	keystroke_e	e	n/a
448.7725	0.09	897545	keystroke_l	l	n/a
448.9375	0.09	897875	keystroke_i	i	n/a
449.0425	0.075	898085	keystroke_e	e	n/a
449.1925	0.105	898385	keystroke_v	v	n/a
449.6875	0.075	899375	keystroke_Key.backspace	Key.backspace	n/a
449.7925	0.075	899585	keystroke_f	f	n/a
450.0475	0.075	900095	keystroke_Key.space	Key.space	n/a
450.9475	0.09	901895	keystroke_q	q	n/a
451.098	0.0745	902196	keystroke_u	u	n/a
451.2325	0.12	902465	keystroke_i	i	n/a
451.4575	0.105	902915	keystroke_t	t	n/a
451.6225	0.0895	903245	keystroke_e	e	n/a
451.772	0.0905	903544	keystroke_Key.space	Key.space	n/a
452.1175	0.075	904235	keystroke_g	g	n/a
452.3125	0.09	904625	keystroke_r	r	n/a
452.5375	0.09	905075	keystroke_a	a	n/a
452.7175	0.075	905435	keystroke_p	p	n/a
452.8975	0.075	905795	keystroke_h	h	n/a
453.1075	0.09	906215	keystroke_s	s	n/a
453.6025	0.06	907205	keystroke_Key.space	Key.space	n/a
453.9625	0.075	907925	keystroke_c	c	n/a
454.0675	0.135	908135	keystroke_o	o	n/a
454.1875	0.06	908375	keystroke_m	m	n/a
454.3975	0.09	908795	keystroke_b	b	n/a
454.5775	0.09	909155	keystroke_i	i	n/a
454.7125	0.105	909425	keystroke_n	n	n/a
454.9075	0.09	909815	keystroke_i	i	n/a
454.9525	0.135	909905	keystroke_n	n	n/a
455.1325	0.09	910265	keystroke_g	g	n/a
455.852	0.0605	911704	keystroke_Key.enter	Key.enter	n/a
455.9205	8.859	911841	prompt	n/a	steven excitement genre fence\n
456.7075	0.09	913415	keystroke_s	s	n/a
456.9175	0.075	913835	keystroke_t	t	n/a
457.1125	0.075	914225	keystroke_e	e	n/a
457.3075	0.105	914615	keystroke_v	v	n/a
457.4725	0.135	914945	keystroke_e	e	n/a
457.6675	0.075	915335	keystroke_n	n	n/a
457.8475	0.075	915695	keystroke_Key.space	Key.space	n/a
458.1925	0.075	916385	keystroke_e	e	n/a
458.5225	0.075	917045	keystroke_x	x	n/a
458.9275	0.075	917855	keystroke_c	c	n/a
459.1375	0.09	918275	keystroke_i	i	n/a
459.3325	0.075	918665	keystroke_t	t	n/a
459.4375	0.105	918875	keystroke_e	e	n/a
459.6925	0.075	919385	keystroke_m	m	n/a
459.7685	0.119	919537	keystroke_e	e	n/a
459.9475	0.075	919895	keystroke_n	n	n/a
460.0825	0.075	920165	keystroke_t	t	n/a
460.2025	0.075	920405	keystroke_Key.space	Key.space	n/a
460.5775	0.06	921155	keystroke_g	g	n/a
460.9825	0.105	921965	keystroke_e	e	n/a
461.2675	0.075	922535	keystroke_n	n	n/a
461.5675	0.135	923135	keystroke_r	r	n/a
461.6575	0.105	923315	keystroke_e	e	n/a
462.4675	0.075	924935	keystroke_Key.space	Key.space	n/a
463.2325	0.075	926465	keystroke_f	f	n/a
463.4275	0.09	926855	keystroke_e	e	n/a
463.6675	0.075	927335	keystroke_n	n	n/a
463.7725	0.135	927545	keystroke_c	c	n/a
463.8475	0.135	927695	keystroke_e	e	n/a
464.7175	0.06	929435	keystroke_Key.enter	Key.enter	n/a
464.7865	7.5085	929573	prompt	n/a	varying chemistry care exam\n
466.023	0.089	932046	keystroke_v	v	n/a
466.262	0.105	932524	keystroke_a	a	n/a
466.487	0.09	932974	keystroke_r	r	n/a
466.802	0.045	933604	keystroke_y	y	n/a
466.967	0.195	933934	keystroke_i	i	n/a
467.132	0.12	934264	keystroke_n	n	n/a
467.312	0.075	934624	keystroke_g	g	n/a
467.417	0.09	934834	keystroke_Key.space	Key.space	n/a
467.762	0.091	935524	keystroke_c	c	n/a
467.837	0.09	935674	keystroke_h	h	n/a
468.137	0.045	936274	keystroke_e	e	n/a
468.212	0.09	936424	keystroke_m	m	n/a
468.977	0.0905	937954	keystroke_i	i	n/a
469.2325	0.075	938465	keystroke_s	s	n/a
469.3975	0.06	938795	keystroke_t	t	n/a
469.562	0.075	939124	keystroke_r	r	n/a
469.667	0.075	939334	keystroke_y	y	n/a
469.892	0.075	939784	keystroke_Key.space	Key.space	n/a
470.102	0.075	940204	keystroke_c	c	n/a
470.252	0.06	940504	keystroke_a	a	n/a
470.372	0.12	940744	keystroke_r	r	n/a
470.447	0.105	940894	keystroke_e	e	n/a
470.612	0.075	941224	keystroke_Key.space	Key.space	n/a
470.837	0.06	941674	keystroke_e	e	n/a
471.137	0.09	942274	keystroke_x	x	n/a
471.452	0.075	942904	keystroke_a	a	n/a
471.572	0.075	943144	keystroke_m	m	n/a
472.2325	0.06	944465	keystroke_Key.enter	Key.enter	n/a
472.2995	13.69	944599	prompt	n/a	italian contests logitech andorra\n
473.4035	0.074	946807	keystroke_i	i	n/a
473.6425	0.06	947285	keystroke_t	t	n/a
474.0475	0.06	948095	keystroke_a	a	n/a
474.3185	0.074	948637	keystroke_l	l	n/a
474.4975	0.105	948995	keystroke_i	i	n/a
474.9325	0.06	949865	keystroke_a	a	n/a
475.0385	0.059	950077	keystroke_n	n	n/a
475.2775	0.06	950555	keystroke_Key.space	Key.space	n/a
478.326	0.026	956652	keystroke_c	c	n/a
478.367	0.106	956734	keystroke_o	o	n/a
478.473	0.119	956946	keystroke_n	n	n/a
478.682	0.135	957364	keystroke_t	t	n/a
478.847	0.121	957694	keystroke_e	e	n/a
479.073	0.105	958146	keystroke_s	s	n/a
479.192	0.18	958384	keystroke_t	t	n/a
479.733	0.059	959466	keystroke_s	s	n/a
479.957	0.09	959914	keystroke_Key.space	Key.space	n/a
480.243	0.074	960486	keystroke_l	l	n/a
480.422	0.09	960844	keystroke_o	o	n/a
480.662	0.015	961324	keystroke_g	g	n/a
481.052	0.09	962104	keystroke_t	t	n/a
481.203	0.044	962406	keystroke_e	e	n/a
481.832	0.075	963664	keystroke_Key.backspace	Key.backspace	n/a
481.982	0.06	963964	keystroke_Key.backspace	Key.backspace	n/a
482.223	0.075	964446	keystroke_i	i	n/a
482.478	0.105	964956	keystroke_t	t	n/a
482.598	0.074	965196	keystroke_e	e	n/a
482.792	0.09	965584	keystroke_c	c	n/a
482.958	0.075	965916	keystroke_h	h	n/a
483.167	0.075	966334	keystroke_Key.space	Key.space	n/a
483.947	0.12	967894	keystroke_a	a	n/a
484.173	0.074	968346	keystroke_n	n	n/a
484.458	0.104	968916	keystroke_d	d	n/a
484.773	0.075	969546	keystroke_o	o	n/a
485.042	0.046	970084	keystroke_r	r	n/a
485.177	0.06	970354	keystroke_r	r	n/a
485.372	0.091	970744	keystroke_a	a	n/a
485.927	0.061	971854	keystroke_Key.enter	Key.enter	n/a
485.9955	8.0795	971991	prompt	n/a	logic terror melbourne them\n
486.737	0.091	973474	keystroke_l	l	n/a
486.917	0.091	973834	keystroke_o	o	n/a
487.023	0.044	974046	keystroke_g	g	n/a
487.187	0.075	974374	keystroke_i	i	n/a
487.352	0.061	974704	keystroke_c	c	n/a
487.427	0.06	974854	keystroke_Key.space	Key.space	n/a
487.803	0.059	975606	keystroke_t	t	n/a
487.982	0.091	975964	keystroke_r	r	n/a
488.373	0.075	976746	keystroke_Key.backspace	Key.backspace	n/a
488.507	0.106	977014	keystroke_e	e	n/a
488.763	0.059	977526	keystroke_r	r	n/a
488.882	0.061	977764	keystroke_r	r	n/a
489.048	0.105	978096	keystroke_o	o	n/a
489.213	0.06	978426	keystroke_r	r	n/a
489.317	0.09	978634	keystroke_Key.space	Key.space	n/a
489.888	0.06	979776	keystroke_m	m	n/a
490.037	0.075	980074	keystroke_e	e	n/a
490.203	0.089	980406	keystroke_l	l	n/a
490.473	0.075	980946	keystroke_b	b	n/a
490.743	0.15	981486	keystroke_o	o	n/a
490.848	0.089	981696	keystroke_u	u	n/a
491.073	0.089	982146	keystroke_r	r	n/a
491.508	0.075	983016	keystroke_n	n	n/a
491.703	0.09	983406	keystroke_e	e	n/a
492.423	0.075	984846	keystroke_Key.space	Key.space	n/a
493.022	0.09	986044	keystroke_t	t	n/a
493.098	0.044	986196	keystroke_h	h	n/a
493.173	0.104	986346	keystroke_e	e	n/a
493.368	0.074	986736	keystroke_m	m	n/a
494.013	0.06	988026	keystroke_Key.enter	Key.enter	n/a
494.079	6.5665	988158	prompt	n/a	love adding developed mesa\n
494.733	0.075	989466	keystroke_l	l	n/a
494.898	0.075	989796	keystroke_o	o	n/a
494.957	0.076	989914	keystroke_v	v	n/a
495.108	0.075	990216	keystroke_e	e	n/a
495.184	0.089	990368	keystroke_Key.space	Key.space	n/a
495.528	0.089	991056	keystroke_a	a	n/a
495.723	0.06	991446	keystroke_d	d	n/a
495.843	0.09	991686	keystroke_d	d	n/a
495.977	0.076	991954	keystroke_i	i	n/a
496.067	0.091	992134	keystroke_n	n	n/a
496.143	0.105	992286	keystroke_g	g	n/a
496.307	0.075	992614	keystroke_Key.space	Key.space	n/a
496.653	0.075	993306	keystroke_d	d	n/a
496.818	0.075	993636	keystroke_e	e	n/a
497.058	0.075	994116	keystroke_v	v	n/a
497.193	0.09	994386	keystroke_e	e	n/a
497.403	0.09	994806	keystroke_l	l	n/a
497.703	0.075	995406	keystroke_o	o	n/a
497.883	0.09	995766	keystroke_p	p	n/a
498.168	0.09	996336	keystroke_e	e	n/a
498.378	0.09	996756	keystroke_d	d	n/a
498.528	0.045	997056	keystroke_Key.space	Key.space	n/a
498.828	0.075	997656	keystroke_m	m	n/a
498.963	0.105	997926	keystroke_e	e	n/a
499.728	0.09	999456	keystroke_s	s	n/a
499.923	0.09	999846	keystroke_a	a	n/a
500.583	0.059	1001166	keystroke_Key.enter	Key.enter	n/a
500.6495	19.1505	1001299	prompt	n/a	accreditation malawi mariah samoa\n
501.408	0.119	1002816	keystroke_a	a	n/a
501.693	0.045	1003386	keystroke_c	c	n/a
501.812	0.075	1003624	keystroke_c	c	n/a
502.443	0.15	1004886	keystroke_r	r	n/a
502.578	0.09	1005156	keystroke_e	e	n/a
502.907	0.076	1005814	keystroke_d	d	n/a
503.058	0.09	1006116	keystroke_i	i	n/a
506.7815	0.012	1013563	keystroke_Key.backspace	Key.backspace	n/a
507.9935	0.09	1015987	keystroke_i	i	n/a
508.2785	0.12	1016557	keystroke_t	t	n/a
508.7735	0.12	1017547	keystroke_a	a	n/a
508.9385	0.105	1017877	keystroke_t	t	n/a
509.0735	0.105	1018147	keystroke_i	i	n/a
509.1185	0.165	1018237	keystroke_o	o	n/a
509.2385	0.09	1018477	keystroke_n	n	n/a
509.4785	0.06	1018957	keystroke_Key.space	Key.space	n/a
510.9785	0.0745	1021957	keystroke_m	m	n/a
511.458	0.12	1022916	keystroke_a	a	n/a
511.608	0.105	1023216	keystroke_l	l	n/a
511.743	0.12	1023486	keystroke_a	a	n/a
512.043	0.045	1024086	keystroke_w	w	n/a
512.2535	0.0145	1024507	keystroke_w	w	n/a
512.748	0.06	1025496	keystroke_Key.backspace	Key.backspace	n/a
512.988	0.075	1025976	keystroke_i	i	n/a
513.198	0.09	1026396	keystroke_Key.space	Key.space	n/a
514.293	0.075	1028586	keystroke_m	m	n/a
514.458	0.15	1028916	keystroke_a	a	n/a
515.088	0.075	1030176	keystroke_r	r	n/a
515.223	0.075	1030446	keystroke_i	i	n/a
515.463	0.09	1030926	keystroke_a	a	n/a
516.393	0.075	1032786	keystroke_h	h	n/a
516.633	0.09	1033266	keystroke_Key.space	Key.space	n/a
516.948	0.09	1033896	keystroke_s	s	n/a
518.358	0.105	1036716	keystroke_a	a	n/a
518.598	0.06	1037196	keystroke_m	m	n/a
518.793	0.09	1037586	keystroke_o	o	n/a
519.003	0.105	1038006	keystroke_a	a	n/a
519.723	0.075	1039446	keystroke_Key.enter	Key.enter	n/a
519.8065	9.8935	1039613	prompt	n/a	nevada andale communications assume\n
520.7725	0.075	1041545	keystroke_n	n	n/a
521.013	0.09	1042026	keystroke_v	v	n/a
521.673	0.06	1043346	keystroke_Key.backspace	Key.backspace	n/a
521.808	0.09	1043616	keystroke_e	e	n/a
521.973	0.09	1043946	keystroke_v	v	n/a
522.123	0.09	1044246	keystroke_e	e	n/a
522.708	0.075	1045416	keystroke_Key.backspace	Key.backspace	n/a
522.843	0.15	1045686	keystroke_a	a	n/a
523.383	0.105	1046766	keystroke_d	d	n/a
523.563	0.1195	1047126	keystroke_a	a	n/a
523.7425	0.09	1047485	keystroke_Key.space	Key.space	n/a
524.4475	0.105	1048895	keystroke_a	a	n/a
524.5975	0.075	1049195	keystroke_n	n	n/a
525.1825	0.105	1050365	keystroke_d	d	n/a
525.3325	0.09	1050665	keystroke_a	a	n/a
525.4375	0.075	1050875	keystroke_l	l	n/a
525.6025	0.075	1051205	keystroke_e	e	n/a
525.7225	0.075	1051445	keystroke_Key.space	Key.space	n/a
526.0225	0.105	1052045	keystroke_c	c	n/a
526.1725	0.105	1052345	keystroke_o	o	n/a
526.4425	0.075	1052885	keystroke_m	m	n/a
526.5775	0.09	1053155	keystroke_m	m	n/a
526.8175	0.045	1053635	keystroke_u	u	n/a
526.9825	0.09	1053965	keystroke_n	n	n/a
527.1775	0.09	1054355	keystroke_i	i	n/a
527.5225	0.09	1055045	keystroke_c	c	n/a
527.6875	0.105	1055375	keystroke_a	a	n/a
527.8675	0.09	1055735	keystroke_t	t	n/a
527.8975	0.12	1055795	keystroke_i	i	n/a
527.9875	0.12	1055975	keystroke_o	o	n/a
528.0625	0.105	1056125	keystroke_n	n	n/a
528.2275	0.0755	1056455	keystroke_s	s	n/a
528.333	0.075	1056666	keystroke_Key.space	Key.space	n/a
528.618	0.09	1057236	keystroke_a	a	n/a
528.8275	0.06	1057655	keystroke_s	s	n/a
528.9325	0.075	1057865	keystroke_s	s	n/a
529.0225	0.09	1058045	keystroke_u	u	n/a
529.2175	0.0755	1058435	keystroke_m	m	n/a
529.338	0.09	1058676	keystroke_e	e	n/a
529.638	0.06	1059276	keystroke_Key.enter	Key.enter	n/a
529.706	9.6535	1059412	prompt	n/a	geography angel modern derek\n
530.628	0.075	1061256	keystroke_g	g	n/a
530.883	0.075	1061766	keystroke_e	e	n/a
531.183	0.075	1062366	keystroke_r	r	n/a
531.423	0.09	1062846	keystroke_o	o	n/a
531.648	0.075	1063296	keystroke_p	p	n/a
532.068	0.06	1064136	keystroke_Key.backspace	Key.backspace	n/a
532.233	0.045	1064466	keystroke_Key.backspace	Key.backspace	n/a
532.353	0.06	1064706	keystroke_Key.backspace	Key.backspace	n/a
532.593	0.105	1065186	keystroke_o	o	n/a
532.998	0.075	1065996	keystroke_g	g	n/a
533.208	0.105	1066416	keystroke_r	r	n/a
533.478	0.075	1066956	keystroke_a	a	n/a
533.628	0.105	1067256	keystroke_p	p	n/a
533.838	0.105	1067676	keystroke_h	h	n/a
534.078	0.075	1068156	keystroke_y	y	n/a
534.333	0.075	1068666	keystroke_Key.space	Key.space	n/a
534.708	0.09	1069416	keystroke_a	a	n/a
534.799	0.089	1069598	keystroke_n	n	n/a
535.068	0.105	1070136	keystroke_d	d	n/a
535.458	0.075	1070916	keystroke_Key.backspace	Key.backspace	n/a
535.548	0.105	1071096	keystroke_g	g	n/a
535.863	0.09	1071726	keystroke_e	e	n/a
535.983	0.075	1071966	keystroke_l	l	n/a
536.148	0.09	1072296	keystroke_Key.space	Key.space	n/a
536.418	0.06	1072836	keystroke_m	m	n/a
536.598	0.09	1073196	keystroke_o	o	n/a
536.808	0.075	1073616	keystroke_d	d	n/a
537.0185	0.1645	1074037	keystroke_e	e	n/a
537.168	0.09	1074336	keystroke_r	r	n/a
537.348	0.06	1074696	keystroke_n	n	n/a
537.528	0.075	1075056	keystroke_Key.space	Key.space	n/a
537.783	0.045	1075566	keystroke_d	d	n/a
537.933	0.105	1075866	keystroke_e	e	n/a
538.248	0.105	1076496	keystroke_r	r	n/a
538.323	0.135	1076646	keystroke_e	e	n/a
538.653	0.075	1077306	keystroke_k	k	n/a
539.298	0.06	1078596	keystroke_Key.enter	Key.enter	n/a
539.364	10.3765	1078728	prompt	n/a	mexican losing golf sells\n
543.246	0.012	1086492	keystroke_m	m	n/a
543.348	0.09	1086696	keystroke_e	e	n/a
543.723	0.105	1087446	keystroke_x	x	n/a
543.963	0.09	1087926	keystroke_i	i	n/a
544.383	0.15	1088766	keystroke_c	c	n/a
544.548	0.12	1089096	keystroke_a	a	n/a
544.698	0.075	1089396	keystroke_n	n	n/a
544.893	0.075	1089786	keystroke_Key.space	Key.space	n/a
546.4375	0.075	1092875	keystroke_l	l	n/a
546.6025	0.075	1093205	keystroke_o	o	n/a
546.7675	0.12	1093535	keystroke_s	s	n/a
546.8725	0.105	1093745	keystroke_i	i	n/a
546.9625	0.075	1093925	keystroke_n	n	n/a
547.0675	0.075	1094135	keystroke_g	g	n/a
547.1875	0.075	1094375	keystroke_Key.space	Key.space	n/a
547.5325	0.06	1095065	keystroke_g	g	n/a
547.6525	0.09	1095305	keystroke_o	o	n/a
547.8625	0.075	1095725	keystroke_l	l	n/a
548.1325	0.076	1096265	keystroke_f	f	n/a
548.2825	0.075	1096565	keystroke_Key.space	Key.space	n/a
548.5675	0.075	1097135	keystroke_s	s	n/a
548.7325	0.09	1097465	keystroke_e	e	n/a
548.9425	0.06	1097885	keystroke_l	l	n/a
549.0625	0.09	1098125	keystroke_l	l	n/a
549.1675	0.09	1098335	keystroke_s	s	n/a
549.6775	0.06	1099355	keystroke_Key.enter	Key.enter	n/a
549.7455	7.195	1099491	prompt	n/a	mounts import cycle promote\n
550.6225	0.06	1101245	keystroke_m	m	n/a
550.8475	0.15	1101695	keystroke_o	o	n/a
550.9375	0.105	1101875	keystroke_u	u	n/a
551.1625	0.075	1102325	keystroke_n	n	n/a
551.2975	0.09	1102595	keystroke_t	t	n/a
551.4775	0.075	1102955	keystroke_s	s	n/a
551.5675	0.09	1103135	keystroke_Key.space	Key.space	n/a
552.4075	0.105	1104815	keystroke_i	i	n/a
552.6175	0.09	1105235	keystroke_m	m	n/a
552.8125	0.09	1105625	keystroke_p	p	n/a
553.0225	0.075	1106045	keystroke_o	o	n/a
553.1735	0.074	1106347	keystroke_r	r	n/a
553.3375	0.075	1106675	keystroke_t	t	n/a
553.4875	0.105	1106975	keystroke_s	s	n/a
553.5775	0.075	1107155	keystroke_Key.space	Key.space	n/a
553.7725	0.09	1107545	keystroke_c	c	n/a
553.9375	0.075	1107875	keystroke_y	y	n/a
554.1175	0.12	1108235	keystroke_c	c	n/a
554.4485	0.044	1108897	keystroke_l	l	n/a
554.5375	0.076	1109075	keystroke_e	e	n/a
554.6425	0.075	1109285	keystroke_Key.space	Key.space	n/a
555.0485	0.074	1110097	keystroke_p	p	n/a
555.2435	0.059	1110487	keystroke_r	r	n/a
555.3925	0.075	1110785	keystroke_o	o	n/a
555.5875	0.075	1111175	keystroke_m	m	n/a
555.7675	0.09	1111535	keystroke_o	o	n/a
555.8735	0.089	1111747	keystroke_t	t	n/a
555.9475	0.105	1111895	keystroke_e	e	n/a
556.8925	0.045	1113785	keystroke_Key.enter	Key.enter	n/a
556.9465	9.864	1113893	prompt	n/a	orientation short bigger robbie\n
557.7625	0.075	1115525	keystroke_o	o	n/a
557.9125	0.12	1115825	keystroke_r	r	n/a
558.0035	0.074	1116007	keystroke_e	e	n/a
558.1525	0.06	1116305	keystroke_i	i	n/a
559.3075	0.075	1118615	keystroke_Key.backspace	Key.backspace	n/a
559.7875	0.06	1119575	keystroke_Key.backspace	Key.backspace	n/a
560.1025	0.075	1120205	keystroke_i	i	n/a
560.3725	0.09	1120745	keystroke_e	e	n/a
560.5225	0.075	1121045	keystroke_n	n	n/a
561.2275	0.075	1122455	keystroke_t	t	n/a
561.6475	0.135	1123295	keystroke_a	a	n/a
561.8735	0.074	1123747	keystroke_t	t	n/a
561.9625	0.106	1123925	keystroke_i	i	n/a
562.0385	0.119	1124077	keystroke_o	o	n/a
562.0975	0.09	1124195	keystroke_n	n	n/a
562.3375	0.06	1124675	keystroke_Key.space	Key.space	n/a
562.6235	0.074	1125247	keystroke_s	s	n/a
562.7125	0.075	1125425	keystroke_h	h	n/a
562.8625	0.09	1125725	keystroke_o	o	n/a
562.9975	0.06	1125995	keystroke_r	r	n/a
563.1635	0.059	1126327	keystroke_t	t	n/a
563.2375	0.075	1126475	keystroke_Key.space	Key.space	n/a
563.5375	0.075	1127075	keystroke_b	b	n/a
563.7185	0.075	1127437	keystroke_i	i	n/a
563.9125	0.075	1127825	keystroke_g	g	n/a
564.0475	0.06	1128095	keystroke_g	g	n/a
564.2125	0.12	1128425	keystroke_e	e	n/a
564.2875	0.075	1128575	keystroke_r	r	n/a
564.4375	0.075	1128875	keystroke_Key.space	Key.space	n/a
564.8735	0.059	1129747	keystroke_r	r	n/a
565.0085	0.0895	1130017	keystroke_o	o	n/a
565.2625	0.0755	1130525	keystroke_b	b	n/a
565.713	0.075	1131426	keystroke_b	b	n/a
565.969	0.059	1131938	keystroke_i	i	n/a
566.1475	0.076	1132295	keystroke_e	e	n/a
566.7475	0.06	1133495	keystroke_Key.enter	Key.enter	n/a
566.8155	8.066	1133631	prompt	n/a	models best berkeley excel\n
567.454	0.06	1134908	keystroke_m	m	n/a
567.6335	0.0745	1135267	keystroke_o	o	n/a
567.783	0.09	1135566	keystroke_d	d	n/a
567.963	0.075	1135926	keystroke_e	e	n/a
568.069	0.089	1136138	keystroke_l	l	n/a
568.203	0.09	1136406	keystroke_s	s	n/a
568.353	0.06	1136706	keystroke_Key.space	Key.space	n/a
568.698	0.076	1137396	keystroke_b	b	n/a
568.818	0.076	1137636	keystroke_e	e	n/a
568.968	0.135	1137936	keystroke_s	s	n/a
569.118	0.09	1138236	keystroke_t	t	n/a
569.209	0.059	1138418	keystroke_Key.space	Key.space	n/a
569.644	0.059	1139288	keystroke_b	b	n/a
569.824	0.104	1139648	keystroke_e	e	n/a
569.869	0.104	1139738	keystroke_r	r	n/a
570.424	0.059	1140848	keystroke_k	k	n/a
570.604	0.075	1141208	keystroke_e	e	n/a
570.828	0.09	1141656	keystroke_l	l	n/a
571.024	0.074	1142048	keystroke_e	e	n/a
571.203	0.06	1142406	keystroke_y	y	n/a
571.413	0.076	1142826	keystroke_Key.space	Key.space	n/a
571.653	0.076	1143306	keystroke_e	e	n/a
572.238	0.15	1144476	keystroke_x	x	n/a
573.0345	0.074	1146069	keystroke_v	v	n/a
573.603	0.06	1147206	keystroke_Key.backspace	Key.backspace	n/a
573.679	0.104	1147358	keystroke_c	c	n/a
573.859	0.105	1147718	keystroke_e	e	n/a
574.099	0.089	1148198	keystroke_l	l	n/a
574.818	0.06	1149636	keystroke_Key.enter	Key.enter	n/a
574.889	9.4265	1149778	prompt	n/a	willing delivers brighton maintain\n
575.778	0.0455	1151556	keystroke_w	w	n/a
575.8985	0.09	1151797	keystroke_i	i	n/a
576.1085	0.076	1152217	keystroke_l	l	n/a
576.2445	0.09	1152489	keystroke_l	l	n/a
576.4245	0.09	1152849	keystroke_i	i	n/a
576.5445	0.09	1153089	keystroke_n	n	n/a
576.6785	0.075	1153357	keystroke_g	g	n/a
576.7685	0.09	1153537	keystroke_Key.space	Key.space	n/a
577.3245	0.059	1154649	keystroke_d	d	n/a
577.4895	0.075	1154979	keystroke_e	e	n/a
577.6545	0.074	1155309	keystroke_l	l	n/a
577.8645	0.045	1155729	keystroke_i	i	n/a
578.4795	0.074	1156959	keystroke_v	v	n/a
578.6145	0.149	1157229	keystroke_e	e	n/a
578.7035	0.106	1157407	keystroke_r	r	n/a
578.989	0.0445	1157978	keystroke_s	s	n/a
579.108	0.061	1158216	keystroke_Key.space	Key.space	n/a
579.544	0.075	1159088	keystroke_b	b	n/a
579.739	0.075	1159478	keystroke_r	r	n/a
579.904	0.075	1159808	keystroke_i	i	n/a
580.129	0.06	1160258	keystroke_g	g	n/a
580.204	0.075	1160408	keystroke_h	h	n/a
580.354	0.075	1160708	keystroke_t	t	n/a
580.519	0.12	1161038	keystroke_o	o	n/a
580.594	0.075	1161188	keystroke_n	n	n/a
580.804	0.075	1161608	keystroke_Key.space	Key.space	n/a
581.119	0.06	1162238	keystroke_m	m	n/a
581.269	0.03	1162538	keystroke_a	a	n/a
581.359	0.09	1162718	keystroke_i	i	n/a
581.479	0.09	1162958	keystroke_n	n	n/a
581.749	0.09	1163498	keystroke_t	t	n/a
582.484	0.0895	1164968	keystroke_a	a	n/a
583.5325	0.076	1167065	keystroke_i	i	n/a
583.7165	0.072	1167433	keystroke_n	n	n/a
584.2385	0.074	1168477	keystroke_Key.enter	Key.enter	n/a
584.3195	11.2455	1168639	prompt	n/a	requires climate nominations potatoes\n
585.1385	0.135	1170277	keystroke_r	r	n/a
585.2275	0.105	1170455	keystroke_e	e	n/a
585.5885	0.105	1171177	keystroke_q	q	n/a
585.7525	0.091	1171505	keystroke_u	u	n/a
586.1285	0.075	1172257	keystroke_i	i	n/a
586.2935	0.105	1172587	keystroke_r	r	n/a
586.3385	0.089	1172677	keystroke_e	e	n/a
586.5775	0.076	1173155	keystroke_s	s	n/a
586.7435	0.075	1173487	keystroke_Key.space	Key.space	n/a
587.0575	0.075	1174115	keystroke_c	c	n/a
587.1635	0.075	1174327	keystroke_l	l	n/a
587.3275	0.0755	1174655	keystroke_i	i	n/a
587.4775	0.091	1174955	keystroke_m	m	n/a
587.7335	0.09	1175467	keystroke_a	a	n/a
587.8685	0.12	1175737	keystroke_t	t	n/a
587.9735	0.09	1175947	keystroke_e	e	n/a
588.1075	0.0745	1176215	keystroke_Key.space	Key.space	n/a
588.408	0.075	1176816	keystroke_n	n	n/a
588.693	0.089	1177386	keystroke_o	o	n/a
588.933	0.0745	1177866	keystroke_m	m	n/a
589.158	0.0745	1178316	keystroke_i	i	n/a
590.6425	0.075	1181285	keystroke_n	n	n/a
590.8375	0.12	1181675	keystroke_a	a	n/a
591.1075	0.09	1182215	keystroke_t	t	n/a
591.8875	0.15	1183775	keystroke_i	i	n/a
591.9775	0.135	1183955	keystroke_o	o	n/a
592.0675	0.12	1184135	keystroke_n	n	n/a
592.3975	0.105	1184795	keystroke_s	s	n/a
592.8925	0.075	1185785	keystroke_Key.space	Key.space	n/a
593.2825	0.09	1186565	keystroke_p	p	n/a
593.5075	0.09	1187015	keystroke_o	o	n/a
593.9725	0.09	1187945	keystroke_t	t	n/a
594.1975	0.105	1188395	keystroke_a	a	n/a
594.3775	0.105	1188755	keystroke_t	t	n/a
594.5575	0.09	1189115	keystroke_o	o	n/a
594.6925	0.105	1189385	keystroke_e	e	n/a
594.8875	0.09	1189775	keystroke_s	s	n/a
595.5025	0.06	1191005	keystroke_Key.enter	Key.enter	n/a
595.57	14.1265	1191140	prompt	n/a	madness cheaper newman goes\n
596.5385	0.074	1193077	keystroke_m	m	n/a
596.7025	0.075	1193405	keystroke_a	a	n/a
597.2875	0.075	1194575	keystroke_Key.backspace	Key.backspace	n/a
598.1125	0.06	1196225	keystroke_a	a	n/a
598.3225	0.075	1196645	keystroke_d	d	n/a
598.5175	0.09	1197035	keystroke_e	e	n/a
598.8025	0.09	1197605	keystroke_n	n	n/a
599.0125	0.105	1198025	keystroke_e	e	n/a
599.4475	0.06	1198895	keystroke_s	s	n/a
599.5825	0.075	1199165	keystroke_s	s	n/a
599.7775	0.09	1199555	keystroke_Key.space	Key.space	n/a
600.1675	0.076	1200335	keystroke_c	c	n/a
600.2725	0.06	1200545	keystroke_h	h	n/a
600.8125	0.075	1201625	keystroke_Key.backspace	Key.backspace	n/a
601.0075	0.06	1202015	keystroke_Key.backspace	Key.backspace	n/a
601.1725	0.06	1202345	keystroke_Key.backspace	Key.backspace	n/a
601.3225	0.06	1202645	keystroke_Key.backspace	Key.backspace	n/a
601.4875	0.0605	1202975	keystroke_Key.backspace	Key.backspace	n/a
601.653	0.045	1203306	keystroke_Key.backspace	Key.backspace	n/a
601.803	0.045	1203606	keystroke_Key.backspace	Key.backspace	n/a
601.938	0.075	1203876	keystroke_Key.backspace	Key.backspace	n/a
602.299	0.074	1204598	keystroke_n	n	n/a
602.5535	0.09	1205107	keystroke_e	e	n/a
602.8085	0.06	1205617	keystroke_s	s	n/a
602.9285	0.075	1205857	keystroke_s	s	n/a
603.0635	0.105	1206127	keystroke_Key.space	Key.space	n/a
603.7235	0.06	1207447	keystroke_c	c	n/a
603.8435	0.075	1207687	keystroke_h	h	n/a
603.9935	0.135	1207987	keystroke_e	e	n/a
604.1585	0.15	1208317	keystroke_a	a	n/a
604.3385	0.09	1208677	keystroke_p	p	n/a
604.5035	0.135	1209007	keystroke_e	e	n/a
604.5785	0.09	1209157	keystroke_r	r	n/a
604.7585	0.075	1209517	keystroke_Key.space	Key.space	n/a
605.2085	0.0755	1210417	keystroke_n	n	n/a
605.359	0.105	1210718	keystroke_e	e	n/a
605.404	0.105	1210808	keystroke_w	w	n/a
605.674	0.075	1211348	keystroke_m	m	n/a
605.884	0.06	1211768	keystroke_a	a	n/a
606.214	0.075	1212428	keystroke_n	n	n/a
606.559	0.06	1213118	keystroke_Key.space	Key.space	n/a
608.344	0.09	1216688	keystroke_g	g	n/a
608.569	0.09	1217138	keystroke_o	o	n/a
608.734	0.105	1217468	keystroke_e	e	n/a
608.989	0.09	1217978	keystroke_s	s	n/a
609.634	0.06	1219268	keystroke_Key.enter	Key.enter	n/a
609.703	8.4675	1219406	prompt	n/a	contributions adam ross likely\n
610.489	0.075	1220978	keystroke_c	c	n/a
610.609	0.105	1221218	keystroke_o	o	n/a
610.699	0.09	1221398	keystroke_n	n	n/a
610.954	0.075	1221908	keystroke_t	t	n/a
611.119	0.06	1222238	keystroke_r	r	n/a
611.224	0.09	1222448	keystroke_i	i	n/a
611.494	0.075	1222988	keystroke_b	b	n/a
611.749	0.06	1223498	keystroke_u	u	n/a
611.959	0.09	1223918	keystroke_t	t	n/a
612.034	0.165	1224068	keystroke_i	i	n/a
612.184	0.12	1224368	keystroke_o	o	n/a
612.214	0.135	1224428	keystroke_n	n	n/a
612.439	0.075	1224878	keystroke_s	s	n/a
612.574	0.06	1225148	keystroke_Key.space	Key.space	n/a
613.459	0.06	1226918	keystroke_a	a	n/a
613.729	0.135	1227458	keystroke_d	d	n/a
613.924	0.075	1227848	keystroke_a	a	n/a
614.074	0.06	1228148	keystroke_m	m	n/a
614.269	0.075	1228538	keystroke_Key.space	Key.space	n/a
614.659	0.075	1229318	keystroke_r	r	n/a
614.794	0.09	1229588	keystroke_o	o	n/a
615.034	0.075	1230068	keystroke_s	s	n/a
615.169	0.075	1230338	keystroke_s	s	n/a
615.319	0.075	1230638	keystroke_Key.space	Key.space	n/a
615.544	0.09	1231088	keystroke_l	l	n/a
615.739	0.075	1231478	keystroke_i	i	n/a
616.729	0.0745	1233458	keystroke_k	k	n/a
616.8635	0.09	1233727	keystroke_e	e	n/a
617.0435	0.075	1234087	keystroke_l	l	n/a
617.2835	0.045	1234567	keystroke_y	y	n/a
618.1235	0.045	1236247	keystroke_Key.enter	Key.enter	n/a
618.174	9.6565	1236348	prompt	n/a	we'd morris payable youth\n
618.9635	0.105	1237927	keystroke_w	w	n/a
619.1135	0.12	1238227	keystroke_e	e	n/a
619.3385	0.075	1238677	keystroke_'	'	n/a
619.6835	0.06	1239367	keystroke_d	d	n/a
619.8935	0.075	1239787	keystroke_Key.space	Key.space	n/a
620.2085	0.075	1240417	keystroke_m	m	n/a
620.3885	0.09	1240777	keystroke_o	o	n/a
620.6135	0.06	1241227	keystroke_r	r	n/a
620.7335	0.075	1241467	keystroke_r	r	n/a
621.0335	0.06	1242067	keystroke_i	i	n/a
621.2285	0.075	1242457	keystroke_s	s	n/a
621.3185	0.075	1242637	keystroke_Key.space	Key.space	n/a
622.3385	0.075	1244677	keystroke_p	p	n/a
622.9085	0.075	1245817	keystroke_a	a	n/a
623.1045	0.074	1246209	keystroke_y	y	n/a
623.3735	0.075	1246747	keystroke_b	b	n/a
623.4785	0.15	1246957	keystroke_a	a	n/a
623.7185	0.09	1247437	keystroke_l	l	n/a
623.8535	0.075	1247707	keystroke_e	e	n/a
624.2435	0.075	1248487	keystroke_Key.backspace	Key.backspace	n/a
624.3935	0.075	1248787	keystroke_Key.backspace	Key.backspace	n/a
624.5435	0.075	1249087	keystroke_Key.backspace	Key.backspace	n/a
624.7535	0.015	1249507	keystroke_Key.backspace	Key.backspace	n/a
625.0085	0.105	1250017	keystroke_a	a	n/a
625.1435	0.075	1250287	keystroke_b	b	n/a
625.3235	0.075	1250647	keystroke_l	l	n/a
625.4285	0.09	1250857	keystroke_e	e	n/a
625.5785	0.075	1251157	keystroke_Key.space	Key.space	n/a
626.5385	0.09	1253077	keystroke_y	y	n/a
626.7035	0.15	1253407	keystroke_o	o	n/a
626.7785	0.12	1253557	keystroke_u	u	n/a
626.9885	0.075	1253977	keystroke_t	t	n/a
627.0935	0.06	1254187	keystroke_h	h	n/a
627.7685	0.06	1255537	keystroke_Key.enter	Key.enter	n/a
627.836	9.2955	1255672	prompt	n/a	we're stuffed freelance writing\n
628.5485	0.09	1257097	keystroke_w	w	n/a
628.7735	0.075	1257547	keystroke_e	e	n/a
628.8035	0.105	1257607	keystroke_r	r	n/a
629.4935	0.075	1258987	keystroke_Key.backspace	Key.backspace	n/a
630.3935	0.045	1260787	keystroke_'	'	n/a
630.6035	0.12	1261207	keystroke_r	r	n/a
630.6485	0.12	1261297	keystroke_e	e	n/a
630.9335	0.075	1261867	keystroke_Key.space	Key.space	n/a
631.5485	0.075	1263097	keystroke_s	s	n/a
631.8785	0.075	1263757	keystroke_t	t	n/a
632.0735	0.06	1264147	keystroke_u	u	n/a
632.3135	0.075	1264627	keystroke_f	f	n/a
632.4635	0.09	1264927	keystroke_f	f	n/a
632.6135	0.09	1265227	keystroke_e	e	n/a
632.8085	0.09	1265617	keystroke_d	d	n/a
632.9135	0.09	1265827	keystroke_Key.space	Key.space	n/a
633.1535	0.075	1266307	keystroke_f	f	n/a
633.4385	0.105	1266877	keystroke_r	r	n/a
633.7385	0.06	1267477	keystroke_e	e	n/a
633.8735	0.06	1267747	keystroke_e	e	n/a
634.0535	0.09	1268107	keystroke_l	l	n/a
634.1585	0.09	1268317	keystroke_a	a	n/a
634.2785	0.09	1268557	keystroke_n	n	n/a
634.4735	0.1055	1268947	keystroke_c	c	n/a
634.534	0.12	1269068	keystroke_e	e	n/a
634.864	0.075	1269728	keystroke_Key.space	Key.space	n/a
635.209	0.105	1270418	keystroke_w	w	n/a
635.494	0.09	1270988	keystroke_r	r	n/a
635.779	0.075	1271558	keystroke_i	i	n/a
636.034	0.09	1272068	keystroke_t	t	n/a
636.199	0.165	1272398	keystroke_i	i	n/a
636.319	0.105	1272638	keystroke_n	n	n/a
636.454	0.075	1272908	keystroke_g	g	n/a
637.069	0.06	1274138	keystroke_Key.enter	Key.enter	n/a
637.138	10.3885	1274276	prompt	n/a	even wolf perspective parliamentary\n
637.969	0.06	1275938	keystroke_e	e	n/a
638.134	0.105	1276268	keystroke_v	v	n/a
638.269	0.15	1276538	keystroke_e	e	n/a
638.464	0.06	1276928	keystroke_n	n	n/a
638.629	0.075	1277258	keystroke_Key.space	Key.space	n/a
638.899	0.09	1277798	keystroke_w	w	n/a
639.004	0.09	1278008	keystroke_o	o	n/a
639.214	0.09	1278428	keystroke_l	l	n/a
639.394	0.075	1278788	keystroke_f	f	n/a
639.574	0.075	1279148	keystroke_Key.space	Key.space	n/a
640.384	0.075	1280768	keystroke_p	p	n/a
640.669	0.105	1281338	keystroke_e	e	n/a
640.714	0.105	1281428	keystroke_r	r	n/a
641.015	0.074	1282030	keystroke_s	s	n/a
641.119	0.075	1282238	keystroke_p	p	n/a
641.299	0.09	1282598	keystroke_e	e	n/a
641.509	0.09	1283018	keystroke_c	c	n/a
641.764	0.06	1283528	keystroke_t	t	n/a
641.854	0.09	1283708	keystroke_i	i	n/a
641.989	0.09	1283978	keystroke_v	v	n/a
642.094	0.09	1284188	keystroke_e	e	n/a
642.229	0.06	1284458	keystroke_Key.space	Key.space	n/a
642.619	0.075	1285238	keystroke_p	p	n/a
642.844	0.105	1285688	keystroke_e	e	n/a
643.054	0.075	1286108	keystroke_r	r	n/a
643.279	0.075	1286558	keystroke_l	l	n/a
643.429	0.105	1286858	keystroke_i	i	n/a
644.314	0.075	1288628	keystroke_a	a	n/a
645.064	0.06	1290128	keystroke_m	m	n/a
645.769	0.105	1291538	keystroke_e	e	n/a
646.024	0.075	1292048	keystroke_n	n	n/a
646.294	0.09	1292588	keystroke_t	t	n/a
646.519	0.135	1293038	keystroke_a	a	n/a
646.624	0.09	1293248	keystroke_r	r	n/a
646.774	0.06	1293548	keystroke_y	y	n/a
647.464	0.06	1294928	keystroke_Key.enter	Key.enter	n/a
647.5325	9.7745	1295065	prompt	n/a	near recipients cheats success\n
648.26	0.03	1296520	keystroke_n	n	n/a
648.844	0.135	1297688	keystroke_e	e	n/a
648.994	0.135	1297988	keystroke_a	a	n/a
649.159	0.105	1298318	keystroke_r	r	n/a
649.339	0.075	1298678	keystroke_Key.space	Key.space	n/a
650.194	0.105	1300388	keystroke_r	r	n/a
650.269	0.09	1300538	keystroke_e	e	n/a
650.869	0.09	1301738	keystroke_c	c	n/a
651.184	0.09	1302368	keystroke_i	i	n/a
651.394	0.075	1302788	keystroke_p	p	n/a
651.679	0.075	1303358	keystroke_i	i	n/a
651.889	0.075	1303778	keystroke_e	e	n/a
652.219	0.06	1304438	keystroke_n	n	n/a
652.729	0.075	1305458	keystroke_Key.space	Key.space	n/a
653.209	0.09	1306418	keystroke_Key.backspace	Key.backspace	n/a
653.344	0.121	1306688	keystroke_s	s	n/a
653.884	0.0745	1307768	keystroke_Key.backspace	Key.backspace	n/a
654.0785	0.075	1308157	keystroke_t	t	n/a
654.214	0.09	1308428	keystroke_s	s	n/a
654.334	0.075	1308668	keystroke_Key.space	Key.space	n/a
654.6785	0.09	1309357	keystroke_c	c	n/a
654.8135	0.09	1309627	keystroke_h	h	n/a
654.9635	0.09	1309927	keystroke_e	e	n/a
655.1285	0.075	1310257	keystroke_a	a	n/a
655.2485	0.121	1310497	keystroke_t	t	n/a
655.4435	0.075	1310887	keystroke_s	s	n/a
655.5485	0.075	1311097	keystroke_Key.space	Key.space	n/a
655.9235	0.075	1311847	keystroke_s	s	n/a
656.1035	0.075	1312207	keystroke_u	u	n/a
656.3285	0.045	1312657	keystroke_c	c	n/a
656.4345	0.089	1312869	keystroke_c	c	n/a
656.5985	0.105	1313197	keystroke_e	e	n/a
656.8535	0.075	1313707	keystroke_s	s	n/a
656.9885	0.076	1313977	keystroke_s	s	n/a
657.2435	0.06	1314487	keystroke_Key.enter	Key.enter	n/a
657.3115	7.734	1314623	prompt	n/a	louise belts placed approve\n
658.0535	0.075	1316107	keystroke_l	l	n/a
658.4895	0.164	1316979	keystroke_o	o	n/a
658.6245	0.09	1317249	keystroke_u	u	n/a
658.9085	0.075	1317817	keystroke_i	i	n/a
659.1635	0.12	1318327	keystroke_s	s	n/a
659.2695	0.089	1318539	keystroke_e	e	n/a
659.8235	0.09	1319647	keystroke_Key.space	Key.space	n/a
660.1535	0.09	1320307	keystroke_b	b	n/a
660.2735	0.09	1320547	keystroke_e	e	n/a
660.4235	0.09	1320847	keystroke_l	l	n/a
660.6935	0.091	1321387	keystroke_t	t	n/a
660.9335	0.09	1321867	keystroke_s	s	n/a
661.1435	0.06	1322287	keystroke_Key.space	Key.space	n/a
661.9385	0.075	1323877	keystroke_p	p	n/a
662.1495	0.105	1324299	keystroke_l	l	n/a
662.4195	0.09	1324839	keystroke_a	a	n/a
662.5395	0.134	1325079	keystroke_c	c	n/a
662.6435	0.105	1325287	keystroke_e	e	n/a
662.8985	0.09	1325797	keystroke_d	d	n/a
663.0785	0.09	1326157	keystroke_Key.space	Key.space	n/a
663.3335	0.075	1326667	keystroke_a	a	n/a
663.4685	0.09	1326937	keystroke_p	p	n/a
663.6185	0.091	1327237	keystroke_p	p	n/a
663.7985	0.075	1327597	keystroke_r	r	n/a
663.9185	0.091	1327837	keystroke_o	o	n/a
664.1135	0.076	1328227	keystroke_v	v	n/a
664.2345	0.104	1328469	keystroke_e	e	n/a
664.9835	0.06	1329967	keystroke_Key.enter	Key.enter	n/a
665.051	7.181	1330102	prompt	n/a	malawi atomic euro allergy\n
665.8985	0.061	1331797	keystroke_m	m	n/a
666.0645	0.074	1332129	keystroke_a	a	n/a
666.1535	0.091	1332307	keystroke_l	l	n/a
666.2885	0.076	1332577	keystroke_a	a	n/a
666.9045	0.089	1333809	keystroke_w	w	n/a
667.0685	0.076	1334137	keystroke_i	i	n/a
667.2785	0.09	1334557	keystroke_Key.space	Key.space	n/a
667.5195	0.104	1335039	keystroke_a	a	n/a
667.8645	0.089	1335729	keystroke_t	t	n/a
668.0735	0.136	1336147	keystroke_o	o	n/a
668.1945	0.09	1336389	keystroke_m	m	n/a
668.4035	0.075	1336807	keystroke_i	i	n/a
668.4945	0.09	1336989	keystroke_c	c	n/a
668.6445	0.089	1337289	keystroke_Key.space	Key.space	n/a
669.5735	0.075	1339147	keystroke_e	e	n/a
669.8285	0.061	1339657	keystroke_u	u	n/a
670.1585	0.076	1340317	keystroke_r	r	n/a
670.3095	0.089	1340619	keystroke_o	o	n/a
670.5185	0.075	1341037	keystroke_Key.space	Key.space	n/a
670.7435	0.076	1341487	keystroke_a	a	n/a
670.8945	0.074	1341789	keystroke_l	l	n/a
671.0295	0.09	1342059	keystroke_l	l	n/a
671.1345	0.1055	1342269	keystroke_e	e	n/a
671.1935	0.1055	1342387	keystroke_r	r	n/a
671.465	0.09	1342930	keystroke_g	g	n/a
671.675	0.06	1343350	keystroke_y	y	n/a
672.185	0.044	1344370	keystroke_Key.enter	Key.enter	n/a
672.2375	12.8785	1344475	prompt	n/a	enquiries breaking o'clock catalogue\n
673.504	0.075	1347008	keystroke_e	e	n/a
673.7	0.059	1347400	keystroke_n	n	n/a
674.21	0.09	1348420	keystroke_q	q	n/a
674.42	0.075	1348840	keystroke_u	u	n/a
674.599	0.105	1349198	keystroke_i	i	n/a
674.84	0.104	1349680	keystroke_r	r	n/a
674.885	0.105	1349770	keystroke_e	e	n/a
676.609	0.045	1353218	keystroke_Key.backspace	Key.backspace	n/a
677.105	0.075	1354210	keystroke_i	i	n/a
677.195	0.09	1354390	keystroke_e	e	n/a
677.51	0.03	1355020	keystroke_s	s	n/a
677.614	0.06	1355228	keystroke_Key.space	Key.space	n/a
678.545	0.075	1357090	keystroke_b	b	n/a
678.725	0.09	1357450	keystroke_r	r	n/a
678.74	0.135	1357480	keystroke_e	e	n/a
678.95	0.074	1357900	keystroke_a	a	n/a
679.04	0.075	1358080	keystroke_k	k	n/a
679.189	0.091	1358378	keystroke_i	i	n/a
679.295	0.09	1358590	keystroke_n	n	n/a
679.399	0.075	1358798	keystroke_g	g	n/a
679.535	0.089	1359070	keystroke_Key.space	Key.space	n/a
680.525	0.104	1361050	keystroke_o	o	n/a
680.779	0.076	1361558	keystroke_'	'	n/a
681.29	0.089	1362580	keystroke_c	c	n/a
681.41	0.09	1362820	keystroke_l	l	n/a
681.59	0.09	1363180	keystroke_o	o	n/a
681.754	0.106	1363508	keystroke_c	c	n/a
681.875	0.075	1363750	keystroke_k	k	n/a
682.084	0.075	1364168	keystroke_Key.space	Key.space	n/a
682.5645	0.075	1365129	keystroke_c	c	n/a
682.7295	0.119	1365459	keystroke_a	a	n/a
682.9845	0.105	1365969	keystroke_t	t	n/a
683.4495	0.09	1366899	keystroke_a	a	n/a
683.7495	0.075	1367499	keystroke_l	l	n/a
684.0045	0.075	1368009	keystroke_o	o	n/a
684.3645	0.075	1368729	keystroke_g	g	n/a
684.4995	0.074	1368999	keystroke_u	u	n/a
684.6945	0.06	1369389	keystroke_e	e	n/a
685.0395	0.075	1370079	keystroke_Key.enter	Key.enter	n/a
685.1255	11.1055	1370251	prompt	n/a	marina deposits circles plants\n
686.0745	0.09	1372149	keystroke_a	a	n/a
686.5395	0.075	1373079	keystroke_Key.backspace	Key.backspace	n/a
686.7645	0.09	1373529	keystroke_m	m	n/a
687.4545	0.075	1374909	keystroke_a	a	n/a
687.7245	0.09	1375449	keystroke_r	r	n/a
687.7695	0.075	1375539	keystroke_e	e	n/a
688.548	0.061	1377096	keystroke_Key.backspace	Key.backspace	n/a
689.614	0.075	1379228	keystroke_i	i	n/a
689.779	0.09	1379558	keystroke_n	n	n/a
689.944	0.104	1379888	keystroke_a	a	n/a
690.049	0.075	1380098	keystroke_Key.space	Key.space	n/a
690.394	0.06	1380788	keystroke_d	d	n/a
690.559	0.075	1381118	keystroke_e	e	n/a
690.724	0.09	1381448	keystroke_p	p	n/a
690.934	0.105	1381868	keystroke_o	o	n/a
691.354	0.105	1382708	keystroke_s	s	n/a
691.894	0.075	1383788	keystroke_i	i	n/a
692.209	0.09	1384418	keystroke_t	t	n/a
692.434	0.075	1384868	keystroke_s	s	n/a
692.554	0.075	1385108	keystroke_Key.space	Key.space	n/a
692.824	0.09	1385648	keystroke_c	c	n/a
692.959	0.09	1385918	keystroke_i	i	n/a
693.304	0.09	1386608	keystroke_r	r	n/a
693.844	0.09	1387688	keystroke_c	c	n/a
694.444	0.075	1388888	keystroke_l	l	n/a
694.579	0.09	1389158	keystroke_e	e	n/a
694.789	0.06	1389578	keystroke_s	s	n/a
694.864	0.09	1389728	keystroke_Key.space	Key.space	n/a
695.149	0.075	1390298	keystroke_p	p	n/a
695.314	0.09	1390628	keystroke_l	l	n/a
695.434	0.105	1390868	keystroke_a	a	n/a
695.584	0.09	1391168	keystroke_n	n	n/a
695.764	0.09	1391528	keystroke_t	t	n/a
695.959	0.0905	1391918	keystroke_s	s	n/a
696.1695	0.06	1392339	keystroke_Key.enter	Key.enter	n/a
696.235	11.0215	1392470	prompt	n/a	constraints only he've programming\n
697.0845	0.06	1394169	keystroke_c	c	n/a
697.2195	0.105	1394439	keystroke_o	o	n/a
697.3095	0.09	1394619	keystroke_n	n	n/a
697.7445	0.075	1395489	keystroke_s	s	n/a
697.8945	0.105	1395789	keystroke_t	t	n/a
698.1195	0.075	1396239	keystroke_r	r	n/a
698.3295	0.09	1396659	keystroke_a	a	n/a
698.4945	0.105	1396989	keystroke_i	i	n/a
698.6145	0.105	1397229	keystroke_n	n	n/a
698.8545	0.09	1397709	keystroke_t	t	n/a
699.4395	0.075	1398879	keystroke_s	s	n/a
699.7095	0.075	1399419	keystroke_Key.space	Key.space	n/a
700.2795	0.105	1400559	keystroke_o	o	n/a
700.3695	0.09	1400739	keystroke_n	n	n/a
700.5195	0.105	1401039	keystroke_l	l	n/a
700.7445	0.06	1401489	keystroke_y	y	n/a
700.9695	0.09	1401939	keystroke_Key.space	Key.space	n/a
701.4345	0.075	1402869	keystroke_h	h	n/a
701.5695	0.09	1403139	keystroke_e	e	n/a
701.7795	0.06	1403559	keystroke_'	'	n/a
702.0345	0.09	1404069	keystroke_v	v	n/a
702.1995	0.09	1404399	keystroke_e	e	n/a
702.3495	0.06	1404699	keystroke_Key.space	Key.space	n/a
702.6645	0.09	1405329	keystroke_p	p	n/a
702.9195	0.045	1405839	keystroke_r	r	n/a
703.0995	0.09	1406199	keystroke_o	o	n/a
705.3525	0.012	1410705	keystroke_g	g	n/a
705.5295	0.105	1411059	keystroke_r	r	n/a
705.8145	0.075	1411629	keystroke_a	a	n/a
706.0545	0.06	1412109	keystroke_m	m	n/a
706.2045	0.045	1412409	keystroke_m	m	n/a
706.4445	0.135	1412889	keystroke_i	i	n/a
706.5945	0.09	1413189	keystroke_n	n	n/a
706.7745	0.075	1413549	keystroke_g	g	n/a
707.2095	0.045	1414419	keystroke_Key.enter	Key.enter	n/a
707.261	16.57	1414522	prompt	n/a	hung detail flashers findarticles\n
708.4845	0.06	1416969	keystroke_h	h	n/a
708.8745	0.06	1417749	keystroke_i	i	n/a
709.1145	0.075	1418229	keystroke_n	n	n/a
709.5345	0.045	1419069	keystroke_Key.backspace	Key.backspace	n/a
709.67	0.0745	1419340	keystroke_Key.backspace	Key.backspace	n/a
709.9245	0.0605	1419849	keystroke_i	i	n/a
710.1495	0.075	1420299	keystroke_n	n	n/a
710.5095	0.06	1421019	keystroke_Key.backspace	Key.backspace	n/a
710.6445	0.06	1421289	keystroke_Key.backspace	Key.backspace	n/a
711.9945	0.06	1423989	keystroke_u	u	n/a
712.2045	0.075	1424409	keystroke_n	n	n/a
712.3395	0.075	1424679	keystroke_g	g	n/a
712.5495	0.075	1425099	keystroke_Key.space	Key.space	n/a
713.2995	0.09	1426599	keystroke_d	d	n/a
713.4795	0.09	1426959	keystroke_e	e	n/a
713.7345	0.09	1427469	keystroke_t	t	n/a
713.9595	0.075	1427919	keystroke_a	a	n/a
714.0645	0.105	1428129	keystroke_i	i	n/a
714.2445	0.09	1428489	keystroke_l	l	n/a
714.4395	0.075	1428879	keystroke_Key.space	Key.space	n/a
715.0395	0.06	1430079	keystroke_f	f	n/a
715.2195	0.09	1430439	keystroke_l	l	n/a
715.5195	0.09	1431039	keystroke_a	a	n/a
715.6995	0.105	1431399	keystroke_s	s	n/a
715.8345	0.075	1431669	keystroke_h	h	n/a
715.9395	0.12	1431879	keystroke_e	e	n/a
716.1645	0.09	1432329	keystroke_r	r	n/a
716.1795	0.03	1432359	keystroke_e	e	n/a
716.7645	0.09	1433529	keystroke_Key.backspace	Key.backspace	n/a
717.1395	0.06	1434279	keystroke_s	s	n/a
717.2445	0.075	1434489	keystroke_Key.space	Key.space	n/a
718.2945	0.09	1436589	keystroke_d	d	n/a
718.4445	0.15	1436889	keystroke_i	i	n/a
718.5795	0.105	1437159	keystroke_n	n	n/a
