onset	duration	sample	value	key	prompt_text
18.44	12.589	36880	prompt	n/a	the quick brown fox jumps over a lazy dog\n
21.0995	0.012	42199	keystroke_t	t	n/a
21.1715	0.12	42343	keystroke_h	h	n/a
21.2765	0.06	42553	keystroke_e	e	n/a
21.3665	0.12	42733	keystroke_Key.space	Key.space	n/a
21.8015	0.06	43603	keystroke_q	q	n/a
21.9215	0.135	43843	keystroke_u	u	n/a
22.0265	0.105	44053	keystroke_i	i	n/a
22.1765	0.105	44353	keystroke_c	c	n/a
22.2665	0.195	44533	keystroke_k	k	n/a
22.4015	0.105	44803	keystroke_Key.space	Key.space	n/a
22.7915	0.105	45583	keystroke_b	b	n/a
22.9415	0.105	45883	keystroke_r	r	n/a
23.0765	0.045	46153	keystroke_i	i	n/a
23.1815	0.06	46363	keystroke_w	w	n/a
23.6165	0.045	47233	keystroke_Key.backspace	Key.backspace	n/a
23.7365	0.045	47473	keystroke_Key.backspace	Key.backspace	n/a
24.6215	0.075	49243	keystroke_o	o	n/a
24.8615	0.06	49723	keystroke_w	w	n/a
25.0115	0.135	50023	keystroke_n	n	n/a
25.0865	0.12	50173	keystroke_Key.space	Key.space	n/a
25.2665	0.075	50533	keystroke_f	f	n/a
25.4165	0.03	50833	keystroke_o	o	n/a
25.7315	0.075	51463	keystroke_x	x	n/a
25.8665	0.12	51733	keystroke_Key.space	Key.space	n/a
26.7815	0.06	53563	keystroke_j	j	n/a
26.9765	0.075	53953	keystroke_u	u	n/a
27.1865	0.105	54373	keystroke_m	m	n/a
27.3065	0.12	54613	keystroke_p	p	n/a
28.0115	0.075	56023	keystroke_s	s	n/a
28.1015	0.09	56203	keystroke_Key.space	Key.space	n/a
28.2365	0.09	56473	keystroke_o	o	n/a
28.3115	0.06	56623	keystroke_v	v	n/a
28.4765	0.135	56953	keystroke_e	e	n/a
28.5665	0.105	57133	keystroke_r	r	n/a
28.6565	0.09	57313	keystroke_Key.space	Key.space	n/a
28.7915	0.09	57583	keystroke_a	a	n/a
28.8965	0.075	57793	keystroke_Key.space	Key.space	n/a
29.0615	0.075	58123	keystroke_l	l	n/a
29.1515	0.075	58303	keystroke_a	a	n/a
29.9165	0.075	59833	keystroke_z	z	n/a
30.2765	0.165	60553	keystroke_y	y	n/a
30.4115	0.105	60823	keystroke_Key.space	Key.space	n/a
30.5615	0.09	61123	keystroke_d	d	n/a
30.6965	0.075	61393	keystroke_o	o	n/a
30.8315	0.075	61663	keystroke_g	g	n/a
30.9665	0.06	61933	keystroke_Key.enter	Key.enter	n/a
31.0335	9.01	62067	prompt	n/a	contracts phases why's dispatched\n
31.8365	0.09	63673	keystroke_c	c	n/a
31.9415	0.12	63883	keystroke_o	o	n/a
32.0465	0.105	64093	keystroke_n	n	n/a
32.1215	0.06	64243	keystroke_t	t	n/a
32.2865	0.06	64573	keystroke_r	r	n/a
32.4065	0.105	64813	keystroke_a	a	n/a
32.8265	0.045	65653	keystroke_c	c	n/a
33.0065	0.075	66013	keystroke_t	t	n/a
33.2015	0.09	66403	keystroke_s	s	n/a
33.3365	0.105	66673	keystroke_Key.space	Key.space	n/a
33.7415	0.06	67483	keystroke_p	p	n/a
33.9365	0.09	67873	keystroke_h	h	n/a
34.0565	0.075	68113	keystroke_a	a	n/a
34.2365	0.09	68473	keystroke_s	s	n/a
34.3415	0.105	68683	keystroke_e	e	n/a
34.5065	0.09	69013	keystroke_s	s	n/a
34.6115	0.105	69223	keystroke_Key.space	Key.space	n/a
35.5565	0.045	71113	keystroke_w	w	n/a
35.6165	0.06	71233	keystroke_h	h	n/a
35.8115	0.09	71623	keystroke_y	y	n/a
36.3065	0.105	72613	keystroke_'	'	n/a
36.4115	0.075	72823	keystroke_s	s	n/a
36.5315	0.09	73063	keystroke_Key.space	Key.space	n/a
37.6715	0.075	75343	keystroke_d	d	n/a
37.7765	0.09	75553	keystroke_i	i	n/a
38.5415	0.075	77083	keystroke_s	s	n/a
39.0215	0.09	78043	keystroke_p	p	n/a
39.1265	0.075	78253	keystroke_a	a	n/a
39.2465	0.075	78493	keystroke_t	t	n/a
39.5165	0.09	79033	keystroke_c	c	n/a
39.6215	0.105	79243	keystroke_h	h	n/a
39.7115	0.06	79423	keystroke_e	e	n/a
39.8615	0.06	79723	keystroke_d	d	n/a
39.9515	0.09	79903	keystroke_Key.enter	Key.enter	n/a
40.0465	11.7725	80093	prompt	n/a	colombia mailto sugar utilize\n
40.8065	0.06	81613	keystroke_c	c	n/a
40.9415	0.075	81883	keystroke_o	o	n/a
41.1515	0.09	82303	keystroke_l	l	n/a
41.3315	0.09	82663	keystroke_o	o	n/a
41.6465	0.105	83293	keystroke_m	m	n/a
41.9015	0.12	83803	keystroke_b	b	n/a
42.0515	0.075	84103	keystroke_i	i	n/a
42.2015	0.09	84403	keystroke_a	a	n/a
42.3365	0.09	84673	keystroke_Key.space	Key.space	n/a
42.5165	0.075	85033	keystroke_m	m	n/a
42.9965	0.075	85993	keystroke_a	a	n/a
43.1915	0.06	86383	keystroke_i	i	n/a
43.5065	0.06	87013	keystroke_l	l	n/a
45.4565	0.06	90913	keystroke_t	t	n/a
45.5915	0.06	91183	keystroke_o	o	n/a
46.2515	0.105	92503	keystroke_Key.space	Key.space	n/a
46.6115	0.075	93223	keystroke_s	s	n/a
46.7465	0.09	93493	keystroke_u	u	n/a
47.6465	0.06	95293	keystroke_g	g	n/a
47.7965	0.105	95593	keystroke_a	a	n/a
47.9325	0.074	95865	keystroke_r	r	n/a
48.0515	0.105	96103	keystroke_Key.space	Key.space	n/a
48.5315	0.075	97063	keystroke_u	u	n/a
49.0415	0.06	98083	keystroke_t	t	n/a
49.1765	0.06	98353	keystroke_i	i	n/a
49.3715	0.12	98743	keystroke_l	l	n/a
49.4765	0.09	98953	keystroke_i	i	n/a
49.7315	0.06	99463	keystroke_z	z	n/a
49.9265	0.075	99853	keystroke_w	w	n/a
51.1115	0.09	102223	keystroke_Key.backspace	Key.backspace	n/a
51.5165	0.045	103033	keystroke_e	e	n/a
51.7565	0.06	103513	keystroke_Key.enter	Key.enter	n/a
51.8225	8.0965	103645	prompt	n/a	lower pioneer census thumb\n
52.8365	0.061	105673	keystroke_l	l	n/a
53.2865	0.061	106573	keystroke_o	o	n/a
53.3615	0.106	106723	keystroke_w	w	n/a
53.4365	0.15	106873	keystroke_e	e	n/a
53.5715	0.075	107143	keystroke_r	r	n/a
53.8265	0.105	107653	keystroke_Key.space	Key.space	n/a
54.8915	0.105	109783	keystroke_p	p	n/a
55.1315	0.091	110263	keystroke_i	i	n/a
55.3265	0.06	110653	keystroke_o	o	n/a
55.5225	0.089	111045	keystroke_n	n	n/a
55.8065	0.015	111613	keystroke_e	e	n/a
55.9415	0.015	111883	keystroke_e	e	n/a
56.6165	0.09	113233	keystroke_r	r	n/a
56.7215	0.09	113443	keystroke_Key.space	Key.space	n/a
56.9615	0.061	113923	keystroke_c	c	n/a
57.1125	0.074	114225	keystroke_e	e	n/a
57.2325	0.09	114465	keystroke_n	n	n/a
57.4415	0.076	114883	keystroke_s	s	n/a
57.5915	0.12	115183	keystroke_u	u	n/a
57.7865	0.061	115573	keystroke_s	s	n/a
58.1315	0.105	116263	keystroke_Key.space	Key.space	n/a
58.6565	0.06	117313	keystroke_t	t	n/a
58.7315	0.09	117463	keystroke_h	h	n/a
58.9415	0.09	117883	keystroke_u	u	n/a
59.4815	0.06	118963	keystroke_m	m	n/a
59.6765	0.075	119353	keystroke_b	b	n/a
59.8715	0.045	119743	keystroke_Key.enter	Key.enter	n/a
59.922	9.897	119844	prompt	n/a	comments floyd panasonic hybrid\n
60.6965	0.075	121393	keystroke_c	c	n/a
60.8015	0.09	121603	keystroke_o	o	n/a
60.9965	0.06	121993	keystroke_m	m	n/a
61.1315	0.075	122263	keystroke_m	m	n/a
61.2365	0.075	122473	keystroke_e	e	n/a
61.3865	0.09	122773	keystroke_n	n	n/a
61.4775	0.089	122955	keystroke_t	t	n/a
61.6415	0.075	123283	keystroke_s	s	n/a
61.7315	0.105	123463	keystroke_Key.space	Key.space	n/a
62.3915	0.075	124783	keystroke_f	f	n/a
62.5565	0.09	125113	keystroke_l	l	n/a
62.8115	0.06	125623	keystroke_o	o	n/a
63.3815	0.06	126763	keystroke_y	y	n/a
64.2215	0.06	128443	keystroke_d	d	n/a
64.8215	0.135	129643	keystroke_Key.space	Key.space	n/a
65.1665	0.09	130333	keystroke_p	p	n/a
65.4215	0.105	130843	keystroke_a	a	n/a
65.6315	0.09	131263	keystroke_n	n	n/a
65.7515	0.09	131503	keystroke_a	a	n/a
66.0365	0.045	132073	keystroke_s	s	n/a
66.1265	0.06	132253	keystroke_o	o	n/a
66.2915	0.09	132583	keystroke_n	n	n/a
66.3965	0.09	132793	keystroke_i	i	n/a
66.5165	0.075	133033	keystroke_c	c	n/a
67.2215	0.075	134443	keystroke_Key.space	Key.space	n/a
68.3615	0.09	136723	keystroke_h	h	n/a
68.5865	0.09	137173	keystroke_y	y	n/a
69.0665	0.09	138133	keystroke_b	b	n/a
69.2465	0.075	138493	keystroke_r	r	n/a
69.3815	0.105	138763	keystroke_i	i	n/a
69.5315	0.09	139063	keystroke_d	d	n/a
69.7265	0.09	139453	keystroke_Key.enter	Key.enter	n/a
69.822	9.342	139644	prompt	n/a	registry crime supervisors heritage\n
71.0165	0.135	142033	keystroke_r	r	n/a
71.1665	0.06	142333	keystroke_e	e	n/a
71.4215	0.075	142843	keystroke_g	g	n/a
71.5115	0.09	143023	keystroke_i	i	n/a
71.6465	0.075	143293	keystroke_s	s	n/a
71.8115	0.045	143623	keystroke_t	t	n/a
71.9765	0.09	143953	keystroke_r	r	n/a
72.1415	0.075	144283	keystroke_y	y	n/a
72.5915	0.09	145183	keystroke_Key.space	Key.space	n/a
72.9365	0.075	145873	keystroke_c	c	n/a
73.1465	0.09	146293	keystroke_r	r	n/a
73.2815	0.15	146563	keystroke_i	i	n/a
73.3715	0.12	146743	keystroke_m	m	n/a
73.5815	0.06	147163	keystroke_e	e	n/a
73.7165	0.105	147433	keystroke_Key.space	Key.space	n/a
74.9015	0.105	149803	keystroke_s	s	n/a
75.0215	0.06	150043	keystroke_u	u	n/a
75.1715	0.09	150343	keystroke_p	p	n/a
75.2915	0.12	150583	keystroke_e	e	n/a
75.3665	0.09	150733	keystroke_r	r	n/a
76.1465	0.09	152293	keystroke_v	v	n/a
76.2815	0.105	152563	keystroke_i	i	n/a
76.4165	0.09	152833	keystroke_s	s	n/a
76.5515	0.09	153103	keystroke_o	o	n/a
76.7015	0.075	153403	keystroke_r	r	n/a
76.9115	0.09	153823	keystroke_s	s	n/a
77.5715	0.09	155143	keystroke_Key.space	Key.space	n/a
77.9015	0.06	155803	keystroke_h	h	n/a
78.0065	0.12	156013	keystroke_e	e	n/a
78.2165	0.075	156433	keystroke_r	r	n/a
78.3215	0.075	156643	keystroke_i	i	n/a
78.5165	0.06	157033	keystroke_t	t	n/a
78.6365	0.045	157273	keystroke_a	a	n/a
78.8165	0.075	157633	keystroke_g	g	n/a
78.9515	0.06	157903	keystroke_e	e	n/a
79.1015	0.06	158203	keystroke_Key.enter	Key.enter	n/a
79.167	10.122	158334	prompt	n/a	monetary scoring alone beginning\n
79.9115	0.09	159823	keystroke_m	m	n/a
80.0465	0.105	160093	keystroke_o	o	n/a
80.2265	0.075	160453	keystroke_n	n	n/a
80.3165	0.075	160633	keystroke_e	e	n/a
80.4515	0.075	160903	keystroke_t	t	n/a
80.7215	0.105	161443	keystroke_a	a	n/a
81.0065	0.045	162013	keystroke_r	r	n/a
81.0965	0.105	162193	keystroke_y	y	n/a
81.2615	0.09	162523	keystroke_Key.space	Key.space	n/a
81.3665	0.075	162733	keystroke_s	s	n/a
81.5015	0.105	163003	keystroke_c	c	n/a
81.6215	0.09	163243	keystroke_o	o	n/a
81.8315	0.045	163663	keystroke_r	r	n/a
81.9215	0.18	163843	keystroke_i	i	n/a
82.0715	0.12	164143	keystroke_n	n	n/a
82.2215	0.09	164443	keystroke_g	g	n/a
82.3415	0.135	164683	keystroke_Key.space	Key.space	n/a
82.5815	0.06	165163	keystroke_a	a	n/a
82.7315	0.061	165463	keystroke_l	l	n/a
82.8965	0.121	165793	keystroke_o	o	n/a
82.9865	0.12	165973	keystroke_n	n	n/a
83.1215	0.09	166243	keystroke_e	e	n/a
83.2715	0.12	166543	keystroke_Key.space	Key.space	n/a
83.4815	0.061	166963	keystroke_b	b	n/a
83.5715	0.075	167143	keystroke_e	e	n/a
83.7815	0.075	167563	keystroke_g	g	n/a
83.9015	0.105	167803	keystroke_i	i	n/a
84.1115	0.09	168223	keystroke_n	n	n/a
84.2315	0.15	168463	keystroke_i	i	n/a
84.3515	0.105	168703	keystroke_n	n	n/a
84.5015	0.091	169003	keystroke_g	g	n/a
84.6215	0.09	169243	keystroke_Key.space	Key.space	n/a
85.8665	0.076	171733	keystroke_Key.backspace	Key.backspace	n/a
86.1215	0.06	172243	keystroke_Key.backspace	Key.backspace	n/a
86.8565	0.045	173713	keystroke_Key.backspace	Key.backspace	n/a
87.2765	0.06	174553	keystroke_Key.backspace	Key.backspace	n/a
88.2225	0.089	176445	keystroke_n	n	n/a
88.4165	0.106	176833	keystroke_i	i	n/a
88.5825	0.089	177165	keystroke_n	n	n/a
88.7325	0.06	177465	keystroke_g	g	n/a
89.2115	0.075	178423	keystroke_Key.enter	Key.enter	n/a
89.2945	10.5245	178589	prompt	n/a	underwear childrens customer modified\n
89.9925	0.075	179985	keystroke_u	u	n/a
90.1865	0.09	180373	keystroke_n	n	n/a
90.2925	0.059	180585	keystroke_d	d	n/a
90.6375	0.119	181275	keystroke_e	e	n/a
90.6965	0.105	181393	keystroke_r	r	n/a
90.9215	0.135	181843	keystroke_w	w	n/a
91.4615	0.091	182923	keystroke_e	e	n/a
91.5815	0.135	183163	keystroke_a	a	n/a
91.7025	0.074	183405	keystroke_r	r	n/a
92.122	0.09	184244	keystroke_Key.space	Key.space	n/a
92.407	0.09	184814	keystroke_c	c	n/a
92.512	0.105	185024	keystroke_h	h	n/a
92.632	0.09	185264	keystroke_i	i	n/a
93.172	0.015	186344	keystroke_l	l	n/a
93.202	0.045	186404	keystroke_d	d	n/a
93.427	0.105	186854	keystroke_r	r	n/a
93.547	0.045	187094	keystroke_e	e	n/a
93.937	0.09	187874	keystroke_n	n	n/a
94.072	0.075	188144	keystroke_s	s	n/a
94.177	0.09	188354	keystroke_Key.space	Key.space	n/a
94.522	0.09	189044	keystroke_c	c	n/a
94.672	0.09	189344	keystroke_u	u	n/a
94.807	0.06	189614	keystroke_s	s	n/a
94.942	0.09	189884	keystroke_t	t	n/a
95.062	0.135	190124	keystroke_o	o	n/a
95.182	0.12	190364	keystroke_m	m	n/a
95.317	0.105	190634	keystroke_e	e	n/a
95.947	0.06	191894	keystroke_r	r	n/a
96.052	0.105	192104	keystroke_Key.space	Key.space	n/a
96.367	0.09	192734	keystroke_m	m	n/a
96.502	0.09	193004	keystroke_i	i	n/a
97.507	0.075	195014	keystroke_Key.backspace	Key.backspace	n/a
97.837	0.06	195674	keystroke_o	o	n/a
98.1225	0.075	196245	keystroke_d	d	n/a
98.2875	0.06	196575	keystroke_i	i	n/a
98.5425	0.059	197085	keystroke_f	f	n/a
98.6475	0.06	197295	keystroke_i	i	n/a
98.8265	0.075	197653	keystroke_e	e	n/a
99.2775	0.045	198555	keystroke_d	d	n/a
99.7575	0.059	199515	keystroke_Key.enter	Key.enter	n/a
99.822	10.257	199644	prompt	n/a	jewel they'll collection forty\n
101.1975	0.12	202395	keystroke_j	j	n/a
101.3315	0.136	202663	keystroke_e	e	n/a
101.4375	0.135	202875	keystroke_w	w	n/a
103.8695	0.012	207739	keystroke_e	e	n/a
104.0315	0.166	208063	keystroke_l	l	n/a
104.1815	0.105	208363	keystroke_Key.space	Key.space	n/a
104.4675	0.075	208935	keystroke_t	t	n/a
104.5575	0.09	209115	keystroke_h	h	n/a
104.6615	0.075	209323	keystroke_e	e	n/a
105.0075	0.09	210015	keystroke_y	y	n/a
105.9975	0.104	211995	keystroke_'	'	n/a
106.4615	0.045	212923	keystroke_l	l	n/a
106.6125	0.134	213225	keystroke_l	l	n/a
106.7325	0.149	213465	keystroke_Key.space	Key.space	n/a
106.9275	0.105	213855	keystroke_c	c	n/a
107.0475	0.105	214095	keystroke_o	o	n/a
107.8875	0.06	215775	keystroke_l	l	n/a
108.0375	0.09	216075	keystroke_l	l	n/a
108.1115	0.076	216223	keystroke_e	e	n/a
108.2325	0.06	216465	keystroke_c	c	n/a
108.4125	0.06	216825	keystroke_t	t	n/a
108.4875	0.105	216975	keystroke_i	i	n/a
108.5625	0.135	217125	keystroke_o	o	n/a
108.6675	0.165	217335	keystroke_n	n	n/a
108.8015	0.12	217603	keystroke_Key.space	Key.space	n/a
109.1025	0.045	218205	keystroke_f	f	n/a
109.1925	0.105	218385	keystroke_o	o	n/a
109.3275	0.06	218655	keystroke_r	r	n/a
109.4775	0.075	218955	keystroke_t	t	n/a
109.5825	0.105	219165	keystroke_y	y	n/a
110.0625	0.015	220125	keystroke_Key.enter	Key.enter	n/a
110.082	8.231	220164	prompt	n/a	vinyl foods lone don't\n
111.3075	0.075	222615	keystroke_v	v	n/a
111.3975	0.195	222795	keystroke_i	i	n/a
111.5325	0.12	223065	keystroke_n	n	n/a
112.8225	0.06	225645	keystroke_y	y	n/a
113.0025	0.149	226005	keystroke_l	l	n/a
113.1365	0.12	226273	keystroke_Key.space	Key.space	n/a
113.3325	0.09	226665	keystroke_g	g	n/a
113.4375	0.03	226875	keystroke_o	o	n/a
113.5725	0.045	227145	keystroke_o	o	n/a
114.0525	0.06	228105	keystroke_Key.backspace	Key.backspace	n/a
114.2015	0.031	228403	keystroke_Key.backspace	Key.backspace	n/a
114.3075	0.06	228615	keystroke_Key.backspace	Key.backspace	n/a
114.4725	0.105	228945	keystroke_f	f	n/a
114.9675	0.045	229935	keystroke_o	o	n/a
115.1175	0.045	230235	keystroke_o	o	n/a
115.4625	0.06	230925	keystroke_d	d	n/a
116.1375	0.075	232275	keystroke_s	s	n/a
116.2425	0.105	232485	keystroke_Key.space	Key.space	n/a
116.7375	0.06	233475	keystroke_l	l	n/a
116.9175	0.135	233835	keystroke_o	o	n/a
117.0375	0.12	234075	keystroke_n	n	n/a
117.1575	0.075	234315	keystroke_e	e	n/a
117.2615	0.076	234523	keystroke_Key.space	Key.space	n/a
117.4425	0.09	234885	keystroke_d	d	n/a
117.5175	0.12	235035	keystroke_o	o	n/a
117.5925	0.15	235185	keystroke_n	n	n/a
117.7575	0.0895	235515	keystroke_'	'	n/a
117.877	0.09	235754	keystroke_t	t	n/a
118.237	0.075	236474	keystroke_Key.enter	Key.enter	n/a
118.316	8.397	236632	prompt	n/a	bizrate living remaining paying\n
120.564	0.013	241128	keystroke_b	b	n/a
120.697	0.075	241394	keystroke_i	i	n/a
121.057	0.075	242114	keystroke_z	z	n/a
121.327	0.12	242654	keystroke_r	r	n/a
121.462	0.09	242924	keystroke_a	a	n/a
121.642	0.105	243284	keystroke_t	t	n/a
121.792	0.075	243584	keystroke_e	e	n/a
121.942	0.12	243884	keystroke_Key.space	Key.space	n/a
122.167	0.075	244334	keystroke_l	l	n/a
122.302	0.075	244604	keystroke_i	i	n/a
122.407	0.09	244814	keystroke_v	v	n/a
122.512	0.15	245024	keystroke_i	i	n/a
122.617	0.105	245234	keystroke_n	n	n/a
122.737	0.075	245474	keystroke_g	g	n/a
123.187	0.105	246374	keystroke_Key.space	Key.space	n/a
123.562	0.135	247124	keystroke_r	r	n/a
123.682	0.075	247364	keystroke_e	e	n/a
123.787	0.105	247574	keystroke_m	m	n/a
123.937	0.045	247874	keystroke_a	a	n/a
124.087	0.12	248174	keystroke_i	i	n/a
124.207	0.075	248414	keystroke_n	n	n/a
124.297	0.135	248594	keystroke_i	i	n/a
124.402	0.09	248804	keystroke_n	n	n/a
124.852	0.045	249704	keystroke_g	g	n/a
124.972	0.075	249944	keystroke_Key.space	Key.space	n/a
125.632	0.09	251264	keystroke_p	p	n/a
125.767	0.075	251534	keystroke_a	a	n/a
125.932	0.105	251864	keystroke_y	y	n/a
126.052	0.15	252104	keystroke_i	i	n/a
126.187	0.09	252374	keystroke_n	n	n/a
126.292	0.06	252584	keystroke_g	g	n/a
126.652	0.06	253304	keystroke_Key.enter	Key.enter	n/a
126.7165	9.821	253433	prompt	n/a	identifying supply profession recommend\n
127.6115	0.06	255223	keystroke_i	i	n/a
127.6865	0.075	255373	keystroke_d	d	n/a
127.8365	0.075	255673	keystroke_e	e	n/a
127.9565	0.105	255913	keystroke_n	n	n/a
128.3165	0.075	256633	keystroke_t	t	n/a
129.6965	0.105	259393	keystroke_i	i	n/a
129.9815	0.06	259963	keystroke_f	f	n/a
130.1615	0.09	260323	keystroke_y	y	n/a
130.3115	0.195	260623	keystroke_i	i	n/a
130.4615	0.105	260923	keystroke_n	n	n/a
130.9865	0.105	261973	keystroke_g	g	n/a
131.1965	0.09	262393	keystroke_Key.space	Key.space	n/a
131.7515	0.06	263503	keystroke_s	s	n/a
131.9015	0.09	263803	keystroke_u	u	n/a
132.0815	0.075	264163	keystroke_p	p	n/a
132.2315	0.06	264463	keystroke_p	p	n/a
132.4115	0.075	264823	keystroke_l	l	n/a
132.6215	0.18	265243	keystroke_y	y	n/a
132.7565	0.12	265513	keystroke_Key.space	Key.space	n/a
133.1165	0.09	266233	keystroke_p	p	n/a
133.2815	0.075	266563	keystroke_r	r	n/a
133.3715	0.06	266743	keystroke_o	o	n/a
133.5065	0.12	267013	keystroke_f	f	n/a
133.6415	0.075	267283	keystroke_e	e	n/a
133.8215	0.06	267643	keystroke_s	s	n/a
133.9715	0.045	267943	keystroke_s	s	n/a
134.0315	0.12	268063	keystroke_i	i	n/a
134.1665	0.12	268333	keystroke_o	o	n/a
134.2715	0.165	268543	keystroke_n	n	n/a
134.4515	0.105	268903	keystroke_Key.space	Key.space	n/a
134.8415	0.135	269683	keystroke_r	r	n/a
134.9465	0.12	269893	keystroke_e	e	n/a
135.1715	0.09	270343	keystroke_c	c	n/a
135.3065	0.135	270613	keystroke_o	o	n/a
135.5015	0.09	271003	keystroke_m	m	n/a
135.6515	0.075	271303	keystroke_m	m	n/a
135.7715	0.09	271543	keystroke_e	e	n/a
135.9215	0.105	271843	keystroke_n	n	n/a
136.2215	0.06	272443	keystroke_d	d	n/a
136.4465	0.09	272893	keystroke_Key.enter	Key.enter	n/a
136.5405	9.327	273081	prompt	n/a	loose consultant starring stem\n
137.1965	0.075	274393	keystroke_l	l	n/a
137.3915	0.045	274783	keystroke_o	o	n/a
137.5715	0.045	275143	keystroke_o	o	n/a
137.7365	0.105	275473	keystroke_s	s	n/a
138.2915	0.06	276583	keystroke_e	e	n/a
138.4265	0.075	276853	keystroke_Key.space	Key.space	n/a
138.6065	0.09	277213	keystroke_c	c	n/a
138.6815	0.15	277363	keystroke_o	o	n/a
138.7865	0.105	277573	keystroke_n	n	n/a
138.9665	0.075	277933	keystroke_s	s	n/a
139.1165	0.105	278233	keystroke_u	u	n/a
139.6715	0.06	279343	keystroke_l	l	n/a
139.8965	0.075	279793	keystroke_t	t	n/a
140.0015	0.12	280003	keystroke_a	a	n/a
140.1515	0.03	280303	keystroke_t	t	n/a
140.7965	0.075	281593	keystroke_Key.backspace	Key.backspace	n/a
141.0215	0.09	282043	keystroke_n	n	n/a
141.1265	0.06	282253	keystroke_t	t	n/a
141.6665	0.105	283333	keystroke_Key.space	Key.space	n/a
141.9215	0.06	283843	keystroke_s	s	n/a
142.1165	0.075	284233	keystroke_t	t	n/a
142.3115	0.12	284623	keystroke_a	a	n/a
142.8215	0.045	285643	keystroke_r	r	n/a
142.9415	0.09	285883	keystroke_r	r	n/a
143.0615	0.135	286123	keystroke_i	i	n/a
143.1515	0.09	286303	keystroke_n	n	n/a
143.4065	0.06	286813	keystroke_Key.space	Key.space	n/a
143.7815	0.075	287563	keystroke_Key.backspace	Key.backspace	n/a
144.4865	0.09	288973	keystroke_g	g	n/a
144.6215	0.09	289243	keystroke_Key.space	Key.space	n/a
144.9365	0.09	289873	keystroke_s	s	n/a
145.1015	0.09	290203	keystroke_t	t	n/a
145.2665	0.09	290533	keystroke_e	e	n/a
145.3865	0.105	290773	keystroke_m	m	n/a
145.7765	0.09	291553	keystroke_Key.enter	Key.enter	n/a
145.8705	11.202	291741	prompt	n/a	dennis variable monkey necklace\n
146.5865	0.06	293173	keystroke_d	d	n/a
146.7365	0.06	293473	keystroke_e	e	n/a
146.8265	0.06	293653	keystroke_n	n	n/a
146.9765	0.075	293953	keystroke_n	n	n/a
147.0965	0.105	294193	keystroke_i	i	n/a
147.2465	0.075	294493	keystroke_s	s	n/a
147.3515	0.105	294703	keystroke_Key.space	Key.space	n/a
147.6065	0.09	295213	keystroke_c	c	n/a
147.7565	0.105	295513	keystroke_a	a	n/a
148.1465	0.075	296293	keystroke_r	r	n/a
148.2515	0.105	296503	keystroke_i	i	n/a
148.3715	0.075	296743	keystroke_a	a	n/a
148.4765	0.06	296953	keystroke_b	b	n/a
148.6415	0.09	297283	keystroke_l	l	n/a
148.7915	0.09	297583	keystroke_e	e	n/a
148.8965	0.12	297793	keystroke_Key.space	Key.space	n/a
149.0315	0.105	298063	keystroke_m	m	n/a
149.4515	0.06	298903	keystroke_Key.backspace	Key.backspace	n/a
149.5865	0.06	299173	keystroke_Key.backspace	Key.backspace	n/a
149.7365	0.06	299473	keystroke_Key.backspace	Key.backspace	n/a
149.8865	0.06	299773	keystroke_Key.backspace	Key.backspace	n/a
150.0515	0.03	300103	keystroke_Key.backspace	Key.backspace	n/a
150.1865	0.045	300373	keystroke_Key.backspace	Key.backspace	n/a
150.3365	0.045	300673	keystroke_Key.backspace	Key.backspace	n/a
150.4865	0.045	300973	keystroke_Key.backspace	Key.backspace	n/a
150.6365	0.045	301273	keystroke_Key.backspace	Key.backspace	n/a
150.8015	0.03	301603	keystroke_Key.backspace	Key.backspace	n/a
151.4915	0.09	302983	keystroke_v	v	n/a
151.6565	0.075	303313	keystroke_a	a	n/a
152.0315	0.045	304063	keystroke_r	r	n/a
152.1665	0.12	304333	keystroke_i	i	n/a
152.2715	0.09	304543	keystroke_a	a	n/a
152.4365	0.09	304873	keystroke_b	b	n/a
152.6315	0.075	305263	keystroke_l	l	n/a
152.7665	0.06	305533	keystroke_e	e	n/a
152.8565	0.135	305713	keystroke_Key.space	Key.space	n/a
153.0515	0.09	306103	keystroke_m	m	n/a
153.1565	0.165	306313	keystroke_o	o	n/a
153.3065	0.075	306613	keystroke_n	n	n/a
153.5015	0.075	307003	keystroke_k	k	n/a
153.6365	0.075	307273	keystroke_e	e	n/a
153.8015	0.06	307603	keystroke_y	y	n/a
154.4015	0.09	308803	keystroke_Key.space	Key.space	n/a
154.8815	0.015	309763	keystroke_e	e	n/a
155.2715	0.06	310543	keystroke_Key.backspace	Key.backspace	n/a
155.9015	0.135	311803	keystroke_n	n	n/a
156.0515	0.015	312103	keystroke_e	e	n/a
156.2165	0.075	312433	keystroke_c	c	n/a
156.3065	0.06	312613	keystroke_k	k	n/a
156.4865	0.075	312973	keystroke_l	l	n/a
156.6065	0.06	313213	keystroke_a	a	n/a
156.7715	0.105	313543	keystroke_c	c	n/a
156.8615	0.075	313723	keystroke_e	e	n/a
157.0265	0.045	314053	keystroke_Key.enter	Key.enter	n/a
157.0755	13.467	314151	prompt	n/a	spectacular instructors faqs jazz\n
158.0015	0.075	316003	keystroke_s	s	n/a
158.1515	0.105	316303	keystroke_p	p	n/a
158.2715	0.045	316543	keystroke_e	e	n/a
158.4215	0.105	316843	keystroke_c	c	n/a
158.7065	0.09	317413	keystroke_t	t	n/a
158.9315	0.075	317863	keystroke_a	a	n/a
159.5165	0.09	319033	keystroke_c	c	n/a
159.6515	0.075	319303	keystroke_u	u	n/a
159.8315	0.075	319663	keystroke_l	l	n/a
160.0115	0.135	320023	keystroke_a	a	n/a
160.1315	0.045	320263	keystroke_r	r	n/a
160.2665	0.09	320533	keystroke_Key.space	Key.space	n/a
161.1065	0.075	322213	keystroke_i	i	n/a
161.2565	0.105	322513	keystroke_n	n	n/a
161.4365	0.09	322873	keystroke_s	s	n/a
161.6465	0.06	323293	keystroke_t	t	n/a
161.8265	0.06	323653	keystroke_r	r	n/a
161.9465	0.075	323893	keystroke_u	u	n/a
162.0515	0.06	324103	keystroke_c	c	n/a
162.2315	0.075	324463	keystroke_t	t	n/a
162.3365	0.09	324673	keystroke_o	o	n/a
162.4415	0.09	324883	keystroke_r	r	n/a
162.7865	0.075	325573	keystroke_s	s	n/a
162.9065	0.105	325813	keystroke_Key.space	Key.space	n/a
164.0615	0.045	328123	keystroke_f	f	n/a
164.2115	0.06	328423	keystroke_a	a	n/a
165.2615	0.09	330523	keystroke_q	q	n/a
166.1765	0.075	332353	keystroke_s	s	n/a
166.3115	0.135	332623	keystroke_Key.space	Key.space	n/a
167.3465	0.06	334693	keystroke_Key.backspace	Key.backspace	n/a
167.5115	0.03	335023	keystroke_Key.backspace	Key.backspace	n/a
168.8015	0.075	337603	keystroke_s	s	n/a
169.1165	0.12	338233	keystroke_Key.space	Key.space	n/a
169.6265	0.09	339253	keystroke_j	j	n/a
169.7765	0.06	339553	keystroke_a	a	n/a
170.2115	0.045	340423	keystroke_z	z	n/a
170.3465	0.06	340693	keystroke_z	z	n/a
170.4815	0.06	340963	keystroke_Key.enter	Key.enter	n/a
170.546	8.547	341092	prompt	n/a	insider society quantum radiation\n
171.3515	0.09	342703	keystroke_i	i	n/a
171.5165	0.105	343033	keystroke_n	n	n/a
172.1765	0.045	344353	keystroke_s	s	n/a
172.6715	0.09	345343	keystroke_i	i	n/a
172.7315	0.09	345463	keystroke_d	d	n/a
172.9265	0.165	345853	keystroke_e	e	n/a
173.0765	0.09	346153	keystroke_r	r	n/a
173.2415	0.15	346483	keystroke_Key.space	Key.space	n/a
173.5265	0.075	347053	keystroke_s	s	n/a
173.6315	0.12	347263	keystroke_o	o	n/a
173.7965	0.09	347593	keystroke_c	c	n/a
173.8865	0.09	347773	keystroke_i	i	n/a
174.0365	0.075	348073	keystroke_e	e	n/a
174.2165	0.06	348433	keystroke_t	t	n/a
174.3515	0.09	348703	keystroke_y	y	n/a
174.8315	0.045	349663	keystroke_Key.space	Key.space	n/a
175.9415	0.075	351883	keystroke_q	q	n/a
176.1665	0.06	352333	keystroke_u	u	n/a
176.2865	0.09	352573	keystroke_a	a	n/a
176.5415	0.105	353083	keystroke_n	n	n/a
176.7515	0.06	353503	keystroke_t	t	n/a
176.8715	0.075	353743	keystroke_u	u	n/a
177.1415	0.105	354283	keystroke_m	m	n/a
177.2765	0.09	354553	keystroke_Key.space	Key.space	n/a
177.6815	0.09	355363	keystroke_r	r	n/a
177.9365	0.075	355873	keystroke_a	a	n/a
178.2215	0.09	356443	keystroke_d	d	n/a
178.3565	0.06	356713	keystroke_i	i	n/a
178.4615	0.075	356923	keystroke_a	a	n/a
178.5665	0.075	357133	keystroke_t	t	n/a
178.6565	0.12	357313	keystroke_i	i	n/a
178.7615	0.09	357523	keystroke_o	o	n/a
178.8215	0.09	357643	keystroke_n	n	n/a
179.0315	0.06	358063	keystroke_Key.enter	Key.enter	n/a
179.0965	6.101	358193	prompt	n/a	communicate pushing zone intake\n
179.9465	0.075	359893	keystroke_c	c	n/a
180.0365	0.105	360073	keystroke_o	o	n/a
180.2465	0.06	360493	keystroke_m	m	n/a
180.3815	0.075	360763	keystroke_m	m	n/a
180.6215	0.06	361243	keystroke_u	u	n/a
180.8165	0.135	361633	keystroke_n	n	n/a
180.9515	0.09	361903	keystroke_i	i	n/a
181.3865	0.045	362773	keystroke_c	c	n/a
181.4615	0.135	362923	keystroke_a	a	n/a
181.5665	0.15	363133	keystroke_t	t	n/a
181.7615	0.075	363523	keystroke_e	e	n/a
181.9415	0.09	363883	keystroke_Key.space	Key.space	n/a
182.3465	0.09	364693	keystroke_p	p	n/a
182.5565	0.075	365113	keystroke_u	u	n/a
182.6915	0.06	365383	keystroke_s	s	n/a
182.7665	0.09	365533	keystroke_h	h	n/a
182.8565	0.165	365713	keystroke_i	i	n/a
182.9915	0.09	365983	keystroke_n	n	n/a
183.1115	0.09	366223	keystroke_g	g	n/a
183.2165	0.12	366433	keystroke_Key.space	Key.space	n/a
183.5915	0.075	367183	keystroke_z	z	n/a
183.6815	0.15	367363	keystroke_o	o	n/a
183.7865	0.105	367573	keystroke_n	n	n/a
183.9515	0.075	367903	keystroke_e	e	n/a
184.0715	0.09	368143	keystroke_Key.space	Key.space	n/a
184.2065	0.105	368413	keystroke_i	i	n/a
184.3265	0.09	368653	keystroke_n	n	n/a
184.6415	0.09	369283	keystroke_t	t	n/a
184.7465	0.075	369493	keystroke_a	a	n/a
184.8665	0.09	369733	keystroke_k	k	n/a
185.0015	0.06	370003	keystroke_e	e	n/a
185.1515	0.045	370303	keystroke_Key.enter	Key.enter	n/a
185.201	12.3265	370402	prompt	n/a	gains aging rings beastality\n
186.5015	0.06	373003	keystroke_g	g	n/a
186.6215	0.06	373243	keystroke_a	a	n/a
186.7265	0.165	373453	keystroke_i	i	n/a
186.8315	0.12	373663	keystroke_n	n	n/a
187.4165	0.075	374833	keystroke_s	s	n/a
187.5215	0.105	375043	keystroke_Key.space	Key.space	n/a
187.6565	0.06	375313	keystroke_a	a	n/a
187.8965	0.06	375793	keystroke_g	g	n/a
188.0765	0.06	376153	keystroke_a	a	n/a
188.1665	0.135	376333	keystroke_i	i	n/a
188.3165	0.15	376633	keystroke_n	n	n/a
189.1715	0.06	378343	keystroke_Key.backspace	Key.backspace	n/a
189.3215	0.03	378643	keystroke_Key.backspace	Key.backspace	n/a
189.4565	0.045	378913	keystroke_Key.backspace	Key.backspace	n/a
190.506	0.15	381012	keystroke_i	i	n/a
190.611	0.12	381222	keystroke_n	n	n/a
190.732	0.089	381464	keystroke_g	g	n/a
190.851	0.09	381702	keystroke_Key.space	Key.space	n/a
190.971	0.106	381942	keystroke_r	r	n/a
191.092	0.164	382184	keystroke_i	i	n/a
191.197	0.135	382394	keystroke_n	n	n/a
191.317	0.06	382634	keystroke_g	g	n/a
191.496	0.075	382992	keystroke_s	s	n/a
191.616	0.135	383232	keystroke_Key.space	Key.space	n/a
193.746	0.09	387492	keystroke_b	b	n/a
193.942	0.12	387884	keystroke_e	e	n/a
194.181	0.106	388362	keystroke_a	a	n/a
194.721	0.075	389442	keystroke_s	s	n/a
195.367	0.15	390734	keystroke_t	t	n/a
196.401	0.0755	392802	keystroke_a	a	n/a
196.626	0.1045	393252	keystroke_l	l	n/a
196.7015	0.104	393403	keystroke_i	i	n/a
196.972	0.075	393944	keystroke_t	t	n/a
197.1365	0.0745	394273	keystroke_y	y	n/a
197.4365	0.089	394873	keystroke_Key.enter	Key.enter	n/a
197.531	7.707	395062	prompt	n/a	sega dresses intersection skins\n
198.351	0.0605	396702	keystroke_s	s	n/a
198.4865	0.0895	396973	keystroke_e	e	n/a
198.7715	0.015	397543	keystroke_g	g	n/a
199.4315	0.134	398863	keystroke_Key.space	Key.space	n/a
199.9565	0.06	399913	keystroke_Key.backspace	Key.backspace	n/a
200.0765	0.075	400153	keystroke_a	a	n/a
200.2255	0.075	400451	keystroke_Key.space	Key.space	n/a
200.3915	0.089	400783	keystroke_d	d	n/a
200.5565	0.165	401113	keystroke_r	r	n/a
200.6765	0.119	401353	keystroke_e	e	n/a
200.9165	0.075	401833	keystroke_s	s	n/a
201.0665	0.075	402133	keystroke_s	s	n/a
201.2165	0.09	402433	keystroke_e	e	n/a
201.3815	0.12	402763	keystroke_s	s	n/a
201.5165	0.089	403033	keystroke_Key.space	Key.space	n/a
201.6365	0.164	403273	keystroke_i	i	n/a
201.8165	0.1045	403633	keystroke_n	n	n/a
202.0265	0.09	404053	keystroke_s	s	n/a
202.4905	0.09	404981	keystroke_Key.backspace	Key.backspace	n/a
202.6115	0.06	405223	keystroke_t	t	n/a
202.7615	0.15	405523	keystroke_e	e	n/a
202.8815	0.09	405763	keystroke_r	r	n/a
203.1055	0.151	406211	keystroke_s	s	n/a
203.2415	0.075	406483	keystroke_e	e	n/a
203.4215	0.06	406843	keystroke_c	c	n/a
203.5865	0.06	407173	keystroke_t	t	n/a
203.6615	0.12	407323	keystroke_i	i	n/a
203.7365	0.135	407473	keystroke_o	o	n/a
203.8565	0.15	407713	keystroke_n	n	n/a
203.9755	0.121	407951	keystroke_Key.space	Key.space	n/a
204.1265	0.075	408253	keystroke_s	s	n/a
204.2165	0.075	408433	keystroke_k	k	n/a
204.3815	0.165	408763	keystroke_i	i	n/a
204.5165	0.09	409033	keystroke_n	n	n/a
204.9515	0.06	409903	keystroke_s	s	n/a
205.1465	0.09	410293	keystroke_Key.enter	Key.enter	n/a
205.243	9.0245	410486	prompt	n/a	statistical spies madagascar sunday\n
206.3015	0.075	412603	keystroke_s	s	n/a
206.4965	0.075	412993	keystroke_t	t	n/a
206.6165	0.075	413233	keystroke_a	a	n/a
206.8415	0.06	413683	keystroke_t	t	n/a
206.9465	0.075	413893	keystroke_i	i	n/a
207.1115	0.075	414223	keystroke_s	s	n/a
207.2615	0.09	414523	keystroke_t	t	n/a
207.3665	0.105	414733	keystroke_i	i	n/a
207.5465	0.165	415093	keystroke_c	c	n/a
207.6965	0.075	415393	keystroke_a	a	n/a
207.8315	0.135	415663	keystroke_l	l	n/a
207.9665	0.105	415933	keystroke_Key.space	Key.space	n/a
208.1015	0.045	416203	keystroke_s	s	n/a
208.1765	0.09	416353	keystroke_p	p	n/a
208.3715	0.09	416743	keystroke_i	i	n/a
208.4765	0.105	416953	keystroke_e	e	n/a
208.6715	0.075	417343	keystroke_s	s	n/a
209.2415	0.105	418483	keystroke_Key.space	Key.space	n/a
209.6315	0.105	419263	keystroke_m	m	n/a
209.7965	0.075	419593	keystroke_a	a	n/a
210.1715	0.015	420343	keystroke_d	d	n/a
210.7715	0.015	421543	keystroke_a	a	n/a
211.5965	0.09	423193	keystroke_g	g	n/a
211.7165	0.105	423433	keystroke_a	a	n/a
211.9565	0.09	423913	keystroke_s	s	n/a
212.1515	0.105	424303	keystroke_c	c	n/a
212.3015	0.135	424603	keystroke_a	a	n/a
212.8115	0.06	425623	keystroke_r	r	n/a
212.9315	0.105	425863	keystroke_Key.space	Key.space	n/a
213.2915	0.045	426583	keystroke_s	s	n/a
213.4565	0.075	426913	keystroke_u	u	n/a
213.6515	0.075	427303	keystroke_n	n	n/a
213.7565	0.075	427513	keystroke_d	d	n/a
213.8165	0.09	427633	keystroke_a	a	n/a
213.9515	0.075	427903	keystroke_y	y	n/a
214.1915	0.075	428383	keystroke_Key.enter	Key.enter	n/a
214.271	10.062	428542	prompt	n/a	upgrades parks this claimed\n
215.9465	0.105	431893	keystroke_u	u	n/a
216.0665	0.075	432133	keystroke_u	u	n/a
216.4715	0.075	432943	keystroke_p	p	n/a
216.8465	0.06	433693	keystroke_g	g	n/a
217.3115	0.06	434623	keystroke_Key.backspace	Key.backspace	n/a
217.4615	0.03	434923	keystroke_Key.backspace	Key.backspace	n/a
217.5815	0.075	435163	keystroke_Key.backspace	Key.backspace	n/a
218.3915	0.075	436783	keystroke_p	p	n/a
218.6615	0.075	437323	keystroke_g	g	n/a
218.8565	0.105	437713	keystroke_r	r	n/a
218.9465	0.105	437893	keystroke_a	a	n/a
219.1565	0.075	438313	keystroke_d	d	n/a
219.3365	0.135	438673	keystroke_e	e	n/a
219.4265	0.12	438853	keystroke_s	s	n/a
219.5615	0.105	439123	keystroke_Key.space	Key.space	n/a
219.6965	0.12	439393	keystroke_p	p	n/a
219.8315	0.135	439663	keystroke_a	a	n/a
219.9665	0.06	439933	keystroke_r	r	n/a
220.0865	0.06	440173	keystroke_k	k	n/a
220.2365	0.09	440473	keystroke_s	s	n/a
220.3415	0.15	440683	keystroke_Key.space	Key.space	n/a
220.5515	0.075	441103	keystroke_t	t	n/a
220.6415	0.105	441283	keystroke_h	h	n/a
220.7315	0.09	441463	keystroke_i	i	n/a
220.8365	0.09	441673	keystroke_s	s	n/a
220.9715	0.075	441943	keystroke_Key.space	Key.space	n/a
221.0915	0.135	442183	keystroke_c	c	n/a
221.6465	0.09	443293	keystroke_l	l	n/a
221.7665	0.045	443533	keystroke_a	a	n/a
221.8565	0.165	443713	keystroke_i	i	n/a
223.3265	0.09	446653	keystroke_m	m	n/a
223.4465	0.06	446893	keystroke_e	e	n/a
223.6265	0.06	447253	keystroke_d	d	n/a
224.2265	0.105	448453	keystroke_Key.enter	Key.enter	n/a
224.3355	11.067	448671	prompt	n/a	digital visited subjective promotional\n
226.5685	0	453137	keystroke_d	d	n/a
226.5965	0.075	453193	keystroke_i	i	n/a
226.7315	0.09	453463	keystroke_g	g	n/a
226.8365	0.09	453673	keystroke_i	i	n/a
227.0765	0.12	454153	keystroke_t	t	n/a
227.2415	0.06	454483	keystroke_a	a	n/a
227.3765	0.09	454753	keystroke_l	l	n/a
227.5265	0.09	455053	keystroke_Key.space	Key.space	n/a
228.4415	0.09	456883	keystroke_v	v	n/a
228.5615	0.09	457123	keystroke_i	i	n/a
228.7865	0.075	457573	keystroke_s	s	n/a
228.8915	0.09	457783	keystroke_i	i	n/a
229.0265	0.075	458053	keystroke_t	t	n/a
229.1915	0.06	458383	keystroke_e	e	n/a
229.3715	0.075	458743	keystroke_d	d	n/a
229.4765	0.09	458953	keystroke_Key.space	Key.space	n/a
230.7965	0.06	461593	keystroke_s	s	n/a
231.0065	0.09	462013	keystroke_u	u	n/a
231.2615	0.06	462523	keystroke_b	b	n/a
231.5015	0.075	463003	keystroke_j	j	n/a
231.5915	0.06	463183	keystroke_e	e	n/a
231.7265	0.0895	463453	keystroke_c	c	n/a
231.9515	0.09	463903	keystroke_t	t	n/a
232.0715	0.1195	464143	keystroke_i	i	n/a
232.236	0.045	464472	keystroke_v	v	n/a
232.506	0.09	465012	keystroke_e	e	n/a
233.016	0.12	466032	keystroke_Key.space	Key.space	n/a
233.4205	0.0755	466841	keystroke_p	p	n/a
233.556	0.075	467112	keystroke_r	r	n/a
233.676	0.045	467352	keystroke_o	o	n/a
233.901	0.1045	467802	keystroke_m	m	n/a
234.0055	0.075	468011	keystroke_o	o	n/a
234.486	0.09	468972	keystroke_t	t	n/a
234.6205	0.12	469241	keystroke_i	i	n/a
234.7105	0.165	469421	keystroke_o	o	n/a
234.8605	0.105	469721	keystroke_n	n	n/a
234.996	0.0595	469992	keystroke_a	a	n/a
235.1155	0.09	470231	keystroke_l	l	n/a
235.3255	0.075	470651	keystroke_Key.enter	Key.enter	n/a
235.406	7.7965	470812	prompt	n/a	reader thong examinations musician\n
236.406	0.1645	472812	keystroke_r	r	n/a
236.556	0.1045	473112	keystroke_e	e	n/a
236.646	0.075	473292	keystroke_a	a	n/a
236.8405	0.075	473681	keystroke_d	d	n/a
237.0205	0.1055	474041	keystroke_e	e	n/a
237.111	0.0745	474222	keystroke_r	r	n/a
237.2005	0.075	474401	keystroke_Key.space	Key.space	n/a
237.2905	0.09	474581	keystroke_t	t	n/a
237.3655	0.09	474731	keystroke_h	h	n/a
237.4705	0.165	474941	keystroke_o	o	n/a
237.5905	0.12	475181	keystroke_n	n	n/a
237.7405	0.09	475481	keystroke_g	g	n/a
237.8755	0.12	475751	keystroke_Key.space	Key.space	n/a
238.0555	0.075	476111	keystroke_e	e	n/a
238.7005	0.075	477401	keystroke_x	x	n/a
238.8955	0.075	477791	keystroke_a	a	n/a
239.0605	0.045	478121	keystroke_m	m	n/a
239.1805	0.105	478361	keystroke_i	i	n/a
239.3605	0.105	478721	keystroke_n	n	n/a
239.4805	0.09	478961	keystroke_a	a	n/a
239.5405	0.09	479081	keystroke_t	t	n/a
239.6905	0.06	479381	keystroke_i	i	n/a
240.2905	0.09	480581	keystroke_o	o	n/a
240.4405	0.075	480881	keystroke_n	n	n/a
240.5605	0.075	481121	keystroke_s	s	n/a
240.7405	0.075	481481	keystroke_Key.space	Key.space	n/a
240.9505	0.075	481901	keystroke_m	m	n/a
241.1605	0.075	482321	keystroke_u	u	n/a
241.2955	0.09	482591	keystroke_s	s	n/a
241.4005	0.06	482801	keystroke_i	i	n/a
241.6705	0.09	483341	keystroke_c	c	n/a
241.8055	0.075	483611	keystroke_i	i	n/a
241.9855	0.06	483971	keystroke_a	a	n/a
242.6905	0.075	485381	keystroke_n	n	n/a
243.1105	0.09	486221	keystroke_Key.enter	Key.enter	n/a
243.2125	7.34	486425	prompt	n/a	agencies needed reply bass\n
243.8605	0.06	487721	keystroke_a	a	n/a
244.0405	0.075	488081	keystroke_g	g	n/a
244.5505	0.06	489101	keystroke_e	e	n/a
244.6705	0.075	489341	keystroke_n	n	n/a
245.0005	0.105	490001	keystroke_c	c	n/a
245.1355	0.09	490271	keystroke_i	i	n/a
245.2405	0.105	490481	keystroke_e	e	n/a
245.4055	0.09	490811	keystroke_s	s	n/a
245.5705	0.09	491141	keystroke_Key.space	Key.space	n/a
245.7505	0.06	491501	keystroke_n	n	n/a
245.8705	0.06	491741	keystroke_e	e	n/a
246.0055	0.06	492011	keystroke_e	e	n/a
246.1855	0.06	492371	keystroke_d	d	n/a
246.3505	0.045	492701	keystroke_e	e	n/a
246.5605	0.015	493121	keystroke_d	d	n/a
246.6805	0.105	493361	keystroke_Key.space	Key.space	n/a
247.8205	0.105	495641	keystroke_r	r	n/a
247.9555	0.075	495911	keystroke_e	e	n/a
248.1655	0.045	496331	keystroke_p	p	n/a
248.3455	0.06	496691	keystroke_l	l	n/a
249.1855	0.09	498371	keystroke_y	y	n/a
249.3655	0.105	498731	keystroke_Key.space	Key.space	n/a
249.5905	0.09	499181	keystroke_b	b	n/a
249.7555	0.105	499511	keystroke_a	a	n/a
249.9655	0.06	499931	keystroke_s	s	n/a
250.1305	0.045	500261	keystroke_s	s	n/a
250.4605	0.09	500921	keystroke_Key.enter	Key.enter	n/a
250.5555	9.9415	501111	prompt	n/a	possible superb gary pattern\n
251.1805	0.06	502361	keystroke_p	p	n/a
252.1405	0.09	504281	keystroke_o	o	n/a
252.2905	0.075	504581	keystroke_s	s	n/a
252.4555	0.09	504911	keystroke_s	s	n/a
252.5605	0.075	505121	keystroke_i	i	n/a
252.7105	0.09	505421	keystroke_b	b	n/a
252.9205	0.09	505841	keystroke_l	l	n/a
253.0855	0.09	506171	keystroke_e	e	n/a
253.2055	0.105	506411	keystroke_Key.space	Key.space	n/a
253.4005	0.075	506801	keystroke_s	s	n/a
253.5055	0.06	507011	keystroke_u	u	n/a
255.3505	0.09	510701	keystroke_p	p	n/a
255.4705	0.18	510941	keystroke_e	e	n/a
255.6355	0.105	511271	keystroke_r	r	n/a
255.9205	0.06	511841	keystroke_b	b	n/a
256.4155	0.045	512831	keystroke_Key.space	Key.space	n/a
257.5855	0.045	515171	keystroke_g	g	n/a
257.7205	0.076	515441	keystroke_a	a	n/a
258.1405	0.06	516281	keystroke_r	r	n/a
258.4115	0.104	516823	keystroke_y	y	n/a
258.5455	0.12	517091	keystroke_Key.space	Key.space	n/a
258.7405	0.09	517481	keystroke_p	p	n/a
258.8905	0.106	517781	keystroke_a	a	n/a
259.3555	0.06	518711	keystroke_t	t	n/a
259.5055	0.06	519011	keystroke_t	t	n/a
259.7305	0.135	519461	keystroke_e	e	n/a
259.8355	0.09	519671	keystroke_r	r	n/a
260.0755	0.09	520151	keystroke_n	n	n/a
260.4805	0.015	520961	keystroke_Key.enter	Key.enter	n/a
260.5	8.6225	521000	prompt	n/a	lesser pork artwork commissioners\n
261.1405	0.075	522281	keystroke_l	l	n/a
261.2605	0.12	522521	keystroke_e	e	n/a
261.3965	0.044	522793	keystroke_a	a	n/a
261.8455	0.075	523691	keystroke_Key.backspace	Key.backspace	n/a
262.1165	0.045	524233	keystroke_s	s	n/a
262.2655	0.075	524531	keystroke_s	s	n/a
262.3855	0.18	524771	keystroke_e	e	n/a
262.5055	0.12	525011	keystroke_r	r	n/a
262.9555	0.105	525911	keystroke_Key.space	Key.space	n/a
263.0905	0.09	526181	keystroke_p	p	n/a
263.3005	0.075	526601	keystroke_o	o	n/a
263.4205	0.06	526841	keystroke_r	r	n/a
263.6005	0.06	527201	keystroke_t	t	n/a
263.6905	0.09	527381	keystroke_Key.space	Key.space	n/a
263.8565	0.105	527713	keystroke_a	a	n/a
263.9755	0.075	527951	keystroke_r	r	n/a
264.2005	0.09	528401	keystroke_t	t	n/a
264.7115	0.06	529423	keystroke_w	w	n/a
264.8005	0.09	529601	keystroke_o	o	n/a
264.9205	0.06	529841	keystroke_r	r	n/a
265.0405	0.105	530081	keystroke_k	k	n/a
265.7755	0.135	531551	keystroke_Key.space	Key.space	n/a
266.3465	0.074	532693	keystroke_c	c	n/a
266.4655	0.121	532931	keystroke_o	o	n/a
266.7205	0.12	533441	keystroke_m	m	n/a
266.9315	0.075	533863	keystroke_i	i	n/a
267.1415	0.045	534283	keystroke_s	s	n/a
267.2755	0.061	534551	keystroke_s	s	n/a
267.3955	0.105	534791	keystroke_i	i	n/a
267.4705	0.166	534941	keystroke_o	o	n/a
267.5905	0.12	535181	keystroke_n	n	n/a
268.2815	0.194	536563	keystroke_e	e	n/a
268.4615	0.134	536923	keystroke_r	r	n/a
268.6565	0.075	537313	keystroke_s	s	n/a
269.0155	0.105	538031	keystroke_Key.enter	Key.enter	n/a
269.1255	7.737	538251	prompt	n/a	reprints establishing handbook cardiac\n
270.1115	0.06	540223	keystroke_r	r	n/a
270.2315	0.075	540463	keystroke_e	e	n/a
270.3815	0.089	540763	keystroke_p	p	n/a
270.5455	0.091	541091	keystroke_r	r	n/a
270.6515	0.089	541303	keystroke_i	i	n/a
270.8465	0.074	541693	keystroke_n	n	n/a
271.2355	0.09	542471	keystroke_t	t	n/a
271.4155	0.061	542831	keystroke_s	s	n/a
272.1355	0.105	544271	keystroke_Key.space	Key.space	n/a
272.2705	0.075	544541	keystroke_e	e	n/a
272.4505	0.09	544901	keystroke_s	s	n/a
272.6915	0.089	545383	keystroke_t	t	n/a
272.7965	0.075	545593	keystroke_a	a	n/a
272.9005	0.09	545801	keystroke_b	b	n/a
273.1255	0.106	546251	keystroke_l	l	n/a
273.2315	0.105	546463	keystroke_i	i	n/a
273.3805	0.076	546761	keystroke_s	s	n/a
273.4565	0.089	546913	keystroke_h	h	n/a
273.6065	0.104	547213	keystroke_i	i	n/a
273.6655	0.12	547331	keystroke_n	n	n/a
273.8005	0.09	547601	keystroke_g	g	n/a
273.9055	0.075	547811	keystroke_Key.space	Key.space	n/a
274.0705	0.061	548141	keystroke_h	h	n/a
274.1315	0.075	548263	keystroke_a	a	n/a
274.2965	0.06	548593	keystroke_n	n	n/a
274.3715	0.089	548743	keystroke_d	d	n/a
274.5655	0.091	549131	keystroke_b	b	n/a
274.7615	0.045	549523	keystroke_o	o	n/a
274.8665	0.15	549733	keystroke_o	o	n/a
275.0315	0.135	550063	keystroke_k	k	n/a
275.1805	0.075	550361	keystroke_Key.space	Key.space	n/a
275.6915	0.059	551383	keystroke_c	c	n/a
275.7965	0.195	551593	keystroke_a	a	n/a
275.9765	0.074	551953	keystroke_r	r	n/a
276.1705	0.091	552341	keystroke_d	d	n/a
276.2905	0.076	552581	keystroke_i	i	n/a
276.3805	0.076	552761	keystroke_a	a	n/a
276.6365	0.075	553273	keystroke_c	c	n/a
276.7855	0.075	553571	keystroke_Key.enter	Key.enter	n/a
276.8655	10.632	553731	prompt	n/a	alpine existing began valuation\n
277.6265	0.105	555253	keystroke_a	a	n/a
279.1265	0.075	558253	keystroke_l	l	n/a
279.6815	0.029	559363	keystroke_p	p	n/a
279.8465	0.09	559693	keystroke_i	i	n/a
280.0565	0.105	560113	keystroke_n	n	n/a
280.4465	0.06	560893	keystroke_e	e	n/a
280.5955	0.136	561191	keystroke_Key.space	Key.space	n/a
281.0615	0.06	562123	keystroke_e	e	n/a
281.3615	0.09	562723	keystroke_x	x	n/a
281.9315	0.06	563863	keystroke_i	i	n/a
282.0965	0.09	564193	keystroke_s	s	n/a
282.3065	0.075	564613	keystroke_t	t	n/a
282.3965	0.15	564793	keystroke_i	i	n/a
282.5015	0.105	565003	keystroke_n	n	n/a
282.6215	0.09	565243	keystroke_g	g	n/a
282.7565	0.09	565513	keystroke_Key.space	Key.space	n/a
282.9065	0.075	565813	keystroke_b	b	n/a
282.9965	0.075	565993	keystroke_e	e	n/a
283.7165	0.09	567433	keystroke_g	g	n/a
283.8355	0.09	567671	keystroke_a	a	n/a
284.0465	0.105	568093	keystroke_n	n	n/a
284.5255	0.12	569051	keystroke_Key.space	Key.space	n/a
285.5465	0.015	571093	keystroke_v	v	n/a
285.6365	0.06	571273	keystroke_a	a	n/a
285.8615	0.09	571723	keystroke_l	l	n/a
286.0115	0.105	572023	keystroke_u	u	n/a
286.1315	0.12	572263	keystroke_a	a	n/a
286.2365	0.075	572473	keystroke_t	t	n/a
286.3565	0.105	572713	keystroke_i	i	n/a
286.4465	0.12	572893	keystroke_o	o	n/a
286.5515	0.09	573103	keystroke_n	n	n/a
287.3915	0.105	574783	keystroke_Key.enter	Key.enter	n/a
287.5005	8.8465	575001	prompt	n/a	sense haiti travels significantly\n
288.2015	0.06	576403	keystroke_s	s	n/a
288.3515	0.105	576703	keystroke_e	e	n/a
288.4865	0.09	576973	keystroke_n	n	n/a
288.6215	0.135	577243	keystroke_s	s	n/a
288.7415	0.06	577483	keystroke_e	e	n/a
288.8315	0.105	577663	keystroke_Key.space	Key.space	n/a
289.761	0.09	579522	keystroke_h	h	n/a
289.8815	0.075	579763	keystroke_a	a	n/a
289.971	0.0755	579942	keystroke_i	i	n/a
290.166	0.075	580332	keystroke_t	t	n/a
290.3165	0.06	580633	keystroke_i	i	n/a
290.6015	0.135	581203	keystroke_Key.space	Key.space	n/a
290.931	0.075	581862	keystroke_t	t	n/a
291.141	0.09	582282	keystroke_r	r	n/a
291.396	0.06	582792	keystroke_a	a	n/a
291.6515	0.0595	583303	keystroke_v	v	n/a
291.756	0.09	583512	keystroke_e	e	n/a
291.9215	0.0445	583843	keystroke_l	l	n/a
292.011	0.105	584022	keystroke_s	s	n/a
292.2215	0.1045	584443	keystroke_Key.space	Key.space	n/a
292.506	0.09	585012	keystroke_s	s	n/a
292.6715	0.0895	585343	keystroke_i	i	n/a
292.896	0.09	585792	keystroke_g	g	n/a
293.436	0.075	586872	keystroke_n	n	n/a
293.556	0.105	587112	keystroke_i	i	n/a
294.6665	0.0745	589333	keystroke_f	f	n/a
294.756	0.12	589512	keystroke_i	i	n/a
295.071	0.09	590142	keystroke_c	c	n/a
295.146	0.09	590292	keystroke_a	a	n/a
295.296	0.09	590592	keystroke_n	n	n/a
295.521	0.075	591042	keystroke_t	t	n/a
295.626	0.075	591252	keystroke_l	l	n/a
295.746	0.06	591492	keystroke_y	y	n/a
296.226	0.12	592452	keystroke_Key.enter	Key.enter	n/a
296.35	7.1975	592700	prompt	n/a	insects pmid alumni fatty\n
296.946	0.09	593892	keystroke_i	i	n/a
297.081	0.105	594162	keystroke_n	n	n/a
297.246	0.105	594492	keystroke_s	s	n/a
297.352	0.104	594704	keystroke_e	e	n/a
297.951	0.06	595902	keystroke_t	t	n/a
298.176	0.075	596352	keystroke_s	s	n/a
298.311	0.12	596622	keystroke_Key.space	Key.space	n/a
298.596	0.075	597192	keystroke_p	p	n/a
299.301	0.09	598602	keystroke_m	m	n/a
299.466	0.075	598932	keystroke_i	i	n/a
299.586	0.0595	599172	keystroke_d	d	n/a
300.1405	0.105	600281	keystroke_Key.space	Key.space	n/a
300.4555	0.06	600911	keystroke_a	a	n/a
300.6205	0.09	601241	keystroke_l	l	n/a
300.7855	0.105	601571	keystroke_u	u	n/a
301.0705	0.075	602141	keystroke_m	m	n/a
301.266	0.0895	602532	keystroke_n	n	n/a
302.3005	0.1655	604601	keystroke_i	i	n/a
302.4355	0.105	604871	keystroke_Key.space	Key.space	n/a
302.5855	0.0605	605171	keystroke_f	f	n/a
302.6605	0.0905	605321	keystroke_a	a	n/a
302.931	0.0595	605862	keystroke_t	t	n/a
303.0805	0.045	606161	keystroke_t	t	n/a
303.1855	0.09	606371	keystroke_y	y	n/a
303.4555	0.09	606911	keystroke_Key.enter	Key.enter	n/a
303.552	6.1305	607104	prompt	n/a	signs light operate omega\n
304.2055	0.06	608411	keystroke_s	s	n/a
304.3255	0.105	608651	keystroke_i	i	n/a
304.4605	0.09	608921	keystroke_g	g	n/a
304.6105	0.09	609221	keystroke_n	n	n/a
304.7455	0.09	609491	keystroke_s	s	n/a
304.8655	0.09	609731	keystroke_Key.space	Key.space	n/a
305.0305	0.105	610061	keystroke_l	l	n/a
305.1805	0.075	610361	keystroke_i	i	n/a
305.2855	0.06	610571	keystroke_g	g	n/a
305.3605	0.105	610721	keystroke_h	h	n/a
305.5405	0.075	611081	keystroke_t	t	n/a
306.0355	0.045	612071	keystroke_Key.backspace	Key.backspace	n/a
306.5155	0.09	613031	keystroke_t	t	n/a
306.7855	0.105	613571	keystroke_Key.space	Key.space	n/a
307.3255	0.105	614651	keystroke_o	o	n/a
307.5955	0.06	615191	keystroke_p	p	n/a
307.7155	0.135	615431	keystroke_e	e	n/a
307.7905	0.105	615581	keystroke_r	r	n/a
307.9705	0.15	615941	keystroke_a	a	n/a
308.1055	0.06	616211	keystroke_t	t	n/a
308.2705	0.06	616541	keystroke_e	e	n/a
308.4055	0.105	616811	keystroke_Key.space	Key.space	n/a
308.5705	0.09	617141	keystroke_o	o	n/a
308.7655	0.075	617531	keystroke_m	m	n/a
308.8855	0.075	617771	keystroke_e	e	n/a
309.2755	0.09	618551	keystroke_g	g	n/a
309.3805	0.09	618761	keystroke_a	a	n/a
309.6055	0.075	619211	keystroke_Key.enter	Key.enter	n/a
309.6855	6.5065	619371	prompt	n/a	obtain resolution gross passing\n
310.3555	0.075	620711	keystroke_o	o	n/a
310.5355	0.09	621071	keystroke_b	b	n/a
310.7005	0.105	621401	keystroke_t	t	n/a
310.8065	0.089	621613	keystroke_a	a	n/a
310.9105	0.135	621821	keystroke_i	i	n/a
311.0155	0.09	622031	keystroke_n	n	n/a
311.2405	0.075	622481	keystroke_Key.space	Key.space	n/a
311.7205	0.12	623441	keystroke_r	r	n/a
311.8255	0.105	623651	keystroke_e	e	n/a
312.0055	0.105	624011	keystroke_s	s	n/a
312.1255	0.09	624251	keystroke_o	o	n/a
312.3505	0.09	624701	keystroke_l	l	n/a
312.5455	0.105	625091	keystroke_u	u	n/a
312.6655	0.075	625331	keystroke_t	t	n/a
312.7705	0.12	625541	keystroke_i	i	n/a
312.8755	0.12	625751	keystroke_o	o	n/a
312.9805	0.105	625961	keystroke_n	n	n/a
313.2055	0.06	626411	keystroke_Key.space	Key.space	n/a
313.4905	0.03	626981	keystroke_g	g	n/a
313.6705	0.06	627341	keystroke_r	r	n/a
314.4655	0.09	628931	keystroke_o	o	n/a
314.6755	0.09	629351	keystroke_s	s	n/a
314.8705	0.03	629741	keystroke_s	s	n/a
314.9155	0.12	629831	keystroke_Key.space	Key.space	n/a
315.2155	0.0755	630431	keystroke_p	p	n/a
315.3505	0.045	630701	keystroke_a	a	n/a
315.5305	0.06	631061	keystroke_s	s	n/a
315.6805	0.06	631361	keystroke_s	s	n/a
315.7555	0.135	631511	keystroke_i	i	n/a
315.8455	0.105	631691	keystroke_n	n	n/a
315.9205	0.075	631841	keystroke_g	g	n/a
316.1755	0.015	632351	keystroke_Key.enter	Key.enter	n/a
316.195	9.6575	632390	prompt	n/a	interpreted configure star mazda\n
316.9105	0.075	633821	keystroke_i	i	n/a
317.0605	0.075	634121	keystroke_n	n	n/a
317.1805	0.06	634361	keystroke_t	t	n/a
317.3305	0.135	634661	keystroke_e	e	n/a
317.4805	0.075	634961	keystroke_r	r	n/a
317.8105	0.135	635621	keystroke_p	p	n/a
318.0655	0.075	636131	keystroke_e	e	n/a
318.5155	0.075	637031	keystroke_Key.backspace	Key.backspace	n/a
318.6655	0.105	637331	keystroke_r	r	n/a
318.7555	0.075	637511	keystroke_e	e	n/a
319.1305	0.075	638261	keystroke_t	t	n/a
319.3555	0.045	638711	keystroke_e	e	n/a
319.4605	0.075	638921	keystroke_d	d	n/a
319.6855	0.06	639371	keystroke_Key.space	Key.space	n/a
320.5405	0.06	641081	keystroke_c	c	n/a
320.6455	0.15	641291	keystroke_o	o	n/a
320.7505	0.105	641501	keystroke_n	n	n/a
320.9005	0.075	641801	keystroke_f	f	n/a
321.0055	0.09	642011	keystroke_i	i	n/a
321.2905	0.09	642581	keystroke_g	g	n/a
321.4555	0.075	642911	keystroke_u	u	n/a
321.5605	0.15	643121	keystroke_r	r	n/a
321.7255	0.06	643451	keystroke_e	e	n/a
322.1305	0.075	644261	keystroke_Key.space	Key.space	n/a
322.3405	0.105	644681	keystroke_s	s	n/a
322.4605	0.09	644921	keystroke_t	t	n/a
322.6555	0.12	645311	keystroke_a	a	n/a
322.7605	0.075	645521	keystroke_r	r	n/a
323.3005	0.105	646601	keystroke_Key.space	Key.space	n/a
323.6305	0.075	647261	keystroke_m	m	n/a
323.7805	0.09	647561	keystroke_a	a	n/a
324.7255	0.075	649451	keystroke_z	z	n/a
325.0255	0.09	650051	keystroke_d	d	n/a
325.1455	0.06	650291	keystroke_a	a	n/a
325.8055	0.045	651611	keystroke_Key.enter	Key.enter	n/a
325.855	11.322	651710	prompt	n/a	journey hardcover swim expenses\n
327.9685	0.042	655937	keystroke_j	j	n/a
328.0855	0.18	656171	keystroke_o	o	n/a
328.2805	0.105	656561	keystroke_u	u	n/a
328.6255	0.09	657251	keystroke_r	r	n/a
328.7905	0.09	657581	keystroke_n	n	n/a
328.9405	0.06	657881	keystroke_e	e	n/a
329.0605	0.09	658121	keystroke_y	y	n/a
329.3455	0.12	658691	keystroke_Key.space	Key.space	n/a
329.6005	0.105	659201	keystroke_h	h	n/a
330.1555	0.165	660311	keystroke_a	a	n/a
330.3055	0.105	660611	keystroke_r	r	n/a
330.575	0.0905	661150	keystroke_d	d	n/a
332.015	0.075	664030	keystroke_c	c	n/a
332.165	0.1055	664330	keystroke_o	o	n/a
332.24	0.075	664480	keystroke_v	v	n/a
332.495	0.12	664990	keystroke_e	e	n/a
332.6	0.075	665200	keystroke_r	r	n/a
332.705	0.105	665410	keystroke_Key.space	Key.space	n/a
333.035	0.06	666070	keystroke_s	s	n/a
333.41	0.0455	666820	keystroke_w	w	n/a
333.5455	0.1045	667091	keystroke_i	i	n/a
333.905	0.105	667810	keystroke_m	m	n/a
334.055	0.105	668110	keystroke_Key.space	Key.space	n/a
335.225	0.09	670450	keystroke_e	e	n/a
335.54	0.075	671080	keystroke_x	x	n/a
335.675	0.075	671350	keystroke_p	p	n/a
335.81	0.105	671620	keystroke_e	e	n/a
335.93	0.105	671860	keystroke_n	n	n/a
336.095	0.12	672190	keystroke_s	s	n/a
336.23	0.12	672460	keystroke_e	e	n/a
336.365	0.12	672730	keystroke_s	s	n/a
337.055	0.12	674110	keystroke_Key.enter	Key.enter	n/a
337.18	10.677	674360	prompt	n/a	offshore chevrolet assembly beverages\n
337.911	0.089	675822	keystroke_o	o	n/a
338.075	0.03	676150	keystroke_f	f	n/a
338.18	0.075	676360	keystroke_f	f	n/a
338.45	0.075	676900	keystroke_s	s	n/a
338.54	0.12	677080	keystroke_h	h	n/a
338.645	0.105	677290	keystroke_o	o	n/a
339.125	0.09	678250	keystroke_r	r	n/a
339.2	0.075	678400	keystroke_e	e	n/a
339.395	0.105	678790	keystroke_Key.space	Key.space	n/a
339.98	0.075	679960	keystroke_c	c	n/a
340.085	0.09	680170	keystroke_h	h	n/a
340.19	0.09	680380	keystroke_e	e	n/a
340.97	0.075	681940	keystroke_v	v	n/a
341.27	0.075	682540	keystroke_r	r	n/a
341.42	0.06	682840	keystroke_o	o	n/a
341.63	0.045	683260	keystroke_l	l	n/a
341.705	0.061	683410	keystroke_e	e	n/a
341.78	0.075	683560	keystroke_t	t	n/a
341.96	0.075	683920	keystroke_Key.space	Key.space	n/a
343.67	0.075	687340	keystroke_a	a	n/a
343.85	0.06	687700	keystroke_s	s	n/a
343.985	0.075	687970	keystroke_s	s	n/a
344.165	0.09	688330	keystroke_e	e	n/a
345.02	0.09	690040	keystroke_m	m	n/a
345.245	0.075	690490	keystroke_b	b	n/a
345.44	0.06	690880	keystroke_l	l	n/a
345.845	0.105	691690	keystroke_y	y	n/a
346.07	0.12	692140	keystroke_Key.space	Key.space	n/a
346.4	0.09	692800	keystroke_b	b	n/a
346.505	0.076	693010	keystroke_e	e	n/a
346.67	0.09	693340	keystroke_v	v	n/a
346.865	0.15	693730	keystroke_e	e	n/a
346.955	0.105	693910	keystroke_r	r	n/a
347.09	0.12	694180	keystroke_a	a	n/a
347.256	0.104	694512	keystroke_g	g	n/a
347.42	0.136	694840	keystroke_e	e	n/a
347.57	0.09	695140	keystroke_s	s	n/a
347.78	0.075	695560	keystroke_Key.enter	Key.enter	n/a
347.86	6.807	695720	prompt	n/a	brian showcase imperial possibility\n
349.52	0.091	699040	keystroke_b	b	n/a
349.656	0.119	699312	keystroke_r	r	n/a
349.79	0.045	699580	keystroke_a	a	n/a
349.895	0.12	699790	keystroke_i	i	n/a
349.97	0.165	699940	keystroke_n	n	n/a
350.15	0.075	700300	keystroke_Key.space	Key.space	n/a
350.255	0.06	700510	keystroke_s	s	n/a
350.33	0.105	700660	keystroke_h	h	n/a
350.45	0.106	700900	keystroke_o	o	n/a
350.601	0.074	701202	keystroke_w	w	n/a
350.751	0.165	701502	keystroke_c	c	n/a
350.93	0.09	701860	keystroke_a	a	n/a
351.141	0.164	702282	keystroke_s	s	n/a
351.275	0.06	702550	keystroke_e	e	n/a
351.336	0.104	702672	keystroke_Key.space	Key.space	n/a
351.47	0.15	702940	keystroke_i	i	n/a
351.606	0.149	703212	keystroke_m	m	n/a
351.846	0.074	703692	keystroke_p	p	n/a
352.01	0.135	704020	keystroke_e	e	n/a
352.115	0.105	704230	keystroke_r	r	n/a
352.265	0.075	704530	keystroke_i	i	n/a
352.37	0.075	704740	keystroke_a	a	n/a
352.506	0.15	705012	keystroke_l	l	n/a
352.64	0.12	705280	keystroke_Key.space	Key.space	n/a
352.806	0.06	705612	keystroke_p	p	n/a
353	0.09	706000	keystroke_o	o	n/a
353.15	0.06	706300	keystroke_s	s	n/a
353.285	0.09	706570	keystroke_s	s	n/a
353.39	0.075	706780	keystroke_i	i	n/a
353.585	0.105	707170	keystroke_b	b	n/a
353.75	0.106	707500	keystroke_i	i	n/a
353.975	0.106	707950	keystroke_l	l	n/a
354.066	0.119	708132	keystroke_i	i	n/a
354.215	0.075	708430	keystroke_t	t	n/a
354.32	0.076	708640	keystroke_y	y	n/a
354.575	0.09	709150	keystroke_Key.enter	Key.enter	n/a
354.67	7.1965	709340	prompt	n/a	wants vegas organisms temple\n
355.656	0.074	711312	keystroke_w	w	n/a
355.746	0.089	711492	keystroke_a	a	n/a
355.85	0.091	711700	keystroke_n	n	n/a
355.956	0.089	711912	keystroke_t	t	n/a
356.06	0.091	712120	keystroke_s	s	n/a
356.21	0.135	712420	keystroke_Key.space	Key.space	n/a
356.511	0.014	713022	keystroke_v	v	n/a
356.615	0.091	713230	keystroke_e	e	n/a
357.006	0.104	714012	keystroke_g	g	n/a
357.17	0.091	714340	keystroke_a	a	n/a
357.381	0.075	714762	keystroke_s	s	n/a
357.71	0.105	715420	keystroke_Key.space	Key.space	n/a
357.936	0.075	715872	keystroke_o	o	n/a
358.251	0.075	716502	keystroke_r	r	n/a
359.2405	0.06	718481	keystroke_g	g	n/a
359.3445	0.061	718689	keystroke_a	a	n/a
359.6155	0.075	719231	keystroke_n	n	n/a
359.7655	0.104	719531	keystroke_i	i	n/a
360.0655	0.09	720131	keystroke_s	s	n/a
360.1855	0.105	720371	keystroke_m	m	n/a
360.5755	0.074	721151	keystroke_s	s	n/a
360.7245	0.09	721449	keystroke_Key.space	Key.space	n/a
360.8905	0.074	721781	keystroke_t	t	n/a
361.0855	0.06	722171	keystroke_e	e	n/a
361.1595	0.136	722319	keystroke_m	m	n/a
361.3255	0.09	722651	keystroke_p	p	n/a
361.5505	0.06	723101	keystroke_l	l	n/a
361.6255	0.075	723251	keystroke_e	e	n/a
361.8045	0.06	723609	keystroke_Key.enter	Key.enter	n/a
361.8705	5.816	723741	prompt	n/a	mega humans moisture arizona\n
362.7055	0.105	725411	keystroke_m	m	n/a
362.8405	0.074	725681	keystroke_e	e	n/a
363.2445	0.076	726489	keystroke_g	g	n/a
363.4405	0.06	726881	keystroke_a	a	n/a
363.5895	0.06	727179	keystroke_Key.space	Key.space	n/a
363.7705	0.044	727541	keystroke_h	h	n/a
363.9355	0.075	727871	keystroke_u	u	n/a
364.1755	0.075	728351	keystroke_m	m	n/a
364.3105	0.075	728621	keystroke_a	a	n/a
364.4005	0.089	728801	keystroke_n	n	n/a
364.5645	0.09	729129	keystroke_s	s	n/a
364.7445	0.091	729489	keystroke_Key.space	Key.space	n/a
365.1205	0.075	730241	keystroke_m	m	n/a
365.2555	0.135	730511	keystroke_o	o	n/a
365.3905	0.089	730781	keystroke_i	i	n/a
365.5405	0.075	731081	keystroke_s	s	n/a
365.6445	0.106	731289	keystroke_t	t	n/a
365.8255	0.105	731651	keystroke_u	u	n/a
365.9145	0.1355	731829	keystroke_r	r	n/a
366.065	0.075	732130	keystroke_e	e	n/a
366.155	0.105	732310	keystroke_Key.space	Key.space	n/a
366.305	0.105	732610	keystroke_a	a	n/a
366.53	0.075	733060	keystroke_r	r	n/a
366.65	0.06	733300	keystroke_i	i	n/a
367.025	0.09	734050	keystroke_z	z	n/a
367.145	0.15	734290	keystroke_o	o	n/a
367.28	0.075	734560	keystroke_n	n	n/a
367.43	0.09	734860	keystroke_a	a	n/a
367.61	0.075	735220	keystroke_Key.enter	Key.enter	n/a
367.6905	6.9565	735381	prompt	n/a	liabilities solo offering narrow\n
368.585	0.135	737170	keystroke_l	l	n/a
368.765	0.12	737530	keystroke_i	i	n/a
368.945	0.105	737890	keystroke_a	a	n/a
369.065	0.075	738130	keystroke_b	b	n/a
369.2	0.09	738400	keystroke_i	i	n/a
369.41	0.105	738820	keystroke_l	l	n/a
369.5	0.12	739000	keystroke_i	i	n/a
369.635	0.075	739270	keystroke_t	t	n/a
369.845	0.15	739690	keystroke_i	i	n/a
370.01	0.12	740020	keystroke_e	e	n/a
370.115	0.12	740230	keystroke_s	s	n/a
370.31	0.15	740620	keystroke_Key.space	Key.space	n/a
371.225	0.075	742450	keystroke_s	s	n/a
371.36	0.12	742720	keystroke_o	o	n/a
371.6	0.09	743200	keystroke_l	l	n/a
371.84	0.045	743680	keystroke_o	o	n/a
372.38	0.075	744760	keystroke_Key.space	Key.space	n/a
372.605	0.06	745210	keystroke_o	o	n/a
372.695	0.06	745390	keystroke_f	f	n/a
372.845	0.06	745690	keystroke_f	f	n/a
372.965	0.135	745930	keystroke_e	e	n/a
373.085	0.075	746170	keystroke_r	r	n/a
373.19	0.105	746380	keystroke_i	i	n/a
373.265	0.105	746530	keystroke_n	n	n/a
373.355	0.105	746710	keystroke_g	g	n/a
373.475	0.075	746950	keystroke_Key.space	Key.space	n/a
373.61	0.09	747220	keystroke_n	n	n/a
373.745	0.075	747490	keystroke_a	a	n/a
373.88	0.06	747760	keystroke_r	r	n/a
374.015	0.06	748030	keystroke_r	r	n/a
374.12	0.09	748240	keystroke_o	o	n/a
374.3	0.06	748600	keystroke_w	w	n/a
374.5855	0.06	749171	keystroke_Key.enter	Key.enter	n/a
374.6505	10.0315	749301	prompt	n/a	interracial proprietary stations safer\n
375.8755	0.06	751751	keystroke_i	i	n/a
376.0255	0.075	752051	keystroke_n	n	n/a
376.1455	0.06	752291	keystroke_t	t	n/a
376.2805	0.12	752561	keystroke_e	e	n/a
376.4005	0.075	752801	keystroke_r	r	n/a
376.7605	0.09	753521	keystroke_r	r	n/a
376.9255	0.075	753851	keystroke_a	a	n/a
377.3605	0.12	754721	keystroke_c	c	n/a
377.5855	0.09	755171	keystroke_i	i	n/a
377.7355	0.06	755471	keystroke_a	a	n/a
377.8705	0.105	755741	keystroke_l	l	n/a
377.9905	0.075	755981	keystroke_Key.space	Key.space	n/a
378.0955	0.09	756191	keystroke_p	p	n/a
378.2455	0.09	756491	keystroke_r	r	n/a
378.9955	0.075	757991	keystroke_o	o	n/a
379.2505	0.09	758501	keystroke_p	p	n/a
379.4905	0.0905	758981	keystroke_r	r	n/a
379.611	0.075	759222	keystroke_i	i	n/a
379.746	0.09	759492	keystroke_e	e	n/a
380.166	0.075	760332	keystroke_t	t	n/a
380.301	0.15	760602	keystroke_a	a	n/a
380.436	0.074	760872	keystroke_r	r	n/a
380.571	0.089	761142	keystroke_y	y	n/a
380.78	0.105	761560	keystroke_Key.space	Key.space	n/a
381.501	0.075	763002	keystroke_s	s	n/a
381.651	0.075	763302	keystroke_t	t	n/a
381.741	0.105	763482	keystroke_a	a	n/a
381.846	0.105	763692	keystroke_t	t	n/a
382.026	0.15	764052	keystroke_i	i	n/a
382.236	0.15	764472	keystroke_o	o	n/a
382.401	0.12	764802	keystroke_n	n	n/a
382.686	0.075	765372	keystroke_s	s	n/a
382.836	0.105	765672	keystroke_Key.space	Key.space	n/a
383.706	0.09	767412	keystroke_s	s	n/a
383.841	0.135	767682	keystroke_a	a	n/a
384.006	0.12	768012	keystroke_f	f	n/a
384.216	0.15	768432	keystroke_e	e	n/a
384.381	0.045	768762	keystroke_r	r	n/a
384.636	0.045	769272	keystroke_Key.enter	Key.enter	n/a
384.6875	5.8145	769375	prompt	n/a	call saturday danny a\n
385.551	0.105	771102	keystroke_c	c	n/a
385.641	0.105	771282	keystroke_a	a	n/a
385.776	0.06	771552	keystroke_l	l	n/a
385.941	0.135	771882	keystroke_l	l	n/a
386.061	0.074	772122	keystroke_Key.space	Key.space	n/a
386.181	0.06	772362	keystroke_s	s	n/a
386.991	0.105	773982	keystroke_a	a	n/a
387.126	0.165	774252	keystroke_t	t	n/a
387.396	0.075	774792	keystroke_u	u	n/a
387.591	0.045	775182	keystroke_r	r	n/a
387.786	0.105	775572	keystroke_d	d	n/a
387.876	0.09	775752	keystroke_a	a	n/a
388.071	0.075	776142	keystroke_y	y	n/a
388.461	0.09	776922	keystroke_Key.space	Key.space	n/a
388.656	0.075	777312	keystroke_d	d	n/a
388.761	0.075	777522	keystroke_a	a	n/a
388.866	0.06	777732	keystroke_n	n	n/a
389.031	0.06	778062	keystroke_n	n	n/a
389.376	0.075	778752	keystroke_y	y	n/a
389.601	0.09	779202	keystroke_Key.space	Key.space	n/a
389.736	0.075	779472	keystroke_a	a	n/a
390.411	0.09	780822	keystroke_Key.enter	Key.enter	n/a
390.5045	8.8475	781009	prompt	n/a	charge holocaust somewhere complex\n
391.461	0.105	782922	keystroke_c	c	n/a
391.611	0.045	783222	keystroke_h	h	n/a
391.6855	0.15	783371	keystroke_a	a	n/a
391.8205	0.075	783641	keystroke_r	r	n/a
392.0155	0.075	784031	keystroke_g	g	n/a
392.1505	0.075	784301	keystroke_e	e	n/a
392.3005	0.075	784601	keystroke_Key.space	Key.space	n/a
393.171	0.075	786342	keystroke_h	h	n/a
393.321	0.0595	786642	keystroke_o	o	n/a
393.5005	0.075	787001	keystroke_l	l	n/a
393.6805	0.06	787361	keystroke_o	o	n/a
393.9655	0.105	787931	keystroke_c	c	n/a
394.1155	0.06	788231	keystroke_a	a	n/a
394.2355	0.075	788471	keystroke_u	u	n/a
394.3555	0.09	788711	keystroke_s	s	n/a
394.4755	0.09	788951	keystroke_t	t	n/a
394.9555	0.09	789911	keystroke_Key.space	Key.space	n/a
395.1655	0.09	790331	keystroke_s	s	n/a
395.3155	0.105	790631	keystroke_o	o	n/a
395.4805	0.12	790961	keystroke_m	m	n/a
395.6155	0.09	791231	keystroke_e	e	n/a
395.8105	0.075	791621	keystroke_w	w	n/a
395.8705	0.0895	791741	keystroke_h	h	n/a
396.02	0.12	792040	keystroke_e	e	n/a
396.08	0.18	792160	keystroke_r	r	n/a
396.261	0.059	792522	keystroke_e	e	n/a
396.98	0.105	793960	keystroke_Key.space	Key.space	n/a
397.415	0.09	794830	keystroke_c	c	n/a
397.52	0.105	795040	keystroke_o	o	n/a
397.61	0.105	795220	keystroke_m	m	n/a
397.745	0.06	795490	keystroke_p	p	n/a
397.925	0.09	795850	keystroke_l	l	n/a
398.03	0.075	796060	keystroke_e	e	n/a
399.065	0.075	798130	keystroke_x	x	n/a
399.215	0.135	798430	keystroke_Key.enter	Key.enter	n/a
399.355	15.867	798710	prompt	n/a	friendship safely promotional responding\n
400.295	0.105	800590	keystroke_f	f	n/a
400.52	0.09	801040	keystroke_i	i	n/a
400.625	0.105	801250	keystroke_r	r	n/a
401.18	0.045	802360	keystroke_=	=	n/a
402.125	0.075	804250	keystroke_Key.backspace	Key.backspace	n/a
402.32	0.06	804640	keystroke_Key.backspace	Key.backspace	n/a
402.95	0.06	805900	keystroke_Key.backspace	Key.backspace	n/a
403.43	0.09	806860	keystroke_r	r	n/a
403.91	0.135	807820	keystroke_i	i	n/a
404.06	0.075	808120	keystroke_e	e	n/a
404.15	0.075	808300	keystroke_n	n	n/a
404.3	0.075	808600	keystroke_d	d	n/a
404.465	0.09	808930	keystroke_s	s	n/a
404.57	0.105	809140	keystroke_h	h	n/a
404.676	0.104	809352	keystroke_i	i	n/a
404.87	0.075	809740	keystroke_p	p	n/a
405.29	0.09	810580	keystroke_Key.space	Key.space	n/a
405.47	0.06	810940	keystroke_s	s	n/a
406.01	0.105	812020	keystroke_a	a	n/a
406.145	0.12	812290	keystroke_f	f	n/a
406.295	0.09	812590	keystroke_e	e	n/a
406.445	0.045	812890	keystroke_l	l	n/a
406.7	0.06	813400	keystroke_y	y	n/a
407.51	0.09	815020	keystroke_Key.space	Key.space	n/a
408.29	0.09	816580	keystroke_p	p	n/a
408.47	0.075	816940	keystroke_r	r	n/a
408.546	0.059	817092	keystroke_o	o	n/a
408.725	0.09	817450	keystroke_m	m	n/a
408.83	0.105	817660	keystroke_o	o	n/a
409.04	0.06	818080	keystroke_t	t	n/a
409.115	0.09	818230	keystroke_i	i	n/a
409.235	0.15	818470	keystroke_o	o	n/a
409.445	0.105	818890	keystroke_n	n	n/a
409.8655	0.075	819731	keystroke_a	a	n/a
409.9855	0.09	819971	keystroke_l	l	n/a
410.2105	0.12	820421	keystroke_Key.space	Key.space	n/a
410.7805	0.12	821561	keystroke_r	r	n/a
410.8705	0.105	821741	keystroke_e	e	n/a
411.0355	0.105	822071	keystroke_s	s	n/a
411.1705	0.135	822341	keystroke_o	o	n/a
411.2905	0.165	822581	keystroke_i	i	n/a
411.4255	0.105	822851	keystroke_n	n	n/a
411.5455	0.075	823091	keystroke_d	d	n/a
411.6355	0.12	823271	keystroke_i	i	n/a
411.7105	0.12	823421	keystroke_n	n	n/a
412.1905	0.045	824381	keystroke_Key.backspace	Key.backspace	n/a
412.3255	0.045	824651	keystroke_Key.backspace	Key.backspace	n/a
412.4605	0.06	824921	keystroke_Key.backspace	Key.backspace	n/a
412.6105	0.045	825221	keystroke_Key.backspace	Key.backspace	n/a
412.7605	0.06	825521	keystroke_Key.backspace	Key.backspace	n/a
413.6905	0.09	827381	keystroke_Key.backspace	Key.backspace	n/a
414.0055	0.075	828011	keystroke_p	p	n/a
414.2005	0.06	828401	keystroke_o	o	n/a
414.5005	0.075	829001	keystroke_n	n	n/a
414.6505	0.09	829301	keystroke_d	d	n/a
414.7405	0.135	829481	keystroke_i	i	n/a
414.8155	0.12	829631	keystroke_n	n	n/a
414.9505	0.06	829901	keystroke_g	g	n/a
415.1605	0.06	830321	keystroke_Key.enter	Key.enter	n/a
415.2245	11.127	830449	prompt	n/a	shares portfolio henry remembered\n
416.1655	0.06	832331	keystroke_s	s	n/a
416.2405	0.06	832481	keystroke_h	h	n/a
416.3455	0.105	832691	keystroke_a	a	n/a
416.4205	0.15	832841	keystroke_r	r	n/a
416.5405	0.075	833081	keystroke_e	e	n/a
416.7655	0.105	833531	keystroke_s	s	n/a
416.8705	0.105	833741	keystroke_Key.space	Key.space	n/a
417.0505	0.105	834101	keystroke_p	p	n/a
417.2605	0.075	834521	keystroke_o	o	n/a
417.3505	0.045	834701	keystroke_r	r	n/a
417.4855	0.075	834971	keystroke_t	t	n/a
419.2705	0.06	838541	keystroke_f	f	n/a
419.4205	0.075	838841	keystroke_o	o	n/a
419.6605	0.075	839321	keystroke_l	l	n/a
419.7805	0.105	839561	keystroke_i	i	n/a
419.9755	0.06	839951	keystroke_o	o	n/a
420.1705	0.09	840341	keystroke_Key.space	Key.space	n/a
420.4555	0.075	840911	keystroke_h	h	n/a
420.5455	0.09	841091	keystroke_e	e	n/a
420.6955	0.09	841391	keystroke_n	n	n/a
421.6105	0.105	843221	keystroke_r	r	n/a
421.9705	0.165	843941	keystroke_y	y	n/a
422.1055	0.105	844211	keystroke_Key.space	Key.space	n/a
422.6755	0.09	845351	keystroke_r	r	n/a
422.8855	0.09	845771	keystroke_e	e	n/a
423.0055	0.09	846011	keystroke_m	m	n/a
423.2605	0.075	846521	keystroke_b	b	n/a
424.0855	0.075	848171	keystroke_Key.backspace	Key.backspace	n/a
424.4305	0.075	848861	keystroke_e	e	n/a
424.7755	0.075	849551	keystroke_m	m	n/a
425.0755	0.06	850151	keystroke_b	b	n/a
425.1955	0.075	850391	keystroke_e	e	n/a
425.2405	0.165	850481	keystroke_r	r	n/a
425.4505	0.06	850901	keystroke_e	e	n/a
425.9605	0.075	851921	keystroke_d	d	n/a
426.2605	0.09	852521	keystroke_Key.enter	Key.enter	n/a
426.355	11.052	852710	prompt	n/a	label rebound governance editions\n
427.2655	0.09	854531	keystroke_l	l	n/a
427.4005	0.075	854801	keystroke_a	a	n/a
427.5505	0.075	855101	keystroke_b	b	n/a
427.7005	0.06	855401	keystroke_e	e	n/a
427.8055	0.15	855611	keystroke_l	l	n/a
427.9405	0.12	855881	keystroke_Key.space	Key.space	n/a
428.2105	0.165	856421	keystroke_r	r	n/a
428.3305	0.09	856661	keystroke_e	e	n/a
428.7055	0.09	857411	keystroke_b	b	n/a
428.8555	0.15	857711	keystroke_o	o	n/a
428.9905	0.105	857981	keystroke_u	u	n/a
429.1555	0.12	858311	keystroke_d	d	n/a
429.4555	0.12	858911	keystroke_Key.space	Key.space	n/a
430.4905	0.045	860981	keystroke_Key.backspace	Key.backspace	n/a
431.0005	0.135	862001	keystroke_Key.backspace	Key.backspace	n/a
431.2555	0.06	862511	keystroke_n	n	n/a
431.3905	0.06	862781	keystroke_d	d	n/a
431.5405	0.09	863081	keystroke_Key.space	Key.space	n/a
432.9655	0.075	865931	keystroke_g	g	n/a
433.1305	0.09	866261	keystroke_o	o	n/a
433.2805	0.075	866561	keystroke_v	v	n/a
433.5355	0.105	867071	keystroke_e	e	n/a
434.4955	0.075	868991	keystroke_r	r	n/a
434.7505	0.075	869501	keystroke_n	n	n/a
434.9155	0.06	869831	keystroke_a	a	n/a
435.0655	0.06	870131	keystroke_n	n	n/a
435.1555	0.15	870311	keystroke_c	c	n/a
435.2905	0.09	870581	keystroke_e	e	n/a
435.4555	0.09	870911	keystroke_Key.space	Key.space	n/a
435.5755	0.075	871151	keystroke_e	e	n/a
436.2805	0.06	872561	keystroke_d	d	n/a
436.4155	0.075	872831	keystroke_i	i	n/a
436.5505	0.09	873101	keystroke_t	t	n/a
436.6555	0.12	873311	keystroke_i	i	n/a
436.7605	0.135	873521	keystroke_o	o	n/a
436.8655	0.12	873731	keystroke_n	n	n/a
437.0005	0.09	874001	keystroke_s	s	n/a
437.3155	0.09	874631	keystroke_Key.enter	Key.enter	n/a
437.4105	11.7115	874821	prompt	n/a	survive hiring cowboy offices\n
438.6955	0.09	877391	keystroke_s	s	n/a
439.2055	0.09	878411	keystroke_u	u	n/a
439.3555	0.09	878711	keystroke_r	r	n/a
439.6105	0.09	879221	keystroke_v	v	n/a
439.7305	0.09	879461	keystroke_i	i	n/a
440.0005	0.09	880001	keystroke_v	v	n/a
440.1205	0.09	880241	keystroke_e	e	n/a
440.7055	0.015	881411	keystroke_Key.space	Key.space	n/a
440.8555	0.09	881711	keystroke_h	h	n/a
441.0055	0.09	882011	keystroke_i	i	n/a
441.5905	0.09	883181	keystroke_r	r	n/a
441.6955	0.12	883391	keystroke_i	i	n/a
442.2655	0.09	884531	keystroke_n	n	n/a
442.3855	0.09	884771	keystroke_g	g	n/a
442.5205	0.105	885041	keystroke_Key.space	Key.space	n/a
444.3355	0.105	888671	keystroke_c	c	n/a
444.4855	0.105	888971	keystroke_o	o	n/a
445.715	0.06	891430	keystroke_w	w	n/a
445.865	0.09	891730	keystroke_b	b	n/a
446	0.09	892000	keystroke_o	o	n/a
446.24	0.076	892480	keystroke_t	t	n/a
446.8695	0.075	893739	keystroke_Key.backspace	Key.backspace	n/a
447.6505	0.165	895301	keystroke_y	y	n/a
447.7695	0.135	895539	keystroke_Key.space	Key.space	n/a
447.9195	0.105	895839	keystroke_o	o	n/a
448.1295	0.075	896259	keystroke_f	f	n/a
448.2955	0.044	896591	keystroke_f	f	n/a
448.4005	0.075	896801	keystroke_i	i	n/a
448.5795	0.106	897159	keystroke_c	c	n/a
448.7145	0.12	897429	keystroke_e	e	n/a
448.8645	0.075	897729	keystroke_s	s	n/a
449.0445	0.076	898089	keystroke_Key.enter	Key.enter	n/a
449.125	7.932	898250	prompt	n/a	gathered acres phase preferred\n
450.7245	0.061	901449	keystroke_g	g	n/a
450.8595	0.03	901719	keystroke_a	a	n/a
450.9045	0.091	901809	keystroke_t	t	n/a
451.0105	0.09	902021	keystroke_h	h	n/a
451.1295	0.061	902259	keystroke_e	e	n/a
451.1755	0.15	902351	keystroke_r	r	n/a
451.8045	0.09	903609	keystroke_e	e	n/a
451.9845	0.075	903969	keystroke_d	d	n/a
452.0445	0.12	904089	keystroke_Key.space	Key.space	n/a
452.2255	0.134	904451	keystroke_a	a	n/a
452.3755	0.09	904751	keystroke_c	c	n/a
452.6895	0.061	905379	keystroke_r	r	n/a
453.4395	0.076	906879	keystroke_e	e	n/a
453.6795	0.046	907359	keystroke_s	s	n/a
453.7995	0.105	907599	keystroke_Key.space	Key.space	n/a
454.1595	0.09	908319	keystroke_p	p	n/a
454.3545	0.075	908709	keystroke_h	h	n/a
454.4755	0.075	908951	keystroke_a	a	n/a
454.6705	0.119	909341	keystroke_s	s	n/a
454.7455	0.105	909491	keystroke_e	e	n/a
454.8355	0.104	909671	keystroke_Key.space	Key.space	n/a
455.2705	0.059	910541	keystroke_p	p	n/a
455.4205	0.119	910841	keystroke_r	r	n/a
455.5105	0.104	911021	keystroke_e	e	n/a
455.8405	0.105	911681	keystroke_f	f	n/a
456.0205	0.119	912041	keystroke_e	e	n/a
456.1845	0.076	912369	keystroke_r	r	n/a
456.3345	0.105	912669	keystroke_r	r	n/a
456.4545	0.121	912909	keystroke_e	e	n/a
456.6795	0.061	913359	keystroke_d	d	n/a
456.9495	0.105	913899	keystroke_Key.enter	Key.enter	n/a
457.06	9.2515	914120	prompt	n/a	dump grip sample cultures\n
458.4955	0.09	916991	keystroke_d	d	n/a
458.7955	0.09	917591	keystroke_u	u	n/a
459.8605	0.165	919721	keystroke_m	m	n/a
460.0105	0.105	920021	keystroke_p	p	n/a
460.5045	0.075	921009	keystroke_Key.space	Key.space	n/a
461.4055	0.06	922811	keystroke_g	g	n/a
461.6155	0.075	923231	keystroke_r	r	n/a
461.8255	0.104	923651	keystroke_i	i	n/a
462.2755	0.09	924551	keystroke_p	p	n/a
462.4695	0.105	924939	keystroke_Key.space	Key.space	n/a
462.6205	0.075	925241	keystroke_s	s	n/a
462.7855	0.09	925571	keystroke_a	a	n/a
462.9055	0.135	925811	keystroke_m	m	n/a
463.1305	0.03	926261	keystroke_p	p	n/a
463.3105	0.105	926621	keystroke_l	l	n/a
463.5055	0.03	927011	keystroke_e	e	n/a
464.0455	0.09	928091	keystroke_Key.space	Key.space	n/a
464.4055	0.105	928811	keystroke_c	c	n/a
464.5705	0.075	929141	keystroke_u	u	n/a
464.7355	0.09	929471	keystroke_l	l	n/a
464.8405	0.075	929681	keystroke_t	t	n/a
464.9905	0.075	929981	keystroke_u	u	n/a
465.0805	0.165	930161	keystroke_r	r	n/a
465.2155	0.105	930431	keystroke_e	e	n/a
465.4555	0.09	930911	keystroke_s	s	n/a
466.2045	0.105	932409	keystroke_Key.enter	Key.enter	n/a
466.315	10.1065	932630	prompt	n/a	offices furnishings noticed citizenship\n
467.4505	0.075	934901	keystroke_o	o	n/a
467.6605	0.045	935321	keystroke_f	f	n/a
467.7805	0.075	935561	keystroke_f	f	n/a
467.8705	0.105	935741	keystroke_i	i	n/a
468.1255	0.15	936251	keystroke_c	c	n/a
468.3205	0.15	936641	keystroke_e	e	n/a
468.4855	0.075	936971	keystroke_s	s	n/a
468.5755	0.12	937151	keystroke_Key.space	Key.space	n/a
469.4305	0.09	938861	keystroke_f	f	n/a
469.6555	0.075	939311	keystroke_u	u	n/a
470.0755	0.06	940151	keystroke_r	r	n/a
470.2255	0.135	940451	keystroke_n	n	n/a
470.3755	0.09	940751	keystroke_i	i	n/a
470.6605	0.075	941321	keystroke_s	s	n/a
470.7505	0.09	941501	keystroke_h	h	n/a
470.8555	0.165	941711	keystroke_i	i	n/a
470.9755	0.15	941951	keystroke_n	n	n/a
471.1105	0.075	942221	keystroke_g	g	n/a
471.2455	0.075	942491	keystroke_s	s	n/a
471.3805	0.09	942761	keystroke_Key.space	Key.space	n/a
471.6655	0.075	943331	keystroke_n	n	n/a
471.7705	0.12	943541	keystroke_o	o	n/a
471.9355	0.09	943871	keystroke_t	t	n/a
472.0405	0.105	944081	keystroke_i	i	n/a
472.2205	0.12	944441	keystroke_c	c	n/a
472.3405	0.12	944681	keystroke_e	e	n/a
472.5805	0.09	945161	keystroke_d	d	n/a
472.7305	0.09	945461	keystroke_Key.space	Key.space	n/a
473.7505	0.075	947501	keystroke_c	c	n/a
473.9005	0.075	947801	keystroke_i	i	n/a
474.1105	0.03	948221	keystroke_t	t	n/a
474.2155	0.09	948431	keystroke_i	i	n/a
474.5755	0.075	949151	keystroke_z	z	n/a
474.7855	0.075	949571	keystroke_e	e	n/a
474.9355	0.09	949871	keystroke_n	n	n/a
475.1905	0.045	950381	keystroke_s	s	n/a
475.3855	0.09	950771	keystroke_h	h	n/a
475.5505	0.105	951101	keystroke_i	i	n/a
475.9555	0.09	951911	keystroke_p	p	n/a
476.345	0.075	952690	keystroke_Key.enter	Key.enter	n/a
476.4245	8.322	952849	prompt	n/a	karma into lazy endangered\n
477.125	0.075	954250	keystroke_k	k	n/a
477.26	0.105	954520	keystroke_a	a	n/a
477.44	0.075	954880	keystroke_r	r	n/a
477.74	0.09	955480	keystroke_m	m	n/a
477.935	0.045	955870	keystroke_a	a	n/a
477.995	0.09	955990	keystroke_Key.space	Key.space	n/a
478.13	0.12	956260	keystroke_i	i	n/a
478.22	0.09	956440	keystroke_n	n	n/a
478.355	0.06	956710	keystroke_t	t	n/a
478.46	0.15	956920	keystroke_o	o	n/a
478.595	0.09	957190	keystroke_Key.space	Key.space	n/a
478.745	0.075	957490	keystroke_l	l	n/a
478.85	0.12	957700	keystroke_a	a	n/a
479.165	0.105	958330	keystroke_z	z	n/a
479.435	0.09	958870	keystroke_t	t	n/a
480.155	0.075	960310	keystroke_Key.backspace	Key.backspace	n/a
480.695	0.21	961390	keystroke_y	y	n/a
480.89	0.03	961780	keystroke_Key.space	Key.space	n/a
481.43	0.075	962860	keystroke_e	e	n/a
481.55	0.09	963100	keystroke_n	n	n/a
481.79	0.075	963580	keystroke_d	d	n/a
481.97	0.075	963940	keystroke_a	a	n/a
482.81	0.09	965620	keystroke_n	n	n/a
483.77	0.045	967540	keystroke_g	g	n/a
483.9645	0.09	967929	keystroke_e	e	n/a
484.0245	0.195	968049	keystroke_r	r	n/a
484.2045	0.09	968409	keystroke_e	e	n/a
484.4295	0.06	968859	keystroke_d	d	n/a
484.64	0.1045	969280	keystroke_Key.enter	Key.enter	n/a
484.7495	10.317	969499	prompt	n/a	engines size he's thousand\n
488.288	0	976576	keystroke_e	e	n/a
488.405	0.06	976810	keystroke_n	n	n/a
488.6445	0.03	977289	keystroke_g	g	n/a
488.7645	0.24	977529	keystroke_i	i	n/a
489.0345	0.121	978069	keystroke_n	n	n/a
489.3195	0.135	978639	keystroke_e	e	n/a
489.4555	0.074	978911	keystroke_s	s	n/a
489.5895	0.12	979179	keystroke_Key.space	Key.space	n/a
489.89	0.075	979780	keystroke_s	s	n/a
489.995	0.075	979990	keystroke_i	i	n/a
490.7905	0.075	981581	keystroke_z	z	n/a
491.2705	0.074	982541	keystroke_e	e	n/a
491.4045	0.105	982809	keystroke_Key.space	Key.space	n/a
491.6745	0.09	983349	keystroke_h	h	n/a
491.7945	0.0905	983589	keystroke_e	e	n/a
492.11	0.1345	984220	keystroke_'	'	n/a
492.2595	0.075	984519	keystroke_s	s	n/a
492.3645	0.09	984729	keystroke_Key.space	Key.space	n/a
492.6955	0.0445	985391	keystroke_t	t	n/a
492.725	0.105	985450	keystroke_h	h	n/a
492.845	0.15	985690	keystroke_o	o	n/a
492.95	0.12	985900	keystroke_u	u	n/a
493.64	0.075	987280	keystroke_g	g	n/a
494.015	0.06	988030	keystroke_Key.backspace	Key.backspace	n/a
494.12	0.105	988240	keystroke_s	s	n/a
494.24	0.09	988480	keystroke_a	a	n/a
494.375	0.09	988750	keystroke_n	n	n/a
494.495	0.0905	988990	keystroke_d	d	n/a
494.9745	0.09	989949	keystroke_Key.enter	Key.enter	n/a
495.0695	8.457	990139	prompt	n/a	betting giant modem lower\n
496.745	0.06	993490	keystroke_b	b	n/a
496.82	0.075	993640	keystroke_e	e	n/a
497	0.06	994000	keystroke_t	t	n/a
497.15	0.045	994300	keystroke_t	t	n/a
497.225	0.135	994450	keystroke_i	i	n/a
497.3155	0.1045	994631	keystroke_n	n	n/a
497.45	0.075	994900	keystroke_g	g	n/a
497.555	0.09	995110	keystroke_Key.space	Key.space	n/a
497.885	0.075	995770	keystroke_d	d	n/a
498.035	0.09	996070	keystroke_i	i	n/a
498.14	0.045	996280	keystroke_a	a	n/a
498.245	0.075	996490	keystroke_n	n	n/a
498.38	0.075	996760	keystroke_t	t	n/a
498.8	0.045	997600	keystroke_Key.backspace	Key.backspace	n/a
498.935	0.06	997870	keystroke_Key.backspace	Key.backspace	n/a
499.085	0.045	998170	keystroke_Key.backspace	Key.backspace	n/a
499.235	0.045	998470	keystroke_Key.backspace	Key.backspace	n/a
499.76	0.075	999520	keystroke_Key.backspace	Key.backspace	n/a
500.495	0.015	1000990	keystroke_g	g	n/a
500.57	0.09	1001140	keystroke_i	i	n/a
500.675	0.075	1001350	keystroke_a	a	n/a
500.78	0.075	1001560	keystroke_n	n	n/a
501.02	0.075	1002040	keystroke_t	t	n/a
501.155	0.12	1002310	keystroke_Key.space	Key.space	n/a
501.755	0.075	1003510	keystroke_m	m	n/a
501.92	0.06	1003840	keystroke_o	o	n/a
502.115	0.06	1004230	keystroke_d	d	n/a
502.265	0.06	1004530	keystroke_e	e	n/a
502.4	0.12	1004800	keystroke_m	m	n/a
502.535	0.09	1005070	keystroke_Key.space	Key.space	n/a
502.7	0.09	1005400	keystroke_l	l	n/a
502.895	0.06	1005790	keystroke_o	o	n/a
502.985	0.165	1005970	keystroke_w	w	n/a
503.105	0.09	1006210	keystroke_e	e	n/a
503.165	0.12	1006330	keystroke_r	r	n/a
503.45	0.075	1006900	keystroke_Key.enter	Key.enter	n/a
503.5315	8.65	1007063	prompt	n/a	bands exercises submitting flows\n
504.275	0.075	1008550	keystroke_b	b	n/a
504.41	0.06	1008820	keystroke_a	a	n/a
504.53	0.075	1009060	keystroke_n	n	n/a
504.65	0.09	1009300	keystroke_d	d	n/a
505.025	0.075	1010050	keystroke_s	s	n/a
505.16	0.075	1010320	keystroke_Key.space	Key.space	n/a
505.34	0.09	1010680	keystroke_e	e	n/a
506.255	0.09	1012510	keystroke_x	x	n/a
506.51	0.105	1013020	keystroke_e	e	n/a
506.675	0.06	1013350	keystroke_r	r	n/a
506.9	0.105	1013800	keystroke_c	c	n/a
507.08	0.09	1014160	keystroke_i	i	n/a
507.215	0.135	1014430	keystroke_s	s	n/a
507.335	0.09	1014670	keystroke_e	e	n/a
507.47	0.09	1014940	keystroke_Key.space	Key.space	n/a
508.5495	0.075	1017099	keystroke_s	s	n/a
508.8045	0.09	1017609	keystroke_u	u	n/a
509.0445	0.075	1018089	keystroke_b	b	n/a
509.2995	0.15	1018599	keystroke_m	m	n/a
509.4645	0.045	1018929	keystroke_i	i	n/a
509.5845	0.06	1019169	keystroke_t	t	n/a
509.7045	0.105	1019409	keystroke_t	t	n/a
509.8105	0.119	1019621	keystroke_i	i	n/a
509.8845	0.105	1019769	keystroke_n	n	n/a
510.0045	0.09	1020009	keystroke_g	g	n/a
510.1245	0.1055	1020249	keystroke_Key.space	Key.space	n/a
511.085	0.075	1022170	keystroke_f	f	n/a
511.22	0.06	1022440	keystroke_l	l	n/a
511.415	0.045	1022830	keystroke_o	o	n/a
511.67	0.06	1023340	keystroke_w	w	n/a
511.865	0.06	1023730	keystroke_s	s	n/a
512.12	0.06	1024240	keystroke_Key.enter	Key.enter	n/a
512.186	12.7605	1024372	prompt	n/a	transform worcester memorabilia donald\n
513.05	0.075	1026100	keystroke_t	t	n/a
513.155	0.075	1026310	keystroke_h	h	n/a
513.425	0.06	1026850	keystroke_r	r	n/a
513.545	0.09	1027090	keystroke_a	a	n/a
513.68	0.09	1027360	keystroke_n	n	n/a
513.875	0.09	1027750	keystroke_s	s	n/a
514.31	0.075	1028620	keystroke_Key.backspace	Key.backspace	n/a
514.475	0.045	1028950	keystroke_Key.backspace	Key.backspace	n/a
514.61	0.0595	1029220	keystroke_Key.backspace	Key.backspace	n/a
514.7595	0.045	1029519	keystroke_Key.backspace	Key.backspace	n/a
514.925	0.06	1029850	keystroke_Key.backspace	Key.backspace	n/a
515.6145	0.09	1031229	keystroke_r	r	n/a
515.7495	0.075	1031499	keystroke_a	a	n/a
515.8695	0.105	1031739	keystroke_n	n	n/a
516.0645	0.091	1032129	keystroke_s	s	n/a
516.2745	0.075	1032549	keystroke_f	f	n/a
516.3945	0.121	1032789	keystroke_o	o	n/a
516.5295	0.105	1033059	keystroke_r	r	n/a
516.9045	0.135	1033809	keystroke_m	m	n/a
516.9945	0.135	1033989	keystroke_Key.space	Key.space	n/a
517.3995	0.09	1034799	keystroke_w	w	n/a
517.5495	0.075	1035099	keystroke_o	o	n/a
517.7005	0.089	1035401	keystroke_r	r	n/a
518.1205	0.045	1036241	keystroke_c	c	n/a
518.1955	0.105	1036391	keystroke_e	e	n/a
518.3895	0.075	1036779	keystroke_s	s	n/a
518.4955	0.09	1036991	keystroke_t	t	n/a
518.7205	0.09	1037441	keystroke_e	e	n/a
518.8105	0.074	1037621	keystroke_r	r	n/a
518.9145	0.165	1037829	keystroke_Key.space	Key.space	n/a
519.0805	0.104	1038161	keystroke_m	m	n/a
519.1995	0.106	1038399	keystroke_o	o	n/a
519.905	0.06	1039810	keystroke_Key.backspace	Key.backspace	n/a
520.55	0.075	1041100	keystroke_e	e	n/a
520.745	0.09	1041490	keystroke_m	m	n/a
520.88	0.105	1041760	keystroke_o	o	n/a
521.105	0.105	1042210	keystroke_r	r	n/a
521.615	0.075	1043230	keystroke_a	a	n/a
521.885	0.105	1043770	keystroke_b	b	n/a
522.005	0.15	1044010	keystroke_i	i	n/a
522.215	0.135	1044430	keystroke_l	l	n/a
522.335	0.105	1044670	keystroke_i	i	n/a
522.485	0.09	1044970	keystroke_a	a	n/a
523.01	0.09	1046020	keystroke_Key.space	Key.space	n/a
523.235	0.075	1046470	keystroke_d	d	n/a
523.385	0.045	1046770	keystroke_i	i	n/a
523.91	0.06	1047820	keystroke_Key.backspace	Key.backspace	n/a
524.165	0.12	1048330	keystroke_o	o	n/a
524.255	0.105	1048510	keystroke_n	n	n/a
524.405	0.075	1048810	keystroke_a	a	n/a
524.57	0.075	1049140	keystroke_l	l	n/a
524.69	0.06	1049380	keystroke_d	d	n/a
524.87	0.075	1049740	keystroke_Key.enter	Key.enter	n/a
524.9495	11.7565	1049899	prompt	n/a	mean description athletics glory\n
525.68	0.09	1051360	keystroke_m	m	n/a
525.815	0.06	1051630	keystroke_e	e	n/a
526.385	0.06	1052770	keystroke_a	a	n/a
526.535	0.135	1053070	keystroke_n	n	n/a
526.685	0.06	1053370	keystroke_Key.space	Key.space	n/a
526.79	0.06	1053580	keystroke_d	d	n/a
526.94	0.075	1053880	keystroke_e	e	n/a
527.105	0.12	1054210	keystroke_s	s	n/a
527.345	0.075	1054690	keystroke_c	c	n/a
527.54	0.06	1055080	keystroke_r	r	n/a
527.63	0.135	1055260	keystroke_i	i	n/a
527.885	0.03	1055770	keystroke_p	p	n/a
528.455	0.06	1056910	keystroke_t	t	n/a
528.53	0.165	1057060	keystroke_i	i	n/a
528.68	0.18	1057360	keystroke_o	o	n/a
528.845	0.12	1057690	keystroke_n	n	n/a
529.235	0.105	1058470	keystroke_Key.space	Key.space	n/a
529.505	0.06	1059010	keystroke_a	a	n/a
529.7	0.09	1059400	keystroke_t	t	n/a
529.805	0.105	1059610	keystroke_h	h	n/a
529.925	0.075	1059850	keystroke_e	e	n/a
532.192	0.013	1064384	keystroke_Key.backspace	Key.backspace	n/a
532.7	0.075	1065400	keystroke_l	l	n/a
532.82	0.045	1065640	keystroke_e	e	n/a
532.925	0.09	1065850	keystroke_t	t	n/a
533.03	0.105	1066060	keystroke_i	i	n/a
533.195	0.12	1066390	keystroke_c	c	n/a
533.435	0.09	1066870	keystroke_s	s	n/a
533.57	0.105	1067140	keystroke_Key.space	Key.space	n/a
534.455	0.09	1068910	keystroke_g	g	n/a
534.605	0.045	1069210	keystroke_l	l	n/a
534.785	0.075	1069570	keystroke_o	o	n/a
534.935	0.075	1069870	keystroke_r	r	n/a
536.195	0.075	1072390	keystroke_y	y	n/a
536.6445	0.06	1073289	keystroke_Key.enter	Key.enter	n/a
536.7095	10.7665	1073419	prompt	n/a	classes thirty halifax oldest\n
538.1745	0.09	1076349	keystroke_c	c	n/a
538.2645	0.12	1076529	keystroke_l	l	n/a
538.4145	0.06	1076829	keystroke_a	a	n/a
538.5945	0.06	1077189	keystroke_s	s	n/a
538.7445	0.09	1077489	keystroke_s	s	n/a
538.9395	0.09	1077879	keystroke_e	e	n/a
539.1045	0.045	1078209	keystroke_s	s	n/a
539.2395	0.105	1078479	keystroke_Key.space	Key.space	n/a
539.5095	0.06	1079019	keystroke_t	t	n/a
539.5695	0.105	1079139	keystroke_h	h	n/a
539.7045	0.105	1079409	keystroke_i	i	n/a
539.8245	0.045	1079649	keystroke_r	r	n/a
539.9895	0.045	1079979	keystroke_t	t	n/a
540.0645	0.12	1080129	keystroke_y	y	n/a
540.1995	0.105	1080399	keystroke_Key.space	Key.space	n/a
540.4695	0.06	1080939	keystroke_a	a	n/a
540.9645	0.135	1081929	keystroke_l	l	n/a
541.0845	0.09	1082169	keystroke_i	i	n/a
542.2095	0.075	1084419	keystroke_Key.backspace	Key.backspace	n/a
542.3745	0.075	1084749	keystroke_Key.backspace	Key.backspace	n/a
542.5095	0.06	1085019	keystroke_Key.backspace	Key.backspace	n/a
543.3345	0.06	1086669	keystroke_h	h	n/a
543.4395	0.075	1086879	keystroke_a	a	n/a
543.5295	0.09	1087059	keystroke_l	l	n/a
543.9495	0.09	1087899	keystroke_i	i	n/a
544.2195	0.105	1088439	keystroke_f	f	n/a
544.3095	0.06	1088619	keystroke_a	a	n/a
545.7945	0.075	1091589	keystroke_x	x	n/a
545.9445	0.09	1091889	keystroke_Key.space	Key.space	n/a
546.3195	0.075	1092639	keystroke_o	o	n/a
546.5145	0.12	1093029	keystroke_l	l	n/a
546.5895	0.075	1093179	keystroke_d	d	n/a
546.7695	0.12	1093539	keystroke_e	e	n/a
547.0245	0.105	1094049	keystroke_s	s	n/a
547.1445	0.075	1094289	keystroke_t	t	n/a
547.3995	0.075	1094799	keystroke_Key.enter	Key.enter	n/a
547.479	13.092	1094958	prompt	n/a	legislature appointments meditation draws\n
548.3745	0.105	1096749	keystroke_l	l	n/a
548.5095	0.06	1097019	keystroke_e	e	n/a
548.7345	0.075	1097469	keystroke_g	g	n/a
549.3945	0.045	1098789	keystroke_i	i	n/a
549.5445	0.06	1099089	keystroke_s	s	n/a
550.6395	0.09	1101279	keystroke_l	l	n/a
550.7445	0.015	1101489	keystroke_a	a	n/a
550.7745	0.09	1101549	keystroke_t	t	n/a
550.9845	0.075	1101969	keystroke_u	u	n/a
551.0895	0.15	1102179	keystroke_r	r	n/a
551.2245	0.09	1102449	keystroke_e	e	n/a
551.3895	0.09	1102779	keystroke_Key.space	Key.space	n/a
551.9895	0.045	1103979	keystroke_a	a	n/a
552.1245	0.06	1104249	keystroke_p	p	n/a
552.2745	0.06	1104549	keystroke_p	p	n/a
552.4695	0.12	1104939	keystroke_o	o	n/a
552.5595	0.195	1105119	keystroke_i	i	n/a
552.7095	0.105	1105419	keystroke_n	n	n/a
552.8745	0.075	1105749	keystroke_t	t	n/a
552.9945	0.075	1105989	keystroke_m	m	n/a
553.0845	0.075	1106169	keystroke_e	e	n/a
553.1895	0.09	1106379	keystroke_n	n	n/a
553.3245	0.045	1106649	keystroke_t	t	n/a
553.4295	0.075	1106859	keystroke_s	s	n/a
553.6095	0.09	1107219	keystroke_Key.space	Key.space	n/a
553.9545	0.06	1107909	keystroke_m	m	n/a
554.0295	0.075	1108059	keystroke_e	e	n/a
554.2245	0.075	1108449	keystroke_d	d	n/a
554.3145	0.075	1108629	keystroke_i	i	n/a
554.4045	0.09	1108809	keystroke_c	c	n/a
555.1095	0.015	1110219	keystroke_Key.backspace	Key.backspace	n/a
556.2195	0.06	1112439	keystroke_t	t	n/a
556.3245	0.09	1112649	keystroke_a	a	n/a
556.3995	0.06	1112799	keystroke_t	t	n/a
556.4895	0.15	1112979	keystroke_i	i	n/a
556.6245	0.12	1113249	keystroke_o	o	n/a
556.6995	0.105	1113399	keystroke_n	n	n/a
557.4495	0.105	1114899	keystroke_Key.space	Key.space	n/a
557.6895	0.06	1115379	keystroke_d	d	n/a
558.9345	0.075	1117869	keystroke_r	r	n/a
559.1895	0.075	1118379	keystroke_a	a	n/a
559.4145	0.075	1118829	keystroke_w	w	n/a
559.9695	0.06	1119939	keystroke_s	s	n/a
560.5095	0.06	1121019	keystroke_Key.enter	Key.enter	n/a
560.574	9.747	1121148	prompt	n/a	bloomberg defined thing striking\n
561.3795	0.09	1122759	keystroke_b	b	n/a
561.6045	0.105	1123209	keystroke_l	l	n/a
562.2045	0.045	1124409	keystroke_o	o	n/a
562.3545	0.105	1124709	keystroke_o	o	n/a
562.5345	0.12	1125069	keystroke_n	n	n/a
563.2845	0.075	1126569	keystroke_Key.backspace	Key.backspace	n/a
564.2595	0.075	1128519	keystroke_m	m	n/a
564.4845	0.06	1128969	keystroke_b	b	n/a
564.6795	0.105	1129359	keystroke_e	e	n/a
564.7245	0.135	1129449	keystroke_r	r	n/a
565.1295	0.06	1130259	keystroke_g	g	n/a
565.9395	0.105	1131879	keystroke_Key.space	Key.space	n/a
566.1195	0.06	1132239	keystroke_d	d	n/a
566.2995	0.06	1132599	keystroke_e	e	n/a
566.5395	0.09	1133079	keystroke_f	f	n/a
566.6445	0.15	1133289	keystroke_i	i	n/a
566.7795	0.12	1133559	keystroke_n	n	n/a
566.9445	0.075	1133889	keystroke_e	e	n/a
567.1245	0.075	1134249	keystroke_d	d	n/a
567.2445	0.09	1134489	keystroke_Key.space	Key.space	n/a
567.4995	0.045	1134999	keystroke_t	t	n/a
567.5595	0.105	1135119	keystroke_h	h	n/a
567.6795	0.165	1135359	keystroke_i	i	n/a
567.7845	0.12	1135569	keystroke_n	n	n/a
568.1595	0.09	1136319	keystroke_g	g	n/a
568.3695	0.105	1136739	keystroke_Key.space	Key.space	n/a
568.5495	0.075	1137099	keystroke_s	s	n/a
568.7445	0.06	1137489	keystroke_t	t	n/a
569.3445	0.06	1138689	keystroke_r	r	n/a
569.4945	0.06	1138989	keystroke_i	i	n/a
569.6745	0.06	1139349	keystroke_k	k	n/a
569.8395	0.165	1139679	keystroke_i	i	n/a
569.9445	0.12	1139889	keystroke_n	n	n/a
570.0795	0.075	1140159	keystroke_g	g	n/a
570.2595	0.06	1140519	keystroke_Key.enter	Key.enter	n/a
570.324	10.227	1140648	prompt	n/a	bizrate overview those eligible\n
571.9245	0.075	1143849	keystroke_b	b	n/a
572.1645	0.09	1144329	keystroke_i	i	n/a
572.4945	0.075	1144989	keystroke_z	z	n/a
572.7495	0.12	1145499	keystroke_r	r	n/a
572.8995	0.105	1145799	keystroke_a	a	n/a
573.0645	0.105	1146129	keystroke_t	t	n/a
573.2745	0.09	1146549	keystroke_e	e	n/a
573.4395	0.09	1146879	keystroke_Key.space	Key.space	n/a
573.5745	0.12	1147149	keystroke_o	o	n/a
573.7395	0.06	1147479	keystroke_v	v	n/a
573.9495	0.135	1147899	keystroke_e	e	n/a
574.0545	0.075	1148109	keystroke_r	r	n/a
574.7295	0.105	1149459	keystroke_i	i	n/a
574.8195	0.09	1149639	keystroke_e	e	n/a
574.8945	0.135	1149789	keystroke_w	w	n/a
575.6445	0.15	1151289	keystroke_Key.backspace	Key.backspace	n/a
575.8095	0.015	1151619	keystroke_Key.backspace	Key.backspace	n/a
575.8695	0.015	1151739	keystroke_Key.backspace	Key.backspace	n/a
576.9045	0.075	1153809	keystroke_v	v	n/a
577.0245	0.105	1154049	keystroke_i	i	n/a
577.1445	0.15	1154289	keystroke_e	e	n/a
577.2495	0.12	1154499	keystroke_w	w	n/a
577.5645	0.12	1155129	keystroke_Key.space	Key.space	n/a
577.9095	0.09	1155819	keystroke_t	t	n/a
578.0005	0.104	1156001	keystroke_h	h	n/a
578.1345	0.09	1156269	keystroke_o	o	n/a
578.2395	0.15	1156479	keystroke_s	s	n/a
578.3745	0.105	1156749	keystroke_e	e	n/a
578.5095	0.12	1157019	keystroke_Key.space	Key.space	n/a
578.7045	0.075	1157409	keystroke_e	e	n/a
578.8695	0.15	1157739	keystroke_l	l	n/a
579.0045	0.12	1158009	keystroke_i	i	n/a
579.7395	0.09	1159479	keystroke_g	g	n/a
579.8595	0.1055	1159719	keystroke_i	i	n/a
579.995	0.06	1159990	keystroke_a	a	n/a
580.055	0.12	1160110	keystroke_b	b	n/a
580.25	0.075	1160500	keystroke_l	l	n/a
580.34	0.06	1160680	keystroke_e	e	n/a
580.475	0.075	1160950	keystroke_Key.enter	Key.enter	n/a
580.554	11.9075	1161108	prompt	n/a	appeal anthropology determining roads\n
581.42	0.06	1162840	keystroke_a	a	n/a
581.525	0.045	1163050	keystroke_p	p	n/a
581.66	0.075	1163320	keystroke_p	p	n/a
581.75	0.09	1163500	keystroke_e	e	n/a
581.825	0.09	1163650	keystroke_a	a	n/a
581.99	0.135	1163980	keystroke_l	l	n/a
582.11	0.12	1164220	keystroke_Key.space	Key.space	n/a
582.35	0.06	1164700	keystroke_t	t	n/a
582.44	0.09	1164880	keystroke_h	h	n/a
585.4425	0	1170885	keystroke_Key.backspace	Key.backspace	n/a
585.7395	0.09	1171479	keystroke_Key.backspace	Key.backspace	n/a
585.9495	0.075	1171899	keystroke_a	a	n/a
586.0395	0.09	1172079	keystroke_n	n	n/a
586.2795	0.075	1172559	keystroke_t	t	n/a
586.3995	0.105	1172799	keystroke_h	h	n/a
587.1345	0.075	1174269	keystroke_r	r	n/a
588.0345	0.06	1176069	keystroke_o	o	n/a
588.2445	0.06	1176489	keystroke_p	p	n/a
588.4695	0.03	1176939	keystroke_o	o	n/a
588.6795	0.045	1177359	keystroke_l	l	n/a
588.8445	0.06	1177689	keystroke_o	o	n/a
589.0245	0.075	1178049	keystroke_g	g	n/a
589.1745	0.075	1178349	keystroke_y	y	n/a
589.6995	0.105	1179399	keystroke_Key.space	Key.space	n/a
589.8945	0.06	1179789	keystroke_d	d	n/a
590.0445	0.075	1180089	keystroke_e	e	n/a
590.2095	0.075	1180419	keystroke_t	t	n/a
590.3445	0.15	1180689	keystroke_e	e	n/a
590.4795	0.09	1180959	keystroke_r	r	n/a
590.6145	0.105	1181229	keystroke_m	m	n/a
590.7345	0.12	1181469	keystroke_i	i	n/a
590.8695	0.075	1181739	keystroke_n	n	n/a
590.9745	0.135	1181949	keystroke_i	i	n/a
591.0945	0.075	1182189	keystroke_n	n	n/a
591.1995	0.075	1182399	keystroke_g	g	n/a
591.3945	0.09	1182789	keystroke_Key.space	Key.space	n/a
591.7545	0.09	1183509	keystroke_r	r	n/a
591.8595	0.106	1183719	keystroke_o	o	n/a
591.9495	0.075	1183899	keystroke_a	a	n/a
592.0995	0.135	1184199	keystroke_d	d	n/a
592.2045	0.105	1184409	keystroke_s	s	n/a
592.3845	0.075	1184769	keystroke_Key.enter	Key.enter	n/a
592.4645	5.6665	1184929	prompt	n/a	actually adds ware jokes\n
593.0445	0.075	1186089	keystroke_a	a	n/a
593.2395	0.105	1186479	keystroke_c	c	n/a
593.8095	0.105	1187619	keystroke_t	t	n/a
593.9745	0.09	1187949	keystroke_u	u	n/a
594.0495	0.03	1188099	keystroke_a	a	n/a
594.1995	0.06	1188399	keystroke_l	l	n/a
594.3345	0.075	1188669	keystroke_l	l	n/a
594.5295	0.15	1189059	keystroke_y	y	n/a
594.6645	0.15	1189329	keystroke_Key.space	Key.space	n/a
595.0995	0.045	1190199	keystroke_a	a	n/a
595.2645	0.06	1190529	keystroke_d	d	n/a
595.4295	0.075	1190859	keystroke_d	d	n/a
595.7445	0.06	1191489	keystroke_s	s	n/a
595.8945	0.075	1191789	keystroke_Key.space	Key.space	n/a
596.2245	0.06	1192449	keystroke_w	w	n/a
596.4045	0.135	1192809	keystroke_a	a	n/a
596.5245	0.105	1193049	keystroke_r	r	n/a
596.5845	0.09	1193169	keystroke_e	e	n/a
596.7645	0.09	1193529	keystroke_Key.space	Key.space	n/a
596.9145	0.135	1193829	keystroke_j	j	n/a
597.0645	0.09	1194129	keystroke_o	o	n/a
597.5895	0.075	1195179	keystroke_k	k	n/a
597.7095	0.09	1195419	keystroke_e	e	n/a
597.7845	0.105	1195569	keystroke_s	s	n/a
598.0695	0.06	1196139	keystroke_Key.enter	Key.enter	n/a
598.134	12.192	1196268	prompt	n/a	amsterdam village corporation issues\n
599.1645	0.075	1198329	keystroke_a	a	n/a
599.3745	0.075	1198749	keystroke_m	m	n/a
599.7195	0.075	1199439	keystroke_s	s	n/a
599.9745	0.075	1199949	keystroke_t	t	n/a
600.1695	0.12	1200339	keystroke_e	e	n/a
600.2745	0.075	1200549	keystroke_r	r	n/a
600.5895	0.105	1201179	keystroke_d	d	n/a
600.7095	0.09	1201419	keystroke_a	a	n/a
600.9495	0.06	1201899	keystroke_m	m	n/a
601.3395	0.135	1202679	keystroke_Key.space	Key.space	n/a
603.0645	0.06	1206129	keystroke_w	w	n/a
603.1845	0.075	1206369	keystroke_i	i	n/a
603.7995	0.045	1207599	keystroke_Key.backspace	Key.backspace	n/a
603.9345	0.06	1207869	keystroke_Key.backspace	Key.backspace	n/a
604.0395	0.09	1208079	keystroke_v	v	n/a
604.3395	0.075	1208679	keystroke_i	i	n/a
604.5495	0.06	1209099	keystroke_l	l	n/a
604.7145	0.045	1209429	keystroke_l	l	n/a
605.2395	0.09	1210479	keystroke_a	a	n/a
605.3745	0.075	1210749	keystroke_g	g	n/a
605.5845	0.075	1211169	keystroke_e	e	n/a
605.7345	0.105	1211469	keystroke_Key.space	Key.space	n/a
605.9745	0.075	1211949	keystroke_c	c	n/a
606.1995	0.105	1212399	keystroke_o	o	n/a
607.0245	0.075	1214049	keystroke_r	r	n/a
607.2795	0.075	1214559	keystroke_p	p	n/a
607.4895	0.075	1214979	keystroke_o	o	n/a
607.5795	0.075	1215159	keystroke_r	r	n/a
607.7145	0.105	1215429	keystroke_a	a	n/a
607.7895	0.105	1215579	keystroke_t	t	n/a
607.9395	0.12	1215879	keystroke_i	i	n/a
608.0445	0.15	1216089	keystroke_o	o	n/a
608.1645	0.105	1216329	keystroke_n	n	n/a
608.7195	0.135	1217439	keystroke_Key.space	Key.space	n/a
608.9295	0.105	1217859	keystroke_i	i	n/a
609.1245	0.075	1218249	keystroke_s	s	n/a
609.3045	0.09	1218609	keystroke_s	s	n/a
609.6945	0.075	1219389	keystroke_u	u	n/a
609.8145	0.105	1219629	keystroke_e	e	n/a
609.8895	0.105	1219779	keystroke_s	s	n/a
610.2495	0.075	1220499	keystroke_Key.enter	Key.enter	n/a
610.3295	6.6115	1220659	prompt	n/a	union bread spec include\n
611.8845	0.09	1223769	keystroke_u	u	n/a
612.1245	0.12	1224249	keystroke_n	n	n/a
612.2595	0.105	1224519	keystroke_i	i	n/a
612.3795	0.15	1224759	keystroke_o	o	n/a
612.5145	0.15	1225029	keystroke_n	n	n/a
612.6345	0.075	1225269	keystroke_Key.space	Key.space	n/a
612.8295	0.075	1225659	keystroke_b	b	n/a
612.9495	0.12	1225899	keystroke_r	r	n/a
613.0395	0.12	1226079	keystroke_e	e	n/a
613.1445	0.09	1226289	keystroke_a	a	n/a
613.3545	0.075	1226709	keystroke_d	d	n/a
613.4595	0.09	1226919	keystroke_Key.space	Key.space	n/a
613.6995	0.09	1227399	keystroke_s	s	n/a
613.7745	0.09	1227549	keystroke_p	p	n/a
613.8795	0.075	1227759	keystroke_e	e	n/a
614.1045	0.075	1228209	keystroke_c	c	n/a
614.2095	0.09	1228419	keystroke_Key.space	Key.space	n/a
614.3145	0.15	1228629	keystroke_i	i	n/a
614.4495	0.075	1228899	keystroke_n	n	n/a
615.2145	0.06	1230429	keystroke_c	c	n/a
615.4245	0.075	1230849	keystroke_l	l	n/a
616.4295	0.105	1232859	keystroke_u	u	n/a
616.5195	0.075	1233039	keystroke_d	d	n/a
616.6995	0.045	1233399	keystroke_e	e	n/a
616.8645	0.075	1233729	keystroke_Key.enter	Key.enter	n/a
616.946	8.605	1233892	prompt	n/a	gentle villages exit improve\n
618.5895	0.06	1237179	keystroke_g	g	n/a
618.7545	0.09	1237509	keystroke_e	e	n/a
618.8895	0.105	1237779	keystroke_n	n	n/a
619.0695	0.06	1238139	keystroke_t	t	n/a
619.2045	0.075	1238409	keystroke_l	l	n/a
620.1945	0.075	1240389	keystroke_e	e	n/a
620.2845	0.135	1240569	keystroke_Key.space	Key.space	n/a
620.5245	0.105	1241049	keystroke_v	v	n/a
620.6145	0.075	1241229	keystroke_i	i	n/a
620.8395	0.03	1241679	keystroke_l	l	n/a
620.9745	0.075	1241949	keystroke_l	l	n/a
621.1545	0.075	1242309	keystroke_a	a	n/a
621.2895	0.075	1242579	keystroke_g	g	n/a
621.4545	0.135	1242909	keystroke_e	e	n/a
621.5905	0.089	1243181	keystroke_s	s	n/a
622.1595	0.105	1244319	keystroke_Key.space	Key.space	n/a
622.4595	0.09	1244919	keystroke_e	e	n/a
623.2245	0.075	1246449	keystroke_x	x	n/a
623.4345	0.06	1246869	keystroke_i	i	n/a
623.8395	0.075	1247679	keystroke_t	t	n/a
623.9745	0.09	1247949	keystroke_Key.space	Key.space	n/a
624.1845	0.09	1248369	keystroke_i	i	n/a
624.5445	0.105	1249089	keystroke_m	m	n/a
624.7695	0.09	1249539	keystroke_p	p	n/a
624.9645	0.06	1249929	keystroke_r	r	n/a
625.0545	0.105	1250109	keystroke_o	o	n/a
625.1895	0.135	1250379	keystroke_v	v	n/a
625.3095	0.075	1250619	keystroke_e	e	n/a
625.4595	0.09	1250919	keystroke_Key.enter	Key.enter	n/a
625.5555	6.0255	1251111	prompt	n/a	meanwhile your perry collector\n
626.1945	0.09	1252389	keystroke_m	m	n/a
626.2995	0.09	1252599	keystroke_e	e	n/a
626.3745	0.09	1252749	keystroke_a	a	n/a
626.5395	0.075	1253079	keystroke_n	n	n/a
626.7945	0.045	1253589	keystroke_w	w	n/a
626.8855	0.104	1253771	keystroke_h	h	n/a
626.9905	0.089	1253981	keystroke_i	i	n/a
627.1845	0.075	1254369	keystroke_l	l	n/a
627.3045	0.045	1254609	keystroke_e	e	n/a
627.4395	0.045	1254879	keystroke_Key.space	Key.space	n/a
627.7245	0.045	1255449	keystroke_y	y	n/a
627.8595	0.135	1255719	keystroke_o	o	n/a
627.9795	0.105	1255959	keystroke_u	u	n/a
628.4745	0.045	1256949	keystroke_r	r	n/a
628.7145	0.1195	1257429	keystroke_Key.space	Key.space	n/a
629.0895	0.12	1258179	keystroke_p	p	n/a
629.2545	0.1345	1258509	keystroke_e	e	n/a
629.404	0.03	1258808	keystroke_r	r	n/a
629.524	0.0605	1259048	keystroke_r	r	n/a
629.614	0.135	1259228	keystroke_y	y	n/a
629.734	0.105	1259468	keystroke_Key.space	Key.space	n/a
629.854	0.06	1259708	keystroke_c	c	n/a
629.929	0.075	1259858	keystroke_o	o	n/a
630.1245	0.06	1260249	keystroke_l	l	n/a
630.289	0.075	1260578	keystroke_l	l	n/a
630.634	0.06	1261268	keystroke_e	e	n/a
630.784	0.075	1261568	keystroke_c	c	n/a
630.979	0.075	1261958	keystroke_t	t	n/a
631.1295	0.105	1262259	keystroke_o	o	n/a
631.279	0.06	1262558	keystroke_r	r	n/a
631.459	0.12	1262918	keystroke_Key.enter	Key.enter	n/a
631.584	7.0925	1263168	prompt	n/a	commands actor between responding\n
632.3595	0.0595	1264719	keystroke_c	c	n/a
632.434	0.105	1264868	keystroke_o	o	n/a
632.6295	0.0745	1265259	keystroke_m	m	n/a
632.794	0.075	1265588	keystroke_m	m	n/a
632.929	0.06	1265858	keystroke_a	a	n/a
633.019	0.06	1266038	keystroke_n	n	n/a
633.1245	0.1045	1266249	keystroke_d	d	n/a
633.214	0.09	1266428	keystroke_s	s	n/a
633.3345	0.0745	1266669	keystroke_Key.space	Key.space	n/a
633.424	0.09	1266848	keystroke_a	a	n/a
633.574	0.061	1267148	keystroke_c	c	n/a
633.769	0.075	1267538	keystroke_t	t	n/a
633.874	0.105	1267748	keystroke_o	o	n/a
