onset	duration	sample	value	key	prompt_text
1.1395	16.038	2279	prompt	n/a	the quick brown fox jumps over a lazy dog\n
7.0065	0.0725	14013	keystroke_t	t	n/a
7.0195	0.104	14039	keystroke_h	h	n/a
7.454	0.044	14908	keystroke_e	e	n/a
7.7235	0.12	15447	keystroke_Key.space	Key.space	n/a
7.829	0.09	15658	keystroke_q	q	n/a
7.994	0.135	15988	keystroke_u	u	n/a
8.084	0.0905	16168	keystroke_i	i	n/a
8.204	0.0895	16408	keystroke_c	c	n/a
8.369	0.1205	16738	keystroke_k	k	n/a
8.5045	0.12	17009	keystroke_Key.space	Key.space	n/a
9.089	0.075	18178	keystroke_b	b	n/a
9.629	0.0455	19258	keystroke_r	r	n/a
9.8095	0.09	19619	keystroke_o	o	n/a
9.9895	0.09	19979	keystroke_w	w	n/a
10.1695	0.105	20339	keystroke_n	n	n/a
10.4245	0.075	20849	keystroke_Key.space	Key.space	n/a
11.2795	0.0745	22559	keystroke_f	f	n/a
11.474	0.0755	22948	keystroke_o	o	n/a
11.7745	0.075	23549	keystroke_x	x	n/a
11.9845	0.12	23969	keystroke_Key.space	Key.space	n/a
12.0895	0.09	24179	keystroke_j	j	n/a
12.2995	0.0445	24599	keystroke_u	u	n/a
12.5545	0.105	25109	keystroke_m	m	n/a
12.7795	0.12	25559	keystroke_p	p	n/a
12.9295	0.0745	25859	keystroke_s	s	n/a
13.214	0.1055	26428	keystroke_Key.space	Key.space	n/a
13.3495	0.105	26699	keystroke_o	o	n/a
13.4395	0.0745	26879	keystroke_v	v	n/a
13.6795	0.0895	27359	keystroke_e	e	n/a
13.739	0.075	27478	keystroke_r	r	n/a
13.9195	0.0595	27839	keystroke_Key.space	Key.space	n/a
14.0395	0.09	28079	keystroke_a	a	n/a
14.2045	0.1495	28409	keystroke_Key.space	Key.space	n/a
14.3845	0.1045	28769	keystroke_l	l	n/a
14.5195	0.075	29039	keystroke_a	a	n/a
14.714	0.0905	29428	keystroke_z	z	n/a
15.749	0.1055	31498	keystroke_y	y	n/a
15.9595	0.1045	31919	keystroke_Key.space	Key.space	n/a
16.1385	0.061	32277	keystroke_d	d	n/a
16.2295	0.1045	32459	keystroke_o	o	n/a
16.379	0.0605	32758	keystroke_g	g	n/a
17.0845	0.09	34169	keystroke_Key.enter	Key.enter	n/a
17.1825	8.2745	34365	prompt	n/a	o'er astronomy ipod noted\n
18.1195	0.0595	36239	keystroke_o	o	n/a
19.2445	0.0595	38489	keystroke_'	'	n/a
19.4545	0.0745	38909	keystroke_e	e	n/a
19.6495	0.0445	39299	keystroke_r	r	n/a
19.8445	0.0895	39689	keystroke_Key.space	Key.space	n/a
20.069	0.0605	40138	keystroke_a	a	n/a
20.279	0.0605	40558	keystroke_s	s	n/a
20.5045	0.1345	41009	keystroke_t	t	n/a
20.6095	0.09	41219	keystroke_r	r	n/a
20.7445	0.105	41489	keystroke_o	o	n/a
21.3595	0.075	42719	keystroke_n	n	n/a
21.599	0.0455	43198	keystroke_o	o	n/a
21.8245	0.09	43649	keystroke_m	m	n/a
22.319	0.0455	44638	keystroke_y	y	n/a
22.5145	0.12	45029	keystroke_Key.space	Key.space	n/a
22.68	0.0895	45360	keystroke_i	i	n/a
22.8895	0.1505	45779	keystroke_p	p	n/a
23.0095	0.105	46019	keystroke_o	o	n/a
23.2945	0.135	46589	keystroke_d	d	n/a
23.759	0.1505	47518	keystroke_Key.space	Key.space	n/a
23.9105	0.149	47821	keystroke_n	n	n/a
24.029	0.1205	48058	keystroke_o	o	n/a
24.1195	0.09	48239	keystroke_t	t	n/a
24.2995	0.09	48599	keystroke_e	e	n/a
24.539	0.0755	49078	keystroke_d	d	n/a
25.3495	0.105	50699	keystroke_Key.enter	Key.enter	n/a
25.46	7.811	50920	prompt	n/a	describe duke declined carrier\n
26.204	0.061	52408	keystroke_d	d	n/a
26.3845	0.09	52769	keystroke_e	e	n/a
26.58	0.0595	53160	keystroke_s	s	n/a
26.7895	0.0755	53579	keystroke_c	c	n/a
26.9695	0.0445	53939	keystroke_r	r	n/a
27.089	0.075	54178	keystroke_i	i	n/a
27.224	0.076	54448	keystroke_b	b	n/a
27.479	0.0605	54958	keystroke_e	e	n/a
27.7795	0.0895	55559	keystroke_Key.space	Key.space	n/a
27.9145	0.0745	55829	keystroke_d	d	n/a
28.094	0.076	56188	keystroke_u	u	n/a
28.5595	0.09	57119	keystroke_k	k	n/a
28.739	0.0755	57478	keystroke_e	e	n/a
28.949	0.0605	57898	keystroke_Key.space	Key.space	n/a
29.129	0.075	58258	keystroke_d	d	n/a
29.34	0.074	58680	keystroke_e	e	n/a
29.6845	0.075	59369	keystroke_c	c	n/a
29.8345	0.15	59669	keystroke_l	l	n/a
29.999	0.0905	59998	keystroke_i	i	n/a
30.2545	0.075	60509	keystroke_n	n	n/a
30.434	0.0455	60868	keystroke_e	e	n/a
30.644	0.0755	61288	keystroke_d	d	n/a
30.869	0.0605	61738	keystroke_Key.space	Key.space	n/a
31.0195	0.075	62039	keystroke_c	c	n/a
31.229	0.0905	62458	keystroke_a	a	n/a
31.4545	0.03	62909	keystroke_r	r	n/a
31.5745	0.06	63149	keystroke_r	r	n/a
31.7095	0.075	63419	keystroke_i	i	n/a
31.8445	0.045	63689	keystroke_e	e	n/a
32.009	0.075	64018	keystroke_d	d	n/a
32.564	0.0605	65128	keystroke_Key.backspace	Key.backspace	n/a
32.684	0.075	65368	keystroke_r	r	n/a
33.195	0.075	66390	keystroke_Key.enter	Key.enter	n/a
33.274	9.3125	66548	prompt	n/a	troops hilton mysimon libs\n
34.1545	0.075	68309	keystroke_t	t	n/a
34.23	0.09	68460	keystroke_r	r	n/a
34.4545	0.075	68909	keystroke_o	o	n/a
34.7095	0.045	69419	keystroke_p	p	n/a
34.8745	0.091	69749	keystroke_p	p	n/a
35.0545	0.075	70109	keystroke_s	s	n/a
35.3845	0.0455	70769	keystroke_Key.backspace	Key.backspace	n/a
35.5495	0.0455	71099	keystroke_Key.backspace	Key.backspace	n/a
35.7145	0.015	71429	keystroke_Key.backspace	Key.backspace	n/a
36.0895	0.135	72179	keystroke_o	o	n/a
36.2395	0.0905	72479	keystroke_p	p	n/a
36.465	0.059	72930	keystroke_s	s	n/a
36.75	0.0745	73500	keystroke_Key.space	Key.space	n/a
37.185	0.105	74370	keystroke_h	h	n/a
37.395	0.06	74790	keystroke_i	i	n/a
37.694	0.076	75388	keystroke_l	l	n/a
37.815	0.075	75630	keystroke_t	t	n/a
37.965	0.075	75930	keystroke_o	o	n/a
38.204	0.061	76408	keystroke_n	n	n/a
38.399	0.15	76798	keystroke_Key.space	Key.space	n/a
38.985	0.089	77970	keystroke_m	m	n/a
39.27	0.045	78540	keystroke_y	y	n/a
39.765	0.105	79530	keystroke_s	s	n/a
39.99	0.09	79980	keystroke_i	i	n/a
40.185	0.105	80370	keystroke_m	m	n/a
40.35	0.09	80700	keystroke_o	o	n/a
40.575	0.075	81150	keystroke_n	n	n/a
40.889	0.105	81778	keystroke_Key.space	Key.space	n/a
41.129	0.09	82258	keystroke_l	l	n/a
41.444	0.076	82888	keystroke_i	i	n/a
41.834	0.075	83668	keystroke_b	b	n/a
42.1345	0.0895	84269	keystroke_s	s	n/a
42.495	0.089	84990	keystroke_Key.enter	Key.enter	n/a
42.59	26.742	85180	prompt	n/a	marion profiles dominican mcdonald\n
43.424	0.09	86848	keystroke_m	m	n/a
43.634	0.0755	87268	keystroke_a	a	n/a
43.8595	0.075	87719	keystroke_r	r	n/a
43.9795	0.12	87959	keystroke_i	i	n/a
44.0845	0.09	88169	keystroke_o	o	n/a
44.3245	0.105	88649	keystroke_n	n	n/a
44.52	0.0895	89040	keystroke_Key.space	Key.space	n/a
44.9845	0.105	89969	keystroke_p	p	n/a
45.5695	0.06	91139	keystroke_r	r	n/a
45.9895	0.09	91979	keystroke_o	o	n/a
46.1395	0.075	92279	keystroke_f	f	n/a
46.3045	0.075	92609	keystroke_i	i	n/a
46.5595	0.09	93119	keystroke_l	l	n/a
46.6795	0.075	93359	keystroke_e	e	n/a
46.9195	0.0755	93839	keystroke_s	s	n/a
47.415	0.06	94830	keystroke_Key.space	Key.space	n/a
47.61	0.075	95220	keystroke_d	d	n/a
48.9295	0.0905	97859	keystroke_o	o	n/a
49.7845	0.09	99569	keystroke_m	m	n/a
50.1145	0.09	100229	keystroke_i	i	n/a
50.4295	0.105	100859	keystroke_n	n	n/a
50.7145	0.015	101429	keystroke_i	i	n/a
50.8795	0.105	101759	keystroke_c	c	n/a
51.195	0.074	102390	keystroke_a	a	n/a
51.4495	0.0605	102899	keystroke_s	s	n/a
51.8995	0.12	103799	keystroke_Key.space	Key.space	n/a
52.1845	0.09	104369	keystroke_m	m	n/a
52.7995	0.09	105599	keystroke_c	c	n/a
53.3395	0.105	106679	keystroke_d	d	n/a
53.4895	0.0905	106979	keystroke_o	o	n/a
53.715	0.089	107430	keystroke_n	n	n/a
53.85	0.074	107700	keystroke_a	a	n/a
54.0745	0.09	108149	keystroke_l	l	n/a
54.225	0.0745	108450	keystroke_d	d	n/a
55.4995	0.09	110999	keystroke_Key.backspace	Key.backspace	n/a
55.9045	0.09	111809	keystroke_Key.backspace	Key.backspace	n/a
56.1445	0.105	112289	keystroke_Key.backspace	Key.backspace	n/a
56.3845	0.105	112769	keystroke_Key.backspace	Key.backspace	n/a
56.6095	0.075	113219	keystroke_Key.backspace	Key.backspace	n/a
56.82	0.075	113640	keystroke_Key.backspace	Key.backspace	n/a
57	0.075	114000	keystroke_Key.backspace	Key.backspace	n/a
57.18	0.075	114360	keystroke_Key.backspace	Key.backspace	n/a
57.36	0.09	114720	keystroke_Key.backspace	Key.backspace	n/a
57.9145	0.1055	115829	keystroke_Key.backspace	Key.backspace	n/a
58.9045	0.09	117809	keystroke_n	n	n/a
59.265	0.09	118530	keystroke_Key.space	Key.space	n/a
59.685	0.105	119370	keystroke_m	m	n/a
60.63	0.105	121260	keystroke_c	c	n/a
62.175	0.09	124350	keystroke_d	d	n/a
62.9095	0.12	125819	keystroke_o	o	n/a
63.6745	0.09	127349	keystroke_n	n	n/a
63.9595	0.0905	127919	keystroke_a	a	n/a
64.23	0.1045	128460	keystroke_l	l	n/a
64.4245	0.075	128849	keystroke_d	d	n/a
69.257	0.073	138514	keystroke_Key.enter	Key.enter	n/a
69.3355	11.892	138671	prompt	n/a	knows luther headlines pair\n
70.3045	0.0605	140609	keystroke_k	k	n/a
70.5605	0.075	141121	keystroke_n	n	n/a
70.7545	0.105	141509	keystroke_o	o	n/a
70.8895	0.075	141779	keystroke_w	w	n/a
71.2195	0.075	142439	keystroke_s	s	n/a
72.03	0.0895	144060	keystroke_Key.space	Key.space	n/a
73.0045	0.0905	146009	keystroke_l	l	n/a
73.425	0.075	146850	keystroke_u	u	n/a
73.92	0.1955	147840	keystroke_t	t	n/a
74.0695	0.091	148139	keystroke_h	h	n/a
74.3545	0.1655	148709	keystroke_e	e	n/a
74.49	0.0895	148980	keystroke_r	r	n/a
74.805	0.09	149610	keystroke_Key.space	Key.space	n/a
75.0595	0.075	150119	keystroke_h	h	n/a
75.1795	0.09	150359	keystroke_e	e	n/a
75.4795	0.09	150959	keystroke_a	a	n/a
75.7345	0.09	151469	keystroke_d	d	n/a
75.8845	0.1055	151769	keystroke_l	l	n/a
76.124	0.061	152248	keystroke_i	i	n/a
76.395	0.075	152790	keystroke_n	n	n/a
76.5155	0.0735	153031	keystroke_e	e	n/a
76.995	0.0755	153990	keystroke_s	s	n/a
77.28	0.1055	154560	keystroke_Key.space	Key.space	n/a
77.5195	0.105	155039	keystroke_p	p	n/a
77.7	0.06	155400	keystroke_a	a	n/a
77.894	0.0755	155788	keystroke_i	i	n/a
78.12	0.06	156240	keystroke_r	r	n/a
81.1215	0.103	162243	keystroke_Key.enter	Key.enter	n/a
81.233	9.024	162466	prompt	n/a	teens drug charlotte relations\n
82.155	0.0745	164310	keystroke_t	t	n/a
82.4095	0.0905	164819	keystroke_e	e	n/a
82.6045	0.0755	165209	keystroke_e	e	n/a
82.83	0.105	165660	keystroke_n	n	n/a
83.025	0.075	166050	keystroke_s	s	n/a
83.31	0.135	166620	keystroke_Key.space	Key.space	n/a
83.49	0.075	166980	keystroke_d	d	n/a
83.6995	0.0755	167399	keystroke_r	r	n/a
83.85	0.09	167700	keystroke_u	u	n/a
83.955	0.06	167910	keystroke_g	g	n/a
84.27	0.105	168540	keystroke_Key.space	Key.space	n/a
84.525	0.09	169050	keystroke_c	c	n/a
84.72	0.09	169440	keystroke_h	h	n/a
85.29	0.075	170580	keystroke_a	a	n/a
85.4995	0.075	170999	keystroke_r	r	n/a
85.8	0.1045	171600	keystroke_l	l	n/a
86.0395	0.091	172079	keystroke_o	o	n/a
86.22	0.06	172440	keystroke_t	t	n/a
86.37	0.075	172740	keystroke_t	t	n/a
86.685	0.09	173370	keystroke_e	e	n/a
87.09	0.12	174180	keystroke_Key.space	Key.space	n/a
87.285	0.075	174570	keystroke_r	r	n/a
87.51	0.075	175020	keystroke_e	e	n/a
87.675	0.075	175350	keystroke_l	l	n/a
87.84	0.06	175680	keystroke_a	a	n/a
88.155	0.09	176310	keystroke_t	t	n/a
88.3345	0.135	176669	keystroke_i	i	n/a
88.4545	0.09	176909	keystroke_o	o	n/a
88.7845	0.075	177569	keystroke_n	n	n/a
89.1445	0.06	178289	keystroke_s	s	n/a
90.1345	0.12	180269	keystroke_Key.enter	Key.enter	n/a
90.26	10.8565	180520	prompt	n/a	memorabilia updates lucky unto\n
91.08	0.135	182160	keystroke_m	m	n/a
91.26	0.075	182520	keystroke_e	e	n/a
91.47	0.06	182940	keystroke_m	m	n/a
91.905	0.12	183810	keystroke_o	o	n/a
92.085	0.09	184170	keystroke_r	r	n/a
92.415	0.09	184830	keystroke_a	a	n/a
92.82	0.135	185640	keystroke_b	b	n/a
93.33	0.09	186660	keystroke_i	i	n/a
93.555	0.1345	187110	keystroke_l	l	n/a
93.7495	0.0905	187499	keystroke_i	i	n/a
93.9295	0.105	187859	keystroke_a	a	n/a
94.2745	0.105	188549	keystroke_Key.space	Key.space	n/a
94.9045	0.15	189809	keystroke_u	u	n/a
95.1305	0.104	190261	keystroke_p	p	n/a
95.5345	0.075	191069	keystroke_d	d	n/a
95.7595	0.09	191519	keystroke_a	a	n/a
96.0595	0.06	192119	keystroke_t	t	n/a
96.2245	0.075	192449	keystroke_e	e	n/a
96.4805	0.074	192961	keystroke_s	s	n/a
96.7195	0.1205	193439	keystroke_Key.space	Key.space	n/a
96.8845	0.1055	193769	keystroke_l	l	n/a
97.0945	0.0755	194189	keystroke_u	u	n/a
97.215	0.0745	194430	keystroke_c	c	n/a
97.3945	0.09	194789	keystroke_k	k	n/a
97.6195	0.09	195239	keystroke_y	y	n/a
97.9795	0.105	195959	keystroke_Key.space	Key.space	n/a
98.2645	0.06	196529	keystroke_u	u	n/a
98.5345	0.075	197069	keystroke_n	n	n/a
98.7745	0.075	197549	keystroke_t	t	n/a
98.9845	0.0905	197969	keystroke_o	o	n/a
100.98	0.135	201960	keystroke_Key.enter	Key.enter	n/a
101.12	7.7825	202240	prompt	n/a	amend how'd break stress\n
102.015	0.09	204030	keystroke_a	a	n/a
102.195	0.0755	204390	keystroke_m	m	n/a
102.39	0.09	204780	keystroke_e	e	n/a
102.585	0.09	205170	keystroke_n	n	n/a
102.72	0.075	205440	keystroke_d	d	n/a
102.93	0.105	205860	keystroke_Key.space	Key.space	n/a
103.1255	0.0895	206251	keystroke_h	h	n/a
103.26	0.105	206520	keystroke_o	o	n/a
103.44	0.075	206880	keystroke_w	w	n/a
103.695	0.0905	207390	keystroke_'	'	n/a
103.935	0.03	207870	keystroke_d	d	n/a
104.415	0.105	208830	keystroke_Key.space	Key.space	n/a
105.045	0.06	210090	keystroke_b	b	n/a
105.12	0.09	210240	keystroke_r	r	n/a
105.345	0.075	210690	keystroke_e	e	n/a
105.585	0.075	211170	keystroke_a	a	n/a
105.72	0.0895	211440	keystroke_k	k	n/a
105.945	0.1045	211890	keystroke_Key.space	Key.space	n/a
106.0645	0.075	212129	keystroke_s	s	n/a
106.3345	0.076	212669	keystroke_t	t	n/a
106.5305	0.075	213061	keystroke_r	r	n/a
106.7255	0.074	213451	keystroke_e	e	n/a
106.9345	0.076	213869	keystroke_s	s	n/a
107.1005	0.06	214201	keystroke_s	s	n/a
108.72	0.18	217440	keystroke_Key.enter	Key.enter	n/a
108.906	12.896	217812	prompt	n/a	wars kills internationally beginner\n
109.8305	0.075	219661	keystroke_w	w	n/a
110.0705	0.075	220141	keystroke_a	a	n/a
110.4005	0.105	220801	keystroke_r	r	n/a
110.565	0.075	221130	keystroke_s	s	n/a
110.8355	0.1045	221671	keystroke_Key.space	Key.space	n/a
111.225	0.09	222450	keystroke_k	k	n/a
111.4345	0.075	222869	keystroke_i	i	n/a
111.6605	0.059	223321	keystroke_l	l	n/a
111.7945	0.06	223589	keystroke_l	l	n/a
112.065	0.0445	224130	keystroke_s	s	n/a
112.365	0.1045	224730	keystroke_Key.space	Key.space	n/a
112.59	0.0295	225180	keystroke_i	i	n/a
112.7845	0.09	225569	keystroke_n	n	n/a
113.2795	0.1355	226559	keystroke_t	t	n/a
113.43	0.1655	226860	keystroke_e	e	n/a
113.565	0.105	227130	keystroke_r	r	n/a
114.1055	0.075	228211	keystroke_n	n	n/a
114.24	0.075	228480	keystroke_a	a	n/a
114.5255	0.059	229051	keystroke_t	t	n/a
114.6595	0.105	229319	keystroke_i	i	n/a
114.7345	0.09	229469	keystroke_o	o	n/a
114.9305	0.089	229861	keystroke_n	n	n/a
115.0645	0.106	230129	keystroke_a	a	n/a
115.2445	0.03	230489	keystroke_l	l	n/a
115.3505	0.0745	230701	keystroke_l	l	n/a
115.605	0.075	231210	keystroke_y	y	n/a
116.31	0.12	232620	keystroke_Key.space	Key.space	n/a
116.715	0.0895	233430	keystroke_b	b	n/a
117.0305	0.075	234061	keystroke_e	e	n/a
117.3445	0.061	234689	keystroke_g	g	n/a
117.5695	0.075	235139	keystroke_i	i	n/a
117.8095	0.046	235619	keystroke_n	n	n/a
117.9595	0.075	235919	keystroke_n	n	n/a
118.1395	0.1205	236279	keystroke_e	e	n/a
118.275	0.06	236550	keystroke_r	r	n/a
121.712	0.088	243424	keystroke_Key.enter	Key.enter	n/a
121.8045	12.478	243609	prompt	n/a	epinions syntax employ wall\n
122.685	0.105	245370	keystroke_e	e	n/a
122.895	0.105	245790	keystroke_p	p	n/a
123.135	0.06	246270	keystroke_i	i	n/a
123.4955	0.0895	246991	keystroke_n	n	n/a
124.32	0.075	248640	keystroke_s	s	n/a
124.995	0.09	249990	keystroke_Key.backspace	Key.backspace	n/a
125.235	0.06	250470	keystroke_i	i	n/a
125.9095	0.0905	251819	keystroke_o	o	n/a
126.135	0.0745	252270	keystroke_n	n	n/a
126.3295	0.0455	252659	keystroke_s	s	n/a
126.7195	0.105	253439	keystroke_Key.space	Key.space	n/a
127.26	0.0895	254520	keystroke_s	s	n/a
127.65	0.075	255300	keystroke_y	y	n/a
127.8745	0.0455	255749	keystroke_n	n	n/a
127.995	0.0895	255990	keystroke_t	t	n/a
128.3695	0.06	256739	keystroke_a	a	n/a
128.64	0.06	257280	keystroke_x	x	n/a
129.3755	0.0895	258751	keystroke_Key.space	Key.space	n/a
129.5995	0.091	259199	keystroke_e	e	n/a
129.7205	0.074	259441	keystroke_m	m	n/a
129.9595	0.15	259919	keystroke_p	p	n/a
130.1245	0.076	260249	keystroke_l	l	n/a
130.3345	0.075	260669	keystroke_o	o	n/a
130.44	0.09	260880	keystroke_y	y	n/a
131.07	0.075	262140	keystroke_Key.space	Key.space	n/a
131.205	0.09	262410	keystroke_w	w	n/a
131.505	0.06	263010	keystroke_a	a	n/a
131.655	0.06	263310	keystroke_l	l	n/a
131.805	0.09	263610	keystroke_l	l	n/a
134.252	0.028	268504	keystroke_Key.enter	Key.enter	n/a
134.2855	10.631	268571	prompt	n/a	alter nobody africa nonprofit\n
135.015	0.105	270030	keystroke_a	a	n/a
135.2405	0.0745	270481	keystroke_l	l	n/a
135.63	0.135	271260	keystroke_t	t	n/a
135.8705	0.1795	271741	keystroke_e	e	n/a
136.005	0.12	272010	keystroke_r	r	n/a
136.29	0.12	272580	keystroke_Key.space	Key.space	n/a
136.815	0.09	273630	keystroke_b	b	n/a
137.295	0.105	274590	keystroke_Key.backspace	Key.backspace	n/a
137.61	0.09	275220	keystroke_n	n	n/a
137.82	0.09	275640	keystroke_o	o	n/a
138.525	0.09	277050	keystroke_b	b	n/a
138.705	0.105	277410	keystroke_o	o	n/a
138.87	0.075	277740	keystroke_d	d	n/a
139.125	0.106	278250	keystroke_y	y	n/a
139.47	0.1345	278940	keystroke_Key.space	Key.space	n/a
139.98	0.075	279960	keystroke_a	a	n/a
140.265	0.105	280530	keystroke_f	f	n/a
140.385	0.09	280770	keystroke_r	r	n/a
140.61	0.105	281220	keystroke_i	i	n/a
140.73	0.075	281460	keystroke_c	c	n/a
140.985	0.06	281970	keystroke_a	a	n/a
141.105	0.1195	282210	keystroke_Key.space	Key.space	n/a
141.2845	0.09	282569	keystroke_n	n	n/a
141.4795	0.09	282959	keystroke_o	o	n/a
141.7045	0.075	283409	keystroke_n	n	n/a
142.29	0.105	284580	keystroke_p	p	n/a
142.455	0.06	284910	keystroke_r	r	n/a
142.59	0.09	285180	keystroke_o	o	n/a
142.725	0.075	285450	keystroke_f	f	n/a
142.89	0.0905	285780	keystroke_i	i	n/a
143.04	0.075	286080	keystroke_t	t	n/a
144.75	0.165	289500	keystroke_Key.enter	Key.enter	n/a
144.9195	10.272	289839	prompt	n/a	surprise fifteen options penalties\n
145.7555	0.089	291511	keystroke_s	s	n/a
145.9645	0.076	291929	keystroke_u	u	n/a
146.6555	0.1045	293311	keystroke_r	r	n/a
146.835	0.1195	293670	keystroke_p	p	n/a
146.9695	0.075	293939	keystroke_r	r	n/a
147.165	0.0745	294330	keystroke_i	i	n/a
147.3295	0.0605	294659	keystroke_s	s	n/a
147.5395	0.06	295079	keystroke_e	e	n/a
147.7045	0.12	295409	keystroke_Key.space	Key.space	n/a
148.14	0.09	296280	keystroke_f	f	n/a
148.305	0.09	296610	keystroke_i	i	n/a
148.53	0.105	297060	keystroke_f	f	n/a
148.905	0.0745	297810	keystroke_t	t	n/a
149.2045	0.075	298409	keystroke_e	e	n/a
149.3995	0.06	298799	keystroke_e	e	n/a
149.565	0.09	299130	keystroke_n	n	n/a
149.88	0.105	299760	keystroke_Key.space	Key.space	n/a
150.165	0.12	300330	keystroke_o	o	n/a
150.285	0.09	300570	keystroke_p	p	n/a
150.51	0.06	301020	keystroke_t	t	n/a
150.63	0.135	301260	keystroke_i	i	n/a
150.735	0.12	301470	keystroke_o	o	n/a
151.02	0.09	302040	keystroke_n	n	n/a
151.23	0.0755	302460	keystroke_s	s	n/a
151.71	0.12	303420	keystroke_Key.space	Key.space	n/a
152.16	0.105	304320	keystroke_p	p	n/a
152.31	0.075	304620	keystroke_e	e	n/a
152.535	0.075	305070	keystroke_n	n	n/a
152.76	0.075	305520	keystroke_a	a	n/a
153	0.09	306000	keystroke_l	l	n/a
153.705	0.075	307410	keystroke_t	t	n/a
153.855	0.06	307710	keystroke_i	i	n/a
154.02	0.06	308040	keystroke_e	e	n/a
154.23	0.075	308460	keystroke_s	s	n/a
155.1	0.09	310200	keystroke_Key.enter	Key.enter	n/a
155.195	9.732	310390	prompt	n/a	packets thin safely hong\n
158.2515	0.103	316503	keystroke_p	p	n/a
158.3395	0.0755	316679	keystroke_a	a	n/a
158.6095	0.075	317219	keystroke_c	c	n/a
158.8045	0.075	317609	keystroke_k	k	n/a
158.9545	0.075	317909	keystroke_e	e	n/a
159.135	0.0595	318270	keystroke_t	t	n/a
159.4045	0.075	318809	keystroke_s	s	n/a
159.75	0.15	319500	keystroke_Key.space	Key.space	n/a
160.035	0.195	320070	keystroke_t	t	n/a
160.185	0.09	320370	keystroke_h	h	n/a
160.44	0.0895	320880	keystroke_i	i	n/a
160.635	0.135	321270	keystroke_n	n	n/a
160.8745	0.1355	321749	keystroke_Key.space	Key.space	n/a
161.1	0.045	322200	keystroke_s	s	n/a
161.31	0.075	322620	keystroke_a	a	n/a
161.595	0.075	323190	keystroke_f	f	n/a
161.9995	0.09	323999	keystroke_e	e	n/a
162.4045	0.075	324809	keystroke_l	l	n/a
162.9295	0.09	325859	keystroke_y	y	n/a
163.38	0.15	326760	keystroke_Key.space	Key.space	n/a
163.635	0.075	327270	keystroke_h	h	n/a
163.83	0.0745	327660	keystroke_o	o	n/a
164.0695	0.0755	328139	keystroke_n	n	n/a
164.2795	0.105	328559	keystroke_g	g	n/a
164.8045	0.12	329609	keystroke_Key.enter	Key.enter	n/a
164.93	10.9015	329860	prompt	n/a	otherwise political semester therefore\n
165.6745	0.105	331349	keystroke_o	o	n/a
165.84	0.1195	331680	keystroke_t	t	n/a
165.9295	0.075	331859	keystroke_h	h	n/a
166.185	0.1045	332370	keystroke_e	e	n/a
166.2745	0.06	332549	keystroke_r	r	n/a
166.4995	0.06	332999	keystroke_w	w	n/a
166.665	0.0745	333330	keystroke_i	i	n/a
166.7405	0.074	333481	keystroke_s	s	n/a
166.9495	0.075	333899	keystroke_e	e	n/a
167.115	0.105	334230	keystroke_Key.space	Key.space	n/a
167.2945	0.12	334589	keystroke_p	p	n/a
167.5345	0.0605	335069	keystroke_o	o	n/a
167.8045	0.045	335609	keystroke_l	l	n/a
168.0745	0.075	336149	keystroke_i	i	n/a
169.2305	0.059	338461	keystroke_t	t	n/a
169.47	0.0295	338940	keystroke_i	i	n/a
170.085	0.075	340170	keystroke_c	c	n/a
170.37	0.03	340740	keystroke_a	a	n/a
170.58	0.075	341160	keystroke_l	l	n/a
170.82	0.105	341640	keystroke_Key.space	Key.space	n/a
170.94	0.045	341880	keystroke_s	s	n/a
171.135	0.09	342270	keystroke_e	e	n/a
171.255	0.0745	342510	keystroke_m	m	n/a
171.3595	0.075	342719	keystroke_e	e	n/a
171.5545	0.075	343109	keystroke_s	s	n/a
171.7945	0.06	343589	keystroke_t	t	n/a
171.96	0.135	343920	keystroke_e	e	n/a
172.095	0.075	344190	keystroke_r	r	n/a
172.3645	0.105	344729	keystroke_Key.space	Key.space	n/a
172.5745	0.1355	345149	keystroke_t	t	n/a
172.71	0.03	345420	keystroke_h	h	n/a
172.95	0.135	345900	keystroke_e	e	n/a
173.1	0.105	346200	keystroke_r	r	n/a
173.4	0.075	346800	keystroke_f	f	n/a
173.895	0.09	347790	keystroke_Key.backspace	Key.backspace	n/a
174	0.09	348000	keystroke_e	e	n/a
174.195	0.09	348390	keystroke_f	f	n/a
174.375	0.06	348750	keystroke_o	o	n/a
174.48	0.075	348960	keystroke_r	r	n/a
174.72	0.06	349440	keystroke_e	e	n/a
175.68	0.15	351360	keystroke_Key.enter	Key.enter	n/a
175.835	11.8015	351670	prompt	n/a	document stays carey what're\n
176.685	0.1195	353370	keystroke_d	d	n/a
176.8345	0.1045	353669	keystroke_o	o	n/a
176.94	0.119	353880	keystroke_c	c	n/a
177.089	0.106	354178	keystroke_u	u	n/a
177.375	0.075	354750	keystroke_m	m	n/a
177.464	0.106	354928	keystroke_e	e	n/a
177.675	0.059	355350	keystroke_n	n	n/a
177.765	0.0895	355530	keystroke_t	t	n/a
178.0195	0.105	356039	keystroke_Key.space	Key.space	n/a
178.1845	0.105	356369	keystroke_s	s	n/a
178.4095	0.0605	356819	keystroke_t	t	n/a
178.7845	0.075	357569	keystroke_y	y	n/a
179.2645	0.06	358529	keystroke_Key.backspace	Key.backspace	n/a
179.3995	0.0905	358799	keystroke_a	a	n/a
179.61	0.09	359220	keystroke_y	y	n/a
179.745	0.09	359490	keystroke_s	s	n/a
180.12	0.09	360240	keystroke_Key.space	Key.space	n/a
180.84	0.09	361680	keystroke_c	c	n/a
181.125	0.06	362250	keystroke_a	a	n/a
181.545	0.09	363090	keystroke_r	r	n/a
181.695	0.075	363390	keystroke_e	e	n/a
181.845	0.105	363690	keystroke_y	y	n/a
182.2795	0.1505	364559	keystroke_Key.space	Key.space	n/a
182.73	0.09	365460	keystroke_w	w	n/a
183.1345	0.09	366269	keystroke_h	h	n/a
183.4195	0.06	366839	keystroke_a	a	n/a
183.795	0.075	367590	keystroke_t	t	n/a
184.41	0.09	368820	keystroke_'	'	n/a
184.62	0.135	369240	keystroke_r	r	n/a
184.7995	0.09	369599	keystroke_e	e	n/a
187.5015	0.133	375003	keystroke_Key.enter	Key.enter	n/a
187.6405	11.771	375281	prompt	n/a	hoping incurred improvements battlefield\n
188.775	0.075	377550	keystroke_h	h	n/a
188.955	0.225	377910	keystroke_o	o	n/a
189.12	0.12	378240	keystroke_p	p	n/a
189.48	0.105	378960	keystroke_i	i	n/a
189.735	0.075	379470	keystroke_n	n	n/a
189.9	0.06	379800	keystroke_g	g	n/a
190.11	0.15	380220	keystroke_Key.space	Key.space	n/a
190.275	0.09	380550	keystroke_i	i	n/a
190.8895	0.0755	381779	keystroke_n	n	n/a
191.0995	0.075	382199	keystroke_c	c	n/a
191.505	0.0895	383010	keystroke_u	u	n/a
191.6545	0.06	383309	keystroke_r	r	n/a
191.8345	0.06	383669	keystroke_r	r	n/a
192.0755	0.074	384151	keystroke_e	e	n/a
192.315	0.0895	384630	keystroke_d	d	n/a
192.5695	0.105	385139	keystroke_Key.space	Key.space	n/a
192.885	0.0445	385770	keystroke_i	i	n/a
193.1395	0.06	386279	keystroke_m	m	n/a
193.4245	0.12	386849	keystroke_p	p	n/a
193.6645	0.075	387329	keystroke_r	r	n/a
193.8745	0.0905	387749	keystroke_o	o	n/a
194.0245	0.06	388049	keystroke_v	v	n/a
194.2945	0.075	388589	keystroke_e	e	n/a
194.4755	0.074	388951	keystroke_m	m	n/a
194.61	0.0745	389220	keystroke_e	e	n/a
194.7445	0.075	389489	keystroke_n	n	n/a
194.9245	0.0605	389849	keystroke_t	t	n/a
195.54	0.0595	391080	keystroke_s	s	n/a
195.915	0.1045	391830	keystroke_Key.space	Key.space	n/a
196.185	0.0895	392370	keystroke_b	b	n/a
196.3795	0.105	392759	keystroke_a	a	n/a
196.755	0.06	393510	keystroke_t	t	n/a
196.905	0.075	393810	keystroke_t	t	n/a
197.115	0.09	394230	keystroke_l	l	n/a
197.25	0.105	394500	keystroke_e	e	n/a
197.505	0.09	395010	keystroke_f	f	n/a
197.655	0.075	395310	keystroke_i	i	n/a
197.775	0.09	395550	keystroke_e	e	n/a
197.94	0.075	395880	keystroke_l	l	n/a
198.06	0.09	396120	keystroke_d	d	n/a
199.29	0.12	398580	keystroke_Key.enter	Key.enter	n/a
199.4165	11.17	398833	prompt	n/a	destroy roller solar dialog\n
200.1895	0.09	400379	keystroke_d	d	n/a
200.4145	0.075	400829	keystroke_e	e	n/a
200.6255	0.074	401251	keystroke_s	s	n/a
200.865	0.075	401730	keystroke_t	t	n/a
201.015	0.0745	402030	keystroke_o	o	n/a
201.1205	0.0895	402241	keystroke_r	r	n/a
201.3745	0.0905	402749	keystroke_y	y	n/a
201.96	0.0895	403920	keystroke_Key.space	Key.space	n/a
202.08	0.0595	404160	keystroke_r	r	n/a
202.2745	0.09	404549	keystroke_o	o	n/a
203.0995	0.075	406199	keystroke_Key.backspace	Key.backspace	n/a
203.2945	0.045	406589	keystroke_Key.backspace	Key.backspace	n/a
203.4745	0.075	406949	keystroke_Key.backspace	Key.backspace	n/a
203.6695	0.075	407339	keystroke_Key.backspace	Key.backspace	n/a
203.8645	0.06	407729	keystroke_Key.backspace	Key.backspace	n/a
203.9845	0.0605	407969	keystroke_Key.backspace	Key.backspace	n/a
204.42	0.06	408840	keystroke_r	r	n/a
204.63	0.075	409260	keystroke_o	o	n/a
204.8555	0.1495	409711	keystroke_y	y	n/a
205.32	0.0745	410640	keystroke_Key.space	Key.space	n/a
205.5005	0.089	411001	keystroke_r	r	n/a
205.6345	0.09	411269	keystroke_o	o	n/a
205.9205	0.044	411841	keystroke_l	l	n/a
206.0695	0.09	412139	keystroke_l	l	n/a
206.2195	0.15	412439	keystroke_e	e	n/a
206.355	0.1195	412710	keystroke_r	r	n/a
206.8045	0.105	413609	keystroke_Key.space	Key.space	n/a
207.0595	0.09	414119	keystroke_s	s	n/a
207.2095	0.075	414419	keystroke_o	o	n/a
207.4645	0.06	414929	keystroke_l	l	n/a
207.5545	0.075	415109	keystroke_a	a	n/a
207.8245	0.045	415649	keystroke_r	r	n/a
208.2	0.1345	416400	keystroke_Key.space	Key.space	n/a
208.56	0.075	417120	keystroke_d	d	n/a
208.725	0.105	417450	keystroke_i	i	n/a
208.92	0.0595	417840	keystroke_a	a	n/a
209.0855	0.0595	418171	keystroke_l	l	n/a
209.295	0.075	418590	keystroke_o	o	n/a
209.445	0.0595	418890	keystroke_g	g	n/a
210.45	0.135	420900	keystroke_Key.enter	Key.enter	n/a
210.5895	8.7415	421179	prompt	n/a	scanner kings downloaded national\n
211.29	0.0895	422580	keystroke_s	s	n/a
211.485	0.075	422970	keystroke_c	c	n/a
211.8745	0.06	423749	keystroke_a	a	n/a
212.0245	0.06	424049	keystroke_n	n	n/a
212.175	0.075	424350	keystroke_n	n	n/a
212.28	0.165	424560	keystroke_e	e	n/a
212.415	0.09	424830	keystroke_r	r	n/a
212.67	0.12	425340	keystroke_Key.space	Key.space	n/a
213.12	0.105	426240	keystroke_k	k	n/a
213.39	0.03	426780	keystroke_i	i	n/a
213.6155	0.074	427231	keystroke_n	n	n/a
213.705	0.0445	427410	keystroke_g	g	n/a
213.9595	0.075	427919	keystroke_s	s	n/a
214.1095	0.12	428219	keystroke_Key.space	Key.space	n/a
214.2755	0.1045	428551	keystroke_d	d	n/a
214.4405	0.075	428881	keystroke_o	o	n/a
214.6045	0.075	429209	keystroke_w	w	n/a
214.7695	0.06	429539	keystroke_n	n	n/a
215.1295	0.0305	430259	keystroke_l	l	n/a
215.3255	0.075	430651	keystroke_o	o	n/a
215.4595	0.061	430919	keystroke_a	a	n/a
215.94	0.0895	431880	keystroke_d	d	n/a
216.165	0.0755	432330	keystroke_e	e	n/a
216.3755	0.075	432751	keystroke_d	d	n/a
216.6445	0.105	433289	keystroke_Key.space	Key.space	n/a
216.9005	0.075	433801	keystroke_n	n	n/a
217.0045	0.0755	434009	keystroke_a	a	n/a
217.26	0.09	434520	keystroke_t	t	n/a
217.38	0.0895	434760	keystroke_i	i	n/a
217.455	0.075	434910	keystroke_o	o	n/a
217.6505	0.0895	435301	keystroke_n	n	n/a
217.7995	0.06	435599	keystroke_a	a	n/a
218.055	0.06	436110	keystroke_l	l	n/a
219.2395	0.09	438479	keystroke_Key.enter	Key.enter	n/a
219.3355	10.751	438671	prompt	n/a	increased minutes films buffer\n
220.2145	0.03	440429	keystroke_i	i	n/a
220.6345	0.0455	441269	keystroke_n	n	n/a
220.785	0.0895	441570	keystroke_c	c	n/a
221.13	0.1045	442260	keystroke_r	r	n/a
221.2495	0.075	442499	keystroke_e	e	n/a
221.52	0.06	443040	keystroke_a	a	n/a
221.715	0.075	443430	keystroke_s	s	n/a
221.97	0.06	443940	keystroke_e	e	n/a
222.18	0.045	444360	keystroke_d	d	n/a
222.57	0.09	445140	keystroke_Key.space	Key.space	n/a
223.005	0.06	446010	keystroke_m	m	n/a
223.2	0.075	446400	keystroke_i	i	n/a
223.425	0.075	446850	keystroke_n	n	n/a
223.62	0.075	447240	keystroke_u	u	n/a
223.845	0.06	447690	keystroke_t	t	n/a
224.085	0.06	448170	keystroke_e	e	n/a
224.28	0.075	448560	keystroke_s	s	n/a
224.655	0.105	449310	keystroke_Key.space	Key.space	n/a
224.91	0.06	449820	keystroke_f	f	n/a
225.0895	0.075	450179	keystroke_i	i	n/a
225.3895	0.0755	450779	keystroke_l	l	n/a
225.6295	0.075	451259	keystroke_m	m	n/a
226.1255	0.0595	452251	keystroke_s	s	n/a
226.6045	0.09	453209	keystroke_Key.space	Key.space	n/a
226.7395	0.0755	453479	keystroke_b	b	n/a
226.9195	0.0905	453839	keystroke_u	u	n/a
227.0845	0.075	454169	keystroke_f	f	n/a
227.265	0.0745	454530	keystroke_f	f	n/a
227.49	0.165	454980	keystroke_e	e	n/a
227.64	0.09	455280	keystroke_r	r	n/a
229.9965	0.088	459993	keystroke_Key.enter	Key.enter	n/a
230.0895	9.807	460179	prompt	n/a	conflicts spider programmer liked\n
230.895	0.105	461790	keystroke_c	c	n/a
231.075	0.075	462150	keystroke_o	o	n/a
231.3	0.09	462600	keystroke_n	n	n/a
231.48	0.06	462960	keystroke_f	f	n/a
231.69	0.12	463380	keystroke_l	l	n/a
231.975	0.075	463950	keystroke_i	i	n/a
232.23	0.09	464460	keystroke_c	c	n/a
232.8	0.074	465600	keystroke_t	t	n/a
233.13	0.075	466260	keystroke_s	s	n/a
233.699	0.121	467398	keystroke_Key.space	Key.space	n/a
233.925	0.09	467850	keystroke_s	s	n/a
234.195	0.104	468390	keystroke_p	p	n/a
234.465	0.075	468930	keystroke_i	i	n/a
234.585	0.075	469170	keystroke_d	d	n/a
234.81	0.18	469620	keystroke_e	e	n/a
234.96	0.105	469920	keystroke_r	r	n/a
235.47	0.134	470940	keystroke_Key.space	Key.space	n/a
235.785	0.09	471570	keystroke_p	p	n/a
235.935	0.075	471870	keystroke_r	r	n/a
236.07	0.075	472140	keystroke_o	o	n/a
236.19	0.105	472380	keystroke_g	g	n/a
236.31	0.045	472620	keystroke_r	r	n/a
236.61	0.06	473220	keystroke_a	a	n/a
236.8645	0.075	473729	keystroke_m	m	n/a
237.09	0.0745	474180	keystroke_m	m	n/a
237.2695	0.135	474539	keystroke_e	e	n/a
237.3895	0.075	474779	keystroke_r	r	n/a
237.8845	0.12	475769	keystroke_Key.space	Key.space	n/a
238.095	0.075	476190	keystroke_l	l	n/a
238.275	0.045	476550	keystroke_i	i	n/a
238.47	0.075	476940	keystroke_k	k	n/a
238.59	0.075	477180	keystroke_e	e	n/a
238.83	0.06	477660	keystroke_d	d	n/a
239.745	0.15	479490	keystroke_Key.enter	Key.enter	n/a
239.8995	10.017	479799	prompt	n/a	activated tell once gift\n
240.735	0.06	481470	keystroke_a	a	n/a
241.02	0.09	482040	keystroke_c	c	n/a
241.455	0.074	482910	keystroke_t	t	n/a
241.6645	0.1055	483329	keystroke_i	i	n/a
241.904	0.076	483808	keystroke_v	v	n/a
242.265	0.105	484530	keystroke_a	a	n/a
242.6705	0.0445	485341	keystroke_t	t	n/a
242.895	0.075	485790	keystroke_e	e	n/a
243.1795	0.1045	486359	keystroke_d	d	n/a
243.6295	0.1345	487259	keystroke_Key.space	Key.space	n/a
243.9295	0.0755	487859	keystroke_t	t	n/a
244.154	0.09	488308	keystroke_e	e	n/a
244.365	0.09	488730	keystroke_l	l	n/a
244.604	0.076	489208	keystroke_l	l	n/a
244.935	0.09	489870	keystroke_Key.space	Key.space	n/a
245.445	0.09	490890	keystroke_o	o	n/a
245.73	0.09	491460	keystroke_n	n	n/a
245.895	0.09	491790	keystroke_c	c	n/a
246.165	0.075	492330	keystroke_e	e	n/a
246.329	0.136	492658	keystroke_Key.space	Key.space	n/a
246.525	0.09	493050	keystroke_g	g	n/a
246.75	0.075	493500	keystroke_i	i	n/a
246.93	0.09	493860	keystroke_f	f	n/a
247.23	0.045	494460	keystroke_t	t	n/a
249.8115	0.103	499623	keystroke_Key.enter	Key.enter	n/a
249.9205	16.571	499841	prompt	n/a	violence disciplinary black criteria\n
250.95	0.09	501900	keystroke_v	v	n/a
251.37	0.179	502740	keystroke_i	i	n/a
251.565	0.12	503130	keystroke_o	o	n/a
251.955	0.075	503910	keystroke_l	l	n/a
252.1495	0.09	504299	keystroke_e	e	n/a
252.345	0.105	504690	keystroke_n	n	n/a
252.495	0.09	504990	keystroke_c	c	n/a
252.81	0.06	505620	keystroke_e	e	n/a
253.08	0.105	506160	keystroke_Key.space	Key.space	n/a
253.41	0.075	506820	keystroke_d	d	n/a
253.59	0.105	507180	keystroke_i	i	n/a
253.815	0.06	507630	keystroke_s	s	n/a
254.1445	0.06	508289	keystroke_c	c	n/a
254.6545	0.105	509309	keystroke_i	i	n/a
255.1495	0.12	510299	keystroke_p	p	n/a
255.4495	0.075	510899	keystroke_l	l	n/a
255.7645	0.0905	511529	keystroke_i	i	n/a
256.5445	0.135	513089	keystroke_n	n	n/a
256.8145	0.15	513629	keystroke_a	a	n/a
257.1445	0.075	514289	keystroke_r	r	n/a
257.3395	0.135	514679	keystroke_y	y	n/a
257.5345	0.105	515069	keystroke_Key.space	Key.space	n/a
258.6595	0.12	517319	keystroke_b	b	n/a
258.8395	0.12	517679	keystroke_l	l	n/a
259.0045	0.075	518009	keystroke_a	a	n/a
259.3345	0.075	518669	keystroke_c	c	n/a
259.5895	0.015	519179	keystroke_k	k	n/a
259.7695	0.0745	519539	keystroke_Key.space	Key.space	n/a
259.994	0.06	519988	keystroke_c	c	n/a
260.369	0.0905	520738	keystroke_r	r	n/a
260.5645	0.075	521129	keystroke_e	e	n/a
261.2845	0.09	522569	keystroke_i	i	n/a
262.32	0.089	524640	keystroke_Key.backspace	Key.backspace	n/a
262.7545	0.1205	525509	keystroke_Key.backspace	Key.backspace	n/a
263.4145	0.09	526829	keystroke_i	i	n/a
263.7445	0.075	527489	keystroke_t	t	n/a
264.1495	0.195	528299	keystroke_e	e	n/a
264.3745	0.045	528749	keystroke_r	r	n/a
264.8245	0.09	529649	keystroke_i	i	n/a
264.9895	0.12	529979	keystroke_a	a	n/a
266.339	0.15	532678	keystroke_Key.enter	Key.enter	n/a
266.495	14.817	532990	prompt	n/a	wyoming monitors cole evaluations\n
268.1395	0.09	536279	keystroke_w	w	n/a
268.3795	0.105	536759	keystroke_y	y	n/a
268.5895	0.165	537179	keystroke_o	o	n/a
269.6245	0.105	539249	keystroke_m	m	n/a
269.8645	0.09	539729	keystroke_i	i	n/a
270.0445	0.135	540089	keystroke_n	n	n/a
270.2245	0.105	540449	keystroke_g	g	n/a
270.525	0.1045	541050	keystroke_Key.space	Key.space	n/a
270.7495	0.075	541499	keystroke_m	m	n/a
270.9595	0.09	541919	keystroke_o	o	n/a
272.0995	0.165	544199	keystroke_n	n	n/a
272.88	0.12	545760	keystroke_i	i	n/a
273.165	0.09	546330	keystroke_t	t	n/a
273.39	0.105	546780	keystroke_o	o	n/a
273.6	0.06	547200	keystroke_r	r	n/a
274.14	0.075	548280	keystroke_s	s	n/a
274.5445	0.135	549089	keystroke_Key.space	Key.space	n/a
274.7995	0.09	549599	keystroke_c	c	n/a
274.935	0.075	549870	keystroke_o	o	n/a
275.2045	0.09	550409	keystroke_l	l	n/a
275.3695	0.045	550739	keystroke_e	e	n/a
275.7145	0.105	551429	keystroke_Key.space	Key.space	n/a
275.9095	0.06	551819	keystroke_e	e	n/a
276.224	0.0755	552448	keystroke_v	v	n/a
277.1095	0.075	554219	keystroke_a	a	n/a
277.5295	0.105	555059	keystroke_l	l	n/a
277.995	0.104	555990	keystroke_u	u	n/a
278.174	0.091	556348	keystroke_a	a	n/a
278.79	0.075	557580	keystroke_t	t	n/a
278.97	0.12	557940	keystroke_i	i	n/a
279.075	0.075	558150	keystroke_o	o	n/a
279.329	0.075	558658	keystroke_n	n	n/a
279.7045	0.1055	559409	keystroke_s	s	n/a
281.145	0.1645	562290	keystroke_Key.enter	Key.enter	n/a
281.3155	8.6505	562631	prompt	n/a	memo sides started speaks\n
282.225	0.0895	564450	keystroke_m	m	n/a
282.3595	0.09	564719	keystroke_e	e	n/a
283.3495	0.09	566699	keystroke_m	m	n/a
283.5445	0.09	567089	keystroke_o	o	n/a
283.949	0.135	567898	keystroke_Key.space	Key.space	n/a
284.129	0.1055	568258	keystroke_s	s	n/a
284.4595	0.075	568919	keystroke_i	i	n/a
284.6395	0.075	569279	keystroke_d	d	n/a
284.8655	0.074	569731	keystroke_e	e	n/a
285.2845	0.09	570569	keystroke_s	s	n/a
285.6745	0.105	571349	keystroke_Key.space	Key.space	n/a
285.8395	0.09	571679	keystroke_s	s	n/a
286.1545	0.06	572309	keystroke_t	t	n/a
286.4845	0.075	572969	keystroke_a	a	n/a
286.6795	0.045	573359	keystroke_r	r	n/a
286.8895	0.06	573779	keystroke_t	t	n/a
287.07	0.089	574140	keystroke_e	e	n/a
287.294	0.09	574588	keystroke_d	d	n/a
287.684	0.15	575368	keystroke_Key.space	Key.space	n/a
287.94	0.074	575880	keystroke_s	s	n/a
288.119	0.0905	576238	keystroke_p	p	n/a
288.2245	0.09	576449	keystroke_e	e	n/a
288.5095	0.06	577019	keystroke_a	a	n/a
288.6445	0.09	577289	keystroke_k	k	n/a
288.8095	0.0755	577619	keystroke_s	s	n/a
289.8145	0.15	579629	keystroke_Key.enter	Key.enter	n/a
289.97	10.256	579940	prompt	n/a	wagon doctor description beam\n
290.7595	0.0895	581519	keystroke_w	w	n/a
291.044	0.0905	582088	keystroke_a	a	n/a
291.3595	0.06	582719	keystroke_g	g	n/a
291.5395	0.06	583079	keystroke_o	o	n/a
291.8245	0.105	583649	keystroke_n	n	n/a
292.0795	0.135	584159	keystroke_Key.space	Key.space	n/a
292.2155	0.104	584431	keystroke_d	d	n/a
292.5145	0.105	585029	keystroke_o	o	n/a
292.755	0.075	585510	keystroke_c	c	n/a
293.069	0.091	586138	keystroke_t	t	n/a
293.22	0.135	586440	keystroke_o	o	n/a
293.415	0.09	586830	keystroke_r	r	n/a
293.744	0.105	587488	keystroke_Key.space	Key.space	n/a
294.0595	0.075	588119	keystroke_d	d	n/a
294.2845	0.06	588569	keystroke_e	e	n/a
294.4945	0.075	588989	keystroke_s	s	n/a
294.7195	0.09	589439	keystroke_c	c	n/a
294.9295	0.09	589859	keystroke_r	r	n/a
295.1695	0.0755	590339	keystroke_i	i	n/a
295.5595	0.105	591119	keystroke_p	p	n/a
296.3395	0.09	592679	keystroke_t	t	n/a
296.5645	0.15	593129	keystroke_i	i	n/a
296.6995	0.12	593399	keystroke_o	o	n/a
297.1945	0.06	594389	keystroke_n	n	n/a
297.4645	0.12	594929	keystroke_Key.space	Key.space	n/a
298.6345	0.06	597269	keystroke_b	b	n/a
298.8595	0.09	597719	keystroke_e	e	n/a
299.1445	0.0745	598289	keystroke_a	a	n/a
299.324	0.091	598648	keystroke_m	m	n/a
300.074	0.1505	600148	keystroke_Key.enter	Key.enter	n/a
300.2295	14.457	600459	prompt	n/a	occasional rapidly shine licence\n
301.2445	0.15	602489	keystroke_o	o	n/a
301.5595	0.09	603119	keystroke_c	c	n/a
301.8445	0.09	603689	keystroke_c	c	n/a
302.34	0.104	604680	keystroke_a	a	n/a
302.624	0.0755	605248	keystroke_s	s	n/a
303.029	0.136	606058	keystroke_i	i	n/a
303.149	0.12	606298	keystroke_o	o	n/a
303.404	0.0905	606808	keystroke_n	n	n/a
303.585	0.089	607170	keystroke_a	a	n/a
303.765	0.12	607530	keystroke_l	l	n/a
304.0195	0.1195	608039	keystroke_Key.space	Key.space	n/a
304.379	0.075	608758	keystroke_r	r	n/a
304.86	0.059	609720	keystroke_a	a	n/a
305.04	0.089	610080	keystroke_p	p	n/a
305.34	0.089	610680	keystroke_i	i	n/a
305.549	0.1055	611098	keystroke_d	d	n/a
305.8045	0.09	611609	keystroke_l	l	n/a
306.0295	0.09	612059	keystroke_y	y	n/a
306.434	0.105	612868	keystroke_Key.space	Key.space	n/a
306.689	0.106	613378	keystroke_s	s	n/a
306.914	0.12	613828	keystroke_h	h	n/a
307.049	0.09	614098	keystroke_i	i	n/a
307.289	0.1055	614578	keystroke_n	n	n/a
307.499	0.06	614998	keystroke_e	e	n/a
307.7245	0.135	615449	keystroke_Key.space	Key.space	n/a
307.9795	0.06	615959	keystroke_l	l	n/a
308.2795	0.0755	616559	keystroke_i	i	n/a
308.9695	0.0605	617939	keystroke_c	c	n/a
309.285	0.075	618570	keystroke_e	e	n/a
309.479	0.091	618958	keystroke_n	n	n/a
310.1395	0.06	620279	keystroke_c	c	n/a
310.4395	0.075	620879	keystroke_e	e	n/a
314.552	0.132	629104	keystroke_Key.enter	Key.enter	n/a
314.6915	21.85	629383	prompt	n/a	promised venues purchasing o'clock\n
316.14	0.12	632280	keystroke_p	p	n/a
316.29	0.089	632580	keystroke_r	r	n/a
316.469	0.075	632938	keystroke_o	o	n/a
317.895	0.135	635790	keystroke_m	m	n/a
318.12	0.075	636240	keystroke_i	i	n/a
318.255	0.075	636510	keystroke_s	s	n/a
318.5545	0.06	637109	keystroke_e	e	n/a
318.7795	0.075	637559	keystroke_d	d	n/a
319.1545	0.12	638309	keystroke_Key.space	Key.space	n/a
319.5745	0.0895	639149	keystroke_b	b	n/a
319.935	0.0595	639870	keystroke_e	e	n/a
320.549	0.105	641098	keystroke_Key.backspace	Key.backspace	n/a
320.774	0.09	641548	keystroke_Key.backspace	Key.backspace	n/a
321.524	0.06	643048	keystroke_v	v	n/a
321.989	0.075	643978	keystroke_e	e	n/a
322.154	0.075	644308	keystroke_n	n	n/a
322.514	0.061	645028	keystroke_u	u	n/a
322.59	0.029	645180	keystroke_u	u	n/a
322.664	0.0905	645328	keystroke_e	e	n/a
323.2045	0.0595	646409	keystroke_Key.backspace	Key.backspace	n/a
323.384	0.09	646768	keystroke_Key.backspace	Key.backspace	n/a
323.489	0.105	646978	keystroke_e	e	n/a
323.7745	0.0745	647549	keystroke_s	s	n/a
324.194	0.12	648388	keystroke_Key.space	Key.space	n/a
324.674	0.1055	649348	keystroke_p	p	n/a
324.975	0.1045	649950	keystroke_u	u	n/a
325.154	0.09	650308	keystroke_r	r	n/a
325.4695	0.0755	650939	keystroke_c	c	n/a
325.665	0.089	651330	keystroke_h	h	n/a
325.785	0.134	651570	keystroke_a	a	n/a
325.935	0.059	651870	keystroke_s	s	n/a
326.039	0.06	652078	keystroke_i	i	n/a
326.19	0.09	652380	keystroke_n	n	n/a
326.385	0.045	652770	keystroke_g	g	n/a
326.9545	0.1195	653909	keystroke_Key.space	Key.space	n/a
327.224	0.09	654448	keystroke_o	o	n/a
327.854	0.09	655708	keystroke_'	'	n/a
328.2745	0.12	656549	keystroke_c	c	n/a
328.4545	0.135	656909	keystroke_l	l	n/a
328.7845	0.076	657569	keystroke_o	o	n/a
328.9195	0.075	657839	keystroke_c	c	n/a
329.114	0.045	658228	keystroke_k	k	n/a
336.482	0.058	672964	keystroke_Key.enter	Key.enter	n/a
336.545	13.3615	673090	prompt	n/a	rights antique properties its\n
337.635	0.105	675270	keystroke_r	r	n/a
337.86	0.105	675720	keystroke_i	i	n/a
338.01	0.12	676020	keystroke_g	g	n/a
338.1	0.105	676200	keystroke_h	h	n/a
338.31	0.075	676620	keystroke_t	t	n/a
338.76	0.105	677520	keystroke_s	s	n/a
339.15	0.119	678300	keystroke_Key.space	Key.space	n/a
339.33	0.09	678660	keystroke_a	a	n/a
339.705	0.09	679410	keystroke_n	n	n/a
340.185	0.09	680370	keystroke_t	t	n/a
340.32	0.0595	680640	keystroke_i	i	n/a
341.6695	0.0745	683339	keystroke_q	q	n/a
341.954	0.09	683908	keystroke_u	u	n/a
342.1495	0.0605	684299	keystroke_e	e	n/a
343.034	0.12	686068	keystroke_Key.space	Key.space	n/a
344.639	0.135	689278	keystroke_p	p	n/a
344.7445	0.0905	689489	keystroke_r	r	n/a
345.3295	0.15	690659	keystroke_o	o	n/a
345.5545	0.1345	691109	keystroke_p	p	n/a
346.185	0.12	692370	keystroke_e	e	n/a
346.26	0.105	692520	keystroke_r	r	n/a
346.53	0.089	693060	keystroke_t	t	n/a
346.739	0.121	693478	keystroke_i	i	n/a
346.874	0.061	693748	keystroke_e	e	n/a
347.1595	0.09	694319	keystroke_s	s	n/a
347.6545	0.075	695309	keystroke_Key.space	Key.space	n/a
347.9095	0.09	695819	keystroke_i	i	n/a
347.9995	0.075	695999	keystroke_t	t	n/a
348.3595	0.1055	696719	keystroke_s	s	n/a
349.74	0.1645	699480	keystroke_Key.enter	Key.enter	n/a
349.9095	13.122	699819	prompt	n/a	notify onto counseling adapted\n
350.8645	0.105	701729	keystroke_n	n	n/a
351.1345	0.09	702269	keystroke_o	o	n/a
351.404	0.045	702808	keystroke_t	t	n/a
351.629	0.075	703258	keystroke_i	i	n/a
351.779	0.105	703558	keystroke_f	f	n/a
352.124	0.09	704248	keystroke_y	y	n/a
352.664	0.12	705328	keystroke_Key.space	Key.space	n/a
352.904	0.075	705808	keystroke_o	o	n/a
353.16	0.089	706320	keystroke_n	n	n/a
353.324	0.12	706648	keystroke_t	t	n/a
353.52	0.105	707040	keystroke_o	o	n/a
353.849	0.136	707698	keystroke_Key.space	Key.space	n/a
354.045	0.09	708090	keystroke_c	c	n/a
354.165	0.09	708330	keystroke_o	o	n/a
354.434	0.106	708868	keystroke_n	n	n/a
355.6795	0.09	711359	keystroke_Key.backspace	Key.backspace	n/a
356.1	0.0745	712200	keystroke_u	u	n/a
356.5945	0.09	713189	keystroke_n	n	n/a
356.835	0.0745	713670	keystroke_s	s	n/a
357.0745	0.0755	714149	keystroke_e	e	n/a
357.2095	0.12	714419	keystroke_l	l	n/a
357.5845	0.09	715169	keystroke_i	i	n/a
357.7645	0.09	715529	keystroke_n	n	n/a
357.9145	0.075	715829	keystroke_g	g	n/a
358.4095	0.12	716819	keystroke_Key.space	Key.space	n/a
359.0545	0.06	718109	keystroke_a	a	n/a
359.3245	0.06	718649	keystroke_d	d	n/a
360.6445	0.09	721289	keystroke_a	a	n/a
360.9145	0.105	721829	keystroke_p	p	n/a
361.1845	0.06	722369	keystroke_t	t	n/a
361.6795	0.0905	723359	keystroke_e	e	n/a
361.95	0.0745	723900	keystroke_d	d	n/a
362.895	0.135	725790	keystroke_Key.enter	Key.enter	n/a
363.0345	14.847	726069	prompt	n/a	seemed feels crime quantitative\n
363.81	0.1045	727620	keystroke_s	s	n/a
364.0795	0.075	728159	keystroke_e	e	n/a
364.3345	0.06	728669	keystroke_e	e	n/a
364.545	0.09	729090	keystroke_m	m	n/a
364.7095	0.06	729419	keystroke_e	e	n/a
364.9195	0.0755	729839	keystroke_d	d	n/a
365.2195	0.12	730439	keystroke_Key.space	Key.space	n/a
365.3845	0.075	730769	keystroke_f	f	n/a
365.5795	0.06	731159	keystroke_e	e	n/a
365.7595	0.06	731519	keystroke_e	e	n/a
366.015	0.0895	732030	keystroke_l	l	n/a
366.1795	0.075	732359	keystroke_s	s	n/a
366.42	0.1195	732840	keystroke_Key.space	Key.space	n/a
366.6	0.0895	733200	keystroke_c	c	n/a
366.8545	0.06	733709	keystroke_r	r	n/a
366.975	0.1045	733950	keystroke_i	i	n/a
367.2295	0.076	734459	keystroke_m	m	n/a
367.4245	0.06	734849	keystroke_e	e	n/a
367.6345	0.09	735269	keystroke_Key.space	Key.space	n/a
367.8895	0.1505	735779	keystroke_q	q	n/a
368.1745	0.105	736349	keystroke_u	u	n/a
368.5195	0.09	737039	keystroke_a	a	n/a
368.8195	0.075	737639	keystroke_n	n	n/a
369.5095	0.135	739019	keystroke_t	t	n/a
369.7645	0.0755	739529	keystroke_i	i	n/a
369.9745	0.06	739949	keystroke_t	t	n/a
370.3805	0.0735	740761	keystroke_a	a	n/a
370.6945	0.0755	741389	keystroke_t	t	n/a
370.859	0.0905	741718	keystroke_i	i	n/a
371.0245	0.09	742049	keystroke_v	v	n/a
371.3245	0.075	742649	keystroke_e	e	n/a
377.792	0.088	755584	keystroke_Key.enter	Key.enter	n/a
377.885	13.017	755770	prompt	n/a	attend freedom uganda arizona\n
378.765	0.1195	757530	keystroke_a	a	n/a
379.1245	0.0755	758249	keystroke_t	t	n/a
379.3195	0.06	758639	keystroke_t	t	n/a
379.5145	0.075	759029	keystroke_e	e	n/a
379.7245	0.1055	759449	keystroke_n	n	n/a
379.875	0.09	759750	keystroke_d	d	n/a
380.175	0.12	760350	keystroke_Key.space	Key.space	n/a
380.325	0.12	760650	keystroke_f	f	n/a
380.505	0.075	761010	keystroke_r	r	n/a
380.745	0.045	761490	keystroke_e	e	n/a
380.865	0.06	761730	keystroke_e	e	n/a
381.06	0.075	762120	keystroke_d	d	n/a
381.195	0.075	762390	keystroke_o	o	n/a
381.765	0.06	763530	keystroke_m	m	n/a
382.095	0.105	764190	keystroke_Key.space	Key.space	n/a
382.545	0.09	765090	keystroke_u	u	n/a
385.9065	0.001	771813	keystroke_g	g	n/a
386.2055	0.105	772411	keystroke_a	a	n/a
386.4005	0.075	772801	keystroke_n	n	n/a
386.5505	0.075	773101	keystroke_d	d	n/a
386.8505	0.059	773701	keystroke_a	a	n/a
387.1505	0.119	774301	keystroke_Key.space	Key.space	n/a
387.8855	0.1195	775771	keystroke_a	a	n/a
388.185	0.0445	776370	keystroke_r	r	n/a
388.3945	0.0905	776789	keystroke_i	i	n/a
388.59	0.1045	777180	keystroke_z	z	n/a
388.7695	0.091	777539	keystroke_o	o	n/a
389.01	0.0745	778020	keystroke_n	n	n/a
389.4445	0.046	778889	keystroke_a	a	n/a
390.7495	0.1505	781499	keystroke_Key.enter	Key.enter	n/a
390.9055	14.2315	781811	prompt	n/a	architect kent much builds\n
391.905	0.105	783810	keystroke_a	a	n/a
392.22	0.09	784440	keystroke_r	r	n/a
392.5195	0.075	785039	keystroke_t	t	n/a
394.05	0.12	788100	keystroke_Key.backspace	Key.backspace	n/a
394.38	0.12	788760	keystroke_c	c	n/a
394.545	0.0755	789090	keystroke_h	h	n/a
395.145	0.12	790290	keystroke_i	i	n/a
395.2955	0.1195	790591	keystroke_t	t	n/a
395.91	0.09	791820	keystroke_e	e	n/a
396.135	0.09	792270	keystroke_c	c	n/a
396.4195	0.076	792839	keystroke_t	t	n/a
396.9005	0.134	793801	keystroke_Key.space	Key.space	n/a
397.2755	0.075	794551	keystroke_k	k	n/a
397.4105	0.105	794821	keystroke_e	e	n/a
397.5755	0.089	795151	keystroke_n	n	n/a
397.7555	0.075	795511	keystroke_t	t	n/a
398.1305	0.104	796261	keystroke_Key.space	Key.space	n/a
398.3845	0.061	796769	keystroke_m	m	n/a
398.745	0.135	797490	keystroke_u	u	n/a
399.18	0.09	798360	keystroke_s	s	n/a
399.51	0.075	799020	keystroke_c	c	n/a
399.9	0.045	799800	keystroke_Key.backspace	Key.backspace	n/a
400.035	0.06	800070	keystroke_Key.backspace	Key.backspace	n/a
400.2	0.0455	800400	keystroke_c	c	n/a
400.3795	0.075	800759	keystroke_h	h	n/a
400.6795	0.075	801359	keystroke_Key.space	Key.space	n/a
400.8755	0.059	801751	keystroke_b	b	n/a
401.0395	0.075	802079	keystroke_u	u	n/a
401.2945	0.15	802589	keystroke_l	l	n/a
401.4745	0.09	802949	keystroke_i	i	n/a
401.5955	0.089	803191	keystroke_d	d	n/a
401.835	0.06	803670	keystroke_s	s	n/a
403.0655	0.074	806131	keystroke_Key.backspace	Key.backspace	n/a
403.2455	0.059	806491	keystroke_Key.backspace	Key.backspace	n/a
403.3945	0.09	806789	keystroke_Key.backspace	Key.backspace	n/a
403.5455	0.105	807091	keystroke_Key.backspace	Key.backspace	n/a
403.8305	0.075	807661	keystroke_i	i	n/a
404.0855	0.075	808171	keystroke_l	l	n/a
404.1905	0.075	808381	keystroke_d	d	n/a
404.4005	0.075	808801	keystroke_s	s	n/a
405.0145	0.12	810029	keystroke_Key.enter	Key.enter	n/a
405.14	11.412	810280	prompt	n/a	penalties four inch coating\n
406.125	0.09	812250	keystroke_p	p	n/a
406.245	0.075	812490	keystroke_e	e	n/a
406.44	0.09	812880	keystroke_n	n	n/a
406.89	0.09	813780	keystroke_a	a	n/a
407.52	0.12	815040	keystroke_l	l	n/a
407.91	0.06	815820	keystroke_t	t	n/a
408.135	0.09	816270	keystroke_i	i	n/a
408.285	0.075	816570	keystroke_e	e	n/a
408.5095	0.0755	817019	keystroke_s	s	n/a
408.8095	0.09	817619	keystroke_Key.space	Key.space	n/a
409.0195	0.075	818039	keystroke_f	f	n/a
409.2445	0.165	818489	keystroke_o	o	n/a
409.395	0.09	818790	keystroke_u	u	n/a
409.515	0.06	819030	keystroke_r	r	n/a
409.92	0.1045	819840	keystroke_Key.space	Key.space	n/a
410.1445	0.075	820289	keystroke_i	i	n/a
410.34	0.0745	820680	keystroke_n	n	n/a
410.5495	0.075	821099	keystroke_c	c	n/a
410.6845	0.09	821369	keystroke_h	h	n/a
410.985	0.0905	821970	keystroke_Key.space	Key.space	n/a
411.1205	0.074	822241	keystroke_c	c	n/a
411.2845	0.121	822569	keystroke_o	o	n/a
411.4205	0.105	822841	keystroke_a	a	n/a
411.4955	0.105	822991	keystroke_s	s	n/a
411.795	0.105	823590	keystroke_t	t	n/a
411.945	0.105	823890	keystroke_i	i	n/a
412.11	0.09	824220	keystroke_n	n	n/a
412.185	0.0755	824370	keystroke_g	g	n/a
413.1745	0.045	826349	keystroke_Key.backspace	Key.backspace	n/a
413.34	0.075	826680	keystroke_Key.backspace	Key.backspace	n/a
413.535	0.06	827070	keystroke_Key.backspace	Key.backspace	n/a
413.685	0.075	827370	keystroke_Key.backspace	Key.backspace	n/a
414.1045	0.091	828209	keystroke_Key.backspace	Key.backspace	n/a
414.5105	0.09	829021	keystroke_t	t	n/a
414.6755	0.09	829351	keystroke_i	i	n/a
414.8705	0.09	829741	keystroke_n	n	n/a
415.0355	0.09	830071	keystroke_g	g	n/a
416.4455	0.105	832891	keystroke_Key.enter	Key.enter	n/a
416.555	11.9515	833110	prompt	n/a	extended largely packets identified\n
417.5405	0.074	835081	keystroke_e	e	n/a
417.8095	0.091	835619	keystroke_x	x	n/a
418.155	0.075	836310	keystroke_t	t	n/a
418.8755	0.075	837751	keystroke_e	e	n/a
419.07	0.0595	838140	keystroke_n	n	n/a
419.1755	0.059	838351	keystroke_d	d	n/a
419.3845	0.075	838769	keystroke_e	e	n/a
419.5805	0.075	839161	keystroke_d	d	n/a
419.8945	0.0755	839789	keystroke_Key.space	Key.space	n/a
420.1045	0.09	840209	keystroke_l	l	n/a
420.2395	0.09	840479	keystroke_a	a	n/a
420.45	0.075	840900	keystroke_r	r	n/a
420.69	0.0455	841380	keystroke_g	g	n/a
420.9145	0.061	841829	keystroke_e	e	n/a
421.1395	0.0755	842279	keystroke_l	l	n/a
421.2755	0.075	842551	keystroke_y	y	n/a
421.5905	0.119	843181	keystroke_Key.space	Key.space	n/a
421.8295	0.0905	843659	keystroke_p	p	n/a
421.995	0.0755	843990	keystroke_a	a	n/a
422.2645	0.075	844529	keystroke_c	c	n/a
422.4295	0.091	844859	keystroke_k	k	n/a
422.6705	0.09	845341	keystroke_e	e	n/a
422.865	0.0595	845730	keystroke_t	t	n/a
423.135	0.0895	846270	keystroke_s	s	n/a
423.735	0.1205	847470	keystroke_Key.space	Key.space	n/a
423.87	0.075	847740	keystroke_i	i	n/a
424.08	0.06	848160	keystroke_n	n	n/a
424.155	0.075	848310	keystroke_d	d	n/a
424.35	0.0445	848700	keystroke_e	e	n/a
424.4255	0.059	848851	keystroke_n	n	n/a
425.94	0.09	851880	keystroke_t	t	n/a
426.345	0.135	852690	keystroke_i	i	n/a
426.8855	0.09	853771	keystroke_f	f	n/a
427.0505	0.09	854101	keystroke_i	i	n/a
427.26	0.045	854520	keystroke_e	e	n/a
427.515	0.075	855030	keystroke_d	d	n/a
428.3405	0.165	856681	keystroke_Key.enter	Key.enter	n/a
428.51	12.192	857020	prompt	n/a	promotes refer materials puppy\n
429.4795	0.105	858959	keystroke_p	p	n/a
429.6595	0.09	859319	keystroke_r	r	n/a
429.84	0.105	859680	keystroke_o	o	n/a
430.14	0.06	860280	keystroke_m	m	n/a
430.3645	0.09	860729	keystroke_o	o	n/a
430.605	0.06	861210	keystroke_t	t	n/a
430.89	0.075	861780	keystroke_e	e	n/a
431.13	0.06	862260	keystroke_s	s	n/a
431.49	0.0745	862980	keystroke_Key.space	Key.space	n/a
431.73	0.09	863460	keystroke_r	r	n/a
431.91	0.075	863820	keystroke_e	e	n/a
432.135	0.075	864270	keystroke_f	f	n/a
432.345	0.105	864690	keystroke_e	e	n/a
432.451	0.089	864902	keystroke_r	r	n/a
433.095	0.15	866190	keystroke_Key.space	Key.space	n/a
433.32	0.0905	866640	keystroke_m	m	n/a
433.425	0.09	866850	keystroke_a	a	n/a
433.965	0.09	867930	keystroke_t	t	n/a
434.13	0.15	868260	keystroke_e	e	n/a
434.265	0.06	868530	keystroke_r	r	n/a
434.46	0.12	868920	keystroke_i	i	n/a
434.67	0.09	869340	keystroke_a	a	n/a
434.88	0.105	869760	keystroke_l	l	n/a
435.03	0.0755	870060	keystroke_s	s	n/a
435.525	0.105	871050	keystroke_Key.space	Key.space	n/a
436.7255	0.105	873451	keystroke_p	p	n/a
437.205	0.0605	874410	keystroke_u	u	n/a
437.475	0.0905	874950	keystroke_p	p	n/a
437.67	0.075	875340	keystroke_p	p	n/a
438.225	0.12	876450	keystroke_y	y	n/a
440.5815	0.119	881163	keystroke_Key.enter	Key.enter	n/a
440.7065	16.3605	881413	prompt	n/a	chick fraction steel mixed\n
442.0945	0.12	884189	keystroke_c	c	n/a
442.41	0.12	884820	keystroke_h	h	n/a
442.6355	0.0895	885271	keystroke_i	i	n/a
442.815	0.075	885630	keystroke_c	c	n/a
443.04	0.075	886080	keystroke_k	k	n/a
443.775	0.105	887550	keystroke_Key.space	Key.space	n/a
444.3	0.06	888600	keystroke_f	f	n/a
444.5555	0.0745	889111	keystroke_r	r	n/a
446.43	0.09	892860	keystroke_a	a	n/a
446.7305	0.105	893461	keystroke_c	c	n/a
447.1055	0.075	894211	keystroke_t	t	n/a
447.2855	0.15	894571	keystroke_i	i	n/a
447.4045	0.121	894809	keystroke_o	o	n/a
447.6755	0.089	895351	keystroke_n	n	n/a
447.9605	0.09	895921	keystroke_Key.space	Key.space	n/a
448.1105	0.09	896221	keystroke_s	s	n/a
448.3955	0.075	896791	keystroke_t	t	n/a
448.6055	0.06	897211	keystroke_e	e	n/a
448.7855	0.06	897571	keystroke_e	e	n/a
449.0105	0.12	898021	keystroke_l	l	n/a
449.2655	0.165	898531	keystroke_Key.space	Key.space	n/a
449.4605	0.105	898921	keystroke_m	m	n/a
449.8055	0.09	899611	keystroke_i	i	n/a
450.4355	0.075	900871	keystroke_x	x	n/a
450.7505	0.059	901501	keystroke_e	e	n/a
451.005	0.06	902010	keystroke_d	d	n/a
456.9775	0.0875	913955	keystroke_Key.enter	Key.enter	n/a
457.0715	12.0705	914143	prompt	n/a	digit bike flowers newman\n
457.965	0.0905	915930	keystroke_d	d	n/a
458.2505	0.075	916501	keystroke_i	i	n/a
458.445	0.075	916890	keystroke_g	g	n/a
458.596	0.0895	917192	keystroke_i	i	n/a
458.7905	0.06	917581	keystroke_t	t	n/a
458.9855	0.0895	917971	keystroke_Key.space	Key.space	n/a
459.346	0.075	918692	keystroke_b	b	n/a
459.51	0.09	919020	keystroke_i	i	n/a
459.78	0.075	919560	keystroke_k	k	n/a
459.885	0.09	919770	keystroke_e	e	n/a
460.08	0.1205	920160	keystroke_Key.space	Key.space	n/a
460.215	0.0755	920430	keystroke_f	f	n/a
460.35	0.09	920700	keystroke_l	l	n/a
460.59	0.075	921180	keystroke_o	o	n/a
460.696	0.15	921392	keystroke_w	w	n/a
460.815	0.075	921630	keystroke_e	e	n/a
461.055	0.06	922110	keystroke_r	r	n/a
461.31	0.075	922620	keystroke_s	s	n/a
462.0005	0.105	924001	keystroke_Key.space	Key.space	n/a
462.3005	0.075	924601	keystroke_n	n	n/a
462.4205	0.075	924841	keystroke_e	e	n/a
462.6605	0.075	925321	keystroke_w	w	n/a
463.0505	0.09	926101	keystroke_m	m	n/a
463.2605	0.06	926521	keystroke_a	a	n/a
463.5005	0.075	927001	keystroke_n	n	n/a
469.037	0.103	938074	keystroke_Key.enter	Key.enter	n/a
469.145	15.2675	938290	prompt	n/a	corpus closest comparing formation\n
471.5275	0.028	943055	keystroke_c	c	n/a
471.7805	0.075	943561	keystroke_o	o	n/a
471.9755	0.075	943951	keystroke_r	r	n/a
472.2755	0.09	944551	keystroke_p	p	n/a
472.576	0.0745	945152	keystroke_u	u	n/a
472.6955	0.075	945391	keystroke_s	s	n/a
473.3555	0.12	946711	keystroke_Key.space	Key.space	n/a
473.5805	0.075	947161	keystroke_c	c	n/a
473.8055	0.06	947611	keystroke_l	l	n/a
474.046	0.075	948092	keystroke_o	o	n/a
474.225	0.075	948450	keystroke_s	s	n/a
474.885	0.106	949770	keystroke_e	e	n/a
475.141	0.0895	950282	keystroke_s	s	n/a
475.5005	0.105	951001	keystroke_t	t	n/a
475.8455	0.105	951691	keystroke_Key.space	Key.space	n/a
475.9955	0.09	951991	keystroke_c	c	n/a
476.146	0.0745	952292	keystroke_o	o	n/a
476.4155	0.06	952831	keystroke_m	m	n/a
476.6405	0.075	953281	keystroke_p	p	n/a
476.7605	0.06	953521	keystroke_a	a	n/a
477.0155	0.06	954031	keystroke_r	r	n/a
477.1505	0.105	954301	keystroke_i	i	n/a
477.3155	0.12	954631	keystroke_n	n	n/a
477.5555	0.03	955111	keystroke_g	g	n/a
477.8255	0.1045	955651	keystroke_Key.space	Key.space	n/a
479.2505	0.12	958501	keystroke_f	f	n/a
479.5055	0.06	959011	keystroke_o	o	n/a
479.7455	0.03	959491	keystroke_r	r	n/a
480.0005	0.03	960001	keystroke_m	m	n/a
480.1505	0.09	960301	keystroke_a	a	n/a
480.5405	0.075	961081	keystroke_t	t	n/a
480.736	0.12	961472	keystroke_i	i	n/a
480.826	0.105	961652	keystroke_o	o	n/a
481.111	0.09	962222	keystroke_n	n	n/a
484.307	0.104	968614	keystroke_Key.enter	Key.enter	n/a
484.415	10.197	968830	prompt	n/a	invite extend specs daily\n
485.475	0.091	970950	keystroke_i	i	n/a
485.7005	0.0745	971401	keystroke_n	n	n/a
485.866	0.12	971732	keystroke_v	v	n/a
486.061	0.09	972122	keystroke_i	i	n/a
486.196	0.09	972392	keystroke_t	t	n/a
486.496	0.089	972992	keystroke_e	e	n/a
486.916	0.164	973832	keystroke_Key.space	Key.space	n/a
487.095	0.076	974190	keystroke_e	e	n/a
487.38	0.106	974760	keystroke_x	x	n/a
487.7255	0.075	975451	keystroke_t	t	n/a
488.3105	0.0605	976621	keystroke_e	e	n/a
488.4905	0.09	976981	keystroke_n	n	n/a
488.6105	0.09	977221	keystroke_d	d	n/a
489.0305	0.105	978061	keystroke_Key.space	Key.space	n/a
489.2405	0.075	978481	keystroke_s	s	n/a
489.6905	0.12	979381	keystroke_p	p	n/a
489.8705	0.06	979741	keystroke_e	e	n/a
490.2005	0.06	980401	keystroke_c	c	n/a
490.6055	0.06	981211	keystroke_s	s	n/a
490.8905	0.105	981781	keystroke_Key.space	Key.space	n/a
491.0705	0.045	982141	keystroke_d	d	n/a
491.3555	0.075	982711	keystroke_a	a	n/a
491.5655	0.06	983131	keystroke_i	i	n/a
491.88	0.09	983760	keystroke_l	l	n/a
492.12	0.09	984240	keystroke_y	y	n/a
494.507	0.103	989014	keystroke_Key.enter	Key.enter	n/a
494.615	10.692	989230	prompt	n/a	foam friend ensure liberia\n
495.54	0.0895	991080	keystroke_f	f	n/a
495.7205	0.12	991441	keystroke_o	o	n/a
495.9155	0.105	991831	keystroke_a	a	n/a
496.2305	0.015	992461	keystroke_m	m	n/a
496.2905	0.15	992581	keystroke_Key.space	Key.space	n/a
496.4705	0.075	992941	keystroke_f	f	n/a
496.6805	0.06	993361	keystroke_r	r	n/a
496.7855	0.09	993571	keystroke_i	i	n/a
496.9505	0.09	993901	keystroke_e	e	n/a
497.1455	0.09	994291	keystroke_n	n	n/a
497.4155	0.075	994831	keystroke_d	d	n/a
497.8205	0.12	995641	keystroke_Key.space	Key.space	n/a
498.0005	0.075	996001	keystroke_e	e	n/a
498.2255	0.075	996451	keystroke_n	n	n/a
498.3455	0.09	996691	keystroke_s	s	n/a
498.5855	0.105	997171	keystroke_u	u	n/a
498.6755	0.105	997351	keystroke_r	r	n/a
498.9005	0.0895	997801	keystroke_e	e	n/a
499.155	0.135	998310	keystroke_Key.space	Key.space	n/a
499.4555	0.09	998911	keystroke_l	l	n/a
499.695	0.075	999390	keystroke_i	i	n/a
499.9505	0.075	999901	keystroke_b	b	n/a
500.3105	0.15	1000621	keystroke_e	e	n/a
500.4755	0.075	1000951	keystroke_r	r	n/a
500.7305	0.075	1001461	keystroke_i	i	n/a
501.1055	0.105	1002211	keystroke_a	a	n/a
505.218	0.087	1010436	keystroke_Key.enter	Key.enter	n/a
505.31	11.352	1010620	prompt	n/a	talking recruiting surrounding referred\n
506.581	0.074	1013162	keystroke_t	t	n/a
506.941	0.089	1013882	keystroke_a	a	n/a
507.075	0.1355	1014150	keystroke_l	l	n/a
507.2255	0.075	1014451	keystroke_k	k	n/a
507.4655	0.075	1014931	keystroke_i	i	n/a
507.7205	0.075	1015441	keystroke_n	n	n/a
508.1255	0.0895	1016251	keystroke_g	g	n/a
508.3805	0.105	1016761	keystroke_Key.space	Key.space	n/a
508.6055	0.075	1017211	keystroke_r	r	n/a
508.7855	0.0895	1017571	keystroke_e	e	n/a
509.085	0.075	1018170	keystroke_c	c	n/a
509.295	0.0905	1018590	keystroke_r	r	n/a
509.521	0.1045	1019042	keystroke_u	u	n/a
509.7155	0.12	1019431	keystroke_i	i	n/a
509.9105	0.045	1019821	keystroke_t	t	n/a
510.0305	0.0605	1020061	keystroke_i	i	n/a
510.195	0.09	1020390	keystroke_n	n	n/a
510.375	0.075	1020750	keystroke_g	g	n/a
510.6	0.075	1021200	keystroke_Key.space	Key.space	n/a
511.38	0.09	1022760	keystroke_s	s	n/a
511.545	0.09	1023090	keystroke_u	u	n/a
511.785	0.0605	1023570	keystroke_r	r	n/a
511.965	0.075	1023930	keystroke_r	r	n/a
512.205	0.0905	1024410	keystroke_o	o	n/a
512.3705	0.0745	1024741	keystroke_u	u	n/a
512.6255	0.075	1025251	keystroke_n	n	n/a
512.791	0.0895	1025582	keystroke_d	d	n/a
512.895	0.121	1025790	keystroke_i	i	n/a
513.016	0.119	1026032	keystroke_n	n	n/a
513.195	0.046	1026390	keystroke_g	g	n/a
513.555	0.075	1027110	keystroke_Key.space	Key.space	n/a
513.78	0.075	1027560	keystroke_r	r	n/a
514.0205	0.0895	1028041	keystroke_e	e	n/a
514.245	0.075	1028490	keystroke_f	f	n/a
514.47	0.0755	1028940	keystroke_e	e	n/a
514.7255	0.0595	1029451	keystroke_r	r	n/a
514.906	0.0595	1029812	keystroke_r	r	n/a
515.0855	0.075	1030171	keystroke_e	e	n/a
515.2945	0.091	1030589	keystroke_d	d	n/a
516.495	0.165	1032990	keystroke_Key.enter	Key.enter	n/a
516.665	9.087	1033330	prompt	n/a	munich install dome combat\n
517.501	0.075	1035002	keystroke_m	m	n/a
517.8455	0.0455	1035691	keystroke_u	u	n/a
518.745	0.06	1037490	keystroke_n	n	n/a
518.895	0.09	1037790	keystroke_i	i	n/a
519.06	0.0905	1038120	keystroke_c	c	n/a
519.24	0.075	1038480	keystroke_h	h	n/a
519.7205	0.1495	1039441	keystroke_Key.space	Key.space	n/a
520.0205	0.06	1040041	keystroke_i	i	n/a
520.201	0.1045	1040402	keystroke_n	n	n/a
520.3195	0.091	1040639	keystroke_s	s	n/a
520.5905	0.06	1041181	keystroke_t	t	n/a
520.8305	0.09	1041661	keystroke_a	a	n/a
521.0105	0.06	1042021	keystroke_l	l	n/a
521.1605	0.105	1042321	keystroke_l	l	n/a
521.3555	0.12	1042711	keystroke_Key.space	Key.space	n/a
521.5205	0.09	1043041	keystroke_d	d	n/a
521.6555	0.1045	1043311	keystroke_o	o	n/a
521.865	0.09	1043730	keystroke_m	m	n/a
522.015	0.09	1044030	keystroke_e	e	n/a
522.225	0.09	1044450	keystroke_Key.space	Key.space	n/a
522.36	0.12	1044720	keystroke_c	c	n/a
522.465	0.091	1044930	keystroke_o	o	n/a
522.66	0.09	1045320	keystroke_m	m	n/a
522.795	0.06	1045590	keystroke_b	b	n/a
523.2005	0.0745	1046401	keystroke_a	a	n/a
523.636	0.044	1047272	keystroke_t	t	n/a
525.555	0.195	1051110	keystroke_Key.enter	Key.enter	n/a
525.7555	15.462	1051511	prompt	n/a	usage port michelle projected\n
526.92	0.121	1053840	keystroke_u	u	n/a
527.5505	0.105	1055101	keystroke_s	s	n/a
527.835	0.076	1055670	keystroke_a	a	n/a
528.1655	0.075	1056331	keystroke_g	g	n/a
528.6	0.075	1057200	keystroke_e	e	n/a
528.915	0.1355	1057830	keystroke_Key.space	Key.space	n/a
529.2605	0.1945	1058521	keystroke_p	p	n/a
529.425	0.105	1058850	keystroke_o	o	n/a
529.59	0.1205	1059180	keystroke_r	r	n/a
529.6805	0.1195	1059361	keystroke_t	t	n/a
530.1155	0.1495	1060231	keystroke_Key.space	Key.space	n/a
530.3855	0.09	1060771	keystroke_m	m	n/a
530.6555	0.09	1061311	keystroke_i	i	n/a
531.0005	0.09	1062001	keystroke_c	c	n/a
531.2705	0.075	1062541	keystroke_h	h	n/a
531.4805	0.045	1062961	keystroke_e	e	n/a
531.8405	0.09	1063681	keystroke_l	l	n/a
532.0805	0.09	1064161	keystroke_l	l	n/a
532.2755	0.09	1064551	keystroke_e	e	n/a
533.31	0.135	1066620	keystroke_Key.space	Key.space	n/a
533.6555	0.1355	1067311	keystroke_p	p	n/a
533.865	0.105	1067730	keystroke_r	r	n/a
534.045	0.0605	1068090	keystroke_o	o	n/a
534.4205	0.1045	1068841	keystroke_j	j	n/a
534.585	0.075	1069170	keystroke_e	e	n/a
534.855	0.0905	1069710	keystroke_c	c	n/a
535.14	0.09	1070280	keystroke_t	t	n/a
535.4245	0.09	1070849	keystroke_e	e	n/a
535.6655	0.0895	1071331	keystroke_d	d	n/a
541.1275	0.088	1082255	keystroke_Key.enter	Key.enter	n/a
541.22	23.7125	1082440	prompt	n/a	continue penalty inspection downloaded\n
542.2655	0.1045	1084531	keystroke_c	c	n/a
542.385	0.075	1084770	keystroke_o	o	n/a
542.64	0.09	1085280	keystroke_n	n	n/a
542.925	0.09	1085850	keystroke_t	t	n/a
543.12	0.075	1086240	keystroke_u	u	n/a
543.376	0.089	1086752	keystroke_n	n	n/a
543.645	0.06	1087290	keystroke_i	i	n/a
544.245	0.0605	1088490	keystroke_Key.backspace	Key.backspace	n/a
544.455	0.0905	1088910	keystroke_Key.backspace	Key.backspace	n/a
544.875	0.105	1089750	keystroke_Key.backspace	Key.backspace	n/a
545.265	0.045	1090530	keystroke_i	i	n/a
545.5505	0.09	1091101	keystroke_n	n	n/a
545.8505	0.105	1091701	keystroke_u	u	n/a
546.0005	0.09	1092001	keystroke_e	e	n/a
546.3905	0.105	1092781	keystroke_Key.space	Key.space	n/a
546.7655	0.105	1093531	keystroke_p	p	n/a
547.3955	0.075	1094791	keystroke_e	e	n/a
547.5455	0.1045	1095091	keystroke_n	n	n/a
547.8455	0.1045	1095691	keystroke_a	a	n/a
549.376	0.165	1098752	keystroke_l	l	n/a
549.9605	0.105	1099921	keystroke_t	t	n/a
550.3955	0.165	1100791	keystroke_y	y	n/a
552.0155	0.15	1104031	keystroke_Key.space	Key.space	n/a
552.7505	0.075	1105501	keystroke_i	i	n/a
553.0055	0.09	1106011	keystroke_n	n	n/a
553.6505	0.09	1107301	keystroke_s	s	n/a
554.281	0.135	1108562	keystroke_p	p	n/a
554.491	0.0595	1108982	keystroke_e	e	n/a
554.7755	0.075	1109551	keystroke_c	c	n/a
555.091	0.0745	1110182	keystroke_t	t	n/a
555.301	0.2095	1110602	keystroke_i	i	n/a
555.5255	0.09	1111051	keystroke_o	o	n/a
555.8405	0.075	1111681	keystroke_n	n	n/a
556.051	0.1195	1112102	keystroke_Key.space	Key.space	n/a
556.185	0.1055	1112370	keystroke_d	d	n/a
556.7255	0.105	1113451	keystroke_o	o	n/a
556.8905	0.06	1113781	keystroke_w	w	n/a
557.1005	0.09	1114201	keystroke_n	n	n/a
557.7455	0.09	1115491	keystroke_l	l	n/a
558.0305	0.075	1116061	keystroke_o	o	n/a
558.3305	0.075	1116661	keystroke_d	d	n/a
559.0655	0.12	1118131	keystroke_Key.backspace	Key.backspace	n/a
559.2005	0.06	1118401	keystroke_a	a	n/a
559.471	0.0595	1118942	keystroke_d	d	n/a
559.6955	0.075	1119391	keystroke_e	e	n/a
559.9055	0.1045	1119811	keystroke_d	d	n/a
564.8265	0.1045	1129653	keystroke_Key.enter	Key.enter	n/a
564.9355	17.7865	1129871	prompt	n/a	patents findings cayman comprehensive\n
566.2815	0.119	1132563	keystroke_p	p	n/a
566.3855	0.09	1132771	keystroke_a	a	n/a
566.7155	0.0755	1133431	keystroke_t	t	n/a
566.8805	0.09	1133761	keystroke_e	e	n/a
567.0455	0.12	1134091	keystroke_n	n	n/a
567.2255	0.075	1134451	keystroke_t	t	n/a
567.7205	0.09	1135441	keystroke_s	s	n/a
568.0805	0.1205	1136161	keystroke_Key.space	Key.space	n/a
568.2155	0.09	1136431	keystroke_f	f	n/a
568.3655	0.09	1136731	keystroke_i	i	n/a
568.5605	0.075	1137121	keystroke_n	n	n/a
568.666	0.0895	1137332	keystroke_d	d	n/a
568.7705	0.09	1137541	keystroke_i	i	n/a
568.8755	0.12	1137751	keystroke_n	n	n/a
568.9655	0.09	1137931	keystroke_g	g	n/a
569.671	0.0895	1139342	keystroke_s	s	n/a
570.3305	0.1205	1140661	keystroke_Key.space	Key.space	n/a
570.4805	0.075	1140961	keystroke_c	c	n/a
570.7655	0.06	1141531	keystroke_a	a	n/a
570.9305	0.09	1141861	keystroke_y	y	n/a
571.2755	0.06	1142551	keystroke_m	m	n/a
571.4255	0.06	1142851	keystroke_a	a	n/a
571.5755	0.075	1143151	keystroke_n	n	n/a
572.0705	0.1055	1144141	keystroke_Key.space	Key.space	n/a
572.4305	0.075	1144861	keystroke_c	c	n/a
572.7605	0.135	1145521	keystroke_o	o	n/a
573.0005	0.075	1146001	keystroke_m	m	n/a
573.991	0.15	1147982	keystroke_p	p	n/a
575.251	0.06	1150502	keystroke_r	r	n/a
575.521	0.06	1151042	keystroke_e	e	n/a
576.181	0.134	1152362	keystroke_h	h	n/a
576.421	0.06	1152842	keystroke_e	e	n/a
576.646	0.075	1153292	keystroke_n	n	n/a
576.781	0.075	1153562	keystroke_s	s	n/a
576.961	0.09	1153922	keystroke_i	i	n/a
577.111	0.09	1154222	keystroke_v	v	n/a
577.5605	0.045	1155121	keystroke_e	e	n/a
582.6465	0.074	1165293	keystroke_Key.enter	Key.enter	n/a
582.7255	11.7115	1165451	prompt	n/a	wider nobody arrange museums\n
583.546	0.105	1167092	keystroke_w	w	n/a
583.816	0.075	1167632	keystroke_i	i	n/a
583.966	0.045	1167932	keystroke_d	d	n/a
584.2805	0.1355	1168561	keystroke_e	e	n/a
584.4305	0.1055	1168861	keystroke_r	r	n/a
584.7	0.12	1169400	keystroke_Key.space	Key.space	n/a
586.02	0.015	1172040	keystroke_n	n	n/a
586.231	0.105	1172462	keystroke_o	o	n/a
586.786	0.0745	1173572	keystroke_b	b	n/a
586.9655	0.075	1173931	keystroke_o	o	n/a
587.161	0.0895	1174322	keystroke_d	d	n/a
587.5055	0.135	1175011	keystroke_y	y	n/a
587.9255	0.09	1175851	keystroke_Key.space	Key.space	n/a
588.1805	0.075	1176361	keystroke_a	a	n/a
588.5255	0.045	1177051	keystroke_r	r	n/a
588.7055	0.075	1177411	keystroke_r	r	n/a
589.17	0.09	1178340	keystroke_a	a	n/a
589.335	0.1055	1178670	keystroke_n	n	n/a
589.515	0.09	1179030	keystroke_g	g	n/a
589.8155	0.06	1179631	keystroke_e	e	n/a
589.9955	0.12	1179991	keystroke_Key.space	Key.space	n/a
590.1605	0.09	1180321	keystroke_m	m	n/a
590.5205	0.09	1181041	keystroke_u	u	n/a
590.671	0.075	1181342	keystroke_s	s	n/a
590.956	0.075	1181912	keystroke_e	e	n/a
591.6455	0.1055	1183291	keystroke_u	u	n/a
592.021	0.1345	1184042	keystroke_m	m	n/a
592.2155	0.1205	1184431	keystroke_s	s	n/a
594.285	0.151	1188570	keystroke_Key.enter	Key.enter	n/a
594.442	12.0405	1188884	prompt	n/a	arab moderators centuries studies\n
595.126	0.0895	1190252	keystroke_a	a	n/a
595.4405	0.045	1190881	keystroke_r	r	n/a
595.7555	0.075	1191511	keystroke_a	a	n/a
596.0555	0.075	1192111	keystroke_b	b	n/a
596.3255	0.12	1192651	keystroke_Key.space	Key.space	n/a
596.821	0.12	1193642	keystroke_m	m	n/a
597.046	0.12	1194092	keystroke_o	o	n/a
597.226	0.09	1194452	keystroke_d	d	n/a
597.481	0.165	1194962	keystroke_e	e	n/a
597.631	0.06	1195262	keystroke_r	r	n/a
597.871	0.075	1195742	keystroke_a	a	n/a
598.096	0.075	1196192	keystroke_t	t	n/a
598.306	0.12	1196612	keystroke_o	o	n/a
598.441	0.06	1196882	keystroke_r	r	n/a
598.771	0.075	1197542	keystroke_s	s	n/a
599.041	0.1195	1198082	keystroke_Key.space	Key.space	n/a
599.6555	0.105	1199311	keystroke_c	c	n/a
599.8805	0.0755	1199761	keystroke_e	e	n/a
600.0155	0.09	1200031	keystroke_n	n	n/a
600.1955	0.075	1200391	keystroke_t	t	n/a
600.4055	0.15	1200811	keystroke_u	u	n/a
600.541	0.0895	1201082	keystroke_i	i	n/a
600.6455	0.0595	1201291	keystroke_r	r	n/a
600.8705	0.0745	1201741	keystroke_e	e	n/a
601.111	0.075	1202222	keystroke_s	s	n/a
601.605	0.075	1203210	keystroke_Key.backspace	Key.backspace	n/a
601.8005	0.0595	1203601	keystroke_Key.backspace	Key.backspace	n/a
601.9655	0.0895	1203931	keystroke_Key.backspace	Key.backspace	n/a
602.19	0.09	1204380	keystroke_Key.backspace	Key.backspace	n/a
602.445	0.075	1204890	keystroke_r	r	n/a
602.67	0.075	1205340	keystroke_i	i	n/a
602.881	0.059	1205762	keystroke_e	e	n/a
603.106	0.059	1206212	keystroke_s	s	n/a
603.3605	0.105	1206721	keystroke_Key.space	Key.space	n/a
603.8255	0.075	1207651	keystroke_s	s	n/a
604.0955	0.06	1208191	keystroke_t	t	n/a
604.2755	0.12	1208551	keystroke_u	u	n/a
604.4255	0.09	1208851	keystroke_d	d	n/a
604.6055	0.09	1209211	keystroke_i	i	n/a
604.7105	0.06	1209421	keystroke_e	e	n/a
604.8905	0.0605	1209781	keystroke_s	s	n/a
606.316	0.165	1212632	keystroke_Key.enter	Key.enter	n/a
606.4855	11.772	1212971	prompt	n/a	demonstrated jewish discussing pumps\n
607.5455	0.09	1215091	keystroke_d	d	n/a
607.9355	0.0605	1215871	keystroke_e	e	n/a
608.4	0.09	1216800	keystroke_m	m	n/a
608.58	0.09	1217160	keystroke_o	o	n/a
608.79	0.0755	1217580	keystroke_n	n	n/a
608.926	0.044	1217852	keystroke_s	s	n/a
609.15	0.135	1218300	keystroke_t	t	n/a
609.3	0.06	1218600	keystroke_r	r	n/a
609.57	0.06	1219140	keystroke_a	a	n/a
609.8105	0.0595	1219621	keystroke_t	t	n/a
609.96	0.0755	1219920	keystroke_e	e	n/a
610.155	0.06	1220310	keystroke_d	d	n/a
610.2905	0.09	1220581	keystroke_Key.space	Key.space	n/a
610.4105	0.105	1220821	keystroke_j	j	n/a
610.5755	0.075	1221151	keystroke_e	e	n/a
610.8155	0.06	1221631	keystroke_w	w	n/a
610.9955	0.06	1221991	keystroke_i	i	n/a
611.1605	0.06	1222321	keystroke_s	s	n/a
611.3405	0.075	1222681	keystroke_h	h	n/a
611.625	0.09	1223250	keystroke_Key.space	Key.space	n/a
612.45	0.075	1224900	keystroke_d	d	n/a
612.705	0.045	1225410	keystroke_i	i	n/a
612.976	0.045	1225952	keystroke_c	c	n/a
614.086	0.09	1228172	keystroke_Key.backspace	Key.backspace	n/a
614.206	0.075	1228412	keystroke_s	s	n/a
614.4755	0.06	1228951	keystroke_c	c	n/a
614.656	0.059	1229312	keystroke_u	u	n/a
614.776	0.0595	1229552	keystroke_s	s	n/a
614.941	0.074	1229882	keystroke_s	s	n/a
615.076	0.12	1230152	keystroke_i	i	n/a
615.226	0.09	1230452	keystroke_n	n	n/a
615.361	0.0745	1230722	keystroke_g	g	n/a
615.615	0.105	1231230	keystroke_Key.space	Key.space	n/a
615.811	0.104	1231622	keystroke_p	p	n/a
616.141	0.06	1232282	keystroke_u	u	n/a
616.47	0.076	1232940	keystroke_m	m	n/a
616.651	0.089	1233302	keystroke_p	p	n/a
616.831	0.059	1233662	keystroke_s	s	n/a
618.09	0.165	1236180	keystroke_Key.enter	Key.enter	n/a
618.261	12.821	1236522	prompt	n/a	prostores strategies whats hazards\n
619.201	0.104	1238402	keystroke_p	p	n/a
619.351	0.075	1238702	keystroke_r	r	n/a
619.605	0.0755	1239210	keystroke_o	o	n/a
620.2355	0.075	1240471	keystroke_s	s	n/a
620.4305	0.09	1240861	keystroke_t	t	n/a
620.5655	0.105	1241131	keystroke_o	o	n/a
620.7005	0.105	1241401	keystroke_r	r	n/a
620.9405	0.06	1241881	keystroke_e	e	n/a
621.1805	0.075	1242361	keystroke_s	s	n/a
621.6005	0.075	1243201	keystroke_Key.space	Key.space	n/a
621.7655	0.06	1243531	keystroke_s	s	n/a
621.9755	0.09	1243951	keystroke_t	t	n/a
622.0955	0.09	1244191	keystroke_r	r	n/a
622.4255	0.075	1244851	keystroke_a	a	n/a
622.846	0.044	1245692	keystroke_t	t	n/a
623.04	0.075	1246080	keystroke_e	e	n/a
623.28	0.06	1246560	keystroke_g	g	n/a
623.746	0.134	1247492	keystroke_i	i	n/a
623.956	0.074	1247912	keystroke_e	e	n/a
624.21	0.09	1248420	keystroke_s	s	n/a
624.63	0.09	1249260	keystroke_Key.space	Key.space	n/a
624.765	0.06	1249530	keystroke_w	w	n/a
624.945	0.06	1249890	keystroke_h	h	n/a
625.02	0.06	1250040	keystroke_a	a	n/a
625.2605	0.06	1250521	keystroke_t	t	n/a
625.4705	0.075	1250941	keystroke_s	s	n/a
625.695	0.075	1251390	keystroke_Key.space	Key.space	n/a
625.9505	0.06	1251901	keystroke_h	h	n/a
626.1455	0.09	1252291	keystroke_a	a	n/a
628.6225	0.001	1257245	keystroke_z	z	n/a
628.8455	0.09	1257691	keystroke_a	a	n/a
629.1155	0.075	1258231	keystroke_r	r	n/a
629.3405	0.075	1258681	keystroke_d	d	n/a
629.926	0.044	1259852	keystroke_s	s	n/a
630.916	0.164	1261832	keystroke_Key.enter	Key.enter	n/a
631.0855	12.1465	1262171	prompt	n/a	raise casinos answers harvey\n
631.876	0.089	1263752	keystroke_r	r	n/a
632.1605	0.0595	1264321	keystroke_a	a	n/a
632.431	0.059	1264862	keystroke_i	i	n/a
632.551	0.059	1265102	keystroke_s	s	n/a
632.82	0.0605	1265640	keystroke_e	e	n/a
632.9705	0.105	1265941	keystroke_Key.space	Key.space	n/a
633.1805	0.09	1266361	keystroke_c	c	n/a
633.7055	0.045	1267411	keystroke_a	a	n/a
633.9005	0.06	1267801	keystroke_s	s	n/a
634.081	0.075	1268162	keystroke_i	i	n/a
634.3355	0.03	1268671	keystroke_n	n	n/a
634.7705	0.09	1269541	keystroke_o	o	n/a
634.9805	0.06	1269961	keystroke_s	s	n/a
635.2955	0.0895	1270591	keystroke_Key.space	Key.space	n/a
636.0905	0.06	1272181	keystroke_a	a	n/a
636.256	0.0745	1272512	keystroke_n	n	n/a
636.421	0.0445	1272842	keystroke_s	s	n/a
636.6605	0.0305	1273321	keystroke_w	w	n/a
636.6755	0.12	1273351	keystroke_e	e	n/a
637.0805	0.06	1274161	keystroke_r	r	n/a
637.276	0.0595	1274552	keystroke_s	s	n/a
637.47	0.075	1274940	keystroke_Key.space	Key.space	n/a
637.9955	0.075	1275991	keystroke_h	h	n/a
638.31	0.0605	1276620	keystroke_a	a	n/a
638.52	0.06	1277040	keystroke_r	r	n/a
638.76	0.075	1277520	keystroke_b	b	n/a
638.985	0.061	1277970	keystroke_e	e	n/a
639.495	0.12	1278990	keystroke_Key.backspace	Key.backspace	n/a
639.9005	0.09	1279801	keystroke_Key.backspace	Key.backspace	n/a
639.9905	0.09	1279981	keystroke_v	v	n/a
640.4105	0.06	1280821	keystroke_e	e	n/a
640.6205	0.06	1281241	keystroke_y	y	n/a
643.173	0.058	1286346	keystroke_Key.enter	Key.enter	n/a
643.2355	25.872	1286471	prompt	n/a	jewelry target delete scenario\n
644.5505	0.09	1289101	keystroke_j	j	n/a
644.6555	0.0755	1289311	keystroke_e	e	n/a
644.8805	0.06	1289761	keystroke_w	w	n/a
645.0605	0.09	1290121	keystroke_l	l	n/a
646.036	0.1345	1292072	keystroke_Key.backspace	Key.backspace	n/a
646.2005	0.06	1292401	keystroke_e	e	n/a
646.3505	0.075	1292701	keystroke_r	r	n/a
646.531	0.074	1293062	keystroke_l	l	n/a
646.7405	0.09	1293481	keystroke_y	y	n/a
647.0855	0.1195	1294171	keystroke_Key.space	Key.space	n/a
647.655	0.076	1295310	keystroke_t	t	n/a
647.94	0.09	1295880	keystroke_a	a	n/a
648.1955	0.03	1296391	keystroke_r	r	n/a
648.4655	0.075	1296931	keystroke_g	g	n/a
648.691	0.0745	1297382	keystroke_e	e	n/a
648.9315	0.059	1297863	keystroke_t	t	n/a
650.1755	0.075	1300351	keystroke_Key.backspace	Key.backspace	n/a
650.3855	0.06	1300771	keystroke_Key.backspace	Key.backspace	n/a
650.761	0.0445	1301522	keystroke_Key.backspace	Key.backspace	n/a
650.9405	0.09	1301881	keystroke_Key.backspace	Key.backspace	n/a
651.166	0.0595	1302332	keystroke_Key.backspace	Key.backspace	n/a
651.3455	0.06	1302691	keystroke_Key.backspace	Key.backspace	n/a
651.5405	0.06	1303081	keystroke_Key.backspace	Key.backspace	n/a
651.7205	0.06	1303441	keystroke_Key.backspace	Key.backspace	n/a
651.9005	0.045	1303801	keystroke_Key.backspace	Key.backspace	n/a
652.066	0.0595	1304132	keystroke_Key.backspace	Key.backspace	n/a
652.441	0.0595	1304882	keystroke_l	l	n/a
652.6505	0.06	1305301	keystroke_r	r	n/a
652.9505	0.075	1305901	keystroke_y	y	n/a
653.835	0.12	1307670	keystroke_Key.space	Key.space	n/a
654.03	0.046	1308060	keystroke_t	t	n/a
654.301	0.104	1308602	keystroke_a	a	n/a
654.54	0.09	1309080	keystroke_r	r	n/a
654.795	0.045	1309590	keystroke_g	g	n/a
654.945	0.1065	1309890	keystroke_e	e	n/a
655.126	0.09	1310252	keystroke_t	t	n/a
655.471	0.105	1310942	keystroke_Key.space	Key.space	n/a
655.756	0.075	1311512	keystroke_d	d	n/a
655.951	0.09	1311902	keystroke_e	e	n/a
656.221	0.105	1312442	keystroke_l	l	n/a
656.386	0.06	1312772	keystroke_e	e	n/a
656.656	0.06	1313312	keystroke_t	t	n/a
656.836	0.075	1313672	keystroke_e	e	n/a
657.2405	0.0905	1314481	keystroke_Key.space	Key.space	n/a
657.5105	0.06	1315021	keystroke_s	s	n/a
658.2005	0.06	1316401	keystroke_c	c	n/a
659.0405	0.0895	1318081	keystroke_e	e	n/a
659.251	0.09	1318502	keystroke_n	n	n/a
659.535	0.075	1319070	keystroke_a	a	n/a
659.746	0.075	1319492	keystroke_r	r	n/a
660.1205	0.15	1320241	keystroke_i	i	n/a
660.36	0.105	1320720	keystroke_o	o	n/a
669.003	0.103	1338006	keystroke_Key.enter	Key.enter	n/a
669.112	17.3515	1338224	prompt	n/a	undertaken minister simulation kings\n
670.2465	0.074	1340493	keystroke_u	u	n/a
670.5305	0.075	1341061	keystroke_n	n	n/a
670.6805	0.075	1341361	keystroke_d	d	n/a
670.9505	0.196	1341901	keystroke_e	e	n/a
671.1155	0.06	1342231	keystroke_r	r	n/a
671.4005	0.075	1342801	keystroke_s	s	n/a
671.6405	0.045	1343281	keystroke_t	t	n/a
673.6205	0.105	1347241	keystroke_Key.backspace	Key.backspace	n/a
673.846	0.075	1347692	keystroke_Key.backspace	Key.backspace	n/a
674.776	0.075	1349552	keystroke_t	t	n/a
675.136	0.105	1350272	keystroke_a	a	n/a
675.331	0.09	1350662	keystroke_k	k	n/a
675.541	0.06	1351082	keystroke_e	e	n/a
675.706	0.09	1351412	keystroke_n	n	n/a
676.021	0.12	1352042	keystroke_Key.space	Key.space	n/a
676.276	0.09	1352552	keystroke_m	m	n/a
676.591	0.06	1353182	keystroke_i	i	n/a
676.8305	0.091	1353661	keystroke_n	n	n/a
677.0105	0.045	1354021	keystroke_i	i	n/a
677.206	0.0755	1354412	keystroke_s	s	n/a
677.476	0.0595	1354952	keystroke_t	t	n/a
677.7165	0.209	1355433	keystroke_e	e	n/a
677.8965	0.09	1355793	keystroke_r	r	n/a
678.2115	0.12	1356423	keystroke_Key.space	Key.space	n/a
678.4665	0.075	1356933	keystroke_s	s	n/a
678.706	0.105	1357412	keystroke_i	i	n/a
678.991	0.075	1357982	keystroke_m	m	n/a
679.2765	0.09	1358553	keystroke_u	u	n/a
679.6815	0.06	1359363	keystroke_l	l	n/a
679.9815	0.075	1359963	keystroke_a	a	n/a
680.3415	0.075	1360683	keystroke_t	t	n/a
680.5365	0.135	1361073	keystroke_i	i	n/a
680.6565	0.105	1361313	keystroke_o	o	n/a
680.9565	0.105	1361913	keystroke_n	n	n/a
681.1965	0.105	1362393	keystroke_Key.space	Key.space	n/a
681.3615	0.075	1362723	keystroke_k	k	n/a
681.5715	0.06	1363143	keystroke_i	i	n/a
681.7965	0.075	1363593	keystroke_n	n	n/a
681.9015	0.06	1363803	keystroke_g	g	n/a
682.2315	0.0745	1364463	keystroke_s	s	n/a
686.3885	0.073	1372777	keystroke_Key.enter	Key.enter	n/a
686.4675	20.2455	1372935	prompt	n/a	topics cleveland landscape msgid\n
687.4365	0.09	1374873	keystroke_t	t	n/a
687.6165	0.135	1375233	keystroke_o	o	n/a
687.7365	0.135	1375473	keystroke_p	p	n/a
687.9315	0.105	1375863	keystroke_i	i	n/a
688.0665	0.06	1376133	keystroke_c	c	n/a
688.3365	0.075	1376673	keystroke_s	s	n/a
688.606	0.1345	1377212	keystroke_Key.space	Key.space	n/a
689.1765	0.09	1378353	keystroke_c	c	n/a
689.4165	0.119	1378833	keystroke_l	l	n/a
689.6415	0.06	1379283	keystroke_e	e	n/a
689.926	0.045	1379852	keystroke_v	v	n/a
690.166	0.06	1380332	keystroke_e	e	n/a
690.436	0.09	1380872	keystroke_l	l	n/a
690.571	0.06	1381142	keystroke_a	a	n/a
690.7955	0.076	1381591	keystroke_n	n	n/a
690.9605	0.0755	1381921	keystroke_d	d	n/a
691.3065	0.0895	1382613	keystroke_Key.space	Key.space	n/a
691.546	0.09	1383092	keystroke_l	l	n/a
691.681	0.09	1383362	keystroke_a	a	n/a
691.906	0.06	1383812	keystroke_n	n	n/a
692.071	0.06	1384142	keystroke_d	d	n/a
692.566	0.075	1385132	keystroke_s	s	n/a
692.881	0.06	1385762	keystroke_c	c	n/a
693.121	0.09	1386242	keystroke_a	a	n/a
693.316	0.105	1386632	keystroke_p	p	n/a
693.481	0.105	1386962	keystroke_e	e	n/a
693.781	0.12	1387562	keystroke_Key.space	Key.space	n/a
694.006	0.075	1388012	keystroke_m	m	n/a
694.501	0.105	1389002	keystroke_s	s	n/a
695.116	0.105	1390232	keystroke_g	g	n/a
695.371	0.135	1390742	keystroke_i	i	n/a
695.626	0.075	1391252	keystroke_d	d	n/a
706.6675	0.044	1413335	keystroke_Key.enter	Key.enter	n/a
706.716	18.4935	1413432	prompt	n/a	feed installed consistency upgrades\n
707.6415	0.06	1415283	keystroke_f	f	n/a
707.8955	0.0605	1415791	keystroke_e	e	n/a
708.0615	0.06	1416123	keystroke_e	e	n/a
708.2865	0.0605	1416573	keystroke_d	d	n/a
708.511	0.1345	1417022	keystroke_Key.space	Key.space	n/a
708.661	0.0895	1417322	keystroke_i	i	n/a
708.8415	0.0895	1417683	keystroke_n	n	n/a
708.9765	0.075	1417953	keystroke_s	s	n/a
709.186	0.0605	1418372	keystroke_t	t	n/a
709.4555	0.121	1418911	keystroke_a	a	n/a
709.6215	0.045	1419243	keystroke_l	l	n/a
709.7415	0.09	1419483	keystroke_l	l	n/a
709.8765	0.0895	1419753	keystroke_e	e	n/a
710.131	0.06	1420262	keystroke_d	d	n/a
710.326	0.075	1420652	keystroke_Key.space	Key.space	n/a
710.521	0.0605	1421042	keystroke_c	c	n/a
710.866	0.1055	1421732	keystroke_o	o	n/a
711.166	0.0905	1422332	keystroke_n	n	n/a
711.4515	0.0745	1422903	keystroke_s	s	n/a
711.721	0.1055	1423442	keystroke_i	i	n/a
712.0215	0.06	1424043	keystroke_s	s	n/a
712.561	0.0755	1425122	keystroke_t	t	n/a
712.7715	0.075	1425543	keystroke_e	e	n/a
712.9215	0.105	1425843	keystroke_n	n	n/a
713.1015	0.075	1426203	keystroke_c	c	n/a
713.3565	0.135	1426713	keystroke_y	y	n/a
713.7765	0.105	1427553	keystroke_Key.space	Key.space	n/a
714.5715	0.06	1429143	keystroke_u	u	n/a
714.9615	0.06	1429923	keystroke_p	p	n/a
716.8805	0.105	1433761	keystroke_g	g	n/a
717.0615	0.075	1434123	keystroke_r	r	n/a
717.4055	0.076	1434811	keystroke_a	a	n/a
717.661	0.0605	1435322	keystroke_d	d	n/a
717.9005	0.075	1435801	keystroke_e	e	n/a
718.1265	0.075	1436253	keystroke_s	s	n/a
725.073	0.1335	1450146	keystroke_Key.enter	Key.enter	n/a
725.2155	11.8885	1450431	prompt	n/a	danger wanted root fewer\n
726.151	0.105	1452302	keystroke_d	d	n/a
726.421	0.09	1452842	keystroke_a	a	n/a
726.661	0.075	1453322	keystroke_n	n	n/a
726.842	0.045	1453684	keystroke_g	g	n/a
727.0515	0.12	1454103	keystroke_e	e	n/a
727.5015	0.105	1455003	keystroke_r	r	n/a
727.7415	0.15	1455483	keystroke_Key.space	Key.space	n/a
727.907	0.0445	1455814	keystroke_w	w	n/a
728.1165	0.075	1456233	keystroke_a	a	n/a
728.2815	0.075	1456563	keystroke_n	n	n/a
728.4315	0.03	1456863	keystroke_t	t	n/a
728.6115	0.075	1457223	keystroke_e	e	n/a
728.8065	0.09	1457613	keystroke_d	d	n/a
729.017	0.1045	1458034	keystroke_Key.space	Key.space	n/a
729.167	0.059	1458334	keystroke_r	r	n/a
729.376	0.0455	1458752	keystroke_o	o	n/a
729.5115	0.075	1459023	keystroke_o	o	n/a
729.6615	0.0595	1459323	keystroke_t	t	n/a
729.991	0.06	1459982	keystroke_Key.space	Key.space	n/a
730.246	0.091	1460492	keystroke_f	f	n/a
731.266	0.0605	1462532	keystroke_e	e	n/a
731.551	0.0605	1463102	keystroke_w	w	n/a
731.7615	0.075	1463523	keystroke_e	e	n/a
732.0165	0.045	1464033	keystroke_r	r	n/a
737.0445	0.057	1474089	keystroke_Key.enter	Key.enter	n/a
737.1075	15.731	1474215	prompt	n/a	conflicts isolation venice shore\n
737.9265	0.09	1475853	keystroke_c	c	n/a
738.1665	0.09	1476333	keystroke_o	o	n/a
738.437	0.0745	1476874	keystroke_n	n	n/a
738.6915	0.075	1477383	keystroke_f	f	n/a
738.872	0.105	1477744	keystroke_l	l	n/a
739.0665	0.1055	1478133	keystroke_i	i	n/a
739.7265	0.1055	1479453	keystroke_c	c	n/a
740.011	0.076	1480022	keystroke_t	t	n/a
740.326	0.09	1480652	keystroke_s	s	n/a
740.897	0.104	1481794	keystroke_Key.space	Key.space	n/a
741.1815	0.0755	1482363	keystroke_i	i	n/a
741.317	0.09	1482634	keystroke_s	s	n/a
741.437	0.12	1482874	keystroke_o	o	n/a
741.6915	0.0755	1483383	keystroke_l	l	n/a
741.8115	0.075	1483623	keystroke_a	a	n/a
742.0365	0.09	1484073	keystroke_t	t	n/a
742.1715	0.15	1484343	keystroke_i	i	n/a
742.3065	0.075	1484613	keystroke_o	o	n/a
742.577	0.06	1485154	keystroke_n	n	n/a
742.861	0.09	1485722	keystroke_Key.space	Key.space	n/a
743.087	0.059	1486174	keystroke_v	v	n/a
743.491	0.075	1486982	keystroke_e	e	n/a
743.7615	0.09	1487523	keystroke_n	n	n/a
743.9715	0.06	1487943	keystroke_i	i	n/a
744.0765	0.09	1488153	keystroke_c	c	n/a
744.4065	0.045	1488813	keystroke_e	e	n/a
744.721	0.0905	1489442	keystroke_Key.space	Key.space	n/a
744.9915	0.0895	1489983	keystroke_s	s	n/a
745.111	0.0755	1490222	keystroke_h	h	n/a
745.3215	0.0895	1490643	keystroke_o	o	n/a
745.4565	0.075	1490913	keystroke_r	r	n/a
745.712	0.075	1491424	keystroke_e	e	n/a
752.734	0.103	1505468	keystroke_Key.enter	Key.enter	n/a
752.8435	13.9305	1505687	prompt	n/a	engaged london condo montreal\n
753.8875	0.089	1507775	keystroke_e	e	n/a
754.0665	0.09	1508133	keystroke_n	n	n/a
754.247	0.0745	1508494	keystroke_g	g	n/a
754.6065	0.106	1509213	keystroke_a	a	n/a
754.9815	0.09	1509963	keystroke_g	g	n/a
755.8365	0.075	1511673	keystroke_e	e	n/a
756.0765	0.0755	1512153	keystroke_d	d	n/a
756.4665	0.1055	1512933	keystroke_Key.space	Key.space	n/a
756.8565	0.105	1513713	keystroke_l	l	n/a
757.1115	0.075	1514223	keystroke_o	o	n/a
757.3825	0.074	1514765	keystroke_n	n	n/a
757.562	0.075	1515124	keystroke_d	d	n/a
757.727	0.09	1515454	keystroke_o	o	n/a
757.967	0.075	1515934	keystroke_m	m	n/a
758.312	0.09	1516624	keystroke_Key.space	Key.space	n/a
758.537	0.105	1517074	keystroke_c	c	n/a
758.882	0.09	1517764	keystroke_o	o	n/a
759.527	0.06	1519054	keystroke_Key.backspace	Key.backspace	n/a
759.692	0.075	1519384	keystroke_Key.backspace	Key.backspace	n/a
759.857	0.09	1519714	keystroke_Key.backspace	Key.backspace	n/a
760.352	0.075	1520704	keystroke_Key.backspace	Key.backspace	n/a
760.637	0.105	1521274	keystroke_n	n	n/a
761.042	0.1195	1522084	keystroke_Key.space	Key.space	n/a
761.1915	0.075	1522383	keystroke_c	c	n/a
761.3415	0.075	1522683	keystroke_o	o	n/a
761.5965	0.09	1523193	keystroke_n	n	n/a
761.8665	0.1055	1523733	keystroke_d	d	n/a
762.0315	0.105	1524063	keystroke_o	o	n/a
762.4365	0.09	1524873	keystroke_Key.space	Key.space	n/a
762.8115	0.135	1525623	keystroke_m	m	n/a
763.0815	0.09	1526163	keystroke_o	o	n/a
763.3065	0.09	1526613	keystroke_n	n	n/a
763.7875	0.09	1527575	keystroke_t	t	n/a
764.252	0.1045	1528504	keystroke_r	r	n/a
764.3715	0.075	1528743	keystroke_e	e	n/a
764.717	0.0895	1529434	keystroke_a	a	n/a
764.9415	0.1355	1529883	keystroke_l	l	n/a
766.622	0.1495	1533244	keystroke_Key.enter	Key.enter	n/a
766.777	10.1665	1533554	prompt	n/a	quit participant patent falls\n
767.927	0.0895	1535854	keystroke_q	q	n/a
768.1515	0.15	1536303	keystroke_u	u	n/a
768.2865	0.12	1536573	keystroke_i	i	n/a
768.4665	0.0755	1536933	keystroke_t	t	n/a
768.7365	0.09	1537473	keystroke_Key.space	Key.space	n/a
769.0515	0.06	1538103	keystroke_p	p	n/a
769.2015	0.06	1538403	keystroke_a	a	n/a
769.621	0.106	1539242	keystroke_r	r	n/a
770.041	0.1065	1540082	keystroke_t	t	n/a
770.4175	0.1195	1540835	keystroke_i	i	n/a
770.6575	0.0745	1541315	keystroke_c	c	n/a
770.807	0.075	1541614	keystroke_i	i	n/a
771.0465	0.12	1542093	keystroke_p	p	n/a
771.392	0.0895	1542784	keystroke_a	a	n/a
771.5715	0.06	1543143	keystroke_n	n	n/a
771.7365	0.06	1543473	keystroke_t	t	n/a
771.9915	0.1055	1543983	keystroke_Key.space	Key.space	n/a
772.277	0.0745	1544554	keystroke_p	p	n/a
772.487	0.0595	1544974	keystroke_a	a	n/a
772.7565	0.03	1545513	keystroke_t	t	n/a
772.9065	0.075	1545813	keystroke_e	e	n/a
773.042	0.0895	1546084	keystroke_n	n	n/a
773.177	0.0595	1546354	keystroke_t	t	n/a
773.372	0.0745	1546744	keystroke_Key.space	Key.space	n/a
773.477	0.0745	1546954	keystroke_f	f	n/a
773.7475	0.0885	1547495	keystroke_a	a	n/a
773.867	0.0595	1547734	keystroke_l	l	n/a
774.031	0.0905	1548062	keystroke_l	l	n/a
774.256	0.105	1548512	keystroke_s	s	n/a
776.854	0.087	1553708	keystroke_Key.enter	Key.enter	n/a
776.9465	14.832	1553893	prompt	n/a	parts diabetes forests input\n
777.902	0.074	1555804	keystroke_p	p	n/a
778.036	0.075	1556072	keystroke_a	a	n/a
778.2615	0.0755	1556523	keystroke_r	r	n/a
778.472	0.075	1556944	keystroke_t	t	n/a
778.787	0.075	1557574	keystroke_s	s	n/a
778.982	0.12	1557964	keystroke_Key.space	Key.space	n/a
779.192	0.075	1558384	keystroke_d	d	n/a
779.447	0.09	1558894	keystroke_i	i	n/a
779.9565	0.045	1559913	keystroke_a	a	n/a
780.392	0.0745	1560784	keystroke_b	b	n/a
780.692	0.045	1561384	keystroke_e	e	n/a
780.992	0.045	1561984	keystroke_t	t	n/a
781.202	0.105	1562404	keystroke_e	e	n/a
781.532	0.105	1563064	keystroke_s	s	n/a
781.847	0.074	1563694	keystroke_Key.space	Key.space	n/a
782.0715	0.09	1564143	keystroke_f	f	n/a
782.2215	0.12	1564443	keystroke_o	o	n/a
782.4015	0.075	1564803	keystroke_r	r	n/a
782.6415	0.06	1565283	keystroke_e	e	n/a
782.867	0.0445	1565734	keystroke_s	s	n/a
783.1815	0.0605	1566363	keystroke_t	t	n/a
783.5565	0.06	1567113	keystroke_s	s	n/a
783.8265	0.105	1567653	keystroke_Key.space	Key.space	n/a
784.0065	0.0305	1568013	keystroke_i	i	n/a
784.2315	0.045	1568463	keystroke_n	n	n/a
784.5015	0.09	1569003	keystroke_p	p	n/a
784.7265	0.09	1569453	keystroke_u	u	n/a
785.0865	0.1055	1570173	keystroke_t	t	n/a
791.674	0.103	1583348	keystroke_Key.enter	Key.enter	n/a
791.7815	21.3425	1583563	prompt	n/a	standard causing publications equity\n
792.587	0.09	1585174	keystroke_s	s	n/a
792.902	0.06	1585804	keystroke_t	t	n/a
793.202	0.075	1586404	keystroke_a	a	n/a
793.397	0.075	1586794	keystroke_n	n	n/a
793.517	0.075	1587034	keystroke_d	d	n/a
793.772	0.06	1587544	keystroke_a	a	n/a
794.042	0.06	1588084	keystroke_r	r	n/a
794.2815	0.12	1588563	keystroke_d	d	n/a
794.7015	0.105	1589403	keystroke_Key.space	Key.space	n/a
794.9265	0.061	1589853	keystroke_c	c	n/a
795.197	0.09	1590394	keystroke_a	a	n/a
795.4365	0.0605	1590873	keystroke_u	u	n/a
795.5575	0.074	1591115	keystroke_s	s	n/a
795.6915	0.09	1591383	keystroke_i	i	n/a
795.9315	0.075	1591863	keystroke_n	n	n/a
796.1265	0.06	1592253	keystroke_g	g	n/a
796.397	0.0745	1592794	keystroke_Key.space	Key.space	n/a
796.7565	0.0605	1593513	keystroke_p	p	n/a
797.1165	0.06	1594233	keystroke_u	u	n/a
797.612	0.075	1595224	keystroke_b	b	n/a
797.8065	0.03	1595613	keystroke_l	l	n/a
798.2265	0.075	1596453	keystroke_i	i	n/a
798.3615	0.075	1596723	keystroke_c	c	n/a
798.7065	0.045	1597413	keystroke_a	a	n/a
799.0215	0.09	1598043	keystroke_t	t	n/a
799.292	0.1355	1598584	keystroke_i	i	n/a
799.4275	0.1345	1598855	keystroke_o	o	n/a
799.8325	0.075	1599665	keystroke_n	n	n/a
799.967	0.075	1599934	keystroke_s	s	n/a
800.222	0.105	1600444	keystroke_Key.space	Key.space	n/a
800.3575	0.0895	1600715	keystroke_e	e	n/a
801.077	0.12	1602154	keystroke_q	q	n/a
801.812	0.135	1603624	keystroke_u	u	n/a
802.187	0.06	1604374	keystroke_i	i	n/a
802.411	0.075	1604822	keystroke_t	t	n/a
802.8775	0.089	1605755	keystroke_y	y	n/a
813.049	0.073	1626098	keystroke_Key.enter	Key.enter	n/a
813.1265	18.1925	1626253	prompt	n/a	elvis televisions amendments nepal\n
814.082	0.1055	1628164	keystroke_e	e	n/a
814.593	0.1495	1629186	keystroke_l	l	n/a
814.802	0.075	1629604	keystroke_v	v	n/a
815.012	0.09	1630024	keystroke_i	i	n/a
815.177	0.075	1630354	keystroke_s	s	n/a
815.417	0.0755	1630834	keystroke_Key.space	Key.space	n/a
815.792	0.075	1631584	keystroke_t	t	n/a
816.047	0.09	1632094	keystroke_e	e	n/a
816.317	0.12	1632634	keystroke_l	l	n/a
816.587	0.06	1633174	keystroke_e	e	n/a
817.0825	0.0745	1634165	keystroke_v	v	n/a
817.292	0.0755	1634584	keystroke_i	i	n/a
817.4425	0.0745	1634885	keystroke_s	s	n/a
817.577	0.1055	1635154	keystroke_i	i	n/a
817.697	0.0905	1635394	keystroke_o	o	n/a
818.0575	0.0895	1636115	keystroke_n	n	n/a
818.897	0.12	1637794	keystroke_s	s	n/a
819.137	0.075	1638274	keystroke_Key.space	Key.space	n/a
819.362	0.06	1638724	keystroke_a	a	n/a
819.617	0.09	1639234	keystroke_m	m	n/a
820.2615	0.121	1640523	keystroke_e	e	n/a
820.4715	0.076	1640943	keystroke_n	n	n/a
820.6525	0.059	1641305	keystroke_d	d	n/a
821.178	0.059	1642356	keystroke_e	e	n/a
821.8375	0.075	1643675	keystroke_Key.backspace	Key.backspace	n/a
822.1375	0.075	1644275	keystroke_m	m	n/a
822.2425	0.06	1644485	keystroke_e	e	n/a
822.377	0.09	1644754	keystroke_n	n	n/a
823.037	0.091	1646074	keystroke_t	t	n/a
823.472	0.0905	1646944	keystroke_s	s	n/a
823.8325	0.12	1647665	keystroke_Key.space	Key.space	n/a
824.0875	0.09	1648175	keystroke_n	n	n/a
824.9875	0.075	1649975	keystroke_e	e	n/a
825.1975	0.105	1650395	keystroke_p	p	n/a
825.4075	0.06	1650815	keystroke_a	a	n/a
825.5125	0.09	1651025	keystroke_l	l	n/a
831.2005	0.117	1662401	keystroke_Key.enter	Key.enter	n/a
831.323	14.351	1662646	prompt	n/a	donald hammer warranties rouge\n
832.262	0.0905	1664524	keystroke_d	d	n/a
832.5175	0.09	1665035	keystroke_o	o	n/a
832.7725	0.09	1665545	keystroke_n	n	n/a
832.9825	0.075	1665965	keystroke_a	a	n/a
833.1925	0.105	1666385	keystroke_l	l	n/a
833.3875	0.06	1666775	keystroke_d	d	n/a
833.7925	0.12	1667585	keystroke_Key.space	Key.space	n/a
834.0775	0.06	1668155	keystroke_h	h	n/a
834.3175	0.09	1668635	keystroke_a	a	n/a
834.5425	0.075	1669085	keystroke_m	m	n/a
834.7225	0.075	1669445	keystroke_m	m	n/a
834.9175	0.165	1669835	keystroke_e	e	n/a
835.0525	0.105	1670105	keystroke_r	r	n/a
835.6825	0.09	1671365	keystroke_Key.backspace	Key.backspace	n/a
836.327	0.03	1672654	keystroke_r	r	n/a
838.277	0.09	1676554	keystroke_Key.space	Key.space	n/a
838.427	0.075	1676854	keystroke_w	w	n/a
839.373	0.0745	1678746	keystroke_a	a	n/a
839.7025	0.06	1679405	keystroke_r	r	n/a
839.8675	0.075	1679735	keystroke_r	r	n/a
840.392	0.091	1680784	keystroke_a	a	n/a
840.557	0.09	1681114	keystroke_n	n	n/a
841.337	0.015	1682674	keystroke_t	t	n/a
841.3675	0.0745	1682735	keystroke_i	i	n/a
841.502	0.09	1683004	keystroke_e	e	n/a
841.757	0.075	1683514	keystroke_s	s	n/a
841.9825	0.09	1683965	keystroke_Key.space	Key.space	n/a
842.4775	0.09	1684955	keystroke_r	r	n/a
842.6875	0.135	1685375	keystroke_o	o	n/a
843.0325	0.09	1686065	keystroke_u	u	n/a
843.2425	0.06	1686485	keystroke_g	g	n/a
843.527	0.075	1687054	keystroke_e	e	n/a
845.507	0.165	1691014	keystroke_Key.enter	Key.enter	n/a
845.677	11.577	1691354	prompt	n/a	plaintiff lines chubby pastor\n
846.7375	0.165	1693475	keystroke_p	p	n/a
846.9175	0.09	1693835	keystroke_l	l	n/a
847.0825	0.075	1694165	keystroke_a	a	n/a
847.2925	0.09	1694585	keystroke_i	i	n/a
847.4725	0.105	1694945	keystroke_n	n	n/a
848.777	0.0755	1697554	keystroke_t	t	n/a
848.9415	0.0905	1697883	keystroke_i	i	n/a
849.1225	0.089	1698245	keystroke_f	f	n/a
849.332	0.0905	1698664	keystroke_f	f	n/a
849.707	0.1195	1699414	keystroke_Key.space	Key.space	n/a
850.2025	0.09	1700405	keystroke_l	l	n/a
850.4125	0.075	1700825	keystroke_i	i	n/a
850.6675	0.09	1701335	keystroke_n	n	n/a
850.8625	0.06	1701725	keystroke_e	e	n/a
851.4625	0.12	1702925	keystroke_s	s	n/a
851.7925	0.105	1703585	keystroke_Key.space	Key.space	n/a
852.3625	0.105	1704725	keystroke_c	c	n/a
852.6625	0.1645	1705325	keystroke_h	h	n/a
852.7825	0.1045	1705565	keystroke_u	u	n/a
853.007	0.075	1706014	keystroke_b	b	n/a
853.157	0.091	1706314	keystroke_b	b	n/a
853.3375	0.0895	1706675	keystroke_y	y	n/a
853.787	0.1055	1707574	keystroke_Key.space	Key.space	n/a
854.207	0.12	1708414	keystroke_p	p	n/a
854.387	0.09	1708774	keystroke_a	a	n/a
854.448	0.1195	1708896	keystroke_s	s	n/a
854.7925	0.075	1709585	keystroke_t	t	n/a
854.9725	0.09	1709945	keystroke_o	o	n/a
855.123	0.0595	1710246	keystroke_r	r	n/a
857.1325	0.12	1714265	keystroke_Key.enter	Key.enter	n/a
857.257	12.1625	1714514	prompt	n/a	despite copyrights jackie exam\n
858.077	0.075	1716154	keystroke_d	d	n/a
858.2875	0.0745	1716575	keystroke_e	e	n/a
858.467	0.105	1716934	keystroke_s	s	n/a
858.573	0.089	1717146	keystroke_p	p	n/a
858.767	0.0755	1717534	keystroke_i	i	n/a
858.872	0.0905	1717744	keystroke_t	t	n/a
859.097	0.0905	1718194	keystroke_e	e	n/a
859.262	0.1205	1718524	keystroke_Key.space	Key.space	n/a
859.502	0.09	1719004	keystroke_c	c	n/a
859.637	0.1205	1719274	keystroke_o	o	n/a
859.7425	0.1195	1719485	keystroke_p	p	n/a
859.9675	0.1045	1719935	keystroke_y	y	n/a
860.552	0.076	1721104	keystroke_r	r	n/a
860.717	0.06	1721434	keystroke_i	i	n/a
860.867	0.15	1721734	keystroke_g	g	n/a
860.987	0.09	1721974	keystroke_h	h	n/a
861.182	0.09	1722364	keystroke_t	t	n/a
861.587	0.075	1723174	keystroke_s	s	n/a
861.9175	0.09	1723835	keystroke_Key.space	Key.space	n/a
862.2175	0.1045	1724435	keystroke_j	j	n/a
862.367	0.09	1724734	keystroke_a	a	n/a
862.667	0.105	1725334	keystroke_c	c	n/a
862.8325	0.0905	1725665	keystroke_k	k	n/a
863.117	0.06	1726234	keystroke_i	i	n/a
863.2075	0.075	1726415	keystroke_e	e	n/a
863.4765	0.0905	1726953	keystroke_Key.space	Key.space	n/a
863.582	0.06	1727164	keystroke_e	e	n/a
863.822	0.0755	1727644	keystroke_x	x	n/a
864.1075	0.06	1728215	keystroke_a	a	n/a
864.2865	0.061	1728573	keystroke_m	m	n/a
869.2835	0.133	1738567	keystroke_Key.enter	Key.enter	n/a
869.422	12.2075	1738844	prompt	n/a	duration wishlist distribute illness\n
870.197	0.0905	1740394	keystroke_d	d	n/a
870.3925	0.075	1740785	keystroke_u	u	n/a
870.4825	0.075	1740965	keystroke_r	r	n/a
870.767	0.075	1741534	keystroke_a	a	n/a
871.022	0.06	1742044	keystroke_t	t	n/a
871.2325	0.1655	1742465	keystroke_i	i	n/a
871.382	0.075	1742764	keystroke_o	o	n/a
871.6375	0.0895	1743275	keystroke_n	n	n/a
871.832	0.106	1743664	keystroke_Key.space	Key.space	n/a
872.013	0.075	1744026	keystroke_w	w	n/a
872.148	0.075	1744296	keystroke_i	i	n/a
872.328	0.06	1744656	keystroke_s	s	n/a
872.403	0.075	1744806	keystroke_h	h	n/a
872.688	0.0895	1745376	keystroke_l	l	n/a
872.898	0.0745	1745796	keystroke_i	i	n/a
872.9875	0.089	1745975	keystroke_s	s	n/a
873.2725	0.045	1746545	keystroke_t	t	n/a
873.5865	0.0905	1747173	keystroke_Key.space	Key.space	n/a
873.8425	0.075	1747685	keystroke_d	d	n/a
874.0975	0.045	1748195	keystroke_s	s	n/a
874.502	0.09	1749004	keystroke_Key.backspace	Key.backspace	n/a
874.713	0.075	1749426	keystroke_i	i	n/a
874.832	0.045	1749664	keystroke_s	s	n/a
875.1475	0.0745	1750295	keystroke_t	t	n/a
875.327	0.09	1750654	keystroke_r	r	n/a
875.507	0.09	1751014	keystroke_i	i	n/a
875.777	0.0605	1751554	keystroke_b	b	n/a
875.942	0.075	1751884	keystroke_u	u	n/a
876.092	0.075	1752184	keystroke_t	t	n/a
876.407	0.0755	1752814	keystroke_e	e	n/a
876.6325	0.0895	1753265	keystroke_Key.space	Key.space	n/a
876.962	0.06	1753924	keystroke_i	i	n/a
877.187	0.076	1754374	keystroke_l	l	n/a
877.368	0.0745	1754736	keystroke_l	l	n/a
877.6525	0.075	1755305	keystroke_n	n	n/a
877.7875	0.075	1755575	keystroke_e	e	n/a
878.0275	0.075	1756055	keystroke_s	s	n/a
878.2675	0.045	1756535	keystroke_s	s	n/a
881.5995	0.028	1763199	keystroke_Key.enter	Key.enter	n/a
881.6325	12.477	1763265	prompt	n/a	helena poll rangers portland\n
882.5425	0.09	1765085	keystroke_h	h	n/a
882.6775	0.09	1765355	keystroke_e	e	n/a
882.8725	0.075	1765745	keystroke_l	l	n/a
882.9625	0.09	1765925	keystroke_e	e	n/a
883.1575	0.075	1766315	keystroke_n	n	n/a
883.3225	0.045	1766645	keystroke_a	a	n/a
883.5775	0.12	1767155	keystroke_Key.space	Key.space	n/a
883.7875	0.075	1767575	keystroke_p	p	n/a
884.072	0.075	1768144	keystroke_o	o	n/a
884.342	0.076	1768684	keystroke_l	l	n/a
884.522	0.0605	1769044	keystroke_l	l	n/a
884.852	0.06	1769704	keystroke_Key.space	Key.space	n/a
885.122	0.076	1770244	keystroke_r	r	n/a
885.3775	0.075	1770755	keystroke_a	a	n/a
885.5275	0.09	1771055	keystroke_n	n	n/a
885.6775	0.075	1771355	keystroke_g	g	n/a
885.8875	0.165	1771775	keystroke_e	e	n/a
886.0225	0.075	1772045	keystroke_r	r	n/a
886.2925	0.075	1772585	keystroke_s	s	n/a
