onset	duration	sample	value	key	prompt_text
43.727	0.0745	87454	keystroke_a	a	n/a
43.787	0.1045	87574	keystroke_l	l	n/a
43.9065	0.105	87813	keystroke_a	a	n/a
43.967	0.0895	87934	keystroke_n	n	n/a
44.0415	0.12	88083	keystroke_d	d	n/a
44.1465	0.075	88293	keystroke_u	u	n/a
44.2815	0.105	88563	keystroke_Key.tab	Key.tab	n/a
47.957	0.1195	95914	keystroke_o	o	n/a
48.017	0.1345	96034	keystroke_n	n	n/a
48.3915	0.165	96783	keystroke_Key.shift	Key.shift	n/a
48.437	0.0895	96874	keystroke__	_	n/a
48.6315	0.09	97263	keystroke_k	k	n/a
48.7065	0.105	97413	keystroke_e	e	n/a
48.8265	0.075	97653	keystroke_y	y	n/a
48.9015	0.12	97803	keystroke_b	b	n/a
49.0065	0.105	98013	keystroke_o	o	n/a
49.1265	0.105	98253	keystroke_a	a	n/a
49.202	0.1195	98404	keystroke_r	r	n/a
49.262	0.1345	98524	keystroke_d	d	n/a
49.3515	0.105	98703	keystroke_Key.space	Key.space	n/a
49.382	0.0895	98764	keystroke_p	p	n/a
49.4865	0.09	98973	keystroke_r	r	n/a
49.547	0.1195	99094	keystroke_o	o	n/a
49.652	0.0895	99304	keystroke_t	t	n/a
49.7865	0.105	99573	keystroke_o	o	n/a
49.817	0.1195	99634	keystroke_c	c	n/a
49.9815	0.06	99963	keystroke_o	o	n/a
50.132	0.1195	100264	keystroke_l	l	n/a
50.237	0.0895	100474	keystroke_Key.space	Key.space	n/a
50.3865	0.12	100773	keystroke_6	6	n/a
50.4915	0.0755	100983	keystroke_.	.	n/a
50.582	0.1045	101164	keystroke_3	3	n/a
68.415	5.405	136830	prompt	n/a	the quick brown fox jumps over a lazy dog\n
70.007	0.1045	140014	keystroke_t	t	n/a
70.067	0.1045	140134	keystroke_h	h	n/a
70.157	0.1345	140314	keystroke_e	e	n/a
70.232	0.1045	140464	keystroke_Key.space	Key.space	n/a
70.307	0.1195	140614	keystroke_q	q	n/a
70.397	0.1345	140794	keystroke_u	u	n/a
70.472	0.1045	140944	keystroke_i	i	n/a
70.5475	0.164	141095	keystroke_c	c	n/a
70.652	0.1195	141304	keystroke_k	k	n/a
70.742	0.1055	141484	keystroke_Key.space	Key.space	n/a
70.832	0.0745	141664	keystroke_b	b	n/a
71.0115	0.18	142023	keystroke_r	r	n/a
71.1015	0.105	142203	keystroke_o	o	n/a
71.1765	0.15	142353	keystroke_w	w	n/a
71.297	0.0745	142594	keystroke_n	n	n/a
71.357	0.1045	142714	keystroke_Key.space	Key.space	n/a
71.417	0.1195	142834	keystroke_f	f	n/a
71.492	0.0895	142984	keystroke_o	o	n/a
71.567	0.1045	143134	keystroke_x	x	n/a
71.612	0.1045	143224	keystroke_Key.space	Key.space	n/a
71.657	0.1045	143314	keystroke_j	j	n/a
71.8065	0.075	143613	keystroke_u	u	n/a
72.0015	0.09	144003	keystroke_m	m	n/a
72.062	0.1195	144124	keystroke_p	p	n/a
72.167	0.1045	144334	keystroke_s	s	n/a
72.197	0.1645	144394	keystroke_Key.space	Key.space	n/a
72.3765	0.03	144753	keystroke_o	o	n/a
72.392	0.0445	144784	keystroke_v	v	n/a
72.497	0.1195	144994	keystroke_e	e	n/a
72.572	0.0895	145144	keystroke_r	r	n/a
72.632	0.0895	145264	keystroke_Key.space	Key.space	n/a
72.6925	0.134	145385	keystroke_a	a	n/a
72.812	0.0895	145624	keystroke_Key.space	Key.space	n/a
72.947	0.0895	145894	keystroke_l	l	n/a
73.067	0.0895	146134	keystroke_a	a	n/a
73.2465	0.135	146493	keystroke_z	z	n/a
73.322	0.0745	146644	keystroke_y	y	n/a
73.412	0.0745	146824	keystroke_Key.space	Key.space	n/a
73.472	0.1195	146944	keystroke_d	d	n/a
73.547	0.1195	147094	keystroke_o	o	n/a
73.652	0.0745	147304	keystroke_g	g	n/a
73.742	0.0745	147484	keystroke_Key.enter	Key.enter	n/a
73.828	8.915	147656	prompt	n/a	african infinite vista copyrighted\n
74.432	0.1045	148864	keystroke_a	a	n/a
74.537	0.0745	149074	keystroke_f	f	n/a
74.687	0.1045	149374	keystroke_r	r	n/a
74.777	0.0895	149554	keystroke_i	i	n/a
74.8975	0.074	149795	keystroke_c	c	n/a
74.9265	0.165	149853	keystroke_a	a	n/a
75.032	0.0745	150064	keystroke_n	n	n/a
75.137	0.0745	150274	keystroke_Key.space	Key.space	n/a
75.2265	0.12	150453	keystroke_i	i	n/a
75.362	0.1045	150724	keystroke_f	f	n/a
75.5265	0.105	151053	keystroke_i	i	n/a
75.602	0.1345	151204	keystroke_n	n	n/a
75.707	0.1045	151414	keystroke_i	i	n/a
75.798	0.1035	151596	keystroke_t	t	n/a
75.872	0.1345	151744	keystroke_e	e	n/a
76.187	0.0745	152374	keystroke_Key.space	Key.space	n/a
76.427	0.0895	152854	keystroke_v	v	n/a
76.502	0.09	153004	keystroke_i	i	n/a
76.607	0.105	153214	keystroke_s	s	n/a
76.697	0.1195	153394	keystroke_t	t	n/a
76.787	0.1345	153574	keystroke_a	a	n/a
76.8925	0.074	153785	keystroke_Key.space	Key.space	n/a
77.027	0.1045	154054	keystroke_c	c	n/a
77.102	0.1195	154204	keystroke_o	o	n/a
77.177	0.12	154354	keystroke_p	p	n/a
77.252	0.0895	154504	keystroke_y	y	n/a
77.552	0.0595	155104	keystroke_Key.backspace	Key.backspace	n/a
77.702	0.0745	155404	keystroke_Key.backspace	Key.backspace	n/a
77.852	0.0595	155704	keystroke_Key.backspace	Key.backspace	n/a
78.002	0.0595	156004	keystroke_Key.backspace	Key.backspace	n/a
78.152	0.0595	156304	keystroke_Key.backspace	Key.backspace	n/a
78.287	0.0745	156574	keystroke_Key.backspace	Key.backspace	n/a
78.437	0.0745	156874	keystroke_Key.backspace	Key.backspace	n/a
78.572	0.0745	157144	keystroke_Key.backspace	Key.backspace	n/a
78.737	0.06	157474	keystroke_Key.backspace	Key.backspace	n/a
78.887	0.0595	157774	keystroke_Key.backspace	Key.backspace	n/a
79.037	0.0595	158074	keystroke_Key.backspace	Key.backspace	n/a
79.187	0.0595	158374	keystroke_Key.backspace	Key.backspace	n/a
79.322	0.0745	158644	keystroke_Key.backspace	Key.backspace	n/a
79.472	0.0745	158944	keystroke_Key.backspace	Key.backspace	n/a
79.652	0.0445	159304	keystroke_Key.backspace	Key.backspace	n/a
79.877	0.0595	159754	keystroke_Key.backspace	Key.backspace	n/a
80.072	0.0595	160144	keystroke_Key.backspace	Key.backspace	n/a
80.3125	0.074	160625	keystroke_n	n	n/a
80.4615	0.12	160923	keystroke_f	f	n/a
80.537	0.1045	161074	keystroke_i	i	n/a
80.6115	0.12	161223	keystroke_n	n	n/a
80.7165	0.105	161433	keystroke_i	i	n/a
80.777	0.1045	161554	keystroke_t	t	n/a
80.837	0.1195	161674	keystroke_e	e	n/a
80.9125	0.104	161825	keystroke_Key.space	Key.space	n/a
81.062	0.1045	162124	keystroke_v	v	n/a
81.152	0.0895	162304	keystroke_i	i	n/a
81.227	0.1195	162454	keystroke_s	s	n/a
81.317	0.1345	162634	keystroke_t	t	n/a
81.407	0.1195	162814	keystroke_a	a	n/a
81.482	0.0895	162964	keystroke_Key.space	Key.space	n/a
81.632	0.0895	163264	keystroke_c	c	n/a
81.6765	0.135	163353	keystroke_o	o	n/a
81.767	0.1045	163534	keystroke_p	p	n/a
81.827	0.0895	163654	keystroke_y	y	n/a
81.932	0.1045	163864	keystroke_r	r	n/a
82.0215	0.105	164043	keystroke_i	i	n/a
82.142	0.0745	164284	keystroke_g	g	n/a
82.262	0.0595	164524	keystroke_h	h	n/a
82.292	0.1045	164584	keystroke_t	t	n/a
82.367	0.0745	164734	keystroke_e	e	n/a
82.502	0.1045	165004	keystroke_d	d	n/a
82.637	0.1045	165274	keystroke_Key.enter	Key.enter	n/a
82.7505	3.758	165501	prompt	n/a	reform slope avoid beautiful\n
83.282	0.075	166564	keystroke_f	f	n/a
83.5225	0.089	167045	keystroke_Key.backspace	Key.backspace	n/a
83.627	0.1045	167254	keystroke_r	r	n/a
83.702	0.1045	167404	keystroke_e	e	n/a
83.822	0.0895	167644	keystroke_f	f	n/a
83.957	0.0595	167914	keystroke_o	o	n/a
84.002	0.1195	168004	keystroke_r	r	n/a
84.122	0.1195	168244	keystroke_m	m	n/a
84.257	0.0745	168514	keystroke_Key.space	Key.space	n/a
84.3765	0.045	168753	keystroke_s	s	n/a
84.602	0.0595	169204	keystroke_l	l	n/a
84.782	0.0895	169564	keystroke_o	o	n/a
84.857	0.1195	169714	keystroke_p	p	n/a
84.932	0.1045	169864	keystroke_e	e	n/a
85.007	0.0895	170014	keystroke_Key.space	Key.space	n/a
85.112	0.1045	170224	keystroke_a	a	n/a
85.127	0.1345	170254	keystroke_v	v	n/a
85.202	0.0895	170404	keystroke_o	o	n/a
85.277	0.0895	170554	keystroke_i	i	n/a
85.322	0.1195	170644	keystroke_d	d	n/a
85.397	0.0745	170794	keystroke_Key.space	Key.space	n/a
85.487	0.0895	170974	keystroke_b	b	n/a
85.622	0.1345	171244	keystroke_e	e	n/a
85.7265	0.135	171453	keystroke_a	a	n/a
85.802	0.1045	171604	keystroke_u	u	n/a
85.892	0.0895	171784	keystroke_t	t	n/a
86.0125	0.089	172025	keystroke_i	i	n/a
86.057	0.1195	172114	keystroke_f	f	n/a
86.147	0.1045	172294	keystroke_u	u	n/a
86.252	0.0895	172504	keystroke_l	l	n/a
86.4315	0.075	172863	keystroke_Key.enter	Key.enter	n/a
86.516	4.3275	173032	prompt	n/a	waiting equality acquisitions harassment\n
87.1065	0.105	174213	keystroke_w	w	n/a
87.214	0.1325	174428	keystroke_a	a	n/a
87.332	0.0895	174664	keystroke_i	i	n/a
87.437	0.1045	174874	keystroke_t	t	n/a
87.527	0.0895	175054	keystroke_i	i	n/a
87.5565	0.12	175113	keystroke_n	n	n/a
87.6315	0.105	175263	keystroke_g	g	n/a
87.707	0.0895	175414	keystroke_Key.space	Key.space	n/a
87.8265	0.105	175653	keystroke_e	e	n/a
87.917	0.1435	175834	keystroke_q	q	n/a
88.022	0.09	176044	keystroke_u	u	n/a
88.127	0.1345	176254	keystroke_a	a	n/a
88.217	0.1045	176434	keystroke_l	l	n/a
88.277	0.1045	176554	keystroke_i	i	n/a
88.367	0.1195	176734	keystroke_t	t	n/a
88.4415	0.105	176883	keystroke_y	y	n/a
88.5625	0.089	177125	keystroke_Key.space	Key.space	n/a
88.637	0.0895	177274	keystroke_a	a	n/a
88.757	0.0895	177514	keystroke_c	c	n/a
88.907	0.1195	177814	keystroke_q	q	n/a
88.982	0.1045	177964	keystroke_u	u	n/a
89.0415	0.09	178083	keystroke_i	i	n/a
89.147	0.1195	178294	keystroke_s	s	n/a
89.252	0.0745	178504	keystroke_i	i	n/a
89.342	0.1195	178684	keystroke_t	t	n/a
89.432	0.1345	178864	keystroke_i	i	n/a
89.477	0.1195	178954	keystroke_o	o	n/a
89.522	0.1195	179044	keystroke_n	n	n/a
89.597	0.105	179194	keystroke_s	s	n/a
89.673	0.1035	179346	keystroke_Key.space	Key.space	n/a
89.747	0.1045	179494	keystroke_h	h	n/a
89.837	0.1195	179674	keystroke_a	a	n/a
89.942	0.1345	179884	keystroke_r	r	n/a
90.092	0.0895	180184	keystroke_a	a	n/a
90.182	0.0745	180364	keystroke_s	s	n/a
90.332	0.1195	180664	keystroke_s	s	n/a
90.437	0.0895	180874	keystroke_m	m	n/a
90.512	0.1045	181024	keystroke_e	e	n/a
90.602	0.0895	181204	keystroke_n	n	n/a
90.6765	0.105	181353	keystroke_t	t	n/a
90.7665	0.075	181533	keystroke_Key.enter	Key.enter	n/a
90.8515	4.102	181703	prompt	n/a	sending jenny aurora attacked\n
91.412	0.1195	182824	keystroke_s	s	n/a
91.517	0.0895	183034	keystroke_e	e	n/a
91.592	0.1045	183184	keystroke_n	n	n/a
91.682	0.0895	183364	keystroke_d	d	n/a
91.772	0.1195	183544	keystroke_i	i	n/a
91.8315	0.0905	183663	keystroke_n	n	n/a
91.8775	0.104	183755	keystroke_g	g	n/a
91.952	0.1045	183904	keystroke_Key.space	Key.space	n/a
92.042	0.0895	184084	keystroke_j	j	n/a
92.117	0.105	184234	keystroke_e	e	n/a
92.222	0.0745	184444	keystroke_n	n	n/a
92.672	0.0745	185344	keystroke_n	n	n/a
92.882	0.0445	185764	keystroke_y	y	n/a
92.9725	0.1045	185945	keystroke_Key.space	Key.space	n/a
93.062	0.1345	186124	keystroke_a	a	n/a
93.152	0.0895	186304	keystroke_u	u	n/a
93.302	0.1045	186604	keystroke_r	r	n/a
93.422	0.0895	186844	keystroke_o	o	n/a
93.572	0.135	187144	keystroke_r	r	n/a
93.7075	0.164	187415	keystroke_a	a	n/a
93.917	0.105	187834	keystroke_Key.space	Key.space	n/a
94.067	0.1195	188134	keystroke_a	a	n/a
94.172	0.0445	188344	keystroke_t	t	n/a
94.292	0.0895	188584	keystroke_t	t	n/a
94.352	0.0895	188704	keystroke_a	a	n/a
94.502	0.0895	189004	keystroke_c	c	n/a
94.577	0.0745	189154	keystroke_k	k	n/a
94.697	0.0445	189394	keystroke_e	e	n/a
94.817	0.09	189634	keystroke_d	d	n/a
94.892	0.0595	189784	keystroke_Key.enter	Key.enter	n/a
94.9625	4.611	189925	prompt	n/a	cyber moderate hartford funky\n
95.597	0.0745	191194	keystroke_s	s	n/a
95.882	0.0895	191764	keystroke_Key.backspace	Key.backspace	n/a
96.047	0.0895	192094	keystroke_c	c	n/a
96.1365	0.09	192273	keystroke_y	y	n/a
96.2275	0.089	192455	keystroke_b	b	n/a
96.3775	0.119	192755	keystroke_e	e	n/a
96.437	0.1195	192874	keystroke_r	r	n/a
96.527	0.1045	193054	keystroke_Key.space	Key.space	n/a
96.662	0.1195	193324	keystroke_m	m	n/a
96.767	0.0895	193534	keystroke_o	o	n/a
96.812	0.0595	193624	keystroke_d	d	n/a
96.947	0.0895	193894	keystroke_e	e	n/a
97.007	0.1045	194014	keystroke_r	r	n/a
97.097	0.1345	194194	keystroke_a	a	n/a
97.157	0.1195	194314	keystroke_t	t	n/a
97.217	0.1195	194434	keystroke_e	e	n/a
97.2775	0.119	194555	keystroke_Key.space	Key.space	n/a
97.352	0.0895	194704	keystroke_h	h	n/a
97.427	0.1045	194854	keystroke_a	a	n/a
97.472	0.1045	194944	keystroke_r	r	n/a
97.622	0.105	195244	keystroke_t	t	n/a
97.802	0.1195	195604	keystroke_f	f	n/a
97.967	0.0895	195934	keystroke_o	o	n/a
98.102	0.1345	196204	keystroke_r	r	n/a
98.492	0.1195	196984	keystroke_d	d	n/a
98.612	0.0745	197224	keystroke_Key.space	Key.space	n/a
98.717	0.1195	197434	keystroke_f	f	n/a
98.8065	0.06	197613	keystroke_u	u	n/a
98.972	0.1345	197944	keystroke_n	n	n/a
99.077	0.0895	198154	keystroke_k	k	n/a
99.287	0.0595	198574	keystroke_y	y	n/a
99.497	0.0745	198994	keystroke_Key.enter	Key.enter	n/a
99.5885	4.125	199177	prompt	n/a	openings peripheral scenes whereas\n
100.142	0.1345	200284	keystroke_o	o	n/a
100.232	0.1045	200464	keystroke_p	p	n/a
100.322	0.1345	200644	keystroke_e	e	n/a
100.442	0.1045	200884	keystroke_n	n	n/a
100.562	0.1195	201124	keystroke_i	i	n/a
100.622	0.1195	201244	keystroke_n	n	n/a
100.727	0.1045	201454	keystroke_g	g	n/a
100.802	0.1195	201604	keystroke_s	s	n/a
100.847	0.1345	201694	keystroke_Key.space	Key.space	n/a
100.937	0.105	201874	keystroke_p	p	n/a
101.057	0.1345	202114	keystroke_e	e	n/a
101.147	0.1345	202294	keystroke_r	r	n/a
101.387	0.1045	202774	keystroke_i	i	n/a
101.567	0.1345	203134	keystroke_p	p	n/a
101.687	0.1045	203374	keystroke_h	h	n/a
101.762	0.1045	203524	keystroke_e	e	n/a
101.822	0.1195	203644	keystroke_r	r	n/a
101.927	0.165	203854	keystroke_a	a	n/a
102.032	0.0895	204064	keystroke_l	l	n/a
102.122	0.0895	204244	keystroke_Key.space	Key.space	n/a
102.197	0.0595	204394	keystroke_s	s	n/a
102.362	0.0445	204724	keystroke_c	c	n/a
102.512	0.0895	205024	keystroke_e	e	n/a
102.587	0.0895	205174	keystroke_n	n	n/a
102.6775	0.134	205355	keystroke_e	e	n/a
102.737	0.1345	205474	keystroke_s	s	n/a
102.8425	0.104	205685	keystroke_Key.space	Key.space	n/a
102.977	0.1045	205954	keystroke_w	w	n/a
103.052	0.0895	206104	keystroke_h	h	n/a
103.1575	0.089	206315	keystroke_e	e	n/a
103.232	0.1345	206464	keystroke_r	r	n/a
103.322	0.1345	206644	keystroke_e	e	n/a
103.442	0.1045	206884	keystroke_a	a	n/a
103.517	0.1045	207034	keystroke_s	s	n/a
103.637	0.0745	207274	keystroke_Key.enter	Key.enter	n/a
103.7215	4.823	207443	prompt	n/a	january montreal started panama\n
104.282	0.1045	208564	keystroke_j	j	n/a
104.372	0.1345	208744	keystroke_a	a	n/a
104.462	0.0745	208924	keystroke_n	n	n/a
104.642	0.0895	209284	keystroke_u	u	n/a
104.732	0.1795	209464	keystroke_a	a	n/a
104.897	0.1195	209794	keystroke_r	r	n/a
104.957	0.015	209914	keystroke_y	y	n/a
105.572	0.0895	211144	keystroke_Key.space	Key.space	n/a
105.662	0.0895	211324	keystroke_m	m	n/a
105.797	0.105	211594	keystroke_o	o	n/a
105.8425	0.104	211685	keystroke_n	n	n/a
105.932	0.0895	211864	keystroke_t	t	n/a
106.082	0.1495	212164	keystroke_r	r	n/a
106.157	0.1345	212314	keystroke_e	e	n/a
106.262	0.1495	212524	keystroke_a	a	n/a
106.367	0.0895	212734	keystroke_l	l	n/a
106.487	0.0895	212974	keystroke_Key.space	Key.space	n/a
106.5925	0.104	213185	keystroke_s	s	n/a
106.667	0.0895	213334	keystroke_t	t	n/a
106.8015	0.135	213603	keystroke_a	a	n/a
106.893	0.0885	213786	keystroke_r	r	n/a
107.042	0.1045	214084	keystroke_t	t	n/a
107.102	0.0745	214204	keystroke_e	e	n/a
107.237	0.1345	214474	keystroke_d	d	n/a
107.3115	0.12	214623	keystroke_Key.space	Key.space	n/a
107.402	0.1045	214804	keystroke_p	p	n/a
107.492	0.135	214984	keystroke_a	a	n/a
107.582	0.0895	215164	keystroke_n	n	n/a
107.687	0.1495	215374	keystroke_a	a	n/a
107.762	0.1045	215524	keystroke_m	m	n/a
107.882	0.1045	215764	keystroke_a	a	n/a
108.467	0.075	216934	keystroke_Key.enter	Key.enter	n/a
108.554	4.1145	217108	prompt	n/a	points comment complement invalid\n
109.142	0.1195	218284	keystroke_p	p	n/a
109.217	0.1495	218434	keystroke_o	o	n/a
109.3065	0.105	218613	keystroke_i	i	n/a
109.352	0.1045	218704	keystroke_n	n	n/a
109.382	0.1195	218764	keystroke_t	t	n/a
109.442	0.1045	218884	keystroke_s	s	n/a
109.517	0.0895	219034	keystroke_Key.space	Key.space	n/a
109.637	0.1045	219274	keystroke_c	c	n/a
109.727	0.0745	219454	keystroke_o	o	n/a
109.772	0.0745	219544	keystroke_m	m	n/a
109.907	0.0895	219814	keystroke_m	m	n/a
109.997	0.0895	219994	keystroke_e	e	n/a
110.072	0.0895	220144	keystroke_n	n	n/a
110.1465	0.09	220293	keystroke_t	t	n/a
110.222	0.0595	220444	keystroke_Key.space	Key.space	n/a
110.3265	0.09	220653	keystroke_c	c	n/a
110.387	0.105	220774	keystroke_o	o	n/a
110.432	0.1345	220864	keystroke_m	m	n/a
110.493	0.0885	220986	keystroke_p	p	n/a
110.6425	0.104	221285	keystroke_l	l	n/a
110.732	0.0895	221464	keystroke_e	e	n/a
110.852	0.1045	221704	keystroke_m	m	n/a
110.897	0.1045	221794	keystroke_e	e	n/a
111.032	0.0895	222064	keystroke_n	n	n/a
111.107	0.1195	222214	keystroke_t	t	n/a
111.212	0.0745	222424	keystroke_Key.space	Key.space	n/a
111.3925	0.104	222785	keystroke_i	i	n/a
111.437	0.0895	222874	keystroke_n	n	n/a
111.542	0.0895	223084	keystroke_v	v	n/a
111.6165	0.105	223233	keystroke_a	a	n/a
111.692	0.1495	223384	keystroke_l	l	n/a
111.752	0.1045	223504	keystroke_i	i	n/a
111.797	0.0895	223594	keystroke_d	d	n/a
112.5775	0.089	225155	keystroke_Key.enter	Key.enter	n/a
112.6775	5.676	225355	prompt	n/a	attraction tables staff looks\n
113.2215	0.15	226443	keystroke_a	a	n/a
113.327	0.0745	226654	keystroke_t	t	n/a
113.462	0.0745	226924	keystroke_t	t	n/a
113.612	0.1195	227224	keystroke_r	r	n/a
113.717	0.06	227434	keystroke_a	a	n/a
113.837	0.0895	227674	keystroke_c	c	n/a
113.987	0.0895	227974	keystroke_t	t	n/a
114.062	0.1645	228124	keystroke_i	i	n/a
114.122	0.1345	228244	keystroke_o	o	n/a
114.1815	0.15	228363	keystroke_n	n	n/a
114.242	0.0745	228484	keystroke_Key.space	Key.space	n/a
114.302	0.0895	228604	keystroke_t	t	n/a
114.377	0.1345	228754	keystroke_a	a	n/a
114.4815	0.09	228963	keystroke_b	b	n/a
114.587	0.0745	229174	keystroke_l	l	n/a
114.647	0.1645	229294	keystroke_e	e	n/a
114.752	0.1195	229504	keystroke_s	s	n/a
114.857	0.0295	229714	keystroke_Key.space	Key.space	n/a
114.947	0.1045	229894	keystroke_a	a	n/a
115.037	0.0895	230074	keystroke_t	t	n/a
115.307	0.0595	230614	keystroke_Key.backspace	Key.backspace	n/a
115.442	0.0745	230884	keystroke_Key.backspace	Key.backspace	n/a
115.532	0.0745	231064	keystroke_s	s	n/a
115.592	0.1495	231184	keystroke_t	t	n/a
115.682	0.105	231364	keystroke_a	a	n/a
115.802	0.0445	231604	keystroke_f	f	n/a
115.907	0.1195	231814	keystroke_f	f	n/a
116.012	0.0745	232024	keystroke_l	l	n/a
116.042	0.0895	232084	keystroke_Key.space	Key.space	n/a
116.192	0.0595	232384	keystroke_o	o	n/a
116.327	0.1195	232654	keystroke_o	o	n/a
116.402	0.09	232804	keystroke_k	k	n/a
116.567	0.0295	233134	keystroke_s	s	n/a
116.717	0.0595	233434	keystroke_Key.backspace	Key.backspace	n/a
116.852	0.0745	233704	keystroke_Key.backspace	Key.backspace	n/a
117.017	0.0445	234034	keystroke_Key.backspace	Key.backspace	n/a
117.137	0.0745	234274	keystroke_Key.backspace	Key.backspace	n/a
117.2865	0.075	234573	keystroke_Key.backspace	Key.backspace	n/a
117.437	0.0745	234874	keystroke_Key.backspace	Key.backspace	n/a
117.662	0.0745	235324	keystroke_Key.space	Key.space	n/a
117.752	0.06	235504	keystroke_l	l	n/a
117.917	0.0445	235834	keystroke_o	o	n/a
118.0215	0.12	236043	keystroke_o	o	n/a
118.097	0.0745	236194	keystroke_k	k	n/a
118.157	0.0895	236314	keystroke_s	s	n/a
118.292	0.0595	236584	keystroke_Key.enter	Key.enter	n/a
118.3625	3.771	236725	prompt	n/a	maui obtain weapons struck\n
118.967	0.0905	237934	keystroke_m	m	n/a
119.058	0.1335	238116	keystroke_a	a	n/a
119.447	0.0595	238894	keystroke_u	u	n/a
119.582	0.0895	239164	keystroke_i	i	n/a
119.687	0.0895	239374	keystroke_Key.space	Key.space	n/a
119.8215	0.105	239643	keystroke_o	o	n/a
119.912	0.0445	239824	keystroke_b	b	n/a
120.062	0.1195	240124	keystroke_t	t	n/a
120.167	0.1345	240334	keystroke_a	a	n/a
120.2265	0.09	240453	keystroke_i	i	n/a
120.2865	0.09	240573	keystroke_n	n	n/a
120.347	0.1045	240694	keystroke_Key.space	Key.space	n/a
120.437	0.12	240874	keystroke_w	w	n/a
120.512	0.1195	241024	keystroke_e	e	n/a
120.677	0.1495	241354	keystroke_a	a	n/a
120.872	0.1195	241744	keystroke_p	p	n/a
120.977	0.1195	241954	keystroke_o	o	n/a
121.037	0.1045	242074	keystroke_n	n	n/a
121.142	0.0895	242284	keystroke_s	s	n/a
121.202	0.09	242404	keystroke_Key.space	Key.space	n/a
121.337	0.0895	242674	keystroke_s	s	n/a
121.442	0.0745	242884	keystroke_t	t	n/a
121.592	0.1045	243184	keystroke_r	r	n/a
121.682	0.0895	243364	keystroke_u	u	n/a
121.817	0.0895	243634	keystroke_c	c	n/a
121.892	0.0595	243784	keystroke_k	k	n/a
122.057	0.0745	244114	keystroke_Key.enter	Key.enter	n/a
122.1405	4.973	244281	prompt	n/a	organisations begin hungarian belarus\n
122.852	0.0895	245704	keystroke_o	o	n/a
122.972	0.0745	245944	keystroke_r	r	n/a
123.152	0.0745	246304	keystroke_g	g	n/a
123.2115	0.12	246423	keystroke_a	a	n/a
123.2865	0.09	246573	keystroke_n	n	n/a
123.347	0.1045	246694	keystroke_i	i	n/a
123.497	0.0595	246994	keystroke_s	s	n/a
123.602	0.15	247204	keystroke_a	a	n/a
123.7075	0.104	247415	keystroke_t	t	n/a
123.767	0.1495	247534	keystroke_i	i	n/a
123.8265	0.135	247653	keystroke_o	o	n/a
123.8865	0.105	247773	keystroke_n	n	n/a
123.947	0.1195	247894	keystroke_s	s	n/a
124.022	0.0745	248044	keystroke_Key.space	Key.space	n/a
124.112	0.0895	248224	keystroke_b	b	n/a
124.247	0.1195	248494	keystroke_e	e	n/a
124.322	0.1045	248644	keystroke_g	g	n/a
124.412	0.1045	248824	keystroke_i	i	n/a
124.457	0.1045	248914	keystroke_n	n	n/a
124.547	0.0895	249094	keystroke_Key.space	Key.space	n/a
124.652	0.0745	249304	keystroke_h	h	n/a
124.802	0.0745	249604	keystroke_u	u	n/a
124.9665	0.09	249933	keystroke_n	n	n/a
125.0865	0.09	250173	keystroke_g	g	n/a
125.252	0.1495	250504	keystroke_a	a	n/a
125.357	0.135	250714	keystroke_r	r	n/a
125.477	0.0745	250954	keystroke_i	i	n/a
125.567	0.165	251134	keystroke_a	a	n/a
125.657	0.0895	251314	keystroke_n	n	n/a
125.777	0.1045	251554	keystroke_Key.space	Key.space	n/a
126.182	0.0595	252364	keystroke_b	b	n/a
126.422	0.1045	252844	keystroke_e	e	n/a
126.542	0.0895	253084	keystroke_l	l	n/a
126.647	0.1345	253294	keystroke_a	a	n/a
126.7225	0.104	253445	keystroke_r	r	n/a
126.842	0.0895	253684	keystroke_u	u	n/a
126.917	0.1195	253834	keystroke_s	s	n/a
127.082	0.0295	254164	keystroke_Key.enter	Key.enter	n/a
127.121	4.1625	254242	prompt	n/a	compliance tunnel assault winning\n
127.847	0.075	255694	keystroke_c	c	n/a
127.907	0.0895	255814	keystroke_o	o	n/a
127.952	0.1345	255904	keystroke_m	m	n/a
128.0415	0.105	256083	keystroke_p	p	n/a
128.207	0.1195	256414	keystroke_l	l	n/a
128.297	0.1195	256594	keystroke_i	i	n/a
128.462	0.1195	256924	keystroke_a	a	n/a
128.627	0.0895	257254	keystroke_n	n	n/a
128.702	0.0895	257404	keystroke_c	c	n/a
128.867	0.0895	257734	keystroke_e	e	n/a
128.942	0.0745	257884	keystroke_Key.space	Key.space	n/a
129.0315	0.105	258063	keystroke_t	t	n/a
129.092	0.0895	258184	keystroke_u	u	n/a
129.2725	0.074	258545	keystroke_n	n	n/a
129.407	0.0745	258814	keystroke_n	n	n/a
129.467	0.1045	258934	keystroke_e	e	n/a
129.587	0.09	259174	keystroke_l	l	n/a
129.6915	0.09	259383	keystroke_Key.space	Key.space	n/a
129.767	0.1045	259534	keystroke_a	a	n/a
129.8725	0.059	259745	keystroke_s	s	n/a
130.0225	0.074	260045	keystroke_s	s	n/a
130.1115	0.12	260223	keystroke_a	a	n/a
130.202	0.0895	260404	keystroke_u	u	n/a
130.307	0.1045	260614	keystroke_l	l	n/a
130.367	0.0895	260734	keystroke_t	t	n/a
130.4265	0.09	260853	keystroke_Key.space	Key.space	n/a
130.4725	0.119	260945	keystroke_w	w	n/a
130.547	0.1045	261094	keystroke_i	i	n/a
130.622	0.09	261244	keystroke_n	n	n/a
130.7725	0.119	261545	keystroke_n	n	n/a
130.877	0.1195	261754	keystroke_i	i	n/a
130.937	0.1045	261874	keystroke_n	n	n/a
131.027	0.0895	262054	keystroke_g	g	n/a
131.192	0.0895	262384	keystroke_Key.enter	Key.enter	n/a
131.294	3.665	262588	prompt	n/a	hold applied editor basename\n
131.912	0.0895	263824	keystroke_h	h	n/a
131.987	0.0745	263974	keystroke_o	o	n/a
132.1365	0.105	264273	keystroke_l	l	n/a
132.197	0.0895	264394	keystroke_d	d	n/a
132.272	0.09	264544	keystroke_Key.space	Key.space	n/a
132.347	0.1345	264694	keystroke_a	a	n/a
132.4065	0.09	264813	keystroke_p	p	n/a
132.5725	0.074	265145	keystroke_p	p	n/a
132.737	0.1195	265474	keystroke_l	l	n/a
132.797	0.1045	265594	keystroke_i	i	n/a
132.842	0.0745	265684	keystroke_e	e	n/a
133.007	0.0895	266014	keystroke_d	d	n/a
133.097	0.075	266194	keystroke_Key.space	Key.space	n/a
133.217	0.0595	266434	keystroke_e	e	n/a
133.367	0.0895	266734	keystroke_d	d	n/a
133.4725	0.074	266945	keystroke_i	i	n/a
133.547	0.1195	267094	keystroke_t	t	n/a
133.682	0.0895	267364	keystroke_o	o	n/a
133.742	0.1045	267484	keystroke_r	r	n/a
133.817	0.0895	267634	keystroke_Key.space	Key.space	n/a
133.967	0.0895	267934	keystroke_b	b	n/a
134.0725	0.179	268145	keystroke_a	a	n/a
134.132	0.1795	268264	keystroke_s	s	n/a
134.222	0.1345	268444	keystroke_e	e	n/a
134.342	0.0895	268684	keystroke_n	n	n/a
134.477	0.1495	268954	keystroke_a	a	n/a
134.597	0.0895	269194	keystroke_m	m	n/a
134.672	0.0895	269344	keystroke_e	e	n/a
134.897	0.0595	269794	keystroke_Key.enter	Key.enter	n/a
134.9665	5.002	269933	prompt	n/a	positioning concentrations proportion belongs\n
135.602	0.1045	271204	keystroke_p	p	n/a
135.662	0.1195	271324	keystroke_o	o	n/a
135.842	0.1045	271684	keystroke_s	s	n/a
135.932	0.0745	271864	keystroke_i	i	n/a
136.022	0.1045	272044	keystroke_t	t	n/a
136.112	0.1645	272224	keystroke_i	i	n/a
136.1725	0.119	272345	keystroke_o	o	n/a
136.262	0.1345	272524	keystroke_n	n	n/a
136.382	0.1495	272764	keystroke_i	i	n/a
136.457	0.1195	272914	keystroke_n	n	n/a
136.547	0.1045	273094	keystroke_g	g	n/a
136.6225	0.093	273245	keystroke_Key.space	Key.space	n/a
136.742	0.1045	273484	keystroke_c	c	n/a
136.832	0.1195	273664	keystroke_o	o	n/a
136.892	0.1195	273784	keystroke_n	n	n/a
137.042	0.0745	274084	keystroke_c	c	n/a
137.177	0.0895	274354	keystroke_e	e	n/a
137.282	0.0895	274564	keystroke_n	n	n/a
137.357	0.0595	274714	keystroke_t	t	n/a
137.507	0.105	275014	keystroke_r	r	n/a
137.582	0.1645	275164	keystroke_a	a	n/a
137.687	0.1195	275374	keystroke_t	t	n/a
137.762	0.1645	275524	keystroke_i	i	n/a
137.8375	0.119	275675	keystroke_o	o	n/a
137.897	0.0895	275794	keystroke_n	n	n/a
137.942	0.1045	275884	keystroke_s	s	n/a
138.017	0.1045	276034	keystroke_Key.space	Key.space	n/a
138.092	0.12	276184	keystroke_p	p	n/a
138.242	0.1195	276484	keystroke_r	r	n/a
138.347	0.1195	276694	keystroke_o	o	n/a
138.422	0.1945	276844	keystroke_p	p	n/a
138.572	0.1045	277144	keystroke_o	o	n/a
138.647	0.0745	277294	keystroke_r	r	n/a
138.797	0.1045	277594	keystroke_t	t	n/a
138.872	0.1645	277744	keystroke_i	i	n/a
138.917	0.1345	277834	keystroke_o	o	n/a
138.992	0.1195	277984	keystroke_n	n	n/a
139.082	0.0745	278164	keystroke_Key.space	Key.space	n/a
139.172	0.0595	278344	keystroke_b	b	n/a
139.2925	0.1045	278585	keystroke_e	e	n/a
139.382	0.045	278764	keystroke_l	l	n/a
139.532	0.1045	279064	keystroke_o	o	n/a
139.577	0.0895	279154	keystroke_n	n	n/a
139.652	0.0745	279304	keystroke_g	g	n/a
139.697	0.1045	279394	keystroke_s	s	n/a
139.877	0.0895	279754	keystroke_Key.enter	Key.enter	n/a
139.976	5.9475	279952	prompt	n/a	administrative depression where've mistakes\n
140.597	0.1045	281194	keystroke_a	a	n/a
140.672	0.1195	281344	keystroke_d	d	n/a
140.777	0.0745	281554	keystroke_m	m	n/a
140.867	0.1195	281734	keystroke_i	i	n/a
140.942	0.1345	281884	keystroke_n	n	n/a
141.062	0.1045	282124	keystroke_i	i	n/a
141.1515	0.135	282303	keystroke_s	s	n/a
141.347	0.09	282694	keystroke_t	t	n/a
141.512	0.1345	283024	keystroke_r	r	n/a
141.632	0.1345	283264	keystroke_a	a	n/a
141.737	0.09	283474	keystroke_t	t	n/a
141.873	0.0885	283746	keystroke_i	i	n/a
141.947	0.1195	283894	keystroke_v	v	n/a
142.067	0.075	284134	keystroke_e	e	n/a
142.127	0.0745	284254	keystroke_Key.space	Key.space	n/a
142.232	0.0595	284464	keystroke_d	d	n/a
142.382	0.1045	284764	keystroke_e	e	n/a
142.502	0.075	285004	keystroke_p	p	n/a
142.592	0.1045	285184	keystroke_r	r	n/a
142.667	0.1045	285334	keystroke_e	e	n/a
142.757	0.0595	285514	keystroke_s	s	n/a
142.907	0.0895	285814	keystroke_s	s	n/a
143.027	0.1645	286054	keystroke_i	i	n/a
143.102	0.1045	286204	keystroke_o	o	n/a
143.147	0.1195	286294	keystroke_n	n	n/a
143.282	0.105	286564	keystroke_Key.space	Key.space	n/a
143.402	0.1045	286804	keystroke_w	w	n/a
143.522	0.09	287044	keystroke_h	h	n/a
143.597	0.1495	287194	keystroke_e	e	n/a
143.732	0.1495	287464	keystroke_r	r	n/a
143.867	0.1045	287734	keystroke_e	e	n/a
144.017	0.0745	288034	keystroke_'	'	n/a
144.227	0.0745	288454	keystroke_v	v	n/a
144.332	0.1195	288664	keystroke_e	e	n/a
144.422	0.1045	288844	keystroke_Key.space	Key.space	n/a
144.662	0.1045	289324	keystroke_i	i	n/a
144.947	0.0745	289894	keystroke_Key.backspace	Key.backspace	n/a
145.157	0.1045	290314	keystroke_m	m	n/a
145.247	0.105	290494	keystroke_i	i	n/a
145.307	0.12	290614	keystroke_s	s	n/a
145.397	0.1195	290794	keystroke_t	t	n/a
145.487	0.1195	290974	keystroke_a	a	n/a
145.592	0.0445	291184	keystroke_k	k	n/a
145.682	0.0745	291364	keystroke_e	e	n/a
145.712	0.1045	291424	keystroke_s	s	n/a
145.862	0.0595	291724	keystroke_Key.enter	Key.enter	n/a
145.931	4.6425	291862	prompt	n/a	elimination effects appointed chevrolet\n
146.492	0.0895	292984	keystroke_e	e	n/a
146.612	0.1195	293224	keystroke_l	l	n/a
146.687	0.1145	293374	keystroke_i	i	n/a
146.762	0.1195	293524	keystroke_m	m	n/a
146.867	0.1345	293734	keystroke_i	i	n/a
146.942	0.0895	293884	keystroke_n	n	n/a
147.003	0.149	294006	keystroke_a	a	n/a
147.0775	0.119	294155	keystroke_t	t	n/a
147.1815	0.15	294363	keystroke_i	i	n/a
147.242	0.1045	294484	keystroke_o	o	n/a
147.272	0.1345	294544	keystroke_n	n	n/a
147.392	0.1195	294784	keystroke_Key.space	Key.space	n/a
147.497	0.1195	294994	keystroke_e	e	n/a
147.6025	0.044	295205	keystroke_f	f	n/a
147.737	0.1195	295474	keystroke_f	f	n/a
147.842	0.0595	295684	keystroke_e	e	n/a
148.007	0.075	296014	keystroke_c	c	n/a
148.172	0.0895	296344	keystroke_t	t	n/a
148.2325	0.1045	296465	keystroke_s	s	n/a
148.307	0.0905	296614	keystroke_Key.space	Key.space	n/a
148.382	0.1345	296764	keystroke_a	a	n/a
148.502	0.0595	297004	keystroke_p	p	n/a
148.652	0.0895	297304	keystroke_p	p	n/a
148.682	0.165	297364	keystroke_o	o	n/a
148.772	0.1345	297544	keystroke_i	i	n/a
148.833	0.1185	297666	keystroke_n	n	n/a
148.862	0.1195	297724	keystroke_t	t	n/a
148.967	0.0505	297934	keystroke_e	e	n/a
149.117	0.0895	298234	keystroke_d	d	n/a
149.267	0.0895	298534	keystroke_Key.space	Key.space	n/a
149.4025	0.089	298805	keystroke_c	c	n/a
149.597	0.0895	299194	keystroke_h	h	n/a
149.717	0.0895	299434	keystroke_e	e	n/a
149.867	0.075	299734	keystroke_v	v	n/a
150.047	0.0895	300094	keystroke_r	r	n/a
150.122	0.0895	300244	keystroke_o	o	n/a
150.272	0.0895	300544	keystroke_l	l	n/a
150.332	0.1045	300664	keystroke_e	e	n/a
150.407	0.1045	300814	keystroke_t	t	n/a
150.497	0.0745	300994	keystroke_Key.enter	Key.enter	n/a
150.581	4.4625	301162	prompt	n/a	group annex corps pharmacology\n
151.142	0.0745	302284	keystroke_g	g	n/a
151.307	0.1195	302614	keystroke_r	r	n/a
151.3525	0.179	302705	keystroke_o	o	n/a
151.442	0.1045	302884	keystroke_u	u	n/a
151.487	0.1195	302974	keystroke_p	p	n/a
151.622	0.0745	303244	keystroke_Key.space	Key.space	n/a
151.712	0.1195	303424	keystroke_a	a	n/a
151.8025	0.074	303605	keystroke_n	n	n/a
151.937	0.0895	303874	keystroke_n	n	n/a
151.997	0.0745	303994	keystroke_e	e	n/a
152.192	0.0745	304384	keystroke_x	x	n/a
152.267	0.0745	304534	keystroke_Key.space	Key.space	n/a
152.372	0.0745	304744	keystroke_c	c	n/a
152.477	0.0895	304954	keystroke_o	o	n/a
152.5525	0.134	305105	keystroke_r	r	n/a
152.717	0.1045	305434	keystroke_p	p	n/a
152.747	0.06	305494	keystroke_s	s	n/a
153.212	0.0895	306424	keystroke_Key.space	Key.space	n/a
153.407	0.1195	306814	keystroke_p	p	n/a
153.587	0.1045	307174	keystroke_h	h	n/a
153.737	0.1495	307474	keystroke_a	a	n/a
153.842	0.1045	307684	keystroke_r	r	n/a
153.978	0.1035	307956	keystroke_m	m	n/a
154.097	0.0745	308194	keystroke_a	a	n/a
154.262	0.0895	308524	keystroke_c	c	n/a
154.337	0.0595	308674	keystroke_o	o	n/a
154.487	0.0595	308974	keystroke_l	l	n/a
154.637	0.0895	309274	keystroke_o	o	n/a
154.742	0.0895	309484	keystroke_g	g	n/a
154.8025	0.074	309605	keystroke_y	y	n/a
154.952	0.0895	309904	keystroke_Key.enter	Key.enter	n/a
155.057	3.572	310114	prompt	n/a	guests promised group meet\n
155.672	0.0745	311344	keystroke_g	g	n/a
155.837	0.0895	311674	keystroke_u	u	n/a
155.912	0.1795	311824	keystroke_e	e	n/a
156.017	0.1045	312034	keystroke_s	s	n/a
156.137	0.0145	312274	keystroke_t	t	n/a
156.197	0.12	312394	keystroke_s	s	n/a
156.272	0.1045	312544	keystroke_Key.space	Key.space	n/a
156.812	0.1045	313624	keystroke_p	p	n/a
156.932	0.1195	313864	keystroke_r	r	n/a
156.992	0.1045	313984	keystroke_o	o	n/a
157.067	0.1195	314134	keystroke_m	m	n/a
157.142	0.1195	314284	keystroke_i	i	n/a
157.2315	0.105	314463	keystroke_s	s	n/a
157.307	0.0745	314614	keystroke_e	e	n/a
157.442	0.0895	314884	keystroke_d	d	n/a
157.517	0.0895	315034	keystroke_Key.space	Key.space	n/a
157.592	0.0745	315184	keystroke_g	g	n/a
157.727	0.1195	315454	keystroke_r	r	n/a
157.802	0.1195	315604	keystroke_o	o	n/a
157.832	0.1495	315664	keystroke_u	u	n/a
157.877	0.135	315754	keystroke_p	p	n/a
157.997	0.0895	315994	keystroke_Key.space	Key.space	n/a
158.102	0.0895	316204	keystroke_m	m	n/a
158.192	0.0595	316384	keystroke_e	e	n/a
158.327	0.1195	316654	keystroke_e	e	n/a
158.432	0.105	316864	keystroke_t	t	n/a
158.552	0.0745	317104	keystroke_Key.enter	Key.enter	n/a
158.637	3.4715	317274	prompt	n/a	till harvest sega burn\n
159.287	0.0895	318574	keystroke_t	t	n/a
159.347	0.0745	318694	keystroke_i	i	n/a
159.497	0.0595	318994	keystroke_l	l	n/a
159.6175	0.089	319235	keystroke_l	l	n/a
159.722	0.1045	319444	keystroke_Key.space	Key.space	n/a
159.812	0.0745	319624	keystroke_h	h	n/a
159.902	0.1045	319804	keystroke_a	a	n/a
159.947	0.0895	319894	keystroke_r	r	n/a
160.127	0.1045	320254	keystroke_v	v	n/a
160.247	0.2245	320494	keystroke_e	e	n/a
160.322	0.1645	320644	keystroke_s	s	n/a
160.412	0.1495	320824	keystroke_t	t	n/a
160.532	0.1045	321064	keystroke_Key.space	Key.space	n/a
160.832	0.1645	321664	keystroke_s	s	n/a
160.997	0.1345	321994	keystroke_e	e	n/a
161.147	0.12	322294	keystroke_g	g	n/a
161.282	0.1495	322564	keystroke_a	a	n/a
161.4175	0.074	322835	keystroke_Key.space	Key.space	n/a
161.522	0.0895	323044	keystroke_b	b	n/a
161.642	0.1195	323284	keystroke_u	u	n/a
161.747	0.0895	323494	keystroke_r	r	n/a
161.852	0.0895	323704	keystroke_n	n	n/a
162.017	0.0895	324034	keystroke_Key.enter	Key.enter	n/a
162.115	4.3735	324230	prompt	n/a	palestine eggs chevrolet posting\n
162.782	0.1045	325564	keystroke_p	p	n/a
162.902	0.1195	325804	keystroke_a	a	n/a
163.037	0.1045	326074	keystroke_l	l	n/a
163.172	0.1795	326344	keystroke_e	e	n/a
163.292	0.1195	326584	keystroke_s	s	n/a
163.352	0.1195	326704	keystroke_t	t	n/a
163.457	0.0895	326914	keystroke_i	i	n/a
163.5175	0.089	327035	keystroke_n	n	n/a
163.562	0.12	327124	keystroke_e	e	n/a
163.667	0.1195	327334	keystroke_Key.space	Key.space	n/a
163.802	0.1045	327604	keystroke_e	e	n/a
163.892	0.0745	327784	keystroke_g	g	n/a
164.042	0.1345	328084	keystroke_g	g	n/a
164.162	0.105	328324	keystroke_s	s	n/a
164.252	0.0895	328504	keystroke_Key.space	Key.space	n/a
164.417	0.0895	328834	keystroke_c	c	n/a
164.522	0.1045	329044	keystroke_h	h	n/a
164.642	0.06	329284	keystroke_e	e	n/a
164.7475	0.104	329495	keystroke_v	v	n/a
164.957	0.1045	329914	keystroke_r	r	n/a
165.017	0.0745	330034	keystroke_o	o	n/a
165.167	0.1045	330334	keystroke_l	l	n/a
165.2575	0.089	330515	keystroke_e	e	n/a
165.317	0.1195	330634	keystroke_t	t	n/a
165.4675	0.104	330935	keystroke_Key.space	Key.space	n/a
165.722	0.0895	331444	keystroke_p	p	n/a
165.827	0.1045	331654	keystroke_o	o	n/a
165.962	0.12	331924	keystroke_s	s	n/a
166.052	0.1195	332104	keystroke_t	t	n/a
166.127	0.105	332254	keystroke_i	i	n/a
166.187	0.0895	332374	keystroke_n	n	n/a
166.292	0.09	332584	keystroke_g	g	n/a
166.397	0.0895	332794	keystroke_Key.enter	Key.enter	n/a
166.496	3.8475	332992	prompt	n/a	associations jazz roger singing\n
167.102	0.0895	334204	keystroke_a	a	n/a
167.177	0.0745	334354	keystroke_s	s	n/a
167.3265	0.09	334653	keystroke_s	s	n/a
167.462	0.1045	334924	keystroke_o	o	n/a
167.582	0.0745	335164	keystroke_c	c	n/a
167.702	0.0895	335404	keystroke_i	i	n/a
167.807	0.1045	335614	keystroke_a	a	n/a
167.852	0.1345	335704	keystroke_t	t	n/a
167.957	0.1495	335914	keystroke_i	i	n/a
168.017	0.12	336034	keystroke_o	o	n/a
168.077	0.1045	336154	keystroke_n	n	n/a
168.152	0.105	336304	keystroke_s	s	n/a
168.227	0.1495	336454	keystroke_Key.space	Key.space	n/a
168.332	0.0895	336664	keystroke_j	j	n/a
168.392	0.1045	336784	keystroke_a	a	n/a
168.602	0.0745	337204	keystroke_z	z	n/a
168.767	0.12	337534	keystroke_z	z	n/a
168.872	0.1045	337744	keystroke_Key.space	Key.space	n/a
169.007	0.1045	338014	keystroke_r	r	n/a
169.097	0.0895	338194	keystroke_o	o	n/a
169.187	0.0895	338374	keystroke_g	g	n/a
169.337	0.0895	338674	keystroke_e	e	n/a
169.397	0.1345	338794	keystroke_r	r	n/a
169.487	0.0595	338974	keystroke_Key.space	Key.space	n/a
169.562	0.1345	339124	keystroke_s	s	n/a
169.682	0.1045	339364	keystroke_i	i	n/a
169.742	0.1195	339484	keystroke_n	n	n/a
169.8325	0.119	339665	keystroke_g	g	n/a
169.967	0.1045	339934	keystroke_i	i	n/a
170.012	0.1195	340024	keystroke_n	n	n/a
170.117	0.09	340234	keystroke_g	g	n/a
170.252	0.0895	340504	keystroke_Key.enter	Key.enter	n/a
170.3515	3.9375	340703	prompt	n/a	bean aggregate who're yemen\n
170.897	0.075	341794	keystroke_b	b	n/a
171.032	0.1195	342064	keystroke_e	e	n/a
171.122	0.1645	342244	keystroke_a	a	n/a
171.227	0.0745	342454	keystroke_n	n	n/a
171.317	0.0895	342634	keystroke_Key.space	Key.space	n/a
171.392	0.1195	342784	keystroke_a	a	n/a
171.4825	0.089	342965	keystroke_g	g	n/a
171.6325	0.089	343265	keystroke_g	g	n/a
171.812	0.1645	343624	keystroke_r	r	n/a
171.902	0.1495	343804	keystroke_e	e	n/a
172.142	0.1045	344284	keystroke_g	g	n/a
172.277	0.1195	344554	keystroke_a	a	n/a
172.352	0.1345	344704	keystroke_t	t	n/a
172.442	0.0895	344884	keystroke_e	e	n/a
172.502	0.0895	345004	keystroke_Key.space	Key.space	n/a
172.607	0.1045	345214	keystroke_w	w	n/a
172.727	0.105	345454	keystroke_h	h	n/a
172.817	0.1345	345634	keystroke_o	o	n/a
173.072	0.1045	346144	keystroke_'	'	n/a
173.192	0.1195	346384	keystroke_r	r	n/a
173.252	0.105	346504	keystroke_e	e	n/a
173.342	0.1045	346684	keystroke_Key.space	Key.space	n/a
173.4325	0.104	346865	keystroke_y	y	n/a
173.552	0.1045	347104	keystroke_e	e	n/a
173.687	0.1045	347374	keystroke_m	m	n/a
173.807	0.1495	347614	keystroke_e	e	n/a
173.882	0.0895	347764	keystroke_n	n	n/a
174.212	0.0745	348424	keystroke_Key.enter	Key.enter	n/a
174.2965	4.657	348593	prompt	n/a	properties employees greenhouse breach\n
175.037	0.1045	350074	keystroke_p	p	n/a
175.157	0.1045	350314	keystroke_r	r	n/a
175.277	0.0745	350554	keystroke_o	o	n/a
175.307	0.1195	350614	keystroke_p	p	n/a
175.397	0.1045	350794	keystroke_e	e	n/a
175.472	0.1045	350944	keystroke_r	r	n/a
175.622	0.1495	351244	keystroke_t	t	n/a
175.712	0.1045	351424	keystroke_i	i	n/a
175.787	0.1345	351574	keystroke_e	e	n/a
175.847	0.1195	351694	keystroke_s	s	n/a
175.937	0.0745	351874	keystroke_Key.space	Key.space	n/a
176.057	0.0745	352114	keystroke_e	e	n/a
176.102	0.1345	352204	keystroke_m	m	n/a
176.192	0.0745	352384	keystroke_p	p	n/a
176.327	0.0745	352654	keystroke_l	l	n/a
176.522	0.075	353044	keystroke_o	o	n/a
176.5675	0.1045	353135	keystroke_y	y	n/a
176.657	0.0595	353314	keystroke_e	e	n/a
176.792	0.0895	353584	keystroke_e	e	n/a
176.912	0.1195	353824	keystroke_s	s	n/a
177.002	0.0895	354004	keystroke_Key.space	Key.space	n/a
177.122	0.0745	354244	keystroke_g	g	n/a
177.272	0.1045	354544	keystroke_r	r	n/a
177.3475	0.074	354695	keystroke_e	e	n/a
177.4975	0.119	354995	keystroke_e	e	n/a
177.557	0.0745	355114	keystroke_n	n	n/a
177.722	0.0745	355444	keystroke_h	h	n/a
177.827	0.105	355654	keystroke_o	o	n/a
177.872	0.1195	355744	keystroke_u	u	n/a
177.962	0.1345	355924	keystroke_s	s	n/a
178.037	0.1045	356074	keystroke_e	e	n/a
178.127	0.0595	356254	keystroke_Key.space	Key.space	n/a
178.217	0.0895	356434	keystroke_b	b	n/a
178.427	0.1345	356854	keystroke_r	r	n/a
178.472	0.1045	356944	keystroke_e	e	n/a
178.5475	0.104	357095	keystroke_a	a	n/a
178.697	0.0745	357394	keystroke_c	c	n/a
178.757	0.0745	357514	keystroke_h	h	n/a
178.877	0.0745	357754	keystroke_Key.enter	Key.enter	n/a
178.961	3.217	357922	prompt	n/a	responses update hosted late\n
179.537	0.1345	359074	keystroke_r	r	n/a
179.612	0.12	359224	keystroke_e	e	n/a
179.672	0.1045	359344	keystroke_s	s	n/a
179.762	0.0745	359524	keystroke_p	p	n/a
179.792	0.1495	359584	keystroke_o	o	n/a
179.867	0.1195	359734	keystroke_n	n	n/a
179.912	0.1345	359824	keystroke_s	s	n/a
180.002	0.1345	360004	keystroke_e	e	n/a
180.197	0.1045	360394	keystroke_s	s	n/a
180.4665	0.09	360933	keystroke_Key.space	Key.space	n/a
180.572	0.1195	361144	keystroke_u	u	n/a
180.6325	0.104	361265	keystroke_p	p	n/a
180.707	0.1195	361414	keystroke_d	d	n/a
180.827	0.1345	361654	keystroke_a	a	n/a
180.917	0.0745	361834	keystroke_t	t	n/a
180.962	0.0595	361924	keystroke_e	e	n/a
181.112	0.1045	362224	keystroke_d	d	n/a
181.202	0.1045	362404	keystroke_Key.space	Key.space	n/a
181.232	0.1045	362464	keystroke_h	h	n/a
181.322	0.0895	362644	keystroke_o	o	n/a
181.3665	0.105	362733	keystroke_s	s	n/a
181.457	0.075	362914	keystroke_t	t	n/a
181.502	0.0595	363004	keystroke_e	e	n/a
181.637	0.1195	363274	keystroke_d	d	n/a
181.7115	0.105	363423	keystroke_Key.space	Key.space	n/a
181.802	0.0895	363604	keystroke_l	l	n/a
181.877	0.1495	363754	keystroke_a	a	n/a
181.952	0.1045	363904	keystroke_t	t	n/a
181.9975	0.104	363995	keystroke_e	e	n/a
182.102	0.0745	364204	keystroke_Key.enter	Key.enter	n/a
182.193	3.5415	364386	prompt	n/a	sink nursery blogger tomato\n
182.837	0.0895	365674	keystroke_s	s	n/a
182.897	0.0895	365794	keystroke_i	i	n/a
182.957	0.1045	365914	keystroke_n	n	n/a
183.092	0.0895	366184	keystroke_k	k	n/a
183.1975	0.104	366395	keystroke_Key.space	Key.space	n/a
183.272	0.0745	366544	keystroke_n	n	n/a
183.452	0.0745	366904	keystroke_u	u	n/a
183.4975	0.119	366995	keystroke_r	r	n/a
183.602	0.1345	367204	keystroke_s	s	n/a
183.677	0.12	367354	keystroke_e	e	n/a
183.752	0.1345	367504	keystroke_r	r	n/a
183.827	0.0895	367654	keystroke_y	y	n/a
183.932	0.0745	367864	keystroke_Key.space	Key.space	n/a
184.052	0.1045	368104	keystroke_b	b	n/a
184.172	0.0445	368344	keystroke_l	l	n/a
184.2915	0.09	368583	keystroke_o	o	n/a
184.457	0.0895	368914	keystroke_g	g	n/a
184.622	0.1045	369244	keystroke_g	g	n/a
184.7715	0.12	369543	keystroke_e	e	n/a
184.847	0.1045	369694	keystroke_r	r	n/a
184.937	0.0895	369874	keystroke_Key.space	Key.space	n/a
185.042	0.1055	370084	keystroke_t	t	n/a
185.117	0.1045	370234	keystroke_o	o	n/a
185.162	0.135	370324	keystroke_m	m	n/a
185.237	0.1345	370474	keystroke_a	a	n/a
185.357	0.1195	370714	keystroke_t	t	n/a
185.492	0.0595	370984	keystroke_o	o	n/a
185.657	0.0745	371314	keystroke_Key.enter	Key.enter	n/a
185.7425	4.266	371485	prompt	n/a	chains sharp wyoming javascript\n
186.3625	0.104	372725	keystroke_c	c	n/a
186.482	0.0895	372964	keystroke_h	h	n/a
186.587	0.1495	373174	keystroke_a	a	n/a
186.692	0.0895	373384	keystroke_i	i	n/a
186.752	0.1045	373504	keystroke_n	n	n/a
186.842	0.1045	373684	keystroke_s	s	n/a
186.947	0.0895	373894	keystroke_Key.space	Key.space	n/a
187.067	0.1045	374134	keystroke_s	s	n/a
187.157	0.0895	374314	keystroke_h	h	n/a
187.262	0.1345	374524	keystroke_a	a	n/a
187.337	0.1195	374674	keystroke_r	r	n/a
187.472	0.0905	374944	keystroke_p	p	n/a
187.5645	0.087	375129	keystroke_Key.space	Key.space	n/a
187.652	0.12	375304	keystroke_w	w	n/a
187.757	0.105	375514	keystroke_y	y	n/a
187.922	0.1645	375844	keystroke_o	o	n/a
188.027	0.1345	376054	keystroke_m	m	n/a
188.177	0.12	376354	keystroke_i	i	n/a
188.237	0.1195	376474	keystroke_n	n	n/a
188.3125	0.149	376625	keystroke_g	g	n/a
188.417	0.1195	376834	keystroke_Key.space	Key.space	n/a
188.492	0.1195	376984	keystroke_j	j	n/a
188.5975	0.104	377195	keystroke_a	a	n/a
188.717	0.0445	377434	keystroke_v	v	n/a
188.777	0.1345	377554	keystroke_a	a	n/a
188.897	0.0595	377794	keystroke_s	s	n/a
189.407	0.0745	378814	keystroke_c	c	n/a
189.572	0.1045	379144	keystroke_r	r	n/a
189.632	0.1045	379264	keystroke_i	i	n/a
189.692	0.1045	379384	keystroke_p	p	n/a
189.767	0.0895	379534	keystroke_t	t	n/a
189.932	0.075	379864	keystroke_Key.enter	Key.enter	n/a
190.0165	4.1325	380033	prompt	n/a	springer yale representing provider\n
190.727	0.1195	381454	keystroke_s	s	n/a
190.817	0.1195	381634	keystroke_p	p	n/a
190.982	0.1195	381964	keystroke_r	r	n/a
191.117	0.0895	382234	keystroke_i	i	n/a
191.147	0.1195	382294	keystroke_n	n	n/a
191.252	0.0595	382504	keystroke_g	g	n/a
191.357	0.1345	382714	keystroke_e	e	n/a
191.417	0.1345	382834	keystroke_r	r	n/a
191.507	0.1045	383014	keystroke_Key.space	Key.space	n/a
191.5665	0.09	383133	keystroke_y	y	n/a
191.672	0.1195	383344	keystroke_a	a	n/a
191.7625	0.119	383525	keystroke_l	l	n/a
191.837	0.1195	383674	keystroke_e	e	n/a
191.942	0.1045	383884	keystroke_Key.space	Key.space	n/a
192.064	0.0725	384128	keystroke_r	r	n/a
192.092	0.1495	384184	keystroke_e	e	n/a
192.302	0.1045	384604	keystroke_p	p	n/a
192.437	0.15	384874	keystroke_r	r	n/a
192.527	0.135	385054	keystroke_e	e	n/a
192.617	0.1795	385234	keystroke_s	s	n/a
192.752	0.1045	385504	keystroke_e	e	n/a
192.8125	0.089	385625	keystroke_n	n	n/a
192.902	0.1195	385804	keystroke_t	t	n/a
193.007	0.1345	386014	keystroke_i	i	n/a
193.052	0.1195	386104	keystroke_n	n	n/a
193.1265	0.12	386253	keystroke_g	g	n/a
193.217	0.0895	386434	keystroke_Key.space	Key.space	n/a
193.277	0.105	386554	keystroke_p	p	n/a
193.367	0.12	386734	keystroke_r	r	n/a
193.472	0.09	386944	keystroke_o	o	n/a
193.577	0.1045	387154	keystroke_v	v	n/a
193.667	0.1045	387334	keystroke_i	i	n/a
193.757	0.06	387514	keystroke_d	d	n/a
193.892	0.12	387784	keystroke_e	e	n/a
193.952	0.1195	387904	keystroke_r	r	n/a
194.072	0.0745	388144	keystroke_Key.enter	Key.enter	n/a
194.1585	4.295	388317	prompt	n/a	replies memorial flat kazakhstan\n
194.807	0.105	389614	keystroke_r	r	n/a
194.867	0.1345	389734	keystroke_e	e	n/a
194.972	0.09	389944	keystroke_p	p	n/a
195.122	0.1045	390244	keystroke_l	l	n/a
195.182	0.1045	390364	keystroke_i	i	n/a
195.212	0.1645	390424	keystroke_e	e	n/a
195.272	0.1495	390544	keystroke_s	s	n/a
195.392	0.1045	390784	keystroke_Key.space	Key.space	n/a
195.572	0.1195	391144	keystroke_m	m	n/a
195.8125	0.089	391625	keystroke_e	e	n/a
195.947	0.12	391894	keystroke_m	m	n/a
196.022	0.1045	392044	keystroke_o	o	n/a
196.142	0.0895	392284	keystroke_r	r	n/a
196.202	0.0895	392404	keystroke_i	i	n/a
196.307	0.1495	392614	keystroke_a	a	n/a
196.382	0.0895	392764	keystroke_l	l	n/a
196.502	0.0745	393004	keystroke_Key.space	Key.space	n/a
196.607	0.1195	393214	keystroke_f	f	n/a
196.697	0.0895	393394	keystroke_l	l	n/a
196.8025	0.119	393605	keystroke_a	a	n/a
196.847	0.1345	393694	keystroke_t	t	n/a
196.937	0.12	393874	keystroke_Key.space	Key.space	n/a
197.042	0.0595	394084	keystroke_k	k	n/a
197.147	0.0595	394294	keystroke_a	a	n/a
197.3125	0.074	394625	keystroke_z	z	n/a
197.4775	0.134	394955	keystroke_a	a	n/a
197.567	0.1045	395134	keystroke_k	k	n/a
197.657	0.1045	395314	keystroke_h	h	n/a
197.778	0.134	395556	keystroke_s	s	n/a
197.9275	0.104	395855	keystroke_t	t	n/a
198.0775	0.119	396155	keystroke_a	a	n/a
198.182	0.1045	396364	keystroke_n	n	n/a
198.377	0.0745	396754	keystroke_Key.enter	Key.enter	n/a
198.4605	3.398	396921	prompt	n/a	peeing lycos crew websites\n
199.1415	0.075	398283	keystroke_p	p	n/a
199.202	0.0895	398404	keystroke_e	e	n/a
199.382	0.1045	398764	keystroke_e	e	n/a
199.517	0.1195	399034	keystroke_i	i	n/a
199.5775	0.104	399155	keystroke_n	n	n/a
199.667	0.1195	399334	keystroke_g	g	n/a
199.7415	0.105	399483	keystroke_Key.space	Key.space	n/a
199.817	0.1045	399634	keystroke_l	l	n/a
199.967	0.09	399934	keystroke_y	y	n/a
200.072	0.1045	400144	keystroke_c	c	n/a
200.1625	0.089	400325	keystroke_o	o	n/a
200.237	0.1045	400474	keystroke_s	s	n/a
200.327	0.0745	400654	keystroke_Key.space	Key.space	n/a
200.417	0.0895	400834	keystroke_c	c	n/a
200.597	0.1345	401194	keystroke_r	r	n/a
200.6565	0.135	401313	keystroke_e	e	n/a
200.702	0.1645	401404	keystroke_w	w	n/a
200.852	0.1045	401704	keystroke_Key.space	Key.space	n/a
201.017	0.1345	402034	keystroke_w	w	n/a
201.0915	0.105	402183	keystroke_e	e	n/a
201.272	0.0745	402544	keystroke_b	b	n/a
201.377	0.1645	402754	keystroke_s	s	n/a
201.437	0.1045	402874	keystroke_i	i	n/a
201.557	0.1345	403114	keystroke_t	t	n/a
201.6175	0.134	403235	keystroke_e	e	n/a
201.707	0.12	403414	keystroke_s	s	n/a
201.782	0.0745	403564	keystroke_Key.enter	Key.enter	n/a
201.866	5.257	403732	prompt	n/a	programmers visiting perspective logged\n
202.4275	0.119	404855	keystroke_p	p	n/a
202.532	0.1045	405064	keystroke_r	r	n/a
202.652	0.0895	405304	keystroke_o	o	n/a
202.727	0.0595	405454	keystroke_g	g	n/a
202.862	0.0895	405724	keystroke_r	r	n/a
202.922	0.1345	405844	keystroke_a	a	n/a
203.012	0.075	406024	keystroke_m	m	n/a
203.1465	0.09	406293	keystroke_m	m	n/a
203.222	0.1195	406444	keystroke_e	e	n/a
203.267	0.1345	406534	keystroke_r	r	n/a
203.357	0.1045	406714	keystroke_s	s	n/a
203.447	0.06	406894	keystroke_Key.space	Key.space	n/a
203.522	0.1195	407044	keystroke_v	v	n/a
203.657	0.0895	407314	keystroke_i	i	n/a
203.7625	0.104	407525	keystroke_s	s	n/a
203.882	0.1045	407764	keystroke_i	i	n/a
203.972	0.1195	407944	keystroke_t	t	n/a
204.0775	0.104	408155	keystroke_i	i	n/a
204.122	0.135	408244	keystroke_n	n	n/a
204.227	0.1045	408454	keystroke_g	g	n/a
204.287	0.1045	408574	keystroke_Key.space	Key.space	n/a
204.392	0.1045	408784	keystroke_p	p	n/a
204.467	0.12	408934	keystroke_e	e	n/a
204.557	0.12	409114	keystroke_r	r	n/a
204.647	0.1345	409294	keystroke_s	s	n/a
204.752	0.1045	409504	keystroke_p	p	n/a
204.827	0.0745	409654	keystroke_e	e	n/a
205.052	0.03	410104	keystroke_c	c	n/a
205.172	0.0745	410344	keystroke_t	t	n/a
205.2775	0.089	410555	keystroke_i	i	n/a
205.382	0.1045	410764	keystroke_v	v	n/a
205.472	0.0895	410944	keystroke_e	e	n/a
205.637	0.1045	411274	keystroke_d	d	n/a
206.012	0.0745	412024	keystroke_Key.backspace	Key.backspace	n/a
206.207	0.0895	412414	keystroke_Key.space	Key.space	n/a
206.312	0.0595	412624	keystroke_l	l	n/a
206.492	0.0745	412984	keystroke_o	o	n/a
206.552	0.075	413104	keystroke_g	g	n/a
206.7175	0.0595	413435	keystroke_g	g	n/a
206.792	0.0895	413584	keystroke_e	e	n/a
206.942	0.09	413884	keystroke_d	d	n/a
207.0475	0.074	414095	keystroke_Key.enter	Key.enter	n/a
207.136	4.922	414272	prompt	n/a	threatened filters communication savings\n
207.782	0.105	415564	keystroke_t	t	n/a
207.932	0.0895	415864	keystroke_h	h	n/a
208.022	0.1495	416044	keystroke_r	r	n/a
208.097	0.165	416194	keystroke_e	e	n/a
208.217	0.1645	416434	keystroke_a	a	n/a
208.3225	0.1355	416645	keystroke_t	t	n/a
208.412	0.1205	416824	keystroke_e	e	n/a
208.5175	0.0745	417035	keystroke_n	n	n/a
208.637	0.075	417274	keystroke_e	e	n/a
208.787	0.09	417574	keystroke_d	d	n/a
208.8625	0.074	417725	keystroke_Key.space	Key.space	n/a
208.967	0.1195	417934	keystroke_f	f	n/a
209.072	0.1495	418144	keystroke_i	i	n/a
209.147	0.1345	418294	keystroke_l	l	n/a
209.237	0.0895	418474	keystroke_t	t	n/a
209.342	0.12	418684	keystroke_e	e	n/a
209.432	0.1195	418864	keystroke_r	r	n/a
209.4775	0.119	418955	keystroke_s	s	n/a
209.567	0.0895	419134	keystroke_Key.space	Key.space	n/a
209.702	0.1045	419404	keystroke_c	c	n/a
209.792	0.0745	419584	keystroke_o	o	n/a
209.822	0.0895	419644	keystroke_m	m	n/a
209.972	0.0895	419944	keystroke_m	m	n/a
210.167	0.0595	420334	keystroke_u	u	n/a
210.332	0.1045	420664	keystroke_n	n	n/a
210.3925	0.119	420785	keystroke_i	i	n/a
210.422	0.105	420844	keystroke_c	c	n/a
210.542	0.135	421084	keystroke_a	a	n/a
210.602	0.12	421204	keystroke_t	t	n/a
210.707	0.1495	421414	keystroke_i	i	n/a
210.767	0.1195	421534	keystroke_o	o	n/a
210.827	0.1045	421654	keystroke_n	n	n/a
211.037	0.0895	422074	keystroke_Key.space	Key.space	n/a
211.307	0.1045	422614	keystroke_s	s	n/a
211.442	0.1195	422884	keystroke_a	a	n/a
211.517	0.1195	423034	keystroke_v	v	n/a
211.637	0.1045	423274	keystroke_i	i	n/a
211.697	0.1045	423394	keystroke_n	n	n/a
211.757	0.105	423514	keystroke_g	g	n/a
211.832	0.1345	423664	keystroke_s	s	n/a
211.982	0.0745	423964	keystroke_Key.enter	Key.enter	n/a
212.067	5.392	424134	prompt	n/a	brand aspect petroleum halloween\n
212.657	0.0895	425314	keystroke_b	b	n/a
212.7925	0.1495	425585	keystroke_a	a	n/a
212.882	0.0895	425764	keystroke_n	n	n/a
213.167	0.0595	426334	keystroke_Key.backspace	Key.backspace	n/a
213.302	0.0745	426604	keystroke_Key.backspace	Key.backspace	n/a
213.437	0.1195	426874	keystroke_r	r	n/a
213.512	0.1345	427024	keystroke_a	a	n/a
213.602	0.09	427204	keystroke_n	n	n/a
213.662	0.1195	427324	keystroke_d	d	n/a
213.767	0.1045	427534	keystroke_Key.space	Key.space	n/a
213.872	0.12	427744	keystroke_a	a	n/a
213.9775	0.134	427955	keystroke_s	s	n/a
214.127	0.0895	428254	keystroke_p	p	n/a
214.187	0.0895	428374	keystroke_e	e	n/a
214.412	0.0745	428824	keystroke_c	c	n/a
214.577	0.135	429154	keystroke_t	t	n/a
214.697	0.0895	429394	keystroke_Key.space	Key.space	n/a
214.817	0.12	429634	keystroke_p	p	n/a
214.8925	0.119	429785	keystroke_e	e	n/a
215.087	0.1055	430174	keystroke_t	t	n/a
215.267	0.1345	430534	keystroke_r	r	n/a
215.387	0.0745	430774	keystroke_o	o	n/a
215.567	0.0895	431134	keystroke_l	l	n/a
215.702	0.1195	431404	keystroke_e	e	n/a
215.822	0.0895	431644	keystroke_u	u	n/a
216.002	0.1045	432004	keystroke_m	m	n/a
216.137	0.105	432274	keystroke_Key.space	Key.space	n/a
216.227	0.09	432454	keystroke_h	h	n/a
216.347	0.1345	432694	keystroke_a	a	n/a
216.437	0.0895	432874	keystroke_l	l	n/a
216.587	0.0595	433174	keystroke_l	l	n/a
216.737	0.105	433474	keystroke_o	o	n/a
216.857	0.1045	433714	keystroke_w	w	n/a
216.917	0.0895	433834	keystroke_e	e	n/a
217.082	0.1195	434164	keystroke_e	e	n/a
217.187	0.0895	434374	keystroke_n	n	n/a
217.367	0.0895	434734	keystroke_Key.enter	Key.enter	n/a
217.47	3.394	434940	prompt	n/a	drive mint alloy o'clock\n
218.057	0.1045	436114	keystroke_d	d	n/a
218.282	0.1045	436564	keystroke_r	r	n/a
218.402	0.0745	436804	keystroke_i	i	n/a
218.492	0.105	436984	keystroke_v	v	n/a
218.582	0.1345	437164	keystroke_e	e	n/a
218.672	0.1195	437344	keystroke_Key.space	Key.space	n/a
218.732	0.075	437464	keystroke_m	m	n/a
218.822	0.135	437644	keystroke_i	i	n/a
218.912	0.1045	437824	keystroke_n	n	n/a
218.9875	0.1195	437975	keystroke_t	t	n/a
219.062	0.1045	438124	keystroke_Key.space	Key.space	n/a
219.152	0.1345	438304	keystroke_a	a	n/a
219.227	0.0745	438454	keystroke_l	l	n/a
219.392	0.0745	438784	keystroke_l	l	n/a
219.5575	0.1195	439115	keystroke_o	o	n/a
219.662	0.0895	439324	keystroke_y	y	n/a
219.782	0.0895	439564	keystroke_Key.space	Key.space	n/a
219.917	0.075	439834	keystroke_o	o	n/a
220.067	0.09	440134	keystroke_'	'	n/a
220.1875	0.1045	440375	keystroke_c	c	n/a
220.3075	0.044	440615	keystroke_l	l	n/a
220.4425	0.089	440885	keystroke_o	o	n/a
220.547	0.0895	441094	keystroke_c	c	n/a
220.622	0.0595	441244	keystroke_k	k	n/a
220.757	0.1045	441514	keystroke_Key.enter	Key.enter	n/a
220.8715	6.3225	441743	prompt	n/a	page katie assembled italiano\n
221.537	0.1055	443074	keystroke_p	p	n/a
221.6575	0.149	443315	keystroke_a	a	n/a
221.777	0.12	443554	keystroke_g	g	n/a
221.882	0.12	443764	keystroke_e	e	n/a
221.9715	0.105	443943	keystroke_Key.space	Key.space	n/a
222.032	0.0895	444064	keystroke_k	k	n/a
222.152	0.1345	444304	keystroke_a	a	n/a
222.2425	0.134	444485	keystroke_t	t	n/a
222.347	0.09	444694	keystroke_i	i	n/a
222.452	0.105	444904	keystroke_e	e	n/a
222.542	0.0895	445084	keystroke_Key.space	Key.space	n/a
222.647	0.1045	445294	keystroke_a	a	n/a
222.767	0.12	445534	keystroke_s	s	n/a
222.962	0.0745	445924	keystroke_e	e	n/a
223.142	0.1195	446284	keystroke_e	e	n/a
223.322	0.0895	446644	keystroke_m	m	n/a
223.4575	0.104	446915	keystroke_b	b	n/a
223.652	0.0895	447304	keystroke_l	l	n/a
223.757	0.0895	447514	keystroke_e	e	n/a
224.012	0.0595	448024	keystroke_Key.backspace	Key.backspace	n/a
224.1475	0.074	448295	keystroke_Key.backspace	Key.backspace	n/a
224.297	0.0745	448594	keystroke_Key.backspace	Key.backspace	n/a
224.447	0.0595	448894	keystroke_Key.backspace	Key.backspace	n/a
224.582	0.0745	449164	keystroke_Key.backspace	Key.backspace	n/a
224.747	0.06	449494	keystroke_Key.backspace	Key.backspace	n/a
224.972	0.0895	449944	keystroke_s	s	n/a
225.047	0.1345	450094	keystroke_e	e	n/a
225.167	0.09	450334	keystroke_m	m	n/a
225.272	0.105	450544	keystroke_b	b	n/a
225.392	0.075	450784	keystroke_l	l	n/a
225.452	0.0895	450904	keystroke_e	e	n/a
225.602	0.0895	451204	keystroke_d	d	n/a
225.7075	0.059	451415	keystroke_Key.space	Key.space	n/a
225.782	0.0895	451564	keystroke_t	t	n/a
226.052	0.06	452104	keystroke_Key.backspace	Key.backspace	n/a
226.247	0.1195	452494	keystroke_i	i	n/a
226.352	0.105	452704	keystroke_t	t	n/a
226.4425	0.134	452885	keystroke_a	a	n/a
226.562	0.105	453124	keystroke_l	l	n/a
226.622	0.1045	453244	keystroke_i	i	n/a
226.727	0.1045	453454	keystroke_a	a	n/a
226.832	0.1045	453664	keystroke_n	n	n/a
226.922	0.1045	453844	keystroke_o	o	n/a
227.117	0.0745	454234	keystroke_Key.enter	Key.enter	n/a
227.203	3.561	454406	prompt	n/a	subscribe calls face ranks\n
227.762	0.1045	455524	keystroke_s	s	n/a
227.867	0.1045	455734	keystroke_u	u	n/a
227.9575	0.104	455915	keystroke_b	b	n/a
228.092	0.0895	456184	keystroke_s	s	n/a
228.227	0.1045	456454	keystroke_c	c	n/a
228.407	0.075	456814	keystroke_r	r	n/a
228.497	0.0895	456994	keystroke_i	i	n/a
228.572	0.0895	457144	keystroke_b	b	n/a
228.707	0.1195	457414	keystroke_e	e	n/a
228.827	0.0595	457654	keystroke_Key.space	Key.space	n/a
228.947	0.0745	457894	keystroke_c	c	n/a
229.052	0.1495	458104	keystroke_a	a	n/a
229.157	0.0595	458314	keystroke_l	l	n/a
229.3075	0.074	458615	keystroke_l	l	n/a
229.3365	0.1355	458673	keystroke_s	s	n/a
229.442	0.0745	458884	keystroke_Key.space	Key.space	n/a
229.682	0.1345	459364	keystroke_f	f	n/a
229.787	0.0745	459574	keystroke_a	a	n/a
229.907	0.0895	459814	keystroke_c	c	n/a
230.0725	0.0895	460145	keystroke_e	e	n/a
230.147	0.075	460294	keystroke_Key.space	Key.space	n/a
230.237	0.105	460474	keystroke_r	r	n/a
230.312	0.1345	460624	keystroke_a	a	n/a
230.387	0.1195	460774	keystroke_n	n	n/a
230.477	0.09	460954	keystroke_k	k	n/a
230.5525	0.1045	461105	keystroke_s	s	n/a
230.702	0.0595	461404	keystroke_Key.enter	Key.enter	n/a
230.77	4.779	461540	prompt	n/a	rescue viewing weapon embedded\n
231.437	0.15	462874	keystroke_r	r	n/a
231.497	0.1495	462994	keystroke_e	e	n/a
231.602	0.12	463204	keystroke_s	s	n/a
231.812	0.0895	463624	keystroke_c	c	n/a
231.932	0.0895	463864	keystroke_u	u	n/a
232.037	0.0895	464074	keystroke_e	e	n/a
232.112	0.0895	464224	keystroke_Key.space	Key.space	n/a
232.217	0.0895	464434	keystroke_v	v	n/a
232.382	0.1045	464764	keystroke_i	i	n/a
232.502	0.1645	465004	keystroke_e	e	n/a
232.577	0.1495	465154	keystroke_w	w	n/a
232.712	0.1195	465424	keystroke_i	i	n/a
232.757	0.135	465514	keystroke_n	n	n/a
232.877	0.1195	465754	keystroke_g	g	n/a
232.952	0.0895	465904	keystroke_Key.space	Key.space	n/a
233.162	0.1495	466324	keystroke_w	w	n/a
233.237	0.1045	466474	keystroke_e	e	n/a
233.3575	0.119	466715	keystroke_a	a	n/a
233.447	0.0895	466894	keystroke_p	p	n/a
233.492	0.1195	466984	keystroke_o	o	n/a
233.537	0.12	467074	keystroke_n	n	n/a
233.642	0.1045	467284	keystroke_Key.space	Key.space	n/a
233.732	0.0895	467464	keystroke_w	w	n/a
234.002	0.0595	468004	keystroke_Key.backspace	Key.backspace	n/a
234.107	0.09	468214	keystroke_e	e	n/a
234.212	0.0745	468424	keystroke_m	m	n/a
234.332	0.015	468664	keystroke_b	b	n/a
234.437	0.1045	468874	keystroke_e	e	n/a
234.7225	0.1045	469445	keystroke_d	d	n/a
234.917	0.06	469834	keystroke_d	d	n/a
235.0825	0.0895	470165	keystroke_e	e	n/a
235.247	0.09	470494	keystroke_d	d	n/a
235.473	0.0735	470946	keystroke_Key.enter	Key.enter	n/a
235.5555	4.448	471111	prompt	n/a	horizontal weblog proxy progress\n
236.087	0.0895	472174	keystroke_h	h	n/a
236.162	0.1045	472324	keystroke_o	o	n/a
236.282	0.1045	472564	keystroke_r	r	n/a
236.3875	0.0895	472775	keystroke_i	i	n/a
236.492	0.0895	472984	keystroke_z	z	n/a
236.597	0.1195	473194	keystroke_o	o	n/a
236.642	0.1195	473284	keystroke_n	n	n/a
236.777	0.1045	473554	keystroke_t	t	n/a
236.837	0.1945	473674	keystroke_a	a	n/a
236.9725	0.0895	473945	keystroke_l	l	n/a
237.047	0.1045	474094	keystroke_Key.space	Key.space	n/a
237.437	0.0895	474874	keystroke_w	w	n/a
237.452	0.12	474904	keystroke_e	e	n/a
237.647	0.1045	475294	keystroke_b	b	n/a
237.707	0.075	475414	keystroke_l	l	n/a
237.842	0.1045	475684	keystroke_o	o	n/a
237.932	0.12	475864	keystroke_g	g	n/a
238.007	0.0895	476014	keystroke_Key.space	Key.space	n/a
238.082	0.1045	476164	keystroke_p	p	n/a
238.202	0.105	476404	keystroke_r	r	n/a
238.262	0.105	476524	keystroke_o	o	n/a
238.412	0.165	476824	keystroke_x	x	n/a
238.502	0.09	477004	keystroke_y	y	n/a
238.622	0.0745	477244	keystroke_Key.space	Key.space	n/a
238.712	0.12	477424	keystroke_p	p	n/a
238.817	0.1055	477634	keystroke_r	r	n/a
238.923	0.1035	477846	keystroke_o	o	n/a
239.012	0.0745	478024	keystroke_g	g	n/a
239.1625	0.1345	478325	keystroke_r	r	n/a
239.222	0.1195	478444	keystroke_e	e	n/a
239.312	0.0895	478624	keystroke_s	s	n/a
239.477	0.0895	478954	keystroke_s	s	n/a
239.927	0.0745	479854	keystroke_Key.enter	Key.enter	n/a
240.012	4.087	480024	prompt	n/a	jewish login valve declaration\n
240.632	0.105	481264	keystroke_j	j	n/a
240.722	0.1345	481444	keystroke_e	e	n/a
240.7975	0.149	481595	keystroke_w	w	n/a
240.932	0.105	481864	keystroke_i	i	n/a
241.052	0.1795	482104	keystroke_s	s	n/a
241.142	0.09	482284	keystroke_h	h	n/a
241.247	0.0895	482494	keystroke_Key.space	Key.space	n/a
241.352	0.0595	482704	keystroke_l	l	n/a
241.502	0.1045	483004	keystroke_o	o	n/a
241.592	0.12	483184	keystroke_g	g	n/a
241.6825	0.119	483365	keystroke_i	i	n/a
241.742	0.105	483484	keystroke_n	n	n/a
241.907	0.0895	483814	keystroke_Key.space	Key.space	n/a
242.012	0.1195	484024	keystroke_v	v	n/a
242.087	0.1645	484174	keystroke_a	a	n/a
242.237	0.1045	484474	keystroke_l	l	n/a
242.447	0.12	484894	keystroke_v	v	n/a
242.582	0.1195	485164	keystroke_e	e	n/a
242.687	0.0745	485374	keystroke_Key.space	Key.space	n/a
242.8225	0.044	485645	keystroke_d	d	n/a
242.972	0.0745	485944	keystroke_e	e	n/a
243.152	0.1045	486304	keystroke_c	c	n/a
243.242	0.0895	486484	keystroke_l	l	n/a
243.362	0.1045	486724	keystroke_a	a	n/a
243.4375	0.119	486875	keystroke_r	r	n/a
243.542	0.135	487084	keystroke_a	a	n/a
243.617	0.1345	487234	keystroke_t	t	n/a
243.692	0.1645	487384	keystroke_i	i	n/a
243.767	0.1045	487534	keystroke_o	o	n/a
243.812	0.1045	487624	keystroke_n	n	n/a
244.022	0.0745	488044	keystroke_Key.enter	Key.enter	n/a
244.107	3.7265	488214	prompt	n/a	wasn't seats applied refused\n
244.697	0.1045	489394	keystroke_w	w	n/a
244.817	0.0895	489634	keystroke_a	a	n/a
244.877	0.1345	489754	keystroke_s	s	n/a
244.982	0.1195	489964	keystroke_n	n	n/a
245.072	0.1045	490144	keystroke_'	'	n/a
245.162	0.1195	490324	keystroke_t	t	n/a
245.252	0.1045	490504	keystroke_Key.space	Key.space	n/a
245.372	0.15	490744	keystroke_s	s	n/a
245.492	0.1345	490984	keystroke_e	e	n/a
245.582	0.1645	491164	keystroke_a	a	n/a
245.702	0.1195	491404	keystroke_t	t	n/a
245.807	0.105	491614	keystroke_s	s	n/a
245.882	0.0895	491764	keystroke_Key.space	Key.space	n/a
245.972	0.12	491944	keystroke_a	a	n/a
246.062	0.0895	492124	keystroke_p	p	n/a
246.227	0.1045	492454	keystroke_p	p	n/a
246.407	0.135	492814	keystroke_l	l	n/a
246.482	0.1195	492964	keystroke_i	i	n/a
246.557	0.0595	493114	keystroke_e	e	n/a
246.677	0.1195	493354	keystroke_d	d	n/a
246.812	0.0595	493624	keystroke_Key.space	Key.space	n/a
246.872	0.1345	493744	keystroke_r	r	n/a
246.992	0.1045	493984	keystroke_e	e	n/a
247.232	0.1195	494464	keystroke_f	f	n/a
247.337	0.0895	494674	keystroke_u	u	n/a
247.442	0.1045	494884	keystroke_s	s	n/a
247.517	0.0745	495034	keystroke_e	e	n/a
247.667	0.0895	495334	keystroke_d	d	n/a
247.742	0.0895	495484	keystroke_Key.enter	Key.enter	n/a
247.841	7.5075	495682	prompt	n/a	case transportation profits where're\n
248.432	0.0745	496864	keystroke_c	c	n/a
248.5375	0.1495	497075	keystroke_a	a	n/a
248.6275	0.149	497255	keystroke_s	s	n/a
248.702	0.1345	497404	keystroke_e	e	n/a
248.807	0.0895	497614	keystroke_Key.space	Key.space	n/a
248.897	0.0745	497794	keystroke_t	t	n/a
249.047	0.1195	498094	keystroke_r	r	n/a
249.137	0.1045	498274	keystroke_a	a	n/a
249.212	0.1045	498424	keystroke_n	n	n/a
249.332	0.1045	498664	keystroke_s	s	n/a
249.4375	0.104	498875	keystroke_p	p	n/a
249.497	0.1345	498994	keystroke_o	o	n/a
249.617	0.0895	499234	keystroke_r	r	n/a
249.767	0.1195	499534	keystroke_t	t	n/a
249.9015	0.135	499803	keystroke_a	a	n/a
249.962	0.1045	499924	keystroke_t	t	n/a
250.0515	0.1505	500103	keystroke_i	i	n/a
250.097	0.1345	500194	keystroke_o	o	n/a
250.172	0.1045	500344	keystroke_n	n	n/a
250.262	0.09	500524	keystroke_Key.space	Key.space	n/a
250.337	0.1045	500674	keystroke_p	p	n/a
250.427	0.1045	500854	keystroke_r	r	n/a
250.517	0.135	501034	keystroke_o	o	n/a
250.607	0.0895	501214	keystroke_f	f	n/a
250.727	0.0895	501454	keystroke_i	i	n/a
250.787	0.1195	501574	keystroke_t	t	n/a
250.877	0.1195	501754	keystroke_s	s	n/a
250.967	0.0745	501934	keystroke_Key.space	Key.space	n/a
251.087	0.1045	502174	keystroke_w	w	n/a
251.177	0.075	502354	keystroke_h	h	n/a
251.267	0.1045	502534	keystroke_e	e	n/a
251.357	0.1345	502714	keystroke_r	r	n/a
251.477	0.0595	502954	keystroke_e	e	n/a
252.137	0.0745	504274	keystroke_Key.backspace	Key.backspace	n/a
252.287	0.0895	504574	keystroke_Key.backspace	Key.backspace	n/a
252.767	0.0895	505534	keystroke_e	e	n/a
253.142	0.0745	506284	keystroke_Key.backspace	Key.backspace	n/a
253.232	0.0895	506464	keystroke_r	r	n/a
253.292	0.0895	506584	keystroke_e	e	n/a
253.457	0.1045	506914	keystroke_'	'	n/a
253.577	0.075	507154	keystroke_r	r	n/a
253.622	0.0745	507244	keystroke_e	e	n/a
255.257	0.0895	510514	keystroke_Key.enter	Key.enter	n/a
255.356	3.788	510712	prompt	n/a	inputs alumni greene anger\n
255.947	0.1195	511894	keystroke_i	i	n/a
256.007	0.1045	512014	keystroke_n	n	n/a
256.157	0.1195	512314	keystroke_p	p	n/a
256.217	0.1045	512434	keystroke_u	u	n/a
256.292	0.1045	512584	keystroke_t	t	n/a
256.3525	0.119	512705	keystroke_s	s	n/a
256.427	0.0895	512854	keystroke_Key.space	Key.space	n/a
256.532	0.1345	513064	keystroke_a	a	n/a
256.592	0.1045	513184	keystroke_l	l	n/a
256.682	0.0895	513364	keystroke_u	u	n/a
256.877	0.0895	513754	keystroke_m	m	n/a
257.057	0.1345	514114	keystroke_n	n	n/a
257.147	0.105	514294	keystroke_i	i	n/a
257.297	0.0745	514594	keystroke_Key.space	Key.space	n/a
257.3575	0.104	514715	keystroke_g	g	n/a
257.537	0.0895	515074	keystroke_r	r	n/a
257.612	0.0595	515224	keystroke_e	e	n/a
257.747	0.0895	515494	keystroke_e	e	n/a
257.822	0.0895	515644	keystroke_n	n	n/a
257.942	0.0895	515884	keystroke_e	e	n/a
258.047	0.0745	516094	keystroke_Key.space	Key.space	n/a
258.512	0.1495	517024	keystroke_a	a	n/a
258.6025	0.089	517205	keystroke_n	n	n/a
258.707	0.0895	517414	keystroke_g	g	n/a
258.842	0.1195	517684	keystroke_e	e	n/a
258.917	0.1045	517834	keystroke_r	r	n/a
259.052	0.0895	518104	keystroke_Key.enter	Key.enter	n/a
259.1525	3.711	518305	prompt	n/a	fighter consult polo nice\n
259.742	0.0895	519484	keystroke_f	f	n/a
259.7875	0.104	519575	keystroke_i	i	n/a
259.9215	0.09	519843	keystroke_g	g	n/a
259.982	0.0895	519964	keystroke_h	h	n/a
260.0865	0.105	520173	keystroke_t	t	n/a
260.207	0.1495	520414	keystroke_e	e	n/a
260.297	0.1195	520594	keystroke_r	r	n/a
260.387	0.0895	520774	keystroke_Key.space	Key.space	n/a
260.537	0.1045	521074	keystroke_c	c	n/a
260.612	0.105	521224	keystroke_o	o	n/a
260.6575	0.104	521315	keystroke_n	n	n/a
260.732	0.1045	521464	keystroke_s	s	n/a
260.807	0.0895	521614	keystroke_o	o	n/a
261.197	0.0445	522394	keystroke_Key.backspace	Key.backspace	n/a
261.347	0.0895	522694	keystroke_u	u	n/a
261.482	0.1045	522964	keystroke_l	l	n/a
261.557	0.1195	523114	keystroke_t	t	n/a
261.647	0.105	523294	keystroke_Key.space	Key.space	n/a
261.707	0.1045	523414	keystroke_p	p	n/a
261.857	0.06	523714	keystroke_o	o	n/a
262.037	0.0595	524074	keystroke_l	l	n/a
262.2025	0.0745	524405	keystroke_o	o	n/a
262.292	0.1195	524584	keystroke_Key.space	Key.space	n/a
262.397	0.1045	524794	keystroke_n	n	n/a
262.472	0.09	524944	keystroke_i	i	n/a
262.517	0.0745	525034	keystroke_c	c	n/a
262.682	0.0895	525364	keystroke_e	e	n/a
262.787	0.0745	525574	keystroke_Key.enter	Key.enter	n/a
262.8715	3.982	525743	prompt	n/a	confident prozac paris joyce\n
263.447	0.1045	526894	keystroke_c	c	n/a
263.537	0.09	527074	keystroke_o	o	n/a
263.567	0.0895	527134	keystroke_n	n	n/a
263.657	0.1045	527314	keystroke_f	f	n/a
263.747	0.0895	527494	keystroke_i	i	n/a
263.822	0.0895	527644	keystroke_d	d	n/a
263.972	0.0895	527944	keystroke_e	e	n/a
264.062	0.0895	528124	keystroke_n	n	n/a
264.137	0.1195	528274	keystroke_t	t	n/a
264.197	0.1195	528394	keystroke_Key.space	Key.space	n/a
264.302	0.1045	528604	keystroke_p	p	n/a
264.452	0.1195	528904	keystroke_r	r	n/a
264.497	0.1195	528994	keystroke_o	o	n/a
265.022	0.0895	530044	keystroke_z	z	n/a
265.232	0.1045	530464	keystroke_a	a	n/a
265.397	0.1345	530794	keystroke_c	c	n/a
265.5175	0.0895	531035	keystroke_Key.space	Key.space	n/a
265.622	0.1195	531244	keystroke_p	p	n/a
265.757	0.1355	531514	keystroke_a	a	n/a
265.8175	0.134	531635	keystroke_r	r	n/a
265.9225	0.0745	531845	keystroke_i	i	n/a
266.012	0.1195	532024	keystroke_s	s	n/a
266.057	0.1195	532114	keystroke_Key.space	Key.space	n/a
266.1175	0.104	532235	keystroke_j	j	n/a
266.192	0.1045	532384	keystroke_o	o	n/a
266.327	0.09	532654	keystroke_y	y	n/a
266.4025	0.089	532805	keystroke_c	c	n/a
266.5675	0.0895	533135	keystroke_e	e	n/a
266.762	0.087	533524	keystroke_Key.enter	Key.enter	n/a
266.862	4.0265	533724	prompt	n/a	french airfare layers copies\n
267.4375	0.074	534875	keystroke_f	f	n/a
267.587	0.1195	535174	keystroke_r	r	n/a
267.677	0.1045	535354	keystroke_e	e	n/a
267.752	0.1045	535504	keystroke_n	n	n/a
267.902	0.1345	535804	keystroke_c	c	n/a
267.992	0.0895	535984	keystroke_h	h	n/a
268.097	0.0745	536194	keystroke_Key.space	Key.space	n/a
268.187	0.165	536374	keystroke_a	a	n/a
268.337	0.0745	536674	keystroke_i	i	n/a
268.397	0.0895	536794	keystroke_r	r	n/a
268.577	0.09	537154	keystroke_f	f	n/a
268.682	0.1495	537364	keystroke_a	a	n/a
268.892	0.1195	537784	keystroke_r	r	n/a
268.967	0.1195	537934	keystroke_e	e	n/a
269.072	0.1045	538144	keystroke_Key.space	Key.space	n/a
269.207	0.1045	538414	keystroke_l	l	n/a
269.312	0.1355	538624	keystroke_a	a	n/a
269.417	0.0895	538834	keystroke_y	y	n/a
269.492	0.0895	538984	keystroke_e	e	n/a
269.5675	0.119	539135	keystroke_r	r	n/a
269.6275	0.104	539255	keystroke_s	s	n/a
269.703	0.0735	539406	keystroke_Key.space	Key.space	n/a
269.837	0.0895	539674	keystroke_c	c	n/a
269.912	0.165	539824	keystroke_o	o	n/a
269.972	0.135	539944	keystroke_p	p	n/a
270.092	0.0745	540184	keystroke_i	i	n/a
270.152	0.0745	540304	keystroke_e	e	n/a
270.302	0.06	540604	keystroke_d	d	n/a
270.587	0.0595	541174	keystroke_Key.backspace	Key.backspace	n/a
270.662	0.1195	541324	keystroke_s	s	n/a
270.812	0.0745	541624	keystroke_Key.enter	Key.enter	n/a
270.8975	4.266	541795	prompt	n/a	compensation stores studying tissue\n
271.6825	0.089	543365	keystroke_c	c	n/a
271.727	0.105	543454	keystroke_o	o	n/a
271.787	0.1045	543574	keystroke_m	m	n/a
271.997	0.1045	543994	keystroke_p	p	n/a
272.1175	0.074	544235	keystroke_e	e	n/a
272.222	0.09	544444	keystroke_n	n	n/a
272.327	0.1195	544654	keystroke_s	s	n/a
272.492	0.1645	544984	keystroke_a	a	n/a
272.582	0.15	545164	keystroke_t	t	n/a
272.7175	0.134	545435	keystroke_i	i	n/a
272.762	0.12	545524	keystroke_o	o	n/a
272.822	0.0895	545644	keystroke_n	n	n/a
272.912	0.0895	545824	keystroke_Key.space	Key.space	n/a
272.957	0.1645	545914	keystroke_s	s	n/a
273.077	0.1045	546154	keystroke_t	t	n/a
273.167	0.1045	546334	keystroke_o	o	n/a
273.272	0.1495	546544	keystroke_r	r	n/a
273.332	0.1345	546664	keystroke_e	e	n/a
273.377	0.1195	546754	keystroke_s	s	n/a
273.482	0.0895	546964	keystroke_Key.space	Key.space	n/a
273.602	0.1195	547204	keystroke_s	s	n/a
273.692	0.1195	547384	keystroke_t	t	n/a
273.797	0.0745	547594	keystroke_u	u	n/a
273.857	0.1045	547714	keystroke_d	d	n/a
273.947	0.0895	547894	keystroke_y	y	n/a
274.112	0.1345	548224	keystroke_i	i	n/a
274.172	0.1045	548344	keystroke_n	n	n/a
274.262	0.09	548524	keystroke_g	g	n/a
274.322	0.0895	548644	keystroke_Key.space	Key.space	n/a
274.442	0.1045	548884	keystroke_t	t	n/a
274.502	0.075	549004	keystroke_i	i	n/a
274.622	0.0895	549244	keystroke_s	s	n/a
274.787	0.0895	549574	keystroke_s	s	n/a
274.892	0.0745	549784	keystroke_u	u	n/a
274.952	0.0895	549904	keystroke_e	e	n/a
275.072	0.0895	550144	keystroke_Key.enter	Key.enter	n/a
275.1705	3.368	550341	prompt	n/a	likely till stake tactics\n
275.777	0.1045	551554	keystroke_l	l	n/a
275.837	0.0895	551674	keystroke_i	i	n/a
276.002	0.1195	552004	keystroke_k	k	n/a
276.107	0.1045	552214	keystroke_e	e	n/a
276.227	0.12	552454	keystroke_l	l	n/a
276.302	0.1045	552604	keystroke_y	y	n/a
276.422	0.0745	552844	keystroke_Key.space	Key.space	n/a
276.4825	0.1045	552965	keystroke_t	t	n/a
276.542	0.0745	553084	keystroke_i	i	n/a
276.692	0.0595	553384	keystroke_l	l	n/a
276.812	0.0895	553624	keystroke_l	l	n/a
276.917	0.0895	553834	keystroke_Key.space	Key.space	n/a
276.992	0.105	553984	keystroke_s	s	n/a
277.082	0.1045	554164	keystroke_t	t	n/a
277.157	0.1495	554314	keystroke_a	a	n/a
277.262	0.0895	554524	keystroke_k	k	n/a
277.352	0.0895	554704	keystroke_e	e	n/a
277.427	0.0745	554854	keystroke_Key.space	Key.space	n/a
277.487	0.1345	554974	keystroke_t	t	n/a
277.6075	0.059	555215	keystroke_a	a	n/a
277.742	0.09	555484	keystroke_c	c	n/a
277.922	0.0895	555844	keystroke_t	t	n/a
278.027	0.0745	556054	keystroke_i	i	n/a
278.1175	0.104	556235	keystroke_c	c	n/a
278.192	0.1345	556384	keystroke_s	s	n/a
278.447	0.0895	556894	keystroke_Key.enter	Key.enter	n/a
278.5455	6.1885	557091	prompt	n/a	hydrocodone bars platinum switching\n
279.227	0.075	558454	keystroke_h	h	n/a
279.407	0.0895	558814	keystroke_y	y	n/a
279.692	0.0895	559384	keystroke_d	d	n/a
279.827	0.1195	559654	keystroke_r	r	n/a
279.917	0.0895	559834	keystroke_o	o	n/a
280.082	0.0895	560164	keystroke_c	c	n/a
280.172	0.0745	560344	keystroke_o	o	n/a
280.277	0.1055	560554	keystroke_d	d	n/a
280.383	0.1185	560766	keystroke_o	o	n/a
280.442	0.075	560884	keystroke_n	n	n/a
280.532	0.0895	561064	keystroke_e	e	n/a
280.607	0.0895	561214	keystroke_Key.space	Key.space	n/a
280.742	0.075	561484	keystroke_b	b	n/a
281.252	0.1345	562504	keystroke_a	a	n/a
281.312	0.0895	562624	keystroke_r	r	n/a
281.912	0.1195	563824	keystroke_s	s	n/a
282.0325	0.089	564065	keystroke_Key.space	Key.space	n/a
282.167	0.0895	564334	keystroke_p	p	n/a
282.302	0.1045	564604	keystroke_l	l	n/a
282.392	0.1345	564784	keystroke_a	a	n/a
282.482	0.1195	564964	keystroke_t	t	n/a
282.572	0.105	565144	keystroke_i	i	n/a
283.157	0.0895	566314	keystroke_n	n	n/a
283.367	0.0595	566734	keystroke_u	u	n/a
283.5325	0.074	567065	keystroke_m	m	n/a
283.637	0.0745	567274	keystroke_Key.space	Key.space	n/a
283.727	0.0595	567454	keystroke_s	s	n/a
283.877	0.0745	567754	keystroke_w	w	n/a
283.922	0.075	567844	keystroke_i	i	n/a
284.027	0.0745	568054	keystroke_t	t	n/a
284.177	0.1195	568354	keystroke_c	c	n/a
284.252	0.09	568504	keystroke_h	h	n/a
284.327	0.1495	568654	keystroke_i	i	n/a
284.417	0.0895	568834	keystroke_n	n	n/a
284.522	0.0745	569044	keystroke_g	g	n/a
284.672	0.0595	569344	keystroke_Key.enter	Key.enter	n/a
284.7415	4.2825	569483	prompt	n/a	spain responses accepting century\n
285.317	0.105	570634	keystroke_s	s	n/a
285.437	0.0895	570874	keystroke_p	p	n/a
285.542	0.1495	571084	keystroke_a	a	n/a
285.6325	0.104	571265	keystroke_i	i	n/a
285.677	0.1045	571354	keystroke_n	n	n/a
285.797	0.1195	571594	keystroke_Key.space	Key.space	n/a
285.872	0.1645	571744	keystroke_r	r	n/a
285.932	0.1345	571864	keystroke_e	e	n/a
286.052	0.1045	572104	keystroke_s	s	n/a
286.202	0.1195	572404	keystroke_p	p	n/a
286.232	0.1645	572464	keystroke_o	o	n/a
286.307	0.1495	572614	keystroke_n	n	n/a
286.412	0.1045	572824	keystroke_s	s	n/a
286.487	0.1045	572974	keystroke_e	e	n/a
286.637	0.1195	573274	keystroke_s	s	n/a
286.757	0.075	573514	keystroke_Key.space	Key.space	n/a
286.8615	0.075	573723	keystroke_a	a	n/a
287.012	0.0745	574024	keystroke_c	c	n/a
287.177	0.0445	574354	keystroke_c	c	n/a
287.327	0.0895	574654	keystroke_e	e	n/a
287.417	0.1045	574834	keystroke_p	p	n/a
287.507	0.1045	575014	keystroke_t	t	n/a
287.627	0.1045	575254	keystroke_i	i	n/a
287.672	0.1195	575344	keystroke_n	n	n/a
287.717	0.1345	575434	keystroke_g	g	n/a
287.837	0.0745	575674	keystroke_Key.space	Key.space	n/a
287.942	0.075	575884	keystroke_c	c	n/a
288.107	0.0895	576214	keystroke_e	e	n/a
288.212	0.1045	576424	keystroke_n	n	n/a
288.287	0.1045	576574	keystroke_t	t	n/a
288.467	0.0895	576934	keystroke_u	u	n/a
288.4825	0.134	576965	keystroke_r	r	n/a
288.662	0.0745	577324	keystroke_y	y	n/a
288.917	0.105	577834	keystroke_Key.enter	Key.enter	n/a
289.032	4.1765	578064	prompt	n/a	discussions estates a offerings\n
289.592	0.105	579184	keystroke_d	d	n/a
289.712	0.1045	579424	keystroke_i	i	n/a
289.802	0.0745	579604	keystroke_s	s	n/a
289.967	0.0745	579934	keystroke_c	c	n/a
290.0275	0.089	580055	keystroke_u	u	n/a
290.132	0.0745	580264	keystroke_s	s	n/a
290.282	0.1345	580564	keystroke_s	s	n/a
290.372	0.165	580744	keystroke_i	i	n/a
290.4475	0.104	580895	keystroke_o	o	n/a
290.507	0.1045	581014	keystroke_n	n	n/a
290.912	0.1195	581824	keystroke_s	s	n/a
291.047	0.09	582094	keystroke_Key.space	Key.space	n/a
291.167	0.1345	582334	keystroke_e	e	n/a
291.287	0.135	582574	keystroke_s	s	n/a
291.407	0.1195	582814	keystroke_t	t	n/a
291.542	0.1345	583084	keystroke_a	a	n/a
291.632	0.1045	583264	keystroke_t	t	n/a
291.692	0.1495	583384	keystroke_e	e	n/a
291.767	0.105	583534	keystroke_s	s	n/a
291.857	0.1195	583714	keystroke_Key.space	Key.space	n/a
291.992	0.1195	583984	keystroke_a	a	n/a
292.097	0.0745	584194	keystroke_Key.space	Key.space	n/a
292.187	0.0895	584374	keystroke_o	o	n/a
292.292	0.0595	584584	keystroke_f	f	n/a
292.427	0.09	584854	keystroke_f	f	n/a
292.532	0.1195	585064	keystroke_e	e	n/a
292.622	0.12	585244	keystroke_r	r	n/a
292.757	0.1195	585514	keystroke_i	i	n/a
292.817	0.105	585634	keystroke_n	n	n/a
292.892	0.0895	585784	keystroke_g	g	n/a
292.9825	0.1045	585965	keystroke_s	s	n/a
293.117	0.09	586234	keystroke_Key.enter	Key.enter	n/a
293.216	3.893	586432	prompt	n/a	stronger camera bonus recorder\n
293.763	0.1035	587526	keystroke_s	s	n/a
293.882	0.0745	587764	keystroke_t	t	n/a
294.032	0.1045	588064	keystroke_r	r	n/a
294.107	0.105	588214	keystroke_o	o	n/a
294.152	0.1045	588304	keystroke_n	n	n/a
294.242	0.0895	588484	keystroke_g	g	n/a
294.377	0.1345	588754	keystroke_e	e	n/a
294.452	0.1195	588904	keystroke_r	r	n/a
294.557	0.0895	589114	keystroke_Key.space	Key.space	n/a
294.752	0.0595	589504	keystroke_c	c	n/a
294.827	0.1495	589654	keystroke_a	a	n/a
294.947	0.105	589894	keystroke_m	m	n/a
295.067	0.09	590134	keystroke_e	e	n/a
295.127	0.1645	590254	keystroke_r	r	n/a
295.232	0.12	590464	keystroke_a	a	n/a
295.322	0.0745	590644	keystroke_Key.space	Key.space	n/a
295.427	0.135	590854	keystroke_b	b	n/a
295.517	0.1045	591034	keystroke_o	o	n/a
295.5775	0.0895	591155	keystroke_n	n	n/a
295.787	0.0895	591574	keystroke_u	u	n/a
295.892	0.105	591784	keystroke_s	s	n/a
295.982	0.09	591964	keystroke_Key.space	Key.space	n/a
296.102	0.1045	592204	keystroke_r	r	n/a
296.177	0.0595	592354	keystroke_e	e	n/a
296.357	0.075	592714	keystroke_c	c	n/a
296.4475	0.0895	592895	keystroke_o	o	n/a
296.522	0.1195	593044	keystroke_r	r	n/a
296.627	0.09	593254	keystroke_d	d	n/a
296.778	0.119	593556	keystroke_e	e	n/a
296.852	0.12	593704	keystroke_r	r	n/a
297.002	0.105	594004	keystroke_Key.enter	Key.enter	n/a
297.116	4.688	594232	prompt	n/a	atmospheric alerts seventh advertising\n
297.677	0.135	595354	keystroke_a	a	n/a
297.7975	0.119	595595	keystroke_t	t	n/a
297.917	0.1195	595834	keystroke_m	m	n/a
297.992	0.09	595984	keystroke_o	o	n/a
298.1125	0.1045	596225	keystroke_s	s	n/a
298.2325	0.1195	596465	keystroke_p	p	n/a
298.277	0.1195	596554	keystroke_h	h	n/a
298.367	0.09	596734	keystroke_e	e	n/a
298.427	0.1045	596854	keystroke_r	r	n/a
298.517	0.1045	597034	keystroke_i	i	n/a
298.652	0.1195	597304	keystroke_c	c	n/a
298.772	0.09	597544	keystroke_Key.space	Key.space	n/a
298.937	0.12	597874	keystroke_a	a	n/a
299.042	0.0895	598084	keystroke_l	l	n/a
299.117	0.09	598234	keystroke_e	e	n/a
299.177	0.09	598354	keystroke_r	r	n/a
299.342	0.1345	598684	keystroke_t	t	n/a
299.462	0.105	598924	keystroke_s	s	n/a
299.537	0.1045	599074	keystroke_Key.space	Key.space	n/a
299.672	0.1495	599344	keystroke_s	s	n/a
299.852	0.09	599704	keystroke_e	e	n/a
299.987	0.0895	599974	keystroke_v	v	n/a
300.0625	0.1345	600125	keystroke_e	e	n/a
300.152	0.1045	600304	keystroke_n	n	n/a
300.272	0.1195	600544	keystroke_t	t	n/a
300.3625	0.089	600725	keystroke_h	h	n/a
300.4675	0.089	600935	keystroke_Key.space	Key.space	n/a
300.542	0.12	601084	keystroke_a	a	n/a
300.632	0.1045	601264	keystroke_d	d	n/a
300.782	0.075	601564	keystroke_v	v	n/a
300.917	0.1195	601834	keystroke_e	e	n/a
300.992	0.0895	601984	keystroke_r	r	n/a
301.172	0.09	602344	keystroke_t	t	n/a
301.277	0.0895	602554	keystroke_i	i	n/a
301.352	0.1345	602704	keystroke_s	s	n/a
301.472	0.1045	602944	keystroke_i	i	n/a
301.517	0.12	603034	keystroke_n	n	n/a
301.622	0.0745	603244	keystroke_g	g	n/a
301.7125	0.089	603425	keystroke_Key.enter	Key.enter	n/a
301.8115	4.0425	603623	prompt	n/a	intranet bahrain steering search\n
302.402	0.1045	604804	keystroke_i	i	n/a
302.447	0.12	604894	keystroke_n	n	n/a
302.537	0.09	605074	keystroke_t	t	n/a
302.687	0.135	605374	keystroke_r	r	n/a
302.7775	0.149	605555	keystroke_a	a	n/a
302.927	0.1045	605854	keystroke_n	n	n/a
303.047	0.0895	606094	keystroke_e	e	n/a
303.1075	0.1195	606215	keystroke_t	t	n/a
303.213	0.0885	606426	keystroke_Key.space	Key.space	n/a
303.3625	0.089	606725	keystroke_b	b	n/a
303.572	0.105	607144	keystroke_a	a	n/a
303.647	0.0895	607294	keystroke_h	h	n/a
303.752	0.1045	607504	keystroke_r	r	n/a
303.8275	0.1495	607655	keystroke_a	a	n/a
303.9475	0.104	607895	keystroke_i	i	n/a
303.992	0.105	607984	keystroke_n	n	n/a
304.082	0.09	608164	keystroke_Key.space	Key.space	n/a
304.187	0.1195	608374	keystroke_s	s	n/a
304.292	0.12	608584	keystroke_t	t	n/a
304.397	0.0745	608794	keystroke_e	e	n/a
304.532	0.1345	609064	keystroke_e	e	n/a
304.652	0.1045	609304	keystroke_r	r	n/a
304.742	0.1045	609484	keystroke_i	i	n/a
304.802	0.0895	609604	keystroke_n	n	n/a
304.877	0.1045	609754	keystroke_g	g	n/a
304.967	0.0895	609934	keystroke_Key.space	Key.space	n/a
305.072	0.1195	610144	keystroke_s	s	n/a
305.132	0.1495	610264	keystroke_e	e	n/a
305.237	0.1345	610474	keystroke_a	a	n/a
305.312	0.1045	610624	keystroke_r	r	n/a
305.522	0.105	611044	keystroke_c	c	n/a
305.582	0.0745	611164	keystroke_h	h	n/a
305.7625	0.089	611525	keystroke_Key.enter	Key.enter	n/a
305.8645	4.099	611729	prompt	n/a	begins observe widespread kenya\n
306.467	0.0895	612934	keystroke_b	b	n/a
306.602	0.1195	613204	keystroke_e	e	n/a
306.692	0.1195	613384	keystroke_g	g	n/a
306.782	0.105	613564	keystroke_i	i	n/a
306.827	0.0895	613654	keystroke_n	n	n/a
306.902	0.1345	613804	keystroke_s	s	n/a
307.007	0.1195	614014	keystroke_Key.space	Key.space	n/a
307.082	0.105	614164	keystroke_o	o	n/a
307.232	0.0745	614464	keystroke_b	b	n/a
307.457	0.12	614914	keystroke_s	s	n/a
307.532	0.1045	615064	keystroke_e	e	n/a
307.607	0.09	615214	keystroke_r	r	n/a
307.907	0.0145	615814	keystroke_v	v	n/a
307.922	0.105	615844	keystroke_e	e	n/a
308.012	0.0895	616024	keystroke_Key.space	Key.space	n/a
308.117	0.1195	616234	keystroke_w	w	n/a
308.222	0.0745	616444	keystroke_i	i	n/a
308.312	0.075	616624	keystroke_d	d	n/a
308.462	0.0895	616924	keystroke_e	e	n/a
308.642	0.135	617284	keystroke_s	s	n/a
308.7625	0.074	617525	keystroke_p	p	n/a
308.867	0.135	617734	keystroke_r	r	n/a
308.927	0.105	617854	keystroke_e	e	n/a
309.017	0.135	618034	keystroke_a	a	n/a
309.137	0.1195	618274	keystroke_d	d	n/a
309.242	0.09	618484	keystroke_Key.space	Key.space	n/a
309.3175	0.074	618635	keystroke_k	k	n/a
309.407	0.1345	618814	keystroke_e	e	n/a
309.482	0.0745	618964	keystroke_n	n	n/a
309.662	0.0895	619324	keystroke_y	y	n/a
309.767	0.12	619534	keystroke_a	a	n/a
309.902	0.0595	619804	keystroke_Key.enter	Key.enter	n/a
309.972	3.174	619944	prompt	n/a	trailer loved pale dist\n
310.727	0.09	621454	keystroke_t	t	n/a
310.8915	0.12	621783	keystroke_r	r	n/a
310.967	0.135	621934	keystroke_a	a	n/a
311.117	0.12	622234	keystroke_i	i	n/a
311.1625	0.134	622325	keystroke_l	l	n/a
311.252	0.1345	622504	keystroke_e	e	n/a
311.3125	0.149	622625	keystroke_r	r	n/a
311.417	0.0895	622834	keystroke_Key.space	Key.space	n/a
311.522	0.0745	623044	keystroke_l	l	n/a
311.702	0.1045	623404	keystroke_o	o	n/a
311.762	0.0895	623524	keystroke_v	v	n/a
311.837	0.06	623674	keystroke_e	e	n/a
311.972	0.1195	623944	keystroke_d	d	n/a
312.062	0.1045	624124	keystroke_Key.space	Key.space	n/a
312.1525	0.104	624305	keystroke_p	p	n/a
312.287	0.1495	624574	keystroke_a	a	n/a
312.3775	0.104	624755	keystroke_l	l	n/a
312.467	0.1195	624934	keystroke_e	e	n/a
312.6025	0.0745	625205	keystroke_Key.space	Key.space	n/a
312.707	0.1045	625414	keystroke_d	d	n/a
312.797	0.0745	625594	keystroke_i	i	n/a
312.902	0.1045	625804	keystroke_s	s	n/a
312.962	0.105	625924	keystroke_t	t	n/a
313.082	0.0595	626164	keystroke_Key.enter	Key.enter	n/a
313.156	4.518	626312	prompt	n/a	arbor marilyn national successful\n
313.862	0.135	627724	keystroke_a	a	n/a
314.072	0.09	628144	keystroke_r	r	n/a
314.267	0.075	628534	keystroke_b	b	n/a
314.372	0.0745	628744	keystroke_o	o	n/a
314.4625	0.1195	628925	keystroke_r	r	n/a
314.537	0.1345	629074	keystroke_Key.space	Key.space	n/a
314.657	0.105	629314	keystroke_m	m	n/a
314.747	0.1045	629494	keystroke_a	a	n/a
314.7925	0.1195	629585	keystroke_r	r	n/a
314.897	0.1345	629794	keystroke_i	i	n/a
314.972	0.1345	629944	keystroke_l	l	n/a
315.0925	0.089	630185	keystroke_y	y	n/a
315.302	0.09	630604	keystroke_n	n	n/a
315.437	0.09	630874	keystroke_Key.space	Key.space	n/a
315.542	0.075	631084	keystroke_n	n	n/a
315.632	0.1045	631264	keystroke_a	a	n/a
315.6775	0.119	631355	keystroke_t	t	n/a
315.752	0.15	631504	keystroke_i	i	n/a
315.812	0.1045	631624	keystroke_o	o	n/a
315.857	0.105	631714	keystroke_n	n	n/a
315.932	0.135	631864	keystroke_a	a	n/a
316.007	0.105	632014	keystroke_l	l	n/a
316.127	0.0895	632254	keystroke_Key.space	Key.space	n/a
316.232	0.0745	632464	keystroke_s	s	n/a
316.322	0.0745	632644	keystroke_u	u	n/a
316.4425	0.074	632885	keystroke_c	c	n/a
316.5775	0.074	633155	keystroke_c	c	n/a
316.757	0.0745	633514	keystroke_e	e	n/a
316.8475	0.1045	633695	keystroke_s	s	n/a
317.042	0.1045	634084	keystroke_s	s	n/a
317.162	0.12	634324	keystroke_f	f	n/a
317.222	0.105	634444	keystroke_u	u	n/a
317.3425	0.104	634685	keystroke_l	l	n/a
317.597	0.0745	635194	keystroke_Key.enter	Key.enter	n/a
317.683	3.6805	635366	prompt	n/a	close watson adding atomic\n
318.3925	0.089	636785	keystroke_c	c	n/a
318.512	0.045	637024	keystroke_l	l	n/a
318.632	0.1045	637264	keystroke_o	o	n/a
318.722	0.18	637444	keystroke_s	s	n/a
318.812	0.1345	637624	keystroke_e	e	n/a
318.917	0.1195	637834	keystroke_Key.space	Key.space	n/a
319.052	0.09	638104	keystroke_w	w	n/a
319.157	0.1345	638314	keystroke_a	a	n/a
319.262	0.12	638524	keystroke_t	t	n/a
319.8925	0.119	639785	keystroke_s	s	n/a
319.967	0.1195	639934	keystroke_o	o	n/a
320.012	0.1345	640024	keystroke_n	n	n/a
320.132	0.0895	640264	keystroke_Key.space	Key.space	n/a
320.207	0.09	640414	keystroke_a	a	n/a
320.282	0.0745	640564	keystroke_d	d	n/a
320.417	0.1045	640834	keystroke_d	d	n/a
320.537	0.105	641074	keystroke_i	i	n/a
320.5825	0.104	641165	keystroke_n	n	n/a
320.627	0.1195	641254	keystroke_g	g	n/a
320.717	0.075	641434	keystroke_Key.space	Key.space	n/a
320.777	0.1345	641554	keystroke_a	a	n/a
320.852	0.1195	641704	keystroke_t	t	n/a
320.927	0.0895	641854	keystroke_o	o	n/a
320.972	0.1345	641944	keystroke_m	m	n/a
321.0775	0.089	642155	keystroke_i	i	n/a
321.152	0.09	642304	keystroke_c	c	n/a
321.272	0.0895	642544	keystroke_Key.enter	Key.enter	n/a
321.371	3.8475	642742	prompt	n/a	vitamins median where're maybe\n
322.022	0.0895	644044	keystroke_v	v	n/a
322.097	0.0895	644194	keystroke_i	i	n/a
322.217	0.1045	644434	keystroke_t	t	n/a
322.2925	0.1345	644585	keystroke_a	a	n/a
322.367	0.0895	644734	keystroke_m	m	n/a
322.472	0.12	644944	keystroke_i	i	n/a
322.532	0.12	645064	keystroke_n	n	n/a
322.637	0.1045	645274	keystroke_s	s	n/a
322.712	0.09	645424	keystroke_Key.space	Key.space	n/a
322.802	0.09	645604	keystroke_m	m	n/a
322.907	0.0745	645814	keystroke_e	e	n/a
323.072	0.0895	646144	keystroke_d	d	n/a
323.222	0.1045	646444	keystroke_i	i	n/a
323.342	0.1495	646684	keystroke_a	a	n/a
323.432	0.0895	646864	keystroke_n	n	n/a
323.537	0.09	647074	keystroke_Key.space	Key.space	n/a
323.612	0.105	647224	keystroke_w	w	n/a
323.702	0.075	647404	keystroke_h	h	n/a
323.807	0.1195	647614	keystroke_e	e	n/a
323.897	0.1195	647794	keystroke_r	r	n/a
324.002	0.0895	648004	keystroke_e	e	n/a
324.122	0.1045	648244	keystroke_'	'	n/a
324.2425	0.089	648485	keystroke_r	r	n/a
324.302	0.09	648604	keystroke_e	e	n/a
324.422	0.0895	648844	keystroke_Key.space	Key.space	n/a
324.587	0.1045	649174	keystroke_m	m	n/a
324.7075	0.134	649415	keystroke_a	a	n/a
324.812	0.0745	649624	keystroke_y	y	n/a
324.902	0.0895	649804	keystroke_b	b	n/a
325.037	0.1045	650074	keystroke_e	e	n/a
325.127	0.0895	650254	keystroke_Key.enter	Key.enter	n/a
325.2235	4.03	650447	prompt	n/a	pregnancy licensing fifty opera\n
325.862	0.1195	651724	keystroke_p	p	n/a
325.9375	0.179	651875	keystroke_r	r	n/a
326.087	0.09	652174	keystroke_e	e	n/a
326.237	0.0895	652474	keystroke_g	g	n/a
326.342	0.105	652684	keystroke_n	n	n/a
326.477	0.1195	652954	keystroke_a	a	n/a
326.537	0.1195	653074	keystroke_n	n	n/a
326.702	0.1495	653404	keystroke_c	c	n/a
326.7475	0.089	653495	keystroke_y	y	n/a
326.912	0.09	653824	keystroke_Key.space	Key.space	n/a
326.972	0.105	653944	keystroke_l	l	n/a
327.122	0.1345	654244	keystroke_i	i	n/a
327.302	0.0745	654604	keystroke_c	c	n/a
327.467	0.075	654934	keystroke_e	e	n/a
327.587	0.1045	655174	keystroke_n	n	n/a
327.662	0.105	655324	keystroke_s	s	n/a
327.8125	0.074	655625	keystroke_i	i	n/a
327.8275	0.104	655655	keystroke_n	n	n/a
327.872	0.1195	655744	keystroke_g	g	n/a
327.9775	0.074	655955	keystroke_Key.space	Key.space	n/a
328.097	0.1045	656194	keystroke_f	f	n/a
328.217	0.09	656434	keystroke_i	i	n/a
328.2775	0.089	656555	keystroke_f	f	n/a
328.4575	0.104	656915	keystroke_t	t	n/a
328.547	0.0745	657094	keystroke_y	y	n/a
328.637	0.0895	657274	keystroke_Key.space	Key.space	n/a
328.712	0.135	657424	keystroke_o	o	n/a
328.8065	0.1	657613	keystroke_p	p	n/a
328.908	0.1335	657816	keystroke_e	e	n/a
328.997	0.1045	657994	keystroke_r	r	n/a
329.072	0.1345	658144	keystroke_a	a	n/a
329.192	0.0595	658384	keystroke_Key.enter	Key.enter	n/a
329.2615	4.5375	658523	prompt	n/a	camp istanbul bulletin communications\n
330.077	0.0895	660154	keystroke_c	c	n/a
330.167	0.1795	660334	keystroke_a	a	n/a
330.272	0.1495	660544	keystroke_m	m	n/a
330.362	0.0895	660724	keystroke_p	p	n/a
330.467	0.0895	660934	keystroke_Key.space	Key.space	n/a
330.602	0.0595	661204	keystroke_i	i	n/a
330.722	0.1195	661444	keystroke_s	s	n/a
330.812	0.1195	661624	keystroke_t	t	n/a
330.902	0.1495	661804	keystroke_a	a	n/a
330.9925	0.089	661985	keystroke_n	n	n/a
331.172	0.0895	662344	keystroke_b	b	n/a
331.247	0.1045	662494	keystroke_u	u	n/a
331.382	0.12	662764	keystroke_l	l	n/a
331.517	0.0745	663034	keystroke_Key.space	Key.space	n/a
331.577	0.1045	663154	keystroke_b	b	n/a
331.667	0.075	663334	keystroke_u	u	n/a
331.787	0.0745	663574	keystroke_l	l	n/a
331.937	0.1045	663874	keystroke_l	l	n/a
332.027	0.1345	664054	keystroke_e	e	n/a
332.147	0.1195	664294	keystroke_t	t	n/a
332.1925	0.104	664385	keystroke_i	i	n/a
332.252	0.105	664504	keystroke_n	n	n/a
332.342	0.0745	664684	keystroke_Key.space	Key.space	n/a
332.432	0.0895	664864	keystroke_c	c	n/a
332.492	0.0895	664984	keystroke_o	o	n/a
332.567	0.075	665134	keystroke_m	m	n/a
332.702	0.0745	665404	keystroke_m	m	n/a
332.8975	0.0595	665795	keystroke_u	u	n/a
333.062	0.0745	666124	keystroke_n	n	n/a
333.1075	0.104	666215	keystroke_i	i	n/a
333.167	0.09	666334	keystroke_c	c	n/a
333.287	0.1495	666574	keystroke_a	a	n/a
333.347	0.1195	666694	keystroke_t	t	n/a
333.422	0.1345	666844	keystroke_i	i	n/a
333.4825	0.089	666965	keystroke_o	o	n/a
333.527	0.1195	667054	keystroke_n	n	n/a
333.602	0.0895	667204	keystroke_s	s	n/a
333.722	0.0745	667444	keystroke_Key.enter	Key.enter	n/a
333.8055	4.508	667611	prompt	n/a	functions dealt affects proceedings\n
334.457	0.135	668914	keystroke_f	f	n/a
334.547	0.0745	669094	keystroke_u	u	n/a
334.712	0.1045	669424	keystroke_n	n	n/a
334.802	0.0895	669604	keystroke_c	c	n/a
334.967	0.0895	669934	keystroke_t	t	n/a
335.027	0.1645	670054	keystroke_i	i	n/a
335.087	0.1195	670174	keystroke_o	o	n/a
335.132	0.1495	670264	keystroke_n	n	n/a
335.222	0.1045	670444	keystroke_s	s	n/a
335.297	0.075	670594	keystroke_Key.space	Key.space	n/a
335.387	0.0595	670774	keystroke_d	d	n/a
335.537	0.1045	671074	keystroke_e	e	n/a
335.627	0.1495	671254	keystroke_a	a	n/a
335.747	0.0895	671494	keystroke_l	l	n/a
335.882	0.1045	671764	keystroke_t	t	n/a
336.002	0.0745	672004	keystroke_Key.space	Key.space	n/a
336.1665	0.15	672333	keystroke_a	a	n/a
336.2725	0.059	672545	keystroke_f	f	n/a
336.407	0.1195	672814	keystroke_f	f	n/a
336.497	0.09	672994	keystroke_e	e	n/a
336.677	0.0595	673354	keystroke_c	c	n/a
336.827	0.1045	673654	keystroke_t	t	n/a
336.887	0.15	673774	keystroke_s	s	n/a
336.977	0.0895	673954	keystroke_Key.space	Key.space	n/a
337.007	0.1195	674014	keystroke_p	p	n/a
337.127	0.1345	674254	keystroke_r	r	n/a
337.217	0.0895	674434	keystroke_o	o	n/a
337.352	0.0895	674704	keystroke_c	c	n/a
337.547	0.0595	675094	keystroke_e	e	n/a
337.682	0.0895	675364	keystroke_e	e	n/a
337.862	0.09	675724	keystroke_d	d	n/a
337.967	0.0895	675934	keystroke_i	i	n/a
338.012	0.1045	676024	keystroke_n	n	n/a
338.087	0.0895	676174	keystroke_g	g	n/a
338.132	0.1045	676264	keystroke_s	s	n/a
338.237	0.0745	676474	keystroke_Key.enter	Key.enter	n/a
338.32	4.4785	676640	prompt	n/a	children lawyer dock carolina\n
338.927	0.0895	677854	keystroke_c	c	n/a
338.987	0.1195	677974	keystroke_h	h	n/a
339.062	0.1345	678124	keystroke_i	i	n/a
339.1365	0.12	678273	keystroke_l	l	n/a
339.212	0.0895	678424	keystroke_d	d	n/a
339.332	0.1045	678664	keystroke_r	r	n/a
339.407	0.1195	678814	keystroke_e	e	n/a
339.482	0.0895	678964	keystroke_n	n	n/a
339.602	0.105	679204	keystroke_Key.space	Key.space	n/a
339.692	0.1045	679384	keystroke_l	l	n/a
339.782	0.15	679564	keystroke_a	a	n/a
339.977	0.075	679954	keystroke_y	y	n/a
340.277	0.0745	680554	keystroke_Key.backspace	Key.backspace	n/a
340.382	0.1195	680764	keystroke_w	w	n/a
340.517	0.0895	681034	keystroke_y	y	n/a
340.592	0.1345	681184	keystroke_e	e	n/a
340.682	0.1495	681364	keystroke_r	r	n/a
340.817	0.09	681634	keystroke_Key.space	Key.space	n/a
341.057	0.0745	682114	keystroke_d	d	n/a
341.147	0.1045	682294	keystroke_o	o	n/a
341.267	0.0595	682534	keystroke_c	c	n/a
341.372	0.1045	682744	keystroke_k	k	n/a
341.462	0.1195	682924	keystroke_e	e	n/a
341.567	0.0895	683134	keystroke_r	r	n/a
341.612	0.1045	683224	keystroke_Key.space	Key.space	n/a
341.777	0.0895	683554	keystroke_c	c	n/a
341.912	0.1495	683824	keystroke_a	a	n/a
342.047	0.1345	684094	keystroke_r	r	n/a
342.152	0.0895	684304	keystroke_o	o	n/a
342.347	0.1195	684694	keystroke_l	l	n/a
342.4225	0.1345	684845	keystroke_i	i	n/a
342.512	0.0895	685024	keystroke_n	n	n/a
342.587	0.1195	685174	keystroke_a	a	n/a
342.7225	0.074	685445	keystroke_Key.enter	Key.enter	n/a
342.805	6.4885	685610	prompt	n/a	discs stadium clear kijiji\n
343.367	0.105	686734	keystroke_d	d	n/a
343.517	0.0895	687034	keystroke_i	i	n/a
343.667	0.0895	687334	keystroke_s	s	n/a
343.817	0.1195	687634	keystroke_c	c	n/a
343.937	0.1495	687874	keystroke_s	s	n/a
344.0575	0.1195	688115	keystroke_Key.space	Key.space	n/a
344.222	0.135	688444	keystroke_s	s	n/a
344.327	0.1345	688654	keystroke_t	t	n/a
344.417	0.1195	688834	keystroke_a	a	n/a
344.552	0.105	689104	keystroke_d	d	n/a
344.612	0.1195	689224	keystroke_i	i	n/a
344.747	0.1045	689494	keystroke_u	u	n/a
344.942	0.0895	689884	keystroke_m	m	n/a
345.062	0.0745	690124	keystroke_Key.space	Key.space	n/a
345.197	0.09	690394	keystroke_c	c	n/a
345.377	0.0745	690754	keystroke_l	l	n/a
345.467	0.18	690934	keystroke_e	e	n/a
345.602	0.135	691204	keystroke_a	a	n/a
345.677	0.18	691354	keystroke_r	r	n/a
345.842	0.0745	691684	keystroke_e	e	n/a
346.052	0.0595	692104	keystroke_Key.space	Key.space	n/a
346.292	0.0895	692584	keystroke_k	k	n/a
346.607	0.0595	693214	keystroke_Key.backspace	Key.backspace	n/a
346.742	0.0595	693484	keystroke_Key.backspace	Key.backspace	n/a
346.892	0.0745	693784	keystroke_Key.backspace	Key.backspace	n/a
347.0875	0.0745	694175	keystroke_Key.space	Key.space	n/a
347.207	0.0895	694414	keystroke_k	k	n/a
347.462	0.1045	694924	keystroke_i	i	n/a
347.672	0.09	695344	keystroke_j	j	n/a
347.792	0.1195	695584	keystroke_i	i	n/a
347.897	0.1195	695794	keystroke_j	j	n/a
348.002	0.0745	696004	keystroke_i	i	n/a
349.1875	0.104	698375	keystroke_Key.enter	Key.enter	n/a
349.3005	3.998	698601	prompt	n/a	hospital producing emissions adaptive\n
349.967	0.1045	699934	keystroke_h	h	n/a
350.042	0.1345	700084	keystroke_o	o	n/a
350.102	0.1045	700204	keystroke_s	s	n/a
350.2375	0.149	700475	keystroke_p	p	n/a
350.312	0.105	700624	keystroke_i	i	n/a
350.402	0.0895	700804	keystroke_t	t	n/a
350.447	0.1495	700894	keystroke_a	a	n/a
350.5375	0.0895	701075	keystroke_l	l	n/a
350.642	0.1195	701284	keystroke_Key.space	Key.space	n/a
350.747	0.1045	701494	keystroke_p	p	n/a
350.867	0.12	701734	keystroke_r	r	n/a
350.927	0.0895	701854	keystroke_o	o	n/a
351.032	0.09	702064	keystroke_d	d	n/a
351.107	0.0895	702214	keystroke_u	u	n/a
351.227	0.0745	702454	keystroke_c	c	n/a
351.287	0.1195	702574	keystroke_i	i	n/a
351.347	0.1045	702694	keystroke_n	n	n/a
351.422	0.09	702844	keystroke_g	g	n/a
351.482	0.1045	702964	keystroke_Key.space	Key.space	n/a
351.5725	0.1045	703145	keystroke_e	e	n/a
351.662	0.1195	703324	keystroke_m	m	n/a
351.767	0.0745	703534	keystroke_i	i	n/a
351.842	0.0745	703684	keystroke_s	s	n/a
351.992	0.1045	703984	keystroke_s	s	n/a
352.067	0.1345	704134	keystroke_i	i	n/a
352.1275	0.104	704255	keystroke_o	o	n/a
352.172	0.0895	704344	keystroke_n	n	n/a
352.202	0.1195	704404	keystroke_s	s	n/a
352.307	0.0895	704614	keystroke_Key.space	Key.space	n/a
352.4125	0.119	704825	keystroke_a	a	n/a
352.502	0.105	705004	keystroke_d	d	n/a
352.639	0.148	705278	keystroke_a	a	n/a
352.697	0.105	705394	keystroke_p	p	n/a
352.832	0.0895	705664	keystroke_t	t	n/a
352.9375	0.074	705875	keystroke_i	i	n/a
353.027	0.09	706054	keystroke_v	v	n/a
353.102	0.0895	706204	keystroke_e	e	n/a
353.222	0.0745	706444	keystroke_Key.enter	Key.enter	n/a
353.304	4.4355	706608	prompt	n/a	can subscribe cambodia gorgeous\n
353.882	0.0745	707764	keystroke_c	c	n/a
353.972	0.165	707944	keystroke_a	a	n/a
354.062	0.0895	708124	keystroke_n	n	n/a
354.152	0.1045	708304	keystroke_Key.space	Key.space	n/a
354.272	0.1045	708544	keystroke_s	s	n/a
354.392	0.0895	708784	keystroke_u	u	n/a
354.497	0.09	708994	keystroke_b	b	n/a
354.647	0.0745	709294	keystroke_s	s	n/a
354.812	0.0745	709624	keystroke_c	c	n/a
354.962	0.0895	709924	keystroke_r	r	n/a
355.127	0.0745	710254	keystroke_i	i	n/a
355.157	0.06	710314	keystroke_b	b	n/a
355.397	0.0895	710794	keystroke_e	e	n/a
355.532	0.105	711064	keystroke_Key.space	Key.space	n/a
355.802	0.075	711604	keystroke_c	c	n/a
355.922	0.1345	711844	keystroke_a	a	n/a
356.012	0.0895	712024	keystroke_m	m	n/a
356.117	0.0895	712234	keystroke_b	b	n/a
356.222	0.0895	712444	keystroke_o	o	n/a
356.2975	0.104	712595	keystroke_d	d	n/a
356.417	0.0895	712834	keystroke_i	i	n/a
356.492	0.135	712984	keystroke_a	a	n/a
356.582	0.0895	713164	keystroke_Key.space	Key.space	n/a
356.717	0.1045	713434	keystroke_g	g	n/a
356.867	0.0745	713734	keystroke_o	o	n/a
356.927	0.0895	713854	keystroke_r	r	n/a
357.107	0.0895	714214	keystroke_g	g	n/a
357.212	0.1195	714424	keystroke_e	e	n/a
357.317	0.1195	714634	keystroke_o	o	n/a
357.377	0.1045	714754	keystroke_u	u	n/a
357.467	0.12	714934	keystroke_s	s	n/a
357.6475	0.0895	715295	keystroke_Key.enter	Key.enter	n/a
357.7495	5.0295	715499	prompt	n/a	achievements production guarantee copies\n
358.337	0.105	716674	keystroke_a	a	n/a
358.532	0.075	717064	keystroke_c	c	n/a
358.622	0.1195	717244	keystroke_h	h	n/a
358.712	0.12	717424	keystroke_i	i	n/a
358.7875	0.0895	717575	keystroke_e	e	n/a
358.907	0.1045	717814	keystroke_v	v	n/a
358.997	0.1045	717994	keystroke_e	e	n/a
359.087	0.1045	718174	keystroke_m	m	n/a
359.207	0.1045	718414	keystroke_e	e	n/a
359.282	0.09	718564	keystroke_n	n	n/a
359.387	0.1195	718774	keystroke_t	t	n/a
359.477	0.1045	718954	keystroke_s	s	n/a
359.567	0.1045	719134	keystroke_Key.space	Key.space	n/a
359.7025	0.1195	719405	keystroke_p	p	n/a
359.807	0.1045	719614	keystroke_r	r	n/a
359.912	0.0895	719824	keystroke_o	o	n/a
360.017	0.0745	720034	keystroke_d	d	n/a
360.107	0.0895	720214	keystroke_u	u	n/a
360.212	0.0595	720424	keystroke_c	c	n/a
360.362	0.1045	720724	keystroke_t	t	n/a
360.467	0.1495	720934	keystroke_i	i	n/a
360.527	0.135	721054	keystroke_o	o	n/a
360.5725	0.1345	721145	keystroke_n	n	n/a
360.722	0.0745	721444	keystroke_Key.space	Key.space	n/a
360.782	0.1195	721564	keystroke_g	g	n/a
360.917	0.1045	721834	keystroke_u	u	n/a
361.0375	0.104	722075	keystroke_a	a	n/a
361.097	0.1795	722194	keystroke_r	r	n/a
