onset	duration	sample	value	key	prompt_text
43.727	0.0745	87454	keystroke	a	n/a
43.787	0.1045	87574	keystroke	l	n/a
43.9065	0.105	87813	keystroke	a	n/a
43.967	0.0895	87934	keystroke	n	n/a
44.0415	0.12	88083	keystroke	d	n/a
44.1465	0.075	88293	keystroke	u	n/a
44.2815	0.105	88563	keystroke	Key.tab	n/a
47.957	0.1195	95914	keystroke	o	n/a
48.017	0.1345	96034	keystroke	n	n/a
48.3915	0.165	96783	keystroke	Key.shift	n/a
48.437	0.0895	96874	keystroke	_	n/a
48.6315	0.09	97263	keystroke	k	n/a
48.7065	0.105	97413	keystroke	e	n/a
48.8265	0.075	97653	keystroke	y	n/a
48.9015	0.12	97803	keystroke	b	n/a
49.0065	0.105	98013	keystroke	o	n/a
49.1265	0.105	98253	keystroke	a	n/a
49.202	0.1195	98404	keystroke	r	n/a
49.262	0.1345	98524	keystroke	d	n/a
49.3515	0.105	98703	keystroke	Key.space	n/a
49.382	0.0895	98764	keystroke	p	n/a
49.4865	0.09	98973	keystroke	r	n/a
49.547	0.1195	99094	keystroke	o	n/a
49.652	0.0895	99304	keystroke	t	n/a
49.7865	0.105	99573	keystroke	o	n/a
49.817	0.1195	99634	keystroke	c	n/a
49.9815	0.06	99963	keystroke	o	n/a
50.132	0.1195	100264	keystroke	l	n/a
50.237	0.0895	100474	keystroke	Key.space	n/a
50.3865	0.12	100773	keystroke	6	n/a
50.4915	0.0755	100983	keystroke	.	n/a
50.582	0.1045	101164	keystroke	3	n/a
68.415	5.405	136830	prompt	n/a	the quick brown fox jumps over a lazy dog\n
70.007	0.1045	140014	keystroke	t	n/a
70.067	0.1045	140134	keystroke	h	n/a
70.157	0.1345	140314	keystroke	e	n/a
70.232	0.1045	140464	keystroke	Key.space	n/a
70.307	0.1195	140614	keystroke	q	n/a
70.397	0.1345	140794	keystroke	u	n/a
70.472	0.1045	140944	keystroke	i	n/a
70.5475	0.164	141095	keystroke	c	n/a
70.652	0.1195	141304	keystroke	k	n/a
70.742	0.1055	141484	keystroke	Key.space	n/a
70.832	0.0745	141664	keystroke	b	n/a
71.0115	0.18	142023	keystroke	r	n/a
71.1015	0.105	142203	keystroke	o	n/a
71.1765	0.15	142353	keystroke	w	n/a
71.297	0.0745	142594	keystroke	n	n/a
71.357	0.1045	142714	keystroke	Key.space	n/a
71.417	0.1195	142834	keystroke	f	n/a
71.492	0.0895	142984	keystroke	o	n/a
71.567	0.1045	143134	keystroke	x	n/a
71.612	0.1045	143224	keystroke	Key.space	n/a
71.657	0.1045	143314	keystroke	j	n/a
71.8065	0.075	143613	keystroke	u	n/a
72.0015	0.09	144003	keystroke	m	n/a
72.062	0.1195	144124	keystroke	p	n/a
72.167	0.1045	144334	keystroke	s	n/a
72.197	0.1645	144394	keystroke	Key.space	n/a
72.3765	0.03	144753	keystroke	o	n/a
72.392	0.0445	144784	keystroke	v	n/a
72.497	0.1195	144994	keystroke	e	n/a
72.572	0.0895	145144	keystroke	r	n/a
72.632	0.0895	145264	keystroke	Key.space	n/a
72.6925	0.134	145385	keystroke	a	n/a
72.812	0.0895	145624	keystroke	Key.space	n/a
72.947	0.0895	145894	keystroke	l	n/a
73.067	0.0895	146134	keystroke	a	n/a
73.2465	0.135	146493	keystroke	z	n/a
73.322	0.0745	146644	keystroke	y	n/a
73.412	0.0745	146824	keystroke	Key.space	n/a
73.472	0.1195	146944	keystroke	d	n/a
73.547	0.1195	147094	keystroke	o	n/a
73.652	0.0745	147304	keystroke	g	n/a
73.742	0.0745	147484	keystroke	Key.enter	n/a
73.828	8.915	147656	prompt	n/a	african infinite vista copyrighted\n
74.432	0.1045	148864	keystroke	a	n/a
74.537	0.0745	149074	keystroke	f	n/a
74.687	0.1045	149374	keystroke	r	n/a
74.777	0.0895	149554	keystroke	i	n/a
74.8975	0.074	149795	keystroke	c	n/a
74.9265	0.165	149853	keystroke	a	n/a
75.032	0.0745	150064	keystroke	n	n/a
75.137	0.0745	150274	keystroke	Key.space	n/a
75.2265	0.12	150453	keystroke	i	n/a
75.362	0.1045	150724	keystroke	f	n/a
75.5265	0.105	151053	keystroke	i	n/a
75.602	0.1345	151204	keystroke	n	n/a
75.707	0.1045	151414	keystroke	i	n/a
75.798	0.1035	151596	keystroke	t	n/a
75.872	0.1345	151744	keystroke	e	n/a
76.187	0.0745	152374	keystroke	Key.space	n/a
76.427	0.0895	152854	keystroke	v	n/a
76.502	0.09	153004	keystroke	i	n/a
76.607	0.105	153214	keystroke	s	n/a
76.697	0.1195	153394	keystroke	t	n/a
76.787	0.1345	153574	keystroke	a	n/a
76.8925	0.074	153785	keystroke	Key.space	n/a
77.027	0.1045	154054	keystroke	c	n/a
77.102	0.1195	154204	keystroke	o	n/a
77.177	0.12	154354	keystroke	p	n/a
77.252	0.0895	154504	keystroke	y	n/a
77.552	0.0595	155104	keystroke	Key.backspace	n/a
77.702	0.0745	155404	keystroke	Key.backspace	n/a
77.852	0.0595	155704	keystroke	Key.backspace	n/a
78.002	0.0595	156004	keystroke	Key.backspace	n/a
78.152	0.0595	156304	keystroke	Key.backspace	n/a
78.287	0.0745	156574	keystroke	Key.backspace	n/a
78.437	0.0745	156874	keystroke	Key.backspace	n/a
78.572	0.0745	157144	keystroke	Key.backspace	n/a
78.737	0.06	157474	keystroke	Key.backspace	n/a
78.887	0.0595	157774	keystroke	Key.backspace	n/a
79.037	0.0595	158074	keystroke	Key.backspace	n/a
79.187	0.0595	158374	keystroke	Key.backspace	n/a
79.322	0.0745	158644	keystroke	Key.backspace	n/a
79.472	0.0745	158944	keystroke	Key.backspace	n/a
79.652	0.0445	159304	keystroke	Key.backspace	n/a
79.877	0.0595	159754	keystroke	Key.backspace	n/a
80.072	0.0595	160144	keystroke	Key.backspace	n/a
80.3125	0.074	160625	keystroke	n	n/a
80.4615	0.12	160923	keystroke	f	n/a
80.537	0.1045	161074	keystroke	i	n/a
80.6115	0.12	161223	keystroke	n	n/a
80.7165	0.105	161433	keystroke	i	n/a
80.777	0.1045	161554	keystroke	t	n/a
80.837	0.1195	161674	keystroke	e	n/a
80.9125	0.104	161825	keystroke	Key.space	n/a
81.062	0.1045	162124	keystroke	v	n/a
81.152	0.0895	162304	keystroke	i	n/a
81.227	0.1195	162454	keystroke	s	n/a
81.317	0.1345	162634	keystroke	t	n/a
81.407	0.1195	162814	keystroke	a	n/a
81.482	0.0895	162964	keystroke	Key.space	n/a
81.632	0.0895	163264	keystroke	c	n/a
81.6765	0.135	163353	keystroke	o	n/a
81.767	0.1045	163534	keystroke	p	n/a
81.827	0.0895	163654	keystroke	y	n/a
81.932	0.1045	163864	keystroke	r	n/a
82.0215	0.105	164043	keystroke	i	n/a
82.142	0.0745	164284	keystroke	g	n/a
82.262	0.0595	164524	keystroke	h	n/a
82.292	0.1045	164584	keystroke	t	n/a
82.367	0.0745	164734	keystroke	e	n/a
82.502	0.1045	165004	keystroke	d	n/a
82.637	0.1045	165274	keystroke	Key.enter	n/a
82.7505	3.758	165501	prompt	n/a	reform slope avoid beautiful\n
83.282	0.075	166564	keystroke	f	n/a
83.5225	0.089	167045	keystroke	Key.backspace	n/a
83.627	0.1045	167254	keystroke	r	n/a
83.702	0.1045	167404	keystroke	e	n/a
83.822	0.0895	167644	keystroke	f	n/a
83.957	0.0595	167914	keystroke	o	n/a
84.002	0.1195	168004	keystroke	r	n/a
84.122	0.1195	168244	keystroke	m	n/a
84.257	0.0745	168514	keystroke	Key.space	n/a
84.3765	0.045	168753	keystroke	s	n/a
84.602	0.0595	169204	keystroke	l	n/a
84.782	0.0895	169564	keystroke	o	n/a
84.857	0.1195	169714	keystroke	p	n/a
84.932	0.1045	169864	keystroke	e	n/a
85.007	0.0895	170014	keystroke	Key.space	n/a
85.112	0.1045	170224	keystroke	a	n/a
85.127	0.1345	170254	keystroke	v	n/a
85.202	0.0895	170404	keystroke	o	n/a
85.277	0.0895	170554	keystroke	i	n/a
85.322	0.1195	170644	keystroke	d	n/a
85.397	0.0745	170794	keystroke	Key.space	n/a
85.487	0.0895	170974	keystroke	b	n/a
85.622	0.1345	171244	keystroke	e	n/a
85.7265	0.135	171453	keystroke	a	n/a
85.802	0.1045	171604	keystroke	u	n/a
85.892	0.0895	171784	keystroke	t	n/a
86.0125	0.089	172025	keystroke	i	n/a
86.057	0.1195	172114	keystroke	f	n/a
86.147	0.1045	172294	keystroke	u	n/a
86.252	0.0895	172504	keystroke	l	n/a
86.4315	0.075	172863	keystroke	Key.enter	n/a
86.516	4.3275	173032	prompt	n/a	waiting equality acquisitions harassment\n
87.1065	0.105	174213	keystroke	w	n/a
87.214	0.1325	174428	keystroke	a	n/a
87.332	0.0895	174664	keystroke	i	n/a
87.437	0.1045	174874	keystroke	t	n/a
87.527	0.0895	175054	keystroke	i	n/a
87.5565	0.12	175113	keystroke	n	n/a
87.6315	0.105	175263	keystroke	g	n/a
87.707	0.0895	175414	keystroke	Key.space	n/a
87.8265	0.105	175653	keystroke	e	n/a
87.917	0.1435	175834	keystroke	q	n/a
88.022	0.09	176044	keystroke	u	n/a
88.127	0.1345	176254	keystroke	a	n/a
88.217	0.1045	176434	keystroke	l	n/a
88.277	0.1045	176554	keystroke	i	n/a
88.367	0.1195	176734	keystroke	t	n/a
88.4415	0.105	176883	keystroke	y	n/a
88.5625	0.089	177125	keystroke	Key.space	n/a
88.637	0.0895	177274	keystroke	a	n/a
88.757	0.0895	177514	keystroke	c	n/a
88.907	0.1195	177814	keystroke	q	n/a
88.982	0.1045	177964	keystroke	u	n/a
89.0415	0.09	178083	keystroke	i	n/a
89.147	0.1195	178294	keystroke	s	n/a
89.252	0.0745	178504	keystroke	i	n/a
89.342	0.1195	178684	keystroke	t	n/a
89.432	0.1345	178864	keystroke	i	n/a
89.477	0.1195	178954	keystroke	o	n/a
89.522	0.1195	179044	keystroke	n	n/a
89.597	0.105	179194	keystroke	s	n/a
89.673	0.1035	179346	keystroke	Key.space	n/a
89.747	0.1045	179494	keystroke	h	n/a
89.837	0.1195	179674	keystroke	a	n/a
89.942	0.1345	179884	keystroke	r	n/a
90.092	0.0895	180184	keystroke	a	n/a
90.182	0.0745	180364	keystroke	s	n/a
90.332	0.1195	180664	keystroke	s	n/a
90.437	0.0895	180874	keystroke	m	n/a
90.512	0.1045	181024	keystroke	e	n/a
90.602	0.0895	181204	keystroke	n	n/a
90.6765	0.105	181353	keystroke	t	n/a
90.7665	0.075	181533	keystroke	Key.enter	n/a
90.8515	4.102	181703	prompt	n/a	sending jenny aurora attacked\n
91.412	0.1195	182824	keystroke	s	n/a
91.517	0.0895	183034	keystroke	e	n/a
91.592	0.1045	183184	keystroke	n	n/a
91.682	0.0895	183364	keystroke	d	n/a
91.772	0.1195	183544	keystroke	i	n/a
91.8315	0.0905	183663	keystroke	n	n/a
91.8775	0.104	183755	keystroke	g	n/a
91.952	0.1045	183904	keystroke	Key.space	n/a
92.042	0.0895	184084	keystroke	j	n/a
92.117	0.105	184234	keystroke	e	n/a
92.222	0.0745	184444	keystroke	n	n/a
92.672	0.0745	185344	keystroke	n	n/a
92.882	0.0445	185764	keystroke	y	n/a
92.9725	0.1045	185945	keystroke	Key.space	n/a
93.062	0.1345	186124	keystroke	a	n/a
93.152	0.0895	186304	keystroke	u	n/a
93.302	0.1045	186604	keystroke	r	n/a
93.422	0.0895	186844	keystroke	o	n/a
93.572	0.135	187144	keystroke	r	n/a
93.7075	0.164	187415	keystroke	a	n/a
93.917	0.105	187834	keystroke	Key.space	n/a
94.067	0.1195	188134	keystroke	a	n/a
94.172	0.0445	188344	keystroke	t	n/a
94.292	0.0895	188584	keystroke	t	n/a
94.352	0.0895	188704	keystroke	a	n/a
94.502	0.0895	189004	keystroke	c	n/a
94.577	0.0745	189154	keystroke	k	n/a
94.697	0.0445	189394	keystroke	e	n/a
94.817	0.09	189634	keystroke	d	n/a
94.892	0.0595	189784	keystroke	Key.enter	n/a
94.9625	4.611	189925	prompt	n/a	cyber moderate hartford funky\n
95.597	0.0745	191194	keystroke	s	n/a
95.882	0.0895	191764	keystroke	Key.backspace	n/a
96.047	0.0895	192094	keystroke	c	n/a
96.1365	0.09	192273	keystroke	y	n/a
96.2275	0.089	192455	keystroke	b	n/a
96.3775	0.119	192755	keystroke	e	n/a
96.437	0.1195	192874	keystroke	r	n/a
96.527	0.1045	193054	keystroke	Key.space	n/a
96.662	0.1195	193324	keystroke	m	n/a
96.767	0.0895	193534	keystroke	o	n/a
96.812	0.0595	193624	keystroke	d	n/a
96.947	0.0895	193894	keystroke	e	n/a
97.007	0.1045	194014	keystroke	r	n/a
97.097	0.1345	194194	keystroke	a	n/a
97.157	0.1195	194314	keystroke	t	n/a
97.217	0.1195	194434	keystroke	e	n/a
97.2775	0.119	194555	keystroke	Key.space	n/a
97.352	0.0895	194704	keystroke	h	n/a
97.427	0.1045	194854	keystroke	a	n/a
97.472	0.1045	194944	keystroke	r	n/a
97.622	0.105	195244	keystroke	t	n/a
97.802	0.1195	195604	keystroke	f	n/a
97.967	0.0895	195934	keystroke	o	n/a
98.102	0.1345	196204	keystroke	r	n/a
98.492	0.1195	196984	keystroke	d	n/a
98.612	0.0745	197224	keystroke	Key.space	n/a
98.717	0.1195	197434	keystroke	f	n/a
98.8065	0.06	197613	keystroke	u	n/a
98.972	0.1345	197944	keystroke	n	n/a
99.077	0.0895	198154	keystroke	k	n/a
99.287	0.0595	198574	keystroke	y	n/a
99.497	0.0745	198994	keystroke	Key.enter	n/a
99.5885	4.125	199177	prompt	n/a	openings peripheral scenes whereas\n
100.142	0.1345	200284	keystroke	o	n/a
100.232	0.1045	200464	keystroke	p	n/a
100.322	0.1345	200644	keystroke	e	n/a
100.442	0.1045	200884	keystroke	n	n/a
100.562	0.1195	201124	keystroke	i	n/a
100.622	0.1195	201244	keystroke	n	n/a
100.727	0.1045	201454	keystroke	g	n/a
100.802	0.1195	201604	keystroke	s	n/a
100.847	0.1345	201694	keystroke	Key.space	n/a
100.937	0.105	201874	keystroke	p	n/a
101.057	0.1345	202114	keystroke	e	n/a
101.147	0.1345	202294	keystroke	r	n/a
101.387	0.1045	202774	keystroke	i	n/a
101.567	0.1345	203134	keystroke	p	n/a
101.687	0.1045	203374	keystroke	h	n/a
101.762	0.1045	203524	keystroke	e	n/a
101.822	0.1195	203644	keystroke	r	n/a
101.927	0.165	203854	keystroke	a	n/a
102.032	0.0895	204064	keystroke	l	n/a
102.122	0.0895	204244	keystroke	Key.space	n/a
102.197	0.0595	204394	keystroke	s	n/a
102.362	0.0445	204724	keystroke	c	n/a
102.512	0.0895	205024	keystroke	e	n/a
102.587	0.0895	205174	keystroke	n	n/a
102.6775	0.134	205355	keystroke	e	n/a
102.737	0.1345	205474	keystroke	s	n/a
102.8425	0.104	205685	keystroke	Key.space	n/a
102.977	0.1045	205954	keystroke	w	n/a
103.052	0.0895	206104	keystroke	h	n/a
103.1575	0.089	206315	keystroke	e	n/a
103.232	0.1345	206464	keystroke	r	n/a
103.322	0.1345	206644	keystroke	e	n/a
103.442	0.1045	206884	keystroke	a	n/a
103.517	0.1045	207034	keystroke	s	n/a
103.637	0.0745	207274	keystroke	Key.enter	n/a
103.7215	4.823	207443	prompt	n/a	january montreal started panama\n
104.282	0.1045	208564	keystroke	j	n/a
104.372	0.1345	208744	keystroke	a	n/a
104.462	0.0745	208924	keystroke	n	n/a
104.642	0.0895	209284	keystroke	u	n/a
104.732	0.1795	209464	keystroke	a	n/a
104.897	0.1195	209794	keystroke	r	n/a
104.957	0.015	209914	keystroke	y	n/a
105.572	0.0895	211144	keystroke	Key.space	n/a
105.662	0.0895	211324	keystroke	m	n/a
105.797	0.105	211594	keystroke	o	n/a
105.8425	0.104	211685	keystroke	n	n/a
105.932	0.0895	211864	keystroke	t	n/a
106.082	0.1495	212164	keystroke	r	n/a
106.157	0.1345	212314	keystroke	e	n/a
106.262	0.1495	212524	keystroke	a	n/a
106.367	0.0895	212734	keystroke	l	n/a
106.487	0.0895	212974	keystroke	Key.space	n/a
106.5925	0.104	213185	keystroke	s	n/a
106.667	0.0895	213334	keystroke	t	n/a
106.8015	0.135	213603	keystroke	a	n/a
106.893	0.0885	213786	keystroke	r	n/a
107.042	0.1045	214084	keystroke	t	n/a
107.102	0.0745	214204	keystroke	e	n/a
107.237	0.1345	214474	keystroke	d	n/a
107.3115	0.12	214623	keystroke	Key.space	n/a
107.402	0.1045	214804	keystroke	p	n/a
107.492	0.135	214984	keystroke	a	n/a
107.582	0.0895	215164	keystroke	n	n/a
107.687	0.1495	215374	keystroke	a	n/a
107.762	0.1045	215524	keystroke	m	n/a
107.882	0.1045	215764	keystroke	a	n/a
108.467	0.075	216934	keystroke	Key.enter	n/a
108.554	4.1145	217108	prompt	n/a	points comment complement invalid\n
109.142	0.1195	218284	keystroke	p	n/a
109.217	0.1495	218434	keystroke	o	n/a
109.3065	0.105	218613	keystroke	i	n/a
109.352	0.1045	218704	keystroke	n	n/a
109.382	0.1195	218764	keystroke	t	n/a
109.442	0.1045	218884	keystroke	s	n/a
109.517	0.0895	219034	keystroke	Key.space	n/a
109.637	0.1045	219274	keystroke	c	n/a
109.727	0.0745	219454	keystroke	o	n/a
109.772	0.0745	219544	keystroke	m	n/a
109.907	0.0895	219814	keystroke	m	n/a
109.997	0.0895	219994	keystroke	e	n/a
110.072	0.0895	220144	keystroke	n	n/a
110.1465	0.09	220293	keystroke	t	n/a
110.222	0.0595	220444	keystroke	Key.space	n/a
110.3265	0.09	220653	keystroke	c	n/a
110.387	0.105	220774	keystroke	o	n/a
110.432	0.1345	220864	keystroke	m	n/a
110.493	0.0885	220986	keystroke	p	n/a
110.6425	0.104	221285	keystroke	l	n/a
110.732	0.0895	221464	keystroke	e	n/a
110.852	0.1045	221704	keystroke	m	n/a
110.897	0.1045	221794	keystroke	e	n/a
111.032	0.0895	222064	keystroke	n	n/a
111.107	0.1195	222214	keystroke	t	n/a
111.212	0.0745	222424	keystroke	Key.space	n/a
111.3925	0.104	222785	keystroke	i	n/a
111.437	0.0895	222874	keystroke	n	n/a
111.542	0.0895	223084	keystroke	v	n/a
111.6165	0.105	223233	keystroke	a	n/a
111.692	0.1495	223384	keystroke	l	n/a
111.752	0.1045	223504	keystroke	i	n/a
111.797	0.0895	223594	keystroke	d	n/a
112.5775	0.089	225155	keystroke	Key.enter	n/a
112.6775	5.676	225355	prompt	n/a	attraction tables staff looks\n
113.2215	0.15	226443	keystroke	a	n/a
113.327	0.0745	226654	keystroke	t	n/a
113.462	0.0745	226924	keystroke	t	n/a
113.612	0.1195	227224	keystroke	r	n/a
113.717	0.06	227434	keystroke	a	n/a
113.837	0.0895	227674	keystroke	c	n/a
113.987	0.0895	227974	keystroke	t	n/a
114.062	0.1645	228124	keystroke	i	n/a
114.122	0.1345	228244	keystroke	o	n/a
114.1815	0.15	228363	keystroke	n	n/a
114.242	0.0745	228484	keystroke	Key.space	n/a
114.302	0.0895	228604	keystroke	t	n/a
114.377	0.1345	228754	keystroke	a	n/a
114.4815	0.09	228963	keystroke	b	n/a
114.587	0.0745	229174	keystroke	l	n/a
114.647	0.1645	229294	keystroke	e	n/a
114.752	0.1195	229504	keystroke	s	n/a
114.857	0.0295	229714	keystroke	Key.space	n/a
114.947	0.1045	229894	keystroke	a	n/a
115.037	0.0895	230074	keystroke	t	n/a
115.307	0.0595	230614	keystroke	Key.backspace	n/a
115.442	0.0745	230884	keystroke	Key.backspace	n/a
115.532	0.0745	231064	keystroke	s	n/a
115.592	0.1495	231184	keystroke	t	n/a
115.682	0.105	231364	keystroke	a	n/a
115.802	0.0445	231604	keystroke	f	n/a
115.907	0.1195	231814	keystroke	f	n/a
116.012	0.0745	232024	keystroke	l	n/a
116.042	0.0895	232084	keystroke	Key.space	n/a
116.192	0.0595	232384	keystroke	o	n/a
116.327	0.1195	232654	keystroke	o	n/a
116.402	0.09	232804	keystroke	k	n/a
116.567	0.0295	233134	keystroke	s	n/a
116.717	0.0595	233434	keystroke	Key.backspace	n/a
116.852	0.0745	233704	keystroke	Key.backspace	n/a
117.017	0.0445	234034	keystroke	Key.backspace	n/a
117.137	0.0745	234274	keystroke	Key.backspace	n/a
117.2865	0.075	234573	keystroke	Key.backspace	n/a
117.437	0.0745	234874	keystroke	Key.backspace	n/a
117.662	0.0745	235324	keystroke	Key.space	n/a
117.752	0.06	235504	keystroke	l	n/a
117.917	0.0445	235834	keystroke	o	n/a
118.0215	0.12	236043	keystroke	o	n/a
118.097	0.0745	236194	keystroke	k	n/a
118.157	0.0895	236314	keystroke	s	n/a
118.292	0.0595	236584	keystroke	Key.enter	n/a
118.3625	3.771	236725	prompt	n/a	maui obtain weapons struck\n
118.967	0.0905	237934	keystroke	m	n/a
119.058	0.1335	238116	keystroke	a	n/a
119.447	0.0595	238894	keystroke	u	n/a
119.582	0.0895	239164	keystroke	i	n/a
119.687	0.0895	239374	keystroke	Key.space	n/a
119.8215	0.105	239643	keystroke	o	n/a
119.912	0.0445	239824	keystroke	b	n/a
120.062	0.1195	240124	keystroke	t	n/a
120.167	0.1345	240334	keystroke	a	n/a
120.2265	0.09	240453	keystroke	i	n/a
120.2865	0.09	240573	keystroke	n	n/a
120.347	0.1045	240694	keystroke	Key.space	n/a
120.437	0.12	240874	keystroke	w	n/a
120.512	0.1195	241024	keystroke	e	n/a
120.677	0.1495	241354	keystroke	a	n/a
120.872	0.1195	241744	keystroke	p	n/a
120.977	0.1195	241954	keystroke	o	n/a
121.037	0.1045	242074	keystroke	n	n/a
121.142	0.0895	242284	keystroke	s	n/a
121.202	0.09	242404	keystroke	Key.space	n/a
121.337	0.0895	242674	keystroke	s	n/a
121.442	0.0745	242884	keystroke	t	n/a
121.592	0.1045	243184	keystroke	r	n/a
121.682	0.0895	243364	keystroke	u	n/a
121.817	0.0895	243634	keystroke	c	n/a
121.892	0.0595	243784	keystroke	k	n/a
122.057	0.0745	244114	keystroke	Key.enter	n/a
122.1405	4.973	244281	prompt	n/a	organisations begin hungarian belarus\n
122.852	0.0895	245704	keystroke	o	n/a
122.972	0.0745	245944	keystroke	r	n/a
123.152	0.0745	246304	keystroke	g	n/a
123.2115	0.12	246423	keystroke	a	n/a
123.2865	0.09	246573	keystroke	n	n/a
123.347	0.1045	246694	keystroke	i	n/a
123.497	0.0595	246994	keystroke	s	n/a
123.602	0.15	247204	keystroke	a	n/a
123.7075	0.104	247415	keystroke	t	n/a
123.767	0.1495	247534	keystroke	i	n/a
123.8265	0.135	247653	keystroke	o	n/a
123.8865	0.105	247773	keystroke	n	n/a
123.947	0.1195	247894	keystroke	s	n/a
124.022	0.0745	248044	keystroke	Key.space	n/a
124.112	0.0895	248224	keystroke	b	n/a
124.247	0.1195	248494	keystroke	e	n/a
124.322	0.1045	248644	keystroke	g	n/a
124.412	0.1045	248824	keystroke	i	n/a
124.457	0.1045	248914	keystroke	n	n/a
124.547	0.0895	249094	keystroke	Key.space	n/a
124.652	0.0745	249304	keystroke	h	n/a
124.802	0.0745	249604	keystroke	u	n/a
124.9665	0.09	249933	keystroke	n	n/a
125.0865	0.09	250173	keystroke	g	n/a
125.252	0.1495	250504	keystroke	a	n/a
125.357	0.135	250714	keystroke	r	n/a
125.477	0.0745	250954	keystroke	i	n/a
125.567	0.165	251134	keystroke	a	n/a
125.657	0.0895	251314	keystroke	n	n/a
125.777	0.1045	251554	keystroke	Key.space	n/a
126.182	0.0595	252364	keystroke	b	n/a
126.422	0.1045	252844	keystroke	e	n/a
126.542	0.0895	253084	keystroke	l	n/a
126.647	0.1345	253294	keystroke	a	n/a
126.7225	0.104	253445	keystroke	r	n/a
126.842	0.0895	253684	keystroke	u	n/a
126.917	0.1195	253834	keystroke	s	n/a
127.082	0.0295	254164	keystroke	Key.enter	n/a
127.121	4.1625	254242	prompt	n/a	compliance tunnel assault winning\n
127.847	0.075	255694	keystroke	c	n/a
127.907	0.0895	255814	keystroke	o	n/a
127.952	0.1345	255904	keystroke	m	n/a
128.0415	0.105	256083	keystroke	p	n/a
128.207	0.1195	256414	keystroke	l	n/a
128.297	0.1195	256594	keystroke	i	n/a
128.462	0.1195	256924	keystroke	a	n/a
128.627	0.0895	257254	keystroke	n	n/a
128.702	0.0895	257404	keystroke	c	n/a
128.867	0.0895	257734	keystroke	e	n/a
128.942	0.0745	257884	keystroke	Key.space	n/a
129.0315	0.105	258063	keystroke	t	n/a
129.092	0.0895	258184	keystroke	u	n/a
129.2725	0.074	258545	keystroke	n	n/a
129.407	0.0745	258814	keystroke	n	n/a
129.467	0.1045	258934	keystroke	e	n/a
129.587	0.09	259174	keystroke	l	n/a
129.6915	0.09	259383	keystroke	Key.space	n/a
129.767	0.1045	259534	keystroke	a	n/a
129.8725	0.059	259745	keystroke	s	n/a
130.0225	0.074	260045	keystroke	s	n/a
130.1115	0.12	260223	keystroke	a	n/a
130.202	0.0895	260404	keystroke	u	n/a
130.307	0.1045	260614	keystroke	l	n/a
130.367	0.0895	260734	keystroke	t	n/a
130.4265	0.09	260853	keystroke	Key.space	n/a
130.4725	0.119	260945	keystroke	w	n/a
130.547	0.1045	261094	keystroke	i	n/a
130.622	0.09	261244	keystroke	n	n/a
130.7725	0.119	261545	keystroke	n	n/a
130.877	0.1195	261754	keystroke	i	n/a
130.937	0.1045	261874	keystroke	n	n/a
131.027	0.0895	262054	keystroke	g	n/a
131.192	0.0895	262384	keystroke	Key.enter	n/a
131.294	3.665	262588	prompt	n/a	hold applied editor basename\n
131.912	0.0895	263824	keystroke	h	n/a
131.987	0.0745	263974	keystroke	o	n/a
132.1365	0.105	264273	keystroke	l	n/a
132.197	0.0895	264394	keystroke	d	n/a
132.272	0.09	264544	keystroke	Key.space	n/a
132.347	0.1345	264694	keystroke	a	n/a
132.4065	0.09	264813	keystroke	p	n/a
132.5725	0.074	265145	keystroke	p	n/a
132.737	0.1195	265474	keystroke	l	n/a
132.797	0.1045	265594	keystroke	i	n/a
132.842	0.0745	265684	keystroke	e	n/a
133.007	0.0895	266014	keystroke	d	n/a
133.097	0.075	266194	keystroke	Key.space	n/a
133.217	0.0595	266434	keystroke	e	n/a
133.367	0.0895	266734	keystroke	d	n/a
133.4725	0.074	266945	keystroke	i	n/a
133.547	0.1195	267094	keystroke	t	n/a
133.682	0.0895	267364	keystroke	o	n/a
133.742	0.1045	267484	keystroke	r	n/a
133.817	0.0895	267634	keystroke	Key.space	n/a
133.967	0.0895	267934	keystroke	b	n/a
134.0725	0.179	268145	keystroke	a	n/a
134.132	0.1795	268264	keystroke	s	n/a
134.222	0.1345	268444	keystroke	e	n/a
134.342	0.0895	268684	keystroke	n	n/a
134.477	0.1495	268954	keystroke	a	n/a
134.597	0.0895	269194	keystroke	m	n/a
134.672	0.0895	269344	keystroke	e	n/a
134.897	0.0595	269794	keystroke	Key.enter	n/a
134.9665	5.002	269933	prompt	n/a	positioning concentrations proportion belongs\n
135.602	0.1045	271204	keystroke	p	n/a
135.662	0.1195	271324	keystroke	o	n/a
135.842	0.1045	271684	keystroke	s	n/a
135.932	0.0745	271864	keystroke	i	n/a
136.022	0.1045	272044	keystroke	t	n/a
136.112	0.1645	272224	keystroke	i	n/a
136.1725	0.119	272345	keystroke	o	n/a
136.262	0.1345	272524	keystroke	n	n/a
136.382	0.1495	272764	keystroke	i	n/a
136.457	0.1195	272914	keystroke	n	n/a
136.547	0.1045	273094	keystroke	g	n/a
136.6225	0.093	273245	keystroke	Key.space	n/a
136.742	0.1045	273484	keystroke	c	n/a
136.832	0.1195	273664	keystroke	o	n/a
136.892	0.1195	273784	keystroke	n	n/a
137.042	0.0745	274084	keystroke	c	n/a
137.177	0.0895	274354	keystroke	e	n/a
137.282	0.0895	274564	keystroke	n	n/a
137.357	0.0595	274714	keystroke	t	n/a
137.507	0.105	275014	keystroke	r	n/a
137.582	0.1645	275164	keystroke	a	n/a
137.687	0.1195	275374	keystroke	t	n/a
137.762	0.1645	275524	keystroke	i	n/a
137.8375	0.119	275675	keystroke	o	n/a
137.897	0.0895	275794	keystroke	n	n/a
137.942	0.1045	275884	keystroke	s	n/a
138.017	0.1045	276034	keystroke	Key.space	n/a
138.092	0.12	276184	keystroke	p	n/a
138.242	0.1195	276484	keystroke	r	n/a
138.347	0.1195	276694	keystroke	o	n/a
138.422	0.1945	276844	keystroke	p	n/a
138.572	0.1045	277144	keystroke	o	n/a
138.647	0.0745	277294	keystroke	r	n/a
138.797	0.1045	277594	keystroke	t	n/a
138.872	0.1645	277744	keystroke	i	n/a
138.917	0.1345	277834	keystroke	o	n/a
138.992	0.1195	277984	keystroke	n	n/a
139.082	0.0745	278164	keystroke	Key.space	n/a
139.172	0.0595	278344	keystroke	b	n/a
139.2925	0.1045	278585	keystroke	e	n/a
139.382	0.045	278764	keystroke	l	n/a
139.532	0.1045	279064	keystroke	o	n/a
139.577	0.0895	279154	keystroke	n	n/a
139.652	0.0745	279304	keystroke	g	n/a
139.697	0.1045	279394	keystroke	s	n/a
139.877	0.0895	279754	keystroke	Key.enter	n/a
139.976	5.9475	279952	prompt	n/a	administrative depression where've mistakes\n
140.597	0.1045	281194	keystroke	a	n/a
140.672	0.1195	281344	keystroke	d	n/a
140.777	0.0745	281554	keystroke	m	n/a
140.867	0.1195	281734	keystroke	i	n/a
140.942	0.1345	281884	keystroke	n	n/a
141.062	0.1045	282124	keystroke	i	n/a
141.1515	0.135	282303	keystroke	s	n/a
141.347	0.09	282694	keystroke	t	n/a
141.512	0.1345	283024	keystroke	r	n/a
141.632	0.1345	283264	keystroke	a	n/a
141.737	0.09	283474	keystroke	t	n/a
141.873	0.0885	283746	keystroke	i	n/a
141.947	0.1195	283894	keystroke	v	n/a
142.067	0.075	284134	keystroke	e	n/a
142.127	0.0745	284254	keystroke	Key.space	n/a
142.232	0.0595	284464	keystroke	d	n/a
142.382	0.1045	284764	keystroke	e	n/a
142.502	0.075	285004	keystroke	p	n/a
142.592	0.1045	285184	keystroke	r	n/a
142.667	0.1045	285334	keystroke	e	n/a
142.757	0.0595	285514	keystroke	s	n/a
142.907	0.0895	285814	keystroke	s	n/a
143.027	0.1645	286054	keystroke	i	n/a
143.102	0.1045	286204	keystroke	o	n/a
143.147	0.1195	286294	keystroke	n	n/a
143.282	0.105	286564	keystroke	Key.space	n/a
143.402	0.1045	286804	keystroke	w	n/a
143.522	0.09	287044	keystroke	h	n/a
143.597	0.1495	287194	keystroke	e	n/a
143.732	0.1495	287464	keystroke	r	n/a
143.867	0.1045	287734	keystroke	e	n/a
144.017	0.0745	288034	keystroke	'	n/a
144.227	0.0745	288454	keystroke	v	n/a
144.332	0.1195	288664	keystroke	e	n/a
144.422	0.1045	288844	keystroke	Key.space	n/a
144.662	0.1045	289324	keystroke	i	n/a
144.947	0.0745	289894	keystroke	Key.backspace	n/a
145.157	0.1045	290314	keystroke	m	n/a
145.247	0.105	290494	keystroke	i	n/a
145.307	0.12	290614	keystroke	s	n/a
145.397	0.1195	290794	keystroke	t	n/a
145.487	0.1195	290974	keystroke	a	n/a
145.592	0.0445	291184	keystroke	k	n/a
145.682	0.0745	291364	keystroke	e	n/a
145.712	0.1045	291424	keystroke	s	n/a
145.862	0.0595	291724	keystroke	Key.enter	n/a
145.931	4.6425	291862	prompt	n/a	elimination effects appointed chevrolet\n
146.492	0.0895	292984	keystroke	e	n/a
146.612	0.1195	293224	keystroke	l	n/a
146.687	0.1145	293374	keystroke	i	n/a
146.762	0.1195	293524	keystroke	m	n/a
146.867	0.1345	293734	keystroke	i	n/a
146.942	0.0895	293884	keystroke	n	n/a
147.003	0.149	294006	keystroke	a	n/a
147.0775	0.119	294155	keystroke	t	n/a
147.1815	0.15	294363	keystroke	i	n/a
147.242	0.1045	294484	keystroke	o	n/a
147.272	0.1345	294544	keystroke	n	n/a
147.392	0.1195	294784	keystroke	Key.space	n/a
147.497	0.1195	294994	keystroke	e	n/a
147.6025	0.044	295205	keystroke	f	n/a
147.737	0.1195	295474	keystroke	f	n/a
147.842	0.0595	295684	keystroke	e	n/a
148.007	0.075	296014	keystroke	c	n/a
148.172	0.0895	296344	keystroke	t	n/a
148.2325	0.1045	296465	keystroke	s	n/a
148.307	0.0905	296614	keystroke	Key.space	n/a
148.382	0.1345	296764	keystroke	a	n/a
148.502	0.0595	297004	keystroke	p	n/a
148.652	0.0895	297304	keystroke	p	n/a
148.682	0.165	297364	keystroke	o	n/a
148.772	0.1345	297544	keystroke	i	n/a
148.833	0.1185	297666	keystroke	n	n/a
148.862	0.1195	297724	keystroke	t	n/a
148.967	0.0505	297934	keystroke	e	n/a
149.117	0.0895	298234	keystroke	d	n/a
149.267	0.0895	298534	keystroke	Key.space	n/a
149.4025	0.089	298805	keystroke	c	n/a
149.597	0.0895	299194	keystroke	h	n/a
149.717	0.0895	299434	keystroke	e	n/a
149.867	0.075	299734	keystroke	v	n/a
150.047	0.0895	300094	keystroke	r	n/a
150.122	0.0895	300244	keystroke	o	n/a
150.272	0.0895	300544	keystroke	l	n/a
150.332	0.1045	300664	keystroke	e	n/a
150.407	0.1045	300814	keystroke	t	n/a
150.497	0.0745	300994	keystroke	Key.enter	n/a
150.581	4.4625	301162	prompt	n/a	group annex corps pharmacology\n
151.142	0.0745	302284	keystroke	g	n/a
151.307	0.1195	302614	keystroke	r	n/a
151.3525	0.179	302705	keystroke	o	n/a
151.442	0.1045	302884	keystroke	u	n/a
151.487	0.1195	302974	keystroke	p	n/a
151.622	0.0745	303244	keystroke	Key.space	n/a
151.712	0.1195	303424	keystroke	a	n/a
151.8025	0.074	303605	keystroke	n	n/a
151.937	0.0895	303874	keystroke	n	n/a
151.997	0.0745	303994	keystroke	e	n/a
152.192	0.0745	304384	keystroke	x	n/a
152.267	0.0745	304534	keystroke	Key.space	n/a
152.372	0.0745	304744	keystroke	c	n/a
152.477	0.0895	304954	keystroke	o	n/a
152.5525	0.134	305105	keystroke	r	n/a
152.717	0.1045	305434	keystroke	p	n/a
152.747	0.06	305494	keystroke	s	n/a
153.212	0.0895	306424	keystroke	Key.space	n/a
153.407	0.1195	306814	keystroke	p	n/a
153.587	0.1045	307174	keystroke	h	n/a
153.737	0.1495	307474	keystroke	a	n/a
153.842	0.1045	307684	keystroke	r	n/a
153.978	0.1035	307956	keystroke	m	n/a
154.097	0.0745	308194	keystroke	a	n/a
154.262	0.0895	308524	keystroke	c	n/a
154.337	0.0595	308674	keystroke	o	n/a
154.487	0.0595	308974	keystroke	l	n/a
154.637	0.0895	309274	keystroke	o	n/a
154.742	0.0895	309484	keystroke	g	n/a
154.8025	0.074	309605	keystroke	y	n/a
154.952	0.0895	309904	keystroke	Key.enter	n/a
155.057	3.572	310114	prompt	n/a	guests promised group meet\n
155.672	0.0745	311344	keystroke	g	n/a
155.837	0.0895	311674	keystroke	u	n/a
155.912	0.1795	311824	keystroke	e	n/a
156.017	0.1045	312034	keystroke	s	n/a
156.137	0.0145	312274	keystroke	t	n/a
156.197	0.12	312394	keystroke	s	n/a
156.272	0.1045	312544	keystroke	Key.space	n/a
156.812	0.1045	313624	keystroke	p	n/a
156.932	0.1195	313864	keystroke	r	n/a
156.992	0.1045	313984	keystroke	o	n/a
157.067	0.1195	314134	keystroke	m	n/a
157.142	0.1195	314284	keystroke	i	n/a
157.2315	0.105	314463	keystroke	s	n/a
157.307	0.0745	314614	keystroke	e	n/a
157.442	0.0895	314884	keystroke	d	n/a
157.517	0.0895	315034	keystroke	Key.space	n/a
157.592	0.0745	315184	keystroke	g	n/a
157.727	0.1195	315454	keystroke	r	n/a
157.802	0.1195	315604	keystroke	o	n/a
157.832	0.1495	315664	keystroke	u	n/a
157.877	0.135	315754	keystroke	p	n/a
157.997	0.0895	315994	keystroke	Key.space	n/a
158.102	0.0895	316204	keystroke	m	n/a
158.192	0.0595	316384	keystroke	e	n/a
158.327	0.1195	316654	keystroke	e	n/a
158.432	0.105	316864	keystroke	t	n/a
158.552	0.0745	317104	keystroke	Key.enter	n/a
158.637	3.4715	317274	prompt	n/a	till harvest sega burn\n
159.287	0.0895	318574	keystroke	t	n/a
159.347	0.0745	318694	keystroke	i	n/a
159.497	0.0595	318994	keystroke	l	n/a
159.6175	0.089	319235	keystroke	l	n/a
159.722	0.1045	319444	keystroke	Key.space	n/a
159.812	0.0745	319624	keystroke	h	n/a
159.902	0.1045	319804	keystroke	a	n/a
159.947	0.0895	319894	keystroke	r	n/a
160.127	0.1045	320254	keystroke	v	n/a
160.247	0.2245	320494	keystroke	e	n/a
160.322	0.1645	320644	keystroke	s	n/a
160.412	0.1495	320824	keystroke	t	n/a
160.532	0.1045	321064	keystroke	Key.space	n/a
160.832	0.1645	321664	keystroke	s	n/a
160.997	0.1345	321994	keystroke	e	n/a
161.147	0.12	322294	keystroke	g	n/a
161.282	0.1495	322564	keystroke	a	n/a
161.4175	0.074	322835	keystroke	Key.space	n/a
161.522	0.0895	323044	keystroke	b	n/a
161.642	0.1195	323284	keystroke	u	n/a
161.747	0.0895	323494	keystroke	r	n/a
161.852	0.0895	323704	keystroke	n	n/a
162.017	0.0895	324034	keystroke	Key.enter	n/a
162.115	4.3735	324230	prompt	n/a	palestine eggs chevrolet posting\n
162.782	0.1045	325564	keystroke	p	n/a
162.902	0.1195	325804	keystroke	a	n/a
163.037	0.1045	326074	keystroke	l	n/a
163.172	0.1795	326344	keystroke	e	n/a
163.292	0.1195	326584	keystroke	s	n/a
163.352	0.1195	326704	keystroke	t	n/a
163.457	0.0895	326914	keystroke	i	n/a
163.5175	0.089	327035	keystroke	n	n/a
163.562	0.12	327124	keystroke	e	n/a
163.667	0.1195	327334	keystroke	Key.space	n/a
163.802	0.1045	327604	keystroke	e	n/a
163.892	0.0745	327784	keystroke	g	n/a
164.042	0.1345	328084	keystroke	g	n/a
164.162	0.105	328324	keystroke	s	n/a
164.252	0.0895	328504	keystroke	Key.space	n/a
164.417	0.0895	328834	keystroke	c	n/a
164.522	0.1045	329044	keystroke	h	n/a
164.642	0.06	329284	keystroke	e	n/a
164.7475	0.104	329495	keystroke	v	n/a
164.957	0.1045	329914	keystroke	r	n/a
165.017	0.0745	330034	keystroke	o	n/a
165.167	0.1045	330334	keystroke	l	n/a
165.2575	0.089	330515	keystroke	e	n/a
165.317	0.1195	330634	keystroke	t	n/a
165.4675	0.104	330935	keystroke	Key.space	n/a
165.722	0.0895	331444	keystroke	p	n/a
165.827	0.1045	331654	keystroke	o	n/a
165.962	0.12	331924	keystroke	s	n/a
166.052	0.1195	332104	keystroke	t	n/a
166.127	0.105	332254	keystroke	i	n/a
166.187	0.0895	332374	keystroke	n	n/a
166.292	0.09	332584	keystroke	g	n/a
166.397	0.0895	332794	keystroke	Key.enter	n/a
166.496	3.8475	332992	prompt	n/a	associations jazz roger singing\n
167.102	0.0895	334204	keystroke	a	n/a
167.177	0.0745	334354	keystroke	s	n/a
167.3265	0.09	334653	keystroke	s	n/a
167.462	0.1045	334924	keystroke	o	n/a
167.582	0.0745	335164	keystroke	c	n/a
167.702	0.0895	335404	keystroke	i	n/a
167.807	0.1045	335614	keystroke	a	n/a
167.852	0.1345	335704	keystroke	t	n/a
167.957	0.1495	335914	keystroke	i	n/a
168.017	0.12	336034	keystroke	o	n/a
168.077	0.1045	336154	keystroke	n	n/a
168.152	0.105	336304	keystroke	s	n/a
168.227	0.1495	336454	keystroke	Key.space	n/a
168.332	0.0895	336664	keystroke	j	n/a
168.392	0.1045	336784	keystroke	a	n/a
168.602	0.0745	337204	keystroke	z	n/a
168.767	0.12	337534	keystroke	z	n/a
168.872	0.1045	337744	keystroke	Key.space	n/a
169.007	0.1045	338014	keystroke	r	n/a
169.097	0.0895	338194	keystroke	o	n/a
169.187	0.0895	338374	keystroke	g	n/a
169.337	0.0895	338674	keystroke	e	n/a
169.397	0.1345	338794	keystroke	r	n/a
169.487	0.0595	338974	keystroke	Key.space	n/a
169.562	0.1345	339124	keystroke	s	n/a
169.682	0.1045	339364	keystroke	i	n/a
169.742	0.1195	339484	keystroke	n	n/a
169.8325	0.119	339665	keystroke	g	n/a
169.967	0.1045	339934	keystroke	i	n/a
170.012	0.1195	340024	keystroke	n	n/a
170.117	0.09	340234	keystroke	g	n/a
170.252	0.0895	340504	keystroke	Key.enter	n/a
170.3515	3.9375	340703	prompt	n/a	bean aggregate who're yemen\n
170.897	0.075	341794	keystroke	b	n/a
171.032	0.1195	342064	keystroke	e	n/a
171.122	0.1645	342244	keystroke	a	n/a
171.227	0.0745	342454	keystroke	n	n/a
171.317	0.0895	342634	keystroke	Key.space	n/a
171.392	0.1195	342784	keystroke	a	n/a
171.4825	0.089	342965	keystroke	g	n/a
171.6325	0.089	343265	keystroke	g	n/a
171.812	0.1645	343624	keystroke	r	n/a
171.902	0.1495	343804	keystroke	e	n/a
172.142	0.1045	344284	keystroke	g	n/a
172.277	0.1195	344554	keystroke	a	n/a
172.352	0.1345	344704	keystroke	t	n/a
172.442	0.0895	344884	keystroke	e	n/a
172.502	0.0895	345004	keystroke	Key.space	n/a
172.607	0.1045	345214	keystroke	w	n/a
172.727	0.105	345454	keystroke	h	n/a
172.817	0.1345	345634	keystroke	o	n/a
173.072	0.1045	346144	keystroke	'	n/a
173.192	0.1195	346384	keystroke	r	n/a
173.252	0.105	346504	keystroke	e	n/a
173.342	0.1045	346684	keystroke	Key.space	n/a
173.4325	0.104	346865	keystroke	y	n/a
173.552	0.1045	347104	keystroke	e	n/a
173.687	0.1045	347374	keystroke	m	n/a
173.807	0.1495	347614	keystroke	e	n/a
173.882	0.0895	347764	keystroke	n	n/a
174.212	0.0745	348424	keystroke	Key.enter	n/a
174.2965	4.657	348593	prompt	n/a	properties employees greenhouse breach\n
175.037	0.1045	350074	keystroke	p	n/a
175.157	0.1045	350314	keystroke	r	n/a
175.277	0.0745	350554	keystroke	o	n/a
175.307	0.1195	350614	keystroke	p	n/a
175.397	0.1045	350794	keystroke	e	n/a
175.472	0.1045	350944	keystroke	r	n/a
175.622	0.1495	351244	keystroke	t	n/a
175.712	0.1045	351424	keystroke	i	n/a
175.787	0.1345	351574	keystroke	e	n/a
175.847	0.1195	351694	keystroke	s	n/a
175.937	0.0745	351874	keystroke	Key.space	n/a
176.057	0.0745	352114	keystroke	e	n/a
176.102	0.1345	352204	keystroke	m	n/a
176.192	0.0745	352384	keystroke	p	n/a
176.327	0.0745	352654	keystroke	l	n/a
176.522	0.075	353044	keystroke	o	n/a
176.5675	0.1045	353135	keystroke	y	n/a
176.657	0.0595	353314	keystroke	e	n/a
176.792	0.0895	353584	keystroke	e	n/a
176.912	0.1195	353824	keystroke	s	n/a
177.002	0.0895	354004	keystroke	Key.space	n/a
177.122	0.0745	354244	keystroke	g	n/a
177.272	0.1045	354544	keystroke	r	n/a
177.3475	0.074	354695	keystroke	e	n/a
177.4975	0.119	354995	keystroke	e	n/a
177.557	0.0745	355114	keystroke	n	n/a
177.722	0.0745	355444	keystroke	h	n/a
177.827	0.105	355654	keystroke	o	n/a
177.872	0.1195	355744	keystroke	u	n/a
177.962	0.1345	355924	keystroke	s	n/a
178.037	0.1045	356074	keystroke	e	n/a
178.127	0.0595	356254	keystroke	Key.space	n/a
178.217	0.0895	356434	keystroke	b	n/a
178.427	0.1345	356854	keystroke	r	n/a
178.472	0.1045	356944	keystroke	e	n/a
178.5475	0.104	357095	keystroke	a	n/a
178.697	0.0745	357394	keystroke	c	n/a
178.757	0.0745	357514	keystroke	h	n/a
178.877	0.0745	357754	keystroke	Key.enter	n/a
178.961	3.217	357922	prompt	n/a	responses update hosted late\n
179.537	0.1345	359074	keystroke	r	n/a
179.612	0.12	359224	keystroke	e	n/a
179.672	0.1045	359344	keystroke	s	n/a
179.762	0.0745	359524	keystroke	p	n/a
179.792	0.1495	359584	keystroke	o	n/a
179.867	0.1195	359734	keystroke	n	n/a
179.912	0.1345	359824	keystroke	s	n/a
180.002	0.1345	360004	keystroke	e	n/a
180.197	0.1045	360394	keystroke	s	n/a
180.4665	0.09	360933	keystroke	Key.space	n/a
180.572	0.1195	361144	keystroke	u	n/a
180.6325	0.104	361265	keystroke	p	n/a
180.707	0.1195	361414	keystroke	d	n/a
180.827	0.1345	361654	keystroke	a	n/a
180.917	0.0745	361834	keystroke	t	n/a
180.962	0.0595	361924	keystroke	e	n/a
181.112	0.1045	362224	keystroke	d	n/a
181.202	0.1045	362404	keystroke	Key.space	n/a
181.232	0.1045	362464	keystroke	h	n/a
181.322	0.0895	362644	keystroke	o	n/a
181.3665	0.105	362733	keystroke	s	n/a
181.457	0.075	362914	keystroke	t	n/a
181.502	0.0595	363004	keystroke	e	n/a
181.637	0.1195	363274	keystroke	d	n/a
181.7115	0.105	363423	keystroke	Key.space	n/a
181.802	0.0895	363604	keystroke	l	n/a
181.877	0.1495	363754	keystroke	a	n/a
181.952	0.1045	363904	keystroke	t	n/a
181.9975	0.104	363995	keystroke	e	n/a
182.102	0.0745	364204	keystroke	Key.enter	n/a
182.193	3.5415	364386	prompt	n/a	sink nursery blogger tomato\n
182.837	0.0895	365674	keystroke	s	n/a
182.897	0.0895	365794	keystroke	i	n/a
182.957	0.1045	365914	keystroke	n	n/a
183.092	0.0895	366184	keystroke	k	n/a
183.1975	0.104	366395	keystroke	Key.space	n/a
183.272	0.0745	366544	keystroke	n	n/a
183.452	0.0745	366904	keystroke	u	n/a
183.4975	0.119	366995	keystroke	r	n/a
183.602	0.1345	367204	keystroke	s	n/a
183.677	0.12	367354	keystroke	e	n/a
183.752	0.1345	367504	keystroke	r	n/a
183.827	0.0895	367654	keystroke	y	n/a
183.932	0.0745	367864	keystroke	Key.space	n/a
184.052	0.1045	368104	keystroke	b	n/a
184.172	0.0445	368344	keystroke	l	n/a
184.2915	0.09	368583	keystroke	o	n/a
184.457	0.0895	368914	keystroke	g	n/a
184.622	0.1045	369244	keystroke	g	n/a
184.7715	0.12	369543	keystroke	e	n/a
184.847	0.1045	369694	keystroke	r	n/a
184.937	0.0895	369874	keystroke	Key.space	n/a
185.042	0.1055	370084	keystroke	t	n/a
185.117	0.1045	370234	keystroke	o	n/a
185.162	0.135	370324	keystroke	m	n/a
185.237	0.1345	370474	keystroke	a	n/a
185.357	0.1195	370714	keystroke	t	n/a
185.492	0.0595	370984	keystroke	o	n/a
185.657	0.0745	371314	keystroke	Key.enter	n/a
185.7425	4.266	371485	prompt	n/a	chains sharp wyoming javascript\n
186.3625	0.104	372725	keystroke	c	n/a
186.482	0.0895	372964	keystroke	h	n/a
186.587	0.1495	373174	keystroke	a	n/a
186.692	0.0895	373384	keystroke	i	n/a
186.752	0.1045	373504	keystroke	n	n/a
186.842	0.1045	373684	keystroke	s	n/a
186.947	0.0895	373894	keystroke	Key.space	n/a
187.067	0.1045	374134	keystroke	s	n/a
187.157	0.0895	374314	keystroke	h	n/a
187.262	0.1345	374524	keystroke	a	n/a
187.337	0.1195	374674	keystroke	r	n/a
187.472	0.0905	374944	keystroke	p	n/a
187.5645	0.087	375129	keystroke	Key.space	n/a
187.652	0.12	375304	keystroke	w	n/a
187.757	0.105	375514	keystroke	y	n/a
187.922	0.1645	375844	keystroke	o	n/a
188.027	0.1345	376054	keystroke	m	n/a
188.177	0.12	376354	keystroke	i	n/a
188.237	0.1195	376474	keystroke	n	n/a
188.3125	0.149	376625	keystroke	g	n/a
188.417	0.1195	376834	keystroke	Key.space	n/a
188.492	0.1195	376984	keystroke	j	n/a
188.5975	0.104	377195	keystroke	a	n/a
188.717	0.0445	377434	keystroke	v	n/a
188.777	0.1345	377554	keystroke	a	n/a
188.897	0.0595	377794	keystroke	s	n/a
189.407	0.0745	378814	keystroke	c	n/a
189.572	0.1045	379144	keystroke	r	n/a
189.632	0.1045	379264	keystroke	i	n/a
189.692	0.1045	379384	keystroke	p	n/a
189.767	0.0895	379534	keystroke	t	n/a
189.932	0.075	379864	keystroke	Key.enter	n/a
190.0165	4.1325	380033	prompt	n/a	springer yale representing provider\n
190.727	0.1195	381454	keystroke	s	n/a
190.817	0.1195	381634	keystroke	p	n/a
190.982	0.1195	381964	keystroke	r	n/a
191.117	0.0895	382234	keystroke	i	n/a
191.147	0.1195	382294	keystroke	n	n/a
191.252	0.0595	382504	keystroke	g	n/a
191.357	0.1345	382714	keystroke	e	n/a
191.417	0.1345	382834	keystroke	r	n/a
191.507	0.1045	383014	keystroke	Key.space	n/a
191.5665	0.09	383133	keystroke	y	n/a
191.672	0.1195	383344	keystroke	a	n/a
191.7625	0.119	383525	keystroke	l	n/a
191.837	0.1195	383674	keystroke	e	n/a
191.942	0.1045	383884	keystroke	Key.space	n/a
192.064	0.0725	384128	keystroke	r	n/a
192.092	0.1495	384184	keystroke	e	n/a
192.302	0.1045	384604	keystroke	p	n/a
192.437	0.15	384874	keystroke	r	n/a
192.527	0.135	385054	keystroke	e	n/a
192.617	0.1795	385234	keystroke	s	n/a
192.752	0.1045	385504	keystroke	e	n/a
192.8125	0.089	385625	keystroke	n	n/a
192.902	0.1195	385804	keystroke	t	n/a
193.007	0.1345	386014	keystroke	i	n/a
193.052	0.1195	386104	keystroke	n	n/a
193.1265	0.12	386253	keystroke	g	n/a
193.217	0.0895	386434	keystroke	Key.space	n/a
193.277	0.105	386554	keystroke	p	n/a
193.367	0.12	386734	keystroke	r	n/a
193.472	0.09	386944	keystroke	o	n/a
193.577	0.1045	387154	keystroke	v	n/a
193.667	0.1045	387334	keystroke	i	n/a
193.757	0.06	387514	keystroke	d	n/a
193.892	0.12	387784	keystroke	e	n/a
193.952	0.1195	387904	keystroke	r	n/a
194.072	0.0745	388144	keystroke	Key.enter	n/a
194.1585	4.295	388317	prompt	n/a	replies memorial flat kazakhstan\n
194.807	0.105	389614	keystroke	r	n/a
194.867	0.1345	389734	keystroke	e	n/a
194.972	0.09	389944	keystroke	p	n/a
195.122	0.1045	390244	keystroke	l	n/a
195.182	0.1045	390364	keystroke	i	n/a
195.212	0.1645	390424	keystroke	e	n/a
195.272	0.1495	390544	keystroke	s	n/a
195.392	0.1045	390784	keystroke	Key.space	n/a
195.572	0.1195	391144	keystroke	m	n/a
195.8125	0.089	391625	keystroke	e	n/a
195.947	0.12	391894	keystroke	m	n/a
196.022	0.1045	392044	keystroke	o	n/a
196.142	0.0895	392284	keystroke	r	n/a
196.202	0.0895	392404	keystroke	i	n/a
196.307	0.1495	392614	keystroke	a	n/a
196.382	0.0895	392764	keystroke	l	n/a
196.502	0.0745	393004	keystroke	Key.space	n/a
196.607	0.1195	393214	keystroke	f	n/a
196.697	0.0895	393394	keystroke	l	n/a
196.8025	0.119	393605	keystroke	a	n/a
196.847	0.1345	393694	keystroke	t	n/a
196.937	0.12	393874	keystroke	Key.space	n/a
197.042	0.0595	394084	keystroke	k	n/a
197.147	0.0595	394294	keystroke	a	n/a
197.3125	0.074	394625	keystroke	z	n/a
197.4775	0.134	394955	keystroke	a	n/a
197.567	0.1045	395134	keystroke	k	n/a
197.657	0.1045	395314	keystroke	h	n/a
197.778	0.134	395556	keystroke	s	n/a
197.9275	0.104	395855	keystroke	t	n/a
198.0775	0.119	396155	keystroke	a	n/a
198.182	0.1045	396364	keystroke	n	n/a
198.377	0.0745	396754	keystroke	Key.enter	n/a
198.4605	3.398	396921	prompt	n/a	peeing lycos crew websites\n
199.1415	0.075	398283	keystroke	p	n/a
199.202	0.0895	398404	keystroke	e	n/a
199.382	0.1045	398764	keystroke	e	n/a
199.517	0.1195	399034	keystroke	i	n/a
199.5775	0.104	399155	keystroke	n	n/a
199.667	0.1195	399334	keystroke	g	n/a
199.7415	0.105	399483	keystroke	Key.space	n/a
199.817	0.1045	399634	keystroke	l	n/a
199.967	0.09	399934	keystroke	y	n/a
200.072	0.1045	400144	keystroke	c	n/a
200.1625	0.089	400325	keystroke	o	n/a
200.237	0.1045	400474	keystroke	s	n/a
200.327	0.0745	400654	keystroke	Key.space	n/a
200.417	0.0895	400834	keystroke	c	n/a
200.597	0.1345	401194	keystroke	r	n/a
200.6565	0.135	401313	keystroke	e	n/a
200.702	0.1645	401404	keystroke	w	n/a
200.852	0.1045	401704	keystroke	Key.space	n/a
201.017	0.1345	402034	keystroke	w	n/a
201.0915	0.105	402183	keystroke	e	n/a
201.272	0.0745	402544	keystroke	b	n/a
201.377	0.1645	402754	keystroke	s	n/a
201.437	0.1045	402874	keystroke	i	n/a
201.557	0.1345	403114	keystroke	t	n/a
201.6175	0.134	403235	keystroke	e	n/a
201.707	0.12	403414	keystroke	s	n/a
201.782	0.0745	403564	keystroke	Key.enter	n/a
201.866	5.257	403732	prompt	n/a	programmers visiting perspective logged\n
202.4275	0.119	404855	keystroke	p	n/a
202.532	0.1045	405064	keystroke	r	n/a
202.652	0.0895	405304	keystroke	o	n/a
202.727	0.0595	405454	keystroke	g	n/a
202.862	0.0895	405724	keystroke	r	n/a
202.922	0.1345	405844	keystroke	a	n/a
203.012	0.075	406024	keystroke	m	n/a
203.1465	0.09	406293	keystroke	m	n/a
203.222	0.1195	406444	keystroke	e	n/a
203.267	0.1345	406534	keystroke	r	n/a
203.357	0.1045	406714	keystroke	s	n/a
203.447	0.06	406894	keystroke	Key.space	n/a
203.522	0.1195	407044	keystroke	v	n/a
203.657	0.0895	407314	keystroke	i	n/a
203.7625	0.104	407525	keystroke	s	n/a
203.882	0.1045	407764	keystroke	i	n/a
203.972	0.1195	407944	keystroke	t	n/a
204.0775	0.104	408155	keystroke	i	n/a
204.122	0.135	408244	keystroke	n	n/a
204.227	0.1045	408454	keystroke	g	n/a
204.287	0.1045	408574	keystroke	Key.space	n/a
204.392	0.1045	408784	keystroke	p	n/a
204.467	0.12	408934	keystroke	e	n/a
204.557	0.12	409114	keystroke	r	n/a
204.647	0.1345	409294	keystroke	s	n/a
204.752	0.1045	409504	keystroke	p	n/a
204.827	0.0745	409654	keystroke	e	n/a
205.052	0.03	410104	keystroke	c	n/a
205.172	0.0745	410344	keystroke	t	n/a
205.2775	0.089	410555	keystroke	i	n/a
205.382	0.1045	410764	keystroke	v	n/a
205.472	0.0895	410944	keystroke	e	n/a
205.637	0.1045	411274	keystroke	d	n/a
206.012	0.0745	412024	keystroke	Key.backspace	n/a
206.207	0.0895	412414	keystroke	Key.space	n/a
206.312	0.0595	412624	keystroke	l	n/a
206.492	0.0745	412984	keystroke	o	n/a
206.552	0.075	413104	keystroke	g	n/a
206.7175	0.0595	413435	keystroke	g	n/a
206.792	0.0895	413584	keystroke	e	n/a
206.942	0.09	413884	keystroke	d	n/a
207.0475	0.074	414095	keystroke	Key.enter	n/a
207.136	4.922	414272	prompt	n/a	threatened filters communication savings\n
207.782	0.105	415564	keystroke	t	n/a
207.932	0.0895	415864	keystroke	h	n/a
208.022	0.1495	416044	keystroke	r	n/a
208.097	0.165	416194	keystroke	e	n/a
208.217	0.1645	416434	keystroke	a	n/a
208.3225	0.1355	416645	keystroke	t	n/a
208.412	0.1205	416824	keystroke	e	n/a
208.5175	0.0745	417035	keystroke	n	n/a
208.637	0.075	417274	keystroke	e	n/a
208.787	0.09	417574	keystroke	d	n/a
208.8625	0.074	417725	keystroke	Key.space	n/a
208.967	0.1195	417934	keystroke	f	n/a
209.072	0.1495	418144	keystroke	i	n/a
209.147	0.1345	418294	keystroke	l	n/a
209.237	0.0895	418474	keystroke	t	n/a
209.342	0.12	418684	keystroke	e	n/a
209.432	0.1195	418864	keystroke	r	n/a
209.4775	0.119	418955	keystroke	s	n/a
209.567	0.0895	419134	keystroke	Key.space	n/a
209.702	0.1045	419404	keystroke	c	n/a
209.792	0.0745	419584	keystroke	o	n/a
209.822	0.0895	419644	keystroke	m	n/a
209.972	0.0895	419944	keystroke	m	n/a
210.167	0.0595	420334	keystroke	u	n/a
210.332	0.1045	420664	keystroke	n	n/a
210.3925	0.119	420785	keystroke	i	n/a
210.422	0.105	420844	keystroke	c	n/a
210.542	0.135	421084	keystroke	a	n/a
210.602	0.12	421204	keystroke	t	n/a
210.707	0.1495	421414	keystroke	i	n/a
210.767	0.1195	421534	keystroke	o	n/a
210.827	0.1045	421654	keystroke	n	n/a
211.037	0.0895	422074	keystroke	Key.space	n/a
211.307	0.1045	422614	keystroke	s	n/a
211.442	0.1195	422884	keystroke	a	n/a
211.517	0.1195	423034	keystroke	v	n/a
211.637	0.1045	423274	keystroke	i	n/a
211.697	0.1045	423394	keystroke	n	n/a
211.757	0.105	423514	keystroke	g	n/a
211.832	0.1345	423664	keystroke	s	n/a
211.982	0.0745	423964	keystroke	Key.enter	n/a
212.067	5.392	424134	prompt	n/a	brand aspect petroleum halloween\n
212.657	0.0895	425314	keystroke	b	n/a
212.7925	0.1495	425585	keystroke	a	n/a
212.882	0.0895	425764	keystroke	n	n/a
213.167	0.0595	426334	keystroke	Key.backspace	n/a
213.302	0.0745	426604	keystroke	Key.backspace	n/a
213.437	0.1195	426874	keystroke	r	n/a
213.512	0.1345	427024	keystroke	a	n/a
213.602	0.09	427204	keystroke	n	n/a
213.662	0.1195	427324	keystroke	d	n/a
213.767	0.1045	427534	keystroke	Key.space	n/a
213.872	0.12	427744	keystroke	a	n/a
213.9775	0.134	427955	keystroke	s	n/a
214.127	0.0895	428254	keystroke	p	n/a
214.187	0.0895	428374	keystroke	e	n/a
214.412	0.0745	428824	keystroke	c	n/a
214.577	0.135	429154	keystroke	t	n/a
214.697	0.0895	429394	keystroke	Key.space	n/a
214.817	0.12	429634	keystroke	p	n/a
214.8925	0.119	429785	keystroke	e	n/a
215.087	0.1055	430174	keystroke	t	n/a
215.267	0.1345	430534	keystroke	r	n/a
215.387	0.0745	430774	keystroke	o	n/a
215.567	0.0895	431134	keystroke	l	n/a
215.702	0.1195	431404	keystroke	e	n/a
215.822	0.0895	431644	keystroke	u	n/a
216.002	0.1045	432004	keystroke	m	n/a
216.137	0.105	432274	keystroke	Key.space	n/a
216.227	0.09	432454	keystroke	h	n/a
216.347	0.1345	432694	keystroke	a	n/a
216.437	0.0895	432874	keystroke	l	n/a
216.587	0.0595	433174	keystroke	l	n/a
216.737	0.105	433474	keystroke	o	n/a
216.857	0.1045	433714	keystroke	w	n/a
216.917	0.0895	433834	keystroke	e	n/a
217.082	0.1195	434164	keystroke	e	n/a
217.187	0.0895	434374	keystroke	n	n/a
217.367	0.0895	434734	keystroke	Key.enter	n/a
217.47	3.394	434940	prompt	n/a	drive mint alloy o'clock\n
218.057	0.1045	436114	keystroke	d	n/a
218.282	0.1045	436564	keystroke	r	n/a
218.402	0.0745	436804	keystroke	i	n/a
218.492	0.105	436984	keystroke	v	n/a
218.582	0.1345	437164	keystroke	e	n/a
218.672	0.1195	437344	keystroke	Key.space	n/a
218.732	0.075	437464	keystroke	m	n/a
218.822	0.135	437644	keystroke	i	n/a
218.912	0.1045	437824	keystroke	n	n/a
218.9875	0.1195	437975	keystroke	t	n/a
219.062	0.1045	438124	keystroke	Key.space	n/a
219.152	0.1345	438304	keystroke	a	n/a
219.227	0.0745	438454	keystroke	l	n/a
219.392	0.0745	438784	keystroke	l	n/a
219.5575	0.1195	439115	keystroke	o	n/a
219.662	0.0895	439324	keystroke	y	n/a
219.782	0.0895	439564	keystroke	Key.space	n/a
219.917	0.075	439834	keystroke	o	n/a
220.067	0.09	440134	keystroke	'	n/a
220.1875	0.1045	440375	keystroke	c	n/a
220.3075	0.044	440615	keystroke	l	n/a
220.4425	0.089	440885	keystroke	o	n/a
220.547	0.0895	441094	keystroke	c	n/a
220.622	0.0595	441244	keystroke	k	n/a
220.757	0.1045	441514	keystroke	Key.enter	n/a
220.8715	6.3225	441743	prompt	n/a	page katie assembled italiano\n
221.537	0.1055	443074	keystroke	p	n/a
221.6575	0.149	443315	keystroke	a	n/a
221.777	0.12	443554	keystroke	g	n/a
221.882	0.12	443764	keystroke	e	n/a
221.9715	0.105	443943	keystroke	Key.space	n/a
222.032	0.0895	444064	keystroke	k	n/a
222.152	0.1345	444304	keystroke	a	n/a
222.2425	0.134	444485	keystroke	t	n/a
222.347	0.09	444694	keystroke	i	n/a
222.452	0.105	444904	keystroke	e	n/a
222.542	0.0895	445084	keystroke	Key.space	n/a
222.647	0.1045	445294	keystroke	a	n/a
222.767	0.12	445534	keystroke	s	n/a
222.962	0.0745	445924	keystroke	e	n/a
223.142	0.1195	446284	keystroke	e	n/a
223.322	0.0895	446644	keystroke	m	n/a
223.4575	0.104	446915	keystroke	b	n/a
223.652	0.0895	447304	keystroke	l	n/a
223.757	0.0895	447514	keystroke	e	n/a
224.012	0.0595	448024	keystroke	Key.backspace	n/a
224.1475	0.074	448295	keystroke	Key.backspace	n/a
224.297	0.0745	448594	keystroke	Key.backspace	n/a
224.447	0.0595	448894	keystroke	Key.backspace	n/a
224.582	0.0745	449164	keystroke	Key.backspace	n/a
224.747	0.06	449494	keystroke	Key.backspace	n/a
224.972	0.0895	449944	keystroke	s	n/a
225.047	0.1345	450094	keystroke	e	n/a
225.167	0.09	450334	keystroke	m	n/a
225.272	0.105	450544	keystroke	b	n/a
225.392	0.075	450784	keystroke	l	n/a
225.452	0.0895	450904	keystroke	e	n/a
225.602	0.0895	451204	keystroke	d	n/a
225.7075	0.059	451415	keystroke	Key.space	n/a
225.782	0.0895	451564	keystroke	t	n/a
226.052	0.06	452104	keystroke	Key.backspace	n/a
226.247	0.1195	452494	keystroke	i	n/a
226.352	0.105	452704	keystroke	t	n/a
226.4425	0.134	452885	keystroke	a	n/a
226.562	0.105	453124	keystroke	l	n/a
226.622	0.1045	453244	keystroke	i	n/a
226.727	0.1045	453454	keystroke	a	n/a
226.832	0.1045	453664	keystroke	n	n/a
226.922	0.1045	453844	keystroke	o	n/a
227.117	0.0745	454234	keystroke	Key.enter	n/a
227.203	3.561	454406	prompt	n/a	subscribe calls face ranks\n
227.762	0.1045	455524	keystroke	s	n/a
227.867	0.1045	455734	keystroke	u	n/a
227.9575	0.104	455915	keystroke	b	n/a
228.092	0.0895	456184	keystroke	s	n/a
228.227	0.1045	456454	keystroke	c	n/a
228.407	0.075	456814	keystroke	r	n/a
228.497	0.0895	456994	keystroke	i	n/a
228.572	0.0895	457144	keystroke	b	n/a
228.707	0.1195	457414	keystroke	e	n/a
228.827	0.0595	457654	keystroke	Key.space	n/a
228.947	0.0745	457894	keystroke	c	n/a
229.052	0.1495	458104	keystroke	a	n/a
229.157	0.0595	458314	keystroke	l	n/a
229.3075	0.074	458615	keystroke	l	n/a
229.3365	0.1355	458673	keystroke	s	n/a
229.442	0.0745	458884	keystroke	Key.space	n/a
229.682	0.1345	459364	keystroke	f	n/a
229.787	0.0745	459574	keystroke	a	n/a
229.907	0.0895	459814	keystroke	c	n/a
230.0725	0.0895	460145	keystroke	e	n/a
230.147	0.075	460294	keystroke	Key.space	n/a
230.237	0.105	460474	keystroke	r	n/a
230.312	0.1345	460624	keystroke	a	n/a
230.387	0.1195	460774	keystroke	n	n/a
230.477	0.09	460954	keystroke	k	n/a
230.5525	0.1045	461105	keystroke	s	n/a
230.702	0.0595	461404	keystroke	Key.enter	n/a
230.77	4.779	461540	prompt	n/a	rescue viewing weapon embedded\n
231.437	0.15	462874	keystroke	r	n/a
231.497	0.1495	462994	keystroke	e	n/a
231.602	0.12	463204	keystroke	s	n/a
231.812	0.0895	463624	keystroke	c	n/a
231.932	0.0895	463864	keystroke	u	n/a
232.037	0.0895	464074	keystroke	e	n/a
232.112	0.0895	464224	keystroke	Key.space	n/a
232.217	0.0895	464434	keystroke	v	n/a
232.382	0.1045	464764	keystroke	i	n/a
232.502	0.1645	465004	keystroke	e	n/a
232.577	0.1495	465154	keystroke	w	n/a
232.712	0.1195	465424	keystroke	i	n/a
232.757	0.135	465514	keystroke	n	n/a
232.877	0.1195	465754	keystroke	g	n/a
232.952	0.0895	465904	keystroke	Key.space	n/a
233.162	0.1495	466324	keystroke	w	n/a
233.237	0.1045	466474	keystroke	e	n/a
233.3575	0.119	466715	keystroke	a	n/a
233.447	0.0895	466894	keystroke	p	n/a
233.492	0.1195	466984	keystroke	o	n/a
233.537	0.12	467074	keystroke	n	n/a
233.642	0.1045	467284	keystroke	Key.space	n/a
233.732	0.0895	467464	keystroke	w	n/a
234.002	0.0595	468004	keystroke	Key.backspace	n/a
234.107	0.09	468214	keystroke	e	n/a
234.212	0.0745	468424	keystroke	m	n/a
234.332	0.015	468664	keystroke	b	n/a
234.437	0.1045	468874	keystroke	e	n/a
234.7225	0.1045	469445	keystroke	d	n/a
234.917	0.06	469834	keystroke	d	n/a
235.0825	0.0895	470165	keystroke	e	n/a
235.247	0.09	470494	keystroke	d	n/a
235.473	0.0735	470946	keystroke	Key.enter	n/a
235.5555	4.448	471111	prompt	n/a	horizontal weblog proxy progress\n
236.087	0.0895	472174	keystroke	h	n/a
236.162	0.1045	472324	keystroke	o	n/a
236.282	0.1045	472564	keystroke	r	n/a
236.3875	0.0895	472775	keystroke	i	n/a
236.492	0.0895	472984	keystroke	z	n/a
236.597	0.1195	473194	keystroke	o	n/a
236.642	0.1195	473284	keystroke	n	n/a
236.777	0.1045	473554	keystroke	t	n/a
236.837	0.1945	473674	keystroke	a	n/a
236.9725	0.0895	473945	keystroke	l	n/a
237.047	0.1045	474094	keystroke	Key.space	n/a
237.437	0.0895	474874	keystroke	w	n/a
237.452	0.12	474904	keystroke	e	n/a
237.647	0.1045	475294	keystroke	b	n/a
237.707	0.075	475414	keystroke	l	n/a
237.842	0.1045	475684	keystroke	o	n/a
237.932	0.12	475864	keystroke	g	n/a
238.007	0.0895	476014	keystroke	Key.space	n/a
238.082	0.1045	476164	keystroke	p	n/a
238.202	0.105	476404	keystroke	r	n/a
238.262	0.105	476524	keystroke	o	n/a
238.412	0.165	476824	keystroke	x	n/a
238.502	0.09	477004	keystroke	y	n/a
238.622	0.0745	477244	keystroke	Key.space	n/a
238.712	0.12	477424	keystroke	p	n/a
238.817	0.1055	477634	keystroke	r	n/a
238.923	0.1035	477846	keystroke	o	n/a
239.012	0.0745	478024	keystroke	g	n/a
239.1625	0.1345	478325	keystroke	r	n/a
239.222	0.1195	478444	keystroke	e	n/a
239.312	0.0895	478624	keystroke	s	n/a
239.477	0.0895	478954	keystroke	s	n/a
239.927	0.0745	479854	keystroke	Key.enter	n/a
240.012	4.087	480024	prompt	n/a	jewish login valve declaration\n
240.632	0.105	481264	keystroke	j	n/a
240.722	0.1345	481444	keystroke	e	n/a
240.7975	0.149	481595	keystroke	w	n/a
240.932	0.105	481864	keystroke	i	n/a
241.052	0.1795	482104	keystroke	s	n/a
241.142	0.09	482284	keystroke	h	n/a
241.247	0.0895	482494	keystroke	Key.space	n/a
241.352	0.0595	482704	keystroke	l	n/a
241.502	0.1045	483004	keystroke	o	n/a
241.592	0.12	483184	keystroke	g	n/a
241.6825	0.119	483365	keystroke	i	n/a
241.742	0.105	483484	keystroke	n	n/a
241.907	0.0895	483814	keystroke	Key.space	n/a
242.012	0.1195	484024	keystroke	v	n/a
242.087	0.1645	484174	keystroke	a	n/a
242.237	0.1045	484474	keystroke	l	n/a
242.447	0.12	484894	keystroke	v	n/a
242.582	0.1195	485164	keystroke	e	n/a
242.687	0.0745	485374	keystroke	Key.space	n/a
242.8225	0.044	485645	keystroke	d	n/a
242.972	0.0745	485944	keystroke	e	n/a
243.152	0.1045	486304	keystroke	c	n/a
243.242	0.0895	486484	keystroke	l	n/a
243.362	0.1045	486724	keystroke	a	n/a
243.4375	0.119	486875	keystroke	r	n/a
243.542	0.135	487084	keystroke	a	n/a
243.617	0.1345	487234	keystroke	t	n/a
243.692	0.1645	487384	keystroke	i	n/a
243.767	0.1045	487534	keystroke	o	n/a
243.812	0.1045	487624	keystroke	n	n/a
244.022	0.0745	488044	keystroke	Key.enter	n/a
244.107	3.7265	488214	prompt	n/a	wasn't seats applied refused\n
244.697	0.1045	489394	keystroke	w	n/a
244.817	0.0895	489634	keystroke	a	n/a
244.877	0.1345	489754	keystroke	s	n/a
244.982	0.1195	489964	keystroke	n	n/a
245.072	0.1045	490144	keystroke	'	n/a
245.162	0.1195	490324	keystroke	t	n/a
245.252	0.1045	490504	keystroke	Key.space	n/a
245.372	0.15	490744	keystroke	s	n/a
245.492	0.1345	490984	keystroke	e	n/a
245.582	0.1645	491164	keystroke	a	n/a
245.702	0.1195	491404	keystroke	t	n/a
245.807	0.105	491614	keystroke	s	n/a
245.882	0.0895	491764	keystroke	Key.space	n/a
245.972	0.12	491944	keystroke	a	n/a
246.062	0.0895	492124	keystroke	p	n/a
246.227	0.1045	492454	keystroke	p	n/a
246.407	0.135	492814	keystroke	l	n/a
246.482	0.1195	492964	keystroke	i	n/a
246.557	0.0595	493114	keystroke	e	n/a
246.677	0.1195	493354	keystroke	d	n/a
246.812	0.0595	493624	keystroke	Key.space	n/a
246.872	0.1345	493744	keystroke	r	n/a
246.992	0.1045	493984	keystroke	e	n/a
247.232	0.1195	494464	keystroke	f	n/a
247.337	0.0895	494674	keystroke	u	n/a
247.442	0.1045	494884	keystroke	s	n/a
247.517	0.0745	495034	keystroke	e	n/a
247.667	0.0895	495334	keystroke	d	n/a
247.742	0.0895	495484	keystroke	Key.enter	n/a
247.841	7.5075	495682	prompt	n/a	case transportation profits where're\n
248.432	0.0745	496864	keystroke	c	n/a
248.5375	0.1495	497075	keystroke	a	n/a
248.6275	0.149	497255	keystroke	s	n/a
248.702	0.1345	497404	keystroke	e	n/a
248.807	0.0895	497614	keystroke	Key.space	n/a
248.897	0.0745	497794	keystroke	t	n/a
249.047	0.1195	498094	keystroke	r	n/a
249.137	0.1045	498274	keystroke	a	n/a
249.212	0.1045	498424	keystroke	n	n/a
249.332	0.1045	498664	keystroke	s	n/a
249.4375	0.104	498875	keystroke	p	n/a
249.497	0.1345	498994	keystroke	o	n/a
249.617	0.0895	499234	keystroke	r	n/a
249.767	0.1195	499534	keystroke	t	n/a
249.9015	0.135	499803	keystroke	a	n/a
249.962	0.1045	499924	keystroke	t	n/a
250.0515	0.1505	500103	keystroke	i	n/a
250.097	0.1345	500194	keystroke	o	n/a
250.172	0.1045	500344	keystroke	n	n/a
250.262	0.09	500524	keystroke	Key.space	n/a
250.337	0.1045	500674	keystroke	p	n/a
250.427	0.1045	500854	keystroke	r	n/a
250.517	0.135	501034	keystroke	o	n/a
250.607	0.0895	501214	keystroke	f	n/a
250.727	0.0895	501454	keystroke	i	n/a
250.787	0.1195	501574	keystroke	t	n/a
250.877	0.1195	501754	keystroke	s	n/a
250.967	0.0745	501934	keystroke	Key.space	n/a
251.087	0.1045	502174	keystroke	w	n/a
251.177	0.075	502354	keystroke	h	n/a
251.267	0.1045	502534	keystroke	e	n/a
251.357	0.1345	502714	keystroke	r	n/a
251.477	0.0595	502954	keystroke	e	n/a
252.137	0.0745	504274	keystroke	Key.backspace	n/a
252.287	0.0895	504574	keystroke	Key.backspace	n/a
252.767	0.0895	505534	keystroke	e	n/a
253.142	0.0745	506284	keystroke	Key.backspace	n/a
253.232	0.0895	506464	keystroke	r	n/a
253.292	0.0895	506584	keystroke	e	n/a
253.457	0.1045	506914	keystroke	'	n/a
253.577	0.075	507154	keystroke	r	n/a
253.622	0.0745	507244	keystroke	e	n/a
255.257	0.0895	510514	keystroke	Key.enter	n/a
255.356	3.788	510712	prompt	n/a	inputs alumni greene anger\n
255.947	0.1195	511894	keystroke	i	n/a
256.007	0.1045	512014	keystroke	n	n/a
256.157	0.1195	512314	keystroke	p	n/a
256.217	0.1045	512434	keystroke	u	n/a
256.292	0.1045	512584	keystroke	t	n/a
256.3525	0.119	512705	keystroke	s	n/a
256.427	0.0895	512854	keystroke	Key.space	n/a
256.532	0.1345	513064	keystroke	a	n/a
256.592	0.1045	513184	keystroke	l	n/a
256.682	0.0895	513364	keystroke	u	n/a
256.877	0.0895	513754	keystroke	m	n/a
257.057	0.1345	514114	keystroke	n	n/a
257.147	0.105	514294	keystroke	i	n/a
257.297	0.0745	514594	keystroke	Key.space	n/a
257.3575	0.104	514715	keystroke	g	n/a
257.537	0.0895	515074	keystroke	r	n/a
257.612	0.0595	515224	keystroke	e	n/a
257.747	0.0895	515494	keystroke	e	n/a
257.822	0.0895	515644	keystroke	n	n/a
257.942	0.0895	515884	keystroke	e	n/a
258.047	0.0745	516094	keystroke	Key.space	n/a
258.512	0.1495	517024	keystroke	a	n/a
258.6025	0.089	517205	keystroke	n	n/a
258.707	0.0895	517414	keystroke	g	n/a
258.842	0.1195	517684	keystroke	e	n/a
258.917	0.1045	517834	keystroke	r	n/a
259.052	0.0895	518104	keystroke	Key.enter	n/a
259.1525	3.711	518305	prompt	n/a	fighter consult polo nice\n
259.742	0.0895	519484	keystroke	f	n/a
259.7875	0.104	519575	keystroke	i	n/a
259.9215	0.09	519843	keystroke	g	n/a
259.982	0.0895	519964	keystroke	h	n/a
260.0865	0.105	520173	keystroke	t	n/a
260.207	0.1495	520414	keystroke	e	n/a
260.297	0.1195	520594	keystroke	r	n/a
260.387	0.0895	520774	keystroke	Key.space	n/a
260.537	0.1045	521074	keystroke	c	n/a
260.612	0.105	521224	keystroke	o	n/a
260.6575	0.104	521315	keystroke	n	n/a
260.732	0.1045	521464	keystroke	s	n/a
260.807	0.0895	521614	keystroke	o	n/a
261.197	0.0445	522394	keystroke	Key.backspace	n/a
261.347	0.0895	522694	keystroke	u	n/a
261.482	0.1045	522964	keystroke	l	n/a
261.557	0.1195	523114	keystroke	t	n/a
261.647	0.105	523294	keystroke	Key.space	n/a
261.707	0.1045	523414	keystroke	p	n/a
261.857	0.06	523714	keystroke	o	n/a
262.037	0.0595	524074	keystroke	l	n/a
262.2025	0.0745	524405	keystroke	o	n/a
262.292	0.1195	524584	keystroke	Key.space	n/a
262.397	0.1045	524794	keystroke	n	n/a
262.472	0.09	524944	keystroke	i	n/a
262.517	0.0745	525034	keystroke	c	n/a
262.682	0.0895	525364	keystroke	e	n/a
262.787	0.0745	525574	keystroke	Key.enter	n/a
262.8715	3.982	525743	prompt	n/a	confident prozac paris joyce\n
263.447	0.1045	526894	keystroke	c	n/a
263.537	0.09	527074	keystroke	o	n/a
263.567	0.0895	527134	keystroke	n	n/a
263.657	0.1045	527314	keystroke	f	n/a
263.747	0.0895	527494	keystroke	i	n/a
263.822	0.0895	527644	keystroke	d	n/a
263.972	0.0895	527944	keystroke	e	n/a
264.062	0.0895	528124	keystroke	n	n/a
264.137	0.1195	528274	keystroke	t	n/a
264.197	0.1195	528394	keystroke	Key.space	n/a
264.302	0.1045	528604	keystroke	p	n/a
264.452	0.1195	528904	keystroke	r	n/a
264.497	0.1195	528994	keystroke	o	n/a
265.022	0.0895	530044	keystroke	z	n/a
265.232	0.1045	530464	keystroke	a	n/a
265.397	0.1345	530794	keystroke	c	n/a
265.5175	0.0895	531035	keystroke	Key.space	n/a
265.622	0.1195	531244	keystroke	p	n/a
265.757	0.1355	531514	keystroke	a	n/a
265.8175	0.134	531635	keystroke	r	n/a
265.9225	0.0745	531845	keystroke	i	n/a
266.012	0.1195	532024	keystroke	s	n/a
266.057	0.1195	532114	keystroke	Key.space	n/a
266.1175	0.104	532235	keystroke	j	n/a
266.192	0.1045	532384	keystroke	o	n/a
266.327	0.09	532654	keystroke	y	n/a
266.4025	0.089	532805	keystroke	c	n/a
266.5675	0.0895	533135	keystroke	e	n/a
266.762	0.087	533524	keystroke	Key.enter	n/a
266.862	4.0265	533724	prompt	n/a	french airfare layers copies\n
267.4375	0.074	534875	keystroke	f	n/a
267.587	0.1195	535174	keystroke	r	n/a
267.677	0.1045	535354	keystroke	e	n/a
267.752	0.1045	535504	keystroke	n	n/a
267.902	0.1345	535804	keystroke	c	n/a
267.992	0.0895	535984	keystroke	h	n/a
268.097	0.0745	536194	keystroke	Key.space	n/a
268.187	0.165	536374	keystroke	a	n/a
268.337	0.0745	536674	keystroke	i	n/a
268.397	0.0895	536794	keystroke	r	n/a
268.577	0.09	537154	keystroke	f	n/a
268.682	0.1495	537364	keystroke	a	n/a
268.892	0.1195	537784	keystroke	r	n/a
268.967	0.1195	537934	keystroke	e	n/a
269.072	0.1045	538144	keystroke	Key.space	n/a
269.207	0.1045	538414	keystroke	l	n/a
269.312	0.1355	538624	keystroke	a	n/a
269.417	0.0895	538834	keystroke	y	n/a
269.492	0.0895	538984	keystroke	e	n/a
269.5675	0.119	539135	keystroke	r	n/a
269.6275	0.104	539255	keystroke	s	n/a
269.703	0.0735	539406	keystroke	Key.space	n/a
269.837	0.0895	539674	keystroke	c	n/a
269.912	0.165	539824	keystroke	o	n/a
269.972	0.135	539944	keystroke	p	n/a
270.092	0.0745	540184	keystroke	i	n/a
270.152	0.0745	540304	keystroke	e	n/a
270.302	0.06	540604	keystroke	d	n/a
270.587	0.0595	541174	keystroke	Key.backspace	n/a
270.662	0.1195	541324	keystroke	s	n/a
270.812	0.0745	541624	keystroke	Key.enter	n/a
270.8975	4.266	541795	prompt	n/a	compensation stores studying tissue\n
271.6825	0.089	543365	keystroke	c	n/a
271.727	0.105	543454	keystroke	o	n/a
271.787	0.1045	543574	keystroke	m	n/a
271.997	0.1045	543994	keystroke	p	n/a
272.1175	0.074	544235	keystroke	e	n/a
272.222	0.09	544444	keystroke	n	n/a
272.327	0.1195	544654	keystroke	s	n/a
272.492	0.1645	544984	keystroke	a	n/a
272.582	0.15	545164	keystroke	t	n/a
272.7175	0.134	545435	keystroke	i	n/a
272.762	0.12	545524	keystroke	o	n/a
272.822	0.0895	545644	keystroke	n	n/a
272.912	0.0895	545824	keystroke	Key.space	n/a
272.957	0.1645	545914	keystroke	s	n/a
273.077	0.1045	546154	keystroke	t	n/a
273.167	0.1045	546334	keystroke	o	n/a
273.272	0.1495	546544	keystroke	r	n/a
273.332	0.1345	546664	keystroke	e	n/a
273.377	0.1195	546754	keystroke	s	n/a
273.482	0.0895	546964	keystroke	Key.space	n/a
273.602	0.1195	547204	keystroke	s	n/a
273.692	0.1195	547384	keystroke	t	n/a
273.797	0.0745	547594	keystroke	u	n/a
273.857	0.1045	547714	keystroke	d	n/a
273.947	0.0895	547894	keystroke	y	n/a
274.112	0.1345	548224	keystroke	i	n/a
274.172	0.1045	548344	keystroke	n	n/a
274.262	0.09	548524	keystroke	g	n/a
274.322	0.0895	548644	keystroke	Key.space	n/a
274.442	0.1045	548884	keystroke	t	n/a
274.502	0.075	549004	keystroke	i	n/a
274.622	0.0895	549244	keystroke	s	n/a
274.787	0.0895	549574	keystroke	s	n/a
274.892	0.0745	549784	keystroke	u	n/a
274.952	0.0895	549904	keystroke	e	n/a
275.072	0.0895	550144	keystroke	Key.enter	n/a
275.1705	3.368	550341	prompt	n/a	likely till stake tactics\n
275.777	0.1045	551554	keystroke	l	n/a
275.837	0.0895	551674	keystroke	i	n/a
276.002	0.1195	552004	keystroke	k	n/a
276.107	0.1045	552214	keystroke	e	n/a
276.227	0.12	552454	keystroke	l	n/a
276.302	0.1045	552604	keystroke	y	n/a
276.422	0.0745	552844	keystroke	Key.space	n/a
276.4825	0.1045	552965	keystroke	t	n/a
276.542	0.0745	553084	keystroke	i	n/a
276.692	0.0595	553384	keystroke	l	n/a
276.812	0.0895	553624	keystroke	l	n/a
276.917	0.0895	553834	keystroke	Key.space	n/a
276.992	0.105	553984	keystroke	s	n/a
277.082	0.1045	554164	keystroke	t	n/a
277.157	0.1495	554314	keystroke	a	n/a
277.262	0.0895	554524	keystroke	k	n/a
277.352	0.0895	554704	keystroke	e	n/a
277.427	0.0745	554854	keystroke	Key.space	n/a
277.487	0.1345	554974	keystroke	t	n/a
277.6075	0.059	555215	keystroke	a	n/a
277.742	0.09	555484	keystroke	c	n/a
277.922	0.0895	555844	keystroke	t	n/a
278.027	0.0745	556054	keystroke	i	n/a
278.1175	0.104	556235	keystroke	c	n/a
278.192	0.1345	556384	keystroke	s	n/a
278.447	0.0895	556894	keystroke	Key.enter	n/a
278.5455	6.1885	557091	prompt	n/a	hydrocodone bars platinum switching\n
279.227	0.075	558454	keystroke	h	n/a
279.407	0.0895	558814	keystroke	y	n/a
279.692	0.0895	559384	keystroke	d	n/a
279.827	0.1195	559654	keystroke	r	n/a
279.917	0.0895	559834	keystroke	o	n/a
280.082	0.0895	560164	keystroke	c	n/a
280.172	0.0745	560344	keystroke	o	n/a
280.277	0.1055	560554	keystroke	d	n/a
280.383	0.1185	560766	keystroke	o	n/a
280.442	0.075	560884	keystroke	n	n/a
280.532	0.0895	561064	keystroke	e	n/a
280.607	0.0895	561214	keystroke	Key.space	n/a
280.742	0.075	561484	keystroke	b	n/a
281.252	0.1345	562504	keystroke	a	n/a
281.312	0.0895	562624	keystroke	r	n/a
281.912	0.1195	563824	keystroke	s	n/a
282.0325	0.089	564065	keystroke	Key.space	n/a
282.167	0.0895	564334	keystroke	p	n/a
282.302	0.1045	564604	keystroke	l	n/a
282.392	0.1345	564784	keystroke	a	n/a
282.482	0.1195	564964	keystroke	t	n/a
282.572	0.105	565144	keystroke	i	n/a
283.157	0.0895	566314	keystroke	n	n/a
283.367	0.0595	566734	keystroke	u	n/a
283.5325	0.074	567065	keystroke	m	n/a
283.637	0.0745	567274	keystroke	Key.space	n/a
283.727	0.0595	567454	keystroke	s	n/a
283.877	0.0745	567754	keystroke	w	n/a
283.922	0.075	567844	keystroke	i	n/a
284.027	0.0745	568054	keystroke	t	n/a
284.177	0.1195	568354	keystroke	c	n/a
284.252	0.09	568504	keystroke	h	n/a
284.327	0.1495	568654	keystroke	i	n/a
284.417	0.0895	568834	keystroke	n	n/a
284.522	0.0745	569044	keystroke	g	n/a
284.672	0.0595	569344	keystroke	Key.enter	n/a
284.7415	4.2825	569483	prompt	n/a	spain responses accepting century\n
285.317	0.105	570634	keystroke	s	n/a
285.437	0.0895	570874	keystroke	p	n/a
285.542	0.1495	571084	keystroke	a	n/a
285.6325	0.104	571265	keystroke	i	n/a
285.677	0.1045	571354	keystroke	n	n/a
285.797	0.1195	571594	keystroke	Key.space	n/a
285.872	0.1645	571744	keystroke	r	n/a
285.932	0.1345	571864	keystroke	e	n/a
286.052	0.1045	572104	keystroke	s	n/a
286.202	0.1195	572404	keystroke	p	n/a
286.232	0.1645	572464	keystroke	o	n/a
286.307	0.1495	572614	keystroke	n	n/a
286.412	0.1045	572824	keystroke	s	n/a
286.487	0.1045	572974	keystroke	e	n/a
286.637	0.1195	573274	keystroke	s	n/a
286.757	0.075	573514	keystroke	Key.space	n/a
286.8615	0.075	573723	keystroke	a	n/a
287.012	0.0745	574024	keystroke	c	n/a
287.177	0.0445	574354	keystroke	c	n/a
287.327	0.0895	574654	keystroke	e	n/a
287.417	0.1045	574834	keystroke	p	n/a
287.507	0.1045	575014	keystroke	t	n/a
287.627	0.1045	575254	keystroke	i	n/a
287.672	0.1195	575344	keystroke	n	n/a
287.717	0.1345	575434	keystroke	g	n/a
287.837	0.0745	575674	keystroke	Key.space	n/a
287.942	0.075	575884	keystroke	c	n/a
288.107	0.0895	576214	keystroke	e	n/a
288.212	0.1045	576424	keystroke	n	n/a
288.287	0.1045	576574	keystroke	t	n/a
288.467	0.0895	576934	keystroke	u	n/a
288.4825	0.134	576965	keystroke	r	n/a
288.662	0.0745	577324	keystroke	y	n/a
288.917	0.105	577834	keystroke	Key.enter	n/a
289.032	4.1765	578064	prompt	n/a	discussions estates a offerings\n
289.592	0.105	579184	keystroke	d	n/a
289.712	0.1045	579424	keystroke	i	n/a
289.802	0.0745	579604	keystroke	s	n/a
289.967	0.0745	579934	keystroke	c	n/a
290.0275	0.089	580055	keystroke	u	n/a
290.132	0.0745	580264	keystroke	s	n/a
290.282	0.1345	580564	keystroke	s	n/a
290.372	0.165	580744	keystroke	i	n/a
290.4475	0.104	580895	keystroke	o	n/a
290.507	0.1045	581014	keystroke	n	n/a
290.912	0.1195	581824	keystroke	s	n/a
291.047	0.09	582094	keystroke	Key.space	n/a
291.167	0.1345	582334	keystroke	e	n/a
291.287	0.135	582574	keystroke	s	n/a
291.407	0.1195	582814	keystroke	t	n/a
291.542	0.1345	583084	keystroke	a	n/a
291.632	0.1045	583264	keystroke	t	n/a
291.692	0.1495	583384	keystroke	e	n/a
291.767	0.105	583534	keystroke	s	n/a
291.857	0.1195	583714	keystroke	Key.space	n/a
291.992	0.1195	583984	keystroke	a	n/a
292.097	0.0745	584194	keystroke	Key.space	n/a
292.187	0.0895	584374	keystroke	o	n/a
292.292	0.0595	584584	keystroke	f	n/a
292.427	0.09	584854	keystroke	f	n/a
292.532	0.1195	585064	keystroke	e	n/a
292.622	0.12	585244	keystroke	r	n/a
292.757	0.1195	585514	keystroke	i	n/a
292.817	0.105	585634	keystroke	n	n/a
292.892	0.0895	585784	keystroke	g	n/a
292.9825	0.1045	585965	keystroke	s	n/a
293.117	0.09	586234	keystroke	Key.enter	n/a
293.216	3.893	586432	prompt	n/a	stronger camera bonus recorder\n
293.763	0.1035	587526	keystroke	s	n/a
293.882	0.0745	587764	keystroke	t	n/a
294.032	0.1045	588064	keystroke	r	n/a
294.107	0.105	588214	keystroke	o	n/a
294.152	0.1045	588304	keystroke	n	n/a
294.242	0.0895	588484	keystroke	g	n/a
294.377	0.1345	588754	keystroke	e	n/a
294.452	0.1195	588904	keystroke	r	n/a
294.557	0.0895	589114	keystroke	Key.space	n/a
294.752	0.0595	589504	keystroke	c	n/a
294.827	0.1495	589654	keystroke	a	n/a
294.947	0.105	589894	keystroke	m	n/a
295.067	0.09	590134	keystroke	e	n/a
295.127	0.1645	590254	keystroke	r	n/a
295.232	0.12	590464	keystroke	a	n/a
295.322	0.0745	590644	keystroke	Key.space	n/a
295.427	0.135	590854	keystroke	b	n/a
295.517	0.1045	591034	keystroke	o	n/a
295.5775	0.0895	591155	keystroke	n	n/a
295.787	0.0895	591574	keystroke	u	n/a
295.892	0.105	591784	keystroke	s	n/a
295.982	0.09	591964	keystroke	Key.space	n/a
296.102	0.1045	592204	keystroke	r	n/a
296.177	0.0595	592354	keystroke	e	n/a
296.357	0.075	592714	keystroke	c	n/a
296.4475	0.0895	592895	keystroke	o	n/a
296.522	0.1195	593044	keystroke	r	n/a
296.627	0.09	593254	keystroke	d	n/a
296.778	0.119	593556	keystroke	e	n/a
296.852	0.12	593704	keystroke	r	n/a
297.002	0.105	594004	keystroke	Key.enter	n/a
297.116	4.688	594232	prompt	n/a	atmospheric alerts seventh advertising\n
297.677	0.135	595354	keystroke	a	n/a
297.7975	0.119	595595	keystroke	t	n/a
297.917	0.1195	595834	keystroke	m	n/a
297.992	0.09	595984	keystroke	o	n/a
298.1125	0.1045	596225	keystroke	s	n/a
298.2325	0.1195	596465	keystroke	p	n/a
298.277	0.1195	596554	keystroke	h	n/a
298.367	0.09	596734	keystroke	e	n/a
298.427	0.1045	596854	keystroke	r	n/a
298.517	0.1045	597034	keystroke	i	n/a
298.652	0.1195	597304	keystroke	c	n/a
298.772	0.09	597544	keystroke	Key.space	n/a
298.937	0.12	597874	keystroke	a	n/a
299.042	0.0895	598084	keystroke	l	n/a
299.117	0.09	598234	keystroke	e	n/a
299.177	0.09	598354	keystroke	r	n/a
299.342	0.1345	598684	keystroke	t	n/a
299.462	0.105	598924	keystroke	s	n/a
299.537	0.1045	599074	keystroke	Key.space	n/a
299.672	0.1495	599344	keystroke	s	n/a
299.852	0.09	599704	keystroke	e	n/a
299.987	0.0895	599974	keystroke	v	n/a
300.0625	0.1345	600125	keystroke	e	n/a
300.152	0.1045	600304	keystroke	n	n/a
300.272	0.1195	600544	keystroke	t	n/a
300.3625	0.089	600725	keystroke	h	n/a
300.4675	0.089	600935	keystroke	Key.space	n/a
300.542	0.12	601084	keystroke	a	n/a
300.632	0.1045	601264	keystroke	d	n/a
300.782	0.075	601564	keystroke	v	n/a
300.917	0.1195	601834	keystroke	e	n/a
300.992	0.0895	601984	keystroke	r	n/a
301.172	0.09	602344	keystroke	t	n/a
301.277	0.0895	602554	keystroke	i	n/a
301.352	0.1345	602704	keystroke	s	n/a
301.472	0.1045	602944	keystroke	i	n/a
301.517	0.12	603034	keystroke	n	n/a
301.622	0.0745	603244	keystroke	g	n/a
301.7125	0.089	603425	keystroke	Key.enter	n/a
301.8115	4.0425	603623	prompt	n/a	intranet bahrain steering search\n
302.402	0.1045	604804	keystroke	i	n/a
302.447	0.12	604894	keystroke	n	n/a
302.537	0.09	605074	keystroke	t	n/a
302.687	0.135	605374	keystroke	r	n/a
302.7775	0.149	605555	keystroke	a	n/a
302.927	0.1045	605854	keystroke	n	n/a
303.047	0.0895	606094	keystroke	e	n/a
303.1075	0.1195	606215	keystroke	t	n/a
303.213	0.0885	606426	keystroke	Key.space	n/a
303.3625	0.089	606725	keystroke	b	n/a
303.572	0.105	607144	keystroke	a	n/a
303.647	0.0895	607294	keystroke	h	n/a
303.752	0.1045	607504	keystroke	r	n/a
303.8275	0.1495	607655	keystroke	a	n/a
303.9475	0.104	607895	keystroke	i	n/a
303.992	0.105	607984	keystroke	n	n/a
304.082	0.09	608164	keystroke	Key.space	n/a
304.187	0.1195	608374	keystroke	s	n/a
304.292	0.12	608584	keystroke	t	n/a
304.397	0.0745	608794	keystroke	e	n/a
304.532	0.1345	609064	keystroke	e	n/a
304.652	0.1045	609304	keystroke	r	n/a
304.742	0.1045	609484	keystroke	i	n/a
304.802	0.0895	609604	keystroke	n	n/a
304.877	0.1045	609754	keystroke	g	n/a
304.967	0.0895	609934	keystroke	Key.space	n/a
305.072	0.1195	610144	keystroke	s	n/a
305.132	0.1495	610264	keystroke	e	n/a
305.237	0.1345	610474	keystroke	a	n/a
305.312	0.1045	610624	keystroke	r	n/a
305.522	0.105	611044	keystroke	c	n/a
305.582	0.0745	611164	keystroke	h	n/a
305.7625	0.089	611525	keystroke	Key.enter	n/a
305.8645	4.099	611729	prompt	n/a	begins observe widespread kenya\n
306.467	0.0895	612934	keystroke	b	n/a
306.602	0.1195	613204	keystroke	e	n/a
306.692	0.1195	613384	keystroke	g	n/a
306.782	0.105	613564	keystroke	i	n/a
306.827	0.0895	613654	keystroke	n	n/a
306.902	0.1345	613804	keystroke	s	n/a
307.007	0.1195	614014	keystroke	Key.space	n/a
307.082	0.105	614164	keystroke	o	n/a
307.232	0.0745	614464	keystroke	b	n/a
307.457	0.12	614914	keystroke	s	n/a
307.532	0.1045	615064	keystroke	e	n/a
307.607	0.09	615214	keystroke	r	n/a
307.907	0.0145	615814	keystroke	v	n/a
307.922	0.105	615844	keystroke	e	n/a
308.012	0.0895	616024	keystroke	Key.space	n/a
308.117	0.1195	616234	keystroke	w	n/a
308.222	0.0745	616444	keystroke	i	n/a
308.312	0.075	616624	keystroke	d	n/a
308.462	0.0895	616924	keystroke	e	n/a
308.642	0.135	617284	keystroke	s	n/a
308.7625	0.074	617525	keystroke	p	n/a
308.867	0.135	617734	keystroke	r	n/a
308.927	0.105	617854	keystroke	e	n/a
309.017	0.135	618034	keystroke	a	n/a
309.137	0.1195	618274	keystroke	d	n/a
309.242	0.09	618484	keystroke	Key.space	n/a
309.3175	0.074	618635	keystroke	k	n/a
309.407	0.1345	618814	keystroke	e	n/a
309.482	0.0745	618964	keystroke	n	n/a
309.662	0.0895	619324	keystroke	y	n/a
309.767	0.12	619534	keystroke	a	n/a
309.902	0.0595	619804	keystroke	Key.enter	n/a
309.972	3.174	619944	prompt	n/a	trailer loved pale dist\n
310.727	0.09	621454	keystroke	t	n/a
310.8915	0.12	621783	keystroke	r	n/a
310.967	0.135	621934	keystroke	a	n/a
311.117	0.12	622234	keystroke	i	n/a
311.1625	0.134	622325	keystroke	l	n/a
311.252	0.1345	622504	keystroke	e	n/a
311.3125	0.149	622625	keystroke	r	n/a
311.417	0.0895	622834	keystroke	Key.space	n/a
311.522	0.0745	623044	keystroke	l	n/a
311.702	0.1045	623404	keystroke	o	n/a
311.762	0.0895	623524	keystroke	v	n/a
311.837	0.06	623674	keystroke	e	n/a
311.972	0.1195	623944	keystroke	d	n/a
312.062	0.1045	624124	keystroke	Key.space	n/a
312.1525	0.104	624305	keystroke	p	n/a
312.287	0.1495	624574	keystroke	a	n/a
312.3775	0.104	624755	keystroke	l	n/a
312.467	0.1195	624934	keystroke	e	n/a
312.6025	0.0745	625205	keystroke	Key.space	n/a
312.707	0.1045	625414	keystroke	d	n/a
312.797	0.0745	625594	keystroke	i	n/a
312.902	0.1045	625804	keystroke	s	n/a
312.962	0.105	625924	keystroke	t	n/a
313.082	0.0595	626164	keystroke	Key.enter	n/a
313.156	4.518	626312	prompt	n/a	arbor marilyn national successful\n
313.862	0.135	627724	keystroke	a	n/a
314.072	0.09	628144	keystroke	r	n/a
314.267	0.075	628534	keystroke	b	n/a
314.372	0.0745	628744	keystroke	o	n/a
314.4625	0.1195	628925	keystroke	r	n/a
314.537	0.1345	629074	keystroke	Key.space	n/a
314.657	0.105	629314	keystroke	m	n/a
314.747	0.1045	629494	keystroke	a	n/a
314.7925	0.1195	629585	keystroke	r	n/a
314.897	0.1345	629794	keystroke	i	n/a
314.972	0.1345	629944	keystroke	l	n/a
315.0925	0.089	630185	keystroke	y	n/a
315.302	0.09	630604	keystroke	n	n/a
315.437	0.09	630874	keystroke	Key.space	n/a
315.542	0.075	631084	keystroke	n	n/a
315.632	0.1045	631264	keystroke	a	n/a
315.6775	0.119	631355	keystroke	t	n/a
315.752	0.15	631504	keystroke	i	n/a
315.812	0.1045	631624	keystroke	o	n/a
315.857	0.105	631714	keystroke	n	n/a
315.932	0.135	631864	keystroke	a	n/a
316.007	0.105	632014	keystroke	l	n/a
316.127	0.0895	632254	keystroke	Key.space	n/a
316.232	0.0745	632464	keystroke	s	n/a
316.322	0.0745	632644	keystroke	u	n/a
316.4425	0.074	632885	keystroke	c	n/a
316.5775	0.074	633155	keystroke	c	n/a
316.757	0.0745	633514	keystroke	e	n/a
316.8475	0.1045	633695	keystroke	s	n/a
317.042	0.1045	634084	keystroke	s	n/a
317.162	0.12	634324	keystroke	f	n/a
317.222	0.105	634444	keystroke	u	n/a
317.3425	0.104	634685	keystroke	l	n/a
317.597	0.0745	635194	keystroke	Key.enter	n/a
317.683	3.6805	635366	prompt	n/a	close watson adding atomic\n
318.3925	0.089	636785	keystroke	c	n/a
318.512	0.045	637024	keystroke	l	n/a
318.632	0.1045	637264	keystroke	o	n/a
318.722	0.18	637444	keystroke	s	n/a
318.812	0.1345	637624	keystroke	e	n/a
318.917	0.1195	637834	keystroke	Key.space	n/a
319.052	0.09	638104	keystroke	w	n/a
319.157	0.1345	638314	keystroke	a	n/a
319.262	0.12	638524	keystroke	t	n/a
319.8925	0.119	639785	keystroke	s	n/a
319.967	0.1195	639934	keystroke	o	n/a
320.012	0.1345	640024	keystroke	n	n/a
320.132	0.0895	640264	keystroke	Key.space	n/a
320.207	0.09	640414	keystroke	a	n/a
320.282	0.0745	640564	keystroke	d	n/a
320.417	0.1045	640834	keystroke	d	n/a
320.537	0.105	641074	keystroke	i	n/a
320.5825	0.104	641165	keystroke	n	n/a
320.627	0.1195	641254	keystroke	g	n/a
320.717	0.075	641434	keystroke	Key.space	n/a
320.777	0.1345	641554	keystroke	a	n/a
320.852	0.1195	641704	keystroke	t	n/a
320.927	0.0895	641854	keystroke	o	n/a
320.972	0.1345	641944	keystroke	m	n/a
321.0775	0.089	642155	keystroke	i	n/a
321.152	0.09	642304	keystroke	c	n/a
321.272	0.0895	642544	keystroke	Key.enter	n/a
321.371	3.8475	642742	prompt	n/a	vitamins median where're maybe\n
322.022	0.0895	644044	keystroke	v	n/a
322.097	0.0895	644194	keystroke	i	n/a
322.217	0.1045	644434	keystroke	t	n/a
322.2925	0.1345	644585	keystroke	a	n/a
322.367	0.0895	644734	keystroke	m	n/a
322.472	0.12	644944	keystroke	i	n/a
322.532	0.12	645064	keystroke	n	n/a
322.637	0.1045	645274	keystroke	s	n/a
322.712	0.09	645424	keystroke	Key.space	n/a
322.802	0.09	645604	keystroke	m	n/a
322.907	0.0745	645814	keystroke	e	n/a
323.072	0.0895	646144	keystroke	d	n/a
323.222	0.1045	646444	keystroke	i	n/a
323.342	0.1495	646684	keystroke	a	n/a
323.432	0.0895	646864	keystroke	n	n/a
323.537	0.09	647074	keystroke	Key.space	n/a
323.612	0.105	647224	keystroke	w	n/a
323.702	0.075	647404	keystroke	h	n/a
323.807	0.1195	647614	keystroke	e	n/a
323.897	0.1195	647794	keystroke	r	n/a
324.002	0.0895	648004	keystroke	e	n/a
324.122	0.1045	648244	keystroke	'	n/a
324.2425	0.089	648485	keystroke	r	n/a
324.302	0.09	648604	keystroke	e	n/a
324.422	0.0895	648844	keystroke	Key.space	n/a
324.587	0.1045	649174	keystroke	m	n/a
324.7075	0.134	649415	keystroke	a	n/a
324.812	0.0745	649624	keystroke	y	n/a
324.902	0.0895	649804	keystroke	b	n/a
325.037	0.1045	650074	keystroke	e	n/a
325.127	0.0895	650254	keystroke	Key.enter	n/a
325.2235	4.03	650447	prompt	n/a	pregnancy licensing fifty opera\n
325.862	0.1195	651724	keystroke	p	n/a
325.9375	0.179	651875	keystroke	r	n/a
326.087	0.09	652174	keystroke	e	n/a
326.237	0.0895	652474	keystroke	g	n/a
326.342	0.105	652684	keystroke	n	n/a
326.477	0.1195	652954	keystroke	a	n/a
326.537	0.1195	653074	keystroke	n	n/a
326.702	0.1495	653404	keystroke	c	n/a
326.7475	0.089	653495	keystroke	y	n/a
326.912	0.09	653824	keystroke	Key.space	n/a
326.972	0.105	653944	keystroke	l	n/a
327.122	0.1345	654244	keystroke	i	n/a
327.302	0.0745	654604	keystroke	c	n/a
327.467	0.075	654934	keystroke	e	n/a
327.587	0.1045	655174	keystroke	n	n/a
327.662	0.105	655324	keystroke	s	n/a
327.8125	0.074	655625	keystroke	i	n/a
327.8275	0.104	655655	keystroke	n	n/a
327.872	0.1195	655744	keystroke	g	n/a
327.9775	0.074	655955	keystroke	Key.space	n/a
328.097	0.1045	656194	keystroke	f	n/a
328.217	0.09	656434	keystroke	i	n/a
328.2775	0.089	656555	keystroke	f	n/a
328.4575	0.104	656915	keystroke	t	n/a
328.547	0.0745	657094	keystroke	y	n/a
328.637	0.0895	657274	keystroke	Key.space	n/a
328.712	0.135	657424	keystroke	o	n/a
328.8065	0.1	657613	keystroke	p	n/a
328.908	0.1335	657816	keystroke	e	n/a
328.997	0.1045	657994	keystroke	r	n/a
329.072	0.1345	658144	keystroke	a	n/a
329.192	0.0595	658384	keystroke	Key.enter	n/a
329.2615	4.5375	658523	prompt	n/a	camp istanbul bulletin communications\n
330.077	0.0895	660154	keystroke	c	n/a
330.167	0.1795	660334	keystroke	a	n/a
330.272	0.1495	660544	keystroke	m	n/a
330.362	0.0895	660724	keystroke	p	n/a
330.467	0.0895	660934	keystroke	Key.space	n/a
330.602	0.0595	661204	keystroke	i	n/a
330.722	0.1195	661444	keystroke	s	n/a
330.812	0.1195	661624	keystroke	t	n/a
330.902	0.1495	661804	keystroke	a	n/a
330.9925	0.089	661985	keystroke	n	n/a
331.172	0.0895	662344	keystroke	b	n/a
331.247	0.1045	662494	keystroke	u	n/a
331.382	0.12	662764	keystroke	l	n/a
331.517	0.0745	663034	keystroke	Key.space	n/a
331.577	0.1045	663154	keystroke	b	n/a
331.667	0.075	663334	keystroke	u	n/a
331.787	0.0745	663574	keystroke	l	n/a
331.937	0.1045	663874	keystroke	l	n/a
332.027	0.1345	664054	keystroke	e	n/a
332.147	0.1195	664294	keystroke	t	n/a
332.1925	0.104	664385	keystroke	i	n/a
332.252	0.105	664504	keystroke	n	n/a
332.342	0.0745	664684	keystroke	Key.space	n/a
332.432	0.0895	664864	keystroke	c	n/a
332.492	0.0895	664984	keystroke	o	n/a
332.567	0.075	665134	keystroke	m	n/a
332.702	0.0745	665404	keystroke	m	n/a
332.8975	0.0595	665795	keystroke	u	n/a
333.062	0.0745	666124	keystroke	n	n/a
333.1075	0.104	666215	keystroke	i	n/a
333.167	0.09	666334	keystroke	c	n/a
333.287	0.1495	666574	keystroke	a	n/a
333.347	0.1195	666694	keystroke	t	n/a
333.422	0.1345	666844	keystroke	i	n/a
333.4825	0.089	666965	keystroke	o	n/a
333.527	0.1195	667054	keystroke	n	n/a
333.602	0.0895	667204	keystroke	s	n/a
333.722	0.0745	667444	keystroke	Key.enter	n/a
333.8055	4.508	667611	prompt	n/a	functions dealt affects proceedings\n
334.457	0.135	668914	keystroke	f	n/a
334.547	0.0745	669094	keystroke	u	n/a
334.712	0.1045	669424	keystroke	n	n/a
334.802	0.0895	669604	keystroke	c	n/a
334.967	0.0895	669934	keystroke	t	n/a
335.027	0.1645	670054	keystroke	i	n/a
335.087	0.1195	670174	keystroke	o	n/a
335.132	0.1495	670264	keystroke	n	n/a
335.222	0.1045	670444	keystroke	s	n/a
335.297	0.075	670594	keystroke	Key.space	n/a
335.387	0.0595	670774	keystroke	d	n/a
335.537	0.1045	671074	keystroke	e	n/a
335.627	0.1495	671254	keystroke	a	n/a
335.747	0.0895	671494	keystroke	l	n/a
335.882	0.1045	671764	keystroke	t	n/a
336.002	0.0745	672004	keystroke	Key.space	n/a
336.1665	0.15	672333	keystroke	a	n/a
336.2725	0.059	672545	keystroke	f	n/a
336.407	0.1195	672814	keystroke	f	n/a
336.497	0.09	672994	keystroke	e	n/a
336.677	0.0595	673354	keystroke	c	n/a
336.827	0.1045	673654	keystroke	t	n/a
336.887	0.15	673774	keystroke	s	n/a
336.977	0.0895	673954	keystroke	Key.space	n/a
337.007	0.1195	674014	keystroke	p	n/a
337.127	0.1345	674254	keystroke	r	n/a
337.217	0.0895	674434	keystroke	o	n/a
337.352	0.0895	674704	keystroke	c	n/a
337.547	0.0595	675094	keystroke	e	n/a
337.682	0.0895	675364	keystroke	e	n/a
337.862	0.09	675724	keystroke	d	n/a
337.967	0.0895	675934	keystroke	i	n/a
338.012	0.1045	676024	keystroke	n	n/a
338.087	0.0895	676174	keystroke	g	n/a
338.132	0.1045	676264	keystroke	s	n/a
338.237	0.0745	676474	keystroke	Key.enter	n/a
338.32	4.4785	676640	prompt	n/a	children lawyer dock carolina\n
338.927	0.0895	677854	keystroke	c	n/a
338.987	0.1195	677974	keystroke	h	n/a
339.062	0.1345	678124	keystroke	i	n/a
339.1365	0.12	678273	keystroke	l	n/a
339.212	0.0895	678424	keystroke	d	n/a
339.332	0.1045	678664	keystroke	r	n/a
339.407	0.1195	678814	keystroke	e	n/a
339.482	0.0895	678964	keystroke	n	n/a
339.602	0.105	679204	keystroke	Key.space	n/a
339.692	0.1045	679384	keystroke	l	n/a
339.782	0.15	679564	keystroke	a	n/a
339.977	0.075	679954	keystroke	y	n/a
340.277	0.0745	680554	keystroke	Key.backspace	n/a
340.382	0.1195	680764	keystroke	w	n/a
340.517	0.0895	681034	keystroke	y	n/a
340.592	0.1345	681184	keystroke	e	n/a
340.682	0.1495	681364	keystroke	r	n/a
340.817	0.09	681634	keystroke	Key.space	n/a
341.057	0.0745	682114	keystroke	d	n/a
341.147	0.1045	682294	keystroke	o	n/a
341.267	0.0595	682534	keystroke	c	n/a
341.372	0.1045	682744	keystroke	k	n/a
341.462	0.1195	682924	keystroke	e	n/a
341.567	0.0895	683134	keystroke	r	n/a
341.612	0.1045	683224	keystroke	Key.space	n/a
341.777	0.0895	683554	keystroke	c	n/a
341.912	0.1495	683824	keystroke	a	n/a
342.047	0.1345	684094	keystroke	r	n/a
342.152	0.0895	684304	keystroke	o	n/a
342.347	0.1195	684694	keystroke	l	n/a
342.4225	0.1345	684845	keystroke	i	n/a
342.512	0.0895	685024	keystroke	n	n/a
342.587	0.1195	685174	keystroke	a	n/a
342.7225	0.074	685445	keystroke	Key.enter	n/a
342.805	6.4885	685610	prompt	n/a	discs stadium clear kijiji\n
343.367	0.105	686734	keystroke	d	n/a
343.517	0.0895	687034	keystroke	i	n/a
343.667	0.0895	687334	keystroke	s	n/a
343.817	0.1195	687634	keystroke	c	n/a
343.937	0.1495	687874	keystroke	s	n/a
344.0575	0.1195	688115	keystroke	Key.space	n/a
344.222	0.135	688444	keystroke	s	n/a
344.327	0.1345	688654	keystroke	t	n/a
344.417	0.1195	688834	keystroke	a	n/a
344.552	0.105	689104	keystroke	d	n/a
344.612	0.1195	689224	keystroke	i	n/a
344.747	0.1045	689494	keystroke	u	n/a
344.942	0.0895	689884	keystroke	m	n/a
345.062	0.0745	690124	keystroke	Key.space	n/a
345.197	0.09	690394	keystroke	c	n/a
345.377	0.0745	690754	keystroke	l	n/a
345.467	0.18	690934	keystroke	e	n/a
345.602	0.135	691204	keystroke	a	n/a
345.677	0.18	691354	keystroke	r	n/a
345.842	0.0745	691684	keystroke	e	n/a
346.052	0.0595	692104	keystroke	Key.space	n/a
346.292	0.0895	692584	keystroke	k	n/a
346.607	0.0595	693214	keystroke	Key.backspace	n/a
346.742	0.0595	693484	keystroke	Key.backspace	n/a
346.892	0.0745	693784	keystroke	Key.backspace	n/a
347.0875	0.0745	694175	keystroke	Key.space	n/a
347.207	0.0895	694414	keystroke	k	n/a
347.462	0.1045	694924	keystroke	i	n/a
347.672	0.09	695344	keystroke	j	n/a
347.792	0.1195	695584	keystroke	i	n/a
347.897	0.1195	695794	keystroke	j	n/a
348.002	0.0745	696004	keystroke	i	n/a
349.1875	0.104	698375	keystroke	Key.enter	n/a
349.3005	3.998	698601	prompt	n/a	hospital producing emissions adaptive\n
349.967	0.1045	699934	keystroke	h	n/a
350.042	0.1345	700084	keystroke	o	n/a
350.102	0.1045	700204	keystroke	s	n/a
350.2375	0.149	700475	keystroke	p	n/a
350.312	0.105	700624	keystroke	i	n/a
350.402	0.0895	700804	keystroke	t	n/a
350.447	0.1495	700894	keystroke	a	n/a
350.5375	0.0895	701075	keystroke	l	n/a
350.642	0.1195	701284	keystroke	Key.space	n/a
350.747	0.1045	701494	keystroke	p	n/a
350.867	0.12	701734	keystroke	r	n/a
350.927	0.0895	701854	keystroke	o	n/a
351.032	0.09	702064	keystroke	d	n/a
351.107	0.0895	702214	keystroke	u	n/a
351.227	0.0745	702454	keystroke	c	n/a
351.287	0.1195	702574	keystroke	i	n/a
351.347	0.1045	702694	keystroke	n	n/a
351.422	0.09	702844	keystroke	g	n/a
351.482	0.1045	702964	keystroke	Key.space	n/a
351.5725	0.1045	703145	keystroke	e	n/a
351.662	0.1195	703324	keystroke	m	n/a
351.767	0.0745	703534	keystroke	i	n/a
351.842	0.0745	703684	keystroke	s	n/a
351.992	0.1045	703984	keystroke	s	n/a
352.067	0.1345	704134	keystroke	i	n/a
352.1275	0.104	704255	keystroke	o	n/a
352.172	0.0895	704344	keystroke	n	n/a
352.202	0.1195	704404	keystroke	s	n/a
352.307	0.0895	704614	keystroke	Key.space	n/a
352.4125	0.119	704825	keystroke	a	n/a
352.502	0.105	705004	keystroke	d	n/a
352.639	0.148	705278	keystroke	a	n/a
352.697	0.105	705394	keystroke	p	n/a
352.832	0.0895	705664	keystroke	t	n/a
352.9375	0.074	705875	keystroke	i	n/a
353.027	0.09	706054	keystroke	v	n/a
353.102	0.0895	706204	keystroke	e	n/a
353.222	0.0745	706444	keystroke	Key.enter	n/a
353.304	4.4355	706608	prompt	n/a	can subscribe cambodia gorgeous\n
353.882	0.0745	707764	keystroke	c	n/a
353.972	0.165	707944	keystroke	a	n/a
354.062	0.0895	708124	keystroke	n	n/a
354.152	0.1045	708304	keystroke	Key.space	n/a
354.272	0.1045	708544	keystroke	s	n/a
354.392	0.0895	708784	keystroke	u	n/a
354.497	0.09	708994	keystroke	b	n/a
354.647	0.0745	709294	keystroke	s	n/a
354.812	0.0745	709624	keystroke	c	n/a
354.962	0.0895	709924	keystroke	r	n/a
355.127	0.0745	710254	keystroke	i	n/a
355.157	0.06	710314	keystroke	b	n/a
355.397	0.0895	710794	keystroke	e	n/a
355.532	0.105	711064	keystroke	Key.space	n/a
355.802	0.075	711604	keystroke	c	n/a
355.922	0.1345	711844	keystroke	a	n/a
356.012	0.0895	712024	keystroke	m	n/a
356.117	0.0895	712234	keystroke	b	n/a
356.222	0.0895	712444	keystroke	o	n/a
356.2975	0.104	712595	keystroke	d	n/a
356.417	0.0895	712834	keystroke	i	n/a
356.492	0.135	712984	keystroke	a	n/a
356.582	0.0895	713164	keystroke	Key.space	n/a
356.717	0.1045	713434	keystroke	g	n/a
356.867	0.0745	713734	keystroke	o	n/a
356.927	0.0895	713854	keystroke	r	n/a
357.107	0.0895	714214	keystroke	g	n/a
357.212	0.1195	714424	keystroke	e	n/a
357.317	0.1195	714634	keystroke	o	n/a
357.377	0.1045	714754	keystroke	u	n/a
357.467	0.12	714934	keystroke	s	n/a
357.6475	0.0895	715295	keystroke	Key.enter	n/a
357.7495	5.0295	715499	prompt	n/a	achievements production guarantee copies\n
358.337	0.105	716674	keystroke	a	n/a
358.532	0.075	717064	keystroke	c	n/a
358.622	0.1195	717244	keystroke	h	n/a
358.712	0.12	717424	keystroke	i	n/a
358.7875	0.0895	717575	keystroke	e	n/a
358.907	0.1045	717814	keystroke	v	n/a
358.997	0.1045	717994	keystroke	e	n/a
359.087	0.1045	718174	keystroke	m	n/a
359.207	0.1045	718414	keystroke	e	n/a
359.282	0.09	718564	keystroke	n	n/a
359.387	0.1195	718774	keystroke	t	n/a
359.477	0.1045	718954	keystroke	s	n/a
359.567	0.1045	719134	keystroke	Key.space	n/a
359.7025	0.1195	719405	keystroke	p	n/a
359.807	0.1045	719614	keystroke	r	n/a
359.912	0.0895	719824	keystroke	o	n/a
360.017	0.0745	720034	keystroke	d	n/a
360.107	0.0895	720214	keystroke	u	n/a
360.212	0.0595	720424	keystroke	c	n/a
360.362	0.1045	720724	keystroke	t	n/a
360.467	0.1495	720934	keystroke	i	n/a
360.527	0.135	721054	keystroke	o	n/a
360.5725	0.1345	721145	keystroke	n	n/a
360.722	0.0745	721444	keystroke	Key.space	n/a
360.782	0.1195	721564	keystroke	g	n/a
360.917	0.1045	721834	keystroke	u	n/a
361.0375	0.104	722075	keystroke	a	n/a
361.097	0.1795	722194	keystroke	r	n/a
361.2475	0.149	722495	keystroke	a	n/a
361.322	0.1195	722644	keystroke	n	n/a
361.427	0.0895	722854	keystroke	t	n/a
361.5025	0.0745	723005	keystroke	e	n/a
361.637	0.1045	723274	keystroke	e	n/a
361.757	0.0595	723514	keystroke	Key.space	n/a
361.877	0.075	723754	keystroke	c	n/a
361.967	0.1645	723934	keystroke	o	n/a
362.0575	0.134	724115	keystroke	p	n/a
362.162	0.1195	724324	keystroke	i	n/a
362.207	0.1945	724414	keystroke	e	n/a
362.357	0.1195	724714	keystroke	s	n/a
362.687	0.09	725374	keystroke	Key.enter	n/a
362.785	4.0445	725570	prompt	n/a	sitting debian phenomenon limits\n
363.3625	0.104	726725	keystroke	s	n/a
363.482	0.09	726964	keystroke	i	n/a
363.557	0.0745	727114	keystroke	t	n/a
363.722	0.12	727444	keystroke	t	n/a
363.797	0.1045	727594	keystroke	i	n/a
363.857	0.105	727714	keystroke	n	n/a
363.932	0.12	727864	keystroke	g	n/a
364.022	0.1045	728044	keystroke	Key.space	n/a
364.157	0.075	728314	keystroke	d	n/a
364.322	0.0745	728644	keystroke	e	n/a
364.457	0.1195	728914	keystroke	b	n/a
364.562	0.0595	729124	keystroke	i	n/a
364.667	0.165	729334	keystroke	a	n/a
364.712	0.1045	729424	keystroke	n	n/a
364.847	0.0895	729694	keystroke	Key.space	n/a
364.9525	0.119	729905	keystroke	p	n/a
365.042	0.1045	730084	keystroke	h	n/a
365.162	0.1045	730324	keystroke	e	n/a
365.327	0.1045	730654	keystroke	n	n/a
365.447	0.1195	730894	keystroke	o	n/a
365.5525	0.119	731105	keystroke	m	n/a
365.702	0.12	731404	keystroke	e	n/a
365.807	0.0895	731614	keystroke	n	n/a
365.912	0.1045	731824	keystroke	o	n/a
365.987	0.105	731974	keystroke	n	n/a
366.107	0.09	732214	keystroke	Key.space	n/a
366.212	0.105	732424	keystroke	l	n/a
366.287	0.09	732574	keystroke	i	n/a
366.362	0.1345	732724	keystroke	m	n/a
366.467	0.1195	732934	keystroke	i	n/a
366.542	0.105	733084	keystroke	t	n/a
366.6025	0.1195	733205	keystroke	s	n/a
366.7525	0.0745	733505	keystroke	Key.enter	n/a
366.8415	3.347	733683	prompt	n/a	liver clark bean hilton\n
367.472	0.12	734944	keystroke	l	n/a
367.532	0.135	735064	keystroke	i	n/a
367.622	0.0895	735244	keystroke	v	n/a
367.757	0.1345	735514	keystroke	e	n/a
367.847	0.1495	735694	keystroke	r	n/a
367.9675	0.104	735935	keystroke	Key.space	n/a
368.162	0.105	736324	keystroke	c	n/a
368.252	0.0745	736504	keystroke	l	n/a
368.357	0.18	736714	keystroke	a	n/a
368.462	0.165	736924	keystroke	r	n/a
368.567	0.1045	737134	keystroke	k	n/a
368.7025	0.1045	737405	keystroke	Key.space	n/a
368.8525	0.1045	737705	keystroke	b	n/a
369.0175	0.1195	738035	keystroke	e	n/a
369.0925	0.209	738185	keystroke	a	n/a
369.197	0.0895	738394	keystroke	n	n/a
369.3175	0.0895	738635	keystroke	Key.space	n/a
369.392	0.135	738784	keystroke	h	n/a
369.482	0.1495	738964	keystroke	i	n/a
369.5575	0.1345	739115	keystroke	l	n/a
369.662	0.1045	739324	keystroke	t	n/a
369.812	0.135	739624	keystroke	o	n/a
369.9025	0.1045	739805	keystroke	n	n/a
370.112	0.075	740224	keystroke	Key.enter	n/a
370.1965	5.4075	740393	prompt	n/a	essex expects nottingham relaxation\n
370.937	0.09	741874	keystroke	e	n/a
371.1475	0.0595	742295	keystroke	s	n/a
371.312	0.09	742624	keystroke	s	n/a
371.3875	0.105	742775	keystroke	e	n/a
371.5675	0.1045	743135	keystroke	x	n/a
371.657	0.105	743314	keystroke	Key.space	n/a
371.882	0.09	743764	keystroke	e	n/a
372.062	0.105	744124	keystroke	x	n/a
372.182	0.1045	744364	keystroke	p	n/a
372.272	0.075	744544	keystroke	e	n/a
372.4525	0.0595	744905	keystroke	c	n/a
372.587	0.12	745174	keystroke	t	n/a
372.677	0.1195	745354	keystroke	s	n/a
372.7525	0.1045	745505	keystroke	Key.space	n/a
372.8425	0.1345	745685	keystroke	n	n/a
373.0075	0.1045	746015	keystroke	o	n/a
373.2025	0.059	746405	keystroke	t	n/a
373.3525	0.1045	746705	keystroke	t	n/a
373.4275	0.1195	746855	keystroke	i	n/a
373.4875	0.1195	746975	keystroke	n	n/a
373.592	0.105	747184	keystroke	g	n/a
373.712	0.105	747424	keystroke	h	n/a
373.832	0.165	747664	keystroke	a	n/a
373.937	0.075	747874	keystroke	m	n/a
374.042	0.09	748084	keystroke	Key.space	n/a
374.102	0.12	748204	keystroke	r	n/a
374.177	0.12	748354	keystroke	e	n/a
374.312	0.105	748624	keystroke	l	n/a
374.612	0.105	749224	keystroke	a	n/a
374.777	0.09	749554	keystroke	x	n/a
374.912	0.1495	749824	keystroke	a	n/a
375.032	0.12	750064	keystroke	t	n/a
375.122	0.2095	750244	keystroke	i	n/a
375.197	0.15	750394	keystroke	o	n/a
375.287	0.12	750574	keystroke	n	n/a
375.5125	0.0895	751025	keystroke	Key.enter	n/a
375.6125	4.8815	751225	prompt	n/a	tube characters resistant possibilities\n
376.322	0.105	752644	keystroke	t	n/a
376.442	0.075	752884	keystroke	u	n/a
376.532	0.09	753064	keystroke	b	n/a
376.6675	0.119	753335	keystroke	e	n/a
376.772	0.105	753544	keystroke	Key.space	n/a
376.982	0.09	753964	keystroke	c	n/a
377.0875	0.0895	754175	keystroke	h	n/a
377.192	0.105	754384	keystroke	a	n/a
377.2675	0.119	754535	keystroke	r	n/a
377.4025	0.0745	754805	keystroke	a	n/a
377.5525	0.0745	755105	keystroke	c	n/a
377.702	0.105	755404	keystroke	t	n/a
377.777	0.15	755554	keystroke	e	n/a
377.897	0.12	755794	keystroke	r	n/a
377.972	0.12	755944	keystroke	s	n/a
378.062	0.105	756124	keystroke	Key.space	n/a
378.197	0.12	756394	keystroke	r	n/a
378.257	0.165	756514	keystroke	e	n/a
378.3775	0.1195	756755	keystroke	s	n/a
378.497	0.105	756994	keystroke	i	n/a
378.6175	0.1045	757235	keystroke	s	n/a
378.707	0.105	757414	keystroke	t	n/a
378.797	0.135	757594	keystroke	a	n/a
378.8725	0.1045	757745	keystroke	n	n/a
378.9475	0.119	757895	keystroke	t	n/a
379.022	0.12	758044	keystroke	Key.space	n/a
379.127	0.105	758254	keystroke	p	n/a
379.187	0.12	758374	keystroke	o	n/a
379.322	0.06	758644	keystroke	s	n/a
379.472	0.075	758944	keystroke	s	n/a
379.5325	0.0895	759065	keystroke	i	n/a
379.652	0.105	759304	keystroke	b	n/a
379.7425	0.1195	759485	keystroke	i	n/a
379.847	0.135	759694	keystroke	l	n/a
379.9525	0.0895	759905	keystroke	i	n/a
380.0575	0.1195	760115	keystroke	t	n/a
380.1475	0.0745	760295	keystroke	i	n/a
380.237	0.12	760474	keystroke	e	n/a
380.3125	0.1195	760625	keystroke	s	n/a
380.417	0.075	760834	keystroke	Key.enter	n/a
380.504	4.5645	761008	prompt	n/a	cigarette glow assessments divx\n
381.1675	0.0895	762335	keystroke	c	n/a
381.242	0.09	762484	keystroke	i	n/a
381.3175	0.1045	762635	keystroke	g	n/a
381.4375	0.149	762875	keystroke	a	n/a
381.542	0.135	763084	keystroke	r	n/a
381.662	0.09	763324	keystroke	e	n/a
381.842	0.045	763684	keystroke	t	n/a
381.962	0.105	763924	keystroke	t	n/a
382.037	0.12	764074	keystroke	e	n/a
382.142	0.09	764284	keystroke	Key.space	n/a
382.247	0.105	764494	keystroke	g	n/a
382.3075	0.0745	764615	keystroke	l	n/a
382.4725	0.0895	764945	keystroke	o	n/a
382.547	0.09	765094	keystroke	w	n/a
382.607	0.105	765214	keystroke	Key.space	n/a
382.7425	0.1045	765485	keystroke	a	n/a
382.817	0.09	765634	keystroke	s	n/a
383.012	0.0895	766024	keystroke	s	n/a
383.147	0.09	766294	keystroke	e	n/a
383.312	0.0745	766624	keystroke	s	n/a
383.477	0.105	766954	keystroke	s	n/a
383.597	0.09	767194	keystroke	m	n/a
383.6725	0.1495	767345	keystroke	e	n/a
383.777	0.105	767554	keystroke	n	n/a
383.837	0.15	767674	keystroke	t	n/a
383.942	0.12	767884	keystroke	s	n/a
384.0325	0.0895	768065	keystroke	Key.space	n/a
384.167	0.135	768334	keystroke	d	n/a
384.272	0.0745	768544	keystroke	i	n/a
384.362	0.105	768724	keystroke	v	n/a
384.557	0.09	769114	keystroke	x	n/a
384.9775	0.0895	769955	keystroke	Key.enter	n/a
385.076	6.1425	770152	prompt	n/a	governmental vocabulary perspectives dive\n
385.712	0.105	771424	keystroke	g	n/a
