onset	duration	sample	value	key	prompt_text
9.897	0.1115	19794	keystroke_v	v	n/a
9.9845	0.097	19969	keystroke_i	i	n/a
10.1055	0.164	20211	keystroke_s	s	n/a
10.1985	0.075	20397	keystroke_h	h	n/a
12.4125	0.196	24825	keystroke_Key.cmd	Key.cmd	n/a
12.5365	0.084	25073	keystroke_v	v	n/a
13.4835	0.172	26967	keystroke_a	a	n/a
13.7395	0.172	27479	keystroke_x	x	n/a
21.2135	0.199	42427	keystroke_Key.cmd	Key.cmd	n/a
21.3005	0.168	42601	keystroke_c	c	n/a
22.6935	0.295	45387	keystroke_Key.cmd	Key.cmd	n/a
22.883	0.1415	45766	keystroke_v	v	n/a
36.05	0.12	72100	keystroke_Key.space	Key.space	n/a
36.202	8.8075	72404	prompt	n/a	the quick brown fox jumps over a lazy dog\n
36.875	0.106	73750	keystroke_t	t	n/a
36.935	0.09	73870	keystroke_h	h	n/a
37.04	0.105	74080	keystroke_e	e	n/a
37.115	0.1505	74230	keystroke_q	q	n/a
37.13	0.06	74260	keystroke_Key.space	Key.space	n/a
37.25	0.135	74500	keystroke_u	u	n/a
37.3105	0.0895	74621	keystroke_i	i	n/a
37.415	0.15	74830	keystroke_c	c	n/a
37.52	0.105	75040	keystroke_k	k	n/a
37.5805	0.12	75161	keystroke_Key.space	Key.space	n/a
37.925	0.06	75850	keystroke_Key.backspace	Key.backspace	n/a
38.0755	0.06	76151	keystroke_Key.backspace	Key.backspace	n/a
38.2255	0.0595	76451	keystroke_Key.backspace	Key.backspace	n/a
38.4355	0.015	76871	keystroke_Key.backspace	Key.backspace	n/a
38.526	0.0895	77052	keystroke_Key.backspace	Key.backspace	n/a
38.69	0.0455	77380	keystroke_Key.backspace	Key.backspace	n/a
38.8255	0.09	77651	keystroke_Key.backspace	Key.backspace	n/a
38.9005	0.12	77801	keystroke_Key.space	Key.space	n/a
39.0505	0.1205	78101	keystroke_q	q	n/a
39.126	0.119	78252	keystroke_u	u	n/a
39.3355	0.1355	78671	keystroke_c	c	n/a
39.6955	0.12	79391	keystroke_Key.backspace	Key.backspace	n/a
39.965	0.1055	79930	keystroke_i	i	n/a
40.1155	0.181	80231	keystroke_c	c	n/a
40.2505	0.075	80501	keystroke_k	k	n/a
40.311	0.1045	80622	keystroke_Key.space	Key.space	n/a
40.4005	0.09	80801	keystroke_b	b	n/a
40.911	0.1045	81822	keystroke_r	r	n/a
41.031	0.09	82062	keystroke_o	o	n/a
41.091	0.1495	82182	keystroke_w	w	n/a
41.2555	0.0905	82511	keystroke_n	n	n/a
41.361	0.09	82722	keystroke_Key.space	Key.space	n/a
41.406	0.1045	82812	keystroke_f	f	n/a
42.1105	0.1505	84221	keystroke_o	o	n/a
42.276	0.06	84552	keystroke_x	x	n/a
42.321	0.09	84642	keystroke_Key.space	Key.space	n/a
42.651	0.045	85302	keystroke_j	j	n/a
42.8155	0.0455	85631	keystroke_u	u	n/a
42.981	0.06	85962	keystroke_m	m	n/a
42.996	0.12	85992	keystroke_p	p	n/a
43.0855	0.1505	86171	keystroke_s	s	n/a
43.1455	0.1355	86291	keystroke_Key.space	Key.space	n/a
43.236	0.15	86472	keystroke_o	o	n/a
43.326	0.09	86652	keystroke_v	v	n/a
43.4315	0.134	86863	keystroke_e	e	n/a
43.521	0.105	87042	keystroke_r	r	n/a
43.582	0.059	87164	keystroke_Key.space	Key.space	n/a
43.6855	0.1055	87371	keystroke_a	a	n/a
43.776	0.06	87552	keystroke_Key.space	Key.space	n/a
43.8815	0.15	87763	keystroke_l	l	n/a
43.9855	0.0905	87971	keystroke_a	a	n/a
44.2705	0.1355	88541	keystroke_z	z	n/a
44.4205	0.0905	88841	keystroke_y	y	n/a
44.466	0.1045	88932	keystroke_Key.space	Key.space	n/a
44.5705	0.1205	89141	keystroke_d	d	n/a
44.676	0.105	89352	keystroke_o	o	n/a
44.796	0.135	89592	keystroke_g	g	n/a
44.9455	0.0605	89891	keystroke_Key.enter	Key.enter	n/a
45.0135	4.614	90027	prompt	n/a	debian learning lauren lynn\n
45.936	0.09	91872	keystroke_d	d	n/a
46.116	0.105	92232	keystroke_e	e	n/a
46.3255	0.1205	92651	keystroke_b	b	n/a
46.4005	0.0905	92801	keystroke_i	i	n/a
46.5055	0.135	93011	keystroke_a	a	n/a
46.611	0.12	93222	keystroke_n	n	n/a
46.686	0.105	93372	keystroke_Key.space	Key.space	n/a
46.806	0.1345	93612	keystroke_l	l	n/a
46.8655	0.135	93731	keystroke_e	e	n/a
46.956	0.1045	93912	keystroke_a	a	n/a
47.0455	0.1355	94091	keystroke_r	r	n/a
47.136	0.075	94272	keystroke_n	n	n/a
47.2255	0.1505	94451	keystroke_i	i	n/a
47.301	0.1195	94602	keystroke_n	n	n/a
47.406	0.1495	94812	keystroke_g	g	n/a
47.5105	0.1205	95021	keystroke_Key.space	Key.space	n/a
47.751	0.1195	95502	keystroke_l	l	n/a
47.8555	0.1355	95711	keystroke_a	a	n/a
48.036	0.075	96072	keystroke_u	u	n/a
48.1555	0.1505	96311	keystroke_r	r	n/a
48.291	0.135	96582	keystroke_e	e	n/a
48.411	0.09	96822	keystroke_n	n	n/a
48.591	0.09	97182	keystroke_Key.space	Key.space	n/a
48.7555	0.1055	97511	keystroke_l	l	n/a
48.936	0.075	97872	keystroke_y	y	n/a
49.221	0.045	98442	keystroke_n	n	n/a
49.356	0.105	98712	keystroke_n	n	n/a
49.5355	0.091	99071	keystroke_Key.enter	Key.enter	n/a
49.6305	4.768	99261	prompt	n/a	workplace lotus treasure carlo\n
50.2855	0.1205	100571	keystroke_w	w	n/a
50.391	0.075	100782	keystroke_o	o	n/a
50.496	0.1655	100992	keystroke_r	r	n/a
50.586	0.09	101172	keystroke_k	k	n/a
50.751	0.1195	101502	keystroke_p	p	n/a
50.8255	0.1355	101651	keystroke_l	l	n/a
50.9165	0.0895	101833	keystroke_a	a	n/a
51.0655	0.09	102131	keystroke_c	c	n/a
51.231	0.135	102462	keystroke_e	e	n/a
51.291	0.15	102582	keystroke_Key.space	Key.space	n/a
51.441	0.075	102882	keystroke_l	l	n/a
51.6205	0.075	103241	keystroke_o	o	n/a
51.711	0.1045	103422	keystroke_t	t	n/a
51.921	0.1055	103842	keystroke_u	u	n/a
52.026	0.135	104052	keystroke_s	s	n/a
52.146	0.09	104292	keystroke_Key.space	Key.space	n/a
52.311	0.0745	104622	keystroke_t	t	n/a
52.461	0.1205	104922	keystroke_r	r	n/a
52.506	0.105	105012	keystroke_e	e	n/a
52.566	0.135	105132	keystroke_a	a	n/a
52.8065	0.149	105613	keystroke_s	s	n/a
52.941	0.06	105882	keystroke_u	u	n/a
53.016	0.15	106032	keystroke_r	r	n/a
53.0905	0.1055	106181	keystroke_e	e	n/a
53.181	0.0895	106362	keystroke_Key.space	Key.space	n/a
53.346	0.135	106692	keystroke_c	c	n/a
53.466	0.15	106932	keystroke_a	a	n/a
53.8105	0.1055	107621	keystroke_r	r	n/a
53.991	0.075	107982	keystroke_l	l	n/a
54.1555	0.076	108311	keystroke_o	o	n/a
54.321	0.075	108642	keystroke_Key.enter	Key.enter	n/a
54.4015	4.151	108803	prompt	n/a	cent avenue rand recycling\n
55.191	0.1345	110382	keystroke_c	c	n/a
55.386	0.1055	110772	keystroke_e	e	n/a
55.4755	0.0905	110951	keystroke_n	n	n/a
55.551	0.12	111102	keystroke_t	t	n/a
55.656	0.09	111312	keystroke_Key.space	Key.space	n/a
55.716	0.135	111432	keystroke_a	a	n/a
55.896	0.105	111792	keystroke_v	v	n/a
55.986	0.12	111972	keystroke_e	e	n/a
56.121	0.0745	112242	keystroke_n	n	n/a
56.331	0.075	112662	keystroke_u	u	n/a
56.451	0.1045	112902	keystroke_e	e	n/a
56.5405	0.0905	113081	keystroke_Key.space	Key.space	n/a
56.706	0.1495	113412	keystroke_r	r	n/a
56.796	0.12	113592	keystroke_a	a	n/a
56.8705	0.135	113741	keystroke_n	n	n/a
57.021	0.06	114042	keystroke_d	d	n/a
57.066	0.1045	114132	keystroke_Key.space	Key.space	n/a
57.306	0.1495	114612	keystroke_r	r	n/a
57.381	0.0895	114762	keystroke_e	e	n/a
57.6065	0.119	115213	keystroke_c	c	n/a
57.711	0.06	115422	keystroke_y	y	n/a
58.0255	0.1655	116051	keystroke_c	c	n/a
58.116	0.1655	116232	keystroke_l	l	n/a
58.176	0.165	116352	keystroke_i	i	n/a
58.251	0.105	116502	keystroke_n	n	n/a
58.3405	0.1505	116681	keystroke_g	g	n/a
58.506	0.045	117012	keystroke_Key.enter	Key.enter	n/a
58.5555	6.1015	117111	prompt	n/a	attributes dealer latex despite\n
59.2555	0.1505	118511	keystroke_a	a	n/a
59.361	0.09	118722	keystroke_t	t	n/a
59.556	0.075	119112	keystroke_t	t	n/a
59.6755	0.1205	119351	keystroke_r	r	n/a
59.961	0.1045	119922	keystroke_i	i	n/a
60.036	0.135	120072	keystroke_b	b	n/a
60.186	0.075	120372	keystroke_u	u	n/a
60.276	0.1195	120552	keystroke_t	t	n/a
60.351	0.0895	120702	keystroke_e	e	n/a
60.9065	0.0895	121813	keystroke_s	s	n/a
61.0105	0.0905	122021	keystroke_Key.space	Key.space	n/a
61.146	0.09	122292	keystroke_d	d	n/a
61.3405	0.1055	122681	keystroke_e	e	n/a
61.416	0.135	122832	keystroke_a	a	n/a
61.536	0.1495	123072	keystroke_l	l	n/a
61.701	0.18	123402	keystroke_e	e	n/a
61.806	0.1345	123612	keystroke_r	r	n/a
61.9255	0.0915	123851	keystroke_Key.space	Key.space	n/a
62.0915	0.119	124183	keystroke_l	l	n/a
62.166	0.1655	124332	keystroke_a	a	n/a
62.3165	0.1495	124633	keystroke_t	t	n/a
63.2165	0.0595	126433	keystroke_e	e	n/a
63.381	0.12	126762	keystroke_x	x	n/a
63.4565	0.119	126913	keystroke_Key.space	Key.space	n/a
63.652	0.0735	127304	keystroke_d	d	n/a
63.8315	0.105	127663	keystroke_e	e	n/a
63.937	0.149	127874	keystroke_s	s	n/a
64.0405	0.1355	128081	keystroke_p	p	n/a
64.131	0.1645	128262	keystroke_i	i	n/a
64.2205	0.1955	128441	keystroke_t	t	n/a
64.356	0.15	128712	keystroke_e	e	n/a
64.551	0.1045	129102	keystroke_Key.enter	Key.enter	n/a
64.6605	5.3975	129321	prompt	n/a	corners tournament sperm obituaries\n
65.391	0.1345	130782	keystroke_c	c	n/a
65.4505	0.12	130901	keystroke_o	o	n/a
65.766	0.18	131532	keystroke_r	r	n/a
65.976	0.15	131952	keystroke_n	n	n/a
66.036	0.1195	132072	keystroke_e	e	n/a
66.1405	0.1355	132281	keystroke_r	r	n/a
66.246	0.225	132492	keystroke_s	s	n/a
66.456	0.12	132912	keystroke_Key.space	Key.space	n/a
66.711	0.135	133422	keystroke_t	t	n/a
66.8005	0.165	133601	keystroke_o	o	n/a
66.891	0.1045	133782	keystroke_u	u	n/a
66.9805	0.1505	133961	keystroke_r	r	n/a
67.1465	0.0745	134293	keystroke_n	n	n/a
67.266	0.1345	134532	keystroke_a	a	n/a
67.3855	0.0905	134771	keystroke_m	m	n/a
67.491	0.1045	134982	keystroke_e	e	n/a
67.581	0.075	135162	keystroke_n	n	n/a
67.6565	0.1345	135313	keystroke_t	t	n/a
67.761	0.075	135522	keystroke_Key.space	Key.space	n/a
67.9105	0.135	135821	keystroke_s	s	n/a
68.001	0.1195	136002	keystroke_p	p	n/a
68.091	0.1195	136182	keystroke_e	e	n/a
68.181	0.1355	136362	keystroke_r	r	n/a
68.3315	0.119	136663	keystroke_m	m	n/a
68.436	0.12	136872	keystroke_Key.space	Key.space	n/a
68.721	0.09	137442	keystroke_o	o	n/a
68.8105	0.1505	137621	keystroke_b	b	n/a
68.931	0.105	137862	keystroke_i	i	n/a
69.051	0.12	138102	keystroke_t	t	n/a
69.1405	0.0905	138281	keystroke_u	u	n/a
69.246	0.1795	138492	keystroke_a	a	n/a
69.6205	0.0905	139241	keystroke_r	r	n/a
69.7105	0.1355	139421	keystroke_i	i	n/a
69.786	0.1195	139572	keystroke_e	e	n/a
69.8615	0.1495	139723	keystroke_s	s	n/a
69.9955	0.061	139991	keystroke_Key.enter	Key.enter	n/a
70.064	5.589	140128	prompt	n/a	abilities dangerous tiles document\n
70.7905	0.12	141581	keystroke_a	a	n/a
70.8955	0.1655	141791	keystroke_b	b	n/a
71.0165	0.0595	142033	keystroke_i	i	n/a
71.151	0.1195	142302	keystroke_l	l	n/a
71.196	0.12	142392	keystroke_i	i	n/a
71.286	0.12	142572	keystroke_t	t	n/a
71.391	0.1345	142782	keystroke_i	i	n/a
71.481	0.12	142962	keystroke_e	e	n/a
71.541	0.12	143082	keystroke_s	s	n/a
71.616	0.105	143232	keystroke_Key.space	Key.space	n/a
71.736	0.1495	143472	keystroke_d	d	n/a
71.826	0.15	143652	keystroke_a	a	n/a
71.9015	0.1195	143803	keystroke_n	n	n/a
72.051	0.21	144102	keystroke_g	g	n/a
72.306	0.12	144612	keystroke_e	e	n/a
72.381	0.135	144762	keystroke_r	r	n/a
72.5005	0.165	145001	keystroke_o	o	n/a
72.591	0.1345	145182	keystroke_u	u	n/a
72.711	0.135	145422	keystroke_s	s	n/a
72.801	0.09	145602	keystroke_Key.space	Key.space	n/a
73.191	0.09	146382	keystroke_t	t	n/a
73.266	0.075	146532	keystroke_i	i	n/a
73.371	0.12	146742	keystroke_t	t	n/a
73.8515	0.1495	147703	keystroke_l	l	n/a
73.971	0.12	147942	keystroke_e	e	n/a
74.406	0.12	148812	keystroke_s	s	n/a
74.541	0.09	149082	keystroke_Key.space	Key.space	n/a
74.7065	0.104	149413	keystroke_d	d	n/a
74.826	0.075	149652	keystroke_o	o	n/a
74.916	0.12	149832	keystroke_c	c	n/a
75.006	0.0445	150012	keystroke_u	u	n/a
75.216	0.0455	150432	keystroke_m	m	n/a
75.276	0.1195	150552	keystroke_e	e	n/a
75.351	0.09	150702	keystroke_n	n	n/a
75.5015	0.12	151003	keystroke_t	t	n/a
75.561	0.09	151122	keystroke_Key.enter	Key.enter	n/a
75.656	7.9185	151312	prompt	n/a	enquiries alias designing baby\n
76.326	0.135	152652	keystroke_e	e	n/a
76.446	0.075	152892	keystroke_n	n	n/a
76.551	0.105	153102	keystroke_q	q	n/a
76.6715	0.1045	153343	keystroke_u	u	n/a
76.731	0.12	153462	keystroke_i	i	n/a
76.836	0.1045	153672	keystroke_r	r	n/a
77.031	0.1195	154062	keystroke_i	i	n/a
77.256	0.15	154512	keystroke_e	e	n/a
77.421	0.12	154842	keystroke_s	s	n/a
77.5265	0.1045	155053	keystroke_Key.space	Key.space	n/a
77.796	0.09	155592	keystroke_a	a	n/a
77.8715	0.164	155743	keystroke_l	l	n/a
77.9315	0.134	155863	keystroke_i	i	n/a
78.3065	0.1045	156613	keystroke_a	a	n/a
78.651	0.105	157302	keystroke_s	s	n/a
78.8165	0.134	157633	keystroke_Key.space	Key.space	n/a
79.026	0.0755	158052	keystroke_d	d	n/a
79.1765	0.0745	158353	keystroke_e	e	n/a
79.3265	0.1645	158653	keystroke_s	s	n/a
79.4315	0.0895	158863	keystroke_i	i	n/a
79.566	0.121	159132	keystroke_n	n	n/a
79.6715	0.165	159343	keystroke_i	i	n/a
79.7765	0.15	159553	keystroke_n	n	n/a
79.8815	0.1655	159763	keystroke_g	g	n/a
80.031	0.105	160062	keystroke_Key.space	Key.space	n/a
80.2715	0.1195	160543	keystroke_b	b	n/a
80.406	0.0755	160812	keystroke_a	a	n/a
80.6315	0.0745	161263	keystroke_Key.backspace	Key.backspace	n/a
80.7815	0.105	161563	keystroke_Key.backspace	Key.backspace	n/a
80.9615	0.0745	161923	keystroke_Key.backspace	Key.backspace	n/a
81.1115	0.0595	162223	keystroke_Key.backspace	Key.backspace	n/a
81.2765	0.0445	162553	keystroke_Key.backspace	Key.backspace	n/a
81.4265	0.0745	162853	keystroke_Key.backspace	Key.backspace	n/a
81.861	0.105	163722	keystroke_Key.backspace	Key.backspace	n/a
82.371	0.12	164742	keystroke_g	g	n/a
82.521	0.09	165042	keystroke_n	n	n/a
82.656	0.15	165312	keystroke_i	i	n/a
82.731	0.12	165462	keystroke_n	n	n/a
82.821	0.0905	165642	keystroke_g	g	n/a
82.9115	0.1205	165823	keystroke_Key.space	Key.space	n/a
83.016	0.09	166032	keystroke_b	b	n/a
83.076	0.1505	166152	keystroke_a	a	n/a
83.2115	0.1345	166423	keystroke_b	b	n/a
83.286	0.075	166572	keystroke_y	y	n/a
83.4815	0.09	166963	keystroke_Key.enter	Key.enter	n/a
83.5775	5.1715	167155	prompt	n/a	tale seminars inches frontier\n
84.4715	0.0595	168943	keystroke_t	t	n/a
84.5165	0.1645	169033	keystroke_a	a	n/a
84.666	0.12	169332	keystroke_l	l	n/a
84.756	0.1205	169512	keystroke_e	e	n/a
84.8615	0.0895	169723	keystroke_Key.space	Key.space	n/a
85.0865	0.165	170173	keystroke_s	s	n/a
85.266	0.105	170532	keystroke_e	e	n/a
85.3865	0.1195	170773	keystroke_m	m	n/a
85.506	0.1355	171012	keystroke_i	i	n/a
85.597	0.104	171194	keystroke_n	n	n/a
85.6865	0.1345	171373	keystroke_a	a	n/a
85.806	0.15	171612	keystroke_r	r	n/a
85.9715	0.105	171943	keystroke_s	s	n/a
86.091	0.0905	172182	keystroke_Key.space	Key.space	n/a
86.421	0.165	172842	keystroke_i	i	n/a
86.5115	0.12	173023	keystroke_n	n	n/a
86.6765	0.1195	173353	keystroke_c	c	n/a
86.7815	0.12	173563	keystroke_h	h	n/a
86.9015	0.1195	173803	keystroke_e	e	n/a
86.976	0.1355	173952	keystroke_s	s	n/a
87.097	0.074	174194	keystroke_Key.space	Key.space	n/a
87.186	0.1055	174372	keystroke_f	f	n/a
87.276	0.075	174552	keystroke_o	o	n/a
87.381	0.105	174762	keystroke_r	r	n/a
87.666	0.0605	175332	keystroke_Key.backspace	Key.backspace	n/a
87.7865	0.1045	175573	keystroke_Key.backspace	Key.backspace	n/a
87.906	0.1655	175812	keystroke_r	r	n/a
87.997	0.1345	175994	keystroke_o	o	n/a
88.0865	0.09	176173	keystroke_n	n	n/a
88.191	0.1505	176382	keystroke_t	t	n/a
88.3115	0.105	176623	keystroke_i	i	n/a
88.4315	0.1195	176863	keystroke_e	e	n/a
88.4915	0.12	176983	keystroke_r	r	n/a
88.6565	0.0895	177313	keystroke_Key.enter	Key.enter	n/a
88.7515	4.1515	177503	prompt	n/a	white rick earlier hang\n
89.466	0.1505	178932	keystroke_w	w	n/a
89.5565	0.1645	179113	keystroke_h	h	n/a
89.6315	0.18	179263	keystroke_i	i	n/a
89.736	0.09	179472	keystroke_l	l	n/a
90.2015	0.1195	180403	keystroke_Key.backspace	Key.backspace	n/a
90.336	0.1355	180672	keystroke_t	t	n/a
90.4115	0.1355	180823	keystroke_e	e	n/a
90.5165	0.1045	181033	keystroke_Key.space	Key.space	n/a
90.801	0.105	181602	keystroke_r	r	n/a
91.026	0.0905	182052	keystroke_i	i	n/a
91.147	0.1345	182294	keystroke_c	c	n/a
91.236	0.1205	182472	keystroke_k	k	n/a
91.311	0.1205	182622	keystroke_Key.space	Key.space	n/a
91.4615	0.1355	182923	keystroke_e	e	n/a
91.5665	0.195	183133	keystroke_a	a	n/a
91.7015	0.1645	183403	keystroke_r	r	n/a
91.881	0.1505	183762	keystroke_l	l	n/a
91.9265	0.165	183853	keystroke_i	i	n/a
92.047	0.15	184094	keystroke_e	e	n/a
92.106	0.1505	184212	keystroke_r	r	n/a
92.2115	0.0745	184423	keystroke_Key.space	Key.space	n/a
92.3765	0.0745	184753	keystroke_h	h	n/a
92.4665	0.15	184933	keystroke_a	a	n/a
92.5865	0.0895	185173	keystroke_n	n	n/a
92.6915	0.15	185383	keystroke_g	g	n/a
92.811	0.09	185622	keystroke_Key.enter	Key.enter	n/a
92.906	6.1625	185812	prompt	n/a	regards phase papers source\n
93.621	0.15	187242	keystroke_r	r	n/a
93.7265	0.075	187453	keystroke_e	e	n/a
93.847	0.1045	187694	keystroke_g	g	n/a
93.936	0.1505	187872	keystroke_a	a	n/a
94.0265	0.1645	188053	keystroke_r	r	n/a
94.206	0.091	188412	keystroke_d	d	n/a
94.251	0.1505	188502	keystroke_s	s	n/a
94.447	0.1045	188894	keystroke_Key.space	Key.space	n/a
94.7615	0.195	189523	keystroke_p	p	n/a
94.881	0.1355	189762	keystroke_h	h	n/a
95.0015	0.1195	190003	keystroke_a	a	n/a
95.106	0.12	190212	keystroke_s	s	n/a
95.1515	0.15	190303	keystroke_e	e	n/a
95.2415	0.1055	190483	keystroke_Key.space	Key.space	n/a
95.3615	0.1045	190723	keystroke_p	p	n/a
95.481	0.151	190962	keystroke_r	r	n/a
95.556	0.165	191112	keystroke_o	o	n/a
95.6315	0.1655	191263	keystroke_p	p	n/a
96.0215	0.045	192043	keystroke_Key.backspace	Key.backspace	n/a
96.1415	0.075	192283	keystroke_Key.backspace	Key.backspace	n/a
96.306	0.0755	192612	keystroke_Key.backspace	Key.backspace	n/a
96.4565	0.045	192913	keystroke_Key.backspace	Key.backspace	n/a
96.9515	0.09	193903	keystroke_p	p	n/a
97.1015	0.135	194203	keystroke_a	a	n/a
97.147	0.15	194294	keystroke_p	p	n/a
97.2815	0.135	194563	keystroke_e	e	n/a
97.3415	0.1795	194683	keystroke_r	r	n/a
97.431	0.151	194862	keystroke_s	s	n/a
97.566	0.0905	195132	keystroke_Key.space	Key.space	n/a
98.136	0.165	196272	keystroke_s	s	n/a
98.347	0.1495	196694	keystroke_o	o	n/a
98.436	0.105	196872	keystroke_u	u	n/a
98.5265	0.1345	197053	keystroke_r	r	n/a
98.736	0.0755	197472	keystroke_c	c	n/a
98.8565	0.105	197713	keystroke_e	e	n/a
98.9765	0.09	197953	keystroke_Key.enter	Key.enter	n/a
99.0715	4.046	198143	prompt	n/a	experienced seen settings proper\n
99.697	0.1045	199394	keystroke_e	e	n/a
99.8765	0.1205	199753	keystroke_x	x	n/a
99.921	0.1205	199842	keystroke_p	p	n/a
100.0265	0.1205	200053	keystroke_e	e	n/a
100.0865	0.1195	200173	keystroke_r	r	n/a
100.1615	0.0895	200323	keystroke_i	i	n/a
100.2815	0.075	200563	keystroke_e	e	n/a
100.3715	0.15	200743	keystroke_n	n	n/a
100.506	0.0305	201012	keystroke_c	c	n/a
100.6115	0.09	201223	keystroke_e	e	n/a
100.7165	0.0895	201433	keystroke_Key.space	Key.space	n/a
100.791	0.1505	201582	keystroke_s	s	n/a
100.926	0.0605	201852	keystroke_e	e	n/a
101.061	0.075	202122	keystroke_e	e	n/a
101.421	0.1205	202842	keystroke_n	n	n/a
101.511	0.1355	203022	keystroke_Key.space	Key.space	n/a
101.5865	0.1195	203173	keystroke_s	s	n/a
101.661	0.195	203322	keystroke_e	e	n/a
101.841	0.0905	203682	keystroke_t	t	n/a
102.0065	0.09	204013	keystroke_t	t	n/a
102.0815	0.18	204163	keystroke_i	i	n/a
102.1715	0.1045	204343	keystroke_n	n	n/a
102.2165	0.165	204433	keystroke_g	g	n/a
102.291	0.136	204582	keystroke_s	s	n/a
102.3665	0.075	204733	keystroke_Key.space	Key.space	n/a
102.4265	0.1205	204853	keystroke_p	p	n/a
102.561	0.12	205122	keystroke_r	r	n/a
102.6365	0.12	205273	keystroke_o	o	n/a
102.6965	0.165	205393	keystroke_p	p	n/a
102.861	0.1205	205722	keystroke_e	e	n/a
102.906	0.1355	205812	keystroke_r	r	n/a
103.026	0.09	206052	keystroke_Key.enter	Key.enter	n/a
103.121	6.207	206242	prompt	n/a	connection mistakes instantly surrounded\n
103.9265	0.12	207853	keystroke_c	c	n/a
103.956	0.105	207912	keystroke_o	o	n/a
104.197	0.0145	208394	keystroke_n	n	n/a
104.2715	0.12	208543	keystroke_n	n	n/a
104.361	0.06	208722	keystroke_e	e	n/a
104.557	0.09	209114	keystroke_c	c	n/a
104.7065	0.12	209413	keystroke_t	t	n/a
104.7815	0.15	209563	keystroke_i	i	n/a
104.8415	0.1195	209683	keystroke_o	o	n/a
104.9015	0.0895	209803	keystroke_n	n	n/a
104.9765	0.105	209953	keystroke_Key.space	Key.space	n/a
105.141	0.106	210282	keystroke_m	m	n/a
105.2165	0.1455	210433	keystroke_i	i	n/a
105.3365	0.1045	210673	keystroke_s	s	n/a
105.4265	0.1355	210853	keystroke_t	t	n/a
105.5465	0.1195	211093	keystroke_a	a	n/a
105.9215	0.1345	211843	keystroke_k	k	n/a
106.0265	0.1495	212053	keystroke_e	e	n/a
106.1165	0.15	212233	keystroke_s	s	n/a
106.2365	0.0745	212473	keystroke_Key.space	Key.space	n/a
106.326	0.15	212652	keystroke_i	i	n/a
106.4165	0.135	212833	keystroke_n	n	n/a
106.5365	0.1055	213073	keystroke_s	s	n/a
106.6115	0.136	213223	keystroke_t	t	n/a
106.7015	0.135	213403	keystroke_a	a	n/a
106.791	0.106	213582	keystroke_n	n	n/a
106.8665	0.15	213733	keystroke_t	t	n/a
107.0165	0.165	214033	keystroke_l	l	n/a
107.1665	0.105	214333	keystroke_y	y	n/a
107.2415	0.1055	214483	keystroke_Key.space	Key.space	n/a
107.376	0.1505	214752	keystroke_s	s	n/a
108.022	0.044	216044	keystroke_u	u	n/a
108.201	0.075	216402	keystroke_r	r	n/a
108.3515	0.15	216703	keystroke_r	r	n/a
108.4565	0.0755	216913	keystroke_o	o	n/a
108.5165	0.0595	217033	keystroke_u	u	n/a
108.6515	0.135	217303	keystroke_n	n	n/a
108.832	0.074	217664	keystroke_d	d	n/a
108.9665	0.0605	217933	keystroke_e	e	n/a
109.1315	0.12	218263	keystroke_d	d	n/a
109.222	0.1045	218444	keystroke_Key.enter	Key.enter	n/a
109.3315	5.0365	218663	prompt	n/a	jane restored stocks influenced\n
109.9565	0.1195	219913	keystroke_j	j	n/a
110.061	0.1365	220122	keystroke_a	a	n/a
110.182	0.0895	220364	keystroke_n	n	n/a
110.2415	0.12	220483	keystroke_e	e	n/a
110.3465	0.105	220693	keystroke_Key.space	Key.space	n/a
110.4665	0.165	220933	keystroke_r	r	n/a
110.5415	0.1505	221083	keystroke_e	e	n/a
110.692	0.15	221384	keystroke_s	s	n/a
110.842	0.0895	221684	keystroke_t	t	n/a
110.9315	0.1355	221863	keystroke_o	o	n/a
111.052	0.1045	222104	keystroke_r	r	n/a
111.0965	0.09	222193	keystroke_e	e	n/a
111.4565	0.15	222913	keystroke_s	s	n/a
111.8475	0.089	223695	keystroke_Key.backspace	Key.backspace	n/a
111.892	0.134	223784	keystroke_d	d	n/a
112.012	0.0895	224024	keystroke_Key.space	Key.space	n/a
112.087	0.105	224174	keystroke_s	s	n/a
112.177	0.12	224354	keystroke_t	t	n/a
112.4915	0.105	224983	keystroke_o	o	n/a
112.612	0.149	225224	keystroke_c	c	n/a
112.7165	0.1205	225433	keystroke_k	k	n/a
112.8215	0.1205	225643	keystroke_s	s	n/a
112.927	0.1045	225854	keystroke_Key.space	Key.space	n/a
113.1065	0.1655	226213	keystroke_i	i	n/a
113.212	0.1355	226424	keystroke_n	n	n/a
113.3615	0.136	226723	keystroke_f	f	n/a
113.467	0.1795	226934	keystroke_l	l	n/a
113.5715	0.09	227143	keystroke_u	u	n/a
113.6765	0.1055	227353	keystroke_e	e	n/a
113.797	0.105	227594	keystroke_n	n	n/a
113.9465	0.015	227893	keystroke_c	c	n/a
114.0215	0.0905	228043	keystroke_e	e	n/a
114.202	0.12	228404	keystroke_d	d	n/a
114.3065	0.06	228613	keystroke_Key.enter	Key.enter	n/a
114.371	5.9975	228742	prompt	n/a	plants motorcycles required shelter\n
115.0115	0.1505	230023	keystroke_p	p	n/a
115.6715	0.105	231343	keystroke_l	l	n/a
115.837	0.12	231674	keystroke_a	a	n/a
115.912	0.1195	231824	keystroke_n	n	n/a
116.107	0.1045	232214	keystroke_s	s	n/a
116.452	0.105	232904	keystroke_Key.backspace	Key.backspace	n/a
116.527	0.1645	233054	keystroke_t	t	n/a
116.6165	0.1355	233233	keystroke_s	s	n/a
116.707	0.12	233414	keystroke_Key.space	Key.space	n/a
116.9915	0.0905	233983	keystroke_m	m	n/a
117.067	0.1495	234134	keystroke_o	o	n/a
117.1715	0.15	234343	keystroke_t	t	n/a
117.3215	0.1055	234643	keystroke_o	o	n/a
117.442	0.105	234884	keystroke_r	r	n/a
117.652	0.1045	235304	keystroke_c	c	n/a
117.7715	0.09	235543	keystroke_y	y	n/a
117.877	0.105	235754	keystroke_c	c	n/a
117.982	0.1045	235964	keystroke_l	l	n/a
118.0715	0.1205	236143	keystroke_e	e	n/a
118.1475	0.1495	236295	keystroke_s	s	n/a
118.237	0.105	236474	keystroke_Key.space	Key.space	n/a
118.3865	0.1655	236773	keystroke_r	r	n/a
118.4615	0.1055	236923	keystroke_e	e	n/a
118.537	0.225	237074	keystroke_q	q	n/a
118.6865	0.1505	237373	keystroke_u	u	n/a
118.777	0.09	237554	keystroke_i	i	n/a
118.822	0.09	237644	keystroke_r	r	n/a
118.852	0.1045	237704	keystroke_e	e	n/a
119.0315	0.1205	238063	keystroke_d	d	n/a
119.137	0.1195	238274	keystroke_Key.space	Key.space	n/a
119.242	0.1195	238484	keystroke_s	s	n/a
119.3165	0.0905	238633	keystroke_h	h	n/a
119.452	0.0595	238904	keystroke_e	e	n/a
119.812	0.105	239624	keystroke_l	l	n/a
119.932	0.12	239864	keystroke_t	t	n/a
120.082	0.1195	240164	keystroke_e	e	n/a
120.1565	0.1355	240313	keystroke_r	r	n/a
120.277	0.09	240554	keystroke_Key.enter	Key.enter	n/a
120.3715	8.1715	240743	prompt	n/a	carolina seeds oclc casting\n
121.147	0.12	242294	keystroke_c	c	n/a
121.312	0.165	242624	keystroke_a	a	n/a
121.432	0.165	242864	keystroke_r	r	n/a
121.552	0.1045	243104	keystroke_o	o	n/a
121.6715	0.1355	243343	keystroke_n	n	n/a
122.122	0.0895	244244	keystroke_Key.backspace	Key.backspace	n/a
122.362	0.1795	244724	keystroke_l	l	n/a
122.437	0.165	244874	keystroke_i	i	n/a
122.527	0.105	245054	keystroke_n	n	n/a
122.6165	0.105	245233	keystroke_a	a	n/a
122.7065	0.0905	245413	keystroke_Key.space	Key.space	n/a
122.812	0.1045	245624	keystroke_s	s	n/a
122.8865	0.0905	245773	keystroke_e	e	n/a
123.082	0.0595	246164	keystroke_e	e	n/a
123.1715	0.1205	246343	keystroke_n	n	n/a
123.247	0.2095	246494	keystroke_d	d	n/a
123.382	0.1495	246764	keystroke_s	s	n/a
123.547	0.105	247094	keystroke_Key.space	Key.space	n/a
123.7415	0.1055	247483	keystroke_o	o	n/a
123.847	0.1345	247694	keystroke_c	c	n/a
124.7465	0.0755	249493	keystroke_Key.backspace	Key.backspace	n/a
124.927	0.0445	249854	keystroke_Key.backspace	Key.backspace	n/a
125.063	0.074	250126	keystroke_Key.backspace	Key.backspace	n/a
125.2415	0.03	250483	keystroke_Key.backspace	Key.backspace	n/a
125.4065	0.03	250813	keystroke_Key.backspace	Key.backspace	n/a
125.513	0.104	251026	keystroke_Key.backspace	Key.backspace	n/a
125.6635	0.134	251327	keystroke_d	d	n/a
125.767	0.0895	251534	keystroke_s	s	n/a
125.8415	0.12	251683	keystroke_Key.space	Key.space	n/a
126.6215	0.09	253243	keystroke_o	o	n/a
126.727	0.105	253454	keystroke_c	c	n/a
126.847	0.1345	253694	keystroke_l	l	n/a
126.9665	0.105	253933	keystroke_c	c	n/a
127.117	0.1045	254234	keystroke_Key.space	Key.space	n/a
127.6565	0.1355	255313	keystroke_c	c	n/a
127.777	0.1345	255554	keystroke_a	a	n/a
127.9415	0.1505	255883	keystroke_s	s	n/a
128.063	0.1485	256126	keystroke_t	t	n/a
128.1665	0.136	256333	keystroke_i	i	n/a
128.2265	0.0905	256453	keystroke_n	n	n/a
128.332	0.12	256664	keystroke_g	g	n/a
128.437	0.1045	256874	keystroke_Key.enter	Key.enter	n/a
128.546	5.068	257092	prompt	n/a	butter frequencies nancy temporary\n
129.2465	0.1355	258493	keystroke_b	b	n/a
129.367	0.0745	258734	keystroke_u	u	n/a
129.4565	0.0905	258913	keystroke_t	t	n/a
129.637	0.045	259274	keystroke_t	t	n/a
129.7265	0.15	259453	keystroke_e	e	n/a
129.817	0.1055	259634	keystroke_r	r	n/a
129.937	0.1045	259874	keystroke_Key.space	Key.space	n/a
129.997	0.0595	259994	keystroke_f	f	n/a
130.132	0.15	260264	keystroke_r	r	n/a
130.207	0.09	260414	keystroke_e	e	n/a
130.267	0.135	260534	keystroke_q	q	n/a
130.3875	0.06	260775	keystroke_u	u	n/a
130.463	0.1045	260926	keystroke_e	e	n/a
130.568	0.089	261136	keystroke_n	n	n/a
130.672	0.091	261344	keystroke_c	c	n/a
130.7635	0.1035	261527	keystroke_i	i	n/a
130.837	0.135	261674	keystroke_e	e	n/a
130.9115	0.1055	261823	keystroke_s	s	n/a
131.002	0.075	262004	keystroke_Key.space	Key.space	n/a
131.1515	0.075	262303	keystroke_n	n	n/a
131.2565	0.1205	262513	keystroke_a	a	n/a
131.3475	0.0745	262695	keystroke_n	n	n/a
131.5415	0.06	263083	keystroke_y	y	n/a
132.1565	0.1065	264313	keystroke_Key.backspace	Key.backspace	n/a
132.247	0.12	264494	keystroke_c	c	n/a
132.3365	0.105	264673	keystroke_y	y	n/a
132.4265	0.09	264853	keystroke_Key.space	Key.space	n/a
132.637	0.1195	265274	keystroke_t	t	n/a
132.7415	0.1215	265483	keystroke_e	e	n/a
132.7715	0.1055	265543	keystroke_m	m	n/a
132.8465	0.1355	265693	keystroke_p	p	n/a
132.922	0.1495	265844	keystroke_o	o	n/a
133.0265	0.1205	266053	keystroke_r	r	n/a
133.117	0.15	266234	keystroke_a	a	n/a
133.252	0.15	266504	keystroke_r	r	n/a
133.3415	0.0755	266683	keystroke_y	y	n/a
133.537	0.0745	267074	keystroke_Key.enter	Key.enter	n/a
133.6175	4.241	267235	prompt	n/a	tires color monthly dividend\n
134.2875	0.1195	268575	keystroke_t	t	n/a
134.422	0.12	268844	keystroke_i	i	n/a
134.5265	0.1365	269053	keystroke_r	r	n/a
134.602	0.1205	269204	keystroke_e	e	n/a
134.7075	0.104	269415	keystroke_s	s	n/a
134.7965	0.0905	269593	keystroke_Key.space	Key.space	n/a
134.902	0.135	269804	keystroke_c	c	n/a
134.9915	0.0605	269983	keystroke_o	o	n/a
135.157	0.09	270314	keystroke_l	l	n/a
135.3065	0.12	270613	keystroke_o	o	n/a
135.4115	0.1355	270823	keystroke_r	r	n/a
135.4715	0.1205	270943	keystroke_Key.space	Key.space	n/a
135.607	0.1195	271214	keystroke_m	m	n/a
135.7115	0.1055	271423	keystroke_o	o	n/a
135.802	0.12	271604	keystroke_n	n	n/a
135.937	0.135	271874	keystroke_t	t	n/a
136.012	0.09	272024	keystroke_h	h	n/a
136.192	0.1345	272384	keystroke_l	l	n/a
136.2965	0.1205	272593	keystroke_y	y	n/a
136.387	0.09	272774	keystroke_Key.space	Key.space	n/a
136.507	0.165	273014	keystroke_d	d	n/a
136.6265	0.0905	273253	keystroke_i	i	n/a
136.732	0.12	273464	keystroke_v	v	n/a
136.837	0.1195	273674	keystroke_i	i	n/a
137.332	0.09	274664	keystroke_d	d	n/a
137.482	0.1195	274964	keystroke_e	e	n/a
137.5415	0.105	275083	keystroke_n	n	n/a
137.677	0.1345	275354	keystroke_t	t	n/a
137.767	0.09	275534	keystroke_Key.enter	Key.enter	n/a
137.8645	9.8505	275729	prompt	n/a	wants welcome munich bedroom\n
138.4715	0.1055	276943	keystroke_w	w	n/a
138.667	0.135	277334	keystroke_a	a	n/a
138.7865	0.1055	277573	keystroke_n	n	n/a
138.877	0.1495	277754	keystroke_t	t	n/a
138.967	0.105	277934	keystroke_s	s	n/a
139.0725	0.104	278145	keystroke_Key.space	Key.space	n/a
139.192	0.15	278384	keystroke_w	w	n/a
139.313	0.1495	278626	keystroke_e	e	n/a
139.7315	0.1655	279463	keystroke_c	c	n/a
140.122	0.1045	280244	keystroke_Key.backspace	Key.backspace	n/a
141.037	0.1045	282074	keystroke_l	l	n/a
141.277	0.18	282554	keystroke_c	c	n/a
141.6225	0.1795	283245	keystroke_o	o	n/a
141.7265	0.1655	283453	keystroke_m	m	n/a
141.817	0.1505	283634	keystroke_e	e	n/a
142.3265	0.09	284653	keystroke_Key.space	Key.space	n/a
142.5665	0.06	285133	keystroke_m	m	n/a
142.9125	0.044	285825	keystroke_u	u	n/a
143.077	0.1045	286154	keystroke_n	n	n/a
143.167	0.1345	286334	keystroke_i	i	n/a
143.2865	0.1355	286573	keystroke_c	c	n/a
143.407	0.0745	286814	keystroke_Key.space	Key.space	n/a
143.737	0.105	287474	keystroke_b	b	n/a
143.902	0.1055	287804	keystroke_e	e	n/a
144.202	0.0605	288404	keystroke_Key.backspace	Key.backspace	n/a
144.3675	0.0445	288735	keystroke_Key.backspace	Key.backspace	n/a
144.517	0.075	289034	keystroke_Key.backspace	Key.backspace	n/a
145.102	0.12	290204	keystroke_h	h	n/a
145.207	0.1195	290414	keystroke_Key.space	Key.space	n/a
145.417	0.135	290834	keystroke_b	b	n/a
145.567	0.075	291134	keystroke_e	e	n/a
145.747	0.1045	291494	keystroke_d	d	n/a
145.942	0.18	291884	keystroke_r	r	n/a
146.2135	0.1185	292427	keystroke_o	o	n/a
146.287	0.1495	292574	keystroke_m	m	n/a
146.887	0.0455	293774	keystroke_Key.backspace	Key.backspace	n/a
147.292	0.1045	294584	keystroke_o	o	n/a
147.442	0.105	294884	keystroke_m	m	n/a
147.6215	0.091	295243	keystroke_Key.enter	Key.enter	n/a
147.719	5.4695	295438	prompt	n/a	templates edmonton baskets shopping\n
148.463	0.119	296926	keystroke_t	t	n/a
148.6425	0.1645	297285	keystroke_e	e	n/a
148.822	0.1805	297644	keystroke_m	m	n/a
148.9275	0.1355	297855	keystroke_p	p	n/a
148.987	0.1645	297974	keystroke_l	l	n/a
149.137	0.12	298274	keystroke_a	a	n/a
149.242	0.165	298484	keystroke_t	t	n/a
149.3175	0.1645	298635	keystroke_e	e	n/a
149.4675	0.135	298935	keystroke_s	s	n/a
149.5875	0.1345	299175	keystroke_Key.space	Key.space	n/a
149.752	0.105	299504	keystroke_e	e	n/a
150.1125	0.15	300225	keystroke_d	d	n/a
150.307	0.1065	300614	keystroke_m	m	n/a
150.4135	0.119	300827	keystroke_o	o	n/a
150.4875	0.1345	300975	keystroke_n	n	n/a
150.637	0.15	301274	keystroke_t	t	n/a
150.7425	0.105	301485	keystroke_o	o	n/a
150.832	0.105	301664	keystroke_n	n	n/a
150.922	0.1205	301844	keystroke_Key.space	Key.space	n/a
151.0875	0.1195	302175	keystroke_b	b	n/a
151.1625	0.15	302325	keystroke_a	a	n/a
151.327	0.121	302654	keystroke_s	s	n/a
151.537	0.1205	303074	keystroke_k	k	n/a
151.6575	0.135	303315	keystroke_e	e	n/a
151.7325	0.181	303465	keystroke_t	t	n/a
151.852	0.135	303704	keystroke_s	s	n/a
151.9725	0.119	303945	keystroke_Key.space	Key.space	n/a
152.137	0.1505	304274	keystroke_s	s	n/a
152.242	0.1355	304484	keystroke_h	h	n/a
152.303	0.119	304606	keystroke_o	o	n/a
152.513	0.0745	305026	keystroke_p	p	n/a
152.677	0.1205	305354	keystroke_p	p	n/a
152.767	0.1655	305534	keystroke_i	i	n/a
152.842	0.1205	305684	keystroke_n	n	n/a
152.9175	0.15	305835	keystroke_g	g	n/a
153.0825	0.1045	306165	keystroke_Key.enter	Key.enter	n/a
153.191	7.468	306382	prompt	n/a	photographers simon including guards\n
153.877	0.1205	307754	keystroke_p	p	n/a
153.952	0.135	307904	keystroke_h	h	n/a
154.042	0.1055	308084	keystroke_o	o	n/a
154.132	0.1355	308264	keystroke_t	t	n/a
154.252	0.1205	308504	keystroke_o	o	n/a
154.9425	0.09	309885	keystroke_g	g	n/a
155.107	0.15	310214	keystroke_r	r	n/a
155.1825	0.15	310365	keystroke_a	a	n/a
155.3025	0.1195	310605	keystroke_p	p	n/a
155.3625	0.135	310725	keystroke_h	h	n/a
155.4675	0.135	310935	keystroke_e	e	n/a
155.5425	0.1795	311085	keystroke_r	r	n/a
155.6475	0.12	311295	keystroke_s	s	n/a
155.737	0.0905	311474	keystroke_Key.space	Key.space	n/a
155.8725	0.1345	311745	keystroke_s	s	n/a
155.932	0.105	311864	keystroke_i	i	n/a
155.992	0.1205	311984	keystroke_m	m	n/a
156.1275	0.1355	312255	keystroke_o	o	n/a
156.217	0.135	312434	keystroke_n	n	n/a
156.337	0.1205	312674	keystroke_Key.space	Key.space	n/a
156.5025	0.1795	313005	keystroke_i	i	n/a
156.5775	0.1195	313155	keystroke_n	n	n/a
156.7425	0.1345	313485	keystroke_c	c	n/a
156.7875	0.15	313575	keystroke_l	l	n/a
156.892	0.09	313784	keystroke_u	u	n/a
156.997	0.15	313994	keystroke_d	d	n/a
157.0575	0.1195	314115	keystroke_i	i	n/a
157.1025	0.1045	314205	keystroke_n	n	n/a
157.207	0.106	314414	keystroke_g	g	n/a
157.2525	0.1345	314505	keystroke_Key.space	Key.space	n/a
157.4325	0.135	314865	keystroke_g	g	n/a
157.507	0.1205	315014	keystroke_h	h	n/a
157.6425	0.12	315285	keystroke_a	a	n/a
157.7025	0.1345	315405	keystroke_r	r	n/a
157.852	0.1355	315704	keystroke_d	d	n/a
157.927	0.1355	315854	keystroke_s	s	n/a
158.2725	0.075	316545	keystroke_Key.backspace	Key.backspace	n/a
158.452	0.061	316904	keystroke_Key.backspace	Key.backspace	n/a
158.5875	0.0445	317175	keystroke_Key.backspace	Key.backspace	n/a
158.737	0.0455	317474	keystroke_Key.backspace	Key.backspace	n/a
158.8575	0.105	317715	keystroke_Key.backspace	Key.backspace	n/a
158.992	0.166	317984	keystroke_u	u	n/a
159.143	0.074	318286	keystroke_d	d	n/a
159.202	0.0605	318404	keystroke_a	a	n/a
159.427	0.0455	318854	keystroke_Key.backspace	Key.backspace	n/a
159.7725	0.105	319545	keystroke_Key.backspace	Key.backspace	n/a
159.922	0.1205	319844	keystroke_a	a	n/a
159.9975	0.15	319995	keystroke_r	r	n/a
160.4025	0.1195	320805	keystroke_d	d	n/a
160.4475	0.165	320895	keystroke_s	s	n/a
160.5975	0.06	321195	keystroke_Key.enter	Key.enter	n/a
160.662	4.0315	321324	prompt	n/a	marks comm outer logging\n
161.2875	0.1195	322575	keystroke_m	m	n/a
161.392	0.0905	322784	keystroke_a	a	n/a
161.4975	0.075	322995	keystroke_k	k	n/a
161.7975	0.075	323595	keystroke_Key.backspace	Key.backspace	n/a
161.8875	0.1195	323775	keystroke_r	r	n/a
161.992	0.0905	323984	keystroke_k	k	n/a
162.0675	0.12	324135	keystroke_s	s	n/a
162.1725	0.1195	324345	keystroke_Key.space	Key.space	n/a
162.337	0.1505	324674	keystroke_c	c	n/a
162.4125	0.045	324825	keystroke_o	o	n/a
162.577	0.0605	325154	keystroke_m	m	n/a
162.7125	0.1645	325425	keystroke_m	m	n/a
163.042	0.1205	326084	keystroke_Key.space	Key.space	n/a
163.1475	0.135	326295	keystroke_o	o	n/a
163.3295	0.118	326659	keystroke_u	u	n/a
163.4025	0.1195	326805	keystroke_t	t	n/a
163.538	0.134	327076	keystroke_e	e	n/a
163.613	0.1345	327226	keystroke_r	r	n/a
163.6875	0.0755	327375	keystroke_Key.space	Key.space	n/a
163.807	0.045	327614	keystroke_l	l	n/a
163.9575	0.09	327915	keystroke_o	o	n/a
164.0325	0.0895	328065	keystroke_g	g	n/a
164.1975	0.1195	328395	keystroke_g	g	n/a
164.302	0.1355	328604	keystroke_i	i	n/a
164.3625	0.12	328725	keystroke_n	n	n/a
164.468	0.1495	328936	keystroke_g	g	n/a
164.618	0.074	329236	keystroke_Key.enter	Key.enter	n/a
164.697	4.8575	329394	prompt	n/a	humans silent demonstration tube\n
165.397	0.0455	330794	keystroke_h	h	n/a
165.5475	0.0745	331095	keystroke_u	u	n/a
165.698	0.0745	331396	keystroke_m	m	n/a
165.787	0.135	331574	keystroke_a	a	n/a
165.8475	0.105	331695	keystroke_n	n	n/a
165.967	0.1205	331934	keystroke_s	s	n/a
166.0275	0.105	332055	keystroke_Key.space	Key.space	n/a
166.192	0.15	332384	keystroke_s	s	n/a
166.237	0.0905	332474	keystroke_i	i	n/a
166.4325	0.12	332865	keystroke_l	l	n/a
166.5375	0.1355	333075	keystroke_e	e	n/a
166.6425	0.105	333285	keystroke_n	n	n/a
166.748	0.104	333496	keystroke_t	t	n/a
166.837	0.0755	333674	keystroke_Key.space	Key.space	n/a
166.972	0.15	333944	keystroke_d	d	n/a
167.0775	0.06	334155	keystroke_o	o	n/a
167.542	0.075	335084	keystroke_Key.backspace	Key.backspace	n/a
167.6475	0.135	335295	keystroke_e	e	n/a
167.737	0.0905	335474	keystroke_m	m	n/a
167.8125	0.1505	335625	keystroke_o	o	n/a
167.9025	0.15	335805	keystroke_n	n	n/a
167.978	0.1345	335956	keystroke_s	s	n/a
168.098	0.0895	336196	keystroke_t	t	n/a
168.2625	0.12	336525	keystroke_r	r	n/a
168.337	0.1205	336674	keystroke_a	a	n/a
168.5025	0.165	337005	keystroke_t	t	n/a
168.578	0.1345	337156	keystroke_i	i	n/a
168.6525	0.075	337305	keystroke_o	o	n/a
168.6825	0.0895	337365	keystroke_n	n	n/a
168.787	0.0755	337574	keystroke_Key.space	Key.space	n/a
168.907	0.1205	337814	keystroke_t	t	n/a
169.013	0.0895	338026	keystroke_u	u	n/a
169.1625	0.1045	338325	keystroke_b	b	n/a
169.327	0.12	338654	keystroke_e	e	n/a
169.4475	0.105	338895	keystroke_Key.enter	Key.enter	n/a
169.557	5.787	339114	prompt	n/a	cave here ordinary broad\n
170.242	0.135	340484	keystroke_c	c	n/a
170.3325	0.195	340665	keystroke_a	a	n/a
170.5125	0.0895	341025	keystroke_r	r	n/a
170.7975	0.105	341595	keystroke_Key.backspace	Key.backspace	n/a
170.8725	0.1495	341745	keystroke_v	v	n/a
170.977	0.1505	341954	keystroke_e	e	n/a
171.0825	0.09	342165	keystroke_Key.space	Key.space	n/a
171.1875	0.1195	342375	keystroke_h	h	n/a
171.292	0.1205	342584	keystroke_e	e	n/a
171.3975	0.1795	342795	keystroke_r	r	n/a
171.5025	0.135	343005	keystroke_e	e	n/a
171.638	0.0745	343276	keystroke_Key.space	Key.space	n/a
171.907	0.1355	343814	keystroke_o	o	n/a
172.0575	0.1345	344115	keystroke_r	r	n/a
172.2675	0.12	344535	keystroke_g	g	n/a
172.3425	0.12	344685	keystroke_i	i	n/a
172.807	0.0755	345614	keystroke_Key.backspace	Key.backspace	n/a
172.9875	0.075	345975	keystroke_Key.backspace	Key.backspace	n/a
173.167	0.06	346334	keystroke_Key.backspace	Key.backspace	n/a
173.8575	0.06	347715	keystroke_r	r	n/a
173.992	0.1655	347984	keystroke_d	d	n/a
174.0675	0.105	348135	keystroke_i	i	n/a
174.1275	0.09	348255	keystroke_n	n	n/a
174.2025	0.105	348405	keystroke_a	a	n/a
174.2625	0.165	348525	keystroke_r	r	n/a
174.4125	0.0755	348825	keystroke_y	y	n/a
174.443	0.149	348886	keystroke_Key.space	Key.space	n/a
174.6375	0.0755	349275	keystroke_b	b	n/a
174.8025	0.1345	349605	keystroke_r	r	n/a
174.892	0.1055	349784	keystroke_o	o	n/a
174.9825	0.075	349965	keystroke_a	a	n/a
175.1025	0.12	350205	keystroke_d	d	n/a
175.2525	0.09	350505	keystroke_Key.enter	Key.enter	n/a
175.347	7.558	350694	prompt	n/a	sufficient uzbekistan optimum tunisia\n
176.032	0.1205	352064	keystroke_s	s	n/a
176.1675	0.06	352335	keystroke_u	u	n/a
176.2125	0.09	352425	keystroke_f	f	n/a
176.377	0.09	352754	keystroke_f	f	n/a
176.482	0.0605	352964	keystroke_i	i	n/a
176.5575	0.09	353115	keystroke_c	c	n/a
176.6625	0.1045	353325	keystroke_i	i	n/a
176.7825	0.135	353565	keystroke_e	e	n/a
176.918	0.089	353836	keystroke_n	n	n/a
176.977	0.136	353954	keystroke_t	t	n/a
177.0975	0.09	354195	keystroke_Key.space	Key.space	n/a
177.3975	0.1045	354795	keystroke_u	u	n/a
177.6075	0.1205	355215	keystroke_z	z	n/a
177.9075	0.105	355815	keystroke_b	b	n/a
178.0575	0.1045	356115	keystroke_e	e	n/a
178.1925	0.0445	356385	keystroke_k	k	n/a
178.3425	0.1205	356685	keystroke_i	i	n/a
178.432	0.1505	356864	keystroke_s	s	n/a
178.5675	0.135	357135	keystroke_t	t	n/a
178.6875	0.12	357375	keystroke_a	a	n/a
178.792	0.1055	357584	keystroke_n	n	n/a
178.868	0.119	357736	keystroke_Key.space	Key.space	n/a
179.063	0.1195	358126	keystroke_o	o	n/a
179.1675	0.1645	358335	keystroke_p	p	n/a
179.347	0.1355	358694	keystroke_t	t	n/a
179.4675	0.0905	358935	keystroke_i	i	n/a
180.053	0.0745	360106	keystroke_m	m	n/a
180.232	0.0455	360464	keystroke_u	u	n/a
180.413	0.1045	360826	keystroke_m	m	n/a
180.5025	0.1045	361005	keystroke_Key.space	Key.space	n/a
181.7025	0.15	363405	keystroke_t	t	n/a
181.8675	0.0455	363735	keystroke_u	u	n/a
182.1825	0.1205	364365	keystroke_n	n	n/a
182.2725	0.09	364545	keystroke_i	i	n/a
182.4375	0.0895	364875	keystroke_s	s	n/a
182.5135	0.119	365027	keystroke_i	i	n/a
182.6475	0.1345	365295	keystroke_a	a	n/a
182.8275	0.0755	365655	keystroke_Key.enter	Key.enter	n/a
182.9085	5.066	365817	prompt	n/a	according collins interior forms\n
183.653	0.1045	367306	keystroke_a	a	n/a
183.8475	0.0455	367695	keystroke_c	c	n/a
183.998	0.1195	367996	keystroke_c	c	n/a
184.1025	0.1055	368205	keystroke_o	o	n/a
184.1925	0.06	368385	keystroke_r	r	n/a
184.3125	0.151	368625	keystroke_d	d	n/a
184.3875	0.15	368775	keystroke_i	i	n/a
184.4475	0.12	368895	keystroke_n	n	n/a
184.553	0.1045	369106	keystroke_g	g	n/a
184.613	0.0895	369226	keystroke_Key.space	Key.space	n/a
184.7175	0.12	369435	keystroke_c	c	n/a
184.7925	0.06	369585	keystroke_o	o	n/a
184.9875	0.0445	369975	keystroke_l	l	n/a
185.123	0.2095	370246	keystroke_l	l	n/a
185.2425	0.15	370485	keystroke_i	i	n/a
185.3175	0.1355	370635	keystroke_n	n	n/a
185.4225	0.135	370845	keystroke_s	s	n/a
185.5275	0.1045	371055	keystroke_Key.space	Key.space	n/a
185.6925	0.135	371385	keystroke_i	i	n/a
185.7675	0.105	371535	keystroke_n	n	n/a
185.813	0.119	371626	keystroke_t	t	n/a
185.9475	0.15	371895	keystroke_e	e	n/a
186.2025	0.1205	372405	keystroke_r	r	n/a
186.293	0.136	372586	keystroke_i	i	n/a
186.383	0.134	372766	keystroke_o	o	n/a
186.7285	0.1185	373457	keystroke_s	s	n/a
187.0275	0.1355	374055	keystroke_Key.backspace	Key.backspace	n/a
187.163	0.1045	374326	keystroke_r	r	n/a
187.2525	0.09	374505	keystroke_Key.space	Key.space	n/a
187.3575	0.12	374715	keystroke_f	f	n/a
187.463	0.06	374926	keystroke_o	o	n/a
187.5375	0.1205	375075	keystroke_r	r	n/a
187.643	0.1045	375286	keystroke_m	m	n/a
187.7625	0.135	375525	keystroke_s	s	n/a
187.883	0.0895	375766	keystroke_Key.enter	Key.enter	n/a
187.9775	4.362	375955	prompt	n/a	where health interactive engine\n
188.6325	0.1205	377265	keystroke_w	w	n/a
188.6775	0.136	377355	keystroke_h	h	n/a
188.798	0.1045	377596	keystroke_e	e	n/a
188.888	0.18	377776	keystroke_r	r	n/a
188.9785	0.119	377957	keystroke_e	e	n/a
189.053	0.1345	378106	keystroke_Key.space	Key.space	n/a
189.1725	0.09	378345	keystroke_h	h	n/a
189.2325	0.1505	378465	keystroke_e	e	n/a
189.338	0.1645	378676	keystroke_a	a	n/a
189.4425	0.135	378885	keystroke_l	l	n/a
189.5925	0.136	379185	keystroke_t	t	n/a
189.683	0.105	379366	keystroke_h	h	n/a
189.7575	0.105	379515	keystroke_Key.space	Key.space	n/a
189.968	0.1495	379936	keystroke_i	i	n/a
190.043	0.1495	380086	keystroke_n	n	n/a
190.1475	0.1355	380295	keystroke_t	t	n/a
190.268	0.1495	380536	keystroke_e	e	n/a
190.4025	0.15	380805	keystroke_r	r	n/a
190.568	0.0745	381136	keystroke_a	a	n/a
190.7025	0.0905	381405	keystroke_c	c	n/a
190.853	0.12	381706	keystroke_t	t	n/a
190.9575	0.135	381915	keystroke_i	i	n/a
191.1075	0.1355	382215	keystroke_v	v	n/a
191.198	0.1195	382396	keystroke_e	e	n/a
191.3025	0.0905	382605	keystroke_Key.space	Key.space	n/a
191.558	0.1215	383116	keystroke_e	e	n/a
191.648	0.105	383296	keystroke_n	n	n/a
191.768	0.105	383536	keystroke_g	g	n/a
191.8285	0.1505	383657	keystroke_i	i	n/a
191.9325	0.0905	383865	keystroke_n	n	n/a
192.008	0.1345	384016	keystroke_e	e	n/a
192.248	0.09	384496	keystroke_Key.enter	Key.enter	n/a
192.3425	5.592	384685	prompt	n/a	heritage ministers usps asked\n
193.0285	0.074	386057	keystroke_h	h	n/a
193.1175	0.1055	386235	keystroke_e	e	n/a
193.268	0.1345	386536	keystroke_r	r	n/a
193.373	0.09	386746	keystroke_i	i	n/a
193.4785	0.1045	386957	keystroke_t	t	n/a
194.0325	0.165	388065	keystroke_a	a	n/a
194.243	0.12	388486	keystroke_g	g	n/a
194.3475	0.1505	388695	keystroke_e	e	n/a
194.423	0.1195	388846	keystroke_Key.space	Key.space	n/a
195.1275	0.075	390255	keystroke_m	m	n/a
195.2785	0.1045	390557	keystroke_i	i	n/a
195.368	0.1645	390736	keystroke_n	n	n/a
195.5175	0.0755	391035	keystroke_i	i	n/a
195.5475	0.1355	391095	keystroke_s	s	n/a
195.638	0.1495	391276	keystroke_t	t	n/a
195.8025	0.1205	391605	keystroke_e	e	n/a
195.908	0.1205	391816	keystroke_r	r	n/a
196.0725	0.106	392145	keystroke_s	s	n/a
196.2225	0.0605	392445	keystroke_Key.space	Key.space	n/a
196.568	0.075	393136	keystroke_u	u	n/a
196.658	0.1205	393316	keystroke_s	s	n/a
196.793	0.1205	393586	keystroke_p	p	n/a
196.8975	0.12	393795	keystroke_s	s	n/a
197.123	0.1055	394246	keystroke_Key.space	Key.space	n/a
197.243	0.1355	394486	keystroke_a	a	n/a
197.333	0.1495	394666	keystroke_s	s	n/a
197.4975	0.09	394995	keystroke_k	k	n/a
197.543	0.0745	395086	keystroke_e	e	n/a
197.723	0.1045	395446	keystroke_d	d	n/a
197.8575	0.0755	395715	keystroke_Key.enter	Key.enter	n/a
197.9375	6.057	395875	prompt	n/a	who'd've mold california replacing\n
198.7425	0.1055	397485	keystroke_w	w	n/a
198.8025	0.1055	397605	keystroke_h	h	n/a
198.863	0.12	397726	keystroke_o	o	n/a
199.0425	0.136	398085	keystroke_'	'	n/a
199.133	0.12	398266	keystroke_d	d	n/a
199.4025	0.121	398805	keystroke_'	'	n/a
199.508	0.1495	399016	keystroke_v	v	n/a
199.6285	0.12	399257	keystroke_e	e	n/a
199.733	0.12	399466	keystroke_Key.space	Key.space	n/a
199.9285	0.0745	399857	keystroke_m	m	n/a
200.018	0.105	400036	keystroke_e	e	n/a
200.379	0.044	400758	keystroke_Key.backspace	Key.backspace	n/a
200.5575	0.045	401115	keystroke_o	o	n/a
200.738	0.0905	401476	keystroke_l	l	n/a
200.813	0.1345	401626	keystroke_d	d	n/a
200.9025	0.0755	401805	keystroke_Key.space	Key.space	n/a
201.098	0.135	402196	keystroke_c	c	n/a
201.218	0.15	402436	keystroke_a	a	n/a
201.383	0.21	402766	keystroke_l	l	n/a
201.5795	0.1185	403159	keystroke_i	i	n/a
201.7575	0.1215	403515	keystroke_f	f	n/a
201.8325	0.0905	403665	keystroke_o	o	n/a
201.9375	0.135	403875	keystroke_r	r	n/a
202.0575	0.0755	404115	keystroke_n	n	n/a
202.0875	0.1505	404175	keystroke_i	i	n/a
202.2375	0.135	404475	keystroke_a	a	n/a
202.313	0.1045	404626	keystroke_Key.space	Key.space	n/a
202.6425	0.1805	405285	keystroke_r	r	n/a
202.7475	0.1055	405495	keystroke_e	e	n/a
202.838	0.21	405676	keystroke_p	p	n/a
202.9425	0.1655	405885	keystroke_l	l	n/a
203.063	0.09	406126	keystroke_a	a	n/a
203.3785	0.164	406757	keystroke_c	c	n/a
203.498	0.15	406996	keystroke_i	i	n/a
203.5575	0.135	407115	keystroke_n	n	n/a
203.6785	0.1345	407357	keystroke_g	g	n/a
203.8875	0.1055	407775	keystroke_Key.enter	Key.enter	n/a
203.9975	4.452	407995	prompt	n/a	shock possibly flags circuits\n
204.6375	0.135	409275	keystroke_s	s	n/a
204.7575	0.0755	409515	keystroke_h	h	n/a
204.788	0.135	409576	keystroke_o	o	n/a
204.938	0.1495	409876	keystroke_c	c	n/a
205.013	0.1195	410026	keystroke_k	k	n/a
205.103	0.12	410206	keystroke_Key.space	Key.space	n/a
205.268	0.165	410536	keystroke_p	p	n/a
205.3425	0.18	410685	keystroke_o	o	n/a
205.448	0.12	410896	keystroke_s	s	n/a
205.6425	0.0905	411285	keystroke_s	s	n/a
205.718	0.0605	411436	keystroke_i	i	n/a
205.853	0.15	411706	keystroke_b	b	n/a
205.898	0.1805	411796	keystroke_l	l	n/a
206.0475	0.1055	412095	keystroke_y	y	n/a
206.138	0.0905	412276	keystroke_Key.space	Key.space	n/a
206.288	0.15	412576	keystroke_f	f	n/a
206.423	0.15	412846	keystroke_l	l	n/a
206.679	0.1185	413358	keystroke_a	a	n/a
206.783	0.15	413566	keystroke_g	g	n/a
206.8575	0.1205	413715	keystroke_s	s	n/a
206.9635	0.1345	413927	keystroke_Key.space	Key.space	n/a
207.2325	0.1505	414465	keystroke_c	c	n/a
207.428	0.1045	414856	keystroke_i	i	n/a
207.548	0.09	415096	keystroke_r	r	n/a
207.758	0.15	415516	keystroke_c	c	n/a
207.8785	0.134	415757	keystroke_u	u	n/a
207.953	0.165	415906	keystroke_i	i	n/a
208.073	0.1645	416146	keystroke_t	t	n/a
208.193	0.135	416386	keystroke_s	s	n/a
208.3425	0.1055	416685	keystroke_Key.enter	Key.enter	n/a
208.455	7.659	416910	prompt	n/a	understand cholesterol appliances interested\n
209.318	0.075	418636	keystroke_u	u	n/a
209.498	0.1045	418996	keystroke_n	n	n/a
209.5575	0.0905	419115	keystroke_d	d	n/a
209.693	0.1195	419386	keystroke_e	e	n/a
209.753	0.135	419506	keystroke_r	r	n/a
209.873	0.165	419746	keystroke_s	s	n/a
210.2175	0.1505	420435	keystroke_t	t	n/a
210.308	0.165	420616	keystroke_a	a	n/a
210.4575	0.121	420915	keystroke_n	n	n/a
210.563	0.1345	421126	keystroke_d	d	n/a
210.653	0.12	421306	keystroke_Key.space	Key.space	n/a
210.8625	0.166	421725	keystroke_c	c	n/a
210.938	0.1045	421876	keystroke_h	h	n/a
211.029	0.074	422058	keystroke_o	o	n/a
211.193	0.1195	422386	keystroke_l	l	n/a
211.2675	0.1205	422535	keystroke_e	e	n/a
211.433	0.135	422866	keystroke_s	s	n/a
211.553	0.12	423106	keystroke_t	t	n/a
211.748	0.165	423496	keystroke_e	e	n/a
211.9285	0.164	423857	keystroke_r	r	n/a
212.1525	0.09	424305	keystroke_o	o	n/a
212.3785	0.1645	424757	keystroke_l	l	n/a
212.5285	0.1045	425057	keystroke_Key.space	Key.space	n/a
212.708	0.1495	425416	keystroke_a	a	n/a
212.8125	0.091	425625	keystroke_p	p	n/a
212.948	0.15	425896	keystroke_p	p	n/a
213.083	0.21	426166	keystroke_l	l	n/a
213.188	0.15	426376	keystroke_i	i	n/a
213.2785	0.1345	426557	keystroke_c	c	n/a
213.4285	0.2095	426857	keystroke_a	a	n/a
213.803	0.045	427606	keystroke_Key.backspace	Key.backspace	n/a
213.9235	0.0905	427847	keystroke_Key.backspace	Key.backspace	n/a
214.0135	0.134	428027	keystroke_a	a	n/a
214.133	0.09	428266	keystroke_n	n	n/a
214.2085	0.089	428417	keystroke_c	c	n/a
214.373	0.1355	428746	keystroke_e	e	n/a
214.6875	0.1205	429375	keystroke_s	s	n/a
214.793	0.075	429586	keystroke_Key.space	Key.space	n/a
214.943	0.12	429886	keystroke_i	i	n/a
215.048	0.105	430096	keystroke_n	n	n/a
215.138	0.12	430276	keystroke_t	t	n/a
215.273	0.12	430546	keystroke_e	e	n/a
215.379	0.1335	430758	keystroke_r	r	n/a
215.468	0.105	430936	keystroke_e	e	n/a
215.5575	0.166	431115	keystroke_s	s	n/a
215.679	0.1335	431358	keystroke_t	t	n/a
215.738	0.12	431476	keystroke_e	e	n/a
215.933	0.135	431866	keystroke_d	d	n/a
216.023	0.0895	432046	keystroke_Key.enter	Key.enter	n/a
216.1175	5.1125	432235	prompt	n/a	urls eliminate lips housewares\n
216.9085	0.029	433817	keystroke_u	u	n/a
217.1335	0.1195	434267	keystroke_r	r	n/a
217.208	0.135	434416	keystroke_l	l	n/a
217.328	0.105	434656	keystroke_s	s	n/a
217.418	0.0905	434836	keystroke_Key.space	Key.space	n/a
217.673	0.135	435346	keystroke_e	e	n/a
217.8235	0.1495	435647	keystroke_l	l	n/a
217.883	0.1505	435766	keystroke_i	i	n/a
218.0185	0.105	436037	keystroke_m	m	n/a
218.1085	0.1345	436217	keystroke_i	i	n/a
218.2285	0.15	436457	keystroke_n	n	n/a
218.408	0.1345	436816	keystroke_a	a	n/a
218.5285	0.1345	437057	keystroke_t	t	n/a
218.588	0.12	437176	keystroke_e	e	n/a
218.7535	0.105	437507	keystroke_Key.space	Key.space	n/a
218.903	0.1505	437806	keystroke_l	l	n/a
219.008	0.18	438016	keystroke_i	i	n/a
219.173	0.135	438346	keystroke_p	p	n/a
219.2935	0.1495	438587	keystroke_s	s	n/a
219.3985	0.105	438797	keystroke_Key.space	Key.space	n/a
219.579	0.0745	439158	keystroke_h	h	n/a
219.6835	0.1645	439367	keystroke_o	o	n/a
219.773	0.106	439546	keystroke_u	u	n/a
219.8635	0.1045	439727	keystroke_s	s	n/a
219.923	0.1195	439846	keystroke_e	e	n/a
220.418	0.1055	440836	keystroke_w	w	n/a
220.5385	0.2695	441077	keystroke_a	a	n/a
220.8385	0.15	441677	keystroke_r	r	n/a
220.913	0.1655	441826	keystroke_e	e	n/a
221.0335	0.135	442067	keystroke_s	s	n/a
221.1535	0.0745	442307	keystroke_Key.enter	Key.enter	n/a
221.2335	6.926	442467	prompt	n/a	glen summary rotary housewives\n
221.9785	0.104	443957	keystroke_g	g	n/a
222.0535	0.0895	444107	keystroke_l	l	n/a
222.113	0.1505	444226	keystroke_e	e	n/a
222.2785	0.1345	444557	keystroke_n	n	n/a
222.488	0.1505	444976	keystroke_Key.space	Key.space	n/a
222.6235	0.1345	445247	keystroke_s	s	n/a
222.713	0.0455	445426	keystroke_u	u	n/a
222.8785	0.059	445757	keystroke_m	m	n/a
223.029	0.089	446058	keystroke_m	m	n/a
223.1485	0.12	446297	keystroke_a	a	n/a
223.2235	0.1345	446447	keystroke_r	r	n/a
223.283	0.075	446566	keystroke_y	y	n/a
223.3585	0.0895	446717	keystroke_Key.space	Key.space	n/a
223.4635	0.119	446927	keystroke_r	r	n/a
223.5085	0.12	447017	keystroke_o	o	n/a
223.658	0.105	447316	keystroke_t	t	n/a
223.7485	0.12	447497	keystroke_a	a	n/a
223.853	0.12	447706	keystroke_t	t	n/a
223.9435	0.0895	447887	keystroke_y	y	n/a
224.0185	0.105	448037	keystroke_Key.space	Key.space	n/a
224.633	0.075	449266	keystroke_Key.backspace	Key.backspace	n/a
224.7975	0.09	449595	keystroke_Key.backspace	Key.backspace	n/a
224.9935	0.135	449987	keystroke_r	r	n/a
225.458	0.09	450916	keystroke_Key.backspace	Key.backspace	n/a
225.5635	0.1645	451127	keystroke_r	r	n/a
225.923	0.0305	451846	keystroke_Key.backspace	Key.backspace	n/a
226.058	0.12	452116	keystroke_Key.backspace	Key.backspace	n/a
226.163	0.1345	452326	keystroke_r	r	n/a
226.313	0.1055	452626	keystroke_y	y	n/a
226.359	0.1195	452718	keystroke_Key.space	Key.space	n/a
226.793	0.0605	453586	keystroke_h	h	n/a
226.943	0.12	453886	keystroke_o	o	n/a
227.018	0.0755	454036	keystroke_u	u	n/a
227.0785	0.1645	454157	keystroke_s	s	n/a
227.168	0.12	454336	keystroke_e	e	n/a
227.4225	0.1055	454845	keystroke_w	w	n/a
227.528	0.1805	455056	keystroke_i	i	n/a
227.7235	0.15	455447	keystroke_v	v	n/a
227.798	0.1655	455596	keystroke_e	e	n/a
227.8885	0.12	455777	keystroke_s	s	n/a
228.053	0.105	456106	keystroke_Key.enter	Key.enter	n/a
228.1625	4.122	456325	prompt	n/a	missing yellow folders speeds\n
228.8335	0.12	457667	keystroke_m	m	n/a
228.938	0.105	457876	keystroke_i	i	n/a
229.0285	0.09	458057	keystroke_s	s	n/a
229.1935	0.1195	458387	keystroke_s	s	n/a
229.2085	0.1645	458417	keystroke_i	i	n/a
229.298	0.1055	458596	keystroke_n	n	n/a
229.3885	0.1045	458777	keystroke_g	g	n/a
229.448	0.135	458896	keystroke_Key.space	Key.space	n/a
229.868	0.0755	459736	keystroke_y	y	n/a
229.9435	0.1195	459887	keystroke_e	e	n/a
230.0935	0.045	460187	keystroke_l	l	n/a
230.228	0.0755	460456	keystroke_l	l	n/a
230.408	0.1055	460816	keystroke_o	o	n/a
230.498	0.12	460996	keystroke_w	w	n/a
230.5735	0.105	461147	keystroke_Key.space	Key.space	n/a
230.723	0.15	461446	keystroke_f	f	n/a
230.798	0.0605	461596	keystroke_o	o	n/a
230.963	0.105	461926	keystroke_l	l	n/a
231.0235	0.1045	462047	keystroke_d	d	n/a
231.2035	0.09	462407	keystroke_e	e	n/a
231.248	0.1655	462496	keystroke_r	r	n/a
231.368	0.105	462736	keystroke_s	s	n/a
231.443	0.0755	462886	keystroke_Key.space	Key.space	n/a
231.563	0.12	463126	keystroke_s	s	n/a
231.638	0.1505	463276	keystroke_p	p	n/a
231.758	0.0455	463516	keystroke_e	e	n/a
231.878	0.075	463756	keystroke_e	e	n/a
232.043	0.1355	464086	keystroke_d	d	n/a
232.1185	0.1345	464237	keystroke_s	s	n/a
232.2085	0.0745	464417	keystroke_Key.enter	Key.enter	n/a
232.287	4.003	464574	prompt	n/a	lauren stop dressed compile\n
233.0335	0.0895	466067	keystroke_l	l	n/a
233.1385	0.1195	466277	keystroke_a	a	n/a
233.243	0.1055	466486	keystroke_u	u	n/a
233.3325	0.1355	466665	keystroke_r	r	n/a
233.408	0.1505	466816	keystroke_e	e	n/a
233.5735	0.0745	467147	keystroke_n	n	n/a
233.6335	0.0895	467267	keystroke_Key.space	Key.space	n/a
233.768	0.1355	467536	keystroke_s	s	n/a
233.9935	0.135	467987	keystroke_t	t	n/a
234.068	0.135	468136	keystroke_o	o	n/a
234.113	0.12	468226	keystroke_p	p	n/a
234.1735	0.105	468347	keystroke_Key.space	Key.space	n/a
234.3235	0.1045	468647	keystroke_d	d	n/a
234.534	0.1335	469068	keystroke_r	r	n/a
234.6385	0.105	469277	keystroke_e	e	n/a
234.8185	0.09	469637	keystroke_s	s	n/a
234.983	0.1205	469966	keystroke_s	s	n/a
235.0585	0.0895	470117	keystroke_e	e	n/a
235.2235	0.1195	470447	keystroke_d	d	n/a
235.298	0.105	470596	keystroke_Key.space	Key.space	n/a
235.4635	0.1345	470927	keystroke_c	c	n/a
235.523	0.1355	471046	keystroke_o	o	n/a
235.598	0.12	471196	keystroke_m	m	n/a
235.6735	0.12	471347	keystroke_p	p	n/a
235.823	0.1655	471646	keystroke_i	i	n/a
235.943	0.1205	471886	keystroke_l	l	n/a
236.0335	0.1345	472067	keystroke_e	e	n/a
236.1985	0.0895	472397	keystroke_Key.enter	Key.enter	n/a
236.2925	7.3925	472585	prompt	n/a	chief amsterdam deutsch dancing\n
237.053	0.135	474106	keystroke_c	c	n/a
237.1135	0.135	474227	keystroke_h	h	n/a
237.2335	0.135	474467	keystroke_i	i	n/a
237.293	0.1205	474586	keystroke_e	e	n/a
237.5335	0.1345	475067	keystroke_f	f	n/a
237.638	0.1205	475276	keystroke_Key.space	Key.space	n/a
237.923	0.075	475846	keystroke_m	m	n/a
238.253	0.0755	476506	keystroke_Key.backspace	Key.backspace	n/a
238.3585	0.1495	476717	keystroke_a	a	n/a
238.523	0.1205	477046	keystroke_m	m	n/a
238.688	0.12	477376	keystroke_s	s	n/a
238.8535	0.105	477707	keystroke_t	t	n/a
238.973	0.165	477946	keystroke_e	e	n/a
239.2585	0.105	478517	keystroke_r	r	n/a
239.558	0.1205	479116	keystroke_m	m	n/a
239.693	0.0905	479386	keystroke_a	a	n/a
239.8885	0.0445	479777	keystroke_Key.backspace	Key.backspace	n/a
240.023	0.0905	480046	keystroke_Key.backspace	Key.backspace	n/a
240.1445	0.1635	480289	keystroke_d	d	n/a
240.2485	0.12	480497	keystroke_a	a	n/a
240.323	0.1205	480646	keystroke_m	m	n/a
240.4135	0.1195	480827	keystroke_Key.space	Key.space	n/a
240.968	0.09	481936	keystroke_d	d	n/a
241.1335	0.15	482267	keystroke_e	e	n/a
241.238	0.0905	482476	keystroke_u	u	n/a
241.763	0.1355	483526	keystroke_t	t	n/a
242.0335	0.1195	484067	keystroke_s	s	n/a
242.2735	0.165	484547	keystroke_c	c	n/a
242.4235	0.09	484847	keystroke_h	h	n/a
242.5885	0.1045	485177	keystroke_Key.space	Key.space	n/a
242.708	0.137	485416	keystroke_d	d	n/a
242.888	0.1505	485776	keystroke_a	a	n/a
242.993	0.0905	485986	keystroke_n	n	n/a
243.1585	0.15	486317	keystroke_c	c	n/a
243.263	0.1355	486526	keystroke_i	i	n/a
243.3235	0.135	486647	keystroke_n	n	n/a
243.4435	0.1195	486887	keystroke_g	g	n/a
243.5785	0.105	487157	keystroke_Key.enter	Key.enter	n/a
243.688	6.297	487376	prompt	n/a	scan hydraulic hollywood picking\n
244.358	0.12	488716	keystroke_s	s	n/a
244.5535	0.1945	489107	keystroke_c	c	n/a
244.793	0.1515	489586	keystroke_a	a	n/a
244.9285	0.105	489857	keystroke_n	n	n/a
245.0185	0.135	490037	keystroke_Key.space	Key.space	n/a
245.2585	0.075	490517	keystroke_h	h	n/a
245.438	0.1065	490876	keystroke_y	y	n/a
245.7985	0.135	491597	keystroke_d	d	n/a
246.0085	0.075	492017	keystroke_r	r	n/a
246.2785	0.1505	492557	keystroke_a	a	n/a
246.4135	0.06	492827	keystroke_u	u	n/a
246.6985	0.1495	493397	keystroke_l	l	n/a
246.7735	0.135	493547	keystroke_i	i	n/a
246.8945	0.1335	493789	keystroke_c	c	n/a
247.013	0.1055	494026	keystroke_Key.space	Key.space	n/a
247.1335	0.12	494267	keystroke_h	h	n/a
247.2385	0.09	494477	keystroke_o	o	n/a
247.448	0.045	494896	keystroke_l	l	n/a
247.6285	0.15	495257	keystroke_l	l	n/a
247.763	0.09	495526	keystroke_y	y	n/a
247.9585	0.18	495917	keystroke_w	w	n/a
248.0335	0.09	496067	keystroke_o	o	n/a
248.183	0.1055	496366	keystroke_o	o	n/a
248.3035	0.1195	496607	keystroke_d	d	n/a
248.378	0.0905	496756	keystroke_Key.space	Key.space	n/a
248.5445	0.1335	497089	keystroke_p	p	n/a
248.6935	0.105	497387	keystroke_a	a	n/a
249.0235	0.0745	498047	keystroke_Key.backspace	Key.backspace	n/a
249.1885	0.1045	498377	keystroke_i	i	n/a
249.308	0.1805	498616	keystroke_c	c	n/a
249.4135	0.0595	498827	keystroke_k	k	n/a
249.548	0.135	499096	keystroke_i	i	n/a
249.6085	0.1195	499217	keystroke_n	n	n/a
249.743	0.15	499486	keystroke_g	g	n/a
249.9085	0.075	499817	keystroke_Key.enter	Key.enter	n/a
249.9885	12.3425	499977	prompt	n/a	miles reliability extensions blog\n
250.5835	0.12	501167	keystroke_m	m	n/a
250.6885	0.1805	501377	keystroke_i	i	n/a
250.8535	0.1195	501707	keystroke_l	l	n/a
250.9285	0.1195	501857	keystroke_e	e	n/a
251.0195	0.104	502039	keystroke_s	s	n/a
251.093	0.121	502186	keystroke_Key.space	Key.space	n/a
251.2445	0.164	502489	keystroke_r	r	n/a
251.289	0.1495	502578	keystroke_e	e	n/a
251.439	0.1495	502878	keystroke_l	l	n/a
251.5135	0.1345	503027	keystroke_i	i	n/a
251.6185	0.12	503237	keystroke_a	a	n/a
251.978	0.1505	503956	keystroke_i	i	n/a
252.7445	0.0885	505489	keystroke_Key.backspace	Key.backspace	n/a
252.848	0.1505	505696	keystroke_b	b	n/a
253.3885	0.106	506777	keystroke_i	i	n/a
253.568	0.165	507136	keystroke_l	l	n/a
253.659	0.119	507318	keystroke_i	i	n/a
253.7785	0.1355	507557	keystroke_t	t	n/a
253.898	0.0755	507796	keystroke_y	y	n/a
253.9585	0.0895	507917	keystroke_Key.space	Key.space	n/a
254.1235	0.135	508247	keystroke_e	e	n/a
254.333	0.1055	508666	keystroke_x	x	n/a
254.453	0.1505	508906	keystroke_t	t	n/a
254.5285	0.1195	509057	keystroke_e	e	n/a
254.6635	0.0745	509327	keystroke_n	n	n/a
255.0535	0.165	510107	keystroke_s	s	n/a
255.2335	0.15	510467	keystroke_t	t	n/a
255.309	0.179	510618	keystroke_i	i	n/a
255.3985	0.1495	510797	keystroke_o	o	n/a
255.444	0.119	510888	keystroke_n	n	n/a
255.6235	0.135	511247	keystroke_s	s	n/a
255.804	0.1345	511608	keystroke_Key.space	Key.space	n/a
256.1335	0.15	512267	keystroke_b	b	n/a
256.209	0.0745	512418	keystroke_l	l	n/a
256.3585	0.12	512717	keystroke_o	o	n/a
256.4635	0.12	512927	keystroke_g	g	n/a
256.8685	0.0745	513737	keystroke_Key.backspace	Key.backspace	n/a
257.4235	0.075	514847	keystroke_Key.backspace	Key.backspace	n/a
257.6035	0.0755	515207	keystroke_Key.backspace	Key.backspace	n/a
257.754	0.044	515508	keystroke_Key.backspace	Key.backspace	n/a
257.9035	0.075	515807	keystroke_Key.backspace	Key.backspace	n/a
258.0535	0.0755	516107	keystroke_Key.backspace	Key.backspace	n/a
258.204	0.1045	516408	keystroke_Key.backspace	Key.backspace	n/a
258.384	0.0745	516768	keystroke_Key.backspace	Key.backspace	n/a
258.533	0.0755	517066	keystroke_Key.backspace	Key.backspace	n/a
258.714	0.075	517428	keystroke_Key.backspace	Key.backspace	n/a
259.3135	0.105	518627	keystroke_Key.backspace	Key.backspace	n/a
260.9485	0.12	521897	keystroke_s	s	n/a
261.0235	0.105	522047	keystroke_i	i	n/a
261.1135	0.165	522227	keystroke_o	o	n/a
261.2035	0.135	522407	keystroke_n	n	n/a
261.294	0.135	522588	keystroke_s	s	n/a
261.414	0.0895	522828	keystroke_Key.space	Key.space	n/a
261.5485	0.15	523097	keystroke_b	b	n/a
261.624	0.075	523248	keystroke_l	l	n/a
261.8035	0.1055	523607	keystroke_o	o	n/a
261.9835	0.135	523967	keystroke_g	g	n/a
262.2235	0.1055	524447	keystroke_Key.enter	Key.enter	n/a
262.3345	7.3005	524669	prompt	n/a	integrity practical peace learning\n
263.095	0.1935	526190	keystroke_i	i	n/a
263.184	0.1195	526368	keystroke_n	n	n/a
263.2585	0.0755	526517	keystroke_t	t	n/a
263.3185	0.15	526637	keystroke_e	e	n/a
263.5135	0.105	527027	keystroke_g	g	n/a
263.694	0.104	527388	keystroke_r	r	n/a
263.7835	0.061	527567	keystroke_i	i	n/a
263.9185	0.1655	527837	keystroke_t	t	n/a
264.0985	0.105	528197	keystroke_y	y	n/a
264.174	0.1045	528348	keystroke_Key.space	Key.space	n/a
264.6235	0.1205	529247	keystroke_p	p	n/a
264.699	0.1345	529398	keystroke_r	r	n/a
264.8185	0.0905	529637	keystroke_a	a	n/a
264.954	0.12	529908	keystroke_c	c	n/a
265.1185	0.1205	530237	keystroke_t	t	n/a
265.2235	0.09	530447	keystroke_i	i	n/a
265.6585	0.1355	531317	keystroke_c	c	n/a
266.109	0.1045	532218	keystroke_a	a	n/a
266.199	0.1195	532398	keystroke_l	l	n/a
266.274	0.1205	532548	keystroke_Key.space	Key.space	n/a
266.829	0.1345	533658	keystroke_p	p	n/a
267.0085	0.1505	534017	keystroke_e	e	n/a
267.144	0.1045	534288	keystroke_a	a	n/a
267.294	0.12	534588	keystroke_c	c	n/a
267.459	0.135	534918	keystroke_e	e	n/a
267.549	0.12	535098	keystroke_Key.space	Key.space	n/a
268.284	0.1195	536568	keystroke_l	l	n/a
268.329	0.15	536658	keystroke_e	e	n/a
268.464	0.0595	536928	keystroke_a	a	n/a
268.959	0.1505	537918	keystroke_r	r	n/a
269.109	0.09	538218	keystroke_n	n	n/a
269.229	0.18	538458	keystroke_i	i	n/a
269.3035	0.1355	538607	keystroke_n	n	n/a
269.379	0.15	538758	keystroke_g	g	n/a
269.5445	0.089	539089	keystroke_Key.enter	Key.enter	n/a
269.638	5.7735	539276	prompt	n/a	voters authentication closure papua\n
270.294	0.15	540588	keystroke_v	v	n/a
270.384	0.1045	540768	keystroke_o	o	n/a
270.564	0.1055	541128	keystroke_t	t	n/a
270.684	0.135	541368	keystroke_e	e	n/a
270.8035	0.1505	541607	keystroke_r	r	n/a
270.924	0.105	541848	keystroke_s	s	n/a
271.0445	0.074	542089	keystroke_Key.space	Key.space	n/a
271.224	0.12	542448	keystroke_a	a	n/a
271.3295	0.059	542659	keystroke_u	u	n/a
271.4185	0.1205	542837	keystroke_t	t	n/a
271.509	0.06	543018	keystroke_h	h	n/a
271.599	0.1645	543198	keystroke_e	e	n/a
271.6885	0.15	543377	keystroke_n	n	n/a
271.854	0.06	543708	keystroke_t	t	n/a
271.869	0.1195	543738	keystroke_i	i	n/a
271.9885	0.1205	543977	keystroke_c	c	n/a
272.0945	0.1195	544189	keystroke_a	a	n/a
272.2585	0.1355	544517	keystroke_t	t	n/a
272.319	0.1495	544638	keystroke_i	i	n/a
272.379	0.12	544758	keystroke_o	o	n/a
272.424	0.1345	544848	keystroke_n	n	n/a
272.544	0.105	545088	keystroke_Key.space	Key.space	n/a
272.844	0.12	545688	keystroke_c	c	n/a
272.9335	0.0605	545867	keystroke_l	l	n/a
273.084	0.1045	546168	keystroke_o	o	n/a
273.2035	0.1655	546407	keystroke_s	s	n/a
273.354	0.1045	546708	keystroke_u	u	n/a
273.444	0.165	546888	keystroke_r	r	n/a
273.504	0.15	547008	keystroke_e	e	n/a
273.6685	0.105	547337	keystroke_Key.space	Key.space	n/a
273.909	0.135	547818	keystroke_p	p	n/a
274.0585	0.1355	548117	keystroke_a	a	n/a
274.749	0.165	549498	keystroke_p	p	n/a
274.899	0.1195	549798	keystroke_u	u	n/a
275.034	0.12	550068	keystroke_a	a	n/a
275.2885	0.1205	550577	keystroke_Key.enter	Key.enter	n/a
275.4145	8.9515	550829	prompt	n/a	chronicle assignments financing login\n
276.1735	0.135	552347	keystroke_c	c	n/a
276.264	0.075	552528	keystroke_h	h	n/a
276.384	0.1495	552768	keystroke_r	r	n/a
277.1945	0.0895	554389	keystroke_o	o	n/a
277.419	0.105	554838	keystroke_n	n	n/a
277.569	0.1345	555138	keystroke_i	i	n/a
278.0035	0.1355	556007	keystroke_c	c	n/a
278.109	0.1495	556218	keystroke_l	l	n/a
278.304	0.15	556608	keystroke_e	e	n/a
278.4385	0.1055	556877	keystroke_Key.space	Key.space	n/a
279.2785	0.135	558557	keystroke_a	a	n/a
279.399	0.0595	558798	keystroke_s	s	n/a
279.549	0.105	559098	keystroke_s	s	n/a
279.624	0.1345	559248	keystroke_i	i	n/a
280.254	0.18	560508	keystroke_g	g	n/a
281.0035	0.1055	562007	keystroke_n	n	n/a
281.184	0.09	562368	keystroke_m	m	n/a
281.334	0.12	562668	keystroke_e	e	n/a
281.484	0.1045	562968	keystroke_n	n	n/a
281.5745	0.12	563149	keystroke_t	t	n/a
281.664	0.1495	563328	keystroke_s	s	n/a
281.7985	0.091	563597	keystroke_Key.space	Key.space	n/a
281.934	0.15	563868	keystroke_f	f	n/a
282.039	0.0895	564078	keystroke_i	i	n/a
282.2335	0.0755	564467	keystroke_n	n	n/a
282.354	0.12	564708	keystroke_a	a	n/a
282.4135	0.1055	564827	keystroke_n	n	n/a
282.654	0.15	565308	keystroke_c	c	n/a
282.7285	0.1505	565457	keystroke_i	i	n/a
282.789	0.135	565578	keystroke_n	n	n/a
282.9095	0.089	565819	keystroke_g	g	n/a
282.9845	0.0895	565969	keystroke_Key.space	Key.space	n/a
283.179	0.075	566358	keystroke_l	l	n/a
283.329	0.1055	566658	keystroke_o	o	n/a
283.4495	0.1045	566899	keystroke_g	g	n/a
283.509	0.135	567018	keystroke_i	i	n/a
283.5845	0.1045	567169	keystroke_n	n	n/a
283.704	0.0445	567408	keystroke_g	g	n/a
284.019	0.0895	568038	keystroke_Key.backspace	Key.backspace	n/a
284.289	0.075	568578	keystroke_Key.enter	Key.enter	n/a
284.3715	9.309	568743	prompt	n/a	section irrigation stylus trading\n
285.1445	0.1495	570289	keystroke_s	s	n/a
285.234	0.105	570468	keystroke_e	e	n/a
285.5195	0.1195	571039	keystroke_c	c	n/a
285.909	0.0895	571818	keystroke_t	t	n/a
285.954	0.165	571908	keystroke_i	i	n/a
286.029	0.18	572058	keystroke_o	o	n/a
286.1045	0.1495	572209	keystroke_n	n	n/a
286.329	0.1055	572658	keystroke_Key.space	Key.space	n/a
286.809	0.06	573618	keystroke_i	i	n/a
286.899	0.1505	573798	keystroke_r	r	n/a
287.064	0.045	574128	keystroke_i	i	n/a
287.2595	0.0145	574519	keystroke_i	i	n/a
287.5135	0.0455	575027	keystroke_Key.backspace	Key.backspace	n/a
287.6045	0.1045	575209	keystroke_Key.backspace	Key.backspace	n/a
288.069	0.105	576138	keystroke_r	r	n/a
288.5345	0.12	577069	keystroke_i	i	n/a
289.284	0.1055	578568	keystroke_g	g	n/a
289.374	0.1355	578748	keystroke_a	a	n/a
289.4945	0.1345	578989	keystroke_t	t	n/a
289.569	0.15	579138	keystroke_i	i	n/a
289.645	0.1195	579290	keystroke_o	o	n/a
289.7045	0.1345	579409	keystroke_n	n	n/a
289.854	0.135	579708	keystroke_Key.space	Key.space	n/a
290.769	0.105	581538	keystroke_s	s	n/a
291.1145	0.18	582229	keystroke_t	t	n/a
291.2795	0.06	582559	keystroke_y	y	n/a
291.5195	0.1645	583039	keystroke_l	l	n/a
291.6395	0.12	583279	keystroke_u	u	n/a
291.7295	0.1655	583459	keystroke_s	s	n/a
291.8645	0.1345	583729	keystroke_Key.space	Key.space	n/a
292.614	0.1205	585228	keystroke_t	t	n/a
292.8105	0.104	585621	keystroke_r	r	n/a
292.854	0.1055	585708	keystroke_a	a	n/a
293.184	0.1505	586368	keystroke_d	d	n/a
293.2895	0.1645	586579	keystroke_i	i	n/a
293.3645	0.1045	586729	keystroke_n	n	n/a
293.4245	0.165	586849	keystroke_g	g	n/a
293.6045	0.0745	587209	keystroke_Key.enter	Key.enter	n/a
293.6835	6.2525	587367	prompt	n/a	flights continuous ribbon manitoba\n
294.4895	0.135	588979	keystroke_f	f	n/a
294.5795	0.15	589159	keystroke_l	l	n/a
294.654	0.1205	589308	keystroke_i	i	n/a
294.7295	0.09	589459	keystroke_g	g	n/a
294.8345	0.0895	589669	keystroke_h	h	n/a
294.91	0.1505	589820	keystroke_t	t	n/a
294.999	0.1205	589998	keystroke_s	s	n/a
295.104	0.1055	590208	keystroke_Key.space	Key.space	n/a
295.7045	0.1495	591409	keystroke_c	c	n/a
295.7645	0.135	591529	keystroke_o	o	n/a
295.839	0.1355	591678	keystroke_n	n	n/a
295.989	0.121	591978	keystroke_t	t	n/a
296.184	0.1205	592368	keystroke_i	i	n/a
296.3945	0.0905	592789	keystroke_n	n	n/a
297.009	0.09	594018	keystroke_u	u	n/a
297.129	0.1505	594258	keystroke_o	o	n/a
297.2345	0.1045	594469	keystroke_u	u	n/a
297.324	0.1055	594648	keystroke_s	s	n/a
297.4145	0.09	594829	keystroke_Key.space	Key.space	n/a
297.5795	0.1195	595159	keystroke_r	r	n/a
297.684	0.0905	595368	keystroke_i	i	n/a
297.9105	0.074	595821	keystroke_b	b	n/a
298.0745	0.12	596149	keystroke_b	b	n/a
298.164	0.1355	596328	keystroke_o	o	n/a
298.254	0.106	596508	keystroke_n	n	n/a
298.4345	0.1345	596869	keystroke_Key.space	Key.space	n/a
298.779	0.1055	597558	keystroke_m	m	n/a
298.8995	0.135	597799	keystroke_a	a	n/a
299.0195	0.1345	598039	keystroke_n	n	n/a
299.139	0.1215	598278	keystroke_i	i	n/a
299.3345	0.105	598669	keystroke_t	t	n/a
299.41	0.1345	598820	keystroke_o	o	n/a
299.5895	0.195	599179	keystroke_b	b	n/a
299.6945	0.135	599389	keystroke_a	a	n/a
299.8445	0.09	599689	keystroke_Key.enter	Key.enter	n/a
299.939	6.852	599878	prompt	n/a	toolkit bloomberg amino i'll\n
300.6695	0.105	601339	keystroke_t	t	n/a
300.7605	0.074	601521	keystroke_o	o	n/a
300.8945	0.0745	601789	keystroke_o	o	n/a
301.0745	0.105	602149	keystroke_l	l	n/a
301.4645	0.09	602929	keystroke_k	k	n/a
301.645	0.1045	603290	keystroke_i	i	n/a
301.7345	0.1345	603469	keystroke_t	t	n/a
301.824	0.1205	603648	keystroke_Key.space	Key.space	n/a
302.0195	0.165	604039	keystroke_b	b	n/a
302.154	0.0455	604308	keystroke_l	l	n/a
302.305	0.0445	604610	keystroke_o	o	n/a
302.454	0.1355	604908	keystroke_o	o	n/a
302.5445	0.12	605089	keystroke_m	m	n/a
302.739	0.1505	605478	keystroke_b	b	n/a
302.9195	0.195	605839	keystroke_e	e	n/a
303.009	0.151	606018	keystroke_r	r	n/a
303.2345	0.1045	606469	keystroke_g	g	n/a
303.324	0.1055	606648	keystroke_Key.space	Key.space	n/a
303.5795	0.1805	607159	keystroke_a	a	n/a
303.654	0.1355	607308	keystroke_m	m	n/a
303.7745	0.1345	607549	keystroke_i	i	n/a
303.865	0.119	607730	keystroke_n	n	n/a
304.209	0.1355	608418	keystroke_o	o	n/a
304.569	0.1205	609138	keystroke_Key.space	Key.space	n/a
305.1995	0.105	610399	keystroke_i	i	n/a
305.439	0.09	610878	keystroke_'	'	n/a
305.665	0.074	611330	keystroke_l	l	n/a
305.814	0.1055	611628	keystroke_l	l	n/a
305.8895	0.1345	611779	keystroke_Key.space	Key.space	n/a
306.444	0.0755	612888	keystroke_Key.backspace	Key.backspace	n/a
306.7145	0.075	613429	keystroke_Key.enter	Key.enter	n/a
306.794	8.112	613588	prompt	n/a	headlines preference blanket bennett\n
307.5845	0.0745	615169	keystroke_h	h	n/a
307.6145	0.1195	615229	keystroke_e	e	n/a
307.704	0.105	615408	keystroke_a	a	n/a
307.8545	0.15	615709	keystroke_d	d	n/a
308.109	0.18	616218	keystroke_l	l	n/a
308.1695	0.1945	616339	keystroke_i	i	n/a
308.2295	0.1495	616459	keystroke_n	n	n/a
308.2745	0.1195	616549	keystroke_e	e	n/a
308.5145	0.15	617029	keystroke_s	s	n/a
308.679	0.0905	617358	keystroke_Key.space	Key.space	n/a
309.385	0.1045	618770	keystroke_p	p	n/a
309.654	0.106	619308	keystroke_r	r	n/a
309.7145	0.105	619429	keystroke_e	e	n/a
309.924	0.1505	619848	keystroke_f	f	n/a
310.045	0.149	620090	keystroke_e	e	n/a
310.1645	0.135	620329	keystroke_r	r	n/a
311.5895	0.0895	623179	keystroke_e	e	n/a
311.6945	0.105	623389	keystroke_n	n	n/a
311.8145	0.075	623629	keystroke_c	c	n/a
311.964	0.0755	623928	keystroke_e	e	n/a
312.01	0.0745	624020	keystroke_Key.space	Key.space	n/a
312.2045	0.135	624409	keystroke_b	b	n/a
312.2645	0.09	624529	keystroke_l	l	n/a
312.3995	0.12	624799	keystroke_a	a	n/a
312.4895	0.1205	624979	keystroke_n	n	n/a
312.7605	0.0885	625521	keystroke_k	k	n/a
312.7895	0.2105	625579	keystroke_e	e	n/a
312.9395	0.1205	625879	keystroke_t	t	n/a
313.0445	0.09	626089	keystroke_Key.space	Key.space	n/a
313.7945	0.09	627589	keystroke_b	b	n/a
313.9445	0.12	627889	keystroke_e	e	n/a
314.0495	0.0605	628099	keystroke_n	n	n/a
314.17	0.1205	628340	keystroke_n	n	n/a
314.2445	0.15	628489	keystroke_e	e	n/a
314.4395	0.135	628879	keystroke_t	t	n/a
314.6195	0.105	629239	keystroke_t	t	n/a
314.7695	0.135	629539	keystroke_Key.enter	Key.enter	n/a
314.909	4.797	629818	prompt	n/a	continually convert durable detailed\n
315.595	0.1345	631190	keystroke_c	c	n/a
315.6395	0.1205	631279	keystroke_o	o	n/a
315.745	0.0895	631490	keystroke_n	n	n/a
315.8045	0.121	631609	keystroke_t	t	n/a
315.925	0.1355	631850	keystroke_i	i	n/a
316.045	0.0445	632090	keystroke_n	n	n/a
316.1945	0.0605	632389	keystroke_u	u	n/a
316.2695	0.1505	632539	keystroke_a	a	n/a
316.3895	0.045	632779	keystroke_l	l	n/a
316.5245	0.1355	633049	keystroke_l	l	n/a
316.6145	0.105	633229	keystroke_y	y	n/a
316.705	0.105	633410	keystroke_Key.space	Key.space	n/a
316.7945	0.1805	633589	keystroke_c	c	n/a
316.885	0.1345	633770	keystroke_o	o	n/a
316.9605	0.089	633921	keystroke_n	n	n/a
317.0045	0.09	634009	keystroke_v	v	n/a
317.1245	0.105	634249	keystroke_e	e	n/a
317.2145	0.06	634429	keystroke_r	r	n/a
317.35	0.1195	634700	keystroke_t	t	n/a
317.4395	0.1055	634879	keystroke_Key.space	Key.space	n/a
317.65	0.1495	635300	keystroke_d	d	n/a
317.7845	0.0905	635569	keystroke_u	u	n/a
317.8745	0.12	635749	keystroke_r	r	n/a
317.979	0.091	635958	keystroke_a	a	n/a
318.1295	0.1205	636259	keystroke_b	b	n/a
318.235	0.1045	636470	keystroke_l	l	n/a
318.2945	0.1055	636589	keystroke_e	e	n/a
318.385	0.1195	636770	keystroke_Key.space	Key.space	n/a
318.6845	0.0755	637369	keystroke_d	d	n/a
318.85	0.1645	637700	keystroke_e	e	n/a
319	0.135	638000	keystroke_t	t	n/a
319.09	0.0895	638180	keystroke_a	a	n/a
319.12	0.18	638240	keystroke_i	i	n/a
319.21	0.135	638420	keystroke_l	l	n/a
319.285	0.105	638570	keystroke_e	e	n/a
319.4945	0.15	638989	keystroke_d	d	n/a
319.5995	0.105	639199	keystroke_Key.enter	Key.enter	n/a
319.709	5.607	639418	prompt	n/a	career coordinates haven adrian\n
320.3495	0.1355	640699	keystroke_c	c	n/a
320.47	0.12	640940	keystroke_a	a	n/a
320.575	0.15	641150	keystroke_r	r	n/a
320.7395	0.1055	641479	keystroke_e	e	n/a
320.92	0.135	641840	keystroke_e	e	n/a
321.0105	0.1345	642021	keystroke_r	r	n/a
321.16	0.0895	642320	keystroke_Key.space	Key.space	n/a
321.2795	0.12	642559	keystroke_c	c	n/a
321.37	0.104	642740	keystroke_o	o	n/a
321.685	0.015	643370	keystroke_o	o	n/a
321.7145	0.0755	643429	keystroke_r	r	n/a
321.8945	0.1205	643789	keystroke_d	d	n/a
321.94	0.135	643880	keystroke_i	i	n/a
322.03	0.105	644060	keystroke_n	n	n/a
322.09	0.1045	644180	keystroke_a	a	n/a
322.1795	0.1805	644359	keystroke_t	t	n/a
322.255	0.15	644510	keystroke_e	e	n/a
322.3895	0.165	644779	keystroke_s	s	n/a
322.5695	0.0755	645139	keystroke_Key.space	Key.space	n/a
323.02	0.1045	646040	keystroke_h	h	n/a
323.14	0.1205	646280	keystroke_e	e	n/a
323.245	0.09	646490	keystroke_a	a	n/a
323.5	0.03	647000	keystroke_Key.backspace	Key.backspace	n/a
323.6345	0.0755	647269	keystroke_Key.backspace	Key.backspace	n/a
323.8	0.105	647600	keystroke_a	a	n/a
323.89	0.1495	647780	keystroke_v	v	n/a
323.9645	0.1205	647929	keystroke_e	e	n/a
324.16	0.1195	648320	keystroke_n	n	n/a
324.2495	0.1355	648499	keystroke_Key.space	Key.space	n/a
324.475	0.1045	648950	keystroke_a	a	n/a
324.5945	0.1655	649189	keystroke_d	d	n/a
324.775	0.1495	649550	keystroke_r	r	n/a
324.8795	0.09	649759	keystroke_i	i	n/a
324.985	0.12	649970	keystroke_a	a	n/a
325.06	0.0745	650120	keystroke_n	n	n/a
325.225	0.0895	650450	keystroke_Key.enter	Key.enter	n/a
325.319	7.287	650638	prompt	n/a	possibilities banking retired consists\n
326.0045	0.1355	652009	keystroke_p	p	n/a
326.125	0.165	652250	keystroke_o	o	n/a
326.275	0.0595	652550	keystroke_s	s	n/a
326.425	0.12	652850	keystroke_s	s	n/a
326.5	0.09	653000	keystroke_i	i	n/a
326.695	0.18	653390	keystroke_l	l	n/a
327.28	0.105	654560	keystroke_Key.backspace	Key.backspace	n/a
327.4745	0.1655	654949	keystroke_b	b	n/a
327.58	0.075	655160	keystroke_i	i	n/a
327.76	0.135	655520	keystroke_l	l	n/a
327.8195	0.1055	655639	keystroke_i	i	n/a
327.91	0.1195	655820	keystroke_t	t	n/a
328	0.1195	656000	keystroke_i	i	n/a
328.075	0.1355	656150	keystroke_e	e	n/a
328.18	0.12	656360	keystroke_s	s	n/a
328.255	0.09	656510	keystroke_Key.space	Key.space	n/a
328.54	0.1795	657080	keystroke_b	b	n/a
328.645	0.1495	657290	keystroke_a	a	n/a
328.81	0.105	657620	keystroke_n	n	n/a
328.9	0.06	657800	keystroke_k	k	n/a
329.065	0.135	658130	keystroke_i	i	n/a
329.1105	0.1195	658221	keystroke_n	n	n/a
329.17	0.1495	658340	keystroke_g	g	n/a
329.3045	0.1055	658609	keystroke_Key.space	Key.space	n/a
329.47	0.1495	658940	keystroke_r	r	n/a
329.545	0.12	659090	keystroke_e	e	n/a
329.965	0.105	659930	keystroke_t	t	n/a
330.04	0.135	660080	keystroke_i	i	n/a
330.13	0.1345	660260	keystroke_r	r	n/a
330.2045	0.0905	660409	keystroke_e	e	n/a
330.43	0.15	660860	keystroke_d	d	n/a
330.595	0.0895	661190	keystroke_Key.space	Key.space	n/a
331.7045	0.1955	663409	keystroke_c	c	n/a
331.81	0.105	663620	keystroke_o	o	n/a
331.885	0.0595	663770	keystroke_n	n	n/a
331.9295	0.1655	663859	keystroke_s	s	n/a
332.1105	0.134	664221	keystroke_i	i	n/a
332.2	0.15	664400	keystroke_s	s	n/a
332.2895	0.165	664579	keystroke_t	t	n/a
332.395	0.12	664790	keystroke_s	s	n/a
332.53	0.0745	665060	keystroke_Key.enter	Key.enter	n/a
332.609	8.1425	665218	prompt	n/a	porsche porter arthritis trees\n
333.28	0.15	666560	keystroke_p	p	n/a
333.325	0.15	666650	keystroke_o	o	n/a
333.4895	0.1055	666979	keystroke_r	r	n/a
333.7305	0.15	667461	keystroke_s	s	n/a
333.97	0.0905	667940	keystroke_c	c	n/a
334.061	0.104	668122	keystroke_h	h	n/a
334.1495	0.1055	668299	keystroke_e	e	n/a
334.27	0.075	668540	keystroke_Key.space	Key.space	n/a
334.375	0.18	668750	keystroke_p	p	n/a
334.4945	0.1355	668989	keystroke_r	r	n/a
334.54	0.1495	669080	keystroke_o	o	n/a
335.065	0.0305	670130	keystroke_Key.backspace	Key.backspace	n/a
335.1705	0.104	670341	keystroke_Key.backspace	Key.backspace	n/a
335.3795	0.0905	670759	keystroke_o	o	n/a
335.4255	0.1195	670851	keystroke_r	r	n/a
335.6195	0.1055	671239	keystroke_t	t	n/a
335.7395	0.1205	671479	keystroke_e	e	n/a
335.785	0.1345	671570	keystroke_r	r	n/a
335.9045	0.0605	671809	keystroke_Key.space	Key.space	n/a
336.22	0.135	672440	keystroke_a	a	n/a
336.3405	0.0895	672681	keystroke_r	r	n/a
337.465	0.105	674930	keystroke_t	t	n/a
337.585	0.0755	675170	keystroke_h	h	n/a
338.23	0.1495	676460	keystroke_r	r	n/a
338.395	0.075	676790	keystroke_i	i	n/a
338.65	0.105	677300	keystroke_t	t	n/a
338.6955	0.1045	677391	keystroke_i	i	n/a
338.9355	0.135	677871	keystroke_s	s	n/a
339.0545	0.0905	678109	keystroke_Key.space	Key.space	n/a
339.535	0.135	679070	keystroke_t	t	n/a
339.8045	0.1355	679609	keystroke_r	r	n/a
339.8655	0.1195	679731	keystroke_e	e	n/a
340.0605	0.1045	680121	keystroke_e	e	n/a
340.45	0.105	680900	keystroke_s	s	n/a
340.66	0.09	681320	keystroke_Key.enter	Key.enter	n/a
340.7545	10.317	681509	prompt	n/a	literature erotica uruguay stake\n
341.7855	0.1495	683571	keystroke_l	l	n/a
341.8605	0.1195	683721	keystroke_i	i	n/a
342.4	0.12	684800	keystroke_t	t	n/a
342.55	0.1345	685100	keystroke_e	e	n/a
342.6705	0.1645	685341	keystroke_r	r	n/a
342.79	0.135	685580	keystroke_a	a	n/a
342.91	0.12	685820	keystroke_t	t	n/a
343.045	0.075	686090	keystroke_u	u	n/a
343.09	0.165	686180	keystroke_r	r	n/a
343.1505	0.1345	686301	keystroke_e	e	n/a
343.3005	0.0595	686601	keystroke_Key.space	Key.space	n/a
343.63	0.165	687260	keystroke_r	r	n/a
344.08	0.1205	688160	keystroke_Key.backspace	Key.backspace	n/a
344.17	0.195	688340	keystroke_e	e	n/a
344.29	0.15	688580	keystroke_r	r	n/a
344.3805	0.1345	688761	keystroke_o	o	n/a
344.59	0.1805	689180	keystroke_t	t	n/a
344.755	0.105	689510	keystroke_i	i	n/a
344.8455	0.1645	689691	keystroke_c	c	n/a
344.9505	0.1495	689901	keystroke_a	a	n/a
345.0705	0.0895	690141	keystroke_Key.space	Key.space	n/a
345.82	0.1055	691640	keystroke_u	u	n/a
345.94	0.1655	691880	keystroke_s	s	n/a
346.63	0.12	693260	keystroke_Key.backspace	Key.backspace	n/a
346.8255	0.1345	693651	keystroke_r	r	n/a
346.9155	0.0895	693831	keystroke_u	u	n/a
348.16	0.1205	696320	keystroke_g	g	n/a
348.2655	0.09	696531	keystroke_u	u	n/a
348.3705	0.1045	696741	keystroke_a	a	n/a
348.535	0.12	697070	keystroke_r	r	n/a
348.8805	0.1495	697761	keystroke_Key.backspace	Key.backspace	n/a
349.0755	0.12	698151	keystroke_y	y	n/a
349.1805	0.105	698361	keystroke_Key.space	Key.space	n/a
349.9155	0.09	699831	keystroke_s	s	n/a
349.9905	0.105	699981	keystroke_t	t	n/a
350.0805	0.105	700161	keystroke_a	a	n/a
350.2005	0.105	700401	keystroke_b	b	n/a
350.56	0.0755	701120	keystroke_Key.backspace	Key.backspace	n/a
350.74	0.1205	701480	keystroke_k	k	n/a
350.83	0.1505	701660	keystroke_e	e	n/a
350.9955	0.0745	701991	keystroke_Key.enter	Key.enter	n/a
351.0745	4.6775	702149	prompt	n/a	enough fifty vector generally\n
351.745	0.1655	703490	keystroke_e	e	n/a
351.865	0.0615	703730	keystroke_n	n	n/a
351.9405	0.165	703881	keystroke_o	o	n/a
352.045	0.076	704090	keystroke_u	u	n/a
352.1205	0.12	704241	keystroke_g	g	n/a
352.226	0.089	704452	keystroke_h	h	n/a
352.2855	0.1045	704571	keystroke_Key.space	Key.space	n/a
352.405	0.1655	704810	keystroke_f	f	n/a
352.4805	0.1345	704961	keystroke_i	i	n/a
352.78	0.1055	705560	keystroke_f	f	n/a
353.005	0.135	706010	keystroke_t	t	n/a
353.111	0.0895	706222	keystroke_y	y	n/a
353.1855	0.0895	706371	keystroke_Key.space	Key.space	n/a
353.4405	0.105	706881	keystroke_v	v	n/a
353.545	0.12	707090	keystroke_e	e	n/a
353.7555	0.1195	707511	keystroke_c	c	n/a
353.9205	0.075	707841	keystroke_t	t	n/a
354.011	0.0895	708022	keystroke_o	o	n/a
354.0705	0.1055	708141	keystroke_r	r	n/a
354.16	0.105	708320	keystroke_Key.space	Key.space	n/a
354.5655	0.045	709131	keystroke_g	g	n/a
354.6555	0.0895	709311	keystroke_e	e	n/a
354.76	0.135	709520	keystroke_n	n	n/a
354.8655	0.1205	709731	keystroke_e	e	n/a
354.97	0.1355	709940	keystroke_r	r	n/a
355.0605	0.1655	710121	keystroke_a	a	n/a
355.2105	0.03	710421	keystroke_l	l	n/a
355.345	0.1355	710690	keystroke_l	l	n/a
355.4355	0.1045	710871	keystroke_y	y	n/a
355.675	0.0755	711350	keystroke_Key.enter	Key.enter	n/a
355.755	4.512	711510	prompt	n/a	sizes stake regular alaska\n
356.4405	0.1045	712881	keystroke_s	s	n/a
356.515	0.1205	713030	keystroke_i	i	n/a
356.6505	0.1195	713301	keystroke_z	z	n/a
356.7555	0.0895	713511	keystroke_e	e	n/a
356.95	0.18	713900	keystroke_s	s	n/a
357.145	0.1205	714290	keystroke_Key.space	Key.space	n/a
357.2505	0.165	714501	keystroke_t	t	n/a
357.37	0.15	714740	keystroke_a	a	n/a
357.745	0.0755	715490	keystroke_Key.backspace	Key.backspace	n/a
357.88	0.1055	715760	keystroke_Key.backspace	Key.backspace	n/a
357.9265	0.1485	715853	keystroke_s	s	n/a
358.0005	0.1345	716001	keystroke_t	t	n/a
358.09	0.1055	716180	keystroke_a	a	n/a
358.1805	0.105	716361	keystroke_k	k	n/a
358.2555	0.135	716511	keystroke_e	e	n/a
358.3605	0.105	716721	keystroke_Key.space	Key.space	n/a
358.5405	0.165	717081	keystroke_r	r	n/a
358.63	0.1355	717260	keystroke_e	e	n/a
358.8105	0.1495	717621	keystroke_g	g	n/a
358.8555	0.1195	717711	keystroke_u	u	n/a
359.005	0.136	718010	keystroke_l	l	n/a
359.0805	0.1205	718161	keystroke_a	a	n/a
359.155	0.135	718310	keystroke_r	r	n/a
359.245	0.0755	718490	keystroke_Key.space	Key.space	n/a
359.4105	0.09	718821	keystroke_a	a	n/a
359.4855	0.135	718971	keystroke_l	l	n/a
359.6055	0.1045	719211	keystroke_a	a	n/a
359.6955	0.1345	719391	keystroke_s	s	n/a
359.9355	0.1345	719871	keystroke_k	k	n/a
360.0555	0.0895	720111	keystroke_a	a	n/a
360.16	0.1055	720320	keystroke_Key.enter	Key.enter	n/a
360.2705	3.836	720541	prompt	n/a	pool nowhere guns weblog\n
360.9405	0.075	721881	keystroke_p	p	n/a
361.075	0.0905	722150	keystroke_o	o	n/a
361.2405	0.075	722481	keystroke_o	o	n/a
361.4205	0.1195	722841	keystroke_l	l	n/a
361.4955	0.1055	722991	keystroke_Key.space	Key.space	n/a
361.7655	0.12	723531	keystroke_n	n	n/a
361.8705	0.1495	723741	keystroke_o	o	n/a
362.0355	0.0905	724071	keystroke_w	w	n/a
362.0805	0.105	724161	keystroke_h	h	n/a
362.1405	0.136	724281	keystroke_e	e	n/a
362.26	0.166	724520	keystroke_r	r	n/a
362.3205	0.15	724641	keystroke_e	e	n/a
362.4105	0.075	724821	keystroke_Key.space	Key.space	n/a
362.6505	0.1645	725301	keystroke_g	g	n/a
362.7555	0.045	725511	keystroke_u	u	n/a
362.995	0.031	725990	keystroke_n	n	n/a
363.01	0.0755	726020	keystroke_s	s	n/a
363.0705	0.1195	726141	keystroke_Key.space	Key.space	n/a
363.2355	0.12	726471	keystroke_w	w	n/a
363.311	0.119	726622	keystroke_e	e	n/a
363.5055	0.135	727011	keystroke_b	b	n/a
363.6555	0.045	727311	keystroke_l	l	n/a
363.8055	0.09	727611	keystroke_o	o	n/a
363.8805	0.135	727761	keystroke_g	g	n/a
364.03	0.075	728060	keystroke_Key.enter	Key.enter	n/a
364.1095	5.7725	728219	prompt	n/a	valium injured trauma comparison\n
364.826	0.1645	729652	keystroke_v	v	n/a
364.9005	0.1505	729801	keystroke_a	a	n/a
365.0055	0.165	730011	keystroke_l	l	n/a
365.125	0.0755	730250	keystroke_u	u	n/a
365.53	0.1055	731060	keystroke_Key.backspace	Key.backspace	n/a
365.726	0.1645	731452	keystroke_i	i	n/a
365.875	0.0605	731750	keystroke_u	u	n/a
366.0555	0.1205	732111	keystroke_m	m	n/a
366.1455	0.105	732291	keystroke_Key.space	Key.space	n/a
366.581	0.1195	733162	keystroke_i	i	n/a
366.656	0.089	733312	keystroke_n	n	n/a
366.8655	0.046	733731	keystroke_j	j	n/a
367.015	0.1205	734030	keystroke_u	u	n/a
367.1205	0.135	734241	keystroke_r	r	n/a
367.1805	0.12	734361	keystroke_e	e	n/a
367.4205	0.135	734841	keystroke_d	d	n/a
367.526	0.074	735052	keystroke_Key.space	Key.space	n/a
367.8105	0.1195	735621	keystroke_t	t	n/a
367.9905	0.15	735981	keystroke_r	r	n/a
368.0355	0.15	736071	keystroke_a	a	n/a
368.23	0.075	736460	keystroke_u	u	n/a
368.455	0.06	736910	keystroke_m	m	n/a
368.53	0.1205	737060	keystroke_a	a	n/a
368.6655	0.105	737331	keystroke_Key.space	Key.space	n/a
368.7855	0.15	737571	keystroke_c	c	n/a
368.8605	0.135	737721	keystroke_o	o	n/a
368.921	0.1345	737842	keystroke_m	m	n/a
368.9655	0.1645	737931	keystroke_p	p	n/a
369.145	0.121	738290	keystroke_a	a	n/a
369.2505	0.1645	738501	keystroke_r	r	n/a
369.3555	0.0745	738711	keystroke_i	i	n/a
369.476	0.119	738952	keystroke_s	s	n/a
369.521	0.1345	739042	keystroke_o	o	n/a
369.61	0.0905	739220	keystroke_n	n	n/a
369.776	0.1045	739552	keystroke_Key.enter	Key.enter	n/a
369.887	6.25	739774	prompt	n/a	modifications ignore ford suggest\n
370.526	0.104	741052	keystroke_m	m	n/a
370.615	0.09	741230	keystroke_o	o	n/a
370.6905	0.1645	741381	keystroke_d	d	n/a
370.8105	0.1195	741621	keystroke_n	n	n/a
370.915	0.091	741830	keystroke_i	i	n/a
371.006	0.1495	742012	keystroke_f	f	n/a
371.1405	0.09	742281	keystroke_i	i	n/a
371.215	0.1355	742430	keystroke_c	c	n/a
371.47	0.06	742940	keystroke_Key.backspace	Key.backspace	n/a
371.6205	0.06	743241	keystroke_Key.backspace	Key.backspace	n/a
371.7705	0.0595	743541	keystroke_Key.backspace	Key.backspace	n/a
371.921	0.0745	743842	keystroke_Key.backspace	Key.backspace	n/a
372.0705	0.0745	744141	keystroke_Key.backspace	Key.backspace	n/a
372.3405	0.0745	744681	keystroke_i	i	n/a
372.476	0.1195	744952	keystroke_f	f	n/a
372.686	0.104	745372	keystroke_i	i	n/a
372.805	0.1215	745610	keystroke_c	c	n/a
372.91	0.12	745820	keystroke_a	a	n/a
373.045	0.1055	746090	keystroke_t	t	n/a
373.09	0.1655	746180	keystroke_i	i	n/a
373.1355	0.15	746271	keystroke_o	o	n/a
373.1955	0.12	746391	keystroke_n	n	n/a
373.3005	0.12	746601	keystroke_s	s	n/a
373.3905	0.09	746781	keystroke_Key.space	Key.space	n/a
373.4655	0.09	746931	keystroke_i	i	n/a
373.541	0.119	747082	keystroke_g	g	n/a
373.677	0.0885	747354	keystroke_n	n	n/a
373.736	0.135	747472	keystroke_o	o	n/a
373.8105	0.15	747621	keystroke_r	r	n/a
373.856	0.12	747712	keystroke_e	e	n/a
373.9455	0.105	747891	keystroke_Key.space	Key.space	n/a
374.276	0.089	748552	keystroke_f	f	n/a
374.3505	0.12	748701	keystroke_o	o	n/a
374.4855	0.075	748971	keystroke_r	r	n/a
374.6355	0.165	749271	keystroke_d	d	n/a
374.7855	0.0595	749571	keystroke_Key.space	Key.space	n/a
374.906	0.135	749812	keystroke_s	s	n/a
375.0555	0.015	750111	keystroke_u	u	n/a
375.0855	0.0905	750171	keystroke_g	g	n/a
375.251	0.1645	750502	keystroke_g	g	n/a
375.356	0.12	750712	keystroke_e	e	n/a
375.776	0.1645	751552	keystroke_s	s	n/a
375.926	0.15	751852	keystroke_t	t	n/a
376.091	0.0445	752182	keystroke_Key.enter	Key.enter	n/a
376.14	5.232	752280	prompt	n/a	memphis berry units lows\n
376.826	0.105	753652	keystroke_m	m	n/a
376.9305	0.1505	753861	keystroke_e	e	n/a
377.0655	0.09	754131	keystroke_m	m	n/a
377.3355	0.1195	754671	keystroke_p	p	n/a
377.4265	0.224	754853	keystroke_h	h	n/a
377.5455	0.12	755091	keystroke_o	o	n/a
377.9055	0.09	755811	keystroke_Key.backspace	Key.backspace	n/a
378.1005	0.12	756201	keystroke_i	i	n/a
378.2055	0.135	756411	keystroke_s	s	n/a
378.2955	0.06	756591	keystroke_Key.space	Key.space	n/a
378.911	0.074	757822	keystroke_b	b	n/a
379.0155	0.135	758031	keystroke_e	e	n/a
379.1205	0.1055	758241	keystroke_r	r	n/a
379.3005	0.1505	758601	keystroke_r	r	n/a
379.4055	0.0905	758811	keystroke_y	y	n/a
379.4805	0.0745	758961	keystroke_Key.space	Key.space	n/a
379.7055	0.0745	759411	keystroke_u	u	n/a
379.9005	0.105	759801	keystroke_n	n	n/a
379.976	0.1195	759952	keystroke_i	i	n/a
380.0655	0.135	760131	keystroke_t	t	n/a
380.1555	0.135	760311	keystroke_s	s	n/a
380.2455	0.09	760491	keystroke_Key.space	Key.space	n/a
380.411	0.0895	760822	keystroke_l	l	n/a
380.6055	0.1205	761211	keystroke_o	o	n/a
380.6655	0.135	761331	keystroke_w	w	n/a
380.8905	0.12	761781	keystroke_s	s	n/a
381.2655	0.105	762531	keystroke_Key.enter	Key.enter	n/a
381.375	6.882	762750	prompt	n/a	malpractice lopez liberty application\n
382.601	0.12	765202	keystroke_m	m	n/a
382.781	0.1495	765562	keystroke_a	a	n/a
382.8855	0.09	765771	keystroke_l	l	n/a
383.261	0.12	766522	keystroke_p	p	n/a
383.366	0.1195	766732	keystroke_r	r	n/a
383.4405	0.105	766881	keystroke_a	a	n/a
383.591	0.105	767182	keystroke_c	c	n/a
383.7705	0.09	767541	keystroke_t	t	n/a
383.8455	0.1055	767691	keystroke_i	i	n/a
383.936	0.1045	767872	keystroke_c	c	n/a
384.101	0.1195	768202	keystroke_e	e	n/a
384.2055	0.165	768411	keystroke_Key.space	Key.space	n/a
384.4605	0.075	768921	keystroke_l	l	n/a
384.761	0.06	769522	keystroke_o	o	n/a
384.776	0.1195	769552	keystroke_p	p	n/a
385.0615	0.104	770123	keystroke_e	e	n/a
385.2705	0.1205	770541	keystroke_z	z	n/a
385.376	0.09	770752	keystroke_Key.space	Key.space	n/a
385.6905	0.15	771381	keystroke_l	l	n/a
385.811	0.1195	771622	keystroke_i	i	n/a
385.901	0.135	771802	keystroke_b	b	n/a
386.081	0.1195	772162	keystroke_e	e	n/a
386.1405	0.1205	772281	keystroke_r	r	n/a
386.3515	0.1345	772703	keystroke_t	t	n/a
386.4555	0.0905	772911	keystroke_y	y	n/a
386.516	0.09	773032	keystroke_Key.space	Key.space	n/a
386.651	0.1345	773302	keystroke_a	a	n/a
386.7255	0.075	773451	keystroke_p	p	n/a
386.876	0.0895	773752	keystroke_p	p	n/a
387.101	0.15	774202	keystroke_l	l	n/a
387.206	0.12	774412	keystroke_i	i	n/a
387.3705	0.1205	774741	keystroke_c	c	n/a
387.4765	0.1195	774953	keystroke_a	a	n/a
387.611	0.12	775222	keystroke_t	t	n/a
387.6855	0.1655	775371	keystroke_i	i	n/a
387.761	0.15	775522	keystroke_o	o	n/a
387.8955	0.1205	775791	keystroke_n	n	n/a
388.181	0.0745	776362	keystroke_Key.enter	Key.enter	n/a
388.26	6.1475	776520	prompt	n/a	mcdonald elementary muscle actors\n
389.0805	0.105	778161	keystroke_m	m	n/a
389.2005	0.15	778401	keystroke_c	c	n/a
389.516	0.105	779032	keystroke_d	d	n/a
389.606	0.075	779212	keystroke_o	o	n/a
389.9205	0.105	779841	keystroke_l	l	n/a
390.0705	0.121	780141	keystroke_a	a	n/a
390.176	0.09	780352	keystroke_n	n	n/a
390.4905	0.0305	780981	keystroke_Key.backspace	Key.backspace	n/a
390.6255	0.045	781251	keystroke_Key.backspace	Key.backspace	n/a
390.7765	0.0745	781553	keystroke_Key.backspace	Key.backspace	n/a
390.9255	0.105	781851	keystroke_n	n	n/a
391.001	0.135	782002	keystroke_a	a	n/a
391.121	0.105	782242	keystroke_l	l	n/a
391.2115	0.1345	782423	keystroke_d	d	n/a
391.301	0.105	782602	keystroke_Key.space	Key.space	n/a
391.5405	0.0905	783081	keystroke_e	e	n/a
391.616	0.09	783232	keystroke_l	l	n/a
391.721	0.1195	783442	keystroke_e	e	n/a
391.8265	0.059	783653	keystroke_m	m	n/a
391.931	0.15	783862	keystroke_e	e	n/a
392.006	0.09	784012	keystroke_n	n	n/a
392.111	0.1055	784222	keystroke_t	t	n/a
392.216	0.1655	784432	keystroke_a	a	n/a
392.366	0.165	784732	keystroke_r	r	n/a
392.486	0.105	784972	keystroke_y	y	n/a
392.576	0.06	785152	keystroke_Key.space	Key.space	n/a
392.7555	0.0155	785511	keystroke_m	m	n/a
392.876	0.09	785752	keystroke_u	u	n/a
392.951	0.1195	785902	keystroke_s	s	n/a
393.116	0.1355	786232	keystroke_c	c	n/a
393.236	0.105	786472	keystroke_l	l	n/a
393.326	0.1055	786652	keystroke_e	e	n/a
393.4155	0.0905	786831	keystroke_Key.space	Key.space	n/a
393.596	0.105	787192	keystroke_a	a	n/a
393.731	0.1205	787462	keystroke_c	c	n/a
393.8965	0.1195	787793	keystroke_t	t	n/a
394.001	0.09	788002	keystroke_o	o	n/a
394.076	0.15	788152	keystroke_r	r	n/a
394.166	0.135	788332	keystroke_s	s	n/a
394.286	0.12	788572	keystroke_Key.enter	Key.enter	n/a
394.4105	5.7125	788821	prompt	n/a	knights five predictions warrior\n
395.066	0.105	790132	keystroke_k	k	n/a
395.351	0.1195	790702	keystroke_n	n	n/a
395.4555	0.1055	790911	keystroke_i	i	n/a
395.576	0.12	791152	keystroke_g	g	n/a
395.651	0.1045	791302	keystroke_h	h	n/a
395.7705	0.1655	791541	keystroke_t	t	n/a
395.876	0.1195	791752	keystroke_s	s	n/a
395.981	0.0745	791962	keystroke_Key.space	Key.space	n/a
396.101	0.1355	792202	keystroke_f	f	n/a
396.221	0.105	792442	keystroke_i	i	n/a
396.3105	0.1205	792621	keystroke_v	v	n/a
396.4005	0.12	792801	keystroke_e	e	n/a
396.506	0.075	793012	keystroke_Key.space	Key.space	n/a
396.7005	0.1205	793401	keystroke_p	p	n/a
396.7765	0.1345	793553	keystroke_e	e	n/a
396.836	0.1495	793672	keystroke_r	r	n/a
397.136	0.045	794272	keystroke_Key.backspace	Key.backspace	n/a
397.256	0.12	794512	keystroke_Key.backspace	Key.backspace	n/a
397.361	0.15	794722	keystroke_r	r	n/a
397.451	0.0745	794902	keystroke_e	e	n/a
397.6305	0.1355	795261	keystroke_d	d	n/a
397.7815	0.059	795563	keystroke_i	i	n/a
397.856	0.18	795712	keystroke_c	c	n/a
398.051	0.1505	796102	keystroke_t	t	n/a
398.1555	0.0755	796311	keystroke_i	i	n/a
398.201	0.1655	796402	keystroke_o	o	n/a
398.321	0.1505	796642	keystroke_n	n	n/a
398.456	0.09	796912	keystroke_s	s	n/a
398.5615	0.09	797123	keystroke_Key.space	Key.space	n/a
398.666	0.135	797332	keystroke_w	w	n/a
398.7555	0.1215	797511	keystroke_a	a	n/a
398.8775	0.0885	797755	keystroke_r	r	n/a
399.0405	0.1205	798081	keystroke_r	r	n/a
399.146	0.121	798292	keystroke_i	i	n/a
399.2665	0.0595	798533	keystroke_e	e	n/a
399.641	0.0455	799282	keystroke_Key.backspace	Key.backspace	n/a
399.806	0.1045	799612	keystroke_o	o	n/a
399.926	0.1205	799852	keystroke_r	r	n/a
400.0615	0.06	800123	keystroke_Key.enter	Key.enter	n/a
400.1255	5.472	800251	prompt	n/a	drawn pupils profits concerning\n
400.781	0.165	801562	keystroke_d	d	n/a
400.9615	0.1345	801923	keystroke_r	r	n/a
401.0365	0.135	802073	keystroke_a	a	n/a
401.186	0.12	802372	keystroke_w	w	n/a
401.411	0.105	802822	keystroke_n	n	n/a
401.486	0.135	802972	keystroke_Key.space	Key.space	n/a
401.7565	0.105	803513	keystroke_p	p	n/a
402.311	0.1205	804622	keystroke_u	u	n/a
402.536	0.15	805072	keystroke_p	p	n/a
402.8665	0.0745	805733	keystroke_i	i	n/a
403.0165	0.1045	806033	keystroke_l	l	n/a
403.106	0.12	806212	keystroke_s	s	n/a
403.196	0.1205	806392	keystroke_Key.space	Key.space	n/a
403.376	0.105	806752	keystroke_p	p	n/a
403.496	0.1055	806992	keystroke_r	r	n/a
403.5715	0.0895	807143	keystroke_o	o	n/a
403.6915	0.1195	807383	keystroke_f	f	n/a
403.781	0.1355	807562	keystroke_i	i	n/a
403.9465	0.1345	807893	keystroke_t	t	n/a
404.036	0.166	808072	keystroke_s	s	n/a
404.1865	0.06	808373	keystroke_Key.space	Key.space	n/a
404.3665	0.1355	808733	keystroke_c	c	n/a
404.4865	0.075	808973	keystroke_o	o	n/a
404.516	0.135	809032	keystroke_n	n	n/a
404.6365	0.105	809273	keystroke_c	c	n/a
404.8015	0.15	809603	keystroke_e	e	n/a
404.8765	0.1345	809753	keystroke_r	r	n/a
405.0715	0.09	810143	keystroke_n	n	n/a
405.2065	0.1345	810413	keystroke_i	i	n/a
405.281	0.1205	810562	keystroke_n	n	n/a
405.3865	0.135	810773	keystroke_g	g	n/a
405.5065	0.0895	811013	keystroke_Key.enter	Key.enter	n/a
405.6	6.3585	811200	prompt	n/a	volt holders strain artwork\n
406.2865	0.135	812573	keystroke_v	v	n/a
406.3165	0.09	812633	keystroke_o	o	n/a
406.496	0.1205	812992	keystroke_l	l	n/a
406.5865	0.1345	813173	keystroke_d	d	n/a
406.692	0.089	813384	keystroke_Key.space	Key.space	n/a
406.9315	0.0895	813863	keystroke_h	h	n/a
406.991	0.09	813982	keystroke_o	o	n/a
407.1865	0.12	814373	keystroke_l	l	n/a
407.2615	0.075	814523	keystroke_d	d	n/a
407.396	0.1205	814792	keystroke_e	e	n/a
407.456	0.1655	814912	keystroke_r	r	n/a
407.5765	0.195	815153	keystroke_s	s	n/a
407.7565	0.06	815513	keystroke_Key.space	Key.space	n/a
407.831	0.15	815662	keystroke_s	s	n/a
407.937	0.1495	815874	keystroke_t	t	n/a
408.1315	0.1495	816263	keystroke_r	r	n/a
408.2215	0.165	816443	keystroke_a	a	n/a
408.4015	0.15	816803	keystroke_i	i	n/a
408.476	0.135	816952	keystroke_n	n	n/a
408.596	0.0905	817192	keystroke_g	g	n/a
408.6715	0.09	817343	keystroke_Key.space	Key.space	n/a
409.106	0.075	818212	keystroke_Key.backspace	Key.backspace	n/a
409.4365	0.0445	818873	keystroke_Key.backspace	Key.backspace	n/a
409.7365	0.0895	819473	keystroke_Key.space	Key.space	n/a
409.841	0.18	819682	keystroke_a	a	n/a
409.947	0.089	819894	keystroke_r	r	n/a
410.111	0.1055	820222	keystroke_t	t	n/a
410.292	0.089	820584	keystroke_w	w	n/a
410.351	0.105	820702	keystroke_o	o	n/a
410.4715	0.1205	820943	keystroke_r	r	n/a
410.8615	0.06	821723	keystroke_Key.backspace	Key.backspace	n/a
411.057	0.0895	822114	keystroke_k	k	n/a
411.4615	0.0445	822923	keystroke_Key.backspace	Key.backspace	n/a
411.551	0.1505	823102	keystroke_r	r	n/a
411.656	0.0755	823312	keystroke_k	k	n/a
411.866	0.0905	823732	keystroke_Key.enter	Key.enter	n/a
411.9615	6.5985	823923	prompt	n/a	objects graduated displaying shades\n
412.6465	0.1195	825293	keystroke_o	o	n/a
412.751	0.1505	825502	keystroke_b	b	n/a
412.8565	0.1045	825713	keystroke_j	j	n/a
412.946	0.09	825892	keystroke_e	e	n/a
413.142	0.1045	826284	keystroke_c	c	n/a
413.2615	0.1345	826523	keystroke_t	t	n/a
413.351	0.135	826702	keystroke_s	s	n/a
413.442	0.1195	826884	keystroke_Key.space	Key.space	n/a
413.576	0.105	827152	keystroke_g	g	n/a
413.817	0.1495	827634	keystroke_r	r	n/a
413.951	0.09	827902	keystroke_a	a	n/a
414.1615	0.0895	828323	keystroke_d	d	n/a
414.2065	0.105	828413	keystroke_u	u	n/a
414.3265	0.09	828653	keystroke_a	a	n/a
414.461	0.12	828922	keystroke_t	t	n/a
414.7165	0.09	829433	keystroke_e	e	n/a
414.911	0.0905	829822	keystroke_d	d	n/a
414.9865	0.075	829973	keystroke_Key.space	Key.space	n/a
415.3465	0.1045	830693	keystroke_d	d	n/a
415.4065	0.1495	830813	keystroke_i	i	n/a
415.6315	0.075	831263	keystroke_s	s	n/a
415.736	0.1655	831472	keystroke_p	p	n/a
415.8865	0.12	831773	keystroke_l	l	n/a
415.992	0.164	831984	keystroke_a	a	n/a
416.141	0.061	832282	keystroke_y	y	n/a
416.2615	0.195	832523	keystroke_i	i	n/a
416.366	0.1055	832732	keystroke_n	n	n/a
416.442	0.15	832884	keystroke_g	g	n/a
416.5465	0.1045	833093	keystroke_Key.space	Key.space	n/a
417.521	0.18	835042	keystroke_s	s	n/a
417.6865	0.045	835373	keystroke_h	h	n/a
417.7165	0.1345	835433	keystroke_a	a	n/a
417.9565	0.0745	835913	keystroke_d	d	n/a
418.106	0.1505	836212	keystroke_e	e	n/a
418.2115	0.15	836423	keystroke_s	s	n/a
418.466	0.091	836932	keystroke_Key.enter	Key.enter	n/a
418.564	4.93	837128	prompt	n/a	islands monkey moms steam\n
419.292	0.089	838584	keystroke_i	i	n/a
419.366	0.1205	838732	keystroke_s	s	n/a
419.5315	0.1205	839063	keystroke_l	l	n/a
419.6515	0.1495	839303	keystroke_a	a	n/a
419.8015	0.075	839603	keystroke_n	n	n/a
419.847	0.1795	839694	keystroke_d	d	n/a
419.951	0.1205	839902	keystroke_s	s	n/a
