onset	duration	sample	value	key	prompt_text
1.364	16.326	2728	prompt	n/a	the quick brown fox jumps over a lazy dog\n
6.3465	0.027	12693	keystroke_t	t	n/a
6.4185	0.075	12837	keystroke_h	h	n/a
6.5085	0.106	13017	keystroke_e	e	n/a
6.6445	0.09	13289	keystroke_Key.space	Key.space	n/a
7.3665	0.09	14733	keystroke_q	q	n/a
7.501	0.1055	15002	keystroke_u	u	n/a
7.6965	0.105	15393	keystroke_i	i	n/a
7.9065	0.09	15813	keystroke_c	c	n/a
8.0565	0.105	16113	keystroke_k	k	n/a
8.2965	0.075	16593	keystroke_Key.space	Key.space	n/a
8.6115	0.0745	17223	keystroke_b	b	n/a
8.791	0.075	17582	keystroke_r	r	n/a
8.911	0.09	17822	keystroke_o	o	n/a
9.091	0.09	18182	keystroke_w	w	n/a
9.271	0.06	18542	keystroke_n	n	n/a
9.481	0.075	18962	keystroke_Key.space	Key.space	n/a
9.8405	0.075	19681	keystroke_f	f	n/a
9.9605	0.09	19921	keystroke_o	o	n/a
10.3655	0.105	20731	keystroke_x	x	n/a
10.6205	0.06	21241	keystroke_Key.space	Key.space	n/a
10.966	0.09	21932	keystroke_j	j	n/a
11.191	0.089	22382	keystroke_u	u	n/a
11.43	0.091	22860	keystroke_m	m	n/a
11.6265	0.0895	23253	keystroke_p	p	n/a
11.821	0.075	23642	keystroke_s	s	n/a
11.91	0.09	23820	keystroke_Key.space	Key.space	n/a
12.135	0.09	24270	keystroke_o	o	n/a
12.286	0.104	24572	keystroke_v	v	n/a
12.495	0.136	24990	keystroke_e	e	n/a
12.585	0.075	25170	keystroke_r	r	n/a
12.735	0.075	25470	keystroke_Key.space	Key.space	n/a
12.885	0.106	25770	keystroke_a	a	n/a
12.991	0.074	25982	keystroke_Key.space	Key.space	n/a
13.305	0.09	26610	keystroke_l	l	n/a
13.7565	0.1035	27513	keystroke_s	s	n/a
14.505	0.075	29010	keystroke_Key.backspace	Key.backspace	n/a
14.896	0.06	29792	keystroke_a	a	n/a
15.121	0.105	30242	keystroke_z	z	n/a
15.346	0.075	30692	keystroke_y	y	n/a
15.6005	0.09	31201	keystroke_Key.space	Key.space	n/a
15.8555	0.06	31711	keystroke_d	d	n/a
15.9455	0.105	31891	keystroke_o	o	n/a
16.1715	0.104	32343	keystroke_g	g	n/a
17.6255	0.06	35251	keystroke_Key.enter	Key.enter	n/a
17.696	10.7015	35392	prompt	n/a	protecting pattern hockey batteries\n
18.4505	0.091	36901	keystroke_p	p	n/a
18.6315	0.09	37263	keystroke_r	r	n/a
18.7665	0.089	37533	keystroke_o	o	n/a
19.1715	0.075	38343	keystroke_c	c	n/a
19.591	0.075	39182	keystroke_Key.backspace	Key.backspace	n/a
19.681	0.12	39362	keystroke_t	t	n/a
19.936	0.09	39872	keystroke_e	e	n/a
20.161	0.105	40322	keystroke_c	c	n/a
20.416	0.075	40832	keystroke_t	t	n/a
20.476	0.105	40952	keystroke_i	i	n/a
20.641	0.075	41282	keystroke_n	n	n/a
20.761	0.06	41522	keystroke_g	g	n/a
20.881	0.075	41762	keystroke_Key.space	Key.space	n/a
21.136	0.09	42272	keystroke_p	p	n/a
21.361	0.12	42722	keystroke_a	a	n/a
21.616	0.06	43232	keystroke_t	t	n/a
21.766	0.0745	43532	keystroke_t	t	n/a
21.9155	0.1805	43831	keystroke_e	e	n/a
22.0505	0.1205	44101	keystroke_r	r	n/a
23.3555	0.045	46711	keystroke_n	n	n/a
23.5355	0.075	47071	keystroke_Key.space	Key.space	n/a
23.7755	0.075	47551	keystroke_h	h	n/a
23.9855	0.105	47971	keystroke_o	o	n/a
24.1505	0.105	48301	keystroke_c	c	n/a
24.2705	0.09	48541	keystroke_k	k	n/a
24.4805	0.105	48961	keystroke_e	e	n/a
24.7205	0.075	49441	keystroke_y	y	n/a
24.9905	0.075	49981	keystroke_Key.space	Key.space	n/a
25.275	0.075	50550	keystroke_b	b	n/a
25.5	0.105	51000	keystroke_a	a	n/a
25.71	0.075	51420	keystroke_t	t	n/a
25.891	0.044	51782	keystroke_t	t	n/a
26.055	0.165	52110	keystroke_e	e	n/a
26.176	0.09	52352	keystroke_r	r	n/a
26.49	0.09	52980	keystroke_i	i	n/a
27	0.09	54000	keystroke_e	e	n/a
27.3	0.091	54600	keystroke_s	s	n/a
28.3205	0.0745	56641	keystroke_Key.enter	Key.enter	n/a
28.402	12.6555	56804	prompt	n/a	pleased ratio paragraph habitat\n
29.07	0.09	58140	keystroke_p	p	n/a
29.295	0.105	58590	keystroke_l	l	n/a
29.595	0.09	59190	keystroke_e	e	n/a
29.91	0.18	59820	keystroke_a	a	n/a
31.11	0.075	62220	keystroke_s	s	n/a
31.32	0.06	62640	keystroke_e	e	n/a
31.485	0.09	62970	keystroke_d	d	n/a
31.74	0.015	63480	keystroke_Key.space	Key.space	n/a
32.4455	0.045	64891	keystroke_r	r	n/a
32.6405	0.135	65281	keystroke_a	a	n/a
32.8505	0.09	65701	keystroke_t	t	n/a
32.9555	0.165	65911	keystroke_i	i	n/a
33.0755	0.165	66151	keystroke_o	o	n/a
33.1805	0.09	66361	keystroke_n	n	n/a
33.7505	0.075	67501	keystroke_Key.backspace	Key.backspace	n/a
34.0205	0.075	68041	keystroke_Key.space	Key.space	n/a
34.8755	0.105	69751	keystroke_p	p	n/a
35.0855	0.105	70171	keystroke_a	a	n/a
35.2655	0.12	70531	keystroke_r	r	n/a
35.5055	0.105	71011	keystroke_a	a	n/a
35.9405	0.06	71881	keystroke_g	g	n/a
36.1205	0.09	72241	keystroke_r	r	n/a
37.08	0.1055	74160	keystroke_a	a	n/a
37.2605	0.1055	74521	keystroke_p	p	n/a
37.471	0.075	74942	keystroke_h	h	n/a
37.86	0.061	75720	keystroke_Key.space	Key.space	n/a
38.866	0.075	77732	keystroke_h	h	n/a
39.1055	0.105	78211	keystroke_a	a	n/a
39.3455	0.0605	78691	keystroke_b	b	n/a
39.5255	0.09	79051	keystroke_i	i	n/a
39.721	0.0885	79442	keystroke_t	t	n/a
39.9305	0.1355	79861	keystroke_a	a	n/a
40.1105	0.12	80221	keystroke_t	t	n/a
40.996	0.0585	81992	keystroke_Key.enter	Key.enter	n/a
41.063	16.945	82126	prompt	n/a	venezuela flame completely continuing\n
41.9255	0.09	83851	keystroke_v	v	n/a
42.3605	0.075	84721	keystroke_n	n	n/a
42.6155	0.09	85231	keystroke_e	e	n/a
43.2455	0.075	86491	keystroke_Key.backspace	Key.backspace	n/a
43.3955	0.089	86791	keystroke_Key.backspace	Key.backspace	n/a
43.5455	0.105	87091	keystroke_e	e	n/a
43.8605	0.06	87721	keystroke_v	v	n/a
44.3555	0.06	88711	keystroke_Key.backspace	Key.backspace	n/a
44.6255	0.06	89251	keystroke_n	n	n/a
44.9705	0.075	89941	keystroke_e	e	n/a
45.3305	0.105	90661	keystroke_x	x	n/a
45.5255	0.075	91051	keystroke_u	u	n/a
46.0955	0.09	92191	keystroke_Key.backspace	Key.backspace	n/a
46.2455	0.105	92491	keystroke_Key.backspace	Key.backspace	n/a
47.0405	0.105	94081	keystroke_z	z	n/a
48.4355	0.09	96871	keystroke_u	u	n/a
48.7055	0.09	97411	keystroke_e	e	n/a
48.9155	0.09	97831	keystroke_l	l	n/a
49.0955	0.09	98191	keystroke_a	a	n/a
49.2905	0.075	98581	keystroke_Key.space	Key.space	n/a
49.7405	0.09	99481	keystroke_f	f	n/a
49.8905	0.105	99781	keystroke_l	l	n/a
50.0105	0.15	100021	keystroke_a	a	n/a
50.1905	0.09	100381	keystroke_m	m	n/a
50.4605	0.015	100921	keystroke_e	e	n/a
50.5055	0.075	101011	keystroke_Key.space	Key.space	n/a
50.9555	0.09	101911	keystroke_c	c	n/a
51.1055	0.135	102211	keystroke_o	o	n/a
51.7805	0.075	103561	keystroke_m	m	n/a
52.1255	0.09	104251	keystroke_p	p	n/a
52.4555	0.09	104911	keystroke_l	l	n/a
52.7255	0.12	105451	keystroke_e	e	n/a
53.0105	0.06	106021	keystroke_t	t	n/a
53.5505	0.075	107101	keystroke_e	e	n/a
54.1655	0.09	108331	keystroke_l	l	n/a
54.3905	0.06	108781	keystroke_y	y	n/a
54.6305	0.075	109261	keystroke_Key.space	Key.space	n/a
54.7805	0.105	109561	keystroke_c	c	n/a
54.9005	0.12	109801	keystroke_o	o	n/a
54.9905	0.075	109981	keystroke_n	n	n/a
55.2305	0.105	110461	keystroke_t	t	n/a
55.7705	0.09	111541	keystroke_i	i	n/a
55.9805	0.045	111961	keystroke_n	n	n/a
56.3255	0.06	112651	keystroke_u	u	n/a
57.1805	0.105	114361	keystroke_i	i	n/a
57.3305	0.105	114661	keystroke_n	n	n/a
57.5105	0.09	115021	keystroke_g	g	n/a
57.9305	0.075	115861	keystroke_Key.enter	Key.enter	n/a
58.013	8.275	116026	prompt	n/a	journal barrel shopper scores\n
58.7405	0.075	117481	keystroke_j	j	n/a
59.0105	0.135	118021	keystroke_o	o	n/a
59.1005	0.1045	118201	keystroke_u	u	n/a
59.475	0.09	118950	keystroke_r	r	n/a
59.925	0.075	119850	keystroke_n	n	n/a
60.075	0.105	120150	keystroke_a	a	n/a
60.181	0.089	120362	keystroke_l	l	n/a
60.375	0.075	120750	keystroke_Key.space	Key.space	n/a
60.66	0.075	121320	keystroke_b	b	n/a
60.825	0.12	121650	keystroke_a	a	n/a
61.08	0.06	122160	keystroke_r	r	n/a
61.23	0.075	122460	keystroke_r	r	n/a
61.86	0.091	123720	keystroke_e	e	n/a
62.37	0.06	124740	keystroke_l	l	n/a
62.625	0.075	125250	keystroke_Key.space	Key.space	n/a
62.895	0.076	125790	keystroke_s	s	n/a
63.181	0.09	126362	keystroke_h	h	n/a
63.5395	0.09	127079	keystroke_o	o	n/a
63.8395	0.061	127679	keystroke_p	p	n/a
63.9745	0.091	127949	keystroke_p	p	n/a
64.1095	0.09	128219	keystroke_e	e	n/a
64.4545	0.075	128909	keystroke_r	r	n/a
64.6495	0.06	129299	keystroke_Key.space	Key.space	n/a
65.0395	0.1055	130079	keystroke_s	s	n/a
65.2045	0.136	130409	keystroke_c	c	n/a
65.4595	0.106	130919	keystroke_o	o	n/a
65.6695	0.09	131339	keystroke_r	r	n/a
65.7295	0.075	131459	keystroke_e	e	n/a
65.9245	0.105	131849	keystroke_s	s	n/a
66.2095	0.075	132419	keystroke_Key.enter	Key.enter	n/a
66.2925	13.0755	132585	prompt	n/a	encountered burning experiencing accounting\n
67.0795	0.075	134159	keystroke_e	e	n/a
67.3945	0.06	134789	keystroke_n	n	n/a
67.5745	0.105	135149	keystroke_c	c	n/a
67.8895	0.136	135779	keystroke_o	o	n/a
67.9945	0.075	135989	keystroke_u	u	n/a
68.5645	0.076	137129	keystroke_n	n	n/a
68.7595	0.12	137519	keystroke_t	t	n/a
69.0755	0.165	138151	keystroke_e	e	n/a
69.5695	0.09	139139	keystroke_r	r	n/a
69.7355	0.105	139471	keystroke_e	e	n/a
69.9595	0.105	139919	keystroke_d	d	n/a
70.1545	0.075	140309	keystroke_Key.space	Key.space	n/a
70.5745	0.075	141149	keystroke_b	b	n/a
70.8145	0.106	141629	keystroke_u	u	n/a
70.9955	0.089	141991	keystroke_r	r	n/a
71.0995	0.105	142199	keystroke_n	n	n/a
71.2345	0.136	142469	keystroke_i	i	n/a
71.3395	0.09	142679	keystroke_n	n	n/a
71.4455	0.105	142891	keystroke_g	g	n/a
71.5945	0.09	143189	keystroke_Key.space	Key.space	n/a
72.0155	0.074	144031	keystroke_e	e	n/a
72.2695	0.121	144539	keystroke_x	x	n/a
72.4655	0.089	144931	keystroke_p	p	n/a
72.9455	0.12	145891	keystroke_r	r	n/a
73.4545	0.09	146909	keystroke_Key.backspace	Key.backspace	n/a
73.5895	0.135	147179	keystroke_e	e	n/a
73.6655	0.105	147331	keystroke_r	r	n/a
73.8745	0.091	147749	keystroke_i	i	n/a
74.2495	0.09	148499	keystroke_e	e	n/a
74.3705	0.09	148741	keystroke_n	n	n/a
74.5195	0.136	149039	keystroke_c	c	n/a
74.6255	0.134	149251	keystroke_e	e	n/a
75.2245	0.0755	150449	keystroke_Key.backspace	Key.backspace	n/a
75.63	0.09	151260	keystroke_n	n	n/a
76.275	0.06	152550	keystroke_Key.backspace	Key.backspace	n/a
76.545	0.15	153090	keystroke_i	i	n/a
76.71	0.09	153420	keystroke_n	n	n/a
76.905	0.075	153810	keystroke_g	g	n/a
77.1	0.06	154200	keystroke_Key.space	Key.space	n/a
77.79	0.105	155580	keystroke_a	a	n/a
77.985	0.06	155970	keystroke_c	c	n/a
78.105	0.09	156210	keystroke_c	c	n/a
78.285	0.09	156570	keystroke_o	o	n/a
78.33	0.09	156660	keystroke_u	u	n/a
78.525	0.105	157050	keystroke_n	n	n/a
78.631	0.074	157262	keystroke_t	t	n/a
78.72	0.135	157440	keystroke_i	i	n/a
78.84	0.09	157680	keystroke_n	n	n/a
78.96	0.075	157920	keystroke_g	g	n/a
79.305	0.06	158610	keystroke_Key.enter	Key.enter	n/a
79.3745	7.883	158749	prompt	n/a	one has body architects\n
80.1	0.12	160200	keystroke_o	o	n/a
80.19	0.09	160380	keystroke_n	n	n/a
80.325	0.09	160650	keystroke_e	e	n/a
80.46	0.06	160920	keystroke_Key.space	Key.space	n/a
80.685	0.09	161370	keystroke_h	h	n/a
80.79	0.165	161580	keystroke_a	a	n/a
80.97	0.12	161940	keystroke_s	s	n/a
81.15	0.075	162300	keystroke_Key.space	Key.space	n/a
81.51	0.09	163020	keystroke_b	b	n/a
81.705	0.075	163410	keystroke_o	o	n/a
81.84	0.09	163680	keystroke_d	d	n/a
81.99	0.06	163980	keystroke_u	u	n/a
82.23	0.075	164460	keystroke_Key.space	Key.space	n/a
82.725	0.075	165450	keystroke_Key.backspace	Key.backspace	n/a
82.875	0.09	165750	keystroke_Key.backspace	Key.backspace	n/a
83.175	0.045	166350	keystroke_y	y	n/a
83.475	0.09	166950	keystroke_Key.space	Key.space	n/a
83.955	0.12	167910	keystroke_a	a	n/a
84.495	0.075	168990	keystroke_r	r	n/a
85.155	0.105	170310	keystroke_c	c	n/a
85.395	0.075	170790	keystroke_h	h	n/a
85.62	0.075	171240	keystroke_i	i	n/a
85.905	0.135	171810	keystroke_t	t	n/a
86.07	0.075	172140	keystroke_e	e	n/a
86.295	0.12	172590	keystroke_c	c	n/a
86.565	0.12	173130	keystroke_t	t	n/a
86.88	0.075	173760	keystroke_s	s	n/a
87.18	0.075	174360	keystroke_Key.enter	Key.enter	n/a
87.2665	10.446	174533	prompt	n/a	crossing rwanda paradise seeking\n
87.9755	0.06	175951	keystroke_c	c	n/a
88.4105	0.09	176821	keystroke_r	r	n/a
88.6955	0.09	177391	keystroke_o	o	n/a
88.9795	0.076	177959	keystroke_s	s	n/a
89.1305	0.075	178261	keystroke_s	s	n/a
89.2355	0.135	178471	keystroke_i	i	n/a
89.3555	0.09	178711	keystroke_n	n	n/a
89.4895	0.106	178979	keystroke_g	g	n/a
89.6995	0.061	179399	keystroke_Key.space	Key.space	n/a
90.0755	0.074	180151	keystroke_r	r	n/a
90.6755	0.09	181351	keystroke_w	w	n/a
91.5455	0.105	183091	keystroke_a	a	n/a
91.6945	0.091	183389	keystroke_n	n	n/a
92.5055	0.06	185011	keystroke_d	d	n/a
92.7755	0.105	185551	keystroke_a	a	n/a
92.9705	0.075	185941	keystroke_Key.space	Key.space	n/a
93.1955	0.09	186391	keystroke_p	p	n/a
93.4055	0.12	186811	keystroke_a	a	n/a
94.0955	0.075	188191	keystroke_r	r	n/a
94.2905	0.105	188581	keystroke_a	a	n/a
94.6055	0.09	189211	keystroke_d	d	n/a
94.7395	0.091	189479	keystroke_i	i	n/a
95.0855	0.15	190171	keystroke_s	s	n/a
95.2205	0.135	190441	keystroke_e	e	n/a
95.6245	0.076	191249	keystroke_Key.space	Key.space	n/a
96.0455	0.09	192091	keystroke_s	s	n/a
96.2855	0.045	192571	keystroke_e	e	n/a
96.3905	0.075	192781	keystroke_e	e	n/a
96.5105	0.105	193021	keystroke_k	k	n/a
96.6905	0.12	193381	keystroke_i	i	n/a
96.8105	0.105	193621	keystroke_n	n	n/a
96.9605	0.09	193921	keystroke_g	g	n/a
97.6355	0.075	195271	keystroke_Key.enter	Key.enter	n/a
97.7165	11.8455	195433	prompt	n/a	machines greatly adobe campaigns\n
98.5195	0.076	197039	keystroke_m	m	n/a
98.8205	0.105	197641	keystroke_a	a	n/a
98.9405	0.12	197881	keystroke_c	c	n/a
99.0455	0.105	198091	keystroke_h	h	n/a
99.1955	0.12	198391	keystroke_i	i	n/a
99.3455	0.09	198691	keystroke_n	n	n/a
99.9755	0.075	199951	keystroke_e	e	n/a
100.1855	0.075	200371	keystroke_s	s	n/a
100.3205	0.09	200641	keystroke_Key.space	Key.space	n/a
100.6205	0.09	201241	keystroke_g	g	n/a
100.8455	0.105	201691	keystroke_r	r	n/a
100.9655	0.12	201931	keystroke_e	e	n/a
101.1605	0.12	202321	keystroke_a	a	n/a
101.3555	0.105	202711	keystroke_t	t	n/a
101.5355	0.075	203071	keystroke_l	l	n/a
101.7305	0.105	203461	keystroke_y	y	n/a
101.9855	0.06	203971	keystroke_Key.space	Key.space	n/a
102.1805	0.105	204361	keystroke_a	a	n/a
102.3455	0.12	204691	keystroke_d	d	n/a
102.7205	0.09	205441	keystroke_b	b	n/a
103.6505	0.075	207301	keystroke_Key.backspace	Key.backspace	n/a
103.9805	0.09	207961	keystroke_o	o	n/a
104.2505	0.075	208501	keystroke_b	b	n/a
104.4605	0.105	208921	keystroke_e	e	n/a
104.8955	0.075	209791	keystroke_Key.space	Key.space	n/a
105.1655	0.105	210331	keystroke_c	c	n/a
105.6455	0.09	211291	keystroke_a	a	n/a
106.0655	0.075	212131	keystroke_m	m	n/a
106.3955	0.06	212791	keystroke_p	p	n/a
107.2205	0.105	214441	keystroke_a	a	n/a
107.7905	0.075	215581	keystroke_i	i	n/a
108.4055	0.105	216811	keystroke_g	g	n/a
108.5855	0.09	217171	keystroke_n	n	n/a
109.185	0.0905	218370	keystroke_s	s	n/a
109.4855	0.075	218971	keystroke_Key.enter	Key.enter	n/a
109.5665	16.4655	219133	prompt	n/a	having disputes partnership specification\n
110.3555	0.075	220711	keystroke_h	h	n/a
110.5355	0.195	221071	keystroke_a	a	n/a
110.79	0.15	221580	keystroke_v	v	n/a
111.6295	0.061	223259	keystroke_g	g	n/a
111.7195	0.151	223439	keystroke_i	i	n/a
111.8855	0.06	223771	keystroke_n	n	n/a
112.3945	0.045	224789	keystroke_Key.backspace	Key.backspace	n/a
112.5445	0.075	225089	keystroke_Key.backspace	Key.backspace	n/a
113.1295	0.075	226259	keystroke_Key.backspace	Key.backspace	n/a
113.5945	0.15	227189	keystroke_i	i	n/a
113.7295	0.106	227459	keystroke_n	n	n/a
113.9095	0.091	227819	keystroke_g	g	n/a
114.3595	0.075	228719	keystroke_Key.space	Key.space	n/a
114.8105	0.089	229621	keystroke_d	d	n/a
115.1545	0.075	230309	keystroke_i	i	n/a
115.6645	0.105	231329	keystroke_s	s	n/a
115.8605	0.104	231721	keystroke_p	p	n/a
116.1605	0.09	232321	keystroke_u	u	n/a
116.4145	0.121	232829	keystroke_t	t	n/a
116.5655	0.119	233131	keystroke_e	e	n/a
116.8505	0.075	233701	keystroke_s	s	n/a
116.9695	0.075	233939	keystroke_Key.space	Key.space	n/a
117.2105	0.105	234421	keystroke_p	p	n/a
117.3445	0.136	234689	keystroke_a	a	n/a
118.2155	0.074	236431	keystroke_r	r	n/a
118.4395	0.091	236879	keystroke_t	t	n/a
119.2355	0.074	238471	keystroke_n	n	n/a
119.3405	0.135	238681	keystroke_e	e	n/a
119.4155	0.105	238831	keystroke_r	r	n/a
119.6545	0.075	239309	keystroke_s	s	n/a
119.6695	0.121	239339	keystroke_h	h	n/a
119.8355	0.149	239671	keystroke_i	i	n/a
120.0005	0.104	240001	keystroke_p	p	n/a
120.2245	0.09	240449	keystroke_Key.space	Key.space	n/a
120.6155	0.075	241231	keystroke_s	s	n/a
120.7495	0.105	241499	keystroke_p	p	n/a
120.9295	0.106	241859	keystroke_e	e	n/a
121.4255	0.09	242851	keystroke_c	c	n/a
121.6495	0.091	243299	keystroke_i	i	n/a
122.4895	0.06	244979	keystroke_f	f	n/a
122.6705	0.074	245341	keystroke_i	i	n/a
123.0005	0.09	246001	keystroke_c	c	n/a
123.1655	0.15	246331	keystroke_a	a	n/a
123.3455	0.12	246691	keystroke_t	t	n/a
123.3605	0.194	246721	keystroke_i	i	n/a
123.4505	0.135	246901	keystroke_o	o	n/a
123.5405	0.12	247081	keystroke_n	n	n/a
123.7655	0.075	247531	keystroke_s	s	n/a
124.8745	0.09	249749	keystroke_Key.backspace	Key.backspace	n/a
125.9555	0.074	251911	keystroke_Key.enter	Key.enter	n/a
126.0365	8.2755	252073	prompt	n/a	muscles birthday basement context\n
126.75	0.075	253500	keystroke_m	m	n/a
126.9905	0.09	253981	keystroke_u	u	n/a
127.1405	0.12	254281	keystroke_s	s	n/a
127.2755	0.119	254551	keystroke_c	c	n/a
127.4695	0.091	254939	keystroke_l	l	n/a
127.5905	0.135	255181	keystroke_e	e	n/a
127.8455	0.089	255691	keystroke_s	s	n/a
127.9795	0.075	255959	keystroke_Key.space	Key.space	n/a
128.82	0.074	257640	keystroke_b	b	n/a
129.03	0.074	258060	keystroke_i	i	n/a
129.255	0.074	258510	keystroke_r	r	n/a
129.4355	0.0595	258871	keystroke_h	h	n/a
129.45	0.06	258900	keystroke_t	t	n/a
130.065	0.074	260130	keystroke_Key.backspace	Key.backspace	n/a
130.199	0.091	260398	keystroke_Key.backspace	Key.backspace	n/a
130.62	0.075	261240	keystroke_t	t	n/a
130.74	0.075	261480	keystroke_h	h	n/a
131.07	0.09	262140	keystroke_d	d	n/a
131.265	0.075	262530	keystroke_a	a	n/a
131.385	0.075	262770	keystroke_y	y	n/a
131.819	0.075	263638	keystroke_Key.space	Key.space	n/a
132.09	0.059	264180	keystroke_b	b	n/a
132.21	0.135	264420	keystroke_a	a	n/a
132.585	0.12	265170	keystroke_s	s	n/a
132.975	0.075	265950	keystroke_e	e	n/a
133.23	0.075	266460	keystroke_m	m	n/a
133.44	0.12	266880	keystroke_e	e	n/a
133.561	0.074	267122	keystroke_n	n	n/a
133.68	0.12	267360	keystroke_t	t	n/a
134.25	0.06	268500	keystroke_Key.enter	Key.enter	n/a
134.317	12.61	268634	prompt	n/a	broader lectures civil belong\n
137.328	0	274656	keystroke_b	b	n/a
137.475	0.09	274950	keystroke_r	r	n/a
137.925	0.105	275850	keystroke_a	a	n/a
138.36	0.09	276720	keystroke_o	o	n/a
138.81	0.045	277620	keystroke_Key.backspace	Key.backspace	n/a
138.945	0.075	277890	keystroke_Key.backspace	Key.backspace	n/a
139.29	0.09	278580	keystroke_o	o	n/a
139.575	0.135	279150	keystroke_a	a	n/a
139.845	0.105	279690	keystroke_d	d	n/a
140.25	0.135	280500	keystroke_e	e	n/a
140.34	0.105	280680	keystroke_r	r	n/a
140.67	0.075	281340	keystroke_Key.space	Key.space	n/a
140.97	0.09	281940	keystroke_l	l	n/a
141.135	0.12	282270	keystroke_e	e	n/a
141.36	0.12	282720	keystroke_c	c	n/a
141.63	0.09	283260	keystroke_t	t	n/a
141.735	0.075	283470	keystroke_u	u	n/a
141.9	0.09	283800	keystroke_r	r	n/a
142.665	0.015	285330	keystroke_e	e	n/a
142.83	0.09	285660	keystroke_s	s	n/a
142.98	0.075	285960	keystroke_Key.space	Key.space	n/a
143.16	0.105	286320	keystroke_c	c	n/a
143.31	0.09	286620	keystroke_i	i	n/a
143.61	0.075	287220	keystroke_v	v	n/a
143.745	0.09	287490	keystroke_i	i	n/a
144.135	0.075	288270	keystroke_l	l	n/a
144.405	0.06	288810	keystroke_Key.space	Key.space	n/a
145.32	0.075	290640	keystroke_b	b	n/a
145.605	0.09	291210	keystroke_e	e	n/a
145.77	0.09	291540	keystroke_l	l	n/a
145.95	0.135	291900	keystroke_o	o	n/a
146.055	0.12	292110	keystroke_n	n	n/a
146.22	0.09	292440	keystroke_g	g	n/a
146.865	0.06	293730	keystroke_Key.enter	Key.enter	n/a
146.931	10.166	293862	prompt	n/a	insider musical allows northwest\n
147.93	0.09	295860	keystroke_i	i	n/a
148.125	0.075	296250	keystroke_n	n	n/a
148.56	0.105	297120	keystroke_s	s	n/a
148.785	0.09	297570	keystroke_i	i	n/a
148.92	0.075	297840	keystroke_d	d	n/a
149.115	0.135	298230	keystroke_e	e	n/a
149.205	0.09	298410	keystroke_r	r	n/a
149.4	0.075	298800	keystroke_Key.space	Key.space	n/a
149.655	0.09	299310	keystroke_m	m	n/a
149.955	0.06	299910	keystroke_u	u	n/a
150.3	0.09	300600	keystroke_s	s	n/a
150.825	0.09	301650	keystroke_i	i	n/a
151.335	0.105	302670	keystroke_c	c	n/a
151.545	0.105	303090	keystroke_a	a	n/a
151.651	0.089	303302	keystroke_l	l	n/a
151.83	0.09	303660	keystroke_Key.space	Key.space	n/a
152.085	0.12	304170	keystroke_a	a	n/a
152.28	0.06	304560	keystroke_l	l	n/a
152.415	0.06	304830	keystroke_l	l	n/a
152.565	0.09	305130	keystroke_o	o	n/a
152.685	0.105	305370	keystroke_w	w	n/a
153.285	0.075	306570	keystroke_s	s	n/a
153.48	0.075	306960	keystroke_Key.space	Key.space	n/a
153.9	0.075	307800	keystroke_n	n	n/a
154.125	0.09	308250	keystroke_o	o	n/a
154.5	0.09	309000	keystroke_r	r	n/a
155.055	0.09	310110	keystroke_t	t	n/a
155.28	0.075	310560	keystroke_h	h	n/a
155.8195	0.12	311639	keystroke_w	w	n/a
155.9855	0.134	311971	keystroke_e	e	n/a
156.2255	0.119	312451	keystroke_s	s	n/a
156.3745	0.12	312749	keystroke_t	t	n/a
157.0345	0.06	314069	keystroke_Key.enter	Key.enter	n/a
157.1035	7.8385	314207	prompt	n/a	middle rail indiana dallas\n
157.7855	0.074	315571	keystroke_m	m	n/a
158.0095	0.075	316019	keystroke_i	i	n/a
158.2045	0.06	316409	keystroke_d	d	n/a
158.3395	0.075	316679	keystroke_d	d	n/a
158.4295	0.09	316859	keystroke_l	l	n/a
158.5645	0.09	317129	keystroke_e	e	n/a
158.6845	0.075	317369	keystroke_Key.space	Key.space	n/a
158.9545	0.12	317909	keystroke_r	r	n/a
159.1795	0.12	318359	keystroke_a	a	n/a
159.3445	0.06	318689	keystroke_i	i	n/a
159.5245	0.075	319049	keystroke_l	l	n/a
159.9595	0.045	319919	keystroke_Key.space	Key.space	n/a
160.5305	0.089	321061	keystroke_i	i	n/a
160.6795	0.091	321359	keystroke_n	n	n/a
161.0245	0.12	322049	keystroke_d	d	n/a
161.805	0.06	323610	keystroke_i	i	n/a
162.105	0.135	324210	keystroke_a	a	n/a
162.42	0.09	324840	keystroke_n	n	n/a
162.6	0.12	325200	keystroke_a	a	n/a
162.885	0.075	325770	keystroke_Key.space	Key.space	n/a
163.14	0.135	326280	keystroke_d	d	n/a
163.335	0.12	326670	keystroke_a	a	n/a
163.56	0.06	327120	keystroke_l	l	n/a
163.71	0.06	327420	keystroke_l	l	n/a
163.815	0.105	327630	keystroke_a	a	n/a
164.1	0.09	328200	keystroke_s	s	n/a
164.88	0.06	329760	keystroke_Key.enter	Key.enter	n/a
164.948	10.119	329896	prompt	n/a	barbados course delivered listing\n
165.66	0.075	331320	keystroke_b	b	n/a
165.915	0.12	331830	keystroke_a	a	n/a
166.155	0.076	332310	keystroke_r	r	n/a
166.365	0.075	332730	keystroke_b	b	n/a
166.515	0.135	333030	keystroke_a	a	n/a
166.71	0.12	333420	keystroke_d	d	n/a
166.875	0.105	333750	keystroke_o	o	n/a
167.04	0.09	334080	keystroke_s	s	n/a
167.505	0.06	335010	keystroke_Key.space	Key.space	n/a
168.15	0.06	336300	keystroke_c	c	n/a
168.39	0.12	336780	keystroke_o	o	n/a
168.495	0.09	336990	keystroke_u	u	n/a
168.87	0.09	337740	keystroke_r	r	n/a
169.125	0.09	338250	keystroke_s	s	n/a
169.62	0.075	339240	keystroke_e	e	n/a
169.83	0.075	339660	keystroke_Key.space	Key.space	n/a
170.115	0.09	340230	keystroke_d	d	n/a
170.64	0.075	341280	keystroke_e	e	n/a
170.835	0.09	341670	keystroke_l	l	n/a
171.5705	0.074	343141	keystroke_i	i	n/a
171.7945	0.105	343589	keystroke_v	v	n/a
172.0045	0.15	344009	keystroke_e	e	n/a
172.1095	0.18	344219	keystroke_r	r	n/a
172.2595	0.105	344519	keystroke_e	e	n/a
172.4705	0.105	344941	keystroke_d	d	n/a
172.8445	0.075	345689	keystroke_Key.space	Key.space	n/a
173.3695	0.06	346739	keystroke_l	l	n/a
173.5505	0.075	347101	keystroke_i	i	n/a
173.7305	0.149	347461	keystroke_s	s	n/a
173.9105	0.09	347821	keystroke_t	t	n/a
173.9855	0.15	347971	keystroke_i	i	n/a
174.1205	0.09	348241	keystroke_n	n	n/a
174.2555	0.089	348511	keystroke_g	g	n/a
174.9745	0.09	349949	keystroke_Key.enter	Key.enter	n/a
175.072	20.2595	350144	prompt	n/a	merry restrictions talk theft\n
175.7695	0.06	351539	keystroke_m	m	n/a
175.95	0.1195	351900	keystroke_e	e	n/a
176.2045	0.045	352409	keystroke_r	r	n/a
176.3245	0.06	352649	keystroke_r	r	n/a
176.3995	0.075	352799	keystroke_y	y	n/a
176.6245	0.09	353249	keystroke_Key.space	Key.space	n/a
176.8645	0.121	353729	keystroke_r	r	n/a
176.9545	0.105	353909	keystroke_e	e	n/a
177.4195	0.075	354839	keystroke_s	s	n/a
177.5995	0.075	355199	keystroke_t	t	n/a
177.7795	0.075	355559	keystroke_r	r	n/a
177.8995	0.105	355799	keystroke_i	i	n/a
178.0495	0.12	356099	keystroke_c	c	n/a
178.2595	0.21	356519	keystroke_i	i	n/a
178.2895	0.105	356579	keystroke_t	t	n/a
178.3955	0.149	356791	keystroke_o	o	n/a
178.5145	0.09	357029	keystroke_n	n	n/a
178.7695	0.09	357539	keystroke_s	s	n/a
179.3395	0.09	358679	keystroke_Key.space	Key.space	n/a
180.4945	0.06	360989	keystroke_Key.backspace	Key.backspace	n/a
180.6745	0.06	361349	keystroke_Key.backspace	Key.backspace	n/a
180.8395	0.06	361679	keystroke_Key.backspace	Key.backspace	n/a
181.0045	0.075	362009	keystroke_Key.backspace	Key.backspace	n/a
181.1995	0.045	362399	keystroke_Key.backspace	Key.backspace	n/a
182.4145	0.06	364829	keystroke_Key.backspace	Key.backspace	n/a
182.6695	0.075	365339	keystroke_t	t	n/a
182.8495	0.076	365699	keystroke_o	o	n/a
182.9105	0.104	365821	keystroke_i	i	n/a
182.9695	0.12	365939	keystroke_p	p	n/a
183.6895	0.075	367379	keystroke_Key.backspace	Key.backspace	n/a
184.6045	0.075	369209	keystroke_n	n	n/a
184.7095	0.12	369419	keystroke_s	s	n/a
184.8595	0.075	369719	keystroke_Key.space	Key.space	n/a
186.3295	0.09	372659	keystroke_Key.backspace	Key.backspace	n/a
186.5095	0.06	373019	keystroke_Key.backspace	Key.backspace	n/a
186.6895	0.06	373379	keystroke_Key.backspace	Key.backspace	n/a
186.8845	0.061	373769	keystroke_Key.backspace	Key.backspace	n/a
187.2295	0.075	374459	keystroke_Key.backspace	Key.backspace	n/a
187.4095	0.06	374819	keystroke_Key.backspace	Key.backspace	n/a
189.7235	0.056	379447	keystroke_t	t	n/a
189.8105	0.179	379621	keystroke_i	i	n/a
189.9305	0.149	379861	keystroke_o	o	n/a
190.0505	0.104	380101	keystroke_n	n	n/a
190.2595	0.076	380519	keystroke_s	s	n/a
190.4395	0.045	380879	keystroke_Key.space	Key.space	n/a
191.8955	0.12	383791	keystroke_t	t	n/a
192.1345	0.121	384269	keystroke_a	a	n/a
192.2705	0.135	384541	keystroke_l	l	n/a
192.3595	0.121	384719	keystroke_k	k	n/a
192.6145	0.09	385229	keystroke_Key.space	Key.space	n/a
193.1555	0.06	386311	keystroke_t	t	n/a
193.2445	0.076	386489	keystroke_h	h	n/a
193.4555	0.059	386911	keystroke_e	e	n/a
194.0695	0.091	388139	keystroke_f	f	n/a
194.4005	0.089	388801	keystroke_t	t	n/a
195.2545	0.075	390509	keystroke_Key.enter	Key.enter	n/a
195.337	10.406	390674	prompt	n/a	rooms undergraduate newsletter rays\n
196.2005	0.075	392401	keystroke_r	r	n/a
196.3795	0.06	392759	keystroke_o	o	n/a
196.5155	0.09	393031	keystroke_o	o	n/a
196.6645	0.091	393329	keystroke_m	m	n/a
196.9355	0.015	393871	keystroke_s	s	n/a
196.9645	0.075	393929	keystroke_Key.space	Key.space	n/a
197.3705	0.075	394741	keystroke_u	u	n/a
197.564	0.091	395128	keystroke_n	n	n/a
197.7595	0.076	395519	keystroke_d	d	n/a
197.9705	0.1345	395941	keystroke_e	e	n/a
198.06	0.105	396120	keystroke_r	r	n/a
198.5555	0.09	397111	keystroke_g	g	n/a
198.764	0.106	397528	keystroke_r	r	n/a
199.0055	0.0895	398011	keystroke_a	a	n/a
199.38	0.075	398760	keystroke_d	d	n/a
200.07	0.074	400140	keystroke_u	u	n/a
200.31	0.105	400620	keystroke_a	a	n/a
200.46	0.12	400920	keystroke_t	t	n/a
200.61	0.09	401220	keystroke_e	e	n/a
200.714	0.091	401428	keystroke_Key.space	Key.space	n/a
200.985	0.089	401970	keystroke_n	n	n/a
201.119	0.136	402238	keystroke_e	e	n/a
201.285	0.105	402570	keystroke_w	w	n/a
201.54	0.074	403080	keystroke_s	s	n/a
201.93	0.075	403860	keystroke_l	l	n/a
202.11	0.104	404220	keystroke_e	e	n/a
202.41	0.045	404820	keystroke_t	t	n/a
202.544	0.061	405088	keystroke_t	t	n/a
202.86	0.21	405720	keystroke_e	e	n/a
203.039	0.12	406078	keystroke_r	r	n/a
204.284	0.046	408568	keystroke_Key.space	Key.space	n/a
204.644	0.091	409288	keystroke_r	r	n/a
204.855	0.074	409710	keystroke_a	a	n/a
204.975	0.09	409950	keystroke_y	y	n/a
205.155	0.075	410310	keystroke_s	s	n/a
205.664	0.076	411328	keystroke_Key.enter	Key.enter	n/a
205.748	9.01	411496	prompt	n/a	bent browser error terminals\n
206.61	0.075	413220	keystroke_b	b	n/a
206.775	0.105	413550	keystroke_e	e	n/a
206.91	0.09	413820	keystroke_n	n	n/a
207.06	0.089	414120	keystroke_t	t	n/a
207.12	0.09	414240	keystroke_Key.space	Key.space	n/a
207.435	0.075	414870	keystroke_b	b	n/a
207.66	0.075	415320	keystroke_r	r	n/a
207.81	0.075	415620	keystroke_o	o	n/a
208.035	0.075	416070	keystroke_w	w	n/a
208.32	0.075	416640	keystroke_s	s	n/a
208.455	0.15	416910	keystroke_e	e	n/a
208.545	0.105	417090	keystroke_r	r	n/a
208.725	0.105	417450	keystroke_Key.space	Key.space	n/a
208.98	0.105	417960	keystroke_e	e	n/a
209.235	0.06	418470	keystroke_r	r	n/a
209.385	0.06	418770	keystroke_r	r	n/a
209.535	0.045	419070	keystroke_r	r	n/a
209.685	0.09	419370	keystroke_o	o	n/a
210.195	0.045	420390	keystroke_Key.backspace	Key.backspace	n/a
210.315	0.09	420630	keystroke_Key.backspace	Key.backspace	n/a
210.78	0.09	421560	keystroke_o	o	n/a
210.975	0.075	421950	keystroke_r	r	n/a
211.425	0.089	422850	keystroke_Key.space	Key.space	n/a
212.13	0.075	424260	keystroke_t	t	n/a
212.295	0.165	424590	keystroke_e	e	n/a
212.4	0.105	424800	keystroke_r	r	n/a
212.61	0.075	425220	keystroke_m	m	n/a
212.91	0.105	425820	keystroke_i	i	n/a
213.15	0.105	426300	keystroke_n	n	n/a
213.615	0.09	427230	keystroke_a	a	n/a
213.735	0.104	427470	keystroke_l	l	n/a
213.87	0.09	427740	keystroke_s	s	n/a
214.68	0.075	429360	keystroke_Key.enter	Key.enter	n/a
214.766	10.011	429532	prompt	n/a	yellow remember projected beverage\n
215.58	0.06	431160	keystroke_y	y	n/a
215.82	0.075	431640	keystroke_e	e	n/a
216.045	0.075	432090	keystroke_l	l	n/a
216.18	0.075	432360	keystroke_l	l	n/a
216.36	0.075	432720	keystroke_o	o	n/a
216.465	0.105	432930	keystroke_w	w	n/a
216.6	0.09	433200	keystroke_Key.space	Key.space	n/a
216.945	0.15	433890	keystroke_r	r	n/a
217.065	0.12	434130	keystroke_e	e	n/a
217.32	0.075	434640	keystroke_m	m	n/a
217.515	0.12	435030	keystroke_e	e	n/a
218.235	0.06	436470	keystroke_m	m	n/a
218.49	0.075	436980	keystroke_b	b	n/a
218.58	0.135	437160	keystroke_e	e	n/a
218.67	0.09	437340	keystroke_r	r	n/a
218.985	0.075	437970	keystroke_Key.space	Key.space	n/a
219.225	0.09	438450	keystroke_p	p	n/a
219.465	0.075	438930	keystroke_r	r	n/a
219.645	0.075	439290	keystroke_o	o	n/a
220.425	0.075	440850	keystroke_j	j	n/a
220.665	0.09	441330	keystroke_e	e	n/a
220.905	0.105	441810	keystroke_c	c	n/a
221.175	0.105	442350	keystroke_t	t	n/a
221.355	0.06	442710	keystroke_e	e	n/a
221.535	0.105	443070	keystroke_d	d	n/a
221.6695	0.075	443339	keystroke_Key.space	Key.space	n/a
221.9395	0.075	443879	keystroke_b	b	n/a
222.5545	0.0755	445109	keystroke_e	e	n/a
222.84	0.09	445680	keystroke_v	v	n/a
223.02	0.165	446040	keystroke_e	e	n/a
223.125	0.105	446250	keystroke_r	r	n/a
223.47	0.105	446940	keystroke_a	a	n/a
223.605	0.1195	447210	keystroke_g	g	n/a
223.7545	0.12	447509	keystroke_e	e	n/a
224.6995	0.075	449399	keystroke_Key.enter	Key.enter	n/a
224.7825	13.749	449565	prompt	n/a	dept loans landscape practitioner\n
225.5245	0.075	451049	keystroke_d	d	n/a
225.7045	0.09	451409	keystroke_e	e	n/a
225.9895	0.075	451979	keystroke_p	p	n/a
226.1395	0.105	452279	keystroke_t	t	n/a
226.2595	0.075	452519	keystroke_Key.space	Key.space	n/a
226.4695	0.06	452939	keystroke_l	l	n/a
226.6345	0.09	453269	keystroke_o	o	n/a
226.7845	0.15	453569	keystroke_a	a	n/a
226.9495	0.105	453899	keystroke_d	d	n/a
228.8695	0.06	457739	keystroke_Key.backspace	Key.backspace	n/a
229.1545	0.09	458309	keystroke_n	n	n/a
229.6195	0.06	459239	keystroke_s	s	n/a
229.8445	0.075	459689	keystroke_Key.space	Key.space	n/a
230.2645	0.09	460529	keystroke_l	l	n/a
230.3995	0.15	460799	keystroke_a	a	n/a
230.5195	0.09	461039	keystroke_n	n	n/a
230.6695	0.105	461339	keystroke_d	d	n/a
230.9395	0.075	461879	keystroke_s	s	n/a
231.104	0.135	462208	keystroke_c	c	n/a
231.3445	0.12	462689	keystroke_a	a	n/a
231.5245	0.105	463049	keystroke_p	p	n/a
231.7045	0.105	463409	keystroke_e	e	n/a
231.9295	0.075	463859	keystroke_Key.space	Key.space	n/a
232.4545	0.105	464909	keystroke_p	p	n/a
232.5745	0.12	465149	keystroke_r	r	n/a
232.6345	0.105	465269	keystroke_e	e	n/a
233.0395	0.105	466079	keystroke_c	c	n/a
233.7595	0.06	467519	keystroke_Key.backspace	Key.backspace	n/a
233.9095	0.09	467819	keystroke_Key.backspace	Key.backspace	n/a
234.0455	0.164	468091	keystroke_a	a	n/a
234.4795	0.135	468959	keystroke_c	c	n/a
234.7945	0.09	469589	keystroke_t	t	n/a
234.9445	0.09	469889	keystroke_i	i	n/a
235.2145	0.09	470429	keystroke_i	i	n/a
235.7545	0.075	471509	keystroke_Key.backspace	Key.backspace	n/a
235.9495	0.09	471899	keystroke_t	t	n/a
236.0245	0.03	472049	keystroke_o	o	n/a
236.0555	0.104	472111	keystroke_i	i	n/a
236.1295	0.12	472259	keystroke_o	o	n/a
236.2045	0.105	472409	keystroke_n	n	n/a
237.0295	0.105	474059	keystroke_a	a	n/a
237.4495	0.06	474899	keystroke_Key.backspace	Key.backspace	n/a
237.5395	0.15	475079	keystroke_e	e	n/a
237.6145	0.12	475229	keystroke_r	r	n/a
238.4545	0.075	476909	keystroke_Key.enter	Key.enter	n/a
238.537	9.489	477074	prompt	n/a	enrollment conditioning revenge serbia\n
239.2645	0.09	478529	keystroke_e	e	n/a
239.9245	0.075	479849	keystroke_n	n	n/a
240.2095	0.09	480419	keystroke_r	r	n/a
240.3895	0.09	480779	keystroke_o	o	n/a
240.6145	0.06	481229	keystroke_l	l	n/a
240.7495	0.075	481499	keystroke_l	l	n/a
240.8995	0.105	481799	keystroke_m	m	n/a
241.0495	0.105	482099	keystroke_e	e	n/a
241.1845	0.075	482369	keystroke_n	n	n/a
241.3195	0.075	482639	keystroke_t	t	n/a
241.4095	0.09	482819	keystroke_Key.space	Key.space	n/a
241.6495	0.09	483299	keystroke_c	c	n/a
241.7845	0.105	483569	keystroke_o	o	n/a
241.8595	0.1055	483719	keystroke_n	n	n/a
242.0845	0.075	484169	keystroke_d	d	n/a
242.2195	0.075	484439	keystroke_i	i	n/a
242.4445	0.075	484889	keystroke_t	t	n/a
242.4745	0.15	484949	keystroke_i	i	n/a
242.6095	0.12	485219	keystroke_o	o	n/a
242.6695	0.105	485339	keystroke_n	n	n/a
243.1945	0.09	486389	keystroke_i	i	n/a
243.3145	0.09	486629	keystroke_n	n	n/a
243.4345	0.09	486869	keystroke_g	g	n/a
244.0945	0.075	488189	keystroke_Key.space	Key.space	n/a
244.3795	0.12	488759	keystroke_r	r	n/a
244.4545	0.105	488909	keystroke_e	e	n/a
244.6795	0.105	489359	keystroke_v	v	n/a
244.8595	0.09	489719	keystroke_e	e	n/a
244.9945	0.09	489989	keystroke_n	n	n/a
245.2795	0.075	490559	keystroke_g	g	n/a
245.4145	0.09	490829	keystroke_e	e	n/a
245.7445	0.075	491489	keystroke_Key.space	Key.space	n/a
246.4495	0.12	492899	keystroke_s	s	n/a
246.5395	0.195	493079	keystroke_e	e	n/a
246.6745	0.12	493349	keystroke_r	r	n/a
247.0195	0.075	494039	keystroke_b	b	n/a
247.4995	0.075	494999	keystroke_i	i	n/a
247.7245	0.105	495449	keystroke_a	a	n/a
247.9645	0.06	495929	keystroke_Key.enter	Key.enter	n/a
248.031	12.116	496062	prompt	n/a	luis physicians required mobility\n
249.0295	0.075	498059	keystroke_l	l	n/a
249.779	0.06	499558	keystroke_u	u	n/a
249.914	0.106	499828	keystroke_i	i	n/a
250.4245	0.075	500849	keystroke_s	s	n/a
250.5445	0.075	501089	keystroke_Key.space	Key.space	n/a
250.83	0.09	501660	keystroke_p	p	n/a
252.1945	0.075	504389	keystroke_h	h	n/a
252.6295	0.045	505259	keystroke_y	y	n/a
253.1395	0.09	506279	keystroke_s	s	n/a
253.3045	0.09	506609	keystroke_i	i	n/a
253.4245	0.12	506849	keystroke_c	c	n/a
253.5595	0.18	507119	keystroke_i	i	n/a
254.3545	0.12	508709	keystroke_a	a	n/a
254.4895	0.06	508979	keystroke_n	n	n/a
254.6845	0.09	509369	keystroke_s	s	n/a
254.9995	0.089	509999	keystroke_Key.space	Key.space	n/a
255.2395	0.12	510479	keystroke_r	r	n/a
255.3145	0.09	510629	keystroke_e	e	n/a
255.7645	0.09	511529	keystroke_q	q	n/a
255.9445	0.075	511889	keystroke_u	u	n/a
256.3495	0.09	512699	keystroke_i	i	n/a
256.4995	0.105	512999	keystroke_r	r	n/a
256.7545	0.075	513509	keystroke_d	d	n/a
257.1885	0.075	514377	keystroke_Key.backspace	Key.backspace	n/a
257.3845	0.06	514769	keystroke_e	e	n/a
257.5645	0.09	515129	keystroke_d	d	n/a
257.6695	0.075	515339	keystroke_Key.space	Key.space	n/a
257.8945	0.075	515789	keystroke_m	m	n/a
258.1345	0.075	516269	keystroke_o	o	n/a
258.3745	0.105	516749	keystroke_b	b	n/a
258.5545	0.075	517109	keystroke_i	i	n/a
258.7645	0.135	517529	keystroke_l	l	n/a
258.9145	0.06	517829	keystroke_i	i	n/a
259.5445	0.045	519089	keystroke_t	t	n/a
259.6945	0.045	519389	keystroke_y	y	n/a
260.0995	0.045	520199	keystroke_Key.enter	Key.enter	n/a
260.152	9.789	520304	prompt	n/a	sale analyzes meetings coral\n
261.1495	0.105	522299	keystroke_s	s	n/a
261.3445	0.15	522689	keystroke_a	a	n/a
261.5095	0.06	523019	keystroke_l	l	n/a
261.6745	0.105	523349	keystroke_e	e	n/a
261.8845	0.06	523769	keystroke_Key.space	Key.space	n/a
262.1545	0.12	524309	keystroke_a	a	n/a
262.3045	0.075	524609	keystroke_n	n	n/a
262.6345	0.03	525269	keystroke_y	y	n/a
263.4295	0.09	526859	keystroke_Key.backspace	Key.backspace	n/a
263.5795	0.12	527159	keystroke_a	a	n/a
263.7445	0.135	527489	keystroke_l	l	n/a
264.5995	0.075	529199	keystroke_y	y	n/a
264.8545	0.105	529709	keystroke_z	z	n/a
265.2145	0.105	530429	keystroke_e	e	n/a
265.5745	0.09	531149	keystroke_s	s	n/a
265.739	0.09	531478	keystroke_Key.space	Key.space	n/a
266.039	0.0755	532078	keystroke_m	m	n/a
266.2645	0.03	532529	keystroke_e	e	n/a
266.4145	0.045	532829	keystroke_e	e	n/a
266.9695	0.09	533939	keystroke_t	t	n/a
267.1945	0.135	534389	keystroke_i	i	n/a
267.2845	0.12	534569	keystroke_n	n	n/a
267.4345	0.105	534869	keystroke_g	g	n/a
268.019	0.075	536038	keystroke_s	s	n/a
268.1995	0.075	536399	keystroke_Key.space	Key.space	n/a
268.6345	0.09	537269	keystroke_c	c	n/a
268.8145	0.09	537629	keystroke_o	o	n/a
269.0395	0.105	538079	keystroke_r	r	n/a
269.2945	0.09	538589	keystroke_a	a	n/a
269.5045	0.075	539009	keystroke_l	l	n/a
269.8645	0.075	539729	keystroke_Key.enter	Key.enter	n/a
269.9455	14.8305	539891	prompt	n/a	publications going manufacture daisy\n
270.6745	0.075	541349	keystroke_p	p	n/a
271.0345	0.075	542069	keystroke_u	u	n/a
271.2745	0.075	542549	keystroke_b	b	n/a
271.4695	0.075	542939	keystroke_l	l	n/a
271.6045	0.09	543209	keystroke_i	i	n/a
271.7845	0.1345	543569	keystroke_c	c	n/a
272.1145	0.1645	544229	keystroke_a	a	n/a
272.459	0.105	544918	keystroke_t	t	n/a
272.594	0.045	545188	keystroke_o	o	n/a
272.624	0.135	545248	keystroke_i	i	n/a
272.729	0.1055	545458	keystroke_o	o	n/a
272.7895	0.1045	545579	keystroke_n	n	n/a
273.434	0.075	546868	keystroke_Key.backspace	Key.backspace	n/a
273.599	0.06	547198	keystroke_Key.backspace	Key.backspace	n/a
273.749	0.075	547498	keystroke_Key.backspace	Key.backspace	n/a
274.274	0.075	548548	keystroke_Key.backspace	Key.backspace	n/a
274.784	0.18	549568	keystroke_i	i	n/a
274.994	0.105	549988	keystroke_o	o	n/a
275.039	0.12	550078	keystroke_n	n	n/a
275.294	0.09	550588	keystroke_s	s	n/a
275.429	0.06	550858	keystroke_Key.space	Key.space	n/a
276.329	0.075	552658	keystroke_g	g	n/a
276.464	0.135	552928	keystroke_o	o	n/a
276.509	0.165	553018	keystroke_i	i	n/a
276.659	0.09	553318	keystroke_n	n	n/a
276.809	0.075	553618	keystroke_g	g	n/a
277.019	0.075	554038	keystroke_Key.space	Key.space	n/a
277.559	0.075	555118	keystroke_m	m	n/a
277.739	0.12	555478	keystroke_a	a	n/a
277.844	0.09	555688	keystroke_n	n	n/a
278.249	0.075	556498	keystroke_u	u	n/a
278.654	0.075	557308	keystroke_f	f	n/a
278.864	0.105	557728	keystroke_a	a	n/a
278.939	0.135	557878	keystroke_c	c	n/a
279.674	0.075	559348	keystroke_t	t	n/a
279.944	0.06	559888	keystroke_u	u	n/a
280.064	0.12	560128	keystroke_r	r	n/a
280.139	0.105	560278	keystroke_e	e	n/a
281.489	0.06	562978	keystroke_Key.space	Key.space	n/a
281.894	0.075	563788	keystroke_s	s	n/a
282.104	0.075	564208	keystroke_i	i	n/a
282.674	0.06	565348	keystroke_Key.backspace	Key.backspace	n/a
282.809	0.075	565618	keystroke_Key.backspace	Key.backspace	n/a
282.959	0.15	565918	keystroke_d	d	n/a
283.169	0.12	566338	keystroke_a	a	n/a
283.364	0.075	566728	keystroke_i	i	n/a
283.769	0.105	567538	keystroke_s	s	n/a
283.979	0.075	567958	keystroke_y	y	n/a
284.714	0.06	569428	keystroke_Key.enter	Key.enter	n/a
284.7805	10.226	569561	prompt	n/a	engineering reception open monitors\n
285.839	0.075	571678	keystroke_e	e	n/a
285.989	0.075	571978	keystroke_n	n	n/a
286.814	0.06	573628	keystroke_g	g	n/a
286.949	0.105	573898	keystroke_i	i	n/a
287.144	0.105	574288	keystroke_n	n	n/a
287.609	0.06	575218	keystroke_e	e	n/a
287.744	0.075	575488	keystroke_e	e	n/a
287.909	0.09	575818	keystroke_r	r	n/a
287.984	0.12	575968	keystroke_i	i	n/a
288.074	0.09	576148	keystroke_n	n	n/a
288.224	0.075	576448	keystroke_g	g	n/a
288.329	0.09	576658	keystroke_Key.space	Key.space	n/a
288.974	0.12	577948	keystroke_r	r	n/a
289.064	0.09	578128	keystroke_e	e	n/a
289.484	0.09	578968	keystroke_c	c	n/a
289.739	0.075	579478	keystroke_e	e	n/a
289.904	0.09	579808	keystroke_p	p	n/a
290.084	0.105	580168	keystroke_t	t	n/a
290.174	0.165	580348	keystroke_i	i	n/a
290.354	0.045	580708	keystroke_o	o	n/a
290.369	0.09	580738	keystroke_n	n	n/a
291.0295	0.075	582059	keystroke_Key.space	Key.space	n/a
291.3445	0.09	582689	keystroke_o	o	n/a
291.5395	0.09	583079	keystroke_p	p	n/a
291.6745	0.09	583349	keystroke_e	e	n/a
291.7945	0.09	583589	keystroke_n	n	n/a
292.0495	0.075	584099	keystroke_Key.space	Key.space	n/a
292.2895	0.075	584579	keystroke_m	m	n/a
292.4995	0.12	584999	keystroke_o	o	n/a
292.7095	0.075	585419	keystroke_n	n	n/a
292.9045	0.075	585809	keystroke_i	i	n/a
293.3545	0.09	586709	keystroke_t	t	n/a
293.5645	0.09	587129	keystroke_o	o	n/a
293.7145	0.105	587429	keystroke_r	r	n/a
294.0595	0.075	588119	keystroke_s	s	n/a
294.9295	0.075	589859	keystroke_Key.enter	Key.enter	n/a
295.0125	13.029	590025	prompt	n/a	underlying asking exclusion glasses\n
295.8145	0.09	591629	keystroke_u	u	n/a
296.0395	0.075	592079	keystroke_n	n	n/a
296.3845	0.09	592769	keystroke_d	d	n/a
296.5945	0.135	593189	keystroke_e	e	n/a
296.6545	0.12	593309	keystroke_r	r	n/a
296.9095	0.075	593819	keystroke_l	l	n/a
297.1195	0.06	594239	keystroke_y	y	n/a
297.3745	0.09	594749	keystroke_s	s	n/a
297.4195	0.135	594839	keystroke_i	i	n/a
297.5245	0.105	595049	keystroke_n	n	n/a
297.9895	0.03	595979	keystroke_Key.backspace	Key.backspace	n/a
298.1395	0.06	596279	keystroke_Key.backspace	Key.backspace	n/a
298.2895	0.06	596579	keystroke_Key.backspace	Key.backspace	n/a
298.8595	0.105	597719	keystroke_i	i	n/a
298.9795	0.075	597959	keystroke_n	n	n/a
299.1145	0.105	598229	keystroke_g	g	n/a
299.3395	0.075	598679	keystroke_Key.space	Key.space	n/a
299.6095	0.09	599219	keystroke_s	s	n/a
299.7595	0.09	599519	keystroke_k	k	n/a
299.9395	0.105	599879	keystroke_i	i	n/a
300.0745	0.105	600149	keystroke_n	n	n/a
300.2095	0.075	600419	keystroke_g	g	n/a
301.3945	0.075	602789	keystroke_Key.backspace	Key.backspace	n/a
301.5745	0.075	603149	keystroke_Key.backspace	Key.backspace	n/a
301.7245	0.075	603449	keystroke_Key.backspace	Key.backspace	n/a
301.9045	0.075	603809	keystroke_Key.backspace	Key.backspace	n/a
302.0845	0.09	604169	keystroke_Key.backspace	Key.backspace	n/a
302.4295	0.12	604859	keystroke_a	a	n/a
302.7445	0.09	605489	keystroke_s	s	n/a
302.8795	0.075	605759	keystroke_k	k	n/a
303.0445	0.09	606089	keystroke_i	i	n/a
303.1795	0.09	606359	keystroke_n	n	n/a
303.2995	0.105	606599	keystroke_g	g	n/a
303.4495	0.09	606899	keystroke_Key.space	Key.space	n/a
303.7795	0.075	607559	keystroke_e	e	n/a
304.0645	0.105	608129	keystroke_x	x	n/a
304.7245	0.105	609449	keystroke_c	c	n/a
305.2495	0.075	610499	keystroke_l	l	n/a
305.4295	0.09	610859	keystroke_u	u	n/a
305.6995	0.09	611399	keystroke_s	s	n/a
305.7595	0.165	611519	keystroke_i	i	n/a
305.8645	0.135	611729	keystroke_o	o	n/a
305.9545	0.09	611909	keystroke_n	n	n/a
306.1645	0.075	612329	keystroke_Key.space	Key.space	n/a
306.5395	0.075	613079	keystroke_g	g	n/a
306.7945	0.105	613589	keystroke_l	l	n/a
307.0195	0.105	614039	keystroke_a	a	n/a
307.2595	0.075	614519	keystroke_s	s	n/a
307.3945	0.09	614789	keystroke_s	s	n/a
307.5595	0.105	615119	keystroke_e	e	n/a
307.7395	0.105	615479	keystroke_s	s	n/a
307.9795	0.06	615959	keystroke_Key.enter	Key.enter	n/a
308.046	11.876	616092	prompt	n/a	offer disciplinary print buffalo\n
308.9845	0.075	617969	keystroke_o	o	n/a
309.1645	0.06	618329	keystroke_f	f	n/a
309.3145	0.06	618629	keystroke_f	f	n/a
309.4645	0.15	618929	keystroke_e	e	n/a
309.5545	0.09	619109	keystroke_r	r	n/a
309.6745	0.09	619349	keystroke_Key.space	Key.space	n/a
310.1995	0.09	620399	keystroke_d	d	n/a
310.4395	0.09	620879	keystroke_i	i	n/a
310.7845	0.135	621569	keystroke_s	s	n/a
310.9945	0.15	621989	keystroke_c	c	n/a
311.6845	0.075	623369	keystroke_i	i	n/a
312.5545	0.075	625109	keystroke_p	p	n/a
312.7655	0.074	625531	keystroke_l	l	n/a
312.9595	0.105	625919	keystroke_i	i	n/a
313.2145	0.075	626429	keystroke_n	n	n/a
313.4095	0.15	626819	keystroke_a	a	n/a
313.5895	0.12	627179	keystroke_r	r	n/a
313.7255	0.089	627451	keystroke_y	y	n/a
314.0245	0.075	628049	keystroke_Key.space	Key.space	n/a
314.3095	0.09	628619	keystroke_p	p	n/a
314.5345	0.075	629069	keystroke_r	r	n/a
314.6245	0.135	629249	keystroke_i	i	n/a
314.7745	0.09	629549	keystroke_n	n	n/a
315.0745	0.09	630149	keystroke_t	t	n/a
315.2845	0.09	630569	keystroke_Key.space	Key.space	n/a
316.2895	0.076	632579	keystroke_Key.space	Key.space	n/a
316.9945	0.09	633989	keystroke_Key.backspace	Key.backspace	n/a
317.4595	0.09	634919	keystroke_b	b	n/a
317.7445	0.075	635489	keystroke_u	u	n/a
318.2995	0.045	636599	keystroke_f	f	n/a
318.4045	0.09	636809	keystroke_f	f	n/a
318.7045	0.09	637409	keystroke_a	a	n/a
318.8995	0.09	637799	keystroke_l	l	n/a
319.0945	0.09	638189	keystroke_o	o	n/a
319.8445	0.075	639689	keystroke_Key.enter	Key.enter	n/a
319.927	16.375	639854	prompt	n/a	internationally surprising fill verified\n
320.6245	0.09	641249	keystroke_i	i	n/a
320.7745	0.105	641549	keystroke_n	n	n/a
320.9995	0.075	641999	keystroke_t	t	n/a
321.1945	0.135	642389	keystroke_e	e	n/a
321.2845	0.09	642569	keystroke_r	r	n/a
321.5545	0.06	643109	keystroke_n	n	n/a
321.7195	0.1045	643439	keystroke_a	a	n/a
321.839	0.195	643678	keystroke_i	i	n/a
321.989	0.1365	643978	keystroke_o	o	n/a
322.064	0.135	644128	keystroke_n	n	n/a
322.8295	0.075	645659	keystroke_Key.backspace	Key.backspace	n/a
323.0545	0.015	646109	keystroke_Key.backspace	Key.backspace	n/a
323.1295	0.03	646259	keystroke_Key.backspace	Key.backspace	n/a
323.5945	0.075	647189	keystroke_t	t	n/a
323.7145	0.1645	647429	keystroke_i	i	n/a
323.864	0.09	647728	keystroke_o	o	n/a
323.909	0.106	647818	keystroke_n	n	n/a
324.164	0.12	648328	keystroke_a	a	n/a
324.449	0.075	648898	keystroke_l	l	n/a
324.5845	0.09	649169	keystroke_l	l	n/a
324.7945	0.075	649589	keystroke_y	y	n/a
325.034	0.0905	650068	keystroke_Key.space	Key.space	n/a
325.2745	0.075	650549	keystroke_s	s	n/a
325.4245	0.105	650849	keystroke_u	u	n/a
326.054	0.075	652108	keystroke_p	p	n/a
326.5345	0.075	653069	keystroke_r	r	n/a
326.684	0.105	653368	keystroke_i	i	n/a
326.909	0.106	653818	keystroke_s	s	n/a
326.999	0.105	653998	keystroke_i	i	n/a
327.1345	0.105	654269	keystroke_n	n	n/a
327.285	0.075	654570	keystroke_g	g	n/a
327.435	0.09	654870	keystroke_Key.space	Key.space	n/a
327.75	0.0745	655500	keystroke_f	f	n/a
328.44	0.075	656880	keystroke_Key.backspace	Key.backspace	n/a
328.62	0.075	657240	keystroke_Key.backspace	Key.backspace	n/a
328.8	0.06	657600	keystroke_Key.backspace	Key.backspace	n/a
328.98	0.06	657960	keystroke_Key.backspace	Key.backspace	n/a
329.385	0.045	658770	keystroke_Key.backspace	Key.backspace	n/a
329.535	0.075	659070	keystroke_Key.backspace	Key.backspace	n/a
329.8345	0.075	659669	keystroke_Key.backspace	Key.backspace	n/a
330.0595	0.075	660119	keystroke_Key.backspace	Key.backspace	n/a
330.4195	0.06	660839	keystroke_Key.backspace	Key.backspace	n/a
330.7645	0.06	661529	keystroke_r	r	n/a
331.1245	0.0755	662249	keystroke_p	p	n/a
331.3195	0.075	662639	keystroke_r	r	n/a
331.4545	0.09	662909	keystroke_i	i	n/a
331.6795	0.09	663359	keystroke_s	s	n/a
331.7845	0.12	663569	keystroke_i	i	n/a
331.8895	0.09	663779	keystroke_n	n	n/a
332.0095	0.075	664019	keystroke_g	g	n/a
332.1595	0.075	664319	keystroke_Key.space	Key.space	n/a
332.8645	0.075	665729	keystroke_f	f	n/a
332.9995	0.09	665999	keystroke_i	i	n/a
333.2545	0.06	666509	keystroke_l	l	n/a
333.3895	0.0605	666779	keystroke_l	l	n/a
333.5095	0.1205	667019	keystroke_Key.space	Key.space	n/a
333.7345	0.09	667469	keystroke_v	v	n/a
333.9445	0.15	667889	keystroke_e	e	n/a
334.0345	0.105	668069	keystroke_r	r	n/a
334.545	0.075	669090	keystroke_i	i	n/a
335.025	0.075	670050	keystroke_f	f	n/a
335.16	0.105	670320	keystroke_i	i	n/a
335.295	0.09	670590	keystroke_e	e	n/a
335.505	0.105	671010	keystroke_d	d	n/a
336.225	0.075	672450	keystroke_Key.enter	Key.enter	n/a
336.307	9.625	672614	prompt	n/a	gifts sandy bingo turtle\n
337.275	0.075	674550	keystroke_g	g	n/a
337.5	0.075	675000	keystroke_i	i	n/a
337.845	0.075	675690	keystroke_f	f	n/a
338.0695	0.09	676139	keystroke_t	t	n/a
338.3395	0.09	676679	keystroke_s	s	n/a
338.49	0.075	676980	keystroke_Key.space	Key.space	n/a
338.8945	0.09	677789	keystroke_s	s	n/a
339.0595	0.0905	678119	keystroke_a	a	n/a
339.1795	0.09	678359	keystroke_n	n	n/a
339.3595	0.105	678719	keystroke_d	d	n/a
339.5695	0.06	679139	keystroke_y	y	n/a
339.7945	0.09	679589	keystroke_Key.space	Key.space	n/a
340.0645	0.105	680129	keystroke_b	b	n/a
340.2895	0.09	680579	keystroke_i	i	n/a
340.4845	0.09	680969	keystroke_g	g	n/a
340.6045	0.09	681209	keystroke_n	n	n/a
340.9195	0.06	681839	keystroke_o	o	n/a
341.5945	0.045	683189	keystroke_Key.backspace	Key.backspace	n/a
341.7445	0.06	683489	keystroke_Key.backspace	Key.backspace	n/a
341.9095	0.075	683819	keystroke_Key.backspace	Key.backspace	n/a
342.2845	0.075	684569	keystroke_n	n	n/a
342.5095	0.075	685019	keystroke_g	g	n/a
342.6745	0.075	685349	keystroke_o	o	n/a
342.8845	0.075	685769	keystroke_Key.space	Key.space	n/a
343.6945	0.09	687389	keystroke_t	t	n/a
343.8745	0.075	687749	keystroke_u	u	n/a
344.0545	0.09	688109	keystroke_r	r	n/a
344.5945	0.075	689189	keystroke_t	t	n/a
344.7895	0.09	689579	keystroke_l	l	n/a
344.9245	0.075	689849	keystroke_e	e	n/a
345.8695	0.06	691739	keystroke_Key.enter	Key.enter	n/a
345.941	7.2365	691882	prompt	n/a	system promo rear bradley\n
346.6795	0.105	693359	keystroke_s	s	n/a
346.8595	0.075	693719	keystroke_y	y	n/a
347.0695	0.105	694139	keystroke_s	s	n/a
347.1895	0.165	694379	keystroke_t	t	n/a
347.3395	0.12	694679	keystroke_e	e	n/a
347.4895	0.09	694979	keystroke_m	m	n/a
347.6845	0.09	695369	keystroke_Key.space	Key.space	n/a
347.9545	0.09	695909	keystroke_p	p	n/a
348.1345	0.06	696269	keystroke_r	r	n/a
348.2545	0.09	696509	keystroke_o	o	n/a
348.4495	0.09	696899	keystroke_m	m	n/a
348.6145	0.105	697229	keystroke_o	o	n/a
348.7795	0.105	697559	keystroke_Key.space	Key.space	n/a
349.0195	0.135	698039	keystroke_r	r	n/a
349.0945	0.12	698189	keystroke_e	e	n/a
349.6195	0.09	699239	keystroke_a	a	n/a
350.0095	0.12	700019	keystroke_r	r	n/a
350.3695	0.075	700739	keystroke_Key.space	Key.space	n/a
350.6995	0.105	701399	keystroke_b	b	n/a
351.0445	0.09	702089	keystroke_r	r	n/a
351.2695	0.12	702539	keystroke_a	a	n/a
351.4645	0.12	702929	keystroke_d	d	n/a
351.6295	0.105	703259	keystroke_l	l	n/a
351.9595	0.105	703919	keystroke_e	e	n/a
352.0795	0.075	704159	keystroke_y	y	n/a
353.0995	0.075	706199	keystroke_Key.enter	Key.enter	n/a
353.1835	15.293	706367	prompt	n/a	supporting operates nomination doom\n
353.8345	0.075	707669	keystroke_s	s	n/a
354.2095	0.06	708419	keystroke_p	p	n/a
354.6595	0.09	709319	keystroke_Key.backspace	Key.backspace	n/a
354.9445	0.075	709889	keystroke_u	u	n/a
355.2895	0.045	710579	keystroke_p	p	n/a
355.4245	0.075	710849	keystroke_p	p	n/a
355.6795	0.09	711359	keystroke_o	o	n/a
355.8595	0.075	711719	keystroke_r	r	n/a
356.0545	0.09	712109	keystroke_t	t	n/a
356.0845	0.18	712169	keystroke_i	i	n/a
356.2495	0.12	712499	keystroke_n	n	n/a
356.4145	0.105	712829	keystroke_g	g	n/a
358.154	0.075	716308	keystroke_Key.space	Key.space	n/a
358.574	0.106	717148	keystroke_o	o	n/a
359.04	0.075	718080	keystroke_p	p	n/a
359.265	0.105	718530	keystroke_e	e	n/a
359.295	0.18	718590	keystroke_r	r	n/a
360.074	0.136	720148	keystroke_a	a	n/a
360.255	0.105	720510	keystroke_t	t	n/a
360.404	0.121	720808	keystroke_e	e	n/a
360.645	0.09	721290	keystroke_s	s	n/a
360.765	0.075	721530	keystroke_Key.space	Key.space	n/a
361.11	0.105	722220	keystroke_n	n	n/a
361.905	0.09	723810	keystroke_o	o	n/a
362.115	0.075	724230	keystroke_m	m	n/a
362.294	0.091	724588	keystroke_i	i	n/a
362.61	0.12	725220	keystroke_a	a	n/a
362.76	0.15	725520	keystroke_t	t	n/a
362.835	0.165	725670	keystroke_i	i	n/a
362.94	0.12	725880	keystroke_o	o	n/a
363.029	0.091	726058	keystroke_n	n	n/a
363.615	0.089	727230	keystroke_Key.space	Key.space	n/a
363.855	0.105	727710	keystroke_d	d	n/a
364.425	0.074	728850	keystroke_Key.backspace	Key.backspace	n/a
364.604	0.09	729208	keystroke_Key.backspace	Key.backspace	n/a
364.77	0.089	729540	keystroke_Key.backspace	Key.backspace	n/a
364.965	0.06	729930	keystroke_Key.backspace	Key.backspace	n/a
365.129	0.075	730258	keystroke_Key.backspace	Key.backspace	n/a
365.294	0.075	730588	keystroke_Key.backspace	Key.backspace	n/a
365.61	0.074	731220	keystroke_Key.backspace	Key.backspace	n/a
365.88	0.105	731760	keystroke_n	n	n/a
366.285	0.12	732570	keystroke_a	a	n/a
366.495	0.12	732990	keystroke_t	t	n/a
366.555	0.12	733110	keystroke_i	i	n/a
366.69	0.09	733380	keystroke_o	o	n/a
366.72	0.105	733440	keystroke_n	n	n/a
366.944	0.075	733888	keystroke_Key.space	Key.space	n/a
367.185	0.105	734370	keystroke_d	d	n/a
367.395	0.075	734790	keystroke_o	o	n/a
367.529	0.091	735058	keystroke_o	o	n/a
367.695	0.075	735390	keystroke_m	m	n/a
368.415	0.06	736830	keystroke_Key.enter	Key.enter	n/a
368.482	14.244	736964	prompt	n/a	color read convenient curves\n
369.315	0.09	738630	keystroke_c	c	n/a
369.495	0.09	738990	keystroke_o	o	n/a
369.705	0.09	739410	keystroke_l	l	n/a
369.885	0.09	739770	keystroke_o	o	n/a
370.11	0.075	740220	keystroke_r	r	n/a
370.23	0.06	740460	keystroke_Key.space	Key.space	n/a
370.53	0.105	741060	keystroke_r	r	n/a
370.605	0.075	741210	keystroke_e	e	n/a
370.755	0.12	741510	keystroke_a	a	n/a
370.89	0.105	741780	keystroke_d	d	n/a
371.055	0.09	742110	keystroke_Key.space	Key.space	n/a
371.43	0.105	742860	keystroke_c	c	n/a
371.55	0.105	743100	keystroke_o	o	n/a
371.64	0.105	743280	keystroke_n	n	n/a
371.85	0.09	743700	keystroke_v	v	n/a
372.075	0.09	744150	keystroke_i	i	n/a
372.36	0.105	744720	keystroke_e	e	n/a
373.275	0.075	746550	keystroke_n	n	n/a
373.665	0.075	747330	keystroke_e	e	n/a
373.77	0.075	747540	keystroke_n	n	n/a
373.935	0.09	747870	keystroke_t	t	n/a
374.144	0.06	748288	keystroke_Key.space	Key.space	n/a
374.37	0.09	748740	keystroke_c	c	n/a
374.8495	0.075	749699	keystroke_Key.backspace	Key.backspace	n/a
375.015	0.09	750030	keystroke_Key.backspace	Key.backspace	n/a
375.195	0.09	750390	keystroke_Key.backspace	Key.backspace	n/a
375.39	0.075	750780	keystroke_Key.backspace	Key.backspace	n/a
375.6	0.06	751200	keystroke_Key.backspace	Key.backspace	n/a
375.78	0.074	751560	keystroke_Key.backspace	Key.backspace	n/a
377.01	0.0595	754020	keystroke_Key.backspace	Key.backspace	n/a
377.1745	0.0605	754349	keystroke_Key.backspace	Key.backspace	n/a
377.5795	0.045	755159	keystroke_e	e	n/a
378.7345	0.06	757469	keystroke_n	n	n/a
379.3645	0.075	758729	keystroke_i	i	n/a
379.4845	0.135	758969	keystroke_e	e	n/a
379.6045	0.075	759209	keystroke_n	n	n/a
379.7245	0.12	759449	keystroke_t	t	n/a
380.0245	0.075	760049	keystroke_Key.space	Key.space	n/a
380.2495	0.105	760499	keystroke_c	c	n/a
380.4595	0.045	760919	keystroke_u	u	n/a
380.6245	0.105	761249	keystroke_r	r	n/a
380.8945	0.09	761789	keystroke_v	v	n/a
381.0595	0.1045	762119	keystroke_e	e	n/a
381.284	0.09	762568	keystroke_s	s	n/a
382.664	0.06	765328	keystroke_Key.enter	Key.enter	n/a
382.731	10.7515	765462	prompt	n/a	breach jeans moving committees\n
383.685	0.089	767370	keystroke_b	b	n/a
383.849	0.151	767698	keystroke_r	r	n/a
384.104	0.195	768208	keystroke_a	a	n/a
384.854	0.075	769708	keystroke_Key.backspace	Key.backspace	n/a
385.005	0.149	770010	keystroke_e	e	n/a
385.169	0.165	770338	keystroke_a	a	n/a
385.349	0.12	770698	keystroke_c	c	n/a
385.529	0.09	771058	keystroke_h	h	n/a
385.769	0.06	771538	keystroke_Key.space	Key.space	n/a
386.129	0.091	772258	keystroke_e	e	n/a
386.489	0.075	772978	keystroke_Key.backspace	Key.backspace	n/a
386.79	0.074	773580	keystroke_j	j	n/a
387.209	0.136	774418	keystroke_e	e	n/a
387.434	0.12	774868	keystroke_a	a	n/a
387.584	0.09	775168	keystroke_n	n	n/a
387.779	0.09	775558	keystroke_s	s	n/a
387.974	0.075	775948	keystroke_Key.space	Key.space	n/a
388.245	0.074	776490	keystroke_m	m	n/a
388.439	0.075	776878	keystroke_o	o	n/a
388.469	0.09	776938	keystroke_v	v	n/a
388.649	0.12	777298	keystroke_i	i	n/a
388.755	0.105	777510	keystroke_n	n	n/a
388.844	0.09	777688	keystroke_g	g	n/a
389.384	0.06	778768	keystroke_Key.space	Key.space	n/a
389.819	0.09	779638	keystroke_c	c	n/a
389.97	0.104	779940	keystroke_o	o	n/a
390.39	0.074	780780	keystroke_m	m	n/a
390.54	0.089	781080	keystroke_m	m	n/a
390.734	0.09	781468	keystroke_i	i	n/a
391.185	0.059	782370	keystroke_t	t	n/a
391.349	0.061	782698	keystroke_t	t	n/a
391.889	0.076	783778	keystroke_e	e	n/a
392.054	0.06	784108	keystroke_e	e	n/a
392.369	0.076	784738	keystroke_s	s	n/a
393.404	0.075	786808	keystroke_Key.enter	Key.enter	n/a
393.493	10.9985	786986	prompt	n/a	dancing washer zealand berry\n
394.575	0.074	789150	keystroke_d	d	n/a
394.8	0.18	789600	keystroke_a	a	n/a
394.949	0.135	789898	keystroke_c	c	n/a
395.759	0.09	791518	keystroke_Key.backspace	Key.backspace	n/a
396.03	0.074	792060	keystroke_n	n	n/a
396.374	0.09	792748	keystroke_c	c	n/a
396.854	0.165	793708	keystroke_i	i	n/a
397.004	0.091	794008	keystroke_n	n	n/a
397.215	0.074	794430	keystroke_g	g	n/a
397.364	0.06	794728	keystroke_Key.space	Key.space	n/a
397.679	0.106	795358	keystroke_w	w	n/a
397.89	0.089	795780	keystroke_a	a	n/a
398.01	0.119	796020	keystroke_s	s	n/a
398.25	0.074	796500	keystroke_h	h	n/a
398.399	0.15	796798	keystroke_e	e	n/a
398.474	0.12	796948	keystroke_r	r	n/a
398.835	0.074	797670	keystroke_Key.space	Key.space	n/a
400.26	0.135	800520	keystroke_z	z	n/a
400.59	0.104	801180	keystroke_e	e	n/a
400.86	0.105	801720	keystroke_a	a	n/a
401.13	0.075	802260	keystroke_l	l	n/a
401.385	0.074	802770	keystroke_a	a	n/a
401.49	0.075	802980	keystroke_n	n	n/a
401.609	0.106	803218	keystroke_d	d	n/a
401.729	0.091	803458	keystroke_Key.space	Key.space	n/a
401.985	0.09	803970	keystroke_b	b	n/a
402.21	0.09	804420	keystroke_e	e	n/a
402.539	0.046	805078	keystroke_r	r	n/a
402.66	0.06	805320	keystroke_r	r	n/a
402.735	0.089	805470	keystroke_y	y	n/a
404.414	0.075	808828	keystroke_Key.enter	Key.enter	n/a
404.4955	16.6155	808991	prompt	n/a	bufing webmaster acdbentity searches\n
407.118	0.012	814236	keystroke_b	b	n/a
407.22	0.09	814440	keystroke_u	u	n/a
407.46	0.09	814920	keystroke_f	f	n/a
407.565	0.135	815130	keystroke_i	i	n/a
407.685	0.075	815370	keystroke_n	n	n/a
407.955	0.075	815910	keystroke_g	g	n/a
408.165	0.059	816330	keystroke_Key.space	Key.space	n/a
408.885	0.06	817770	keystroke_w	w	n/a
409.214	0.075	818428	keystroke_e	e	n/a
409.44	0.06	818880	keystroke_b	b	n/a
410.13	0.075	820260	keystroke_m	m	n/a
410.31	0.15	820620	keystroke_a	a	n/a
410.505	0.12	821010	keystroke_s	s	n/a
410.79	0.09	821580	keystroke_t	t	n/a
410.985	0.15	821970	keystroke_e	e	n/a
411.09	0.105	822180	keystroke_r	r	n/a
411.345	0.0745	822690	keystroke_Key.space	Key.space	n/a
411.7345	0.121	823469	keystroke_a	a	n/a
412.1095	0.0895	824219	keystroke_c	c	n/a
412.6355	0.075	825271	keystroke_d	d	n/a
413.2055	0.105	826411	keystroke_b	b	n/a
413.8045	0.0895	827609	keystroke_e	e	n/a
414.974	0.075	829948	keystroke_n	n	n/a
415.169	0.121	830338	keystroke_t	t	n/a
416.489	0.09	832978	keystroke_i	i	n/a
416.685	0.089	833370	keystroke_t	t	n/a
416.925	0.074	833850	keystroke_y	y	n/a
417.299	0.06	834598	keystroke_Key.space	Key.space	n/a
418.304	0.091	836608	keystroke_s	s	n/a
418.47	0.179	836940	keystroke_e	e	n/a
418.679	0.18	837358	keystroke_a	a	n/a
419.024	0.105	838048	keystroke_r	r	n/a
419.31	0.104	838620	keystroke_c	c	n/a
419.4885	0.09	838977	keystroke_h	h	n/a
419.6095	0.134	839219	keystroke_e	e	n/a
419.8485	0.136	839697	keystroke_s	s	n/a
421.0345	0.074	842069	keystroke_Key.enter	Key.enter	n/a
421.116	9.2505	842232	prompt	n/a	edward visibility anti lace\n
421.8445	0.059	843689	keystroke_e	e	n/a
422.0395	0.135	844079	keystroke_d	d	n/a
422.3545	0.044	844709	keystroke_a	a	n/a
422.7735	0.075	845547	keystroke_Key.backspace	Key.backspace	n/a
422.8345	0.12	845669	keystroke_w	w	n/a
423.0145	0.15	846029	keystroke_a	a	n/a
423.2235	0.091	846447	keystroke_r	r	n/a
423.4495	0.105	846899	keystroke_d	d	n/a
423.6435	0.075	847287	keystroke_Key.space	Key.space	n/a
423.9445	0.089	847889	keystroke_v	v	n/a
424.0945	0.09	848189	keystroke_i	i	n/a
424.3795	0.104	848759	keystroke_s	s	n/a
424.5595	0.089	849119	keystroke_i	i	n/a
424.7845	0.09	849569	keystroke_b	b	n/a
424.9795	0.089	849959	keystroke_i	i	n/a
425.1735	0.136	850347	keystroke_l	l	n/a
425.3845	0.09	850769	keystroke_i	i	n/a
425.6095	0.105	851219	keystroke_t	t	n/a
425.7295	0.075	851459	keystroke_y	y	n/a
426.2535	0.076	852507	keystroke_Key.space	Key.space	n/a
427.3645	0.104	854729	keystroke_a	a	n/a
427.4995	0.074	854999	keystroke_n	n	n/a
427.8435	0.091	855687	keystroke_t	t	n/a
428.4895	0.089	856979	keystroke_i	i	n/a
428.7595	0.059	857519	keystroke_Key.space	Key.space	n/a
428.9685	0.091	857937	keystroke_l	l	n/a
429.1185	0.15	858237	keystroke_a	a	n/a
429.2835	0.196	858567	keystroke_c	c	n/a
429.4795	0.105	858959	keystroke_e	e	n/a
430.3035	0.061	860607	keystroke_Key.enter	Key.enter	n/a
430.3775	13.8335	860755	prompt	n/a	photoshop excellent plugin macedonia\n
432.0445	0.075	864089	keystroke_p	p	n/a
432.2245	0.09	864449	keystroke_h	h	n/a
432.4495	0.09	864899	keystroke_o	o	n/a
432.6595	0.075	865319	keystroke_t	t	n/a
432.7645	0.075	865529	keystroke_o	o	n/a
432.9595	0.09	865919	keystroke_s	s	n/a
433.0345	0.104	866069	keystroke_h	h	n/a
433.2145	0.089	866429	keystroke_o	o	n/a
433.3945	0.075	866789	keystroke_p	p	n/a
433.5885	0.091	867177	keystroke_Key.space	Key.space	n/a
433.9795	0.06	867959	keystroke_e	e	n/a
434.2645	0.105	868529	keystroke_x	x	n/a
434.5645	0.12	869129	keystroke_c	c	n/a
434.8345	0.075	869669	keystroke_e	e	n/a
435.0895	0.06	870179	keystroke_l	l	n/a
435.2245	0.075	870449	keystroke_l	l	n/a
435.3145	0.12	870629	keystroke_e	e	n/a
435.4495	0.075	870899	keystroke_n	n	n/a
435.5545	0.09	871109	keystroke_t	t	n/a
435.6735	0.075	871347	keystroke_Key.space	Key.space	n/a
435.9445	0.105	871889	keystroke_p	p	n/a
436.1545	0.105	872309	keystroke_l	l	n/a
436.3635	0.091	872727	keystroke_u	u	n/a
436.6795	0.075	873359	keystroke_g	g	n/a
436.9795	0.03	873959	keystroke_n	n	n/a
437.0095	0.21	874019	keystroke_i	i	n/a
437.1895	0.09	874379	keystroke_n	n	n/a
437.6545	0.03	875309	keystroke_Key.backspace	Key.backspace	n/a
437.7745	0.074	875549	keystroke_Key.backspace	Key.backspace	n/a
438.5245	0.06	877049	keystroke_Key.backspace	Key.backspace	n/a
438.7945	0.135	877589	keystroke_i	i	n/a
438.9445	0.075	877889	keystroke_n	n	n/a
439.7545	0.06	879509	keystroke_Key.space	Key.space	n/a
440.3395	0.075	880679	keystroke_m	m	n/a
440.8345	0.105	881669	keystroke_a	a	n/a
441.4945	0.105	882989	keystroke_c	c	n/a
441.7795	0.075	883559	keystroke_e	e	n/a
442.1995	0.075	884399	keystroke_d	d	n/a
442.3345	0.135	884669	keystroke_o	o	n/a
442.4545	0.105	884909	keystroke_n	n	n/a
442.7545	0.105	885509	keystroke_i	i	n/a
442.9795	0.09	885959	keystroke_a	a	n/a
444.1495	0.06	888299	keystroke_Key.enter	Key.enter	n/a
444.2175	12.279	888435	prompt	n/a	decisions isaac languages wallpapers\n
445.4995	0.09	890999	keystroke_d	d	n/a
445.7095	0.09	891419	keystroke_e	e	n/a
445.8895	0.12	891779	keystroke_c	c	n/a
446.4145	0.075	892829	keystroke_i	i	n/a
446.6395	0.105	893279	keystroke_s	s	n/a
446.7745	0.12	893549	keystroke_i	i	n/a
446.8795	0.105	893759	keystroke_o	o	n/a
446.9545	0.105	893909	keystroke_n	n	n/a
447.1495	0.09	894299	keystroke_s	s	n/a
447.3895	0.06	894779	keystroke_Key.space	Key.space	n/a
448.4695	0.09	896939	keystroke_i	i	n/a
448.7095	0.105	897419	keystroke_s	s	n/a
449.0095	0.255	898019	keystroke_a	a	n/a
449.8345	0.105	899669	keystroke_a	a	n/a
450.0745	0.09	900149	keystroke_c	c	n/a
450.4495	0.105	900899	keystroke_Key.space	Key.space	n/a
450.6895	0.09	901379	keystroke_l	l	n/a
450.7945	0.12	901589	keystroke_a	a	n/a
450.9295	0.105	901859	keystroke_n	n	n/a
451.2145	0.09	902429	keystroke_g	g	n/a
451.4245	0.09	902849	keystroke_u	u	n/a
451.7245	0.12	903449	keystroke_a	a	n/a
451.9195	0.105	903839	keystroke_g	g	n/a
452.0695	0.105	904139	keystroke_e	e	n/a
452.3545	0.09	904709	keystroke_s	s	n/a
454.0495	0.06	908099	keystroke_Key.space	Key.space	n/a
454.2895	0.12	908579	keystroke_w	w	n/a
454.5145	0.12	909029	keystroke_a	a	n/a
454.7545	0.03	909509	keystroke_l	l	n/a
454.8595	0.075	909719	keystroke_l	l	n/a
455.0245	0.09	910049	keystroke_p	p	n/a
455.1295	0.105	910259	keystroke_a	a	n/a
455.2495	0.09	910499	keystroke_p	p	n/a
455.4145	0.18	910829	keystroke_e	e	n/a
455.5195	0.12	911039	keystroke_r	r	n/a
455.7745	0.09	911549	keystroke_s	s	n/a
456.4345	0.06	912869	keystroke_Key.enter	Key.enter	n/a
456.5025	8.379	913005	prompt	n/a	topics formation promo decrease\n
457.2745	0.105	914549	keystroke_t	t	n/a
457.4245	0.09	914849	keystroke_o	o	n/a
457.6045	0.09	915209	keystroke_p	p	n/a
457.7845	0.12	915569	keystroke_i	i	n/a
457.9645	0.12	915929	keystroke_c	c	n/a
458.1295	0.105	916259	keystroke_s	s	n/a
458.2195	0.075	916439	keystroke_Key.space	Key.space	n/a
458.4745	0.105	916949	keystroke_f	f	n/a
458.6395	0.09	917279	keystroke_o	o	n/a
458.8345	0.09	917669	keystroke_r	r	n/a
458.9845	0.09	917969	keystroke_m	m	n/a
459.3295	0.15	918659	keystroke_a	a	n/a
459.5395	0.12	919079	keystroke_t	t	n/a
459.5995	0.18	919199	keystroke_i	i	n/a
459.6895	0.15	919379	keystroke_o	o	n/a
459.7945	0.12	919589	keystroke_n	n	n/a
460.0345	0.09	920069	keystroke_Key.space	Key.space	n/a
460.3345	0.09	920669	keystroke_p	p	n/a
460.4845	0.075	920969	keystroke_r	r	n/a
460.6195	0.105	921239	keystroke_o	o	n/a
461.0395	0.075	922079	keystroke_m	m	n/a
461.4145	0.075	922829	keystroke_o	o	n/a
461.8495	0.075	923699	keystroke_Key.space	Key.space	n/a
462.2395	0.09	924479	keystroke_d	d	n/a
462.6445	0.045	925289	keystroke_e	e	n/a
463.0195	0.09	926039	keystroke_c	c	n/a
463.2895	0.135	926579	keystroke_r	r	n/a
463.3645	0.12	926729	keystroke_e	e	n/a
463.5595	0.165	927119	keystroke_a	a	n/a
463.7395	0.18	927479	keystroke_s	s	n/a
463.8745	0.12	927749	keystroke_e	e	n/a
464.8195	0.06	929639	keystroke_Key.enter	Key.enter	n/a
464.8865	7.9605	929773	prompt	n/a	look grove representing solution\n
465.6295	0.09	931259	keystroke_l	l	n/a
465.8695	0.045	931739	keystroke_o	o	n/a
465.9895	0.09	931979	keystroke_o	o	n/a
466.1695	0.09	932339	keystroke_k	k	n/a
466.3495	0.105	932699	keystroke_Key.space	Key.space	n/a
466.6645	0.075	933329	keystroke_g	g	n/a
466.8895	0.105	933779	keystroke_r	r	n/a
467.1295	0.09	934259	keystroke_o	o	n/a
467.309	0.075	934618	keystroke_v	v	n/a
467.46	0.089	934920	keystroke_e	e	n/a
467.579	0.09	935158	keystroke_Key.space	Key.space	n/a
467.894	0.091	935788	keystroke_r	r	n/a
467.939	0.12	935878	keystroke_e	e	n/a
468.359	0.091	936718	keystroke_p	p	n/a
468.585	0.119	937170	keystroke_r	r	n/a
468.66	0.119	937320	keystroke_e	e	n/a
468.974	0.09	937948	keystroke_s	s	n/a
469.664	0.09	939328	keystroke_e	e	n/a
469.874	0.061	939748	keystroke_n	n	n/a
470.009	0.091	940018	keystroke_t	t	n/a
470.13	0.09	940260	keystroke_i	i	n/a
470.22	0.105	940440	keystroke_n	n	n/a
470.309	0.076	940618	keystroke_g	g	n/a
470.655	0.075	941310	keystroke_Key.space	Key.space	n/a
471.044	0.075	942088	keystroke_s	s	n/a
471.18	0.075	942360	keystroke_o	o	n/a
471.344	0.091	942688	keystroke_l	l	n/a
471.555	0.075	943110	keystroke_u	u	n/a
471.734	0.106	943468	keystroke_t	t	n/a
471.795	0.195	943590	keystroke_i	i	n/a
471.899	0.165	943798	keystroke_o	o	n/a
472.005	0.09	944010	keystroke_n	n	n/a
472.755	0.089	945510	keystroke_Key.enter	Key.enter	n/a
472.8545	18.2175	945709	prompt	n/a	edge declaration wrapped program\n
473.729	0.061	947458	keystroke_e	e	n/a
473.955	0.105	947910	keystroke_d	d	n/a
474.15	0.09	948300	keystroke_g	g	n/a
474.225	0.119	948450	keystroke_e	e	n/a
474.419	0.075	948838	keystroke_Key.space	Key.space	n/a
474.885	0.06	949770	keystroke_d	d	n/a
475.065	0.075	950130	keystroke_e	e	n/a
475.59	0.09	951180	keystroke_l	l	n/a
476.819	0.061	953638	keystroke_Key.backspace	Key.backspace	n/a
476.94	0.075	953880	keystroke_c	c	n/a
477.119	0.106	954238	keystroke_l	l	n/a
477.435	0.09	954870	keystroke_e	e	n/a
477.825	0.09	955650	keystroke_r	r	n/a
478.005	0.12	956010	keystroke_a	a	n/a
478.14	0.12	956280	keystroke_t	t	n/a
478.185	0.1955	956370	keystroke_i	i	n/a
478.3195	0.165	956639	keystroke_o	o	n/a
478.4245	0.106	956849	keystroke_n	n	n/a
480.1795	0.06	960359	keystroke_Key.space	Key.space	n/a
480.9595	0.075	961919	keystroke_Key.backspace	Key.backspace	n/a
481.1845	0.045	962369	keystroke_Key.backspace	Key.backspace	n/a
481.3945	0.075	962789	keystroke_Key.backspace	Key.backspace	n/a
482.2045	0.06	964409	keystroke_Key.backspace	Key.backspace	n/a
482.3695	0.075	964739	keystroke_Key.backspace	Key.backspace	n/a
482.5345	0.06	965069	keystroke_Key.backspace	Key.backspace	n/a
482.7145	0.06	965429	keystroke_Key.backspace	Key.backspace	n/a
482.9845	0.075	965969	keystroke_Key.backspace	Key.backspace	n/a
483.5705	0.089	967141	keystroke_a	a	n/a
483.8255	0.179	967651	keystroke_r	r	n/a
484.6505	0.12	969301	keystroke_a	a	n/a
484.9195	0.09	969839	keystroke_t	t	n/a
485.0105	0.21	970021	keystroke_i	i	n/a
485.1295	0.135	970259	keystroke_o	o	n/a
485.2045	0.121	970409	keystroke_n	n	n/a
485.4595	0.075	970919	keystroke_Key.space	Key.space	n/a
486.6895	0.106	973379	keystroke_w	w	n/a
487.0645	0.105	974129	keystroke_r	r	n/a
487.3505	0.104	974701	keystroke_a	a	n/a
487.6195	0.06	975239	keystroke_p	p	n/a
487.7555	0.104	975511	keystroke_p	p	n/a
487.8745	0.091	975749	keystroke_e	e	n/a
488.1295	0.091	976259	keystroke_d	d	n/a
488.2495	0.076	976499	keystroke_Key.space	Key.space	n/a
488.4905	0.09	976981	keystroke_p	p	n/a
488.6405	0.09	977281	keystroke_r	r	n/a
488.8055	0.089	977611	keystroke_o	o	n/a
489.0755	0.074	978151	keystroke_g	g	n/a
489.2695	0.105	978539	keystroke_r	r	n/a
489.4795	0.121	978959	keystroke_a	a	n/a
489.6305	0.075	979261	keystroke_m	m	n/a
490.9945	0.075	981989	keystroke_Key.enter	Key.enter	n/a
491.0785	11.049	982157	prompt	n/a	cant joel sigma represented\n
491.9705	0.105	983941	keystroke_c	c	n/a
492.1195	0.15	984239	keystroke_a	a	n/a
492.2545	0.106	984509	keystroke_n	n	n/a
492.4355	0.089	984871	keystroke_'	'	n/a
492.9745	0.075	985949	keystroke_Key.backspace	Key.backspace	n/a
493.2605	0.089	986521	keystroke_t	t	n/a
493.4395	0.075	986879	keystroke_Key.space	Key.space	n/a
494.3255	0.06	988651	keystroke_j	j	n/a
494.5195	0.09	989039	keystroke_o	o	n/a
494.6555	0.089	989311	keystroke_e	e	n/a
494.8805	0.075	989761	keystroke_l	l	n/a
495.1055	0.074	990211	keystroke_Key.space	Key.space	n/a
495.465	0.09	990930	keystroke_s	s	n/a
495.645	0.06	991290	keystroke_i	i	n/a
496.35	0.075	992700	keystroke_g	g	n/a
496.635	0.075	993270	keystroke_m	m	n/a
496.815	0.09	993630	keystroke_a	a	n/a
496.95	0.09	993900	keystroke_Key.space	Key.space	n/a
497.31	0.105	994620	keystroke_r	r	n/a
497.355	0.105	994710	keystroke_e	e	n/a
497.67	0.09	995340	keystroke_s	s	n/a
498.375	0.09	996750	keystroke_Key.backspace	Key.backspace	n/a
499.005	0.06	998010	keystroke_p	p	n/a
499.38	0.12	998760	keystroke_r	r	n/a
499.44	0.105	998880	keystroke_e	e	n/a
499.68	0.09	999360	keystroke_s	s	n/a
499.875	0.09	999750	keystroke_e	e	n/a
500.01	0.075	1000020	keystroke_n	n	n/a
500.13	0.105	1000260	keystroke_t	t	n/a
500.43	0.075	1000860	keystroke_e	e	n/a
500.655	0.105	1001310	keystroke_d	d	n/a
502.065	0.06	1004130	keystroke_Key.enter	Key.enter	n/a
502.133	9.1445	1004266	prompt	n/a	desert kurt pour personals\n
502.875	0.075	1005750	keystroke_s	s	n/a
503.07	0.105	1006140	keystroke_e	e	n/a
503.745	0.06	1007490	keystroke_Key.backspace	Key.backspace	n/a
503.895	0.09	1007790	keystroke_Key.backspace	Key.backspace	n/a
504.03	0.105	1008060	keystroke_d	d	n/a
504.285	0.09	1008570	keystroke_e	e	n/a
504.525	0.09	1009050	keystroke_s	s	n/a
504.975	0.195	1009950	keystroke_e	e	n/a
505.65	0.075	1011300	keystroke_r	r	n/a
505.845	0.075	1011690	keystroke_t	t	n/a
506.16	0.075	1012320	keystroke_Key.space	Key.space	n/a
506.385	0.09	1012770	keystroke_k	k	n/a
506.61	0.075	1013220	keystroke_u	u	n/a
506.745	0.075	1013490	keystroke_r	r	n/a
506.91	0.075	1013820	keystroke_t	t	n/a
506.97	0.09	1013940	keystroke_Key.space	Key.space	n/a
507.255	0.12	1014510	keystroke_p	p	n/a
507.6	0.075	1015200	keystroke_o	o	n/a
508.065	0.061	1016130	keystroke_u	u	n/a
508.455	0.06	1016910	keystroke_r	r	n/a
508.635	0.075	1017270	keystroke_Key.space	Key.space	n/a
509.04	0.105	1018080	keystroke_p	p	n/a
509.16	0.15	1018320	keystroke_e	e	n/a
509.235	0.135	1018470	keystroke_r	r	n/a
509.52	0.09	1019040	keystroke_s	s	n/a
509.835	0.105	1019670	keystroke_o	o	n/a
509.955	0.105	1019910	keystroke_n	n	n/a
510.18	0.105	1020360	keystroke_a	a	n/a
510.315	0.09	1020630	keystroke_l	l	n/a
510.465	0.105	1020930	keystroke_s	s	n/a
511.2	0.075	1022400	keystroke_Key.enter	Key.enter	n/a
511.282	8.3795	1022564	prompt	n/a	janet mailed neighbor former\n
512.04	0.06	1024080	keystroke_j	j	n/a
512.16	0.105	1024320	keystroke_a	a	n/a
512.25	0.075	1024500	keystroke_n	n	n/a
512.475	0.06	1024950	keystroke_e	e	n/a
512.715	0.105	1025430	keystroke_t	t	n/a
512.865	0.075	1025730	keystroke_Key.space	Key.space	n/a
513.4345	0.075	1026869	keystroke_m	m	n/a
513.5695	0.135	1027139	keystroke_a	a	n/a
513.8095	0.075	1027619	keystroke_i	i	n/a
514.0045	0.09	1028009	keystroke_l	l	n/a
514.2145	0.06	1028429	keystroke_e	e	n/a
514.4095	0.09	1028819	keystroke_d	d	n/a
514.5005	0.089	1029001	keystroke_Key.space	Key.space	n/a
515.8345	0.06	1031669	keystroke_n	n	n/a
516.1495	0.045	1032299	keystroke_e	e	n/a
516.2995	0.075	1032599	keystroke_i	i	n/a
516.9005	0.074	1033801	keystroke_g	g	n/a
517.0795	0.09	1034159	keystroke_h	h	n/a
517.3795	0.075	1034759	keystroke_b	b	n/a
517.5745	0.09	1035149	keystroke_o	o	n/a
517.7545	0.06	1035509	keystroke_r	r	n/a
517.9345	0.075	1035869	keystroke_Key.space	Key.space	n/a
518.1895	0.09	1036379	keystroke_f	f	n/a
518.3245	0.09	1036649	keystroke_o	o	n/a
518.4895	0.075	1036979	keystroke_r	r	n/a
518.5655	0.089	1037131	keystroke_m	m	n/a
518.7595	0.135	1037519	keystroke_e	e	n/a
518.8345	0.105	1037669	keystroke_r	r	n/a
519.5845	0.075	1039169	keystroke_Key.enter	Key.enter	n/a
519.667	12.281	1039334	prompt	n/a	indians unlikely paxil disco\n
520.7255	0.075	1041451	keystroke_i	i	n/a
520.8895	0.091	1041779	keystroke_n	n	n/a
521.3395	0.12	1042679	keystroke_d	d	n/a
521.6395	0.075	1043279	keystroke_i	i	n/a
521.8795	0.105	1043759	keystroke_a	a	n/a
521.9995	0.075	1043999	keystroke_n	n	n/a
522.1345	0.09	1044269	keystroke_s	s	n/a
522.2845	0.075	1044569	keystroke_Key.space	Key.space	n/a
522.5695	0.075	1045139	keystroke_u	u	n/a
522.7795	0.076	1045559	keystroke_n	n	n/a
522.9745	0.105	1045949	keystroke_l	l	n/a
523.1695	0.075	1046339	keystroke_i	i	n/a
523.7545	0.075	1047509	keystroke_e	e	n/a
524.4445	0.075	1048889	keystroke_Key.backspace	Key.backspace	n/a
524.6855	0.089	1049371	keystroke_k	k	n/a
524.8345	0.06	1049669	keystroke_e	e	n/a
525.0445	0.106	1050089	keystroke_l	l	n/a
525.3895	0.06	1050779	keystroke_y	y	n/a
525.6445	0.075	1051289	keystroke_Key.space	Key.space	n/a
525.8255	0.104	1051651	keystroke_p	p	n/a
525.9895	0.12	1051979	keystroke_a	a	n/a
526.6195	0.105	1053239	keystroke_x	x	n/a
526.9045	0.09	1053809	keystroke_i	i	n/a
527.1305	0.089	1054261	keystroke_l	l	n/a
527.3995	0.06	1054799	keystroke_Key.space	Key.space	n/a
528.1195	0.061	1056239	keystroke_s	s	n/a
528.5245	0.075	1057049	keystroke_Key.backspace	Key.backspace	n/a
528.8105	0.074	1057621	keystroke_i	i	n/a
528.9895	0.135	1057979	keystroke_s	s	n/a
529.4545	0.06	1058909	keystroke_Key.backspace	Key.backspace	n/a
529.5895	0.105	1059179	keystroke_Key.backspace	Key.backspace	n/a
529.7545	0.136	1059509	keystroke_d	d	n/a
530.1745	0.091	1060349	keystroke_i	i	n/a
530.5345	0.135	1061069	keystroke_s	s	n/a
530.7445	0.12	1061489	keystroke_c	c	n/a
530.9245	0.091	1061849	keystroke_o	o	n/a
531.8695	0.075	1063739	keystroke_Key.enter	Key.enter	n/a
531.9525	12.7295	1063905	prompt	n/a	proposals lions identifier weights\n
532.6495	0.075	1065299	keystroke_p	p	n/a
532.8595	0.09	1065719	keystroke_r	r	n/a
532.9645	0.09	1065929	keystroke_o	o	n/a
533.2345	0.09	1066469	keystroke_p	p	n/a
534.0005	0.089	1068001	keystroke_o	o	n/a
534.6455	0.09	1069291	keystroke_s	s	n/a
534.8845	0.121	1069769	keystroke_a	a	n/a
535.0345	0.105	1070069	keystroke_l	l	n/a
535.2755	0.089	1070551	keystroke_s	s	n/a
535.5145	0.075	1071029	keystroke_Key.space	Key.space	n/a
536.0845	0.09	1072169	keystroke_l	l	n/a
536.2955	0.18	1072591	keystroke_i	i	n/a
537.1955	0.059	1074391	keystroke_o	o	n/a
537.4655	0.059	1074931	keystroke_n	n	n/a
538.3805	0.074	1076761	keystroke_s	s	n/a
538.5295	0.075	1077059	keystroke_Key.space	Key.space	n/a
538.7705	0.074	1077541	keystroke_i	i	n/a
538.9055	0.09	1077811	keystroke_d	d	n/a
539.1155	0.09	1078231	keystroke_e	e	n/a
539.3105	0.074	1078621	keystroke_n	n	n/a
539.5345	0.105	1079069	keystroke_t	t	n/a
539.6855	0.09	1079371	keystroke_i	i	n/a
540.7645	0.076	1081529	keystroke_f	f	n/a
540.9305	0.09	1081861	keystroke_i	i	n/a
541.1395	0.106	1082279	keystroke_e	e	n/a
541.8455	0.074	1083691	keystroke_r	r	n/a
542.0395	0.09	1084079	keystroke_Key.space	Key.space	n/a
542.5055	0.09	1085011	keystroke_w	w	n/a
543.0595	0.061	1086119	keystroke_e	e	n/a
543.2405	0.074	1086481	keystroke_i	i	n/a
543.4495	0.061	1086899	keystroke_g	g	n/a
543.5405	0.075	1087081	keystroke_h	h	n/a
543.6455	0.135	1087291	keystroke_t	t	n/a
543.9305	0.105	1087861	keystroke_s	s	n/a
544.6055	0.074	1089211	keystroke_Key.enter	Key.enter	n/a
544.687	8.905	1089374	prompt	n/a	level upgrade meaningful juan\n
545.4305	0.09	1090861	keystroke_l	l	n/a
545.5355	0.104	1091071	keystroke_e	e	n/a
545.7155	0.105	1091431	keystroke_v	v	n/a
545.8355	0.104	1091671	keystroke_e	e	n/a
545.9555	0.075	1091911	keystroke_l	l	n/a
546.1345	0.091	1092269	keystroke_Key.space	Key.space	n/a
546.7355	0.089	1093471	keystroke_u	u	n/a
546.9305	0.09	1093861	keystroke_p	p	n/a
547.2605	0.075	1094521	keystroke_g	g	n/a
547.4555	0.134	1094911	keystroke_r	r	n/a
547.7255	0.12	1095451	keystroke_a	a	n/a
547.8755	0.119	1095751	keystroke_d	d	n/a
548.0695	0.076	1096139	keystroke_e	e	n/a
548.0995	0.076	1096199	keystroke_Key.space	Key.space	n/a
548.3255	0.075	1096651	keystroke_m	m	n/a
548.4305	0.105	1096861	keystroke_e	e	n/a
548.6705	0.15	1097341	keystroke_a	a	n/a
549.3305	0.06	1098661	keystroke_n	n	n/a
549.4955	0.09	1098991	keystroke_i	i	n/a
549.6605	0.105	1099321	keystroke_n	n	n/a
549.8255	0.105	1099651	keystroke_g	g	n/a
550.9795	0.06	1101959	keystroke_f	f	n/a
551.1605	0.075	1102321	keystroke_u	u	n/a
551.3845	0.075	1102769	keystroke_l	l	n/a
551.5655	0.089	1103131	keystroke_Key.space	Key.space	n/a
551.9405	0.09	1103881	keystroke_j	j	n/a
552.3295	0.091	1104659	keystroke_u	u	n/a
552.5405	0.135	1105081	keystroke_a	a	n/a
552.6455	0.09	1105291	keystroke_n	n	n/a
553.5155	0.074	1107031	keystroke_Key.enter	Key.enter	n/a
553.597	9.865	1107194	prompt	n/a	seem miracle neighbor affordable\n
554.3705	0.09	1108741	keystroke_s	s	n/a
554.6855	0.06	1109371	keystroke_e	e	n/a
554.8355	0.06	1109671	keystroke_e	e	n/a
554.9405	0.09	1109881	keystroke_m	m	n/a
555.1505	0.075	1110301	keystroke_Key.space	Key.space	n/a
555.5555	0.075	1111111	keystroke_m	m	n/a
555.7655	0.075	1111531	keystroke_i	i	n/a
556.0955	0.09	1112191	keystroke_r	r	n/a
556.2605	0.18	1112521	keystroke_a	a	n/a
556.6655	0.075	1113331	keystroke_l	l	n/a
557.1755	0.075	1114351	keystroke_Key.backspace	Key.backspace	n/a
557.3105	0.195	1114621	keystroke_c	c	n/a
557.4905	0.105	1114981	keystroke_l	l	n/a
558.2555	0.06	1116511	keystroke_e	e	n/a
558.5845	0.061	1117169	keystroke_Key.space	Key.space	n/a
558.9155	0.075	1117831	keystroke_n	n	n/a
559.0805	0.09	1118161	keystroke_e	e	n/a
559.2455	0.09	1118491	keystroke_i	i	n/a
559.4705	0.075	1118941	keystroke_g	g	n/a
559.5905	0.09	1119181	keystroke_h	h	n/a
560.0105	0.075	1120021	keystroke_b	b	n/a
560.1905	0.09	1120381	keystroke_o	o	n/a
560.3705	0.09	1120741	keystroke_r	r	n/a
560.8055	0.075	1121611	keystroke_Key.space	Key.space	n/a
561.0305	0.105	1122061	keystroke_a	a	n/a
561.2705	0.06	1122541	keystroke_f	f	n/a
561.4055	0.06	1122811	keystroke_f	f	n/a
561.5555	0.09	1123111	keystroke_o	o	n/a
561.6905	0.09	1123381	keystroke_r	r	n/a
561.9455	0.12	1123891	keystroke_d	d	n/a
562.1555	0.105	1124311	keystroke_a	a	n/a
562.3805	0.075	1124761	keystroke_b	b	n/a
562.5755	0.09	1125151	keystroke_l	l	n/a
562.7555	0.06	1125511	keystroke_e	e	n/a
563.3855	0.075	1126771	keystroke_Key.enter	Key.enter	n/a
563.4665	9.07	1126933	prompt	n/a	falls executed counting trembl\n
564.4945	0.075	1128989	keystroke_f	f	n/a
564.6895	0.105	1129379	keystroke_a	a	n/a
564.8995	0.06	1129799	keystroke_l	l	n/a
565.0195	0.105	1130039	keystroke_l	l	n/a
565.2145	0.09	1130429	keystroke_s	s	n/a
565.3945	0.09	1130789	keystroke_Key.space	Key.space	n/a
565.7995	0.06	1131599	keystroke_e	e	n/a
566.0845	0.135	1132169	keystroke_x	x	n/a
566.5045	0.09	1133009	keystroke_e	e	n/a
566.7895	0.105	1133579	keystroke_c	c	n/a
567.0895	0.06	1134179	keystroke_u	u	n/a
567.2395	0.105	1134479	keystroke_t	t	n/a
567.3745	0.075	1134749	keystroke_e	e	n/a
567.5695	0.09	1135139	keystroke_d	d	n/a
567.6595	0.075	1135319	keystroke_Key.space	Key.space	n/a
567.8995	0.06	1135799	keystroke_c	c	n/a
567.9745	0.105	1135949	keystroke_o	o	n/a
568.0495	0.09	1136099	keystroke_u	u	n/a
568.2445	0.09	1136489	keystroke_n	n	n/a
568.2895	0.09	1136579	keystroke_t	t	n/a
568.4545	0.12	1136909	keystroke_i	i	n/a
568.5595	0.09	1137119	keystroke_n	n	n/a
568.7845	0.09	1137569	keystroke_g	g	n/a
569.2045	0.09	1138409	keystroke_Key.space	Key.space	n/a
569.5645	0.09	1139129	keystroke_t	t	n/a
569.7595	0.135	1139519	keystroke_r	r	n/a
570.3895	0.075	1140779	keystroke_e	e	n/a
570.5845	0.075	1141169	keystroke_m	m	n/a
570.9145	0.09	1141829	keystroke_b	b	n/a
571.6045	0.09	1143209	keystroke_l	l	n/a
572.4595	0.075	1144919	keystroke_Key.enter	Key.enter	n/a
572.5425	8.875	1145085	prompt	n/a	ballet workplace antibody potato\n
573.2995	0.09	1146599	keystroke_b	b	n/a
573.5995	0.09	1147199	keystroke_a	a	n/a
573.7645	0.075	1147529	keystroke_l	l	n/a
573.8995	0.09	1147799	keystroke_l	l	n/a
574.0195	0.105	1148039	keystroke_e	e	n/a
574.2595	0.075	1148519	keystroke_t	t	n/a
574.3495	0.075	1148699	keystroke_Key.space	Key.space	n/a
574.6495	0.09	1149299	keystroke_w	w	n/a
574.7845	0.09	1149569	keystroke_o	o	n/a
574.9345	0.09	1149869	keystroke_r	r	n/a
575.0545	0.105	1150109	keystroke_k	k	n/a
575.3395	0.09	1150679	keystroke_p	p	n/a
575.5345	0.075	1151069	keystroke_l	l	n/a
575.6545	0.12	1151309	keystroke_a	a	n/a
575.7745	0.135	1151549	keystroke_c	c	n/a
575.8795	0.105	1151759	keystroke_e	e	n/a
575.9995	0.075	1151999	keystroke_Key.space	Key.space	n/a
576.1795	0.09	1152359	keystroke_a	a	n/a
576.2995	0.075	1152599	keystroke_n	n	n/a
576.6145	0.105	1153229	keystroke_t	t	n/a
576.8395	0.09	1153679	keystroke_i	i	n/a
577.4395	0.06	1154879	keystroke_b	b	n/a
577.5895	0.105	1155179	keystroke_o	o	n/a
577.7245	0.09	1155449	keystroke_d	d	n/a
577.9045	0.06	1155809	keystroke_y	y	n/a
578.5345	0.075	1157069	keystroke_Key.space	Key.space	n/a
578.8045	0.09	1157609	keystroke_p	p	n/a
579.0745	0.09	1158149	keystroke_o	o	n/a
579.4645	0.09	1158929	keystroke_t	t	n/a
579.7645	0.195	1159529	keystroke_a	a	n/a
580.1245	0.105	1160249	keystroke_t	t	n/a
580.3795	0.09	1160759	keystroke_o	o	n/a
581.3395	0.075	1162679	keystroke_Key.enter	Key.enter	n/a
581.4235	8.9025	1162847	prompt	n/a	sees chest approach regarded\n
582.3145	0.09	1164629	keystroke_s	s	n/a
582.5545	0.06	1165109	keystroke_e	e	n/a
582.6895	0.06	1165379	keystroke_e	e	n/a
582.8695	0.09	1165739	keystroke_s	s	n/a
583.0195	0.09	1166039	keystroke_Key.space	Key.space	n/a
583.2445	0.075	1166489	keystroke_c	c	n/a
583.3945	0.075	1166789	keystroke_h	h	n/a
583.4995	0.09	1166999	keystroke_e	e	n/a
583.7095	0.12	1167419	keystroke_s	s	n/a
583.8745	0.12	1167749	keystroke_t	t	n/a
584.0395	0.075	1168079	keystroke_Key.space	Key.space	n/a
584.3095	0.09	1168619	keystroke_a	a	n/a
584.5495	0.075	1169099	keystroke_p	p	n/a
584.6995	0.09	1169399	keystroke_p	p	n/a
585.3295	0.075	1170659	keystroke_r	r	n/a
585.5545	0.09	1171109	keystroke_o	o	n/a
586.1245	0.12	1172249	keystroke_a	a	n/a
586.3645	0.09	1172729	keystroke_c	c	n/a
586.5145	0.075	1173029	keystroke_h	h	n/a
587.1595	0.075	1174319	keystroke_Key.space	Key.space	n/a
587.4145	0.165	1174829	keystroke_r	r	n/a
587.6245	0.12	1175249	keystroke_e	e	n/a
587.9845	0.075	1175969	keystroke_g	g	n/a
588.2545	0.105	1176509	keystroke_a	a	n/a
588.4645	0.105	1176929	keystroke_r	r	n/a
588.7345	0.12	1177469	keystroke_d	d	n/a
588.9895	0.09	1177979	keystroke_e	e	n/a
589.2145	0.12	1178429	keystroke_d	d	n/a
590.2495	0.075	1180499	keystroke_Key.enter	Key.enter	n/a
590.3345	18.581	1180669	prompt	n/a	extremely situated interpretation compilation\n
591.1495	0.06	1182299	keystroke_e	e	n/a
591.4645	0.105	1182929	keystroke_x	x	n/a
591.7645	0.12	1183529	keystroke_t	t	n/a
592.0345	0.09	1184069	keystroke_r	r	n/a
592.1845	0.135	1184369	keystroke_e	e	n/a
592.5295	0.105	1185059	keystroke_m	m	n/a
592.8295	0.12	1185659	keystroke_e	e	n/a
593.5645	0.09	1187129	keystroke_l	l	n/a
593.7895	0.06	1187579	keystroke_y	y	n/a
594.0595	0.075	1188119	keystroke_Key.space	Key.space	n/a
594.3595	0.105	1188719	keystroke_s	s	n/a
594.7195	0.075	1189439	keystroke_i	i	n/a
594.9595	0.09	1189919	keystroke_t	t	n/a
595.0795	0.09	1190159	keystroke_u	u	n/a
595.2745	0.09	1190549	keystroke_a	a	n/a
595.3795	0.15	1190759	keystroke_t	t	n/a
595.5895	0.075	1191179	keystroke_e	e	n/a
595.7845	0.09	1191569	keystroke_d	d	n/a
595.9045	0.09	1191809	keystroke_Key.space	Key.space	n/a
596.1895	0.105	1192379	keystroke_i	i	n/a
596.3245	0.12	1192649	keystroke_n	n	n/a
597.1045	0.075	1194209	keystroke_t	t	n/a
597.3595	0.12	1194719	keystroke_e	e	n/a
597.4345	0.09	1194869	keystroke_r	r	n/a
598.5295	0.09	1197059	keystroke_p	p	n/a
598.7545	0.135	1197509	keystroke_r	r	n/a
598.8595	0.135	1197719	keystroke_e	e	n/a
600.3445	0.09	1200689	keystroke_t	t	n/a
600.5545	0.12	1201109	keystroke_a	a	n/a
600.6595	0.105	1201319	keystroke_t	t	n/a
600.7345	0.18	1201469	keystroke_i	i	n/a
600.8245	0.135	1201649	keystroke_o	o	n/a
600.9155	0.104	1201831	keystroke_n	n	n/a
601.1245	0.06	1202249	keystroke_Key.space	Key.space	n/a
602.0845	0.09	1204169	keystroke_c	c	n/a
602.1895	0.105	1204379	keystroke_o	o	n/a
602.9545	0.075	1205909	keystroke_m	m	n/a
603.3455	0.104	1206691	keystroke_i	i	n/a
604.0045	0.09	1208009	keystroke_Key.backspace	Key.backspace	n/a
604.8145	0.105	1209629	keystroke_p	p	n/a
605.0995	0.09	1210199	keystroke_i	i	n/a
605.3395	0.105	1210679	keystroke_l	l	n/a
605.6245	0.12	1211249	keystroke_a	a	n/a
605.8195	0.105	1211639	keystroke_t	t	n/a
605.8645	0.15	1211729	keystroke_i	i	n/a
605.9995	0.135	1211999	keystroke_o	o	n/a
606.0895	0.09	1212179	keystroke_n	n	n/a
608.9125	0	1217825	keystroke_Key.enter	Key.enter	n/a
608.922	12.095	1217844	prompt	n/a	cancel leading cover duke\n
609.6745	0.106	1219349	keystroke_c	c	n/a
609.9145	0.09	1219829	keystroke_a	a	n/a
610.0345	0.075	1220069	keystroke_n	n	n/a
610.2145	0.076	1220429	keystroke_e	e	n/a
610.8595	0.075	1221719	keystroke_Key.backspace	Key.backspace	n/a
610.9945	0.09	1221989	keystroke_c	c	n/a
611.1595	0.09	1222319	keystroke_l	l	n/a
611.3095	0.105	1222619	keystroke_e	e	n/a
611.6245	0.075	1223249	keystroke_Key.space	Key.space	n/a
612.2245	0.06	1224449	keystroke_Key.backspace	Key.backspace	n/a
612.3895	0.075	1224779	keystroke_Key.backspace	Key.backspace	n/a
612.5545	0.045	1225109	keystroke_Key.backspace	Key.backspace	n/a
613.0805	0.074	1226161	keystroke_e	e	n/a
613.4245	0.09	1226849	keystroke_Key.space	Key.space	n/a
614.4295	0.09	1228859	keystroke_Key.backspace	Key.backspace	n/a
614.6995	0.091	1229399	keystroke_l	l	n/a
614.9095	0.09	1229819	keystroke_Key.space	Key.space	n/a
615.5695	0.09	1231139	keystroke_l	l	n/a
615.7345	0.12	1231469	keystroke_e	e	n/a
615.9445	0.105	1231889	keystroke_a	a	n/a
616.0345	0.15	1232069	keystroke_d	d	n/a
616.2605	0.104	1232521	keystroke_i	i	n/a
616.3795	0.09	1232759	keystroke_n	n	n/a
616.4845	0.075	1232969	keystroke_g	g	n/a
616.6345	0.09	1233269	keystroke_Key.space	Key.space	n/a
616.9045	0.075	1233809	keystroke_c	c	n/a
617.0245	0.105	1234049	keystroke_o	o	n/a
617.1745	0.09	1234349	keystroke_v	v	n/a
617.3545	0.151	1234709	keystroke_e	e	n/a
617.4455	0.104	1234891	keystroke_r	r	n/a
617.5795	0.075	1235159	keystroke_Key.space	Key.space	n/a
617.7445	0.105	1235489	keystroke_d	d	n/a
618.1645	0.031	1236329	keystroke_k	k	n/a
619.2895	0.075	1238579	keystroke_Key.backspace	Key.backspace	n/a
620.3095	0.06	1240619	keystroke_u	u	n/a
620.5655	0.075	1241131	keystroke_k	k	n/a
620.7005	0.09	1241401	keystroke_e	e	n/a
620.9545	0.06	1241909	keystroke_Key.enter	Key.enter	n/a
621.022	13.4045	1242044	prompt	n/a	accessory clearing cite compromise\n
622.7995	0.105	1245599	keystroke_a	a	n/a
623.0105	0.074	1246021	keystroke_c	c	n/a
623.1605	0.074	1246321	keystroke_c	c	n/a
623.3545	0.09	1246709	keystroke_e	e	n/a
623.6245	0.075	1247249	keystroke_s	s	n/a
623.7895	0.06	1247579	keystroke_s	s	n/a
623.8955	0.104	1247791	keystroke_o	o	n/a
624.0745	0.12	1248149	keystroke_r	r	n/a
624.2395	0.091	1248479	keystroke_y	y	n/a
624.4945	0.075	1248989	keystroke_Key.space	Key.space	n/a
624.6905	0.059	1249381	keystroke_c	c	n/a
624.7955	0.12	1249591	keystroke_l	l	n/a
624.9445	0.105	1249889	keystroke_e	e	n/a
625.5295	0.105	1251059	keystroke_a	a	n/a
625.7255	0.105	1251451	keystroke_r	r	n/a
626.0555	0.089	1252111	keystroke_n	n	n/a
626.2205	0.12	1252441	keystroke_i	i	n/a
626.3255	0.074	1252651	keystroke_n	n	n/a
626.4005	0.089	1252801	keystroke_g	g	n/a
626.5795	0.09	1253159	keystroke_Key.space	Key.space	n/a
626.9255	0.059	1253851	keystroke_c	c	n/a
627.0905	0.09	1254181	keystroke_i	i	n/a
627.2545	0.091	1254509	keystroke_t	t	n/a
627.3895	0.075	1254779	keystroke_Key.space	Key.space	n/a
627.7495	0.075	1255499	keystroke_Key.backspace	Key.backspace	n/a
627.9295	0.061	1255859	keystroke_Key.backspace	Key.backspace	n/a
628.0955	0.074	1256191	keystroke_Key.backspace	Key.backspace	n/a
628.2595	0.06	1256519	keystroke_Key.backspace	Key.backspace	n/a
628.4245	0.06	1256849	keystroke_Key.backspace	Key.backspace	n/a
628.5745	0.06	1257149	keystroke_Key.backspace	Key.backspace	n/a
628.8745	0.06	1257749	keystroke_Key.backspace	Key.backspace	n/a
629.0545	0.061	1258109	keystroke_Key.backspace	Key.backspace	n/a
629.2195	0.076	1258439	keystroke_Key.backspace	Key.backspace	n/a
629.6255	0.134	1259251	keystroke_i	i	n/a
629.7905	0.09	1259581	keystroke_n	n	n/a
629.9405	0.075	1259881	keystroke_g	g	n/a
630.0455	0.074	1260091	keystroke_Key.space	Key.space	n/a
630.6755	0.075	1261351	keystroke_c	c	n/a
630.8405	0.089	1261681	keystroke_i	i	n/a
630.9905	0.12	1261981	keystroke_t	t	n/a
631.1545	0.091	1262309	keystroke_e	e	n/a
631.2745	0.105	1262549	keystroke_Key.space	Key.space	n/a
631.4995	0.091	1262999	keystroke_c	c	n/a
631.6505	0.134	1263301	keystroke_o	o	n/a
631.8155	0.119	1263631	keystroke_m	m	n/a
632.0405	0.09	1264081	keystroke_p	p	n/a
632.2955	0.089	1264591	keystroke_o	o	n/a
632.4755	0.09	1264951	keystroke_r	r	n/a
632.8195	0.075	1265639	keystroke_m	m	n/a
632.9995	0.105	1265999	keystroke_i	i	n/a
633.2255	0.134	1266451	keystroke_s	s	n/a
633.3295	0.106	1266659	keystroke_e	e	n/a
634.3645	0.06	1268729	keystroke_Key.enter	Key.enter	n/a
634.4315	9.2345	1268863	prompt	n/a	standing grain rings express\n
635.7595	0.12	1271519	keystroke_s	s	n/a
635.9845	0.09	1271969	keystroke_t	t	n/a
636.1785	0.121	1272357	keystroke_a	a	n/a
636.3145	0.059	1272629	keystroke_n	n	n/a
636.4795	0.12	1272959	keystroke_i	i	n/a
637.0185	0.06	1274037	keystroke_Key.backspace	Key.backspace	n/a
637.1235	0.106	1274247	keystroke_d	d	n/a
637.2895	0.135	1274579	keystroke_i	i	n/a
637.3945	0.09	1274789	keystroke_n	n	n/a
637.4845	0.09	1274969	keystroke_g	g	n/a
637.6485	0.09	1275297	keystroke_Key.space	Key.space	n/a
638.4595	0.075	1276919	keystroke_g	g	n/a
638.6395	0.12	1277279	keystroke_r	r	n/a
638.8645	0.135	1277729	keystroke_a	a	n/a
639.0145	0.12	1278029	keystroke_i	i	n/a
639.1195	0.09	1278239	keystroke_n	n	n/a
639.3445	0.075	1278689	keystroke_Key.space	Key.space	n/a
639.5995	0.105	1279199	keystroke_r	r	n/a
639.749	0.09	1279498	keystroke_i	i	n/a
639.9145	0.104	1279829	keystroke_n	n	n/a
640.0345	0.089	1280069	keystroke_g	g	n/a
640.1985	0.106	1280397	keystroke_s	s	n/a
640.3335	0.075	1280667	keystroke_Key.space	Key.space	n/a
640.8895	0.059	1281779	keystroke_w	w	n/a
641.3535	0.09	1282707	keystroke_Key.backspace	Key.backspace	n/a
641.4285	0.0905	1282857	keystroke_e	e	n/a
641.7585	0.12	1283517	keystroke_x	x	n/a
641.9395	0.104	1283879	keystroke_p	p	n/a
642.1785	0.075	1284357	keystroke_r	r	n/a
642.1945	0.149	1284389	keystroke_e	e	n/a
642.5835	0.075	1285167	keystroke_s	s	n/a
642.7335	0.061	1285467	keystroke_s	s	n/a
643.5885	0.075	1287177	keystroke_Key.enter	Key.enter	n/a
643.6705	14.246	1287341	prompt	n/a	principles happens specs centre\n
644.3695	0.104	1288739	keystroke_p	p	n/a
644.5335	0.106	1289067	keystroke_r	r	n/a
644.6985	0.091	1289397	keystroke_i	i	n/a
644.8635	0.105	1289727	keystroke_n	n	n/a
645.2395	0.059	1290479	keystroke_c	c	n/a
645.3585	0.12	1290717	keystroke_i	i	n/a
645.7785	0.075	1291557	keystroke_p	p	n/a
646.0035	0.09	1292007	keystroke_l	l	n/a
646.2585	0.09	1292517	keystroke_e	e	n/a
646.4535	0.09	1292907	keystroke_s	s	n/a
646.6185	0.09	1293237	keystroke_Key.space	Key.space	n/a
647.0395	0.074	1294079	keystroke_h	h	n/a
647.1895	0.105	1294379	keystroke_a	a	n/a
647.3535	0.06	1294707	keystroke_p	p	n/a
647.4895	0.089	1294979	keystroke_p	p	n/a
647.6235	0.076	1295247	keystroke_e	e	n/a
647.7285	0.105	1295457	keystroke_n	n	n/a
647.8935	0.091	1295787	keystroke_s	s	n/a
647.9685	0.075	1295937	keystroke_Key.space	Key.space	n/a
648.2835	0.075	1296567	keystroke_s	s	n/a
648.3895	0.104	1296779	keystroke_p	p	n/a
648.5835	0.105	1297167	keystroke_e	e	n/a
648.8095	0.089	1297619	keystroke_c	c	n/a
649.0785	0.105	1298157	keystroke_s	s	n/a
649.2435	0.075	1298487	keystroke_Key.space	Key.space	n/a
649.6945	0.074	1299389	keystroke_c	c	n/a
649.9485	0.165	1299897	keystroke_e	e	n/a
650.4735	0.076	1300947	keystroke_n	n	n/a
650.6695	0.09	1301339	keystroke_t	t	n/a
650.8485	0.15	1301697	keystroke_e	e	n/a
650.9545	0.104	1301909	keystroke_r	r	n/a
651.5395	0.06	1303079	keystroke_=	=	n/a
651.7045	0.059	1303409	keystroke_=	=	n/a
651.8845	0.119	1303769	keystroke_r	r	n/a
651.9745	0.105	1303949	keystroke_e	e	n/a
652.8285	0.06	1305657	keystroke_Key.backspace	Key.backspace	n/a
652.9785	0.075	1305957	keystroke_Key.backspace	Key.backspace	n/a
653.1285	0.075	1306257	keystroke_Key.backspace	Key.backspace	n/a
653.3085	0.075	1306617	keystroke_Key.backspace	Key.backspace	n/a
653.6085	0.075	1307217	keystroke_Key.backspace	Key.backspace	n/a
653.8335	0.09	1307667	keystroke_Key.backspace	Key.backspace	n/a
654.1185	0.075	1308237	keystroke_Key.backspace	Key.backspace	n/a
654.2995	0.119	1308599	keystroke_r	r	n/a
654.3885	0.136	1308777	keystroke_e	e	n/a
655.3335	0.045	1310667	keystroke_Key.backspace	Key.backspace	n/a
655.4535	0.075	1310907	keystroke_Key.backspace	Key.backspace	n/a
655.6795	0.105	1311359	keystroke_t	t	n/a
655.9935	0.21	1311987	keystroke_r	r	n/a
656.1895	0.12	1312379	keystroke_e	e	n/a
657.8385	0.076	1315677	keystroke_Key.enter	Key.enter	n/a
657.922	10.509	1315844	prompt	n/a	resistance upload pink voting\n
658.7695	0.149	1317539	keystroke_e	e	n/a
659.5485	0.06	1319097	keystroke_Key.backspace	Key.backspace	n/a
659.6695	0.12	1319339	keystroke_r	r	n/a
659.7595	0.105	1319519	keystroke_e	e	n/a
659.9845	0.09	1319969	keystroke_s	s	n/a
660.3745	0.089	1320749	keystroke_i	i	n/a
661.4095	0.075	1322819	keystroke_s	s	n/a
662.5485	0.106	1325097	keystroke_t	t	n/a
662.8485	0.121	1325697	keystroke_a	a	n/a
663.7345	0.075	1327469	keystroke_n	n	n/a
663.8235	0.136	1327647	keystroke_c	c	n/a
663.8985	0.136	1327797	keystroke_e	e	n/a
664.1385	0.075	1328277	keystroke_Key.space	Key.space	n/a
664.4535	0.075	1328907	keystroke_u	u	n/a
664.6345	0.09	1329269	keystroke_p	p	n/a
664.8295	0.075	1329659	keystroke_l	l	n/a
665.0095	0.09	1330019	keystroke_o	o	n/a
665.1145	0.15	1330229	keystroke_a	a	n/a
665.2645	0.105	1330529	keystroke_d	d	n/a
665.3985	0.091	1330797	keystroke_Key.space	Key.space	n/a
665.9095	0.105	1331819	keystroke_p	p	n/a
666.1345	0.09	1332269	keystroke_i	i	n/a
666.2845	0.12	1332569	keystroke_n	n	n/a
666.4795	0.089	1332959	keystroke_k	k	n/a
666.6435	0.105	1333287	keystroke_Key.space	Key.space	n/a
666.9295	0.09	1333859	keystroke_v	v	n/a
667.0495	0.105	1334099	keystroke_o	o	n/a
667.3795	0.09	1334759	keystroke_t	t	n/a
667.4845	0.15	1334969	keystroke_i	i	n/a
667.6035	0.106	1335207	keystroke_n	n	n/a
667.7395	0.075	1335479	keystroke_g	g	n/a
668.3395	0.089	1336679	keystroke_Key.enter	Key.enter	n/a
668.4355	8.186	1336871	prompt	n/a	counted fund looking promotes\n
669.1645	0.06	1338329	keystroke_c	c	n/a
669.3295	0.09	1338659	keystroke_i	i	n/a
669.3745	0.09	1338749	keystroke_o	o	n/a
670.2295	0.06	1340459	keystroke_Key.backspace	Key.backspace	n/a
670.3795	0.059	1340759	keystroke_Key.backspace	Key.backspace	n/a
670.8745	0.12	1341749	keystroke_o	o	n/a
670.9495	0.09	1341899	keystroke_u	u	n/a
671.1595	0.09	1342319	keystroke_n	n	n/a
671.3235	0.136	1342647	keystroke_t	t	n/a
671.4745	0.075	1342949	keystroke_e	e	n/a
671.6545	0.09	1343309	keystroke_d	d	n/a
671.7595	0.089	1343519	keystroke_Key.space	Key.space	n/a
672.1195	0.06	1344239	keystroke_f	f	n/a
672.2695	0.075	1344539	keystroke_u	u	n/a
672.4795	0.075	1344959	keystroke_n	n	n/a
672.6445	0.09	1345289	keystroke_d	d	n/a
672.7795	0.075	1345559	keystroke_Key.space	Key.space	n/a
673.1395	0.075	1346279	keystroke_l	l	n/a
673.3795	0.075	1346759	keystroke_o	o	n/a
673.5445	0.06	1347089	keystroke_o	o	n/a
673.6645	0.105	1347329	keystroke_k	k	n/a
673.8445	0.105	1347689	keystroke_i	i	n/a
673.9495	0.104	1347899	keystroke_n	n	n/a
674.1145	0.09	1348229	keystroke_g	g	n/a
674.2195	0.075	1348439	keystroke_Key.space	Key.space	n/a
674.4295	0.09	1348859	keystroke_p	p	n/a
674.5945	0.09	1349189	keystroke_r	r	n/a
674.6995	0.105	1349399	keystroke_o	o	n/a
674.9395	0.09	1349879	keystroke_m	m	n/a
675.1495	0.105	1350299	keystroke_o	o	n/a
675.3445	0.135	1350689	keystroke_t	t	n/a
675.5245	0.105	1351049	keystroke_e	e	n/a
675.7645	0.105	1351529	keystroke_s	s	n/a
676.5445	0.075	1353089	keystroke_Key.enter	Key.enter	n/a
676.626	13.811	1353252	prompt	n/a	representations holes homeland super\n
677.4595	0.12	1354919	keystroke_r	r	n/a
677.5195	0.105	1355039	keystroke_e	e	n/a
677.8345	0.09	1355669	keystroke_p	p	n/a
678.5545	0.135	1357109	keystroke_r	r	n/a
678.8245	0.09	1357649	keystroke_e	e	n/a
679.1245	0.135	1358249	keystroke_s	s	n/a
679.5595	0.075	1359119	keystroke_e	e	n/a
679.8145	0.09	1359629	keystroke_n	n	n/a
680.0395	0.105	1360079	keystroke_t	t	n/a
680.6545	0.165	1361309	keystroke_a	a	n/a
680.9245	0.06	1361849	keystroke_t	t	n/a
680.9545	0.195	1361909	keystroke_i	i	n/a
681.0745	0.135	1362149	keystroke_o	o	n/a
681.1345	0.12	1362269	keystroke_n	n	n/a
681.8395	0.075	1363679	keystroke_s	s	n/a
681.9895	0.09	1363979	keystroke_Key.space	Key.space	n/a
682.3045	0.09	1364609	keystroke_h	h	n/a
682.4995	0.09	1364999	keystroke_o	o	n/a
682.6945	0.09	1365389	keystroke_l	l	n/a
682.7695	0.105	1365539	keystroke_e	e	n/a
682.9795	0.12	1365959	keystroke_s	s	n/a
683.1145	0.075	1366229	keystroke_Key.space	Key.space	n/a
683.3395	0.12	1366679	keystroke_h	h	n/a
683.5045	0.195	1367009	keystroke_o	o	n/a
683.6395	0.135	1367279	keystroke_m	m	n/a
683.8495	0.075	1367699	keystroke_e	e	n/a
683.9995	0.105	1367999	keystroke_l	l	n/a
684.1795	0.105	1368359	keystroke_a	a	n/a
684.2995	0.075	1368599	keystroke_n	n	n/a
684.4345	0.105	1368869	keystroke_d	d	n/a
684.5845	0.075	1369169	keystroke_Key.space	Key.space	n/a
685.2605	0.089	1370521	keystroke_s	s	n/a
685.4095	0.09	1370819	keystroke_u	u	n/a
685.6195	0.09	1371239	keystroke_p	p	n/a
685.7395	0.12	1371479	keystroke_r	r	n/a
685.8145	0.12	1371629	keystroke_e	e	n/a
688.6975	0	1377395	keystroke_Key.backspace	Key.backspace	n/a
688.7995	0.09	1377599	keystroke_Key.backspace	Key.backspace	n/a
688.9945	0.165	1377989	keystroke_e	e	n/a
689.0995	0.12	1378199	keystroke_r	r	n/a
690.3595	0.075	1380719	keystroke_Key.enter	Key.enter	n/a
690.443	13.389	1380886	prompt	n/a	privileges moderator numeric leading\n
692.3395	0.075	1384679	keystroke_p	p	n/a
692.5195	0.09	1385039	keystroke_r	r	n/a
692.6845	0.105	1385369	keystroke_i	i	n/a
692.8495	0.09	1385699	keystroke_v	v	n/a
692.9845	0.09	1385969	keystroke_i	i	n/a
694.6945	0.105	1389389	keystroke_l	l	n/a
694.9195	0.09	1389839	keystroke_e	e	n/a
695.1145	0.15	1390229	keystroke_g	g	n/a
695.2495	0.105	1390499	keystroke_e	e	n/a
695.5045	0.075	1391009	keystroke_s	s	n/a
695.6095	0.075	1391219	keystroke_Key.space	Key.space	n/a
695.9995	0.06	1391999	keystroke_m	m	n/a
696.2245	0.105	1392449	keystroke_o	o	n/a
696.4345	0.105	1392869	keystroke_d	d	n/a
696.6595	0.135	1393319	keystroke_e	e	n/a
696.7345	0.12	1393469	keystroke_r	r	n/a
697.0345	0.135	1394069	keystroke_a	a	n/a
