onset	duration	sample	value	key	prompt_text
5.4285	0.135	10857	keystroke_j	j	n/a
5.5745	0.0785	11149	keystroke_o	o	n/a
5.687	0.091	11374	keystroke_s	s	n/a
5.743	0.045	11486	keystroke_e	e	n/a
5.777	0.101	11554	keystroke_p	p	n/a
5.845	0.0555	11690	keystroke_h	h	n/a
5.9015	0.078	11803	keystroke_z	z	n/a
6.0805	0.057	12161	keystroke_Key.tab	Key.tab	n/a
6.6655	0.0675	13331	keystroke_Key.down	Key.down	n/a
6.812	0.0565	13624	keystroke_Key.down	Key.down	n/a
7.162	0.0775	14324	keystroke_Key.down	Key.down	n/a
7.3185	0.0675	14637	keystroke_Key.space	Key.space	n/a
7.521	0.0785	15042	keystroke_Key.tab	Key.tab	n/a
8.2185	0.113	16437	keystroke_Key.cmd	Key.cmd	n/a
8.275	0.079	16550	keystroke_v	v	n/a
8.512	0.067	17024	keystroke_Key.tab	Key.tab	n/a
9.0845	0.069	18169	keystroke_Key.tab	Key.tab	n/a
9.276	0.056	18552	keystroke_Key.space	Key.space	n/a
9.9515	0.056	19903	keystroke_Key.tab	Key.tab	n/a
10.2435	0.0445	20487	keystroke_Key.space	Key.space	n/a
10.8845	0.068	21769	keystroke_Key.space	Key.space	n/a
10.9565	8.334	21913	prompt	n/a	the quick brown fox jumps over a lazy dog\n
11.9985	0.045	23997	keystroke_t	t	n/a
12.2235	0.079	24447	keystroke_h	h	n/a
12.347	0.079	24694	keystroke_e	e	n/a
12.5385	0.0565	25077	keystroke_Key.space	Key.space	n/a
12.696	0.0675	25392	keystroke_q	q	n/a
12.8315	0.0785	25663	keystroke_u	u	n/a
13.0225	0.0675	26045	keystroke_i	i	n/a
13.1795	0.0675	26359	keystroke_c	c	n/a
13.3595	0.0565	26719	keystroke_k	k	n/a
13.495	0.0895	26990	keystroke_Key.space	Key.space	n/a
13.686	0.0565	27372	keystroke_b	b	n/a
13.866	0.068	27732	keystroke_r	r	n/a
14.012	0.0675	28024	keystroke_o	o	n/a
14.125	0.078	28250	keystroke_w	w	n/a
14.271	0.0785	28542	keystroke_n	n	n/a
14.395	0.056	28790	keystroke_Key.space	Key.space	n/a
14.642	0.045	29284	keystroke_f	f	n/a
14.7435	0.0785	29487	keystroke_o	o	n/a
14.868	0.067	29736	keystroke_x	x	n/a
15.014	0.0555	30028	keystroke_Key.space	Key.space	n/a
15.1375	0.067	30275	keystroke_j	j	n/a
15.2835	0.0785	30567	keystroke_u	u	n/a
15.4865	0.09	30973	keystroke_m	m	n/a
15.5535	0.0785	31107	keystroke_p	p	n/a
15.6545	0.079	31309	keystroke_s	s	n/a
15.756	0.0675	31512	keystroke_Key.space	Key.space	n/a
15.891	0.045	31782	keystroke_o	o	n/a
15.9585	0.09	31917	keystroke_v	v	n/a
16.1045	0.0905	32209	keystroke_e	e	n/a
16.1615	0.078	32323	keystroke_r	r	n/a
16.2285	0.0785	32457	keystroke_Key.space	Key.space	n/a
16.33	0.101	32660	keystroke_a	a	n/a
16.4425	0.067	32885	keystroke_Key.space	Key.space	n/a
16.836	0.079	33672	keystroke_l	l	n/a
16.9715	0.0785	33943	keystroke_a	a	n/a
17.151	0.0785	34302	keystroke_z	z	n/a
17.252	0.0795	34504	keystroke_y	y	n/a
17.376	0.0675	34752	keystroke_Key.space	Key.space	n/a
17.5115	0.0335	35023	keystroke_d	d	n/a
17.6125	0.079	35225	keystroke_o	o	n/a
17.792	0.0565	35584	keystroke_g	g	n/a
19.1535	0.135	38307	keystroke_Key.enter	Key.enter	n/a
19.2935	18.9975	38587	prompt	n/a	census authorization input subsequently\n
32.609	0.056	65218	keystroke_c	c	n/a
32.755	0.0575	65510	keystroke_e	e	n/a
32.8795	0.0895	65759	keystroke_n	n	n/a
32.991	0.0675	65982	keystroke_s	s	n/a
33.16	0.0695	66320	keystroke_u	u	n/a
33.296	0.0665	66592	keystroke_s	s	n/a
33.43	0.0675	66860	keystroke_Key.space	Key.space	n/a
33.9475	0.09	67895	keystroke_a	a	n/a
34.1055	0.0785	68211	keystroke_u	u	n/a
34.1955	0.067	68391	keystroke_t	t	n/a
34.3075	0.09	68615	keystroke_h	h	n/a
34.4205	0.0895	68841	keystroke_o	o	n/a
34.5785	0.0665	69157	keystroke_r	r	n/a
34.713	0.0675	69426	keystroke_i	i	n/a
34.814	0.09	69628	keystroke_z	z	n/a
35.0165	0.112	70033	keystroke_a	a	n/a
35.096	0.0555	70192	keystroke_t	t	n/a
35.1625	0.1915	70325	keystroke_i	i	n/a
35.2755	0.123	70551	keystroke_o	o	n/a
35.376	0.1125	70752	keystroke_n	n	n/a
35.489	0.067	70978	keystroke_Key.space	Key.space	n/a
35.624	0.101	71248	keystroke_i	i	n/a
35.6915	0.1235	71383	keystroke_n	n	n/a
35.9275	0.1575	71855	keystroke_p	p	n/a
36.04	0.0905	72080	keystroke_u	u	n/a
36.1875	0.1005	72375	keystroke_t	t	n/a
36.243	0.0675	72486	keystroke_Key.space	Key.space	n/a
36.412	0.0665	72824	keystroke_s	s	n/a
36.5125	0.079	73025	keystroke_u	u	n/a
36.603	0.067	73206	keystroke_b	b	n/a
36.794	0.056	73588	keystroke_s	s	n/a
37.064	0.0565	74128	keystroke_e	e	n/a
37.279	0.0775	74558	keystroke_q	q	n/a
37.368	0.056	74736	keystroke_u	u	n/a
37.4695	0.0665	74939	keystroke_e	e	n/a
37.5705	0.078	75141	keystroke_n	n	n/a
37.66	0.056	75320	keystroke_t	t	n/a
37.818	0.09	75636	keystroke_l	l	n/a
37.9635	0.0905	75927	keystroke_y	y	n/a
38.2225	0.0675	76445	keystroke_Key.enter	Key.enter	n/a
38.295	7.196	76590	prompt	n/a	presence eval dead journalists\n
39.449	0.0795	78898	keystroke_p	p	n/a
39.7075	0.1235	79415	keystroke_r	r	n/a
39.786	0.0905	79572	keystroke_e	e	n/a
40	0.079	80000	keystroke_c	c	n/a
40.191	0.0565	80382	keystroke_e	e	n/a
40.5065	0.067	81013	keystroke_Key.backspace	Key.backspace	n/a
40.698	0.045	81396	keystroke_s	s	n/a
40.9675	0.056	81935	keystroke_Key.backspace	Key.backspace	n/a
41.114	0.067	82228	keystroke_Key.backspace	Key.backspace	n/a
41.295	0.0555	82590	keystroke_s	s	n/a
41.474	0.067	82948	keystroke_e	e	n/a
41.6425	0.0785	83285	keystroke_n	n	n/a
41.7885	0.0905	83577	keystroke_c	c	n/a
42.003	0.0445	84006	keystroke_e	e	n/a
42.1265	0.1125	84253	keystroke_Key.space	Key.space	n/a
42.2955	0.0895	84591	keystroke_e	e	n/a
42.4865	0.09	84973	keystroke_v	v	n/a
42.588	0.078	85176	keystroke_a	a	n/a
42.723	0.0895	85446	keystroke_l	l	n/a
42.891	0.0455	85782	keystroke_Key.space	Key.space	n/a
43.0935	0.057	86187	keystroke_d	d	n/a
43.252	0.101	86504	keystroke_e	e	n/a
43.3755	0.078	86751	keystroke_a	a	n/a
43.51	0.09	87020	keystroke_d	d	n/a
43.668	0.0785	87336	keystroke_Key.space	Key.space	n/a
43.8025	0.101	87605	keystroke_j	j	n/a
43.995	0.101	87990	keystroke_o	o	n/a
44.0725	0.1125	88145	keystroke_u	u	n/a
44.23	0.0785	88460	keystroke_r	r	n/a
44.3985	0.0905	88797	keystroke_n	n	n/a
44.512	0.0785	89024	keystroke_a	a	n/a
44.6355	0.0895	89271	keystroke_l	l	n/a
44.8035	0.068	89607	keystroke_i	i	n/a
44.9165	0.1015	89833	keystroke_s	s	n/a
44.996	0.0775	89992	keystroke_t	t	n/a
45.1305	0.09	90261	keystroke_s	s	n/a
45.412	0.078	90824	keystroke_Key.enter	Key.enter	n/a
45.494	5.667	90988	prompt	n/a	metabolism we'd benefit pdas\n
46.109	0.09	92218	keystroke_m	m	n/a
46.222	0.101	92444	keystroke_e	e	n/a
46.3905	0.101	92781	keystroke_t	t	n/a
46.525	0.135	93050	keystroke_a	a	n/a
46.739	0.0565	93478	keystroke_b	b	n/a
46.829	0.0905	93658	keystroke_o	o	n/a
47.0315	0.1125	94063	keystroke_l	l	n/a
47.1105	0.078	94221	keystroke_i	i	n/a
47.245	0.0675	94490	keystroke_s	s	n/a
47.346	0.1015	94692	keystroke_m	m	n/a
47.471	0.0895	94942	keystroke_Key.space	Key.space	n/a
47.6065	0.1335	95213	keystroke_w	w	n/a
47.6955	0.1235	95391	keystroke_e	e	n/a
47.8975	0.135	95795	keystroke_'	'	n/a
48.066	0.1015	96132	keystroke_d	d	n/a
48.213	0.0675	96426	keystroke_Key.space	Key.space	n/a
48.336	0.0795	96672	keystroke_b	b	n/a
48.495	0.089	96990	keystroke_e	e	n/a
48.6065	0.09	97213	keystroke_n	n	n/a
48.719	0.09	97438	keystroke_e	e	n/a
48.9325	0.1015	97865	keystroke_f	f	n/a
49.079	0.0785	98158	keystroke_i	i	n/a
49.2025	0.09	98405	keystroke_t	t	n/a
49.462	0.056	98924	keystroke_p	p	n/a
49.7765	0.0895	99553	keystroke_Key.backspace	Key.backspace	n/a
50.024	0.0785	100048	keystroke_Key.space	Key.space	n/a
50.2155	0.09	100431	keystroke_p	p	n/a
50.3395	0.1345	100679	keystroke_d	d	n/a
50.5865	0.079	101173	keystroke_a	a	n/a
50.7785	0.0675	101557	keystroke_s	s	n/a
51.0815	0.0785	102163	keystroke_Key.enter	Key.enter	n/a
51.164	9.976	102328	prompt	n/a	currently mins politicians italian\n
53.804	0.079	107608	keystroke_c	c	n/a
53.951	0.089	107902	keystroke_u	u	n/a
54.085	0.0565	108170	keystroke_r	r	n/a
54.3785	0.089	108757	keystroke_r	r	n/a
54.67	0.068	109340	keystroke_Key.backspace	Key.backspace	n/a
55.1655	0.067	110331	keystroke_r	r	n/a
55.3565	0.079	110713	keystroke_e	e	n/a
55.4915	0.101	110983	keystroke_n	n	n/a
55.615	0.0565	111230	keystroke_t	t	n/a
55.75	0.124	111500	keystroke_l	l	n/a
55.9755	0.09	111951	keystroke_y	y	n/a
56.1325	0.09	112265	keystroke_Key.space	Key.space	n/a
56.29	0.1575	112580	keystroke_m	m	n/a
56.4815	0.1575	112963	keystroke_i	i	n/a
56.6505	0.1235	113301	keystroke_n	n	n/a
56.7625	0.0785	113525	keystroke_s	s	n/a
56.864	0.101	113728	keystroke_Key.space	Key.space	n/a
57.0665	0.169	114133	keystroke_p	p	n/a
57.1455	0.1125	114291	keystroke_o	o	n/a
57.381	0.068	114762	keystroke_o	o	n/a
57.9105	0.056	115821	keystroke_Key.backspace	Key.backspace	n/a
58.135	0.09	116270	keystroke_l	l	n/a
58.27	0.1015	116540	keystroke_i	i	n/a
58.4395	0.0795	116879	keystroke_t	t	n/a
58.5515	0.079	117103	keystroke_i	i	n/a
58.664	0.0675	117328	keystroke_c	c	n/a
58.799	0.101	117598	keystroke_i	i	n/a
58.889	0.0895	117778	keystroke_a	a	n/a
59.013	0.101	118026	keystroke_n	n	n/a
59.125	0.079	118250	keystroke_s	s	n/a
59.295	0.078	118590	keystroke_Key.space	Key.space	n/a
59.418	0.1005	118836	keystroke_i	i	n/a
59.575	0.0785	119150	keystroke_t	t	n/a
59.8	0.113	119600	keystroke_a	a	n/a
59.969	0.1235	119938	keystroke_l	l	n/a
60.059	0.1235	120118	keystroke_i	i	n/a
60.239	0.101	120478	keystroke_a	a	n/a
60.442	0.0895	120884	keystroke_n	n	n/a
61.004	0.135	122008	keystroke_Key.enter	Key.enter	n/a
61.143	5.915	122286	prompt	n/a	brush he've appropriate suite\n
61.825	0.0675	123650	keystroke_b	b	n/a
62.0165	0.0455	124033	keystroke_r	r	n/a
62.118	0.067	124236	keystroke_u	u	n/a
62.219	0.0675	124438	keystroke_s	s	n/a
62.343	0.0785	124686	keystroke_h	h	n/a
62.4785	0.1115	124957	keystroke_Key.space	Key.space	n/a
62.759	0.0905	125518	keystroke_h	h	n/a
62.895	0.1	125790	keystroke_e	e	n/a
63.119	0.1125	126238	keystroke_'	'	n/a
63.254	0.09	126508	keystroke_v	v	n/a
63.423	0.079	126846	keystroke_e	e	n/a
63.558	0.0895	127116	keystroke_Key.space	Key.space	n/a
63.839	0.0785	127678	keystroke_a	a	n/a
64.1315	0.068	128263	keystroke_p	p	n/a
64.5925	0.101	129185	keystroke_p	p	n/a
64.8625	0.0455	129725	keystroke_r	r	n/a
64.987	0.1005	129974	keystroke_o	o	n/a
65.2225	0.1015	130445	keystroke_p	p	n/a
65.37	0.0775	130740	keystroke_r	r	n/a
65.493	0.079	130986	keystroke_i	i	n/a
65.6055	0.0785	131211	keystroke_a	a	n/a
65.673	0.146	131346	keystroke_t	t	n/a
65.8305	0.112	131661	keystroke_e	e	n/a
65.9315	0.079	131863	keystroke_Key.space	Key.space	n/a
66.0665	0.0675	132133	keystroke_s	s	n/a
66.2355	0.101	132471	keystroke_u	u	n/a
66.28	0.1125	132560	keystroke_i	i	n/a
66.4265	0.135	132853	keystroke_t	t	n/a
66.5165	0.09	133033	keystroke_e	e	n/a
66.9665	0.0905	133933	keystroke_Key.enter	Key.enter	n/a
67.0655	5.943	134131	prompt	n/a	uzbekistan scoop handbags import\n
67.81	0.09	135620	keystroke_u	u	n/a
67.9345	0.0785	135869	keystroke_z	z	n/a
68.159	0.0565	136318	keystroke_b	b	n/a
68.3395	0.078	136679	keystroke_e	e	n/a
68.519	0.0785	137038	keystroke_k	k	n/a
68.6995	0.09	137399	keystroke_i	i	n/a
68.823	0.068	137646	keystroke_s	s	n/a
69.025	0.09	138050	keystroke_t	t	n/a
69.104	0.1125	138208	keystroke_a	a	n/a
69.2395	0.1345	138479	keystroke_n	n	n/a
69.4415	0.079	138883	keystroke_Key.space	Key.space	n/a
69.6105	0.056	139221	keystroke_s	s	n/a
69.745	0.09	139490	keystroke_c	c	n/a
69.8695	0.067	139739	keystroke_o	o	n/a
70.015	0.1135	140030	keystroke_o	o	n/a
70.1845	0.112	140369	keystroke_p	p	n/a
70.3525	0.079	140705	keystroke_Key.space	Key.space	n/a
70.4995	0.09	140999	keystroke_h	h	n/a
70.6005	0.067	141201	keystroke_a	a	n/a
70.702	0.101	141404	keystroke_n	n	n/a
70.8145	0.078	141629	keystroke_d	d	n/a
70.994	0.1125	141988	keystroke_b	b	n/a
71.1185	0.123	142237	keystroke_a	a	n/a
71.2305	0.0785	142461	keystroke_g	g	n/a
71.3545	0.0895	142709	keystroke_s	s	n/a
71.4665	0.0785	142933	keystroke_Key.space	Key.space	n/a
71.635	0.1465	143270	keystroke_i	i	n/a
71.77	0.192	143540	keystroke_m	m	n/a
71.9395	0.1685	143879	keystroke_p	p	n/a
72.097	0.1005	144194	keystroke_o	o	n/a
72.2205	0.101	144441	keystroke_r	r	n/a
72.468	0.0675	144936	keystroke_t	t	n/a
72.9175	0.09	145835	keystroke_Key.enter	Key.enter	n/a
73.0115	10.6625	146023	prompt	n/a	promotes fiji revised lodging\n
73.694	0.09	147388	keystroke_b	b	n/a
73.964	0.079	147928	keystroke_Key.backspace	Key.backspace	n/a
74.2565	0.101	148513	keystroke_p	p	n/a
75.686	0.0665	151372	keystroke_r	r	n/a
76.7545	0.101	153509	keystroke_Key.backspace	Key.backspace	n/a
76.9905	0.0895	153981	keystroke_Key.backspace	Key.backspace	n/a
77.3165	0.1015	154633	keystroke_p	p	n/a
77.486	0.067	154972	keystroke_r	r	n/a
77.587	0.135	155174	keystroke_o	o	n/a
77.7325	0.158	155465	keystroke_m	m	n/a
77.902	0.078	155804	keystroke_o	o	n/a
78.138	0.135	156276	keystroke_t	t	n/a
78.329	0.124	156658	keystroke_e	e	n/a
78.374	0.146	156748	keystroke_s	s	n/a
78.802	0.0895	157604	keystroke_Key.space	Key.space	n/a
79.0045	0.078	158009	keystroke_f	f	n/a
79.117	0.112	158234	keystroke_i	i	n/a
79.364	0.147	158728	keystroke_j	j	n/a
79.4765	0.1125	158953	keystroke_i	i	n/a
79.657	0.0785	159314	keystroke_Key.space	Key.space	n/a
79.8475	0.1125	159695	keystroke_r	r	n/a
79.9265	0.0905	159853	keystroke_e	e	n/a
80.096	0.089	160192	keystroke_v	v	n/a
80.242	0.0675	160484	keystroke_i	i	n/a
80.3435	0.0685	160687	keystroke_s	s	n/a
80.512	0.078	161024	keystroke_e	e	n/a
80.6805	0.0785	161361	keystroke_d	d	n/a
80.8045	0.0785	161609	keystroke_Key.space	Key.space	n/a
80.9505	0.0785	161901	keystroke_l	l	n/a
81.142	0.078	162284	keystroke_o	o	n/a
81.265	0.0225	162530	keystroke_g	g	n/a
81.502	0.1125	163004	keystroke_d	d	n/a
81.839	0.0675	163678	keystroke_Key.backspace	Key.backspace	n/a
82.0075	0.0795	164015	keystroke_Key.backspace	Key.backspace	n/a
82.177	0.0895	164354	keystroke_d	d	n/a
82.357	0.078	164714	keystroke_g	g	n/a
82.57	0.1355	165140	keystroke_i	i	n/a
82.818	0.135	165636	keystroke_n	n	n/a
83.155	0.0795	166310	keystroke_g	g	n/a
83.5605	0.1125	167121	keystroke_Key.enter	Key.enter	n/a
83.6775	6.9825	167355	prompt	n/a	columbus coastal purchasing treo\n
84.404	0.0785	168808	keystroke_c	c	n/a
84.5055	0.045	169011	keystroke_o	o	n/a
84.6745	0.112	169349	keystroke_l	l	n/a
84.843	0.079	169686	keystroke_u	u	n/a
85.045	0.113	170090	keystroke_m	m	n/a
85.574	0.0785	171148	keystroke_b	b	n/a
85.8785	0.101	171757	keystroke_u	u	n/a
86.0355	0.056	172071	keystroke_s	s	n/a
86.17	0.068	172340	keystroke_Key.space	Key.space	n/a
86.3505	0.067	172701	keystroke_c	c	n/a
86.4625	0.1125	172925	keystroke_o	o	n/a
86.587	0.0785	173174	keystroke_a	a	n/a
86.8125	0.0895	173625	keystroke_s	s	n/a
86.8905	0.0785	173781	keystroke_t	t	n/a
87.0365	0.068	174073	keystroke_a	a	n/a
87.172	0.079	174344	keystroke_l	l	n/a
87.3065	0.09	174613	keystroke_Key.space	Key.space	n/a
87.442	0.1345	174884	keystroke_p	p	n/a
87.689	0.09	175378	keystroke_u	u	n/a
87.959	0.0785	175918	keystroke_r	r	n/a
88.173	0.056	176346	keystroke_c	c	n/a
88.319	0.0795	176638	keystroke_h	h	n/a
88.398	0.0675	176796	keystroke_a	a	n/a
88.4545	0.1235	176909	keystroke_s	s	n/a
88.668	0.1235	177336	keystroke_i	i	n/a
88.7355	0.1235	177471	keystroke_n	n	n/a
88.8365	0.101	177673	keystroke_g	g	n/a
88.915	0.0905	177830	keystroke_Key.space	Key.space	n/a
89.05	0.09	178100	keystroke_t	t	n/a
89.2645	0.0445	178529	keystroke_e	e	n/a
89.613	0.09	179226	keystroke_Key.backspace	Key.backspace	n/a
89.8715	0.113	179743	keystroke_r	r	n/a
90.0405	0.101	180081	keystroke_e	e	n/a
90.232	0.09	180464	keystroke_o	o	n/a
90.547	0.112	181094	keystroke_Key.enter	Key.enter	n/a
90.664	3.8325	181328	prompt	n/a	judge honor trace white\n
91.255	0.0905	182510	keystroke_j	j	n/a
91.458	0.056	182916	keystroke_u	u	n/a
91.559	0.0905	183118	keystroke_d	d	n/a
91.7395	0.0785	183479	keystroke_g	g	n/a
91.885	0.1015	183770	keystroke_e	e	n/a
91.9645	0.078	183929	keystroke_Key.space	Key.space	n/a
92.1325	0.1355	184265	keystroke_h	h	n/a
92.279	0.146	184558	keystroke_o	o	n/a
92.4145	0.1235	184829	keystroke_n	n	n/a
92.5495	0.1015	185099	keystroke_o	o	n/a
92.7065	0.09	185413	keystroke_r	r	n/a
92.8075	0.079	185615	keystroke_Key.space	Key.space	n/a
92.9315	0.079	185863	keystroke_t	t	n/a
93.089	0.113	186178	keystroke_r	r	n/a
93.1565	0.1015	186313	keystroke_a	a	n/a
93.348	0.0785	186696	keystroke_c	c	n/a
93.5505	0.0675	187101	keystroke_e	e	n/a
93.629	0.068	187258	keystroke_Key.space	Key.space	n/a
93.7305	0.101	187461	keystroke_w	w	n/a
93.8545	0.1345	187709	keystroke_h	h	n/a
93.944	0.091	187888	keystroke_i	i	n/a
94.079	0.113	188158	keystroke_t	t	n/a
94.147	0.112	188294	keystroke_e	e	n/a
94.3835	0.112	188767	keystroke_Key.enter	Key.enter	n/a
94.4995	5.2395	188999	prompt	n/a	copied examine badge wikipedia\n
95.092	0.0555	190184	keystroke_c	c	n/a
95.204	0.169	190408	keystroke_o	o	n/a
95.3165	0.169	190633	keystroke_p	p	n/a
95.4625	0.1245	190925	keystroke_i	i	n/a
95.643	0.0785	191286	keystroke_e	e	n/a
95.8	0.1125	191600	keystroke_d	d	n/a
95.924	0.135	191848	keystroke_Key.space	Key.space	n/a
96.0925	0.068	192185	keystroke_e	e	n/a
96.262	0.112	192524	keystroke_x	x	n/a
96.3855	0.135	192771	keystroke_a	a	n/a
96.5315	0.1355	193063	keystroke_m	m	n/a
96.712	0.135	193424	keystroke_i	i	n/a
96.881	0.135	193762	keystroke_n	n	n/a
97.0495	0.1125	194099	keystroke_e	e	n/a
97.195	0.1015	194390	keystroke_Key.space	Key.space	n/a
97.421	0.101	194842	keystroke_b	b	n/a
97.589	0.113	195178	keystroke_a	a	n/a
97.8255	0.103	195651	keystroke_d	d	n/a
97.951	0.1455	195902	keystroke_g	g	n/a
98.085	0.135	196170	keystroke_e	e	n/a
98.1975	0.101	196395	keystroke_Key.space	Key.space	n/a
98.3325	0.081	196665	keystroke_w	w	n/a
98.456	0.0675	196912	keystroke_i	i	n/a
98.6135	0.0675	197227	keystroke_k	k	n/a
98.7595	0.079	197519	keystroke_i	i	n/a
98.9395	0.101	197879	keystroke_p	p	n/a
99.0515	0.0675	198103	keystroke_e	e	n/a
99.198	0.0675	198396	keystroke_d	d	n/a
99.312	0.1	198624	keystroke_i	i	n/a
99.4345	0.09	198869	keystroke_a	a	n/a
99.603	0.135	199206	keystroke_Key.enter	Key.enter	n/a
99.7425	5.498	199485	prompt	n/a	determined desktops bears scenic\n
100.268	0.0885	200536	keystroke_d	d	n/a
100.4575	0.09	200915	keystroke_e	e	n/a
100.615	0.0905	201230	keystroke_t	t	n/a
100.7955	0.135	201591	keystroke_e	e	n/a
100.8625	0.091	201725	keystroke_r	r	n/a
101.0315	0.1575	202063	keystroke_m	m	n/a
101.2455	0.124	202491	keystroke_i	i	n/a
101.347	0.1575	202694	keystroke_n	n	n/a
101.527	0.0555	203054	keystroke_e	e	n/a
101.662	0.146	203324	keystroke_d	d	n/a
101.7965	0.079	203593	keystroke_Key.space	Key.space	n/a
101.92	0.09	203840	keystroke_d	d	n/a
102.112	0.078	204224	keystroke_e	e	n/a
102.258	0.09	204516	keystroke_s	s	n/a
102.37	0.079	204740	keystroke_k	k	n/a
102.4825	0.068	204965	keystroke_t	t	n/a
102.607	0.1345	205214	keystroke_o	o	n/a
102.6965	0.113	205393	keystroke_p	p	n/a
102.798	0.09	205596	keystroke_s	s	n/a
102.9215	0.0905	205843	keystroke_Key.space	Key.space	n/a
103.1125	0.0795	206225	keystroke_b	b	n/a
103.2925	0.0905	206585	keystroke_e	e	n/a
103.4285	0.1455	206857	keystroke_a	a	n/a
103.5965	0.09	207193	keystroke_r	r	n/a
103.8325	0.0795	207665	keystroke_s	s	n/a
104.0245	0.0785	208049	keystroke_Key.space	Key.space	n/a
104.114	0.09	208228	keystroke_s	s	n/a
104.2825	0.079	208565	keystroke_c	c	n/a
104.474	0.056	208948	keystroke_e	e	n/a
104.6095	0.112	209219	keystroke_n	n	n/a
104.7325	0.135	209465	keystroke_i	i	n/a
104.902	0.09	209804	keystroke_c	c	n/a
105.127	0.1125	210254	keystroke_Key.enter	Key.enter	n/a
105.2435	7.7595	210487	prompt	n/a	surely hockey passes episode\n
105.7905	0.1015	211581	keystroke_s	s	n/a
105.9815	0.1035	211963	keystroke_u	u	n/a
106.139	0.09	212278	keystroke_r	r	n/a
106.3755	0.0675	212751	keystroke_l	l	n/a
106.4995	0.067	212999	keystroke_e	e	n/a
106.6795	0.1005	213359	keystroke_y	y	n/a
107.208	0.0455	214416	keystroke_Key.backspace	Key.backspace	n/a
107.3545	0.033	214709	keystroke_Key.backspace	Key.backspace	n/a
107.489	0.1125	214978	keystroke_Key.backspace	Key.backspace	n/a
107.7815	0.068	215563	keystroke_e	e	n/a
107.9625	0.0555	215925	keystroke_l	l	n/a
108.2875	0.135	216575	keystroke_y	y	n/a
108.8955	0.0895	217791	keystroke_Key.space	Key.space	n/a
109.143	0.1125	218286	keystroke_h	h	n/a
109.245	0.0775	218490	keystroke_o	o	n/a
109.3565	0.09	218713	keystroke_c	c	n/a
109.4575	0.0675	218915	keystroke_k	k	n/a
109.885	0.0675	219770	keystroke_e	e	n/a
110.099	0.1015	220198	keystroke_y	y	n/a
110.313	0.079	220626	keystroke_Key.space	Key.space	n/a
110.4595	0.1355	220919	keystroke_p	p	n/a
110.6725	0.113	221345	keystroke_a	a	n/a
110.8755	0.0565	221751	keystroke_s	s	n/a
111.055	0.136	222110	keystroke_s	s	n/a
111.325	0.1365	222650	keystroke_e	e	n/a
111.4045	0.101	222809	keystroke_s	s	n/a
111.5395	0.112	223079	keystroke_Key.space	Key.space	n/a
111.742	0.0675	223484	keystroke_e	e	n/a
112.0005	0.135	224001	keystroke_p	p	n/a
112.1695	0.1005	224339	keystroke_i	i	n/a
112.315	0.0565	224630	keystroke_s	s	n/a
112.462	0.1005	224924	keystroke_o	o	n/a
112.574	0.0675	225148	keystroke_d	d	n/a
112.7095	0.0675	225419	keystroke_e	e	n/a
112.889	0.113	225778	keystroke_Key.enter	Key.enter	n/a
113.006	4.6205	226012	prompt	n/a	slowly tribunal utah danny\n
113.474	0.0905	226948	keystroke_s	s	n/a
113.6095	0.0785	227219	keystroke_l	l	n/a
113.7665	0.09	227533	keystroke_o	o	n/a
113.879	0.0675	227758	keystroke_w	w	n/a
114.003	0.056	228006	keystroke_l	l	n/a
114.1835	0.101	228367	keystroke_y	y	n/a
114.3065	0.113	228613	keystroke_Key.space	Key.space	n/a
114.43	0.0675	228860	keystroke_t	t	n/a
114.6215	0.1015	229243	keystroke_r	r	n/a
114.7455	0.09	229491	keystroke_i	i	n/a
114.892	0.101	229784	keystroke_b	b	n/a
114.993	0.0785	229986	keystroke_u	u	n/a
115.2065	0.1015	230413	keystroke_n	n	n/a
115.319	0.0795	230638	keystroke_a	a	n/a
115.432	0.08	230864	keystroke_l	l	n/a
115.545	0.1005	231090	keystroke_Key.space	Key.space	n/a
115.702	0.0895	231404	keystroke_u	u	n/a
115.825	0.079	231650	keystroke_t	t	n/a
115.949	0.09	231898	keystroke_a	a	n/a
116.1405	0.1015	232281	keystroke_h	h	n/a
116.4105	0.0785	232821	keystroke_Key.space	Key.space	n/a
116.6695	0.067	233339	keystroke_d	d	n/a
116.8045	0.1015	233609	keystroke_a	a	n/a
116.9395	0.067	233879	keystroke_n	n	n/a
117.074	0.09	234148	keystroke_n	n	n/a
117.2765	0.079	234553	keystroke_y	y	n/a
117.5245	0.101	235049	keystroke_Key.enter	Key.enter	n/a
117.6295	4.688	235259	prompt	n/a	acre picked struggle document\n
118.222	0.067	236444	keystroke_a	a	n/a
118.368	0.09	236736	keystroke_c	c	n/a
118.6045	0.124	237209	keystroke_r	r	n/a
118.683	0.1015	237366	keystroke_e	e	n/a
118.818	0.112	237636	keystroke_Key.space	Key.space	n/a
119.0315	0.1355	238063	keystroke_p	p	n/a
119.099	0.09	238198	keystroke_i	i	n/a
119.2115	0.113	238423	keystroke_c	c	n/a
119.335	0.09	238670	keystroke_k	k	n/a
119.4365	0.0685	238873	keystroke_e	e	n/a
119.5955	0.0885	239191	keystroke_d	d	n/a
119.6845	0.101	239369	keystroke_Key.space	Key.space	n/a
119.7965	0.1465	239593	keystroke_s	s	n/a
119.887	0.135	239774	keystroke_t	t	n/a
120.123	0.0785	240246	keystroke_r	r	n/a
120.258	0.0785	240516	keystroke_u	u	n/a
120.37	0.057	240740	keystroke_g	g	n/a
120.495	0.0895	240990	keystroke_g	g	n/a
120.629	0.0905	241258	keystroke_l	l	n/a
120.7305	0.101	241461	keystroke_e	e	n/a
120.821	0.0555	241642	keystroke_Key.space	Key.space	n/a
121.0455	0.1125	242091	keystroke_d	d	n/a
121.1245	0.112	242249	keystroke_o	o	n/a
121.2815	0.0905	242563	keystroke_c	c	n/a
121.4285	0.078	242857	keystroke_u	u	n/a
121.6305	0.09	243261	keystroke_m	m	n/a
121.7545	0.091	243509	keystroke_e	e	n/a
121.8665	0.1015	243733	keystroke_n	n	n/a
121.9795	0.0675	243959	keystroke_t	t	n/a
122.204	0.1125	244408	keystroke_Key.enter	Key.enter	n/a
122.32	8.1315	244640	prompt	n/a	acceptable directed continuing expectations\n
122.8	0.0455	245600	keystroke_a	a	n/a
123.0815	0.0455	246163	keystroke_p	p	n/a
123.262	0.0335	246524	keystroke_p	p	n/a
123.464	0.068	246928	keystroke_Key.backspace	Key.backspace	n/a
123.6115	0.0435	247223	keystroke_Key.backspace	Key.backspace	n/a
123.802	0.056	247604	keystroke_c	c	n/a
123.925	0.0675	247850	keystroke_c	c	n/a
124.1175	0.067	248235	keystroke_e	e	n/a
124.3305	0.1125	248661	keystroke_p	p	n/a
124.5215	0.079	249043	keystroke_t	t	n/a
124.679	0.101	249358	keystroke_a	a	n/a
124.8705	0.1015	249741	keystroke_b	b	n/a
125.017	0.09	250034	keystroke_l	l	n/a
125.129	0.1355	250258	keystroke_e	e	n/a
125.276	0.078	250552	keystroke_Key.space	Key.space	n/a
125.6135	0.0785	251227	keystroke_d	d	n/a
125.7145	0.0895	251429	keystroke_i	i	n/a
125.9055	0.146	251811	keystroke_r	r	n/a
125.984	0.1015	251968	keystroke_e	e	n/a
126.209	0.079	252418	keystroke_c	c	n/a
126.423	0.124	252846	keystroke_t	t	n/a
126.502	0.101	253004	keystroke_e	e	n/a
126.6705	0.1125	253341	keystroke_d	d	n/a
126.795	0.101	253590	keystroke_Key.space	Key.space	n/a
126.952	0.124	253904	keystroke_c	c	n/a
127.0535	0.146	254107	keystroke_o	o	n/a
127.177	0.1235	254354	keystroke_n	n	n/a
127.3455	0.045	254691	keystroke_t	t	n/a
127.436	0.1345	254872	keystroke_i	i	n/a
127.5255	0.125	255051	keystroke_n	n	n/a
127.7845	0.112	255569	keystroke_u	u	n/a
128.009	0.1575	256018	keystroke_i	i	n/a
128.2685	0.101	256537	keystroke_n	n	n/a
128.448	0.0675	256896	keystroke_g	g	n/a
128.595	0.089	257190	keystroke_Key.space	Key.space	n/a
128.752	0.0565	257504	keystroke_e	e	n/a
128.887	0.1015	257774	keystroke_x	x	n/a
129.0225	0.0785	258045	keystroke_p	p	n/a
129.1235	0.067	258247	keystroke_e	e	n/a
129.3035	0.067	258607	keystroke_c	c	n/a
129.4835	0.067	258967	keystroke_t	t	n/a
129.5845	0.112	259169	keystroke_a	a	n/a
129.663	0.0565	259326	keystroke_t	t	n/a
129.7865	0.192	259573	keystroke_i	i	n/a
129.854	0.1465	259708	keystroke_o	o	n/a
129.9665	0.124	259933	keystroke_n	n	n/a
130.113	0.0675	260226	keystroke_s	s	n/a
130.3155	0.135	260631	keystroke_Key.enter	Key.enter	n/a
130.454	4.5985	260908	prompt	n/a	enjoy bicycle moms jane\n
131.148	0.0565	262296	keystroke_e	e	n/a
131.272	0.09	262544	keystroke_n	n	n/a
131.463	0.1125	262926	keystroke_j	j	n/a
131.677	0.112	263354	keystroke_o	o	n/a
131.7555	0.124	263511	keystroke_y	y	n/a
131.902	0.067	263804	keystroke_Key.space	Key.space	n/a
132.048	0.1015	264096	keystroke_b	b	n/a
132.184	0.1005	264368	keystroke_i	i	n/a
132.318	0.0785	264636	keystroke_c	c	n/a
132.4755	0.1125	264951	keystroke_y	y	n/a
132.655	0.091	265310	keystroke_c	c	n/a
132.8915	0.0905	265783	keystroke_l	l	n/a
133.095	0.0775	266190	keystroke_e	e	n/a
133.2515	0.0675	266503	keystroke_Key.space	Key.space	n/a
133.4095	0.1125	266819	keystroke_m	m	n/a
133.512	0.156	267024	keystroke_o	o	n/a
133.634	0.1245	267268	keystroke_m	m	n/a
133.792	0.0445	267584	keystroke_s	s	n/a
133.916	0.0795	267832	keystroke_Key.space	Key.space	n/a
134.0395	0.112	268079	keystroke_j	j	n/a
134.163	0.1015	268326	keystroke_a	a	n/a
134.2865	0.1125	268573	keystroke_n	n	n/a
134.433	0.1125	268866	keystroke_e	e	n/a
134.9505	0.101	269901	keystroke_Key.enter	Key.enter	n/a
135.0555	6.3195	270111	prompt	n/a	southwest possibilities immediate possible\n
135.7385	0.0785	271477	keystroke_s	s	n/a
136.076	0.123	272152	keystroke_o	o	n/a
136.177	0.135	272354	keystroke_u	u	n/a
136.334	0.0905	272668	keystroke_t	t	n/a
136.4695	0.112	272939	keystroke_h	h	n/a
136.6505	0.078	273301	keystroke_w	w	n/a
136.796	0.0895	273592	keystroke_e	e	n/a
136.953	0.135	273906	keystroke_s	s	n/a
137.099	0.113	274198	keystroke_t	t	n/a
137.2235	0.0785	274447	keystroke_Key.space	Key.space	n/a
137.3585	0.157	274717	keystroke_p	p	n/a
137.4705	0.09	274941	keystroke_o	o	n/a
137.6055	0.045	275211	keystroke_s	s	n/a
137.7515	0.057	275503	keystroke_s	s	n/a
137.8195	0.09	275639	keystroke_i	i	n/a
137.9545	0.101	275909	keystroke_b	b	n/a
138.0665	0.1465	276133	keystroke_i	i	n/a
138.179	0.169	276358	keystroke_l	l	n/a
138.3145	0.1125	276629	keystroke_i	i	n/a
138.472	0.101	276944	keystroke_t	t	n/a
138.5845	0.0895	277169	keystroke_i	i	n/a
138.697	0.1345	277394	keystroke_e	e	n/a
138.7755	0.0905	277551	keystroke_s	s	n/a
138.877	0.101	277754	keystroke_Key.space	Key.space	n/a
139.0685	0.0785	278137	keystroke_i	i	n/a
139.102	0.0785	278204	keystroke_m	m	n/a
139.259	0.0905	278518	keystroke_m	m	n/a
139.406	0.0675	278812	keystroke_e	e	n/a
139.574	0.0785	279148	keystroke_d	d	n/a
139.698	0.1025	279396	keystroke_i	i	n/a
139.7885	0.112	279577	keystroke_a	a	n/a
139.889	0.1355	279778	keystroke_t	t	n/a
139.991	0.112	279982	keystroke_e	e	n/a
140.08	0.0905	280160	keystroke_Key.space	Key.space	n/a
140.2505	0.1565	280501	keystroke_p	p	n/a
140.3505	0.09	280701	keystroke_o	o	n/a
140.4515	0.0455	280903	keystroke_s	s	n/a
140.587	0.0785	281174	keystroke_s	s	n/a
140.6765	0.102	281353	keystroke_i	i	n/a
140.8115	0.102	281623	keystroke_b	b	n/a
140.902	0.1125	281804	keystroke_l	l	n/a
141.0365	0.0905	282073	keystroke_e	e	n/a
141.262	0.112	282524	keystroke_Key.enter	Key.enter	n/a
141.38	5.271	282760	prompt	n/a	papua all vertical erik\n
142.049	0.0675	284098	keystroke_p	p	n/a
142.387	0.0565	284774	keystroke_a	a	n/a
142.7355	0.1125	285471	keystroke_p	p	n/a
143.174	0.0675	286348	keystroke_u	u	n/a
143.4215	0.079	286843	keystroke_a	a	n/a
143.6135	0.101	287227	keystroke_Key.space	Key.space	n/a
143.759	0.1125	287518	keystroke_a	a	n/a
143.883	0.0675	287766	keystroke_l	l	n/a
144.029	0.079	288058	keystroke_l	l	n/a
144.1415	0.1275	288283	keystroke_Key.space	Key.space	n/a
144.3215	0.1355	288643	keystroke_v	v	n/a
144.5355	0.101	289071	keystroke_e	e	n/a
144.5805	0.101	289161	keystroke_r	r	n/a
144.829	0.0105	289658	keystroke_t	t	n/a
144.896	0.1005	289792	keystroke_i	i	n/a
144.9855	0.1015	289971	keystroke_c	c	n/a
145.0985	0.078	290197	keystroke_a	a	n/a
145.2215	0.09	290443	keystroke_l	l	n/a
145.379	0.079	290758	keystroke_Key.space	Key.space	n/a
145.5365	0.1135	291073	keystroke_e	e	n/a
145.6155	0.1015	291231	keystroke_r	r	n/a
145.818	0.0785	291636	keystroke_i	i	n/a
146.2565	0.1355	292513	keystroke_k	k	n/a
146.549	0.1015	293098	keystroke_Key.enter	Key.enter	n/a
146.654	4.61	293308	prompt	n/a	learned lately lecture wife\n
147.2465	0.091	294493	keystroke_l	l	n/a
147.3495	0.1005	294699	keystroke_e	e	n/a
147.417	0.1345	294834	keystroke_a	a	n/a
147.507	0.123	295014	keystroke_r	r	n/a
147.675	0.101	295350	keystroke_n	n	n/a
147.7875	0.059	295575	keystroke_e	e	n/a
147.923	0.123	295846	keystroke_d	d	n/a
148.035	0.0785	296070	keystroke_Key.space	Key.space	n/a
148.1585	0.0895	296317	keystroke_l	l	n/a
148.2365	0.0905	296473	keystroke_a	a	n/a
148.3385	0.112	296677	keystroke_t	t	n/a
148.4285	0.1005	296857	keystroke_e	e	n/a
148.563	0.0675	297126	keystroke_l	l	n/a
148.6985	0.1015	297397	keystroke_y	y	n/a
148.845	0.0785	297690	keystroke_Key.space	Key.space	n/a
148.9455	0.0895	297891	keystroke_l	l	n/a
149.058	0.0565	298116	keystroke_e	e	n/a
149.2155	0.0675	298431	keystroke_c	c	n/a
149.3955	0.056	298791	keystroke_t	t	n/a
149.553	0.09	299106	keystroke_u	u	n/a
149.6765	0.1355	299353	keystroke_r	r	n/a
149.812	0.1235	299624	keystroke_e	e	n/a
149.9245	0.146	299849	keystroke_Key.space	Key.space	n/a
150.0935	0.1235	300187	keystroke_w	w	n/a
150.1385	0.0905	300277	keystroke_e	e	n/a
150.5315	0.0565	301063	keystroke_Key.backspace	Key.backspace	n/a
150.7465	0.0775	301493	keystroke_i	i	n/a
150.847	0.1235	301694	keystroke_f	f	n/a
150.948	0.09	301896	keystroke_e	e	n/a
151.162	0.101	302324	keystroke_Key.enter	Key.enter	n/a
151.267	5.498	302534	prompt	n/a	favors oklahoma nine index\n
151.9265	0.103	303853	keystroke_f	f	n/a
152.0295	0.0885	304059	keystroke_a	a	n/a
152.1625	0.0905	304325	keystroke_v	v	n/a
152.2755	0.0905	304551	keystroke_o	o	n/a
152.4105	0.0675	304821	keystroke_r	r	n/a
152.714	0.056	305428	keystroke_s	s	n/a
152.883	0.0675	305766	keystroke_Key.space	Key.space	n/a
153.243	0.091	306486	keystroke_o	o	n/a
153.4115	0.09	306823	keystroke_k	k	n/a
153.693	0.1355	307386	keystroke_l	l	n/a
153.9075	0.0665	307815	keystroke_a	a	n/a
154.087	0.112	308174	keystroke_h	h	n/a
154.2675	0.157	308535	keystroke_o	o	n/a
154.447	0.112	308894	keystroke_m	m	n/a
154.5705	0.079	309141	keystroke_a	a	n/a
154.672	0.0785	309344	keystroke_Key.space	Key.space	n/a
154.8405	0.1575	309681	keystroke_n	n	n/a
155.021	0.1455	310042	keystroke_i	i	n/a
155.1555	0.124	310311	keystroke_n	n	n/a
155.2905	0.101	310581	keystroke_e	e	n/a
155.459	0.09	310918	keystroke_Key.space	Key.space	n/a
155.7625	0.147	311525	keystroke_i	i	n/a
155.8535	0.112	311707	keystroke_n	n	n/a
155.977	0.0785	311954	keystroke_d	d	n/a
156.123	0.056	312246	keystroke_e	e	n/a
156.3145	0.09	312629	keystroke_x	x	n/a
156.629	0.135	313258	keystroke_Key.enter	Key.enter	n/a
156.768	5.341	313536	prompt	n/a	gmbh happy feof looks\n
157.4505	0.079	314901	keystroke_g	g	n/a
157.9235	0.1345	315847	keystroke_m	m	n/a
158.2835	0.0675	316567	keystroke_b	b	n/a
158.4405	0.113	316881	keystroke_p	p	n/a
158.902	0.079	317804	keystroke_Key.backspace	Key.backspace	n/a
159.206	0.0895	318412	keystroke_h	h	n/a
159.5095	0.0675	319019	keystroke_Key.space	Key.space	n/a
159.7005	0.079	319401	keystroke_h	h	n/a
159.813	0.056	319626	keystroke_a	a	n/a
159.914	0.045	319828	keystroke_p	p	n/a
160.083	0.079	320166	keystroke_p	p	n/a
160.2185	0.0895	320437	keystroke_y	y	n/a
160.331	0.0895	320662	keystroke_Key.space	Key.space	n/a
160.4995	0.1005	320999	keystroke_f	f	n/a
160.634	0.1015	321268	keystroke_e	e	n/a
160.8035	0.078	321607	keystroke_o	o	n/a
160.9495	0.056	321899	keystroke_f	f	n/a
161.1405	0.056	322281	keystroke_Key.space	Key.space	n/a
161.2305	0.0785	322461	keystroke_l	l	n/a
161.3885	0.067	322777	keystroke_o	o	n/a
161.5565	0.1015	323113	keystroke_o	o	n/a
161.602	0.1235	323204	keystroke_k	k	n/a
161.748	0.0785	323496	keystroke_s	s	n/a
162.018	0.09	324036	keystroke_Key.enter	Key.enter	n/a
162.1115	4.8685	324223	prompt	n/a	buyer addressing dozens farm\n
162.7945	0.0675	325589	keystroke_b	b	n/a
162.907	0.067	325814	keystroke_u	u	n/a
163.199	0.079	326398	keystroke_y	y	n/a
163.5705	0.0585	327141	keystroke_e	e	n/a
163.762	0.067	327524	keystroke_r	r	n/a
163.8515	0.079	327703	keystroke_Key.space	Key.space	n/a
163.998	0.079	327996	keystroke_a	a	n/a
164.189	0.045	328378	keystroke_d	d	n/a
164.313	0.0895	328626	keystroke_d	d	n/a
164.5265	0.0905	329053	keystroke_r	r	n/a
164.5605	0.09	329121	keystroke_e	e	n/a
164.7515	0.0565	329503	keystroke_s	s	n/a
164.977	0.011	329954	keystroke_s	s	n/a
165.045	0.1235	330090	keystroke_i	i	n/a
165.1005	0.135	330201	keystroke_n	n	n/a
165.191	0.0785	330382	keystroke_g	g	n/a
165.2585	0.078	330517	keystroke_Key.space	Key.space	n/a
165.4045	0.0675	330809	keystroke_d	d	n/a
165.529	0.078	331058	keystroke_o	o	n/a
165.629	0.1015	331258	keystroke_z	z	n/a
165.798	0.079	331596	keystroke_e	e	n/a
165.912	0.1	331824	keystroke_n	n	n/a
166.0235	0.079	332047	keystroke_s	s	n/a
166.147	0.09	332294	keystroke_Key.space	Key.space	n/a
166.293	0.102	332586	keystroke_f	f	n/a
166.406	0.1455	332812	keystroke_a	a	n/a
166.5405	0.0675	333081	keystroke_r	r	n/a
166.6535	0.09	333307	keystroke_m	m	n/a
166.8665	0.1125	333733	keystroke_Key.enter	Key.enter	n/a
166.983	5.093	333966	prompt	n/a	thanks grants architectural enzyme\n
167.6655	0.0565	335331	keystroke_t	t	n/a
167.7555	0.09	335511	keystroke_h	h	n/a
167.8565	0.0795	335713	keystroke_a	a	n/a
167.947	0.1345	335894	keystroke_n	n	n/a
168.048	0.1015	336096	keystroke_k	k	n/a
168.1615	0.1	336323	keystroke_s	s	n/a
168.2505	0.1015	336501	keystroke_Key.space	Key.space	n/a
168.3515	0.079	336703	keystroke_g	g	n/a
168.532	0.09	337064	keystroke_r	r	n/a
168.5995	0.0895	337199	keystroke_a	a	n/a
168.7345	0.112	337469	keystroke_n	n	n/a
168.858	0.056	337716	keystroke_t	t	n/a
169.0265	0.1015	338053	keystroke_s	s	n/a
169.095	0.0895	338190	keystroke_Key.space	Key.space	n/a
169.263	0.135	338526	keystroke_a	a	n/a
169.4095	0.067	338819	keystroke_r	r	n/a
169.578	0.1015	339156	keystroke_c	c	n/a
169.7015	0.113	339403	keystroke_h	h	n/a
169.7805	0.0785	339561	keystroke_i	i	n/a
169.8935	0.135	339787	keystroke_t	t	n/a
169.9835	0.0895	339967	keystroke_e	e	n/a
170.152	0.0895	340304	keystroke_c	c	n/a
170.3545	0.0675	340709	keystroke_t	t	n/a
170.4555	0.113	340911	keystroke_u	u	n/a
170.557	0.079	341114	keystroke_r	r	n/a
170.636	0.0895	341272	keystroke_a	a	n/a
170.7365	0.1015	341473	keystroke_l	l	n/a
170.8615	0.067	341723	keystroke_Key.space	Key.space	n/a
170.9615	0.079	341923	keystroke_e	e	n/a
171.0855	0.1125	342171	keystroke_n	n	n/a
171.198	0.101	342396	keystroke_z	z	n/a
171.4005	0.101	342801	keystroke_y	y	n/a
171.6365	0.1015	343273	keystroke_m	m	n/a
171.7615	0.078	343523	keystroke_e	e	n/a
171.9855	0.09	343971	keystroke_Key.enter	Key.enter	n/a
172.08	4.5075	344160	prompt	n/a	networking completed fusion baby\n
172.7505	0.101	345501	keystroke_n	n	n/a
172.829	0.079	345658	keystroke_e	e	n/a
172.9305	0.068	345861	keystroke_t	t	n/a
173.066	0.1015	346132	keystroke_w	w	n/a
173.1675	0.0785	346335	keystroke_o	o	n/a
173.2685	0.067	346537	keystroke_r	r	n/a
173.3465	0.09	346693	keystroke_k	k	n/a
173.538	0.1235	347076	keystroke_i	i	n/a
173.606	0.1125	347212	keystroke_n	n	n/a
173.6845	0.0895	347369	keystroke_g	g	n/a
173.7405	0.0905	347481	keystroke_Key.space	Key.space	n/a
173.9325	0.0665	347865	keystroke_c	c	n/a
173.9765	0.124	347953	keystroke_o	o	n/a
174.0665	0.1805	348133	keystroke_m	m	n/a
174.236	0.067	348472	keystroke_p	p	n/a
174.2585	0.1005	348517	keystroke_l	l	n/a
174.3935	0.1125	348787	keystroke_e	e	n/a
174.4835	0.1345	348967	keystroke_t	t	n/a
174.5845	0.101	349169	keystroke_e	e	n/a
174.7415	0.1125	349483	keystroke_d	d	n/a
174.8545	0.057	349709	keystroke_Key.space	Key.space	n/a
174.9665	0.09	349933	keystroke_f	f	n/a
175.1585	0.067	350317	keystroke_u	u	n/a
175.2365	0.0805	350473	keystroke_s	s	n/a
175.3495	0.169	350699	keystroke_i	i	n/a
175.462	0.1345	350924	keystroke_o	o	n/a
175.574	0.113	351148	keystroke_n	n	n/a
175.698	0.08	351396	keystroke_Key.space	Key.space	n/a
175.878	0.09	351756	keystroke_b	b	n/a
175.9905	0.09	351981	keystroke_a	a	n/a
176.0585	0.078	352117	keystroke_b	b	n/a
176.1935	0.09	352387	keystroke_y	y	n/a
176.452	0.1345	352904	keystroke_Key.enter	Key.enter	n/a
176.5905	4.79	353181	prompt	n/a	periodically fighter takes attacks\n
177.1945	0.112	354389	keystroke_p	p	n/a
177.318	0.09	354636	keystroke_e	e	n/a
177.374	0.0905	354748	keystroke_r	r	n/a
177.476	0.1355	354952	keystroke_i	i	n/a
177.543	0.1125	355086	keystroke_o	o	n/a
177.6665	0.0795	355333	keystroke_d	d	n/a
177.802	0.0895	355604	keystroke_i	i	n/a
177.903	0.0785	355806	keystroke_c	c	n/a
177.993	0.079	355986	keystroke_a	a	n/a
178.0615	0.0665	356123	keystroke_l	l	n/a
178.2185	0.101	356437	keystroke_l	l	n/a
178.2965	0.1015	356593	keystroke_y	y	n/a
178.4205	0.091	356841	keystroke_Key.space	Key.space	n/a
178.6005	0.0905	357201	keystroke_f	f	n/a
178.6685	0.0895	357337	keystroke_i	i	n/a
178.781	0.112	357562	keystroke_g	g	n/a
178.8705	0.102	357741	keystroke_h	h	n/a
179.017	0.0895	358034	keystroke_t	t	n/a
179.174	0.147	358348	keystroke_e	e	n/a
179.253	0.124	358506	keystroke_r	r	n/a
179.3435	0.0895	358687	keystroke_Key.space	Key.space	n/a
179.546	0.09	359092	keystroke_t	t	n/a
179.647	0.0895	359294	keystroke_a	a	n/a
179.782	0.101	359564	keystroke_k	k	n/a
179.8715	0.1355	359743	keystroke_e	e	n/a
179.9395	0.112	359879	keystroke_s	s	n/a
180.029	0.113	360058	keystroke_Key.space	Key.space	n/a
180.187	0.0795	360374	keystroke_a	a	n/a
180.232	0.09	360464	keystroke_t	t	n/a
180.4005	0.1015	360801	keystroke_t	t	n/a
180.5695	0.1345	361139	keystroke_a	a	n/a
180.7835	0.0785	361567	keystroke_c	c	n/a
180.8625	0.1005	361725	keystroke_k	k	n/a
181.008	0.09	362016	keystroke_s	s	n/a
181.245	0.1345	362490	keystroke_Key.enter	Key.enter	n/a
181.3835	6.8935	362767	prompt	n/a	portrait desirable important programming\n
181.942	0.1125	363884	keystroke_p	p	n/a
182.1785	0.0895	364357	keystroke_o	o	n/a
182.3355	0.079	364671	keystroke_r	r	n/a
182.5155	0.079	365031	keystroke_t	t	n/a
182.876	0.0895	365752	keystroke_r	r	n/a
183.033	0.1015	366066	keystroke_a	a	n/a
183.202	0.1015	366404	keystroke_i	i	n/a
183.348	0.056	366696	keystroke_t	t	n/a
183.5615	0.0345	367123	keystroke_Key.space	Key.space	n/a
183.809	0.057	367618	keystroke_d	d	n/a
183.989	0.0795	367978	keystroke_e	e	n/a
184.035	0.067	368070	keystroke_s	s	n/a
184.282	0.0895	368564	keystroke_i	i	n/a
184.5195	0.089	369039	keystroke_r	r	n/a
185.0015	0.09	370003	keystroke_a	a	n/a
185.204	0.0795	370408	keystroke_b	b	n/a
185.3285	0.1005	370657	keystroke_l	l	n/a
185.463	0.0675	370926	keystroke_e	e	n/a
185.564	0.0675	371128	keystroke_Key.space	Key.space	n/a
185.745	0.146	371490	keystroke_i	i	n/a
185.846	0.1795	371692	keystroke_m	m	n/a
185.9915	0.147	371983	keystroke_p	p	n/a
186.104	0.0905	372208	keystroke_o	o	n/a
186.2165	0.0905	372433	keystroke_r	r	n/a
186.4085	0.0785	372817	keystroke_t	t	n/a
186.532	0.0565	373064	keystroke_Key.space	Key.space	n/a
186.7005	0.1015	373401	keystroke_p	p	n/a
186.824	0.0795	373648	keystroke_r	r	n/a
186.9145	0.0785	373829	keystroke_o	o	n/a
187.0385	0.057	374077	keystroke_g	g	n/a
187.196	0.0895	374392	keystroke_r	r	n/a
187.252	0.0905	374504	keystroke_a	a	n/a
187.331	0.067	374662	keystroke_m	m	n/a
187.4995	0.101	374999	keystroke_m	m	n/a
187.668	0.135	375336	keystroke_i	i	n/a
187.8145	0.101	375629	keystroke_n	n	n/a
187.9615	0.067	375923	keystroke_g	g	n/a
188.163	0.1125	376326	keystroke_Key.enter	Key.enter	n/a
188.2805	7.8035	376561	prompt	n/a	accommodation soccer similar terrorism\n
188.895	0.056	377790	keystroke_a	a	n/a
189.052	0.09	378104	keystroke_c	c	n/a
189.1985	0.0795	378397	keystroke_c	c	n/a
189.2995	0.101	378599	keystroke_o	o	n/a
189.3555	0.135	378711	keystroke_m	m	n/a
189.6035	0.146	379207	keystroke_m	m	n/a
189.7385	0.09	379477	keystroke_o	o	n/a
189.8735	0.067	379747	keystroke_d	d	n/a
190.0305	0.09	380061	keystroke_a	a	n/a
190.109	0.0795	380218	keystroke_t	t	n/a
190.245	0.191	380490	keystroke_i	i	n/a
190.2895	0.1575	380579	keystroke_o	o	n/a
190.425	0.0895	380850	keystroke_n	n	n/a
190.5035	0.0895	381007	keystroke_Key.space	Key.space	n/a
190.662	0.066	381324	keystroke_s	s	n/a
190.8295	0.079	381659	keystroke_o	o	n/a
190.931	0.0675	381862	keystroke_c	c	n/a
191.066	0.0785	382132	keystroke_c	c	n/a
191.279	0.09	382558	keystroke_e	e	n/a
191.3465	0.1125	382693	keystroke_r	r	n/a
191.5945	0.079	383189	keystroke_Key.space	Key.space	n/a
191.8085	0.0895	383617	keystroke_s	s	n/a
192.0215	0.113	384043	keystroke_i	i	n/a
192.1235	0.146	384247	keystroke_m	m	n/a
192.247	0.181	384494	keystroke_i	i	n/a
192.382	0.157	384764	keystroke_l	l	n/a
192.5505	0.1125	385101	keystroke_a	a	n/a
192.6405	0.113	385281	keystroke_r	r	n/a
192.742	0.079	385484	keystroke_Key.space	Key.space	n/a
192.933	0.0675	385866	keystroke_t	t	n/a
193.0685	0.0675	386137	keystroke_e	e	n/a
193.2145	0.067	386429	keystroke_r	r	n/a
193.406	0.101	386812	keystroke_o	o	n/a
193.7095	0.0685	387419	keystroke_Key.backspace	Key.backspace	n/a
193.968	0.068	387936	keystroke_r	r	n/a
194.1035	0.112	388207	keystroke_o	o	n/a
194.6095	0.045	389219	keystroke_s	s	n/a
195.0145	0.0785	390029	keystroke_Key.backspace	Key.backspace	n/a
195.229	0.0445	390458	keystroke_r	r	n/a
195.397	0.079	390794	keystroke_i	i	n/a
195.51	0.0785	391020	keystroke_s	s	n/a
195.622	0.101	391244	keystroke_m	m	n/a
195.948	0.135	391896	keystroke_Key.enter	Key.enter	n/a
196.087	5.342	392174	prompt	n/a	reach rentals kerry cumulative\n
196.7585	0.1005	393517	keystroke_r	r	n/a
196.9835	0.0555	393967	keystroke_e	e	n/a
197.1185	0.09	394237	keystroke_a	a	n/a
197.3095	0.0685	394619	keystroke_c	c	n/a
197.4445	0.1015	394889	keystroke_h	h	n/a
197.557	0.101	395114	keystroke_Key.space	Key.space	n/a
197.714	0.1355	395428	keystroke_r	r	n/a
197.8045	0.113	395609	keystroke_e	e	n/a
197.9955	0.146	395991	keystroke_n	n	n/a
198.131	0.0675	396262	keystroke_t	t	n/a
198.2435	0.123	396487	keystroke_a	a	n/a
198.3555	0.1125	396711	keystroke_l	l	n/a
198.4795	0.0905	396959	keystroke_s	s	n/a
198.6035	0.067	397207	keystroke_Key.space	Key.space	n/a
198.772	0.0675	397544	keystroke_k	k	n/a
198.8625	0.134	397725	keystroke_e	e	n/a
198.9855	0.101	397971	keystroke_r	r	n/a
199.143	0.09	398286	keystroke_r	r	n/a
199.2895	0.1125	398579	keystroke_y	y	n/a
199.436	0.078	398872	keystroke_Key.space	Key.space	n/a
199.6945	0.0675	399389	keystroke_c	c	n/a
199.7625	0.1115	399525	keystroke_u	u	n/a
199.965	0.0785	399930	keystroke_m	m	n/a
200.1665	0.0675	400333	keystroke_u	u	n/a
200.347	0.101	400694	keystroke_l	l	n/a
200.4705	0.068	400941	keystroke_a	a	n/a
200.617	0.079	401234	keystroke_t	t	n/a
200.7855	0.056	401571	keystroke_i	i	n/a
200.8755	0.136	401751	keystroke_v	v	n/a
201.0665	0.1135	402133	keystroke_e	e	n/a
201.3255	0.1025	402651	keystroke_Key.enter	Key.enter	n/a
201.4315	5.2615	402863	prompt	n/a	concentration vertical code intention\n
201.989	0.102	403978	keystroke_c	c	n/a
202.113	0.1235	404226	keystroke_o	o	n/a
202.215	0.113	404430	keystroke_n	n	n/a
202.3385	0.0675	404677	keystroke_c	c	n/a
202.5185	0.067	405037	keystroke_e	e	n/a
202.6085	0.101	405217	keystroke_n	n	n/a
202.721	0.0445	405442	keystroke_t	t	n/a
202.878	0.101	405756	keystroke_r	r	n/a
202.968	0.1015	405936	keystroke_a	a	n/a
203.092	0.067	406184	keystroke_t	t	n/a
203.182	0.18	406364	keystroke_i	i	n/a
203.2495	0.124	406499	keystroke_o	o	n/a
203.317	0.1235	406634	keystroke_n	n	n/a
203.429	0.0565	406858	keystroke_Key.space	Key.space	n/a
203.678	0.0105	407356	keystroke_v	v	n/a
203.7555	0.124	407511	keystroke_e	e	n/a
203.823	0.079	407646	keystroke_r	r	n/a
203.981	0.067	407962	keystroke_t	t	n/a
204.093	0.113	408186	keystroke_i	i	n/a
204.1945	0.0785	408389	keystroke_c	c	n/a
204.2845	0.067	408569	keystroke_a	a	n/a
204.363	0.1015	408726	keystroke_l	l	n/a
204.4985	0.0795	408997	keystroke_Key.space	Key.space	n/a
204.645	0.089	409290	keystroke_c	c	n/a
204.7565	0.0565	409513	keystroke_o	o	n/a
204.8695	0.056	409739	keystroke_d	d	n/a
205.016	0.0785	410032	keystroke_e	e	n/a
205.106	0.078	410212	keystroke_Key.space	Key.space	n/a
205.2515	0.1575	410503	keystroke_i	i	n/a
205.353	0.135	410706	keystroke_n	n	n/a
205.4995	0.1125	410999	keystroke_t	t	n/a
205.5895	0.09	411179	keystroke_e	e	n/a
205.7245	0.101	411449	keystroke_n	n	n/a
205.8365	0.1015	411673	keystroke_t	t	n/a
205.949	0.1915	411898	keystroke_i	i	n/a
206.039	0.169	412078	keystroke_o	o	n/a
206.1745	0.1125	412349	keystroke_n	n	n/a
206.5795	0.1125	413159	keystroke_Key.enter	Key.enter	n/a
206.697	5.487	413394	prompt	n/a	indicate absolutely reputation howard\n
207.322	0.1235	414644	keystroke_i	i	n/a
207.3895	0.1135	414779	keystroke_n	n	n/a
207.5025	0.0785	415005	keystroke_d	d	n/a
207.6255	0.113	415251	keystroke_i	i	n/a
207.728	0.0555	415456	keystroke_c	c	n/a
207.8625	0.0895	415725	keystroke_a	a	n/a
207.9405	0.158	415881	keystroke_t	t	n/a
208.1095	0.113	416219	keystroke_e	e	n/a
208.2	0.078	416400	keystroke_Key.space	Key.space	n/a
208.346	0.09	416692	keystroke_a	a	n/a
208.47	0.112	416940	keystroke_b	b	n/a
208.638	0.0905	417276	keystroke_s	s	n/a
208.751	0.056	417502	keystroke_o	o	n/a
208.908	0.125	417816	keystroke_l	l	n/a
209.01	0.0895	418020	keystroke_u	u	n/a
209.1115	0.146	418223	keystroke_t	t	n/a
209.212	0.101	418424	keystroke_e	e	n/a
209.3805	0.1015	418761	keystroke_l	l	n/a
209.4595	0.1125	418919	keystroke_y	y	n/a
209.595	0.067	419190	keystroke_Key.space	Key.space	n/a
209.707	0.112	419414	keystroke_r	r	n/a
209.774	0.1015	419548	keystroke_e	e	n/a
209.8865	0.136	419773	keystroke_p	p	n/a
210.1795	0.102	420359	keystroke_u	u	n/a
210.3365	0.0795	420673	keystroke_t	t	n/a
210.461	0.09	420922	keystroke_a	a	n/a
210.517	0.09	421034	keystroke_t	t	n/a
210.6295	0.1915	421259	keystroke_i	i	n/a
210.7085	0.146	421417	keystroke_o	o	n/a
210.7985	0.1345	421597	keystroke_n	n	n/a
210.9895	0.0785	421979	keystroke_Key.space	Key.space	n/a
211.248	0.1015	422496	keystroke_h	h	n/a
211.406	0.0785	422812	keystroke_o	o	n/a
211.5405	0.0905	423081	keystroke_w	w	n/a
211.642	0.1235	423284	keystroke_a	a	n/a
211.743	0.079	423486	keystroke_r	r	n/a
211.9235	0.0785	423847	keystroke_d	d	n/a
212.0695	0.1135	424139	keystroke_Key.enter	Key.enter	n/a
212.1885	3.5615	424377	prompt	n/a	as ought showing alpine\n
212.733	0.079	425466	keystroke_a	a	n/a
212.88	0.0895	425760	keystroke_s	s	n/a
212.981	0.0895	425962	keystroke_Key.space	Key.space	n/a
213.1495	0.124	426299	keystroke_o	o	n/a
213.24	0.1005	426480	keystroke_u	u	n/a
213.352	0.079	426704	keystroke_g	g	n/a
213.487	0.1125	426974	keystroke_h	h	n/a
213.612	0.0885	427224	keystroke_t	t	n/a
213.768	0.09	427536	keystroke_Key.space	Key.space	n/a
213.937	0.0565	427874	keystroke_s	s	n/a
214.028	0.134	428056	keystroke_h	h	n/a
214.1395	0.079	428279	keystroke_o	o	n/a
214.2405	0.0675	428481	keystroke_w	w	n/a
214.3755	0.1575	428751	keystroke_i	i	n/a
214.477	0.112	428954	keystroke_n	n	n/a
214.522	0.101	429044	keystroke_g	g	n/a
214.623	0.0675	429246	keystroke_Key.space	Key.space	n/a
214.7135	0.101	429427	keystroke_a	a	n/a
214.848	0.09	429696	keystroke_l	l	n/a
215.028	0.146	430056	keystroke_p	p	n/a
215.129	0.192	430258	keystroke_i	i	n/a
215.287	0.113	430574	keystroke_n	n	n/a
215.4115	0.0775	430823	keystroke_e	e	n/a
215.6355	0.113	431271	keystroke_Key.enter	Key.enter	n/a
215.7525	5.262	431505	prompt	n/a	advertising loud loan oliver\n
216.266	0.123	432532	keystroke_a	a	n/a
216.491	0.0675	432982	keystroke_d	d	n/a
216.6255	0.113	433251	keystroke_v	v	n/a
216.806	0.1235	433612	keystroke_e	e	n/a
216.873	0.092	433746	keystroke_r	r	n/a
217.053	0.0795	434106	keystroke_t	t	n/a
217.2	0.101	434400	keystroke_i	i	n/a
217.2895	0.0905	434579	keystroke_s	s	n/a
217.436	0.146	434872	keystroke_i	i	n/a
217.5145	0.135	435029	keystroke_n	n	n/a
217.593	0.1245	435186	keystroke_g	g	n/a
217.672	0.113	435344	keystroke_Key.space	Key.space	n/a
217.8295	0.0675	435659	keystroke_l	l	n/a
218.021	0.068	436042	keystroke_o	o	n/a
218.246	0.0895	436492	keystroke_u	u	n/a
218.403	0.1015	436806	keystroke_d	d	n/a
218.6175	0.112	437235	keystroke_Key.space	Key.space	n/a
218.741	0.067	437482	keystroke_l	l	n/a
218.921	0.091	437842	keystroke_o	o	n/a
219.045	0.067	438090	keystroke_a	a	n/a
219.1575	0.1125	438315	keystroke_n	n	n/a
219.281	0.101	438562	keystroke_Key.space	Key.space	n/a
219.4265	0.057	438853	keystroke_l	l	n/a
219.7765	0.09	439553	keystroke_Key.backspace	Key.backspace	n/a
220.014	0.0995	440028	keystroke_o	o	n/a
220.204	0.0895	440408	keystroke_l	l	n/a
220.339	0.0895	440678	keystroke_i	i	n/a
220.4735	0.112	440947	keystroke_v	v	n/a
220.6755	0.124	441351	keystroke_e	e	n/a
220.7205	0.1015	441441	keystroke_r	r	n/a
220.9005	0.113	441801	keystroke_Key.enter	Key.enter	n/a
221.0175	6.319	442035	prompt	n/a	translator positive resistance religion\n
221.678	0.067	443356	keystroke_t	t	n/a
221.857	0.1015	443714	keystroke_r	r	n/a
221.9695	0.09	443939	keystroke_a	a	n/a
222.0705	0.113	444141	keystroke_n	n	n/a
222.1945	0.079	444389	keystroke_s	s	n/a
222.3295	0.102	444659	keystroke_l	l	n/a
222.4535	0.09	444907	keystroke_a	a	n/a
222.5325	0.0895	445065	keystroke_t	t	n/a
222.6785	0.0895	445357	keystroke_o	o	n/a
222.791	0.101	445582	keystroke_r	r	n/a
222.8695	0.09	445739	keystroke_Key.space	Key.space	n/a
223.0385	0.1235	446077	keystroke_p	p	n/a
223.117	0.1235	446234	keystroke_o	o	n/a
223.2855	0.079	446571	keystroke_s	s	n/a
223.3985	0.0895	446797	keystroke_i	i	n/a
223.522	0.079	447044	keystroke_t	t	n/a
223.646	0.0905	447292	keystroke_i	i	n/a
223.7245	0.112	447449	keystroke_v	v	n/a
223.882	0.113	447764	keystroke_e	e	n/a
223.9615	0.112	447923	keystroke_Key.space	Key.space	n/a
224.129	0.147	448258	keystroke_r	r	n/a
224.2085	0.1235	448417	keystroke_e	e	n/a
224.4115	0.1115	448823	keystroke_s	s	n/a
224.6015	0.091	449203	keystroke_i	i	n/a
224.793	0.113	449586	keystroke_s	s	n/a
224.9505	0.1015	449901	keystroke_t	t	n/a
225.12	0.1005	450240	keystroke_a	a	n/a
225.187	0.101	450374	keystroke_n	n	n/a
225.378	0.09	450756	keystroke_c	c	n/a
225.592	0.0445	451184	keystroke_e	e	n/a
225.7945	0.079	451589	keystroke_Key.space	Key.space	n/a
225.952	0.135	451904	keystroke_r	r	n/a
226.0305	0.1245	452061	keystroke_e	e	n/a
226.1995	0.0895	452399	keystroke_l	l	n/a
226.391	0.0785	452782	keystroke_i	i	n/a
226.5145	0.0785	453029	keystroke_g	g	n/a
226.616	0.213	453232	keystroke_i	i	n/a
226.695	0.1795	453390	keystroke_o	o	n/a
226.8405	0.1355	453681	keystroke_n	n	n/a
227.2345	0.101	454469	keystroke_Key.enter	Key.enter	n/a
227.34	5.0815	454680	prompt	n/a	behalf refers conferencing profit\n
228.0895	0.079	456179	keystroke_b	b	n/a
228.2585	0.0785	456517	keystroke_e	e	n/a
228.3705	0.1125	456741	keystroke_h	h	n/a
228.472	0.101	456944	keystroke_a	a	n/a
228.6405	0.0905	457281	keystroke_l	l	n/a
228.753	0.102	457506	keystroke_f	f	n/a
228.866	0.101	457732	keystroke_Key.space	Key.space	n/a
229.012	0.1125	458024	keystroke_r	r	n/a
229.1025	0.0895	458205	keystroke_e	e	n/a
229.2485	0.09	458497	keystroke_f	f	n/a
229.417	0.1235	458834	keystroke_e	e	n/a
229.4955	0.09	458991	keystroke_r	r	n/a
229.6755	0.0675	459351	keystroke_s	s	n/a
229.777	0.101	459554	keystroke_Key.space	Key.space	n/a
229.991	0.1125	459982	keystroke_c	c	n/a
230.1255	0.102	460251	keystroke_o	o	n/a
230.1815	0.1355	460363	keystroke_n	n	n/a
230.3165	0.1125	460633	keystroke_f	f	n/a
230.463	0.124	460926	keystroke_e	e	n/a
230.542	0.1345	461084	keystroke_r	r	n/a
230.666	0.1005	461332	keystroke_e	e	n/a
230.8115	0.1015	461623	keystroke_n	n	n/a
230.924	0.1015	461848	keystroke_c	c	n/a
231.0705	0.169	462141	keystroke_i	i	n/a
231.1615	0.1345	462323	keystroke_n	n	n/a
231.2285	0.123	462457	keystroke_g	g	n/a
231.3295	0.09	462659	keystroke_Key.space	Key.space	n/a
231.487	0.1345	462974	keystroke_p	p	n/a
231.633	0.0675	463266	keystroke_r	r	n/a
231.734	0.102	463468	keystroke_o	o	n/a
231.847	0.0785	463694	keystroke_f	f	n/a
231.9595	0.1015	463919	keystroke_i	i	n/a
232.106	0.056	464212	keystroke_t	t	n/a
232.308	0.1125	464616	keystroke_Key.enter	Key.enter	n/a
232.424	4.464	464848	prompt	n/a	writer room mozilla seed\n
232.9945	0.056	465989	keystroke_w	w	n/a
233.163	0.079	466326	keystroke_r	r	n/a
233.3095	0.1015	466619	keystroke_i	i	n/a
233.4215	0.09	466843	keystroke_t	t	n/a
233.579	0.1695	467158	keystroke_e	e	n/a
233.6695	0.1125	467339	keystroke_r	r	n/a
233.7595	0.09	467519	keystroke_Key.space	Key.space	n/a
233.895	0.0895	467790	keystroke_r	r	n/a
233.9955	0.056	467991	keystroke_o	o	n/a
234.1415	0.1365	468283	keystroke_o	o	n/a
234.221	0.1455	468442	keystroke_m	m	n/a
234.3555	0.0905	468711	keystroke_Key.space	Key.space	n/a
234.6255	0.1355	469251	keystroke_m	m	n/a
234.7165	0.1225	469433	keystroke_o	o	n/a
234.9075	0.0665	469815	keystroke_z	z	n/a
235.0425	0.112	470085	keystroke_i	i	n/a
235.132	0.0565	470264	keystroke_l	l	n/a
235.2895	0.0895	470579	keystroke_l	l	n/a
235.447	0.0785	470894	keystroke_a	a	n/a
235.5705	0.0905	471141	keystroke_Key.space	Key.space	n/a
235.7285	0.09	471457	keystroke_s	s	n/a
235.8975	0.0675	471795	keystroke_e	e	n/a
236.0655	0.079	472131	keystroke_e	e	n/a
236.2685	0.0785	472537	keystroke_d	d	n/a
236.763	0.124	473526	keystroke_Key.enter	Key.enter	n/a
236.891	7.4115	473782	prompt	n/a	fuji zoloft attention transparency\n
237.5735	0.045	475147	keystroke_f	f	n/a
237.6965	0.1355	475393	keystroke_u	u	n/a
237.933	0.1125	475866	keystroke_i	i	n/a
238.3155	0.0795	476631	keystroke_Key.backspace	Key.backspace	n/a
238.5965	0.113	477193	keystroke_j	j	n/a
238.833	0.0785	477666	keystroke_i	i	n/a
238.991	0.0895	477982	keystroke_Key.space	Key.space	n/a
239.193	0.1125	478386	keystroke_z	z	n/a
239.3165	0.1015	478633	keystroke_o	o	n/a
239.5535	0.09	479107	keystroke_l	l	n/a
239.7555	0.079	479511	keystroke_o	o	n/a
239.913	0.057	479826	keystroke_f	f	n/a
240.105	0.0785	480210	keystroke_t	t	n/a
240.251	0.1005	480502	keystroke_Key.space	Key.space	n/a
240.3405	0.1015	480681	keystroke_a	a	n/a
240.4535	0.067	480907	keystroke_t	t	n/a
240.588	0.1235	481176	keystroke_t	t	n/a
240.689	0.091	481378	keystroke_e	e	n/a
240.8135	0.101	481627	keystroke_n	n	n/a
240.9255	0.0675	481851	keystroke_t	t	n/a
241.0495	0.2025	482099	keystroke_i	i	n/a
241.117	0.1685	482234	keystroke_o	o	n/a
241.263	0.102	482526	keystroke_n	n	n/a
241.3195	0.135	482639	keystroke_Key.space	Key.space	n/a
241.5225	0.0785	483045	keystroke_t	t	n/a
241.6685	0.101	483337	keystroke_r	r	n/a
241.7485	0.088	483497	keystroke_a	a	n/a
241.904	0.079	483808	keystroke_n	n	n/a
241.995	0.101	483990	keystroke_s	s	n/a
242.208	0.1015	484416	keystroke_p	p	n/a
242.3885	0.1455	484777	keystroke_a	a	n/a
242.523	0.1015	485046	keystroke_r	r	n/a
242.6805	0.1125	485361	keystroke_a	a	n/a
243.1865	0.0565	486373	keystroke_Key.backspace	Key.backspace	n/a
243.378	0.079	486756	keystroke_e	e	n/a
243.4795	0.1125	486959	keystroke_n	n	n/a
243.6595	0.1015	487319	keystroke_c	c	n/a
243.772	0.1015	487544	keystroke_y	y	n/a
244.1885	0.113	488377	keystroke_Key.enter	Key.enter	n/a
244.3055	5.6215	488611	prompt	n/a	transform resulting pricing reaching\n
244.9195	0.045	489839	keystroke_t	t	n/a
245.043	0.1125	490086	keystroke_r	r	n/a
245.122	0.1125	490244	keystroke_a	a	n/a
245.257	0.135	490514	keystroke_n	n	n/a
245.3585	0.101	490717	keystroke_s	s	n/a
245.4595	0.135	490919	keystroke_f	f	n/a
245.606	0.112	491212	keystroke_o	o	n/a
245.7295	0.09	491459	keystroke_r	r	n/a
245.853	0.113	491706	keystroke_m	m	n/a
245.9775	0.1115	491955	keystroke_Key.space	Key.space	n/a
246.146	0.1345	492292	keystroke_r	r	n/a
246.2245	0.101	492449	keystroke_e	e	n/a
246.4045	0.0905	492809	keystroke_s	s	n/a
246.539	0.09	493078	keystroke_u	u	n/a
246.731	0.114	493462	keystroke_l	l	n/a
246.866	0.09	493732	keystroke_t	t	n/a
247.0125	0.1575	494025	keystroke_i	i	n/a
247.114	0.1345	494228	keystroke_n	n	n/a
247.215	0.1135	494430	keystroke_g	g	n/a
247.305	0.0675	494610	keystroke_Key.space	Key.space	n/a
247.406	0.157	494812	keystroke_p	p	n/a
247.5745	0.045	495149	keystroke_r	r	n/a
247.7655	0.0795	495531	keystroke_i	i	n/a
247.9005	0.0905	495801	keystroke_c	c	n/a
248.047	0.1685	496094	keystroke_i	i	n/a
248.182	0.1125	496364	keystroke_n	n	n/a
248.2495	0.1235	496499	keystroke_g	g	n/a
248.362	0.09	496724	keystroke_Key.space	Key.space	n/a
248.52	0.1255	497040	keystroke_r	r	n/a
248.598	0.102	497196	keystroke_e	e	n/a
248.7225	0.078	497445	keystroke_a	a	n/a
248.868	0.1015	497736	keystroke_c	c	n/a
249.037	0.113	498074	keystroke_h	h	n/a
249.2175	0.157	498435	keystroke_i	i	n/a
249.3405	0.124	498681	keystroke_n	n	n/a
249.4755	0.1135	498951	keystroke_g	g	n/a
249.7685	0.157	499537	keystroke_Key.enter	Key.enter	n/a
249.93	5.329	499860	prompt	n/a	violations columbia forth speak\n
250.5445	0.0905	501089	keystroke_v	v	n/a
250.646	0.1795	501292	keystroke_i	i	n/a
250.736	0.101	501472	keystroke_o	o	n/a
250.938	0.079	501876	keystroke_l	l	n/a
251.107	0.09	502214	keystroke_a	a	n/a
251.2535	0.091	502507	keystroke_t	t	n/a
251.3545	0.1795	502709	keystroke_i	i	n/a
251.422	0.1465	502844	keystroke_o	o	n/a
251.5115	0.113	503023	keystroke_n	n	n/a
251.636	0.0895	503272	keystroke_s	s	n/a
251.8045	0.0565	503609	keystroke_Key.space	Key.space	n/a
251.962	0.101	503924	keystroke_c	c	n/a
252.0295	0.0895	504059	keystroke_o	o	n/a
252.1985	0.124	504397	keystroke_l	l	n/a
252.311	0.0785	504622	keystroke_u	u	n/a
252.491	0.101	504982	keystroke_m	m	n/a
252.615	0.078	505230	keystroke_b	b	n/a
252.7495	0.09	505499	keystroke_i	i	n/a
252.851	0.0675	505702	keystroke_a	a	n/a
252.9185	0.0785	505837	keystroke_Key.space	Key.space	n/a
253.0535	0.1125	506107	keystroke_f	f	n/a
253.222	0.0895	506444	keystroke_o	o	n/a
253.334	0.0565	506668	keystroke_r	r	n/a
253.481	0.0785	506962	keystroke_t	t	n/a
253.616	0.101	507232	keystroke_h	h	n/a
253.728	0.0905	507456	keystroke_Key.space	Key.space	n/a
253.863	0.09	507726	keystroke_f	f	n/a
254.133	0.079	508266	keystroke_Key.backspace	Key.backspace	n/a
254.2905	0.1015	508581	keystroke_s	s	n/a
254.4255	0.113	508851	keystroke_p	p	n/a
254.583	0.113	509166	keystroke_e	e	n/a
254.6845	0.101	509369	keystroke_a	a	n/a
254.8195	0.09	509639	keystroke_k	k	n/a
255.1235	0.1345	510247	keystroke_Key.enter	Key.enter	n/a
255.2625	4.0695	510525	prompt	n/a	father jade fork guitar\n
255.855	0.0895	511710	keystroke_f	f	n/a
255.967	0.0675	511934	keystroke_a	a	n/a
256.08	0.101	512160	keystroke_t	t	n/a
256.2485	0.09	512497	keystroke_h	h	n/a
256.3155	0.1575	512631	keystroke_e	e	n/a
256.406	0.101	512812	keystroke_r	r	n/a
256.485	0.112	512970	keystroke_Key.space	Key.space	n/a
256.631	0.101	513262	keystroke_j	j	n/a
256.721	0.079	513442	keystroke_a	a	n/a
256.9005	0.057	513801	keystroke_d	d	n/a
257.0585	0.101	514117	keystroke_e	e	n/a
257.137	0.101	514274	keystroke_Key.space	Key.space	n/a
257.283	0.0675	514566	keystroke_f	f	n/a
257.362	0.0785	514724	keystroke_o	o	n/a
257.463	0.0565	514926	keystroke_r	r	n/a
257.5645	0.1015	515129	keystroke_k	k	n/a
257.678	0.134	515356	keystroke_Key.space	Key.space	n/a
257.8685	0.0785	515737	keystroke_j	j	n/a
258.128	0.033	516256	keystroke_Key.backspace	Key.backspace	n/a
258.2735	0.078	516547	keystroke_g	g	n/a
258.4085	0.136	516817	keystroke_u	u	n/a
258.5095	0.1015	517019	keystroke_i	i	n/a
258.701	0.0675	517402	keystroke_t	t	n/a
258.836	0.1345	517672	keystroke_a	a	n/a
258.9255	0.113	517851	keystroke_r	r	n/a
259.1955	0.1355	518391	keystroke_Key.enter	Key.enter	n/a
259.3345	5.061	518669	prompt	n/a	leading banner printable armor\n
259.916	0.101	519832	keystroke_l	l	n/a
260.051	0.0895	520102	keystroke_e	e	n/a
260.129	0.113	520258	keystroke_a	a	n/a
260.2535	0.091	520507	keystroke_d	d	n/a
260.433	0.124	520866	keystroke_i	i	n/a
260.5125	0.136	521025	keystroke_n	n	n/a
260.6135	0.101	521227	keystroke_g	g	n/a
260.681	0.1005	521362	keystroke_Key.space	Key.space	n/a
260.816	0.101	521632	keystroke_b	b	n/a
260.929	0.1115	521858	keystroke_a	a	n/a
261.052	0.045	522104	keystroke_n	n	n/a
261.187	0.1015	522374	keystroke_n	n	n/a
261.367	0.1015	522734	keystroke_e	e	n/a
261.4345	0.101	522869	keystroke_r	r	n/a
261.5355	0.1125	523071	keystroke_Key.space	Key.space	n/a
261.8505	0.1235	523701	keystroke_p	p	n/a
261.952	0.079	523904	keystroke_r	r	n/a
262.076	0.1695	524152	keystroke_i	i	n/a
262.1785	0.1105	524357	keystroke_n	n	n/a
262.2555	0.101	524511	keystroke_t	t	n/a
262.3905	0.1015	524781	keystroke_a	a	n/a
262.548	0.113	525096	keystroke_b	b	n/a
262.65	0.112	525300	keystroke_l	l	n/a
262.818	0.135	525636	keystroke_e	e	n/a
262.9645	0.0895	525929	keystroke_Key.space	Key.space	n/a
263.178	0.079	526356	keystroke_a	a	n/a
263.381	0.0895	526762	keystroke_r	r	n/a
263.606	0.1455	527212	keystroke_m	m	n/a
263.7075	0.112	527415	keystroke_o	o	n/a
263.887	0.0905	527774	keystroke_r	r	n/a
264.2355	0.1585	528471	keystroke_Key.enter	Key.enter	n/a
264.398	5.7785	528796	prompt	n/a	shanghai kenny scripts chelsea\n
264.967	0.0785	529934	keystroke_s	s	n/a
265.0795	0.1125	530159	keystroke_h	h	n/a
265.2035	0.101	530407	keystroke_a	a	n/a
265.361	0.0785	530722	keystroke_n	n	n/a
265.451	0.0895	530902	keystroke_g	g	n/a
265.642	0.1125	531284	keystroke_h	h	n/a
265.7885	0.056	531577	keystroke_a	a	n/a
265.912	0.103	531824	keystroke_i	i	n/a
266.0585	0.101	532117	keystroke_Key.space	Key.space	n/a
266.204	0.113	532408	keystroke_k	k	n/a
266.3285	0.045	532657	keystroke_e	e	n/a
266.4405	0.0795	532881	keystroke_n	n	n/a
266.6205	0.057	533241	keystroke_n	n	n/a
266.8005	0.0905	533601	keystroke_y	y	n/a
266.924	0.079	533848	keystroke_Key.space	Key.space	n/a
267.0705	0.0675	534141	keystroke_s	s	n/a
267.273	0.0675	534546	keystroke_c	c	n/a
267.4755	0.0675	534951	keystroke_r	r	n/a
267.588	0.146	535176	keystroke_i	i	n/a
267.723	0.079	535446	keystroke_p	p	n/a
267.8585	0.067	535717	keystroke_t	t	n/a
268.028	0.0775	536056	keystroke_s	s	n/a
268.128	0.068	536256	keystroke_Key.space	Key.space	n/a
268.2855	0.0905	536571	keystroke_c	c	n/a
268.413	0.0885	536826	keystroke_h	h	n/a
268.534	0.0905	537068	keystroke_e	e	n/a
268.8375	0.092	537675	keystroke_a	a	n/a
269.1295	0.0785	538259	keystroke_Key.backspace	Key.backspace	n/a
269.3655	0.101	538731	keystroke_l	l	n/a
269.4895	0.0675	538979	keystroke_s	s	n/a
269.6695	0.045	539339	keystroke_e	e	n/a
269.782	0.135	539564	keystroke_a	a	n/a
270.0405	0.135	540081	keystroke_Key.enter	Key.enter	n/a
270.1795	6.703	540359	prompt	n/a	buzz accreditation complaints ambient\n
270.817	0.079	541634	keystroke_b	b	n/a
271.0195	0.09	542039	keystroke_u	u	n/a
271.121	0.045	542242	keystroke_z	z	n/a
271.267	0.09	542534	keystroke_z	z	n/a
271.4025	0.0785	542805	keystroke_Key.space	Key.space	n/a
271.7625	0.056	543525	keystroke_a	a	n/a
271.942	0.056	543884	keystroke_c	c	n/a
272.0885	0.0895	544177	keystroke_c	c	n/a
272.3245	0.135	544649	keystroke_r	r	n/a
272.437	0.0575	544874	keystroke_e	e	n/a
272.628	0.1125	545256	keystroke_d	d	n/a
272.842	0.068	545684	keystroke_i	i	n/a
272.955	0.0895	545910	keystroke_t	t	n/a
273.1455	0.124	546291	keystroke_a	a	n/a
273.2135	0.1345	546427	keystroke_t	t	n/a
273.652	0.236	547304	keystroke_i	i	n/a
273.765	0.168	547530	keystroke_o	o	n/a
273.8775	0.146	547755	keystroke_n	n	n/a
274.0575	0.112	548115	keystroke_Key.space	Key.space	n/a
274.282	0.09	548564	keystroke_c	c	n/a
274.361	0.1575	548722	keystroke_o	o	n/a
274.5075	0.1685	549015	keystroke_m	m	n/a
274.687	0.1355	549374	keystroke_p	p	n/a
274.7775	0.112	549555	keystroke_l	l	n/a
274.9345	0.09	549869	keystroke_a	a	n/a
275.0695	0.1585	550139	keystroke_i	i	n/a
275.2045	0.1015	550409	keystroke_n	n	n/a
275.3175	0.0785	550635	keystroke_t	t	n/a
275.486	0.09	550972	keystroke_s	s	n/a
275.5645	0.1015	551129	keystroke_Key.space	Key.space	n/a
275.6775	0.078	551355	keystroke_a	a	n/a
275.8905	0.113	551781	keystroke_m	m	n/a
275.992	0.09	551984	keystroke_b	b	n/a
276.116	0.1355	552232	keystroke_i	i	n/a
276.251	0.0895	552502	keystroke_e	e	n/a
276.363	0.1355	552726	keystroke_n	n	n/a
276.51	0.0785	553020	keystroke_t	t	n/a
276.7455	0.1355	553491	keystroke_Key.enter	Key.enter	n/a
276.887	7.296	553774	prompt	n/a	hunting detective false vacation\n
277.5335	0.101	555067	keystroke_h	h	n/a
277.7355	0.1015	555471	keystroke_u	u	n/a
277.95	0.101	555900	keystroke_n	n	n/a
278.1075	0.0785	556215	keystroke_t	t	n/a
278.242	0.1465	556484	keystroke_i	i	n/a
278.332	0.124	556664	keystroke_n	n	n/a
278.456	0.1125	556912	keystroke_g	g	n/a
278.5235	0.1125	557047	keystroke_Key.space	Key.space	n/a
278.704	0.078	557408	keystroke_d	d	n/a
278.9055	0.0675	557811	keystroke_e	e	n/a
279.0865	0.112	558173	keystroke_t	t	n/a
279.2115	0.1	558423	keystroke_e	e	n/a
279.4125	0.078	558825	keystroke_c	c	n/a
279.5695	0.0675	559139	keystroke_t	t	n/a
279.705	0.09	559410	keystroke_i	i	n/a
279.7835	0.1125	559567	keystroke_v	v	n/a
279.952	0.1125	559904	keystroke_e	e	n/a
280.054	0.1015	560108	keystroke_Key.space	Key.space	n/a
280.155	0.09	560310	keystroke_f	f	n/a
280.245	0.1235	560490	keystroke_a	a	n/a
280.3575	0.101	560715	keystroke_l	l	n/a
280.5035	0.1245	561007	keystroke_s	s	n/a
280.548	0.1015	561096	keystroke_e	e	n/a
280.6615	0.0675	561323	keystroke_Key.space	Key.space	n/a
280.8745	0.101	561749	keystroke_v	v	n/a
281.078	0.0665	562156	keystroke_a	a	n/a
281.28	0.067	562560	keystroke_c	c	n/a
281.437	0.0675	562874	keystroke_a	a	n/a
281.6955	0.09	563391	keystroke_y	y	n/a
281.8535	0.079	563707	keystroke_t	t	n/a
282	0.1905	564000	keystroke_i	i	n/a
282.157	0.0785	564314	keystroke_o	o	n/a
282.4045	0.079	564809	keystroke_Key.backspace	Key.backspace	n/a
282.551	0.0565	565102	keystroke_Key.backspace	Key.backspace	n/a
282.7085	0.045	565417	keystroke_Key.backspace	Key.backspace	n/a
282.787	0.079	565574	keystroke_Key.backspace	Key.backspace	n/a
283.2035	0.0785	566407	keystroke_t	t	n/a
283.3615	0.1565	566723	keystroke_i	i	n/a
283.5295	0.1465	567059	keystroke_o	o	n/a
283.665	0.146	567330	keystroke_n	n	n/a
284.0805	0.1015	568161	keystroke_Key.enter	Key.enter	n/a
284.1875	4.833	568375	prompt	n/a	mouth edward banana getting\n
284.823	0.135	569646	keystroke_m	m	n/a
284.9925	0.1575	569985	keystroke_o	o	n/a
285.105	0.101	570210	keystroke_u	u	n/a
285.251	0.0785	570502	keystroke_t	t	n/a
285.363	0.09	570726	keystroke_h	h	n/a
285.4315	0.089	570863	keystroke_Key.space	Key.space	n/a
285.566	0.079	571132	keystroke_e	e	n/a
285.7575	0.0785	571515	keystroke_d	d	n/a
285.937	0.0785	571874	keystroke_w	w	n/a
286.0495	0.1465	572099	keystroke_a	a	n/a
286.185	0.067	572370	keystroke_r	r	n/a
286.365	0.101	572730	keystroke_d	d	n/a
286.4325	0.09	572865	keystroke_Key.space	Key.space	n/a
286.6455	0.068	573291	keystroke_b	b	n/a
286.736	0.079	573472	keystroke_a	a	n/a
286.8705	0.102	573741	keystroke_n	n	n/a
287.04	0.0785	574080	keystroke_a	a	n/a
287.152	0.0785	574304	keystroke_n	n	n/a
287.253	0.0915	574506	keystroke_a	a	n/a
287.501	0.0785	575002	keystroke_Key.space	Key.space	n/a
287.782	0.09	575564	keystroke_g	g	n/a
287.928	0.1125	575856	keystroke_e	e	n/a
288.007	0.0785	576014	keystroke_t	t	n/a
288.165	0.0795	576330	keystroke_t	t	n/a
288.3445	0.1355	576689	keystroke_i	i	n/a
288.412	0.1235	576824	keystroke_n	n	n/a
288.558	0.09	577116	keystroke_g	g	n/a
288.9295	0.0905	577859	keystroke_Key.enter	Key.enter	n/a
289.0235	5.498	578047	prompt	n/a	spot requested screening nirvana\n
289.6615	0.067	579323	keystroke_s	s	n/a
289.8295	0.1575	579659	keystroke_p	p	n/a
289.908	0.1015	579816	keystroke_o	o	n/a
290.0655	0.1015	580131	keystroke_t	t	n/a
290.133	0.102	580266	keystroke_Key.space	Key.space	n/a
290.4375	0.1345	580875	keystroke_r	r	n/a
290.5155	0.079	581031	keystroke_e	e	n/a
290.7185	0.056	581437	keystroke_q	q	n/a
290.8315	0.0895	581663	keystroke_u	u	n/a
290.9445	0.1675	581889	keystroke_e	e	n/a
291.0555	0.124	582111	keystroke_s	s	n/a
291.157	0.158	582314	keystroke_t	t	n/a
291.2925	0.0895	582585	keystroke_e	e	n/a
291.506	0.0895	583012	keystroke_d	d	n/a
291.6295	0.09	583259	keystroke_Key.space	Key.space	n/a
291.787	0.068	583574	keystroke_s	s	n/a
291.967	0.079	583934	keystroke_c	c	n/a
292.147	0.101	584294	keystroke_r	r	n/a
292.2035	0.0785	584407	keystroke_e	e	n/a
292.3495	0.0905	584699	keystroke_e	e	n/a
292.496	0.113	584992	keystroke_n	n	n/a
292.71	0.1345	585420	keystroke_i	i	n/a
292.833	0.1135	585666	keystroke_n	n	n/a
292.98	0.1005	585960	keystroke_g	g	n/a
293.0355	0.135	586071	keystroke_Key.space	Key.space	n/a
293.3175	0.1345	586635	keystroke_n	n	n/a
293.452	0.1355	586904	keystroke_i	i	n/a
293.632	0.056	587264	keystroke_r	r	n/a
293.812	0.0905	587624	keystroke_v	v	n/a
293.925	0.0895	587850	keystroke_a	a	n/a
294.0705	0.1015	588141	keystroke_n	n	n/a
294.206	0.0565	588412	keystroke_a	a	n/a
294.4195	0.101	588839	keystroke_Key.enter	Key.enter	n/a
294.524	4.1725	589048	prompt	n/a	toys butterfly charts fits\n
295.162	0.0675	590324	keystroke_t	t	n/a
295.2745	0.101	590549	keystroke_o	o	n/a
295.4095	0.1125	590819	keystroke_y	y	n/a
295.5555	0.079	591111	keystroke_s	s	n/a
295.657	0.09	591314	keystroke_Key.space	Key.space	n/a
295.8145	0.101	591629	keystroke_b	b	n/a
295.938	0.102	591876	keystroke_u	u	n/a
296.0625	0.0565	592125	keystroke_t	t	n/a
296.186	0.101	592372	keystroke_t	t	n/a
296.343	0.135	592686	keystroke_e	e	n/a
296.411	0.1015	592822	keystroke_r	r	n/a
296.591	0.09	593182	keystroke_f	f	n/a
296.737	0.091	593474	keystroke_l	l	n/a
296.8945	0.113	593789	keystroke_y	y	n/a
297.063	0.079	594126	keystroke_Key.space	Key.space	n/a
297.2885	0.0785	594577	keystroke_c	c	n/a
297.3675	0.1005	594735	keystroke_h	h	n/a
297.4795	0.113	594959	keystroke_a	a	n/a
297.5585	0.0785	595117	keystroke_r	r	n/a
297.716	0.079	595432	keystroke_t	t	n/a
297.8625	0.1005	595725	keystroke_s	s	n/a
297.9405	0.0795	595881	keystroke_Key.space	Key.space	n/a
298.076	0.0895	596152	keystroke_f	f	n/a
298.1775	0.1005	596355	keystroke_i	i	n/a
298.29	0.078	596580	keystroke_t	t	n/a
298.4585	0.0785	596917	keystroke_s	s	n/a
298.582	0.113	597164	keystroke_Key.enter	Key.enter	n/a
298.6995	5.1375	597399	prompt	n/a	harvard active ministers homework\n
299.3365	0.1115	598673	keystroke_h	h	n/a
299.4595	0.1015	598919	keystroke_a	a	n/a
299.5155	0.1125	599031	keystroke_r	r	n/a
299.741	0.101	599482	keystroke_v	v	n/a
299.8875	0.1005	599775	keystroke_a	a	n/a
299.966	0.0785	599932	keystroke_r	r	n/a
300.168	0.102	600336	keystroke_d	d	n/a
300.2585	0.0785	600517	keystroke_Key.space	Key.space	n/a
300.3705	0.1355	600741	keystroke_a	a	n/a
300.5175	0.056	601035	keystroke_c	c	n/a
300.708	0.0565	601416	keystroke_t	t	n/a
300.866	0.0785	601732	keystroke_i	i	n/a
300.911	0.1465	601822	keystroke_v	v	n/a
301.035	0.1125	602070	keystroke_e	e	n/a
301.125	0.09	602250	keystroke_Key.space	Key.space	n/a
301.237	0.146	602474	keystroke_m	m	n/a
301.372	0.1575	602744	keystroke_i	i	n/a
301.5185	0.1235	603037	keystroke_n	n	n/a
301.62	0.1245	603240	keystroke_i	i	n/a
301.7775	0.0895	603555	keystroke_s	s	n/a
301.856	0.112	603712	keystroke_t	t	n/a
302.0355	0.124	604071	keystroke_e	e	n/a
302.115	0.113	604230	keystroke_r	r	n/a
302.261	0.1125	604522	keystroke_s	s	n/a
302.362	0.079	604724	keystroke_Key.space	Key.space	n/a
302.5425	0.112	605085	keystroke_h	h	n/a
302.632	0.1685	605264	keystroke_o	o	n/a
302.7895	0.124	605579	keystroke_m	m	n/a
302.925	0.123	605850	keystroke_e	e	n/a
303.037	0.101	606074	keystroke_w	w	n/a
303.1725	0.1455	606345	keystroke_o	o	n/a
303.307	0.0915	606614	keystroke_r	r	n/a
303.4425	0.1125	606885	keystroke_k	k	n/a
303.7235	0.1125	607447	keystroke_Key.enter	Key.enter	n/a
303.84	5.757	607680	prompt	n/a	routine what'd radius submissions\n
304.4775	0.09	608955	keystroke_r	r	n/a
304.578	0.1575	609156	keystroke_o	o	n/a
304.681	0.122	609362	keystroke_u	u	n/a
304.792	0.0785	609584	keystroke_t	t	n/a
304.9275	0.146	609855	keystroke_i	i	n/a
305.006	0.1345	610012	keystroke_n	n	n/a
305.1075	0.1005	610215	keystroke_e	e	n/a
305.1855	0.1125	610371	keystroke_Key.space	Key.space	n/a
305.3095	0.0905	610619	keystroke_w	w	n/a
305.4225	0.1125	610845	keystroke_h	h	n/a
305.5575	0.1575	611115	keystroke_a	a	n/a
305.6145	0.1225	611229	keystroke_t	t	n/a
305.8045	0.135	611609	keystroke_'	'	n/a
305.973	0.113	611946	keystroke_d	d	n/a
306.1535	0.091	612307	keystroke_Key.space	Key.space	n/a
306.4125	0.0895	612825	keystroke_r	r	n/a
306.5695	0.09	613139	keystroke_a	a	n/a
306.761	0.0905	613522	keystroke_d	d	n/a
306.8855	0.1455	613771	keystroke_i	i	n/a
306.986	0.1125	613972	keystroke_u	u	n/a
307.121	0.124	614242	keystroke_s	s	n/a
307.2225	0.135	614445	keystroke_Key.space	Key.space	n/a
307.582	0.102	615164	keystroke_s	s	n/a
307.9085	0.1015	615817	keystroke_u	u	n/a
308.066	0.0785	616132	keystroke_b	b	n/a
308.3025	0.1235	616605	keystroke_m	m	n/a
308.392	0.1025	616784	keystroke_i	i	n/a
308.595	0.0335	617190	keystroke_s	s	n/a
308.741	0.0675	617482	keystroke_s	s	n/a
308.865	0.191	617730	keystroke_i	i	n/a
308.9445	0.1675	617889	keystroke_o	o	n/a
309.067	0.113	618134	keystroke_n	n	n/a
309.2025	0.09	618405	keystroke_s	s	n/a
309.461	0.135	618922	keystroke_Key.enter	Key.enter	n/a
309.5995	8.313	619199	prompt	n/a	newspapers nissan virtue proceed\n
310.2595	0.045	620519	keystroke_n	n	n/a
310.3155	0.1255	620631	keystroke_e	e	n/a
310.395	0.1005	620790	keystroke_w	w	n/a
310.5975	0.0785	621195	keystroke_s	s	n/a
310.7995	0.079	621599	keystroke_p	p	n/a
310.9005	0.09	621801	keystroke_a	a	n/a
311.013	0.102	622026	keystroke_p	p	n/a
311.126	0.124	622252	keystroke_e	e	n/a
311.194	0.0785	622388	keystroke_r	r	n/a
311.3505	0.1015	622701	keystroke_s	s	n/a
311.452	0.101	622904	keystroke_Key.space	Key.space	n/a
311.6205	0.1245	623241	keystroke_n	n	n/a
311.711	0.101	623422	keystroke_i	i	n/a
311.88	0.045	623760	keystroke_s	s	n/a
312.004	0.09	624008	keystroke_s	s	n/a
312.139	0.1115	624278	keystroke_a	a	n/a
312.2955	0.102	624591	keystroke_n	n	n/a
312.5095	0.079	625019	keystroke_Key.space	Key.space	n/a
312.6785	0.1125	625357	keystroke_v	v	n/a
312.8025	0.1125	625605	keystroke_i	i	n/a
312.937	0.079	625874	keystroke_r	r	n/a
313.1175	0.056	626235	keystroke_t	t	n/a
313.2295	0.113	626459	keystroke_u	u	n/a
313.3535	0.057	626707	keystroke_e	e	n/a
313.837	0.0225	627674	keystroke_Key.space	Key.space	n/a
313.961	0.0225	627922	keystroke_Key.space	Key.space	n/a
314.411	0.0675	628822	keystroke_Key.backspace	Key.backspace	n/a
314.5685	0.0795	629137	keystroke_Key.backspace	Key.backspace	n/a
316.0755	0.069	632151	keystroke_Key.space	Key.space	n/a
316.3695	0.0555	632739	keystroke_p	p	n/a
316.548	0.08	633096	keystroke_r	r	n/a
316.7055	0.079	633411	keystroke_o	o	n/a
316.863	0.0905	633726	keystroke_c	c	n/a
317.1	0.033	634200	keystroke_e	e	n/a
317.235	0.078	634470	keystroke_e	e	n/a
317.426	0.068	634852	keystroke_d	d	n/a
317.7745	0.1365	635549	keystroke_Key.enter	Key.enter	n/a
317.915	7.1845	635830	prompt	n/a	magnitude passport hungarian contained\n
318.54	0.101	637080	keystroke_m	m	n/a
318.652	0.1015	637304	keystroke_a	a	n/a
318.7645	0.113	637529	keystroke_g	g	n/a
318.978	0.113	637956	keystroke_n	n	n/a
319.181	0.113	638362	keystroke_i	i	n/a
319.3495	0.079	638699	keystroke_t	t	n/a
319.4625	0.1005	638925	keystroke_u	u	n/a
319.586	0.09	639172	keystroke_d	d	n/a
319.7655	0.1125	639531	keystroke_e	e	n/a
319.8555	0.124	639711	keystroke_Key.space	Key.space	n/a
320.0245	0.1125	640049	keystroke_p	p	n/a
320.1595	0.068	640319	keystroke_a	a	n/a
320.3285	0.0565	640657	keystroke_s	s	n/a
320.452	0.1015	640904	keystroke_s	s	n/a
320.655	0.146	641310	keystroke_p	p	n/a
320.7895	0.09	641579	keystroke_o	o	n/a
320.9475	0.056	641895	keystroke_r	r	n/a
321.2395	0.079	642479	keystroke_t	t	n/a
321.273	0.1015	642546	keystroke_Key.space	Key.space	n/a
321.8245	0.09	643649	keystroke_h	h	n/a
322.05	0.09	644100	keystroke_u	u	n/a
322.252	0.1355	644504	keystroke_n	n	n/a
322.421	0.112	644842	keystroke_g	g	n/a
322.646	0.09	645292	keystroke_a	a	n/a
322.68	0.1125	645360	keystroke_r	r	n/a
322.8595	0.113	645719	keystroke_i	i	n/a
323.04	0.0895	646080	keystroke_a	a	n/a
323.197	0.1015	646394	keystroke_n	n	n/a
323.3885	0.112	646777	keystroke_Key.space	Key.space	n/a
323.625	0.1005	647250	keystroke_c	c	n/a
323.748	0.169	647496	keystroke_o	o	n/a
323.906	0.1015	647812	keystroke_n	n	n/a
324.0405	0.0905	648081	keystroke_t	t	n/a
324.1535	0.1015	648307	keystroke_a	a	n/a
324.2775	0.123	648555	keystroke_i	i	n/a
324.367	0.1135	648734	keystroke_n	n	n/a
324.5025	0.0895	649005	keystroke_e	e	n/a
324.6705	0.0905	649341	keystroke_d	d	n/a
324.997	0.1015	649994	keystroke_Key.enter	Key.enter	n/a
325.1025	5.8595	650205	prompt	n/a	awarded virgin assumes ripe\n
325.6945	0.068	651389	keystroke_a	a	n/a
325.931	0.0225	651862	keystroke_s	s	n/a
326.302	0.135	652604	keystroke_Key.backspace	Key.backspace	n/a
326.584	0.079	653168	keystroke_w	w	n/a
326.752	0.1465	653504	keystroke_a	a	n/a
326.8875	0.078	653775	keystroke_r	r	n/a
327.0895	0.1015	654179	keystroke_d	d	n/a
327.3145	0.0795	654629	keystroke_e	e	n/a
327.4835	0.1235	654967	keystroke_d	d	n/a
327.596	0.112	655192	keystroke_Key.space	Key.space	n/a
327.776	0.09	655552	keystroke_v	v	n/a
327.9115	0.1005	655823	keystroke_i	i	n/a
328.035	0.0675	656070	keystroke_r	r	n/a
328.2035	0.0785	656407	keystroke_g	g	n/a
328.35	0.1575	656700	keystroke_i	i	n/a
328.4625	0.135	656925	keystroke_n	n	n/a
328.552	0.079	657104	keystroke_Key.space	Key.space	n/a
328.721	0.0675	657442	keystroke_a	a	n/a
328.946	0.0225	657892	keystroke_s	s	n/a
329.0695	0.0675	658139	keystroke_s	s	n/a
329.3285	0.079	658657	keystroke_u	u	n/a
329.5535	0.101	659107	keystroke_m	m	n/a
329.711	0.0785	659422	keystroke_e	e	n/a
329.9135	0.079	659827	keystroke_s	s	n/a
330.0595	0.1125	660119	keystroke_Key.space	Key.space	n/a
330.2285	0.0895	660457	keystroke_r	r	n/a
330.352	0.1595	660704	keystroke_i	i	n/a
330.4875	0.1235	660975	keystroke_p	p	n/a
330.6	0.09	661200	keystroke_e	e	n/a
330.8245	0.135	661649	keystroke_Key.enter	Key.enter	n/a
330.9655	6.8355	661931	prompt	n/a	capture federal infected thumbnail\n
331.478	0.078	662956	keystroke_a	a	n/a
331.6575	0.1125	663315	keystroke_c	c	n/a
332.13	0.056	664260	keystroke_Key.backspace	Key.backspace	n/a
332.288	0.0445	664576	keystroke_Key.backspace	Key.backspace	n/a
332.467	0.1125	664934	keystroke_c	c	n/a
332.5915	0.134	665183	keystroke_a	a	n/a
332.7595	0.135	665519	keystroke_p	p	n/a
332.9285	0.09	665857	keystroke_t	t	n/a
333.052	0.1355	666104	keystroke_u	u	n/a
333.1995	0.1005	666399	keystroke_r	r	n/a
333.2325	0.123	666465	keystroke_e	e	n/a
333.345	0.078	666690	keystroke_Key.space	Key.space	n/a
333.457	0.1245	666914	keystroke_f	f	n/a
333.57	0.101	667140	keystroke_e	e	n/a
333.7615	0.101	667523	keystroke_d	d	n/a
333.9635	0.101	667927	keystroke_e	e	n/a
334.0195	0.101	668039	keystroke_r	r	n/a
334.144	0.1005	668288	keystroke_a	a	n/a
334.2785	0.101	668557	keystroke_l	l	n/a
334.391	0.09	668782	keystroke_Key.space	Key.space	n/a
334.526	0.135	669052	keystroke_i	i	n/a
334.616	0.1125	669232	keystroke_n	n	n/a
334.74	0.1345	669480	keystroke_f	f	n/a
334.8855	0.0905	669771	keystroke_e	e	n/a
335.178	0.079	670356	keystroke_c	c	n/a
335.4485	0.1015	670897	keystroke_t	t	n/a
335.5045	0.113	671009	keystroke_e	e	n/a
335.696	0.1015	671392	keystroke_d	d	n/a
335.7745	0.0905	671549	keystroke_Key.space	Key.space	n/a
335.9095	0.0905	671819	keystroke_t	t	n/a
336.011	0.0905	672022	keystroke_h	h	n/a
336.2135	0.079	672427	keystroke_u	u	n/a
336.5735	0.09	673147	keystroke_m	m	n/a
336.72	0.091	673440	keystroke_b	b	n/a
336.9785	0.1015	673957	keystroke_n	n	n/a
337.1025	0.101	674205	keystroke_a	a	n/a
337.226	0.1575	674452	keystroke_i	i	n/a
337.3385	0.1465	674677	keystroke_l	l	n/a
337.665	0.1345	675330	keystroke_Key.enter	Key.enter	n/a
337.8045	5.3515	675609	prompt	n/a	lyric greatly stage based\n
338.3515	0.0895	676703	keystroke_l	l	n/a
338.5535	0.1355	677107	keystroke_y	y	n/a
338.7675	0.0565	677535	keystroke_r	r	n/a
338.8575	0.09	677715	keystroke_i	i	n/a
338.97	0.101	677940	keystroke_c	c	n/a
339.105	0.135	678210	keystroke_Key.space	Key.space	n/a
339.274	0.1005	678548	keystroke_g	g	n/a
339.511	0.156	679022	keystroke_r	r	n/a
339.5775	0.1235	679155	keystroke_e	e	n/a
339.712	0.1125	679424	keystroke_a	a	n/a
339.858	0.1015	679716	keystroke_t	t	n/a
340.1285	0.0675	680257	keystroke_l	l	n/a
340.32	0.1345	680640	keystroke_y	y	n/a
340.658	0.1125	681316	keystroke_Key.space	Key.space	n/a
340.9295	0.1105	681859	keystroke_s	s	n/a
341.097	0.1005	682194	keystroke_t	t	n/a
341.2435	0.1115	682487	keystroke_a	a	n/a
341.345	0.156	682690	keystroke_g	g	n/a
341.5465	0.0895	683093	keystroke_e	e	n/a
341.828	0.067	683656	keystroke_Key.space	Key.space	n/a
341.9735	0.09	683947	keystroke_b	b	n/a
342.12	0.146	684240	keystroke_a	a	n/a
342.255	0.146	684510	keystroke_s	s	n/a
342.412	0.113	684824	keystroke_e	e	n/a
342.626	0.09	685252	keystroke_d	d	n/a
343.0195	0.1355	686039	keystroke_Key.enter	Key.enter	n/a
343.159	5.9485	686318	prompt	n/a	designers balance talking differential\n
343.7735	0.0675	687547	keystroke_d	d	n/a
343.9535	0.0675	687907	keystroke_e	e	n/a
344.078	0.089	688156	keystroke_s	s	n/a
344.201	0.101	688402	keystroke_i	i	n/a
344.3245	0.079	688649	keystroke_g	g	n/a
344.4145	0.1355	688829	keystroke_n	n	n/a
344.5725	0.1125	689145	keystroke_e	e	n/a
344.64	0.079	689280	keystroke_r	r	n/a
344.921	0.024	689842	keystroke_s	s	n/a
344.9325	0.0895	689865	keystroke_Key.space	Key.space	n/a
345.0785	0.1125	690157	keystroke_b	b	n/a
345.2815	0.067	690563	keystroke_a	a	n/a
345.3595	0.079	690719	keystroke_l	l	n/a
345.4945	0.1015	690989	keystroke_a	a	n/a
345.596	0.1125	691192	keystroke_n	n	n/a
345.72	0.101	691440	keystroke_c	c	n/a
345.956	0.056	691912	keystroke_e	e	n/a
346.024	0.1005	692048	keystroke_Key.space	Key.space	n/a
346.147	0.101	692294	keystroke_t	t	n/a
346.3045	0.1125	692609	keystroke_a	a	n/a
346.44	0.1685	692880	keystroke_l	l	n/a
346.5745	0.0905	693149	keystroke_k	k	n/a
346.778	0.134	693556	keystroke_i	i	n/a
346.867	0.124	693734	keystroke_n	n	n/a
347.014	0.09	694028	keystroke_g	g	n/a
347.0925	0.0785	694185	keystroke_Key.space	Key.space	n/a
347.2385	0.09	694477	keystroke_d	d	n/a
347.3625	0.101	694725	keystroke_i	i	n/a
347.486	0.0915	694972	keystroke_f	f	n/a
347.666	0.09	695332	keystroke_f	f	n/a
347.801	0.124	695602	keystroke_e	e	n/a
347.891	0.135	695782	keystroke_r	r	n/a
348.015	0.0895	696030	keystroke_e	e	n/a
348.172	0.102	696344	keystroke_n	n	n/a
348.3075	0.0785	696615	keystroke_t	t	n/a
348.4425	0.1015	696885	keystroke_i	i	n/a
348.555	0.0895	697110	keystroke_a	a	n/a
348.6895	0.135	697379	keystroke_l	l	n/a
349.005	0.1015	698010	keystroke_Key.enter	Key.enter	n/a
349.111	5.6325	698222	prompt	n/a	naughty accepts container complement\n
349.77	0.101	699540	keystroke_n	n	n/a
349.8945	0.089	699789	keystroke_a	a	n/a
350.04	0.0895	700080	keystroke_u	u	n/a
350.22	0.0565	700440	keystroke_g	g	n/a
350.288	0.0895	700576	keystroke_h	h	n/a
350.4115	0.067	700823	keystroke_t	t	n/a
350.5345	0.1015	701069	keystroke_y	y	n/a
350.636	0.09	701272	keystroke_Key.space	Key.space	n/a
350.839	0.0445	701678	keystroke_a	a	n/a
351.0295	0.079	702059	keystroke_c	c	n/a
351.199	0.067	702398	keystroke_c	c	n/a
351.401	0.0465	702802	keystroke_e	e	n/a
351.5365	0.0895	703073	keystroke_p	p	n/a
351.682	0.0125	703364	keystroke_t	t	n/a
351.7725	0.101	703545	keystroke_s	s	n/a
351.8845	0.0675	703769	keystroke_Key.space	Key.space	n/a
352.0645	0.068	704129	keystroke_c	c	n/a
352.166	0.1465	704332	keystroke_o	o	n/a
352.267	0.1125	704534	keystroke_n	n	n/a
352.3685	0.068	704737	keystroke_t	t	n/a
352.481	0.0785	704962	keystroke_a	a	n/a
352.571	0.1685	705142	keystroke_i	i	n/a
352.6835	0.1235	705367	keystroke_n	n	n/a
352.797	0.1565	705594	keystroke_e	e	n/a
352.8635	0.1125	705727	keystroke_r	r	n/a
352.942	0.079	705884	keystroke_Key.space	Key.space	n/a
353.1115	0.078	706223	keystroke_c	c	n/a
353.201	0.146	706402	keystroke_o	o	n/a
353.3135	0.2145	706627	keystroke_m	m	n/a
353.4825	0.1125	706965	keystroke_p	p	n/a
353.5045	0.1355	707009	keystroke_l	l	n/a
353.696	0.0675	707392	keystroke_e	e	n/a
353.876	0.1015	707752	keystroke_m	m	n/a
354.0115	0.101	708023	keystroke_e	e	n/a
354.1235	0.1125	708247	keystroke_n	n	n/a
354.281	0.0785	708562	keystroke_t	t	n/a
354.585	0.1575	709170	keystroke_Key.enter	Key.enter	n/a
354.7475	4.4395	709495	prompt	n/a	chambers done between injury\n
355.3505	0.0675	710701	keystroke_c	c	n/a
355.4625	0.0785	710925	keystroke_h	h	n/a
355.552	0.113	711104	keystroke_a	a	n/a
355.654	0.1005	711308	keystroke_m	m	n/a
355.766	0.09	711532	keystroke_b	b	n/a
355.9575	0.124	711915	keystroke_e	e	n/a
356.0365	0.067	712073	keystroke_r	r	n/a
356.194	0.09	712388	keystroke_s	s	n/a
356.2845	0.0775	712569	keystroke_Key.space	Key.space	n/a
356.4185	0.079	712837	keystroke_d	d	n/a
356.542	0.1355	713084	keystroke_o	o	n/a
356.6445	0.1115	713289	keystroke_n	n	n/a
356.7115	0.1125	713423	keystroke_e	e	n/a
356.8015	0.101	713603	keystroke_Key.space	Key.space	n/a
356.9585	0.09	713917	keystroke_b	b	n/a
357.116	0.1015	714232	keystroke_e	e	n/a
357.1955	0.0895	714391	keystroke_t	t	n/a
357.2965	0.112	714593	keystroke_w	w	n/a
357.3745	0.0905	714749	keystroke_e	e	n/a
357.5215	0.0895	715043	keystroke_e	e	n/a
357.6785	0.079	715357	keystroke_n	n	n/a
357.7685	0.101	715537	keystroke_Key.space	Key.space	n/a
357.9485	0.0905	715897	keystroke_i	i	n/a
358.0165	0.1125	716033	keystroke_n	n	n/a
358.241	0.056	716482	keystroke_j	j	n/a
358.421	0.079	716842	keystroke_u	u	n/a
358.6235	0.079	717247	keystroke_r	r	n/a
358.882	0.012	717764	keystroke_y	y	n/a
359.0735	0.1125	718147	keystroke_Key.enter	Key.enter	n/a
359.1895	5.69	718379	prompt	n/a	assignments incl rebate bracelet\n
359.6815	0.0565	719363	keystroke_a	a	n/a
359.85	0.056	719700	keystroke_s	s	n/a
359.974	0.0895	719948	keystroke_s	s	n/a
360.1195	0.079	720239	keystroke_i	i	n/a
360.221	0.0785	720442	keystroke_g	g	n/a
360.3	0.09	720600	keystroke_n	n	n/a
360.4915	0.0785	720983	keystroke_m	m	n/a
360.637	0.0795	721274	keystroke_e	e	n/a
360.7045	0.057	721409	keystroke_n	n	n/a
360.8625	0.056	721725	keystroke_t	t	n/a
361.0085	0.0905	722017	keystroke_s	s	n/a
361.1215	0.112	722243	keystroke_Key.space	Key.space	n/a
361.29	0.135	722580	keystroke_i	i	n/a
361.4925	0.135	722985	keystroke_n	n	n/a
361.6615	0.078	723323	keystroke_c	c	n/a
361.8075	0.101	723615	keystroke_l	l	n/a
362.055	0.056	724110	keystroke_Key.space	Key.space	n/a
362.4155	0.123	724831	keystroke_r	r	n/a
362.5275	0.079	725055	keystroke_e	e	n/a
362.7295	0.0675	725459	keystroke_b	b	n/a
362.831	0.1575	725662	keystroke_a	a	n/a
362.9995	0.135	725999	keystroke_t	t	n/a
363.146	0.135	726292	keystroke_e	e	n/a
363.2585	0.1355	726517	keystroke_Key.space	Key.space	n/a
363.4945	0.0785	726989	keystroke_b	b	n/a
363.709	0.112	727418	keystroke_r	r	n/a
363.8105	0.056	727621	keystroke_a	a	n/a
363.9445	0.068	727889	keystroke_c	c	n/a
364.1245	0.057	728249	keystroke_e	e	n/a
364.237	0.1015	728474	keystroke_l	l	n/a
364.361	0.0675	728722	keystroke_e	e	n/a
364.552	0.068	729104	keystroke_t	t	n/a
364.7775	0.101	729555	keystroke_Key.enter	Key.enter	n/a
364.8845	5.339	729769	prompt	n/a	twist neighbors religion detect\n
365.441	0.0675	730882	keystroke_t	t	n/a
365.599	0.09	731198	keystroke_w	w	n/a
365.7335	0.0785	731467	keystroke_i	i	n/a
365.8575	0.101	731715	keystroke_s	s	n/a
365.9365	0.112	731873	keystroke_t	t	n/a
366.071	0.0675	732142	keystroke_Key.space	Key.space	n/a
366.251	0.0785	732502	keystroke_n	n	n/a
366.341	0.0905	732682	keystroke_e	e	n/a
366.454	0.1125	732908	keystroke_i	i	n/a
366.5775	0.0785	733155	keystroke_g	g	n/a
366.667	0.1015	733334	keystroke_h	h	n/a
366.7915	0.101	733583	keystroke_b	b	n/a
366.926	0.0685	733852	keystroke_o	o	n/a
367.3535	0.079	734707	keystroke_r	r	n/a
367.522	0.079	735044	keystroke_s	s	n/a
367.6575	0.09	735315	keystroke_Key.space	Key.space	n/a
367.8375	0.112	735675	keystroke_r	r	n/a
367.9385	0.101	735877	keystroke_e	e	n/a
368.1295	0.091	736259	keystroke_l	l	n/a
368.2775	0.089	736555	keystroke_i	i	n/a
368.423	0.078	736846	keystroke_g	g	n/a
368.512	0.2255	737024	keystroke_i	i	n/a
368.6025	0.1795	737205	keystroke_o	o	n/a
368.7485	0.1465	737497	keystroke_n	n	n/a
368.9065	0.1125	737813	keystroke_Key.space	Key.space	n/a
369.0635	0.068	738127	keystroke_d	d	n/a
369.2445	0.1225	738489	keystroke_e	e	n/a
369.322	0.1465	738644	keystroke_t	t	n/a
369.4685	0.102	738937	keystroke_e	e	n/a
369.694	0.09	739388	keystroke_c	c	n/a
369.8965	0.078	739793	keystroke_t	t	n/a
370.0875	0.135	740175	keystroke_Key.enter	Key.enter	n/a
370.2265	10.1335	740453	prompt	n/a	assessments architectural adventures funny\n
370.751	0.045	741502	keystroke_a	a	n/a
370.9085	0.0455	741817	keystroke_s	s	n/a
371.0545	0.0675	742109	keystroke_s	s	n/a
371.1895	0.079	742379	keystroke_e	e	n/a
371.359	0.0555	742718	keystroke_s	s	n/a
371.4945	0.067	742989	keystroke_s	s	n/a
371.73	0.101	743460	keystroke_m	m	n/a
371.8645	0.0905	743729	keystroke_e	e	n/a
372	0.09	744000	keystroke_n	n	n/a
372.0905	0.067	744181	keystroke_t	t	n/a
372.259	0.1005	744518	keystroke_s	s	n/a
372.371	0.0785	744742	keystroke_Key.space	Key.space	n/a
372.461	0.09	744922	keystroke_a	a	n/a
372.675	0.07	745350	keystroke_r	r	n/a
372.889	0.067	745778	keystroke_c	c	n/a
373.0235	0.1235	746047	keystroke_h	h	n/a
373.102	0.0905	746204	keystroke_i	i	n/a
373.226	0.113	746452	keystroke_t	t	n/a
373.35	0.0565	746700	keystroke_e	e	n/a
373.519	0.0785	747038	keystroke_c	c	n/a
373.721	0.0785	747442	keystroke_t	t	n/a
373.8335	0.1125	747667	keystroke_u	u	n/a
373.935	0.1015	747870	keystroke_r	r	n/a
374.0135	0.0905	748027	keystroke_a	a	n/a
374.1045	0.1005	748209	keystroke_l	l	n/a
374.2165	0.067	748433	keystroke_Key.space	Key.space	n/a
374.3395	0.09	748679	keystroke_a	a	n/a
374.4185	0.101	748837	keystroke_d	d	n/a
374.611	0.0895	749222	keystroke_v	v	n/a
374.7785	0.079	749557	keystroke_e	e	n/a
374.925	0.101	749850	keystroke_n	n	n/a
375.0145	0.09	750029	keystroke_t	t	n/a
375.184	0.112	750368	keystroke_u	u	n/a
375.285	0.067	750570	keystroke_r	r	n/a
375.454	0.09	750908	keystroke_s	s	n/a
375.5545	0.0905	751109	keystroke_Key.space	Key.space	n/a
375.6445	0.103	751289	keystroke_f	f	n/a
375.7685	0.0675	751537	keystroke_u	u	n/a
375.971	0.0565	751942	keystroke_n	n	n/a
376.1065	0.0785	752213	keystroke_n	n	n/a
376.3195	0.091	752639	keystroke_y	y	n/a
376.624	0.0675	753248	keystroke_Key.backspace	Key.backspace	n/a
376.759	0.067	753518	keystroke_Key.backspace	Key.backspace	n/a
376.972	0.0115	753944	keystroke_Key.backspace	Key.backspace	n/a
377.0395	0.0675	754079	keystroke_Key.backspace	Key.backspace	n/a
377.1745	0.0795	754349	keystroke_Key.backspace	Key.backspace	n/a
377.3325	0.0675	754665	keystroke_Key.backspace	Key.backspace	n/a
377.4895	0.079	754979	keystroke_Key.backspace	Key.backspace	n/a
377.6925	0.0685	755385	keystroke_e	e	n/a
377.9065	0.0785	755813	keystroke_s	s	n/a
378.322	0.1125	756644	keystroke_Key.space	Key.space	n/a
379.009	0.0785	758018	keystroke_f	f	n/a
379.2785	0.1125	758557	keystroke_u	u	n/a
379.594	0.045	759188	keystroke_n	n	n/a
379.7625	0.0785	759525	keystroke_n	n	n/a
379.9775	0.0775	759955	keystroke_y	y	n/a
380.2575	0.1015	760515	keystroke_Key.enter	Key.enter	n/a
380.3635	5.2725	760727	prompt	n/a	jordan seeking complications farmers\n
381	0.0785	762000	keystroke_j	j	n/a
381.124	0.0785	762248	keystroke_o	o	n/a
381.2475	0.0565	762495	keystroke_r	r	n/a
381.461	0.0905	762922	keystroke_d	d	n/a
381.5515	0.0895	763103	keystroke_a	a	n/a
381.686	0.113	763372	keystroke_n	n	n/a
381.7775	0.0775	763555	keystroke_Key.space	Key.space	n/a
381.889	0.112	763778	keystroke_s	s	n/a
381.967	0.079	763934	keystroke_e	e	n/a
382.114	0.09	764228	keystroke_e	e	n/a
382.237	0.0675	764474	keystroke_k	k	n/a
382.4065	0.101	764813	keystroke_i	i	n/a
382.4515	0.112	764903	keystroke_n	n	n/a
382.552	0.09	765104	keystroke_g	g	n/a
382.6085	0.079	765217	keystroke_Key.space	Key.space	n/a
382.7545	0.1015	765509	keystroke_c	c	n/a
382.845	0.124	765690	keystroke_o	o	n/a
382.9465	0.1795	765893	keystroke_m	m	n/a
383.137	0.159	766274	keystroke_p	p	n/a
383.272	0.147	766544	keystroke_l	l	n/a
383.3965	0.101	766793	keystroke_i	i	n/a
383.565	0.0905	767130	keystroke_c	c	n/a
383.835	0.0225	767670	keystroke_a	a	n/a
383.8465	0.0445	767693	keystroke_t	t	n/a
383.936	0.169	767872	keystroke_i	i	n/a
384.037	0.1355	768074	keystroke_o	o	n/a
384.139	0.1235	768278	keystroke_n	n	n/a
384.274	0.0895	768548	keystroke_s	s	n/a
384.352	0.0795	768704	keystroke_Key.space	Key.space	n/a
384.4775	0.1	768955	keystroke_f	f	n/a
384.6225	0.09	769245	keystroke_a	a	n/a
384.7015	0.067	769403	keystroke_r	r	n/a
384.8365	0.112	769673	keystroke_m	m	n/a
384.9825	0.135	769965	keystroke_e	e	n/a
385.0615	0.09	770123	keystroke_r	r	n/a
385.252	0.079	770504	keystroke_s	s	n/a
385.5335	0.1015	771067	keystroke_Key.enter	Key.enter	n/a
385.6395	4.6545	771279	prompt	n/a	gore shirt complaints thousands\n
386.3215	0.0785	772643	keystroke_g	g	n/a
386.445	0.09	772890	keystroke_o	o	n/a
386.546	0.169	773092	keystroke_r	r	n/a
386.659	0.123	773318	keystroke_e	e	n/a
386.771	0.1015	773542	keystroke_Key.space	Key.space	n/a
386.8955	0.0785	773791	keystroke_s	s	n/a
387.019	0.1125	774038	keystroke_h	h	n/a
387.086	0.101	774172	keystroke_i	i	n/a
387.176	0.0785	774352	keystroke_r	r	n/a
387.356	0.0785	774712	keystroke_t	t	n/a
387.412	0.0795	774824	keystroke_Key.space	Key.space	n/a
387.57	0.101	775140	keystroke_c	c	n/a
387.694	0.1345	775388	keystroke_o	o	n/a
387.806	0.1915	775612	keystroke_m	m	n/a
387.986	0.125	775972	keystroke_p	p	n/a
388.0425	0.124	776085	keystroke_l	l	n/a
388.2335	0.09	776467	keystroke_a	a	n/a
388.357	0.124	776714	keystroke_i	i	n/a
388.447	0.124	776894	keystroke_n	n	n/a
388.5605	0.078	777121	keystroke_t	t	n/a
388.7065	0.112	777413	keystroke_s	s	n/a
388.807	0.1245	777614	keystroke_Key.space	Key.space	n/a
389.066	0.0675	778132	keystroke_t	t	n/a
389.156	0.0905	778312	keystroke_h	h	n/a
389.314	0.1245	778628	keystroke_o	o	n/a
389.405	0.0915	778810	keystroke_u	u	n/a
389.4965	0.0995	778993	keystroke_s	s	n/a
389.585	0.1115	779170	keystroke_a	a	n/a
389.7415	0.124	779483	keystroke_n	n	n/a
389.8545	0.135	779709	keystroke_d	d	n/a
389.9335	0.1005	779867	keystroke_s	s	n/a
390.158	0.1345	780316	keystroke_Key.enter	Key.enter	n/a
390.2985	4.72	780597	prompt	n/a	horizon drops slightly programs\n
390.9115	0.1235	781823	keystroke_h	h	n/a
391.0125	0.124	782025	keystroke_o	o	n/a
391.193	0.068	782386	keystroke_r	r	n/a
391.339	0.1015	782678	keystroke_i	i	n/a
391.474	0.056	782948	keystroke_z	z	n/a
391.665	0.124	783330	keystroke_o	o	n/a
391.766	0.1125	783532	keystroke_n	n	n/a
391.8675	0.09	783735	keystroke_Key.space	Key.space	n/a
392.1155	0.046	784231	keystroke_d	d	n/a
392.318	0.0785	784636	keystroke_r	r	n/a
392.43	0.135	784860	keystroke_o	o	n/a
392.5205	0.1125	785041	keystroke_p	p	n/a
392.611	0.1005	785222	keystroke_s	s	n/a
392.7005	0.078	785401	keystroke_Key.space	Key.space	n/a
392.835	0.0905	785670	keystroke_s	s	n/a
392.959	0.123	785918	keystroke_l	l	n/a
393.028	0.0885	786056	keystroke_i	i	n/a
393.105	0.0675	786210	keystroke_g	g	n/a
393.2285	0.0905	786457	keystroke_h	h	n/a
393.341	0.0565	786682	keystroke_t	t	n/a
393.476	0.124	786952	keystroke_l	l	n/a
393.5665	0.123	787133	keystroke_y	y	n/a
393.7125	0.079	787425	keystroke_Key.space	Key.space	n/a
393.814	0.1345	787628	keystroke_p	p	n/a
394.0165	0.0895	788033	keystroke_r	r	n/a
394.1285	0.09	788257	keystroke_o	o	n/a
394.2295	0.079	788459	keystroke_g	g	n/a
394.3985	0.1015	788797	keystroke_r	r	n/a
394.489	0.0895	788978	keystroke_a	a	n/a
394.5895	0.0905	789179	keystroke_m	m	n/a
394.7025	0.0785	789405	keystroke_s	s	n/a
394.9165	0.101	789833	keystroke_Key.enter	Key.enter	n/a
395.0225	6.2505	790045	prompt	n/a	sitting deer determining annie\n
395.58	0.0675	791160	keystroke_s	s	n/a
395.715	0.056	791430	keystroke_i	i	n/a
395.805	0.0675	791610	keystroke_t	t	n/a
395.9515	0.1005	791903	keystroke_t	t	n/a
396.075	0.124	792150	keystroke_i	i	n/a
396.1535	0.124	792307	keystroke_n	n	n/a
396.2545	0.1015	792509	keystroke_g	g	n/a
396.3225	0.09	792645	keystroke_Key.space	Key.space	n/a
396.4695	0.0895	792939	keystroke_d	d	n/a
396.7045	0.0565	793409	keystroke_e	e	n/a
396.874	0.0895	793748	keystroke_e	e	n/a
397.099	0.114	794198	keystroke_r	r	n/a
397.2335	0.113	794467	keystroke_Key.space	Key.space	n/a
397.5485	0.0795	795097	keystroke_d	d	n/a
397.729	0.0675	795458	keystroke_e	e	n/a
397.9085	0.079	795817	keystroke_t	t	n/a
398.078	0.112	796156	keystroke_e	e	n/a
398.146	0.0895	796292	keystroke_r	r	n/a
398.314	0.112	796628	keystroke_m	m	n/a
398.4375	0.1685	796875	keystroke_i	i	n/a
398.595	0.1575	797190	keystroke_n	n	n/a
398.741	0.147	797482	keystroke_i	i	n/a
398.854	0.1465	797708	keystroke_n	n	n/a
399.045	0.113	798090	keystroke_g	g	n/a
399.1465	0.0785	798293	keystroke_Key.space	Key.space	n/a
399.3945	0.067	798789	keystroke_a	a	n/a
399.5515	0.078	799103	keystroke_n	n	n/a
399.7315	0.0565	799463	keystroke_n	n	n/a
399.8775	0.0785	799755	keystroke_i	i	n/a
400.024	0.0445	800048	keystroke_e	e	n/a
400.147	0.0565	800294	keystroke_e	e	n/a
400.4515	0.0555	800903	keystroke_Key.backspace	Key.backspace	n/a
400.5745	0.079	801149	keystroke_Key.backspace	Key.backspace	n/a
400.8895	0.0565	801779	keystroke_e	e	n/a
401.1825	0.0895	802365	keystroke_Key.enter	Key.enter	n/a
401.276	5.296	802552	prompt	n/a	assess trans stable compatibility\n
401.914	0.0675	803828	keystroke_a	a	n/a
402.082	0.057	804164	keystroke_s	s	n/a
402.24	0.0565	804480	keystroke_s	s	n/a
402.431	0.0675	804862	keystroke_e	e	n/a
402.6	0.045	805200	keystroke_s	s	n/a
402.724	0.0785	805448	keystroke_s	s	n/a
402.915	0.056	805830	keystroke_Key.space	Key.space	n/a
403.1395	0.0795	806279	keystroke_t	t	n/a
403.2975	0.09	806595	keystroke_r	r	n/a
403.4215	0.09	806843	keystroke_a	a	n/a
403.523	0.1235	807046	keystroke_n	n	n/a
403.635	0.0785	807270	keystroke_s	s	n/a
403.747	0.068	807494	keystroke_Key.space	Key.space	n/a
403.882	0.1355	807764	keystroke_s	s	n/a
403.9835	0.1015	807967	keystroke_t	t	n/a
404.1745	0.103	808349	keystroke_a	a	n/a
404.2985	0.09	808597	keystroke_b	b	n/a
404.4335	0.1015	808867	keystroke_l	l	n/a
404.546	0.1015	809092	keystroke_e	e	n/a
404.625	0.0565	809250	keystroke_Key.space	Key.space	n/a
404.805	0.091	809610	keystroke_c	c	n/a
404.9065	0.1455	809813	keystroke_o	o	n/a
405.007	0.1575	810014	keystroke_m	m	n/a
405.1535	0.101	810307	keystroke_p	p	n/a
405.2885	0.056	810577	keystroke_a	a	n/a
405.4235	0.0675	810847	keystroke_t	t	n/a
405.5365	0.0895	811073	keystroke_i	i	n/a
405.6485	0.079	811297	keystroke_b	b	n/a
405.772	0.1245	811544	keystroke_i	i	n/a
405.874	0.1575	811748	keystroke_l	l	n/a
405.9975	0.09	811995	keystroke_i	i	n/a
406.1325	0.0565	812265	keystroke_t	t	n/a
406.2225	0.112	812445	keystroke_y	y	n/a
406.4705	0.1005	812941	keystroke_Key.enter	Key.enter	n/a
406.5755	6.7575	813151	prompt	n/a	unable manually outreach paradise\n
407.202	0.0775	814404	keystroke_u	u	n/a
407.3365	0.1005	814673	keystroke_r	r	n/a
407.6175	0.0565	815235	keystroke_Key.backspace	Key.backspace	n/a
407.843	0.101	815686	keystroke_n	n	n/a
408.0115	0.09	816023	keystroke_a	a	n/a
408.157	0.1015	816314	keystroke_b	b	n/a
408.27	0.101	816540	keystroke_l	l	n/a
408.382	0.1025	816764	keystroke_e	e	n/a
408.45	0.09	816900	keystroke_Key.space	Key.space	n/a
408.5625	0.101	817125	keystroke_m	m	n/a
408.697	0.068	817394	keystroke_a	a	n/a
408.811	0.055	817622	keystroke_n	n	n/a
408.9895	0.0675	817979	keystroke_u	u	n/a
409.1135	0.068	818227	keystroke_a	a	n/a
409.1925	0.056	818385	keystroke_l	l	n/a
409.328	0.067	818656	keystroke_l	l	n/a
409.4285	0.1125	818857	keystroke_y	y	n/a
409.552	0.0675	819104	keystroke_Key.space	Key.space	n/a
409.654	0.1125	819308	keystroke_o	o	n/a
409.7325	0.079	819465	keystroke_u	u	n/a
409.8335	0.056	819667	keystroke_t	t	n/a
410.0245	0.113	820049	keystroke_r	r	n/a
410.1945	0.134	820389	keystroke_a	a	n/a
410.4745	0.045	820949	keystroke_Key.backspace	Key.backspace	n/a
410.5645	0.0915	821129	keystroke_e	e	n/a
410.655	0.101	821310	keystroke_a	a	n/a
410.8235	0.1015	821647	keystroke_c	c	n/a
410.947	0.114	821894	keystroke_h	h	n/a
411.061	0.0885	822122	keystroke_Key.space	Key.space	n/a
411.24	0.112	822480	keystroke_p	p	n/a
411.465	0.067	822930	keystroke_r	r	n/a
411.5115	0.111	823023	keystroke_a	a	n/a
411.78	0.0445	823560	keystroke_Key.backspace	Key.backspace	n/a
411.904	0.091	823808	keystroke_Key.backspace	Key.backspace	n/a
412.072	0.136	824144	keystroke_a	a	n/a
412.23	0.1015	824460	keystroke_r	r	n/a
412.3315	0.1355	824663	keystroke_a	a	n/a
412.5895	0.1015	825179	keystroke_d	d	n/a
412.7135	0.101	825427	keystroke_i	i	n/a
412.826	0.0785	825652	keystroke_s	s	n/a
413.0285	0.0675	826057	keystroke_e	e	n/a
