onset	duration	sample	value	key	prompt_text
4.277	9.833	8554	prompt	n/a	the quick brown fox jumps over a lazy dog\n
6.444	0	12888	keystroke	t	n/a
6.502	0.09	13004	keystroke	h	n/a
6.6075	0.0745	13215	keystroke	e	n/a
6.787	0.0745	13574	keystroke	Key.space	n/a
7.192	0.06	14384	keystroke	q	n/a
7.3425	0.075	14685	keystroke	u	n/a
7.5075	0.09	15015	keystroke	i	n/a
7.6425	0.06	15285	keystroke	c	n/a
7.7775	0.105	15555	keystroke	k	n/a
7.912	0.09	15824	keystroke	Key.space	n/a
8.062	0.091	16124	keystroke	b	n/a
8.168	0.0595	16336	keystroke	r	n/a
8.3325	0.06	16665	keystroke	o	n/a
8.4375	0.105	16875	keystroke	w	n/a
8.617	0.105	17234	keystroke	n	n/a
8.827	0.0455	17654	keystroke	Key.space	n/a
9.0675	0.09	18135	keystroke	f	n/a
9.2475	0.03	18495	keystroke	o	n/a
9.3825	0.0895	18765	keystroke	x	n/a
9.5625	0.0595	19125	keystroke	Key.space	n/a
9.8775	0.045	19755	keystroke	j	n/a
10.477	0.09	20954	keystroke	u	n/a
10.687	0.075	21374	keystroke	m	n/a
11.1525	0.059	22305	keystroke	p	n/a
11.3165	0.106	22633	keystroke	s	n/a
11.4525	0.105	22905	keystroke	Key.space	n/a
11.7975	0.0905	23595	keystroke	o	n/a
11.933	0.09	23866	keystroke	v	n/a
12.098	0.135	24196	keystroke	e	n/a
12.218	0.0895	24436	keystroke	r	n/a
12.3375	0.0895	24675	keystroke	Key.space	n/a
12.457	0.105	24914	keystroke	a	n/a
12.577	0.09	25154	keystroke	Key.space	n/a
12.7575	0.105	25515	keystroke	l	n/a
12.9075	0.075	25815	keystroke	a	n/a
13.1175	0.09	26235	keystroke	z	n/a
13.2225	0.105	26445	keystroke	y	n/a
13.3425	0.1055	26685	keystroke	Key.space	n/a
13.523	0.105	27046	keystroke	d	n/a
13.643	0.074	27286	keystroke	o	n/a
13.792	0.09	27584	keystroke	g	n/a
14.032	0.0755	28064	keystroke	Key.enter	n/a
14.1145	8.6045	28229	prompt	n/a	parker applicants defend entirely\n
15.008	0.089	30016	keystroke	a	n/a
16.042	0.015	32084	keystroke	Key.backspace	n/a
16.523	0.014	33046	keystroke	p	n/a
16.583	0.03	33166	keystroke	a	n/a
16.628	0.075	33256	keystroke	r	n/a
16.7925	0.09	33585	keystroke	k	n/a
16.9125	0.105	33825	keystroke	e	n/a
17.0625	0.09	34125	keystroke	r	n/a
17.287	0.105	34574	keystroke	Key.space	n/a
18.067	0.075	36134	keystroke	a	n/a
18.202	0.06	36404	keystroke	p	n/a
18.322	0.075	36644	keystroke	p	n/a
18.517	0.075	37034	keystroke	l	n/a
18.727	0.09	37454	keystroke	i	n/a
18.862	0.09	37724	keystroke	c	n/a
18.967	0.105	37934	keystroke	a	n/a
19.117	0.09	38234	keystroke	n	n/a
19.252	0.09	38504	keystroke	t	n/a
19.402	0.105	38804	keystroke	s	n/a
19.552	0.105	39104	keystroke	Key.space	n/a
19.9725	0.135	39945	keystroke	d	n/a
20.0925	0.075	40185	keystroke	e	n/a
20.332	0.105	40664	keystroke	f	n/a
20.452	0.09	40904	keystroke	e	n/a
20.587	0.105	41174	keystroke	n	n/a
20.827	0.075	41654	keystroke	d	n/a
20.992	0.06	41984	keystroke	Key.space	n/a
21.277	0.075	42554	keystroke	e	n/a
21.397	0.09	42794	keystroke	n	n/a
21.502	0.0755	43004	keystroke	t	n/a
21.7125	0.075	43425	keystroke	i	n/a
21.8175	0.105	43635	keystroke	r	n/a
22.0125	0.075	44025	keystroke	e	n/a
22.1775	0.075	44355	keystroke	l	n/a
22.4025	0.06	44805	keystroke	y	n/a
22.6425	0.075	45285	keystroke	Key.enter	n/a
22.722	6.2675	45444	prompt	n/a	humidity density digit sunday\n
23.2725	0.09	46545	keystroke	h	n/a
23.4825	0.06	46965	keystroke	u	n/a
24.038	0.075	48076	keystroke	m	n/a
24.233	0.075	48466	keystroke	i	n/a
24.338	0.074	48676	keystroke	d	n/a
24.443	0.105	48886	keystroke	i	n/a
24.608	0.0595	49216	keystroke	t	n/a
24.7575	0.06	49515	keystroke	y	n/a
24.9075	0.09	49815	keystroke	Key.space	n/a
25.343	0.105	50686	keystroke	d	n/a
25.493	0.09	50986	keystroke	e	n/a
25.598	0.075	51196	keystroke	n	n/a
25.748	0.09	51496	keystroke	s	n/a
25.9425	0.0755	51885	keystroke	i	n/a
26.033	0.075	52066	keystroke	t	n/a
26.243	0.0595	52486	keystroke	y	n/a
26.408	0.105	52816	keystroke	Key.space	n/a
26.662	0.061	53324	keystroke	d	n/a
26.7825	0.0895	53565	keystroke	i	n/a
26.947	0.091	53894	keystroke	g	n/a
27.127	0.091	54254	keystroke	i	n/a
27.293	0.06	54586	keystroke	t	n/a
27.742	0.075	55484	keystroke	Key.space	n/a
28.102	0.075	56204	keystroke	s	n/a
28.208	0.09	56416	keystroke	u	n/a
28.418	0.104	56836	keystroke	n	n/a
28.507	0.091	57014	keystroke	d	n/a
28.583	0.105	57166	keystroke	a	n/a
28.703	0.105	57406	keystroke	y	n/a
28.912	0.075	57824	keystroke	Key.enter	n/a
28.993	5.8465	57986	prompt	n/a	spain clothes building harbor\n
29.543	0.104	59086	keystroke	s	n/a
29.663	0.074	59326	keystroke	p	n/a
29.782	0.1055	59564	keystroke	a	n/a
29.9925	0.09	59985	keystroke	i	n/a
30.1875	0.09	60375	keystroke	n	n/a
30.3225	0.075	60645	keystroke	Key.space	n/a
30.4425	0.09	60885	keystroke	c	n/a
30.6075	0.0605	61215	keystroke	l	n/a
30.788	0.06	61576	keystroke	o	n/a
30.893	0.09	61786	keystroke	t	n/a
31.058	0.09	62116	keystroke	h	n/a
31.163	0.09	62326	keystroke	e	n/a
31.313	0.045	62626	keystroke	s	n/a
31.433	0.09	62866	keystroke	Key.space	n/a
31.868	0.075	63736	keystroke	b	n/a
32.063	0.075	64126	keystroke	u	n/a
32.258	0.06	64516	keystroke	i	n/a
32.483	0.075	64966	keystroke	l	n/a
32.618	0.09	65236	keystroke	d	n/a
32.768	0.12	65536	keystroke	i	n/a
32.903	0.06	65806	keystroke	n	n/a
32.993	0.09	65986	keystroke	g	n/a
33.173	0.06	66346	keystroke	Key.space	n/a
33.8625	0.09	67725	keystroke	h	n/a
34.0425	0.09	68085	keystroke	a	n/a
34.1475	0.09	68295	keystroke	r	n/a
34.2675	0.09	68535	keystroke	b	n/a
34.493	0.06	68986	keystroke	o	n/a
34.613	0.06	69226	keystroke	r	n/a
34.748	0.09	69496	keystroke	Key.enter	n/a
34.842	16.1225	69684	prompt	n/a	predicted financing tanzania secretariat\n
35.423	0.045	70846	keystroke	p	n/a
35.798	0.09	71596	keystroke	r	n/a
35.918	0.105	71836	keystroke	e	n/a
36.068	0.1045	72136	keystroke	d	n/a
36.2325	0.09	72465	keystroke	i	n/a
36.3975	0.0905	72795	keystroke	c	n/a
36.563	0.045	73126	keystroke	a	n/a
37.058	0.105	74116	keystroke	Key.backspace	n/a
37.208	0.09	74416	keystroke	t	n/a
37.283	0.105	74566	keystroke	e	n/a
37.523	0.06	75046	keystroke	d	n/a
37.6875	0.09	75375	keystroke	Key.space	n/a
38.7675	0.075	77535	keystroke	f	n/a
38.9925	0.09	77985	keystroke	i	n/a
39.1275	0.06	78255	keystroke	n	n/a
39.2475	0.105	78495	keystroke	a	n/a
39.4275	0.105	78855	keystroke	n	n/a
39.5475	0.09	79095	keystroke	c	n/a
39.7875	0.105	79575	keystroke	i	n/a
41.2575	0.105	82515	keystroke	n	n/a
41.3775	0.075	82755	keystroke	g	n/a
41.5575	0.06	83115	keystroke	Key.space	n/a
42.428	0.09	84856	keystroke	t	n/a
42.518	0.12	85036	keystroke	a	n/a
42.683	0.09	85366	keystroke	n	n/a
42.968	0.06	85936	keystroke	z	n/a
43.148	0.09	86296	keystroke	a	n/a
43.268	0.09	86536	keystroke	n	n/a
43.448	0.075	86896	keystroke	i	n/a
43.583	0.09	87166	keystroke	a	n/a
43.733	0.075	87466	keystroke	Key.space	n/a
44.063	0.075	88126	keystroke	s	n/a
44.213	0.105	88426	keystroke	e	n/a
44.483	0.09	88966	keystroke	c	n/a
44.8725	0.06	89745	keystroke	e	n/a
45.3675	0.09	90735	keystroke	Key.backspace	n/a
45.5625	0.09	91125	keystroke	c	n/a
45.8175	0.105	91635	keystroke	r	n/a
45.9375	0.12	91875	keystroke	e	n/a
46.3725	0.076	92745	keystroke	Key.backspace	n/a
46.6275	0.075	93255	keystroke	Key.backspace	n/a
46.8975	0.075	93795	keystroke	Key.backspace	n/a
47.0925	0.105	94185	keystroke	c	n/a
47.7525	0.075	95505	keystroke	Key.backspace	n/a
48.5625	0.075	97125	keystroke	r	n/a
48.7575	0.105	97515	keystroke	e	n/a
49.2525	0.12	98505	keystroke	t	n/a
49.8375	0.105	99675	keystroke	a	n/a
50.0175	0.075	100035	keystroke	r	n/a
50.2875	0.09	100575	keystroke	i	n/a
50.4375	0.12	100875	keystroke	a	n/a
50.6475	0.09	101295	keystroke	t	n/a
50.8725	0.09	101745	keystroke	Key.enter	n/a
50.9675	9.4625	101935	prompt	n/a	symphony populations most attorney\n
51.5775	0.075	103155	keystroke	s	n/a
51.6975	0.091	103395	keystroke	y	n/a
52.3285	0.105	104657	keystroke	m	n/a
52.5835	0.06	105167	keystroke	p	n/a
52.8985	0.135	105797	keystroke	h	n/a
53.813	0.075	107626	keystroke	o	n/a
54.008	0.09	108016	keystroke	n	n/a
54.248	0.06	108496	keystroke	y	n/a
54.413	0.105	108826	keystroke	Key.space	n/a
54.623	0.075	109246	keystroke	p	n/a
54.923	0.075	109846	keystroke	o	n/a
55.118	0.075	110236	keystroke	p	n/a
55.328	0.06	110656	keystroke	u	n/a
55.568	0.075	111136	keystroke	l	n/a
55.688	0.135	111376	keystroke	a	n/a
55.868	0.09	111736	keystroke	t	n/a
55.988	0.15	111976	keystroke	i	n/a
56.093	0.075	112186	keystroke	o	n/a
56.288	0.105	112576	keystroke	n	n/a
56.423	0.09	112846	keystroke	s	n/a
56.573	0.075	113146	keystroke	Key.space	n/a
56.738	0.075	113476	keystroke	m	n/a
56.903	0.075	113806	keystroke	o	n/a
57.038	0.105	114076	keystroke	s	n/a
57.173	0.075	114346	keystroke	t	n/a
57.293	0.09	114586	keystroke	Key.space	n/a
57.428	0.105	114856	keystroke	a	n/a
57.593	0.06	115186	keystroke	t	n/a
57.728	0.075	115456	keystroke	t	n/a
57.848	0.075	115696	keystroke	o	n/a
57.953	0.075	115906	keystroke	r	n/a
58.898	0.075	117796	keystroke	n	n/a
59.378	0.06	118756	keystroke	e	n/a
59.498	0.09	118996	keystroke	y	n/a
59.738	0.06	119476	keystroke	Key.space	n/a
60.008	0.09	120016	keystroke	Key.backspace	n/a
60.338	0.09	120676	keystroke	Key.enter	n/a
60.437	8.4675	120874	prompt	n/a	heroes assign express manitoba\n
61.118	0.075	122236	keystroke	h	n/a
61.223	0.075	122446	keystroke	e	n/a
61.388	0.06	122776	keystroke	r	n/a
61.823	0.06	123646	keystroke	o	n/a
62.0475	0.105	124095	keystroke	e	n/a
62.1975	0.1055	124395	keystroke	s	n/a
62.363	0.1045	124726	keystroke	Key.space	n/a
62.5275	0.09	125055	keystroke	a	n/a
62.6925	0.105	125385	keystroke	s	n/a
62.8575	0.09	125715	keystroke	s	n/a
62.9775	0.09	125955	keystroke	i	n/a
63.1425	0.09	126285	keystroke	g	n/a
63.3075	0.09	126615	keystroke	n	n/a
63.4725	0.105	126945	keystroke	Key.space	n/a
63.6825	0.06	127365	keystroke	s	n/a
63.9525	0.09	127905	keystroke	Key.backspace	n/a
64.0275	0.06	128055	keystroke	e	n/a
64.2225	0.09	128445	keystroke	x	n/a
64.5225	0.045	129045	keystroke	r	n/a
64.883	0.045	129766	keystroke	Key.backspace	n/a
65.108	0.075	130216	keystroke	p	n/a
65.228	0.075	130456	keystroke	r	n/a
65.408	0.06	130816	keystroke	e	n/a
65.693	0.06	131386	keystroke	s	n/a
65.828	0.075	131656	keystroke	s	n/a
65.948	0.105	131896	keystroke	Key.space	n/a
66.233	0.09	132466	keystroke	m	n/a
66.368	0.075	132736	keystroke	a	n/a
66.638	0.06	133276	keystroke	n	n/a
67.088	0.09	134176	keystroke	i	n/a
67.238	0.075	134476	keystroke	t	n/a
67.493	0.075	134986	keystroke	b	n/a
67.883	0.06	135766	keystroke	Key.backspace	n/a
68.168	0.09	136336	keystroke	o	n/a
68.468	0.06	136936	keystroke	b	n/a
68.588	0.105	137176	keystroke	a	n/a
68.828	0.075	137656	keystroke	Key.enter	n/a
68.9075	7.047	137815	prompt	n/a	ctrl webmasters myspace pretty\n
69.668	0.06	139336	keystroke	c	n/a
69.938	0.06	139876	keystroke	t	n/a
70.103	0.06	140206	keystroke	r	n/a
70.328	0.075	140656	keystroke	l	n/a
70.523	0.09	141046	keystroke	Key.space	n/a
71.093	0.12	142186	keystroke	w	n/a
71.198	0.09	142396	keystroke	e	n/a
71.393	0.09	142786	keystroke	b	n/a
71.828	0.075	143656	keystroke	m	n/a
72.008	0.135	144016	keystroke	a	n/a
72.158	0.12	144316	keystroke	s	n/a
72.353	0.12	144706	keystroke	t	n/a
72.518	0.09	145036	keystroke	e	n/a
72.593	0.09	145186	keystroke	r	n/a
72.773	0.09	145546	keystroke	s	n/a
73.013	0.075	146026	keystroke	Key.space	n/a
73.283	0.09	146566	keystroke	m	n/a
73.5075	0.075	147015	keystroke	y	n/a
73.6725	0.09	147345	keystroke	s	n/a
73.9425	0.075	147885	keystroke	p	n/a
74.0925	0.105	148185	keystroke	a	n/a
74.3775	0.136	148755	keystroke	c	n/a
74.558	0.06	149116	keystroke	e	n/a
74.738	0.075	149476	keystroke	Key.space	n/a
74.933	0.075	149866	keystroke	p	n/a
75.083	0.105	150166	keystroke	r	n/a
75.173	0.105	150346	keystroke	e	n/a
75.398	0.09	150796	keystroke	t	n/a
75.548	0.09	151096	keystroke	t	n/a
75.653	0.075	151306	keystroke	y	n/a
75.8785	0.075	151757	keystroke	Key.enter	n/a
75.958	7.2865	151916	prompt	n/a	departure somalia oregon nylon\n
76.5235	0.135	153047	keystroke	s	n/a
76.8685	0.06	153737	keystroke	Key.backspace	n/a
76.9585	0.12	153917	keystroke	d	n/a
77.0635	0.105	154127	keystroke	e	n/a
77.2735	0.075	154547	keystroke	p	n/a
77.5135	0.105	155027	keystroke	a	n/a
77.6935	0.09	155387	keystroke	r	n/a
77.8885	0.075	155777	keystroke	t	n/a
78.0385	0.09	156077	keystroke	u	n/a
78.1735	0.12	156347	keystroke	r	n/a
78.3085	0.105	156617	keystroke	e	n/a
78.4735	0.105	156947	keystroke	Key.space	n/a
79.1935	0.09	158387	keystroke	s	n/a
79.3285	0.075	158657	keystroke	o	n/a
79.5085	0.105	159017	keystroke	m	n/a
79.6885	0.0595	159377	keystroke	a	n/a
79.9585	0.15	159917	keystroke	l	n/a
80.0935	0.105	160187	keystroke	i	n/a
80.2735	0.09	160547	keystroke	a	n/a
80.4085	0.105	160817	keystroke	Key.space	n/a
80.9635	0.075	161927	keystroke	o	n/a
81.1585	0.075	162317	keystroke	r	n/a
81.2635	0.105	162527	keystroke	e	n/a
81.4585	0.105	162917	keystroke	g	n/a
81.5935	0.075	163187	keystroke	o	n/a
81.8035	0.09	163607	keystroke	n	n/a
81.9535	0.074	163907	keystroke	Key.space	n/a
82.1785	0.075	164357	keystroke	n	n/a
82.3725	0.076	164745	keystroke	y	n/a
82.6285	0.06	165257	keystroke	l	n/a
82.7925	0.06	165585	keystroke	o	n/a
82.9885	0.0595	165977	keystroke	n	n/a
83.1825	0.06	166365	keystroke	Key.enter	n/a
83.2485	6.356	166497	prompt	n/a	ebony participant peeing sunday\n
84.008	0.09	168016	keystroke	d	n/a
84.4585	0.045	168917	keystroke	Key.backspace	n/a
84.5485	0.075	169097	keystroke	e	n/a
84.7435	0.09	169487	keystroke	b	n/a
84.9235	0.06	169847	keystroke	o	n/a
85.0885	0.075	170177	keystroke	n	n/a
85.3135	0.06	170627	keystroke	y	n/a
85.4635	0.105	170927	keystroke	Key.space	n/a
85.7035	0.06	171407	keystroke	p	n/a
85.8685	0.12	171737	keystroke	a	n/a
86.0185	0.075	172037	keystroke	r	n/a
86.1685	0.105	172337	keystroke	t	n/a
86.3035	0.105	172607	keystroke	i	n/a
86.4235	0.09	172847	keystroke	c	n/a
86.5735	0.105	173147	keystroke	i	n/a
86.7535	0.075	173507	keystroke	p	n/a
86.9635	0.075	173927	keystroke	a	n/a
87.1435	0.075	174287	keystroke	n	n/a
87.2635	0.105	174527	keystroke	t	n/a
87.3835	0.09	174767	keystroke	Key.space	n/a
87.7585	0.06	175517	keystroke	p	n/a
87.9235	0.06	175847	keystroke	e	n/a
88.0435	0.09	176087	keystroke	e	n/a
88.1785	0.12	176357	keystroke	i	n/a
88.3135	0.075	176627	keystroke	n	n/a
88.4035	0.06	176807	keystroke	g	n/a
88.5535	0.075	177107	keystroke	Key.space	n/a
88.7035	0.075	177407	keystroke	s	n/a
88.8385	0.165	177677	keystroke	u	n/a
88.9735	0.105	177947	keystroke	n	n/a
89.0935	0.09	178187	keystroke	d	n/a
89.1385	0.135	178277	keystroke	a	n/a
89.303	0.105	178606	keystroke	y	n/a
89.528	0.075	179056	keystroke	Key.enter	n/a
89.608	9.8815	179216	prompt	n/a	utility visits receptor consortium\n
90.308	0.075	180616	keystroke	u	n/a
90.788	0.09	181576	keystroke	t	n/a
90.908	0.09	181816	keystroke	i	n/a
91.163	0.105	182326	keystroke	l	n/a
91.269	0.104	182538	keystroke	i	n/a
91.448	0.12	182896	keystroke	t	n/a
91.613	0.06	183226	keystroke	y	n/a
91.823	0.075	183646	keystroke	Key.space	n/a
92.648	0.075	185296	keystroke	v	n/a
92.843	0.075	185686	keystroke	i	n/a
93.068	0.06	186136	keystroke	s	n/a
93.218	0.09	186436	keystroke	i	n/a
93.473	0.09	186946	keystroke	t	n/a
93.698	0.105	187396	keystroke	s	n/a
93.893	0.105	187786	keystroke	Key.space	n/a
94.403	0.105	188806	keystroke	r	n/a
94.523	0.09	189046	keystroke	e	n/a
94.718	0.12	189436	keystroke	c	n/a
94.853	0.105	189706	keystroke	e	n/a
95.093	0.075	190186	keystroke	p	n/a
95.618	0.12	191236	keystroke	t	n/a
95.918	0.0755	191836	keystroke	o	n/a
96.1135	0.075	192227	keystroke	r	n/a
96.2785	0.105	192557	keystroke	Key.space	n/a
96.9985	0.075	193997	keystroke	c	n/a
97.0885	0.075	194177	keystroke	o	n/a
97.2985	0.09	194597	keystroke	n	n/a
97.4185	0.0895	194837	keystroke	s	n/a
97.763	0.105	195526	keystroke	o	n/a
97.928	0.09	195856	keystroke	r	n/a
98.108	0.09	196216	keystroke	t	n/a
98.348	0.09	196696	keystroke	i	n/a
98.573	0.09	197146	keystroke	u	n/a
99.173	0.105	198346	keystroke	m	n/a
99.428	0.06	198856	keystroke	Key.enter	n/a
99.494	10.6015	198988	prompt	n/a	classical womens create anatomy\n
100.5085	0.105	201017	keystroke	c	n/a
100.6585	0.105	201317	keystroke	a	n/a
101.0485	0.074	202097	keystroke	Key.backspace	n/a
101.2735	0.09	202547	keystroke	l	n/a
101.3785	0.105	202757	keystroke	a	n/a
101.4685	0.119	202937	keystroke	s	n/a
101.6485	0.105	203297	keystroke	s	n/a
101.8285	0.074	203657	keystroke	i	n/a
101.8735	0.135	203747	keystroke	c	n/a
102.1125	0.076	204225	keystroke	a	n/a
102.3385	0.075	204677	keystroke	l	n/a
102.5475	0.09	205095	keystroke	Key.space	n/a
103.3125	0.151	206625	keystroke	w	n/a
103.4475	0.075	206895	keystroke	o	n/a
103.6125	0.106	207225	keystroke	m	n/a
103.7335	0.074	207467	keystroke	e	n/a
103.8825	0.09	207765	keystroke	n	n/a
104.0025	0.105	208005	keystroke	s	n/a
104.1675	0.09	208335	keystroke	Key.space	n/a
104.469	0.074	208938	keystroke	c	n/a
104.8725	0.105	209745	keystroke	r	n/a
105.1125	0.12	210225	keystroke	e	n/a
105.2175	0.1355	210435	keystroke	a	n/a
105.429	0.105	210858	keystroke	t	n/a
105.623	0.105	211246	keystroke	e	n/a
108.206	0.012	216412	keystroke	Key.space	n/a
108.413	0.106	216826	keystroke	a	n/a
108.593	0.105	217186	keystroke	n	n/a
108.713	0.09	217426	keystroke	a	n/a
108.894	0.104	217788	keystroke	t	n/a
109.013	0.075	218026	keystroke	o	n/a
109.523	0.09	219046	keystroke	m	n/a
109.793	0.06	219586	keystroke	y	n/a
110.018	0.075	220036	keystroke	Key.enter	n/a
110.0985	12.671	220197	prompt	n/a	passenger prototype dating popularity\n
110.903	0.105	221806	keystroke	a	n/a
111.7285	0.075	223457	keystroke	Key.backspace	n/a
112.2535	0.015	224507	keystroke	p	n/a
112.2835	0.045	224567	keystroke	a	n/a
112.3735	0.09	224747	keystroke	s	n/a
112.5385	0.105	225077	keystroke	s	n/a
112.7635	0.09	225527	keystroke	e	n/a
112.943	0.06	225886	keystroke	n	n/a
113.048	0.075	226096	keystroke	e	n/a
113.498	0.075	226996	keystroke	Key.backspace	n/a
113.574	0.089	227148	keystroke	g	n/a
113.678	0.15	227356	keystroke	e	n/a
113.813	0.105	227626	keystroke	r	n/a
114.023	0.105	228046	keystroke	Key.space	n/a
114.398	0.075	228796	keystroke	p	n/a
114.533	0.09	229066	keystroke	r	n/a
114.683	0.045	229366	keystroke	i	n/a
115.3135	0.045	230627	keystroke	Key.backspace	n/a
115.5985	0.09	231197	keystroke	o	n/a
115.7485	0.105	231497	keystroke	t	n/a
115.8835	0.105	231767	keystroke	o	n/a
116.3635	0.12	232727	keystroke	t	n/a
116.5735	0.075	233147	keystroke	y	n/a
116.7835	0.06	233567	keystroke	p	n/a
116.9035	0.075	233807	keystroke	e	n/a
117.0385	0.105	234077	keystroke	Key.space	n/a
117.5635	0.12	235127	keystroke	d	n/a
117.6535	0.135	235307	keystroke	a	n/a
117.8335	0.075	235667	keystroke	t	n/a
117.9535	0.135	235907	keystroke	i	n/a
118.0735	0.06	236147	keystroke	n	n/a
118.1485	0.075	236297	keystroke	g	n/a
118.2985	0.09	236597	keystroke	Key.space	n/a
118.4635	0.06	236927	keystroke	p	n/a
118.5685	0.09	237137	keystroke	a	n/a
118.7035	0.06	237407	keystroke	o	n/a
119.2135	0.06	238427	keystroke	Key.backspace	n/a
119.4385	0.075	238877	keystroke	Key.backspace	n/a
120.203	0.1205	240406	keystroke	o	n/a
120.3085	0.075	240617	keystroke	p	n/a
120.4885	0.075	240977	keystroke	u	n/a
120.683	0.0755	241366	keystroke	l	n/a
120.818	0.075	241636	keystroke	a	n/a
121.898	0.1055	243796	keystroke	r	n/a
122.123	0.09	244246	keystroke	i	n/a
122.243	0.1055	244486	keystroke	t	n/a
122.4385	0.075	244877	keystroke	y	n/a
122.7085	0.06	245417	keystroke	Key.enter	n/a
122.773	10.5565	245546	prompt	n/a	gadgets part pool spirituality\n
123.833	0.075	247666	keystroke	d	n/a
123.878	0.105	247756	keystroke	a	n/a
124.133	0.075	248266	keystroke	g	n/a
124.568	0.105	249136	keystroke	e	n/a
124.703	0.09	249406	keystroke	t	n/a
125.1085	0.075	250217	keystroke	Key.backspace	n/a
125.3185	0.075	250637	keystroke	Key.backspace	n/a
125.5285	0.06	251057	keystroke	Key.backspace	n/a
125.7085	0.075	251417	keystroke	Key.backspace	n/a
125.8885	0.09	251777	keystroke	Key.backspace	n/a
126.3835	0.075	252767	keystroke	g	n/a
126.4435	0.105	252887	keystroke	a	n/a
126.5935	0.09	253187	keystroke	d	n/a
126.7135	0.09	253427	keystroke	g	n/a
126.8185	0.12	253637	keystroke	e	n/a
127.0735	0.075	254147	keystroke	t	n/a
127.2685	0.075	254537	keystroke	s	n/a
127.3885	0.09	254777	keystroke	Key.space	n/a
127.6135	0.06	255227	keystroke	p	n/a
127.6885	0.09	255377	keystroke	a	n/a
127.8085	0.075	255617	keystroke	r	n/a
127.9735	0.075	255947	keystroke	t	n/a
128.0775	0.106	256155	keystroke	Key.space	n/a
128.2435	0.12	256487	keystroke	p	n/a
128.4825	0.061	256965	keystroke	o	n/a
129.3085	0.06	258617	keystroke	o	n/a
129.5035	0.06	259007	keystroke	l	n/a
129.7135	0.075	259427	keystroke	Key.space	n/a
130.1785	0.09	260357	keystroke	s	n/a
130.2535	0.06	260507	keystroke	p	n/a
130.4785	0.1045	260957	keystroke	i	n/a
130.643	0.09	261286	keystroke	r	n/a
130.748	0.105	261496	keystroke	i	n/a
130.928	0.09	261856	keystroke	t	n/a
131.288	0.06	262576	keystroke	y	n/a
132.038	0.045	264076	keystroke	Key.backspace	n/a
132.143	0.09	264286	keystroke	u	n/a
132.353	0.09	264706	keystroke	a	n/a
132.518	0.09	265036	keystroke	l	n/a
132.758	0.09	265516	keystroke	i	n/a
132.893	0.105	265786	keystroke	t	n/a
133.0585	0.075	266117	keystroke	y	n/a
133.2675	0.06	266535	keystroke	Key.enter	n/a
133.333	7.302	266666	prompt	n/a	recipe prospects tunisia render\n
133.973	0.076	267946	keystroke	r	n/a
134.019	0.12	268038	keystroke	e	n/a
134.244	0.09	268488	keystroke	c	n/a
134.469	0.089	268938	keystroke	i	n/a
134.663	0.0605	269326	keystroke	p	n/a
134.7835	0.075	269567	keystroke	e	n/a
134.9185	0.09	269837	keystroke	Key.space	n/a
135.1585	0.075	270317	keystroke	p	n/a
135.2935	0.09	270587	keystroke	r	n/a
135.4585	0.06	270917	keystroke	o	n/a
135.6085	0.09	271217	keystroke	s	n/a
135.9385	0.075	271877	keystroke	p	n/a
136.0585	0.09	272117	keystroke	e	n/a
136.283	0.0755	272566	keystroke	c	n/a
136.5085	0.06	273017	keystroke	t	n/a
136.6135	0.105	273227	keystroke	s	n/a
136.7925	0.061	273585	keystroke	Key.space	n/a
137.0775	0.061	274155	keystroke	t	n/a
137.409	0.074	274818	keystroke	u	n/a
137.649	0.074	275298	keystroke	n	n/a
138.488	0.06	276976	keystroke	i	n/a
138.623	0.076	277246	keystroke	s	n/a
138.758	0.105	277516	keystroke	i	n/a
138.908	0.105	277816	keystroke	a	n/a
139.133	0.09	278266	keystroke	Key.space	n/a
139.433	0.105	278866	keystroke	r	n/a
139.523	0.165	279046	keystroke	e	n/a
139.988	0.075	279976	keystroke	n	n/a
140.139	0.134	280278	keystroke	d	n/a
140.258	0.135	280516	keystroke	e	n/a
140.378	0.091	280756	keystroke	r	n/a
140.528	0.105	281056	keystroke	Key.enter	n/a
140.6385	9.9715	281277	prompt	n/a	participation strips prot affiliates\n
141.608	0.06	283216	keystroke	p	n/a
141.698	0.12	283396	keystroke	a	n/a
141.848	0.105	283696	keystroke	r	n/a
142.013	0.105	284026	keystroke	t	n/a
142.163	0.09	284326	keystroke	i	n/a
142.283	0.105	284566	keystroke	c	n/a
142.448	0.105	284896	keystroke	i	n/a
142.718	0.09	285436	keystroke	p	n/a
142.988	0.045	285976	keystroke	l	n/a
143.378	0.06	286756	keystroke	Key.backspace	n/a
143.513	0.106	287026	keystroke	a	n/a
143.664	0.09	287328	keystroke	t	n/a
143.814	0.1495	287628	keystroke	i	n/a
144.0685	0.03	288137	keystroke	o	n/a
144.428	0.09	288856	keystroke	n	n/a
144.638	0.075	289276	keystroke	Key.space	n/a
145.133	0.09	290266	keystroke	s	n/a
145.328	0.06	290656	keystroke	t	n/a
145.628	0.06	291256	keystroke	r	n/a
145.793	0.075	291586	keystroke	i	n/a
145.958	0.06	291916	keystroke	p	n/a
146.093	0.09	292186	keystroke	s	n/a
146.228	0.105	292456	keystroke	Key.space	n/a
146.708	0.015	293416	keystroke	r	n/a
146.963	0.06	293926	keystroke	Key.backspace	n/a
147.233	0.09	294466	keystroke	p	n/a
147.368	0.105	294736	keystroke	r	n/a
147.563	0.06	295126	keystroke	o	n/a
147.728	0.09	295456	keystroke	t	n/a
147.983	0.09	295966	keystroke	Key.space	n/a
148.343	0.075	296686	keystroke	a	n/a
148.6585	0.075	297317	keystroke	f	n/a
148.7935	0.09	297587	keystroke	f	n/a
148.9135	0.105	297827	keystroke	i	n/a
149.2285	0.105	298457	keystroke	l	n/a
149.4685	0.06	298937	keystroke	i	n/a
149.5735	0.12	299147	keystroke	a	n/a
149.8585	0.09	299717	keystroke	t	n/a
149.9185	0.165	299837	keystroke	e	n/a
150.2335	0.09	300467	keystroke	s	n/a
150.5185	0.09	301037	keystroke	Key.enter	n/a
150.6125	14.517	301225	prompt	n/a	fairly attractive mineral lives\n
151.5085	0.105	303017	keystroke	f	n/a
151.5985	0.12	303197	keystroke	a	n/a
151.7185	0.105	303437	keystroke	i	n/a
151.8385	0.09	303677	keystroke	r	n/a
152.0635	0.09	304127	keystroke	y	n/a
152.5885	0.03	305177	keystroke	Key.backspace	n/a
152.8285	0.075	305657	keystroke	l	n/a
153.0535	0.06	306107	keystroke	y	n/a
153.2785	0.105	306557	keystroke	Key.space	n/a
153.5485	0.09	307097	keystroke	a	n/a
153.7435	0.06	307487	keystroke	t	n/a
153.8635	0.105	307727	keystroke	t	n/a
154.0735	0.12	308147	keystroke	r	n/a
154.2085	0.12	308417	keystroke	a	n/a
154.4485	0.12	308897	keystroke	c	n/a
154.7785	0.044	309557	keystroke	t	n/a
154.9135	0.09	309827	keystroke	i	n/a
155.0485	0.12	310097	keystroke	c	n/a
155.2125	0.09	310425	keystroke	e	n/a
155.3625	0.105	310725	keystroke	Key.space	n/a
155.5285	0.074	311057	keystroke	m	n/a
155.6925	0.075	311385	keystroke	i	n/a
155.8425	0.105	311685	keystroke	n	n/a
155.9625	0.091	311925	keystroke	e	n/a
156.159	0.104	312318	keystroke	r	n/a
156.293	0.135	312586	keystroke	a	n/a
156.488	0.075	312976	keystroke	l	n/a
156.638	0.075	313276	keystroke	Key.space	n/a
157.148	0.15	314296	keystroke	l	n/a
157.313	0.075	314626	keystroke	i	n/a
157.673	0.06	315346	keystroke	v	n/a
158.3485	0.09	316697	keystroke	Key.backspace	n/a
158.6035	0.075	317207	keystroke	Key.backspace	n/a
158.7685	0.075	317537	keystroke	Key.backspace	n/a
158.9335	0.075	317867	keystroke	Key.backspace	n/a
159.1285	0.06	318257	keystroke	Key.backspace	n/a
159.3235	0.075	318647	keystroke	Key.backspace	n/a
159.5035	0.06	319007	keystroke	Key.backspace	n/a
159.6985	0.06	319397	keystroke	Key.backspace	n/a
159.8775	0.075	319755	keystroke	Key.backspace	n/a
160.0875	0.06	320175	keystroke	Key.backspace	n/a
160.283	0.06	320566	keystroke	Key.backspace	n/a
160.463	0.06	320926	keystroke	Key.backspace	n/a
160.658	0.06	321316	keystroke	Key.backspace	n/a
160.898	0.06	321796	keystroke	Key.backspace	n/a
161.169	0.09	322338	keystroke	v	n/a
161.303	0.105	322606	keystroke	e	n/a
161.438	0.1055	322876	keystroke	Key.space	n/a
161.7235	0.12	323447	keystroke	m	n/a
161.903	0.09	323806	keystroke	i	n/a
162.023	0.105	324046	keystroke	n	n/a
162.128	0.105	324256	keystroke	e	n/a
162.473	0.06	324946	keystroke	a	n/a
162.938	0.06	325876	keystroke	Key.backspace	n/a
163.298	0.015	326596	keystroke	e	n/a
163.568	0.075	327136	keystroke	Key.backspace	n/a
163.688	0.09	327376	keystroke	r	n/a
163.793	0.12	327586	keystroke	a	n/a
163.958	0.105	327916	keystroke	l	n/a
164.168	0.075	328336	keystroke	Key.space	n/a
164.333	0.18	328666	keystroke	l	n/a
164.483	0.105	328966	keystroke	i	n/a
164.618	0.105	329236	keystroke	v	n/a
164.708	0.09	329416	keystroke	e	n/a
164.903	0.09	329806	keystroke	s	n/a
165.038	0.09	330076	keystroke	Key.enter	n/a
165.135	9.79	330270	prompt	n/a	avatar recorded so're situations\n
165.698	0.12	331396	keystroke	a	n/a
166.6135	0.075	333227	keystroke	v	n/a
166.7485	0.075	333497	keystroke	a	n/a
167.0485	0.105	334097	keystroke	t	n/a
167.3785	0.135	334757	keystroke	a	n/a
167.5435	0.105	335087	keystroke	r	n/a
167.7235	0.09	335447	keystroke	Key.space	n/a
168.0535	0.12	336107	keystroke	r	n/a
168.1585	0.105	336317	keystroke	e	n/a
168.3385	0.12	336677	keystroke	c	n/a
168.4885	0.045	336977	keystroke	e	n/a
168.9385	0.06	337877	keystroke	Key.backspace	n/a
169.1635	0.075	338327	keystroke	o	n/a
169.2535	0.075	338507	keystroke	r	n/a
169.4635	0.075	338927	keystroke	d	n/a
169.6285	0.075	339257	keystroke	e	n/a
169.7785	0.09	339557	keystroke	d	n/a
169.8835	0.075	339767	keystroke	Key.space	n/a
170.1385	0.0895	340277	keystroke	s	n/a
170.258	0.075	340516	keystroke	o	n/a
170.543	0.06	341086	keystroke	'	n/a
170.813	0.09	341626	keystroke	r	n/a
170.8875	0.1055	341775	keystroke	e	n/a
171.233	0.09	342466	keystroke	Key.space	n/a
171.608	0.09	343216	keystroke	s	n/a
171.713	0.075	343426	keystroke	u	n/a
171.953	0.09	343906	keystroke	t	n/a
172.4485	0.045	344897	keystroke	Key.backspace	n/a
172.6135	0.06	345227	keystroke	Key.backspace	n/a
173.3185	0.045	346637	keystroke	i	n/a
173.4535	0.105	346907	keystroke	t	n/a
173.6185	0.09	347237	keystroke	u	n/a
173.7235	0.15	347447	keystroke	a	n/a
173.8735	0.09	347747	keystroke	t	n/a
173.9785	0.135	347957	keystroke	i	n/a
174.0685	0.075	348137	keystroke	o	n/a
174.5935	0.09	349187	keystroke	n	n/a
174.7135	0.075	349427	keystroke	s	n/a
174.8635	0.06	349727	keystroke	Key.enter	n/a
174.9275	9.6575	349855	prompt	n/a	background dealing absence human\n
175.6135	0.075	351227	keystroke	b	n/a
175.7185	0.105	351437	keystroke	a	n/a
175.9135	0.075	351827	keystroke	c	n/a
176.0785	0.105	352157	keystroke	k	n/a
176.8135	0.045	353627	keystroke	g	n/a
176.9335	0.075	353867	keystroke	r	n/a
176.9935	0.18	353987	keystroke	o	n/a
177.1135	0.09	354227	keystroke	u	n/a
177.3235	0.105	354647	keystroke	n	n/a
177.4435	0.09	354887	keystroke	d	n/a
177.5635	0.075	355127	keystroke	Key.space	n/a
177.8185	0.09	355637	keystroke	d	n/a
178.0285	0.135	356057	keystroke	e	n/a
178.1485	0.135	356297	keystroke	a	n/a
178.2525	0.076	356505	keystroke	l	n/a
178.4625	0.121	356925	keystroke	i	n/a
178.5535	0.1045	357107	keystroke	n	n/a
178.6735	0.074	357347	keystroke	g	n/a
178.808	0.105	357616	keystroke	Key.space	n/a
179.408	0.12	358816	keystroke	a	n/a
179.904	0.074	359808	keystroke	b	n/a
180.203	0.15	360406	keystroke	s	n/a
180.398	0.075	360796	keystroke	e	n/a
181.148	0.12	362296	keystroke	n	n/a
181.328	0.195	362656	keystroke	s	n/a
181.508	0.09	363016	keystroke	e	n/a
182.138	0.135	364276	keystroke	Key.backspace	n/a
182.288	0.075	364576	keystroke	Key.backspace	n/a
182.378	0.09	364756	keystroke	c	n/a
182.453	0.105	364906	keystroke	e	n/a
182.798	0.075	365596	keystroke	Key.space	n/a
183.728	0.105	367456	keystroke	h	n/a
183.818	0.12	367636	keystroke	u	n/a
184.028	0.105	368056	keystroke	m	n/a
184.208	0.105	368416	keystroke	a	n/a
184.298	0.09	368596	keystroke	n	n/a
184.523	0.06	369046	keystroke	Key.enter	n/a
184.5885	9.2815	369177	prompt	n/a	admission who'd've crossword admissions\n
185.1085	0.105	370217	keystroke	a	n/a
185.423	0.09	370846	keystroke	d	n/a
185.528	0.121	371056	keystroke	m	n/a
185.678	0.075	371356	keystroke	i	n/a
185.798	0.075	371596	keystroke	s	n/a
185.963	0.09	371926	keystroke	s	n/a
186.068	0.075	372136	keystroke	i	n/a
186.218	0.075	372436	keystroke	o	n/a
186.413	0.09	372826	keystroke	n	n/a
186.563	0.075	373126	keystroke	Key.space	n/a
186.773	0.09	373546	keystroke	w	n/a
186.878	0.075	373756	keystroke	h	n/a
187.058	0.045	374116	keystroke	o	n/a
187.313	0.075	374626	keystroke	'	n/a
187.538	0.09	375076	keystroke	d	n/a
187.958	0.09	375916	keystroke	'	n/a
189.188	0.09	378376	keystroke	v	n/a
189.3985	0.075	378797	keystroke	e	n/a
189.5635	0.089	379127	keystroke	Key.space	n/a
190.0285	0.045	380057	keystroke	s	n/a
190.3885	0.075	380777	keystroke	Key.backspace	n/a
190.4935	0.06	380987	keystroke	c	n/a
190.6735	0.09	381347	keystroke	r	n/a
190.8385	0.075	381677	keystroke	o	n/a
190.9435	0.075	381887	keystroke	s	n/a
191.1085	0.09	382217	keystroke	s	n/a
191.3335	0.1045	382667	keystroke	w	n/a
191.484	0.0895	382968	keystroke	o	n/a
191.5885	0.075	383177	keystroke	r	n/a
191.7685	0.09	383537	keystroke	d	n/a
191.8735	0.105	383747	keystroke	Key.space	n/a
192.1885	0.105	384377	keystroke	a	n/a
192.3385	0.06	384677	keystroke	d	n/a
192.5335	0.09	385067	keystroke	m	n/a
192.6835	0.075	385367	keystroke	i	n/a
192.7735	0.06	385547	keystroke	s	n/a
192.9385	0.09	385877	keystroke	s	n/a
193.1335	0.075	386267	keystroke	i	n/a
193.3735	0.015	386747	keystroke	o	n/a
193.4935	0.075	386987	keystroke	n	n/a
193.6285	0.075	387257	keystroke	s	n/a
193.793	0.075	387586	keystroke	Key.enter	n/a
193.8735	8.5165	387747	prompt	n/a	macedonia arts smithsonian meditation\n
194.498	0.06	388996	keystroke	m	n/a
194.588	0.09	389176	keystroke	a	n/a
194.783	0.091	389566	keystroke	c	n/a
194.933	0.09	389866	keystroke	e	n/a
195.159	0.075	390318	keystroke	d	n/a
195.248	0.075	390496	keystroke	o	n/a
195.443	0.06	390886	keystroke	n	n/a
195.593	0.045	391186	keystroke	i	n/a
195.728	0.075	391456	keystroke	a	n/a
195.893	0.06	391786	keystroke	Key.space	n/a
196.223	0.105	392446	keystroke	a	n/a
196.403	0.12	392806	keystroke	r	n/a
196.628	0.09	393256	keystroke	t	n/a
196.763	0.105	393526	keystroke	s	n/a
196.928	0.0755	393856	keystroke	Key.space	n/a
197.1535	0.075	394307	keystroke	s	n/a
197.3335	0.075	394667	keystroke	m	n/a
197.5285	0.06	395057	keystroke	i	n/a
197.7235	0.105	395447	keystroke	t	n/a
197.8885	0.09	395777	keystroke	h	n/a
198.0085	0.105	396017	keystroke	s	n/a
198.1735	0.09	396347	keystroke	o	n/a
198.5635	0.09	397127	keystroke	n	n/a
198.7585	0.06	397517	keystroke	i	n/a
198.9985	0.015	397997	keystroke	a	n/a
199.0735	0.105	398147	keystroke	n	n/a
199.2835	0.075	398567	keystroke	Key.space	n/a
199.5085	0.09	399017	keystroke	m	n/a
199.6435	0.06	399287	keystroke	e	n/a
199.7935	0.09	399587	keystroke	d	n/a
199.8835	0.105	399767	keystroke	i	n/a
200.0035	0.12	400007	keystroke	a	n/a
200.7385	0.12	401477	keystroke	t	n/a
201.0985	0.075	402197	keystroke	Key.backspace	n/a
201.2785	0.075	402557	keystroke	Key.backspace	n/a
201.4135	0.105	402827	keystroke	t	n/a
201.5335	0.15	403067	keystroke	a	n/a
201.6685	0.12	403337	keystroke	t	n/a
201.8335	0.135	403667	keystroke	i	n/a
201.9385	0.09	403877	keystroke	o	n/a
202.1335	0.075	404267	keystroke	n	n/a
202.3435	0.045	404687	keystroke	Key.enter	n/a
202.393	9.117	404786	prompt	n/a	detail monsters specialists third\n
203.0335	0.06	406067	keystroke	d	n/a
203.2135	0.06	406427	keystroke	e	n/a
203.4685	0.135	406937	keystroke	t	n/a
203.6185	0.09	407237	keystroke	a	n/a
203.859	0.12	407718	keystroke	i	n/a
204.099	0.105	408198	keystroke	l	n/a
204.264	0.075	408528	keystroke	Key.space	n/a
204.443	0.061	408886	keystroke	m	n/a
204.863	0.075	409726	keystroke	o	n/a
205.058	0.076	410116	keystroke	n	n/a
205.163	0.105	410326	keystroke	s	n/a
205.343	0.106	410686	keystroke	t	n/a
205.464	0.134	410928	keystroke	e	n/a
205.613	0.09	411226	keystroke	r	n/a
205.749	0.09	411498	keystroke	s	n/a
205.898	0.105	411796	keystroke	Key.space	n/a
206.108	0.106	412216	keystroke	s	n/a
206.229	0.104	412458	keystroke	p	n/a
206.394	0.104	412788	keystroke	c	n/a
206.619	0.074	413238	keystroke	i	n/a
207.383	0.075	414766	keystroke	Key.backspace	n/a
207.548	0.075	415096	keystroke	Key.backspace	n/a
207.683	0.06	415366	keystroke	e	n/a
207.863	0.105	415726	keystroke	c	n/a
208.058	0.09	416116	keystroke	i	n/a
208.298	0.075	416596	keystroke	a	n/a
208.598	0.15	417196	keystroke	l	n/a
208.734	0.119	417468	keystroke	i	n/a
208.898	0.12	417796	keystroke	s	n/a
209.078	0.09	418156	keystroke	t	n/a
209.213	0.12	418426	keystroke	s	n/a
209.393	0.12	418786	keystroke	Key.space	n/a
209.558	0.105	419116	keystroke	t	n/a
209.693	0.12	419386	keystroke	h	n/a
209.828	0.12	419656	keystroke	u	n/a
209.993	0.09	419986	keystroke	r	n/a
210.443	0.075	420886	keystroke	Key.backspace	n/a
210.653	0.06	421306	keystroke	Key.backspace	n/a
210.893	0.075	421786	keystroke	i	n/a
211.013	0.09	422026	keystroke	r	n/a
211.238	0.09	422476	keystroke	d	n/a
211.448	0.06	422896	keystroke	Key.enter	n/a
211.5135	6.0415	423027	prompt	n/a	bars seeking jobs you\n
212.228	0.12	424456	keystroke	b	n/a
212.363	0.09	424726	keystroke	a	n/a
212.468	0.1055	424936	keystroke	r	n/a
212.9935	0.105	425987	keystroke	d	n/a
213.1135	0.075	426227	keystroke	s	n/a
213.5785	0.075	427157	keystroke	Key.backspace	n/a
213.8035	0.06	427607	keystroke	Key.backspace	n/a
213.9085	0.075	427817	keystroke	s	n/a
214.1635	0.105	428327	keystroke	Key.space	n/a
214.3885	0.105	428777	keystroke	s	n/a
214.5535	0.06	429107	keystroke	e	n/a
214.7035	0.075	429407	keystroke	e	n/a
214.8085	0.09	429617	keystroke	k	n/a
215.0485	0.06	430097	keystroke	i	n/a
215.2885	0.03	430577	keystroke	n	n/a
215.5435	0.105	431087	keystroke	g	n/a
215.7385	0.075	431477	keystroke	Key.space	n/a
215.9185	0.135	431837	keystroke	j	n/a
216.0685	0.06	432137	keystroke	o	n/a
216.2785	0.075	432557	keystroke	b	n/a
216.3985	0.075	432797	keystroke	s	n/a
216.5185	0.105	433037	keystroke	Key.space	n/a
217.0435	0.09	434087	keystroke	y	n/a
217.1935	0.105	434387	keystroke	o	n/a
217.2685	0.1195	434537	keystroke	u	n/a
217.478	0.075	434956	keystroke	Key.enter	n/a
217.56	19.255	435120	prompt	n/a	commissions vista prospects warm\n
218.228	0.09	436456	keystroke	c	n/a
218.333	0.075	436666	keystroke	o	n/a
218.498	0.09	436996	keystroke	m	n/a
218.663	0.09	437326	keystroke	m	n/a
218.978	0.075	437956	keystroke	i	n/a
219.188	0.105	438376	keystroke	s	n/a
219.368	0.09	438736	keystroke	i	n/a
219.534	0.075	439068	keystroke	o	n/a
219.7135	0.09	439427	keystroke	n	n/a
219.9385	0.09	439877	keystroke	s	n/a
220.2835	0.09	440567	keystroke	Key.space	n/a
221.1085	0.075	442217	keystroke	Key.backspace	n/a
221.3785	0.0745	442757	keystroke	Key.backspace	n/a
221.648	0.06	443296	keystroke	Key.backspace	n/a
221.873	0.075	443746	keystroke	Key.backspace	n/a
222.083	0.09	444166	keystroke	Key.backspace	n/a
223.7185	0.09	447437	keystroke	s	n/a
223.9435	0.105	447887	keystroke	i	n/a
224.259	0.06	448518	keystroke	o	n/a
224.484	0.075	448968	keystroke	n	n/a
224.603	0.076	449206	keystroke	s	n/a
224.768	0.06	449536	keystroke	Key.space	n/a
225.773	0.075	451546	keystroke	v	n/a
225.983	0.075	451966	keystroke	i	n/a
226.119	0.089	452238	keystroke	s	n/a
226.284	0.105	452568	keystroke	t	n/a
226.433	0.106	452866	keystroke	a	n/a
226.643	0.075	453286	keystroke	Key.space	n/a
226.943	0.061	453886	keystroke	p	n/a
227.079	0.104	454158	keystroke	r	n/a
227.244	0.149	454488	keystroke	o	n/a
227.378	0.076	454756	keystroke	p	n/a
227.529	0.104	455058	keystroke	s	n/a
227.663	0.106	455326	keystroke	e	n/a
228.458	0.075	456916	keystroke	Key.backspace	n/a
228.698	0.015	457396	keystroke	Key.backspace	n/a
228.834	0.075	457668	keystroke	e	n/a
229.119	0.074	458238	keystroke	c	n/a
229.343	0.09	458686	keystroke	t	n/a
229.478	0.09	458956	keystroke	s	n/a
229.703	0.075	459406	keystroke	Key.space	n/a
229.898	0.165	459796	keystroke	w	n/a
230.064	0.119	460128	keystroke	a	n/a
230.228	0.091	460456	keystroke	r	n/a
231.563	0.075	463126	keystroke	Key.backspace	n/a
231.773	0.075	463546	keystroke	Key.backspace	n/a
232.073	0.09	464146	keystroke	Key.backspace	n/a
232.328	0.075	464656	keystroke	Key.backspace	n/a
233.558	0.105	467116	keystroke	Key.backspace	n/a
233.783	0.09	467566	keystroke	Key.backspace	n/a
233.978	0.06	467956	keystroke	Key.backspace	n/a
234.158	0.06	468316	keystroke	Key.backspace	n/a
234.368	0.09	468736	keystroke	Key.backspace	n/a
234.593	0.09	469186	keystroke	s	n/a
234.833	0.105	469666	keystroke	p	n/a
235.073	0.075	470146	keystroke	e	n/a
235.388	0.075	470776	keystroke	c	n/a
235.598	0.12	471196	keystroke	t	n/a
235.733	0.105	471466	keystroke	s	n/a
235.913	0.105	471826	keystroke	Key.space	n/a
236.063	0.1955	472126	keystroke	w	n/a
236.213	0.1355	472426	keystroke	a	n/a
236.3935	0.09	472787	keystroke	r	n/a
236.5135	0.105	473027	keystroke	m	n/a
236.7385	0.075	473477	keystroke	Key.enter	n/a
236.818	9.102	473636	prompt	n/a	period nationwide concerns expertise\n
237.3835	0.075	474767	keystroke	p	n/a
237.6385	0.12	475277	keystroke	e	n/a
237.8335	0.09	475667	keystroke	r	n/a
238.0135	0.15	476027	keystroke	i	n/a
238.1335	0.075	476267	keystroke	o	n/a
238.2685	0.09	476537	keystroke	d	n/a
238.4035	0.12	476807	keystroke	Key.space	n/a
238.8085	0.075	477617	keystroke	b	n/a
238.9135	0.105	477827	keystroke	a	n/a
239.0635	0.09	478127	keystroke	t	n/a
239.5585	0.06	479117	keystroke	Key.backspace	n/a
239.7235	0.06	479447	keystroke	Key.backspace	n/a
239.8885	0.045	479777	keystroke	Key.backspace	n/a
240.3085	0.06	480617	keystroke	n	n/a
240.4135	0.09	480827	keystroke	a	n/a
240.5335	0.105	481067	keystroke	t	n/a
240.6535	0.12	481307	keystroke	i	n/a
240.7435	0.06	481487	keystroke	o	n/a
240.9385	0.09	481877	keystroke	n	n/a
241.0435	0.09	482087	keystroke	w	n/a
241.1635	0.075	482327	keystroke	i	n/a
241.283	0.165	482566	keystroke	d	n/a
241.463	0.045	482926	keystroke	e	n/a
241.673	0.075	483346	keystroke	Key.space	n/a
242.168	0.12	484336	keystroke	c	n/a
242.303	0.075	484606	keystroke	o	n/a
242.528	0.09	485056	keystroke	n	n/a
242.648	0.06	485296	keystroke	c	n/a
242.753	0.135	485506	keystroke	e	n/a
242.889	0.089	485778	keystroke	r	n/a
243.023	0.105	486046	keystroke	n	n/a
243.129	0.104	486258	keystroke	s	n/a
243.323	0.075	486646	keystroke	Key.space	n/a
244.2085	0.06	488417	keystroke	e	n/a
244.433	0.09	488866	keystroke	x	n/a
244.598	0.075	489196	keystroke	p	n/a
244.778	0.165	489556	keystroke	e	n/a
245.018	0.09	490036	keystroke	r	n/a
245.229	0.089	490458	keystroke	t	n/a
245.363	0.105	490726	keystroke	i	n/a
245.513	0.135	491026	keystroke	s	n/a
245.663	0.06	491326	keystroke	e	n/a
245.813	0.105	491626	keystroke	Key.enter	n/a
245.9235	11.202	491847	prompt	n/a	styles peripheral declare administered\n
246.5035	0.105	493007	keystroke	s	n/a
246.7435	0.105	493487	keystroke	t	n/a
246.9085	0.0895	493817	keystroke	y	n/a
247.148	0.06	494296	keystroke	l	n/a
247.2985	0.06	494597	keystroke	e	n/a
247.4635	0.09	494927	keystroke	Key.space	n/a
248.7685	0.075	497537	keystroke	Key.backspace	n/a
248.8885	0.09	497777	keystroke	s	n/a
249.0385	0.105	498077	keystroke	Key.space	n/a
249.3085	0.09	498617	keystroke	p	n/a
249.4585	0.075	498917	keystroke	e	n/a
249.638	0.076	499276	keystroke	r	n/a
249.789	0.105	499578	keystroke	i	n/a
249.969	0.06	499938	keystroke	d	n/a
250.404	0.075	500808	keystroke	Key.backspace	n/a
250.674	0.09	501348	keystroke	p	n/a
250.974	0.06	501948	keystroke	h	n/a
251.094	0.075	502188	keystroke	e	n/a
251.289	0.075	502578	keystroke	r	n/a
251.424	0.12	502848	keystroke	a	n/a
251.604	0.0895	503208	keystroke	l	n/a
251.7235	0.105	503447	keystroke	Key.space	n/a
252.0085	0.09	504017	keystroke	d	n/a
252.1585	0.105	504317	keystroke	e	n/a
252.3685	0.105	504737	keystroke	c	n/a
252.5785	0.06	505157	keystroke	l	n/a
252.7885	0.0755	505577	keystroke	a	n/a
253.089	0.09	506178	keystroke	r	n/a
253.599	0.0745	507198	keystroke	e	n/a
253.7635	0.075	507527	keystroke	Key.space	n/a
254.0635	0.06	508127	keystroke	d	n/a
254.3935	0.075	508787	keystroke	Key.backspace	n/a
254.5135	0.105	509027	keystroke	a	n/a
254.6195	0.074	509239	keystroke	d	n/a
254.7985	0.105	509597	keystroke	m	n/a
254.9635	0.105	509927	keystroke	i	n/a
255.0985	0.105	510197	keystroke	n	n/a
255.3085	0.09	510617	keystroke	i	n/a
255.4885	0.09	510977	keystroke	s	n/a
255.6835	0.105	511367	keystroke	t	n/a
255.8335	0.135	511667	keystroke	e	n/a
255.9535	0.105	511907	keystroke	r	n/a
256.0735	0.075	512147	keystroke	e	n/a
256.2985	0.06	512597	keystroke	d	n/a
256.5385	0.06	513077	keystroke	Key.space	n/a
256.7635	0.075	513527	keystroke	Key.backspace	n/a
257.0335	0.09	514067	keystroke	Key.enter	n/a
257.1295	8.0805	514259	prompt	n/a	design since museums leeds\n
257.7385	0.105	515477	keystroke	d	n/a
257.9035	0.12	515807	keystroke	e	n/a
258.3685	0.09	516737	keystroke	s	n/a
258.6085	0.075	517217	keystroke	g	n/a
258.6535	0.18	517307	keystroke	i	n/a
259.253	0.061	518506	keystroke	Key.backspace	n/a
259.404	0.06	518808	keystroke	Key.backspace	n/a
259.674	0.09	519348	keystroke	i	n/a
259.809	0.075	519618	keystroke	g	n/a
259.914	0.105	519828	keystroke	n	n/a
260.124	0.09	520248	keystroke	Key.space	n/a
260.3335	0.09	520667	keystroke	a	n/a
260.8135	0.06	521627	keystroke	Key.backspace	n/a
260.8885	0.09	521777	keystroke	s	n/a
261.0985	0.12	522197	keystroke	i	n/a
261.1735	0.15	522347	keystroke	n	n/a
261.3085	0.09	522617	keystroke	c	n/a
261.3685	0.12	522737	keystroke	e	n/a
261.5185	0.09	523037	keystroke	Key.space	n/a
261.7135	0.09	523427	keystroke	m	n/a
262.1485	0.015	524297	keystroke	e	n/a
262.478	0.075	524956	keystroke	Key.backspace	n/a
262.733	0.075	525466	keystroke	u	n/a
262.853	0.106	525706	keystroke	s	n/a
262.988	0.09	525976	keystroke	e	n/a
263.453	0.106	526906	keystroke	u	n/a
263.723	0.075	527446	keystroke	m	n/a
263.843	0.09	527686	keystroke	s	n/a
264.008	0.06	528016	keystroke	Key.space	n/a
264.383	0.06	528766	keystroke	l	n/a
264.518	0.075	529036	keystroke	e	n/a
264.668	0.075	529336	keystroke	e	n/a
264.863	0.105	529726	keystroke	d	n/a
264.983	0.075	529966	keystroke	s	n/a
265.118	0.091	530236	keystroke	Key.enter	n/a
265.2125	15.148	530425	prompt	n/a	heritage respondents marvel securely\n
265.854	0.09	531708	keystroke	h	n/a
265.974	0.09	531948	keystroke	e	n/a
266.184	0.06	532368	keystroke	r	n/a
266.3785	0.1055	532757	keystroke	i	n/a
266.589	0.1195	533178	keystroke	t	n/a
266.7535	0.135	533507	keystroke	a	n/a
267.0685	0.12	534137	keystroke	g	n/a
267.1735	0.105	534347	keystroke	e	n/a
267.3235	0.105	534647	keystroke	Key.space	n/a
267.6085	0.105	535217	keystroke	r	n/a
267.6985	0.09	535397	keystroke	e	n/a
267.9085	0.0905	535817	keystroke	s	n/a
268.0285	0.075	536057	keystroke	p	n/a
268.2385	0.0755	536477	keystroke	o	n/a
268.419	0.09	536838	keystroke	n	n/a
268.524	0.09	537048	keystroke	d	n/a
268.584	0.12	537168	keystroke	e	n/a
268.749	0.105	537498	keystroke	n	n/a
268.944	0.12	537888	keystroke	t	n/a
269.139	0.09	538278	keystroke	s	n/a
269.289	0.09	538578	keystroke	Key.space	n/a
269.6185	0.09	539237	keystroke	m	n/a
269.7235	0.105	539447	keystroke	a	n/a
269.8435	0.09	539687	keystroke	r	n/a
270.0685	0.0605	540137	keystroke	v	n/a
270.189	0.09	540378	keystroke	e	n/a
270.309	0.105	540618	keystroke	l	n/a
270.428	0.09	540856	keystroke	Key.space	n/a
270.668	0.09	541336	keystroke	s	n/a
270.803	0.09	541606	keystroke	e	n/a
271.269	0.0745	542538	keystroke	r	n/a
276.9855	0.001	553971	keystroke	Key.backspace	n/a
279.221	0.013	558442	keystroke	c	n/a
279.429	0.06	558858	keystroke	u	n/a
279.534	0.105	559068	keystroke	r	n/a
279.624	0.09	559248	keystroke	e	n/a
279.744	0.09	559488	keystroke	l	n/a
279.984	0.075	559968	keystroke	y	n/a
280.269	0.09	560538	keystroke	Key.enter	n/a
280.3655	17.395	560731	prompt	n/a	licenses increases offensive hydrogen\n
281.259	0.135	562518	keystroke	l	n/a
281.364	0.09	562728	keystroke	i	n/a
281.4985	0.075	562997	keystroke	c	n/a
281.6035	0.075	563207	keystroke	e	n/a
281.7535	0.09	563507	keystroke	n	n/a
281.9035	0.09	563807	keystroke	c	n/a
281.9635	0.12	563927	keystroke	e	n/a
282.2485	0.09	564497	keystroke	s	n/a
282.4735	0.09	564947	keystroke	Key.space	n/a
282.7285	0.135	565457	keystroke	i	n/a
282.849	0.0895	565698	keystroke	n	n/a
283.3285	0.09	566657	keystroke	Key.backspace	n/a
284.8585	0.06	569717	keystroke	Key.backspace	n/a
285.0835	0.06	570167	keystroke	Key.backspace	n/a
285.2785	0.075	570557	keystroke	Key.backspace	n/a
287.049	0.105	574098	keystroke	Key.backspace	n/a
287.364	0.0745	574728	keystroke	Key.backspace	n/a
287.9635	0.09	575927	keystroke	s	n/a
288.2185	0.06	576437	keystroke	e	n/a
288.4285	0.06	576857	keystroke	s	n/a
288.8785	0.105	577757	keystroke	Key.space	n/a
289.1935	0.165	578387	keystroke	i	n/a
289.2685	0.135	578537	keystroke	n	n/a
289.3885	0.12	578777	keystroke	c	n/a
289.8085	0.06	579617	keystroke	r	n/a
289.9885	0.21	579977	keystroke	e	n/a
290.2135	0.195	580427	keystroke	a	n/a
290.4235	0.18	580847	keystroke	s	n/a
290.6785	0.12	581357	keystroke	e	n/a
290.8585	0.12	581717	keystroke	s	n/a
291.0385	0.105	582077	keystroke	Key.space	n/a
291.2935	0.12	582587	keystroke	o	n/a
291.4285	0.09	582857	keystroke	f	n/a
291.5785	0.105	583157	keystroke	f	n/a
291.6985	0.1055	583397	keystroke	e	n/a
291.8785	0.105	583757	keystroke	n	n/a
292.0435	0.105	584087	keystroke	s	n/a
292.2085	0.12	584417	keystroke	i	n/a
292.3885	0.165	584777	keystroke	c	n/a
292.5385	0.105	585077	keystroke	e	n/a
292.6885	0.09	585377	keystroke	Key.space	n/a
293.079	0.09	586158	keystroke	Key.backspace	n/a
293.274	0.06	586548	keystroke	Key.backspace	n/a
293.499	0.045	586998	keystroke	Key.backspace	n/a
293.619	0.105	587238	keystroke	v	n/a
293.694	0.105	587388	keystroke	e	n/a
293.874	0.09	587748	keystroke	Key.space	n/a
294.4735	0.03	588947	keystroke	g	n/a
295.2235	0.075	590447	keystroke	Key.backspace	n/a
295.7485	0.075	591497	keystroke	h	n/a
295.9285	0.076	591857	keystroke	y	n/a
296.0335	0.046	592067	keystroke	d	n/a
296.1835	0.06	592367	keystroke	r	n/a
296.2585	0.075	592517	keystroke	o	n/a
296.4835	0.075	592967	keystroke	g	n/a
296.5735	0.12	593147	keystroke	e	n/a
297.4745	0.059	594949	keystroke	n	n/a
297.6835	0.075	595367	keystroke	Key.enter	n/a
297.7635	8.577	595527	prompt	n/a	montreal southern assessing invention\n
299.1085	0.09	598217	keystroke	m	n/a
299.289	0.045	598578	keystroke	o	n/a
299.469	0.09	598938	keystroke	n	n/a
299.634	0.06	599268	keystroke	t	n/a
299.799	0.105	599598	keystroke	r	n/a
300.009	0.12	600018	keystroke	e	n/a
300.114	0.135	600228	keystroke	a	n/a
300.264	0.0895	600528	keystroke	l	n/a
300.3835	0.12	600767	keystroke	Key.space	n/a
300.6385	0.105	601277	keystroke	s	n/a
300.7585	0.12	601517	keystroke	o	n/a
300.8485	0.105	601697	keystroke	u	n/a
300.9985	0.09	601997	keystroke	t	n/a
301.2535	0.075	602507	keystroke	h	n/a
301.4485	0.12	602897	keystroke	e	n/a
301.5535	0.09	603107	keystroke	r	n/a
301.7635	0.09	603527	keystroke	Key.space	n/a
302.2135	0.045	604427	keystroke	Key.backspace	n/a
302.499	0.075	604998	keystroke	n	n/a
302.769	0.075	605538	keystroke	Key.space	n/a
303.444	0.105	606888	keystroke	a	n/a
303.564	0.075	607128	keystroke	s	n/a
303.714	0.09	607428	keystroke	s	n/a
304.014	0.09	608028	keystroke	e	n/a
304.179	0.06	608358	keystroke	s	n/a
304.329	0.075	608658	keystroke	s	n/a
304.509	0.12	609018	keystroke	i	n/a
304.584	0.12	609168	keystroke	n	n/a
304.719	0.075	609438	keystroke	g	n/a
304.839	0.09	609678	keystroke	Key.space	n/a
305.034	0.135	610068	keystroke	i	n/a
305.154	0.09	610308	keystroke	n	n/a
305.259	0.06	610518	keystroke	v	n/a
305.364	0.105	610728	keystroke	e	n/a
305.499	0.105	610998	keystroke	n	n/a
305.619	0.075	611238	keystroke	t	n/a
305.799	0.12	611598	keystroke	i	n/a
305.904	0.06	611808	keystroke	o	n/a
306.084	0.075	612168	keystroke	n	n/a
306.279	0.06	612558	keystroke	Key.enter	n/a
306.3435	6.042	612687	prompt	n/a	allen planned contains dirty\n
306.954	0.09	613908	keystroke	a	n/a
307.104	0.045	614208	keystroke	l	n/a
307.224	0.06	614448	keystroke	l	n/a
307.374	0.075	614748	keystroke	e	n/a
307.539	0.09	615078	keystroke	n	n/a
307.704	0.075	615408	keystroke	Key.space	n/a
307.869	0.06	615738	keystroke	p	n/a
308.109	0.075	616218	keystroke	l	n/a
308.259	0.075	616518	keystroke	a	n/a
308.364	0.075	616728	keystroke	n	n/a
308.529	0.075	617058	keystroke	n	n/a
308.619	0.075	617238	keystroke	e	n/a
308.799	0.075	617598	keystroke	d	n/a
308.889	0.105	617778	keystroke	Key.space	n/a
309.099	0.075	618198	keystroke	c	n/a
309.219	0.075	618438	keystroke	o	n/a
309.399	0.09	618798	keystroke	n	n/a
309.504	0.09	619008	keystroke	t	n/a
309.639	0.135	619278	keystroke	a	n/a
310.2095	0.1045	620419	keystroke	i	n/a
310.284	0.105	620568	keystroke	n	n/a
310.449	0.09	620898	keystroke	s	n/a
310.6745	0.075	621349	keystroke	Key.space	n/a
310.9895	0.06	621979	keystroke	d	n/a
311.1995	0.09	622399	keystroke	i	n/a
311.6645	0.12	623329	keystroke	r	n/a
311.8745	0.105	623749	keystroke	t	n/a
312.0545	0.09	624109	keystroke	y	n/a
312.3095	0.075	624619	keystroke	Key.enter	n/a
312.3885	8.172	624777	prompt	n/a	channels larger elephant hughes\n
313.059	0.135	626118	keystroke	c	n/a
313.179	0.09	626358	keystroke	h	n/a
313.314	0.105	626628	keystroke	a	n/a
313.449	0.075	626898	keystroke	n	n/a
313.599	0.075	627198	keystroke	n	n/a
313.704	0.075	627408	keystroke	e	n/a
313.854	0.06	627708	keystroke	l	n/a
313.944	0.105	627888	keystroke	s	n/a
314.064	0.105	628128	keystroke	Key.space	n/a
314.229	0.075	628458	keystroke	l	n/a
314.319	0.075	628638	keystroke	a	n/a
314.439	0.135	628878	keystroke	r	n/a
314.724	0.09	629448	keystroke	g	n/a
314.874	0.15	629748	keystroke	e	n/a
315.009	0.12	630018	keystroke	r	n/a
315.174	0.105	630348	keystroke	Key.space	n/a
315.714	0.045	631428	keystroke	e	n/a
315.804	0.075	631608	keystroke	l	n/a
315.969	0.06	631938	keystroke	e	n/a
316.074	0.075	632148	keystroke	p	n/a
317.124	0.075	634248	keystroke	h	n/a
317.214	0.105	634428	keystroke	a	n/a
317.394	0.105	634788	keystroke	n	n/a
317.484	0.09	634968	keystroke	t	n/a
317.634	0.105	635268	keystroke	Key.space	n/a
317.904	0.075	635808	keystroke	h	n/a
318.099	0.09	636198	keystroke	u	n/a
318.774	0.09	637548	keystroke	g	n/a
319.974	0.075	639948	keystroke	h	n/a
320.124	0.09	640248	keystroke	e	n/a
320.274	0.135	640548	keystroke	s	n/a
320.484	0.075	640968	keystroke	Key.enter	n/a
320.564	9.6865	641128	prompt	n/a	appeared facing capitol changes\n
321.0995	0.09	642199	keystroke	a	n/a
321.2485	0.075	642497	keystroke	p	n/a
321.4135	0.045	642827	keystroke	p	n/a
321.4735	0.135	642947	keystroke	e	n/a
321.5795	0.134	643159	keystroke	a	n/a
321.6985	0.105	643397	keystroke	r	n/a
321.9685	0.09	643937	keystroke	e	n/a
322.1785	0.09	644357	keystroke	d	n/a
322.3135	0.09	644627	keystroke	Key.space	n/a
322.5545	0.119	645109	keystroke	f	n/a
322.6885	0.105	645377	keystroke	a	n/a
322.8685	0.09	645737	keystroke	c	n/a
323.0645	0.074	646129	keystroke	i	n/a
323.3485	0.075	646697	keystroke	i	n/a
323.9335	0.09	647867	keystroke	n	n/a
324.3085	0.06	648617	keystroke	Key.backspace	n/a
324.4585	0.045	648917	keystroke	Key.backspace	n/a
324.7135	0.076	649427	keystroke	n	n/a
324.8185	0.09	649637	keystroke	g	n/a
325.0285	0.0755	650057	keystroke	Key.space	n/a
325.404	0.075	650808	keystroke	c	n/a
325.899	0.09	651798	keystroke	a	n/a
326.049	0.075	652098	keystroke	p	n/a
326.349	0.105	652698	keystroke	i	n/a
326.514	0.105	653028	keystroke	t	n/a
326.799	0.105	653598	keystroke	a	n/a
326.994	0.0755	653988	keystroke	l	n/a
327.5345	0.074	655069	keystroke	Key.backspace	n/a
327.6845	0.075	655369	keystroke	Key.backspace	n/a
327.969	0.06	655938	keystroke	o	n/a
328.164	0.075	656328	keystroke	l	n/a
328.344	0.075	656688	keystroke	Key.space	n/a
329.184	0.0895	658368	keystroke	c	n/a
329.3185	0.0905	658637	keystroke	h	n/a
329.4385	0.105	658877	keystroke	a	n/a
329.5585	0.105	659117	keystroke	n	n/a
329.6785	0.105	659357	keystroke	g	n/a
329.7685	0.12	659537	keystroke	e	n/a
330.0235	0.09	660047	keystroke	s	n/a
330.1585	0.09	660317	keystroke	Key.enter	n/a
330.255	6.086	660510	prompt	n/a	gore engage love true\n
331.3145	0.075	662629	keystroke	g	n/a
331.5095	0.045	663019	keystroke	o	n/a
331.6595	0.09	663319	keystroke	r	n/a
332.1845	0.075	664369	keystroke	e	n/a
332.4395	0.105	664879	keystroke	Key.space	n/a
332.9945	0.075	665989	keystroke	e	n/a
333.1445	0.09	666289	keystroke	n	n/a
333.384	0.075	666768	keystroke	g	n/a
333.444	0.105	666888	keystroke	a	n/a
333.609	0.105	667218	keystroke	g	n/a
333.699	0.09	667398	keystroke	e	n/a
333.924	0.075	667848	keystroke	Key.space	n/a
334.359	0.0605	668718	keystroke	l	n/a
334.5095	0.06	669019	keystroke	o	n/a
334.644	0.1055	669288	keystroke	v	n/a
334.7195	0.135	669439	keystroke	e	n/a
334.8695	0.075	669739	keystroke	Key.space	n/a
335.0945	0.075	670189	keystroke	t	n/a
335.2745	0.09	670549	keystroke	r	n/a
336.039	0.075	672078	keystroke	u	n/a
336.144	0.075	672288	keystroke	e	n/a
336.279	0.06	672558	keystroke	Key.enter	n/a
336.344	7.364	672688	prompt	n/a	site athletic award mayor\n
336.9095	0.105	673819	keystroke	s	n/a
337.089	0.075	674178	keystroke	u	n/a
337.239	0.045	674478	keystroke	t	n/a
337.6585	0.06	675317	keystroke	Key.backspace	n/a
337.7785	0.105	675557	keystroke	Key.backspace	n/a
338.0185	0.075	676037	keystroke	i	n/a
338.1085	0.12	676217	keystroke	t	n/a
338.3635	0.075	676727	keystroke	e	n/a
338.5585	0.09	677117	keystroke	Key.space	n/a
338.9035	0.105	677807	keystroke	a	n/a
339.2185	0.075	678437	keystroke	t	n/a
339.3235	0.091	678647	keystroke	h	n/a
339.5495	0.075	679099	keystroke	l	n/a
339.6545	0.105	679309	keystroke	e	n/a
339.8795	0.06	679759	keystroke	t	n/a
340.179	0.09	680358	keystroke	i	n/a
340.3295	0.1495	680659	keystroke	c	n/a
340.554	0.075	681108	keystroke	Key.space	n/a
340.854	0.105	681708	keystroke	a	n/a
341.064	0.12	682128	keystroke	w	n/a
341.199	0.12	682398	keystroke	a	n/a
341.4395	0.074	682879	keystroke	y	n/a
341.8285	0.075	683657	keystroke	Key.backspace	n/a
341.9195	0.06	683839	keystroke	r	n/a
342.0995	0.105	684199	keystroke	d	n/a
342.2785	0.105	684557	keystroke	Key.space	n/a
342.729	0.0895	685458	keystroke	m	n/a
342.8495	0.09	685699	keystroke	a	n/a
343.0435	0.091	686087	keystroke	y	n/a
343.2835	0.076	686567	keystroke	o	n/a
343.434	0.075	686868	keystroke	r	n/a
343.599	0.105	687198	keystroke	Key.enter	n/a
343.7105	18.46	687421	prompt	n/a	markers theoretical realistic milan\n
350.7865	0.013	701573	keystroke	m	n/a
350.8445	0.135	701689	keystroke	a	n/a
351.0245	0.075	702049	keystroke	r	n/a
351.1895	0.09	702379	keystroke	k	n/a
351.2945	0.12	702589	keystroke	e	n/a
351.3995	0.09	702799	keystroke	r	n/a
351.5645	0.12	703129	keystroke	s	n/a
351.7595	0.105	703519	keystroke	Key.space	n/a
352.0295	0.09	704059	keystroke	t	n/a
352.1495	0.075	704299	keystroke	h	n/a
352.2545	0.12	704509	keystroke	e	n/a
352.4345	0.075	704869	keystroke	o	n/a
352.5545	0.075	705109	keystroke	r	n/a
352.7795	0.06	705559	keystroke	e	n/a
352.9595	0.06	705919	keystroke	r	n/a
353.1395	0.105	706279	keystroke	t	n/a
353.3045	0.09	706609	keystroke	i	n/a
353.4545	0.03	706909	keystroke	c	n/a
353.5445	0.09	707089	keystroke	a	n/a
353.6645	0.075	707329	keystroke	l	n/a
353.7995	0.09	707599	keystroke	Key.space	n/a
355.7795	0.06	711559	keystroke	Key.backspace	n/a
355.9895	0.045	711979	keystroke	Key.backspace	n/a
356.1695	0.075	712339	keystroke	Key.backspace	n/a
356.3645	0.075	712729	keystroke	Key.backspace	n/a
356.5745	0.045	713149	keystroke	Key.backspace	n/a
357.0545	0.06	714109	keystroke	Key.backspace	n/a
357.2795	0.045	714559	keystroke	Key.backspace	n/a
357.4895	0.075	714979	keystroke	t	n/a
357.7895	0.075	715579	keystroke	c	n/a
358.1795	0.12	716359	keystroke	Key.backspace	n/a
358.5095	0.06	717019	keystroke	i	n/a
358.5995	0.09	717199	keystroke	c	n/a
358.6595	0.105	717319	keystroke	a	n/a
358.8095	0.074	717619	keystroke	l	n/a
358.9895	0.075	717979	keystroke	Key.space	n/a
359.664	0.105	719328	keystroke	r	n/a
359.859	0.105	719718	keystroke	e	n/a
359.949	0.12	719898	keystroke	a	n/a
360.07	0.149	720140	keystroke	l	n/a
360.174	0.075	720348	keystroke	i	n/a
360.339	0.135	720678	keystroke	s	n/a
360.534	0.09	721068	keystroke	t	n/a
360.654	0.105	721308	keystroke	i	n/a
360.789	0.105	721578	keystroke	c	n/a
361.014	0.09	722028	keystroke	Key.space	n/a
361.299	0.105	722598	keystroke	m	n/a
361.464	0.105	722928	keystroke	i	n/a
361.674	0.075	723348	keystroke	l	n/a
361.764	0.09	723528	keystroke	a	n/a
361.884	0.09	723768	keystroke	n	n/a
362.079	0.09	724158	keystroke	Key.enter	n/a
362.173	7.1375	724346	prompt	n/a	mysimon real issn marijuana\n
362.6645	0.0895	725329	keystroke	m	n/a
362.9645	0.0595	725929	keystroke	y	n/a
363.1745	0.075	726349	keystroke	s	n/a
363.399	0.075	726798	keystroke	i	n/a
363.609	0.075	727218	keystroke	m	n/a
363.774	0.06	727548	keystroke	o	n/a
363.954	0.075	727908	keystroke	n	n/a
364.119	0.09	728238	keystroke	Key.space	n/a
364.359	0.135	728718	keystroke	r	n/a
364.569	0.12	729138	keystroke	e	n/a
364.69	0.119	729380	keystroke	a	n/a
364.824	0.09	729648	keystroke	l	n/a
364.929	0.12	729858	keystroke	Key.space	n/a
365.109	0.075	730218	keystroke	i	n/a
365.244	0.06	730488	keystroke	s	n/a
365.3645	0.105	730729	keystroke	s	n/a
365.5145	0.105	731029	keystroke	n	n/a
365.6635	0.09	731327	keystroke	Key.space	n/a
365.8445	0.09	731689	keystroke	m	n/a
365.9795	0.12	731959	keystroke	a	n/a
366.1445	0.09	732289	keystroke	r	n/a
366.6395	0.09	733279	keystroke	i	n/a
366.8345	0.09	733669	keystroke	g	n/a
367.359	0.0605	734718	keystroke	Key.backspace	n/a
367.629	0.045	735258	keystroke	j	n/a
368.0795	0.0895	736159	keystroke	u	n/a
368.5295	0.0895	737059	keystroke	a	n/a
368.7695	0.09	737539	keystroke	n	n/a
368.9195	0.09	737839	keystroke	a	n/a
369.2195	0.09	738439	keystroke	Key.enter	n/a
369.3135	8.6225	738627	prompt	n/a	throws benz reduce unauthorized\n
369.999	0.0905	739998	keystroke	t	n/a
370.104	0.09	740208	keystroke	h	n/a
370.209	0.09	740418	keystroke	r	n/a
371.094	0.045	742188	keystroke	w	n/a
371.4995	0.075	742999	keystroke	Key.backspace	n/a
371.7095	0.075	743419	keystroke	o	n/a
371.8295	0.06	743659	keystroke	w	n/a
372.0245	0.075	744049	keystroke	s	n/a
372.2045	0.09	744409	keystroke	Key.space	n/a
372.4745	0.075	744949	keystroke	b	n/a
372.5645	0.06	745129	keystroke	e	n/a
372.7145	0.105	745429	keystroke	n	n/a
373.1495	0.06	746299	keystroke	z	n/a
373.2995	0.1045	746599	keystroke	Key.space	n/a
373.494	0.15	746988	keystroke	r	n/a
373.614	0.105	747228	keystroke	e	n/a
374.154	0.06	748308	keystroke	d	n/a
374.6335	0.06	749267	keystroke	u	n/a
374.7835	0.105	749567	keystroke	c	n/a
374.8585	0.135	749717	keystroke	e	n/a
375.0535	0.09	750107	keystroke	Key.space	n/a
375.6685	0.06	751337	keystroke	u	n/a
375.8635	0.09	751727	keystroke	n	n/a
375.9985	0.105	751997	keystroke	a	n/a
376.3435	0.075	752687	keystroke	u	n/a
376.5535	0.09	753107	keystroke	t	n/a
376.6735	0.0905	753347	keystroke	h	n/a
376.869	0.075	753738	keystroke	o	n/a
377.004	0.075	754008	keystroke	r	n/a
377.094	0.09	754188	keystroke	i	n/a
377.289	0.105	754578	keystroke	z	n/a
377.514	0.09	755028	keystroke	e	n/a
377.709	0.075	755418	keystroke	d	n/a
377.844	0.09	755688	keystroke	Key.enter	n/a
377.9405	5.3805	755881	prompt	n/a	eyed humor unlock bargains\n
378.639	0.105	757278	keystroke	e	n/a
378.834	0.075	757668	keystroke	y	n/a
378.924	0.075	757848	keystroke	e	n/a
379.104	0.075	758208	keystroke	d	n/a
379.224	0.075	758448	keystroke	Key.space	n/a
379.404	0.075	758808	keystroke	h	n/a
379.599	0.06	759198	keystroke	u	n/a
379.809	0.075	759618	keystroke	m	n/a
379.974	0.06	759948	keystroke	o	n/a
380.124	0.06	760248	keystroke	r	n/a
380.244	0.09	760488	keystroke	Key.space	n/a
380.544	0.09	761088	keystroke	u	n/a
380.754	0.06	761508	keystroke	n	n/a
380.949	0.06	761898	keystroke	l	n/a
381.114	0.06	762228	keystroke	o	n/a
381.249	0.09	762498	keystroke	c	n/a
381.414	0.105	762828	keystroke	k	n/a
381.534	0.12	763068	keystroke	Key.space	n/a
381.849	0.075	763698	keystroke	b	n/a
381.969	0.09	763938	keystroke	a	n/a
382.254	0.09	764508	keystroke	r	n/a
382.509	0.09	765018	keystroke	g	n/a
382.674	0.09	765348	keystroke	a	n/a
382.809	0.165	765618	keystroke	i	n/a
382.914	0.12	765828	keystroke	n	n/a
383.064	0.09	766128	keystroke	s	n/a
383.274	0.045	766548	keystroke	Key.enter	n/a
383.324	8.607	766648	prompt	n/a	legendary occupation hobby actors\n
383.889	0.09	767778	keystroke	l	n/a
383.994	0.06	767988	keystroke	e	n/a
384.219	0.0905	768438	keystroke	g	n/a
384.3995	0.075	768799	keystroke	e	n/a
384.4895	0.12	768979	keystroke	n	n/a
384.6395	0.105	769279	keystroke	e	n/a
384.9845	0.12	769969	keystroke	d	n/a
385.3145	0.06	770629	keystroke	Key.backspace	n/a
385.4945	0.075	770989	keystroke	Key.backspace	n/a
385.5995	0.105	771199	keystroke	d	n/a
385.6595	0.135	771319	keystroke	a	n/a
385.9145	0.12	771829	keystroke	r	n/a
386.0795	0.105	772159	keystroke	y	n/a
386.2895	0.09	772579	keystroke	Key.space	n/a
386.7395	0.09	773479	keystroke	c	n/a
387.1595	0.06	774319	keystroke	Key.backspace	n/a
387.3995	0.075	774799	keystroke	o	n/a
387.5195	0.06	775039	keystroke	c	n/a
387.6395	0.105	775279	keystroke	c	n/a
387.7745	0.09	775549	keystroke	u	n/a
387.9995	0.06	775999	keystroke	p	n/a
388.2995	0.09	776599	keystroke	a	n/a
388.4945	0.06	776989	keystroke	t	n/a
388.5995	0.165	777199	keystroke	i	n/a
388.7345	0.075	777469	keystroke	o	n/a
388.9745	0.105	777949	keystroke	n	n/a
389.1245	0.09	778249	keystroke	Key.space	n/a
389.7845	0.06	779569	keystroke	h	n/a
389.9495	0.06	779899	keystroke	o	n/a
390.1595	0.075	780319	keystroke	b	n/a
390.2945	0.09	780589	keystroke	b	n/a
390.535	0.059	781070	keystroke	y	n/a
390.669	0.09	781338	keystroke	Key.space	n/a
390.819	0.105	781638	keystroke	a	n/a
391.044	0.075	782088	keystroke	c	n/a
391.269	0.105	782538	keystroke	t	n/a
391.389	0.09	782778	keystroke	o	n/a
391.509	0.105	783018	keystroke	r	n/a
391.719	0.075	783438	keystroke	s	n/a
391.839	0.09	783678	keystroke	Key.enter	n/a
391.9335	9.5075	783867	prompt	n/a	mpegs registry civic halloween\n
392.664	0.105	785328	keystroke	m	n/a
392.904	0.045	785808	keystroke	p	n/a
393.024	0.075	786048	keystroke	e	n/a
393.219	0.06	786438	keystroke	d	n/a
393.6695	0.06	787339	keystroke	Key.backspace	n/a
393.9395	0.075	787879	keystroke	g	n/a
394.1045	0.06	788209	keystroke	s	n/a
394.4345	0.06	788869	keystroke	Key.space	n/a
395.0045	0.135	790009	keystroke	r	n/a
395.1245	0.105	790249	keystroke	e	n/a
395.3045	0.075	790609	keystroke	g	n/a
395.4245	0.09	790849	keystroke	i	n/a
396.1295	0.105	792259	keystroke	s	n/a
396.339	0.105	792678	keystroke	t	n/a
396.579	0.091	793158	keystroke	r	n/a
396.8045	0.09	793609	keystroke	y	n/a
397.1495	0.06	794299	keystroke	Key.space	n/a
398.1245	0.12	796249	keystroke	c	n/a
398.3645	0.09	796729	keystroke	i	n/a
398.4395	0.09	796879	keystroke	v	n/a
398.6345	0.105	797269	keystroke	i	n/a
398.8745	0.09	797749	keystroke	c	n/a
399.0995	0.09	798199	keystroke	Key.space	n/a
399.6095	0.075	799219	keystroke	h	n/a
399.7295	0.09	799459	keystroke	a	n/a
399.8795	0.075	799759	keystroke	l	n/a
400.0145	0.06	800029	keystroke	l	n/a
400.179	0.075	800358	keystroke	o	n/a
400.269	0.18	800538	keystroke	w	n/a
400.434	0.105	800868	keystroke	e	n/a
400.599	0.09	801198	keystroke	e	n/a
400.809	0.09	801618	keystroke	n	n/a
401.364	0.075	802728	keystroke	Key.enter	n/a
401.4435	6.7775	802887	prompt	n/a	comic pulse drainage happens\n
402.175	0.045	804350	keystroke	c	n/a
402.235	0.015	804470	keystroke	o	n/a
402.34	0.105	804680	keystroke	m	n/a
402.474	0.106	804948	keystroke	i	n/a
402.67	0.075	805340	keystroke	c	n/a
402.82	0.089	805640	keystroke	Key.space	n/a
403.044	0.075	806088	keystroke	p	n/a
403.24	0.075	806480	keystroke	u	n/a
403.42	0.105	806840	keystroke	c	n/a
403.884	0.045	807768	keystroke	Key.backspace	n/a
404.17	0.09	808340	keystroke	l	n/a
404.3195	0.18	808639	keystroke	s	n/a
404.4695	0.105	808939	keystroke	e	n/a
404.6345	0.09	809269	keystroke	Key.space	n/a
405.1595	0.12	810319	keystroke	d	n/a
405.3995	0.12	810799	keystroke	r	n/a
405.5345	0.135	811069	keystroke	a	n/a
405.6845	0.1345	811369	keystroke	i	n/a
405.804	0.075	811608	keystroke	n	n/a
405.999	0.135	811998	keystroke	a	n/a
406.269	0.135	812538	keystroke	g	n/a
406.389	0.12	812778	keystroke	e	n/a
406.584	0.09	813168	keystroke	Key.space	n/a
407.259	0.09	814518	keystroke	h	n/a
407.364	0.045	814728	keystroke	a	n/a
407.469	0.06	814938	keystroke	p	n/a
407.619	0.03	815238	keystroke	p	n/a
407.724	0.075	815448	keystroke	e	n/a
407.874	0.09	815748	keystroke	n	n/a
407.994	0.075	815988	keystroke	s	n/a
408.144	0.075	816288	keystroke	Key.enter	n/a
408.2245	9.9415	816449	prompt	n/a	efficient contrast britain females\n
408.759	0.075	817518	keystroke	e	n/a
408.984	0.075	817968	keystroke	f	n/a
409.119	0.09	818238	keystroke	f	n/a
409.254	0.09	818508	keystroke	i	n/a
409.374	0.105	818748	keystroke	c	n/a
409.509	0.09	819018	keystroke	i	n/a
409.749	0.075	819498	keystroke	e	n/a
409.944	0.105	819888	keystroke	n	n/a
410.064	0.09	820128	keystroke	t	n/a
410.244	0.06	820488	keystroke	Key.space	n/a
410.544	0.09	821088	keystroke	c	n/a
410.664	0.0905	821328	keystroke	o	n/a
410.8445	0.105	821689	keystroke	n	n/a
410.9495	0.06	821899	keystroke	t	n/a
411.0995	0.135	822199	keystroke	r	n/a
411.2645	0.18	822529	keystroke	a	n/a
411.4145	0.12	822829	keystroke	s	n/a
411.6395	0.075	823279	keystroke	t	n/a
411.8495	0.105	823699	keystroke	Key.space	n/a
412.5695	0.075	825139	keystroke	r	n/a
413.0195	0.075	826039	keystroke	Key.backspace	n/a
413.6645	0.075	827329	keystroke	b	n/a
413.7695	0.09	827539	keystroke	r	n/a
413.9195	0.09	827839	keystroke	i	n/a
414.0395	0.075	828079	keystroke	t	n/a
414.295	0.06	828590	keystroke	a	n/a
414.685	0.1195	829370	keystroke	i	n/a
414.7745	0.12	829549	keystroke	n	n/a
415.0145	0.0755	830029	keystroke	Key.space	n/a
417.1915	0.118	834383	keystroke	f	n/a
417.3245	0.015	834649	keystroke	e	n/a
417.3695	0.105	834739	keystroke	m	n/a
417.4895	0.105	834979	keystroke	a	n/a
417.6995	0.06	835399	keystroke	l	n/a
417.7895	0.075	835579	keystroke	e	n/a
417.8945	0.1045	835789	keystroke	s	n/a
418.059	0.105	836118	keystroke	Key.enter	n/a
418.169	7.572	836338	prompt	n/a	instead junction fixed bracelet\n
418.914	0.165	837828	keystroke	i	n/a
419.004	0.121	838008	keystroke	n	n/a
419.139	0.09	838278	keystroke	s	n/a
419.274	0.105	838548	keystroke	t	n/a
419.545	0.134	839090	keystroke	e	n/a
419.904	0.165	839808	keystroke	a	n/a
420.099	0.105	840198	keystroke	d	n/a
420.339	0.06	840678	keystroke	Key.space	n/a
421.3145	0.06	842629	keystroke	j	n/a
421.4645	0.075	842929	keystroke	u	n/a
421.6595	0.09	843319	keystroke	n	n/a
421.7645	0.075	843529	keystroke	c	n/a
421.9595	0.06	843919	keystroke	t	n/a
422.0345	0.12	844069	keystroke	i	n/a
422.1395	0.06	844279	keystroke	o	n/a
422.3195	0.09	844639	keystroke	n	n/a
422.5145	0.075	845029	keystroke	Key.space	n/a
422.8295	0.045	845659	keystroke	f	n/a
423.1145	0.06	846229	keystroke	i	n/a
423.2495	0.0905	846499	keystroke	x	n/a
423.4895	0.06	846979	keystroke	e	n/a
423.6545	0.06	847309	keystroke	d	n/a
423.7445	0.075	847489	keystroke	Key.space	n/a
423.9695	0.09	847939	keystroke	b	n/a
424.0745	0.135	848149	keystroke	r	n/a
424.1945	0.1355	848389	keystroke	a	n/a
424.465	0.135	848930	keystroke	c	n/a
424.6145	0.09	849229	keystroke	e	n/a
424.8845	0.06	849769	keystroke	l	n/a
425.0045	0.105	850009	keystroke	e	n/a
425.2595	0.075	850519	keystroke	t	n/a
425.6645	0.075	851329	keystroke	Key.enter	n/a
425.744	19.467	851488	prompt	n/a	candle stand discounted decor\n
426.3845	0.045	852769	keystroke	e	n/a
426.8345	0.06	853669	keystroke	Key.backspace	n/a
426.9545	0.09	853909	keystroke	c	n/a
427.0895	0.09	854179	keystroke	a	n/a
427.2245	0.075	854449	keystroke	n	n/a
427.7345	0.075	855469	keystroke	d	n/a
427.9145	0.075	855829	keystroke	l	n/a
428.0195	0.075	856039	keystroke	e	n/a
428.2295	0.075	856459	keystroke	d	n/a
428.6945	0.06	857389	keystroke	Key.backspace	n/a
428.9495	0.075	857899	keystroke	Key.space	n/a
429.5795	0.045	859159	keystroke	s	n/a
429.7145	0.075	859429	keystroke	t	n/a
429.8045	0.135	859609	keystroke	a	n/a
430.0145	0.075	860029	keystroke	n	n/a
430.1345	0.09	860269	keystroke	d	n/a
430.4645	0.12	860929	keystroke	Key.space	n/a
430.8995	0.09	861799	keystroke	d	n/a
431.0045	0.09	862009	keystroke	i	n/a
431.2145	0.03	862429	keystroke	s	n/a
431.575	0.06	863150	keystroke	Key.backspace	n/a
431.68	0.09	863360	keystroke	c	n/a
431.9345	0.15	863869	keystroke	o	n/a
432.0395	0.09	864079	keystroke	u	n/a
432.2645	0.105	864529	keystroke	n	n/a
432.4745	0.06	864949	keystroke	t	n/a
432.6845	0.075	865369	keystroke	e	n/a
432.9095	0.09	865819	keystroke	d	n/a
433.0595	0.09	866119	keystroke	Key.space	n/a
433.7645	0.0905	867529	keystroke	d	n/a
433.96	0.045	867920	keystroke	r	n/a
434.26	0.075	868520	keystroke	c	n/a
434.53	0.075	869060	keystroke	o	n/a
434.665	0.075	869330	keystroke	r	n/a
435.01	0.075	870020	keystroke	Key.backspace	n/a
435.205	0.06	870410	keystroke	Key.backspace	n/a
435.415	0.075	870830	keystroke	Key.backspace	n/a
435.625	0.075	871250	keystroke	Key.backspace	n/a
435.76	0.105	871520	keystroke	e	n/a
436.015	0.105	872030	keystroke	c	n/a
436.165	0.075	872330	keystroke	o	n/a
436.285	0.06	872570	keystroke	r	n/a
439.8415	0.001	879683	keystroke	Key.backspace	n/a
439.9595	0.075	879919	keystroke	Key.backspace	n/a
440.1545	0.045	880309	keystroke	Key.backspace	n/a
440.3495	0.075	880699	keystroke	Key.backspace	n/a
440.5445	0.075	881089	keystroke	Key.backspace	n/a
440.7245	0.06	881449	keystroke	Key.backspace	n/a
440.9045	0.06	881809	keystroke	Key.backspace	n/a
441.0995	0.06	882199	keystroke	Key.backspace	n/a
441.2795	0.06	882559	keystroke	Key.backspace	n/a
441.4745	0.075	882949	keystroke	Key.backspace	n/a
441.6845	0.06	883369	keystroke	Key.backspace	n/a
441.8645	0.075	883729	keystroke	Key.backspace	n/a
442.0595	0.09	884119	keystroke	Key.backspace	n/a
442.2245	0.105	884449	keystroke	s	n/a
442.4645	0.105	884929	keystroke	c	n/a
442.7195	0.165	885439	keystroke	o	n/a
442.8545	0.09	885709	keystroke	u	n/a
443.0645	0.105	886129	keystroke	n	n/a
443.1995	0.135	886399	keystroke	t	n/a
443.3195	0.0905	886639	keystroke	e	n/a
443.545	0.045	887090	keystroke	d	n/a
443.6945	0.0755	887389	keystroke	Key.space	n/a
444.01	0.075	888020	keystroke	d	n/a
444.175	0.075	888350	keystroke	e	n/a
444.385	0.06	888770	keystroke	c	n/a
444.82	0.09	889640	keystroke	o	n/a
444.955	0.075	889910	keystroke	r	n/a
445.15	0.06	890300	keystroke	Key.enter	n/a
445.214	9.867	890428	prompt	n/a	versions pictures broader annotated\n
446.02	0.09	892040	keystroke	v	n/a
446.185	0.12	892370	keystroke	e	n/a
446.29	0.12	892580	keystroke	r	n/a
446.455	0.105	892910	keystroke	s	n/a
446.575	0.135	893150	keystroke	i	n/a
446.68	0.075	893360	keystroke	o	n/a
446.875	0.09	893750	keystroke	n	n/a
447.025	0.09	894050	keystroke	s	n/a
447.205	0.075	894410	keystroke	Key.space	n/a
447.46	0.12	894920	keystroke	p	n/a
447.7	0.09	895400	keystroke	c	n/a
448.21	0.06	896420	keystroke	Key.backspace	n/a
448.4045	0.075	896809	keystroke	i	n/a
448.4945	0.09	896989	keystroke	c	n/a
448.8395	0.12	897679	keystroke	t	n/a
449.0195	0.105	898039	keystroke	u	n/a
449.1695	0.105	898339	keystroke	r	n/a
449.4095	0.075	898819	keystroke	e	n/a
449.6495	0.06	899299	keystroke	s	n/a
449.7545	0.105	899509	keystroke	Key.space	n/a
450.0095	0.09	900019	keystroke	b	n/a
450.2195	0.06	900439	keystroke	r	n/a
450.3995	0.06	900799	keystroke	e	n/a
451.119	0.06	902238	keystroke	Key.backspace	n/a
451.344	0.06	902688	keystroke	o	n/a
451.449	0.121	902898	keystroke	a	n/a
452.2145	0.06	904429	keystroke	d	n/a
452.4245	0.15	904849	keystroke	e	n/a
452.5595	0.075	905119	keystroke	r	n/a
452.6495	0.15	905299	keystroke	Key.space	n/a
452.8295	0.09	905659	keystroke	a	n/a
453.0095	0.0605	906019	keystroke	n	n/a
453.1595	0.075	906319	keystroke	n	n/a
453.34	0.059	906680	keystroke	o	n/a
454.149	0.12	908298	keystroke	t	n/a
454.299	0.165	908598	keystroke	a	n/a
454.509	0.12	909018	keystroke	t	n/a
454.614	0.105	909228	keystroke	e	n/a
454.824	0.075	909648	keystroke	d	n/a
454.989	0.09	909978	keystroke	Key.enter	n/a
455.0835	15.658	910167	prompt	n/a	found filled vietnamese providing\n
455.7995	0.105	911599	keystroke	f	n/a
455.9645	0.1505	911929	keystroke	o	n/a
456.624	0.075	913248	keystroke	u	n/a
456.835	0.09	913670	keystroke	n	n/a
457.345	0.075	914690	keystroke	Key.space	n/a
457.6	0.075	915200	keystroke	d	n/a
458.035	0.075	916070	keystroke	Key.backspace	n/a
458.215	0.06	916430	keystroke	Key.backspace	n/a
458.32	0.105	916640	keystroke	f	n/a
458.964	0.06	917928	keystroke	Key.backspace	n/a
459.084	0.091	918168	keystroke	d	n/a
459.234	0.0905	918468	keystroke	Key.space	n/a
459.519	0.075	919038	keystroke	f	n/a
459.684	0.03	919368	keystroke	i	n/a
460.8995	0.03	921799	keystroke	l	n/a
461.1545	0.09	922309	keystroke	l	n/a
463.6015	0.043	927203	keystroke	e	n/a
463.7495	0.105	927499	keystroke	d	n/a
464.1995	0.135	928399	keystroke	Key.space	n/a
465.3995	0.09	930799	keystroke	v	n/a
465.6695	0.075	931339	keystroke	i	n/a
465.8795	0.135	931759	keystroke	e	n/a
466.0895	0.105	932179	keystroke	t	n/a
466.6745	0.09	933349	keystroke	n	n/a
466.8695	0.09	933739	keystroke	a	n/a
467.0195	0.09	934039	keystroke	m	n/a
467.2145	0.075	934429	keystroke	e	n/a
467.4845	0.105	934969	keystroke	s	n/a
467.6345	0.09	935269	keystroke	e	n/a
467.7845	0.075	935569	keystroke	Key.space	n/a
467.9945	0.105	935989	keystroke	p	n/a
468.2195	0.105	936439	keystroke	r	n/a
468.3695	0.135	936739	keystroke	o	n/a
468.5645	0.12	937129	keystroke	v	n/a
468.955	0.119	937910	keystroke	i	n/a
469.105	0.06	938210	keystroke	c	n/a
469.824	0.06	939648	keystroke	Key.backspace	n/a
469.93	0.105	939860	keystroke	d	n/a
470.154	0.15	940308	keystroke	i	n/a
470.275	0.135	940550	keystroke	n	n/a
470.425	0.105	940850	keystroke	g	n/a
470.649	0.09	941298	keystroke	Key.enter	n/a
470.7455	6.5505	941491	prompt	n/a	killed poker optics statement\n
471.595	0.075	943190	keystroke	k	n/a
471.774	0.061	943548	keystroke	i	n/a
471.955	0.06	943910	keystroke	l	n/a
472.075	0.075	944150	keystroke	l	n/a
472.15	0.075	944300	keystroke	e	n/a
472.315	0.105	944630	keystroke	d	n/a
472.434	0.09	944868	keystroke	Key.space	n/a
472.57	0.089	945140	keystroke	p	n/a
473.004	0.091	946008	keystroke	o	n/a
473.2	0.09	946400	keystroke	k	n/a
473.365	0.12	946730	keystroke	e	n/a
473.56	0.09	947120	keystroke	r	n/a
473.71	0.105	947420	keystroke	Key.space	n/a
474.01	0.15	948020	keystroke	o	n/a
474.115	0.09	948230	keystroke	p	n/a
474.205	0.105	948410	keystroke	t	n/a
474.355	0.105	948710	keystroke	i	n/a
474.58	0.09	949160	keystroke	c	n/a
474.745	0.105	949490	keystroke	s	n/a
474.91	0.09	949820	keystroke	Key.space	n/a
475.18	0.075	950360	keystroke	s	n/a
475.42	0.105	950840	keystroke	t	n/a
475.555	0.135	951110	keystroke	a	n/a
475.705	0.12	951410	keystroke	t	n/a
475.81	0.104	951620	keystroke	e	n/a
476.6495	0.075	953299	keystroke	m	n/a
476.7545	0.09	953509	keystroke	e	n/a
476.9045	0.105	953809	keystroke	n	n/a
477.0695	0.075	954139	keystroke	t	n/a
477.2045	0.09	954409	keystroke	Key.enter	n/a
477.301	8.17	954602	prompt	n/a	agencies worse disaster tumor\n
477.8495	0.09	955699	keystroke	a	n/a
478.1045	0.0905	956209	keystroke	g	n/a
478.21	0.1045	956420	keystroke	e	n/a
478.3445	0.12	956689	keystroke	n	n/a
478.4795	0.075	956959	keystroke	e	n/a
480.16	0.0895	960320	keystroke	Key.backspace	n/a
480.7895	0.105	961579	keystroke	c	n/a
481.0145	0.105	962029	keystroke	i	n/a
481.1795	0.12	962359	keystroke	e	n/a
481.3145	0.12	962629	keystroke	s	n/a
481.4945	0.09	962989	keystroke	Key.space	n/a
481.6595	0.105	963319	keystroke	w	n/a
481.8095	0.105	963619	keystroke	o	n/a
481.9595	0.09	963919	keystroke	r	n/a
482.1695	0.12	964339	keystroke	s	n/a
482.3195	0.09	964639	keystroke	e	n/a
482.4395	0.105	964879	keystroke	Key.space	n/a
482.6795	0.09	965359	keystroke	d	n/a
482.7845	0.09	965569	keystroke	i	n/a
482.9045	0.105	965809	keystroke	s	n/a
483.0995	0.12	966199	keystroke	a	n/a
483.2645	0.1645	966529	keystroke	s	n/a
483.5495	0.12	967099	keystroke	t	n/a
483.8945	0.1055	967789	keystroke	e	n/a
483.985	0.0745	967970	keystroke	r	n/a
484.0895	0.105	968179	keystroke	Key.space	n/a
484.2995	0.091	968599	keystroke	t	n/a
484.5095	0.105	969019	keystroke	u	n/a
484.7495	0.09	969499	keystroke	m	n/a
484.9595	0.06	969919	keystroke	o	n/a
485.1245	0.075	970249	keystroke	r	n/a
485.3795	0.09	970759	keystroke	Key.enter	n/a
485.474	6.3725	970948	prompt	n/a	testing evolution float chicks\n
486.2045	0.105	972409	keystroke	t	n/a
486.3545	0.105	972709	keystroke	e	n/a
486.6395	0.075	973279	keystroke	s	n/a
486.7745	0.09	973549	keystroke	t	n/a
486.9245	0.1505	973849	keystroke	i	n/a
487.0445	0.1055	974089	keystroke	n	n/a
487.135	0.06	974270	keystroke	g	n/a
487.269	0.091	974538	keystroke	Key.space	n/a
487.375	0.075	974750	keystroke	e	n/a
487.585	0.09	975170	keystroke	v	n/a
487.765	0.105	975530	keystroke	o	n/a
487.96	0.075	975920	keystroke	l	n/a
488.2595	0.045	976519	keystroke	u	n/a
488.5595	0.075	977119	keystroke	t	n/a
488.7245	0.15	977449	keystroke	i	n/a
488.8895	0.045	977779	keystroke	o	n/a
489.0995	0.105	978199	keystroke	n	n/a
489.2945	0.09	978589	keystroke	Key.space	n/a
489.4595	0.09	978919	keystroke	f	n/a
489.6095	0.06	979219	keystroke	l	n/a
489.7745	0.06	979549	keystroke	o	n/a
489.9245	0.105	979849	keystroke	a	n/a
490.1045	0.09	980209	keystroke	t	n/a
490.2095	0.09	980419	keystroke	Key.space	n/a
490.3445	0.09	980689	keystroke	s	n/a
490.7645	0.045	981529	keystroke	Key.backspace	n/a
490.9145	0.075	981829	keystroke	c	n/a
491.0345	0.0905	982069	keystroke	h	n/a
491.155	0.105	982310	keystroke	i	n/a
491.29	0.09	982580	keystroke	c	n/a
491.47	0.09	982940	keystroke	k	n/a
491.605	0.09	983210	keystroke	s	n/a
491.74	0.105	983480	keystroke	Key.enter	n/a
491.849	10.6175	983698	prompt	n/a	consumption portuguese collectible vinyl\n
492.535	0.09	985070	keystroke	c	n/a
492.64	0.075	985280	keystroke	o	n/a
492.805	0.09	985610	keystroke	n	n/a
492.955	0.0745	985910	keystroke	s	n/a
493.1195	0.09	986239	keystroke	u	n/a
493.5095	0.075	987019	keystroke	m	n/a
493.7645	0.105	987529	keystroke	p	n/a
494.3195	0.09	988639	keystroke	t	n/a
494.7095	0.075	989419	keystroke	i	n/a
494.7695	0.06	989539	keystroke	o	n/a
494.9795	0.075	989959	keystroke	n	n/a
495.1445	0.075	990289	keystroke	Key.space	n/a
495.4895	0.045	990979	keystroke	p	n/a
495.6695	0.06	991339	keystroke	o	n/a
495.7895	0.06	991579	keystroke	r	n/a
495.9245	0.075	991849	keystroke	t	n/a
496.0895	0.09	992179	keystroke	u	n/a
496.5245	0.09	993049	keystroke	g	n/a
496.6745	0.12	993349	keystroke	u	n/a
497.3945	0.03	994789	keystroke	e	n/a
497.5295	0.15	995059	keystroke	s	n/a
497.6945	0.075	995389	keystroke	e	n/a
497.8595	0.09	995719	keystroke	Key.space	n/a
498.1295	0.0755	996259	keystroke	c	n/a
498.1895	0.06	996379	keystroke	o	n/a
498.3845	0.06	996769	keystroke	l	n/a
498.5045	0.09	997009	keystroke	l	n/a
498.6095	0.075	997219	keystroke	e	n/a
498.8045	0.06	997609	keystroke	c	n/a
498.9845	0.075	997969	keystroke	t	n/a
499.0895	0.09	998179	keystroke	i	n/a
499.3145	0.06	998629	keystroke	b	n/a
499.4945	0.06	998989	keystroke	l	n/a
499.6145	0.075	999229	keystroke	e	n/a
499.7045	0.09	999409	keystroke	Key.space	n/a
499.8845	0.075	999769	keystroke	n	n/a
500.4095	0.06	1000819	keystroke	Key.backspace	n/a
500.7395	0.09	1001479	keystroke	v	n/a
501.3245	0.135	1002649	keystroke	i	n/a
501.4745	0.105	1002949	keystroke	n	n/a
501.9245	0.075	1003849	keystroke	y	n/a
502.1495	0.075	1004299	keystroke	l	n/a
502.42	0.045	1004840	keystroke	Key.enter	n/a
502.471	13.3155	1004942	prompt	n/a	refurbished shine enhancements transcript\n
503.125	0.135	1006250	keystroke	r	n/a
503.275	0.12	1006550	keystroke	e	n/a
503.44	0.105	1006880	keystroke	g	n/a
503.59	0.105	1007180	keystroke	u	n/a
503.71	0.105	1007420	keystroke	r	n/a
503.845	0.045	1007690	keystroke	s	n/a
504.175	0.045	1008350	keystroke	Key.backspace	n/a
504.34	0.06	1008680	keystroke	Key.backspace	n/a
504.52	0.045	1009040	keystroke	Key.backspace	n/a
504.685	0.045	1009370	keystroke	Key.backspace	n/a
505.615	0.075	1011230	keystroke	f	n/a
505.735	0.075	1011470	keystroke	u	n/a
505.81	0.06	1011620	keystroke	r	n/a
505.945	0.09	1011890	keystroke	b	n/a
506.125	0.075	1012250	keystroke	i	n/a
506.2605	0.075	1012521	keystroke	s	n/a
506.3645	0.0905	1012729	keystroke	h	n/a
506.485	0.06	1012970	keystroke	e	n/a
506.65	0.075	1013300	keystroke	d	n/a
506.755	0.075	1013510	keystroke	Key.space	n/a
507.025	0.045	1014050	keystroke	s	n/a
507.085	0.12	1014170	keystroke	h	n/a
507.19	0.075	1014380	keystroke	i	n/a
507.325	0.09	1014650	keystroke	n	n/a
507.445	0.075	1014890	keystroke	e	n/a
507.55	0.075	1015100	keystroke	Key.space	n/a
507.67	0.075	1015340	keystroke	e	n/a
507.985	0.1055	1015970	keystroke	n	n/a
508.1795	0.075	1016359	keystroke	c	n/a
508.3145	0.09	1016629	keystroke	h	n/a
509.1545	0.06	1018309	keystroke	Key.backspace	n/a
509.3045	0.075	1018609	keystroke	Key.backspace	n/a
509.5755	0.074	1019151	keystroke	h	n/a
509.6945	0.09	1019389	keystroke	a	n/a
510.0095	0.09	1020019	keystroke	n	n/a
510.1595	0.09	1020319	keystroke	c	n/a
510.2945	0.105	1020589	keystroke	e	n/a
510.6545	0.075	1021309	keystroke	m	n/a
510.7905	0.074	1021581	keystroke	e	n/a
510.9395	0.075	1021879	keystroke	n	n/a
511.1195	0.12	1022239	keystroke	t	n/a
511.5395	0.091	1023079	keystroke	s	n/a
511.8695	0.09	1023739	keystroke	Key.space	n/a
512.7845	0.105	1025569	keystroke	t	n/a
512.9645	0.12	1025929	keystroke	r	n/a
513.1145	0.1355	1026229	keystroke	a	n/a
513.34	0.075	1026680	keystroke	n	n/a
513.43	0.075	1026860	keystroke	s	n/a
513.685	0.06	1027370	keystroke	c	n/a
513.925	0.06	1027850	keystroke	r	n/a
514.15	0.09	1028300	keystroke	i	n/a
514.345	0.06	1028690	keystroke	p	n/a
515.38	0.105	1030760	keystroke	t	n/a
515.695	0.09	1031390	keystroke	Key.enter	n/a
515.789	10.1825	1031578	prompt	n/a	examines registry bhutan reflect\n
516.505	0.03	1033010	keystroke	s	n/a
516.82	0.06	1033640	keystroke	Key.backspace	n/a
516.865	0.105	1033730	keystroke	e	n/a
517.48	0.015	1034960	keystroke	x	n/a
517.66	0.09	1035320	keystroke	a	n/a
517.96	0.105	1035920	keystroke	m	n/a
518.125	0.15	1036250	keystroke	i	n/a
518.245	0.12	1036490	keystroke	n	n/a
518.35	0.135	1036700	keystroke	e	n/a
518.486	0.119	1036972	keystroke	s	n/a
518.65	0.075	1037300	keystroke	Key.space	n/a
518.935	0.105	1037870	keystroke	r	n/a
519.025	0.105	1038050	keystroke	e	n/a
519.205	0.09	1038410	keystroke	g	n/a
519.64	0.075	1039280	keystroke	i	n/a
519.835	0.105	1039670	keystroke	s	n/a
520.045	0.105	1040090	keystroke	t	n/a
520.21	0.075	1040420	keystroke	t	n/a
520.735	0.075	1041470	keystroke	Key.backspace	n/a
520.84	0.105	1041680	keystroke	r	n/a
521.035	0.09	1042070	keystroke	y	n/a
521.275	0.09	1042550	keystroke	Key.space	n/a
521.71	0.105	1043420	keystroke	b	n/a
521.92	0.09	1043840	keystroke	h	n/a
522.13	0.09	1044260	keystroke	u	n/a
522.325	0.105	1044650	keystroke	t	n/a
522.445	0.105	1044890	keystroke	a	n/a
522.625	0.09	1045250	keystroke	n	n/a
522.85	0.075	1045700	keystroke	Key.space	n/a
523.345	0.12	1046690	keystroke	r	n/a
523.435	0.12	1046870	keystroke	e	n/a
523.6	0.12	1047200	keystroke	f	n/a
523.735	0.09	1047470	keystroke	e	n/a
523.795	0.09	1047590	keystroke	l	n/a
524.635	0.09	1049270	keystroke	Key.backspace	n/a
524.83	0.075	1049660	keystroke	Key.backspace	n/a
525.16	0.09	1050320	keystroke	l	n/a
525.28	0.105	1050560	keystroke	e	n/a
525.49	0.12	1050980	keystroke	c	n/a
525.745	0.09	1051490	keystroke	t	n/a
525.895	0.075	1051790	keystroke	Key.enter	n/a
525.9745	6.3875	1051949	prompt	n/a	cage taxes creative output\n
527.125	0.09	1054250	keystroke	c	n/a
527.23	0.105	1054460	keystroke	a	n/a
527.395	0.09	1054790	keystroke	g	n/a
527.515	0.09	1055030	keystroke	e	n/a
527.635	0.09	1055270	keystroke	Key.space	n/a
527.785	0.105	1055570	keystroke	t	n/a
527.905	0.12	1055810	keystroke	a	n/a
528.145	0.12	1056290	keystroke	x	n/a
528.4	0.12	1056800	keystroke	e	n/a
528.64	0.09	1057280	keystroke	s	n/a
528.79	0.075	1057580	keystroke	Key.space	n/a
529.045	0.06	1058090	keystroke	c	n/a
529.255	0.0895	1058510	keystroke	r	n/a
529.4195	0.135	1058839	keystroke	e	n/a
529.5395	0.1205	1059079	keystroke	a	n/a
529.675	0.09	1059350	keystroke	t	n/a
529.825	0.06	1059650	keystroke	i	n/a
530.02	0.075	1060040	keystroke	v	n/a
530.11	0.105	1060220	keystroke	e	n/a
530.245	0.105	1060490	keystroke	Key.space	n/a
530.65	0.135	1061300	keystroke	o	n/a
531.205	0.075	1062410	keystroke	u	n/a
531.37	0.09	1062740	keystroke	t	n/a
531.76	0.09	1063520	keystroke	p	n/a
531.985	0.075	1063970	keystroke	u	n/a
532.12	0.075	1064240	keystroke	t	n/a
532.27	0.09	1064540	keystroke	Key.enter	n/a
532.365	7.7065	1064730	prompt	n/a	laden runs constant essentially\n
533.0345	0.075	1066069	keystroke	l	n/a
533.1245	0.075	1066249	keystroke	e	n/a
533.335	0.045	1066670	keystroke	d	n/a
533.47	0.06	1066940	keystroke	e	n/a
533.845	0.075	1067690	keystroke	Key.backspace	n/a
534.055	0.06	1068110	keystroke	Key.backspace	n/a
534.22	0.06	1068440	keystroke	Key.backspace	n/a
534.31	0.12	1068620	keystroke	a	n/a
534.505	0.135	1069010	keystroke	d	n/a
534.625	0.12	1069250	keystroke	e	n/a
534.73	0.09	1069460	keystroke	n	n/a
534.97	0.09	1069940	keystroke	Key.space	n/a
535.27	0.075	1070540	keystroke	r	n/a
535.42	0.075	1070840	keystroke	u	n/a
535.6155	0.105	1071231	keystroke	n	n/a
535.7055	0.105	1071411	keystroke	s	n/a
535.8255	0.0895	1071651	keystroke	Key.space	n/a
536.0805	0.075	1072161	keystroke	c	n/a
536.1705	0.09	1072341	keystroke	o	n/a
536.335	0.0895	1072670	keystroke	n	n/a
536.3955	0.089	1072791	keystroke	s	n/a
536.545	0.075	1073090	keystroke	t	n/a
536.635	0.105	1073270	keystroke	a	n/a
536.77	0.12	1073540	keystroke	n	n/a
536.905	0.105	1073810	keystroke	t	n/a
537.055	0.075	1074110	keystroke	Key.space	n/a
537.385	0.09	1074770	keystroke	r	n/a
537.49	0.135	1074980	keystroke	e	n/a
537.955	0.09	1075910	keystroke	Key.backspace	n/a
538.165	0.075	1076330	keystroke	Key.backspace	n/a
538.27	0.0895	1076540	keystroke	e	n/a
538.4945	0.075	1076989	keystroke	s	n/a
538.6595	0.09	1077319	keystroke	s	n/a
538.8405	0.089	1077681	keystroke	e	n/a
538.9445	0.105	1077889	keystroke	n	n/a
539.0795	0.09	1078159	keystroke	t	n/a
539.2295	0.105	1078459	keystroke	i	n/a
539.3355	0.104	1078671	keystroke	a	n/a
539.4845	0.06	1078969	keystroke	l	n/a
539.6345	0.046	1079269	keystroke	l	n/a
539.7845	0.09	1079569	keystroke	y	n/a
539.9945	0.075	1079989	keystroke	Key.enter	n/a
540.0745	6.072	1080149	prompt	n/a	pick attack seven jelsoft\n
540.61	0.06	1081220	keystroke	p	n/a
540.895	0.075	1081790	keystroke	i	n/a
541.27	0.105	1082540	keystroke	c	n/a
541.4355	0.0745	1082871	keystroke	k	n/a
541.585	0.09	1083170	keystroke	Key.space	n/a
541.75	0.09	1083500	keystroke	a	n/a
541.93	0.075	1083860	keystroke	t	n/a
542.065	0.09	1084130	keystroke	t	n/a
542.185	0.1345	1084370	keystroke	a	n/a
542.4245	0.075	1084849	keystroke	c	n/a
542.5745	0.09	1085149	keystroke	k	n/a
542.8145	0.075	1085629	keystroke	Key.space	n/a
543.1	0.06	1086200	keystroke	s	n/a
543.235	0.075	1086470	keystroke	e	n/a
543.4605	0.0595	1086921	keystroke	v	n/a
543.55	0.105	1087100	keystroke	e	n/a
543.805	0.105	1087610	keystroke	n	n/a
544.06	0.12	1088120	keystroke	Key.space	n/a
544.66	0.09	1089320	keystroke	j	n/a
544.885	0.06	1089770	keystroke	e	n/a
545.065	0.06	1090130	keystroke	l	n/a
545.365	0.105	1090730	keystroke	s	n/a
545.545	0.06	1091090	keystroke	o	n/a
545.665	0.12	1091330	keystroke	f	n/a
545.9355	0.075	1091871	keystroke	t	n/a
546.0405	0.105	1092081	keystroke	Key.enter	n/a
546.1495	7.152	1092299	prompt	n/a	playstation voters oriented instances\n
546.685	0.09	1093370	keystroke	p	n/a
546.91	0.06	1093820	keystroke	l	n/a
547.285	0.1045	1094570	keystroke	a	n/a
547.4495	0.075	1094899	keystroke	y	n/a
547.7345	0.1205	1095469	keystroke	s	n/a
547.9295	0.0755	1095859	keystroke	t	n/a
548.0195	0.135	1096039	keystroke	a	n/a
548.1695	0.075	1096339	keystroke	t	n/a
548.2295	0.1355	1096459	keystroke	i	n/a
548.32	0.075	1096640	keystroke	o	n/a
548.5	0.12	1097000	keystroke	n	n/a
548.635	0.105	1097270	keystroke	Key.space	n/a
549.415	0.075	1098830	keystroke	v	n/a
549.535	0.075	1099070	keystroke	o	n/a
549.67	0.105	1099340	keystroke	t	n/a
549.82	0.12	1099640	keystroke	e	n/a
549.941	0.0885	1099882	keystroke	r	n/a
550.1505	0.09	1100301	keystroke	s	n/a
550.3595	0.075	1100719	keystroke	Key.space	n/a
550.6455	0.074	1101291	keystroke	o	n/a
550.7495	0.075	1101499	keystroke	r	n/a
550.9155	0.09	1101831	keystroke	i	n/a
551.1105	0.089	1102221	keystroke	e	n/a
551.2305	0.105	1102461	keystroke	n	n/a
551.3655	0.0895	1102731	keystroke	t	n/a
551.515	0.105	1103030	keystroke	e	n/a
551.725	0.075	1103450	keystroke	d	n/a
551.83	0.12	1103660	keystroke	Key.space	n/a
552.01	0.135	1104020	keystroke	i	n/a
552.115	0.12	1104230	keystroke	n	n/a
552.22	0.075	1104440	keystroke	s	n/a
552.37	0.09	1104740	keystroke	t	n/a
552.46	0.135	1104920	keystroke	a	n/a
552.655	0.1055	1105310	keystroke	n	n/a
552.7905	0.075	1105581	keystroke	c	n/a
552.8505	0.0895	1105701	keystroke	e	n/a
553.075	0.075	1106150	keystroke	s	n/a
553.24	0.06	1106480	keystroke	Key.enter	n/a
553.3045	6.612	1106609	prompt	n/a	directions unlike pdas jumping\n
553.885	0.09	1107770	keystroke	d	n/a
554.005	0.09	1108010	keystroke	i	n/a
554.11	0.1055	1108220	keystroke	r	n/a
554.1995	0.0905	1108399	keystroke	e	n/a
554.3495	0.105	1108699	keystroke	c	n/a
554.5755	0.089	1109151	keystroke	t	n/a
554.7095	0.105	1109419	keystroke	i	n/a
554.7845	0.0755	1109569	keystroke	o	n/a
554.98	0.075	1109960	keystroke	n	n/a
555.1	0.075	1110200	keystroke	s	n/a
555.205	0.09	1110410	keystroke	Key.space	n/a
555.505	0.09	1111010	keystroke	u	n/a
555.7	0.105	1111400	keystroke	n	n/a
555.9395	0.06	1111879	keystroke	l	n/a
556.1045	0.06	1112209	keystroke	i	n/a
556.27	0.075	1112540	keystroke	k	n/a
556.405	0.075	1112810	keystroke	e	n/a
556.495	0.105	1112990	keystroke	Key.space	n/a
556.75	0.06	1113500	keystroke	p	n/a
556.885	0.12	1113770	keystroke	d	n/a
556.99	0.105	1113980	keystroke	a	n/a
557.185	0.105	1114370	keystroke	s	n/a
557.38	0.09	1114760	keystroke	Key.space	n/a
557.725	0.03	1115450	keystroke	k	n/a
557.89	0.075	1115780	keystroke	u	n/a
558.295	0.06	1116590	keystroke	Key.backspace	n/a
558.475	0.03	1116950	keystroke	Key.backspace	n/a
558.685	0.09	1117370	keystroke	j	n/a
558.88	0.075	1117760	keystroke	u	n/a
559.09	0.075	1118180	keystroke	m	n/a
559.27	0.06	1118540	keystroke	p	n/a
559.495	0.15	1118990	keystroke	i	n/a
559.585	0.09	1119170	keystroke	n	n/a
559.69	0.06	1119380	keystroke	g	n/a
559.855	0.06	1119710	keystroke	Key.enter	n/a
559.9215	7.255	1119843	prompt	n/a	killed riding conscious bios\n
560.515	0.06	1121030	keystroke	k	n/a
560.68	0.075	1121360	keystroke	i	n/a
560.875	0.045	1121750	keystroke	l	n/a
560.995	0.075	1121990	keystroke	l	n/a
561.13	0.075	1122260	keystroke	e	n/a
561.28	0.09	1122560	keystroke	d	n/a
561.385	0.075	1122770	keystroke	Key.space	n/a
561.835	0.09	1123670	keystroke	r	n/a
561.94	0.105	1123880	keystroke	i	n/a
562.06	0.09	1124120	keystroke	d	n/a
562.195	0.1345	1124390	keystroke	i	n/a
562.3155	0.09	1124631	keystroke	n	n/a
562.4195	0.091	1124839	keystroke	g	n/a
562.5395	0.105	1125079	keystroke	Key.space	n/a
562.78	0.09	1125560	keystroke	c	n/a
562.855	0.075	1125710	keystroke	o	n/a
563.02	0.075	1126040	keystroke	n	n/a
563.125	0.06	1126250	keystroke	s	n/a
563.3655	0.105	1126731	keystroke	i	n/a
564.16	0.075	1128320	keystroke	Key.backspace	n/a
564.415	0.015	1128830	keystroke	c	n/a
565.2105	0.104	1130421	keystroke	i	n/a
565.5395	0.15	1131079	keystroke	o	n/a
565.6445	0.105	1131289	keystroke	u	n/a
565.7795	0.105	1131559	keystroke	s	n/a
566.0195	0.105	1132039	keystroke	Key.space	n/a
566.3945	0.09	1132789	keystroke	b	n/a
566.6495	0.136	1133299	keystroke	i	n/a
566.7545	0.09	1133509	keystroke	o	n/a
566.9345	0.0755	1133869	keystroke	s	n/a
567.085	0.09	1134170	keystroke	Key.enter	n/a
567.1795	10.857	1134359	prompt	n/a	encourages uganda thongs messages\n
567.73	0.0745	1135460	keystroke	e	n/a
567.895	0.1045	1135790	keystroke	n	n/a
568.66	0.075	1137320	keystroke	c	n/a
569.275	0.15	1138550	keystroke	o	n/a
569.395	0.105	1138790	keystroke	u	n/a
569.47	0.12	1138940	keystroke	r	n/a
569.83	0.12	1139660	keystroke	a	n/a
570.1	0.045	1140200	keystroke	g	n/a
570.19	0.105	1140380	keystroke	e	n/a
570.445	0.045	1140890	keystroke	s	n/a
570.64	0.075	1141280	keystroke	Key.space	n/a
571.0905	0.09	1142181	keystroke	u	n/a
571.3595	0.09	1142719	keystroke	g	n/a
571.5095	0.12	1143019	keystroke	a	n/a
571.6755	0.104	1143351	keystroke	n	n/a
572.23	0.105	1144460	keystroke	d	n/a
572.32	0.135	1144640	keystroke	a	n/a
572.905	0.075	1145810	keystroke	Key.space	n/a
573.2945	0.091	1146589	keystroke	t	n/a
573.4155	0.105	1146831	keystroke	h	n/a
573.7295	0.091	1147459	keystroke	o	n/a
573.9405	0.104	1147881	keystroke	n	n/a
574.0605	0.134	1148121	keystroke	g	n/a
574.2105	0.134	1148421	keystroke	s	n/a
574.6005	0.075	1149201	keystroke	Key.space	n/a
575.0805	0.09	1150161	keystroke	m	n/a
575.1855	0.09	1150371	keystroke	e	n/a
575.4105	0.075	1150821	keystroke	s	n/a
575.5605	0.09	1151121	keystroke	s	n/a
575.7405	0.105	1151481	keystroke	a	n/a
576.085	0.15	1152170	keystroke	e	n/a
576.4295	0.0905	1152859	keystroke	s	n/a
576.9255	0.06	1153851	keystroke	Key.backspace	n/a
577.0905	0.06	1154181	keystroke	Key.backspace	n/a
577.2555	0.12	1154511	keystroke	g	n/a
577.3445	0.136	1154689	keystroke	e	n/a
577.6305	0.09	1155261	keystroke	s	n/a
577.9455	0.09	1155891	keystroke	Key.enter	n/a
578.0395	10.8725	1156079	prompt	n/a	warner schedules nonprofit why're\n
578.77	0.15	1157540	keystroke	w	n/a
579.1	0.12	1158200	keystroke	a	n/a
579.265	0.105	1158530	keystroke	r	n/a
579.415	0.105	1158830	keystroke	n	n/a
579.535	0.1055	1159070	keystroke	e	n/a
579.7005	0.09	1159401	keystroke	r	n/a
579.8205	0.075	1159641	keystroke	Key.space	n/a
579.9255	0.105	1159851	keystroke	s	n/a
580.1355	0.09	1160271	keystroke	c	n/a
580.2855	0.12	1160571	keystroke	h	n/a
580.5705	0.075	1161141	keystroke	e	n/a
580.7655	0.105	1161531	keystroke	d	n/a
580.8855	0.09	1161771	keystroke	u	n/a
581.0805	0.075	1162161	keystroke	l	n/a
581.1855	0.075	1162371	keystroke	e	n/a
581.47	0.06	1162940	keystroke	s	n/a
581.62	0.09	1163240	keystroke	Key.space	n/a
581.875	0.075	1163750	keystroke	n	n/a
582.04	0.06	1164080	keystroke	o	n/a
582.22	0.06	1164440	keystroke	n	n/a
582.3855	0.075	1164771	keystroke	p	n/a
582.4905	0.09	1164981	keystroke	r	n/a
582.6405	0.015	1165281	keystroke	i	n/a
582.7755	0.105	1165551	keystroke	f	n/a
583.1955	0.06	1166391	keystroke	Key.backspace	n/a
583.4205	0.06	1166841	keystroke	=	n/a
583.8855	0.06	1167771	keystroke	Key.backspace	n/a
584.1555	0.045	1168311	keystroke	Key.backspace	n/a
584.41	0.075	1168820	keystroke	p	n/a
584.56	0.09	1169120	keystroke	f	n/a
585.025	0.06	1170050	keystroke	Key.backspace	n/a
585.175	0.075	1170350	keystroke	Key.backspace	n/a
585.445	0.03	1170890	keystroke	o	n/a
585.595	0.075	1171190	keystroke	f	n/a
586.5705	0.09	1173141	keystroke	i	n/a
586.6755	0.06	1173351	keystroke	t	n/a
586.7805	0.09	1173561	keystroke	Key.space	n/a
587.6955	0.075	1175391	keystroke	w	n/a
587.7855	0.09	1175571	keystroke	h	n/a
588.0405	0.075	1176081	keystroke	y	n/a
588.2655	0.075	1176531	keystroke	'	n/a
588.475	0.105	1176950	keystroke	r	n/a
588.55	0.12	1177100	keystroke	e	n/a
588.82	0.09	1177640	keystroke	Key.enter	n/a
588.917	6.7295	1177834	prompt	n/a	split mediterranean julia counted\n
589.675	0.105	1179350	keystroke	s	n/a
589.781	0.059	1179562	keystroke	p	n/a
589.975	0.075	1179950	keystroke	l	n/a
590.14	0.075	1180280	keystroke	i	n/a
590.275	0.0895	1180550	keystroke	t	n/a
590.3795	0.105	1180759	keystroke	Key.space	n/a
590.6045	0.105	1181209	keystroke	m	n/a
590.7555	0.06	1181511	keystroke	e	n/a
590.92	0.075	1181840	keystroke	d	n/a
591.01	0.09	1182020	keystroke	i	n/a
591.22	0.09	1182440	keystroke	t	n/a
591.535	0.105	1183070	keystroke	e	n/a
591.73	0.09	1183460	keystroke	r	n/a
591.865	0.105	1183730	keystroke	r	n/a
592.03	0.105	1184060	keystroke	a	n/a
592.255	0.075	1184510	keystroke	n	n/a
592.48	0.09	1184960	keystroke	e	n/a
592.75	0.12	1185500	keystroke	a	n/a
592.945	0.09	1185890	keystroke	n	n/a
593.095	0.0895	1186190	keystroke	Key.space	n/a
593.32	0.075	1186640	keystroke	j	n/a
593.5005	0.075	1187001	keystroke	u	n/a
593.7255	0.075	1187451	keystroke	l	n/a
593.9355	0.06	1187871	keystroke	i	n/a
594.0555	0.075	1188111	keystroke	a	n/a
594.1455	0.105	1188291	keystroke	Key.space	n/a
594.4455	0.075	1188891	keystroke	c	n/a
594.5055	0.15	1189011	keystroke	o	n/a
594.6255	0.075	1189251	keystroke	u	n/a
594.8055	0.105	1189611	keystroke	n	n/a
594.9255	0.105	1189851	keystroke	t	n/a
595.0455	0.12	1190091	keystroke	e	n/a
595.3455	0.075	1190691	keystroke	d	n/a
595.5705	0.075	1191141	keystroke	Key.enter	n/a
595.6495	7.1075	1191299	prompt	n/a	ward gotta summary implies\n
596.5005	0.1345	1193001	keystroke	w	n/a
596.605	0.1355	1193210	keystroke	a	n/a
596.8305	0.105	1193661	keystroke	r	n/a
596.8905	0.1045	1193781	keystroke	e	n/a
597.505	0.12	1195010	keystroke	Key.backspace	n/a
597.925	0.075	1195850	keystroke	d	n/a
598.285	0.0905	1196570	keystroke	Key.space	n/a
598.765	0.105	1197530	keystroke	g	n/a
598.885	0.09	1197770	keystroke	o	n/a
599.02	0.075	1198040	keystroke	t	n/a
599.155	0.09	1198310	keystroke	t	n/a
599.305	0.12	1198610	keystroke	a	n/a
599.5	0.075	1199000	keystroke	Key.space	n/a
599.83	0.075	1199660	keystroke	s	n/a
599.965	0.075	1199930	keystroke	u	n/a
600.19	0.0905	1200380	keystroke	m	n/a
600.3555	0.075	1200711	keystroke	m	n/a
600.4755	0.15	1200951	keystroke	a	n/a
600.6555	0.105	1201311	keystroke	r	n/a
600.7755	0.104	1201551	keystroke	y	n/a
600.925	0.12	1201850	keystroke	Key.space	n/a
601.15	0.105	1202300	keystroke	i	n/a
601.36	0.09	1202720	keystroke	m	n/a
601.87	0.06	1203740	keystroke	p	n/a
602.051	0.0595	1204102	keystroke	l	n/a
602.2755	0.09	1204551	keystroke	i	n/a
602.3955	0.09	1204791	keystroke	e	n/a
602.5005	0.105	1205001	keystroke	s	n/a
602.6655	0.09	1205331	keystroke	Key.enter	n/a
602.7605	7.841	1205521	prompt	n/a	tune variation cycle neighbors\n
603.3705	0.0895	1206741	keystroke	t	n/a
603.85	0.165	1207700	keystroke	u	n/a
603.985	0.135	1207970	keystroke	n	n/a
604.15	0.105	1208300	keystroke	e	n/a
604.3	0.09	1208600	keystroke	Key.space	n/a
604.6155	0.075	1209231	keystroke	v	n/a
604.7655	0.12	1209531	keystroke	a	n/a
605.0055	0.09	1210011	keystroke	i	n/a
605.6355	0.075	1211271	keystroke	r	n/a
605.92	0.06	1211840	keystroke	Key.backspace	n/a
606.07	0.075	1212140	keystroke	Key.backspace	n/a
606.22	0.1055	1212440	keystroke	r	n/a
606.3405	0.105	1212681	keystroke	i	n/a
606.5655	0.135	1213131	keystroke	a	n/a
606.7905	0.12	1213581	keystroke	t	n/a
607.0455	0.12	1214091	keystroke	i	n/a
607.1355	0.075	1214271	keystroke	o	n/a
607.3155	0.105	1214631	keystroke	n	n/a
607.4355	0.105	1214871	keystroke	Key.space	n/a
607.6155	0.09	1215231	keystroke	c	n/a
607.7355	0.09	1215471	keystroke	y	n/a
607.8705	0.075	1215741	keystroke	c	n/a
608.0055	0.09	1216011	keystroke	l	n/a
608.1405	0.075	1216281	keystroke	e	n/a
608.2305	0.1045	1216461	keystroke	Key.space	n/a
608.395	0.105	1216790	keystroke	n	n/a
608.605	0.135	1217210	keystroke	e	n/a
608.905	0.12	1217810	keystroke	i	n/a
609.04	0.105	1218080	keystroke	g	n/a
609.205	0.105	1218410	keystroke	h	n/a
609.46	0.075	1218920	keystroke	b	n/a
609.655	0.075	1219310	keystroke	o	n/a
609.79	0.105	1219580	keystroke	r	n/a
609.94	0.105	1219880	keystroke	s	n/a
610.54	0.06	1221080	keystroke	Key.enter	n/a
610.6045	4.842	1221209	prompt	n/a	dont interior china cards\n
611.305	0.075	1222610	keystroke	d	n/a
611.35	0.075	1222700	keystroke	o	n/a
611.545	0.09	1223090	keystroke	n	n/a
611.695	0.09	1223390	keystroke	t	n/a
611.815	0.06	1223630	keystroke	Key.space	n/a
612.04	0.135	1224080	keystroke	i	n/a
612.115	0.105	1224230	keystroke	n	n/a
612.235	0.0755	1224470	keystroke	t	n/a
612.4155	0.135	1224831	keystroke	e	n/a
612.5205	0.09	1225041	keystroke	r	n/a
612.7155	0.09	1225431	keystroke	i	n/a
613.0605	0.09	1226121	keystroke	o	n/a
613.2405	0.09	1226481	keystroke	r	n/a
