onset	duration	sample	value	key	prompt_text
19.682	15.536	39364	prompt	n/a	the quick brown fox jumps over a lazy dog\n
25.6025	0.012	51205	keystroke	t	n/a
25.6595	0.075	51319	keystroke	h	n/a
25.7495	0.075	51499	keystroke	e	n/a
25.8385	0.12	51677	keystroke	Key.space	n/a
26.0495	0.12	52099	keystroke	q	n/a
26.1545	0.045	52309	keystroke	u	n/a
26.3195	0.06	52639	keystroke	i	n/a
26.5895	0.06	53179	keystroke	c	n/a
26.6795	0.075	53359	keystroke	k	n/a
26.8745	0.104	53749	keystroke	Key.space	n/a
27.1595	0.075	54319	keystroke	b	n/a
27.3995	0.104	54799	keystroke	r	n/a
27.4745	0.12	54949	keystroke	o	n/a
27.6395	0.135	55279	keystroke	w	n/a
27.7445	0.06	55489	keystroke	n	n/a
29.1545	0.105	58309	keystroke	Key.space	n/a
29.3945	0.09	58789	keystroke	f	n/a
29.4695	0.09	58939	keystroke	o	n/a
29.6495	0.075	59299	keystroke	x	n/a
29.7695	0.134	59539	keystroke	Key.space	n/a
29.9945	0.075	59989	keystroke	j	n/a
30.1445	0.06	60289	keystroke	u	n/a
30.4895	0.105	60979	keystroke	p	n/a
30.8645	0.06	61729	keystroke	Key.backspace	n/a
31.1195	0.075	62239	keystroke	m	n/a
31.2695	0.135	62539	keystroke	p	n/a
31.3885	0.121	62777	keystroke	s	n/a
31.5535	0.151	63107	keystroke	Key.space	n/a
31.9145	0.075	63829	keystroke	o	n/a
32.0495	0.09	64099	keystroke	v	n/a
32.1545	0.165	64309	keystroke	e	n/a
32.2445	0.15	64489	keystroke	r	n/a
32.4085	0.166	64817	keystroke	Key.space	n/a
32.6495	0.135	65299	keystroke	a	n/a
32.7695	0.135	65539	keystroke	Key.space	n/a
32.9195	0.12	65839	keystroke	l	n/a
33.0245	0.09	66049	keystroke	a	n/a
33.2645	0.075	66529	keystroke	z	n/a
33.3095	0.06	66619	keystroke	y	n/a
33.5645	0.135	67129	keystroke	Key.space	n/a
33.8795	0.075	67759	keystroke	d	n/a
33.9395	0.09	67879	keystroke	o	n/a
34.1195	0.105	68239	keystroke	g	n/a
35.1545	0.06	70309	keystroke	Key.enter	n/a
35.225	9.7715	70450	prompt	n/a	tasks recover priest strategy\n
36.4295	0.105	72859	keystroke	t	n/a
36.5495	0.135	73099	keystroke	a	n/a
37.7045	0.12	75409	keystroke	s	n/a
37.7945	0.06	75589	keystroke	k	n/a
38.1095	0.12	76219	keystroke	s	n/a
38.2295	0.15	76459	keystroke	Key.space	n/a
38.6645	0.15	77329	keystroke	r	n/a
38.7545	0.09	77509	keystroke	e	n/a
38.9645	0.105	77929	keystroke	v	n/a
39.0845	0.12	78169	keystroke	o	n/a
39.6695	0.03	79339	keystroke	Key.backspace	n/a
39.8195	0.045	79639	keystroke	Key.backspace	n/a
40.0745	0.09	80149	keystroke	c	n/a
40.1345	0.09	80269	keystroke	o	n/a
40.4795	0.09	80959	keystroke	v	n/a
40.6295	0.15	81259	keystroke	e	n/a
40.7195	0.12	81439	keystroke	r	n/a
41.2445	0.15	82489	keystroke	Key.space	n/a
41.5445	0.12	83089	keystroke	p	n/a
41.8895	0.12	83779	keystroke	r	n/a
41.9945	0.06	83989	keystroke	i	n/a
42.0995	0.09	84199	keystroke	e	n/a
42.3245	0.12	84649	keystroke	s	n/a
42.4745	0.09	84949	keystroke	t	n/a
42.5795	0.105	85159	keystroke	Key.space	n/a
42.8345	0.12	85669	keystroke	s	n/a
42.9845	0.105	85969	keystroke	t	n/a
43.2995	0.045	86599	keystroke	r	n/a
43.3295	0.165	86659	keystroke	a	n/a
43.5105	0.104	87021	keystroke	g	n/a
43.5995	0.12	87199	keystroke	e	n/a
44.1245	0.105	88249	keystroke	g	n/a
44.2145	0.06	88429	keystroke	y	n/a
44.8595	0.135	89719	keystroke	Key.enter	n/a
45.003	8.8435	90006	prompt	n/a	payday tobago report estates\n
47.3225	0.042	94645	keystroke	p	n/a
47.3495	0.15	94699	keystroke	a	n/a
47.9345	0.09	95869	keystroke	y	n/a
48.2945	0.105	96589	keystroke	d	n/a
48.3845	0.165	96769	keystroke	a	n/a
48.4295	0.075	96859	keystroke	y	n/a
48.6095	0.15	97219	keystroke	Key.space	n/a
48.9095	0.09	97819	keystroke	t	n/a
49.0145	0.105	98029	keystroke	o	n/a
49.2995	0.09	98599	keystroke	b	n/a
49.3595	0.165	98719	keystroke	a	n/a
49.7795	0.105	99559	keystroke	g	n/a
49.8695	0.12	99739	keystroke	o	n/a
49.9745	0.15	99949	keystroke	Key.space	n/a
50.1995	0.135	100399	keystroke	r	n/a
50.2745	0.12	100549	keystroke	e	n/a
51.8045	0.105	103609	keystroke	p	n/a
51.9695	0.135	103939	keystroke	o	n/a
52.0895	0.075	104179	keystroke	r	n/a
52.2545	0.075	104509	keystroke	t	n/a
52.3595	0.12	104719	keystroke	Key.space	n/a
52.5845	0.075	105169	keystroke	e	n/a
52.8545	0.12	105709	keystroke	s	n/a
53.0195	0.09	106039	keystroke	t	n/a
53.0945	0.15	106189	keystroke	a	n/a
53.3045	0.105	106609	keystroke	t	n/a
53.3795	0.12	106759	keystroke	e	n/a
53.6045	0.12	107209	keystroke	s	n/a
53.7545	0.09	107509	keystroke	Key.enter	n/a
53.851	8.0655	107702	prompt	n/a	nature reductions threaded significance\n
55.0145	0.105	110029	keystroke	n	n/a
55.0895	0.15	110179	keystroke	a	n/a
55.2095	0.105	110419	keystroke	t	n/a
55.2995	0.075	110599	keystroke	u	n/a
55.3895	0.105	110779	keystroke	r	n/a
55.4195	0.12	110839	keystroke	e	n/a
55.5545	0.135	111109	keystroke	Key.space	n/a
55.8395	0.12	111679	keystroke	r	n/a
55.8845	0.09	111769	keystroke	e	n/a
56.1245	0.105	112249	keystroke	d	n/a
56.2145	0.045	112429	keystroke	u	n/a
56.3645	0.105	112729	keystroke	c	n/a
56.4995	0.12	112999	keystroke	t	n/a
56.5745	0.12	113149	keystroke	i	n/a
56.6495	0.15	113299	keystroke	o	n/a
56.7395	0.09	113479	keystroke	n	n/a
56.7995	0.12	113599	keystroke	s	n/a
56.8895	0.105	113779	keystroke	Key.space	n/a
57.0995	0.12	114199	keystroke	t	n/a
57.2045	0.06	114409	keystroke	h	n/a
57.8045	0.18	115609	keystroke	r	n/a
57.9095	0.105	115819	keystroke	e	n/a
58.2845	0.15	116569	keystroke	a	n/a
58.5695	0.105	117139	keystroke	d	n/a
58.9145	0.045	117829	keystroke	e	n/a
59.0945	0.06	118189	keystroke	d	n/a
59.1845	0.105	118369	keystroke	Key.space	n/a
59.4545	0.12	118909	keystroke	s	n/a
59.5595	0.075	119119	keystroke	i	n/a
60.0545	0.09	120109	keystroke	g	n/a
60.1595	0.075	120319	keystroke	n	n/a
60.2795	0.12	120559	keystroke	i	n/a
60.5045	0.105	121009	keystroke	f	n/a
60.6105	0.089	121221	keystroke	i	n/a
61.0295	0.09	122059	keystroke	c	n/a
61.1045	0.12	122209	keystroke	a	n/a
61.1495	0.105	122299	keystroke	n	n/a
61.314	0.075	122628	keystroke	c	n/a
61.509	0.12	123018	keystroke	e	n/a
61.839	0.075	123678	keystroke	Key.enter	n/a
61.9215	7.721	123843	prompt	n/a	bones invited speakers arkansas\n
62.574	0.06	125148	keystroke	b	n/a
62.754	0.12	125508	keystroke	o	n/a
62.889	0.105	125778	keystroke	n	n/a
63.009	0.06	126018	keystroke	d	n/a
63.159	0.03	126318	keystroke	e	n/a
63.714	0.075	127428	keystroke	Key.backspace	n/a
63.879	0.06	127758	keystroke	Key.backspace	n/a
64.014	0.06	128028	keystroke	e	n/a
64.164	0.105	128328	keystroke	s	n/a
64.284	0.105	128568	keystroke	Key.space	n/a
64.869	0.06	129738	keystroke	i	n/a
64.959	0.075	129918	keystroke	n	n/a
65.064	0.105	130128	keystroke	v	n/a
65.184	0.105	130368	keystroke	i	n/a
65.304	0.12	130608	keystroke	t	n/a
65.394	0.105	130788	keystroke	e	n/a
65.604	0.075	131208	keystroke	d	n/a
65.694	0.075	131388	keystroke	Key.space	n/a
65.949	0.105	131898	keystroke	s	n/a
66.069	0.135	132138	keystroke	p	n/a
66.159	0.105	132318	keystroke	e	n/a
66.279	0.135	132558	keystroke	a	n/a
66.459	0.09	132918	keystroke	k	n/a
66.504	0.09	133008	keystroke	e	n/a
66.564	0.075	133128	keystroke	r	n/a
66.714	0.105	133428	keystroke	s	n/a
67.314	0.135	134628	keystroke	Key.space	n/a
67.629	0.12	135258	keystroke	a	n/a
67.914	0.12	135828	keystroke	r	n/a
68.274	0.09	136548	keystroke	k	n/a
68.349	0.15	136698	keystroke	a	n/a
68.514	0.09	137028	keystroke	n	n/a
68.754	0.09	137508	keystroke	s	n/a
68.829	0.12	137658	keystroke	a	n/a
69.024	0.105	138048	keystroke	s	n/a
69.519	0.12	139038	keystroke	Key.enter	n/a
69.648	8.4395	139296	prompt	n/a	greeting moses lisa originally\n
70.374	0.075	140748	keystroke	g	n/a
70.629	0.09	141258	keystroke	r	n/a
70.824	0.075	141648	keystroke	e	n/a
71.034	0.105	142068	keystroke	e	n/a
71.319	0.06	142638	keystroke	t	n/a
71.439	0.105	142878	keystroke	i	n/a
71.514	0.075	143028	keystroke	n	n/a
71.559	0.105	143118	keystroke	g	n/a
71.679	0.12	143358	keystroke	Key.space	n/a
72.309	0.075	144618	keystroke	m	n/a
72.429	0.135	144858	keystroke	o	n/a
72.579	0.135	145158	keystroke	s	n/a
72.669	0.075	145338	keystroke	e	n/a
72.819	0.15	145638	keystroke	s	n/a
72.954	0.15	145908	keystroke	Key.space	n/a
73.119	0.09	146238	keystroke	l	n/a
73.269	0.105	146538	keystroke	i	n/a
74.019	0.12	148038	keystroke	s	n/a
74.604	0.045	149208	keystroke	Key.backspace	n/a
75.129	0.12	150258	keystroke	s	n/a
75.264	0.15	150528	keystroke	a	n/a
75.444	0.105	150888	keystroke	Key.space	n/a
75.564	0.09	151128	keystroke	o	n/a
75.789	0.15	151578	keystroke	r	n/a
75.924	0.06	151848	keystroke	i	n/a
77.124	0.09	154248	keystroke	g	n/a
77.199	0.09	154398	keystroke	i	n/a
77.319	0.09	154638	keystroke	n	n/a
77.424	0.165	154848	keystroke	a	n/a
77.499	0.06	154998	keystroke	l	n/a
77.634	0.045	155268	keystroke	l	n/a
77.784	0.075	155568	keystroke	y	n/a
77.994	0.09	155988	keystroke	Key.enter	n/a
78.0935	9.9225	156187	prompt	n/a	administered accidents there'll variation\n
78.804	0.15	157608	keystroke	a	n/a
79.224	0.106	158448	keystroke	d	n/a
79.389	0.075	158778	keystroke	m	n/a
79.479	0.105	158958	keystroke	i	n/a
79.644	0.06	159288	keystroke	n	n/a
79.794	0.09	159588	keystroke	i	n/a
79.899	0.12	159798	keystroke	s	n/a
80.034	0.105	160068	keystroke	t	n/a
80.124	0.135	160248	keystroke	e	n/a
80.364	0.135	160728	keystroke	r	n/a
80.454	0.12	160908	keystroke	e	n/a
80.664	0.12	161328	keystroke	d	n/a
80.859	0.135	161718	keystroke	Key.space	n/a
81.354	0.12	162708	keystroke	a	n/a
81.579	0.03	163158	keystroke	c	n/a
81.669	0.12	163338	keystroke	c	n/a
81.834	0.105	163668	keystroke	i	n/a
81.984	0.06	163968	keystroke	d	n/a
82.119	0.12	164238	keystroke	e	n/a
82.254	0.045	164508	keystroke	n	n/a
82.314	0.075	164628	keystroke	t	n/a
82.495	0.134	164990	keystroke	s	n/a
82.614	0.105	165228	keystroke	Key.space	n/a
82.794	0.075	165588	keystroke	t	n/a
82.84	0.089	165680	keystroke	h	n/a
82.959	0.06	165918	keystroke	e	n/a
83.034	0.105	166068	keystroke	r	n/a
83.124	0.06	166248	keystroke	e	n/a
84.49	0.089	168980	keystroke	'	n/a
85.119	0.06	170238	keystroke	l	n/a
85.269	0.045	170538	keystroke	l	n/a
85.735	0.089	171470	keystroke	Key.space	n/a
86.395	0.089	172790	keystroke	v	n/a
86.499	0.18	172998	keystroke	a	n/a
87.099	0.121	174198	keystroke	r	n/a
87.114	0.09	174228	keystroke	i	n/a
87.264	0.18	174528	keystroke	a	n/a
87.384	0.105	174768	keystroke	t	n/a
87.475	0.179	174950	keystroke	i	n/a
87.534	0.15	175068	keystroke	o	n/a
87.624	0.12	175248	keystroke	n	n/a
87.954	0.06	175908	keystroke	Key.enter	n/a
88.023	8.753	176046	prompt	n/a	converter mentor vbulletin unit\n
88.719	0.105	177438	keystroke	c	n/a
88.87	0.104	177740	keystroke	o	n/a
89.364	0.105	178728	keystroke	n	n/a
89.499	0.076	178998	keystroke	v	n/a
89.68	0.149	179360	keystroke	e	n/a
89.799	0.105	179598	keystroke	r	n/a
90.49	0.059	180980	keystroke	t	n/a
90.625	0.105	181250	keystroke	e	n/a
90.7	0.105	181400	keystroke	r	n/a
90.834	0.18	181668	keystroke	Key.space	n/a
91.104	0.075	182208	keystroke	m	n/a
91.194	0.121	182388	keystroke	e	n/a
91.315	0.075	182630	keystroke	n	n/a
91.404	0.061	182808	keystroke	t	n/a
91.494	0.105	182988	keystroke	o	n/a
91.629	0.105	183258	keystroke	r	n/a
92.064	0.12	184128	keystroke	Key.space	n/a
92.44	0.089	184880	keystroke	v	n/a
92.949	0.09	185898	keystroke	b	n/a
93.325	0.104	186650	keystroke	u	n/a
94.54	0.045	189080	keystroke	l	n/a
94.75	0.015	189500	keystroke	l	n/a
94.78	0.075	189560	keystroke	e	n/a
94.974	0.076	189948	keystroke	t	n/a
95.035	0.135	190070	keystroke	i	n/a
95.095	0.089	190190	keystroke	n	n/a
95.214	0.135	190428	keystroke	Key.space	n/a
95.499	0.046	190998	keystroke	u	n/a
95.784	0.136	191568	keystroke	n	n/a
95.904	0.091	191808	keystroke	i	n/a
96.13	0.104	192260	keystroke	t	n/a
96.67	0.104	193340	keystroke	Key.enter	n/a
96.7825	7.705	193565	prompt	n/a	neighbors true libs discipline\n
97.524	0.06	195048	keystroke	n	n/a
97.75	0.09	195500	keystroke	e	n/a
97.869	0.091	195738	keystroke	i	n/a
98.62	0.06	197240	keystroke	g	n/a
98.665	0.089	197330	keystroke	h	n/a
98.95	0.059	197900	keystroke	b	n/a
99.085	0.135	198170	keystroke	o	n/a
99.204	0.121	198408	keystroke	r	n/a
99.925	0.12	199850	keystroke	s	n/a
100.029	0.135	200058	keystroke	Key.space	n/a
100.359	0.075	200718	keystroke	t	n/a
100.584	0.075	201168	keystroke	r	n/a
100.674	0.046	201348	keystroke	u	n/a
100.765	0.105	201530	keystroke	e	n/a
100.884	0.09	201768	keystroke	Key.space	n/a
101.424	0.076	202848	keystroke	l	n/a
101.574	0.105	203148	keystroke	i	n/a
101.754	0.061	203508	keystroke	b	n/a
101.845	0.12	203690	keystroke	s	n/a
101.949	0.105	203898	keystroke	Key.space	n/a
102.624	0.105	205248	keystroke	d	n/a
102.775	0.09	205550	keystroke	i	n/a
102.91	0.09	205820	keystroke	s	n/a
103.15	0.059	206300	keystroke	c	n/a
103.3595	0.045	206719	keystroke	i	n/a
103.5985	0.1215	207197	keystroke	p	n/a
103.8695	0.0905	207739	keystroke	l	n/a
104.0195	0.0905	208039	keystroke	i	n/a
104.1695	0.0755	208339	keystroke	n	n/a
104.229	0.046	208458	keystroke	e	n/a
104.395	0.089	208790	keystroke	Key.enter	n/a
104.4925	6.024	208985	prompt	n/a	decimal dish romania verbal\n
105.145	0.045	210290	keystroke	d	n/a
105.3095	0.06	210619	keystroke	e	n/a
105.6395	0.03	211279	keystroke	c	n/a
105.7145	0.0455	211429	keystroke	i	n/a
105.8495	0.0605	211699	keystroke	m	n/a
105.9545	0.119	211909	keystroke	a	n/a
106.0445	0.09	212089	keystroke	l	n/a
106.1485	0.105	212297	keystroke	Key.space	n/a
106.3445	0.09	212689	keystroke	d	n/a
106.4195	0.045	212839	keystroke	i	n/a
106.555	0.0895	213110	keystroke	s	n/a
106.6445	0.045	213289	keystroke	h	n/a
106.7045	0.1205	213409	keystroke	Key.space	n/a
106.9445	0.06	213889	keystroke	r	n/a
107.0195	0.104	214039	keystroke	o	n/a
107.1695	0.045	214339	keystroke	m	n/a
107.4995	0.1055	214999	keystroke	a	n/a
107.6485	0.0605	215297	keystroke	n	n/a
107.7545	0.089	215509	keystroke	i	n/a
107.9195	0.135	215839	keystroke	a	n/a
108.0395	0.135	216079	keystroke	Key.space	n/a
109.3595	0.0755	218719	keystroke	v	n/a
109.6595	0.075	219319	keystroke	e	n/a
109.8395	0.105	219679	keystroke	r	n/a
110.0495	0.09	220099	keystroke	b	n/a
110.1395	0.135	220279	keystroke	a	n/a
110.2445	0.06	220489	keystroke	l	n/a
110.4245	0.09	220849	keystroke	Key.enter	n/a
110.5215	5.3955	221043	prompt	n/a	a opening logos prevent\n
111.1895	0.135	222379	keystroke	a	n/a
111.3385	0.121	222677	keystroke	Key.space	n/a
111.5045	0.09	223009	keystroke	o	n/a
111.7295	0.03	223459	keystroke	p	n/a
111.8645	0.075	223729	keystroke	e	n/a
111.9995	0.075	223999	keystroke	n	n/a
112.1045	0.12	224209	keystroke	i	n/a
112.1945	0.075	224389	keystroke	n	n/a
112.2095	0.09	224419	keystroke	g	n/a
112.2845	0.105	224569	keystroke	Key.space	n/a
112.4195	0.06	224839	keystroke	l	n/a
112.5995	0.045	225199	keystroke	o	n/a
112.6595	0.075	225319	keystroke	g	n/a
112.7495	0.075	225499	keystroke	o	n/a
112.8395	0.09	225679	keystroke	s	n/a
113.1395	0.134	226279	keystroke	Key.space	n/a
113.6945	0.075	227389	keystroke	p	n/a
113.8295	0.135	227659	keystroke	r	n/a
113.8895	0.105	227779	keystroke	e	n/a
114.1745	0.045	228349	keystroke	n	n/a
114.2345	0.105	228469	keystroke	e	n/a
114.6995	0.045	229399	keystroke	Key.backspace	n/a
114.8495	0.045	229699	keystroke	Key.backspace	n/a
114.9695	0.075	229939	keystroke	v	n/a
115.4645	0.09	230929	keystroke	e	n/a
115.5245	0.12	231049	keystroke	n	n/a
115.6445	0.09	231289	keystroke	t	n/a
115.8245	0.09	231649	keystroke	Key.enter	n/a
115.923	8.108	231846	prompt	n/a	coleman laws why's updated\n
117.7595	0.09	235519	keystroke	c	n/a
117.8645	0.06	235729	keystroke	o	n/a
118.0595	0.09	236119	keystroke	l	n/a
118.1645	0.045	236329	keystroke	e	n/a
118.7945	0.06	237589	keystroke	m	n/a
118.8695	0.12	237739	keystroke	a	n/a
118.9745	0.045	237949	keystroke	n	n/a
119.0795	0.15	238159	keystroke	Key.space	n/a
119.2595	0.12	238519	keystroke	l	n/a
119.3345	0.12	238669	keystroke	a	n/a
119.754	0.09	239508	keystroke	w	n/a
120.309	0.135	240618	keystroke	s	n/a
120.924	0.09	241848	keystroke	Key.space	n/a
121.239	0.105	242478	keystroke	w	n/a
121.359	0.075	242718	keystroke	h	n/a
121.524	0.075	243048	keystroke	y	n/a
122.199	0.09	244398	keystroke	'	n/a
122.544	0.105	245088	keystroke	s	n/a
122.634	0.12	245268	keystroke	Key.space	n/a
122.844	0.0745	245688	keystroke	u	n/a
122.9935	0.12	245987	keystroke	p	n/a
123.3385	0.12	246677	keystroke	d	n/a
123.4285	0.15	246857	keystroke	a	n/a
123.5935	0.075	247187	keystroke	t	n/a
123.6385	0.105	247277	keystroke	e	n/a
123.8935	0.09	247787	keystroke	d	n/a
123.9685	0.06	247937	keystroke	Key.enter	n/a
124.0365	17.6795	248073	prompt	n/a	norfolk fiscal loss campaigns\n
125.0485	0.06	250097	keystroke	n	n/a
125.1535	0.12	250307	keystroke	o	n/a
125.2885	0.12	250577	keystroke	r	n/a
125.6485	0.12	251297	keystroke	f	n/a
125.7985	0.06	251597	keystroke	o	n/a
125.9785	0.06	251957	keystroke	l	n/a
126.5485	0.06	253097	keystroke	k	n/a
126.6535	0.135	253307	keystroke	Key.space	n/a
128.605	0.104	257210	keystroke	i	n/a
128.739	0.1205	257478	keystroke	s	n/a
129.0535	0.12	258107	keystroke	c	n/a
129.4285	0.075	258857	keystroke	Key.backspace	n/a
129.5635	0.075	259127	keystroke	Key.backspace	n/a
129.6985	0.06	259397	keystroke	Key.backspace	n/a
129.8335	0.075	259667	keystroke	f	n/a
129.9535	0.045	259907	keystroke	i	n/a
130.3285	0.105	260657	keystroke	s	n/a
130.5535	0.105	261107	keystroke	c	n/a
130.7935	0.135	261587	keystroke	a	n/a
130.9435	0.091	261887	keystroke	l	n/a
131.1235	0.105	262247	keystroke	Key.space	n/a
131.9345	0.074	263869	keystroke	;	n/a
132.1885	0.076	264377	keystroke	o	n/a
132.3385	0.12	264677	keystroke	s	n/a
132.8035	0.045	265607	keystroke	Key.backspace	n/a
132.9535	0.06	265907	keystroke	Key.backspace	n/a
133.3135	0.03	266627	keystroke	Key.backspace	n/a
133.7345	0.059	267469	keystroke	l	n/a
134.0035	0.06	268007	keystroke	o	n/a
134.1985	0.045	268397	keystroke	s	n/a
134.3485	0.06	268697	keystroke	s	n/a
135.0385	0.09	270077	keystroke	Key.space	n/a
135.2635	0.09	270527	keystroke	c	n/a
135.3845	0.179	270769	keystroke	a	n/a
135.5945	0.104	271189	keystroke	m	n/a
135.8195	0.135	271639	keystroke	a	n/a
136.6135	0.045	273227	keystroke	Key.backspace	n/a
136.9295	0.074	273859	keystroke	p	n/a
137.4985	0.121	274997	keystroke	a	n/a
137.7985	0.06	275597	keystroke	i	n/a
137.9035	0.03	275807	keystroke	n	n/a
139.8685	0.06	279737	keystroke	Key.backspace	n/a
141.174	0.0595	282348	keystroke	g	n/a
141.2495	0.0595	282499	keystroke	n	n/a
141.368	0.121	282736	keystroke	s	n/a
141.623	0.09	283246	keystroke	Key.enter	n/a
141.72	8.801	283440	prompt	n/a	participant seasons delight how's\n
142.374	0.104	284748	keystroke	p	n/a
142.628	0.136	285256	keystroke	a	n/a
142.793	0.105	285586	keystroke	r	n/a
143.483	0.09	286966	keystroke	t	n/a
143.588	0.061	287176	keystroke	i	n/a
143.753	0.046	287506	keystroke	c	n/a
143.813	0.091	287626	keystroke	i	n/a
144.054	0.104	288108	keystroke	p	n/a
144.144	0.15	288288	keystroke	a	n/a
144.279	0.074	288558	keystroke	n	n/a
144.473	0.105	288946	keystroke	t	n/a
144.593	0.105	289186	keystroke	Key.space	n/a
144.774	0.119	289548	keystroke	s	n/a
144.8785	0.1345	289757	keystroke	e	n/a
145.373	0.121	290746	keystroke	a	n/a
145.659	0.105	291318	keystroke	s	n/a
145.719	0.105	291438	keystroke	o	n/a
145.778	0.091	291556	keystroke	n	n/a
146.348	0.091	292696	keystroke	s	n/a
146.453	0.135	292906	keystroke	Key.space	n/a
146.694	0.06	293388	keystroke	d	n/a
146.844	0.045	293688	keystroke	e	n/a
147.009	0.105	294018	keystroke	l	n/a
147.158	0.12	294316	keystroke	i	n/a
147.309	0.059	294618	keystroke	g	n/a
147.399	0.075	294798	keystroke	h	n/a
147.489	0.075	294978	keystroke	t	n/a
147.594	0.089	295188	keystroke	Key.space	n/a
147.893	0.046	295786	keystroke	h	n/a
147.984	0.135	295968	keystroke	o	n/a
148.089	0.12	296178	keystroke	w	n/a
149.859	0.105	299718	keystroke	'	n/a
149.994	0.104	299988	keystroke	s	n/a
150.459	0.06	300918	keystroke	Key.enter	n/a
150.526	16.615	301052	prompt	n/a	live surveys tribunal tables\n
151.509	0.09	303018	keystroke	l	n/a
151.704	0.09	303408	keystroke	i	n/a
151.823	0.136	303646	keystroke	v	n/a
151.944	0.18	303888	keystroke	e	n/a
153.609	0.135	307218	keystroke	Key.space	n/a
154.074	0.12	308148	keystroke	s	n/a
154.179	0.09	308358	keystroke	u	n/a
154.284	0.15	308568	keystroke	r	n/a
154.584	0.075	309168	keystroke	e	n/a
154.944	0.06	309888	keystroke	v	n/a
155.604	0.045	311208	keystroke	Key.backspace	n/a
155.739	0.075	311478	keystroke	Key.backspace	n/a
156.249	0.075	312498	keystroke	v	n/a
156.444	0.105	312888	keystroke	e	n/a
157.164	0.09	314328	keystroke	y	n/a
158.214	0.135	316428	keystroke	s	n/a
158.559	0.135	317118	keystroke	Key.space	n/a
159.009	0.075	318018	keystroke	t	n/a
159.474	0.09	318948	keystroke	r	n/a
159.549	0.06	319098	keystroke	i	n/a
159.729	0.045	319458	keystroke	b	n/a
159.894	0.045	319788	keystroke	u	n/a
160.074	0.075	320148	keystroke	n	n/a
160.089	0.045	320178	keystroke	b	n/a
160.179	0.135	320358	keystroke	a	n/a
160.224	0.105	320448	keystroke	l	n/a
160.389	0.135	320778	keystroke	Key.space	n/a
160.884	0.045	321768	keystroke	Key.backspace	n/a
161.019	0.06	322038	keystroke	Key.backspace	n/a
161.169	0.075	322338	keystroke	Key.backspace	n/a
161.319	0.09	322638	keystroke	Key.backspace	n/a
161.769	0.06	323538	keystroke	Key.backspace	n/a
162.069	0.06	324138	keystroke	b	n/a
163.194	0.045	326388	keystroke	Key.backspace	n/a
164.214	0.09	328428	keystroke	n	n/a
164.334	0.135	328668	keystroke	a	n/a
164.409	0.12	328818	keystroke	l	n/a
164.589	0.135	329178	keystroke	Key.space	n/a
165.354	0.09	330708	keystroke	t	n/a
165.519	0.15	331038	keystroke	a	n/a
165.654	0.06	331308	keystroke	b	n/a
165.804	0.135	331608	keystroke	l	n/a
165.879	0.09	331758	keystroke	e	n/a
166.044	0.135	332088	keystroke	s	n/a
167.079	0.06	334158	keystroke	Key.enter	n/a
167.1455	7.3155	334291	prompt	n/a	hoping alcohol protective minimal\n
168.054	0.045	336108	keystroke	h	n/a
168.249	0.045	336498	keystroke	o	n/a
168.534	0.075	337068	keystroke	p	n/a
168.789	0.105	337578	keystroke	i	n/a
168.879	0.075	337758	keystroke	n	n/a
168.939	0.06	337878	keystroke	g	n/a
169.029	0.06	338058	keystroke	Key.space	n/a
169.539	0.15	339078	keystroke	a	n/a
169.704	0.075	339408	keystroke	l	n/a
169.899	0.06	339798	keystroke	c	n/a
169.974	0.105	339948	keystroke	o	n/a
170.229	0.03	340458	keystroke	h	n/a
170.319	0.09	340638	keystroke	o	n/a
170.544	0.12	341088	keystroke	l	n/a
170.694	0.12	341388	keystroke	Key.space	n/a
170.874	0.12	341748	keystroke	p	n/a
171.249	0.09	342498	keystroke	r	n/a
171.324	0.105	342648	keystroke	o	n/a
171.579	0.075	343158	keystroke	t	n/a
171.669	0.105	343338	keystroke	e	n/a
171.909	0.105	343818	keystroke	c	n/a
172.119	0.075	344238	keystroke	t	n/a
172.209	0.105	344418	keystroke	i	n/a
172.329	0.135	344658	keystroke	v	n/a
172.434	0.105	344868	keystroke	e	n/a
172.554	0.135	345108	keystroke	Key.space	n/a
172.794	0.06	345588	keystroke	m	n/a
172.914	0.075	345828	keystroke	i	n/a
173.199	0.075	346398	keystroke	n	n/a
173.349	0.06	346698	keystroke	i	n/a
173.589	0.075	347178	keystroke	m	n/a
173.709	0.12	347418	keystroke	a	n/a
173.784	0.12	347568	keystroke	l	n/a
174.414	0.045	348828	keystroke	Key.enter	n/a
174.4675	6.264	348935	prompt	n/a	outlet website pride treasurer\n
175.974	0.09	351948	keystroke	o	n/a
176.229	0.045	352458	keystroke	u	n/a
176.394	0.09	352788	keystroke	t	n/a
176.544	0.075	353088	keystroke	l	n/a
176.634	0.09	353268	keystroke	e	n/a
176.829	0.075	353658	keystroke	t	n/a
176.919	0.09	353838	keystroke	Key.space	n/a
177.264	0.105	354528	keystroke	w	n/a
177.414	0.09	354828	keystroke	e	n/a
177.549	0.075	355098	keystroke	b	n/a
177.879	0.12	355758	keystroke	s	n/a
177.954	0.0745	355908	keystroke	i	n/a
178.0435	0.0905	356087	keystroke	t	n/a
178.1185	0.09	356237	keystroke	e	n/a
178.2535	0.135	356507	keystroke	Key.space	n/a
178.4185	0.0905	356837	keystroke	p	n/a
178.6285	0.0605	357257	keystroke	r	n/a
178.704	0.0595	357408	keystroke	i	n/a
178.8835	0.045	357767	keystroke	d	n/a
179.0185	0.1055	358037	keystroke	e	n/a
179.0935	0.09	358187	keystroke	Key.space	n/a
179.2435	0.0605	358487	keystroke	t	n/a
179.4085	0.1055	358817	keystroke	r	n/a
179.4835	0.1205	358967	keystroke	e	n/a
179.6185	0.105	359237	keystroke	a	n/a
179.8435	0.1205	359687	keystroke	s	n/a
179.9185	0.075	359837	keystroke	u	n/a
180.0385	0.075	360077	keystroke	r	n/a
180.084	0.135	360168	keystroke	e	n/a
180.4885	0.0755	360977	keystroke	r	n/a
180.669	0.0595	361338	keystroke	Key.enter	n/a
180.7365	17.8595	361473	prompt	n/a	prescription assembled creatures vector\n
181.4485	0.1205	362897	keystroke	p	n/a
181.7185	0.12	363437	keystroke	r	n/a
181.794	0.105	363588	keystroke	e	n/a
182.0035	0.1055	364007	keystroke	s	n/a
182.229	0.06	364458	keystroke	c	n/a
182.4385	0.0905	364877	keystroke	r	n/a
183.5935	0.06	367187	keystroke	Key.backspace	n/a
185.4685	0.12	370937	keystroke	r	n/a
185.5435	0.03	371087	keystroke	i	n/a
186.4285	0.075	372857	keystroke	p	n/a
186.8635	0.09	373727	keystroke	t	n/a
186.9545	0.074	373909	keystroke	i	n/a
187.0585	0.18	374117	keystroke	o	n/a
187.1635	0.135	374327	keystroke	n	n/a
187.2835	0.15	374567	keystroke	Key.space	n/a
187.8845	0.134	375769	keystroke	s	n/a
188.7685	0.09	377537	keystroke	Key.backspace	n/a
189.2785	0.15	378557	keystroke	a	n/a
189.7135	0.045	379427	keystroke	s	n/a
189.8485	0.105	379697	keystroke	s	n/a
190.0135	0.105	380027	keystroke	e	n/a
190.1335	0.09	380267	keystroke	m	n/a
190.3885	0.075	380777	keystroke	p	n/a
191.0035	0.06	382007	keystroke	Key.backspace	n/a
191.2885	0.045	382577	keystroke	n	n/a
191.3035	0.015	382607	keystroke	b	n/a
191.5435	0.09	383087	keystroke	e	n/a
191.8735	0.03	383747	keystroke	Key.backspace	n/a
191.9935	0.06	383987	keystroke	Key.backspace	n/a
192.9085	0.06	385817	keystroke	Key.backspace	n/a
193.6735	0.06	387347	keystroke	b	n/a
193.8985	0.105	387797	keystroke	l	n/a
194.0485	0.06	388097	keystroke	e	n/a
194.3785	0.06	388757	keystroke	d	n/a
195.0085	0.12	390017	keystroke	Key.space	n/a
195.3085	0.09	390617	keystroke	c	n/a
195.5635	0.135	391127	keystroke	r	n/a
195.5935	0.135	391187	keystroke	e	n/a
195.8485	0.15	391697	keystroke	a	n/a
196.0435	0.075	392087	keystroke	t	n/a
196.1485	0.06	392297	keystroke	u	n/a
196.2235	0.09	392447	keystroke	r	n/a
196.2685	0.105	392537	keystroke	e	n/a
196.4785	0.12	392957	keystroke	s	n/a
196.5835	0.075	393167	keystroke	Key.space	n/a
196.8085	0.06	393617	keystroke	v	n/a
196.9735	0.135	393947	keystroke	e	n/a
197.0785	0.045	394157	keystroke	r	n/a
197.5435	0.06	395087	keystroke	Key.backspace	n/a
197.6485	0.06	395297	keystroke	c	n/a
197.9185	0.09	395837	keystroke	t	n/a
198.1435	0.12	396287	keystroke	o	n/a
198.2785	0.12	396557	keystroke	r	n/a
198.5185	0.075	397037	keystroke	Key.enter	n/a
198.6035	7.237	397207	prompt	n/a	reactions renaissance screen trademark\n
199.2835	0.12	398567	keystroke	r	n/a
199.3585	0.105	398717	keystroke	e	n/a
199.5985	0.105	399197	keystroke	a	n/a
199.8085	0.03	399617	keystroke	c	n/a
199.9585	0.09	399917	keystroke	t	n/a
200.0635	0.06	400127	keystroke	i	n/a
200.1385	0.165	400277	keystroke	o	n/a
200.2435	0.075	400487	keystroke	n	n/a
200.2885	0.105	400577	keystroke	s	n/a
200.3635	0.12	400727	keystroke	Key.space	n/a
200.5585	0.09	401117	keystroke	r	n/a
200.6035	0.105	401207	keystroke	e	n/a
200.9635	0.09	401927	keystroke	n	n/a
201.0685	0.15	402137	keystroke	a	n/a
201.6235	0.06	403247	keystroke	i	n/a
201.8485	0.045	403697	keystroke	s	n/a
201.9835	0.045	403967	keystroke	s	n/a
202.0735	0.165	404147	keystroke	a	n/a
202.2235	0.045	404447	keystroke	n	n/a
202.3885	0.045	404777	keystroke	c	n/a
202.5535	0.09	405107	keystroke	e	n/a
202.6735	0.105	405347	keystroke	Key.space	n/a
202.9435	0.12	405887	keystroke	s	n/a
203.1685	0.09	406337	keystroke	c	n/a
203.4385	0.105	406877	keystroke	r	n/a
203.6635	0.03	407327	keystroke	e	n/a
203.7835	0.09	407567	keystroke	e	n/a
203.8435	0.135	407687	keystroke	n	n/a
203.9485	0.09	407897	keystroke	Key.space	n/a
204.1585	0.06	408317	keystroke	t	n/a
204.3235	0.106	408647	keystroke	r	n/a
204.3985	0.135	408797	keystroke	a	n/a
204.6235	0.045	409247	keystroke	d	n/a
204.7585	0.075	409517	keystroke	e	n/a
204.9385	0.075	409877	keystroke	m	n/a
205.0585	0.15	410117	keystroke	a	n/a
205.1935	0.09	410387	keystroke	r	n/a
205.2985	0.075	410597	keystroke	k	n/a
205.7785	0.06	411557	keystroke	Key.enter	n/a
205.8455	13.7355	411691	prompt	n/a	with default greatest mainly\n
206.9335	0.106	413867	keystroke	t	n/a
207.2935	0.045	414587	keystroke	Key.backspace	n/a
207.5635	0.135	415127	keystroke	w	n/a
208.0735	0.06	416147	keystroke	i	n/a
208.1945	0.074	416389	keystroke	t	n/a
208.2385	0.076	416477	keystroke	h	n/a
208.3435	0.12	416687	keystroke	Key.space	n/a
208.5685	0.045	417137	keystroke	d	n/a
208.7035	0.09	417407	keystroke	e	n/a
208.9435	0.09	417887	keystroke	f	n/a
209.0935	0.165	418187	keystroke	a	n/a
209.2285	0.06	418457	keystroke	u	n/a
209.3785	0.076	418757	keystroke	l	n/a
209.6485	0.09	419297	keystroke	t	n/a
209.8435	0.09	419687	keystroke	Key.space	n/a
210.1285	0.105	420257	keystroke	g	n/a
210.3685	0.15	420737	keystroke	r	n/a
210.5635	0.225	421127	keystroke	a	n/a
210.8485	0.1055	421697	keystroke	t	n/a
211.104	0.09	422208	keystroke	e	n/a
211.314	0.165	422628	keystroke	s	n/a
211.464	0.105	422928	keystroke	t	n/a
211.57	0.074	423140	keystroke	Key.space	n/a
211.704	0.075	423408	keystroke	m	n/a
211.794	0.165	423588	keystroke	a	n/a
211.884	0.075	423768	keystroke	i	n/a
212.049	0.075	424098	keystroke	n	n/a
212.169	0.105	424338	keystroke	l	n/a
212.349	0.09	424698	keystroke	y	n/a
213.159	0.045	426318	keystroke	Key.backspace	n/a
213.294	0.06	426588	keystroke	Key.backspace	n/a
213.459	0.06	426918	keystroke	Key.backspace	n/a
213.609	0.075	427218	keystroke	Key.backspace	n/a
213.759	0.06	427518	keystroke	Key.backspace	n/a
213.924	0.045	427848	keystroke	Key.backspace	n/a
214.089	0.03	428178	keystroke	Key.backspace	n/a
214.239	0.045	428478	keystroke	Key.backspace	n/a
214.389	0.075	428778	keystroke	Key.backspace	n/a
214.644	0.09	429288	keystroke	Key.backspace	n/a
214.959	0.105	429918	keystroke	Key.backspace	n/a
215.424	0.135	430848	keystroke	Key.backspace	n/a
216.069	0.15	432138	keystroke	e	n/a
216.219	0.225	432438	keystroke	a	n/a
216.489	0.105	432978	keystroke	t	n/a
216.984	0.075	433968	keystroke	e	n/a
217.149	0.15	434298	keystroke	s	n/a
217.329	0.09	434658	keystroke	t	n/a
217.419	0.09	434838	keystroke	Key.space	n/a
217.599	0.075	435198	keystroke	m	n/a
217.689	0.165	435378	keystroke	a	n/a
217.794	0.09	435588	keystroke	i	n/a
217.884	0.06	435768	keystroke	n	n/a
217.989	0.09	435978	keystroke	l	n/a
218.139	0.06	436278	keystroke	y	n/a
218.349	0.09	436698	keystroke	'	n/a
219.174	0.06	438348	keystroke	Key.backspace	n/a
219.534	0.045	439068	keystroke	Key.enter	n/a
219.5865	11.154	439173	prompt	n/a	transmission companies readings enquiry\n
220.479	0.075	440958	keystroke	t	n/a
220.659	0.09	441318	keystroke	r	n/a
220.719	0.15	441438	keystroke	a	n/a
220.854	0.075	441708	keystroke	n	n/a
221.004	0.12	442008	keystroke	s	n/a
221.184	0.075	442368	keystroke	m	n/a
221.304	0.09	442608	keystroke	i	n/a
221.484	0.045	442968	keystroke	s	n/a
221.589	0.135	443178	keystroke	s	n/a
221.664	0.075	443328	keystroke	i	n/a
221.754	0.15	443508	keystroke	o	n/a
221.829	0.09	443658	keystroke	n	n/a
221.889	0.12	443778	keystroke	Key.space	n/a
222.159	0.09	444318	keystroke	c	n/a
222.219	0.105	444438	keystroke	o	n/a
222.279	0.075	444558	keystroke	m	n/a
222.429	0.135	444858	keystroke	p	n/a
222.579	0.15	445158	keystroke	a	n/a
222.774	0.06	445548	keystroke	n	n/a
222.894	0.09	445788	keystroke	i	n/a
222.999	0.045	445998	keystroke	e	n/a
223.149	0.135	446298	keystroke	s	n/a
223.269	0.105	446538	keystroke	Key.space	n/a
223.509	0.105	447018	keystroke	r	n/a
223.569	0.12	447138	keystroke	e	n/a
223.764	0.135	447528	keystroke	a	n/a
223.974	0.105	447948	keystroke	d	n/a
224.034	0.12	448068	keystroke	i	n/a
224.094	0.105	448188	keystroke	n	n/a
224.169	0.06	448338	keystroke	g	n/a
224.319	0.135	448638	keystroke	s	n/a
224.844	0.09	449688	keystroke	Key.space	n/a
225.219	0.075	450438	keystroke	e	n/a
225.459	0.075	450918	keystroke	n	n/a
225.879	0.09	451758	keystroke	t	n/a
226.779	0.075	453558	keystroke	Key.backspace	n/a
226.959	0.135	453918	keystroke	q	n/a
227.229	0.045	454458	keystroke	u	n/a
227.394	0.09	454788	keystroke	i	n/a
227.469	0.12	454938	keystroke	r	n/a
227.529	0.12	455058	keystroke	e	n/a
229.194	0.075	458388	keystroke	Key.backspace	n/a
229.569	0.09	459138	keystroke	y	n/a
230.664	0.075	461328	keystroke	Key.enter	n/a
230.746	17.83	461492	prompt	n/a	lotus chan influenced strongly\n
231.3985	0.075	462797	keystroke	l	n/a
231.6535	0.06	463307	keystroke	o	n/a
231.7585	0.075	463517	keystroke	t	n/a
232.149	0.0895	464298	keystroke	u	n/a
232.2685	0.135	464537	keystroke	s	n/a
232.4185	0.105	464837	keystroke	Key.space	n/a
232.674	0.12	465348	keystroke	c	n/a
233.4385	0.09	466877	keystroke	h	n/a
233.5435	0.15	467087	keystroke	a	n/a
234.2785	0.09	468557	keystroke	n	n/a
234.4135	0.12	468827	keystroke	Key.space	n/a
234.7285	0.075	469457	keystroke	i	n/a
234.864	0.09	469728	keystroke	n	n/a
236.559	0.089	473118	keystroke	c	n/a
236.934	0.104	473868	keystroke	l	n/a
237.144	0.075	474288	keystroke	u	n/a
237.369	0.075	474738	keystroke	e	n/a
237.504	0.075	475008	keystroke	n	n/a
237.624	0.06	475248	keystroke	c	n/a
237.774	0.075	475548	keystroke	e	n/a
238.118	0.09	476236	keystroke	d	n/a
238.223	0.135	476446	keystroke	Key.space	n/a
239.319	0.06	478638	keystroke	Key.backspace	n/a
239.484	0.045	478968	keystroke	Key.backspace	n/a
239.649	0.074	479298	keystroke	Key.backspace	n/a
239.828	0.075	479656	keystroke	Key.backspace	n/a
240.038	0.061	480076	keystroke	Key.backspace	n/a
240.218	0.06	480436	keystroke	Key.backspace	n/a
240.429	0.075	480858	keystroke	Key.backspace	n/a
240.668	0.09	481336	keystroke	Key.backspace	n/a
241.134	0.09	482268	keystroke	Key.backspace	n/a
241.599	0.09	483198	keystroke	f	n/a
241.794	0.135	483588	keystroke	l	n/a
241.988	0.091	483976	keystroke	e	n/a
243.413	0.076	486826	keystroke	Key.backspace	n/a
243.699	0.045	487398	keystroke	u	n/a
243.999	0.105	487998	keystroke	e	n/a
244.719	0.075	489438	keystroke	n	n/a
245.799	0.06	491598	keystroke	c	n/a
245.964	0.06	491928	keystroke	e	n/a
246.219	0.06	492438	keystroke	d	n/a
246.309	0.12	492618	keystroke	Key.space	n/a
246.669	0.105	493338	keystroke	s	n/a
246.819	0.075	493638	keystroke	t	n/a
247.044	0.075	494088	keystroke	r	n/a
247.089	0.09	494178	keystroke	o	n/a
247.209	0.075	494418	keystroke	n	n/a
247.329	0.09	494658	keystroke	g	n/a
247.389	0.075	494778	keystroke	l	n/a
248.169	0.075	496338	keystroke	y	n/a
248.514	0.06	497028	keystroke	Key.enter	n/a
248.5815	7.6145	497163	prompt	n/a	theaters players titans cafe\n
249.234	0.075	498468	keystroke	t	n/a
249.519	0.075	499038	keystroke	h	n/a
249.834	0.09	499668	keystroke	e	n/a
250.104	0.135	500208	keystroke	a	n/a
250.254	0.06	500508	keystroke	t	n/a
250.434	0.075	500868	keystroke	r	n/a
251.469	0.075	502938	keystroke	Key.backspace	n/a
251.649	0.105	503298	keystroke	e	n/a
251.739	0.06	503478	keystroke	r	n/a
252.264	0.12	504528	keystroke	s	n/a
252.369	0.135	504738	keystroke	Key.space	n/a
252.474	0.06	504948	keystroke	p	n/a
252.669	0.075	505338	keystroke	l	n/a
252.745	0.149	505490	keystroke	a	n/a
252.849	0.06	505698	keystroke	y	n/a
252.984	0.105	505968	keystroke	e	n/a
253.074	0.075	506148	keystroke	r	n/a
253.284	0.09	506568	keystroke	s	n/a
253.674	0.12	507348	keystroke	Key.space	n/a
254.319	0.075	508638	keystroke	t	n/a
254.409	0.06	508818	keystroke	i	n/a
254.589	0.105	509178	keystroke	t	n/a
254.799	0.15	509598	keystroke	a	n/a
254.934	0.09	509868	keystroke	n	n/a
255.039	0.105	510078	keystroke	s	n/a
255.174	0.12	510348	keystroke	Key.space	n/a
255.399	0.075	510798	keystroke	c	n/a
255.489	0.18	510978	keystroke	a	n/a
255.714	0.06	511428	keystroke	f	n/a
255.879	0.105	511758	keystroke	e	n/a
256.119	0.075	512238	keystroke	Key.enter	n/a
256.2005	14.2305	512401	prompt	n/a	what've consistency recovery sociology\n
257.169	0.09	514338	keystroke	w	n/a
257.274	0.06	514548	keystroke	h	n/a
257.364	0.165	514728	keystroke	a	n/a
257.484	0.09	514968	keystroke	t	n/a
257.829	0.09	515658	keystroke	'	n/a
257.934	0.09	515868	keystroke	v	n/a
258.294	0.09	516588	keystroke	e	n/a
258.639	0.105	517278	keystroke	Key.space	n/a
258.999	0.105	517998	keystroke	c	n/a
259.299	0.105	518598	keystroke	o	n/a
259.389	0.06	518778	keystroke	n	n/a
259.464	0.12	518928	keystroke	s	n/a
259.614	0.075	519228	keystroke	i	n/a
259.749	0.12	519498	keystroke	s	n/a
259.974	0.105	519948	keystroke	t	n/a
260.064	0.135	520128	keystroke	e	n/a
260.259	0.105	520518	keystroke	n	n/a
260.394	0.075	520788	keystroke	c	n/a
260.499	0.06	520998	keystroke	y	n/a
260.619	0.135	521238	keystroke	Key.space	n/a
260.904	0.09	521808	keystroke	t	n/a
260.904	0.105	521808	keystroke	r	n/a
260.964	0.09	521928	keystroke	e	n/a
261.189	0.075	522378	keystroke	c	n/a
261.279	0.09	522558	keystroke	o	n/a
261.414	0.075	522828	keystroke	v	n/a
261.519	0.135	523038	keystroke	e	n/a
261.624	0.105	523248	keystroke	r	n/a
261.774	0.06	523548	keystroke	y	n/a
261.879	0.105	523758	keystroke	Key.space	n/a
262.059	0.105	524118	keystroke	s	n/a
262.149	0.06	524298	keystroke	o	n/a
263.214	0.075	526428	keystroke	Key.backspace	n/a
263.394	0.075	526788	keystroke	Key.backspace	n/a
263.544	0.075	527088	keystroke	Key.backspace	n/a
263.7235	0.0905	527447	keystroke	Key.backspace	n/a
263.9485	0.075	527897	keystroke	Key.backspace	n/a
264.1435	0.0755	528287	keystroke	Key.backspace	n/a
264.324	0.0745	528648	keystroke	Key.backspace	n/a
264.5035	0.075	529007	keystroke	Key.backspace	n/a
264.699	0.075	529398	keystroke	Key.backspace	n/a
264.9835	0.105	529967	keystroke	Key.backspace	n/a
265.3585	0.0605	530717	keystroke	Key.backspace	n/a
265.5685	0.06	531137	keystroke	e	n/a
266.4535	0.105	532907	keystroke	c	n/a
266.5435	0.075	533087	keystroke	o	n/a
266.7835	0.075	533567	keystroke	v	n/a
268.0885	0.135	536177	keystroke	e	n/a
268.1785	0.12	536357	keystroke	r	n/a
268.3135	0.075	536627	keystroke	y	n/a
268.4485	0.135	536897	keystroke	Key.space	n/a
268.6585	0.09	537317	keystroke	s	n/a
268.7335	0.06	537467	keystroke	o	n/a
268.8535	0.105	537707	keystroke	c	n/a
268.9435	0.06	537887	keystroke	i	n/a
269.2735	0.06	538547	keystroke	o	n/a
269.4985	0.06	538997	keystroke	l	n/a
269.6635	0.06	539327	keystroke	o	n/a
269.7835	0.075	539567	keystroke	g	n/a
269.8595	0.059	539719	keystroke	y	n/a
270.3385	0.09	540677	keystroke	Key.enter	n/a
270.436	5.29	540872	prompt	n/a	band upon fold bundle\n
271.4335	0.06	542867	keystroke	b	n/a
271.5235	0.15	543047	keystroke	a	n/a
271.7185	0.075	543437	keystroke	n	n/a
271.8535	0.075	543707	keystroke	d	n/a
271.9585	0.105	543917	keystroke	Key.space	n/a
272.3035	0.06	544607	keystroke	u	n/a
272.4535	0.075	544907	keystroke	p	n/a
272.6485	0.09	545297	keystroke	o	n/a
272.7985	0.075	545597	keystroke	n	n/a
272.9635	0.135	545927	keystroke	Key.space	n/a
273.6835	0.105	547367	keystroke	f	n/a
273.7735	0.045	547547	keystroke	o	n/a
273.9385	0.09	547877	keystroke	l	n/a
274.0435	0.105	548087	keystroke	d	n/a
274.1335	0.105	548267	keystroke	Key.space	n/a
274.3135	0.06	548627	keystroke	b	n/a
274.4935	0.045	548987	keystroke	u	n/a
274.6585	0.075	549317	keystroke	n	n/a
274.9735	0.075	549947	keystroke	d	n/a
275.0635	0.09	550127	keystroke	l	n/a
275.1985	0.075	550397	keystroke	e	n/a
275.6335	0.09	551267	keystroke	Key.enter	n/a
275.7305	12.8205	551461	prompt	n/a	largest hosting diff chris\n
276.3235	0.09	552647	keystroke	l	n/a
276.5035	0.165	553007	keystroke	a	n/a
276.9685	0.09	553937	keystroke	r	n/a
277.2235	0.09	554447	keystroke	g	n/a
277.4335	0.075	554867	keystroke	e	n/a
277.6435	0.15	555287	keystroke	s	n/a
277.7785	0.075	555557	keystroke	t	n/a
277.8685	0.105	555737	keystroke	Key.space	n/a
278.0335	0.075	556067	keystroke	h	n/a
278.1685	0.135	556337	keystroke	o	n/a
278.2885	0.135	556577	keystroke	s	n/a
278.5735	0.09	557147	keystroke	g	n/a
278.6785	0.105	557357	keystroke	i	n/a
278.7535	0.135	557507	keystroke	n	n/a
280.0435	0.075	560087	keystroke	Key.backspace	n/a
280.2085	0.075	560417	keystroke	Key.backspace	n/a
280.4035	0.03	560807	keystroke	Key.backspace	n/a
280.7185	0.075	561437	keystroke	t	n/a
280.9135	0.105	561827	keystroke	i	n/a
280.9885	0.09	561977	keystroke	n	n/a
281.0635	0.045	562127	keystroke	g	n/a
281.1385	0.075	562277	keystroke	Key.space	n/a
282.1135	0.12	564227	keystroke	f	n/a
282.3385	0.09	564677	keystroke	i	n/a
282.5635	0.03	565127	keystroke	d	n/a
282.6685	0.09	565337	keystroke	d	n/a
282.7735	0.15	565547	keystroke	Key.space	n/a
283.1185	0.105	566237	keystroke	c	n/a
283.2385	0.06	566477	keystroke	h	n/a
284.4835	0.09	568967	keystroke	Key.backspace	n/a
284.7535	0.015	569507	keystroke	Key.backspace	n/a
284.8585	0.075	569717	keystroke	Key.backspace	n/a
285.0385	0.09	570077	keystroke	Key.backspace	n/a
285.2185	0.105	570437	keystroke	Key.backspace	n/a
285.4585	0.105	570917	keystroke	Key.backspace	n/a
285.8335	0.09	571667	keystroke	Key.backspace	n/a
286.2085	0.105	572417	keystroke	d	n/a
287.0485	0.06	574097	keystroke	i	n/a
287.2585	0.015	574517	keystroke	f	n/a
287.3495	0.089	574699	keystroke	f	n/a
287.4685	0.105	574937	keystroke	Key.space	n/a
287.6335	0.09	575267	keystroke	c	n/a
287.6935	0.09	575387	keystroke	h	n/a
287.8585	0.105	575717	keystroke	r	n/a
287.9485	0.09	575897	keystroke	i	n/a
288.0835	0.12	576167	keystroke	s	n/a
288.4885	0.06	576977	keystroke	Key.enter	n/a
288.5575	8.483	577115	prompt	n/a	spam smtp bomb evolution\n
289.2385	0.105	578477	keystroke	s	n/a
289.4635	0.075	578927	keystroke	p	n/a
289.5235	0.15	579047	keystroke	a	n/a
289.6885	0.075	579377	keystroke	m	n/a
289.793	0.1355	579586	keystroke	Key.space	n/a
290.0635	0.105	580127	keystroke	s	n/a
290.1385	0.105	580277	keystroke	m	n/a
290.3935	0.075	580787	keystroke	t	n/a
290.5735	0.12	581147	keystroke	p	n/a
290.738	0.135	581476	keystroke	Key.space	n/a
290.978	0.075	581956	keystroke	b	n/a
291.263	0.105	582526	keystroke	o	n/a
291.473	0.06	582946	keystroke	m	n/a
293.921	0	587842	keystroke	b	n/a
294.593	0.12	589186	keystroke	Key.space	n/a
294.758	0.06	589516	keystroke	e	n/a
295.223	0.105	590446	keystroke	v	n/a
295.298	0.045	590596	keystroke	o	n/a
295.478	0.06	590956	keystroke	l	n/a
295.613	0.06	591226	keystroke	u	n/a
296.138	0.12	592276	keystroke	t	n/a
296.213	0.075	592426	keystroke	i	n/a
296.303	0.15	592606	keystroke	o	n/a
296.408	0.105	592816	keystroke	n	n/a
296.978	0.06	593956	keystroke	Key.enter	n/a
297.0455	7.765	594091	prompt	n/a	locked consequently motivated pleasant\n
297.788	0.091	595576	keystroke	l	n/a
298.253	0.075	596506	keystroke	o	n/a
298.478	0.06	596956	keystroke	c	n/a
298.583	0.06	597166	keystroke	k	n/a
298.658	0.06	597316	keystroke	e	n/a
298.823	0.09	597646	keystroke	d	n/a
298.928	0.135	597856	keystroke	Key.space	n/a
299.723	0.03	599446	keystroke	c	n/a
299.738	0.105	599476	keystroke	o	n/a
299.798	0.12	599596	keystroke	n	n/a
299.933	0.121	599866	keystroke	s	n/a
300.143	0.091	600286	keystroke	e	n/a
300.398	0.135	600796	keystroke	q	n/a
300.503	0.06	601006	keystroke	u	n/a
300.699	0.089	601398	keystroke	e	n/a
300.908	0.075	601816	keystroke	n	n/a
301.029	0.089	602058	keystroke	t	n/a
301.104	0.075	602208	keystroke	l	n/a
301.269	0.059	602538	keystroke	y	n/a
301.373	0.12	602746	keystroke	Key.space	n/a
301.628	0.075	603256	keystroke	m	n/a
301.748	0.135	603496	keystroke	o	n/a
301.958	0.075	603916	keystroke	t	n/a
302.048	0.075	604096	keystroke	i	n/a
302.214	0.119	604428	keystroke	v	n/a
302.349	0.194	604698	keystroke	a	n/a
302.528	0.105	605056	keystroke	t	n/a
302.604	0.089	605208	keystroke	e	n/a
302.768	0.105	605536	keystroke	d	n/a
302.874	0.119	605748	keystroke	Key.space	n/a
303.038	0.075	606076	keystroke	p	n/a
303.263	0.105	606526	keystroke	l	n/a
303.324	0.089	606648	keystroke	e	n/a
303.398	0.15	606796	keystroke	a	n/a
303.863	0.09	607726	keystroke	s	n/a
303.924	0.149	607848	keystroke	a	n/a
303.968	0.09	607936	keystroke	n	n/a
304.178	0.105	608356	keystroke	t	n/a
304.748	0.06	609496	keystroke	Key.enter	n/a
304.8175	6.684	609635	prompt	n/a	out caribbean shore lenders\n
305.544	0.119	611088	keystroke	o	n/a
305.649	0.074	611298	keystroke	u	n/a
305.738	0.045	611476	keystroke	t	n/a
305.828	0.075	611656	keystroke	Key.space	n/a
306.113	0.06	612226	keystroke	c	n/a
306.294	0.179	612588	keystroke	a	n/a
306.488	0.12	612976	keystroke	r	n/a
306.654	0.044	613308	keystroke	i	n/a
306.849	0.059	613698	keystroke	b	n/a
307.193	0.045	614386	keystroke	b	n/a
307.464	0.075	614928	keystroke	e	n/a
307.674	0.15	615348	keystroke	a	n/a
307.779	0.104	615558	keystroke	n	n/a
307.928	0.135	615856	keystroke	Key.space	n/a
308.229	0.119	616458	keystroke	s	n/a
308.318	0.091	616636	keystroke	h	n/a
310.133	0.09	620266	keystroke	o	n/a
310.238	0.12	620476	keystroke	r	n/a
310.298	0.121	620596	keystroke	e	n/a
310.433	0.105	620866	keystroke	Key.space	n/a
310.598	0.091	621196	keystroke	l	n/a
310.703	0.075	621406	keystroke	e	n/a
310.794	0.06	621588	keystroke	n	n/a
310.913	0.06	621826	keystroke	d	n/a
311.094	0.09	622188	keystroke	e	n/a
311.154	0.075	622308	keystroke	r	n/a
311.334	0.12	622668	keystroke	s	n/a
311.438	0.06	622876	keystroke	Key.enter	n/a
311.5115	6.784	623023	prompt	n/a	foundation very oracle bone\n
312.234	0.075	624468	keystroke	f	n/a
312.264	0.089	624528	keystroke	o	n/a
312.383	0.076	624766	keystroke	u	n/a
312.474	0.075	624948	keystroke	t	n/a
312.714	0.21	625428	keystroke	a	n/a
313.283	0.045	626566	keystroke	Key.backspace	n/a
313.433	0.045	626866	keystroke	Key.backspace	n/a
314.6935	0.0605	629387	keystroke	n	n/a
314.9635	0.09	629927	keystroke	d	n/a
315.0535	0.195	630107	keystroke	a	n/a
315.1735	0.089	630347	keystroke	t	n/a
315.2325	0.18	630465	keystroke	i	n/a
315.324	0.1045	630648	keystroke	o	n/a
315.3835	0.1055	630767	keystroke	n	n/a
315.4435	0.135	630887	keystroke	Key.space	n/a
315.6535	0.0595	631307	keystroke	v	n/a
315.8035	0.135	631607	keystroke	e	n/a
315.8935	0.119	631787	keystroke	r	n/a
315.9835	0.06	631967	keystroke	y	n/a
316.1025	0.165	632205	keystroke	Key.space	n/a
316.4485	0.105	632897	keystroke	o	n/a
316.5685	0.105	633137	keystroke	r	n/a
316.6585	0.104	633317	keystroke	a	n/a
316.8685	0.06	633737	keystroke	c	n/a
316.9585	0.105	633917	keystroke	l	n/a
317.0485	0.105	634097	keystroke	e	n/a
317.1375	0.12	634275	keystroke	Key.space	n/a
317.3185	0.029	634637	keystroke	b	n/a
317.4385	0.12	634877	keystroke	o	n/a
317.9635	0.09	635927	keystroke	n	n/a
318.0685	0.075	636137	keystroke	e	n/a
318.1735	0.12	636347	keystroke	Key.enter	n/a
318.301	11.3645	636602	prompt	n/a	wonderful supporters toyota christianity\n
319.0735	0.075	638147	keystroke	w	n/a
319.1785	0.104	638357	keystroke	o	n/a
319.2375	0.121	638475	keystroke	n	n/a
319.3435	0.045	638687	keystroke	d	n/a
319.4635	0.12	638927	keystroke	e	n/a
319.5535	0.06	639107	keystroke	r	n/a
319.7485	0.105	639497	keystroke	f	n/a
319.8075	0.046	639615	keystroke	u	n/a
319.9435	0.09	639887	keystroke	l	n/a
320.0635	0.09	640127	keystroke	Key.space	n/a
320.2885	0.12	640577	keystroke	s	n/a
320.3185	0.06	640637	keystroke	u	n/a
320.5285	0.06	641057	keystroke	p	n/a
320.6635	0.105	641327	keystroke	p	n/a
320.8135	0.12	641627	keystroke	o	n/a
320.9035	0.059	641807	keystroke	r	n/a
321.0685	0.06	642137	keystroke	t	n/a
321.1585	0.15	642317	keystroke	e	n/a
321.2935	0.09	642587	keystroke	r	n/a
321.3535	0.104	642707	keystroke	e	n/a
322.2985	0.045	644597	keystroke	Key.backspace	n/a
322.6135	0.12	645227	keystroke	s	n/a
322.9435	0.104	645887	keystroke	Key.space	n/a
323.4685	0.075	646937	keystroke	t	n/a
323.5735	0.06	647147	keystroke	o	n/a
324.0235	0.06	648047	keystroke	y	n/a
324.4585	0.12	648917	keystroke	o	n/a
324.6235	0.12	649247	keystroke	t	n/a
324.7135	0.165	649427	keystroke	a	n/a
324.9225	0.09	649845	keystroke	Key.space	n/a
325.1635	0.105	650327	keystroke	c	n/a
325.2985	0.089	650597	keystroke	h	n/a
327.6115	0.027	655223	keystroke	r	n/a
327.6385	0.075	655277	keystroke	i	n/a
327.7435	0.135	655487	keystroke	s	n/a
328.3285	0.135	656657	keystroke	t	n/a
328.4485	0.06	656897	keystroke	i	n/a
328.5835	0.225	657167	keystroke	a	n/a
328.7035	0.075	657407	keystroke	n	n/a
328.8985	0.075	657797	keystroke	i	n/a
328.9885	0.12	657977	keystroke	t	n/a
329.0785	0.075	658157	keystroke	y	n/a
329.5735	0.09	659147	keystroke	Key.enter	n/a
329.671	11.814	659342	prompt	n/a	kurt counsel calgary kissing\n
330.5785	0.075	661157	keystroke	k	n/a
330.7885	0.135	661577	keystroke	r	n/a
331.5985	0.09	663197	keystroke	Key.backspace	n/a
331.9735	0.06	663947	keystroke	u	n/a
332.0785	0.12	664157	keystroke	r	n/a
332.3335	0.075	664667	keystroke	t	n/a
332.4535	0.045	664907	keystroke	Key.space	n/a
333.6535	0.06	667307	keystroke	c	n/a
333.7285	0.105	667457	keystroke	o	n/a
333.8485	0.06	667697	keystroke	u	n/a
334.0285	0.075	668057	keystroke	n	n/a
334.7035	0.135	669407	keystroke	s	n/a
334.7635	0.105	669527	keystroke	e	n/a
334.9135	0.105	669827	keystroke	l	n/a
335.0335	0.12	670067	keystroke	Key.space	n/a
335.2885	0.105	670577	keystroke	c	n/a
335.6635	0.135	671327	keystroke	a	n/a
335.8135	0.105	671627	keystroke	l	n/a
335.9785	0.15	671957	keystroke	a	n/a
336.7585	0.105	673517	keystroke	Key.backspace	n/a
336.9835	0.12	673967	keystroke	g	n/a
337.2085	0.15	674417	keystroke	a	n/a
337.4035	0.105	674807	keystroke	r	n/a
337.4785	0.075	674957	keystroke	y	n/a
338.0635	0.105	676127	keystroke	Key.space	n/a
338.2735	0.105	676547	keystroke	k	n/a
340.1635	0.06	680327	keystroke	i	n/a
340.8085	0.06	681617	keystroke	s	n/a
340.9435	0.12	681887	keystroke	s	n/a
341.0485	0.12	682097	keystroke	i	n/a
341.1385	0.09	682277	keystroke	n	n/a
341.1835	0.075	682367	keystroke	g	n/a
341.4085	0.075	682817	keystroke	Key.enter	n/a
341.4905	7.5545	682981	prompt	n/a	audio sacred singing windsor\n
342.3385	0.15	684677	keystroke	a	n/a
342.4135	0.06	684827	keystroke	u	n/a
342.6235	0.09	685247	keystroke	d	n/a
342.6835	0.045	685367	keystroke	i	n/a
342.8035	0.105	685607	keystroke	o	n/a
342.8635	0.12	685727	keystroke	Key.space	n/a
343.2985	0.075	686597	keystroke	s	n/a
343.6285	0.165	687257	keystroke	a	n/a
344.1085	0.105	688217	keystroke	c	n/a
344.4835	0.135	688967	keystroke	r	n/a
344.5285	0.105	689057	keystroke	e	n/a
344.7385	0.075	689477	keystroke	d	n/a
344.8285	0.105	689657	keystroke	Key.space	n/a
345.0385	0.12	690077	keystroke	s	n/a
345.1135	0.135	690227	keystroke	i	n/a
345.2035	0.075	690407	keystroke	n	n/a
345.2935	0.045	690587	keystroke	g	n/a
345.3985	0.12	690797	keystroke	i	n/a
345.4885	0.075	690977	keystroke	n	n/a
345.5485	0.06	691097	keystroke	g	n/a
345.6235	0.09	691247	keystroke	Key.space	n/a
345.8335	0.105	691667	keystroke	w	n/a
345.9235	0.075	691847	keystroke	i	n/a
346.1035	0.09	692207	keystroke	n	n/a
346.2235	0.045	692447	keystroke	d	n/a
346.4185	0.105	692837	keystroke	e	n/a
347.8285	0.06	695657	keystroke	Key.backspace	n/a
348.0985	0.12	696197	keystroke	s	n/a
348.2035	0.06	696407	keystroke	o	n/a
348.2935	0.105	696587	keystroke	r	n/a
348.9685	0.075	697937	keystroke	Key.enter	n/a
349.0495	11.6065	698099	prompt	n/a	folding independent subjects istanbul\n
349.7335	0.075	699467	keystroke	f	n/a
349.8235	0.075	699647	keystroke	o	n/a
350.0335	0.075	700067	keystroke	l	n/a
350.7985	0.105	701597	keystroke	d	n/a
350.8585	0.12	701717	keystroke	i	n/a
350.9485	0.105	701897	keystroke	n	n/a
351.0085	0.075	702017	keystroke	g	n/a
351.0685	0.09	702137	keystroke	Key.space	n/a
351.4585	0.12	702917	keystroke	i	n/a
351.5035	0.105	703007	keystroke	n	n/a
351.6835	0.075	703367	keystroke	d	n/a
352.1485	0.075	704297	keystroke	e	n/a
352.3285	0.075	704657	keystroke	p	n/a
352.4935	0.06	704987	keystroke	e	n/a
352.5685	0.075	705137	keystroke	n	n/a
352.7185	0.045	705437	keystroke	d	n/a
352.8685	0.045	705737	keystroke	e	n/a
352.9735	0.09	705947	keystroke	n	n/a
353.0935	0.075	706187	keystroke	t	n/a
353.2285	0.12	706457	keystroke	Key.space	n/a
353.4385	0.12	706877	keystroke	s	n/a
353.4985	0.045	706997	keystroke	u	n/a
353.6935	0.06	707387	keystroke	b	n/a
354.0535	0.075	708107	keystroke	j	n/a
354.1735	0.06	708347	keystroke	e	n/a
354.6235	0.105	709247	keystroke	c	n/a
354.7585	0.09	709517	keystroke	t	n/a
355.0145	0.119	710029	keystroke	s	n/a
355.1485	0.015	710297	keystroke	Key.space	n/a
355.9735	0.09	711947	keystroke	i	n/a
356.1835	0.12	712367	keystroke	s	n/a
356.3635	0.09	712727	keystroke	t	n/a
356.4385	0.18	712877	keystroke	a	n/a
356.5735	0.075	713147	keystroke	n	n/a
356.5885	0.075	713177	keystroke	b	n/a
358.886	0	717772	keystroke	u	n/a
359.078	0.015	718156	keystroke	l	n/a
360.578	0.075	721156	keystroke	Key.enter	n/a
360.6605	9.0545	721321	prompt	n/a	critical impose friendly mods\n
361.448	0.105	722896	keystroke	c	n/a
361.718	0.09	723436	keystroke	r	n/a
361.838	0.075	723676	keystroke	i	n/a
361.958	0.06	723916	keystroke	t	n/a
362.063	0.06	724126	keystroke	i	n/a
362.168	0.12	724336	keystroke	c	n/a
362.273	0.15	724546	keystroke	a	n/a
362.363	0.09	724726	keystroke	l	n/a
362.438	0.12	724876	keystroke	Key.space	n/a
362.648	0.135	725296	keystroke	i	n/a
362.753	0.12	725506	keystroke	m	n/a
362.948	0.18	725896	keystroke	p	n/a
363.638	0.12	727276	keystroke	o	n/a
363.713	0.135	727426	keystroke	r	n/a
363.773	0.135	727546	keystroke	e	n/a
364.628	0.075	729256	keystroke	Key.backspace	n/a
364.778	0.06	729556	keystroke	Key.backspace	n/a
364.958	0.135	729916	keystroke	s	n/a
365.018	0.105	730036	keystroke	e	n/a
365.558	0.135	731116	keystroke	Key.space	n/a
365.813	0.06	731626	keystroke	f	n/a
365.903	0.06	731806	keystroke	i	n/a
366.443	0.045	732886	keystroke	Key.backspace	n/a
367.268	0.105	734536	keystroke	r	n/a
367.448	0.075	734896	keystroke	i	n/a
367.778	0.09	735556	keystroke	e	n/a
368.348	0.06	736696	keystroke	n	n/a
368.438	0.09	736876	keystroke	d	n/a
368.514	0.074	737028	keystroke	l	n/a
368.648	0.06	737296	keystroke	y	n/a
368.738	0.135	737476	keystroke	Key.space	n/a
368.933	0.06	737866	keystroke	m	n/a
369.053	0.12	738106	keystroke	o	n/a
369.233	0.105	738466	keystroke	d	n/a
369.518	0.135	739036	keystroke	s	n/a
369.638	0.075	739276	keystroke	Key.enter	n/a
369.7205	7.2405	739441	prompt	n/a	david codes mightn't pattern\n
370.509	0.059	741018	keystroke	d	n/a
370.658	0.135	741316	keystroke	a	n/a
370.898	0.12	741796	keystroke	v	n/a
371.123	0.06	742246	keystroke	i	n/a
371.228	0.075	742456	keystroke	d	n/a
371.363	0.135	742726	keystroke	Key.space	n/a
371.603	0.075	743206	keystroke	c	n/a
371.663	0.09	743326	keystroke	o	n/a
371.858	0.045	743716	keystroke	d	n/a
372.008	0.06	744016	keystroke	e	n/a
372.188	0.12	744376	keystroke	s	n/a
372.293	0.105	744586	keystroke	Key.space	n/a
373.778	0.061	747556	keystroke	m	n/a
373.883	0.105	747766	keystroke	i	n/a
374.048	0.091	748096	keystroke	g	n/a
374.123	0.06	748246	keystroke	h	n/a
374.258	0.105	748516	keystroke	t	n/a
374.678	0.075	749356	keystroke	n	n/a
374.828	0.075	749656	keystroke	'	n/a
375.053	0.075	750106	keystroke	t	n/a
375.578	0.12	751156	keystroke	Key.space	n/a
375.893	0.09	751786	keystroke	p	n/a
376.088	0.15	752176	keystroke	a	n/a
376.268	0.06	752536	keystroke	t	n/a
376.403	0.045	752806	keystroke	t	n/a
376.478	0.1045	752956	keystroke	e	n/a
376.5675	0.09	753135	keystroke	r	n/a
376.6425	0.105	753285	keystroke	n	n/a
376.898	0.0595	753796	keystroke	Key.enter	n/a
376.9655	7.9595	753931	prompt	n/a	short wellness exhaust inputs\n
377.6635	0.1345	755327	keystroke	s	n/a
377.7375	0.0755	755475	keystroke	h	n/a
377.9925	0.09	755985	keystroke	o	n/a
378.1135	0.06	756227	keystroke	r	n/a
378.2925	0.0605	756585	keystroke	t	n/a
378.413	0.1195	756826	keystroke	Key.space	n/a
379.0125	0.135	758025	keystroke	w	n/a
379.2225	0.105	758445	keystroke	l	n/a
380.4675	0.075	760935	keystroke	Key.backspace	n/a
380.6635	0.059	761327	keystroke	e	n/a
380.8875	0.061	761775	keystroke	l	n/a
381.0225	0.075	762045	keystroke	l	n/a
381.278	0.0595	762556	keystroke	n	n/a
381.3385	0.074	762677	keystroke	e	n/a
381.5775	0.045	763155	keystroke	s	n/a
381.6825	0.12	763365	keystroke	s	n/a
381.8035	0.134	763607	keystroke	Key.space	n/a
382.1175	0.061	764235	keystroke	e	n/a
382.3285	0.119	764657	keystroke	x	n/a
382.6725	0.09	765345	keystroke	h	n/a
382.7325	0.165	765465	keystroke	a	n/a
382.9575	0.06	765915	keystroke	u	n/a
383.1675	0.165	766335	keystroke	s	n/a
383.4535	0.09	766907	keystroke	t	n/a
383.5575	0.135	767115	keystroke	Key.space	n/a
383.8275	0.091	767655	keystroke	i	n/a
383.9475	0.045	767895	keystroke	n	n/a
384.1135	0.119	768227	keystroke	p	n/a
384.1725	0.105	768345	keystroke	u	n/a
384.2925	0.09	768585	keystroke	t	n/a
384.4125	0.105	768825	keystroke	s	n/a
384.8775	0.045	769755	keystroke	Key.enter	n/a
384.931	7.7055	769862	prompt	n/a	status plot scuba forum\n
385.7485	0.149	771497	keystroke	a	n/a
386.7675	0.075	773535	keystroke	Key.backspace	n/a
386.9925	0.12	773985	keystroke	s	n/a
387.2775	0.045	774555	keystroke	t	n/a
387.3675	0.121	774735	keystroke	a	n/a
387.4725	0.075	774945	keystroke	t	n/a
387.5635	0.044	775127	keystroke	u	n/a
387.6375	0.135	775275	keystroke	s	n/a
387.7575	0.15	775515	keystroke	Key.space	n/a
388.1025	0.075	776205	keystroke	p	n/a
388.3275	0.06	776655	keystroke	l	n/a
388.4785	0.074	776957	keystroke	o	n/a
388.5535	0.06	777107	keystroke	t	n/a
388.7025	0.105	777405	keystroke	Key.space	n/a
388.9725	0.106	777945	keystroke	s	n/a
389.1985	0.104	778397	keystroke	c	n/a
389.2885	0.059	778577	keystroke	u	n/a
389.6175	0.061	779235	keystroke	b	n/a
389.7385	0.149	779477	keystroke	a	n/a
389.9175	0.135	779835	keystroke	Key.space	n/a
390.788	0.045	781576	keystroke	f	n/a
390.863	0.105	781726	keystroke	o	n/a
390.953	0.0755	781906	keystroke	r	n/a
391.043	0.06	782086	keystroke	u	n/a
391.208	0.075	782416	keystroke	m	n/a
392.543	0.09	785086	keystroke	Key.enter	n/a
392.642	7.808	785284	prompt	n/a	efficiently activities inclusion cruz\n
393.443	0.06	786886	keystroke	e	n/a
393.728	0.03	787456	keystroke	f	n/a
393.833	0.075	787666	keystroke	f	n/a
393.923	0.075	787846	keystroke	i	n/a
394.028	0.075	788056	keystroke	c	n/a
394.133	0.06	788266	keystroke	i	n/a
394.733	0.075	789466	keystroke	e	n/a
394.823	0.045	789646	keystroke	n	n/a
394.913	0.075	789826	keystroke	t	n/a
394.973	0.075	789946	keystroke	l	n/a
395.228	0.06	790456	keystroke	y	n/a
395.438	0.135	790876	keystroke	Key.space	n/a
395.738	0.135	791476	keystroke	a	n/a
395.978	0.105	791956	keystroke	c	n/a
396.308	0.06	792616	keystroke	t	n/a
396.398	0.075	792796	keystroke	i	n/a
396.578	0.075	793156	keystroke	v	n/a
396.683	0.075	793366	keystroke	i	n/a
397.073	0.06	794146	keystroke	t	n/a
397.148	0.06	794296	keystroke	i	n/a
397.223	0.09	794446	keystroke	e	n/a
397.433	0.12	794866	keystroke	s	n/a
397.523	0.12	795046	keystroke	Key.space	n/a
397.703	0.105	795406	keystroke	i	n/a
397.793	0.075	795586	keystroke	n	n/a
397.958	0.045	795916	keystroke	c	n/a
398.018	0.09	796036	keystroke	l	n/a
398.138	0.075	796276	keystroke	u	n/a
398.288	0.15	796576	keystroke	s	n/a
398.378	0.075	796756	keystroke	i	n/a
398.483	0.12	796966	keystroke	o	n/a
398.543	0.105	797086	keystroke	n	n/a
398.633	0.09	797266	keystroke	Key.space	n/a
398.888	0.06	797776	keystroke	c	n/a
399.143	0.135	798286	keystroke	r	n/a
399.233	0.06	798466	keystroke	u	n/a
399.608	0.105	799216	keystroke	z	n/a
400.358	0.09	800716	keystroke	Key.enter	n/a
400.459	10.7915	800918	prompt	n/a	bruce sensors diana manufactured\n
401.228	0.075	802456	keystroke	b	n/a
401.648	0.06	803296	keystroke	u	n/a
402.548	0.06	805096	keystroke	Key.backspace	n/a
403.238	0.12	806476	keystroke	r	n/a
403.328	0.06	806656	keystroke	u	n/a
403.763	0.06	807526	keystroke	c	n/a
403.928	0.06	807856	keystroke	e	n/a
404.153	0.12	808306	keystroke	Key.space	n/a
404.453	0.12	808906	keystroke	s	n/a
405.938	0.045	811876	keystroke	e	n/a
405.998	0.075	811996	keystroke	n	n/a
406.403	0.15	812806	keystroke	s	n/a
406.538	0.12	813076	keystroke	o	n/a
406.613	0.12	813226	keystroke	r	n/a
406.868	0.12	813736	keystroke	s	n/a
406.973	0.105	813946	keystroke	Key.space	n/a
407.303	0.105	814606	keystroke	d	n/a
407.393	0.06	814786	keystroke	i	n/a
407.678	0.15	815356	keystroke	a	n/a
408.203	0.075	816406	keystroke	n	n/a
408.263	0.15	816526	keystroke	a	n/a
408.428	0.105	816856	keystroke	Key.space	n/a
408.623	0.105	817246	keystroke	m	n/a
409.118	0.12	818236	keystroke	a	n/a
409.268	0.06	818536	keystroke	n	n/a
409.433	0.06	818866	keystroke	u	n/a
409.688	0.09	819376	keystroke	f	n/a
409.763	0.12	819526	keystroke	a	n/a
410.018	0.105	820036	keystroke	c	n/a
410.213	0.09	820426	keystroke	t	n/a
410.318	0.09	820636	keystroke	u	n/a
410.423	0.135	820846	keystroke	r	n/a
410.498	0.105	820996	keystroke	e	n/a
410.993	0.135	821986	keystroke	s	n/a
411.158	0.09	822316	keystroke	Key.enter	n/a
411.258	7.027	822516	prompt	n/a	semester length shake israel\n
412.058	0.09	824116	keystroke	s	n/a
412.208	0.12	824416	keystroke	e	n/a
412.403	0.105	824806	keystroke	m	n/a
412.523	0.09	825046	keystroke	e	n/a
412.748	0.12	825496	keystroke	s	n/a
412.883	0.045	825766	keystroke	t	n/a
412.988	0.12	825976	keystroke	e	n/a
413.063	0.105	826126	keystroke	r	n/a
413.183	0.135	826366	keystroke	Key.space	n/a
413.348	0.09	826696	keystroke	l	n/a
413.453	0.06	826906	keystroke	e	n/a
413.588	0.12	827176	keystroke	n	n/a
414.128	0.09	828256	keystroke	g	n/a
414.788	0.105	829576	keystroke	t	n/a
414.878	0.075	829756	keystroke	h	n/a
415.013	0.135	830026	keystroke	Key.space	n/a
415.358	0.135	830716	keystroke	s	n/a
415.463	0.09	830926	keystroke	h	n/a
415.568	0.165	831136	keystroke	a	n/a
415.748	0.09	831496	keystroke	k	n/a
415.823	0.09	831646	keystroke	e	n/a
415.973	0.12	831946	keystroke	Key.space	n/a
416.543	0.09	833086	keystroke	i	n/a
416.648	0.105	833296	keystroke	s	n/a
416.918	0.12	833836	keystroke	r	n/a
417.008	0.165	834016	keystroke	a	n/a
417.713	0.105	835426	keystroke	e	n/a
417.803	0.075	835606	keystroke	l	n/a
418.208	0.075	836416	keystroke	Key.enter	n/a
418.289	6.4915	836578	prompt	n/a	magnetic convenient experts finish\n
419.048	0.075	838096	keystroke	m	n/a
419.138	0.15	838276	keystroke	a	n/a
419.363	0.12	838726	keystroke	g	n/a
419.663	0.09	839326	keystroke	n	n/a
419.768	0.105	839536	keystroke	e	n/a
419.978	0.06	839956	keystroke	t	n/a
420.053	0.075	840106	keystroke	i	n/a
420.188	0.075	840376	keystroke	c	n/a
420.293	0.135	840586	keystroke	Key.space	n/a
420.533	0.105	841066	keystroke	c	n/a
420.593	0.135	841186	keystroke	o	n/a
420.668	0.105	841336	keystroke	n	n/a
421.058	0.09	842116	keystroke	v	n/a
421.373	0.09	842746	keystroke	e	n/a
421.688	0.06	843376	keystroke	n	n/a
421.823	0.105	843646	keystroke	i	n/a
421.958	0.075	843916	keystroke	e	n/a
422.093	0.09	844186	keystroke	n	n/a
422.198	0.106	844396	keystroke	t	n/a
422.288	0.1045	844576	keystroke	Key.space	n/a
422.4525	0.105	844905	keystroke	e	n/a
422.693	0.135	845386	keystroke	x	n/a
422.8125	0.0905	845625	keystroke	p	n/a
422.9775	0.151	845955	keystroke	e	n/a
423.0825	0.0755	846165	keystroke	r	n/a
423.2625	0.075	846525	keystroke	t	n/a
423.4275	0.12	846855	keystroke	s	n/a
423.5175	0.1205	847035	keystroke	Key.space	n/a
423.7875	0.075	847575	keystroke	f	n/a
423.8475	0.06	847695	keystroke	i	n/a
424.0275	0.075	848055	keystroke	n	n/a
424.1175	0.09	848235	keystroke	i	n/a
424.2225	0.136	848445	keystroke	s	n/a
424.2825	0.09	848565	keystroke	h	n/a
424.6725	0.105	849345	keystroke	Key.enter	n/a
424.7855	9.0845	849571	prompt	n/a	peak ears trivia timing\n
425.588	0.015	851176	keystroke	p	n/a
425.813	0.015	851626	keystroke	p	n/a
426.398	0.075	852796	keystroke	Key.backspace	n/a
426.653	0.135	853306	keystroke	e	n/a
426.758	0.075	853516	keystroke	r	n/a
427.748	0.06	855496	keystroke	Key.backspace	n/a
427.853	0.15	855706	keystroke	a	n/a
429.008	0.075	858016	keystroke	k	n/a
429.743	0.105	859486	keystroke	Key.space	n/a
429.968	0.06	859936	keystroke	e	n/a
430.088	0.225	860176	keystroke	a	n/a
430.373	0.105	860746	keystroke	r	n/a
430.598	0.09	861196	keystroke	s	n/a
430.673	0.135	861346	keystroke	Key.space	n/a
430.883	0.09	861766	keystroke	t	n/a
431.168	0.075	862336	keystroke	r	n/a
431.228	0.09	862456	keystroke	i	n/a
431.438	0.105	862876	keystroke	v	n/a
431.588	0.09	863176	keystroke	i	n/a
431.708	0.165	863416	keystroke	a	n/a
431.858	0.135	863716	keystroke	Key.space	n/a
432.053	0.105	864106	keystroke	t	n/a
432.143	0.105	864286	keystroke	i	n/a
432.233	0.075	864466	keystroke	m	n/a
432.368	0.12	864736	keystroke	i	n/a
432.503	0.105	865006	keystroke	n	n/a
432.623	0.03	865246	keystroke	g	n/a
433.778	0.09	867556	keystroke	Key.enter	n/a
433.8755	5.214	867751	prompt	n/a	brands pope paper message\n
434.618	0.075	869236	keystroke	b	n/a
434.858	0.09	869716	keystroke	r	n/a
434.933	0.12	869866	keystroke	a	n/a
435.023	0.09	870046	keystroke	n	n/a
435.114	0.089	870228	keystroke	d	n/a
435.698	0.135	871396	keystroke	s	n/a
435.788	0.12	871576	keystroke	Key.space	n/a
436.028	0.105	872056	keystroke	p	n/a
436.283	0.075	872566	keystroke	o	n/a
436.493	0.12	872986	keystroke	p	n/a
436.658	0.075	873316	keystroke	e	n/a
436.763	0.135	873526	keystroke	Key.space	n/a
437.123	0.135	874246	keystroke	p	n/a
437.273	0.15	874546	keystroke	a	n/a
437.438	0.105	874876	keystroke	p	n/a
437.528	0.105	875056	keystroke	e	n/a
437.603	0.075	875206	keystroke	r	n/a
437.708	0.135	875416	keystroke	Key.space	n/a
437.903	0.09	875806	keystroke	m	n/a
438.038	0.06	876076	keystroke	e	n/a
438.233	0.06	876466	keystroke	s	n/a
438.353	0.12	876706	keystroke	s	n/a
438.458	0.15	876916	keystroke	a	n/a
438.593	0.075	877186	keystroke	g	n/a
438.653	0.12	877306	keystroke	e	n/a
438.983	0.105	877966	keystroke	Key.enter	n/a
439.0945	11.425	878189	prompt	n/a	unwrap become yeast euro\n
439.748	0.06	879496	keystroke	u	n/a
439.928	0.075	879856	keystroke	n	n/a
440.078	0.09	880156	keystroke	r	n/a
441.038	0.075	882076	keystroke	Key.backspace	n/a
441.158	0.12	882316	keystroke	w	n/a
442.223	0.12	884446	keystroke	r	n/a
442.298	0.165	884596	keystroke	a	n/a
442.523	0.12	885046	keystroke	p	n/a
442.673	0.15	885346	keystroke	Key.space	n/a
442.868	0.075	885736	keystroke	b	n/a
442.958	0.06	885916	keystroke	e	n/a
443.213	0.075	886426	keystroke	c	n/a
443.273	0.15	886546	keystroke	a	n/a
443.348	0.12	886696	keystroke	o	n/a
443.423	0.075	886846	keystroke	m	n/a
444.398	0.105	888796	keystroke	Key.backspace	n/a
445.088	0.09	890176	keystroke	Key.backspace	n/a
445.388	0.06	890776	keystroke	m	n/a
445.673	0.06	891346	keystroke	e	n/a
446.528	0.09	893056	keystroke	Key.space	n/a
446.753	0.06	893506	keystroke	y	n/a
446.888	0.15	893776	keystroke	e	n/a
447.008	0.21	894016	keystroke	a	n/a
447.713	0.12	895426	keystroke	s	n/a
447.788	0.09	895576	keystroke	t	n/a
448.073	0.12	896146	keystroke	Key.space	n/a
448.508	0.09	897016	keystroke	e	n/a
448.823	0.06	897646	keystroke	r	n/a
448.853	0.09	897706	keystroke	u	n/a
449.558	0.06	899116	keystroke	Key.backspace	n/a
449.678	0.06	899356	keystroke	Key.backspace	n/a
449.903	0.06	899806	keystroke	u	n/a
450.038	0.105	900076	keystroke	r	n/a
450.128	0.075	900256	keystroke	o	n/a
450.443	0.075	900886	keystroke	Key.enter	n/a
450.5255	11.005	901051	prompt	n/a	alternatives communist vista burden\n
451.253	0.135	902506	keystroke	a	n/a
451.838	0.12	903676	keystroke	l	n/a
452.108	0.06	904216	keystroke	t	n/a
452.228	0.165	904456	keystroke	e	n/a
452.333	0.105	904666	keystroke	r	n/a
453.863	0.0895	907726	keystroke	n	n/a
453.938	0.1345	907876	keystroke	a	n/a
454.1175	0.0755	908235	keystroke	t	n/a
454.208	0.09	908416	keystroke	i	n/a
454.328	0.12	908656	keystroke	v	n/a
454.4025	0.1055	908805	keystroke	e	n/a
454.7325	0.12	909465	keystroke	s	n/a
454.8375	0.09	909675	keystroke	Key.space	n/a
455.2875	0.12	910575	keystroke	c	n/a
455.3775	0.06	910755	keystroke	o	n/a
455.6625	0.045	911325	keystroke	m	n/a
455.798	0.0295	911596	keystroke	m	n/a
455.9775	0.015	911955	keystroke	u	n/a
456.0975	0.12	912195	keystroke	n	n/a
456.2025	0.1055	912405	keystroke	i	n/a
456.3525	0.135	912705	keystroke	s	n/a
456.4875	0.06	912975	keystroke	t	n/a
456.6375	0.12	913275	keystroke	Key.space	n/a
457.1775	0.06	914355	keystroke	v	n/a
457.2525	0.031	914505	keystroke	i	n/a
457.4175	0.09	914835	keystroke	s	n/a
457.8075	0.105	915615	keystroke	t	n/a
457.8825	0.045	915765	keystroke	q	n/a
457.9135	0.089	915827	keystroke	a	n/a
459.0375	0.045	918075	keystroke	Key.backspace	n/a
459.1575	0.075	918315	keystroke	Key.backspace	n/a
459.2625	0.135	918525	keystroke	a	n/a
460.1025	0.105	920205	keystroke	Key.space	n/a
460.4025	0.045	920805	keystroke	b	n/a
460.6275	0.06	921255	keystroke	u	n/a
460.7925	0.0905	921585	keystroke	r	n/a
461.033	0.045	922066	keystroke	d	n/a
461.183	0.09	922366	keystroke	e	n/a
461.258	0.075	922516	keystroke	n	n/a
461.453	0.075	922906	keystroke	Key.enter	n/a
461.537	6.323	923074	prompt	n/a	thing mario fired facilitate\n
462.248	0.06	924496	keystroke	t	n/a
462.353	0.06	924706	keystroke	h	n/a
462.459	0.089	924918	keystroke	i	n/a
462.578	0.075	925156	keystroke	n	n/a
462.608	0.09	925216	keystroke	g	n/a
462.699	0.119	925398	keystroke	Key.space	n/a
462.938	0.09	925876	keystroke	m	n/a
463.013	0.18	926026	keystroke	a	n/a
463.208	0.12	926416	keystroke	r	n/a
463.268	0.075	926536	keystroke	i	n/a
463.388	0.105	926776	keystroke	o	n/a
463.478	0.105	926956	keystroke	Key.space	n/a
464.018	0.06	928036	keystroke	f	n/a
464.108	0.09	928216	keystroke	i	n/a
464.573	0.135	929146	keystroke	r	n/a
464.663	0.135	929326	keystroke	e	n/a
465.368	0.06	930736	keystroke	d	n/a
465.473	0.12	930946	keystroke	Key.space	n/a
466.208	0.12	932416	keystroke	f	n/a
466.313	0.15	932626	keystroke	a	n/a
466.733	0.12	933466	keystroke	c	n/a
466.838	0.045	933676	keystroke	i	n/a
466.988	0.12	933976	keystroke	l	n/a
467.123	0.075	934246	keystroke	i	n/a
467.213	0.075	934426	keystroke	t	n/a
467.318	0.195	934636	keystroke	a	n/a
467.498	0.105	934996	keystroke	t	n/a
467.573	0.09	935146	keystroke	e	n/a
467.753	0.105	935506	keystroke	Key.enter	n/a
467.8655	7.6605	935731	prompt	n/a	couldn't seeing bend assure\n
468.593	0.135	937186	keystroke	c	n/a
468.668	0.09	937336	keystroke	o	n/a
468.788	0.045	937576	keystroke	u	n/a
468.953	0.105	937906	keystroke	l	n/a
469.118	0.09	938236	keystroke	d	n/a
469.373	0.075	938746	keystroke	n	n/a
470.063	0.12	940126	keystroke	'	n/a
470.168	0.09	940336	keystroke	t	n/a
470.858	0.105	941716	keystroke	Key.space	n/a
471.143	0.105	942286	keystroke	s	n/a
471.368	0.03	942736	keystroke	e	n/a
471.473	0.105	942946	keystroke	e	n/a
471.593	0.15	943186	keystroke	i	n/a
471.713	0.045	943426	keystroke	n	n/a
471.728	0.045	943456	keystroke	g	n/a
471.788	0.075	943576	keystroke	Key.space	n/a
472.013	0.06	944026	keystroke	b	n/a
472.088	0.045	944176	keystroke	e	n/a
472.178	0.075	944356	keystroke	n	n/a
472.268	0.075	944536	keystroke	d	n/a
472.388	0.12	944776	keystroke	Key.space	n/a
473.078	0.075	946156	keystroke	s	n/a
473.858	0.075	947716	keystroke	Key.backspace	n/a
473.978	0.18	947956	keystroke	a	n/a
474.383	0.045	948766	keystroke	s	n/a
474.503	0.12	949006	keystroke	s	n/a
474.624	0.074	949248	keystroke	u	n/a
474.728	0.12	949456	keystroke	r	n/a
474.758	0.12	949516	keystroke	e	n/a
475.433	0.09	950866	keystroke	Key.enter	n/a
475.531	6.5635	951062	prompt	n/a	seven makes exposed meyer\n
476.648	0.12	953296	keystroke	s	n/a
476.828	0.105	953656	keystroke	e	n/a
477.083	0.075	954166	keystroke	v	n/a
477.143	0.12	954286	keystroke	e	n/a
477.278	0.12	954556	keystroke	n	n/a
477.413	0.135	954826	keystroke	Key.space	n/a
477.668	0.075	955336	keystroke	m	n/a
477.728	0.135	955456	keystroke	a	n/a
477.848	0.09	955696	keystroke	k	n/a
477.908	0.075	955816	keystroke	e	n/a
478.058	0.135	956116	keystroke	s	n/a
478.223	0.12	956446	keystroke	Key.space	n/a
478.853	0.075	957706	keystroke	e	n/a
479.078	0.12	958156	keystroke	x	n/a
479.243	0.135	958486	keystroke	p	n/a
479.468	0.105	958936	keystroke	o	n/a
479.753	0.165	959506	keystroke	s	n/a
479.843	0.12	959686	keystroke	e	n/a
480.128	0.105	960256	keystroke	d	n/a
480.248	0.12	960496	keystroke	Key.space	n/a
480.938	0.09	961876	keystroke	m	n/a
481.043	0.12	962086	keystroke	e	n/a
481.313	0.06	962626	keystroke	y	n/a
481.374	0.119	962748	keystroke	e	n/a
481.478	0.075	962956	keystroke	r	n/a
482.018	0.075	964036	keystroke	Key.enter	n/a
482.1005	11.2145	964201	prompt	n/a	ecological pack mathematical reaches\n
482.783	0.075	965566	keystroke	e	n/a
483.0075	0.12	966015	keystroke	c	n/a
483.129	0.0585	966258	keystroke	o	n/a
483.3375	0.0455	966675	keystroke	l	n/a
483.4725	0.0755	966945	keystroke	o	n/a
483.5625	0.075	967125	keystroke	g	n/a
483.6675	0.045	967335	keystroke	i	n/a
483.8925	0.09	967785	keystroke	c	n/a
483.9675	0.1505	967935	keystroke	a	n/a
484.0725	0.075	968145	keystroke	l	n/a
484.1625	0.1505	968325	keystroke	Key.space	n/a
484.298	0.1045	968596	keystroke	p	n/a
484.4175	0.105	968835	keystroke	a	n/a
484.6425	0.09	969285	keystroke	c	n/a
484.748	0.0445	969496	keystroke	k	n/a
485.1375	0.1055	970275	keystroke	Key.space	n/a
485.6325	0.105	971265	keystroke	m	n/a
485.873	0.1345	971746	keystroke	a	n/a
486.3075	0.12	972615	keystroke	t	n/a
486.4125	0.075	972825	keystroke	h	n/a
486.6375	0.12	973275	keystroke	e	n/a
486.9825	0.105	973965	keystroke	m	n/a
487.0575	0.15	974115	keystroke	a	n/a
487.2525	0.09	974505	keystroke	t	n/a
487.3275	0.075	974655	keystroke	i	n/a
487.7175	0.09	975435	keystroke	c	n/a
487.7925	0.165	975585	keystroke	a	n/a
487.9275	0.075	975855	keystroke	l	n/a
488.0325	0.105	976065	keystroke	Key.space	n/a
488.2725	0.135	976545	keystroke	r	n/a
488.3325	0.12	976665	keystroke	e	n/a
488.5575	0.135	977115	keystroke	a	n/a
488.7675	0.075	977535	keystroke	h	n/a
488.9025	0.15	977805	keystroke	s	n/a
489.0075	0.09	978015	keystroke	e	n/a
490.8375	0.105	981675	keystroke	Key.backspace	n/a
491.0475	0.06	982095	keystroke	Key.backspace	n/a
491.5425	0.195	983085	keystroke	s	n/a
492.2775	0.045	984555	keystroke	Key.backspace	n/a
492.3075	0.105	984615	keystroke	e	n/a
492.3825	0.18	984765	keystroke	s	n/a
493.2525	0.06	986505	keystroke	Key.enter	n/a
493.3235	12.891	986647	prompt	n/a	intelligence hazardous coleman automatic\n
494.3785	0.089	988757	keystroke	i	n/a
494.4825	0.075	988965	keystroke	n	n/a
494.7675	0.09	989535	keystroke	t	n/a
494.8275	0.12	989655	keystroke	e	n/a
495.2475	0.061	990495	keystroke	l	n/a
495.4125	0.09	990825	keystroke	l	n/a
495.7425	0.105	991485	keystroke	i	n/a
495.9975	0.105	991995	keystroke	g	n/a
496.0875	0.12	992175	keystroke	e	n/a
496.2225	0.075	992445	keystroke	n	n/a
496.4325	0.06	992865	keystroke	c	n/a
496.5825	0.12	993165	keystroke	e	n/a
496.7325	0.12	993465	keystroke	Key.space	n/a
497.2875	0.09	994575	keystroke	h	n/a
497.3925	0.135	994785	keystroke	a	n/a
497.6475	0.075	995295	keystroke	z	n/a
497.8575	0.135	995715	keystroke	a	n/a
498.1125	0.12	996225	keystroke	r	n/a
498.3975	0.12	996795	keystroke	d	n/a
498.4875	0.105	996975	keystroke	o	n/a
498.6075	0.075	997215	keystroke	u	n/a
498.7425	0.135	997485	keystroke	s	n/a
499.3725	0.12	998745	keystroke	Key.space	n/a
499.8675	0.105	999735	keystroke	c	n/a
499.9575	0.06	999915	keystroke	o	n/a
500.1675	0.105	1000335	keystroke	l	n/a
500.2575	0.09	1000515	keystroke	e	n/a
500.4375	0.045	1000875	keystroke	m	n/a
500.5425	0.12	1001085	keystroke	a	n/a
500.6175	0.105	1001235	keystroke	n	n/a
500.7525	0.135	1001505	keystroke	Key.space	n/a
502.4625	0.09	1004925	keystroke	s	n/a
503.2575	0.045	1006515	keystroke	Key.backspace	n/a
503.3625	0.18	1006725	keystroke	a	n/a
503.5725	0.075	1007145	keystroke	u	n/a
503.7975	0.105	1007595	keystroke	t	n/a
503.9035	0.074	1007807	keystroke	o	n/a
504.3375	0.105	1008675	keystroke	m	n/a
504.5025	0.165	1009005	keystroke	a	n/a
504.8175	0.105	1009635	keystroke	t	n/a
504.9525	0.09	1009905	keystroke	i	n/a
505.1175	0.105	1010235	keystroke	c	n/a
506.1075	0.105	1012215	keystroke	Key.enter	n/a
506.2185	7.421	1012437	prompt	n/a	face handbook oops kingston\n
507.6225	0.075	1015245	keystroke	f	n/a
507.6835	0.135	1015367	keystroke	a	n/a
507.8925	0.075	1015785	keystroke	c	n/a
508.0425	0.105	1016085	keystroke	e	n/a
508.1175	0.135	1016235	keystroke	Key.space	n/a
508.2825	0.06	1016565	keystroke	h	n/a
508.3575	0.135	1016715	keystroke	a	n/a
508.4635	0.074	1016927	keystroke	n	n/a
509.7675	0.06	1019535	keystroke	d	n/a
509.9325	0.075	1019865	keystroke	b	n/a
510.1435	0.059	1020287	keystroke	o	n/a
510.2775	0.061	1020555	keystroke	o	n/a
510.4885	0.014	1020977	keystroke	k	n/a
510.5625	0.12	1021125	keystroke	Key.space	n/a
511.2675	0.075	1022535	keystroke	o	n/a
511.6725	0.09	1023345	keystroke	o	n/a
511.8825	0.105	1023765	keystroke	p	n/a
512.1975	0.12	1024395	keystroke	s	n/a
512.3025	0.135	1024605	keystroke	Key.space	n/a
512.4675	0.06	1024935	keystroke	k	n/a
512.6325	0.105	1025265	keystroke	i	n/a
512.6925	0.12	1025385	keystroke	n	n/a
512.7975	0.09	1025595	keystroke	g	n/a
513.1275	0.135	1026255	keystroke	s	n/a
513.3525	0.075	1026705	keystroke	t	n/a
513.3835	0.12	1026767	keystroke	o	n/a
513.4725	0.075	1026945	keystroke	n	n/a
513.6225	0.015	1027245	keystroke	Key.enter	n/a
513.6445	4.271	1027289	prompt	n/a	duck user smith vitamin\n
514.5085	0.075	1029017	keystroke	d	n/a
514.5975	0.046	1029195	keystroke	u	n/a
514.8835	0.075	1029767	keystroke	c	n/a
514.9725	0.03	1029945	keystroke	k	n/a
515.0775	0.1195	1030155	keystroke	Key.space	n/a
515.2435	0.0885	1030487	keystroke	u	n/a
515.3475	0.1205	1030695	keystroke	s	n/a
515.4225	0.15	1030845	keystroke	e	n/a
515.542	0.1355	1031084	keystroke	r	n/a
515.7975	0.12	1031595	keystroke	Key.space	n/a
516.067	0.121	1032134	keystroke	s	n/a
516.142	0.09	1032284	keystroke	m	n/a
516.293	0.119	1032586	keystroke	i	n/a
516.398	0.074	1032796	keystroke	t	n/a
516.487	0.045	1032974	keystroke	h	n/a
516.5625	0.1045	1033125	keystroke	Key.space	n/a
516.863	0.105	1033726	keystroke	v	n/a
517.0725	0.0755	1034145	keystroke	i	n/a
517.192	0.09	1034384	keystroke	t	n/a
517.267	0.181	1034534	keystroke	a	n/a
517.433	0.104	1034866	keystroke	m	n/a
517.5675	0.1205	1035135	keystroke	i	n/a
517.673	0.09	1035346	keystroke	n	n/a
517.837	0.0765	1035674	keystroke	Key.enter	n/a
517.921	9.1435	1035842	prompt	n/a	require transparency involved posting\n
519.038	0.135	1038076	keystroke	r	n/a
519.082	0.151	1038164	keystroke	e	n/a
519.412	0.196	1038824	keystroke	q	n/a
519.503	0.06	1039006	keystroke	u	n/a
519.683	0.089	1039366	keystroke	i	n/a
519.742	0.136	1039484	keystroke	r	n/a
519.802	0.121	1039604	keystroke	e	n/a
519.952	0.135	1039904	keystroke	Key.space	n/a
520.162	0.106	1040324	keystroke	t	n/a
520.657	0.135	1041314	keystroke	r	n/a
520.748	0.164	1041496	keystroke	a	n/a
520.807	0.121	1041614	keystroke	n	n/a
521.092	0.091	1042184	keystroke	s	n/a
521.347	0.12	1042694	keystroke	p	n/a
521.408	0.164	1042816	keystroke	a	n/a
521.708	0.119	1043416	keystroke	r	n/a
521.783	0.089	1043566	keystroke	e	n/a
521.978	0.044	1043956	keystroke	n	n/a
522.068	0.12	1044136	keystroke	c	n/a
522.203	0.045	1044406	keystroke	y	n/a
522.352	0.15	1044704	keystroke	Key.space	n/a
522.592	0.046	1045184	keystroke	i	n/a
522.713	0.105	1045426	keystroke	n	n/a
523.223	0.06	1046446	keystroke	v	n/a
523.298	0.044	1046596	keystroke	o	n/a
523.553	0.09	1047106	keystroke	l	n/a
523.748	0.059	1047496	keystroke	v	n/a
523.838	0.119	1047676	keystroke	e	n/a
524.197	0.076	1048394	keystroke	d	n/a
524.257	0.15	1048514	keystroke	Key.space	n/a
524.633	0.09	1049266	keystroke	b	n/a
525.307	0.075	1050614	keystroke	Key.backspace	n/a
525.592	0.091	1051184	keystroke	p	n/a
525.788	0.075	1051576	keystroke	o	n/a
525.922	0.121	1051844	keystroke	s	n/a
526.448	0.074	1052896	keystroke	t	n/a
526.538	0.15	1053076	keystroke	i	n/a
526.613	0.12	1053226	keystroke	n	n/a
526.658	0.09	1053316	keystroke	g	n/a
526.973	0.089	1053946	keystroke	Key.enter	n/a
527.069	5.62	1054138	prompt	n/a	greater minds leadership caution\n
527.858	0.105	1055716	keystroke	g	n/a
528.113	0.135	1056226	keystroke	r	n/a
528.203	0.075	1056406	keystroke	e	n/a
528.263	0.21	1056526	keystroke	a	n/a
528.398	0.09	1056796	keystroke	t	n/a
528.458	0.285	1056916	keystroke	e	n/a
528.803	0.135	1057606	keystroke	r	n/a
528.997	0.135	1057994	keystroke	Key.space	n/a
529.433	0.059	1058866	keystroke	m	n/a
529.553	0.09	1059106	keystroke	i	n/a
529.658	0.09	1059316	keystroke	n	n/a
529.733	0.105	1059466	keystroke	d	n/a
529.853	0.135	1059706	keystroke	s	n/a
529.973	0.119	1059946	keystroke	Key.space	n/a
530.153	0.12	1060306	keystroke	l	n/a
530.258	0.075	1060516	keystroke	e	n/a
530.363	0.15	1060726	keystroke	a	n/a
530.528	0.105	1061056	keystroke	d	n/a
530.753	0.12	1061506	keystroke	e	n/a
530.843	0.09	1061686	keystroke	r	n/a
531.083	0.12	1062166	keystroke	s	n/a
531.158	0.075	1062316	keystroke	h	n/a
531.308	0.105	1062616	keystroke	i	n/a
531.443	0.045	1062886	keystroke	p	n/a
531.518	0.12	1063036	keystroke	Key.space	n/a
531.758	0.105	1063516	keystroke	c	n/a
531.833	0.165	1063666	keystroke	a	n/a
531.938	0.075	1063876	keystroke	u	n/a
532.193	0.075	1064386	keystroke	t	n/a
532.253	0.06	1064506	keystroke	i	n/a
532.298	0.195	1064596	keystroke	o	n/a
532.433	0.075	1064866	keystroke	n	n/a
532.643	0.044	1065286	keystroke	Key.enter	n/a
532.6945	6.895	1065389	prompt	n/a	cape resolve gate slideshow\n
533.648	0.135	1067296	keystroke	c	n/a
533.798	0.135	1067596	keystroke	a	n/a
533.903	0.135	1067806	keystroke	p	n/a
534.023	0.105	1068046	keystroke	e	n/a
534.113	0.15	1068226	keystroke	Key.space	n/a
534.338	0.135	1068676	keystroke	r	n/a
534.398	0.105	1068796	keystroke	e	n/a
534.863	0.165	1069726	keystroke	s	n/a
534.908	0.09	1069816	keystroke	o	n/a
535.448	0.09	1070896	keystroke	l	n/a
535.553	0.12	1071106	keystroke	v	n/a
535.643	0.12	1071286	keystroke	e	n/a
535.778	0.15	1071556	keystroke	Key.space	n/a
536.543	0.105	1073086	keystroke	g	n/a
536.633	0.15	1073266	keystroke	a	n/a
536.828	0.165	1073656	keystroke	t	n/a
536.888	0.135	1073776	keystroke	e	n/a
537.083	0.165	1074166	keystroke	Key.space	n/a
537.308	0.135	1074616	keystroke	s	n/a
537.953	0.075	1075906	keystroke	l	n/a
538.118	0.075	1076236	keystroke	i	n/a
538.2975	0.045	1076595	keystroke	d	n/a
538.448	0.0745	1076896	keystroke	e	n/a
538.733	0.105	1077466	keystroke	s	n/a
538.808	0.06	1077616	keystroke	h	n/a
538.913	0.09	1077826	keystroke	o	n/a
538.988	0.12	1077976	keystroke	w	n/a
539.498	0.09	1078996	keystroke	Key.enter	n/a
539.595	7.255	1079190	prompt	n/a	atomic skip mali keep\n
540.3225	0.15	1080645	keystroke	a	n/a
540.4575	0.105	1080915	keystroke	t	n/a
540.6375	0.12	1081275	keystroke	o	n/a
540.8925	0.06	1081785	keystroke	m	n/a
540.9825	0.06	1081965	keystroke	i	n/a
541.673	0.0745	1083346	keystroke	n	n/a
542.5725	0.045	1085145	keystroke	Key.backspace	n/a
542.8125	0.105	1085625	keystroke	c	n/a
544.0575	0.105	1088115	keystroke	Key.space	n/a
544.2825	0.135	1088565	keystroke	s	n/a
544.3875	0.06	1088775	keystroke	k	n/a
544.5525	0.06	1089105	keystroke	i	n/a
544.7025	0.0895	1089405	keystroke	p	n/a
544.837	0.12	1089674	keystroke	Key.space	n/a
545.107	0.091	1090214	keystroke	m	n/a
545.198	0.15	1090396	keystroke	a	n/a
545.332	0.046	1090664	keystroke	i	n/a
545.498	0.075	1090996	keystroke	l	n/a
545.662	0.106	1091324	keystroke	Key.space	n/a
545.783	0.119	1091566	keystroke	k	n/a
545.978	0.044	1091956	keystroke	e	n/a
546.068	0.135	1092136	keystroke	e	n/a
546.188	0.105	1092376	keystroke	p	n/a
546.757	0.091	1093514	keystroke	Key.enter	n/a
546.856	14.498	1093712	prompt	n/a	receptor inappropriate booking hardly\n
547.643	0.149	1095286	keystroke	r	n/a
547.688	0.119	1095376	keystroke	e	n/a
547.973	0.045	1095946	keystroke	c	n/a
548.123	0.105	1096246	keystroke	e	n/a
548.257	0.136	1096514	keystroke	p	n/a
548.467	0.091	1096934	keystroke	t	n/a
548.873	0.089	1097746	keystroke	o	n/a
548.963	0.105	1097926	keystroke	r	n/a
549.127	0.151	1098254	keystroke	Key.space	n/a
549.878	0.059	1099756	keystroke	i	n/a
550.268	0.149	1100536	keystroke	n	n/a
550.733	0.15	1101466	keystroke	a	n/a
550.913	0.06	1101826	keystroke	p	n/a
551.078	0.045	1102156	keystroke	p	n/a
551.093	0.015	1102186	keystroke	[	n/a
552.037	0.061	1104074	keystroke	Key.backspace	n/a
552.413	0.12	1104826	keystroke	r	n/a
552.473	0.105	1104946	keystroke	o	n/a
553.148	0.09	1106296	keystroke	p	n/a
553.493	0.15	1106986	keystroke	r	n/a
553.553	0.105	1107106	keystroke	e	n/a
554.528	0.09	1109056	keystroke	\	n/a
554.573	0.045	1109146	keystroke	Key.backspace	n/a
555.623	0.03	1111246	keystroke	Key.backspace	n/a
556.688	0.06	1113376	keystroke	i	n/a
556.808	0.135	1113616	keystroke	a	n/a
556.913	0.105	1113826	keystroke	t	n/a
556.973	0.15	1113946	keystroke	e	n/a
557.108	0.135	1114216	keystroke	Key.space	n/a
558.083	0.12	1116166	keystroke	b	n/a
558.383	0.06	1116766	keystroke	o	n/a
558.518	0.06	1117036	keystroke	o	n/a
558.683	0.03	1117366	keystroke	k	n/a
558.803	0.135	1117606	keystroke	i	n/a
558.878	0.075	1117756	keystroke	n	n/a
558.908	0.075	1117816	keystroke	g	n/a
558.998	0.06	1117996	keystroke	Key.space	n/a
559.913	0.105	1119826	keystroke	h	n/a
560.048	0.15	1120096	keystroke	a	n/a
560.183	0.12	1120366	keystroke	r	n/a
560.423	0.105	1120846	keystroke	d	n/a
560.528	0.075	1121056	keystroke	l	n/a
560.723	0.075	1121446	keystroke	y	n/a
561.278	0.075	1122556	keystroke	Key.enter	n/a
561.3595	8.725	1122719	prompt	n/a	necessary resident suse predicted\n
562.2975	0.105	1124595	keystroke	n	n/a
562.4175	0.06	1124835	keystroke	e	n/a
562.6125	0.045	1125225	keystroke	c	n/a
562.7325	0.09	1125465	keystroke	e	n/a
562.958	0.1045	1125916	keystroke	s	n/a
563.5275	0.0905	1127055	keystroke	s	n/a
563.6325	0.165	1127265	keystroke	a	n/a
563.7525	0.105	1127505	keystroke	r	n/a
563.8875	0.06	1127775	keystroke	y	n/a
564.0375	0.09	1128075	keystroke	Key.space	n/a
564.638	0.1195	1129276	keystroke	r	n/a
564.6975	0.075	1129395	keystroke	e	n/a
564.9075	0.09	1129815	keystroke	s	n/a
565.0125	0.045	1130025	keystroke	i	n/a
565.0875	0.06	1130175	keystroke	d	n/a
565.2075	0.076	1130415	keystroke	e	n/a
565.2975	0.105	1130595	keystroke	n	n/a
565.4475	0.075	1130895	keystroke	t	n/a
565.5825	0.09	1131165	keystroke	Key.space	n/a
565.7925	0.09	1131585	keystroke	s	n/a
565.8525	0.045	1131705	keystroke	u	n/a
566.3175	0.12	1132635	keystroke	s	n/a
566.3775	0.105	1132755	keystroke	e	n/a
566.5425	0.15	1133085	keystroke	Key.space	n/a
566.7225	0.135	1133445	keystroke	p	n/a
566.9325	0.15	1133865	keystroke	r	n/a
566.9925	0.135	1133985	keystroke	e	n/a
568.2975	0.075	1136595	keystroke	d	n/a
568.3875	0.105	1136775	keystroke	i	n/a
568.5075	0.06	1137015	keystroke	c	n/a
568.7175	0.135	1137435	keystroke	t	n/a
568.8075	0.105	1137615	keystroke	e	n/a
569.0175	0.09	1138035	keystroke	d	n/a
570.0225	0.06	1140045	keystroke	Key.enter	n/a
570.0885	7.257	1140177	prompt	n/a	guinea belief workforce studied\n
571.3425	0.12	1142685	keystroke	g	n/a
571.4475	0.06	1142895	keystroke	u	n/a
571.9725	0.06	1143945	keystroke	i	n/a
572.1675	0.09	1144335	keystroke	n	n/a
572.2725	0.06	1144545	keystroke	e	n/a
572.4075	0.15	1144815	keystroke	a	n/a
572.5275	0.135	1145055	keystroke	Key.space	n/a
572.7375	0.09	1145475	keystroke	b	n/a
572.9775	0.075	1145955	keystroke	e	n/a
573.8025	0.105	1147605	keystroke	l	n/a
573.9525	0.105	1147905	keystroke	i	n/a
574.0575	0.075	1148115	keystroke	e	n/a
574.3425	0.06	1148685	keystroke	f	n/a
574.4175	0.15	1148835	keystroke	Key.space	n/a
574.6725	0.12	1149345	keystroke	w	n/a
574.7325	0.09	1149465	keystroke	o	n/a
574.8375	0.12	1149675	keystroke	r	n/a
574.9725	0.105	1149945	keystroke	k	n/a
575.3175	0.045	1150635	keystroke	f	n/a
575.3775	0.12	1150755	keystroke	o	n/a
575.4675	0.105	1150935	keystroke	r	n/a
575.7525	0.06	1151505	keystroke	c	n/a
575.9025	0.12	1151805	keystroke	e	n/a
576.0075	0.12	1152015	keystroke	Key.space	n/a
576.2625	0.12	1152525	keystroke	s	n/a
576.4125	0.09	1152825	keystroke	t	n/a
576.4725	0.075	1152945	keystroke	u	n/a
576.7275	0.045	1153455	keystroke	d	n/a
576.7875	0.06	1153575	keystroke	i	n/a
576.8775	0.06	1153755	keystroke	e	n/a
577.0875	0.105	1154175	keystroke	d	n/a
577.2675	0.075	1154535	keystroke	Key.enter	n/a
577.3515	8.753	1154703	prompt	n/a	enabling aquarium bermuda headed\n
578.1675	0.09	1156335	keystroke	e	n/a
578.4975	0.075	1156995	keystroke	n	n/a
578.6025	0.165	1157205	keystroke	a	n/a
578.7375	0.075	1157475	keystroke	b	n/a
578.9325	0.06	1157865	keystroke	l	n/a
579.1275	0.105	1158255	keystroke	i	n/a
579.1725	0.09	1158345	keystroke	n	n/a
579.2475	0.06	1158495	keystroke	g	n/a
579.3225	0.09	1158645	keystroke	Key.space	n/a
580.0425	0.15	1160085	keystroke	a	n/a
580.3425	0.12	1160685	keystroke	q	n/a
580.4475	0.06	1160895	keystroke	u	n/a
580.7325	0.12	1161465	keystroke	a	n/a
581.0475	0.09	1162095	keystroke	r	n/a
581.1525	0.045	1162305	keystroke	i	n/a
581.3025	0.045	1162605	keystroke	u	n/a
581.4675	0.06	1162935	keystroke	m	n/a
581.5725	0.12	1163145	keystroke	Key.space	n/a
581.7675	0.09	1163535	keystroke	b	n/a
581.9475	0.075	1163895	keystroke	e	n/a
582.1425	0.09	1164285	keystroke	r	n/a
582.3675	0.06	1164735	keystroke	m	n/a
582.5325	0.06	1165065	keystroke	u	n/a
582.7575	0.12	1165515	keystroke	d	n/a
582.8475	0.135	1165695	keystroke	a	n/a
582.9675	0.135	1165935	keystroke	Key.space	n/a
583.1175	0.075	1166235	keystroke	h	n/a
583.2075	0.09	1166415	keystroke	e	n/a
583.3275	0.12	1166655	keystroke	a	n/a
583.5975	0.045	1167195	keystroke	d	n/a
583.7175	0.075	1167435	keystroke	e	n/a
583.8825	0.105	1167765	keystroke	d	n/a
586.0905	0.012	1172181	keystroke	Key.enter	n/a
586.113	9.6215	1172226	prompt	n/a	seller satisfied reynolds adult\n
586.8375	0.12	1173675	keystroke	s	n/a
586.9875	0.09	1173975	keystroke	e	n/a
587.1375	0.045	1174275	keystroke	l	n/a
587.2725	0.075	1174545	keystroke	l	n/a
587.3625	0.105	1174725	keystroke	e	n/a
587.4375	0.09	1174875	keystroke	r	n/a
587.5425	0.12	1175085	keystroke	Key.space	n/a
587.7225	0.105	1175445	keystroke	s	n/a
588.3375	0.21	1176675	keystroke	a	n/a
588.5625	0.12	1177125	keystroke	t	n/a
588.7875	0.105	1177575	keystroke	i	n/a
588.9375	0.135	1177875	keystroke	s	n/a
589.3575	0.09	1178715	keystroke	f	n/a
589.4325	0.075	1178865	keystroke	i	n/a
589.5375	0.075	1179075	keystroke	e	n/a
589.7175	0.105	1179435	keystroke	d	n/a
589.8075	0.12	1179615	keystroke	Key.space	n/a
590.0925	0.12	1180185	keystroke	r	n/a
590.1375	0.105	1180275	keystroke	e	n/a
590.4675	0.06	1180935	keystroke	y	n/a
590.7225	0.06	1181445	keystroke	n	n/a
590.8575	0.075	1181715	keystroke	o	n/a
591.0225	0.09	1182045	keystroke	l	n/a
591.1425	0.075	1182285	keystroke	d	n/a
591.3075	0.135	1182615	keystroke	s	n/a
591.4275	0.105	1182855	keystroke	Key.space	n/a
591.6975	0.135	1183395	keystroke	s	n/a
592.7625	0.09	1185525	keystroke	Key.backspace	n/a
594.1875	0.135	1188375	keystroke	a	n/a
594.6825	0.105	1189365	keystroke	d	n/a
594.7275	0.045	1189455	keystroke	u	n/a
594.8475	0.09	1189695	keystroke	l	n/a
595.0125	0.105	1190025	keystroke	t	n/a
595.6425	0.09	1191285	keystroke	Key.enter	n/a
595.741	8.9945	1191482	prompt	n/a	istanbul motherboard region cuisine\n
596.4825	0.045	1192965	keystroke	i	n/a
596.6625	0.09	1193325	keystroke	s	n/a
596.8125	0.105	1193625	keystroke	t	n/a
596.8875	0.135	1193775	keystroke	a	n/a
596.9625	0.075	1193925	keystroke	n	n/a
597.3225	0.09	1194645	keystroke	b	n/a
597.3975	0.03	1194795	keystroke	u	n/a
597.7575	0.06	1195515	keystroke	l	n/a
598.0575	0.12	1196115	keystroke	Key.space	n/a
598.5225	0.06	1197045	keystroke	m	n/a
598.6125	0.135	1197225	keystroke	o	n/a
599.8125	0.075	1199625	keystroke	t	n/a
599.8885	0.059	1199777	keystroke	h	n/a
599.9625	0.165	1199925	keystroke	e	n/a
600.0225	0.12	1200045	keystroke	r	n/a
600.2925	0.06	1200585	keystroke	b	n/a
600.4575	0.105	1200915	keystroke	o	n/a
600.5775	0.21	1201155	keystroke	a	n/a
600.7725	0.135	1201545	keystroke	r	n/a
601.0275	0.12	1202055	keystroke	d	n/a
601.2225	0.165	1202445	keystroke	Key.space	n/a
601.5225	0.135	1203045	keystroke	r	n/a
601.5825	0.1195	1203165	keystroke	e	n/a
601.8525	0.0745	1203705	keystroke	g	n/a
601.942	0.06	1203884	keystroke	i	n/a
602.1375	0.1195	1204275	keystroke	o	n/a
602.242	0.0905	1204484	keystroke	n	n/a
602.3925	0.1345	1204785	keystroke	Key.space	n/a
603.127	0.12	1206254	keystroke	c	n/a
603.202	0.09	1206404	keystroke	u	n/a
603.517	0.06	1207034	keystroke	i	n/a
603.892	0.105	1207784	keystroke	s	n/a
603.937	0.105	1207874	keystroke	i	n/a
604.012	0.075	1208024	keystroke	n	n/a
604.117	0.105	1208234	keystroke	e	n/a
604.657	0.076	1209314	keystroke	Key.enter	n/a
604.741	6.908	1209482	prompt	n/a	trunk scott perform deemed\n
605.422	0.06	1210844	keystroke	t	n/a
605.632	0.135	1211264	keystroke	r	n/a
605.707	0.045	1211414	keystroke	u	n/a
605.857	0.06	1211714	keystroke	n	n/a
605.977	0.09	1211954	keystroke	k	n/a
606.022	0.12	1212044	keystroke	Key.space	n/a
606.232	0.09	1212464	keystroke	s	n/a
606.517	0.09	1213034	keystroke	c	n/a
606.577	0.105	1213154	keystroke	o	n/a
606.787	0.045	1213574	keystroke	t	n/a
606.907	0.06	1213814	keystroke	t	n/a
606.997	0.12	1213994	keystroke	Key.space	n/a
607.192	0.09	1214384	keystroke	p	n/a
607.283	0.12	1214566	keystroke	e	n/a
607.357	0.105	1214714	keystroke	r	n/a
607.672	0.06	1215344	keystroke	f	n/a
607.702	0.135	1215404	keystroke	o	n/a
607.807	0.075	1215614	keystroke	m	n/a
609.247	0.06	1218494	keystroke	Key.backspace	n/a
609.368	0.089	1218736	keystroke	r	n/a
609.502	0.075	1219004	keystroke	m	n/a
610.132	0.105	1220264	keystroke	Key.space	n/a
610.447	0.045	1220894	keystroke	d	n/a
610.598	0.075	1221196	keystroke	e	n/a
610.777	0.075	1221554	keystroke	e	n/a
610.867	0.105	1221734	keystroke	m	n/a
610.987	0.06	1221974	keystroke	e	n/a
611.167	0.105	1222334	keystroke	d	n/a
611.572	0.075	1223144	keystroke	Key.enter	n/a
611.6545	6.2195	1223309	prompt	n/a	tops hide owns demo\n
612.352	0.091	1224704	keystroke	t	n/a
612.503	0.074	1225006	keystroke	o	n/a
612.668	0.119	1225336	keystroke	p	n/a
612.772	0.075	1225544	keystroke	r	n/a
613.222	0.151	1226444	keystroke	s	n/a
614.377	0.045	1228754	keystroke	Key.backspace	n/a
614.902	0.075	1229804	keystroke	Key.backspace	n/a
615.097	0.12	1230194	keystroke	s	n/a
615.397	0.15	1230794	keystroke	Key.space	n/a
615.652	0.06	1231304	keystroke	h	n/a
615.742	0.135	1231484	keystroke	i	n/a
615.862	0.046	1231724	keystroke	d	n/a
615.982	0.045	1231964	keystroke	e	n/a
616.057	0.12	1232114	keystroke	Key.space	n/a
616.253	0.119	1232506	keystroke	o	n/a
616.387	0.12	1232774	keystroke	w	n/a
616.493	0.089	1232986	keystroke	n	n/a
616.837	0.135	1233674	keystroke	s	n/a
616.957	0.105	1233914	keystroke	Key.space	n/a
617.197	0.03	1234394	keystroke	d	n/a
617.318	0.089	1234636	keystroke	e	n/a
617.378	0.09	1234756	keystroke	m	n/a
617.497	0.135	1234994	keystroke	o	n/a
617.782	0.09	1235564	keystroke	Key.enter	n/a
617.879	22.2555	1235758	prompt	n/a	ma'am website roots attractions\n
618.653	0.12	1237306	keystroke	m	n/a
618.787	0.15	1237574	keystroke	a	n/a
619.073	0.134	1238146	keystroke	'	n/a
619.237	0.0155	1238474	keystroke	'	n/a
619.4475	0.134	1238895	keystroke	a	n/a
619.537	0.0595	1239074	keystroke	m	n/a
621.0815	0.045	1242163	keystroke	Key.backspace	n/a
621.2465	0.045	1242493	keystroke	Key.backspace	n/a
621.7265	0.06	1243453	keystroke	Key.backspace	n/a
622.8815	0.1055	1245763	keystroke	'	n/a
625.6155	0.011	1251231	keystroke	Key.backspace	n/a
626.7975	0.18	1253595	keystroke	'	n/a
627.9975	0.134	1255995	keystroke	Key.backspace	n/a
628.8975	0.165	1257795	keystroke	a	n/a
628.9725	0.104	1257945	keystroke	m	n/a
629.0925	0.164	1258185	keystroke	Key.space	n/a
629.4525	0.15	1258905	keystroke	w	n/a
629.5725	0.12	1259145	keystroke	e	n/a
629.7975	0.075	1259595	keystroke	b	n/a
629.9925	0.105	1259985	keystroke	i	n/a
631.2365	0.06	1262473	keystroke	Key.backspace	n/a
631.9725	0.135	1263945	keystroke	s	n/a
632.0625	0.06	1264125	keystroke	i	n/a
632.1525	0.105	1264305	keystroke	e	n/a
633.0375	0.074	1266075	keystroke	Key.backspace	n/a
633.0975	0.105	1266195	keystroke	t	n/a
633.1575	0.09	1266315	keystroke	e	n/a
633.7115	0.136	1267423	keystroke	Key.space	n/a
634.0275	0.105	1268055	keystroke	r	n/a
634.7175	0.045	1269435	keystroke	o	n/a
634.8525	0.075	1269705	keystroke	o	n/a
634.9125	0.075	1269825	keystroke	t	n/a
635.0175	0.12	1270035	keystroke	s	n/a
635.1515	0.151	1270303	keystroke	Key.space	n/a
635.3915	0.151	1270783	keystroke	a	n/a
635.6775	0.03	1271355	keystroke	f	n/a
635.7975	0.075	1271595	keystroke	f	n/a
635.8575	0.15	1271715	keystroke	a	n/a
636.7725	0.075	1273545	keystroke	Key.backspace	n/a
636.9375	0.06	1273875	keystroke	Key.backspace	n/a
637.3275	0.09	1274655	keystroke	Key.backspace	n/a
637.7025	0.06	1275405	keystroke	t	n/a
637.8675	0.06	1275735	keystroke	t	n/a
638.2575	0.105	1276515	keystroke	r	n/a
638.3325	0.15	1276665	keystroke	a	n/a
638.6025	0.12	1277205	keystroke	c	n/a
638.6925	0.12	1277385	keystroke	t	n/a
639.2625	0.18	1278525	keystroke	i	n/a
639.3225	0.18	1278645	keystroke	o	n/a
639.4125	0.12	1278825	keystroke	n	n/a
639.5175	0.12	1279035	keystroke	s	n/a
640.0425	0.09	1280085	keystroke	Key.enter	n/a
640.14	7.119	1280280	prompt	n/a	encourage equally idol kenya\n
640.8075	0.075	1281615	keystroke	e	n/a
641.0325	0.075	1282065	keystroke	n	n/a
641.4375	0.12	1282875	keystroke	c	n/a
641.5125	0.12	1283025	keystroke	o	n/a
641.6025	0.09	1283205	keystroke	u	n/a
641.7375	0.135	1283475	keystroke	r	n/a
642.0675	0.15	1284135	keystroke	a	n/a
642.1725	0.105	1284345	keystroke	g	n/a
642.2475	0.12	1284495	keystroke	e	n/a
642.8175	0.075	1285635	keystroke	Key.space	n/a
643.0425	0.09	1286085	keystroke	e	n/a
643.3125	0.12	1286625	keystroke	q	n/a
643.4175	0.06	1286835	keystroke	u	n/a
643.7025	0.12	1287405	keystroke	a	n/a
644.2125	0.06	1288425	keystroke	l	n/a
644.3625	0.105	1288725	keystroke	l	n/a
644.6025	0.06	1289205	keystroke	y	n/a
644.7675	0.12	1289535	keystroke	Key.space	n/a
645.0375	0.09	1290075	keystroke	i	n/a
645.2625	0.075	1290525	keystroke	d	n/a
645.3075	0.075	1290615	keystroke	o	n/a
645.4875	0.105	1290975	keystroke	l	n/a
645.6225	0.135	1291245	keystroke	Key.space	n/a
645.8625	0.105	1291725	keystroke	k	n/a
645.9825	0.06	1291965	keystroke	e	n/a
646.1025	0.075	1292205	keystroke	n	n/a
646.3275	0.06	1292655	keystroke	y	n/a
646.9875	0.15	1293975	keystroke	a	n/a
647.1675	0.09	1294335	keystroke	Key.enter	n/a
647.2635	7.376	1294527	prompt	n/a	viruses sufficient chorus personnel\n
648.5925	0.105	1297185	keystroke	v	n/a
648.8925	0.045	1297785	keystroke	i	n/a
649.2975	0.075	1298595	keystroke	r	n/a
649.3275	0.06	1298655	keystroke	u	n/a
649.5525	0.12	1299105	keystroke	s	n/a
649.7175	0.105	1299435	keystroke	e	n/a
649.8675	0.135	1299735	keystroke	s	n/a
649.9875	0.12	1299975	keystroke	Key.space	n/a
650.1675	0.135	1300335	keystroke	s	n/a
650.2575	0.075	1300515	keystroke	u	n/a
650.5125	0.03	1301025	keystroke	f	n/a
650.6475	0.045	1301295	keystroke	f	n/a
650.7225	0.09	1301445	keystroke	i	n/a
650.9175	0.045	1301835	keystroke	c	n/a
650.9925	0.075	1301985	keystroke	i	n/a
651.2775	0.09	1302555	keystroke	e	n/a
651.3525	0.09	1302705	keystroke	n	n/a
651.4575	0.075	1302915	keystroke	t	n/a
651.5475	0.105	1303095	keystroke	Key.space	n/a
651.9225	0.12	1303845	keystroke	c	n/a
652.0275	0.075	1304055	keystroke	h	n/a
652.3425	0.12	1304685	keystroke	o	n/a
652.7025	0.09	1305405	keystroke	r	n/a
652.7775	0.09	1305555	keystroke	u	n/a
652.8975	0.15	1305795	keystroke	s	n/a
653.0325	0.135	1306065	keystroke	Key.space	n/a
653.2125	0.135	1306425	keystroke	p	n/a
653.3625	0.12	1306725	keystroke	e	n/a
653.4525	0.09	1306905	keystroke	r	n/a
653.7075	0.12	1307415	keystroke	s	n/a
653.7825	0.075	1307565	keystroke	o	n/a
654.0075	0.045	1308015	keystroke	n	n/a
654.2025	0.015	1308405	keystroke	n	n/a
654.2475	0.105	1308495	keystroke	e	n/a
654.3225	0.105	1308645	keystroke	l	n/a
654.5925	0.045	1309185	keystroke	Key.enter	n/a
654.645	12.7285	1309290	prompt	n/a	incurred investor nvidia the\n
655.5225	0.09	1311045	keystroke	i	n/a
655.6275	0.09	1311255	keystroke	n	n/a
655.7775	0.09	1311555	keystroke	c	n/a
655.8975	0.045	1311795	keystroke	u	n/a
656.1525	0.105	1312305	keystroke	r	n/a
656.4075	0.06	1312815	keystroke	e	n/a
656.5575	0.09	1313115	keystroke	e	n/a
656.6925	0.09	1313385	keystroke	e	n/a
657.5175	0.12	1315035	keystroke	Key.backspace	n/a
657.7875	0.12	1315575	keystroke	Key.backspace	n/a
658.1025	0.09	1316205	keystroke	Key.backspace	n/a
658.5675	0.105	1317135	keystroke	r	n/a
658.7475	0.075	1317495	keystroke	e	n/a
658.9425	0.09	1317885	keystroke	d	n/a
659.0175	0.135	1318035	keystroke	Key.space	n/a
659.2125	0.105	1318425	keystroke	i	n/a
659.2875	0.09	1318575	keystroke	n	n/a
659.3625	0.09	1318725	keystroke	v	n/a
659.5125	0.12	1319025	keystroke	e	n/a
659.6175	0.0445	1319235	keystroke	r	n/a
659.7825	0.1195	1319565	keystroke	s	n/a
659.8725	0.06	1319745	keystroke	t	n/a
660.022	0.1205	1320044	keystroke	o	n/a
660.1275	0.075	1320255	keystroke	r	n/a
660.247	0.135	1320494	keystroke	Key.space	n/a
661.447	0.045	1322894	keystroke	Key.backspace	n/a
661.567	0.0905	1323134	keystroke	Key.backspace	n/a
661.732	0.09	1323464	keystroke	Key.backspace	n/a
661.927	0.105	1323854	keystroke	Key.backspace	n/a
662.257	0.09	1324514	keystroke	Key.backspace	n/a
662.497	0.06	1324994	keystroke	Key.backspace	n/a
662.617	0.135	1325234	keystroke	s	n/a
663.262	0.12	1326524	keystroke	t	n/a
663.577	0.105	1327154	keystroke	o	n/a
663.667	0.105	1327334	keystroke	r	n/a
663.787	0.165	1327574	keystroke	Key.space	n/a
664.372	0.09	1328744	keystroke	n	n/a
664.687	0.105	1329374	keystroke	v	n/a
664.762	0.12	1329524	keystroke	i	n/a
666.472	0.06	1332944	keystroke	d	n/a
666.502	0.075	1333004	keystroke	i	n/a
666.592	0.195	1333184	keystroke	a	n/a
666.727	0.105	1333454	keystroke	Key.space	n/a
666.967	0.075	1333934	keystroke	t	n/a
667.027	0.09	1334054	keystroke	h	n/a
667.162	0.105	1334324	keystroke	e	n/a
667.297	0.075	1334594	keystroke	Key.enter	n/a
667.379	13.1655	1334758	prompt	n/a	models leaders liberia nano\n
668.137	0.075	1336274	keystroke	m	n/a
668.272	0.12	1336544	keystroke	o	n/a
668.512	0.06	1337024	keystroke	d	n/a
668.677	0.06	1337354	keystroke	e	n/a
668.738	0.104	1337476	keystroke	l	n/a
668.887	0.105	1337774	keystroke	s	n/a
669.022	0.12	1338044	keystroke	Key.space	n/a
669.322	0.105	1338644	keystroke	l	n/a
669.397	0.09	1338794	keystroke	e	n/a
669.502	0.105	1339004	keystroke	a	n/a
669.712	0.03	1339424	keystroke	d	n/a
669.817	0.135	1339634	keystroke	e	n/a
669.847	0.15	1339694	keystroke	r	n/a
670.192	0.12	1340384	keystroke	s	n/a
670.327	0.12	1340654	keystroke	Key.space	n/a
671.212	0.09	1342424	keystroke	l	n/a
671.377	0.09	1342754	keystroke	i	n/a
671.602	0.075	1343204	keystroke	b	n/a
671.707	0.105	1343414	keystroke	e	n/a
671.962	0.09	1343924	keystroke	r	n/a
672.037	0.06	1344074	keystroke	i	n/a
