onset	duration	sample	value	key	prompt_text
11.6485	16.0575	23297	prompt	n/a	the quick brown fox jumps over a lazy dog\n
13.125	0.058	26250	keystroke_t	t	n/a
13.198	0.165	26396	keystroke_h	h	n/a
13.378	0.12	26756	keystroke_e	e	n/a
13.528	0.15	27056	keystroke_Key.space	Key.space	n/a
13.753	0.12	27506	keystroke_q	q	n/a
13.918	0.195	27836	keystroke_u	u	n/a
14.038	0.135	28076	keystroke_i	i	n/a
14.218	0.165	28436	keystroke_c	c	n/a
14.323	0.135	28646	keystroke_k	k	n/a
14.428	0.24	28856	keystroke_Key.space	Key.space	n/a
14.653	0.12	29306	keystroke_b	b	n/a
14.774	0.089	29548	keystroke_r	r	n/a
14.908	0.12	29816	keystroke_o	o	n/a
15.029	0.104	30058	keystroke_w	w	n/a
15.163	0.15	30326	keystroke_n	n	n/a
15.253	0.165	30506	keystroke_Key.space	Key.space	n/a
15.718	0.105	31436	keystroke_f	f	n/a
15.898	0.12	31796	keystroke_o	o	n/a
16.033	0.15	32066	keystroke_x	x	n/a
16.184	0.119	32368	keystroke_Key.space	Key.space	n/a
24.361	0.013	48722	keystroke_j	j	n/a
24.479	0.075	48958	keystroke_u	u	n/a
24.689	0.195	49378	keystroke_m	m	n/a
24.824	0.18	49648	keystroke_p	p	n/a
24.944	0.135	49888	keystroke_s	s	n/a
25.033	0.241	50066	keystroke_Key.space	Key.space	n/a
25.154	0.135	50308	keystroke_o	o	n/a
25.304	0.09	50608	keystroke_v	v	n/a
25.589	0.18	51178	keystroke_e	e	n/a
25.694	0.135	51388	keystroke_r	r	n/a
25.844	0.135	51688	keystroke_Key.space	Key.space	n/a
25.949	0.15	51898	keystroke_a	a	n/a
26.114	0.18	52228	keystroke_Key.space	Key.space	n/a
26.249	0.1345	52498	keystroke_l	l	n/a
26.339	0.1195	52678	keystroke_a	a	n/a
26.5635	0.12	53127	keystroke_z	z	n/a
26.6985	0.18	53397	keystroke_y	y	n/a
26.8035	0.165	53607	keystroke_Key.space	Key.space	n/a
26.9535	0.12	53907	keystroke_d	d	n/a
27.0585	0.15	54117	keystroke_o	o	n/a
27.2685	0.1055	54537	keystroke_g	g	n/a
27.6135	0.09	55227	keystroke_Key.enter	Key.enter	n/a
27.718	4.9975	55436	prompt	n/a	thai adds strategic throw\n
28.453	0.09	56906	keystroke_t	t	n/a
28.558	0.12	57116	keystroke_h	h	n/a
28.708	0.135	57416	keystroke_a	a	n/a
28.813	0.15	57626	keystroke_i	i	n/a
28.918	0.18	57836	keystroke_Key.space	Key.space	n/a
29.008	0.15	58016	keystroke_a	a	n/a
29.159	0.105	58318	keystroke_d	d	n/a
29.3535	0.18	58707	keystroke_d	d	n/a
29.4585	0.15	58917	keystroke_s	s	n/a
29.6535	0.15	59307	keystroke_Key.space	Key.space	n/a
29.7585	0.12	59517	keystroke_s	s	n/a
30.0135	0.06	60027	keystroke_t	t	n/a
30.1935	0.135	60387	keystroke_r	r	n/a
30.3135	0.165	60627	keystroke_a	a	n/a
30.7035	0.12	61407	keystroke_t	t	n/a
30.9285	0.135	61857	keystroke_e	e	n/a
31.1835	0.105	62367	keystroke_g	g	n/a
31.3485	0.12	62697	keystroke_i	i	n/a
31.4835	0.12	62967	keystroke_c	c	n/a
31.6185	0.15	63237	keystroke_Key.space	Key.space	n/a
31.8135	0.09	63627	keystroke_t	t	n/a
31.9185	0.135	63837	keystroke_h	h	n/a
32.0835	0.1055	64167	keystroke_r	r	n/a
32.219	0.135	64438	keystroke_o	o	n/a
32.369	0.075	64738	keystroke_w	w	n/a
32.564	0.15	65128	keystroke_Key.enter	Key.enter	n/a
32.7185	8.277	65437	prompt	n/a	literary mark individual frontpage\n
33.359	0.21	66718	keystroke_l	l	n/a
33.479	0.15	66958	keystroke_i	i	n/a
33.584	0.105	67168	keystroke_t	t	n/a
33.764	0.225	67528	keystroke_e	e	n/a
33.899	0.15	67798	keystroke_r	r	n/a
34.109	0.18	68218	keystroke_a	a	n/a
34.229	0.135	68458	keystroke_r	r	n/a
34.349	0.15	68698	keystroke_y	y	n/a
34.439	0.135	68878	keystroke_Key.space	Key.space	n/a
34.709	0.12	69418	keystroke_m	m	n/a
34.904	0.18	69808	keystroke_a	a	n/a
35.0235	0.1655	70047	keystroke_r	r	n/a
35.129	0.15	70258	keystroke_k	k	n/a
35.234	0.165	70468	keystroke_Key.space	Key.space	n/a
35.444	0.21	70888	keystroke_i	i	n/a
35.579	0.15	71158	keystroke_n	n	n/a
35.759	0.134	71518	keystroke_d	d	n/a
36.148	0.135	72296	keystroke_i	i	n/a
36.493	0.03	72986	keystroke_v	v	n/a
36.494	0.045	72988	keystroke_b	b	n/a
37.063	0.09	74126	keystroke_Key.backspace	Key.backspace	n/a
37.4535	0.1645	74907	keystroke_i	i	n/a
37.648	0.12	75296	keystroke_d	d	n/a
37.828	0.12	75656	keystroke_u	u	n/a
37.963	0.135	75926	keystroke_a	a	n/a
38.113	0.165	76226	keystroke_l	l	n/a
38.218	0.195	76436	keystroke_Key.space	Key.space	n/a
38.428	0.1655	76856	keystroke_f	f	n/a
38.639	0.135	77278	keystroke_r	r	n/a
38.789	0.255	77578	keystroke_o	o	n/a
38.939	0.165	77878	keystroke_n	n	n/a
39.119	0.105	78238	keystroke_t	t	n/a
39.8085	0.12	79617	keystroke_p	p	n/a
39.9735	0.135	79947	keystroke_a	a	n/a
40.2735	0.105	80547	keystroke_g	g	n/a
40.4835	0.09	80967	keystroke_e	e	n/a
40.874	0.12	81748	keystroke_Key.enter	Key.enter	n/a
40.9985	5.742	81997	prompt	n/a	tiny correctly origin lotus\n
41.6385	0.12	83277	keystroke_t	t	n/a
41.7435	0.18	83487	keystroke_i	i	n/a
41.8335	0.135	83667	keystroke_n	n	n/a
42.1335	0.2105	84267	keystroke_y	y	n/a
42.2685	0.1645	84537	keystroke_Key.space	Key.space	n/a
42.419	0.12	84838	keystroke_c	c	n/a
42.599	0.12	85198	keystroke_o	o	n/a
42.794	0.09	85588	keystroke_r	r	n/a
43.004	0.089	86008	keystroke_r	r	n/a
43.109	0.149	86218	keystroke_e	e	n/a
43.4985	0.015	86997	keystroke_c	c	n/a
43.7685	0.105	87537	keystroke_t	t	n/a
43.9485	0.15	87897	keystroke_l	l	n/a
44.1135	0.195	88227	keystroke_y	y	n/a
44.2335	0.195	88467	keystroke_Key.space	Key.space	n/a
44.4135	0.105	88827	keystroke_o	o	n/a
44.5935	0.075	89187	keystroke_r	r	n/a
44.9235	0.12	89847	keystroke_i	i	n/a
45.1485	0.12	90297	keystroke_g	g	n/a
45.3135	0.21	90627	keystroke_i	i	n/a
45.4035	0.1645	90807	keystroke_n	n	n/a
45.5235	0.1645	91047	keystroke_Key.space	Key.space	n/a
45.703	0.0905	91406	keystroke_l	l	n/a
45.898	0.105	91796	keystroke_o	o	n/a
45.988	0.105	91976	keystroke_t	t	n/a
46.138	0.1055	92276	keystroke_u	u	n/a
46.2885	0.1195	92577	keystroke_s	s	n/a
46.634	0.105	93268	keystroke_Key.enter	Key.enter	n/a
46.7435	6.972	93487	prompt	n/a	hull titanium bull annex\n
47.609	0.12	95218	keystroke_h	h	n/a
47.909	0.105	95818	keystroke_u	u	n/a
48.1935	0.075	96387	keystroke_l	l	n/a
48.4485	0.105	96897	keystroke_l	l	n/a
48.7185	0.1655	97437	keystroke_Key.space	Key.space	n/a
49.049	0.12	98098	keystroke_t	t	n/a
49.244	0.12	98488	keystroke_i	i	n/a
49.454	0.1195	98908	keystroke_t	t	n/a
49.6785	0.165	99357	keystroke_a	a	n/a
50.0235	0.12	100047	keystroke_n	n	n/a
50.2485	0.255	100497	keystroke_i	i	n/a
50.4435	0.135	100887	keystroke_u	u	n/a
50.7735	0.09	101547	keystroke_m	m	n/a
50.9835	0.15	101967	keystroke_Key.space	Key.space	n/a
51.1635	0.135	102327	keystroke_b	b	n/a
51.4185	0.1055	102837	keystroke_u	u	n/a
51.734	0.105	103468	keystroke_l	l	n/a
51.944	0.12	103888	keystroke_l	l	n/a
52.019	0.18	104038	keystroke_Key.space	Key.space	n/a
52.184	0.1645	104368	keystroke_a	a	n/a
52.3935	0.09	104787	keystroke_n	n	n/a
52.5735	0.105	105147	keystroke_n	n	n/a
52.6485	0.12	105297	keystroke_e	e	n/a
53.1585	0.12	106317	keystroke_x	x	n/a
53.5635	0.1495	107127	keystroke_Key.enter	Key.enter	n/a
53.7185	7.977	107437	prompt	n/a	cleaning hdtv properties readers\n
54.388	0.105	108776	keystroke_c	c	n/a
54.643	0.135	109286	keystroke_l	l	n/a
54.823	0.1955	109646	keystroke_e	e	n/a
54.899	0.1795	109798	keystroke_a	a	n/a
55.154	0.1495	110308	keystroke_n	n	n/a
55.3185	0.2105	110637	keystroke_i	i	n/a
55.439	0.1495	110878	keystroke_n	n	n/a
55.5735	0.12	111147	keystroke_g	g	n/a
55.7085	0.165	111417	keystroke_Key.space	Key.space	n/a
56.1585	0.135	112317	keystroke_h	h	n/a
56.369	0.135	112738	keystroke_d	d	n/a
56.684	0.104	113368	keystroke_t	t	n/a
57.058	0.09	114116	keystroke_v	v	n/a
57.6735	0.12	115347	keystroke_Key.space	Key.space	n/a
57.9135	0.135	115827	keystroke_p	p	n/a
58.0185	0.12	116037	keystroke_r	r	n/a
58.2735	0.12	116547	keystroke_o	o	n/a
58.5735	0.105	117147	keystroke_p	p	n/a
58.6635	0.165	117327	keystroke_e	e	n/a
58.7685	0.105	117537	keystroke_r	r	n/a
58.994	0.09	117988	keystroke_t	t	n/a
59.0985	0.12	118197	keystroke_i	i	n/a
59.2035	0.18	118407	keystroke_e	e	n/a
59.2785	0.135	118557	keystroke_s	s	n/a
59.3685	0.18	118737	keystroke_Key.space	Key.space	n/a
59.564	0.1345	119128	keystroke_r	r	n/a
59.639	0.12	119278	keystroke_e	e	n/a
59.849	0.15	119698	keystroke_a	a	n/a
59.969	0.165	119938	keystroke_d	d	n/a
60.179	0.1495	120358	keystroke_e	e	n/a
60.2835	0.105	120567	keystroke_r	r	n/a
60.5535	0.15	121107	keystroke_s	s	n/a
61.544	0.15	123088	keystroke_Key.enter	Key.enter	n/a
61.6995	6.4465	123399	prompt	n/a	may let's adopt princess\n
62.3985	0.105	124797	keystroke_m	m	n/a
62.5485	0.135	125097	keystroke_a	a	n/a
62.7285	0.21	125457	keystroke_y	y	n/a
62.8635	0.18	125727	keystroke_Key.space	Key.space	n/a
63.1035	0.1355	126207	keystroke_l	l	n/a
63.209	0.15	126418	keystroke_e	e	n/a
63.418	0.12	126836	keystroke_t	t	n/a
63.613	0.091	127226	keystroke_;	;	n/a
64.1085	0.105	128217	keystroke_s	s	n/a
64.603	0.075	129206	keystroke_Key.backspace	Key.backspace	n/a
64.783	0.06	129566	keystroke_Key.backspace	Key.backspace	n/a
65.1585	0.09	130317	keystroke_'	'	n/a
65.3385	0.12	130677	keystroke_s	s	n/a
65.548	0.165	131096	keystroke_Key.space	Key.space	n/a
65.668	0.21	131336	keystroke_a	a	n/a
65.849	0.15	131698	keystroke_d	d	n/a
66.014	0.2395	132028	keystroke_o	o	n/a
66.1785	0.15	132357	keystroke_p	p	n/a
66.3135	0.12	132627	keystroke_t	t	n/a
66.4785	0.135	132957	keystroke_Key.space	Key.space	n/a
66.6885	0.12	133377	keystroke_p	p	n/a
66.7935	0.12	133587	keystroke_r	r	n/a
67.0185	0.225	134037	keystroke_i	i	n/a
67.1385	0.195	134277	keystroke_n	n	n/a
67.2735	0.2105	134547	keystroke_c	c	n/a
67.409	0.195	134818	keystroke_e	e	n/a
67.529	0.135	135058	keystroke_s	s	n/a
67.799	0.135	135598	keystroke_s	s	n/a
67.964	0.18	135928	keystroke_Key.enter	Key.enter	n/a
68.1505	11.53	136301	prompt	n/a	chad realistic ultimate fifth\n
68.9835	0.135	137967	keystroke_c	c	n/a
69.1485	0.135	138297	keystroke_h	h	n/a
69.2685	0.1805	138537	keystroke_a	a	n/a
69.374	0.1495	138748	keystroke_d	d	n/a
69.494	0.1795	138988	keystroke_Key.space	Key.space	n/a
69.6885	0.15	139377	keystroke_r	r	n/a
69.7635	0.135	139527	keystroke_e	e	n/a
70.2435	0.135	140487	keystroke_a	a	n/a
70.5735	0.135	141147	keystroke_l	l	n/a
70.9635	0.105	141927	keystroke_i	i	n/a
71.0835	0.105	142167	keystroke_s	s	n/a
71.3385	0.1195	142677	keystroke_t	t	n/a
71.459	0.1345	142918	keystroke_i	i	n/a
71.6535	0.12	143307	keystroke_c	c	n/a
71.8185	0.135	143637	keystroke_Key.space	Key.space	n/a
72.1635	0.016	144327	keystroke_u	u	n/a
72.659	0.1195	145318	keystroke_l	l	n/a
72.8835	0.135	145767	keystroke_t	t	n/a
73.1685	0.12	146337	keystroke_i	i	n/a
73.6185	0.09	147237	keystroke_a	a	n/a
73.7835	0.18	147567	keystroke_t	t	n/a
73.8885	0.1795	147777	keystroke_e	e	n/a
74.008	0.15	148016	keystroke_Key.space	Key.space	n/a
74.248	0.15	148496	keystroke_f	f	n/a
74.698	0.09	149396	keystroke_Key.backspace	Key.backspace	n/a
74.878	0.045	149756	keystroke_Key.backspace	Key.backspace	n/a
75.013	0.0605	150026	keystroke_Key.backspace	Key.backspace	n/a
75.1485	0.0905	150297	keystroke_Key.backspace	Key.backspace	n/a
75.5235	0.12	151047	keystroke_Key.backspace	Key.backspace	n/a
76.184	0.09	152368	keystroke_m	m	n/a
76.4085	0.12	152817	keystroke_a	a	n/a
76.6785	0.195	153357	keystroke_t	t	n/a
76.8445	0.134	153689	keystroke_e	e	n/a
76.9485	0.165	153897	keystroke_Key.space	Key.space	n/a
77.1585	0.15	154317	keystroke_d	d	n/a
77.7885	0.09	155577	keystroke_Key.backspace	Key.backspace	n/a
77.9835	0.105	155967	keystroke_f	f	n/a
78.179	0.12	156358	keystroke_i	i	n/a
78.389	0.15	156778	keystroke_f	f	n/a
78.794	0.12	157588	keystroke_t	t	n/a
78.989	0.15	157978	keystroke_h	h	n/a
79.514	0.1645	159028	keystroke_Key.enter	Key.enter	n/a
79.6835	11.292	159367	prompt	n/a	vampire bristol diagnostic journals\n
80.669	0.12	161338	keystroke_v	v	n/a
81.059	0.105	162118	keystroke_a	a	n/a
81.269	0.12	162538	keystroke_m	m	n/a
81.524	0.105	163048	keystroke_p	p	n/a
81.839	0.12	163678	keystroke_i	i	n/a
82.004	0.165	164008	keystroke_r	r	n/a
82.109	0.165	164218	keystroke_e	e	n/a
82.199	0.165	164398	keystroke_Key.space	Key.space	n/a
82.439	0.12	164878	keystroke_b	b	n/a
82.649	0.09	165298	keystroke_r	r	n/a
82.919	0.135	165838	keystroke_i	i	n/a
83.144	0.09	166288	keystroke_s	s	n/a
83.399	0.1195	166798	keystroke_t	t	n/a
83.5335	0.105	167067	keystroke_o	o	n/a
83.7735	0.09	167547	keystroke_l	l	n/a
83.9535	0.18	167907	keystroke_Key.space	Key.space	n/a
84.1485	0.1655	168297	keystroke_d	d	n/a
84.494	0.12	168988	keystroke_i	i	n/a
85.109	0.15	170218	keystroke_a	a	n/a
85.469	0.1045	170938	keystroke_g	g	n/a
85.769	0.1205	171538	keystroke_n	n	n/a
85.9935	0.12	171987	keystroke_o	o	n/a
86.0985	0.105	172197	keystroke_s	s	n/a
86.3085	0.12	172617	keystroke_t	t	n/a
86.4135	0.12	172827	keystroke_i	i	n/a
86.7135	0.18	173427	keystroke_Key.space	Key.space	n/a
87.1335	0.09	174267	keystroke_=	=	n/a
87.2535	0.12	174507	keystroke_c	c	n/a
87.569	0.075	175138	keystroke_Key.backspace	Key.backspace	n/a
87.734	0.03	175468	keystroke_Key.backspace	Key.backspace	n/a
87.839	0.075	175678	keystroke_Key.backspace	Key.backspace	n/a
88.199	0.135	176398	keystroke_c	c	n/a
88.349	0.18	176698	keystroke_Key.space	Key.space	n/a
88.544	0.09	177088	keystroke_j	j	n/a
89.0985	0.195	178197	keystroke_o	o	n/a
89.2635	0.135	178527	keystroke_u	u	n/a
89.8185	0.105	179637	keystroke_r	r	n/a
90.0285	0.165	180057	keystroke_n	n	n/a
90.2235	0.15	180447	keystroke_a	a	n/a
90.3885	0.15	180777	keystroke_l	l	n/a
90.5835	0.135	181167	keystroke_s	s	n/a
90.8385	0.135	181677	keystroke_Key.enter	Key.enter	n/a
90.9785	6.897	181957	prompt	n/a	tile canberra damaged roster\n
91.754	0.1195	183508	keystroke_t	t	n/a
91.8885	0.225	183777	keystroke_i	i	n/a
91.9935	0.195	183987	keystroke_l	l	n/a
92.1285	0.105	184257	keystroke_e	e	n/a
92.2485	0.165	184497	keystroke_Key.space	Key.space	n/a
92.5335	0.12	185067	keystroke_c	c	n/a
92.744	0.15	185488	keystroke_a	a	n/a
92.954	0.165	185908	keystroke_n	n	n/a
93.464	0.12	186928	keystroke_b	b	n/a
93.614	0.12	187228	keystroke_e	e	n/a
93.914	0.075	187828	keystroke_r	r	n/a
94.109	0.06	188218	keystroke_r	r	n/a
94.244	0.135	188488	keystroke_a	a	n/a
94.424	0.165	188848	keystroke_Key.space	Key.space	n/a
94.544	0.225	189088	keystroke_d	d	n/a
94.694	0.15	189388	keystroke_a	a	n/a
95.2935	0.1505	190587	keystroke_m	m	n/a
95.5185	0.135	191037	keystroke_a	a	n/a
95.8185	0.135	191637	keystroke_g	g	n/a
96.0135	0.21	192027	keystroke_e	e	n/a
96.1785	0.165	192357	keystroke_d	d	n/a
96.3885	0.135	192777	keystroke_Key.space	Key.space	n/a
96.5535	0.105	193107	keystroke_r	r	n/a
96.7485	0.1355	193497	keystroke_o	o	n/a
96.899	0.135	193798	keystroke_s	s	n/a
97.214	0.12	194428	keystroke_t	t	n/a
97.454	0.1495	194908	keystroke_e	e	n/a
97.5435	0.135	195087	keystroke_r	r	n/a
97.7385	0.135	195477	keystroke_Key.enter	Key.enter	n/a
97.88	6.1305	195760	prompt	n/a	percent percentage brilliant nike\n
98.5785	0.1355	197157	keystroke_p	p	n/a
98.654	0.149	197308	keystroke_e	e	n/a
98.744	0.105	197488	keystroke_r	r	n/a
98.983	0.166	197966	keystroke_c	c	n/a
99.088	0.151	198176	keystroke_e	e	n/a
99.224	0.12	198448	keystroke_n	n	n/a
99.359	0.12	198718	keystroke_t	t	n/a
99.479	0.1495	198958	keystroke_Key.space	Key.space	n/a
99.6885	0.15	199377	keystroke_p	p	n/a
99.7935	0.15	199587	keystroke_e	e	n/a
99.8835	0.12	199767	keystroke_r	r	n/a
100.184	0.135	200368	keystroke_c	c	n/a
100.3335	0.135	200667	keystroke_e	e	n/a
100.5285	0.15	201057	keystroke_n	n	n/a
100.6335	0.105	201267	keystroke_t	t	n/a
100.7835	0.15	201567	keystroke_a	a	n/a
101.0085	0.165	202017	keystroke_g	g	n/a
101.114	0.1345	202228	keystroke_e	e	n/a
101.2335	0.165	202467	keystroke_Key.space	Key.space	n/a
101.3835	0.12	202767	keystroke_b	b	n/a
101.5185	0.135	203037	keystroke_r	r	n/a
101.6835	0.12	203367	keystroke_i	i	n/a
102.0735	0.06	204147	keystroke_l	l	n/a
102.254	0.135	204508	keystroke_l	l	n/a
102.344	0.1045	204688	keystroke_i	i	n/a
102.4935	0.09	204987	keystroke_a	a	n/a
102.6285	0.135	205257	keystroke_n	n	n/a
102.7785	0.105	205557	keystroke_t	t	n/a
102.8985	0.165	205797	keystroke_Key.space	Key.space	n/a
103.1085	0.12	206217	keystroke_n	n	n/a
103.3185	0.105	206637	keystroke_i	i	n/a
103.529	0.105	207058	keystroke_k	k	n/a
103.679	0.105	207358	keystroke_e	e	n/a
103.919	0.09	207838	keystroke_Key.enter	Key.enter	n/a
104.013	6.9425	208026	prompt	n/a	setup sheet washer fort\n
104.8335	0.105	209667	keystroke_s	s	n/a
105.0585	0.15	210117	keystroke_e	e	n/a
105.1935	0.165	210387	keystroke_t	t	n/a
105.3735	0.18	210747	keystroke_Key.space	Key.space	n/a
105.4785	0.195	210957	keystroke_u	u	n/a
106.079	0.03	212158	keystroke_Key.backspace	Key.backspace	n/a
106.169	0.09	212338	keystroke_Key.backspace	Key.backspace	n/a
107.174	0.21	214348	keystroke_u	u	n/a
107.309	0.165	214618	keystroke_p	p	n/a
107.444	0.149	214888	keystroke_Key.space	Key.space	n/a
107.564	0.12	215128	keystroke_s	s	n/a
107.699	0.15	215398	keystroke_h	h	n/a
107.864	0.045	215728	keystroke_e	e	n/a
108.3435	0.12	216687	keystroke_e	e	n/a
108.6135	0.135	217227	keystroke_t	t	n/a
108.8085	0.165	217617	keystroke_Key.space	Key.space	n/a
109.0335	0.12	218067	keystroke_w	w	n/a
109.1235	0.255	218247	keystroke_a	a	n/a
109.3035	0.1505	218607	keystroke_s	s	n/a
109.588	0.136	219176	keystroke_h	h	n/a
109.694	0.1645	219388	keystroke_e	e	n/a
109.784	0.1495	219568	keystroke_r	r	n/a
109.9345	0.164	219869	keystroke_Key.space	Key.space	n/a
110.0685	0.135	220137	keystroke_f	f	n/a
110.2335	0.15	220467	keystroke_o	o	n/a
110.3535	0.12	220707	keystroke_r	r	n/a
110.5935	0.105	221187	keystroke_t	t	n/a
110.7735	0.1805	221547	keystroke_Key.enter	Key.enter	n/a
110.9585	5.532	221917	prompt	n/a	pastor douglas modeling chat\n
111.794	0.12	223588	keystroke_p	p	n/a
111.899	0.1495	223798	keystroke_a	a	n/a
112.244	0.135	224488	keystroke_s	s	n/a
112.589	0.105	225178	keystroke_t	t	n/a
112.739	0.105	225478	keystroke_o	o	n/a
112.874	0.12	225748	keystroke_r	r	n/a
113.009	0.12	226018	keystroke_Key.space	Key.space	n/a
113.159	0.135	226318	keystroke_d	d	n/a
113.279	0.24	226558	keystroke_o	o	n/a
113.414	0.165	226828	keystroke_u	u	n/a
113.594	0.105	227188	keystroke_g	g	n/a
113.804	0.135	227608	keystroke_l	l	n/a
113.909	0.135	227818	keystroke_a	a	n/a
114.014	0.165	228028	keystroke_s	s	n/a
114.134	0.18	228268	keystroke_Key.space	Key.space	n/a
114.374	0.225	228748	keystroke_m	m	n/a
114.524	0.135	229048	keystroke_o	o	n/a
114.629	0.165	229258	keystroke_d	d	n/a
114.719	0.15	229438	keystroke_e	e	n/a
114.839	0.1495	229678	keystroke_l	l	n/a
114.929	0.1945	229858	keystroke_i	i	n/a
115.0485	0.135	230097	keystroke_n	n	n/a
115.1685	0.105	230337	keystroke_g	g	n/a
115.2885	0.135	230577	keystroke_Key.space	Key.space	n/a
115.4085	0.15	230817	keystroke_c	c	n/a
115.5735	0.135	231147	keystroke_h	h	n/a
115.7235	0.135	231447	keystroke_a	a	n/a
116.0085	0.12	232017	keystroke_t	t	n/a
116.3385	0.15	232677	keystroke_Key.enter	Key.enter	n/a
116.493	5.292	232986	prompt	n/a	religions robert sara cotton\n
117.4185	0.1655	234837	keystroke_r	r	n/a
117.494	0.165	234988	keystroke_e	e	n/a
117.674	0.21	235348	keystroke_l	l	n/a
117.809	0.105	235618	keystroke_i	i	n/a
117.914	0.105	235828	keystroke_g	g	n/a
118.049	0.195	236098	keystroke_i	i	n/a
118.109	0.165	236218	keystroke_o	o	n/a
118.184	0.12	236368	keystroke_n	n	n/a
118.289	0.12	236578	keystroke_s	s	n/a
118.394	0.135	236788	keystroke_Key.space	Key.space	n/a
118.544	0.105	237088	keystroke_r	r	n/a
118.634	0.195	237268	keystroke_o	o	n/a
118.769	0.15	237538	keystroke_b	b	n/a
118.904	0.135	237808	keystroke_e	e	n/a
118.994	0.0895	237988	keystroke_r	r	n/a
119.2335	0.075	238467	keystroke_t	t	n/a
119.3535	0.135	238707	keystroke_Key.space	Key.space	n/a
119.5035	0.165	239007	keystroke_s	s	n/a
119.6985	0.12	239397	keystroke_a	a	n/a
119.9385	0.135	239877	keystroke_r	r	n/a
120.1035	0.1345	240207	keystroke_a	a	n/a
120.283	0.135	240566	keystroke_Key.space	Key.space	n/a
120.404	0.1495	240808	keystroke_c	c	n/a
120.7185	0.12	241437	keystroke_o	o	n/a
120.9585	0.03	241917	keystroke_t	t	n/a
121.124	0.105	242248	keystroke_t	t	n/a
121.289	0.18	242578	keystroke_o	o	n/a
121.379	0.1495	242758	keystroke_n	n	n/a
121.6485	0.135	243297	keystroke_Key.enter	Key.enter	n/a
121.788	7.662	243576	prompt	n/a	exposure cherry corners expensive\n
122.6235	0.12	245247	keystroke_e	e	n/a
122.8785	0.135	245757	keystroke_x	x	n/a
123.0735	0.225	246147	keystroke_p	p	n/a
123.2085	0.135	246417	keystroke_o	o	n/a
123.3135	0.12	246627	keystroke_s	s	n/a
123.524	0.09	247048	keystroke_u	u	n/a
123.644	0.15	247288	keystroke_r	r	n/a
123.704	0.15	247408	keystroke_e	e	n/a
123.809	0.15	247618	keystroke_Key.space	Key.space	n/a
124.034	0.15	248068	keystroke_c	c	n/a
124.228	0.151	248456	keystroke_h	h	n/a
124.409	0.18	248818	keystroke_e	e	n/a
124.604	0.09	249208	keystroke_r	r	n/a
125.129	0.105	250258	keystroke_r	r	n/a
125.444	0.2395	250888	keystroke_y	y	n/a
125.5785	0.21	251157	keystroke_Key.space	Key.space	n/a
126.419	0.015	252838	keystroke_c	c	n/a
126.509	0.15	253018	keystroke_o	o	n/a
126.674	0.09	253348	keystroke_r	r	n/a
126.839	0.135	253678	keystroke_n	n	n/a
126.959	0.18	253918	keystroke_e	e	n/a
127.064	0.135	254128	keystroke_r	r	n/a
127.3035	0.135	254607	keystroke_s	s	n/a
127.4685	0.1505	254937	keystroke_Key.space	Key.space	n/a
127.604	0.09	255208	keystroke_e	e	n/a
127.829	0.12	255658	keystroke_x	x	n/a
128.069	0.12	256138	keystroke_p	p	n/a
128.174	0.09	256348	keystroke_e	e	n/a
128.369	0.135	256738	keystroke_n	n	n/a
128.474	0.12	256948	keystroke_s	s	n/a
128.699	0.104	257398	keystroke_i	i	n/a
128.818	0.105	257636	keystroke_v	v	n/a
129.058	0.105	258116	keystroke_e	e	n/a
129.328	0.12	258656	keystroke_Key.enter	Key.enter	n/a
129.4535	11.427	258907	prompt	n/a	mediterranean tons procedure occurred\n
130.453	0.12	260906	keystroke_m	m	n/a
130.603	0.135	261206	keystroke_e	e	n/a
130.9335	0.12	261867	keystroke_d	d	n/a
131.294	0.1195	262588	keystroke_i	i	n/a
131.6085	0.12	263217	keystroke_t	t	n/a
131.9385	0.135	263877	keystroke_e	e	n/a
132.284	0.105	264568	keystroke_r	r	n/a
132.509	0.105	265018	keystroke_r	r	n/a
132.7335	0.12	265467	keystroke_a	a	n/a
133.139	0.15	266278	keystroke_n	n	n/a
133.349	0.18	266698	keystroke_e	e	n/a
133.454	0.165	266908	keystroke_a	a	n/a
133.619	0.12	267238	keystroke_n	n	n/a
133.769	0.15	267538	keystroke_Key.space	Key.space	n/a
133.949	0.09	267898	keystroke_t	t	n/a
134.2185	0.27	268437	keystroke_o	o	n/a
134.4135	0.165	268827	keystroke_n	n	n/a
134.7285	0.15	269457	keystroke_s	s	n/a
134.9085	0.135	269817	keystroke_Key.space	Key.space	n/a
135.1645	0.1345	270329	keystroke_p	p	n/a
135.284	0.105	270568	keystroke_r	r	n/a
135.434	0.1045	270868	keystroke_o	o	n/a
135.5685	0.12	271137	keystroke_d	d	n/a
136.8435	0.015	273687	keystroke_Key.backspace	Key.backspace	n/a
136.9635	0.135	273927	keystroke_c	c	n/a
137.2485	0.135	274497	keystroke_e	e	n/a
137.5635	0.135	275127	keystroke_d	d	n/a
137.7285	0.12	275457	keystroke_u	u	n/a
137.8495	0.164	275699	keystroke_r	r	n/a
137.9385	0.165	275877	keystroke_e	e	n/a
138.0435	0.1805	276087	keystroke_Key.space	Key.space	n/a
138.209	0.12	276418	keystroke_o	o	n/a
138.494	0.135	276988	keystroke_c	c	n/a
139.169	0.105	278338	keystroke_c	c	n/a
139.424	0.12	278848	keystroke_u	u	n/a
139.709	0.075	279418	keystroke_r	r	n/a
139.949	0.075	279898	keystroke_r	r	n/a
140.144	0.15	280288	keystroke_e	e	n/a
140.399	0.18	280798	keystroke_d	d	n/a
140.714	0.165	281428	keystroke_Key.enter	Key.enter	n/a
140.8835	9.5515	281767	prompt	n/a	environmental acts affairs allergy\n
141.5385	0.075	283077	keystroke_e	e	n/a
141.6735	0.135	283347	keystroke_n	n	n/a
141.8685	0.135	283737	keystroke_v	v	n/a
142.0635	0.12	284127	keystroke_i	i	n/a
142.2435	0.09	284487	keystroke_r	r	n/a
142.3345	0.209	284669	keystroke_o	o	n/a
142.4835	0.135	284967	keystroke_n	n	n/a
143.4885	0.1505	286977	keystroke_m	m	n/a
143.669	0.105	287338	keystroke_e	e	n/a
143.834	0.135	287668	keystroke_n	n	n/a
143.984	0.0895	287968	keystroke_t	t	n/a
144.1785	0.135	288357	keystroke_a	a	n/a
144.3135	0.18	288627	keystroke_l	l	n/a
144.4335	0.18	288867	keystroke_Key.space	Key.space	n/a
144.5535	0.135	289107	keystroke_a	a	n/a
145.1085	0.135	290217	keystroke_c	c	n/a
145.4385	0.12	290877	keystroke_t	t	n/a
145.7535	0.105	291507	keystroke_s	s	n/a
145.994	0.135	291988	keystroke_Key.space	Key.space	n/a
146.114	0.12	292228	keystroke_a	a	n/a
146.399	0.075	292798	keystroke_f	f	n/a
146.594	0.06	293188	keystroke_f	f	n/a
146.729	0.12	293458	keystroke_a	a	n/a
146.969	0.105	293938	keystroke_r	r	n/a
147.8985	0.075	295797	keystroke_Key.backspace	Key.backspace	n/a
148.229	0.104	296458	keystroke_i	i	n/a
148.349	0.164	296698	keystroke_r	r	n/a
148.438	0.166	296876	keystroke_s	s	n/a
148.648	0.135	297296	keystroke_Key.space	Key.space	n/a
149.1435	0.105	298287	keystroke_a	a	n/a
149.3535	0.075	298707	keystroke_l	l	n/a
149.4885	0.09	298977	keystroke_l	l	n/a
149.5635	0.15	299127	keystroke_e	e	n/a
149.6385	0.105	299277	keystroke_r	r	n/a
149.8935	0.105	299787	keystroke_g	g	n/a
150.0135	0.12	300027	keystroke_y	y	n/a
150.2835	0.1505	300567	keystroke_Key.enter	Key.enter	n/a
150.4385	13.3915	300877	prompt	n/a	thesaurus populations firmware thoughts\n
151.274	0.135	302548	keystroke_t	t	n/a
151.724	0.135	303448	keystroke_h	h	n/a
151.904	0.105	303808	keystroke_e	e	n/a
152.189	0.135	304378	keystroke_s	s	n/a
152.444	0.1345	304888	keystroke_a	a	n/a
152.7585	0.12	305517	keystroke_r	r	n/a
153.1035	0.09	306207	keystroke_u	u	n/a
153.4185	0.0755	306837	keystroke_r	r	n/a
153.554	0.105	307108	keystroke_u	u	n/a
153.689	0.105	307378	keystroke_s	s	n/a
153.839	0.1345	307678	keystroke_Key.space	Key.space	n/a
154.4535	0.015	308907	keystroke_Key.backspace	Key.backspace	n/a
154.6185	0.06	309237	keystroke_Key.backspace	Key.backspace	n/a
154.7685	0.045	309537	keystroke_Key.backspace	Key.backspace	n/a
154.8885	0.075	309777	keystroke_Key.backspace	Key.backspace	n/a
155.6985	0.12	311397	keystroke_s	s	n/a
155.864	0.135	311728	keystroke_Key.space	Key.space	n/a
156.434	0.045	312868	keystroke_Key.backspace	Key.backspace	n/a
156.614	0.18	313228	keystroke_Key.backspace	Key.backspace	n/a
156.869	0.105	313738	keystroke_Key.backspace	Key.backspace	n/a
157.049	0.12	314098	keystroke_Key.backspace	Key.backspace	n/a
157.994	0.12	315988	keystroke_u	u	n/a
158.129	0.12	316258	keystroke_r	r	n/a
158.279	0.12	316558	keystroke_u	u	n/a
158.384	0.135	316768	keystroke_s	s	n/a
158.534	0.15	317068	keystroke_Key.space	Key.space	n/a
159.299	0.18	318598	keystroke_p	p	n/a
159.449	0.21	318898	keystroke_o	o	n/a
159.584	0.135	319168	keystroke_p	p	n/a
159.809	0.105	319618	keystroke_u	u	n/a
159.988	0.135	319976	keystroke_l	l	n/a
160.048	0.15	320096	keystroke_a	a	n/a
160.258	0.12	320516	keystroke_t	t	n/a
160.393	0.255	320786	keystroke_i	i	n/a
160.453	0.225	320906	keystroke_o	o	n/a
160.558	0.121	321116	keystroke_n	n	n/a
160.618	0.135	321236	keystroke_s	s	n/a
160.783	0.18	321566	keystroke_Key.space	Key.space	n/a
160.948	0.105	321896	keystroke_f	f	n/a
161.083	0.12	322166	keystroke_i	i	n/a
161.218	0.12	322436	keystroke_r	r	n/a
161.368	0.12	322736	keystroke_m	m	n/a
161.549	0.15	323098	keystroke_w	w	n/a
161.624	0.15	323248	keystroke_a	a	n/a
161.924	0.15	323848	keystroke_r	r	n/a
162.014	0.135	324028	keystroke_e	e	n/a
162.179	0.12	324358	keystroke_Key.space	Key.space	n/a
162.404	0.12	324808	keystroke_t	t	n/a
162.509	0.09	325018	keystroke_h	h	n/a
162.659	0.2245	325318	keystroke_o	o	n/a
162.7785	0.12	325557	keystroke_u	u	n/a
162.8685	0.075	325737	keystroke_g	g	n/a
163.0335	0.12	326067	keystroke_h	h	n/a
163.0935	0.165	326187	keystroke_t	t	n/a
163.2435	0.165	326487	keystroke_s	s	n/a
163.6935	0.135	327387	keystroke_Key.enter	Key.enter	n/a
163.835	5.14	327670	prompt	n/a	nails filters routing sunset\n
164.5185	0.09	329037	keystroke_n	n	n/a
164.6385	0.135	329277	keystroke_a	a	n/a
164.7585	0.18	329517	keystroke_i	i	n/a
164.8635	0.12	329727	keystroke_l	l	n/a
164.9235	0.12	329847	keystroke_s	s	n/a
165.1185	0.1655	330237	keystroke_Key.space	Key.space	n/a
165.404	0.105	330808	keystroke_f	f	n/a
165.554	0.165	331108	keystroke_i	i	n/a
165.644	0.15	331288	keystroke_l	l	n/a
165.734	0.105	331468	keystroke_t	t	n/a
165.884	0.1645	331768	keystroke_e	e	n/a
165.989	0.1045	331978	keystroke_r	r	n/a
166.2135	0.135	332427	keystroke_s	s	n/a
166.4085	0.09	332817	keystroke_Key.space	Key.space	n/a
166.5135	0.12	333027	keystroke_r	r	n/a
166.6185	0.225	333237	keystroke_o	o	n/a
166.7385	0.135	333477	keystroke_u	u	n/a
166.8585	0.12	333717	keystroke_t	t	n/a
166.9935	0.195	333987	keystroke_i	i	n/a
167.0985	0.135	334197	keystroke_n	n	n/a
167.2185	0.09	334437	keystroke_g	g	n/a
167.3085	0.15	334617	keystroke_Key.space	Key.space	n/a
167.4435	0.15	334887	keystroke_s	s	n/a
167.6085	0.1655	335217	keystroke_u	u	n/a
167.714	0.15	335428	keystroke_n	n	n/a
168.029	0.1195	336058	keystroke_s	s	n/a
168.2535	0.105	336507	keystroke_e	e	n/a
168.5685	0.12	337137	keystroke_t	t	n/a
168.8235	0.15	337647	keystroke_Key.enter	Key.enter	n/a
168.978	7.6925	337956	prompt	n/a	matthew london italy garbage\n
169.709	0.12	339418	keystroke_m	m	n/a
169.844	0.09	339688	keystroke_a	a	n/a
170.129	0.075	340258	keystroke_t	t	n/a
170.324	0.045	340648	keystroke_t	t	n/a
170.429	0.12	340858	keystroke_h	h	n/a
170.564	0.18	341128	keystroke_e	e	n/a
170.669	0.135	341338	keystroke_w	w	n/a
170.788	0.211	341576	keystroke_Key.space	Key.space	n/a
170.939	0.105	341878	keystroke_l	l	n/a
171.179	0.164	342358	keystroke_o	o	n/a
171.269	0.1495	342538	keystroke_n	n	n/a
171.4935	0.15	342987	keystroke_d	d	n/a
171.6735	0.24	343347	keystroke_o	o	n/a
171.7635	0.225	343527	keystroke_n	n	n/a
171.9145	0.179	343829	keystroke_Key.space	Key.space	n/a
172.2285	0.12	344457	keystroke_i	i	n/a
172.3785	0.12	344757	keystroke_t	t	n/a
172.8135	0.15	345627	keystroke_a	a	n/a
173.0385	0.105	346077	keystroke_l	l	n/a
173.849	0.105	347698	keystroke_y	y	n/a
174.073	0.135	348146	keystroke_Key.space	Key.space	n/a
174.253	0.135	348506	keystroke_g	g	n/a
174.643	0.165	349286	keystroke_a	a	n/a
174.929	0.134	349858	keystroke_r	r	n/a
175.423	0.105	350846	keystroke_b	b	n/a
175.633	0.12	351266	keystroke_a	a	n/a
175.874	0.104	351748	keystroke_g	g	n/a
176.098	0.12	352196	keystroke_e	e	n/a
176.5185	0.15	353037	keystroke_Key.enter	Key.enter	n/a
176.674	9.731	353348	prompt	n/a	contracting posing chile several\n
177.5235	0.045	355047	keystroke_o	o	n/a
177.913	0.105	355826	keystroke_Key.backspace	Key.backspace	n/a
178.079	0.119	356158	keystroke_c	c	n/a
178.243	0.225	356486	keystroke_o	o	n/a
178.379	0.179	356758	keystroke_n	n	n/a
178.543	0.09	357086	keystroke_t	t	n/a
178.753	0.105	357506	keystroke_r	r	n/a
178.888	0.2105	357776	keystroke_a	a	n/a
179.1585	0.135	358317	keystroke_c	c	n/a
179.4585	0.1205	358917	keystroke_t	t	n/a
179.624	0.18	359248	keystroke_i	i	n/a
179.819	0.105	359638	keystroke_g	g	n/a
179.954	0.195	359908	keystroke_Key.space	Key.space	n/a
180.104	0.27	360208	keystroke_p	p	n/a
180.254	0.1795	360508	keystroke_o	o	n/a
180.9735	0.06	361947	keystroke_Key.backspace	Key.backspace	n/a
181.1085	0.075	362217	keystroke_Key.backspace	Key.backspace	n/a
181.2435	0.075	362487	keystroke_Key.backspace	Key.backspace	n/a
181.4835	0.06	362967	keystroke_Key.backspace	Key.backspace	n/a
181.978	0.135	363956	keystroke_n	n	n/a
182.098	0.121	364196	keystroke_g	g	n/a
182.188	0.21	364376	keystroke_Key.space	Key.space	n/a
182.384	0.21	364768	keystroke_p	p	n/a
182.504	0.119	365008	keystroke_o	o	n/a
182.668	0.09	365336	keystroke_s	s	n/a
182.774	0.255	365548	keystroke_i	i	n/a
182.909	0.15	365818	keystroke_n	n	n/a
183.044	0.1195	366088	keystroke_g	g	n/a
183.118	0.1505	366236	keystroke_Key.space	Key.space	n/a
183.3135	0.12	366627	keystroke_c	c	n/a
183.4635	0.225	366927	keystroke_h	h	n/a
183.5835	0.21	367167	keystroke_i	i	n/a
183.6735	0.195	367347	keystroke_l	l	n/a
184.3335	0.105	368667	keystroke_e	e	n/a
184.5885	0.135	369177	keystroke_Key.space	Key.space	n/a
184.7835	0.12	369567	keystroke_s	s	n/a
185.0235	0.09	370047	keystroke_e	e	n/a
185.2485	0.12	370497	keystroke_v	v	n/a
185.4885	0.135	370977	keystroke_e	e	n/a
185.5785	0.105	371157	keystroke_r	r	n/a
185.7435	0.1505	371487	keystroke_a	a	n/a
185.909	0.105	371818	keystroke_l	l	n/a
186.359	0.045	372718	keystroke_Key.enter	Key.enter	n/a
186.4085	7.392	372817	prompt	n/a	knights special poverty offer\n
187.184	0.1045	374368	keystroke_k	k	n/a
187.4085	0.12	374817	keystroke_n	n	n/a
187.649	0.105	375298	keystroke_i	i	n/a
187.724	0.105	375448	keystroke_g	g	n/a
187.874	0.1195	375748	keystroke_h	h	n/a
187.9785	0.135	375957	keystroke_t	t	n/a
188.0985	0.15	376197	keystroke_s	s	n/a
188.2635	0.1645	376527	keystroke_Key.space	Key.space	n/a
188.473	0.136	376946	keystroke_s	s	n/a
188.624	0.12	377248	keystroke_p	p	n/a
188.713	0.075	377426	keystroke_e	e	n/a
188.954	0.12	377908	keystroke_c	c	n/a
189.089	0.104	378178	keystroke_i	i	n/a
189.194	0.12	378388	keystroke_a	a	n/a
189.329	0.165	378658	keystroke_l	l	n/a
189.479	0.12	378958	keystroke_Key.space	Key.space	n/a
189.704	0.105	379408	keystroke_p	p	n/a
189.929	0.1195	379858	keystroke_o	o	n/a
190.0335	0.106	380067	keystroke_v	v	n/a
190.2745	0.209	380549	keystroke_e	e	n/a
190.4085	0.151	380817	keystroke_r	r	n/a
190.6935	0.1205	381387	keystroke_t	t	n/a
190.9335	0.091	381867	keystroke_y	y	n/a
191.2345	0.1345	382469	keystroke_Key.space	Key.space	n/a
191.414	0.1495	382828	keystroke_o	o	n/a
191.5335	0.09	383067	keystroke_g	g	n/a
191.7135	0.09	383427	keystroke_g	g	n/a
192.1785	0.09	384357	keystroke_Key.backspace	Key.backspace	n/a
192.3435	0.075	384687	keystroke_Key.backspace	Key.backspace	n/a
192.5235	0.09	385047	keystroke_f	f	n/a
192.7185	0.06	385437	keystroke_f	f	n/a
192.9885	0.165	385977	keystroke_e	e	n/a
193.0935	0.135	386187	keystroke_r	r	n/a
193.6635	0.135	387327	keystroke_Key.enter	Key.enter	n/a
193.8035	12.417	387607	prompt	n/a	military balance principle distribution\n
194.4885	0.12	388977	keystroke_m	m	n/a
194.7435	0.105	389487	keystroke_i	i	n/a
195.0285	0.18	390057	keystroke_l	l	n/a
195.1335	0.12	390267	keystroke_i	i	n/a
195.2385	0.105	390477	keystroke_t	t	n/a
195.4485	0.1805	390897	keystroke_a	a	n/a
195.569	0.135	391138	keystroke_r	r	n/a
195.719	0.24	391438	keystroke_y	y	n/a
195.854	0.165	391708	keystroke_Key.space	Key.space	n/a
196.109	0.105	392218	keystroke_b	b	n/a
196.364	0.135	392728	keystroke_l	l	n/a
196.484	0.09	392968	keystroke_a	a	n/a
196.9485	0.12	393897	keystroke_Key.backspace	Key.backspace	n/a
197.2935	0.075	394587	keystroke_Key.backspace	Key.backspace	n/a
197.5185	0.1355	395037	keystroke_a	a	n/a
197.654	0.12	395308	keystroke_l	l	n/a
197.804	0.12	395608	keystroke_a	a	n/a
197.984	0.135	395968	keystroke_n	n	n/a
198.104	0.18	396208	keystroke_c	c	n/a
198.209	0.18	396418	keystroke_e	e	n/a
198.358	0.195	396716	keystroke_Key.space	Key.space	n/a
198.449	0.135	396898	keystroke_p	p	n/a
198.599	0.12	397198	keystroke_r	r	n/a
198.734	0.12	397468	keystroke_i	i	n/a
199.169	0.105	398338	keystroke_n	n	n/a
199.439	0.12	398878	keystroke_c	c	n/a
199.574	0.12	399148	keystroke_i	i	n/a
199.844	0.225	399688	keystroke_p	p	n/a
199.949	0.165	399898	keystroke_l	l	n/a
200.099	0.15	400198	keystroke_e	e	n/a
200.1445	0.1945	400289	keystroke_s	s	n/a
200.294	0.15	400588	keystroke_Key.space	Key.space	n/a
200.474	0.135	400948	keystroke_d	d	n/a
200.669	0.105	401338	keystroke_i	i	n/a
200.864	0.105	401728	keystroke_s	s	n/a
201.6285	0.045	403257	keystroke_Key.backspace	Key.backspace	n/a
201.8685	0.075	403737	keystroke_Key.backspace	Key.backspace	n/a
202.0335	0.06	404067	keystroke_Key.backspace	Key.backspace	n/a
202.2735	0.075	404547	keystroke_Key.backspace	Key.backspace	n/a
202.4985	0.045	404997	keystroke_Key.backspace	Key.backspace	n/a
203.0085	0.135	406017	keystroke_Key.space	Key.space	n/a
203.4285	0.135	406857	keystroke_d	d	n/a
203.6685	0.106	407337	keystroke_i	i	n/a
203.8485	0.12	407697	keystroke_s	s	n/a
204.2235	0.15	408447	keystroke_t	t	n/a
204.4045	0.149	408809	keystroke_r	r	n/a
204.5985	0.135	409197	keystroke_i	i	n/a
204.8535	0.12	409707	keystroke_b	b	n/a
205.1085	0.12	410217	keystroke_u	u	n/a
205.2885	0.15	410577	keystroke_t	t	n/a
205.4535	0.2255	410907	keystroke_i	i	n/a
205.529	0.27	411058	keystroke_o	o	n/a
205.649	0.165	411298	keystroke_n	n	n/a
206.084	0.135	412168	keystroke_Key.enter	Key.enter	n/a
206.2235	4.347	412447	prompt	n/a	disco hours counted lamps\n
206.849	0.15	413698	keystroke_d	d	n/a
206.984	0.12	413968	keystroke_i	i	n/a
207.074	0.105	414148	keystroke_s	s	n/a
207.269	0.105	414538	keystroke_c	c	n/a
207.344	0.1945	414688	keystroke_o	o	n/a
207.449	0.1945	414898	keystroke_Key.space	Key.space	n/a
207.659	0.12	415318	keystroke_h	h	n/a
207.884	0.15	415768	keystroke_o	o	n/a
207.974	0.135	415948	keystroke_u	u	n/a
208.064	0.15	416128	keystroke_r	r	n/a
208.139	0.165	416278	keystroke_s	s	n/a
208.259	0.135	416518	keystroke_Key.space	Key.space	n/a
208.439	0.135	416878	keystroke_c	c	n/a
208.679	0.15	417358	keystroke_o	o	n/a
208.739	0.12	417478	keystroke_u	u	n/a
208.994	0.135	417988	keystroke_n	n	n/a
209.069	0.12	418138	keystroke_t	t	n/a
209.204	0.21	418408	keystroke_e	e	n/a
209.354	0.165	418708	keystroke_d	d	n/a
209.459	0.18	418918	keystroke_Key.space	Key.space	n/a
209.579	0.15	419158	keystroke_l	l	n/a
209.714	0.135	419428	keystroke_a	a	n/a
209.864	0.12	419728	keystroke_m	m	n/a
210.059	0.135	420118	keystroke_p	p	n/a
210.179	0.105	420358	keystroke_s	s	n/a
210.4935	0.075	420987	keystroke_Key.enter	Key.enter	n/a
210.573	10.1225	421146	prompt	n/a	penalties adverse does interference\n
211.4385	0.0605	422877	keystroke_p	p	n/a
211.6035	0.105	423207	keystroke_e	e	n/a
211.799	0.165	423598	keystroke_n	n	n/a
212.7435	0.135	425487	keystroke_a	a	n/a
213.2985	0.135	426597	keystroke_l	l	n/a
214.394	0.045	428788	keystroke_t	t	n/a
214.8895	0.165	429779	keystroke_i	i	n/a
214.9935	0.165	429987	keystroke_e	e	n/a
215.0695	0.149	430139	keystroke_s	s	n/a
215.2335	0.165	430467	keystroke_Key.space	Key.space	n/a
215.3245	0.1945	430649	keystroke_a	a	n/a
215.504	0.12	431008	keystroke_d	d	n/a
215.759	0.0895	431518	keystroke_v	v	n/a
215.9835	0.165	431967	keystroke_e	e	n/a
216.0885	0.12	432177	keystroke_r	r	n/a
216.3885	0.135	432777	keystroke_s	s	n/a
216.4495	0.164	432899	keystroke_e	e	n/a
216.6585	0.105	433317	keystroke_Key.space	Key.space	n/a
216.7485	0.12	433497	keystroke_d	d	n/a
216.9145	0.149	433829	keystroke_o	o	n/a
217.0195	0.194	434039	keystroke_e	e	n/a
217.0935	0.15	434187	keystroke_s	s	n/a
217.2285	0.135	434457	keystroke_Key.space	Key.space	n/a
217.3935	0.195	434787	keystroke_i	i	n/a
217.4985	0.18	434997	keystroke_n	n	n/a
217.6035	0.105	435207	keystroke_t	t	n/a
217.7835	0.165	435567	keystroke_e	e	n/a
217.8885	0.15	435777	keystroke_r	r	n/a
218.2185	0.12	436437	keystroke_f	f	n/a
218.4285	0.12	436857	keystroke_e	e	n/a
218.4885	0.15	436977	keystroke_r	r	n/a
219.1035	0.105	438207	keystroke_e	e	n/a
219.2685	0.15	438537	keystroke_n	n	n/a
219.8535	0.135	439707	keystroke_c	c	n/a
220.1385	0.09	440277	keystroke_e	e	n/a
220.5435	0.15	441087	keystroke_Key.enter	Key.enter	n/a
220.6985	9.2075	441397	prompt	n/a	livestock suited italia hydraulic\n
221.5035	0.195	443007	keystroke_l	l	n/a
221.6235	0.135	443247	keystroke_i	i	n/a
221.7135	0.105	443427	keystroke_v	v	n/a
221.8635	0.135	443727	keystroke_e	e	n/a
222.3735	0.045	444747	keystroke_s	s	n/a
222.5235	0.135	445047	keystroke_t	t	n/a
222.6435	0.1505	445287	keystroke_o	o	n/a
222.809	0.12	445618	keystroke_c	c	n/a
222.899	0.21	445798	keystroke_k	k	n/a
223.064	0.1345	446128	keystroke_Key.space	Key.space	n/a
223.1385	0.12	446277	keystroke_s	s	n/a
223.4235	0.225	446847	keystroke_u	u	n/a
223.5735	0.135	447147	keystroke_i	i	n/a
223.6035	0.15	447207	keystroke_t	t	n/a
223.7685	0.225	447537	keystroke_e	e	n/a
223.9335	0.1505	447867	keystroke_d	d	n/a
224.084	0.135	448168	keystroke_Key.space	Key.space	n/a
224.519	0.135	449038	keystroke_i	i	n/a
224.744	0.075	449488	keystroke_t	t	n/a
225.029	0.12	450058	keystroke_a	a	n/a
225.764	0.12	451528	keystroke_l	l	n/a
226.004	0.105	452008	keystroke_i	i	n/a
226.154	0.12	452308	keystroke_a	a	n/a
226.289	0.104	452578	keystroke_Key.space	Key.space	n/a
226.514	0.1045	453028	keystroke_h	h	n/a
227.054	0.12	454108	keystroke_y	y	n/a
227.2635	0.135	454527	keystroke_d	d	n/a
227.5635	0.135	455127	keystroke_r	r	n/a
228.3885	0.135	456777	keystroke_a	a	n/a
228.8985	0.105	457797	keystroke_u	u	n/a
229.1985	0.09	458397	keystroke_l	l	n/a
229.3935	0.12	458787	keystroke_i	i	n/a
229.5285	0.12	459057	keystroke_c	c	n/a
229.7835	0.12	459567	keystroke_Key.enter	Key.enter	n/a
229.909	11.4265	459818	prompt	n/a	surrounding delivered annually firewire\n
230.6685	0.135	461337	keystroke_s	s	n/a
230.939	0.105	461878	keystroke_u	u	n/a
231.149	0.09	462298	keystroke_r	r	n/a
231.404	0.075	462808	keystroke_r	r	n/a
231.5685	0.195	463137	keystroke_o	o	n/a
231.6735	0.12	463347	keystroke_u	u	n/a
231.929	0.1045	463858	keystroke_n	n	n/a
232.0635	0.12	464127	keystroke_d	d	n/a
232.1985	0.195	464397	keystroke_i	i	n/a
232.3035	0.135	464607	keystroke_n	n	n/a
232.4535	0.105	464907	keystroke_g	g	n/a
232.6035	0.15	465207	keystroke_Key.space	Key.space	n/a
232.7985	0.105	465597	keystroke_d	d	n/a
232.9785	0.15	465957	keystroke_e	e	n/a
233.2485	0.18	466497	keystroke_l	l	n/a
233.3685	0.135	466737	keystroke_i	i	n/a
233.5335	0.105	467067	keystroke_v	v	n/a
233.7585	0.18	467517	keystroke_e	e	n/a
233.8935	0.15	467787	keystroke_r	r	n/a
234.0435	0.165	468087	keystroke_e	e	n/a
234.1935	0.15	468387	keystroke_d	d	n/a
234.3735	0.15	468747	keystroke_Key.space	Key.space	n/a
234.5085	0.09	469017	keystroke_a	a	n/a
234.7485	0.135	469497	keystroke_n	n	n/a
234.959	0.075	469918	keystroke_n	n	n/a
235.259	0.0895	470518	keystroke_u	u	n/a
235.6035	0.105	471207	keystroke_l	l	n/a
236.2035	0.09	472407	keystroke_Key.backspace	Key.backspace	n/a
236.6535	0.135	473307	keystroke_a	a	n/a
236.8185	0.09	473637	keystroke_l	l	n/a
236.9985	0.045	473997	keystroke_l	l	n/a
237.6435	0.09	475287	keystroke_y	y	n/a
237.9135	0.135	475827	keystroke_Key.space	Key.space	n/a
238.3185	0.12	476637	keystroke_f	f	n/a
238.6635	0.135	477327	keystroke_i	i	n/a
238.8285	0.18	477657	keystroke_r	r	n/a
239.0235	0.18	478047	keystroke_e	e	n/a
239.0385	0.015	478077	keystroke_r	r	n/a
239.804	0.09	479608	keystroke_Key.backspace	Key.backspace	n/a
240.299	0.105	480598	keystroke_w	w	n/a
240.494	0.105	480988	keystroke_i	i	n/a
240.779	0.165	481558	keystroke_r	r	n/a
240.854	0.15	481708	keystroke_e	e	n/a
241.199	0.135	482398	keystroke_Key.enter	Key.enter	n/a
241.3385	6.582	482677	prompt	n/a	maria thinks haven later\n
242.0385	0.12	484077	keystroke_m	m	n/a
242.1885	0.15	484377	keystroke_a	a	n/a
242.3085	0.12	484617	keystroke_r	r	n/a
242.4435	0.12	484887	keystroke_i	i	n/a
242.5485	0.1205	485097	keystroke_a	a	n/a
242.6535	0.1505	485307	keystroke_Key.space	Key.space	n/a
242.819	0.135	485638	keystroke_t	t	n/a
242.894	0.12	485788	keystroke_h	h	n/a
242.984	0.15	485968	keystroke_i	i	n/a
243.149	0.12	486298	keystroke_n	n	n/a
243.434	0.105	486868	keystroke_k	k	n/a
243.674	0.105	487348	keystroke_s	s	n/a
244.244	0.12	488488	keystroke_Key.space	Key.space	n/a
244.559	0.105	489118	keystroke_h	h	n/a
244.679	0.12	489358	keystroke_a	a	n/a
245.144	0.12	490288	keystroke_e	e	n/a
245.294	0.15	490588	keystroke_n	n	n/a
245.684	0.045	491368	keystroke_Key.backspace	Key.backspace	n/a
246.044	0.075	492088	keystroke_Key.backspace	Key.backspace	n/a
246.284	0.105	492568	keystroke_v	v	n/a
246.434	0.165	492868	keystroke_e	e	n/a
246.599	0.135	493198	keystroke_n	n	n/a
246.674	0.225	493348	keystroke_Key.space	Key.space	n/a
246.884	0.165	493768	keystroke_l	l	n/a
246.989	0.105	493978	keystroke_a	a	n/a
247.244	0.105	494488	keystroke_t	t	n/a
247.439	0.15	494878	keystroke_e	e	n/a
247.514	0.135	495028	keystroke_r	r	n/a
247.7985	0.12	495597	keystroke_Key.enter	Key.enter	n/a
247.925	6.8955	495850	prompt	n/a	nelson fear steven appears\n
248.9835	0.15	497967	keystroke_n	n	n/a
249.1935	0.135	498387	keystroke_e	e	n/a
249.4485	0.135	498897	keystroke_l	l	n/a
249.5985	0.136	499197	keystroke_s	s	n/a
249.7785	0.24	499557	keystroke_o	o	n/a
249.8985	0.225	499797	keystroke_n	n	n/a
250.0035	0.21	500007	keystroke_Key.space	Key.space	n/a
250.2585	0.075	500517	keystroke_f	f	n/a
250.8285	0.105	501657	keystroke_e	e	n/a
251.219	0.1045	502438	keystroke_a	a	n/a
251.3835	0.135	502767	keystroke_r	r	n/a
251.5485	0.165	503097	keystroke_Key.space	Key.space	n/a
251.6845	0.119	503369	keystroke_s	s	n/a
251.9535	0.12	503907	keystroke_t	t	n/a
252.2535	0.15	504507	keystroke_e	e	n/a
252.6435	0.1355	505287	keystroke_v	v	n/a
252.899	0.105	505798	keystroke_e	e	n/a
253.034	0.18	506068	keystroke_n	n	n/a
253.154	0.15	506308	keystroke_Key.space	Key.space	n/a
253.289	0.12	506578	keystroke_a	a	n/a
253.514	0.06	507028	keystroke_p	p	n/a
253.7385	0.09	507477	keystroke_p	p	n/a
253.8135	0.15	507627	keystroke_e	e	n/a
253.9185	0.18	507837	keystroke_a	a	n/a
254.1285	0.15	508257	keystroke_r	r	n/a
254.3835	0.135	508767	keystroke_s	s	n/a
254.6835	0.135	509367	keystroke_Key.enter	Key.enter	n/a
254.824	8.8315	509648	prompt	n/a	columns closing coach keyword\n
255.464	0.12	510928	keystroke_c	c	n/a
255.659	0.135	511318	keystroke_o	o	n/a
255.974	0.105	511948	keystroke_l	l	n/a
256.229	0.1195	512458	keystroke_u	u	n/a
256.5435	0.105	513087	keystroke_m	m	n/a
256.7985	0.12	513597	keystroke_n	n	n/a
256.9935	0.105	513987	keystroke_s	s	n/a
257.1585	0.165	514317	keystroke_Key.space	Key.space	n/a
257.4435	0.12	514887	keystroke_c	c	n/a
257.5785	0.12	515157	keystroke_l	l	n/a
257.8185	0.105	515637	keystroke_o	o	n/a
257.9535	0.105	515907	keystroke_s	s	n/a
258.149	0.24	516298	keystroke_i	i	n/a
258.253	0.27	516506	keystroke_n	n	n/a
258.433	0.195	516866	keystroke_Key.space	Key.space	n/a
259.108	0.0905	518216	keystroke_Key.backspace	Key.backspace	n/a
259.2135	0.1355	518427	keystroke_g	g	n/a
259.378	0.181	518756	keystroke_Key.space	Key.space	n/a
259.544	0.165	519088	keystroke_c	c	n/a
259.739	0.105	519478	keystroke_o	o	n/a
260.039	0.165	520078	keystroke_a	a	n/a
260.609	0.12	521218	keystroke_c	c	n/a
260.789	0.18	521578	keystroke_h	h	n/a
260.909	0.225	521818	keystroke_Key.space	Key.space	n/a
261.119	0.09	522238	keystroke_k	k	n/a
261.21	0.119	522420	keystroke_e	e	n/a
261.5385	0.015	523077	keystroke_y	y	n/a
261.9585	0.105	523917	keystroke_w	w	n/a
262.1385	0.1055	524277	keystroke_o	o	n/a
262.259	0.105	524518	keystroke_r	r	n/a
263.0685	0.12	526137	keystroke_d	d	n/a
263.5035	0.15	527007	keystroke_Key.enter	Key.enter	n/a
263.6585	10.587	527317	prompt	n/a	emotional monitored architects projector\n
264.404	0.105	528808	keystroke_e	e	n/a
264.6135	0.195	529227	keystroke_m	m	n/a
264.7935	0.1655	529587	keystroke_o	o	n/a
264.974	0.15	529948	keystroke_t	t	n/a
265.139	0.255	530278	keystroke_i	i	n/a
265.244	0.21	530488	keystroke_o	o	n/a
265.379	0.135	530758	keystroke_n	n	n/a
265.484	0.1795	530968	keystroke_a	a	n/a
265.6485	0.195	531297	keystroke_l	l	n/a
265.7535	0.165	531507	keystroke_Key.space	Key.space	n/a
266.0385	0.105	532077	keystroke_m	m	n/a
266.2635	0.1355	532527	keystroke_o	o	n/a
266.939	0.105	533878	keystroke_n	n	n/a
267.224	0.105	534448	keystroke_i	i	n/a
267.449	0.105	534898	keystroke_t	t	n/a
267.659	0.105	535318	keystroke_o	o	n/a
267.794	0.135	535588	keystroke_r	r	n/a
267.884	0.255	535768	keystroke_e	e	n/a
268.079	0.18	536158	keystroke_d	d	n/a
268.304	0.165	536608	keystroke_Key.space	Key.space	n/a
268.454	0.195	536908	keystroke_a	a	n/a
268.604	0.15	537208	keystroke_r	r	n/a
268.934	0.135	537868	keystroke_c	c	n/a
269.2185	0.135	538437	keystroke_h	h	n/a
269.6985	0.135	539397	keystroke_i	i	n/a
269.8185	0.18	539637	keystroke_t	t	n/a
269.9535	0.18	539907	keystroke_e	e	n/a
270.2385	0.12	540477	keystroke_c	c	n/a
270.5385	0.12	541077	keystroke_t	t	n/a
270.6585	0.195	541317	keystroke_s	s	n/a
270.8985	0.135	541797	keystroke_Key.space	Key.space	n/a
271.5885	0.135	543177	keystroke_p	p	n/a
271.949	0.1195	543898	keystroke_r	r	n/a
272.1435	0.135	544287	keystroke_o	o	n/a
272.5635	0.135	545127	keystroke_j	j	n/a
272.834	0.135	545668	keystroke_e	e	n/a
273.119	0.18	546238	keystroke_c	c	n/a
273.5085	0.12	547017	keystroke_t	t	n/a
273.7335	0.105	547467	keystroke_o	o	n/a
273.8235	0.12	547647	keystroke_r	r	n/a
274.0935	0.15	548187	keystroke_Key.enter	Key.enter	n/a
274.1385	0.09	548277	keystroke_]	]	n/a
274.248	7.512	548496	prompt	n/a	appointed madness message urge\n
274.8285	0.12	549657	keystroke_a	a	n/a
275.0385	0.045	550077	keystroke_p	p	n/a
275.2485	0.105	550497	keystroke_p	p	n/a
275.4735	0.1045	550947	keystroke_o	o	n/a
275.939	0.105	551878	keystroke_i	i	n/a
276.509	0.09	553018	keystroke_n	n	n/a
276.704	0.135	553408	keystroke_t	t	n/a
276.899	0.18	553798	keystroke_e	e	n/a
277.064	0.1495	554128	keystroke_d	d	n/a
277.2285	0.165	554457	keystroke_Key.space	Key.space	n/a
277.499	0.12	554998	keystroke_m	m	n/a
277.634	0.12	555268	keystroke_a	a	n/a
278.219	0.135	556438	keystroke_d	d	n/a
278.444	0.135	556888	keystroke_n	n	n/a
278.639	0.135	557278	keystroke_e	e	n/a
278.909	0.105	557818	keystroke_s	s	n/a
279.119	0.12	558238	keystroke_s	s	n/a
279.299	0.135	558598	keystroke_Key.space	Key.space	n/a
279.509	0.12	559018	keystroke_m	m	n/a
279.644	0.105	559288	keystroke_e	e	n/a
279.9135	0.09	559827	keystroke_s	s	n/a
280.1085	0.075	560217	keystroke_s	s	n/a
280.2135	0.15	560427	keystroke_a	a	n/a
280.4685	0.195	560937	keystroke_g	g	n/a
280.5885	0.135	561177	keystroke_e	e	n/a
280.7385	0.225	561477	keystroke_Key.space	Key.space	n/a
280.8735	0.15	561747	keystroke_u	u	n/a
281.0085	0.075	562017	keystroke_r	r	n/a
281.2335	0.1655	562467	keystroke_g	g	n/a
281.354	0.135	562708	keystroke_e	e	n/a
281.609	0.15	563218	keystroke_Key.enter	Key.enter	n/a
281.7635	11.367	563527	prompt	n/a	copyright event classification everybody\n
282.629	0.1345	565258	keystroke_c	c	n/a
282.824	0.12	565648	keystroke_o	o	n/a
283.064	0.12	566128	keystroke_p	p	n/a
283.5435	0.12	567087	keystroke_y	y	n/a
283.8435	0.12	567687	keystroke_r	r	n/a
283.9785	0.1355	567957	keystroke_i	i	n/a
284.129	0.105	568258	keystroke_g	g	n/a
284.249	0.12	568498	keystroke_h	h	n/a
284.339	0.12	568678	keystroke_t	t	n/a
284.519	0.15	569038	keystroke_Key.space	Key.space	n/a
284.654	0.135	569308	keystroke_e	e	n/a
284.909	0.06	569818	keystroke_g	g	n/a
285.5085	0.03	571017	keystroke_=	=	n/a
285.5235	0.03	571047	keystroke_Key.backspace	Key.backspace	n/a
285.5835	0.12	571167	keystroke_v	v	n/a
286.1985	0.12	572397	keystroke_Key.backspace	Key.backspace	n/a
286.5135	0.105	573027	keystroke_Key.backspace	Key.backspace	n/a
286.6635	0.1055	573327	keystroke_v	v	n/a
286.904	0.12	573808	keystroke_e	e	n/a
287.114	0.15	574228	keystroke_n	n	n/a
287.279	0.12	574558	keystroke_t	t	n/a
287.429	0.1495	574858	keystroke_Key.space	Key.space	n/a
287.6385	0.1355	575277	keystroke_c	c	n/a
287.909	0.165	575818	keystroke_l	l	n/a
288.448	0.135	576896	keystroke_a	a	n/a
288.794	0.105	577588	keystroke_s	s	n/a
289.018	0.076	578036	keystroke_s	s	n/a
289.484	0.12	578968	keystroke_i	i	n/a
289.7985	0.105	579597	keystroke_f	f	n/a
290.0685	0.135	580137	keystroke_i	i	n/a
290.1885	0.135	580377	keystroke_c	c	n/a
290.3985	0.12	580797	keystroke_a	a	n/a
290.6235	0.12	581247	keystroke_t	t	n/a
290.729	0.225	581458	keystroke_i	i	n/a
290.804	0.24	581608	keystroke_o	o	n/a
290.984	0.045	581968	keystroke_n	n	n/a
290.999	0.18	581998	keystroke_Key.space	Key.space	n/a
291.194	0.135	582388	keystroke_e	e	n/a
291.449	0.105	582898	keystroke_v	v	n/a
291.689	0.15	583378	keystroke_e	e	n/a
291.779	0.165	583558	keystroke_r	r	n/a
291.929	0.105	583858	keystroke_y	y	n/a
292.169	0.18	584338	keystroke_b	b	n/a
292.334	0.15	584668	keystroke_o	o	n/a
292.469	0.135	584938	keystroke_d	d	n/a
292.664	0.09	585328	keystroke_y	y	n/a
292.994	0.1345	585988	keystroke_Key.enter	Key.enter	n/a
293.1335	13.182	586267	prompt	n/a	boulder mouse correctly monitors\n
293.7885	0.09	587577	keystroke_b	b	n/a
293.9985	0.226	587997	keystroke_o	o	n/a
294.1485	0.1495	588297	keystroke_u	u	n/a
294.509	0.12	589018	keystroke_l	l	n/a
294.7485	0.135	589497	keystroke_d	d	n/a
294.9285	0.165	589857	keystroke_e	e	n/a
295.0335	0.135	590067	keystroke_r	r	n/a
295.1695	0.134	590339	keystroke_Key.space	Key.space	n/a
295.6185	0.135	591237	keystroke_o	o	n/a
296.0685	0.09	592137	keystroke_Key.backspace	Key.backspace	n/a
296.759	0.075	593518	keystroke_m	m	n/a
296.969	0.24	593938	keystroke_o	o	n/a
297.089	0.15	594178	keystroke_u	u	n/a
297.194	0.195	594388	keystroke_s	s	n/a
297.329	0.18	594658	keystroke_e	e	n/a
297.494	0.165	594988	keystroke_Key.space	Key.space	n/a
297.719	0.15	595438	keystroke_c	c	n/a
297.974	0.09	595948	keystroke_o	o	n/a
298.154	0.075	596308	keystroke_r	r	n/a
298.364	0.105	596728	keystroke_r	r	n/a
298.529	0.15	597058	keystroke_e	e	n/a
298.844	0.15	597688	keystroke_c	c	n/a
299.1735	0.105	598347	keystroke_t	t	n/a
299.3985	0.045	598797	keystroke_k	k	n/a
300.089	0.09	600178	keystroke_=	=	n/a
300.464	0.06	600928	keystroke_Key.backspace	Key.backspace	n/a
300.614	0.044	601228	keystroke_Key.backspace	Key.backspace	n/a
301.064	0.105	602128	keystroke_y	y	n/a
301.678	0.0755	603356	keystroke_Key.backspace	Key.backspace	n/a
302.3235	0.105	604647	keystroke_l	l	n/a
302.6535	0.105	605307	keystroke_y	y	n/a
302.9085	0.15	605817	keystroke_Key.space	Key.space	n/a
303.374	0.105	606748	keystroke_m	m	n/a
303.554	0.15	607108	keystroke_o	o	n/a
303.929	0.105	607858	keystroke_n	n	n/a
305.354	0.134	610708	keystroke_i	i	n/a
305.534	0.1345	611068	keystroke_t	t	n/a
305.7135	0.1505	611427	keystroke_o	o	n/a
305.819	0.18	611638	keystroke_r	r	n/a
305.969	0.195	611938	keystroke_s	s	n/a
306.179	0.135	612358	keystroke_Key.enter	Key.enter	n/a
306.318	5.367	612636	prompt	n/a	aware arising shape script\n
306.868	0.136	613736	keystroke_a	a	n/a
307.0635	0.196	614127	keystroke_w	w	n/a
307.1685	0.1345	614337	keystroke_a	a	n/a
307.3945	0.1945	614789	keystroke_r	r	n/a
307.498	0.136	614996	keystroke_e	e	n/a
307.649	0.135	615298	keystroke_Key.space	Key.space	n/a
307.799	0.165	615598	keystroke_a	a	n/a
307.979	0.165	615958	keystroke_r	r	n/a
308.384	0.135	616768	keystroke_i	i	n/a
308.5485	0.135	617097	keystroke_s	s	n/a
308.7135	0.21	617427	keystroke_i	i	n/a
308.8335	0.15	617667	keystroke_n	n	n/a
308.9685	0.12	617937	keystroke_g	g	n/a
309.0735	0.15	618147	keystroke_Key.space	Key.space	n/a
309.2685	0.15	618537	keystroke_s	s	n/a
309.4335	0.1055	618867	keystroke_h	h	n/a
309.554	0.135	619108	keystroke_a	a	n/a
309.704	0.12	619408	keystroke_p	p	n/a
309.839	0.1045	619678	keystroke_e	e	n/a
309.9735	0.15	619947	keystroke_Key.space	Key.space	n/a
310.2285	0.105	620457	keystroke_s	s	n/a
310.5135	0.09	621027	keystroke_c	c	n/a
310.7685	0.09	621537	keystroke_r	r	n/a
310.9635	0.24	621927	keystroke_i	i	n/a
311.1135	0.18	622227	keystroke_p	p	n/a
311.2485	0.09	622497	keystroke_t	t	n/a
311.548	0.135	623096	keystroke_Key.enter	Key.enter	n/a
311.688	8.3825	623376	prompt	n/a	designation omaha stored brought\n
312.448	0.151	624896	keystroke_d	d	n/a
312.704	0.12	625408	keystroke_e	e	n/a
313.064	0.12	626128	keystroke_s	s	n/a
313.379	0.15	626758	keystroke_i	i	n/a
313.829	0.1345	627658	keystroke_g	g	n/a
314.5635	0.15	629127	keystroke_n	n	n/a
314.8785	0.165	629757	keystroke_a	a	n/a
315.1185	0.15	630237	keystroke_t	t	n/a
315.2385	0.195	630477	keystroke_i	i	n/a
315.3285	0.27	630657	keystroke_o	o	n/a
315.4785	0.1945	630957	keystroke_n	n	n/a
315.6135	0.1795	631227	keystroke_Key.space	Key.space	n/a
316.228	0.135	632456	keystroke_o	o	n/a
316.573	0.12	633146	keystroke_m	m	n/a
316.798	0.15	633596	keystroke_a	a	n/a
317.023	0.12	634046	keystroke_h	h	n/a
317.173	0.09	634346	keystroke_a	a	n/a
317.338	0.135	634676	keystroke_Key.space	Key.space	n/a
317.488	0.1205	634976	keystroke_s	s	n/a
317.848	0.1055	635696	keystroke_t	t	n/a
318.088	0.15	636176	keystroke_o	o	n/a
318.1935	0.1795	636387	keystroke_r	r	n/a
318.298	0.225	636596	keystroke_e	e	n/a
318.539	0.1645	637078	keystroke_d	d	n/a
318.658	0.226	637316	keystroke_Key.space	Key.space	n/a
318.854	0.135	637708	keystroke_b	b	n/a
319.004	0.12	638008	keystroke_r	r	n/a
319.169	0.255	638338	keystroke_o	o	n/a
319.304	0.135	638608	keystroke_u	u	n/a
319.439	0.1195	638878	keystroke_g	g	n/a
319.5885	0.15	639177	keystroke_h	h	n/a
319.7235	0.105	639447	keystroke_t	t	n/a
319.9185	0.15	639837	keystroke_Key.enter	Key.enter	n/a
320.0735	8.922	640147	prompt	n/a	torture superintendent realized spoken\n
321.0135	0.12	642027	keystroke_t	t	n/a
321.4035	0.06	642807	keystroke_o	o	n/a
321.4485	0.1355	642897	keystroke_r	r	n/a
321.7335	0.105	643467	keystroke_t	t	n/a
321.9885	0.12	643977	keystroke_u	u	n/a
322.1535	0.165	644307	keystroke_r	r	n/a
322.2585	0.15	644517	keystroke_e	e	n/a
322.4535	0.135	644907	keystroke_Key.space	Key.space	n/a
322.6485	0.15	645297	keystroke_s	s	n/a
322.8585	0.105	645717	keystroke_u	u	n/a
323.0535	0.15	646107	keystroke_p	p	n/a
323.1735	0.15	646347	keystroke_e	e	n/a
323.2785	0.135	646557	keystroke_r	r	n/a
323.7285	0.225	647457	keystroke_i	i	n/a
323.9085	0.165	647817	keystroke_n	n	n/a
324.4335	0.135	648867	keystroke_t	t	n/a
324.6585	0.165	649317	keystroke_e	e	n/a
324.9435	0.135	649887	keystroke_n	n	n/a
325.0935	0.24	650187	keystroke_d	d	n/a
325.2285	0.21	650457	keystroke_e	e	n/a
325.4395	0.104	650879	keystroke_n	n	n/a
325.5585	0.135	651117	keystroke_t	t	n/a
325.7085	0.15	651417	keystroke_Key.space	Key.space	n/a
325.8885	0.18	651777	keystroke_r	r	n/a
325.9785	0.12	651957	keystroke_e	e	n/a
326.1885	0.1655	652377	keystroke_a	a	n/a
326.399	0.105	652798	keystroke_l	l	n/a
326.549	0.12	653098	keystroke_i	i	n/a
326.654	0.075	653308	keystroke_z	z	n/a
326.849	0.105	653698	keystroke_e	e	n/a
327.074	0.12	654148	keystroke_d	d	n/a
327.224	0.12	654448	keystroke_Key.space	Key.space	n/a
327.329	0.12	654658	keystroke_s	s	n/a
327.494	0.2705	654988	keystroke_p	p	n/a
327.6435	0.241	655287	keystroke_o	o	n/a
327.7485	0.18	655497	keystroke_k	k	n/a
328.0045	0.1045	656009	keystroke_e	e	n/a
328.139	0.135	656278	keystroke_n	n	n/a
328.8735	0.12	657747	keystroke_Key.enter	Key.enter	n/a
328.9985	8.922	657997	prompt	n/a	fired analyzed promote delays\n
329.9535	0.12	659907	keystroke_f	f	n/a
330.1785	0.12	660357	keystroke_i	i	n/a
330.2535	0.18	660507	keystroke_r	r	n/a
330.3735	0.165	660747	keystroke_e	e	n/a
330.5835	0.165	661167	keystroke_d	d	n/a
330.7785	0.165	661557	keystroke_Key.space	Key.space	n/a
330.9285	0.12	661857	keystroke_a	a	n/a
331.1385	0.15	662277	keystroke_n	n	n/a
331.3485	0.12	662697	keystroke_a	a	n/a
333.9155	0.058	667831	keystroke_l	l	n/a
334.3035	0.075	668607	keystroke_y	y	n/a
334.619	0.12	669238	keystroke_z	z	n/a
334.8735	0.09	669747	keystroke_e	e	n/a
335.0985	0.15	670197	keystroke_d	d	n/a
335.2635	0.15	670527	keystroke_Key.space	Key.space	n/a
335.534	0.12	671068	keystroke_p	p	n/a
335.669	0.12	671338	keystroke_r	r	n/a
335.819	0.12	671638	keystroke_o	o	n/a
336.044	0.105	672088	keystroke_m	m	n/a
336.209	0.135	672418	keystroke_o	o	n/a
336.314	0.15	672628	keystroke_t	t	n/a
336.419	0.165	672838	keystroke_e	e	n/a
336.599	0.135	673198	keystroke_Key.space	Key.space	n/a
336.749	0.165	673498	keystroke_d	d	n/a
336.944	0.135	673888	keystroke_e	e	n/a
337.094	0.1195	674188	keystroke_l	l	n/a
337.2585	0.135	674517	keystroke_a	a	n/a
337.4385	0.135	674877	keystroke_y	y	n/a
337.6035	0.12	675207	keystroke_s	s	n/a
337.7835	0.1355	675567	keystroke_Key.enter	Key.enter	n/a
337.9235	7.107	675847	prompt	n/a	doug dimensions poland retro\n
338.6685	0.135	677337	keystroke_d	d	n/a
338.8185	0.24	677637	keystroke_o	o	n/a
338.9235	0.15	677847	keystroke_u	u	n/a
339.1035	0.12	678207	keystroke_g	g	n/a
339.2685	0.15	678537	keystroke_Key.space	Key.space	n/a
339.8835	0.121	679767	keystroke_d	d	n/a
340.289	0.105	680578	keystroke_i	i	n/a
340.589	0.105	681178	keystroke_m	m	n/a
340.739	0.105	681478	keystroke_e	e	n/a
340.9045	0.0895	681809	keystroke_n	n	n/a
341.114	0.12	682228	keystroke_s	s	n/a
341.278	0.2115	682556	keystroke_i	i	n/a
341.338	0.2105	682676	keystroke_o	o	n/a
341.4595	0.135	682919	keystroke_n	n	n/a
341.6235	0.12	683247	keystroke_s	s	n/a
341.8785	0.15	683757	keystroke_Key.space	Key.space	n/a
342.3895	0.135	684779	keystroke_p	p	n/a
342.6135	0.106	685227	keystroke_o	o	n/a
342.854	0.1045	685708	keystroke_l	l	n/a
343.0185	0.18	686037	keystroke_a	a	n/a
343.1835	0.135	686367	keystroke_n	n	n/a
343.3335	0.1655	686667	keystroke_d	d	n/a
343.514	0.135	687028	keystroke_Key.space	Key.space	n/a
343.754	0.21	687508	keystroke_r	r	n/a
343.874	0.165	687748	keystroke_e	e	n/a
344.234	0.105	688468	keystroke_t	t	n/a
344.444	0.09	688888	keystroke_r	r	n/a
344.594	0.105	689188	keystroke_o	o	n/a
344.864	0.165	689728	keystroke_Key.enter	Key.enter	n/a
345.0345	8.651	690069	prompt	n/a	parliamentary court jersey rhythm\n
345.749	0.105	691498	keystroke_p	p	n/a
345.959	0.165	691918	keystroke_a	a	n/a
346.139	0.12	692278	keystroke_r	r	n/a
346.304	0.21	692608	keystroke_l	l	n/a
346.454	0.18	692908	keystroke_i	i	n/a
346.964	0.15	693928	keystroke_a	a	n/a
347.174	0.135	694348	keystroke_m	m	n/a
347.324	0.105	694648	keystroke_e	e	n/a
347.549	0.135	695098	keystroke_n	n	n/a
347.699	0.12	695398	keystroke_t	t	n/a
347.909	0.1645	695818	keystroke_a	a	n/a
347.999	0.1345	695998	keystroke_r	r	n/a
348.1185	0.18	696237	keystroke_y	y	n/a
348.2385	0.135	696477	keystroke_Key.space	Key.space	n/a
348.9735	0.12	697947	keystroke_c	c	n/a
349.1685	0.24	698337	keystroke_o	o	n/a
349.2735	0.15	698547	keystroke_u	u	n/a
349.3935	0.09	698787	keystroke_r	r	n/a
349.5885	0.12	699177	keystroke_t	t	n/a
349.6935	0.225	699387	keystroke_Key.space	Key.space	n/a
349.8585	0.135	699717	keystroke_j	j	n/a
349.9785	0.135	699957	keystroke_e	e	n/a
350.0535	0.105	700107	keystroke_r	r	n/a
350.3235	0.12	700647	keystroke_s	s	n/a
350.4135	0.15	700827	keystroke_e	e	n/a
350.5785	0.2255	701157	keystroke_y	y	n/a
350.6985	0.1805	701397	keystroke_Key.space	Key.space	n/a
350.954	0.105	701908	keystroke_r	r	n/a
351.584	0.12	703168	keystroke_h	h	n/a
352.2435	0.015	704487	keystroke_y	y	n/a
352.6785	0.12	705357	keystroke_t	t	n/a
352.7995	0.119	705599	keystroke_h	h	n/a
353.2035	0.12	706407	keystroke_m	m	n/a
353.549	0.135	707098	keystroke_Key.enter	Key.enter	n/a
353.688	15.4025	707376	prompt	n/a	registrar deer effective equivalent\n
354.584	0.195	709168	keystroke_r	r	n/a
354.689	0.18	709378	keystroke_e	e	n/a
355.004	0.12	710008	keystroke_g	g	n/a
355.244	0.12	710488	keystroke_i	i	n/a
355.379	0.119	710758	keystroke_s	s	n/a
355.6185	0.12	711237	keystroke_t	t	n/a
355.874	0.18	711748	keystroke_a	a	n/a
355.994	0.1345	711988	keystroke_r	r	n/a
356.3235	0.12	712647	keystroke_Key.space	Key.space	n/a
356.9985	0.045	713997	keystroke_Key.backspace	Key.backspace	n/a
357.1185	0.06	714237	keystroke_Key.backspace	Key.backspace	n/a
357.494	0.0745	714988	keystroke_Key.backspace	Key.backspace	n/a
357.6285	0.105	715257	keystroke_r	r	n/a
357.7785	0.21	715557	keystroke_a	a	n/a
357.9135	0.12	715827	keystroke_r	r	n/a
358.0335	0.135	716067	keystroke_Key.space	Key.space	n/a
358.7235	0.09	717447	keystroke_d	d	n/a
358.9485	0.06	717897	keystroke_e	e	n/a
359.1285	0.1205	718257	keystroke_e	e	n/a
359.2335	0.1505	718467	keystroke_r	r	n/a
359.429	0.1495	718858	keystroke_Key.space	Key.space	n/a
359.5935	0.12	719187	keystroke_e	e	n/a
359.8185	0.075	719637	keystroke_f	f	n/a
359.9985	0.09	719997	keystroke_f	f	n/a
360.1045	0.224	720209	keystroke_e	e	n/a
360.2835	0.0605	720567	keystroke_f	f	n/a
360.389	0.03	720778	keystroke_c	c	n/a
361.304	0.09	722608	keystroke_Key.backspace	Key.backspace	n/a
361.469	0.045	722938	keystroke_Key.backspace	Key.backspace	n/a
361.634	0.105	723268	keystroke_c	c	n/a
362.114	0.135	724228	keystroke_t	t	n/a
362.324	0.105	724648	keystroke_i	i	n/a
362.459	0.165	724918	keystroke_v	v	n/a
362.594	0.15	725188	keystroke_e	e	n/a
362.7885	0.12	725577	keystroke_Key.space	Key.space	n/a
363.0885	0.136	726177	keystroke_e	e	n/a
364.5585	0.09	729117	keystroke_q	q	n/a
364.8585	0.135	729717	keystroke_u	u	n/a
365.0985	0.135	730197	keystroke_i	i	n/a
365.534	0.12	731068	keystroke_p	p	n/a
366.929	0.06	733858	keystroke_Key.backspace	Key.backspace	n/a
367.829	0.1045	735658	keystroke_v	v	n/a
368.0835	0.135	736167	keystroke_a	a	n/a
368.2335	0.135	736467	keystroke_l	l	n/a
368.3385	0.135	736677	keystroke_e	e	n/a
368.4585	0.1205	736917	keystroke_n	n	n/a
368.624	0.12	737248	keystroke_t	t	n/a
368.954	0.135	737908	keystroke_Key.enter	Key.enter	n/a
369.0935	8.997	738187	prompt	n/a	cambodia myself axis fits\n
369.8535	0.12	739707	keystroke_c	c	n/a
370.1535	0.135	740307	keystroke_a	a	n/a
370.7085	0.165	741417	keystroke_j	j	n/a
371.0085	0.105	742017	keystroke_m	m	n/a
371.324	0.045	742648	keystroke_Key.backspace	Key.backspace	n/a
371.9985	0.015	743997	keystroke_Key.backspace	Key.backspace	n/a
372.2535	0.09	744507	keystroke_m	m	n/a
372.5985	0.09	745197	keystroke_b	b	n/a
372.8085	0.105	745617	keystroke_o	o	n/a
372.9285	0.135	745857	keystroke_d	d	n/a
373.0335	0.12	746067	keystroke_i	i	n/a
373.1835	0.135	746367	keystroke_a	a	n/a
373.3035	0.15	746607	keystroke_Key.space	Key.space	n/a
373.8135	0.09	747627	keystroke_m	m	n/a
374.0985	0.135	748197	keystroke_y	y	n/a
374.2635	0.09	748527	keystroke_s	s	n/a
374.4735	0.105	748947	keystroke_e	e	n/a
374.5185	0.12	749037	keystroke_l	l	n/a
374.6835	0.135	749367	keystroke_f	f	n/a
374.8335	0.135	749667	keystroke_Key.space	Key.space	n/a
374.9985	0.1655	749997	keystroke_a	a	n/a
375.329	0.0445	750658	keystroke_x	x	n/a
375.5685	0.105	751137	keystroke_x	x	n/a
375.959	0.105	751918	keystroke_Key.backspace	Key.backspace	n/a
376.259	0.105	752518	keystroke_i	i	n/a
376.379	0.135	752758	keystroke_s	s	n/a
376.499	0.135	752998	keystroke_Key.space	Key.space	n/a
376.754	0.12	753508	keystroke_f	f	n/a
377.429	0.1195	754858	keystroke_i	i	n/a
377.5335	0.18	755067	keystroke_t	t	n/a
377.7285	0.135	755457	keystroke_s	s	n/a
377.9535	0.1355	755907	keystroke_Key.enter	Key.enter	n/a
378.0935	9.777	756187	prompt	n/a	delivering extraordinary consequence junction\n
378.884	0.105	757768	keystroke_d	d	n/a
379.034	0.15	758068	keystroke_e	e	n/a
379.199	0.165	758398	keystroke_l	l	n/a
379.274	0.15	758548	keystroke_i	i	n/a
379.379	0.09	758758	keystroke_v	v	n/a
379.529	0.195	759058	keystroke_e	e	n/a
379.619	0.135	759238	keystroke_r	r	n/a
379.739	0.15	759478	keystroke_i	i	n/a
379.799	0.135	759598	keystroke_n	n	n/a
379.904	0.09	759808	keystroke_g	g	n/a
380.054	0.135	760108	keystroke_Key.space	Key.space	n/a
380.144	0.135	760288	keystroke_e	e	n/a
380.414	0.135	760828	keystroke_x	x	n/a
380.744	0.105	761488	keystroke_t	t	n/a
380.999	0.18	761998	keystroke_r	r	n/a
381.134	0.165	762268	keystroke_a	a	n/a
381.359	0.12	762718	keystroke_o	o	n/a
381.5235	0.105	763047	keystroke_r	r	n/a
382.0635	0.06	764127	keystroke_d	d	n/a
382.184	0.195	764368	keystroke_i	i	n/a
382.304	0.135	764608	keystroke_n	n	n/a
382.409	0.18	764818	keystroke_a	a	n/a
382.574	0.12	765148	keystroke_r	r	n/a
382.739	0.1945	765478	keystroke_y	y	n/a
382.859	0.1345	765718	keystroke_Key.space	Key.space	n/a
382.9785	0.135	765957	keystroke_c	c	n/a
383.1285	0.21	766257	keystroke_o	o	n/a
383.2185	0.15	766437	keystroke_n	n	n/a
383.3535	0.135	766707	keystroke_s	s	n/a
383.699	0.075	767398	keystroke_e	e	n/a
384.104	0.105	768208	keystroke_q	q	n/a
384.854	0.09	769708	keystroke_u	u	n/a
385.109	0.12	770218	keystroke_e	e	n/a
385.409	0.1345	770818	keystroke_n	n	n/a
385.5585	0.18	771117	keystroke_c	c	n/a
385.6785	0.165	771357	keystroke_e	e	n/a
385.8585	0.1355	771717	keystroke_Key.space	Key.space	n/a
386.054	0.09	772108	keystroke_j	j	n/a
386.2795	0.089	772559	keystroke_u	u	n/a
386.533	0.09	773066	keystroke_n	n	n/a
386.653	0.1055	773306	keystroke_c	c	n/a
386.9835	0.136	773967	keystroke_t	t	n/a
387.0885	0.375	774177	keystroke_i	i	n/a
387.2085	0.27	774417	keystroke_o	o	n/a
387.3735	0.136	774747	keystroke_n	n	n/a
387.7635	0.105	775527	keystroke_Key.enter	Key.enter	n/a
387.8735	7.272	775747	prompt	n/a	authorities outdoors virtual logic\n
388.439	0.12	776878	keystroke_a	a	n/a
388.679	0.135	777358	keystroke_u	u	n/a
388.919	0.135	777838	keystroke_t	t	n/a
389.069	0.1195	778138	keystroke_h	h	n/a
389.3235	0.15	778647	keystroke_o	o	n/a
389.849	0.105	779698	keystroke_r	r	n/a
390.074	0.15	780148	keystroke_i	i	n/a
390.209	0.105	780418	keystroke_t	t	n/a
390.3285	0.135	780657	keystroke_i	i	n/a
390.4485	0.195	780897	keystroke_e	e	n/a
390.5235	0.165	781047	keystroke_s	s	n/a
390.6585	0.135	781317	keystroke_Key.space	Key.space	n/a
390.8535	0.225	781707	keystroke_o	o	n/a
391.0035	0.135	782007	keystroke_u	u	n/a
391.2585	0.09	782517	keystroke_t	t	n/a
391.559	0.1345	783118	keystroke_d	d	n/a
391.814	0.089	783628	keystroke_o	o	n/a
392.024	0.12	784048	keystroke_o	o	n/a
392.099	0.165	784198	keystroke_r	r	n/a
392.188	0.181	784376	keystroke_s	s	n/a
392.353	0.15	784706	keystroke_Key.space	Key.space	n/a
392.608	0.151	785216	keystroke_v	v	n/a
393.164	0.105	786328	keystroke_i	i	n/a
393.344	0.12	786688	keystroke_r	r	n/a
393.5985	0.09	787197	keystroke_t	t	n/a
393.6895	0.089	787379	keystroke_u	u	n/a
393.8235	0.15	787647	keystroke_a	a	n/a
393.9435	0.165	787887	keystroke_l	l	n/a
394.0485	0.18	788097	keystroke_Key.space	Key.space	n/a
394.2585	0.075	788517	keystroke_l	l	n/a
394.4535	0.105	788907	keystroke_o	o	n/a
394.5285	0.121	789057	keystroke_g	g	n/a
394.6935	0.12	789387	keystroke_i	i	n/a
394.8285	0.12	789657	keystroke_c	c	n/a
395.0385	0.105	790077	keystroke_Key.enter	Key.enter	n/a
395.148	7.0625	790296	prompt	n/a	marble lightweight courtesy dvds\n
395.8785	0.12	791757	keystroke_m	m	n/a
395.9835	0.15	791967	keystroke_a	a	n/a
396.1485	0.105	792297	keystroke_r	r	n/a
396.2385	0.075	792477	keystroke_b	b	n/a
396.4185	0.12	792837	keystroke_l	l	n/a
396.5235	0.105	793047	keystroke_e	e	n/a
396.6135	0.18	793227	keystroke_Key.space	Key.space	n/a
396.7785	0.135	793557	keystroke_l	l	n/a
396.8535	0.15	793707	keystroke_i	i	n/a
396.9735	0.105	793947	keystroke_g	g	n/a
397.0935	0.12	794187	keystroke_h	h	n/a
397.2285	0.105	794457	keystroke_t	t	n/a
397.499	0.15	794998	keystroke_w	w	n/a
397.573	0.151	795146	keystroke_e	e	n/a
397.709	0.12	795418	keystroke_i	i	n/a
397.844	0.09	795688	keystroke_g	g	n/a
397.949	0.1045	795898	keystroke_h	h	n/a
398.0685	0.09	796137	keystroke_t	t	n/a
398.1885	0.12	796377	keystroke_Key.space	Key.space	n/a
398.4735	0.135	796947	keystroke_c	c	n/a
398.6985	0.3	797397	keystroke_o	o	n/a
398.8635	0.15	797727	keystroke_u	u	n/a
399.0885	0.12	798177	keystroke_r	r	n/a
399.3435	0.09	798687	keystroke_t	t	n/a
399.569	0.135	799138	keystroke_e	e	n/a
399.974	0.105	799948	keystroke_s	s	n/a
400.169	0.24	800338	keystroke_y	y	n/a
400.319	0.18	800638	keystroke_Key.space	Key.space	n/a
400.664	0.165	801328	keystroke_d	d	n/a
401.174	0.105	802348	keystroke_v	v	n/a
401.519	0.135	803038	keystroke_d	d	n/a
401.804	0.09	803608	keystroke_s	s	n/a
402.074	0.135	804148	keystroke_Key.enter	Key.enter	n/a
402.2135	13.257	804427	prompt	n/a	farming migration definition reductions\n
402.8985	0.09	805797	keystroke_f	f	n/a
403.1235	0.18	806247	keystroke_a	a	n/a
403.2435	0.135	806487	keystroke_r	r	n/a
403.5435	0.285	807087	keystroke_i	i	n/a
403.6935	0.165	807387	keystroke_n	n	n/a
403.8435	0.105	807687	keystroke_g	g	n/a
403.9785	0.15	807957	keystroke_Key.space	Key.space	n/a
405.149	0.09	810298	keystroke_Key.backspace	Key.backspace	n/a
405.299	0.075	810598	keystroke_Key.backspace	Key.backspace	n/a
405.434	0.0895	810868	keystroke_Key.backspace	Key.backspace	n/a
406.2135	0.105	812427	keystroke_Key.backspace	Key.backspace	n/a
407.354	0.105	814708	keystroke_m	m	n/a
407.6235	0.105	815247	keystroke_i	i	n/a
407.9985	0.0905	815997	keystroke_g	g	n/a
408.344	0.075	816688	keystroke_Key.backspace	Key.backspace	n/a
408.644	0.135	817288	keystroke_n	n	n/a
408.884	0.15	817768	keystroke_g	g	n/a
409.019	0.135	818038	keystroke_Key.space	Key.space	n/a
409.409	0.105	818818	keystroke_m	m	n/a
409.7385	0.105	819477	keystroke_i	i	n/a
409.9785	0.105	819957	keystroke_g	g	n/a
410.2635	0.135	820527	keystroke_r	r	n/a
410.5035	0.15	821007	keystroke_a	a	n/a
410.7135	0.15	821427	keystroke_t	t	n/a
410.8485	0.315	821697	keystroke_i	i	n/a
410.9685	0.24	821937	keystroke_o	o	n/a
411.0285	0.2405	822057	keystroke_n	n	n/a
411.1785	0.1955	822357	keystroke_Key.space	Key.space	n/a
411.494	0.12	822988	keystroke_d	d	n/a
411.644	0.15	823288	keystroke_e	e	n/a
411.914	0.09	823828	keystroke_f	f	n/a
412.064	0.1345	824128	keystroke_i	i	n/a
412.4235	0.12	824847	keystroke_n	n	n/a
412.7535	0.105	825507	keystroke_i	i	n/a
412.9035	0.135	825807	keystroke_t	t	n/a
413.0685	0.181	826137	keystroke_i	i	n/a
413.1585	0.27	826317	keystroke_o	o	n/a
413.2495	0.224	826499	keystroke_n	n	n/a
413.4135	0.18	826827	keystroke_Key.space	Key.space	n/a
413.7735	0.165	827547	keystroke_r	r	n/a
413.8935	0.15	827787	keystroke_e	e	n/a
414.1185	0.151	828237	keystroke_d	d	n/a
414.3445	0.074	828689	keystroke_u	u	n/a
414.4335	0.12	828867	keystroke_c	c	n/a
414.7035	0.135	829407	keystroke_t	t	n/a
414.8235	0.27	829647	keystroke_i	i	n/a
414.9135	0.256	829827	keystroke_o	o	n/a
415.0185	0.165	830037	keystroke_n	n	n/a
415.1695	0.134	830339	keystroke_s	s	n/a
415.3485	0.12	830697	keystroke_Key.enter	Key.enter	n/a
415.4735	9.972	830947	prompt	n/a	doing filed connector symposium\n
416.084	0.135	832168	keystroke_d	d	n/a
416.204	0.27	832408	keystroke_o	o	n/a
416.309	0.24	832618	keystroke_i	i	n/a
416.414	0.15	832828	keystroke_n	n	n/a
416.984	0.09	833968	keystroke_g	g	n/a
417.269	0.135	834538	keystroke_Key.space	Key.space	n/a
417.494	0.12	834988	keystroke_f	f	n/a
417.689	0.225	835378	keystroke_i	i	n/a
417.794	0.18	835588	keystroke_l	l	n/a
417.929	0.1045	835858	keystroke_e	e	n/a
418.1385	0.135	836277	keystroke_d	d	n/a
418.6785	0.1505	837357	keystroke_Key.space	Key.space	n/a
418.9335	0.105	837867	keystroke_c	c	n/a
419.0985	0.2255	838197	keystroke_o	o	n/a
419.279	0.105	838558	keystroke_n	n	n/a
420.3735	0.12	840747	keystroke_n	n	n/a
420.6435	0.12	841287	keystroke_e	e	n/a
420.9435	0.15	841887	keystroke_c	c	n/a
421.3035	0.135	842607	keystroke_t	t	n/a
421.5135	0.135	843027	keystroke_o	o	n/a
421.6335	0.105	843267	keystroke_r	r	n/a
421.7835	0.105	843567	keystroke_Key.space	Key.space	n/a
422.0235	0.105	844047	keystroke_s	s	n/a
422.3385	0.12	844677	keystroke_y	y	n/a
422.7735	0.135	845547	keystroke_m	m	n/a
423.2085	0.135	846417	keystroke_p	p	n/a
423.7635	0.135	847527	keystroke_o	o	n/a
424.0935	0.105	848187	keystroke_s	s	n/a
424.2585	0.135	848517	keystroke_i	i	n/a
424.6035	0.09	849207	keystroke_u	u	n/a
424.9185	0.09	849837	keystroke_m	m	n/a
425.3385	0.105	850677	keystroke_Key.enter	Key.enter	n/a
425.449	10.526	850898	prompt	n/a	hindu deposit constructed interference\n
426.599	0.015	853198	keystroke_h	h	n/a
426.824	0.12	853648	keystroke_i	i	n/a
427.079	0.12	854158	keystroke_n	n	n/a
427.244	0.15	854488	keystroke_d	d	n/a
427.379	0.18	854758	keystroke_u	u	n/a
427.499	0.165	854998	keystroke_Key.space	Key.space	n/a
427.649	0.225	855298	keystroke_d	d	n/a
427.799	0.165	855598	keystroke_e	e	n/a
428.0835	0.2405	856167	keystroke_p	p	n/a
428.2185	0.1505	856437	keystroke_o	o	n/a
428.3535	0.12	856707	keystroke_s	s	n/a
428.5485	0.12	857097	keystroke_i	i	n/a
428.714	0.1195	857428	keystroke_t	t	n/a
428.879	0.135	857758	keystroke_Key.space	Key.space	n/a
430.1995	0.134	860399	keystroke_c	c	n/a
430.3645	0.225	860729	keystroke_o	o	n/a
430.4695	0.165	860939	keystroke_n	n	n/a
430.9645	0.135	861929	keystroke_s	s	n/a
431.354	0.1795	862708	keystroke_t	t	n/a
431.474	0.1645	862948	keystroke_r	r	n/a
431.7735	0.135	863547	keystroke_u	u	n/a
431.9235	0.121	863847	keystroke_c	c	n/a
432.2085	0.135	864417	keystroke_t	t	n/a
432.3885	0.15	864777	keystroke_e	e	n/a
432.599	0.18	865198	keystroke_d	d	n/a
432.809	0.15	865618	keystroke_Key.space	Key.space	n/a
432.989	0.2545	865978	keystroke_i	i	n/a
433.1385	0.165	866277	keystroke_n	n	n/a
433.2885	0.12	866577	keystroke_t	t	n/a
433.5285	0.18	867057	keystroke_e	e	n/a
433.6485	0.15	867297	keystroke_r	r	n/a
433.934	0.12	867868	keystroke_f	f	n/a
434.159	0.18	868318	keystroke_e	e	n/a
434.279	0.165	868558	keystroke_r	r	n/a
434.609	0.12	869218	keystroke_e	e	n/a
434.999	0.135	869998	keystroke_n	n	n/a
435.269	0.1345	870538	keystroke_c	c	n/a
435.5685	0.105	871137	keystroke_e	e	n/a
435.8235	0.15	871647	keystroke_Key.enter	Key.enter	n/a
435.978	10.9475	871956	prompt	n/a	transfer outstanding detected asylum\n
436.6335	0.1055	873267	keystroke_t	t	n/a
436.859	0.09	873718	keystroke_r	r	n/a
436.964	0.18	873928	keystroke_a	a	n/a
437.384	0.1045	874768	keystroke_n	n	n/a
437.624	0.12	875248	keystroke_s	s	n/a
437.969	0.12	875938	keystroke_f	f	n/a
438.314	0.195	876628	keystroke_e	e	n/a
438.4635	0.135	876927	keystroke_r	r	n/a
438.884	0.15	877768	keystroke_Key.space	Key.space	n/a
439.3785	0.121	878757	keystroke_o	o	n/a
439.559	0.1505	879118	keystroke_u	u	n/a
439.9785	0.135	879957	keystroke_t	t	n/a
440.3385	0.135	880677	keystroke_s	s	n/a
440.6685	0.1205	881337	keystroke_t	t	n/a
440.894	0.15	881788	keystroke_a	a	n/a
441.149	0.12	882298	keystroke_n	n	n/a
441.314	0.12	882628	keystroke_d	d	n/a
441.464	0.2395	882928	keystroke_i	i	n/a
441.5985	0.15	883197	keystroke_n	n	n/a
441.7785	0.105	883557	keystroke_g	g	n/a
441.9285	0.18	883857	keystroke_Key.space	Key.space	n/a
442.1385	0.135	884277	keystroke_d	d	n/a
442.3935	0.12	884787	keystroke_e	e	n/a
442.6635	0.135	885327	keystroke_t	t	n/a
442.9635	0.1505	885927	keystroke_e	e	n/a
443.309	0.165	886618	keystroke_c	c	n/a
443.6535	0.15	887307	keystroke_t	t	n/a
443.8485	0.225	887697	keystroke_e	e	n/a
444.0285	0.165	888057	keystroke_d	d	n/a
444.3585	0.135	888717	keystroke_Key.space	Key.space	n/a
444.6435	0.195	889287	keystroke_a	a	n/a
445.094	0.135	890188	keystroke_s	s	n/a
445.454	0.105	890908	keystroke_y	y	n/a
445.754	0.12	891508	keystroke_l	l	n/a
446.039	0.105	892078	keystroke_u	u	n/a
446.414	0.12	892828	keystroke_m	m	n/a
446.864	0.06	893728	keystroke_Key.enter	Key.enter	n/a
446.928	6.9875	893856	prompt	n/a	orders absent breakfast paris\n
447.8535	0.135	895707	keystroke_o	o	n/a
448.0485	0.12	896097	keystroke_r	r	n/a
448.3335	0.09	896667	keystroke_d	d	n/a
448.5585	0.165	897117	keystroke_e	e	n/a
448.649	0.1345	897298	keystroke_r	r	n/a
448.904	0.135	897808	keystroke_s	s	n/a
449.084	0.18	898168	keystroke_Key.space	Key.space	n/a
449.234	0.15	898468	keystroke_a	a	n/a
449.594	0.12	899188	keystroke_b	b	n/a
449.849	0.135	899698	keystroke_s	s	n/a
450.148	0.106	900296	keystroke_e	e	n/a
450.284	0.135	900568	keystroke_n	n	n/a
450.389	0.12	900778	keystroke_t	t	n/a
450.554	0.15	901108	keystroke_Key.space	Key.space	n/a
450.914	0.12	901828	keystroke_b	b	n/a
451.064	0.135	902128	keystroke_r	r	n/a
451.2885	0.09	902577	keystroke_e	e	n/a
451.4835	0.15	902967	keystroke_a	a	n/a
451.709	0.105	903418	keystroke_k	k	n/a
451.889	0.12	903778	keystroke_f	f	n/a
452.114	0.15	904228	keystroke_a	a	n/a
452.294	0.135	904588	keystroke_s	s	n/a
452.564	0.135	905128	keystroke_t	t	n/a
452.789	0.225	905578	keystroke_Key.space	Key.space	n/a
452.969	0.18	905938	keystroke_p	p	n/a
453.089	0.12	906178	keystroke_a	a	n/a
453.284	0.135	906568	keystroke_r	r	n/a
453.434	0.135	906868	keystroke_i	i	n/a
453.599	0.105	907198	keystroke_s	s	n/a
453.764	0.1495	907528	keystroke_Key.enter	Key.enter	n/a
453.92	6.1155	907840	prompt	n/a	miss mess disturbed focus\n
454.679	0.105	909358	keystroke_m	m	n/a
454.949	0.12	909898	keystroke_i	i	n/a
455.144	0.09	910288	keystroke_s	s	n/a
455.354	0.105	910708	keystroke_s	s	n/a
455.504	0.1645	911008	keystroke_Key.space	Key.space	n/a
455.759	0.12	911518	keystroke_m	m	n/a
455.924	0.12	911848	keystroke_e	e	n/a
456.194	0.09	912388	keystroke_s	s	n/a
456.389	0.09	912778	keystroke_s	s	n/a
456.569	0.135	913138	keystroke_Key.space	Key.space	n/a
456.779	0.12	913558	keystroke_d	d	n/a
457.004	0.09	914008	keystroke_i	i	n/a
457.214	0.105	914428	keystroke_s	s	n/a
457.7685	0.1055	915537	keystroke_t	t	n/a
457.9335	0.1205	915867	keystroke_u	u	n/a
458.084	0.12	916168	keystroke_r	r	n/a
458.264	0.15	916528	keystroke_b	b	n/a
458.429	0.09	916858	keystroke_e	e	n/a
458.669	0.1055	917338	keystroke_d	d	n/a
458.8345	0.165	917669	keystroke_Key.space	Key.space	n/a
459.0445	0.105	918089	keystroke_f	f	n/a
459.2095	0.12	918419	keystroke_o	o	n/a
459.3295	0.135	918659	keystroke_c	c	n/a
459.524	0.12	919048	keystroke_u	u	n/a
459.719	0.1205	919438	keystroke_s	s	n/a
459.8985	0.135	919797	keystroke_Key.enter	Key.enter	n/a
460.038	10.888	920076	prompt	n/a	shanghai life jesse titanium\n
460.859	0.09	921718	keystroke_s	s	n/a
461.009	0.12	922018	keystroke_h	h	n/a
461.3685	0.121	922737	keystroke_a	a	n/a
461.714	0.105	923428	keystroke_n	n	n/a
461.984	0.105	923968	keystroke_g	g	n/a
462.254	0.105	924508	keystroke_h	h	n/a
462.449	0.12	924898	keystroke_a	a	n/a
462.719	0.105	925438	keystroke_i	i	n/a
462.944	0.1195	925888	keystroke_Key.space	Key.space	n/a
463.1985	0.1205	926397	keystroke_l	l	n/a
463.3935	0.1205	926787	keystroke_i	i	n/a
463.544	0.1945	927088	keystroke_f	f	n/a
463.694	0.1795	927388	keystroke_e	e	n/a
463.829	0.1945	927658	keystroke_Key.space	Key.space	n/a
464.0535	0.1355	928107	keystroke_j	j	n/a
464.234	0.1195	928468	keystroke_e	e	n/a
464.6385	0.1205	929277	keystroke_s	s	n/a
464.894	0.105	929788	keystroke_s	s	n/a
465.344	0.105	930688	keystroke_e	e	n/a
465.704	0.15	931408	keystroke_Key.space	Key.space	n/a
466.064	0.135	932128	keystroke_t	t	n/a
466.844	0.09	933688	keystroke_i	i	n/a
467.384	0.135	934768	keystroke_t	t	n/a
467.759	0.1495	935518	keystroke_a	a	n/a
469.424	0.1345	938848	keystroke_n	n	n/a
469.6945	0.105	939389	keystroke_i	i	n/a
469.9645	0.105	939929	keystroke_u	u	n/a
470.2785	0.106	940557	keystroke_m	m	n/a
470.804	0.12	941608	keystroke_Key.enter	Key.enter	n/a
470.929	12.3565	941858	prompt	n/a	guestbook crude donation conviction\n
471.7795	0.12	943559	keystroke_g	g	n/a
472.0495	0.1195	944099	keystroke_u	u	n/a
472.139	0.21	944278	keystroke_e	e	n/a
472.244	0.15	944488	keystroke_s	s	n/a
472.409	0.15	944818	keystroke_t	t	n/a
472.574	0.135	945148	keystroke_b	b	n/a
472.769	0.09	945538	keystroke_o	o	n/a
472.994	0.075	945988	keystroke_o	o	n/a
473.474	0.1345	946948	keystroke_k	k	n/a
473.8485	0.15	947697	keystroke_Key.space	Key.space	n/a
474.1935	0.12	948387	keystroke_c	c	n/a
474.5085	0.09	949017	keystroke_r	r	n/a
474.7795	0.0895	949559	keystroke_u	u	n/a
474.8085	0.0455	949617	keystroke_y	y	n/a
474.989	0.105	949978	keystroke_d	d	n/a
475.379	0.06	950758	keystroke_Key.backspace	Key.backspace	n/a
475.589	0.045	951178	keystroke_Key.backspace	Key.backspace	n/a
475.919	0.21	951838	keystroke_d	d	n/a
476.069	0.195	952138	keystroke_e	e	n/a
476.3685	0.165	952737	keystroke_Key.space	Key.space	n/a
476.714	0.12	953428	keystroke_d	d	n/a
476.879	0.21	953758	keystroke_o	o	n/a
476.999	0.15	953998	keystroke_n	n	n/a
477.164	0.18	954328	keystroke_a	a	n/a
477.374	0.15	954748	keystroke_t	t	n/a
477.539	0.4055	955078	keystroke_i	i	n/a
477.6285	0.27	955257	keystroke_o	o	n/a
477.7635	0.241	955527	keystroke_n	n	n/a
477.9285	0.24	955857	keystroke_Key.space	Key.space	n/a
478.304	0.1195	956608	keystroke_c	c	n/a
478.4685	0.2405	956937	keystroke_o	o	n/a
478.619	0.15	957238	keystroke_n	n	n/a
479.4295	0.105	958859	keystroke_b	b	n/a
480.1635	0.105	960327	keystroke_Key.backspace	Key.backspace	n/a
481.724	0.12	963448	keystroke_v	v	n/a
481.919	0.1345	963838	keystroke_i	i	n/a
482.0385	0.12	964077	keystroke_c	c	n/a
482.4435	0.135	964887	keystroke_t	t	n/a
482.5635	0.24	965127	keystroke_i	i	n/a
482.6835	0.255	965367	keystroke_o	o	n/a
482.8185	0.15	965637	keystroke_n	n	n/a
483.179	0.105	966358	keystroke_Key.enter	Key.enter	n/a
483.288	10.8725	966576	prompt	n/a	catalog engagement figured pharmacies\n
484.139	0.135	968278	keystroke_c	c	n/a
484.3935	0.15	968787	keystroke_a	a	n/a
484.7535	0.105	969507	keystroke_t	t	n/a
485.1435	0.135	970287	keystroke_a	a	n/a
485.444	0.135	970888	keystroke_l	l	n/a
485.699	0.1345	971398	keystroke_o	o	n/a
485.8495	0.135	971699	keystroke_g	g	n/a
485.9985	0.165	971997	keystroke_Key.space	Key.space	n/a
486.1345	0.135	972269	keystroke_e	e	n/a
486.3285	0.195	972657	keystroke_n	n	n/a
486.5685	0.135	973137	keystroke_g	g	n/a
486.7935	0.12	973587	keystroke_a	a	n/a
487.0195	0.195	974039	keystroke_g	g	n/a
487.124	0.135	974248	keystroke_e	e	n/a
487.259	0.135	974518	keystroke_m	m	n/a
487.409	0.1045	974818	keystroke_e	e	n/a
487.5285	0.12	975057	keystroke_n	n	n/a
487.6635	0.135	975327	keystroke_t	t	n/a
487.8585	0.165	975717	keystroke_Key.space	Key.space	n/a
488.8035	0.135	977607	keystroke_f	f	n/a
488.9535	0.105	977907	keystroke_i	i	n/a
489.1035	0.105	978207	keystroke_g	g	n/a
489.2985	0.135	978597	keystroke_u	u	n/a
489.4485	0.18	978897	keystroke_r	r	n/a
489.4785	0.09	978957	keystroke_t	t	n/a
489.5535	0.195	979107	keystroke_e	e	n/a
490.3785	0.09	980757	keystroke_Key.backspace	Key.backspace	n/a
490.7535	0.09	981507	keystroke_Key.backspace	Key.backspace	n/a
490.9635	0.12	981927	keystroke_e	e	n/a
491.2635	0.165	982527	keystroke_d	d	n/a
491.549	0.135	983098	keystroke_Key.space	Key.space	n/a
491.819	0.18	983638	keystroke_p	p	n/a
492.029	0.15	984058	keystroke_h	h	n/a
492.239	0.18	984478	keystroke_a	a	n/a
492.449	0.15	984898	keystroke_r	r	n/a
492.824	0.12	985648	keystroke_m	m	n/a
493.034	0.12	986068	keystroke_a	a	n/a
493.394	0.1195	986788	keystroke_c	c	n/a
493.6185	0.12	987237	keystroke_i	i	n/a
493.7235	0.1955	987447	keystroke_e	e	n/a
493.8135	0.1505	987627	keystroke_s	s	n/a
494.039	0.12	988078	keystroke_Key.enter	Key.enter	n/a
494.1635	11.517	988327	prompt	n/a	marine guarantees confirm approximate\n
495.044	0.135	990088	keystroke_m	m	n/a
495.209	0.165	990418	keystroke_a	a	n/a
495.344	0.15	990688	keystroke_r	r	n/a
495.509	0.255	991018	keystroke_i	i	n/a
495.779	0.09	991558	keystroke_e	e	n/a
496.6935	0.075	993387	keystroke_Key.backspace	Key.backspace	n/a
497.2185	0.12	994437	keystroke_n	n	n/a
497.4585	0.1205	994917	keystroke_e	e	n/a
497.849	0.105	995698	keystroke_Key.space	Key.space	n/a
498.1035	0.135	996207	keystroke_g	g	n/a
499.094	0.105	998188	keystroke_u	u	n/a
499.274	0.12	998548	keystroke_a	a	n/a
499.484	0.1645	998968	keystroke_r	r	n/a
499.604	0.1495	999208	keystroke_a	a	n/a
500.0235	0.1355	1000047	keystroke_n	n	n/a
500.279	0.105	1000558	keystroke_t	t	n/a
500.623	0.106	1001246	keystroke_e	e	n/a
500.8495	0.09	1001699	keystroke_e	e	n/a
501.1035	0.1205	1002207	keystroke_s	s	n/a
501.284	0.135	1002568	keystroke_Key.space	Key.space	n/a
501.494	0.2095	1002988	keystroke_c	c	n/a
501.6435	0.27	1003287	keystroke_o	o	n/a
501.8085	0.15	1003617	keystroke_n	n	n/a
502.0485	0.1355	1004097	keystroke_f	f	n/a
502.244	0.15	1004488	keystroke_i	i	n/a
502.4085	0.0905	1004817	keystroke_r	r	n/a
502.5885	0.2405	1005177	keystroke_m	m	n/a
502.739	0.165	1005478	keystroke_Key.space	Key.space	n/a
502.964	0.135	1005928	keystroke_a	a	n/a
503.2335	0.06	1006467	keystroke_p	p	n/a
503.4135	0.1055	1006827	keystroke_p	p	n/a
503.594	0.12	1007188	keystroke_r	r	n/a
503.774	0.12	1007548	keystroke_o	o	n/a
504.119	0.15	1008238	keystroke_x	x	n/a
504.344	0.12	1008688	keystroke_i	i	n/a
504.584	0.1345	1009168	keystroke_m	m	n/a
504.7335	0.105	1009467	keystroke_a	a	n/a
504.9885	0.105	1009977	keystroke_t	t	n/a
505.1835	0.09	1010367	keystroke_e	e	n/a
505.529	0.1495	1011058	keystroke_Key.enter	Key.enter	n/a
505.6835	7.917	1011367	prompt	n/a	frederick reducing exact cancelled\n
506.474	0.105	1012948	keystroke_f	f	n/a
506.714	0.15	1013428	keystroke_r	r	n/a
506.789	0.165	1013578	keystroke_e	e	n/a
507.059	0.165	1014118	keystroke_d	d	n/a
507.374	0.18	1014748	keystroke_e	e	n/a
507.479	0.15	1014958	keystroke_r	r	n/a
507.659	0.135	1015318	keystroke_i	i	n/a
507.839	0.105	1015678	keystroke_c	c	n/a
507.974	0.195	1015948	keystroke_k	k	n/a
508.124	0.1495	1016248	keystroke_Key.space	Key.space	n/a
508.2885	0.165	1016577	keystroke_r	r	n/a
508.4235	0.165	1016847	keystroke_e	e	n/a
508.6935	0.165	1017387	keystroke_d	d	n/a
508.9185	0.105	1017837	keystroke_u	u	n/a
509.1885	0.135	1018377	keystroke_c	c	n/a
509.3835	0.24	1018767	keystroke_i	i	n/a
509.5335	0.15	1019067	keystroke_n	n	n/a
509.6985	0.12	1019397	keystroke_g	g	n/a
509.8335	0.135	1019667	keystroke_Key.space	Key.space	n/a
509.9835	0.12	1019967	keystroke_e	e	n/a
510.2385	0.15	1020477	keystroke_x	x	n/a
510.4485	0.15	1020897	keystroke_a	a	n/a
510.6885	0.135	1021377	keystroke_c	c	n/a
510.974	0.12	1021948	keystroke_t	t	n/a
511.184	0.15	1022368	keystroke_Key.space	Key.space	n/a
511.7235	0.12	1023447	keystroke_c	c	n/a
511.9485	0.135	1023897	keystroke_a	a	n/a
512.2635	0.1355	1024527	keystroke_n	n	n/a
512.4285	0.21	1024857	keystroke_c	c	n/a
512.5785	0.15	1025157	keystroke_e	e	n/a
512.8335	0.075	1025667	keystroke_l	l	n/a
512.9985	0.12	1025997	keystroke_l	l	n/a
513.1035	0.165	1026207	keystroke_e	e	n/a
513.2085	0.18	1026417	keystroke_d	d	n/a
513.464	0.135	1026928	keystroke_Key.enter	Key.enter	n/a
513.603	8.0975	1027206	prompt	n/a	disputes destruction actress adds\n
514.214	0.165	1028428	keystroke_d	d	n/a
514.544	0.135	1029088	keystroke_i	i	n/a
515.144	0.12	1030288	keystroke_s	s	n/a
515.459	0.2395	1030918	keystroke_p	p	n/a
515.5935	0.1655	1031187	keystroke_u	u	n/a
515.774	0.21	1031548	keystroke_t	t	n/a
515.924	0.21	1031848	keystroke_e	e	n/a
516.044	0.165	1032088	keystroke_s	s	n/a
516.299	0.165	1032598	keystroke_Key.space	Key.space	n/a
516.539	0.18	1033078	keystroke_d	d	n/a
516.734	0.105	1033468	keystroke_e	e	n/a
516.989	0.1195	1033978	keystroke_s	s	n/a
517.3335	0.15	1034667	keystroke_t	t	n/a
517.529	0.165	1035058	keystroke_r	r	n/a
517.754	0.105	1035508	keystroke_u	u	n/a
517.934	0.12	1035868	keystroke_c	c	n/a
518.219	0.105	1036438	keystroke_t	t	n/a
518.339	0.2245	1036678	keystroke_i	i	n/a
518.429	0.3145	1036858	keystroke_o	o	n/a
518.5485	0.3005	1037097	keystroke_n	n	n/a
518.759	0.195	1037518	keystroke_Key.space	Key.space	n/a
518.939	0.135	1037878	keystroke_a	a	n/a
519.194	0.12	1038388	keystroke_c	c	n/a
519.509	0.105	1039018	keystroke_t	t	n/a
519.749	0.21	1039498	keystroke_r	r	n/a
519.854	0.18	1039708	keystroke_e	e	n/a
520.154	0.12	1040308	keystroke_s	s	n/a
520.379	0.105	1040758	keystroke_s	s	n/a
520.619	0.12	1041238	keystroke_Key.space	Key.space	n/a
520.709	0.12	1041418	keystroke_a	a	n/a
520.934	0.09	1041868	keystroke_d	d	n/a
521.129	0.09	1042258	keystroke_d	d	n/a
521.3085	0.105	1042617	keystroke_s	s	n/a
521.5485	0.15	1043097	keystroke_Key.enter	Key.enter	n/a
521.7035	8.157	1043407	prompt	n/a	certificate build mind beneath\n
522.3135	0.12	1044627	keystroke_c	c	n/a
522.5685	0.1805	1045137	keystroke_e	e	n/a
522.6735	0.1355	1045347	keystroke_r	r	n/a
522.9285	0.1355	1045857	keystroke_t	t	n/a
523.1385	0.105	1046277	keystroke_i	i	n/a
523.544	0.12	1047088	keystroke_f	f	n/a
523.874	0.135	1047748	keystroke_i	i	n/a
523.994	0.12	1047988	keystroke_c	c	n/a
524.189	0.105	1048378	keystroke_a	a	n/a
524.384	0.18	1048768	keystroke_t	t	n/a
524.504	0.1495	1049008	keystroke_e	e	n/a
524.6685	0.135	1049337	keystroke_Key.space	Key.space	n/a
524.9685	0.06	1049937	keystroke_b	b	n/a
525.2985	0.09	1050597	keystroke_u	u	n/a
525.569	0.105	1051138	keystroke_i	i	n/a
525.779	0.075	1051558	keystroke_i	i	n/a
526.394	0.09	1052788	keystroke_Key.backspace	Key.backspace	n/a
526.724	0.135	1053448	keystroke_l	l	n/a
526.964	0.135	1053928	keystroke_d	d	n/a
527.129	0.1495	1054258	keystroke_Key.space	Key.space	n/a
527.3535	0.105	1054707	keystroke_m	m	n/a
527.564	0.12	1055128	keystroke_i	i	n/a
527.804	0.12	1055608	keystroke_n	n	n/a
527.984	0.1645	1055968	keystroke_d	d	n/a
528.1635	0.135	1056327	keystroke_Key.space	Key.space	n/a
528.4035	0.12	1056807	keystroke_b	b	n/a
528.5835	0.135	1057167	keystroke_e	e	n/a
528.8385	0.12	1057677	keystroke_n	n	n/a
528.9885	0.165	1057977	keystroke_e	e	n/a
529.0935	0.165	1058187	keystroke_a	a	n/a
529.3185	0.1355	1058637	keystroke_t	t	n/a
529.469	0.105	1058938	keystroke_h	h	n/a
529.724	0.135	1059448	keystroke_Key.enter	Key.enter	n/a
529.863	7.168	1059726	prompt	n/a	align balanced expo abortion\n
530.5335	0.135	1061067	keystroke_a	a	n/a
530.6835	0.2255	1061367	keystroke_l	l	n/a
530.864	0.18	1061728	keystroke_i	i	n/a
531.074	0.12	1062148	keystroke_g	g	n/a
531.224	0.21	1062448	keystroke_n	n	n/a
531.389	0.165	1062778	keystroke_Key.space	Key.space	n/a
531.659	0.12	1063318	keystroke_b	b	n/a
531.824	0.12	1063648	keystroke_a	a	n/a
532.064	0.1195	1064128	keystroke_l	l	n/a
532.2285	0.12	1064457	keystroke_a	a	n/a
532.4235	0.135	1064847	keystroke_n	n	n/a
532.5735	0.18	1065147	keystroke_c	c	n/a
532.7835	0.15	1065567	keystroke_e	e	n/a
533.0235	0.165	1066047	keystroke_d	d	n/a
533.2635	0.135	1066527	keystroke_Key.space	Key.space	n/a
533.4135	0.09	1066827	keystroke_e	e	n/a
533.7135	0.15	1067427	keystroke_x	x	n/a
534.0885	0.0905	1068177	keystroke_p	p	n/a
534.584	0.12	1069168	keystroke_o	o	n/a
534.854	0.165	1069708	keystroke_Key.space	Key.space	n/a
535.049	0.12	1070098	keystroke_a	a	n/a
535.274	0.09	1070548	keystroke_b	b	n/a
535.634	0.105	1071268	keystroke_o	o	n/a
535.844	0.12	1071688	keystroke_r	r	n/a
536.114	0.1195	1072228	keystroke_t	t	n/a
536.2645	0.21	1072529	keystroke_i	i	n/a
536.3685	0.301	1072737	keystroke_o	o	n/a
536.5495	0.149	1073099	keystroke_n	n	n/a
536.8935	0.136	1073787	keystroke_Key.enter	Key.enter	n/a
537.0335	6.147	1074067	prompt	n/a	country rate exotic feat\n
537.7185	0.12	1075437	keystroke_c	c	n/a
537.8835	0.24	1075767	keystroke_o	o	n/a
537.9885	0.15	1075977	keystroke_u	u	n/a
538.2885	0.15	1076577	keystroke_n	n	n/a
538.4235	0.18	1076847	keystroke_t	t	n/a
538.5585	0.18	1077117	keystroke_r	r	n/a
538.799	0.105	1077598	keystroke_y	y	n/a
538.964	0.165	1077928	keystroke_Key.space	Key.space	n/a
539.159	0.135	1078318	keystroke_r	r	n/a
539.489	0.15	1078978	keystroke_a	a	n/a
539.759	0.135	1079518	keystroke_t	t	n/a
539.999	0.12	1079998	keystroke_e	e	n/a
540.194	0.12	1080388	keystroke_Key.space	Key.space	n/a
540.269	0.12	1080538	keystroke_e	e	n/a
540.539	0.135	1081078	keystroke_x	x	n/a
540.899	0.12	1081798	keystroke_o	o	n/a
541.364	0.15	1082728	keystroke_t	t	n/a
541.589	0.1345	1083178	keystroke_i	i	n/a
541.7535	0.135	1083507	keystroke_c	c	n/a
541.964	0.1645	1083928	keystroke_Key.space	Key.space	n/a
542.1435	0.09	1084287	keystroke_f	f	n/a
542.384	0.105	1084768	keystroke_e	e	n/a
542.609	0.09	1085218	keystroke_a	a	n/a
542.834	0.12	1085668	keystroke_t	t	n/a
543.0595	0.12	1086119	keystroke_Key.enter	Key.enter	n/a
543.186	6.4445	1086372	prompt	n/a	kiss refine disagree normally\n
543.839	0.09	1087678	keystroke_k	k	n/a
544.064	0.105	1088128	keystroke_i	i	n/a
544.274	0.075	1088548	keystroke_s	s	n/a
544.469	0.105	1088938	keystroke_s	s	n/a
544.634	0.1505	1089268	keystroke_Key.space	Key.space	n/a
544.859	0.1655	1089718	keystroke_r	r	n/a
544.979	0.1205	1089958	keystroke_e	e	n/a
545.2045	0.12	1090409	keystroke_f	f	n/a
545.3695	0.12	1090739	keystroke_i	i	n/a
545.579	0.1345	1091158	keystroke_n	n	n/a
545.7285	0.12	1091457	keystroke_e	e	n/a
545.8335	0.135	1091667	keystroke_Key.space	Key.space	n/a
545.9985	0.135	1091997	keystroke_d	d	n/a
546.1635	0.1205	1092327	keystroke_i	i	n/a
546.314	0.09	1092628	keystroke_s	s	n/a
546.494	0.105	1092988	keystroke_a	a	n/a
546.734	0.105	1093468	keystroke_g	g	n/a
546.974	0.09	1093948	keystroke_r	r	n/a
547.184	0.075	1094368	keystroke_e	e	n/a
547.349	0.09	1094698	keystroke_e	e	n/a
547.484	0.15	1094968	keystroke_Key.space	Key.space	n/a
547.739	0.165	1095478	keystroke_n	n	n/a
547.889	0.18	1095778	keystroke_o	o	n/a
548.039	0.0895	1096078	keystroke_r	r	n/a
548.1735	0.105	1096347	keystroke_m	m	n/a
548.3085	0.12	1096617	keystroke_a	a	n/a
548.4585	0.0605	1096917	keystroke_l	l	n/a
548.984	0.105	1097968	keystroke_l	l	n/a
549.254	0.105	1098508	keystroke_y	y	n/a
549.509	0.12	1099018	keystroke_Key.enter	Key.enter	n/a
549.6335	8.502	1099267	prompt	n/a	china security syntax cyprus\n
550.319	0.015	1100638	keystroke_c	c	n/a
550.424	0.105	1100848	keystroke_h	h	n/a
550.7535	0.09	1101507	keystroke_Key.backspace	Key.backspace	n/a
550.8735	0.03	1101747	keystroke_Key.backspace	Key.backspace	n/a
551.4285	0.1205	1102857	keystroke_c	c	n/a
551.579	0.135	1103158	keystroke_h	h	n/a
551.699	0.255	1103398	keystroke_i	i	n/a
551.864	0.15	1103728	keystroke_n	n	n/a
552.029	0.12	1104058	keystroke_a	a	n/a
552.164	0.15	1104328	keystroke_Key.space	Key.space	n/a
552.344	0.12	1104688	keystroke_s	s	n/a
552.5835	0.09	1105167	keystroke_e	e	n/a
552.8535	0.12	1105707	keystroke_c	c	n/a
553.0935	0.09	1106187	keystroke_u	u	n/a
553.3035	0.105	1106607	keystroke_r	r	n/a
553.514	0.105	1107028	keystroke_i	i	n/a
553.619	0.12	1107238	keystroke_t	t	n/a
553.859	0.12	1107718	keystroke_y	y	n/a
554.039	0.105	1108078	keystroke_Key.space	Key.space	n/a
554.189	0.12	1108378	keystroke_s	s	n/a
554.399	0.105	1108798	keystroke_y	y	n/a
554.729	0.12	1109458	keystroke_n	n	n/a
554.864	0.105	1109728	keystroke_t	t	n/a
555.134	0.045	1110268	keystroke_a	a	n/a
555.4335	0.1205	1110867	keystroke_x	x	n/a
555.689	0.12	1111378	keystroke_Key.space	Key.space	n/a
555.869	0.105	1111738	keystroke_c	c	n/a
557.2785	0.015	1114557	keystroke_y	y	n/a
557.4285	0.09	1114857	keystroke_p	p	n/a
557.5035	0.135	1115007	keystroke_r	r	n/a
557.6535	0.105	1115307	keystroke_u	u	n/a
557.8335	0.135	1115667	keystroke_s	s	n/a
558.0135	0.12	1116027	keystroke_Key.enter	Key.enter	n/a
558.139	7.1515	1116278	prompt	n/a	judge printing gave physical\n
558.974	0.12	1117948	keystroke_j	j	n/a
559.259	0.09	1118518	keystroke_u	u	n/a
559.3785	0.105	1118757	keystroke_d	d	n/a
559.6635	0.09	1119327	keystroke_g	g	n/a
559.8435	0.105	1119687	keystroke_e	e	n/a
559.9635	0.165	1119927	keystroke_Key.space	Key.space	n/a
560.1135	0.135	1120227	keystroke_p	p	n/a
560.2635	0.105	1120527	keystroke_r	r	n/a
560.3835	0.195	1120767	keystroke_i	i	n/a
560.5035	0.135	1121007	keystroke_n	n	n/a
560.6235	0.1205	1121247	keystroke_t	t	n/a
560.759	0.1495	1121518	keystroke_i	i	n/a
560.819	0.1345	1121638	keystroke_n	n	n/a
560.9385	0.09	1121877	keystroke_g	g	n/a
561.0585	0.135	1122117	keystroke_Key.space	Key.space	n/a
561.1785	0.076	1122357	keystroke_g	g	n/a
561.3285	0.135	1122657	keystroke_a	a	n/a
561.4935	0.15	1122987	keystroke_b	b	n/a
561.6735	0.09	1123347	keystroke_e	e	n/a
561.7935	0.135	1123587	keystroke_Key.space	Key.space	n/a
562.1385	0.045	1124277	keystroke_Key.backspace	Key.backspace	n/a
562.2585	0.06	1124517	keystroke_Key.backspace	Key.backspace	n/a
562.7385	0.105	1125477	keystroke_Key.backspace	Key.backspace	n/a
562.8885	0.1505	1125777	keystroke_v	v	n/a
563.009	0.18	1126018	keystroke_e	e	n/a
563.204	0.12	1126408	keystroke_Key.space	Key.space	n/a
563.369	0.2095	1126738	keystroke_p	p	n/a
563.5335	0.135	1127067	keystroke_h	h	n/a
564.2085	0.105	1128417	keystroke_y	y	n/a
564.3285	0.09	1128657	keystroke_s	s	n/a
564.4635	0.105	1128927	keystroke_i	i	n/a
564.5535	0.165	1129107	keystroke_c	c	n/a
564.7035	0.1805	1129407	keystroke_a	a	n/a
564.809	0.105	1129618	keystroke_l	l	n/a
565.169	0.12	1130338	keystroke_Key.enter	Key.enter	n/a
565.2935	6.042	1130587	prompt	n/a	track goto tons mall\n
566.039	0.105	1132078	keystroke_t	t	n/a
566.2485	0.12	1132497	keystroke_r	r	n/a
566.3385	0.225	1132677	keystroke_a	a	n/a
566.684	0.135	1133368	keystroke_k	k	n/a
567.074	0.075	1134148	keystroke_Key.backspace	Key.backspace	n/a
567.599	0.105	1135198	keystroke_c	c	n/a
567.749	0.165	1135498	keystroke_k	k	n/a
567.854	0.165	1135708	keystroke_Key.space	Key.space	n/a
568.034	0.105	1136068	keystroke_g	g	n/a
568.214	0.075	1136428	keystroke_o	o	n/a
568.304	0.09	1136608	keystroke_t	t	n/a
568.454	0.135	1136908	keystroke_o	o	n/a
568.544	0.165	1137088	keystroke_Key.space	Key.space	n/a
568.754	0.09	1137508	keystroke_t	t	n/a
568.859	0.2545	1137718	keystroke_o	o	n/a
568.9635	0.165	1137927	keystroke_n	n	n/a
570.1035	0.12	1140207	keystroke_s	s	n/a
570.2385	0.15	1140477	keystroke_Key.space	Key.space	n/a
570.4185	0.135	1140837	keystroke_m	m	n/a
570.6135	0.105	1141227	keystroke_a	a	n/a
570.7485	0.105	1141497	keystroke_l	l	n/a
570.9435	0.09	1141887	keystroke_l	l	n/a
571.2435	0.09	1142487	keystroke_Key.enter	Key.enter	n/a
571.3385	9.702	1142677	prompt	n/a	administration wool express could've\n
572.009	0.12	1144018	keystroke_a	a	n/a
572.219	0.135	1144438	keystroke_d	d	n/a
572.429	0.09	1144858	keystroke_m	m	n/a
572.669	0.075	1145338	keystroke_i	i	n/a
572.909	0.09	1145818	keystroke_n	n	n/a
573.134	0.075	1146268	keystroke_i	i	n/a
573.239	0.105	1146478	keystroke_s	s	n/a
573.5245	0.09	1147049	keystroke_t	t	n/a
573.779	0.075	1147558	keystroke_r	r	n/a
573.914	0.12	1147828	keystroke_a	a	n/a
574.124	0.105	1148248	keystroke_t	t	n/a
574.274	0.225	1148548	keystroke_i	i	n/a
574.334	0.24	1148668	keystroke_o	o	n/a
574.424	0.195	1148848	keystroke_n	n	n/a
574.559	0.165	1149118	keystroke_Key.space	Key.space	n/a
574.874	0.09	1149748	keystroke_w	w	n/a
575.144	0.015	1150288	keystroke_o	o	n/a
575.294	0.0745	1150588	keystroke_o	o	n/a
575.4885	0.1655	1150977	keystroke_l	l	n/a
575.609	0.15	1151218	keystroke_Key.space	Key.space	n/a
575.834	0.09	1151668	keystroke_e	e	n/a
576.479	0.12	1152958	keystroke_x	x	n/a
576.704	0.12	1153408	keystroke_p	p	n/a
576.854	0.18	1153708	keystroke_r	r	n/a
576.989	0.135	1153978	keystroke_e	e	n/a
577.289	0.075	1154578	keystroke_s	s	n/a
577.4395	0.075	1154879	keystroke_s	s	n/a
577.5595	0.12	1155119	keystroke_Key.space	Key.space	n/a
577.7095	0.12	1155419	keystroke_c	c	n/a
577.7995	0.165	1155599	keystroke_o	o	n/a
577.9195	0.135	1155839	keystroke_u	u	n/a
578.099	0.135	1156198	keystroke_l	l	n/a
578.4445	0.075	1156889	keystroke_'	'	n/a
578.5345	0.075	1157069	keystroke_d	d	n/a
578.7895	0.1045	1157579	keystroke_v	v	n/a
578.924	0.105	1157848	keystroke_e	e	n/a
579.479	0.06	1158958	keystroke_Key.backspace	Key.backspace	n/a
579.644	0.06	1159288	keystroke_Key.backspace	Key.backspace	n/a
579.794	0.0895	1159588	keystroke_Key.backspace	Key.backspace	n/a
579.9885	0.06	1159977	keystroke_Key.backspace	Key.backspace	n/a
580.199	0.105	1160398	keystroke_d	d	n/a
580.409	0.09	1160818	keystroke_'	'	n/a
580.559	0.135	1161118	keystroke_v	v	n/a
580.709	0.12	1161418	keystroke_e	e	n/a
580.964	0.075	1161928	keystroke_Key.enter	Key.enter	n/a
581.0445	10.587	1162089	prompt	n/a	seas uncertainty anything extensive\n
581.9385	0.075	1163877	keystroke_s	s	n/a
582.1935	0.075	1164387	keystroke_e	e	n/a
582.4335	0.1655	1164867	keystroke_a	a	n/a
582.4935	0.1205	1164987	keystroke_s	s	n/a
