onset	duration	sample	value	key	prompt_text
16.241	7.7625	32482	prompt	n/a	the quick brown fox jumps over a lazy dog\n
19.246	0.105	38492	keystroke_t	t	n/a
19.366	0.1045	38732	keystroke_h	h	n/a
19.4555	0.0905	38911	keystroke_e	e	n/a
19.576	0.09	39152	keystroke_Key.space	Key.space	n/a
19.681	0.105	39362	keystroke_q	q	n/a
19.801	0.09	39602	keystroke_u	u	n/a
19.846	0.105	39692	keystroke_i	i	n/a
19.966	0.105	39932	keystroke_c	c	n/a
20.056	0.09	40112	keystroke_k	k	n/a
20.101	0.09	40202	keystroke_Key.space	Key.space	n/a
20.296	0.09	40592	keystroke_b	b	n/a
20.371	0.09	40742	keystroke_r	r	n/a
20.476	0.075	40952	keystroke_o	o	n/a
20.536	0.09	41072	keystroke_w	w	n/a
20.641	0.074	41282	keystroke_n	n	n/a
20.686	0.089	41372	keystroke_Key.space	Key.space	n/a
20.761	0.0745	41522	keystroke_f	f	n/a
20.8365	0.1045	41673	keystroke_o	o	n/a
20.956	0.1045	41912	keystroke_x	x	n/a
21.046	0.059	42092	keystroke_Key.space	Key.space	n/a
21.15	0.09	42300	keystroke_j	j	n/a
21.331	0.075	42662	keystroke_u	u	n/a
21.5255	0.1055	43051	keystroke_m	m	n/a
21.646	0.0745	43292	keystroke_p	p	n/a
21.7355	0.0905	43471	keystroke_s	s	n/a
21.8105	0.0905	43621	keystroke_Key.space	Key.space	n/a
21.916	0.09	43832	keystroke_o	o	n/a
21.976	0.09	43952	keystroke_v	v	n/a
22.111	0.15	44222	keystroke_e	e	n/a
22.216	0.135	44432	keystroke_r	r	n/a
22.411	0.1195	44822	keystroke_Key.space	Key.space	n/a
22.666	0.105	45332	keystroke_a	a	n/a
22.86	0.075	45720	keystroke_Key.space	Key.space	n/a
22.995	0.091	45990	keystroke_l	l	n/a
23.1	0.076	46200	keystroke_a	a	n/a
23.281	0.09	46562	keystroke_z	z	n/a
23.355	0.1055	46710	keystroke_y	y	n/a
23.4	0.0905	46800	keystroke_Key.space	Key.space	n/a
23.5055	0.09	47011	keystroke_d	d	n/a
23.5805	0.105	47161	keystroke_o	o	n/a
23.7305	0.0745	47461	keystroke_g	g	n/a
23.911	0.0895	47822	keystroke_Key.enter	Key.enter	n/a
24.0075	3.505	48015	prompt	n/a	texas offline special ugly\n
24.676	0.075	49352	keystroke_t	t	n/a
24.721	0.12	49442	keystroke_e	e	n/a
24.901	0.135	49802	keystroke_x	x	n/a
25.006	0.15	50012	keystroke_a	a	n/a
25.096	0.12	50192	keystroke_s	s	n/a
25.185	0.076	50370	keystroke_Key.space	Key.space	n/a
25.276	0.09	50552	keystroke_o	o	n/a
25.381	0.0445	50762	keystroke_f	f	n/a
25.4855	0.0895	50971	keystroke_f	f	n/a
25.5305	0.09	51061	keystroke_l	l	n/a
25.6055	0.075	51211	keystroke_i	i	n/a
25.7705	0.06	51541	keystroke_n	n	n/a
25.8155	0.09	51631	keystroke_e	e	n/a
25.8755	0.09	51751	keystroke_Key.space	Key.space	n/a
26.2355	0.045	52471	keystroke_s	s	n/a
26.2955	0.06	52591	keystroke_p	p	n/a
26.4155	0.15	52831	keystroke_e	e	n/a
26.4905	0.135	52981	keystroke_c	c	n/a
26.5955	0.09	53191	keystroke_i	i	n/a
26.6705	0.1205	53341	keystroke_a	a	n/a
26.761	0.105	53522	keystroke_l	l	n/a
26.835	0.075	53670	keystroke_Key.space	Key.space	n/a
26.985	0.106	53970	keystroke_u	u	n/a
27.061	0.089	54122	keystroke_g	g	n/a
27.18	0.136	54360	keystroke_l	l	n/a
27.271	0.089	54542	keystroke_y	y	n/a
27.421	0.089	54842	keystroke_Key.enter	Key.enter	n/a
27.516	5.7565	55032	prompt	n/a	seminars i'm butts journalist\n
28.171	0.105	56342	keystroke_s	s	n/a
28.246	0.105	56492	keystroke_e	e	n/a
28.321	0.105	56642	keystroke_m	m	n/a
28.396	0.12	56792	keystroke_i	i	n/a
28.501	0.09	57002	keystroke_n	n	n/a
28.546	0.12	57092	keystroke_a	a	n/a
28.605	0.106	57210	keystroke_r	r	n/a
28.636	0.105	57272	keystroke_s	s	n/a
28.726	0.075	57452	keystroke_Key.space	Key.space	n/a
28.891	0.075	57782	keystroke_i	i	n/a
29.146	0.06	58292	keystroke_'	'	n/a
29.341	0.059	58682	keystroke_,	,	n/a
30.57	0.075	61140	keystroke_Key.backspace	Key.backspace	n/a
30.931	0.0895	61862	keystroke_m	m	n/a
31.005	0.1055	62010	keystroke_Key.space	Key.space	n/a
31.2455	0.105	62491	keystroke_b	b	n/a
31.2905	0.075	62581	keystroke_u	u	n/a
31.3805	0.075	62761	keystroke_t	t	n/a
31.5305	0.105	63061	keystroke_t	t	n/a
31.5755	0.12	63151	keystroke_s	s	n/a
31.6805	0.105	63361	keystroke_Key.space	Key.space	n/a
32.1305	0.045	64261	keystroke_j	j	n/a
32.2055	0.1055	64411	keystroke_o	o	n/a
32.2655	0.0895	64531	keystroke_u	u	n/a
32.385	0.09	64770	keystroke_r	r	n/a
32.49	0.075	64980	keystroke_n	n	n/a
32.58	0.09	65160	keystroke_a	a	n/a
32.685	0.135	65370	keystroke_l	l	n/a
32.775	0.1055	65550	keystroke_i	i	n/a
32.851	0.0895	65702	keystroke_s	s	n/a
32.8955	0.1205	65791	keystroke_t	t	n/a
33.181	0.09	66362	keystroke_Key.enter	Key.enter	n/a
33.2775	4.675	66555	prompt	n/a	january aspect sphere secrets\n
34.1555	0.075	68311	keystroke_j	j	n/a
34.2455	0.09	68491	keystroke_a	a	n/a
34.3505	0.06	68701	keystroke_n	n	n/a
34.5305	0.09	69061	keystroke_u	u	n/a
34.6055	0.105	69211	keystroke_a	a	n/a
34.6655	0.105	69331	keystroke_r	r	n/a
34.7555	0.075	69511	keystroke_y	y	n/a
34.7855	0.12	69571	keystroke_Key.space	Key.space	n/a
34.9205	0.1205	69841	keystroke_a	a	n/a
34.996	0.12	69992	keystroke_s	s	n/a
35.146	0.105	70292	keystroke_p	p	n/a
35.236	0.165	70472	keystroke_e	e	n/a
35.326	0.12	70652	keystroke_c	c	n/a
35.611	0.105	71222	keystroke_t	t	n/a
35.836	0.1195	71672	keystroke_Key.space	Key.space	n/a
36.3005	0.0905	72601	keystroke_s	s	n/a
36.376	0.075	72752	keystroke_p	p	n/a
36.541	0.075	73082	keystroke_h	h	n/a
36.571	0.09	73142	keystroke_e	e	n/a
36.646	0.12	73292	keystroke_r	r	n/a
36.721	0.105	73442	keystroke_e	e	n/a
36.811	0.105	73622	keystroke_Key.space	Key.space	n/a
36.961	0.12	73922	keystroke_s	s	n/a
37.051	0.09	74102	keystroke_e	e	n/a
37.201	0.09	74402	keystroke_c	c	n/a
37.456	0.12	74912	keystroke_r	r	n/a
37.531	0.09	75062	keystroke_e	e	n/a
37.636	0.12	75272	keystroke_t	t	n/a
37.711	0.12	75422	keystroke_s	s	n/a
37.846	0.105	75692	keystroke_Key.enter	Key.enter	n/a
37.9555	6.252	75911	prompt	n/a	elimination accomplish anniversary armed\n
38.5955	0.09	77191	keystroke_e	e	n/a
38.7905	0.09	77581	keystroke_l	l	n/a
38.8955	0.09	77791	keystroke_i	i	n/a
39.0905	0.075	78181	keystroke_m	m	n/a
39.1505	0.135	78301	keystroke_i	i	n/a
39.7505	0.105	79501	keystroke_n	n	n/a
40.051	0.1045	80102	keystroke_a	a	n/a
40.1105	0.105	80221	keystroke_t	t	n/a
40.2305	0.09	80461	keystroke_i	i	n/a
40.2605	0.09	80521	keystroke_o	o	n/a
40.4705	0.06	80941	keystroke_n	n	n/a
40.5155	0.12	81031	keystroke_Key.space	Key.space	n/a
40.6655	0.075	81331	keystroke_a	a	n/a
40.7555	0.06	81511	keystroke_c	c	n/a
40.906	0.0745	81812	keystroke_c	c	n/a
40.9505	0.105	81901	keystroke_o	o	n/a
41.0255	0.09	82051	keystroke_m	m	n/a
41.1755	0.105	82351	keystroke_p	p	n/a
41.2355	0.1055	82471	keystroke_l	l	n/a
41.5055	0.015	83011	keystroke_i	i	n/a
41.5355	0.075	83071	keystroke_s	s	n/a
41.6255	0.075	83251	keystroke_h	h	n/a
41.6705	0.09	83341	keystroke_Key.space	Key.space	n/a
41.7455	0.09	83491	keystroke_a	a	n/a
41.8505	0.06	83701	keystroke_n	n	n/a
41.9705	0.09	83941	keystroke_n	n	n/a
42.0155	0.105	84031	keystroke_i	i	n/a
42.0755	0.075	84151	keystroke_v	v	n/a
42.2105	0.135	84421	keystroke_e	e	n/a
42.2855	0.105	84571	keystroke_r	r	n/a
42.4655	0.105	84931	keystroke_s	s	n/a
42.5105	0.12	85021	keystroke_a	a	n/a
43.0655	0.105	86131	keystroke_r	r	n/a
43.1405	0.075	86281	keystroke_y	y	n/a
43.1855	0.12	86371	keystroke_Key.space	Key.space	n/a
43.4405	0.09	86881	keystroke_a	a	n/a
43.665	0.09	87330	keystroke_r	r	n/a
43.725	0.105	87450	keystroke_m	m	n/a
43.846	0.15	87692	keystroke_e	e	n/a
43.921	0.119	87842	keystroke_d	d	n/a
44.115	0.09	88230	keystroke_Key.enter	Key.enter	n/a
44.2105	5.997	88421	prompt	n/a	attitude graduates charitable directed\n
44.7455	0.06	89491	keystroke_a	a	n/a
44.8505	0.075	89701	keystroke_t	t	n/a
44.9855	0.105	89971	keystroke_t	t	n/a
45.0755	0.09	90151	keystroke_i	i	n/a
45.1805	0.075	90361	keystroke_t	t	n/a
45.3005	0.09	90601	keystroke_u	u	n/a
45.3755	0.105	90751	keystroke_d	d	n/a
45.4205	0.135	90841	keystroke_e	e	n/a
45.5405	0.12	91081	keystroke_Key.space	Key.space	n/a
46.1555	0.09	92311	keystroke_g	g	n/a
46.3505	0.09	92701	keystroke_r	r	n/a
46.4105	0.105	92821	keystroke_a	a	n/a
46.5455	0.12	93091	keystroke_d	d	n/a
46.6805	0.0895	93361	keystroke_u	u	n/a
46.756	0.089	93512	keystroke_a	a	n/a
46.846	0.104	93692	keystroke_t	t	n/a
46.935	0.15	93870	keystroke_e	e	n/a
47.055	0.0905	94110	keystroke_d	d	n/a
47.13	0.1055	94260	keystroke_Key.space	Key.space	n/a
47.3555	0.075	94711	keystroke_c	c	n/a
47.4455	0.09	94891	keystroke_h	h	n/a
47.5205	0.1055	95041	keystroke_a	a	n/a
47.611	0.1495	95222	keystroke_r	r	n/a
47.821	0.0895	95642	keystroke_i	i	n/a
47.9555	0.12	95911	keystroke_t	t	n/a
48.0455	0.105	96091	keystroke_a	a	n/a
48.271	0.09	96542	keystroke_b	b	n/a
48.421	0.105	96842	keystroke_l	l	n/a
48.541	0.075	97082	keystroke_e	e	n/a
48.616	0.12	97232	keystroke_Key.space	Key.space	n/a
48.826	0.12	97652	keystroke_d	d	n/a
48.901	0.105	97802	keystroke_e	e	n/a
49.065	0.105	98130	keystroke_t	t	n/a
49.156	0.104	98312	keystroke_e	e	n/a
49.485	0.106	98970	keystroke_c	c	n/a
49.771	0.09	99542	keystroke_t	t	n/a
49.846	0.15	99692	keystroke_e	e	n/a
49.951	0.12	99902	keystroke_d	d	n/a
50.086	0.12	100172	keystroke_Key.enter	Key.enter	n/a
50.2105	7.7665	100421	prompt	n/a	leone selected says banking\n
50.746	0.09	101492	keystroke_l	l	n/a
50.851	0.1045	101702	keystroke_e	e	n/a
50.9405	0.06	101881	keystroke_o	o	n/a
51.0605	0.09	102121	keystroke_n	n	n/a
51.1205	0.09	102241	keystroke_a	a	n/a
51.2555	0.09	102511	keystroke_Key.space	Key.space	n/a
52.0205	0.09	104041	keystroke_Key.backspace	Key.backspace	n/a
52.966	0.09	105932	keystroke_Key.backspace	Key.backspace	n/a
53.446	0.105	106892	keystroke_e	e	n/a
53.716	0.12	107432	keystroke_Key.space	Key.space	n/a
53.866	0.105	107732	keystroke_s	s	n/a
53.926	0.1045	107852	keystroke_e	e	n/a
54.046	0.075	108092	keystroke_l	l	n/a
54.136	0.119	108272	keystroke_e	e	n/a
54.181	0.135	108362	keystroke_c	c	n/a
54.57	0.1805	109140	keystroke_t	t	n/a
54.7355	0.165	109471	keystroke_e	e	n/a
54.8855	0.12	109771	keystroke_d	d	n/a
54.9905	0.105	109981	keystroke_Key.space	Key.space	n/a
55.1105	0.135	110221	keystroke_s	s	n/a
55.1855	0.09	110371	keystroke_a	a	n/a
55.2605	0.09	110521	keystroke_y	y	n/a
55.3655	0.105	110731	keystroke_s	s	n/a
55.4105	0.12	110821	keystroke_Key.space	Key.space	n/a
55.891	0.105	111782	keystroke_n	n	n/a
56.011	0.09	112022	keystroke_a	a	n/a
56.67	0.075	113340	keystroke_Key.backspace	Key.backspace	n/a
56.88	0.0905	113760	keystroke_Key.backspace	Key.backspace	n/a
57.0455	0.105	114091	keystroke_b	b	n/a
57.1055	0.12	114211	keystroke_a	a	n/a
57.2405	0.075	114481	keystroke_n	n	n/a
57.3005	0.075	114601	keystroke_k	k	n/a
57.4805	0.105	114961	keystroke_i	i	n/a
57.5865	0.089	115173	keystroke_n	n	n/a
57.6605	0.1355	115321	keystroke_g	g	n/a
57.856	0.119	115712	keystroke_Key.enter	Key.enter	n/a
57.9825	3.6245	115965	prompt	n/a	domain orange pushing negative\n
58.635	0.075	117270	keystroke_d	d	n/a
58.696	0.075	117392	keystroke_o	o	n/a
58.83	0.105	117660	keystroke_m	m	n/a
58.92	0.09	117840	keystroke_a	a	n/a
58.996	0.089	117992	keystroke_i	i	n/a
59.055	0.09	118110	keystroke_n	n	n/a
59.115	0.105	118230	keystroke_Key.space	Key.space	n/a
59.25	0.105	118500	keystroke_o	o	n/a
59.31	0.12	118620	keystroke_r	r	n/a
59.385	0.1055	118770	keystroke_a	a	n/a
59.4915	0.074	118983	keystroke_n	n	n/a
59.5805	0.09	119161	keystroke_g	g	n/a
59.6255	0.105	119251	keystroke_e	e	n/a
59.6855	0.075	119371	keystroke_Key.space	Key.space	n/a
59.8955	0.09	119791	keystroke_p	p	n/a
60.0755	0.06	120151	keystroke_u	u	n/a
60.1655	0.09	120331	keystroke_s	s	n/a
60.27	0.06	120540	keystroke_h	h	n/a
60.3155	0.0745	120631	keystroke_i	i	n/a
60.4205	0.09	120841	keystroke_n	n	n/a
60.4655	0.09	120931	keystroke_g	g	n/a
60.5405	0.09	121081	keystroke_Key.space	Key.space	n/a
60.6155	0.075	121231	keystroke_n	n	n/a
60.6605	0.105	121321	keystroke_e	e	n/a
60.7805	0.105	121561	keystroke_g	g	n/a
60.9455	0.12	121891	keystroke_a	a	n/a
61.0355	0.075	122071	keystroke_t	t	n/a
61.0955	0.09	122191	keystroke_i	i	n/a
61.2755	0.105	122551	keystroke_v	v	n/a
61.3355	0.12	122671	keystroke_e	e	n/a
61.5005	0.105	123001	keystroke_Key.enter	Key.enter	n/a
61.6105	3.7315	123221	prompt	n/a	recipe process serbia room\n
62.1905	0.0755	124381	keystroke_r	r	n/a
62.236	0.105	124472	keystroke_e	e	n/a
62.506	0.09	125012	keystroke_c	c	n/a
62.581	0.12	125162	keystroke_i	i	n/a
62.641	0.09	125282	keystroke_p	p	n/a
62.746	0.1045	125492	keystroke_e	e	n/a
62.821	0.1045	125642	keystroke_Key.space	Key.space	n/a
62.9855	0.09	125971	keystroke_p	p	n/a
63.0905	0.06	126181	keystroke_r	r	n/a
63.1805	0.09	126361	keystroke_o	o	n/a
63.4055	0.15	126811	keystroke_c	c	n/a
63.5255	0.135	127051	keystroke_e	e	n/a
63.6155	0.09	127231	keystroke_s	s	n/a
63.7955	0.09	127591	keystroke_s	s	n/a
63.9005	0.105	127801	keystroke_Key.space	Key.space	n/a
64.0955	0.12	128191	keystroke_s	s	n/a
64.1405	0.12	128281	keystroke_e	e	n/a
64.2005	0.105	128401	keystroke_r	r	n/a
64.3205	0.075	128641	keystroke_b	b	n/a
64.4555	0.09	128911	keystroke_i	i	n/a
64.5305	0.09	129061	keystroke_a	a	n/a
64.6055	0.105	129211	keystroke_Key.space	Key.space	n/a
64.7405	0.09	129481	keystroke_r	r	n/a
64.8005	0.06	129601	keystroke_o	o	n/a
64.9205	0.0895	129841	keystroke_o	o	n/a
65.056	0.074	130112	keystroke_m	m	n/a
65.25	0.09	130500	keystroke_Key.enter	Key.enter	n/a
65.345	5.772	130690	prompt	n/a	advisor achievements quebec identity\n
65.925	0.105	131850	keystroke_a	a	n/a
66	0.105	132000	keystroke_d	d	n/a
66.21	0.075	132420	keystroke_v	v	n/a
66.3005	0.1055	132601	keystroke_i	i	n/a
66.391	0.0895	132782	keystroke_s	s	n/a
66.4655	0.1055	132931	keystroke_o	o	n/a
66.586	0.0745	133172	keystroke_r	r	n/a
66.6455	0.105	133291	keystroke_Key.space	Key.space	n/a
66.9755	0.12	133951	keystroke_a	a	n/a
67.2005	0.105	134401	keystroke_c	c	n/a
67.3055	0.09	134611	keystroke_h	h	n/a
67.3505	0.105	134701	keystroke_i	i	n/a
67.4855	0.09	134971	keystroke_e	e	n/a
67.6955	0.12	135391	keystroke_v	v	n/a
67.8005	0.09	135601	keystroke_e	e	n/a
68.0255	0.09	136051	keystroke_m	m	n/a
68.1165	0.089	136233	keystroke_e	e	n/a
68.2355	0.09	136471	keystroke_n	n	n/a
68.3105	0.12	136621	keystroke_t	t	n/a
68.3855	0.105	136771	keystroke_s	s	n/a
68.4455	0.09	136891	keystroke_Key.space	Key.space	n/a
68.6105	0.09	137221	keystroke_q	q	n/a
68.7455	0.09	137491	keystroke_u	u	n/a
68.8505	0.105	137701	keystroke_e	e	n/a
69.06	0.105	138120	keystroke_b	b	n/a
69.15	0.105	138300	keystroke_e	e	n/a
69.24	0.15	138480	keystroke_c	c	n/a
69.36	0.09	138720	keystroke_Key.space	Key.space	n/a
69.6005	0.105	139201	keystroke_i	i	n/a
69.6905	0.12	139381	keystroke_d	d	n/a
69.7505	0.105	139501	keystroke_e	e	n/a
70.2755	0.1055	140551	keystroke_n	n	n/a
70.426	0.089	140852	keystroke_t	t	n/a
70.531	0.089	141062	keystroke_i	i	n/a
70.756	0.074	141512	keystroke_t	t	n/a
70.935	0.076	141870	keystroke_y	y	n/a
71.025	0.09	142050	keystroke_Key.enter	Key.enter	n/a
71.1205	5.3215	142241	prompt	n/a	unfortunately modern excited coastal\n
71.7905	0.06	143581	keystroke_u	u	n/a
71.9405	0.105	143881	keystroke_n	n	n/a
72.0605	0.0895	144121	keystroke_f	f	n/a
72.1355	0.075	144271	keystroke_o	o	n/a
72.36	0.09	144720	keystroke_r	r	n/a
72.7055	0.06	145411	keystroke_t	t	n/a
72.8105	0.09	145621	keystroke_u	u	n/a
72.9605	0.12	145921	keystroke_n	n	n/a
73.0655	0.105	146131	keystroke_a	a	n/a
73.1405	0.12	146281	keystroke_t	t	n/a
73.2005	0.105	146401	keystroke_e	e	n/a
73.2755	0.105	146551	keystroke_l	l	n/a
73.3955	0.105	146791	keystroke_y	y	n/a
73.5155	0.0895	147031	keystroke_Key.space	Key.space	n/a
73.815	0.105	147630	keystroke_m	m	n/a
73.89	0.075	147780	keystroke_o	o	n/a
73.95	0.09	147900	keystroke_d	d	n/a
74.07	0.15	148140	keystroke_e	e	n/a
74.145	0.105	148290	keystroke_r	r	n/a
74.235	0.06	148470	keystroke_n	n	n/a
74.265	0.135	148530	keystroke_Key.space	Key.space	n/a
74.355	0.09	148710	keystroke_e	e	n/a
74.52	0.12	149040	keystroke_x	x	n/a
74.73	0.09	149460	keystroke_c	c	n/a
74.835	0.105	149670	keystroke_i	i	n/a
74.97	0.09	149940	keystroke_t	t	n/a
75.045	0.165	150090	keystroke_e	e	n/a
75.165	0.135	150330	keystroke_d	d	n/a
75.285	0.105	150570	keystroke_Key.space	Key.space	n/a
75.405	0.12	150810	keystroke_c	c	n/a
75.495	0.0905	150990	keystroke_o	o	n/a
75.6605	0.075	151321	keystroke_a	a	n/a
75.6755	0.1495	151351	keystroke_s	s	n/a
75.8105	0.1345	151621	keystroke_t	t	n/a
75.915	0.12	151830	keystroke_a	a	n/a
76.08	0.105	152160	keystroke_l	l	n/a
76.35	0.09	152700	keystroke_Key.enter	Key.enter	n/a
76.4475	8.185	152895	prompt	n/a	editorial switches ambien specialist\n
77.1	0.106	154200	keystroke_e	e	n/a
77.1905	0.1195	154381	keystroke_d	d	n/a
77.34	0.091	154680	keystroke_i	i	n/a
77.9705	0.105	155941	keystroke_t	t	n/a
78.1655	0.165	156331	keystroke_i	i	n/a
79.23	0.121	158460	keystroke_Key.backspace	Key.backspace	n/a
80.2055	0.06	160411	keystroke_o	o	n/a
80.5505	0.105	161101	keystroke_r	r	n/a
80.79	0.075	161580	keystroke_i	i	n/a
80.88	0.105	161760	keystroke_a	a	n/a
81.015	0.105	162030	keystroke_l	l	n/a
81.09	0.135	162180	keystroke_Key.space	Key.space	n/a
81.21	0.075	162420	keystroke_s	s	n/a
81.376	0.119	162752	keystroke_w	w	n/a
81.48	0.076	162960	keystroke_i	i	n/a
81.5705	0.075	163141	keystroke_t	t	n/a
81.7805	0.09	163561	keystroke_c	c	n/a
81.9005	0.09	163801	keystroke_h	h	n/a
81.9455	0.1355	163891	keystroke_e	e	n/a
82.0055	0.12	164011	keystroke_s	s	n/a
82.081	0.1045	164162	keystroke_Key.space	Key.space	n/a
82.2005	0.09	164401	keystroke_a	a	n/a
82.2755	0.105	164551	keystroke_m	m	n/a
82.4405	0.075	164881	keystroke_b	b	n/a
82.5305	0.0895	165061	keystroke_i	i	n/a
82.65	0.105	165300	keystroke_e	e	n/a
82.77	0.09	165540	keystroke_n	n	n/a
82.89	0.1205	165780	keystroke_Key.space	Key.space	n/a
83.1305	0.105	166261	keystroke_s	s	n/a
83.1905	0.09	166381	keystroke_p	p	n/a
83.3105	0.135	166621	keystroke_e	e	n/a
83.3555	0.15	166711	keystroke_c	c	n/a
83.4605	0.105	166921	keystroke_i	i	n/a
83.5505	0.12	167101	keystroke_a	a	n/a
83.6555	0.105	167311	keystroke_l	l	n/a
83.7455	0.12	167491	keystroke_i	i	n/a
83.8505	0.105	167701	keystroke_s	s	n/a
83.8955	0.12	167791	keystroke_t	t	n/a
84.511	0.12	169022	keystroke_Key.enter	Key.enter	n/a
84.638	3.1585	169276	prompt	n/a	horse comics already grade\n
85.3205	0.075	170641	keystroke_h	h	n/a
85.4405	0.09	170881	keystroke_o	o	n/a
85.5155	0.0905	171031	keystroke_r	r	n/a
85.651	0.12	171302	keystroke_s	s	n/a
85.711	0.105	171422	keystroke_e	e	n/a
85.8	0.09	171600	keystroke_Key.space	Key.space	n/a
85.936	0.075	171872	keystroke_c	c	n/a
85.966	0.074	171932	keystroke_o	o	n/a
86.086	0.135	172172	keystroke_m	m	n/a
86.161	0.075	172322	keystroke_i	i	n/a
86.206	0.105	172412	keystroke_c	c	n/a
86.251	0.105	172502	keystroke_s	s	n/a
86.341	0.104	172682	keystroke_Key.space	Key.space	n/a
86.476	0.105	172952	keystroke_a	a	n/a
86.566	0.075	173132	keystroke_l	l	n/a
86.656	0.075	173312	keystroke_r	r	n/a
86.806	0.059	173612	keystroke_e	e	n/a
86.836	0.149	173672	keystroke_a	a	n/a
86.955	0.091	173910	keystroke_d	d	n/a
87.016	0.089	174032	keystroke_y	y	n/a
87.06	0.105	174120	keystroke_Key.space	Key.space	n/a
87.181	0.059	174362	keystroke_g	g	n/a
87.316	0.105	174632	keystroke_r	r	n/a
87.406	0.089	174812	keystroke_a	a	n/a
87.525	0.135	175050	keystroke_d	d	n/a
87.616	0.119	175232	keystroke_e	e	n/a
87.72	0.075	175440	keystroke_Key.enter	Key.enter	n/a
87.7995	4.9925	175599	prompt	n/a	reseller dallas editors short\n
88.4405	0.1345	176881	keystroke_r	r	n/a
88.5305	0.1345	177061	keystroke_e	e	n/a
88.59	0.135	177180	keystroke_s	s	n/a
89.22	0.105	178440	keystroke_e	e	n/a
89.46	0.06	178920	keystroke_l	l	n/a
89.625	0.0755	179250	keystroke_l	l	n/a
89.7155	0.105	179431	keystroke_e	e	n/a
89.7605	0.135	179521	keystroke_r	r	n/a
89.8655	0.105	179731	keystroke_Key.space	Key.space	n/a
90.0905	0.045	180181	keystroke_d	d	n/a
90.1055	0.105	180211	keystroke_a	a	n/a
90.4055	0.06	180811	keystroke_l	l	n/a
90.5405	0.06	181081	keystroke_l	l	n/a
90.5705	0.105	181141	keystroke_a	a	n/a
90.6305	0.105	181261	keystroke_s	s	n/a
90.7505	0.1045	181501	keystroke_Key.space	Key.space	n/a
90.9	0.165	181800	keystroke_e	e	n/a
90.99	0.135	181980	keystroke_d	d	n/a
91.125	0.105	182250	keystroke_i	i	n/a
91.275	0.09	182550	keystroke_t	t	n/a
91.395	0.075	182790	keystroke_o	o	n/a
91.485	0.12	182970	keystroke_r	r	n/a
91.53	0.15	183060	keystroke_s	s	n/a
91.9955	0.12	183991	keystroke_Key.space	Key.space	n/a
92.2505	0.105	184501	keystroke_s	s	n/a
92.3395	0.076	184679	keystroke_h	h	n/a
92.4155	0.09	184831	keystroke_o	o	n/a
92.4905	0.135	184981	keystroke_r	r	n/a
92.5505	0.12	185101	keystroke_t	t	n/a
92.7005	0.09	185401	keystroke_Key.enter	Key.enter	n/a
92.795	4.497	185590	prompt	n/a	deck employee bracket emissions\n
93.4505	0.09	186901	keystroke_d	d	n/a
93.4955	0.09	186991	keystroke_e	e	n/a
93.6605	0.105	187321	keystroke_c	c	n/a
93.7505	0.09	187501	keystroke_k	k	n/a
93.8105	0.105	187621	keystroke_Key.space	Key.space	n/a
93.9155	0.075	187831	keystroke_e	e	n/a
94.0055	0.075	188011	keystroke_m	m	n/a
94.1855	0.105	188371	keystroke_p	p	n/a
94.2455	0.105	188491	keystroke_l	l	n/a
94.4855	0.075	188971	keystroke_o	o	n/a
94.5905	0.1195	189181	keystroke_y	y	n/a
94.6655	0.1045	189331	keystroke_e	e	n/a
94.86	0.1055	189720	keystroke_e	e	n/a
95.0705	0.09	190141	keystroke_Key.space	Key.space	n/a
95.4305	0.0895	190861	keystroke_b	b	n/a
95.4905	0.0895	190981	keystroke_r	r	n/a
95.55	0.105	191100	keystroke_a	a	n/a
95.685	0.12	191370	keystroke_c	c	n/a
95.79	0.09	191580	keystroke_k	k	n/a
95.895	0.135	191790	keystroke_e	e	n/a
95.955	0.105	191910	keystroke_t	t	n/a
96.045	0.075	192090	keystroke_Key.space	Key.space	n/a
96.135	0.12	192270	keystroke_e	e	n/a
96.24	0.0905	192480	keystroke_m	m	n/a
96.2855	0.105	192571	keystroke_i	i	n/a
96.4055	0.09	192811	keystroke_s	s	n/a
96.5705	0.09	193141	keystroke_s	s	n/a
96.6755	0.105	193351	keystroke_i	i	n/a
96.7355	0.075	193471	keystroke_o	o	n/a
96.9005	0.075	193801	keystroke_n	n	n/a
96.9605	0.075	193921	keystroke_s	s	n/a
97.2005	0.09	194401	keystroke_Key.enter	Key.enter	n/a
97.297	4.615	194594	prompt	n/a	belle harder service occasionally\n
97.9205	0.09	195841	keystroke_b	b	n/a
98.0255	0.12	196051	keystroke_e	e	n/a
98.1755	0.06	196351	keystroke_l	l	n/a
98.3255	0.06	196651	keystroke_l	l	n/a
98.4005	0.075	196801	keystroke_e	e	n/a
98.4905	0.075	196981	keystroke_Key.space	Key.space	n/a
98.6405	0.105	197281	keystroke_h	h	n/a
98.7005	0.135	197401	keystroke_a	a	n/a
98.7605	0.06	197521	keystroke_r	r	n/a
98.8955	0.105	197791	keystroke_d	d	n/a
99.0305	0.15	198061	keystroke_e	e	n/a
99.1205	0.09	198241	keystroke_r	r	n/a
99.1955	0.09	198391	keystroke_Key.space	Key.space	n/a
99.3005	0.12	198601	keystroke_s	s	n/a
99.3455	0.12	198691	keystroke_e	e	n/a
99.3905	0.09	198781	keystroke_r	r	n/a
99.586	0.089	199172	keystroke_v	v	n/a
99.705	0.09	199410	keystroke_i	i	n/a
99.81	0.165	199620	keystroke_c	c	n/a
99.885	0.105	199770	keystroke_e	e	n/a
99.945	0.075	199890	keystroke_Key.space	Key.space	n/a
100.065	0.12	200130	keystroke_o	o	n/a
100.14	0.105	200280	keystroke_c	c	n/a
100.3955	0.075	200791	keystroke_c	c	n/a
100.5455	0.105	201091	keystroke_a	a	n/a
100.6205	0.09	201241	keystroke_s	s	n/a
100.7555	0.105	201511	keystroke_i	i	n/a
100.8005	0.075	201601	keystroke_o	o	n/a
100.9655	0.09	201931	keystroke_n	n	n/a
101.0855	0.105	202171	keystroke_a	a	n/a
101.2355	0.06	202471	keystroke_l	l	n/a
101.3555	0.09	202711	keystroke_l	l	n/a
101.4605	0.1045	202921	keystroke_y	y	n/a
101.835	0.075	203670	keystroke_Key.enter	Key.enter	n/a
101.915	3.762	203830	prompt	n/a	algorithm grid ensures those\n
102.48	0.045	204960	keystroke_a	a	n/a
102.555	0.09	205110	keystroke_l	l	n/a
102.69	0.105	205380	keystroke_g	g	n/a
102.78	0.09	205560	keystroke_o	o	n/a
102.99	0.105	205980	keystroke_r	r	n/a
103.096	0.104	206192	keystroke_i	i	n/a
103.215	0.09	206430	keystroke_t	t	n/a
103.306	0.059	206612	keystroke_h	h	n/a
103.5	0.091	207000	keystroke_m	m	n/a
103.56	0.105	207120	keystroke_Key.space	Key.space	n/a
103.935	0.09	207870	keystroke_g	g	n/a
103.995	0.105	207990	keystroke_r	r	n/a
104.085	0.09	208170	keystroke_i	i	n/a
104.205	0.121	208410	keystroke_d	d	n/a
104.28	0.12	208560	keystroke_Key.space	Key.space	n/a
104.49	0.09	208980	keystroke_e	e	n/a
104.565	0.09	209130	keystroke_n	n	n/a
104.67	0.09	209340	keystroke_s	s	n/a
104.791	0.105	209582	keystroke_u	u	n/a
104.85	0.105	209700	keystroke_r	r	n/a
104.896	0.134	209792	keystroke_e	e	n/a
104.926	0.135	209852	keystroke_s	s	n/a
105	0.105	210000	keystroke_Key.space	Key.space	n/a
105.15	0.075	210300	keystroke_t	t	n/a
105.18	0.09	210360	keystroke_h	h	n/a
105.286	0.104	210572	keystroke_o	o	n/a
105.405	0.105	210810	keystroke_s	s	n/a
105.451	0.09	210902	keystroke_e	e	n/a
105.585	0.09	211170	keystroke_Key.enter	Key.enter	n/a
105.6795	4.7975	211359	prompt	n/a	held wanna montreal conjunction\n
106.321	0.089	212642	keystroke_h	h	n/a
106.441	0.089	212882	keystroke_e	e	n/a
106.545	0.09	213090	keystroke_l	l	n/a
106.62	0.09	213240	keystroke_d	d	n/a
106.725	0.06	213450	keystroke_Key.space	Key.space	n/a
106.786	0.104	213572	keystroke_w	w	n/a
106.83	0.106	213660	keystroke_a	a	n/a
106.936	0.029	213872	keystroke_n	n	n/a
107.025	0.09	214050	keystroke_n	n	n/a
107.085	0.09	214170	keystroke_a	a	n/a
107.16	0.075	214320	keystroke_Key.space	Key.space	n/a
107.28	0.105	214560	keystroke_m	m	n/a
107.355	0.075	214710	keystroke_o	o	n/a
107.49	0.09	214980	keystroke_n	n	n/a
107.61	0.09	215220	keystroke_t	t	n/a
107.82	0.09	215640	keystroke_r	r	n/a
108.615	0.03	217230	keystroke_e	e	n/a
108.63	0.09	217260	keystroke_a	a	n/a
108.66	0.106	217320	keystroke_l	l	n/a
108.75	0.12	217500	keystroke_Key.space	Key.space	n/a
109.02	0.076	218040	keystroke_c	c	n/a
109.11	0.076	218220	keystroke_o	o	n/a
109.261	0.089	218522	keystroke_n	n	n/a
109.486	0.059	218972	keystroke_j	j	n/a
109.65	0.075	219300	keystroke_u	u	n/a
109.695	0.1055	219390	keystroke_c	c	n/a
109.9505	0.09	219901	keystroke_t	t	n/a
109.9805	0.075	219961	keystroke_i	i	n/a
110.0255	0.06	220051	keystroke_o	o	n/a
110.1605	0.09	220321	keystroke_n	n	n/a
110.3705	0.105	220741	keystroke_Key.enter	Key.enter	n/a
110.4805	3.4765	220961	prompt	n/a	people offers cite likewise\n
111.1955	0.06	222391	keystroke_p	p	n/a
111.2705	0.1195	222541	keystroke_e	e	n/a
111.36	0.06	222720	keystroke_o	o	n/a
111.405	0.106	222810	keystroke_p	p	n/a
111.495	0.105	222990	keystroke_l	l	n/a
111.555	0.09	223110	keystroke_e	e	n/a
111.615	0.105	223230	keystroke_Key.space	Key.space	n/a
111.735	0.076	223470	keystroke_o	o	n/a
111.78	0.076	223560	keystroke_f	f	n/a
111.916	0.075	223832	keystroke_f	f	n/a
112.05	0.121	224100	keystroke_e	e	n/a
112.065	0.12	224130	keystroke_r	r	n/a
112.14	0.12	224280	keystroke_s	s	n/a
112.261	0.089	224522	keystroke_Key.space	Key.space	n/a
112.38	0.09	224760	keystroke_c	c	n/a
112.455	0.105	224910	keystroke_i	i	n/a
112.605	0.105	225210	keystroke_t	t	n/a
112.665	0.12	225330	keystroke_e	e	n/a
112.725	0.09	225450	keystroke_Key.space	Key.space	n/a
112.92	0.09	225840	keystroke_l	l	n/a
113.07	0.075	226140	keystroke_i	i	n/a
113.22	0.09	226440	keystroke_k	k	n/a
113.25	0.09	226500	keystroke_e	e	n/a
113.445	0.09	226890	keystroke_w	w	n/a
113.625	0.09	227250	keystroke_i	i	n/a
113.73	0.105	227460	keystroke_s	s	n/a
113.76	0.105	227520	keystroke_e	e	n/a
113.88	0.075	227760	keystroke_Key.enter	Key.enter	n/a
113.9615	4.4655	227923	prompt	n/a	theory taken sexuality anderson\n
114.6155	0.09	229231	keystroke_t	t	n/a
114.6605	0.12	229321	keystroke_h	h	n/a
114.7955	0.075	229591	keystroke_e	e	n/a
114.8855	0.09	229771	keystroke_o	o	n/a
115.0055	0.12	230011	keystroke_r	r	n/a
115.0655	0.09	230131	keystroke_y	y	n/a
115.1405	0.09	230281	keystroke_Key.space	Key.space	n/a
115.2455	0.12	230491	keystroke_t	t	n/a
115.2905	0.09	230581	keystroke_a	a	n/a
115.3505	0.075	230701	keystroke_k	k	n/a
115.4555	0.09	230911	keystroke_e	e	n/a
115.5005	0.075	231001	keystroke_n	n	n/a
115.5455	0.12	231091	keystroke_Key.space	Key.space	n/a
115.6505	0.12	231301	keystroke_s	s	n/a
115.6805	0.075	231361	keystroke_e	e	n/a
115.83	0.12	231660	keystroke_x	x	n/a
115.95	0.105	231900	keystroke_u	u	n/a
116.025	0.09	232050	keystroke_a	a	n/a
116.1605	0.0445	232321	keystroke_l	l	n/a
116.19	0.105	232380	keystroke_i	i	n/a
116.2805	0.075	232561	keystroke_t	t	n/a
116.9555	0.105	233911	keystroke_y	y	n/a
117.1055	0.09	234211	keystroke_Key.space	Key.space	n/a
117.5855	0.09	235171	keystroke_a	a	n/a
117.6905	0.09	235381	keystroke_n	n	n/a
117.7355	0.075	235471	keystroke_d	d	n/a
117.8405	0.18	235681	keystroke_e	e	n/a
117.9305	0.12	235861	keystroke_r	r	n/a
118.0055	0.12	236011	keystroke_s	s	n/a
118.0655	0.09	236131	keystroke_o	o	n/a
118.1855	0.09	236371	keystroke_n	n	n/a
118.3355	0.09	236671	keystroke_Key.enter	Key.enter	n/a
118.4305	8.2615	236861	prompt	n/a	responsibility highlights booty tobacco\n
119.1005	0.1495	238201	keystroke_e	e	n/a
119.1455	0.1345	238291	keystroke_s	s	n/a
119.175	0.12	238350	keystroke_p	p	n/a
119.251	0.089	238502	keystroke_o	o	n/a
119.9405	0.0745	239881	keystroke_Key.backspace	Key.backspace	n/a
120.1955	0.09	240391	keystroke_Key.backspace	Key.backspace	n/a
120.4955	0.075	240991	keystroke_Key.backspace	Key.backspace	n/a
120.7955	0.09	241591	keystroke_Key.backspace	Key.backspace	n/a
121.0355	0.105	242071	keystroke_r	r	n/a
121.0655	0.15	242131	keystroke_e	e	n/a
121.1255	0.12	242251	keystroke_s	s	n/a
121.1855	0.09	242371	keystroke_p	p	n/a
121.2605	0.06	242521	keystroke_o	o	n/a
121.4255	0.075	242851	keystroke_n	n	n/a
121.89	0.075	243780	keystroke_s	s	n/a
122.4305	0.09	244861	keystroke_i	i	n/a
122.5505	0.1045	245101	keystroke_b	b	n/a
122.7	0.045	245400	keystroke_i	i	n/a
122.73	0.135	245460	keystroke_l	l	n/a
122.85	0.09	245700	keystroke_i	i	n/a
122.895	0.105	245790	keystroke_t	t	n/a
123.06	0.09	246120	keystroke_y	y	n/a
123.09	0.09	246180	keystroke_Key.space	Key.space	n/a
123.255	0.105	246510	keystroke_h	h	n/a
123.4505	0.09	246901	keystroke_i	i	n/a
123.5555	0.09	247111	keystroke_g	g	n/a
123.6005	0.09	247201	keystroke_h	h	n/a
123.7655	0.09	247531	keystroke_l	l	n/a
123.8405	0.09	247681	keystroke_i	i	n/a
123.9155	0.075	247831	keystroke_g	g	n/a
124.0205	0.09	248041	keystroke_h	h	n/a
124.0805	0.09	248161	keystroke_t	t	n/a
124.1255	0.09	248251	keystroke_s	s	n/a
124.1855	0.09	248371	keystroke_Key.space	Key.space	n/a
124.3355	0.09	248671	keystroke_b	b	n/a
124.4255	0.06	248851	keystroke_o	o	n/a
124.5605	0.09	249121	keystroke_o	o	n/a
124.6205	0.075	249241	keystroke_t	t	n/a
124.785	0.075	249570	keystroke_y	y	n/a
124.83	0.12	249660	keystroke_Key.space	Key.space	n/a
125.265	0.15	250530	keystroke_t	t	n/a
125.475	0.09	250950	keystroke_o	o	n/a
125.595	0.075	251190	keystroke_b	b	n/a
125.76	0.12	251520	keystroke_a	a	n/a
125.895	0.075	251790	keystroke_c	c	n/a
126.12	0.09	252240	keystroke_c	c	n/a
126.24	0.09	252480	keystroke_o	o	n/a
126.6	0.09	253200	keystroke_Key.enter	Key.enter	n/a
126.6955	8.0065	253391	prompt	n/a	holdem dana simulations comfort\n
127.3505	0.0445	254701	keystroke_h	h	n/a
127.4705	0.075	254941	keystroke_o	o	n/a
127.635	0.075	255270	keystroke_l	l	n/a
127.695	0.1355	255390	keystroke_d	d	n/a
127.755	0.1055	255510	keystroke_e	e	n/a
127.8455	0.075	255691	keystroke_m	m	n/a
127.89	0.1355	255780	keystroke_Key.space	Key.space	n/a
128.0555	0.12	256111	keystroke_d	d	n/a
128.1005	0.12	256201	keystroke_a	a	n/a
128.2205	0.075	256441	keystroke_n	n	n/a
128.2955	0.105	256591	keystroke_a	a	n/a
128.4155	0.09	256831	keystroke_Key.space	Key.space	n/a
130.11	0.075	260220	keystroke_s	s	n/a
130.14	0.075	260280	keystroke_i	i	n/a
130.275	0.1055	260550	keystroke_m	m	n/a
130.5155	0.12	261031	keystroke_u	u	n/a
130.5905	0.105	261181	keystroke_l	l	n/a
130.7105	0.075	261421	keystroke_a	a	n/a
130.7405	0.105	261481	keystroke_t	t	n/a
130.8155	0.09	261631	keystroke_i	i	n/a
130.8755	0.06	261751	keystroke_o	o	n/a
130.9955	0.105	261991	keystroke_n	n	n/a
131.0255	0.09	262051	keystroke_s	s	n/a
131.1305	0.105	262261	keystroke_Key.space	Key.space	n/a
131.2505	0.09	262501	keystroke_c	c	n/a
131.2955	0.105	262591	keystroke_o	o	n/a
131.3705	0.12	262741	keystroke_m	m	n/a
131.4755	0.105	262951	keystroke_f	f	n/a
131.7005	0.105	263401	keystroke_r	r	n/a
131.7455	0.105	263491	keystroke_t	t	n/a
132.6005	0.015	265201	keystroke_Key.backspace	Key.backspace	n/a
132.7505	0.075	265501	keystroke_Key.backspace	Key.backspace	n/a
132.9455	0.09	265891	keystroke_Key.backspace	Key.backspace	n/a
133.71	0.105	267420	keystroke_f	f	n/a
133.92	0.09	267840	keystroke_o	o	n/a
134.04	0.12	268080	keystroke_r	r	n/a
134.085	0.15	268170	keystroke_t	t	n/a
134.595	0.1055	269190	keystroke_Key.enter	Key.enter	n/a
134.7135	4.128	269427	prompt	n/a	annex giant receptor encourage\n
135.27	0.105	270540	keystroke_a	a	n/a
135.36	0.06	270720	keystroke_n	n	n/a
135.48	0.075	270960	keystroke_n	n	n/a
135.525	0.075	271050	keystroke_e	e	n/a
135.675	0.135	271350	keystroke_x	x	n/a
135.825	0.075	271650	keystroke_Key.space	Key.space	n/a
135.96	0.075	271920	keystroke_g	g	n/a
136.005	0.09	272010	keystroke_i	i	n/a
136.11	0.075	272220	keystroke_a	a	n/a
136.155	0.09	272310	keystroke_n	n	n/a
136.26	0.075	272520	keystroke_t	t	n/a
136.305	0.105	272610	keystroke_Key.space	Key.space	n/a
136.44	0.105	272880	keystroke_r	r	n/a
136.5	0.09	273000	keystroke_e	e	n/a
136.695	0.105	273390	keystroke_c	c	n/a
136.74	0.12	273480	keystroke_e	e	n/a
136.875	0.075	273750	keystroke_p	p	n/a
136.995	0.09	273990	keystroke_t	t	n/a
137.085	0.075	274170	keystroke_o	o	n/a
137.175	0.09	274350	keystroke_r	r	n/a
137.2495	0.105	274499	keystroke_Key.space	Key.space	n/a
137.4	0.105	274800	keystroke_e	e	n/a
137.5055	0.0745	275011	keystroke_n	n	n/a
138.075	0.12	276150	keystroke_c	c	n/a
138.21	0.105	276420	keystroke_o	o	n/a
138.3	0.09	276600	keystroke_u	u	n/a
138.375	0.09	276750	keystroke_r	r	n/a
138.45	0.0905	276900	keystroke_a	a	n/a
138.57	0.105	277140	keystroke_g	g	n/a
138.63	0.12	277260	keystroke_e	e	n/a
138.735	0.105	277470	keystroke_Key.enter	Key.enter	n/a
138.8445	5.9675	277689	prompt	n/a	stunning reprint antonio becoming\n
139.53	0.09	279060	keystroke_s	s	n/a
139.575	0.105	279150	keystroke_t	t	n/a
139.665	0.075	279330	keystroke_u	u	n/a
139.8295	0.061	279659	keystroke_n	n	n/a
139.9655	0.075	279931	keystroke_n	n	n/a
140.0255	0.12	280051	keystroke_i	i	n/a
140.1155	0.12	280231	keystroke_n	n	n/a
140.1455	0.075	280291	keystroke_g	g	n/a
140.2505	0.09	280501	keystroke_Key.space	Key.space	n/a
140.3555	0.09	280711	keystroke_r	r	n/a
140.4005	0.105	280801	keystroke_e	e	n/a
140.4905	0.09	280981	keystroke_p	p	n/a
140.6105	0.09	281221	keystroke_r	r	n/a
141.1805	0.075	282361	keystroke_i	i	n/a
141.33	0.105	282660	keystroke_n	n	n/a
141.45	0.105	282900	keystroke_t	t	n/a
141.6	0.12	283200	keystroke_Key.space	Key.space	n/a
141.855	0.09	283710	keystroke_a	a	n/a
141.96	0.045	283920	keystroke_n	n	n/a
142.35	0.09	284700	keystroke_t	t	n/a
142.47	0.09	284940	keystroke_o	o	n/a
143.01	0.075	286020	keystroke_n	n	n/a
143.25	0.12	286500	keystroke_i	i	n/a
143.295	0.12	286590	keystroke_o	o	n/a
143.385	0.135	286770	keystroke_Key.space	Key.space	n/a
143.775	0.09	287550	keystroke_b	b	n/a
143.955	0.1205	287910	keystroke_e	e	n/a
144.1055	0.135	288211	keystroke_c	c	n/a
144.2105	0.075	288421	keystroke_o	o	n/a
144.3155	0.12	288631	keystroke_m	m	n/a
144.4505	0.09	288901	keystroke_i	i	n/a
144.5105	0.105	289021	keystroke_n	n	n/a
144.5855	0.0895	289171	keystroke_g	g	n/a
144.72	0.09	289440	keystroke_Key.enter	Key.enter	n/a
144.8145	6.072	289629	prompt	n/a	words syndrome ivory recipients\n
145.38	0.075	290760	keystroke_a	a	n/a
146.1005	0.09	292201	keystroke_Key.backspace	Key.backspace	n/a
146.4005	0.09	292801	keystroke_w	w	n/a
146.4755	0.075	292951	keystroke_o	o	n/a
146.5505	0.09	293101	keystroke_r	r	n/a
146.7305	0.105	293461	keystroke_d	d	n/a
146.7455	0.12	293491	keystroke_s	s	n/a
146.8505	0.09	293701	keystroke_Key.space	Key.space	n/a
146.9855	0.09	293971	keystroke_s	s	n/a
147.1055	0.06	294211	keystroke_y	y	n/a
147.3155	0.06	294631	keystroke_n	n	n/a
147.3755	0.105	294751	keystroke_d	d	n/a
147.6305	0.03	295261	keystroke_r	r	n/a
147.6455	0.075	295291	keystroke_o	o	n/a
147.7055	0.135	295411	keystroke_m	m	n/a
147.7805	0.105	295561	keystroke_e	e	n/a
147.9155	0.105	295831	keystroke_Key.space	Key.space	n/a
148.1555	0.09	296311	keystroke_i	i	n/a
148.2605	0.09	296521	keystroke_v	v	n/a
148.3805	0.075	296761	keystroke_o	o	n/a
148.5305	0.105	297061	keystroke_r	r	n/a
148.6505	0.09	297301	keystroke_y	y	n/a
148.6805	0.15	297361	keystroke_Key.space	Key.space	n/a
148.8605	0.105	297721	keystroke_r	r	n/a
148.9355	0.105	297871	keystroke_e	e	n/a
149.1905	0.09	298381	keystroke_c	c	n/a
149.7305	0.09	299461	keystroke_i	i	n/a
149.9555	0.09	299911	keystroke_p	p	n/a
150.1205	0.105	300241	keystroke_i	i	n/a
150.2405	0.075	300481	keystroke_e	e	n/a
150.3305	0.045	300661	keystroke_n	n	n/a
150.4055	0.105	300811	keystroke_t	t	n/a
150.4805	0.105	300961	keystroke_s	s	n/a
150.7205	0.165	301441	keystroke_Key.enter	Key.enter	n/a
150.8895	5.592	301779	prompt	n/a	blair designed brunette isolation\n
151.6505	0.09	303301	keystroke_b	b	n/a
151.7555	0.105	303511	keystroke_l	l	n/a
151.9055	0.105	303811	keystroke_a	a	n/a
152.0405	0.105	304081	keystroke_i	i	n/a
152.1305	0.075	304261	keystroke_r	r	n/a
152.2205	0.12	304441	keystroke_Key.space	Key.space	n/a
152.7455	0.12	305491	keystroke_d	d	n/a
152.7605	0.15	305521	keystroke_e	e	n/a
152.8655	0.075	305731	keystroke_s	s	n/a
152.9105	0.09	305821	keystroke_i	i	n/a
153.0155	0.075	306031	keystroke_g	g	n/a
153.1055	0.075	306211	keystroke_n	n	n/a
153.1655	0.135	306331	keystroke_e	e	n/a
153.2095	0.121	306419	keystroke_d	d	n/a
153.2845	0.075	306569	keystroke_Key.space	Key.space	n/a
153.4805	0.09	306961	keystroke_b	b	n/a
153.6005	0.105	307201	keystroke_r	r	n/a
153.6905	0.074	307381	keystroke_u	u	n/a
153.8405	0.105	307681	keystroke_n	n	n/a
153.9745	0.091	307949	keystroke_e	e	n/a
154.1245	0.091	308249	keystroke_t	t	n/a
154.2905	0.12	308581	keystroke_t	t	n/a
154.3505	0.134	308701	keystroke_e	e	n/a
154.4545	0.105	308909	keystroke_Key.space	Key.space	n/a
154.7245	0.091	309449	keystroke_i	i	n/a
154.7845	0.1055	309569	keystroke_s	s	n/a
154.9355	0.045	309871	keystroke_o	o	n/a
155.0855	0.09	310171	keystroke_l	l	n/a
155.1905	0.0895	310381	keystroke_a	a	n/a
155.2205	0.12	310441	keystroke_t	t	n/a
155.3105	0.1045	310621	keystroke_i	i	n/a
155.37	0.09	310740	keystroke_o	o	n/a
155.5655	0.075	311131	keystroke_n	n	n/a
156.3755	0.105	312751	keystroke_Key.enter	Key.enter	n/a
156.485	4.3915	312970	prompt	n/a	goal thinkpad maiden showed\n
157.1255	0.09	314251	keystroke_g	g	n/a
157.1855	0.09	314371	keystroke_o	o	n/a
157.3055	0.105	314611	keystroke_a	a	n/a
157.3805	0.09	314761	keystroke_l	l	n/a
157.4405	0.105	314881	keystroke_Key.space	Key.space	n/a
157.5905	0.059	315181	keystroke_t	t	n/a
157.6205	0.09	315241	keystroke_h	h	n/a
157.6805	0.06	315361	keystroke_i	i	n/a
157.8005	0.09	315601	keystroke_n	n	n/a
157.8155	0.09	315631	keystroke_k	k	n/a
158.0105	0.075	316021	keystroke_p	p	n/a
158.1005	0.12	316201	keystroke_a	a	n/a
158.1305	0.12	316261	keystroke_d	d	n/a
158.2055	0.09	316411	keystroke_Key.space	Key.space	n/a
158.3995	0.091	316799	keystroke_m	m	n/a
158.4745	0.136	316949	keystroke_a	a	n/a
158.5955	0.074	317191	keystroke_d	d	n/a
159.4195	0.09	318839	keystroke_Key.backspace	Key.backspace	n/a
159.7045	0.09	319409	keystroke_i	i	n/a
159.8245	0.136	319649	keystroke_d	d	n/a
159.8995	0.12	319799	keystroke_e	e	n/a
159.9745	0.091	319949	keystroke_n	n	n/a
160.0205	0.149	320041	keystroke_Key.space	Key.space	n/a
160.2445	0.09	320489	keystroke_s	s	n/a
160.3045	0.0755	320609	keystroke_h	h	n/a
160.41	0.09	320820	keystroke_o	o	n/a
160.455	0.12	320910	keystroke_w	w	n/a
160.515	0.075	321030	keystroke_e	e	n/a
160.68	0.12	321360	keystroke_d	d	n/a
160.785	0.09	321570	keystroke_Key.enter	Key.enter	n/a
160.88	5.3515	321760	prompt	n/a	telephony connections errors pointing\n
161.6855	0.105	323371	keystroke_t	t	n/a
161.7605	0.09	323521	keystroke_e	e	n/a
161.8655	0.06	323731	keystroke_l	l	n/a
161.9405	0.09	323881	keystroke_e	e	n/a
162.0605	0.09	324121	keystroke_p	p	n/a
162.2105	0.105	324421	keystroke_h	h	n/a
162.3005	0.075	324601	keystroke_o	o	n/a
162.4205	0.09	324841	keystroke_n	n	n/a
162.4655	0.09	324931	keystroke_y	y	n/a
162.5855	0.105	325171	keystroke_Key.space	Key.space	n/a
162.8705	0.09	325741	keystroke_c	c	n/a
162.9605	0.075	325921	keystroke_o	o	n/a
163.11	0.06	326220	keystroke_n	n	n/a
163.23	0.075	326460	keystroke_n	n	n/a
163.305	0.12	326610	keystroke_e	e	n/a
163.335	0.12	326670	keystroke_c	c	n/a
163.5895	0.09	327179	keystroke_t	t	n/a
163.6505	0.105	327301	keystroke_i	i	n/a
163.7105	0.059	327421	keystroke_o	o	n/a
163.8305	0.09	327661	keystroke_n	n	n/a
163.8905	0.0895	327781	keystroke_s	s	n/a
163.965	0.105	327930	keystroke_Key.space	Key.space	n/a
164.085	0.105	328170	keystroke_e	e	n/a
164.13	0.09	328260	keystroke_r	r	n/a
164.28	0.09	328560	keystroke_r	r	n/a
164.386	0.104	328772	keystroke_o	o	n/a
164.475	0.105	328950	keystroke_r	r	n/a
164.505	0.105	329010	keystroke_s	s	n/a
164.595	0.09	329190	keystroke_Key.space	Key.space	n/a
164.775	0.075	329550	keystroke_p	p	n/a
164.985	0.075	329970	keystroke_o	o	n/a
165.165	0.075	330330	keystroke_i	i	n/a
165.27	0.09	330540	keystroke_n	n	n/a
165.361	0.104	330722	keystroke_t	t	n/a
165.51	0.105	331020	keystroke_i	i	n/a
165.57	0.12	331140	keystroke_n	n	n/a
165.66	0.105	331320	keystroke_g	g	n/a
166.14	0.09	332280	keystroke_Key.enter	Key.enter	n/a
166.2345	4.482	332469	prompt	n/a	induction requested merge partition\n
166.9205	0.075	333841	keystroke_i	i	n/a
167.04	0.09	334080	keystroke_n	n	n/a
167.115	0.0905	334230	keystroke_d	d	n/a
167.2505	0.09	334501	keystroke_u	u	n/a
167.3255	0.06	334651	keystroke_c	c	n/a
167.5205	0.075	335041	keystroke_t	t	n/a
167.5655	0.074	335131	keystroke_i	i	n/a
167.6105	0.075	335221	keystroke_o	o	n/a
167.7305	0.0745	335461	keystroke_n	n	n/a
167.775	0.135	335550	keystroke_Key.space	Key.space	n/a
167.835	0.135	335670	keystroke_r	r	n/a
167.895	0.15	335790	keystroke_e	e	n/a
168	0.12	336000	keystroke_q	q	n/a
168.135	0.09	336270	keystroke_u	u	n/a
168.21	0.12	336420	keystroke_e	e	n/a
168.315	0.075	336630	keystroke_s	s	n/a
168.45	0.1055	336900	keystroke_t	t	n/a
168.525	0.1805	337050	keystroke_e	e	n/a
168.6455	0.1195	337291	keystroke_d	d	n/a
168.72	0.075	337440	keystroke_Key.space	Key.space	n/a
168.84	0.105	337680	keystroke_m	m	n/a
168.885	0.105	337770	keystroke_e	e	n/a
168.93	0.09	337860	keystroke_r	r	n/a
169.095	0.09	338190	keystroke_g	g	n/a
169.14	0.105	338280	keystroke_e	e	n/a
169.2	0.09	338400	keystroke_Key.space	Key.space	n/a
169.335	0.12	338670	keystroke_p	p	n/a
169.47	0.12	338940	keystroke_a	a	n/a
169.53	0.105	339060	keystroke_r	r	n/a
169.77	0.105	339540	keystroke_t	t	n/a
169.9055	0.12	339811	keystroke_i	i	n/a
170.085	0.0905	340170	keystroke_t	t	n/a
170.145	0.135	340290	keystroke_i	i	n/a
170.2355	0.0895	340471	keystroke_o	o	n/a
170.4155	0.0745	340831	keystroke_n	n	n/a
170.625	0.09	341250	keystroke_Key.enter	Key.enter	n/a
170.7195	7.872	341439	prompt	n/a	fabric extensions communication maintenance\n
171.42	0.12	342840	keystroke_f	f	n/a
171.51	0.09	343020	keystroke_a	a	n/a
171.645	0.09	343290	keystroke_b	b	n/a
171.825	0.09	343650	keystroke_r	r	n/a
171.916	0.104	343832	keystroke_i	i	n/a
172.005	0.12	344010	keystroke_c	c	n/a
172.095	0.12	344190	keystroke_Key.space	Key.space	n/a
172.26	0.06	344520	keystroke_e	e	n/a
172.44	0.09	344880	keystroke_x	x	n/a
172.74	0.09	345480	keystroke_t	t	n/a
172.785	0.105	345570	keystroke_e	e	n/a
172.875	0.0905	345750	keystroke_n	n	n/a
172.9805	0.09	345961	keystroke_s	s	n/a
173.085	0.1055	346170	keystroke_i	i	n/a
173.145	0.09	346290	keystroke_o	o	n/a
173.2805	0.09	346561	keystroke_n	n	n/a
173.355	0.09	346710	keystroke_s	s	n/a
173.43	0.1055	346860	keystroke_Key.space	Key.space	n/a
173.565	0.09	347130	keystroke_c	c	n/a
173.625	0.075	347250	keystroke_o	o	n/a
173.76	0.06	347520	keystroke_m	m	n/a
173.88	0.1055	347760	keystroke_m	m	n/a
174	0.105	348000	keystroke_u	u	n/a
174.09	0.105	348180	keystroke_n	n	n/a
174.225	0.03	348450	keystroke_c	c	n/a
175.23	0.075	350460	keystroke_Key.backspace	Key.backspace	n/a
175.56	0.09	351120	keystroke_i	i	n/a
175.635	0.12	351270	keystroke_c	c	n/a
175.665	0.105	351330	keystroke_a	a	n/a
175.875	0.105	351750	keystroke_t	t	n/a
175.935	0.09	351870	keystroke_i	i	n/a
175.995	0.06	351990	keystroke_o	o	n/a
176.13	0.06	352260	keystroke_n	n	n/a
176.16	0.105	352320	keystroke_Key.space	Key.space	n/a
176.31	0.12	352620	keystroke_m	m	n/a
176.415	0.105	352830	keystroke_a	a	n/a
176.505	0.105	353010	keystroke_i	i	n/a
176.58	0.105	353160	keystroke_n	n	n/a
176.7	0.105	353400	keystroke_t	t	n/a
176.775	0.12	353550	keystroke_e	e	n/a
176.896	0.074	353792	keystroke_n	n	n/a
177.615	0.09	355230	keystroke_a	a	n/a
177.706	0.104	355412	keystroke_n	n	n/a
177.795	0.135	355590	keystroke_c	c	n/a
177.87	0.135	355740	keystroke_e	e	n/a
178.485	0.105	356970	keystroke_Key.enter	Key.enter	n/a
178.5945	4.8125	357189	prompt	n/a	rewards thereof brazil bass\n
179.13	0.075	358260	keystroke_e	e	n/a
179.775	0.075	359550	keystroke_Key.backspace	Key.backspace	n/a
179.94	0.09	359880	keystroke_r	r	n/a
179.985	0.09	359970	keystroke_e	e	n/a
180.165	0.105	360330	keystroke_w	w	n/a
180.21	0.12	360420	keystroke_a	a	n/a
180.285	0.075	360570	keystroke_r	r	n/a
180.45	0.12	360900	keystroke_d	d	n/a
180.48	0.12	360960	keystroke_s	s	n/a
180.585	0.09	361170	keystroke_Key.space	Key.space	n/a
180.735	0.09	361470	keystroke_t	t	n/a
180.78	0.12	361560	keystroke_h	h	n/a
180.915	0.105	361830	keystroke_e	e	n/a
181.005	0.12	362010	keystroke_r	r	n/a
181.065	0.105	362130	keystroke_e	e	n/a
181.275	0.09	362550	keystroke_o	o	n/a
181.365	0.105	362730	keystroke_f	f	n/a
181.455	0.105	362910	keystroke_Key.space	Key.space	n/a
181.665	0.09	363330	keystroke_b	b	n/a
181.695	0.105	363390	keystroke_r	r	n/a
181.77	0.09	363540	keystroke_a	a	n/a
182.04	0.09	364080	keystroke_z	z	n/a
182.115	0.1195	364230	keystroke_i	i	n/a
182.1905	0.09	364381	keystroke_l	l	n/a
182.2195	0.151	364439	keystroke_Key.space	Key.space	n/a
182.5195	0.106	365039	keystroke_b	b	n/a
182.94	0.105	365880	keystroke_a	a	n/a
183	0.105	366000	keystroke_s	s	n/a
183.165	0.105	366330	keystroke_s	s	n/a
183.2995	0.105	366599	keystroke_Key.enter	Key.enter	n/a
183.412	4.6	366824	prompt	n/a	performance attraction plastic garden\n
183.9745	0.106	367949	keystroke_p	p	n/a
184.0495	0.1355	368099	keystroke_e	e	n/a
184.125	0.075	368250	keystroke_r	r	n/a
184.305	0.105	368610	keystroke_f	f	n/a
184.395	0.09	368790	keystroke_o	o	n/a
184.53	0.105	369060	keystroke_r	r	n/a
184.65	0.09	369300	keystroke_m	m	n/a
184.755	0.09	369510	keystroke_a	a	n/a
184.86	0.09	369720	keystroke_n	n	n/a
184.935	0.165	369870	keystroke_c	c	n/a
185.025	0.135	370050	keystroke_e	e	n/a
185.115	0.12	370230	keystroke_Key.space	Key.space	n/a
185.355	0.09	370710	keystroke_a	a	n/a
185.46	0.075	370920	keystroke_t	t	n/a
185.5805	0.075	371161	keystroke_t	t	n/a
185.7305	0.075	371461	keystroke_r	r	n/a
185.7605	0.12	371521	keystroke_a	a	n/a
185.9105	0.09	371821	keystroke_c	c	n/a
186.1205	0.09	372241	keystroke_t	t	n/a
186.1805	0.089	372361	keystroke_i	i	n/a
186.2255	0.059	372451	keystroke_o	o	n/a
186.3595	0.076	372719	keystroke_n	n	n/a
186.4045	0.121	372809	keystroke_Key.space	Key.space	n/a
186.5855	0.105	373171	keystroke_p	p	n/a
186.6445	0.135	373289	keystroke_l	l	n/a
186.6755	0.135	373351	keystroke_a	a	n/a
186.7055	0.15	373411	keystroke_s	s	n/a
186.7955	0.09	373591	keystroke_t	t	n/a
186.8995	0.106	373799	keystroke_i	i	n/a
187.0195	0.076	374039	keystroke_c	c	n/a
187.0805	0.104	374161	keystroke_Key.space	Key.space	n/a
187.2305	0.09	374461	keystroke_g	g	n/a
187.3045	0.121	374609	keystroke_a	a	n/a
187.4105	0.075	374821	keystroke_r	r	n/a
187.5605	0.1345	375121	keystroke_d	d	n/a
187.605	0.12	375210	keystroke_e	e	n/a
187.68	0.09	375360	keystroke_n	n	n/a
187.92	0.09	375840	keystroke_Key.enter	Key.enter	n/a
188.015	5.3215	376030	prompt	n/a	grateful cardiac earliest dancing\n
188.64	0.09	377280	keystroke_g	g	n/a
188.805	0.105	377610	keystroke_r	r	n/a
188.865	0.09	377730	keystroke_a	a	n/a
189.015	0.09	378030	keystroke_t	t	n/a
189.06	0.09	378120	keystroke_e	e	n/a
189.18	0.135	378360	keystroke_f	f	n/a
189.24	0.105	378480	keystroke_u	u	n/a
189.3	0.09	378600	keystroke_l	l	n/a
189.33	0.135	378660	keystroke_Key.space	Key.space	n/a
189.51	0.12	379020	keystroke_c	c	n/a
189.615	0.12	379230	keystroke_a	a	n/a
189.75	0.06	379500	keystroke_r	r	n/a
189.9	0.09	379800	keystroke_d	d	n/a
189.975	0.09	379950	keystroke_i	i	n/a
190.05	0.105	380100	keystroke_a	a	n/a
190.6505	0.1045	381301	keystroke_Key.backspace	Key.backspace	n/a
191.22	0.105	382440	keystroke_a	a	n/a
191.46	0.105	382920	keystroke_c	c	n/a
191.58	0.1345	383160	keystroke_Key.space	Key.space	n/a
191.7595	0.105	383519	keystroke_e	e	n/a
191.8195	0.15	383639	keystroke_a	a	n/a
191.9545	0.09	383909	keystroke_r	r	n/a
192.0145	0.106	384029	keystroke_l	l	n/a
192.0895	0.121	384179	keystroke_i	i	n/a
192.1355	0.149	384271	keystroke_e	e	n/a
192.1945	0.075	384389	keystroke_s	s	n/a
192.2545	0.09	384509	keystroke_t	t	n/a
192.3295	0.135	384659	keystroke_Key.space	Key.space	n/a
192.6295	0.09	385259	keystroke_d	d	n/a
192.6595	0.12	385319	keystroke_a	a	n/a
192.7805	0.09	385561	keystroke_n	n	n/a
192.8845	0.09	385769	keystroke_c	c	n/a
192.9445	0.105	385889	keystroke_i	i	n/a
193.0045	0.121	386009	keystroke_n	n	n/a
193.0955	0.09	386191	keystroke_g	g	n/a
193.2455	0.09	386491	keystroke_Key.enter	Key.enter	n/a
193.3395	4.3175	386679	prompt	n/a	expand situations smart footage\n
193.8905	0.059	387781	keystroke_e	e	n/a
194.0395	0.106	388079	keystroke_x	x	n/a
194.1155	0.089	388231	keystroke_p	p	n/a
194.1905	0.089	388381	keystroke_a	a	n/a
194.2945	0.076	388589	keystroke_n	n	n/a
194.3705	0.1045	388741	keystroke_d	d	n/a
194.4295	0.1055	388859	keystroke_Key.space	Key.space	n/a
194.67	0.105	389340	keystroke_s	s	n/a
194.76	0.105	389520	keystroke_i	i	n/a
194.8805	0.105	389761	keystroke_t	t	n/a
195.0305	0.09	390061	keystroke_u	u	n/a
195.1355	0.105	390271	keystroke_a	a	n/a
195.1955	0.105	390391	keystroke_t	t	n/a
195.2705	0.075	390541	keystroke_i	i	n/a
195.3155	0.075	390631	keystroke_o	o	n/a
195.4505	0.12	390901	keystroke_n	n	n/a
195.5855	0.105	391171	keystroke_s	s	n/a
196.1555	0.1045	392311	keystroke_Key.space	Key.space	n/a
196.335	0.075	392670	keystroke_s	s	n/a
196.44	0.09	392880	keystroke_m	m	n/a
196.5	0.105	393000	keystroke_a	a	n/a
196.56	0.06	393120	keystroke_r	r	n/a
196.71	0.075	393420	keystroke_t	t	n/a
196.77	0.075	393540	keystroke_Key.space	Key.space	n/a
196.905	0.075	393810	keystroke_f	f	n/a
196.981	0.074	393962	keystroke_o	o	n/a
197.13	0.0905	394260	keystroke_o	o	n/a
197.1905	0.105	394381	keystroke_t	t	n/a
197.2655	0.105	394531	keystroke_a	a	n/a
197.4005	0.09	394801	keystroke_g	g	n/a
197.4455	0.105	394891	keystroke_e	e	n/a
197.5505	0.105	395101	keystroke_Key.enter	Key.enter	n/a
197.662	3.8645	395324	prompt	n/a	something simply translated toxic\n
198.3155	0.09	396631	keystroke_s	s	n/a
198.3605	0.105	396721	keystroke_o	o	n/a
198.4205	0.105	396841	keystroke_m	m	n/a
198.4955	0.09	396991	keystroke_e	e	n/a
198.5405	0.105	397081	keystroke_t	t	n/a
198.6305	0.06	397261	keystroke_h	h	n/a
198.6755	0.105	397351	keystroke_i	i	n/a
198.7655	0.12	397531	keystroke_n	n	n/a
198.8105	0.075	397621	keystroke_g	g	n/a
198.9005	0.075	397801	keystroke_Key.space	Key.space	n/a
198.9605	0.105	397921	keystroke_s	s	n/a
199.0205	0.105	398041	keystroke_i	i	n/a
199.0805	0.105	398161	keystroke_m	m	n/a
199.2605	0.09	398521	keystroke_p	p	n/a
199.2755	0.12	398551	keystroke_l	l	n/a
199.3805	0.09	398761	keystroke_y	y	n/a
199.4555	0.135	398911	keystroke_Key.space	Key.space	n/a
199.6055	0.09	399211	keystroke_t	t	n/a
199.7855	0.105	399571	keystroke_r	r	n/a
199.8305	0.09	399661	keystroke_a	a	n/a
199.9055	0.105	399811	keystroke_n	n	n/a
200.0255	0.105	400051	keystroke_s	s	n/a
200.1155	0.09	400231	keystroke_l	l	n/a
200.1905	0.105	400381	keystroke_a	a	n/a
200.2805	0.075	400561	keystroke_t	t	n/a
200.3405	0.165	400681	keystroke_e	e	n/a
200.4455	0.135	400891	keystroke_d	d	n/a
200.5355	0.09	401071	keystroke_Key.space	Key.space	n/a
200.7005	0.075	401401	keystroke_t	t	n/a
200.7605	0.105	401521	keystroke_o	o	n/a
200.8805	0.12	401761	keystroke_x	x	n/a
200.9855	0.09	401971	keystroke_i	i	n/a
201.0905	0.09	402181	keystroke_c	c	n/a
201.4205	0.105	402841	keystroke_Key.enter	Key.enter	n/a
201.53	6.387	403060	prompt	n/a	they'll china cincinnati earliest\n
202.11	0.105	404220	keystroke_t	t	n/a
202.185	0.09	404370	keystroke_h	h	n/a
202.26	0.15	404520	keystroke_e	e	n/a
202.35	0.09	404700	keystroke_y	y	n/a
202.47	0.075	404940	keystroke_'	'	n/a
202.71	0.075	405420	keystroke_l	l	n/a
202.845	0.105	405690	keystroke_l	l	n/a
202.92	0.09	405840	keystroke_Key.space	Key.space	n/a
202.995	0.135	405990	keystroke_c	c	n/a
203.1005	0.0895	406201	keystroke_h	h	n/a
203.175	0.0905	406350	keystroke_i	i	n/a
203.2805	0.09	406561	keystroke_n	n	n/a
203.3255	0.09	406651	keystroke_a	a	n/a
203.4	0.105	406800	keystroke_Key.space	Key.space	n/a
203.5655	0.105	407131	keystroke_c	c	n/a
203.685	0.075	407370	keystroke_i	i	n/a
203.8655	0.0745	407731	keystroke_n	n	n/a
204.015	0.09	408030	keystroke_c	c	n/a
204.12	0.075	408240	keystroke_i	i	n/a
204.285	0.06	408570	keystroke_n	n	n/a
204.405	0.09	408810	keystroke_n	n	n/a
204.465	0.105	408930	keystroke_a	a	n/a
204.525	0.105	409050	keystroke_t	t	n/a
204.6	0.09	409200	keystroke_i	i	n/a
204.645	0.12	409290	keystroke_Key.space	Key.space	n/a
205.455	0.105	410910	keystroke_e	e	n/a
205.5	0.165	411000	keystroke_a	a	n/a
205.65	0.105	411300	keystroke_r	r	n/a
205.965	0.075	411930	keystroke_l	l	n/a
206.025	0.105	412050	keystroke_i	i	n/a
206.1	0.1355	412200	keystroke_e	e	n/a
206.145	0.0755	412290	keystroke_s	s	n/a
206.175	0.1355	412350	keystroke_t	t	n/a
207.81	0.105	415620	keystroke_Key.enter	Key.enter	n/a
207.92	7.977	415840	prompt	n/a	recreational hyundai celebrities advocacy\n
208.635	0.12	417270	keystroke_r	r	n/a
208.71	0.09	417420	keystroke_e	e	n/a
208.875	0.105	417750	keystroke_c	c	n/a
209.085	0.075	418170	keystroke_r	r	n/a
209.22	0.09	418440	keystroke_e	e	n/a
209.265	0.135	418530	keystroke_a	a	n/a
209.4	0.09	418800	keystroke_t	t	n/a
209.445	0.09	418890	keystroke_i	i	n/a
209.505	0.06	419010	keystroke_o	o	n/a
209.625	0.075	419250	keystroke_n	n	n/a
209.685	0.09	419370	keystroke_a	a	n/a
209.76	0.09	419520	keystroke_l	l	n/a
209.805	0.12	419610	keystroke_Key.space	Key.space	n/a
210.255	0.105	420510	keystroke_h	h	n/a
210.465	0.06	420930	keystroke_y	y	n/a
210.555	0.075	421110	keystroke_u	u	n/a
210.69	0.105	421380	keystroke_n	n	n/a
211.32	0.105	422640	keystroke_d	d	n/a
211.365	0.12	422730	keystroke_a	a	n/a
211.47	0.0905	422940	keystroke_i	i	n/a
211.5	0.135	423000	keystroke_Key.space	Key.space	n/a
211.74	0.135	423480	keystroke_c	c	n/a
211.83	0.12	423660	keystroke_e	e	n/a
211.935	0.09	423870	keystroke_l	l	n/a
212.34	0.09	424680	keystroke_e	e	n/a
212.7	0.105	425400	keystroke_b	b	n/a
213.015	0.09	426030	keystroke_r	r	n/a
213.12	0.12	426240	keystroke_i	i	n/a
213.225	0.09	426450	keystroke_t	t	n/a
213.33	0.09	426660	keystroke_i	i	n/a
213.39	0.135	426780	keystroke_e	e	n/a
213.435	0.12	426870	keystroke_s	s	n/a
213.54	0.09	427080	keystroke_Key.space	Key.space	n/a
213.66	0.135	427320	keystroke_a	a	n/a
213.78	0.105	427560	keystroke_d	d	n/a
214.02	0.09	428040	keystroke_v	v	n/a
214.65	0.09	429300	keystroke_o	o	n/a
214.905	0.105	429810	keystroke_c	c	n/a
214.965	0.135	429930	keystroke_a	a	n/a
215.19	0.1205	430380	keystroke_c	c	n/a
215.3555	0.105	430711	keystroke_y	y	n/a
215.805	0.09	431610	keystroke_Key.enter	Key.enter	n/a
215.902	7.1195	431804	prompt	n/a	extended montgomery fragrance treasurer\n
216.6	0.075	433200	keystroke_e	e	n/a
216.765	0.12	433530	keystroke_x	x	n/a
217.02	0.09	434040	keystroke_t	t	n/a
217.08	0.105	434160	keystroke_e	e	n/a
217.2	0.12	434400	keystroke_n	n	n/a
217.275	0.075	434550	keystroke_d	d	n/a
217.351	0.119	434702	keystroke_e	e	n/a
217.425	0.12	434850	keystroke_d	d	n/a
217.485	0.075	434970	keystroke_Key.space	Key.space	n/a
217.59	0.12	435180	keystroke_m	m	n/a
217.665	0.105	435330	keystroke_o	o	n/a
217.815	0.09	435630	keystroke_n	n	n/a
218.145	0.09	436290	keystroke_t	t	n/a
218.43	0.105	436860	keystroke_g	g	n/a
218.55	0.06	437100	keystroke_o	o	n/a
218.64	0.09	437280	keystroke_m	m	n/a
218.715	0.105	437430	keystroke_e	e	n/a
218.76	0.105	437520	keystroke_r	r	n/a
218.91	0.0755	437820	keystroke_y	y	n/a
218.94	0.1505	437880	keystroke_Key.space	Key.space	n/a
219.7055	0.075	439411	keystroke_f	f	n/a
219.9005	0.105	439801	keystroke_r	r	n/a
219.9755	0.12	439951	keystroke_a	a	n/a
220.1555	0.105	440311	keystroke_g	g	n/a
220.335	0.12	440670	keystroke_r	r	n/a
220.395	0.105	440790	keystroke_a	a	n/a
220.501	0.089	441002	keystroke_n	n	n/a
220.575	0.165	441150	keystroke_c	c	n/a
220.665	0.15	441330	keystroke_e	e	n/a
220.755	0.105	441510	keystroke_Key.space	Key.space	n/a
220.92	0.09	441840	keystroke_t	t	n/a
221.115	0.075	442230	keystroke_r	r	n/a
221.55	0.09	443100	keystroke_e	e	n/a
221.61	0.165	443220	keystroke_a	a	n/a
221.73	0.105	443460	keystroke_s	s	n/a
222.2395	0.0905	444479	keystroke_u	u	n/a
222.3745	0.105	444749	keystroke_r	r	n/a
222.4645	0.15	444929	keystroke_e	e	n/a
222.57	0.1205	445140	keystroke_r	r	n/a
222.855	0.165	445710	keystroke_Key.enter	Key.enter	n/a
223.0255	4.541	446051	prompt	n/a	strong reel functional newman\n
223.71	0.135	447420	keystroke_s	s	n/a
223.8	0.105	447600	keystroke_t	t	n/a
223.86	0.105	447720	keystroke_r	r	n/a
223.92	0.045	447840	keystroke_o	o	n/a
223.995	0.105	447990	keystroke_n	n	n/a
224.055	0.075	448110	keystroke_g	g	n/a
224.145	0.1045	448290	keystroke_Key.space	Key.space	n/a
224.2355	0.075	448471	keystroke_r	r	n/a
224.2655	0.06	448531	keystroke_e	e	n/a
224.3995	0.105	448799	keystroke_e	e	n/a
224.4595	0.106	448919	keystroke_l	l	n/a
224.5195	0.12	449039	keystroke_Key.space	Key.space	n/a
224.8345	0.09	449669	keystroke_f	f	n/a
224.9095	0.06	449819	keystroke_u	u	n/a
225.0145	0.09	450029	keystroke_n	n	n/a
225.0745	0.075	450149	keystroke_c	c	n/a
225.2695	0.075	450539	keystroke_t	t	n/a
225.2995	0.09	450599	keystroke_i	i	n/a
225.3595	0.06	450719	keystroke_o	o	n/a
225.4955	0.075	450991	keystroke_n	n	n/a
225.5395	0.105	451079	keystroke_Key.space	Key.space	n/a
226.3195	0.09	452639	keystroke_Key.backspace	Key.backspace	n/a
226.5155	0.105	453031	keystroke_a	a	n/a
226.6045	0.09	453209	keystroke_l	l	n/a
226.6645	0.09	453329	keystroke_Key.space	Key.space	n/a
226.8745	0.061	453749	keystroke_n	n	n/a
226.9195	0.12	453839	keystroke_e	e	n/a
226.9795	0.106	453959	keystroke_w	w	n/a
227.0695	0.09	454139	keystroke_m	m	n/a
227.1605	0.104	454321	keystroke_a	a	n/a
227.2345	0.075	454469	keystroke_n	n	n/a
227.4745	0.09	454949	keystroke_Key.enter	Key.enter	n/a
227.5705	3.9715	455141	prompt	n/a	requirement bufing manga oxide\n
228.21	0.12	456420	keystroke_r	r	n/a
228.27	0.0895	456540	keystroke_e	e	n/a
228.3745	0.135	456749	keystroke_q	q	n/a
228.4945	0.105	456989	keystroke_u	u	n/a
228.54	0.0745	457080	keystroke_i	i	n/a
228.5855	0.104	457171	keystroke_r	r	n/a
228.6295	0.09	457259	keystroke_e	e	n/a
228.7345	0.06	457469	keystroke_m	m	n/a
228.8095	0.09	457619	keystroke_e	e	n/a
228.8845	0.075	457769	keystroke_n	n	n/a
228.9745	0.076	457949	keystroke_t	t	n/a
229.0045	0.075	458009	keystroke_Key.space	Key.space	n/a
229.1395	0.09	458279	keystroke_b	b	n/a
229.1995	0.09	458399	keystroke_u	u	n/a
229.2745	0.105	458549	keystroke_f	f	n/a
229.5905	0.12	459181	keystroke_i	i	n/a
229.6505	0.135	459301	keystroke_n	n	n/a
229.7405	0.09	459481	keystroke_g	g	n/a
229.8155	0.09	459631	keystroke_Key.space	Key.space	n/a
229.9355	0.105	459871	keystroke_m	m	n/a
230.0105	0.09	460021	keystroke_a	a	n/a
230.1305	0.09	460261	keystroke_n	n	n/a
230.2055	0.12	460411	keystroke_g	g	n/a
230.3405	0.105	460681	keystroke_a	a	n/a
230.7755	0.075	461551	keystroke_Key.space	Key.space	n/a
230.8955	0.12	461791	keystroke_o	o	n/a
231.0005	0.135	462001	keystroke_x	x	n/a
231.1355	0.09	462271	keystroke_i	i	n/a
231.2255	0.135	462451	keystroke_d	d	n/a
231.3005	0.12	462601	keystroke_e	e	n/a
231.4505	0.09	462901	keystroke_Key.enter	Key.enter	n/a
231.545	5.8465	463090	prompt	n/a	prairie fresh base flying\n
232.5455	0.09	465091	keystroke_p	p	n/a
232.7105	0.135	465421	keystroke_r	r	n/a
232.7855	0.105	465571	keystroke_a	a	n/a
233.2055	0.09	466411	keystroke_i	i	n/a
233.3705	0.15	466741	keystroke_r	r	n/a
235.2305	0.0895	470461	keystroke_i	i	n/a
235.3505	0.09	470701	keystroke_e	e	n/a
235.5755	0.09	471151	keystroke_Key.space	Key.space	n/a
235.8305	0.105	471661	keystroke_f	f	n/a
236.0105	0.12	472021	keystroke_r	r	n/a
236.0405	0.15	472081	keystroke_e	e	n/a
236.1005	0.134	472201	keystroke_s	s	n/a
236.1605	0.09	472321	keystroke_h	h	n/a
236.2355	0.09	472471	keystroke_Key.space	Key.space	n/a
236.4305	0.075	472861	keystroke_b	b	n/a
236.4755	0.135	472951	keystroke_a	a	n/a
236.5355	0.12	473071	keystroke_s	s	n/a
236.5955	0.104	473191	keystroke_e	e	n/a
236.6405	0.104	473281	keystroke_Key.space	Key.space	n/a
236.7755	0.105	473551	keystroke_f	f	n/a
236.8655	0.09	473731	keystroke_l	l	n/a
237.0005	0.074	474001	keystroke_y	y	n/a
237.0605	0.105	474121	keystroke_i	i	n/a
237.1045	0.121	474209	keystroke_n	n	n/a
237.1795	0.091	474359	keystroke_g	g	n/a
237.2995	0.09	474599	keystroke_Key.enter	Key.enter	n/a
237.397	4.7195	474794	prompt	n/a	winners meaningful gary ecological\n
238.05	0.045	476100	keystroke_w	w	n/a
238.095	0.045	476190	keystroke_i	i	n/a
238.2	0.0605	476400	keystroke_n	n	n/a
238.32	0.09	476640	keystroke_n	n	n/a
238.365	0.1655	476730	keystroke_e	e	n/a
238.3955	0.105	476791	keystroke_r	r	n/a
238.4705	0.12	476941	keystroke_s	s	n/a
238.5155	0.09	477031	keystroke_Key.space	Key.space	n/a
238.6505	0.1195	477301	keystroke_m	m	n/a
238.7105	0.1045	477421	keystroke_e	e	n/a
238.755	0.105	477510	keystroke_a	a	n/a
238.875	0.06	477750	keystroke_n	n	n/a
239.2055	0.105	478411	keystroke_i	i	n/a
239.3855	0.104	478771	keystroke_n	n	n/a
239.4745	0.091	478949	keystroke_g	g	n/a
239.6855	0.12	479371	keystroke_f	f	n/a
239.7755	0.105	479551	keystroke_u	u	n/a
239.8355	0.12	479671	keystroke_l	l	n/a
239.8955	0.12	479791	keystroke_Key.space	Key.space	n/a
240.2405	0.075	480481	keystroke_g	g	n/a
240.3755	0.12	480751	keystroke_a	a	n/a
240.435	0.1205	480870	keystroke_r	r	n/a
240.5105	0.09	481021	keystroke_y	y	n/a
240.5555	0.12	481111	keystroke_Key.space	Key.space	n/a
240.7205	0.105	481441	keystroke_e	e	n/a
240.9005	0.12	481801	keystroke_c	c	n/a
240.9605	0.075	481921	keystroke_o	o	n/a
241.1105	0.06	482221	keystroke_l	l	n/a
241.2605	0.09	482521	keystroke_o	o	n/a
241.3655	0.06	482731	keystroke_g	g	n/a
241.4555	0.075	482911	keystroke_i	i	n/a
241.5455	0.105	483091	keystroke_c	c	n/a
241.5905	0.12	483181	keystroke_a	a	n/a
241.6505	0.075	483301	keystroke_l	l	n/a
242.0105	0.105	484021	keystroke_Key.enter	Key.enter	n/a
242.12	3.3115	484240	prompt	n/a	tires chart prevention clear\n
242.8055	0.06	485611	keystroke_t	t	n/a
242.8655	0.105	485731	keystroke_i	i	n/a
242.9405	0.12	485881	keystroke_r	r	n/a
242.9855	0.135	485971	keystroke_e	e	n/a
243.0155	0.135	486031	keystroke_s	s	n/a
243.0905	0.105	486181	keystroke_Key.space	Key.space	n/a
243.2405	0.1045	486481	keystroke_c	c	n/a
243.3005	0.1045	486601	keystroke_h	h	n/a
243.39	0.105	486780	keystroke_a	a	n/a
243.465	0.06	486930	keystroke_r	r	n/a
243.6	0.09	487200	keystroke_t	t	n/a
243.675	0.09	487350	keystroke_Key.space	Key.space	n/a
243.825	0.105	487650	keystroke_p	p	n/a
243.945	0.09	487890	keystroke_r	r	n/a
244.005	0.105	488010	keystroke_e	e	n/a
244.17	0.09	488340	keystroke_v	v	n/a
244.23	0.12	488460	keystroke_e	e	n/a
244.38	0.09	488760	keystroke_n	n	n/a
244.455	0.09	488910	keystroke_t	t	n/a
244.575	0.09	489150	keystroke_i	i	n/a
244.635	0.06	489270	keystroke_o	o	n/a
244.755	0.0905	489510	keystroke_n	n	n/a
244.7995	0.121	489599	keystroke_Key.space	Key.space	n/a
244.8905	0.074	489781	keystroke_c	c	n/a
244.9805	0.075	489961	keystroke_l	l	n/a
245.1005	0.074	490201	keystroke_e	e	n/a
245.1605	0.12	490321	keystroke_a	a	n/a
245.2355	0.12	490471	keystroke_r	r	n/a
245.3405	0.089	490681	keystroke_Key.enter	Key.enter	n/a
245.4345	5.1425	490869	prompt	n/a	palm preview butler support\n
246.0155	0.104	492031	keystroke_p	p	n/a
246.1495	0.1205	492299	keystroke_a	a	n/a
246.315	0.03	492630	keystroke_l	l	n/a
246.33	0.105	492660	keystroke_m	m	n/a
246.405	0.135	492810	keystroke_Key.space	Key.space	n/a
247.065	0.105	494130	keystroke_p	p	n/a
247.125	0.09	494250	keystroke_r	r	n/a
247.185	0.075	494370	keystroke_e	e	n/a
247.35	0.06	494700	keystroke_v	v	n/a
247.455	0.09	494910	keystroke_i	i	n/a
247.53	0.105	495060	keystroke_e	e	n/a
247.575	0.105	495150	keystroke_w	w	n/a
247.65	0.09	495300	keystroke_Key.space	Key.space	n/a
247.785	0.105	495570	keystroke_b	b	n/a
247.815	0.09	495630	keystroke_u	u	n/a
247.891	0.059	495782	keystroke_t	t	n/a
247.98	0.12	495960	keystroke_e	e	n/a
248.04	0.09	496080	keystroke_r	r	n/a
248.07	0.105	496140	keystroke_l	l	n/a
248.88	0.0755	497760	keystroke_Key.backspace	Key.backspace	n/a
249.1355	0.06	498271	keystroke_Key.backspace	Key.backspace	n/a
249.3155	0.075	498631	keystroke_Key.backspace	Key.backspace	n/a
249.5255	0.075	499051	keystroke_l	l	n/a
249.5705	0.12	499141	keystroke_e	e	n/a
249.6005	0.12	499201	keystroke_r	r	n/a
249.7055	0.09	499411	keystroke_Key.space	Key.space	n/a
249.8105	0.105	499621	keystroke_s	s	n/a
249.8855	0.075	499771	keystroke_u	u	n/a
250.0805	0.045	500161	keystroke_p	p	n/a
250.1855	0.105	500371	keystroke_p	p	n/a
250.2455	0.12	500491	keystroke_o	o	n/a
250.3055	0.12	500611	keystroke_r	r	n/a
250.3505	0.105	500701	keystroke_t	t	n/a
250.4705	0.105	500941	keystroke_Key.enter	Key.enter	n/a
250.58	4.092	501160	prompt	n/a	craft widespread acids lynn\n
251.2205	0.09	502441	keystroke_c	c	n/a
251.4155	0.09	502831	keystroke_r	r	n/a
251.4755	0.135	502951	keystroke_a	a	n/a
251.5805	0.075	503161	keystroke_f	f	n/a
251.7305	0.09	503461	keystroke_t	t	n/a
251.8055	0.075	503611	keystroke_Key.space	Key.space	n/a
251.9105	0.09	503821	keystroke_w	w	n/a
252.0155	0.089	504031	keystroke_i	i	n/a
252.0905	0.105	504181	keystroke_d	d	n/a
252.1355	0.119	504271	keystroke_e	e	n/a
252.2855	0.06	504571	keystroke_p	p	n/a
252.7205	0.089	505441	keystroke_Key.backspace	Key.backspace	n/a
252.8405	0.09	505681	keystroke_s	s	n/a
252.9155	0.09	505831	keystroke_p	p	n/a
252.9905	0.06	505981	keystroke_r	r	n/a
253.1095	0.075	506219	keystroke_e	e	n/a
253.1545	0.151	506309	keystroke_a	a	n/a
253.2755	0.09	506551	keystroke_d	d	n/a
253.3795	0.09	506759	keystroke_Key.space	Key.space	n/a
253.4405	0.119	506881	keystroke_a	a	n/a
253.5305	0.089	507061	keystroke_c	c	n/a
253.6505	0.105	507301	keystroke_i	i	n/a
253.7405	0.09	507481	keystroke_d	d	n/a
253.7705	0.12	507541	keystroke_s	s	n/a
253.8755	0.075	507751	keystroke_Key.space	Key.space	n/a
254.0405	0.09	508081	keystroke_l	l	n/a
254.1455	0.09	508291	keystroke_y	y	n/a
254.2505	0.06	508501	keystroke_n	n	n/a
254.4005	0.075	508801	keystroke_n	n	n/a
254.5805	0.09	509161	keystroke_Key.enter	Key.enter	n/a
254.6745	2.8925	509349	prompt	n/a	smoke wicked drugs string\n
255.2405	0.12	510481	keystroke_s	s	n/a
255.3305	0.075	510661	keystroke_m	m	n/a
255.4505	0.12	510901	keystroke_o	o	n/a
255.5255	0.105	511051	keystroke_k	k	n/a
255.615	0.0755	511230	keystroke_e	e	n/a
255.7055	0.1045	511411	keystroke_Key.space	Key.space	n/a
255.93	0.075	511860	keystroke_w	w	n/a
256.02	0.09	512040	keystroke_i	i	n/a
256.125	0.075	512250	keystroke_c	c	n/a
256.215	0.09	512430	keystroke_k	k	n/a
256.275	0.105	512550	keystroke_e	e	n/a
256.335	0.105	512670	keystroke_d	d	n/a
256.425	0.09	512850	keystroke_Key.space	Key.space	n/a
256.53	0.06	513060	keystroke_d	d	n/a
256.695	0.06	513390	keystroke_r	r	n/a
256.756	0.104	513512	keystroke_u	u	n/a
256.845	0.0905	513690	keystroke_g	g	n/a
256.875	0.1055	513750	keystroke_s	s	n/a
256.9505	0.09	513901	keystroke_Key.space	Key.space	n/a
257.0705	0.1045	514141	keystroke_s	s	n/a
257.13	0.105	514260	keystroke_t	t	n/a
257.19	0.105	514380	keystroke_r	r	n/a
257.22	0.105	514440	keystroke_i	i	n/a
257.28	0.105	514560	keystroke_n	n	n/a
257.37	0.075	514740	keystroke_g	g	n/a
257.475	0.09	514950	keystroke_Key.enter	Key.enter	n/a
257.5695	7.1225	515139	prompt	n/a	mongolia executives legendary characterized\n
258.315	0.12	516630	keystroke_m	m	n/a
258.375	0.09	516750	keystroke_o	o	n/a
258.51	0.09	517020	keystroke_n	n	n/a
258.615	0.09	517230	keystroke_g	g	n/a
258.735	0.075	517470	keystroke_o	o	n/a
258.93	0.075	517860	keystroke_l	l	n/a
259.14	0.09	518280	keystroke_i	i	n/a
259.215	0.12	518430	keystroke_a	a	n/a
259.32	0.105	518640	keystroke_Key.space	Key.space	n/a
259.77	0.0905	519540	keystroke_e	e	n/a
259.9505	0.195	519901	keystroke_x	x	n/a
260.1455	0.045	520291	keystroke_w	w	n/a
260.8955	0.09	521791	keystroke_Key.backspace	Key.backspace	n/a
261.0155	0.09	522031	keystroke_e	e	n/a
261.2405	0.12	522481	keystroke_c	c	n/a
261.3605	0.09	522721	keystroke_u	u	n/a
261.7955	0.09	523591	keystroke_t	t	n/a
261.9455	0.075	523891	keystroke_i	i	n/a
262.0505	0.165	524101	keystroke_v	v	n/a
262.1105	0.18	524221	keystroke_e	e	n/a
262.2005	0.12	524401	keystroke_s	s	n/a
262.2905	0.09	524581	keystroke_Key.space	Key.space	n/a
262.4555	0.105	524911	keystroke_l	l	n/a
262.5305	0.0745	525061	keystroke_e	e	n/a
262.5755	0.1495	525151	keystroke_g	g	n/a
262.68	0.09	525360	keystroke_e	e	n/a
262.74	0.0905	525480	keystroke_n	n	n/a
262.8455	0.09	525691	keystroke_d	d	n/a
262.8905	0.164	525781	keystroke_a	a	n/a
263.0105	0.105	526021	keystroke_r	r	n/a
263.0695	0.091	526139	keystroke_y	y	n/a
263.1155	0.105	526231	keystroke_Key.space	Key.space	n/a
263.2655	0.12	526531	keystroke_c	c	n/a
263.3555	0.075	526711	keystroke_h	h	n/a
263.4605	0.075	526921	keystroke_a	a	n/a
263.5205	0.0895	527041	keystroke_r	r	n/a
263.595	0.165	527190	keystroke_a	a	n/a
263.73	0.09	527460	keystroke_c	c	n/a
263.925	0.075	527850	keystroke_t	t	n/a
264	0.165	528000	keystroke_e	e	n/a
264.09	0.12	528180	keystroke_r	r	n/a
264.195	0.09	528390	keystroke_i	i	n/a
264.255	0.165	528510	keystroke_z	z	n/a
264.345	0.135	528690	keystroke_e	e	n/a
264.405	0.12	528810	keystroke_d	d	n/a
264.6	0.09	529200	keystroke_Key.enter	Key.enter	n/a
264.6945	3.2375	529389	prompt	n/a	discount oven adult configured\n
265.26	0.105	530520	keystroke_d	d	n/a
265.35	0.105	530700	keystroke_i	i	n/a
265.425	0.105	530850	keystroke_s	s	n/a
265.5	0.12	531000	keystroke_c	c	n/a
265.56	0.105	531120	keystroke_o	o	n/a
265.635	0.06	531270	keystroke_u	u	n/a
265.755	0.105	531510	keystroke_n	n	n/a
265.785	0.09	531570	keystroke_t	t	n/a
265.89	0.12	531780	keystroke_Key.space	Key.space	n/a
265.995	0.105	531990	keystroke_o	o	n/a
266.04	0.09	532080	keystroke_v	v	n/a
266.07	0.135	532140	keystroke_e	e	n/a
266.22	0.075	532440	keystroke_n	n	n/a
266.265	0.135	532530	keystroke_Key.space	Key.space	n/a
266.46	0.105	532920	keystroke_a	a	n/a
266.49	0.105	532980	keystroke_d	d	n/a
266.55	0.105	533100	keystroke_u	u	n/a
266.61	0.1045	533220	keystroke_l	l	n/a
266.7305	0.074	533461	keystroke_t	t	n/a
266.7595	0.1055	533519	keystroke_Key.space	Key.space	n/a
266.925	0.105	533850	keystroke_c	c	n/a
266.97	0.075	533940	keystroke_o	o	n/a
267.075	0.105	534150	keystroke_n	n	n/a
267.195	0.09	534390	keystroke_f	f	n/a
267.3	0.105	534600	keystroke_i	i	n/a
267.39	0.075	534780	keystroke_g	g	n/a
267.48	0.09	534960	keystroke_u	u	n/a
267.54	0.09	535080	keystroke_r	r	n/a
267.6	0.15	535200	keystroke_e	e	n/a
267.72	0.105	535440	keystroke_d	d	n/a
267.826	0.104	535652	keystroke_Key.enter	Key.enter	n/a
267.9345	5.0975	535869	prompt	n/a	platinum communication things removal\n
268.83	0.12	537660	keystroke_p	p	n/a
268.89	0.105	537780	keystroke_l	l	n/a
268.98	0.09	537960	keystroke_a	a	n/a
269.085	0.076	538170	keystroke_t	t	n/a
269.295	0.09	538590	keystroke_i	i	n/a
269.4905	0.06	538981	keystroke_n	n	n/a
269.67	0.075	539340	keystroke_u	u	n/a
269.865	0.09	539730	keystroke_m	m	n/a
269.91	0.135	539820	keystroke_Key.space	Key.space	n/a
270.09	0.09	540180	keystroke_c	c	n/a
270.135	0.075	540270	keystroke_o	o	n/a
270.285	0.06	540570	keystroke_m	m	n/a
270.42	0.105	540840	keystroke_m	m	n/a
270.63	0.09	541260	keystroke_u	u	n/a
271.065	0.075	542130	keystroke_n	n	n/a
271.17	0.105	542340	keystroke_i	i	n/a
271.245	0.0905	542490	keystroke_c	c	n/a
271.2895	0.09	542579	keystroke_a	a	n/a
271.4705	0.1045	542941	keystroke_t	t	n/a
271.5295	0.0755	543059	keystroke_i	i	n/a
271.59	0.045	543180	keystroke_o	o	n/a
271.71	0.075	543420	keystroke_n	n	n/a
271.755	0.12	543510	keystroke_Key.space	Key.space	n/a
271.86	0.09	543720	keystroke_t	t	n/a
271.935	0.06	543870	keystroke_h	h	n/a
271.98	0.12	543960	keystroke_i	i	n/a
272.07	0.105	544140	keystroke_n	n	n/a
272.115	0.09	544230	keystroke_g	g	n/a
272.145	0.105	544290	keystroke_s	s	n/a
272.22	0.1205	544440	keystroke_Key.space	Key.space	n/a
272.355	0.09	544710	keystroke_r	r	n/a
272.4	0.135	544800	keystroke_e	e	n/a
272.52	0.105	545040	keystroke_m	m	n/a
272.565	0.075	545130	keystroke_o	o	n/a
272.655	0.105	545310	keystroke_v	v	n/a
272.7	0.12	545400	keystroke_a	a	n/a
272.775	0.075	545550	keystroke_l	l	n/a
272.94	0.09	545880	keystroke_Key.enter	Key.enter	n/a
273.0345	4.317	546069	prompt	n/a	fascinating expanded records feeling\n
273.66	0.09	547320	keystroke_f	f	n/a
273.72	0.135	547440	keystroke_a	a	n/a
273.81	0.105	547620	keystroke_s	s	n/a
274.02	0.105	548040	keystroke_c	c	n/a
274.11	0.0605	548220	keystroke_i	i	n/a
274.2155	0.09	548431	keystroke_n	n	n/a
274.2905	0.105	548581	keystroke_a	a	n/a
274.3505	0.09	548701	keystroke_t	t	n/a
274.4105	0.12	548821	keystroke_i	i	n/a
274.4855	0.12	548971	keystroke_n	n	n/a
274.5605	0.105	549121	keystroke_g	g	n/a
274.6505	0.135	549301	keystroke_Key.space	Key.space	n/a
274.8005	0.105	549601	keystroke_e	e	n/a
274.9805	0.105	549961	keystroke_x	x	n/a
275.0705	0.105	550141	keystroke_p	p	n/a
275.1605	0.09	550321	keystroke_a	a	n/a
275.2655	0.105	550531	keystroke_n	n	n/a
275.3255	0.105	550651	keystroke_d	d	n/a
275.4305	0.12	550861	keystroke_e	e	n/a
275.4905	0.12	550981	keystroke_d	d	n/a
275.5795	0.105	551159	keystroke_Key.space	Key.space	n/a
275.7155	0.104	551431	keystroke_r	r	n/a
275.7755	0.09	551551	keystroke_e	e	n/a
275.9405	0.09	551881	keystroke_c	c	n/a
276.0595	0.09	552119	keystroke_o	o	n/a
276.1655	0.0595	552331	keystroke_r	r	n/a
276.3	0.09	552600	keystroke_d	d	n/a
276.375	0.09	552750	keystroke_Key.space	Key.space	n/a
276.48	0.075	552960	keystroke_f	f	n/a
276.525	0.06	553050	keystroke_e	e	n/a
276.66	0.105	553320	keystroke_e	e	n/a
276.75	0.06	553500	keystroke_l	l	n/a
276.915	0.12	553830	keystroke_i	i	n/a
276.99	0.09	553980	keystroke_n	n	n/a
277.05	0.09	554100	keystroke_g	g	n/a
277.245	0.105	554490	keystroke_Key.enter	Key.enter	n/a
277.356	7.0755	554712	prompt	n/a	installations dimensions ultram announcement\n
278.055	0.06	556110	keystroke_i	i	n/a
278.175	0.09	556350	keystroke_n	n	n/a
278.25	0.0605	556500	keystroke_s	s	n/a
278.4	0.06	556800	keystroke_t	t	n/a
278.415	0.105	556830	keystroke_a	a	n/a
279.06	0.06	558120	keystroke_l	l	n/a
279.195	0.09	558390	keystroke_l	l	n/a
279.405	0.09	558810	keystroke_a	a	n/a
279.45	0.12	558900	keystroke_t	t	n/a
279.555	0.09	559110	keystroke_i	i	n/a
279.6	0.075	559200	keystroke_o	o	n/a
279.735	0.105	559470	keystroke_n	n	n/a
279.81	0.075	559620	keystroke_s	s	n/a
279.9	0.105	559800	keystroke_Key.space	Key.space	n/a
280.02	0.105	560040	keystroke_d	d	n/a
280.05	0.09	560100	keystroke_i	i	n/a
280.17	0.105	560340	keystroke_m	m	n/a
280.245	0.105	560490	keystroke_e	e	n/a
280.3945	0.0605	560789	keystroke_n	n	n/a
280.47	0.1045	560940	keystroke_s	s	n/a
280.5755	0.089	561151	keystroke_i	i	n/a
280.6345	0.0605	561269	keystroke_o	o	n/a
280.7695	0.09	561539	keystroke_n	n	n/a
281.0545	0.12	562109	keystroke_s	s	n/a
281.3095	0.105	562619	keystroke_Key.space	Key.space	n/a
281.5195	0.0905	563039	keystroke_u	u	n/a
281.595	0.075	563190	keystroke_l	l	n/a
281.685	0.06	563370	keystroke_t	t	n/a
281.82	0.105	563640	keystroke_r	r	n/a
281.85	0.12	563700	keystroke_a	a	n/a
281.94	0.105	563880	keystroke_m	m	n/a
282.015	0.12	564030	keystroke_Key.space	Key.space	n/a
282.18	0.105	564360	keystroke_a	a	n/a
282.3	0.06	564600	keystroke_n	n	n/a
282.42	0.09	564840	keystroke_n	n	n/a
282.63	0.12	565260	keystroke_o	o	n/a
282.705	0.075	565410	keystroke_u	u	n/a
282.885	0.09	565770	keystroke_n	n	n/a
283.005	0.0905	566010	keystroke_c	c	n/a
283.0655	0.12	566131	keystroke_e	e	n/a
283.2605	0.09	566521	keystroke_m	m	n/a
283.3655	0.075	566731	keystroke_e	e	n/a
283.4555	0.075	566911	keystroke_n	n	n/a
283.5455	0.0745	567091	keystroke_t	t	n/a
284.31	0.12	568620	keystroke_Key.enter	Key.enter	n/a
284.4345	6.7475	568869	prompt	n/a	christian outdoors doubt titled\n
285.2555	0.135	570511	keystroke_c	c	n/a
285.3755	0.09	570751	keystroke_h	h	n/a
285.4955	0.015	570991	keystroke_f	f	n/a
285.7055	0.135	571411	keystroke_r	r	n/a
286.6505	0.06	573301	keystroke_Key.backspace	Key.backspace	n/a
286.8155	0.105	573631	keystroke_Key.backspace	Key.backspace	n/a
287.0705	0.105	574141	keystroke_r	r	n/a
287.1905	0.105	574381	keystroke_i	i	n/a
287.3855	0.09	574771	keystroke_s	s	n/a
287.4305	0.105	574861	keystroke_t	t	n/a
287.5355	0.105	575071	keystroke_i	i	n/a
287.6405	0.105	575281	keystroke_a	a	n/a
287.7305	0.09	575461	keystroke_n	n	n/a
287.7755	0.135	575551	keystroke_Key.space	Key.space	n/a
287.9555	0.135	575911	keystroke_o	o	n/a
288.0755	0.09	576151	keystroke_u	u	n/a
288.1355	0.075	576271	keystroke_t	t	n/a
288.3905	0.09	576781	keystroke_d	d	n/a
288.4655	0.0595	576931	keystroke_o	o	n/a
288.585	0.09	577170	keystroke_o	o	n/a
288.66	0.1055	577320	keystroke_r	r	n/a
288.735	0.0905	577470	keystroke_s	s	n/a
288.7805	0.105	577561	keystroke_Key.space	Key.space	n/a
289.1105	0.105	578221	keystroke_d	d	n/a
289.1855	0.105	578371	keystroke_o	o	n/a
289.2605	0.09	578521	keystroke_u	u	n/a
289.3355	0.06	578671	keystroke_b	b	n/a
289.5155	0.09	579031	keystroke_t	t	n/a
289.5455	0.105	579091	keystroke_Key.space	Key.space	n/a
289.7105	0.105	579421	keystroke_t	t	n/a
289.7855	0.12	579571	keystroke_i	i	n/a
290.1145	0.091	580229	keystroke_t	t	n/a
290.2645	0.091	580529	keystroke_l	l	n/a
290.3705	0.165	580741	keystroke_e	e	n/a
290.5055	0.06	581011	keystroke_d	d	n/a
291.1055	0.074	582211	keystroke_Key.enter	Key.enter	n/a
291.1865	4.3	582373	prompt	n/a	professor affiliate follow solar\n
291.93	0.09	583860	keystroke_p	p	n/a
292.005	0.09	584010	keystroke_r	r	n/a
292.14	0.09	584280	keystroke_o	o	n/a
292.215	0.12	584430	keystroke_f	f	n/a
292.26	0.105	584520	keystroke_e	e	n/a
292.305	0.075	584610	keystroke_s	s	n/a
292.44	0.105	584880	keystroke_s	s	n/a
292.53	0.1055	585060	keystroke_o	o	n/a
292.6205	0.09	585241	keystroke_r	r	n/a
292.6955	0.09	585391	keystroke_Key.space	Key.space	n/a
292.8305	0.09	585661	keystroke_a	a	n/a
292.9955	0.09	585991	keystroke_f	f	n/a
293.1905	0.075	586381	keystroke_f	f	n/a
293.5655	0.105	587131	keystroke_i	i	n/a
293.7455	0.12	587491	keystroke_l	l	n/a
293.8355	0.105	587671	keystroke_i	i	n/a
293.8955	0.1045	587791	keystroke_a	a	n/a
293.9545	0.105	587909	keystroke_t	t	n/a
294.015	0.1195	588030	keystroke_e	e	n/a
294.09	0.1045	588180	keystroke_Key.space	Key.space	n/a
294.2395	0.12	588479	keystroke_f	f	n/a
294.33	0.0755	588660	keystroke_o	o	n/a
294.481	0.074	588962	keystroke_l	l	n/a
294.6005	0.0745	589201	keystroke_l	l	n/a
294.75	0.0745	589500	keystroke_o	o	n/a
294.8095	0.076	589619	keystroke_w	w	n/a
294.8995	0.075	589799	keystroke_Key.space	Key.space	n/a
294.9895	0.091	589979	keystroke_s	s	n/a
295.0345	0.0905	590069	keystroke_o	o	n/a
295.185	0.0905	590370	keystroke_l	l	n/a
295.2455	0.105	590491	keystroke_a	a	n/a
295.2905	0.12	590581	keystroke_r	r	n/a
295.4255	0.06	590851	keystroke_Key.enter	Key.enter	n/a
295.49	5.2765	590980	prompt	n/a	modular most ranch provincial\n
296.625	0.105	593250	keystroke_m	m	n/a
296.685	0.12	593370	keystroke_o	o	n/a
296.79	0.105	593580	keystroke_d	d	n/a
296.88	0.09	593760	keystroke_u	u	n/a
296.94	0.105	593880	keystroke_l	l	n/a
297.015	0.105	594030	keystroke_a	a	n/a
297.06	0.105	594120	keystroke_r	r	n/a
297.105	0.105	594210	keystroke_Key.space	Key.space	n/a
297.315	0.12	594630	keystroke_m	m	n/a
297.375	0.12	594750	keystroke_o	o	n/a
297.45	0.09	594900	keystroke_s	s	n/a
297.48	0.105	594960	keystroke_t	t	n/a
297.555	0.09	595110	keystroke_Key.space	Key.space	n/a
297.66	0.105	595320	keystroke_r	r	n/a
297.72	0.105	595440	keystroke_a	a	n/a
297.9	0.09	595800	keystroke_n	n	n/a
298.005	0.12	596010	keystroke_c	c	n/a
298.11	0.105	596220	keystroke_h	h	n/a
298.155	0.12	596310	keystroke_Key.space	Key.space	n/a
298.38	0.12	596760	keystroke_p	p	n/a
298.5	0.09	597000	keystroke_r	r	n/a
299.16	0.105	598320	keystroke_o	o	n/a
299.4745	0.106	598949	keystroke_v	v	n/a
299.5955	0.06	599191	keystroke_i	i	n/a
299.7605	0.075	599521	keystroke_n	n	n/a
300.1505	0.075	600301	keystroke_c	c	n/a
300.2105	0.09	600421	keystroke_i	i	n/a
300.3155	0.105	600631	keystroke_a	a	n/a
300.3905	0.09	600781	keystroke_l	l	n/a
300.6905	0.074	601381	keystroke_Key.enter	Key.enter	n/a
300.7715	4.54	601543	prompt	n/a	intensive regime numerous ownership\n
301.4255	0.06	602851	keystroke_i	i	n/a
301.5305	0.1045	603061	keystroke_n	n	n/a
301.59	0.106	603180	keystroke_t	t	n/a
301.65	0.105	603300	keystroke_e	e	n/a
301.77	0.075	603540	keystroke_n	n	n/a
301.846	0.089	603692	keystroke_s	s	n/a
302.58	0.1205	605160	keystroke_i	i	n/a
302.64	0.1355	605280	keystroke_v	v	n/a
302.7005	0.135	605401	keystroke_e	e	n/a
302.7905	0.12	605581	keystroke_Key.space	Key.space	n/a
302.9405	0.105	605881	keystroke_r	r	n/a
303.0005	0.09	606001	keystroke_e	e	n/a
303.1205	0.105	606241	keystroke_g	g	n/a
303.1955	0.075	606391	keystroke_i	i	n/a
303.2855	0.09	606571	keystroke_m	m	n/a
303.3305	0.12	606661	keystroke_e	e	n/a
303.4205	0.06	606841	keystroke_Key.space	Key.space	n/a
303.5255	0.135	607051	keystroke_n	n	n/a
303.6755	0.0895	607351	keystroke_u	u	n/a
303.825	0.105	607650	keystroke_m	m	n/a
303.9	0.135	607800	keystroke_e	e	n/a
303.96	0.12	607920	keystroke_r	r	n/a
304.05	0.12	608100	keystroke_o	o	n/a
304.125	0.105	608250	keystroke_u	u	n/a
304.2	0.12	608400	keystroke_s	s	n/a
304.26	0.12	608520	keystroke_Key.space	Key.space	n/a
304.47	0.09	608940	keystroke_o	o	n/a
304.545	0.105	609090	keystroke_w	w	n/a
304.665	0.075	609330	keystroke_n	n	n/a
304.725	0.1205	609450	keystroke_e	e	n/a
304.785	0.09	609570	keystroke_r	r	n/a
304.905	0.15	609810	keystroke_s	s	n/a
304.98	0.15	609960	keystroke_h	h	n/a
305.04	0.105	610080	keystroke_i	i	n/a
305.115	0.09	610230	keystroke_p	p	n/a
305.22	0.09	610440	keystroke_Key.enter	Key.enter	n/a
305.315	8.5765	610630	prompt	n/a	borough canal board luther\n
306	0.09	612000	keystroke_b	b	n/a
306.075	0.165	612150	keystroke_o	o	n/a
306.195	0.105	612390	keystroke_u	u	n/a
306.3155	0.1045	612631	keystroke_r	r	n/a
306.375	0.1355	612750	keystroke_o	o	n/a
306.4505	0.1045	612901	keystroke_u	u	n/a
306.57	0.09	613140	keystroke_g	g	n/a
306.6755	0.06	613351	keystroke_h	h	n/a
306.6905	0.104	613381	keystroke_Key.space	Key.space	n/a
306.8255	0.09	613651	keystroke_c	c	n/a
306.8555	0.105	613711	keystroke_a	a	n/a
306.9305	0.075	613861	keystroke_n	n	n/a
307.0205	0.105	614041	keystroke_a	a	n/a
308.1	0.045	616200	keystroke_Key.backspace	Key.backspace	n/a
308.385	0.075	616770	keystroke_Key.backspace	Key.backspace	n/a
308.685	0.075	617370	keystroke_Key.backspace	Key.backspace	n/a
308.97	0.075	617940	keystroke_Key.backspace	Key.backspace	n/a
309.24	0.075	618480	keystroke_Key.backspace	Key.backspace	n/a
309.54	0.06	619080	keystroke_Key.backspace	Key.backspace	n/a
309.84	0.045	619680	keystroke_Key.backspace	Key.backspace	n/a
310.11	0.09	620220	keystroke_Key.backspace	Key.backspace	n/a
310.38	0.075	620760	keystroke_Key.backspace	Key.backspace	n/a
310.6655	0.075	621331	keystroke_Key.backspace	Key.backspace	n/a
310.9655	0.075	621931	keystroke_Key.backspace	Key.backspace	n/a
311.5055	0.1195	623011	keystroke_r	r	n/a
311.5505	0.1345	623101	keystroke_o	o	n/a
311.655	0.105	623310	keystroke_u	u	n/a
311.775	0.105	623550	keystroke_g	g	n/a
311.865	0.075	623730	keystroke_h	h	n/a
311.895	0.135	623790	keystroke_Key.space	Key.space	n/a
312.06	0.09	624120	keystroke_c	c	n/a
312.09	0.12	624180	keystroke_a	a	n/a
312.165	0.09	624330	keystroke_n	n	n/a
312.27	0.105	624540	keystroke_a	a	n/a
312.345	0.105	624690	keystroke_l	l	n/a
312.405	0.12	624810	keystroke_Key.space	Key.space	n/a
312.675	0.06	625350	keystroke_b	b	n/a
312.795	0.09	625590	keystroke_o	o	n/a
312.87	0.12	625740	keystroke_a	a	n/a
312.93	0.075	625860	keystroke_r	r	n/a
313.065	0.12	626130	keystroke_d	d	n/a
313.125	0.105	626250	keystroke_Key.space	Key.space	n/a
313.2	0.105	626400	keystroke_l	l	n/a
313.29	0.09	626580	keystroke_u	u	n/a
313.365	0.09	626730	keystroke_t	t	n/a
313.485	0.075	626970	keystroke_h	h	n/a
313.515	0.1345	627030	keystroke_e	e	n/a
313.5745	0.12	627149	keystroke_r	r	n/a
313.8145	0.075	627629	keystroke_Key.enter	Key.enter	n/a
313.8945	3.417	627789	prompt	n/a	paragraphs cooper painting name\n
314.5345	0.09	629069	keystroke_p	p	n/a
314.6095	0.09	629219	keystroke_a	a	n/a
314.6695	0.12	629339	keystroke_r	r	n/a
314.7445	0.09	629489	keystroke_a	a	n/a
314.8795	0.075	629759	keystroke_g	g	n/a
315.0295	0.075	630059	keystroke_r	r	n/a
315.0445	0.105	630089	keystroke_a	a	n/a
315.0605	0.074	630121	keystroke_p	p	n/a
315.2095	0.075	630419	keystroke_h	h	n/a
315.2545	0.075	630509	keystroke_s	s	n/a
315.3445	0.075	630689	keystroke_Key.space	Key.space	n/a
315.4345	0.09	630869	keystroke_c	c	n/a
315.5095	0.0905	631019	keystroke_o	o	n/a
315.675	0.09	631350	keystroke_o	o	n/a
315.72	0.105	631440	keystroke_p	p	n/a
315.81	0.12	631620	keystroke_e	e	n/a
315.855	0.105	631710	keystroke_r	r	n/a
315.945	0.09	631890	keystroke_Key.space	Key.space	n/a
316.08	0.105	632160	keystroke_p	p	n/a
316.17	0.09	632340	keystroke_a	a	n/a
316.275	0.12	632550	keystroke_i	i	n/a
316.35	0.105	632700	keystroke_n	n	n/a
316.41	0.09	632820	keystroke_t	t	n/a
316.47	0.12	632940	keystroke_i	i	n/a
316.56	0.09	633120	keystroke_n	n	n/a
316.635	0.09	633270	keystroke_g	g	n/a
316.695	0.075	633390	keystroke_Key.space	Key.space	n/a
316.8	0.09	633600	keystroke_n	n	n/a
316.86	0.105	633720	keystroke_a	a	n/a
316.966	0.074	633932	keystroke_m	m	n/a
317.055	0.09	634110	keystroke_e	e	n/a
317.22	0.09	634440	keystroke_Key.enter	Key.enter	n/a
317.3155	5.306	634631	prompt	n/a	cached commissioner desert court\n
318.015	0.135	636030	keystroke_c	c	n/a
318.105	0.09	636210	keystroke_a	a	n/a
318.315	0.105	636630	keystroke_c	c	n/a
318.435	0.09	636870	keystroke_h	h	n/a
318.54	0.105	637080	keystroke_e	e	n/a
318.585	0.12	637170	keystroke_d	d	n/a
318.66	0.105	637320	keystroke_Key.space	Key.space	n/a
318.84	0.105	637680	keystroke_c	c	n/a
318.9	0.075	637800	keystroke_o	o	n/a
319.065	0.075	638130	keystroke_m	m	n/a
319.635	0.09	639270	keystroke_m	m	n/a
320.0395	0.075	640079	keystroke_i	i	n/a
320.2345	0.075	640469	keystroke_s	s	n/a
320.3995	0.06	640799	keystroke_s	s	n/a
320.4445	0.075	640889	keystroke_i	i	n/a
320.4895	0.061	640979	keystroke_o	o	n/a
320.6245	0.09	641249	keystroke_n	n	n/a
320.6695	0.106	641339	keystroke_e	e	n/a
320.7295	0.09	641459	keystroke_r	r	n/a
320.8045	0.105	641609	keystroke_Key.space	Key.space	n/a
320.9395	0.1805	641879	keystroke_d	d	n/a
321.0295	0.1355	642059	keystroke_e	e	n/a
321.12	0.1055	642240	keystroke_s	s	n/a
321.5855	0.105	643171	keystroke_e	e	n/a
321.6455	0.075	643291	keystroke_r	r	n/a
321.7955	0.09	643591	keystroke_t	t	n/a
321.8405	0.105	643681	keystroke_Key.space	Key.space	n/a
322.0505	0.105	644101	keystroke_c	c	n/a
322.1255	0.135	644251	keystroke_o	o	n/a
322.2155	0.105	644431	keystroke_u	u	n/a
322.2755	0.135	644551	keystroke_r	r	n/a
322.3355	0.105	644671	keystroke_t	t	n/a
322.5005	0.12	645001	keystroke_Key.enter	Key.enter	n/a
322.625	5.3965	645250	prompt	n/a	detect bufing premiere egypt\n
323.2505	0.075	646501	keystroke_d	d	n/a
323.2655	0.12	646531	keystroke_e	e	n/a
323.4305	0.09	646861	keystroke_t	t	n/a
323.5055	0.09	647011	keystroke_e	e	n/a
323.6545	0.106	647309	keystroke_c	c	n/a
323.8955	0.074	647791	keystroke_t	t	n/a
323.9255	0.105	647851	keystroke_Key.space	Key.space	n/a
324.0455	0.12	648091	keystroke_b	b	n/a
324.1055	0.075	648211	keystroke_u	u	n/a
324.1505	0.105	648301	keystroke_f	f	n/a
324.2705	0.089	648541	keystroke_i	i	n/a
324.3155	0.165	648631	keystroke_n	n	n/a
324.4045	0.091	648809	keystroke_g	g	n/a
324.5405	0.059	649081	keystroke_Key.space	Key.space	n/a
324.7795	0.075	649559	keystroke_p	p	n/a
325.185	0.12	650370	keystroke_r	r	n/a
325.26	0.12	650520	keystroke_e	e	n/a
325.53	0.135	651060	keystroke_m	m	n/a
325.62	0.105	651240	keystroke_i	i	n/a
325.695	0.09	651390	keystroke_e	e	n/a
325.755	0.15	651510	keystroke_r	r	n/a
325.86	0.105	651720	keystroke_e	e	n/a
326.265	0.09	652530	keystroke_Key.space	Key.space	n/a
326.415	0.09	652830	keystroke_e	e	n/a
326.55	0.1195	653100	keystroke_g	g	n/a
326.8345	0.075	653669	keystroke_p	p	n/a
327.2995	0.075	654599	keystroke_Key.backspace	Key.backspace	n/a
327.4195	0.105	654839	keystroke_y	y	n/a
327.5095	0.091	655019	keystroke_p	p	n/a
327.6305	0.105	655261	keystroke_t	t	n/a
327.9295	0.0905	655859	keystroke_Key.enter	Key.enter	n/a
328.0255	4.271	656051	prompt	n/a	moore hughes poly assignments\n
328.6345	0.075	657269	keystroke_m	m	n/a
328.8145	0.075	657629	keystroke_o	o	n/a
328.9495	0.105	657899	keystroke_o	o	n/a
329.0095	0.105	658019	keystroke_r	r	n/a
329.0695	0.105	658139	keystroke_e	e	n/a
329.1445	0.075	658289	keystroke_Key.space	Key.space	n/a
329.3245	0.0905	658649	keystroke_h	h	n/a
329.3695	0.075	658739	keystroke_u	u	n/a
329.4745	0.0755	658949	keystroke_g	g	n/a
329.565	0.09	659130	keystroke_h	h	n/a
329.67	0.135	659340	keystroke_e	e	n/a
329.715	0.1205	659430	keystroke_s	s	n/a
330.165	0.09	660330	keystroke_Key.space	Key.space	n/a
330.45	0.105	660900	keystroke_p	p	n/a
330.54	0.06	661080	keystroke_o	o	n/a
330.675	0.105	661350	keystroke_l	l	n/a
330.765	0.075	661530	keystroke_y	y	n/a
330.855	0.06	661710	keystroke_Key.space	Key.space	n/a
330.93	0.105	661860	keystroke_a	a	n/a
330.99	0.09	661980	keystroke_s	s	n/a
331.125	0.09	662250	keystroke_s	s	n/a
331.23	0.09	662460	keystroke_i	i	n/a
331.335	0.09	662670	keystroke_g	g	n/a
331.395	0.06	662790	keystroke_n	n	n/a
331.545	0.075	663090	keystroke_m	m	n/a
331.605	0.09	663210	keystroke_e	e	n/a
331.71	0.09	663420	keystroke_n	n	n/a
331.77	0.09	663540	keystroke_t	t	n/a
331.815	0.105	663630	keystroke_s	s	n/a
332.1745	0.12	664349	keystroke_Key.enter	Key.enter	n/a
332.2995	5.0975	664599	prompt	n/a	fever client endorsed lexmark\n
333.12	0.09	666240	keystroke_f	f	n/a
333.165	0.09	666330	keystroke_e	e	n/a
333.3	0.09	666600	keystroke_v	v	n/a
333.42	0.15	666840	keystroke_e	e	n/a
333.51	0.09	667020	keystroke_r	r	n/a
333.585	0.09	667170	keystroke_Key.space	Key.space	n/a
333.72	0.105	667440	keystroke_c	c	n/a
333.765	0.105	667530	keystroke_l	l	n/a
333.84	0.075	667680	keystroke_i	i	n/a
333.93	0.09	667860	keystroke_e	e	n/a
334.005	0.105	668010	keystroke_n	n	n/a
334.095	0.09	668190	keystroke_t	t	n/a
334.14	0.12	668280	keystroke_s	s	n/a
334.215	0.135	668430	keystroke_Key.space	Key.space	n/a
335.055	0.045	670110	keystroke_Key.backspace	Key.backspace	n/a
335.175	0.09	670350	keystroke_Key.backspace	Key.backspace	n/a
335.235	0.09	670470	keystroke_Key.space	Key.space	n/a
335.37	0.09	670740	keystroke_e	e	n/a
335.445	0.09	670890	keystroke_n	n	n/a
335.55	0.1055	671100	keystroke_d	d	n/a
335.6405	0.09	671281	keystroke_o	o	n/a
335.7755	0.12	671551	keystroke_r	r	n/a
335.9695	0.166	671939	keystroke_s	s	n/a
336.0755	0.134	672151	keystroke_e	e	n/a
336.1355	0.104	672271	keystroke_d	d	n/a
336.2845	0.09	672569	keystroke_Key.space	Key.space	n/a
336.6295	0.075	673259	keystroke_l	l	n/a
336.6895	0.076	673379	keystroke_e	e	n/a
336.8245	0.105	673649	keystroke_x	x	n/a
336.9745	0.09	673949	keystroke_m	m	n/a
337.0795	0.09	674159	keystroke_a	a	n/a
337.1245	0.09	674249	keystroke_r	r	n/a
337.1545	0.076	674309	keystroke_k	k	n/a
337.3045	0.09	674609	keystroke_Key.enter	Key.enter	n/a
337.4	5.5615	674800	prompt	n/a	advantage answering twenty vietnam\n
338.0705	0.12	676141	keystroke_a	a	n/a
338.1305	0.105	676261	keystroke_d	d	n/a
338.3255	0.105	676651	keystroke_v	v	n/a
338.3855	0.105	676771	keystroke_a	a	n/a
338.5205	0.09	677041	keystroke_n	n	n/a
338.6255	0.105	677251	keystroke_t	t	n/a
338.7005	0.075	677401	keystroke_a	a	n/a
338.8205	0.1045	677641	keystroke_g	g	n/a
338.8655	0.1045	677731	keystroke_e	e	n/a
338.955	0.09	677910	keystroke_Key.space	Key.space	n/a
339.24	0.09	678480	keystroke_a	a	n/a
339.331	0.074	678662	keystroke_n	n	n/a
339.375	0.075	678750	keystroke_s	s	n/a
339.525	0.12	679050	keystroke_w	w	n/a
339.555	0.105	679110	keystroke_e	e	n/a
339.72	0.09	679440	keystroke_r	r	n/a
339.78	0.105	679560	keystroke_i	i	n/a
339.84	0.105	679680	keystroke_n	n	n/a
339.9	0.09	679800	keystroke_g	g	n/a
340.005	0.105	680010	keystroke_Key.space	Key.space	n/a
340.095	0.09	680190	keystroke_t	t	n/a
340.35	0.105	680700	keystroke_w	w	n/a
340.635	0.0755	681270	keystroke_n	n	n/a
341.2355	0.075	682471	keystroke_Key.backspace	Key.backspace	n/a
341.445	0.09	682890	keystroke_e	e	n/a
341.505	0.09	683010	keystroke_n	n	n/a
341.685	0.09	683370	keystroke_t	t	n/a
341.835	0.105	683670	keystroke_y	y	n/a
341.91	0.105	683820	keystroke_Key.space	Key.space	n/a
342.075	0.105	684150	keystroke_v	v	n/a
342.165	0.105	684330	keystroke_i	i	n/a
342.285	0.135	684570	keystroke_e	e	n/a
342.36	0.105	684720	keystroke_t	t	n/a
342.495	0.075	684990	keystroke_n	n	n/a
342.585	0.12	685170	keystroke_a	a	n/a
342.66	0.09	685320	keystroke_m	m	n/a
342.9	0.06	685800	keystroke_Key.enter	Key.enter	n/a
342.9645	5.097	685929	prompt	n/a	annotation subjective mortgage early\n
343.635	0.015	687270	keystroke_a	a	n/a
343.6655	0.0445	687331	keystroke_n	n	n/a
343.77	0.09	687540	keystroke_n	n	n/a
343.875	0.12	687750	keystroke_o	o	n/a
344.04	0.135	688080	keystroke_t	t	n/a
344.16	0.105	688320	keystroke_a	a	n/a
344.235	0.135	688470	keystroke_t	t	n/a
344.31	0.0755	688620	keystroke_i	i	n/a
344.355	0.0605	688710	keystroke_o	o	n/a
344.5055	0.075	689011	keystroke_n	n	n/a
344.5505	0.12	689101	keystroke_Key.space	Key.space	n/a
344.7155	0.075	689431	keystroke_s	s	n/a
344.7755	0.09	689551	keystroke_u	u	n/a
344.8505	0.09	689701	keystroke_b	b	n/a
344.9405	0.09	689881	keystroke_j	j	n/a
345.0305	0.135	690061	keystroke_e	e	n/a
345.0905	0.12	690181	keystroke_c	c	n/a
345.3155	0.09	690631	keystroke_t	t	n/a
345.3905	0.12	690781	keystroke_i	i	n/a
345.5105	0.105	691021	keystroke_v	v	n/a
345.5555	0.12	691111	keystroke_e	e	n/a
345.6005	0.09	691201	keystroke_Key.space	Key.space	n/a
345.7505	0.06	691501	keystroke_m	m	n/a
345.7805	0.105	691561	keystroke_o	o	n/a
345.8405	0.09	691681	keystroke_r	r	n/a
346.0655	0.075	692131	keystroke_t	t	n/a
346.1555	0.105	692311	keystroke_a	a	n/a
346.6955	0.075	693391	keystroke_Key.backspace	Key.backspace	n/a
346.7855	0.105	693571	keystroke_g	g	n/a
346.8605	0.09	693721	keystroke_a	a	n/a
346.9655	0.09	693931	keystroke_g	g	n/a
347.0105	0.1195	694021	keystroke_e	e	n/a
347.115	0.12	694230	keystroke_Key.space	Key.space	n/a
347.28	0.09	694560	keystroke_e	e	n/a
347.34	0.12	694680	keystroke_a	a	n/a
347.43	0.105	694860	keystroke_r	r	n/a
347.55	0.0745	695100	keystroke_l	l	n/a
347.6695	0.105	695339	keystroke_y	y	n/a
347.94	0.12	695880	keystroke_Key.enter	Key.enter	n/a
348.0645	6.057	696129	prompt	n/a	ways skills advances ralph\n
348.675	0.09	697350	keystroke_w	w	n/a
348.72	0.12	697440	keystroke_a	a	n/a
348.855	0.09	697710	keystroke_y	y	n/a
348.93	0.075	697860	keystroke_s	s	n/a
348.975	0.105	697950	keystroke_Key.space	Key.space	n/a
349.095	0.105	698190	keystroke_s	s	n/a
349.185	0.075	698370	keystroke_k	k	n/a
349.365	0.06	698730	keystroke_i	i	n/a
349.38	0.06	698760	keystroke_l	l	n/a
349.5	0.105	699000	keystroke_l	l	n/a
349.59	0.09	699180	keystroke_s	s	n/a
349.665	0.09	699330	keystroke_Key.space	Key.space	n/a
349.785	0.135	699570	keystroke_d	d	n/a
349.905	0.06	699810	keystroke_a	a	n/a
350.7	0.075	701400	keystroke_Key.backspace	Key.backspace	n/a
350.94	0.075	701880	keystroke_Key.backspace	Key.backspace	n/a
351.075	0.105	702150	keystroke_a	a	n/a
351.135	0.105	702270	keystroke_d	d	n/a
351.36	0.09	702720	keystroke_v	v	n/a
351.405	0.12	702810	keystroke_a	a	n/a
351.526	0.0895	703052	keystroke_n	n	n/a
351.6005	0.165	703201	keystroke_c	c	n/a
351.6905	0.15	703381	keystroke_e	e	n/a
351.7805	0.105	703561	keystroke_s	s	n/a
351.8255	0.105	703651	keystroke_Key.space	Key.space	n/a
352.0055	0.105	704011	keystroke_r	r	n/a
352.0505	0.12	704101	keystroke_a	a	n/a
352.2005	0.075	704401	keystroke_p	p	n/a
352.5605	0.075	705121	keystroke_Key.backspace	Key.backspace	n/a
352.7405	0.12	705481	keystroke_l	l	n/a
352.8155	0.09	705631	keystroke_p	p	n/a
353.0105	0.06	706021	keystroke_h	h	n/a
353.0255	0.03	706051	keystroke_j	j	n/a
353.7	0.09	707400	keystroke_Key.backspace	Key.backspace	n/a
354.015	0.105	708030	keystroke_Key.enter	Key.enter	n/a
354.1245	4.6325	708249	prompt	n/a	displayed declare idea collectibles\n
354.9	0.105	709800	keystroke_d	d	n/a
354.99	0.09	709980	keystroke_i	i	n/a
355.065	0.105	710130	keystroke_s	s	n/a
355.14	0.12	710280	keystroke_p	p	n/a
355.2	0.135	710400	keystroke_l	l	n/a
355.29	0.09	710580	keystroke_a	a	n/a
355.35	0.09	710700	keystroke_y	y	n/a
355.441	0.1645	710882	keystroke_e	e	n/a
355.5605	0.09	711121	keystroke_d	d	n/a
355.6355	0.09	711271	keystroke_Key.space	Key.space	n/a
355.7395	0.076	711479	keystroke_d	d	n/a
355.7705	0.104	711541	keystroke_e	e	n/a
355.9355	0.105	711871	keystroke_c	c	n/a
356.0705	0.089	712141	keystroke_l	l	n/a
356.2655	0.105	712531	keystroke_a	a	n/a
356.3405	0.119	712681	keystroke_r	r	n/a
356.4155	0.12	712831	keystroke_e	e	n/a
356.5055	0.104	713011	keystroke_Key.space	Key.space	n/a
356.7005	0.104	713401	keystroke_i	i	n/a
356.7605	0.075	713521	keystroke_d	d	n/a
356.9555	0.044	713911	keystroke_e	e	n/a
356.9695	0.091	713939	keystroke_a	a	n/a
357.0295	0.106	714059	keystroke_Key.space	Key.space	n/a
357.2255	0.075	714451	keystroke_c	c	n/a
357.2845	0.061	714569	keystroke_o	o	n/a
357.4205	0.06	714841	keystroke_l	l	n/a
357.5405	0.074	715081	keystroke_l	l	n/a
357.5695	0.135	715139	keystroke_e	e	n/a
357.6295	0.06	715259	keystroke_c	c	n/a
357.8105	0.105	715621	keystroke_t	t	n/a
357.9295	0.0755	715859	keystroke_i	i	n/a
358.23	0.105	716460	keystroke_b	b	n/a
358.38	0.075	716760	keystroke_l	l	n/a
358.47	0.135	716940	keystroke_e	e	n/a
358.545	0.09	717090	keystroke_s	s	n/a
358.68	0.075	717360	keystroke_Key.enter	Key.enter	n/a
358.7595	4.7825	717519	prompt	n/a	piece challenge history baghdad\n
359.415	0.105	718830	keystroke_p	p	n/a
359.535	0.0755	719070	keystroke_i	i	n/a
359.5955	0.105	719191	keystroke_e	e	n/a
359.6855	0.12	719371	keystroke_c	c	n/a
359.7455	0.12	719491	keystroke_e	e	n/a
359.8205	0.075	719641	keystroke_Key.space	Key.space	n/a
359.9705	0.09	719941	keystroke_c	c	n/a
360.0305	0.09	720061	keystroke_h	h	n/a
360.1505	0.09	720301	keystroke_a	a	n/a
360.2255	0.045	720451	keystroke_l	l	n/a
360.3455	0.09	720691	keystroke_l	l	n/a
360.4355	0.09	720871	keystroke_e	e	n/a
360.5405	0.09	721081	keystroke_n	n	n/a
360.6155	0.09	721231	keystroke_g	g	n/a
360.6605	0.1045	721321	keystroke_e	e	n/a
360.75	0.09	721500	keystroke_Key.space	Key.space	n/a
360.945	0.075	721890	keystroke_h	h	n/a
360.975	0.09	721950	keystroke_i	i	n/a
361.035	0.09	722070	keystroke_s	s	n/a
361.11	0.105	722220	keystroke_t	t	n/a
361.2	0.09	722400	keystroke_o	o	n/a
361.245	0.135	722490	keystroke_r	r	n/a
361.32	0.09	722640	keystroke_y	y	n/a
361.381	0.074	722762	keystroke_Key.space	Key.space	n/a
361.605	0.075	723210	keystroke_b	b	n/a
361.695	0.1045	723390	keystroke_a	a	n/a
361.755	0.105	723510	keystroke_g	g	n/a
361.9045	0.12	723809	keystroke_h	h	n/a
362.0395	0.0905	724079	keystroke_a	a	n/a
362.22	0.12	724440	keystroke_d	d	n/a
362.5645	0.105	725129	keystroke_Key.backspace	Key.backspace	n/a
362.7595	0.075	725519	keystroke_Key.backspace	Key.backspace	n/a
362.9395	0.0915	725879	keystroke_d	d	n/a
363	0.1195	726000	keystroke_a	a	n/a
363.1045	0.165	726209	keystroke_d	d	n/a
363.435	0.105	726870	keystroke_Key.enter	Key.enter	n/a
363.5475	7.314	727095	prompt	n/a	brook smtp christian precipitation\n
364.335	0.105	728670	keystroke_b	b	n/a
364.38	0.135	728760	keystroke_r	r	n/a
364.47	0.075	728940	keystroke_o	o	n/a
364.59	0.12	729180	keystroke_o	o	n/a
364.665	0.09	729330	keystroke_k	k	n/a
364.725	0.105	729450	keystroke_Key.space	Key.space	n/a
364.845	0.09	729690	keystroke_s	s	n/a
364.905	0.105	729810	keystroke_m	m	n/a
365.16	0.09	730320	keystroke_t	t	n/a
365.22	0.09	730440	keystroke_p	p	n/a
365.295	0.12	730590	keystroke_Key.space	Key.space	n/a
365.535	0.105	731070	keystroke_c	c	n/a
365.655	0.09	731310	keystroke_h	h	n/a
365.775	0.075	731550	keystroke_r	r	n/a
365.895	0.12	731790	keystroke_i	i	n/a
366.42	0.09	732840	keystroke_s	s	n/a
366.69	0.09	733380	keystroke_t	t	n/a
366.765	0.075	733530	keystroke_i	i	n/a
366.841	0.119	733682	keystroke_a	a	n/a
366.945	0.075	733890	keystroke_n	n	n/a
367.005	0.105	734010	keystroke_Key.space	Key.space	n/a
368.49	0.0745	736980	keystroke_p	p	n/a
368.595	0.105	737190	keystroke_r	r	n/a
368.6545	0.12	737309	keystroke_e	e	n/a
369.0145	0.09	738029	keystroke_c	c	n/a
369.1945	0.1205	738389	keystroke_i	i	n/a
369.8245	0.1055	739649	keystroke_p	p	n/a
369.975	0.105	739950	keystroke_i	i	n/a
370.125	0.09	740250	keystroke_t	t	n/a
370.23	0.105	740460	keystroke_a	a	n/a
370.29	0.12	740580	keystroke_t	t	n/a
370.35	0.09	740700	keystroke_i	i	n/a
370.411	0.059	740822	keystroke_o	o	n/a
370.545	0.09	741090	keystroke_n	n	n/a
370.77	0.09	741540	keystroke_Key.enter	Key.enter	n/a
370.865	5.2765	741730	prompt	n/a	atomic guarantees generating admission\n
371.5945	0.09	743189	keystroke_a	a	n/a
371.6545	0.105	743309	keystroke_t	t	n/a
371.7305	0.074	743461	keystroke_o	o	n/a
371.8495	0.135	743699	keystroke_m	m	n/a
371.9255	0.104	743851	keystroke_i	i	n/a
372.0145	0.09	744029	keystroke_c	c	n/a
372.0895	0.135	744179	keystroke_Key.space	Key.space	n/a
372.2395	0.105	744479	keystroke_g	g	n/a
372.4345	0.12	744869	keystroke_u	u	n/a
