onset	duration	sample	value	key	prompt_text
5.8105	10.227	11621	prompt	n/a	the quick brown fox jumps over a lazy dog\n
7.832	0	15664	keystroke_t	t	n/a
7.86	0.046	15720	keystroke_h	h	n/a
7.92	0.061	15840	keystroke_e	e	n/a
8.055	0.105	16110	keystroke_Key.space	Key.space	n/a
8.565	0.06	17130	keystroke_w	w	n/a
9.136	0.074	18272	keystroke_Key.backspace	Key.backspace	n/a
9.331	0.059	18662	keystroke_q	q	n/a
9.495	0.165	18990	keystroke_u	u	n/a
9.615	0.075	19230	keystroke_i	i	n/a
9.72	0.075	19440	keystroke_c	c	n/a
9.84	0.045	19680	keystroke_k	k	n/a
9.975	0.105	19950	keystroke_Key.space	Key.space	n/a
10.381	0.059	20762	keystroke_b	b	n/a
10.77	0.075	21540	keystroke_r	r	n/a
10.89	0.075	21780	keystroke_o	o	n/a
10.995	0.061	21990	keystroke_w	w	n/a
11.1	0.031	22200	keystroke_n	n	n/a
11.235	0.12	22470	keystroke_Key.space	Key.space	n/a
11.49	0.045	22980	keystroke_f	f	n/a
11.595	0.061	23190	keystroke_o	o	n/a
11.775	0.075	23550	keystroke_x	x	n/a
12.195	0.09	24390	keystroke_Key.space	Key.space	n/a
12.51	0.105	25020	keystroke_j	j	n/a
12.66	0.075	25320	keystroke_u	u	n/a
12.84	0.12	25680	keystroke_m	m	n/a
12.946	0.074	25892	keystroke_p	p	n/a
13.065	0.075	26130	keystroke_s	s	n/a
13.17	0.105	26340	keystroke_Key.space	Key.space	n/a
13.35	0.075	26700	keystroke_o	o	n/a
13.5	0.03	27000	keystroke_v	v	n/a
13.711	0.12	27422	keystroke_e	e	n/a
13.815	0.075	27630	keystroke_r	r	n/a
13.875	0.12	27750	keystroke_Key.space	Key.space	n/a
14.31	0.091	28620	keystroke_a	a	n/a
14.415	0.091	28830	keystroke_Key.space	Key.space	n/a
14.551	0.089	29102	keystroke_l	l	n/a
14.686	0.045	29372	keystroke_a	a	n/a
14.97	0.091	29940	keystroke_z	z	n/a
15.135	0.046	30270	keystroke_y	y	n/a
15.256	0.104	30512	keystroke_Key.space	Key.space	n/a
15.481	0.075	30962	keystroke_d	d	n/a
15.57	0.061	31140	keystroke_o	o	n/a
15.781	0.015	31562	keystroke_g	g	n/a
15.99	0.045	31980	keystroke_Key.enter	Key.enter	n/a
16.0415	10.106	32083	prompt	n/a	programming castle girl honest\n
16.815	0.061	33630	keystroke_p	p	n/a
16.89	0.061	33780	keystroke_r	r	n/a
17.026	0.03	34052	keystroke_o	o	n/a
17.115	0.016	34230	keystroke_g	g	n/a
17.535	0.076	35070	keystroke_r	r	n/a
17.701	0.074	35402	keystroke_a	a	n/a
17.806	0.059	35612	keystroke_m	m	n/a
17.97	0.076	35940	keystroke_m	m	n/a
18.166	0.059	36332	keystroke_i	i	n/a
18.301	0.075	36602	keystroke_n	n	n/a
18.36	0.076	36720	keystroke_g	g	n/a
18.436	0.104	36872	keystroke_Key.space	Key.space	n/a
18.601	0.074	37202	keystroke_c	c	n/a
18.7655	0.0745	37531	keystroke_a	a	n/a
18.945	0.09	37890	keystroke_s	s	n/a
19.141	0.045	38282	keystroke_t	t	n/a
19.321	0.014	38642	keystroke_e	e	n/a
19.426	0.06	38852	keystroke_l	l	n/a
20.34	0.016	40680	keystroke_Key.backspace	Key.backspace	n/a
20.49	0.03	40980	keystroke_Key.backspace	Key.backspace	n/a
21.031	0.105	42062	keystroke_;	;	n/a
21.226	0.045	42452	keystroke_e	e	n/a
21.39	0.075	42780	keystroke_Key.space	Key.space	n/a
22.081	0.044	44162	keystroke_Key.backspace	Key.backspace	n/a
22.245	0.061	44490	keystroke_Key.backspace	Key.backspace	n/a
22.531	0.059	45062	keystroke_Key.backspace	Key.backspace	n/a
23.386	0.06	46772	keystroke_l	l	n/a
23.506	0.06	47012	keystroke_e	e	n/a
24.196	0.104	48392	keystroke_Key.space	Key.space	n/a
24.331	0.075	48662	keystroke_g	g	n/a
24.436	0.075	48872	keystroke_i	i	n/a
24.511	0.045	49022	keystroke_r	r	n/a
24.676	0.03	49352	keystroke_l	l	n/a
24.961	0.06	49922	keystroke_Key.space	Key.space	n/a
25.111	0.105	50222	keystroke_h	h	n/a
25.186	0.104	50372	keystroke_o	o	n/a
25.351	0.075	50702	keystroke_n	n	n/a
25.441	0.045	50882	keystroke_e	e	n/a
25.591	0.09	51182	keystroke_s	s	n/a
25.831	0.045	51662	keystroke_t	t	n/a
26.071	0.075	52142	keystroke_Key.enter	Key.enter	n/a
26.1525	7.0895	52305	prompt	n/a	claim stomach and crossword\n
27.016	0.06	54032	keystroke_c	c	n/a
27.091	0.075	54182	keystroke_l	l	n/a
27.406	0.105	54812	keystroke_a	a	n/a
27.526	0.06	55052	keystroke_i	i	n/a
27.691	0.09	55382	keystroke_m	m	n/a
28.306	0.105	56612	keystroke_Key.space	Key.space	n/a
28.531	0.045	57062	keystroke_s	s	n/a
28.726	0.045	57452	keystroke_t	t	n/a
29.206	0.075	58412	keystroke_o	o	n/a
29.356	0.09	58712	keystroke_m	m	n/a
29.491	0.09	58982	keystroke_a	a	n/a
29.761	0.06	59522	keystroke_c	c	n/a
29.851	0.06	59702	keystroke_h	h	n/a
30.076	0.09	60152	keystroke_Key.space	Key.space	n/a
30.226	0.075	60452	keystroke_a	a	n/a
30.331	0.06	60662	keystroke_n	n	n/a
30.421	0.06	60842	keystroke_d	d	n/a
30.496	0.12	60992	keystroke_Key.space	Key.space	n/a
30.751	0.09	61502	keystroke_c	c	n/a
31.096	0.075	62192	keystroke_r	r	n/a
31.216	0.075	62432	keystroke_o	o	n/a
31.441	0.045	62882	keystroke_s	s	n/a
31.606	0.045	63212	keystroke_s	s	n/a
32.431	0.045	64862	keystroke_w	w	n/a
32.506	0.075	65012	keystroke_o	o	n/a
32.596	0.06	65192	keystroke_r	r	n/a
32.821	0.075	65642	keystroke_d	d	n/a
33.181	0.06	66362	keystroke_Key.enter	Key.enter	n/a
33.2455	8.6525	66491	prompt	n/a	she'll employer juice opening\n
33.886	0.075	67772	keystroke_s	s	n/a
33.976	0.09	67952	keystroke_h	h	n/a
34.081	0.045	68162	keystroke_e	e	n/a
35.251	0.075	70502	keystroke_'	'	n/a
35.536	0.03	71072	keystroke_l	l	n/a
35.671	0.06	71342	keystroke_l	l	n/a
36.016	0.09	72032	keystroke_Key.space	Key.space	n/a
36.181	0.06	72362	keystroke_e	e	n/a
36.256	0.15	72512	keystroke_m	m	n/a
36.436	0.105	72872	keystroke_p	p	n/a
37.381	0.1045	74762	keystroke_l	l	n/a
37.6055	0.075	75211	keystroke_o	o	n/a
38.1455	0.06	76291	keystroke_y	y	n/a
38.2655	0.12	76531	keystroke_e	e	n/a
38.4005	0.06	76801	keystroke_r	r	n/a
38.7005	0.06	77401	keystroke_Key.space	Key.space	n/a
39.1055	0.09	78211	keystroke_j	j	n/a
39.3005	0.045	78601	keystroke_u	u	n/a
39.4655	0.06	78931	keystroke_i	i	n/a
39.5705	0.09	79141	keystroke_c	c	n/a
39.7355	0.06	79471	keystroke_e	e	n/a
40.4255	0.105	80851	keystroke_Key.space	Key.space	n/a
40.5905	0.165	81181	keystroke_o	o	n/a
40.6955	0.12	81391	keystroke_p	p	n/a
40.8305	0.045	81661	keystroke_e	e	n/a
40.9655	0.06	81931	keystroke_n	n	n/a
41.1305	0.09	82261	keystroke_i	i	n/a
41.2805	0.075	82561	keystroke_n	n	n/a
41.4005	0.045	82801	keystroke_g	g	n/a
41.8205	0.075	83641	keystroke_Key.enter	Key.enter	n/a
41.9015	9.866	83803	prompt	n/a	preceding absence dominican webmaster\n
42.5405	0.06	85081	keystroke_p	p	n/a
42.7355	0.045	85471	keystroke_r	r	n/a
42.8555	0.09	85711	keystroke_e	e	n/a
43.1855	0.06	86371	keystroke_c	c	n/a
43.6055	0.06	87211	keystroke_e	e	n/a
43.8155	0.075	87631	keystroke_d	d	n/a
43.9505	0.075	87901	keystroke_i	i	n/a
44.1605	0.045	88321	keystroke_n	n	n/a
44.2355	0.06	88471	keystroke_g	g	n/a
44.3405	0.09	88681	keystroke_Key.space	Key.space	n/a
44.6405	0.09	89281	keystroke_a	a	n/a
44.7155	0.075	89431	keystroke_b	b	n/a
44.9405	0.045	89881	keystroke_s	s	n/a
45.0905	0.045	90181	keystroke_e	e	n/a
45.1805	0.06	90361	keystroke_n	n	n/a
45.5255	0.075	91051	keystroke_c	c	n/a
45.7055	0.06	91411	keystroke_e	e	n/a
46.1705	0.12	92341	keystroke_Key.space	Key.space	n/a
46.3805	0.06	92761	keystroke_d	d	n/a
46.5605	0.06	93121	keystroke_o	o	n/a
46.7255	0.09	93451	keystroke_m	m	n/a
46.8605	0.075	93721	keystroke_i	i	n/a
47.5055	0.03	95011	keystroke_n	n	n/a
47.5955	0.105	95191	keystroke_i	i	n/a
47.7455	0.09	95491	keystroke_c	c	n/a
47.9555	0.105	95911	keystroke_a	a	n/a
48.0455	0.06	96091	keystroke_n	n	n/a
48.1655	0.105	96331	keystroke_Key.space	Key.space	n/a
48.4805	0.06	96961	keystroke_w	w	n/a
48.6155	0.06	97231	keystroke_e	e	n/a
48.7515	0.059	97503	keystroke_b	b	n/a
49.5005	0.105	99001	keystroke_m	m	n/a
49.6515	0.104	99303	keystroke_a	a	n/a
49.8305	0.075	99661	keystroke_s	s	n/a
50.1455	0.12	100291	keystroke_e	e	n/a
50.2205	0.09	100441	keystroke_r	r	n/a
50.7005	0.045	101401	keystroke_Key.backspace	Key.backspace	n/a
51.0155	0.06	102031	keystroke_Key.backspace	Key.backspace	n/a
51.1515	0.075	102303	keystroke_t	t	n/a
51.2705	0.105	102541	keystroke_e	e	n/a
51.3605	0.06	102721	keystroke_r	r	n/a
51.6905	0.075	103381	keystroke_Key.enter	Key.enter	n/a
51.7705	11.503	103541	prompt	n/a	firmware terrain composite liechtenstein\n
52.6055	0.06	105211	keystroke_f	f	n/a
52.7555	0.06	105511	keystroke_i	i	n/a
52.8305	0.046	105661	keystroke_r	r	n/a
52.9815	0.074	105963	keystroke_m	m	n/a
53.4315	0.059	106863	keystroke_w	w	n/a
53.5805	0.09	107161	keystroke_a	a	n/a
53.7305	0.045	107461	keystroke_r	r	n/a
53.7905	0.105	107581	keystroke_e	e	n/a
54.0605	0.12	108121	keystroke_Key.space	Key.space	n/a
54.2105	0.075	108421	keystroke_t	t	n/a
54.3455	0.12	108691	keystroke_e	e	n/a
54.4205	0.09	108841	keystroke_r	r	n/a
54.9015	0.059	109803	keystroke_r	r	n/a
55.0805	0.09	110161	keystroke_a	a	n/a
55.2155	0.061	110431	keystroke_i	i	n/a
55.3805	0.06	110761	keystroke_n	n	n/a
55.5155	0.105	111031	keystroke_Key.space	Key.space	n/a
55.6815	0.059	111363	keystroke_c	c	n/a
55.7855	0.045	111571	keystroke_o	o	n/a
55.8765	0.134	111753	keystroke_m	m	n/a
55.9805	0.105	111961	keystroke_p	p	n/a
56.2355	0.06	112471	keystroke_o	o	n/a
56.4015	0.075	112803	keystroke_s	s	n/a
56.5515	0.045	113103	keystroke_i	i	n/a
56.7155	0.061	113431	keystroke_t	t	n/a
56.8805	0.046	113761	keystroke_e	e	n/a
57.3455	0.12	114691	keystroke_Key.space	Key.space	n/a
57.7655	0.03	115531	keystroke_l	l	n/a
57.9155	0.061	115831	keystroke_i	i	n/a
58.8155	0.03	117631	keystroke_e	e	n/a
59.5055	0.06	119011	keystroke_c	c	n/a
60.5265	0.075	121053	keystroke_h	h	n/a
61.0965	0.045	122193	keystroke_t	t	n/a
61.3655	0.061	122731	keystroke_e	e	n/a
61.4555	0.076	122911	keystroke_n	n	n/a
61.6515	0.059	123303	keystroke_s	s	n/a
61.9515	0.045	123903	keystroke_t	t	n/a
62.1015	0.045	124203	keystroke_e	e	n/a
62.4765	0.09	124953	keystroke_i	i	n/a
62.7315	0.045	125463	keystroke_n	n	n/a
63.2265	0.045	126453	keystroke_Key.enter	Key.enter	n/a
63.2805	7.6565	126561	prompt	n/a	edward advised meyer ended\n
64.1715	0.06	128343	keystroke_e	e	n/a
64.3065	0.045	128613	keystroke_n	n	n/a
64.7715	0.06	129543	keystroke_Key.backspace	Key.backspace	n/a
64.8615	0.074	129723	keystroke_d	d	n/a
65.1465	0.089	130293	keystroke_w	w	n/a
65.2965	0.12	130593	keystroke_a	a	n/a
65.4315	0.06	130863	keystroke_r	r	n/a
65.6415	0.03	131283	keystroke_d	d	n/a
65.9115	0.09	131823	keystroke_Key.space	Key.space	n/a
66.1215	0.03	132243	keystroke_s	s	n/a
66.676	0.075	133352	keystroke_Key.backspace	Key.backspace	n/a
66.856	0.06	133712	keystroke_a	a	n/a
66.991	0.075	133982	keystroke_d	d	n/a
67.186	0.075	134372	keystroke_v	v	n/a
67.351	0.045	134702	keystroke_i	i	n/a
67.546	0.195	135092	keystroke_s	s	n/a
67.9355	0.075	135871	keystroke_e	e	n/a
68.0855	0.045	136171	keystroke_d	d	n/a
68.2655	0.045	136531	keystroke_Key.space	Key.space	n/a
68.4455	0.12	136891	keystroke_m	m	n/a
68.6405	0.075	137281	keystroke_e	e	n/a
68.7755	0.06	137551	keystroke_y	y	n/a
69.0605	0.105	138121	keystroke_e	e	n/a
69.2105	0.06	138421	keystroke_r	r	n/a
69.4355	0.09	138871	keystroke_Key.space	Key.space	n/a
69.8255	0.06	139651	keystroke_e	e	n/a
69.9605	0.06	139921	keystroke_n	n	n/a
70.0355	0.06	140071	keystroke_d	d	n/a
70.2305	0.045	140461	keystroke_e	e	n/a
70.4255	0.09	140851	keystroke_d	d	n/a
70.8755	0.06	141751	keystroke_Key.enter	Key.enter	n/a
70.941	5.366	141882	prompt	n/a	piece product nato carb\n
71.6405	0.06	143281	keystroke_p	p	n/a
71.8505	0.045	143701	keystroke_i	i	n/a
71.9105	0.045	143821	keystroke_e	e	n/a
72.0605	0.075	144121	keystroke_c	c	n/a
72.2105	0.045	144421	keystroke_e	e	n/a
72.4355	0.09	144871	keystroke_Key.space	Key.space	n/a
72.7205	0.075	145441	keystroke_p	p	n/a
72.9005	0.045	145801	keystroke_r	r	n/a
72.9905	0.075	145981	keystroke_o	o	n/a
73.1255	0.045	146251	keystroke_d	d	n/a
73.2305	0.06	146461	keystroke_u	u	n/a
73.3055	0.06	146611	keystroke_c	c	n/a
73.7105	0.03	147421	keystroke_t	t	n/a
73.9055	0.09	147811	keystroke_Key.space	Key.space	n/a
74.1305	0.075	148261	keystroke_n	n	n/a
74.2205	0.105	148441	keystroke_a	a	n/a
74.4155	0.06	148831	keystroke_t	t	n/a
74.6555	0.06	149311	keystroke_o	o	n/a
74.7905	0.12	149581	keystroke_Key.space	Key.space	n/a
75.1205	0.075	150241	keystroke_c	c	n/a
75.3155	0.045	150631	keystroke_a	a	n/a
75.5855	0.03	151171	keystroke_r	r	n/a
75.9305	0.075	151861	keystroke_b	b	n/a
76.2455	0.06	152491	keystroke_Key.enter	Key.enter	n/a
76.3105	8.9075	152621	prompt	n/a	realize pixel unlimited immunology\n
77.0705	0.03	154141	keystroke_r	r	n/a
77.1605	0.075	154321	keystroke_e	e	n/a
77.2655	0.12	154531	keystroke_a	a	n/a
77.4005	0.105	154801	keystroke_l	l	n/a
77.5805	0.105	155161	keystroke_i	i	n/a
77.7605	0.06	155521	keystroke_z	z	n/a
78.0155	0.045	156031	keystroke_e	e	n/a
78.0905	0.105	156181	keystroke_Key.space	Key.space	n/a
78.2555	0.06	156511	keystroke_p	p	n/a
78.4655	0.061	156931	keystroke_i	i	n/a
78.6005	0.105	157201	keystroke_c	c	n/a
78.9005	0.03	157801	keystroke_e	e	n/a
79.1705	0.045	158341	keystroke_Key.backspace	Key.backspace	n/a
79.3055	0.06	158611	keystroke_Key.backspace	Key.backspace	n/a
79.6505	0.075	159301	keystroke_x	x	n/a
80.0105	0.06	160021	keystroke_e	e	n/a
80.1455	0.09	160291	keystroke_l	l	n/a
80.3405	0.105	160681	keystroke_Key.space	Key.space	n/a
80.6105	0.06	161221	keystroke_u	u	n/a
80.7605	0.0905	161521	keystroke_n	n	n/a
80.8805	0.105	161761	keystroke_l	l	n/a
81.0905	0.1045	162181	keystroke_i	i	n/a
81.6155	0.0745	163231	keystroke_m	m	n/a
81.7805	0.06	163561	keystroke_i	i	n/a
81.9905	0.045	163981	keystroke_t	t	n/a
82.125	0.0455	164250	keystroke_e	e	n/a
82.3055	0.0445	164611	keystroke_d	d	n/a
82.365	0.09	164730	keystroke_Key.space	Key.space	n/a
82.53	0.075	165060	keystroke_i	i	n/a
82.726	0.134	165452	keystroke_m	m	n/a
82.98	0.075	165960	keystroke_m	m	n/a
83.235	0.06	166470	keystroke_u	u	n/a
83.37	0.12	166740	keystroke_n	n	n/a
83.5355	0.0895	167071	keystroke_o	o	n/a
83.745	0.076	167490	keystroke_l	l	n/a
83.925	0.076	167850	keystroke_o	o	n/a
84.061	0.0595	168122	keystroke_g	g	n/a
84.165	0.075	168330	keystroke_y	y	n/a
85.155	0.06	170310	keystroke_Key.enter	Key.enter	n/a
85.2205	6.689	170441	prompt	n/a	three pentium surprising pass\n
85.965	0.045	171930	keystroke_t	t	n/a
86.04	0.075	172080	keystroke_h	h	n/a
86.13	0.075	172260	keystroke_r	r	n/a
86.28	0.046	172560	keystroke_e	e	n/a
86.43	0.046	172860	keystroke_e	e	n/a
86.685	0.091	173370	keystroke_Key.space	Key.space	n/a
86.955	0.075	173910	keystroke_p	p	n/a
87.255	0.046	174510	keystroke_e	e	n/a
87.36	0.06	174720	keystroke_n	n	n/a
87.571	0.044	175142	keystroke_t	t	n/a
87.66	0.075	175320	keystroke_i	i	n/a
88.08	0.045	176160	keystroke_u	u	n/a
88.305	0.075	176610	keystroke_m	m	n/a
88.515	0.09	177030	keystroke_Key.space	Key.space	n/a
88.726	0.059	177452	keystroke_s	s	n/a
88.83	0.075	177660	keystroke_u	u	n/a
88.996	0.029	177992	keystroke_r	r	n/a
89.101	0.059	178202	keystroke_p	p	n/a
90.0755	0.045	180151	keystroke_r	r	n/a
90.4955	0.105	180991	keystroke_i	i	n/a
90.5855	0.06	181171	keystroke_s	s	n/a
90.6905	0.06	181381	keystroke_i	i	n/a
90.8405	0.075	181681	keystroke_n	n	n/a
90.9455	0.06	181891	keystroke_g	g	n/a
91.0505	0.06	182101	keystroke_Key.space	Key.space	n/a
91.1405	0.06	182281	keystroke_p	p	n/a
91.2455	0.09	182491	keystroke_a	a	n/a
91.4255	0.06	182851	keystroke_s	s	n/a
91.5905	0.075	183181	keystroke_s	s	n/a
91.8455	0.06	183691	keystroke_Key.enter	Key.enter	n/a
91.9125	6.3245	183825	prompt	n/a	powder broadband tears mile\n
92.5655	0.075	185131	keystroke_p	p	n/a
92.7605	0.06	185521	keystroke_o	o	n/a
92.8355	0.09	185671	keystroke_w	w	n/a
93.3605	0.075	186721	keystroke_d	d	n/a
93.5705	0.135	187141	keystroke_e	e	n/a
93.6905	0.075	187381	keystroke_r	r	n/a
93.8555	0.075	187711	keystroke_Key.space	Key.space	n/a
94.1105	0.06	188221	keystroke_b	b	n/a
94.2905	0.045	188581	keystroke_r	r	n/a
94.3955	0.075	188791	keystroke_o	o	n/a
94.4855	0.105	188971	keystroke_a	a	n/a
94.7105	0.06	189421	keystroke_d	d	n/a
94.9805	0.045	189961	keystroke_b	b	n/a
95.2355	0.06	190471	keystroke_a	a	n/a
95.3255	0.075	190651	keystroke_n	n	n/a
95.4155	0.06	190831	keystroke_d	d	n/a
95.6855	0.075	191371	keystroke_Key.space	Key.space	n/a
95.9555	0.075	191911	keystroke_t	t	n/a
96.1055	0.09	192211	keystroke_e	e	n/a
96.2255	0.15	192451	keystroke_a	a	n/a
96.4355	0.06	192871	keystroke_r	r	n/a
96.7055	0.075	193411	keystroke_s	s	n/a
96.8255	0.105	193651	keystroke_Key.space	Key.space	n/a
97.1405	0.105	194281	keystroke_m	m	n/a
97.3055	0.06	194611	keystroke_i	i	n/a
97.4855	0.06	194971	keystroke_l	l	n/a
97.6055	0.015	195211	keystroke_e	e	n/a
98.1755	0.06	196351	keystroke_Key.enter	Key.enter	n/a
98.24	9.1025	196480	prompt	n/a	pursuit transcription tracked mongolia\n
98.9705	0.06	197941	keystroke_p	p	n/a
99.2105	0.045	198421	keystroke_u	u	n/a
99.3305	0.06	198661	keystroke_r	r	n/a
99.7955	0.06	199591	keystroke_s	s	n/a
99.8855	0.105	199771	keystroke_u	u	n/a
99.9605	0.09	199921	keystroke_i	i	n/a
100.1405	0.03	200281	keystroke_t	t	n/a
100.7705	0.1055	201541	keystroke_Key.space	Key.space	n/a
101.071	0.06	202142	keystroke_r	r	n/a
101.476	0.059	202952	keystroke_Key.backspace	Key.backspace	n/a
101.746	0.075	203492	keystroke_t	t	n/a
101.881	0.075	203762	keystroke_r	r	n/a
101.986	0.12	203972	keystroke_a	a	n/a
102.136	0.075	204272	keystroke_n	n	n/a
102.316	0.045	204632	keystroke_s	s	n/a
102.975	0.09	205950	keystroke_c	c	n/a
103.4405	0.0305	206881	keystroke_r	r	n/a
103.665	0.075	207330	keystroke_i	i	n/a
103.9055	0.105	207811	keystroke_p	p	n/a
104.055	0.045	208110	keystroke_t	t	n/a
104.146	0.119	208292	keystroke_i	i	n/a
104.205	0.106	208410	keystroke_o	o	n/a
104.385	0.075	208770	keystroke_n	n	n/a
104.61	0.09	209220	keystroke_Key.space	Key.space	n/a
104.805	0.045	209610	keystroke_t	t	n/a
104.9105	0.0895	209821	keystroke_r	r	n/a
105.03	0.091	210060	keystroke_a	a	n/a
105.24	0.09	210480	keystroke_c	c	n/a
105.346	0.059	210692	keystroke_k	k	n/a
105.45	0.046	210900	keystroke_e	e	n/a
105.63	0.075	211260	keystroke_d	d	n/a
105.69	0.09	211380	keystroke_Key.space	Key.space	n/a
105.796	0.1195	211592	keystroke_m	m	n/a
105.96	0.075	211920	keystroke_o	o	n/a
106.08	0.091	212160	keystroke_n	n	n/a
106.56	0.045	213120	keystroke_g	g	n/a
106.65	0.075	213300	keystroke_o	o	n/a
106.846	0.059	213692	keystroke_l	l	n/a
107.01	0.046	214020	keystroke_i	i	n/a
107.071	0.104	214142	keystroke_a	a	n/a
107.28	0.06	214560	keystroke_Key.enter	Key.enter	n/a
107.345	6.687	214690	prompt	n/a	society attachments spray mild\n
107.955	0.045	215910	keystroke_s	s	n/a
108.046	0.059	216092	keystroke_o	o	n/a
108.121	0.059	216242	keystroke_c	c	n/a
108.225	0.06	216450	keystroke_i	i	n/a
108.33	0.075	216660	keystroke_e	e	n/a
108.51	0.046	217020	keystroke_t	t	n/a
108.946	0.075	217892	keystroke_y	y	n/a
109.246	0.089	218492	keystroke_Key.space	Key.space	n/a
109.5	0.046	219000	keystroke_a	a	n/a
109.605	0.061	219210	keystroke_t	t	n/a
109.756	0.059	219512	keystroke_t	t	n/a
109.86	0.091	219720	keystroke_a	a	n/a
110.146	0.045	220292	keystroke_c	c	n/a
110.31	0.075	220620	keystroke_h	h	n/a
110.94	0.076	221880	keystroke_m	m	n/a
111.031	0.074	222062	keystroke_e	e	n/a
111.136	0.06	222272	keystroke_n	n	n/a
111.271	0.06	222542	keystroke_t	t	n/a
111.541	0.044	223082	keystroke_s	s	n/a
111.646	0.09	223292	keystroke_Key.space	Key.space	n/a
111.796	0.06	223592	keystroke_s	s	n/a
111.9	0.061	223800	keystroke_p	p	n/a
112.021	0.06	224042	keystroke_r	r	n/a
112.291	0.09	224582	keystroke_a	a	n/a
112.411	0.09	224822	keystroke_y	y	n/a
112.621	0.089	225242	keystroke_Key.space	Key.space	n/a
112.756	0.12	225512	keystroke_m	m	n/a
112.921	0.075	225842	keystroke_i	i	n/a
113.086	0.06	226172	keystroke_l	l	n/a
113.191	0.045	226382	keystroke_d	d	n/a
113.956	0.074	227912	keystroke_Key.enter	Key.enter	n/a
114.035	7.7075	228070	prompt	n/a	placed announced empirical processor\n
114.856	0.075	229712	keystroke_p	p	n/a
115.036	0.09	230072	keystroke_l	l	n/a
115.111	0.075	230222	keystroke_a	a	n/a
115.261	0.105	230522	keystroke_c	c	n/a
115.411	0.06	230822	keystroke_e	e	n/a
115.621	0.03	231242	keystroke_d	d	n/a
115.755	0.106	231510	keystroke_Key.space	Key.space	n/a
116.056	0.045	232112	keystroke_a	a	n/a
116.161	0.03	232322	keystroke_n	n	n/a
116.296	0.06	232592	keystroke_n	n	n/a
116.401	0.075	232802	keystroke_o	o	n/a
116.521	0.06	233042	keystroke_u	u	n/a
116.656	0.075	233312	keystroke_n	n	n/a
116.776	0.09	233552	keystroke_c	c	n/a
116.971	0.06	233942	keystroke_e	e	n/a
117.166	0.045	234332	keystroke_d	d	n/a
117.241	0.09	234482	keystroke_Key.space	Key.space	n/a
117.406	0.06	234812	keystroke_e	e	n/a
117.481	0.12	234962	keystroke_m	m	n/a
117.646	0.075	235292	keystroke_p	p	n/a
118.366	0.044	236732	keystroke_i	i	n/a
118.501	0.045	237002	keystroke_r	r	n/a
118.606	0.045	237212	keystroke_i	i	n/a
118.921	0.06	237842	keystroke_c	c	n/a
119.116	0.075	238232	keystroke_a	a	n/a
119.206	0.105	238412	keystroke_l	l	n/a
119.461	0.105	238922	keystroke_Key.space	Key.space	n/a
119.701	0.06	239402	keystroke_p	p	n/a
119.806	0.075	239612	keystroke_r	r	n/a
119.926	0.06	239852	keystroke_o	o	n/a
120.046	0.09	240092	keystroke_c	c	n/a
120.271	0.06	240542	keystroke_e	e	n/a
120.451	0.045	240902	keystroke_s	s	n/a
120.586	0.075	241172	keystroke_s	s	n/a
120.781	0.06	241562	keystroke_o	o	n/a
120.901	0.045	241802	keystroke_r	r	n/a
121.666	0.075	243332	keystroke_Key.enter	Key.enter	n/a
121.7455	6.3115	243491	prompt	n/a	kick judge they'll fold\n
122.386	0.075	244772	keystroke_k	k	n/a
122.566	0.045	245132	keystroke_i	i	n/a
122.626	0.06	245252	keystroke_c	c	n/a
122.746	0.06	245492	keystroke_k	k	n/a
123.091	0.075	246182	keystroke_Key.space	Key.space	n/a
123.271	0.075	246542	keystroke_j	j	n/a
123.451	0.06	246902	keystroke_u	u	n/a
123.556	0.09	247112	keystroke_d	d	n/a
123.766	0.045	247532	keystroke_g	g	n/a
123.886	0.06	247772	keystroke_e	e	n/a
124.141	0.075	248282	keystroke_Key.space	Key.space	n/a
124.396	0.075	248792	keystroke_t	t	n/a
124.456	0.045	248912	keystroke_h	h	n/a
124.546	0.06	249092	keystroke_e	e	n/a
124.636	0.06	249272	keystroke_y	y	n/a
124.996	0.075	249992	keystroke_'	'	n/a
125.326	0.045	250652	keystroke_l	l	n/a
125.506	0.03	251012	keystroke_l	l	n/a
125.836	0.105	251672	keystroke_Key.space	Key.space	n/a
126.916	0.075	253832	keystroke_f	f	n/a
127.006	0.03	254012	keystroke_o	o	n/a
127.171	0.075	254342	keystroke_l	l	n/a
127.261	0.045	254522	keystroke_d	d	n/a
127.996	0.06	255992	keystroke_Key.enter	Key.enter	n/a
128.0605	7.827	256121	prompt	n/a	caution axis recommendations trend\n
128.881	0.06	257762	keystroke_c	c	n/a
129.061	0.06	258122	keystroke_a	a	n/a
129.151	0.06	258302	keystroke_u	u	n/a
129.376	0.045	258752	keystroke_t	t	n/a
129.406	0.15	258812	keystroke_i	i	n/a
129.496	0.105	258992	keystroke_o	o	n/a
129.706	0.06	259412	keystroke_n	n	n/a
130.141	0.09	260282	keystroke_Key.space	Key.space	n/a
130.321	0.045	260642	keystroke_a	a	n/a
130.516	0.09	261032	keystroke_x	x	n/a
130.636	0.045	261272	keystroke_i	i	n/a
131.056	0.075	262112	keystroke_s	s	n/a
131.701	0.12	263402	keystroke_Key.space	Key.space	n/a
132.031	0.06	264062	keystroke_r	r	n/a
132.136	0.075	264272	keystroke_e	e	n/a
132.316	0.075	264632	keystroke_c	c	n/a
132.436	0.075	264872	keystroke_o	o	n/a
132.646	0.045	265292	keystroke_m	m	n/a
132.796	0.06	265592	keystroke_m	m	n/a
133.2155	0.075	266431	keystroke_e	e	n/a
133.336	0.075	266672	keystroke_n	n	n/a
133.6205	0.045	267241	keystroke_d	d	n/a
133.9205	0.075	267841	keystroke_a	a	n/a
134.101	0.06	268202	keystroke_t	t	n/a
134.1755	0.09	268351	keystroke_i	i	n/a
134.2205	0.075	268441	keystroke_o	o	n/a
134.431	0.0145	268862	keystroke_n	n	n/a
134.4905	0.075	268981	keystroke_s	s	n/a
134.7455	0.075	269491	keystroke_Key.space	Key.space	n/a
134.8655	0.075	269731	keystroke_t	t	n/a
135.0755	0.045	270151	keystroke_r	r	n/a
135.2105	0.045	270421	keystroke_e	e	n/a
135.3605	0.015	270721	keystroke_n	n	n/a
135.4205	0.03	270841	keystroke_d	d	n/a
135.7955	0.09	271591	keystroke_Key.enter	Key.enter	n/a
135.8925	5.545	271785	prompt	n/a	hope spider organ farm\n
136.6355	0.075	273271	keystroke_h	h	n/a
136.8005	0.18	273601	keystroke_o	o	n/a
136.8755	0.12	273751	keystroke_p	p	n/a
137.0105	0.045	274021	keystroke_e	e	n/a
137.5505	0.09	275101	keystroke_Key.space	Key.space	n/a
137.7605	0.075	275521	keystroke_s	s	n/a
137.8505	0.06	275701	keystroke_p	p	n/a
138.0305	0.045	276061	keystroke_i	i	n/a
138.1655	0.06	276331	keystroke_d	d	n/a
138.3455	0.12	276691	keystroke_e	e	n/a
138.4355	0.105	276871	keystroke_r	r	n/a
138.7955	0.105	277591	keystroke_Key.space	Key.space	n/a
138.9305	0.06	277861	keystroke_o	o	n/a
139.0355	0.09	278071	keystroke_r	r	n/a
139.1555	0.06	278311	keystroke_g	g	n/a
139.2755	0.12	278551	keystroke_a	a	n/a
139.4255	0.06	278851	keystroke_n	n	n/a
139.6055	0.105	279211	keystroke_Key.space	Key.space	n/a
139.8305	0.09	279661	keystroke_f	f	n/a
140.1755	0.06	280351	keystroke_a	a	n/a
140.3105	0.06	280621	keystroke_r	r	n/a
140.4305	0.045	280861	keystroke_m	m	n/a
141.3755	0.06	282751	keystroke_Key.enter	Key.enter	n/a
141.4405	11.4415	282881	prompt	n/a	river syracuse yahoo qualify\n
142.2005	0.06	284401	keystroke_r	r	n/a
142.2755	0.09	284551	keystroke_i	i	n/a
142.3665	0.104	284733	keystroke_v	v	n/a
142.5755	0.15	285151	keystroke_e	e	n/a
142.6955	0.06	285391	keystroke_r	r	n/a
143.6405	0.075	287281	keystroke_Key.space	Key.space	n/a
143.8805	0.06	287761	keystroke_s	s	n/a
144.7505	0.06	289501	keystroke_y	y	n/a
145.1855	0.06	290371	keystroke_r	r	n/a
145.9355	0.045	291871	keystroke_v	v	n/a
146.1455	0.06	292291	keystroke_u	u	n/a
146.5805	0.075	293161	keystroke_Key.backspace	Key.backspace	n/a
146.7155	0.09	293431	keystroke_Key.backspace	Key.backspace	n/a
146.8505	0.105	293701	keystroke_a	a	n/a
147.8405	0.045	295681	keystroke_c	c	n/a
147.9305	0.075	295861	keystroke_u	u	n/a
148.1105	0.075	296221	keystroke_s	s	n/a
148.3205	0.03	296641	keystroke_e	e	n/a
148.7705	0.105	297541	keystroke_Key.space	Key.space	n/a
149.0855	0.03	298171	keystroke_y	y	n/a
149.2205	0.09	298441	keystroke_a	a	n/a
149.3255	0.06	298651	keystroke_h	h	n/a
150.1805	0.061	300361	keystroke_o	o	n/a
150.3305	0.075	300661	keystroke_o	o	n/a
150.5255	0.075	301051	keystroke_Key.space	Key.space	n/a
150.9305	0.045	301861	keystroke_q	q	n/a
151.0205	0.09	302041	keystroke_u	u	n/a
151.2005	0.075	302401	keystroke_a	a	n/a
151.3205	0.06	302641	keystroke_l	l	n/a
151.5905	0.045	303181	keystroke_i	i	n/a
152.0705	0.075	304141	keystroke_f	f	n/a
152.1755	0.075	304351	keystroke_y	y	n/a
152.8205	0.06	305641	keystroke_Key.enter	Key.enter	n/a
152.8855	8.3365	305771	prompt	n/a	cleaners atlas generators threshold\n
153.8105	0.075	307621	keystroke_c	c	n/a
153.9155	0.06	307831	keystroke_l	l	n/a
154.0355	0.06	308071	keystroke_e	e	n/a
154.1705	0.075	308341	keystroke_a	a	n/a
154.2915	0.059	308583	keystroke_n	n	n/a
154.5305	0.105	309061	keystroke_e	e	n/a
154.6205	0.075	309241	keystroke_r	r	n/a
154.8455	0.06	309691	keystroke_s	s	n/a
155.1605	0.075	310321	keystroke_Key.space	Key.space	n/a
155.3555	0.075	310711	keystroke_a	a	n/a
155.5665	0.044	311133	keystroke_t	t	n/a
156.0455	0.06	312091	keystroke_l	l	n/a
156.5105	0.106	313021	keystroke_a	a	n/a
156.7355	0.015	313471	keystroke_s	s	n/a
156.7805	0.09	313561	keystroke_Key.space	Key.space	n/a
157.2005	0.06	314401	keystroke_g	g	n/a
157.3205	0.06	314641	keystroke_e	e	n/a
157.4255	0.06	314851	keystroke_n	n	n/a
157.5005	0.135	315001	keystroke_e	e	n/a
157.6205	0.06	315241	keystroke_r	r	n/a
157.8165	0.089	315633	keystroke_a	a	n/a
158.0255	0.06	316051	keystroke_t	t	n/a
158.1755	0.045	316351	keystroke_o	o	n/a
158.8205	0.045	317641	keystroke_r	r	n/a
159.1055	0.045	318211	keystroke_s	s	n/a
159.2405	0.12	318481	keystroke_Key.space	Key.space	n/a
159.4805	0.045	318961	keystroke_t	t	n/a
159.5415	0.059	319083	keystroke_h	h	n/a
159.6455	0.105	319291	keystroke_r	r	n/a
159.7665	0.075	319533	keystroke_e	e	n/a
159.9755	0.06	319951	keystroke_s	s	n/a
160.4265	0.119	320853	keystroke_h	h	n/a
160.5005	0.091	321001	keystroke_o	o	n/a
160.875	0.06	321750	keystroke_l	l	n/a
160.951	0.044	321902	keystroke_d	d	n/a
161.1755	0.0445	322351	keystroke_Key.enter	Key.enter	n/a
161.2255	8.247	322451	prompt	n/a	myself scared cable jacksonville\n
161.761	0.105	323522	keystroke_m	m	n/a
162	0.03	324000	keystroke_y	y	n/a
162.091	0.074	324182	keystroke_s	s	n/a
162.27	0.046	324540	keystroke_e	e	n/a
162.436	0.059	324872	keystroke_l	l	n/a
162.571	0.044	325142	keystroke_f	f	n/a
163.26	0.105	326520	keystroke_Key.space	Key.space	n/a
164.355	0.09	328710	keystroke_s	s	n/a
164.491	0.104	328982	keystroke_c	c	n/a
164.671	0.074	329342	keystroke_a	a	n/a
164.85	0.06	329700	keystroke_r	r	n/a
165.136	0.059	330272	keystroke_e	e	n/a
165.316	0.075	330632	keystroke_d	d	n/a
165.435	0.106	330870	keystroke_Key.space	Key.space	n/a
165.66	0.106	331320	keystroke_c	c	n/a
165.841	0.104	331682	keystroke_a	a	n/a
165.99	0.061	331980	keystroke_b	b	n/a
166.17	0.06	332340	keystroke_l	l	n/a
166.291	0.03	332582	keystroke_e	e	n/a
166.366	0.089	332732	keystroke_Key.space	Key.space	n/a
166.605	0.061	333210	keystroke_j	j	n/a
166.725	0.061	333450	keystroke_a	a	n/a
166.891	0.059	333782	keystroke_c	c	n/a
167.01	0.031	334020	keystroke_k	k	n/a
167.13	0.061	334260	keystroke_s	s	n/a
167.235	0.076	334470	keystroke_o	o	n/a
167.415	0.045	334830	keystroke_n	n	n/a
168.03	0.091	336060	keystroke_v	v	n/a
168.27	0.076	336540	keystroke_i	i	n/a
168.45	0.061	336900	keystroke_l	l	n/a
168.585	0.061	337170	keystroke_l	l	n/a
168.706	0.06	337412	keystroke_e	e	n/a
169.425	0.045	338850	keystroke_Key.enter	Key.enter	n/a
169.476	9.2815	338952	prompt	n/a	vietnam mins wired configurations\n
170.686	0.06	341372	keystroke_v	v	n/a
170.761	0.075	341522	keystroke_i	i	n/a
170.97	0.03	341940	keystroke_t	t	n/a
171.766	0.044	343532	keystroke_Key.backspace	Key.backspace	n/a
171.841	0.075	343682	keystroke_e	e	n/a
172.111	0.075	344222	keystroke_t	t	n/a
172.5	0.061	345000	keystroke_n	n	n/a
172.576	0.09	345152	keystroke_a	a	n/a
172.696	0.06	345392	keystroke_m	m	n/a
173.475	0.106	346950	keystroke_Key.space	Key.space	n/a
173.745	0.076	347490	keystroke_m	m	n/a
173.88	0.076	347760	keystroke_i	i	n/a
174.031	0.06	348062	keystroke_n	n	n/a
174.136	0.075	348272	keystroke_s	s	n/a
174.616	0.12	349232	keystroke_Key.space	Key.space	n/a
174.961	0.075	349922	keystroke_w	w	n/a
175.051	0.075	350102	keystroke_i	i	n/a
175.141	0.09	350282	keystroke_r	r	n/a
175.516	0.059	351032	keystroke_e	e	n/a
175.696	0.075	351392	keystroke_d	d	n/a
175.921	0.105	351842	keystroke_Key.space	Key.space	n/a
176.206	0.09	352412	keystroke_c	c	n/a
176.326	0.075	352652	keystroke_o	o	n/a
176.431	0.075	352862	keystroke_n	n	n/a
176.536	0.075	353072	keystroke_f	f	n/a
176.656	0.045	353312	keystroke_i	i	n/a
176.821	0.03	353642	keystroke_g	g	n/a
176.941	0.03	353882	keystroke_u	u	n/a
177.241	0.06	354482	keystroke_r	r	n/a
177.376	0.105	354752	keystroke_a	a	n/a
177.511	0.105	355022	keystroke_t	t	n/a
177.586	0.15	355172	keystroke_i	i	n/a
177.661	0.09	355322	keystroke_o	o	n/a
177.781	0.09	355562	keystroke_n	n	n/a
177.886	0.03	355772	keystroke_s	s	n/a
178.711	0.045	357422	keystroke_Key.enter	Key.enter	n/a
178.762	9.3555	357524	prompt	n/a	workflow travelling pose utilities\n
179.476	0.045	358952	keystroke_w	w	n/a
179.536	0.075	359072	keystroke_o	o	n/a
179.671	0.045	359342	keystroke_r	r	n/a
179.776	0.075	359552	keystroke_k	k	n/a
180.016	0.06	360032	keystroke_f	f	n/a
180.121	0.06	360242	keystroke_l	l	n/a
180.301	0.045	360602	keystroke_o	o	n/a
180.8255	0.0755	361651	keystroke_w	w	n/a
181.486	0.09	362972	keystroke_Key.space	Key.space	n/a
181.696	0.075	363392	keystroke_t	t	n/a
182.2205	0.015	364441	keystroke_Key.backspace	Key.backspace	n/a
182.881	0.06	365762	keystroke_t	t	n/a
183.046	0.075	366092	keystroke_r	r	n/a
183.166	0.09	366332	keystroke_a	a	n/a
183.376	0.075	366752	keystroke_v	v	n/a
183.526	0.075	367052	keystroke_e	e	n/a
183.646	0.075	367292	keystroke_l	l	n/a
183.811	0.075	367622	keystroke_l	l	n/a
183.976	0.06	367952	keystroke_i	i	n/a
184.126	0.075	368252	keystroke_n	n	n/a
184.231	0.045	368462	keystroke_g	g	n/a
184.306	0.105	368612	keystroke_Key.space	Key.space	n/a
184.441	0.075	368882	keystroke_p	p	n/a
184.636	0.06	369272	keystroke_o	o	n/a
184.711	0.06	369422	keystroke_s	s	n/a
184.876	0.045	369752	keystroke_e	e	n/a
185.101	0.105	370202	keystroke_Key.space	Key.space	n/a
185.341	0.075	370682	keystroke_u	u	n/a
185.461	0.06	370922	keystroke_t	t	n/a
186.016	0.075	372032	keystroke_i	i	n/a
186.241	0.06	372482	keystroke_t	t	n/a
186.346	0.045	372692	keystroke_l	l	n/a
186.736	0.075	373472	keystroke_i	i	n/a
187.036	0.06	374072	keystroke_t	t	n/a
187.126	0.045	374252	keystroke_i	i	n/a
187.231	0.06	374462	keystroke_e	e	n/a
187.396	0.06	374792	keystroke_s	s	n/a
188.041	0.075	376082	keystroke_Key.enter	Key.enter	n/a
188.1205	7.8265	376241	prompt	n/a	strict inputs berlin maiden\n
190.021	0.09	380042	keystroke_s	s	n/a
190.531	0.045	381062	keystroke_t	t	n/a
190.666	0.0295	381332	keystroke_r	r	n/a
190.816	0.0595	381632	keystroke_i	i	n/a
190.8905	0.045	381781	keystroke_c	c	n/a
190.9955	0.03	381991	keystroke_k	k	n/a
191.476	0.045	382952	keystroke_Key.backspace	Key.backspace	n/a
191.566	0.0895	383132	keystroke_t	t	n/a
192.076	0.0895	384152	keystroke_Key.space	Key.space	n/a
192.181	0.0895	384362	keystroke_i	i	n/a
192.316	0.1195	384632	keystroke_n	n	n/a
192.4355	0.1055	384871	keystroke_p	p	n/a
192.6755	0.06	385351	keystroke_u	u	n/a
192.7505	0.075	385501	keystroke_t	t	n/a
192.9605	0.075	385921	keystroke_s	s	n/a
193.0505	0.075	386101	keystroke_Key.space	Key.space	n/a
193.216	0.06	386432	keystroke_b	b	n/a
193.2905	0.09	386581	keystroke_e	e	n/a
193.4105	0.0905	386821	keystroke_r	r	n/a
193.6355	0.0905	387271	keystroke_l	l	n/a
193.831	0.06	387662	keystroke_i	i	n/a
193.996	0.045	387992	keystroke_n	n	n/a
194.431	0.09	388862	keystroke_Key.space	Key.space	n/a
194.6555	0.0905	389311	keystroke_m	m	n/a
194.791	0.075	389582	keystroke_a	a	n/a
194.941	0.045	389882	keystroke_i	i	n/a
195.031	0.06	390062	keystroke_d	d	n/a
195.271	0.03	390542	keystroke_e	e	n/a
195.376	0.045	390752	keystroke_n	n	n/a
195.8855	0.06	391771	keystroke_Key.enter	Key.enter	n/a
195.95	7.9775	391900	prompt	n/a	byte ethnic grenada darwin\n
196.591	0.075	393182	keystroke_b	b	n/a
196.771	0.0745	393542	keystroke_y	y	n/a
197.0555	0.09	394111	keystroke_t	t	n/a
197.2805	0.06	394561	keystroke_e	e	n/a
197.5805	0.12	395161	keystroke_Key.space	Key.space	n/a
197.8505	0.061	395701	keystroke_t	t	n/a
198.5115	0.059	397023	keystroke_Key.backspace	Key.backspace	n/a
198.6155	0.046	397231	keystroke_e	e	n/a
198.8555	0.06	397711	keystroke_t	t	n/a
198.9615	0.059	397923	keystroke_h	h	n/a
199.2905	0.06	398581	keystroke_n	n	n/a
199.4115	0.045	398823	keystroke_i	i	n/a
199.4865	0.059	398973	keystroke_c	c	n/a
199.7115	0.104	399423	keystroke_Key.space	Key.space	n/a
199.9505	0.076	399901	keystroke_g	g	n/a
200.1455	0.0445	400291	keystroke_r	r	n/a
200.25	0.061	400500	keystroke_e	e	n/a
200.581	0.075	401162	keystroke_n	n	n/a
200.715	0.091	401430	keystroke_a	a	n/a
200.866	0.06	401732	keystroke_d	d	n/a
201.106	0.0895	402212	keystroke_a	a	n/a
201.3755	0.0895	402751	keystroke_Key.space	Key.space	n/a
201.601	0.089	403202	keystroke_d	d	n/a
201.7955	0.0905	403591	keystroke_a	a	n/a
202.471	0.075	404942	keystroke_r	r	n/a
203.175	0.061	406350	keystroke_w	w	n/a
203.4	0.061	406800	keystroke_i	i	n/a
203.521	0.075	407042	keystroke_n	n	n/a
203.865	0.06	407730	keystroke_Key.enter	Key.enter	n/a
203.93	6.898	407860	prompt	n/a	executed guitars miles pendant\n
204.615	0.031	409230	keystroke_e	e	n/a
204.811	0.075	409622	keystroke_x	x	n/a
205.006	0.06	410012	keystroke_e	e	n/a
205.141	0.09	410282	keystroke_c	c	n/a
206.086	0.075	412172	keystroke_u	u	n/a
206.206	0.06	412412	keystroke_t	t	n/a
206.371	0.06	412742	keystroke_e	e	n/a
206.551	0.06	413102	keystroke_d	d	n/a
206.641	0.12	413282	keystroke_Key.space	Key.space	n/a
206.851	0.075	413702	keystroke_g	g	n/a
206.956	0.134	413912	keystroke_u	u	n/a
207.046	0.09	414092	keystroke_i	i	n/a
207.226	0.075	414452	keystroke_t	t	n/a
207.466	0.09	414932	keystroke_a	a	n/a
207.661	0.045	415322	keystroke_r	r	n/a
207.856	0.06	415712	keystroke_s	s	n/a
207.976	0.09	415952	keystroke_Key.space	Key.space	n/a
208.126	0.09	416252	keystroke_m	m	n/a
208.261	0.06	416522	keystroke_i	i	n/a
208.426	0.06	416852	keystroke_l	l	n/a
208.516	0.06	417032	keystroke_e	e	n/a
208.681	0.06	417362	keystroke_s	s	n/a
209.191	0.105	418382	keystroke_Key.space	Key.space	n/a
209.476	0.105	418952	keystroke_p	p	n/a
209.656	0.06	419312	keystroke_e	e	n/a
209.791	0.06	419582	keystroke_n	n	n/a
210.016	0.075	420032	keystroke_d	d	n/a
210.211	0.06	420422	keystroke_a	a	n/a
210.391	0.06	420782	keystroke_n	n	n/a
210.481	0.06	420962	keystroke_t	t	n/a
210.766	0.06	421532	keystroke_Key.enter	Key.enter	n/a
210.832	8.7255	421664	prompt	n/a	squad hepatitis violations discovery\n
211.591	0.075	423182	keystroke_s	s	n/a
212.341	0.06	424682	keystroke_q	q	n/a
212.506	0.075	425012	keystroke_u	u	n/a
212.596	0.135	425192	keystroke_a	a	n/a
212.746	0.06	425492	keystroke_r	r	n/a
212.971	0.06	425942	keystroke_d	d	n/a
213.241	0.12	426482	keystroke_Key.space	Key.space	n/a
213.526	0.06	427052	keystroke_h	h	n/a
213.616	0.06	427232	keystroke_e	e	n/a
213.766	0.06	427532	keystroke_p	p	n/a
214.246	0.06	428492	keystroke_a	a	n/a
214.471	0.06	428942	keystroke_t	t	n/a
214.561	0.06	429122	keystroke_i	i	n/a
214.666	0.045	429332	keystroke_t	t	n/a
215.221	0.06	430442	keystroke_i	i	n/a
215.326	0.045	430652	keystroke_s	s	n/a
215.611	0.09	431222	keystroke_Key.space	Key.space	n/a
215.821	0.075	431642	keystroke_v	v	n/a
215.956	0.15	431912	keystroke_i	i	n/a
216.091	0.075	432182	keystroke_o	o	n/a
216.301	0.075	432602	keystroke_l	l	n/a
216.541	0.075	433082	keystroke_a	a	n/a
216.706	0.0605	433412	keystroke_t	t	n/a
216.7665	0.1495	433533	keystroke_i	i	n/a
216.841	0.105	433682	keystroke_o	o	n/a
216.991	0.075	433982	keystroke_n	n	n/a
217.111	0.045	434222	keystroke_s	s	n/a
217.291	0.09	434582	keystroke_Key.space	Key.space	n/a
217.621	0.075	435242	keystroke_d	d	n/a
217.771	0.06	435542	keystroke_i	i	n/a
218.041	0.075	436082	keystroke_s	s	n/a
218.491	0.075	436982	keystroke_c	c	n/a
218.671	0.045	437342	keystroke_o	o	n/a
218.716	0.09	437432	keystroke_v	v	n/a
218.896	0.135	437792	keystroke_e	e	n/a
219.016	0.075	438032	keystroke_r	r	n/a
219.196	0.075	438392	keystroke_y	y	n/a
219.511	0.045	439022	keystroke_Key.enter	Key.enter	n/a
219.561	7.0165	439122	prompt	n/a	primarily cardiac degree i'd\n
220.276	0.075	440552	keystroke_p	p	n/a
220.636	0.03	441272	keystroke_r	r	n/a
220.711	0.09	441422	keystroke_i	i	n/a
220.921	0.06	441842	keystroke_m	m	n/a
221.371	0.075	442742	keystroke_a	a	n/a
221.611	0.045	443222	keystroke_r	r	n/a
221.671	0.075	443342	keystroke_i	i	n/a
221.866	0.06	443732	keystroke_l	l	n/a
222.076	0.06	444152	keystroke_y	y	n/a
222.241	0.105	444482	keystroke_Key.space	Key.space	n/a
222.331	0.105	444662	keystroke_c	c	n/a
222.526	0.03	445052	keystroke_a	a	n/a
222.706	0.045	445412	keystroke_r	r	n/a
222.856	0.045	445712	keystroke_d	d	n/a
222.946	0.075	445892	keystroke_i	i	n/a
223.201	0.06	446402	keystroke_a	a	n/a
223.351	0.06	446702	keystroke_c	c	n/a
223.6805	0.0755	447361	keystroke_Key.space	Key.space	n/a
223.846	0.045	447692	keystroke_d	d	n/a
223.996	0.06	447992	keystroke_e	e	n/a
224.146	0.075	448292	keystroke_g	g	n/a
224.581	0.075	449162	keystroke_r	r	n/a
224.746	0.045	449492	keystroke_e	e	n/a
224.866	0.06	449732	keystroke_e	e	n/a
225.031	0.105	450062	keystroke_Key.space	Key.space	n/a
225.346	0.06	450692	keystroke_i	i	n/a
226.021	0.075	452042	keystroke_'	'	n/a
226.231	0.06	452462	keystroke_d	d	n/a
226.516	0.06	453032	keystroke_Key.enter	Key.enter	n/a
226.5825	7.8705	453165	prompt	n/a	kitty catch hints overall\n
227.356	0.075	454712	keystroke_k	k	n/a
227.536	0.06	455072	keystroke_i	i	n/a
227.641	0.06	455282	keystroke_t	t	n/a
227.776	0.06	455552	keystroke_t	t	n/a
227.866	0.105	455732	keystroke_y	y	n/a
228.256	0.105	456512	keystroke_Key.space	Key.space	n/a
228.676	0.09	457352	keystroke_c	c	n/a
228.811	0.12	457622	keystroke_a	a	n/a
228.976	0.06	457952	keystroke_r	r	n/a
229.231	0.015	458462	keystroke_c	c	n/a
229.711	0.06	459422	keystroke_Key.backspace	Key.backspace	n/a
229.861	0.06	459722	keystroke_Key.backspace	Key.backspace	n/a
230.911	0.06	461822	keystroke_t	t	n/a
231.451	0.06	462902	keystroke_c	c	n/a
231.556	0.09	463112	keystroke_h	h	n/a
231.946	0.09	463892	keystroke_Key.space	Key.space	n/a
232.216	0.105	464432	keystroke_h	h	n/a
232.306	0.075	464612	keystroke_i	i	n/a
232.471	0.045	464942	keystroke_n	n	n/a
232.546	0.075	465092	keystroke_t	t	n/a
232.741	0.075	465482	keystroke_s	s	n/a
232.951	0.105	465902	keystroke_Key.space	Key.space	n/a
233.251	0.075	466502	keystroke_o	o	n/a
233.326	0.075	466652	keystroke_v	v	n/a
233.506	0.105	467012	keystroke_e	e	n/a
233.596	0.075	467192	keystroke_r	r	n/a
233.806	0.105	467612	keystroke_a	a	n/a
233.926	0.045	467852	keystroke_l	l	n/a
234.061	0.06	468122	keystroke_l	l	n/a
234.391	0.06	468782	keystroke_Key.enter	Key.enter	n/a
234.4565	6.266	468913	prompt	n/a	tips shell belfast lesser\n
235.171	0.0595	470342	keystroke_t	t	n/a
235.246	0.0595	470492	keystroke_i	i	n/a
235.4105	0.045	470821	keystroke_p	p	n/a
235.5005	0.06	471001	keystroke_s	s	n/a
235.816	0.075	471632	keystroke_Key.space	Key.space	n/a
236.0255	0.0905	472051	keystroke_s	s	n/a
236.1305	0.06	472261	keystroke_h	h	n/a
236.2355	0.045	472471	keystroke_e	e	n/a
236.371	0.0595	472742	keystroke_l	l	n/a
236.5055	0.075	473011	keystroke_l	l	n/a
236.686	0.1195	473372	keystroke_Key.space	Key.space	n/a
237.5705	0.06	475141	keystroke_b	b	n/a
237.6455	0.045	475291	keystroke_e	e	n/a
237.8105	0.015	475621	keystroke_l	l	n/a
237.9605	0.075	475921	keystroke_f	f	n/a
238.0955	0.09	476191	keystroke_a	a	n/a
238.2755	0.09	476551	keystroke_s	s	n/a
238.4855	0.045	476971	keystroke_t	t	n/a
238.6505	0.105	477301	keystroke_Key.space	Key.space	n/a
238.7705	0.045	477541	keystroke_l	l	n/a
238.8455	0.075	477691	keystroke_e	e	n/a
239.0705	0.03	478141	keystroke_s	s	n/a
239.2355	0.06	478471	keystroke_s	s	n/a
239.8055	0.12	479611	keystroke_e	e	n/a
239.9105	0.06	479821	keystroke_r	r	n/a
240.6605	0.06	481321	keystroke_Key.enter	Key.enter	n/a
240.7255	6.492	481451	prompt	n/a	keyword initially swimming tale\n
241.3815	0.074	482763	keystroke_k	k	n/a
241.5005	0.045	483001	keystroke_e	e	n/a
241.6355	0.06	483271	keystroke_y	y	n/a
241.8005	0.06	483601	keystroke_w	w	n/a
242.1755	0.06	484351	keystroke_o	o	n/a
242.2955	0.045	484591	keystroke_r	r	n/a
242.5505	0.06	485101	keystroke_d	d	n/a
242.7755	0.09	485551	keystroke_Key.space	Key.space	n/a
242.9405	0.075	485881	keystroke_i	i	n/a
243.0905	0.075	486181	keystroke_n	n	n/a
243.2105	0.075	486421	keystroke_i	i	n/a
243.3755	0.045	486751	keystroke_t	t	n/a
244.1105	0.075	488221	keystroke_i	i	n/a
244.2605	0.075	488521	keystroke_a	a	n/a
244.3655	0.03	488731	keystroke_l	l	n/a
244.5005	0.06	489001	keystroke_l	l	n/a
244.7255	0.075	489451	keystroke_y	y	n/a
244.9055	0.075	489811	keystroke_Key.space	Key.space	n/a
244.9205	0.075	489841	keystroke_s	s	n/a
245.3705	0.075	490741	keystroke_w	w	n/a
245.4755	0.075	490951	keystroke_i	i	n/a
245.6555	0.045	491311	keystroke_m	m	n/a
245.7905	0.091	491581	keystroke_m	m	n/a
245.9405	0.091	491881	keystroke_i	i	n/a
246.1055	0.075	492211	keystroke_n	n	n/a
246.1955	0.09	492391	keystroke_g	g	n/a
246.2255	0.12	492451	keystroke_Key.space	Key.space	n/a
246.4055	0.075	492811	keystroke_t	t	n/a
246.5405	0.105	493081	keystroke_a	a	n/a
246.6755	0.0905	493351	keystroke_l	l	n/a
246.8705	0.015	493741	keystroke_e	e	n/a
247.1555	0.06	494311	keystroke_Key.enter	Key.enter	n/a
247.2205	8.247	494441	prompt	n/a	ripe mathematical warm reveals\n
248.3405	0.045	496681	keystroke_r	r	n/a
248.4605	0.06	496921	keystroke_i	i	n/a
248.7305	0.076	497461	keystroke_p	p	n/a
248.8355	0.03	497671	keystroke_e	e	n/a
249.3005	0.075	498601	keystroke_Key.space	Key.space	n/a
249.5565	0.029	499113	keystroke_m	m	n/a
249.7655	0.075	499531	keystroke_a	a	n/a
249.9455	0.06	499891	keystroke_t	t	n/a
250.0205	0.061	500041	keystroke_h	h	n/a
250.1265	0.089	500253	keystroke_e	e	n/a
250.1855	0.09	500371	keystroke_r	r	n/a
250.3955	0.06	500791	keystroke_m	m	n/a
250.5005	0.106	501001	keystroke_a	a	n/a
250.9805	0.075	501961	keystroke_Key.backspace	Key.backspace	n/a
251.1305	0.075	502261	keystroke_Key.backspace	Key.backspace	n/a
251.2955	0.075	502591	keystroke_Key.backspace	Key.backspace	n/a
251.7315	0.074	503463	keystroke_m	m	n/a
251.8655	0.075	503731	keystroke_a	a	n/a
252.0315	0.075	504063	keystroke_t	t	n/a
252.1815	0.045	504363	keystroke_i	i	n/a
252.3155	0.105	504631	keystroke_c	c	n/a
252.5255	0.06	505051	keystroke_a	a	n/a
252.6005	0.076	505201	keystroke_l	l	n/a
252.7205	0.12	505441	keystroke_Key.space	Key.space	n/a
252.8705	0.09	505741	keystroke_w	w	n/a
253.0205	0.105	506041	keystroke_a	a	n/a
253.1855	0.075	506371	keystroke_r	r	n/a
253.3065	0.059	506613	keystroke_m	m	n/a
253.4255	0.135	506851	keystroke_Key.space	Key.space	n/a
253.6815	0.029	507363	keystroke_e	e	n/a
254.0555	0.06	508111	keystroke_Key.backspace	Key.backspace	n/a
254.1165	0.075	508233	keystroke_r	r	n/a
254.2355	0.091	508471	keystroke_e	e	n/a
254.5065	0.045	509013	keystroke_v	v	n/a
254.6405	0.061	509281	keystroke_e	e	n/a
254.7755	0.09	509551	keystroke_a	a	n/a
254.8665	0.06	509733	keystroke_l	l	n/a
255.0015	0.059	510003	keystroke_s	s	n/a
255.3905	0.075	510781	keystroke_Key.enter	Key.enter	n/a
255.471	6.9865	510942	prompt	n/a	rejected federal corner reel\n
256.0965	0.045	512193	keystroke_r	r	n/a
256.1705	0.09	512341	keystroke_e	e	n/a
256.4405	0.106	512881	keystroke_j	j	n/a
256.5315	0.059	513063	keystroke_e	e	n/a
256.8605	0.075	513721	keystroke_c	c	n/a
257.1155	0.046	514231	keystroke_t	t	n/a
257.2355	0.075	514471	keystroke_e	e	n/a
257.4155	0.075	514831	keystroke_d	d	n/a
257.5205	0.105	515041	keystroke_Key.space	Key.space	n/a
257.6705	0.076	515341	keystroke_f	f	n/a
257.9405	0.045	515881	keystroke_r	r	n/a
258.0455	0.061	516091	keystroke_e	e	n/a
258.3755	0.076	516751	keystroke_Key.backspace	Key.backspace	n/a
258.5105	0.09	517021	keystroke_Key.backspace	Key.backspace	n/a
258.6165	0.075	517233	keystroke_e	e	n/a
258.8265	0.059	517653	keystroke_d	d	n/a
259.0215	0.12	518043	keystroke_e	e	n/a
259.1265	0.075	518253	keystroke_r	r	n/a
259.2615	0.105	518523	keystroke_a	a	n/a
259.3815	0.075	518763	keystroke_l	l	n/a
259.5155	0.121	519031	keystroke_Key.space	Key.space	n/a
259.8315	0.075	519663	keystroke_c	c	n/a
259.9365	0.074	519873	keystroke_o	o	n/a
260.0715	0.045	520143	keystroke_r	r	n/a
260.1615	0.045	520323	keystroke_n	n	n/a
260.2965	0.12	520593	keystroke_e	e	n/a
260.4015	0.075	520803	keystroke_r	r	n/a
260.626	0.09	521252	keystroke_Key.space	Key.space	n/a
260.941	0.06	521882	keystroke_r	r	n/a
261.121	0.075	522242	keystroke_e	e	n/a
261.256	0.03	522512	keystroke_l	l	n/a
261.676	0.06	523352	keystroke_Key.backspace	Key.backspace	n/a
261.796	0.045	523592	keystroke_e	e	n/a
261.976	0.06	523952	keystroke_l	l	n/a
262.411	0.045	524822	keystroke_Key.enter	Key.enter	n/a
262.461	8.0815	524922	prompt	n/a	trinity take antarctica silent\n
263.851	0.045	527702	keystroke_t	t	n/a
263.956	0.075	527912	keystroke_r	r	n/a
264.046	0.06	528092	keystroke_i	i	n/a
264.196	0.105	528392	keystroke_n	n	n/a
264.286	0.105	528572	keystroke_i	i	n/a
264.421	0.06	528842	keystroke_t	t	n/a
264.571	0.045	529142	keystroke_y	y	n/a
264.781	0.09	529562	keystroke_Key.space	Key.space	n/a
264.946	0.06	529892	keystroke_t	t	n/a
265.096	0.06	530192	keystroke_a	a	n/a
265.186	0.06	530372	keystroke_k	k	n/a
265.291	0.045	530582	keystroke_e	e	n/a
265.366	0.105	530732	keystroke_Key.space	Key.space	n/a
265.696	0.09	531392	keystroke_a	a	n/a
265.921	0.045	531842	keystroke_n	n	n/a
266.416	0.06	532832	keystroke_t	t	n/a
266.566	0.06	533132	keystroke_a	a	n/a
266.986	0.075	533972	keystroke_r	r	n/a
267.961	0.105	535922	keystroke_c	c	n/a
268.291	0.06	536582	keystroke_t	t	n/a
268.396	0.06	536792	keystroke_i	i	n/a
268.576	0.075	537152	keystroke_c	c	n/a
268.771	0.075	537542	keystroke_a	a	n/a
268.861	0.105	537722	keystroke_Key.space	Key.space	n/a
269.146	0.075	538292	keystroke_s	s	n/a
269.311	0.06	538622	keystroke_i	i	n/a
269.491	0.06	538982	keystroke_l	l	n/a
269.596	0.03	539192	keystroke_e	e	n/a
269.686	0.06	539372	keystroke_n	n	n/a
269.836	0.03	539672	keystroke_t	t	n/a
270.466	0.075	540932	keystroke_Key.enter	Key.enter	n/a
270.546	6.3415	541092	prompt	n/a	much says gift tracked\n
271.216	0.09	542432	keystroke_m	m	n/a
271.411	0.075	542822	keystroke_u	u	n/a
271.486	0.06	542972	keystroke_c	c	n/a
271.576	0.06	543152	keystroke_h	h	n/a
271.696	0.12	543392	keystroke_Key.space	Key.space	n/a
271.801	0.09	543602	keystroke_s	s	n/a
271.966	0.105	543932	keystroke_a	a	n/a
272.072	0.074	544144	keystroke_y	y	n/a
272.176	0.06	544352	keystroke_s	s	n/a
272.311	0.09	544622	keystroke_Key.space	Key.space	n/a
272.566	0.075	545132	keystroke_f	f	n/a
272.716	0.045	545432	keystroke_i	i	n/a
273.166	0.045	546332	keystroke_Key.backspace	Key.backspace	n/a
273.301	0.075	546602	keystroke_Key.backspace	Key.backspace	n/a
273.511	0.045	547022	keystroke_g	g	n/a
273.586	0.06	547172	keystroke_i	i	n/a
273.736	0.075	547472	keystroke_f	f	n/a
274.036	0.045	548072	keystroke_t	t	n/a
274.366	0.075	548732	keystroke_Key.space	Key.space	n/a
274.771	0.075	549542	keystroke_t	t	n/a
274.891	0.075	549782	keystroke_r	r	n/a
274.996	0.12	549992	keystroke_a	a	n/a
275.236	0.06	550472	keystroke_c	c	n/a
275.326	0.075	550652	keystroke_k	k	n/a
275.536	0.045	551072	keystroke_e	e	n/a
275.986	0.06	551972	keystroke_d	d	n/a
276.841	0.045	553682	keystroke_Key.enter	Key.enter	n/a
276.8905	7.542	553781	prompt	n/a	grocery chamber likewise ability\n
278.146	0.0305	556292	keystroke_g	g	n/a
278.206	0.075	556412	keystroke_r	r	n/a
278.341	0.0595	556682	keystroke_o	o	n/a
278.416	0.09	556832	keystroke_c	c	n/a
278.5955	0.12	557191	keystroke_e	e	n/a
278.7005	0.105	557401	keystroke_r	r	n/a
278.7755	0.0905	557551	keystroke_y	y	n/a
279.0005	0.09	558001	keystroke_Key.space	Key.space	n/a
279.1355	0.09	558271	keystroke_c	c	n/a
279.2555	0.06	558511	keystroke_h	h	n/a
279.3755	0.09	558751	keystroke_a	a	n/a
279.541	0.0745	559082	keystroke_m	m	n/a
279.7955	0.03	559591	keystroke_b	b	n/a
279.8855	0.12	559771	keystroke_e	e	n/a
279.9765	0.059	559953	keystroke_r	r	n/a
280.0655	0.09	560131	keystroke_Key.space	Key.space	n/a
280.2305	0.09	560461	keystroke_l	l	n/a
280.3955	0.06	560791	keystroke_i	i	n/a
280.5755	0.045	561151	keystroke_k	k	n/a
280.6655	0.0755	561331	keystroke_e	e	n/a
280.921	0.0595	561842	keystroke_w	w	n/a
281.0265	0.059	562053	keystroke_i	i	n/a
281.1305	0.09	562261	keystroke_s	s	n/a
281.3405	0.045	562681	keystroke_e	e	n/a
281.4005	0.09	562801	keystroke_Key.space	Key.space	n/a
281.5355	0.09	563071	keystroke_a	a	n/a
281.8055	0.075	563611	keystroke_i	i	n/a
282.2105	0.075	564421	keystroke_Key.backspace	Key.backspace	n/a
282.9165	0.075	565833	keystroke_b	b	n/a
283.0665	0.0595	566133	keystroke_i	i	n/a
283.201	0.09	566402	keystroke_l	l	n/a
283.3665	0.075	566733	keystroke_i	i	n/a
283.516	0.06	567032	keystroke_t	t	n/a
283.621	0.045	567242	keystroke_y	y	n/a
284.356	0.075	568712	keystroke_Key.enter	Key.enter	n/a
284.4355	9.777	568871	prompt	n/a	commercial athens calculator carry\n
285.196	0.075	570392	keystroke_c	c	n/a
285.286	0.075	570572	keystroke_o	o	n/a
285.496	0.045	570992	keystroke_m	m	n/a
285.631	0.06	571262	keystroke_m	m	n/a
285.751	0.12	571502	keystroke_e	e	n/a
285.886	0.06	571772	keystroke_r	r	n/a
286.276	0.075	572552	keystroke_c	c	n/a
286.366	0.075	572732	keystroke_i	i	n/a
286.516	0.09	573032	keystroke_a	a	n/a
286.621	0.06	573242	keystroke_l	l	n/a
286.831	0.09	573662	keystroke_Key.space	Key.space	n/a
286.936	0.09	573872	keystroke_a	a	n/a
287.116	0.06	574232	keystroke_t	t	n/a
287.536	0.075	575072	keystroke_h	h	n/a
287.746	0.075	575492	keystroke_e	e	n/a
288.256	0.09	576512	keystroke_n	n	n/a
289.216	0.075	578432	keystroke_s	s	n/a
289.576	0.105	579152	keystroke_Key.space	Key.space	n/a
289.741	0.105	579482	keystroke_c	c	n/a
289.921	0.075	579842	keystroke_a	a	n/a
290.011	0.075	580022	keystroke_l	l	n/a
290.551	0.06	581102	keystroke_c	c	n/a
290.671	0.075	581342	keystroke_u	u	n/a
290.956	0.075	581912	keystroke_l	l	n/a
291.121	0.09	582242	keystroke_a	a	n/a
292.3815	0.06	584763	keystroke_t	t	n/a
292.5615	0.075	585123	keystroke_o	o	n/a
292.6665	0.06	585333	keystroke_r	r	n/a
292.8165	0.105	585633	keystroke_Key.space	Key.space	n/a
293.0115	0.12	586023	keystroke_c	c	n/a
293.2065	0.075	586413	keystroke_a	a	n/a
293.4015	0.045	586803	keystroke_r	r	n/a
293.5365	0.06	587073	keystroke_r	r	n/a
293.7165	0.03	587433	keystroke_y	y	n/a
294.1665	0.045	588333	keystroke_Key.enter	Key.enter	n/a
294.216	8.6815	588432	prompt	n/a	punch perfect distributors harrison\n
294.9765	0.09	589953	keystroke_p	p	n/a
295.1565	0.105	590313	keystroke_u	u	n/a
295.3065	0.06	590613	keystroke_c	c	n/a
295.3965	0.075	590793	keystroke_n	n	n/a
295.9065	0.075	591813	keystroke_Key.backspace	Key.backspace	n/a
296.0565	0.03	592113	keystroke_Key.backspace	Key.backspace	n/a
296.2965	0.06	592593	keystroke_n	n	n/a
296.4315	0.06	592863	keystroke_c	c	n/a
296.5365	0.06	593073	keystroke_h	h	n/a
296.8215	0.09	593643	keystroke_Key.space	Key.space	n/a
297.0765	0.09	594153	keystroke_p	p	n/a
297.1965	0.135	594393	keystroke_e	e	n/a
297.3015	0.105	594603	keystroke_r	r	n/a
297.5865	0.03	595173	keystroke_f	f	n/a
297.6915	0.015	595383	keystroke_e	e	n/a
297.7515	0.105	595503	keystroke_c	c	n/a
298.0515	0.06	596103	keystroke_t	t	n/a
298.1265	0.105	596253	keystroke_Key.space	Key.space	n/a
298.2765	0.06	596553	keystroke_d	d	n/a
298.3515	0.06	596703	keystroke_i	i	n/a
298.4565	0.06	596913	keystroke_s	s	n/a
298.7265	0.075	597453	keystroke_t	t	n/a
298.8465	0.075	597693	keystroke_r	r	n/a
298.9815	0.09	597963	keystroke_i	i	n/a
299.2365	0.06	598473	keystroke_b	b	n/a
299.3865	0.03	598773	keystroke_u	u	n/a
299.5215	0.06	599043	keystroke_t	t	n/a
300.0165	0.075	600033	keystroke_o	o	n/a
300.1215	0.06	600243	keystroke_r	r	n/a
300.3165	0.06	600633	keystroke_s	s	n/a
300.8265	0.105	601653	keystroke_Key.space	Key.space	n/a
301.4865	0.0745	602973	keystroke_h	h	n/a
301.6365	0.0595	603273	keystroke_a	a	n/a
301.7865	0.0595	603573	keystroke_r	r	n/a
301.9065	0.075	603813	keystroke_r	r	n/a
302.1915	0.075	604383	keystroke_i	i	n/a
302.371	0.075	604742	keystroke_s	s	n/a
302.461	0.09	604922	keystroke_o	o	n/a
302.611	0.075	605222	keystroke_n	n	n/a
302.836	0.06	605672	keystroke_Key.enter	Key.enter	n/a
302.9	6.673	605800	prompt	n/a	lace dawn flame participated\n
303.451	0.075	606902	keystroke_l	l	n/a
303.556	0.06	607112	keystroke_a	a	n/a
303.706	0.075	607412	keystroke_c	c	n/a
303.841	0.075	607682	keystroke_e	e	n/a
303.931	0.105	607862	keystroke_Key.space	Key.space	n/a
304.051	0.075	608102	keystroke_d	d	n/a
304.201	0.075	608402	keystroke_a	a	n/a
304.396	0.09	608792	keystroke_w	w	n/a
304.561	0.075	609122	keystroke_n	n	n/a
305.026	0.105	610052	keystroke_Key.space	Key.space	n/a
305.941	0.09	611882	keystroke_f	f	n/a
306.256	0.075	612512	keystroke_l	l	n/a
306.421	0.06	612842	keystroke_a	a	n/a
306.526	0.03	613052	keystroke_m	m	n/a
306.811	0.06	613622	keystroke_e	e	n/a
306.931	0.09	613862	keystroke_Key.space	Key.space	n/a
307.096	0.075	614192	keystroke_p	p	n/a
307.201	0.09	614402	keystroke_a	a	n/a
307.351	0.09	614702	keystroke_r	r	n/a
307.516	0.06	615032	keystroke_t	t	n/a
307.636	0.06	615272	keystroke_i	i	n/a
307.846	0.06	615692	keystroke_c	c	n/a
307.921	0.06	615842	keystroke_i	i	n/a
308.326	0.075	616652	keystroke_p	p	n/a
308.461	0.075	616922	keystroke_a	a	n/a
308.611	0.09	617222	keystroke_t	t	n/a
308.746	0.075	617492	keystroke_e	e	n/a
308.956	0.045	617912	keystroke_d	d	n/a
309.511	0.06	619022	keystroke_Key.enter	Key.enter	n/a
309.5775	7.225	619155	prompt	n/a	greece genealogy states oral\n
310.636	0.045	621272	keystroke_g	g	n/a
310.786	0.075	621572	keystroke_r	r	n/a
310.906	0.06	621812	keystroke_e	e	n/a
311.056	0.075	622112	keystroke_e	e	n/a
311.221	0.105	622442	keystroke_c	c	n/a
311.371	0.06	622742	keystroke_e	e	n/a
311.506	0.105	623012	keystroke_Key.space	Key.space	n/a
311.776	0.045	623552	keystroke_g	g	n/a
311.941	0.03	623882	keystroke_e	e	n/a
312.031	0.045	624062	keystroke_n	n	n/a
312.406	0.045	624812	keystroke_e	e	n/a
313.156	0.12	626312	keystroke_a	a	n/a
313.321	0.075	626642	keystroke_l	l	n/a
313.666	0.075	627332	keystroke_o	o	n/a
314.341	0.075	628682	keystroke_g	g	n/a
314.461	0.12	628922	keystroke_y	y	n/a
314.761	0.105	629522	keystroke_Key.space	Key.space	n/a
315.076	0.076	630152	keystroke_s	s	n/a
315.271	0.06	630542	keystroke_t	t	n/a
315.346	0.12	630692	keystroke_a	a	n/a
315.436	0.09	630872	keystroke_t	t	n/a
315.691	0.015	631382	keystroke_e	e	n/a
315.766	0.075	631532	keystroke_s	s	n/a
315.916	0.075	631832	keystroke_Key.space	Key.space	n/a
316.141	0.045	632282	keystroke_o	o	n/a
316.201	0.06	632402	keystroke_r	r	n/a
316.306	0.105	632612	keystroke_a	a	n/a
316.426	0.075	632852	keystroke_l	l	n/a
316.756	0.045	633512	keystroke_Key.enter	Key.enter	n/a
316.8055	7.227	633611	prompt	n/a	saints important liquid gospel\n
317.626	0.045	635252	keystroke_s	s	n/a
317.806	0.09	635612	keystroke_a	a	n/a
317.956	0.06	635912	keystroke_i	i	n/a
318.091	0.09	636182	keystroke_n	n	n/a
318.241	0.06	636482	keystroke_t	t	n/a
318.421	0.075	636842	keystroke_s	s	n/a
318.646	0.075	637292	keystroke_Key.space	Key.space	n/a
318.841	0.045	637682	keystroke_i	i	n/a
318.991	0.1355	637982	keystroke_m	m	n/a
319.111	0.075	638222	keystroke_p	p	n/a
319.306	0.06	638612	keystroke_o	o	n/a
319.396	0.075	638792	keystroke_r	r	n/a
319.576	0.045	639152	keystroke_t	t	n/a
319.681	0.09	639362	keystroke_a	a	n/a
320.296	0.075	640592	keystroke_n	n	n/a
320.476	0.015	640952	keystroke_t	t	n/a
320.566	0.09	641132	keystroke_Key.space	Key.space	n/a
320.746	0.075	641492	keystroke_l	l	n/a
320.896	0.06	641792	keystroke_i	i	n/a
321.316	0.06	642632	keystroke_q	q	n/a
321.481	0.15	642962	keystroke_u	u	n/a
321.601	0.075	643202	keystroke_i	i	n/a
321.736	0.075	643472	keystroke_d	d	n/a
322.081	0.06	644162	keystroke_Key.space	Key.space	n/a
322.771	0.075	645542	keystroke_g	g	n/a
322.876	0.06	645752	keystroke_o	o	n/a
322.951	0.06	645902	keystroke_s	s	n/a
323.101	0.045	646202	keystroke_p	p	n/a
323.251	0.03	646502	keystroke_e	e	n/a
323.371	0.075	646742	keystroke_l	l	n/a
323.971	0.06	647942	keystroke_Key.enter	Key.enter	n/a
324.036	11.8015	648072	prompt	n/a	cleaner nevertheless black detective\n
324.931	0.075	649862	keystroke_c	c	n/a
325.0505	0.075	650101	keystroke_l	l	n/a
325.141	0.06	650282	keystroke_e	e	n/a
326.9255	0.045	653851	keystroke_a	a	n/a
327.0305	0.06	654061	keystroke_n	n	n/a
327.1205	0.1055	654241	keystroke_e	e	n/a
327.211	0.0745	654422	keystroke_r	r	n/a
327.406	0.0895	654812	keystroke_Key.space	Key.space	n/a
327.5405	0.12	655081	keystroke_m	m	n/a
327.8255	0.06	655651	keystroke_e	e	n/a
327.9905	0.075	655981	keystroke_v	v	n/a
328.3955	0.06	656791	keystroke_Key.backspace	Key.backspace	n/a
328.5455	0.06	657091	keystroke_Key.backspace	Key.backspace	n/a
328.6805	0.09	657361	keystroke_Key.backspace	Key.backspace	n/a
329.3255	0.061	658651	keystroke_n	n	n/a
329.4305	0.06	658861	keystroke_e	e	n/a
329.6105	0.061	659221	keystroke_v	v	n/a
329.7605	0.15	659521	keystroke_e	e	n/a
329.8655	0.09	659731	keystroke_r	r	n/a
330.4655	0.06	660931	keystroke_t	t	n/a
330.5265	0.089	661053	keystroke_h	h	n/a
331.1405	0.06	662281	keystroke_e	e	n/a
331.3055	0.06	662611	keystroke_l	l	n/a
331.3955	0.076	662791	keystroke_e	e	n/a
331.5765	0.0595	663153	keystroke_s	s	n/a
331.741	0.0605	663482	keystroke_s	s	n/a
331.9065	0.0895	663813	keystroke_Key.space	Key.space	n/a
332.146	0.0305	664292	keystroke_b	b	n/a
332.296	0.075	664592	keystroke_l	l	n/a
332.356	0.0455	664712	keystroke_a	a	n/a
332.521	0.0605	665042	keystroke_c	c	n/a
332.626	0.03	665252	keystroke_k	k	n/a
332.761	0.105	665522	keystroke_Key.space	Key.space	n/a
333.226	0.03	666452	keystroke_d	d	n/a
333.376	0.105	666752	keystroke_e	e	n/a
333.541	0.0605	667082	keystroke_t	t	n/a
333.6315	0.1045	667263	keystroke_e	e	n/a
333.856	0.105	667712	keystroke_c	c	n/a
334.201	0.045	668402	keystroke_t	t	n/a
334.366	0.09	668732	keystroke_i	i	n/a
334.546	0.045	669092	keystroke_c	c	n/a
335.161	0.09	670322	keystroke_Key.backspace	Key.backspace	n/a
335.236	0.06	670472	keystroke_v	v	n/a
335.416	0.06	670832	keystroke_e	e	n/a
335.791	0.045	671582	keystroke_Key.enter	Key.enter	n/a
335.8405	7.5275	671681	prompt	n/a	dumb algeria accidents trackback\n
336.706	0.06	673412	keystroke_d	d	n/a
336.916	0.075	673832	keystroke_u	u	n/a
337.111	0.09	674222	keystroke_m	m	n/a
337.381	0.045	674762	keystroke_b	b	n/a
337.531	0.105	675062	keystroke_Key.space	Key.space	n/a
337.756	0.09	675512	keystroke_a	a	n/a
337.801	0.09	675602	keystroke_l	l	n/a
338.191	0.045	676382	keystroke_g	g	n/a
338.371	0.105	676742	keystroke_e	e	n/a
338.461	0.075	676922	keystroke_r	r	n/a
338.611	0.06	677222	keystroke_i	i	n/a
338.821	0.09	677642	keystroke_a	a	n/a
339.421	0.09	678842	keystroke_Key.space	Key.space	n/a
339.631	0.075	679262	keystroke_a	a	n/a
339.856	0.045	679712	keystroke_c	c	n/a
340.006	0.045	680012	keystroke_c	c	n/a
340.231	0.045	680462	keystroke_i	i	n/a
340.441	0.045	680882	keystroke_d	d	n/a
340.726	0.045	681452	keystroke_e	e	n/a
340.921	0.06	681842	keystroke_n	n	n/a
341.026	0.075	682052	keystroke_t	t	n/a
341.236	0.06	682472	keystroke_s	s	n/a
341.461	0.075	682922	keystroke_Key.space	Key.space	n/a
341.671	0.06	683342	keystroke_t	t	n/a
341.776	0.105	683552	keystroke_r	r	n/a
341.911	0.09	683822	keystroke_a	a	n/a
342.151	0.06	684302	keystroke_c	c	n/a
342.256	0.06	684512	keystroke_k	k	n/a
342.466	0.06	684932	keystroke_b	b	n/a
342.676	0.075	685352	keystroke_a	a	n/a
342.901	0.06	685802	keystroke_c	c	n/a
343.006	0.09	686012	keystroke_k	k	n/a
343.321	0.045	686642	keystroke_Key.enter	Key.enter	n/a
343.371	7.467	686742	prompt	n/a	refused highlighted pull eating\n
344.206	0.075	688412	keystroke_r	r	n/a
344.311	0.09	688622	keystroke_e	e	n/a
344.491	0.09	688982	keystroke_f	f	n/a
344.641	0.075	689282	keystroke_u	u	n/a
344.911	0.06	689822	keystroke_s	s	n/a
345.061	0.075	690122	keystroke_e	e	n/a
345.256	0.045	690512	keystroke_d	d	n/a
345.361	0.075	690722	keystroke_Key.space	Key.space	n/a
345.556	0.105	691112	keystroke_h	h	n/a
345.631	0.12	691262	keystroke_i	i	n/a
345.766	0.06	691532	keystroke_g	g	n/a
345.871	0.06	691742	keystroke_h	h	n/a
346.171	0.09	692342	keystroke_l	l	n/a
346.336	0.105	692672	keystroke_i	i	n/a
346.456	0.06	692912	keystroke_g	g	n/a
346.546	0.06	693092	keystroke_h	h	n/a
346.651	0.06	693302	keystroke_t	t	n/a
346.786	0.075	693572	keystroke_e	e	n/a
346.996	0.045	693992	keystroke_d	d	n/a
348.106	0.09	696212	keystroke_Key.space	Key.space	n/a
348.481	0.09	696962	keystroke_p	p	n/a
348.706	0.075	697412	keystroke_u	u	n/a
348.946	0.045	697892	keystroke_l	l	n/a
349.051	0.075	698102	keystroke_l	l	n/a
349.186	0.105	698372	keystroke_Key.space	Key.space	n/a
349.816	0.09	699632	keystroke_e	e	n/a
349.981	0.075	699962	keystroke_a	a	n/a
350.296	0.06	700592	keystroke_t	t	n/a
350.386	0.06	700772	keystroke_i	i	n/a
350.506	0.09	701012	keystroke_n	n	n/a
350.596	0.06	701192	keystroke_g	g	n/a
350.776	0.06	701552	keystroke_Key.enter	Key.enter	n/a
350.8405	5.6975	701681	prompt	n/a	not hereby walls additionally\n
351.481	0.075	702962	keystroke_n	n	n/a
351.616	0.09	703232	keystroke_o	o	n/a
351.736	0.075	703472	keystroke_t	t	n/a
351.826	0.075	703652	keystroke_Key.space	Key.space	n/a
351.976	0.075	703952	keystroke_h	h	n/a
352.066	0.12	704132	keystroke_e	e	n/a
352.171	0.06	704342	keystroke_r	r	n/a
352.636	0.045	705272	keystroke_e	e	n/a
352.846	0.06	705692	keystroke_b	b	n/a
353.011	0.06	706022	keystroke_y	y	n/a
353.191	0.12	706382	keystroke_Key.space	Key.space	n/a
353.701	0.075	707402	keystroke_w	w	n/a
353.836	0.09	707672	keystroke_a	a	n/a
353.941	0.03	707882	keystroke_l	l	n/a
354.061	0.075	708122	keystroke_l	l	n/a
354.166	0.09	708332	keystroke_s	s	n/a
354.286	0.06	708572	keystroke_Key.space	Key.space	n/a
354.511	0.06	709022	keystroke_a	a	n/a
354.691	0.06	709382	keystroke_d	d	n/a
354.841	0.06	709682	keystroke_d	d	n/a
354.961	0.06	709922	keystroke_i	i	n/a
355.141	0.06	710282	keystroke_t	t	n/a
355.216	0.135	710432	keystroke_i	i	n/a
355.276	0.105	710552	keystroke_o	o	n/a
355.441	0.075	710882	keystroke_n	n	n/a
355.546	0.09	711092	keystroke_a	a	n/a
355.651	0.06	711302	keystroke_l	l	n/a
355.771	0.075	711542	keystroke_l	l	n/a
356.011	0.06	712022	keystroke_y	y	n/a
356.461	0.075	712922	keystroke_Key.enter	Key.enter	n/a
356.5405	7.0475	713081	prompt	n/a	ebay framed sunrise based\n
357.242	0.044	714484	keystroke_e	e	n/a
357.586	0.015	715172	keystroke_b	b	n/a
357.691	0.105	715382	keystroke_a	a	n/a
357.826	0.075	715652	keystroke_y	y	n/a
358.111	0.105	716222	keystroke_Key.space	Key.space	n/a
358.606	0.045	717212	keystroke_g	g	n/a
358.726	0.06	717452	keystroke_r	r	n/a
359.116	0.075	718232	keystroke_Key.backspace	Key.backspace	n/a
359.236	0.09	718472	keystroke_Key.backspace	Key.backspace	n/a
359.371	0.075	718742	keystroke_f	f	n/a
359.551	0.06	719102	keystroke_r	r	n/a
360.166	0.075	720332	keystroke_a	a	n/a
360.256	0.09	720512	keystroke_m	m	n/a
360.361	0.075	720722	keystroke_e	e	n/a
360.556	0.075	721112	keystroke_d	d	n/a
360.661	0.09	721322	keystroke_Key.space	Key.space	n/a
360.796	0.06	721592	keystroke_s	s	n/a
360.901	0.075	721802	keystroke_u	u	n/a
361.081	0.06	722162	keystroke_n	n	n/a
361.201	0.075	722402	keystroke_r	r	n/a
361.336	0.045	722672	keystroke_i	i	n/a
361.426	0.06	722852	keystroke_s	s	n/a
361.606	0.03	723212	keystroke_e	e	n/a
361.696	0.09	723392	keystroke_Key.space	Key.space	n/a
361.921	0.075	723842	keystroke_b	b	n/a
361.997	0.089	723994	keystroke_a	a	n/a
362.161	0.09	724322	keystroke_s	s	n/a
362.371	0.045	724742	keystroke_e	e	n/a
362.611	0.06	725222	keystroke_d	d	n/a
363.526	0.0595	727052	keystroke_Key.enter	Key.enter	n/a
363.5905	7.1675	727181	prompt	n/a	division recreational spreading herb\n
364.456	0.0445	728912	keystroke_d	d	n/a
364.561	0.0745	729122	keystroke_i	i	n/a
364.7255	0.045	729451	keystroke_v	v	n/a
364.8165	0.0595	729633	keystroke_i	i	n/a
365.026	0.06	730052	keystroke_s	s	n/a
365.1165	0.119	730233	keystroke_i	i	n/a
365.1915	0.075	730383	keystroke_o	o	n/a
365.3705	0.0605	730741	keystroke_n	n	n/a
365.5505	0.1055	731101	keystroke_Key.space	Key.space	n/a
365.7755	0.0455	731551	keystroke_r	r	n/a
365.8665	0.089	731733	keystroke_e	e	n/a
366.0455	0.075	732091	keystroke_c	c	n/a
366.3005	0.09	732601	keystroke_r	r	n/a
366.4055	0.075	732811	keystroke_e	e	n/a
366.8705	0.09	733741	keystroke_a	a	n/a
367.0055	0.09	734011	keystroke_t	t	n/a
367.1105	0.105	734221	keystroke_i	i	n/a
367.1705	0.075	734341	keystroke_o	o	n/a
367.3205	0.06	734641	keystroke_n	n	n/a
367.3955	0.075	734791	keystroke_a	a	n/a
367.4855	0.09	734971	keystroke_l	l	n/a
367.6205	0.105	735241	keystroke_Key.space	Key.space	n/a
367.9505	0.075	735901	keystroke_s	s	n/a
368.1005	0.091	736201	keystroke_p	p	n/a
368.2355	0.045	736471	keystroke_r	r	n/a
368.3255	0.091	736651	keystroke_e	e	n/a
368.4755	0.091	736951	keystroke_a	a	n/a
368.6415	0.075	737283	keystroke_d	d	n/a
368.7305	0.075	737461	keystroke_i	i	n/a
368.8805	0.075	737761	keystroke_n	n	n/a
368.9705	0.075	737941	keystroke_g	g	n/a
369.0005	0.105	738001	keystroke_Key.space	Key.space	n/a
369.3915	0.059	738783	keystroke_h	h	n/a
369.7805	0.075	739561	keystroke_e	e	n/a
369.9165	0.075	739833	keystroke_r	r	n/a
370.0355	0.045	740071	keystroke_b	b	n/a
370.6805	0.075	741361	keystroke_Key.enter	Key.enter	n/a
370.7605	6.1325	741521	prompt	n/a	logitech kits slides loud\n
371.4455	0.09	742891	keystroke_l	l	n/a
371.6555	0.075	743311	keystroke_o	o	n/a
371.7765	0.059	743553	keystroke_g	g	n/a
371.8805	0.061	743761	keystroke_i	i	n/a
372.3455	0.075	744691	keystroke_t	t	n/a
372.5255	0.075	745051	keystroke_e	e	n/a
372.7205	0.06	745441	keystroke_c	c	n/a
372.8555	0.061	745711	keystroke_h	h	n/a
373.0205	0.105	746041	keystroke_Key.space	Key.space	n/a
373.1415	0.075	746283	keystroke_k	k	n/a
373.2915	0.075	746583	keystroke_i	i	n/a
373.3955	0.06	746791	keystroke_t	t	n/a
373.6205	0.06	747241	keystroke_s	s	n/a
374.1605	0.075	748321	keystroke_Key.space	Key.space	n/a
374.5355	0.076	749071	keystroke_s	s	n/a
374.5955	0.076	749191	keystroke_l	l	n/a
374.7755	0.045	749551	keystroke_i	i	n/a
374.8665	0.059	749733	keystroke_d	d	n/a
375.0305	0.045	750061	keystroke_e	e	n/a
375.1805	0.061	750361	keystroke_s	s	n/a
375.2705	0.105	750541	keystroke_Key.space	Key.space	n/a
375.4055	0.091	750811	keystroke_l	l	n/a
375.5715	0.09	751143	keystroke_o	o	n/a
375.7505	0.061	751501	keystroke_u	u	n/a
375.8265	0.06	751653	keystroke_d	d	n/a
375.9915	0.059	751983	keystroke_s	s	n/a
376.5455	0.075	753091	keystroke_Key.backspace	Key.backspace	n/a
376.8605	0.031	753721	keystroke_Key.enter	Key.enter	n/a
376.8955	11.727	753791	prompt	n/a	cable solar commissioners thailand\n
378.1815	0.044	756363	keystroke_c	c	n/a
378.3305	0.075	756661	keystroke_a	a	n/a
378.5565	0.06	757113	keystroke_b	b	n/a
378.7055	0.076	757411	keystroke_l	l	n/a
378.7965	0.045	757593	keystroke_e	e	n/a
378.9165	0.089	757833	keystroke_Key.space	Key.space	n/a
379.1255	0.076	758251	keystroke_s	s	n/a
379.2615	0.045	758523	keystroke_o	o	n/a
379.4415	0.045	758883	keystroke_l	l	n/a
379.5615	0.075	759123	keystroke_a	a	n/a
379.7265	0.045	759453	keystroke_r	r	n/a
380.4755	0.016	760951	keystroke_Key.space	Key.space	n/a
380.5055	0.075	761011	keystroke_s	s	n/a
380.6115	0.06	761223	keystroke_o	o	n/a
380.8515	0.015	761703	keystroke_m	m	n/a
380.9715	0.074	761943	keystroke_m	m	n/a
381.1965	0.06	762393	keystroke_i	i	n/a
382.3515	0.06	764703	keystroke_Key.backspace	Key.backspace	n/a
382.5015	0.09	765003	keystroke_Key.backspace	Key.backspace	n/a
382.6665	0.075	765333	keystroke_Key.backspace	Key.backspace	n/a
382.8305	0.061	765661	keystroke_Key.backspace	Key.backspace	n/a
382.9965	0.045	765993	keystroke_Key.backspace	Key.backspace	n/a
383.2215	0.075	766443	keystroke_c	c	n/a
383.3115	0.075	766623	keystroke_o	o	n/a
383.4765	0.06	766953	keystroke_m	m	n/a
383.6415	0.045	767283	keystroke_m	m	n/a
384.0015	0.06	768003	keystroke_i	i	n/a
384.7965	0.09	769593	keystroke_s	s	n/a
384.9315	0.06	769863	keystroke_i	i	n/a
385.2915	0.06	770583	keystroke_Key.backspace	Key.backspace	n/a
385.3965	0.075	770793	keystroke_s	s	n/a
385.5915	0.165	771183	keystroke_i	i	n/a
385.6965	0.105	771393	keystroke_o	o	n/a
385.8765	0.075	771753	keystroke_n	n	n/a
386.5065	0.105	773013	keystroke_e	e	n/a
386.5965	0.09	773193	keystroke_r	r	n/a
386.8215	0.0745	773643	keystroke_s	s	n/a
386.941	0.06	773882	keystroke_Key.space	Key.space	n/a
387.196	0.075	774392	keystroke_t	t	n/a
387.271	0.09	774542	keystroke_h	h	n/a
387.541	0.075	775082	keystroke_a	a	n/a
387.676	0.015	775352	keystroke_i	i	n/a
387.931	0.075	775862	keystroke_l	l	n/a
388.051	0.06	776102	keystroke_a	a	n/a
388.156	0.06	776312	keystroke_n	n	n/a
388.246	0.045	776492	keystroke_d	d	n/a
388.561	0.06	777122	keystroke_Key.enter	Key.enter	n/a
388.628	6.8495	777256	prompt	n/a	edgar recipes manner beverages\n
389.356	0.075	778712	keystroke_e	e	n/a
389.551	0.06	779102	keystroke_d	d	n/a
389.761	0.045	779522	keystroke_g	g	n/a
389.881	0.09	779762	keystroke_a	a	n/a
390.016	0.06	780032	keystroke_r	r	n/a
390.211	0.09	780422	keystroke_Key.space	Key.space	n/a
390.436	0.06	780872	keystroke_r	r	n/a
390.541	0.075	781082	keystroke_e	e	n/a
391.651	0.06	783302	keystroke_c	c	n/a
391.816	0.09	783632	keystroke_i	i	n/a
391.981	0.075	783962	keystroke_p	p	n/a
392.176	0.061	784352	keystroke_e	e	n/a
392.341	0.06	784682	keystroke_s	s	n/a
392.446	0.09	784892	keystroke_Key.space	Key.space	n/a
392.626	0.075	785252	keystroke_m	m	n/a
392.686	0.105	785372	keystroke_a	a	n/a
392.866	0.03	785732	keystroke_n	n	n/a
392.971	0.075	785942	keystroke_n	n	n/a
393.121	0.15	786242	keystroke_e	e	n/a
393.226	0.075	786452	keystroke_r	r	n/a
393.331	0.105	786662	keystroke_Key.space	Key.space	n/a
393.751	0.045	787502	keystroke_b	b	n/a
393.841	0.06	787682	keystroke_e	e	n/a
394.006	0.06	788012	keystroke_v	v	n/a
394.171	0.105	788342	keystroke_e	e	n/a
394.261	0.075	788522	keystroke_r	r	n/a
394.411	0.105	788822	keystroke_a	a	n/a
394.531	0.09	789062	keystroke_g	g	n/a
394.681	0.075	789362	keystroke_e	e	n/a
394.846	0.06	789692	keystroke_s	s	n/a
395.416	0.06	790832	keystroke_Key.enter	Key.enter	n/a
395.4805	6.522	790961	prompt	n/a	widely invision perhaps choosing\n
396.361	0.075	792722	keystroke_w	w	n/a
396.481	0.075	792962	keystroke_i	i	n/a
396.571	0.075	793142	keystroke_d	d	n/a
396.766	0.045	793532	keystroke_e	e	n/a
396.856	0.045	793712	keystroke_l	l	n/a
397.636	0.075	795272	keystroke_y	y	n/a
397.831	0.105	795662	keystroke_Key.space	Key.space	n/a
398.011	0.075	796022	keystroke_i	i	n/a
398.161	0.09	796322	keystroke_n	n	n/a
398.326	0.075	796652	keystroke_v	v	n/a
398.431	0.075	796862	keystroke_i	i	n/a
398.566	0.09	797132	keystroke_s	s	n/a
398.746	0.15	797492	keystroke_i	i	n/a
398.837	0.104	797674	keystroke_o	o	n/a
399.031	0.09	798062	keystroke_n	n	n/a
399.181	0.105	798362	keystroke_Key.space	Key.space	n/a
399.541	0.075	799082	keystroke_p	p	n/a
399.646	0.09	799292	keystroke_e	e	n/a
399.721	0.06	799442	keystroke_r	r	n/a
399.811	0.09	799622	keystroke_h	h	n/a
399.902	0.089	799804	keystroke_a	a	n/a
400.006	0.06	800012	keystroke_p	p	n/a
400.141	0.075	800282	keystroke_s	s	n/a
400.531	0.06	801062	keystroke_Key.space	Key.space	n/a
400.831	0.03	801662	keystroke_c	c	n/a
400.906	0.106	801812	keystroke_h	h	n/a
401.026	0.075	802052	keystroke_o	o	n/a
401.191	0.09	802382	keystroke_o	o	n/a
401.296	0.09	802592	keystroke_s	s	n/a
401.401	0.075	802802	keystroke_i	i	n/a
401.551	0.075	803102	keystroke_n	n	n/a
401.656	0.045	803312	keystroke_g	g	n/a
401.926	0.075	803852	keystroke_Key.enter	Key.enter	n/a
402.0055	11.817	804011	prompt	n/a	decreased longitude architecture britney\n
402.737	0.075	805474	keystroke_d	d	n/a
402.916	0.06	805832	keystroke_e	e	n/a
403.081	0.09	806162	keystroke_c	c	n/a
403.321	0.06	806642	keystroke_r	r	n/a
403.411	0.105	806822	keystroke_e	e	n/a
403.636	0.135	807272	keystroke_a	a	n/a
403.816	0.09	807632	keystroke_s	s	n/a
403.981	0.075	807962	keystroke_e	e	n/a
404.176	0.075	808352	keystroke_d	d	n/a
404.281	0.135	808562	keystroke_Key.space	Key.space	n/a
404.462	0.104	808924	keystroke_l	l	n/a
404.791	0.075	809582	keystroke_o	o	n/a
404.926	0.075	809852	keystroke_n	n	n/a
405.031	0.06	810062	keystroke_g	g	n/a
405.391	0.0295	810782	keystroke_i	i	n/a
405.9615	0.074	811923	keystroke_t	t	n/a
406.096	0.0605	812192	keystroke_i	i	n/a
406.3365	0.045	812673	keystroke_u	u	n/a
407.221	0.0755	814442	keystroke_Key.backspace	Key.backspace	n/a
407.371	0.09	814742	keystroke_Key.backspace	Key.backspace	n/a
407.671	0.045	815342	keystroke_u	u	n/a
407.761	0.09	815522	keystroke_d	d	n/a
407.971	0.06	815942	keystroke_e	e	n/a
408.106	0.09	816212	keystroke_Key.space	Key.space	n/a
408.436	0.105	816872	keystroke_a	a	n/a
408.556	0.09	817112	keystroke_r	r	n/a
408.826	0.075	817652	keystroke_c	c	n/a
408.931	0.12	817862	keystroke_h	h	n/a
409.051	0.105	818102	keystroke_i	i	n/a
409.276	0.06	818552	keystroke_t	t	n/a
409.411	0.135	818822	keystroke_e	e	n/a
409.501	0.075	819002	keystroke_r	r	n/a
409.876	0.09	819752	keystroke_Key.backspace	Key.backspace	n/a
410.041	0.075	820082	keystroke_c	c	n/a
410.341	0.045	820682	keystroke_t	t	n/a
410.401	0.06	820802	keystroke_u	u	n/a
410.476	0.06	820952	keystroke_r	r	n/a
410.581	0.075	821162	keystroke_e	e	n/a
411.136	0.09	822272	keystroke_Key.space	Key.space	n/a
411.391	0.06	822782	keystroke_b	b	n/a
411.496	0.03	822992	keystroke_r	r	n/a
411.631	0.045	823262	keystroke_i	i	n/a
411.976	0.045	823952	keystroke_t	t	n/a
412.351	0.075	824702	keystroke_n	n	n/a
412.486	0.06	824972	keystroke_e	e	n/a
412.621	0.075	825242	keystroke_y	y	n/a
413.761	0.06	827522	keystroke_Key.enter	Key.enter	n/a
413.825	8.5625	827650	prompt	n/a	profession connectors that'll dale\n
414.811	0.06	829622	keystroke_p	p	n/a
414.991	0.045	829982	keystroke_r	r	n/a
415.096	0.06	830192	keystroke_e	e	n/a
415.711	0.045	831422	keystroke_Key.backspace	Key.backspace	n/a
415.936	0.045	831872	keystroke_o	o	n/a
416.161	0.075	832322	keystroke_f	f	n/a
416.386	0.045	832772	keystroke_e	e	n/a
416.581	0.075	833162	keystroke_s	s	n/a
416.731	0.135	833462	keystroke_s	s	n/a
416.851	0.09	833702	keystroke_i	i	n/a
416.881	0.09	833762	keystroke_o	o	n/a
417.031	0.075	834062	keystroke_n	n	n/a
417.211	0.09	834422	keystroke_Key.space	Key.space	n/a
417.511	0.075	835022	keystroke_c	c	n/a
417.587	0.074	835174	keystroke_o	o	n/a
417.736	0.06	835472	keystroke_n	n	n/a
417.871	0.075	835742	keystroke_n	n	n/a
417.991	0.075	835982	keystroke_e	e	n/a
418.156	0.06	836312	keystroke_c	c	n/a
418.411	0.075	836822	keystroke_t	t	n/a
418.576	0.06	837152	keystroke_o	o	n/a
418.621	0.075	837242	keystroke_r	r	n/a
418.816	0.075	837632	keystroke_s	s	n/a
418.936	0.09	837872	keystroke_Key.space	Key.space	n/a
419.101	0.09	838202	keystroke_t	t	n/a
419.161	0.09	838322	keystroke_h	h	n/a
419.416	0.09	838832	keystroke_a	a	n/a
419.491	0.09	838982	keystroke_t	t	n/a
419.851	0.06	839702	keystroke_'	'	n/a
420.196	0.045	840392	keystroke_l	l	n/a
420.346	0.075	840692	keystroke_l	l	n/a
420.646	0.09	841292	keystroke_Key.space	Key.space	n/a
420.796	0.09	841592	keystroke_d	d	n/a
421.051	0.06	842102	keystroke_a	a	n/a
421.216	0.045	842432	keystroke_l	l	n/a
421.321	0.045	842642	keystroke_e	e	n/a
422.341	0.045	844682	keystroke_Key.enter	Key.enter	n/a
422.391	7.062	844782	prompt	n/a	pure tiffany stores readers\n
423.196	0.09	846392	keystroke_p	p	n/a
423.466	0.06	846932	keystroke_u	u	n/a
423.571	0.03	847142	keystroke_r	r	n/a
423.721	0.06	847442	keystroke_e	e	n/a
423.871	0.075	847742	keystroke_Key.space	Key.space	n/a
424.486	0.045	848972	keystroke_t	t	n/a
424.861	0.06	849722	keystroke_i	i	n/a
425.056	0.075	850112	keystroke_n	n	n/a
425.461	0.06	850922	keystroke_Key.backspace	Key.backspace	n/a
425.581	0.045	851162	keystroke_f	f	n/a
425.746	0.03	851492	keystroke_f	f	n/a
426.226	0.075	852452	keystroke_a	a	n/a
426.331	0.06	852662	keystroke_n	n	n/a
426.571	0.045	853142	keystroke_y	y	n/a
426.706	0.105	853412	keystroke_Key.space	Key.space	n/a
426.796	0.075	853592	keystroke_s	s	n/a
426.976	0.06	853952	keystroke_t	t	n/a
427.066	0.06	854132	keystroke_o	o	n/a
427.411	0.06	854822	keystroke_r	r	n/a
427.561	0.06	855122	keystroke_e	e	n/a
427.741	0.045	855482	keystroke_s	s	n/a
427.831	0.12	855662	keystroke_Key.space	Key.space	n/a
428.086	0.045	856172	keystroke_r	r	n/a
428.176	0.075	856352	keystroke_e	e	n/a
428.296	0.075	856592	keystroke_a	a	n/a
428.461	0.06	856922	keystroke_d	d	n/a
428.626	0.12	857252	keystroke_e	e	n/a
428.716	0.075	857432	keystroke_r	r	n/a
428.881	0.105	857762	keystroke_s	s	n/a
429.391	0.06	858782	keystroke_Key.enter	Key.enter	n/a
429.4565	7.961	858913	prompt	n/a	blade recover disease prescription\n
430.201	0.045	860402	keystroke_b	b	n/a
430.351	0.06	860702	keystroke_l	l	n/a
430.501	0.045	861002	keystroke_a	a	n/a
430.681	0.09	861362	keystroke_d	d	n/a
430.861	0.045	861722	keystroke_e	e	n/a
431.011	0.105	862022	keystroke_Key.space	Key.space	n/a
431.191	0.075	862382	keystroke_r	r	n/a
431.296	0.09	862592	keystroke_e	e	n/a
431.476	0.075	862952	keystroke_c	c	n/a
431.611	0.09	863222	keystroke_o	o	n/a
431.746	0.075	863492	keystroke_v	v	n/a
431.926	0.135	863852	keystroke_e	e	n/a
432.031	0.06	864062	keystroke_r	r	n/a
432.151	0.09	864302	keystroke_Key.space	Key.space	n/a
432.301	0.06	864602	keystroke_d	d	n/a
432.466	0.06	864932	keystroke_i	i	n/a
432.676	0.09	865352	keystroke_s	s	n/a
433.388	0.083	866776	keystroke_e	e	n/a
433.531	0.09	867062	keystroke_a	a	n/a
433.696	0.09	867392	keystroke_s	s	n/a
433.861	0.06	867722	keystroke_e	e	n/a
433.996	0.0895	867992	keystroke_Key.space	Key.space	n/a
434.251	0.09	868502	keystroke_p	p	n/a
434.342	0.044	868684	keystroke_r	r	n/a
434.416	0.091	868832	keystroke_e	e	n/a
434.686	0.046	869372	keystroke_s	s	n/a
434.926	0.09	869852	keystroke_c	c	n/a
435.196	0.045	870392	keystroke_r	r	n/a
435.3005	0.075	870601	keystroke_i	i	n/a
435.421	0.075	870842	keystroke_p	p	n/a
435.586	0.06	871172	keystroke_t	t	n/a
435.721	0.075	871442	keystroke_i	i	n/a
435.751	0.106	871502	keystroke_o	o	n/a
435.916	0.06	871832	keystroke_n	n	n/a
436.291	0.0445	872582	keystroke_s	s	n/a
437.1005	0.09	874201	keystroke_Key.backspace	Key.backspace	n/a
437.3855	0.0305	874771	keystroke_Key.enter	Key.enter	n/a
437.422	5.531	874844	prompt	n/a	failing throughout academy crazy\n
438.1815	0.0895	876363	keystroke_f	f	n/a
438.316	0.1195	876632	keystroke_a	a	n/a
438.421	0.0745	876842	keystroke_i	i	n/a
438.5855	0.075	877171	keystroke_l	l	n/a
438.766	0.045	877532	keystroke_i	i	n/a
438.886	0.075	877772	keystroke_n	n	n/a
438.976	0.06	877952	keystroke_g	g	n/a
439.021	0.09	878042	keystroke_Key.space	Key.space	n/a
439.156	0.076	878312	keystroke_t	t	n/a
439.201	0.09	878402	keystroke_h	h	n/a
439.307	0.075	878614	keystroke_r	r	n/a
439.396	0.061	878792	keystroke_o	o	n/a
439.532	0.089	879064	keystroke_u	u	n/a
439.636	0.09	879272	keystroke_g	g	n/a
439.711	0.0745	879422	keystroke_h	h	n/a
439.846	0.075	879692	keystroke_o	o	n/a
440.011	0.075	880022	keystroke_u	u	n/a
440.1005	0.0455	880201	keystroke_t	t	n/a
440.2355	0.12	880471	keystroke_Key.space	Key.space	n/a
440.4315	0.075	880863	keystroke_a	a	n/a
440.5815	0.1045	881163	keystroke_c	c	n/a
440.746	0.075	881492	keystroke_a	a	n/a
440.911	0.0745	881822	keystroke_d	d	n/a
441.1065	0.044	882213	keystroke_e	e	n/a
441.301	0.015	882602	keystroke_m	m	n/a
441.6905	0.045	883381	keystroke_y	y	n/a
441.841	0.0895	883682	keystroke_Key.space	Key.space	n/a
441.961	0.06	883922	keystroke_c	c	n/a
442.1105	0.075	884221	keystroke_r	r	n/a
442.2315	0.075	884463	keystroke_a	a	n/a
442.4555	0.0905	884911	keystroke_z	z	n/a
442.5605	0.09	885121	keystroke_y	y	n/a
442.9055	0.045	885811	keystroke_Key.enter	Key.enter	n/a
442.9555	7.992	885911	prompt	n/a	initiative documentary hormone attorneys\n
443.6855	0.06	887371	keystroke_i	i	n/a
443.8205	0.09	887641	keystroke_n	n	n/a
443.9255	0.105	887851	keystroke_i	i	n/a
444.0905	0.06	888181	keystroke_t	t	n/a
444.5705	0.061	889141	keystroke_i	i	n/a
444.6905	0.091	889381	keystroke_a	a	n/a
444.8105	0.075	889621	keystroke_t	t	n/a
444.9005	0.06	889801	keystroke_i	i	n/a
445.0355	0.075	890071	keystroke_v	v	n/a
445.2005	0.045	890401	keystroke_e	e	n/a
445.2465	0.104	890493	keystroke_Key.space	Key.space	n/a
445.4255	0.06	890851	keystroke_d	d	n/a
445.5755	0.06	891151	keystroke_o	o	n/a
445.6505	0.06	891301	keystroke_c	c	n/a
445.7855	0.046	891571	keystroke_u	u	n/a
445.9505	0.061	891901	keystroke_m	m	n/a
446.0255	0.06	892051	keystroke_e	e	n/a
446.1455	0.061	892291	keystroke_n	n	n/a
446.2355	0.06	892471	keystroke_t	t	n/a
446.4005	0.09	892801	keystroke_a	a	n/a
446.5655	0.06	893131	keystroke_r	r	n/a
446.6855	0.06	893371	keystroke_y	y	n/a
446.851	0.09	893702	keystroke_Key.space	Key.space	n/a
447.046	0.12	894092	keystroke_h	h	n/a
447.136	0.105	894272	keystroke_o	o	n/a
447.301	0.045	894602	keystroke_r	r	n/a
447.526	0.06	895052	keystroke_m	m	n/a
448.036	0.09	896072	keystroke_o	o	n/a
448.186	0.06	896372	keystroke_n	n	n/a
448.306	0.045	896612	keystroke_e	e	n/a
448.411	0.075	896822	keystroke_Key.space	Key.space	n/a
448.591	0.09	897182	keystroke_a	a	n/a
448.756	0.045	897512	keystroke_t	t	n/a
448.891	0.06	897782	keystroke_t	t	n/a
448.966	0.075	897932	keystroke_o	o	n/a
449.971	0.06	899942	keystroke_r	r	n/a
450.136	0.075	900272	keystroke_n	n	n/a
450.301	0.075	900602	keystroke_e	e	n/a
450.421	0.09	900842	keystroke_y	y	n/a
450.556	0.075	901112	keystroke_s	s	n/a
450.901	0.045	901802	keystroke_Key.enter	Key.enter	n/a
450.9505	7.197	901901	prompt	n/a	roads consumer touched metabolism\n
451.816	0.075	903632	keystroke_r	r	n/a
451.996	0.075	903992	keystroke_a	a	n/a
452.341	0.075	904682	keystroke_Key.backspace	Key.backspace	n/a
452.581	0.045	905162	keystroke_o	o	n/a
452.671	0.075	905342	keystroke_a	a	n/a
452.881	0.015	905762	keystroke_d	d	n/a
453.001	0.045	906002	keystroke_s	s	n/a
453.196	0.105	906392	keystroke_Key.space	Key.space	n/a
453.451	0.045	906902	keystroke_c	c	n/a
453.541	0.075	907082	keystroke_o	o	n/a
453.676	0.09	907352	keystroke_n	n	n/a
453.781	0.06	907562	keystroke_s	s	n/a
453.901	0.06	907802	keystroke_u	u	n/a
454.081	0.06	908162	keystroke_m	m	n/a
454.201	0.105	908402	keystroke_e	e	n/a
454.306	0.075	908612	keystroke_r	r	n/a
454.426	0.105	908852	keystroke_Key.space	Key.space	n/a
454.906	0.045	909812	keystroke_t	t	n/a
455.011	0.09	910022	keystroke_o	o	n/a
455.206	0.075	910412	keystroke_u	u	n/a
455.356	0.075	910712	keystroke_c	c	n/a
455.461	0.045	910922	keystroke_h	h	n/a
455.566	0.06	911132	keystroke_e	e	n/a
455.746	0.06	911492	keystroke_d	d	n/a
455.821	0.105	911642	keystroke_Key.space	Key.space	n/a
456.076	0.075	912152	keystroke_m	m	n/a
456.166	0.075	912332	keystroke_e	e	n/a
456.316	0.06	912632	keystroke_t	t	n/a
456.421	0.09	912842	keystroke_a	a	n/a
456.886	0.09	913772	keystroke_b	b	n/a
457.081	0.06	914162	keystroke_o	o	n/a
457.501	0.075	915002	keystroke_l	l	n/a
457.651	0.075	915302	keystroke_i	i	n/a
457.741	0.06	915482	keystroke_s	s	n/a
457.846	0.06	915692	keystroke_m	m	n/a
458.101	0.045	916202	keystroke_Key.enter	Key.enter	n/a
458.1515	5.6515	916303	prompt	n/a	develop surrounded sought fares\n
458.671	0.06	917342	keystroke_d	d	n/a
458.851	0.03	917702	keystroke_e	e	n/a
458.986	0.03	917972	keystroke_v	v	n/a
459.106	0.06	918212	keystroke_e	e	n/a
459.241	0.06	918482	keystroke_l	l	n/a
459.406	0.18	918812	keystroke_o	o	n/a
459.541	0.075	919082	keystroke_p	p	n/a
459.706	0.105	919412	keystroke_Key.space	Key.space	n/a
459.856	0.06	919712	keystroke_s	s	n/a
459.946	0.09	919892	keystroke_o	o	n/a
460.276	0.075	920552	keystroke_Key.backspace	Key.backspace	n/a
460.531	0.06	921062	keystroke_u	u	n/a
460.621	0.06	921242	keystroke_r	r	n/a
460.831	0.075	921662	keystroke_r	r	n/a
461.071	0.075	922142	keystroke_o	o	n/a
461.236	0.045	922472	keystroke_u	u	n/a
461.386	0.06	922772	keystroke_n	n	n/a
461.476	0.06	922952	keystroke_d	d	n/a
461.626	0.06	923252	keystroke_e	e	n/a
461.806	0.06	923612	keystroke_d	d	n/a
461.881	0.09	923762	keystroke_Key.space	Key.space	n/a
461.986	0.075	923972	keystroke_s	s	n/a
462.091	0.075	924182	keystroke_o	o	n/a
462.256	0.075	924512	keystroke_u	u	n/a
462.376	0.06	924752	keystroke_g	g	n/a
462.451	0.045	924902	keystroke_h	h	n/a
462.586	0.045	925172	keystroke_t	t	n/a
462.706	0.09	925412	keystroke_Key.space	Key.space	n/a
462.916	0.091	925832	keystroke_f	f	n/a
463.111	0.09	926222	keystroke_a	a	n/a
463.261	0.075	926522	keystroke_r	r	n/a
463.381	0.075	926762	keystroke_e	e	n/a
463.561	0.06	927122	keystroke_s	s	n/a
463.756	0.045	927512	keystroke_Key.enter	Key.enter	n/a
463.8055	10.032	927611	prompt	n/a	societies fraser calibration because\n
464.356	0.06	928712	keystroke_s	s	n/a
464.461	0.09	928922	keystroke_o	o	n/a
464.536	0.075	929072	keystroke_c	c	n/a
464.656	0.075	929312	keystroke_i	i	n/a
465.376	0.06	930752	keystroke_e	e	n/a
466.546	0.06	933092	keystroke_t	t	n/a
466.681	0.045	933362	keystroke_i	i	n/a
466.757	0.059	933514	keystroke_e	e	n/a
466.921	0.06	933842	keystroke_s	s	n/a
467.011	0.105	934022	keystroke_Key.space	Key.space	n/a
467.416	0.06	934832	keystroke_f	f	n/a
467.581	0.075	935162	keystroke_r	r	n/a
467.686	0.075	935372	keystroke_a	a	n/a
467.851	0.09	935702	keystroke_s	s	n/a
468.031	0.12	936062	keystroke_e	e	n/a
468.121	0.075	936242	keystroke_r	r	n/a
468.241	0.105	936482	keystroke_Key.space	Key.space	n/a
468.406	0.075	936812	keystroke_c	c	n/a
468.541	0.09	937082	keystroke_a	a	n/a
468.661	0.105	937322	keystroke_l	l	n/a
468.886	0.075	937772	keystroke_i	i	n/a
469.921	0.06	939842	keystroke_b	b	n/a
470.252	0.059	940504	keystroke_r	r	n/a
470.371	0.09	940742	keystroke_a	a	n/a
470.536	0.105	941072	keystroke_t	t	n/a
470.626	0.135	941252	keystroke_i	i	n/a
470.702	0.089	941404	keystroke_o	o	n/a
470.866	0.075	941732	keystroke_n	n	n/a
471.151	0.105	942302	keystroke_Key.space	Key.space	n/a
471.496	0.06	942992	keystroke_b	b	n/a
471.571	0.045	943142	keystroke_e	e	n/a
471.691	0.09	943382	keystroke_c	c	n/a
471.871	0.06	943742	keystroke_a	a	n/a
472.036	0.045	944072	keystroke_s	s	n/a
472.201	0.06	944402	keystroke_u	u	n/a
472.786	0.06	945572	keystroke_Key.backspace	Key.backspace	n/a
472.936	0.09	945872	keystroke_Key.backspace	Key.backspace	n/a
473.281	0.075	946562	keystroke_u	u	n/a
473.461	0.06	946922	keystroke_s	s	n/a
473.627	0.044	947254	keystroke_e	e	n/a
473.791	0.045	947582	keystroke_Key.enter	Key.enter	n/a
473.842	6.281	947684	prompt	n/a	blanket held collective matt\n
474.602	0.075	949204	keystroke_b	b	n/a
475.036	0.075	950072	keystroke_l	l	n/a
475.186	0.045	950372	keystroke_a	a	n/a
475.321	0.106	950642	keystroke_n	n	n/a
475.441	0.061	950882	keystroke_k	k	n/a
475.727	0.1035	951454	keystroke_e	e	n/a
475.846	0.045	951692	keystroke_r	r	n/a
476.896	0.075	953792	keystroke_Key.backspace	Key.backspace	n/a
477.061	0.0455	954122	keystroke_t	t	n/a
477.1515	0.0895	954303	keystroke_Key.space	Key.space	n/a
477.3605	0.075	954721	keystroke_h	h	n/a
477.4515	0.045	954903	keystroke_e	e	n/a
477.6905	0.045	955381	keystroke_l	l	n/a
477.7805	0.046	955561	keystroke_d	d	n/a
477.8555	0.09	955711	keystroke_Key.space	Key.space	n/a
478.1705	0.075	956341	keystroke_c	c	n/a
478.2765	0.044	956553	keystroke_o	o	n/a
478.4405	0.045	956881	keystroke_l	l	n/a
478.5455	0.076	957091	keystroke_l	l	n/a
478.5905	0.061	957181	keystroke_e	e	n/a
478.7265	0.089	957453	keystroke_c	c	n/a
478.9805	0.046	957961	keystroke_t	t	n/a
479.0405	0.075	958081	keystroke_i	i	n/a
479.1905	0.061	958381	keystroke_v	v	n/a
479.3105	0.0755	958621	keystroke_e	e	n/a
479.3705	0.09	958741	keystroke_Key.space	Key.space	n/a
479.5065	0.075	959013	keystroke_m	m	n/a
479.5955	0.0755	959191	keystroke_a	a	n/a
479.7605	0.03	959521	keystroke_t	t	n/a
479.8815	0.06	959763	keystroke_t	t	n/a
480.0905	0.03	960181	keystroke_Key.enter	Key.enter	n/a
480.1265	5.8615	960253	prompt	n/a	disks suburban noon vendor\n
480.6765	0.06	961353	keystroke_d	d	n/a
480.7815	0.104	961563	keystroke_i	i	n/a
481.0055	0.061	962011	keystroke_s	s	n/a
481.1115	0.044	962223	keystroke_k	k	n/a
481.3665	0.06	962733	keystroke_s	s	n/a
481.8905	0.105	963781	keystroke_Key.space	Key.space	n/a
482.1765	0.075	964353	keystroke_s	s	n/a
482.2815	0.075	964563	keystroke_u	u	n/a
482.5965	0.06	965193	keystroke_b	b	n/a
482.8665	0.075	965733	keystroke_u	u	n/a
483.1515	0.045	966303	keystroke_r	r	n/a
483.3315	0.074	966663	keystroke_b	b	n/a
483.7365	0.119	967473	keystroke_a	a	n/a
483.8115	0.074	967623	keystroke_n	n	n/a
483.9605	0.105	967921	keystroke_Key.space	Key.space	n/a
484.1415	0.089	968283	keystroke_n	n	n/a
484.2465	0.075	968493	keystroke_o	o	n/a
484.3815	0.105	968763	keystroke_o	o	n/a
484.5165	0.105	969033	keystroke_n	n	n/a
484.6365	0.104	969273	keystroke_Key.space	Key.space	n/a
484.9665	0.075	969933	keystroke_v	v	n/a
485.1315	0.06	970263	keystroke_e	e	n/a
485.2215	0.06	970443	keystroke_n	n	n/a
485.3265	0.06	970653	keystroke_d	d	n/a
485.5665	0.06	971133	keystroke_o	o	n/a
485.6715	0.044	971343	keystroke_r	r	n/a
485.9715	0.015	971943	keystroke_Key.enter	Key.enter	n/a
485.9915	11.5615	971983	prompt	n/a	advertisements consultancy humans supposed\n
486.8715	0.09	973743	keystroke_a	a	n/a
487.0215	0.09	974043	keystroke_d	d	n/a
487.2015	0.075	974403	keystroke_v	v	n/a
487.6965	0.06	975393	keystroke_e	e	n/a
488.0715	0.06	976143	keystroke_r	r	n/a
488.6565	0.045	977313	keystroke_t	t	n/a
488.7615	0.06	977523	keystroke_i	i	n/a
488.9115	0.075	977823	keystroke_s	s	n/a
489.2115	0.075	978423	keystroke_m	m	n/a
489.6015	0.105	979203	keystroke_Key.backspace	Key.backspace	n/a
489.7365	0.06	979473	keystroke_e	e	n/a
489.8715	0.06	979743	keystroke_m	m	n/a
490.0215	0.045	980043	keystroke_e	e	n/a
490.1115	0.045	980223	keystroke_n	n	n/a
490.2315	0.06	980463	keystroke_t	t	n/a
490.4265	0.06	980853	keystroke_s	s	n/a
490.9665	0.12	981933	keystroke_Key.space	Key.space	n/a
491.2215	0.075	982443	keystroke_c	c	n/a
491.3115	0.075	982623	keystroke_o	o	n/a
491.6115	0.075	983223	keystroke_n	n	n/a
492.0915	0.06	984183	keystroke_s	s	n/a
492.1665	0.06	984333	keystroke_u	u	n/a
492.3615	0.075	984723	keystroke_l	l	n/a
492.4965	0.06	984993	keystroke_t	t	n/a
492.6315	0.075	985263	keystroke_a	a	n/a
493.2165	0.045	986433	keystroke_n	n	n/a
494.5065	0.045	989013	keystroke_c	c	n/a
494.9715	0.06	989943	keystroke_y	y	n/a
495.3465	0.06	990693	keystroke_Key.space	Key.space	n/a
495.6015	0.075	991203	keystroke_h	h	n/a
495.6915	0.075	991383	keystroke_u	u	n/a
495.8565	0.105	991713	keystroke_m	m	n/a
495.9465	0.09	991893	keystroke_a	a	n/a
496.0665	0.045	992133	keystroke_n	n	n/a
496.1415	0.075	992283	keystroke_s	s	n/a
496.2315	0.09	992463	keystroke_Key.space	Key.space	n/a
496.3515	0.075	992703	keystroke_s	s	n/a
496.4415	0.06	992883	keystroke_u	u	n/a
496.6215	0.06	993243	keystroke_p	p	n/a
496.7415	0.09	993483	keystroke_p	p	n/a
496.9065	0.075	993813	keystroke_o	o	n/a
496.9665	0.09	993933	keystroke_s	s	n/a
497.1465	0.06	994293	keystroke_e	e	n/a
497.3415	0.045	994683	keystroke_d	d	n/a
497.5065	0.045	995013	keystroke_Key.enter	Key.enter	n/a
497.556	7.5865	995112	prompt	n/a	photo engineers utils front\n
498.1815	0.075	996363	keystroke_p	p	n/a
498.3465	0.12	996693	keystroke_h	h	n/a
498.4515	0.09	996903	keystroke_o	o	n/a
498.5865	0.045	997173	keystroke_t	t	n/a
498.6615	0.075	997323	keystroke_o	o	n/a
498.9765	0.09	997953	keystroke_Key.space	Key.space	n/a
499.1415	0.06	998283	keystroke_e	e	n/a
499.2165	0.075	998433	keystroke_n	n	n/a
499.3365	0.075	998673	keystroke_g	g	n/a
499.4715	0.06	998943	keystroke_i	i	n/a
499.6365	0.06	999273	keystroke_n	n	n/a
499.7565	0.12	999513	keystroke_e	e	n/a
499.9665	0.09	999933	keystroke_e	e	n/a
500.2815	0.105	1000563	keystroke_r	r	n/a
500.7015	0.06	1001403	keystroke_s	s	n/a
500.8965	0.09	1001793	keystroke_Key.space	Key.space	n/a
501.1815	0.09	1002363	keystroke_u	u	n/a
501.5715	0.075	1003143	keystroke_t	t	n/a
501.7815	0.0595	1003563	keystroke_i	i	n/a
501.977	0.044	1003954	keystroke_l	l	n/a
502.081	0.046	1004162	keystroke_s	s	n/a
502.306	0.075	1004612	keystroke_Key.space	Key.space	n/a
503.477	0.059	1006954	keystroke_f	f	n/a
503.746	0.075	1007492	keystroke_o	o	n/a
504.091	0.075	1008182	keystroke_Key.backspace	Key.backspace	n/a
504.286	0.061	1008572	keystroke_r	r	n/a
504.391	0.045	1008782	keystroke_o	o	n/a
504.527	0.059	1009054	keystroke_n	n	n/a
504.631	0.045	1009262	keystroke_t	t	n/a
505.096	0.045	1010192	keystroke_Key.enter	Key.enter	n/a
505.1455	7.437	1010291	prompt	n/a	mailed requiring auditor there's\n
505.906	0.121	1011812	keystroke_m	m	n/a
506.041	0.105	1012082	keystroke_a	a	n/a
506.131	0.046	1012262	keystroke_i	i	n/a
506.266	0.09	1012532	keystroke_l	l	n/a
506.372	0.059	1012744	keystroke_e	e	n/a
506.552	0.075	1013104	keystroke_d	d	n/a
506.581	0.105	1013162	keystroke_Key.space	Key.space	n/a
506.791	0.045	1013582	keystroke_r	r	n/a
506.896	0.046	1013792	keystroke_e	e	n/a
507.302	0.075	1014604	keystroke_q	q	n/a
507.436	0.18	1014872	keystroke_u	u	n/a
507.602	0.104	1015204	keystroke_i	i	n/a
508.127	0.059	1016254	keystroke_r	r	n/a
508.322	0.075	1016644	keystroke_i	i	n/a
508.456	0.09	1016912	keystroke_n	n	n/a
508.531	0.075	1017062	keystroke_g	g	n/a
508.621	0.09	1017242	keystroke_Key.space	Key.space	n/a
508.831	0.075	1017662	keystroke_a	a	n/a
508.907	0.09	1017814	keystroke_u	u	n/a
509.041	0.061	1018082	keystroke_d	d	n/a
509.461	0.075	1018922	keystroke_i	i	n/a
509.656	0.061	1019312	keystroke_t	t	n/a
509.806	0.09	1019612	keystroke_o	o	n/a
509.926	0.06	1019852	keystroke_r	r	n/a
510.376	0.075	1020752	keystroke_Key.space	Key.space	n/a
510.556	0.09	1021112	keystroke_t	t	n/a
510.631	0.06	1021262	keystroke_h	h	n/a
510.736	0.15	1021472	keystroke_e	e	n/a
510.871	0.09	1021742	keystroke_r	r	n/a
510.977	0.059	1021954	keystroke_e	e	n/a
511.322	0.09	1022644	keystroke_'	'	n/a
511.487	0.09	1022974	keystroke_s	s	n/a
512.537	0.044	1025074	keystroke_Key.enter	Key.enter	n/a
512.586	10.212	1025172	prompt	n/a	overhead paperback patricia enable\n
513.242	0.06	1026484	keystroke_o	o	n/a
513.331	0.06	1026662	keystroke_v	v	n/a
513.497	0.134	1026994	keystroke_e	e	n/a
513.602	0.105	1027204	keystroke_r	r	n/a
513.722	0.105	1027444	keystroke_h	h	n/a
513.782	0.09	1027564	keystroke_e	e	n/a
513.931	0.121	1027862	keystroke_a	a	n/a
514.097	0.09	1028194	keystroke_r	r	n/a
514.337	0.045	1028674	keystroke_d	d	n/a
514.697	0.06	1029394	keystroke_Key.backspace	Key.backspace	n/a
514.816	0.075	1029632	keystroke_Key.backspace	Key.backspace	n/a
514.937	0.0745	1029874	keystroke_d	d	n/a
515.6265	0.09	1031253	keystroke_Key.space	Key.space	n/a
515.8215	0.0605	1031643	keystroke_p	p	n/a
515.9415	0.0455	1031883	keystroke_e	e	n/a
516.032	0.059	1032064	keystroke_p	p	n/a
516.7965	0.075	1033593	keystroke_Key.backspace	Key.backspace	n/a
516.9165	0.09	1033833	keystroke_Key.backspace	Key.backspace	n/a
517.3665	0.105	1034733	keystroke_a	a	n/a
517.5165	0.075	1035033	keystroke_p	p	n/a
517.742	0.1045	1035484	keystroke_e	e	n/a
517.8315	0.075	1035663	keystroke_r	r	n/a
518.4465	0.075	1036893	keystroke_b	b	n/a
518.5215	0.075	1037043	keystroke_a	a	n/a
518.7165	0.075	1037433	keystroke_c	c	n/a
518.8215	0.0455	1037643	keystroke_k	k	n/a
519.4065	0.105	1038813	keystroke_Key.space	Key.space	n/a
519.8715	0.06	1039743	keystroke_p	p	n/a
519.9915	0.09	1039983	keystroke_a	a	n/a
520.1715	0.06	1040343	keystroke_t	t	n/a
520.3065	0.06	1040613	keystroke_r	r	n/a
520.4415	0.06	1040883	keystroke_i	i	n/a
520.5765	0.045	1041153	keystroke_c	c	n/a
520.7115	0.045	1041423	keystroke_i	i	n/a
520.877	0.104	1041754	keystroke_a	a	n/a
521.221	0.075	1042442	keystroke_Key.space	Key.space	n/a
521.566	0.045	1043132	keystroke_e	e	n/a
521.641	0.06	1043282	keystroke_n	n	n/a
521.776	0.09	1043552	keystroke_a	a	n/a
521.866	0.09	1043732	keystroke_b	b	n/a
522.031	0.09	1044062	keystroke_l	l	n/a
522.136	0.045	1044272	keystroke_e	e	n/a
522.736	0.06	1045472	keystroke_Key.enter	Key.enter	n/a
522.8025	8.8755	1045605	prompt	n/a	really medications meetup valium\n
523.606	0.045	1047212	keystroke_r	r	n/a
523.696	0.09	1047392	keystroke_e	e	n/a
523.831	0.09	1047662	keystroke_a	a	n/a
523.981	0.016	1047962	keystroke_l	l	n/a
524.086	0.06	1048172	keystroke_l	l	n/a
524.326	0.045	1048652	keystroke_y	y	n/a
524.626	0.09	1049252	keystroke_Key.space	Key.space	n/a
524.791	0.06	1049582	keystroke_m	m	n/a
524.866	0.045	1049732	keystroke_e	e	n/a
525.031	0.075	1050062	keystroke_d	d	n/a
525.121	0.06	1050242	keystroke_i	i	n/a
525.211	0.12	1050422	keystroke_c	c	n/a
525.436	0.075	1050872	keystroke_a	a	n/a
525.586	0.075	1051172	keystroke_t	t	n/a
525.676	0.105	1051352	keystroke_i	i	n/a
525.721	0.09	1051442	keystroke_o	o	n/a
525.886	0.045	1051772	keystroke_n	n	n/a
526.651	0.06	1053302	keystroke_s	s	n/a
526.801	0.105	1053602	keystroke_Key.space	Key.space	n/a
526.966	0.09	1053932	keystroke_m	m	n/a
527.071	0.045	1054142	keystroke_e	e	n/a
527.206	0.091	1054412	keystroke_e	e	n/a
527.461	0.045	1054922	keystroke_t	t	n/a
528.301	0.045	1056602	keystroke_u	u	n/a
528.497	0.059	1056994	keystroke_p	p	n/a
528.706	0.09	1057412	keystroke_Key.space	Key.space	n/a
529.066	0.06	1058132	keystroke_v	v	n/a
529.276	0.105	1058552	keystroke_a	a	n/a
529.366	0.09	1058732	keystroke_l	l	n/a
529.561	0.045	1059122	keystroke_i	i	n/a
530.4465	0.075	1060893	keystroke_u	u	n/a
531.0315	0.045	1062063	keystroke_m	m	n/a
531.6165	0.06	1063233	keystroke_Key.enter	Key.enter	n/a
531.6825	5.5605	1063365	prompt	n/a	goal jose bond dirt\n
532.7565	0.06	1065513	keystroke_g	g	n/a
532.8465	0.0895	1065693	keystroke_o	o	n/a
533.656	0.091	1067312	keystroke_a	a	n/a
533.761	0.06	1067522	keystroke_l	l	n/a
533.896	0.105	1067792	keystroke_Key.space	Key.space	n/a
534.076	0.121	1068152	keystroke_j	j	n/a
534.181	0.091	1068362	keystroke_o	o	n/a
534.301	0.09	1068602	keystroke_s	s	n/a
534.497	0.059	1068994	keystroke_e	e	n/a
534.766	0.09	1069532	keystroke_Key.space	Key.space	n/a
535.111	0.045	1070222	keystroke_b	b	n/a
535.591	0.075	1071182	keystroke_o	o	n/a
535.726	0.06	1071452	keystroke_n	n	n/a
535.847	0.059	1071694	keystroke_d	d	n/a
536.101	0.09	1072202	keystroke_Key.space	Key.space	n/a
536.476	0.075	1072952	keystroke_d	d	n/a
536.552	0.074	1073104	keystroke_i	i	n/a
536.686	0.075	1073372	keystroke_r	r	n/a
536.822	0.075	1073644	keystroke_t	t	n/a
537.166	0.075	1074332	keystroke_Key.enter	Key.enter	n/a
537.2465	9.5515	1074493	prompt	n/a	fortune croatia hobby violence\n
537.961	0.075	1075922	keystroke_f	f	n/a
538.081	0.06	1076162	keystroke_o	o	n/a
538.816	0.015	1077632	keystroke_r	r	n/a
539.626	0.046	1079252	keystroke_t	t	n/a
539.747	0.075	1079494	keystroke_u	u	n/a
539.911	0.09	1079822	keystroke_n	n	n/a
540.016	0.06	1080032	keystroke_e	e	n/a
540.166	0.06	1080332	keystroke_Key.space	Key.space	n/a
540.347	0.089	1080694	keystroke_c	c	n/a
540.661	0.045	1081322	keystroke_r	r	n/a
541.036	0.045	1082072	keystroke_o	o	n/a
541.186	0.061	1082372	keystroke_a	a	n/a
541.322	0.075	1082644	keystroke_t	t	n/a
541.697	0.075	1083394	keystroke_i	i	n/a
541.831	0.091	1083662	keystroke_a	a	n/a
541.996	0.09	1083992	keystroke_Key.space	Key.space	n/a
542.431	0.091	1084862	keystroke_h	h	n/a
542.626	0.09	1085252	keystroke_o	o	n/a
543.017	0.044	1086034	keystroke_b	b	n/a
543.136	0.075	1086272	keystroke_b	b	n/a
543.347	0.059	1086694	keystroke_y	y	n/a
543.572	0.089	1087144	keystroke_Key.space	Key.space	n/a
543.781	0.075	1087562	keystroke_v	v	n/a
543.886	0.09	1087772	keystroke_i	i	n/a
544.261	0.0605	1088522	keystroke_o	o	n/a
544.441	0.0745	1088882	keystroke_l	l	n/a
544.5465	0.06	1089093	keystroke_e	e	n/a
544.6665	0.044	1089333	keystroke_n	n	n/a
544.861	0.045	1089722	keystroke_c	c	n/a
546.1215	0.015	1092243	keystroke_e	e	n/a
546.7805	0.016	1093561	keystroke_Key.enter	Key.enter	n/a
546.8015	5.0515	1093603	prompt	n/a	seem discussions drain trainer\n
547.4715	0.075	1094943	keystroke_s	s	n/a
547.6515	0.045	1095303	keystroke_e	e	n/a
547.7865	0.06	1095573	keystroke_e	e	n/a
547.9055	0.121	1095811	keystroke_m	m	n/a
548.0105	0.12	1096021	keystroke_Key.space	Key.space	n/a
548.1465	0.075	1096293	keystroke_d	d	n/a
