onset	duration	sample	value	key	prompt_text
5.913	11.083	11826	prompt	n/a	the quick brown fox jumps over a lazy dog\n
7.0345	0.028	14069	keystroke	t	n/a
7.0775	0.075	14155	keystroke	h	n/a
7.1675	0.09	14335	keystroke	e	n/a
7.2725	0.09	14545	keystroke	Key.space	n/a
7.618	0.09	15236	keystroke	w	n/a
7.7675	0.1205	15535	keystroke	u	n/a
7.8575	0.0605	15715	keystroke	i	n/a
8.1725	0.06	16345	keystroke	Key.backspace	n/a
8.308	0.0595	16616	keystroke	Key.backspace	n/a
8.4425	0.075	16885	keystroke	Key.backspace	n/a
9.133	0.09	18266	keystroke	q	n/a
9.313	0.075	18626	keystroke	u	n/a
9.343	0.105	18686	keystroke	i	n/a
9.5375	0.075	19075	keystroke	c	n/a
9.6875	0.1055	19375	keystroke	k	n/a
9.838	0.105	19676	keystroke	Key.space	n/a
10.108	0.09	20216	keystroke	b	n/a
10.303	0.075	20606	keystroke	r	n/a
10.438	0.06	20876	keystroke	o	n/a
10.633	0.075	21266	keystroke	w	n/a
10.798	0.09	21596	keystroke	n	n/a
11.023	0.075	22046	keystroke	Key.space	n/a
11.788	0.0745	23576	keystroke	f	n/a
11.893	0.1055	23786	keystroke	o	n/a
12.343	0.075	24686	keystroke	x	n/a
12.4325	0.1055	24865	keystroke	Key.space	n/a
12.718	0.0155	25436	keystroke	j	n/a
12.793	0.075	25586	keystroke	u	n/a
12.988	0.105	25976	keystroke	m	n/a
13.108	0.105	26216	keystroke	p	n/a
13.243	0.12	26486	keystroke	s	n/a
13.393	0.105	26786	keystroke	Key.space	n/a
13.588	0.06	27176	keystroke	o	n/a
13.738	0.1195	27476	keystroke	v	n/a
13.8875	0.1655	27775	keystroke	e	n/a
14.008	0.0905	28016	keystroke	r	n/a
14.1275	0.105	28255	keystroke	Key.space	n/a
14.2485	0.105	28497	keystroke	a	n/a
14.3975	0.075	28795	keystroke	Key.space	n/a
14.5335	0.09	29067	keystroke	l	n/a
14.7575	0.076	29515	keystroke	a	n/a
14.9385	0.134	29877	keystroke	z	n/a
15.2385	0.06	30477	keystroke	y	n/a
15.523	0.0595	31046	keystroke	Key.space	n/a
16.2285	0.075	32457	keystroke	d	n/a
16.3185	0.0895	32637	keystroke	o	n/a
16.498	0.09	32996	keystroke	g	n/a
16.9775	0.015	33955	keystroke	Key.enter	n/a
17.0015	9.0235	34003	prompt	n/a	cognitive restore identifier poet\n
17.668	0.09	35336	keystroke	c	n/a
17.773	0.075	35546	keystroke	o	n/a
17.983	0.105	35966	keystroke	g	n/a
18.178	0.075	36356	keystroke	n	n/a
18.328	0.09	36656	keystroke	i	n/a
18.658	0.045	37316	keystroke	t	n/a
18.748	0.09	37496	keystroke	i	n/a
18.943	0.15	37886	keystroke	v	n/a
19.078	0.075	38156	keystroke	e	n/a
19.138	0.1045	38276	keystroke	Key.space	n/a
19.5575	0.12	39115	keystroke	r	n/a
19.6475	0.076	39295	keystroke	e	n/a
19.8425	0.1055	39685	keystroke	s	n/a
20.158	0.0755	40316	keystroke	t	n/a
20.4575	0.0905	40915	keystroke	o	n/a
20.818	0.12	41636	keystroke	r	n/a
20.908	0.075	41816	keystroke	e	n/a
21.013	0.1045	42026	keystroke	Key.space	n/a
21.238	0.045	42476	keystroke	i	n/a
21.433	0.15	42866	keystroke	d	n/a
21.553	0.075	43106	keystroke	e	n/a
21.643	0.09	43286	keystroke	n	n/a
21.868	0.075	43736	keystroke	t	n/a
21.958	0.06	43916	keystroke	i	n/a
22.228	0.075	44456	keystroke	f	n/a
22.6485	0.075	45297	keystroke	i	n/a
22.7835	0.1345	45567	keystroke	e	n/a
22.978	0.0905	45956	keystroke	r	n/a
23.1275	0.1055	46255	keystroke	Key.space	n/a
23.308	0.09	46616	keystroke	o	n/a
23.683	0.045	47366	keystroke	Key.backspace	n/a
24.763	0.09	49526	keystroke	p	n/a
24.868	0.105	49736	keystroke	o	n/a
25.153	0.09	50306	keystroke	e	n/a
25.303	0.105	50606	keystroke	t	n/a
25.933	0.09	51866	keystroke	Key.enter	n/a
26.029	8.576	52058	prompt	n/a	developing flexible sciences intimate\n
26.773	0.15	53546	keystroke	d	n/a
26.848	0.15	53696	keystroke	e	n/a
27.343	0.15	54686	keystroke	v	n/a
27.508	0.09	55016	keystroke	e	n/a
27.913	0.075	55826	keystroke	l	n/a
28.138	0.06	56276	keystroke	o	n/a
28.3475	0.091	56695	keystroke	p	n/a
28.6635	0.0295	57327	keystroke	i	n/a
28.6785	0.0895	57357	keystroke	n	n/a
28.753	0.1055	57506	keystroke	g	n/a
28.978	0.0905	57956	keystroke	Key.space	n/a
29.3985	0.105	58797	keystroke	f	n/a
29.9085	0.09	59817	keystroke	l	n/a
30.0285	0.0895	60057	keystroke	e	n/a
30.433	0.09	60866	keystroke	x	n/a
30.688	0.045	61376	keystroke	i	n/a
30.9285	0.06	61857	keystroke	b	n/a
31.1225	0.09	62245	keystroke	l	n/a
31.2435	0.059	62487	keystroke	e	n/a
31.3635	0.0595	62727	keystroke	Key.space	n/a
31.543	0.06	63086	keystroke	s	n/a
31.708	0.105	63416	keystroke	c	n/a
31.828	0.0895	63656	keystroke	i	n/a
31.9325	0.075	63865	keystroke	e	n/a
32.0675	0.091	64135	keystroke	n	n/a
32.1725	0.135	64345	keystroke	c	n/a
32.2775	0.09	64555	keystroke	e	n/a
32.5025	0.09	65005	keystroke	s	n/a
32.6225	0.075	65245	keystroke	Key.space	n/a
32.7875	0.1505	65575	keystroke	i	n/a
32.893	0.15	65786	keystroke	n	n/a
33.073	0.1045	66146	keystroke	t	n/a
33.2075	0.0755	66415	keystroke	i	n/a
33.613	0.075	67226	keystroke	m	n/a
33.733	0.09	67466	keystroke	a	n/a
33.808	0.12	67616	keystroke	t	n/a
33.958	0.09	67916	keystroke	e	n/a
34.5285	0.075	69057	keystroke	Key.enter	n/a
34.6075	6.912	69215	prompt	n/a	retrieval heavy showed mouth\n
35.353	0.1495	70706	keystroke	r	n/a
35.458	0.1495	70916	keystroke	e	n/a
35.6525	0.075	71305	keystroke	t	n/a
35.8485	0.074	71697	keystroke	r	n/a
35.9825	0.075	71965	keystroke	i	n/a
36.2825	0.045	72565	keystroke	e	n/a
36.4175	0.09	72835	keystroke	v	n/a
36.6735	0.075	73347	keystroke	a	n/a
36.8085	0.1345	73617	keystroke	l	n/a
36.928	0.09	73856	keystroke	Key.space	n/a
37.1535	0.09	74307	keystroke	h	n/a
37.2585	0.165	74517	keystroke	e	n/a
37.4085	0.105	74817	keystroke	a	n/a
37.5435	0.12	75087	keystroke	v	n/a
37.8585	0.06	75717	keystroke	y	n/a
38.2185	0.09	76437	keystroke	Key.space	n/a
38.5485	0.045	77097	keystroke	s	n/a
38.893	0.165	77786	keystroke	h	n/a
39.013	0.105	78026	keystroke	o	n/a
39.418	0.045	78836	keystroke	w	n/a
39.583	0.075	79166	keystroke	e	n/a
39.883	0.09	79766	keystroke	d	n/a
40.048	0.105	80096	keystroke	Key.space	n/a
40.558	0.135	81116	keystroke	m	n/a
40.678	0.15	81356	keystroke	o	n/a
40.858	0.12	81716	keystroke	u	n/a
41.023	0.075	82046	keystroke	t	n/a
41.083	0.12	82166	keystroke	h	n/a
41.4425	0.075	82885	keystroke	Key.enter	n/a
41.525	12.4555	83050	prompt	n/a	arrives transactions reflect chocolate\n
42.2525	0.1055	84505	keystroke	a	n/a
42.388	0.12	84776	keystroke	r	n/a
42.568	0.09	85136	keystroke	r	n/a
42.718	0.09	85436	keystroke	i	n/a
42.853	0.2105	85706	keystroke	c	n/a
43.0485	0.075	86097	keystroke	e	n/a
43.5135	0.06	87027	keystroke	Key.backspace	n/a
43.6635	0.0595	87327	keystroke	Key.backspace	n/a
43.753	0.105	87506	keystroke	v	n/a
43.828	0.09	87656	keystroke	e	n/a
44.038	0.105	88076	keystroke	s	n/a
44.203	0.12	88406	keystroke	Key.space	n/a
44.638	0.105	89276	keystroke	t	n/a
44.818	0.12	89636	keystroke	r	n/a
44.953	0.1355	89906	keystroke	a	n/a
45.283	0.1205	90566	keystroke	n	n/a
45.4185	0.0895	90837	keystroke	s	n/a
45.7485	0.135	91497	keystroke	a	n/a
45.8685	0.105	91737	keystroke	c	n/a
46.1535	0.075	92307	keystroke	t	n/a
46.2435	0.2095	92487	keystroke	i	n/a
46.3185	0.1355	92637	keystroke	o	n/a
46.423	0.09	92846	keystroke	n	n/a
46.543	0.09	93086	keystroke	s	n/a
46.753	0.09	93506	keystroke	Key.space	n/a
47.2335	0.15	94467	keystroke	r	n/a
47.3385	0.12	94677	keystroke	e	n/a
47.9085	0.06	95817	keystroke	l	n/a
49.0185	0.0745	98037	keystroke	Key.backspace	n/a
49.153	0.09	98306	keystroke	f	n/a
49.318	0.09	98636	keystroke	l	n/a
49.483	0.09	98966	keystroke	e	n/a
49.663	0.0905	99326	keystroke	c	n/a
50.0085	0.075	100017	keystroke	t	n/a
50.2185	0.09	100437	keystroke	Key.space	n/a
50.713	0.105	101426	keystroke	c	n/a
50.819	0.149	101638	keystroke	h	n/a
50.923	0.09	101846	keystroke	o	n/a
51.028	0.075	102056	keystroke	c	n/a
51.133	0.09	102266	keystroke	o	n/a
51.358	0.075	102716	keystroke	l	n/a
51.583	0.105	103166	keystroke	a	n/a
51.718	0.09	103436	keystroke	t	n/a
51.793	0.0905	103586	keystroke	e	n/a
53.9705	0.001	107941	keystroke	Key.enter	n/a
53.985	12.923	107970	prompt	n/a	pharmaceuticals placing uses fundamentals\n
55.123	0.06	110246	keystroke	p	n/a
55.3185	0.105	110637	keystroke	h	n/a
55.4835	0.09	110967	keystroke	r	n/a
56.2335	0.105	112467	keystroke	a	n/a
56.7285	0.03	113457	keystroke	Key.backspace	n/a
56.8485	0.059	113697	keystroke	Key.backspace	n/a
56.9225	0.091	113845	keystroke	a	n/a
57.1035	0.075	114207	keystroke	r	n/a
57.2985	0.0595	114597	keystroke	m	n/a
57.898	0.075	115796	keystroke	a	n/a
58.453	0.106	116906	keystroke	c	n/a
58.619	0.1045	117238	keystroke	e	n/a
58.903	0.075	117806	keystroke	u	n/a
59.2485	0.09	118497	keystroke	t	n/a
59.4285	0.0595	118857	keystroke	i	n/a
59.578	0.135	119156	keystroke	c	n/a
59.773	0.09	119546	keystroke	a	n/a
59.908	0.075	119816	keystroke	l	n/a
60.043	0.075	120086	keystroke	s	n/a
60.673	0.09	121346	keystroke	Key.space	n/a
61.033	0.1505	122066	keystroke	p	n/a
61.1085	0.1345	122217	keystroke	l	n/a
61.258	0.135	122516	keystroke	a	n/a
61.378	0.165	122756	keystroke	c	n/a
61.618	0.15	123236	keystroke	i	n/a
61.723	0.105	123446	keystroke	n	n/a
61.843	0.09	123686	keystroke	g	n/a
61.9785	0.075	123957	keystroke	Key.space	n/a
62.1585	0.09	124317	keystroke	u	n/a
62.2635	0.075	124527	keystroke	s	n/a
62.4435	0.075	124887	keystroke	e	n/a
62.6685	0.075	125337	keystroke	s	n/a
62.818	0.105	125636	keystroke	Key.space	n/a
63.448	0.105	126896	keystroke	f	n/a
63.613	0.15	127226	keystroke	u	n/a
63.733	0.075	127466	keystroke	n	n/a
64.1685	0.18	128337	keystroke	d	n/a
64.2885	0.135	128577	keystroke	e	n/a
64.6935	0.06	129387	keystroke	Key.backspace	n/a
64.7985	0.09	129597	keystroke	a	n/a
65.1885	0.09	130377	keystroke	m	n/a
65.2635	0.09	130527	keystroke	e	n/a
65.4135	0.0745	130827	keystroke	n	n/a
65.743	0.105	131486	keystroke	t	n/a
66.118	0.105	132236	keystroke	a	n/a
66.283	0.075	132566	keystroke	l	n/a
66.418	0.075	132836	keystroke	s	n/a
66.868	0.03	133736	keystroke	Key.enter	n/a
66.913	19.915	133826	prompt	n/a	christopher identified venice variables\n
67.5735	0.0895	135147	keystroke	c	n/a
67.678	0.106	135356	keystroke	h	n/a
67.829	0.104	135658	keystroke	r	n/a
67.963	0.106	135926	keystroke	i	n/a
68.053	0.106	136106	keystroke	s	n/a
68.233	0.09	136466	keystroke	t	n/a
68.368	0.09	136736	keystroke	o	n/a
68.608	0.06	137216	keystroke	p	n/a
68.819	0.104	137638	keystroke	h	n/a
68.938	0.121	137876	keystroke	e	n/a
69.013	0.09	138026	keystroke	r	n/a
69.134	0.09	138268	keystroke	Key.space	n/a
69.268	0.106	138536	keystroke	i	n/a
69.388	0.105	138776	keystroke	s	n/a
69.508	0.09	139016	keystroke	Key.space	n/a
70.408	0.076	140816	keystroke	i	n/a
70.543	0.151	141086	keystroke	d	n/a
70.679	0.119	141358	keystroke	e	n/a
70.813	0.105	141626	keystroke	n	n/a
70.9485	0.09	141897	keystroke	t	n/a
71.084	0.09	142168	keystroke	i	n/a
71.549	0.105	143098	keystroke	f	n/a
71.759	0.075	143518	keystroke	i	n/a
71.879	0.059	143758	keystroke	e	n/a
72.074	0.06	144148	keystroke	d	n/a
72.193	0.106	144386	keystroke	Key.space	n/a
73.364	0.105	146728	keystroke	e	n/a
73.7535	0.06	147507	keystroke	Key.backspace	n/a
73.8285	0.12	147657	keystroke	v	n/a
73.9335	0.105	147867	keystroke	e	n/a
74.3685	0.09	148737	keystroke	n	n/a
74.4885	0.075	148977	keystroke	i	n/a
74.5935	0.06	149187	keystroke	s	n/a
74.788	0.165	149576	keystroke	c	n/a
74.923	0.106	149846	keystroke	e	n/a
75.0585	0.1055	150117	keystroke	Key.space	n/a
75.614	0.06	151228	keystroke	Key.backspace	n/a
75.7635	0.075	151527	keystroke	Key.backspace	n/a
75.8985	0.0605	151797	keystroke	Key.backspace	n/a
76.034	0.0745	152068	keystroke	Key.backspace	n/a
77.0985	0.09	154197	keystroke	v	n/a
77.1435	0.105	154287	keystroke	e	n/a
77.3835	0.045	154767	keystroke	Key.space	n/a
77.759	0.044	155518	keystroke	Key.backspace	n/a
77.894	0.075	155788	keystroke	Key.backspace	n/a
78.029	0.09	156058	keystroke	c	n/a
78.104	0.06	156208	keystroke	e	n/a
78.434	0.06	156868	keystroke	Key.space	n/a
78.989	0.0595	157978	keystroke	Key.backspace	n/a
79.2135	0.075	158427	keystroke	Key.backspace	n/a
79.4535	0.06	158907	keystroke	Key.backspace	n/a
79.6485	0.045	159297	keystroke	Key.backspace	n/a
81.9305	0.058	163861	keystroke	c	n/a
82.0335	0.09	164067	keystroke	e	n/a
82.1835	0.09	164367	keystroke	Key.space	n/a
82.4535	0.135	164907	keystroke	v	n/a
82.5735	0.1345	165147	keystroke	a	n/a
82.754	0.12	165508	keystroke	r	n/a
82.934	0.06	165868	keystroke	i	n/a
83.249	0.06	166498	keystroke	a	n/a
83.399	0.105	166798	keystroke	b	n/a
83.519	0.09	167038	keystroke	l	n/a
83.639	0.075	167278	keystroke	e	n/a
83.834	0.06	167668	keystroke	s	n/a
86.7905	0.028	173581	keystroke	Key.enter	n/a
86.834	8.3935	173668	prompt	n/a	surely nissan expanded blades\n
87.614	0.089	175228	keystroke	s	n/a
87.748	0.09	175496	keystroke	u	n/a
87.913	0.135	175826	keystroke	r	n/a
88.018	0.075	176036	keystroke	e	n/a
88.198	0.09	176396	keystroke	l	n/a
88.453	0.09	176906	keystroke	y	n/a
88.6185	0.0905	177237	keystroke	Key.space	n/a
88.844	0.105	177688	keystroke	m	n/a
89.3835	0.06	178767	keystroke	Key.backspace	n/a
89.5935	0.105	179187	keystroke	n	n/a
89.8035	0.03	179607	keystroke	i	n/a
89.9685	0.06	179937	keystroke	s	n/a
90.1485	0.06	180297	keystroke	s	n/a
90.2235	0.105	180447	keystroke	a	n/a
90.3585	0.09	180717	keystroke	n	n/a
90.5685	0.09	181137	keystroke	Key.space	n/a
91.8585	0.075	183717	keystroke	e	n/a
92.0985	0.105	184197	keystroke	x	n/a
92.3385	0.09	184677	keystroke	p	n/a
92.5185	0.075	185037	keystroke	a	n/a
92.6385	0.0905	185277	keystroke	n	n/a
92.804	0.165	185608	keystroke	d	n/a
92.939	0.134	185878	keystroke	e	n/a
93.058	0.105	186116	keystroke	d	n/a
93.193	0.105	186386	keystroke	Key.space	n/a
93.673	0.09	187346	keystroke	b	n/a
93.838	0.0905	187676	keystroke	l	n/a
94.094	0.1495	188188	keystroke	a	n/a
94.3335	0.1805	188667	keystroke	d	n/a
94.4685	0.1055	188937	keystroke	e	n/a
94.6935	0.06	189387	keystroke	s	n/a
95.114	0.105	190228	keystroke	Key.enter	n/a
95.2315	6.484	190463	prompt	n/a	less lovers stones depending\n
95.9085	0.09	191817	keystroke	l	n/a
96.0135	0.06	192027	keystroke	e	n/a
96.1935	0.075	192387	keystroke	s	n/a
96.3585	0.06	192717	keystroke	s	n/a
96.4485	0.09	192897	keystroke	Key.space	n/a
96.5685	0.09	193137	keystroke	l	n/a
96.7485	0.0905	193497	keystroke	o	n/a
96.8085	0.1505	193617	keystroke	v	n/a
96.944	0.195	193888	keystroke	e	n/a
97.079	0.12	194158	keystroke	r	n/a
97.289	0.105	194578	keystroke	s	n/a
97.454	0.09	194908	keystroke	Key.space	n/a
97.814	0.09	195628	keystroke	s	n/a
97.994	0.09	195988	keystroke	t	n/a
98.114	0.15	196228	keystroke	o	n/a
98.249	0.09	196498	keystroke	n	n/a
98.309	0.075	196618	keystroke	e	n/a
98.5035	0.0755	197007	keystroke	s	n/a
98.624	0.0595	197248	keystroke	Key.space	n/a
98.969	0.1495	197938	keystroke	d	n/a
99.0885	0.12	198177	keystroke	e	n/a
99.3435	0.06	198687	keystroke	p	n/a
99.524	0.0745	199048	keystroke	e	n/a
99.6585	0.09	199317	keystroke	n	n/a
99.8835	0.09	199767	keystroke	d	n/a
100.0485	0.105	200097	keystroke	i	n/a
100.1545	0.074	200309	keystroke	n	n/a
100.3185	0.045	200637	keystroke	g	n/a
101.6535	0.06	203307	keystroke	Key.enter	n/a
101.718	12.2295	203436	prompt	n/a	outdoor molecular advertisements yard\n
102.404	0.165	204808	keystroke	o	n/a
102.539	0.12	205078	keystroke	u	n/a
102.689	0.09	205378	keystroke	t	n/a
102.959	0.135	205918	keystroke	d	n/a
103.109	0.06	206218	keystroke	o	n/a
103.289	0.135	206578	keystroke	e	n/a
103.724	0.06	207448	keystroke	Key.backspace	n/a
103.934	0.075	207868	keystroke	o	n/a
103.994	0.09	207988	keystroke	e	n/a
104.263	0.12	208526	keystroke	Key.space	n/a
104.579	0.06	209158	keystroke	Key.backspace	n/a
104.729	0.075	209458	keystroke	Key.backspace	n/a
104.789	0.09	209578	keystroke	r	n/a
105.0285	0.105	210057	keystroke	Key.space	n/a
105.5685	0.105	211137	keystroke	m	n/a
105.7185	0.105	211437	keystroke	o	n/a
105.943	0.076	211886	keystroke	l	n/a
106.063	0.06	212126	keystroke	e	n/a
106.304	0.09	212608	keystroke	c	n/a
106.439	0.105	212878	keystroke	u	n/a
107.2185	0.06	214437	keystroke	l	n/a
107.3535	0.105	214707	keystroke	a	n/a
107.5785	0.075	215157	keystroke	t	n/a
107.819	0.12	215638	keystroke	Key.space	n/a
108.344	0.045	216688	keystroke	Key.backspace	n/a
108.464	0.075	216928	keystroke	Key.backspace	n/a
108.554	0.105	217108	keystroke	r	n/a
108.764	0.045	217528	keystroke	Key.space	n/a
109.049	0.135	218098	keystroke	a	n/a
109.154	0.105	218308	keystroke	d	n/a
109.6335	0.12	219267	keystroke	v	n/a
109.7985	0.15	219597	keystroke	e	n/a
109.9035	0.105	219807	keystroke	r	n/a
110.4585	0.105	220917	keystroke	t	n/a
110.9235	0.09	221847	keystroke	i	n/a
111.149	0.075	222298	keystroke	s	n/a
111.374	0.075	222748	keystroke	e	n/a
111.614	0.12	223228	keystroke	m	n/a
111.719	0.09	223438	keystroke	e	n/a
111.854	0.105	223708	keystroke	n	n/a
111.929	0.105	223858	keystroke	t	n/a
112.244	0.015	224488	keystroke	s	n/a
112.409	0.134	224818	keystroke	Key.space	n/a
112.799	0.06	225598	keystroke	y	n/a
112.964	0.12	225928	keystroke	a	n/a
113.039	0.09	226078	keystroke	r	n/a
113.294	0.06	226588	keystroke	d	n/a
113.894	0.045	227788	keystroke	Key.enter	n/a
113.952	9.552	227904	prompt	n/a	epic pleasant based drew\n
114.6885	0.075	229377	keystroke	e	n/a
114.7935	0.075	229587	keystroke	p	n/a
115.0185	0.0895	230037	keystroke	i	n/a
115.213	0.12	230426	keystroke	c	n/a
115.363	0.105	230726	keystroke	Key.space	n/a
115.783	0.165	231566	keystroke	p	n/a
115.903	0.135	231806	keystroke	l	n/a
116.053	0.12	232106	keystroke	e	n/a
116.158	0.18	232316	keystroke	a	n/a
116.278	0.105	232556	keystroke	s	n/a
116.4885	0.06	232977	keystroke	e	n/a
116.819	0.06	233638	keystroke	Key.backspace	n/a
116.909	0.075	233818	keystroke	a	n/a
117.029	0.0745	234058	keystroke	n	n/a
117.1635	0.09	234327	keystroke	t	n/a
117.329	0.104	234658	keystroke	Key.space	n/a
117.8085	0.1055	235617	keystroke	b	n/a
117.944	0.135	235888	keystroke	a	n/a
118.019	0.105	236038	keystroke	s	n/a
118.2135	0.12	236427	keystroke	e	n/a
118.2885	0.135	236577	keystroke	d	n/a
118.4385	0.09	236877	keystroke	Key.space	n/a
118.769	0.1195	237538	keystroke	f	n/a
119.0385	0.1495	238077	keystroke	r	n/a
119.204	0.134	238408	keystroke	e	n/a
119.593	0.045	239186	keystroke	Key.backspace	n/a
119.728	0.06	239456	keystroke	Key.backspace	n/a
119.848	0.135	239696	keystroke	d	n/a
120.2235	0.045	240447	keystroke	Key.backspace	n/a
120.3585	0.075	240717	keystroke	Key.backspace	n/a
120.4485	0.135	240897	keystroke	d	n/a
120.6285	0.075	241257	keystroke	e	n/a
120.7045	0.1195	241409	keystroke	r	n/a
121.094	0.06	242188	keystroke	Key.backspace	n/a
121.243	0.076	242486	keystroke	Key.backspace	n/a
122.158	0.09	244316	keystroke	r	n/a
122.188	0.121	244376	keystroke	e	n/a
122.294	0.09	244588	keystroke	w	n/a
123.434	0.06	246868	keystroke	Key.enter	n/a
123.5085	10.074	247017	prompt	n/a	importantly chicken syntax prisoner\n
124.1245	0.104	248249	keystroke	i	n/a
124.3035	0.105	248607	keystroke	m	n/a
124.4385	0.15	248877	keystroke	p	n/a
124.5285	0.105	249057	keystroke	o	n/a
124.6035	0.09	249207	keystroke	r	n/a
124.8135	0.075	249627	keystroke	t	n/a
124.9335	0.105	249867	keystroke	a	n/a
125.0395	0.119	250079	keystroke	n	n/a
125.2035	0.075	250407	keystroke	t	n/a
125.3235	0.12	250647	keystroke	l	n/a
125.623	0.105	251246	keystroke	y	n/a
125.8335	0.075	251667	keystroke	Key.space	n/a
126.0885	0.09	252177	keystroke	c	n/a
126.1935	0.12	252387	keystroke	h	n/a
126.3885	0.075	252777	keystroke	i	n/a
126.9135	0.075	253827	keystroke	c	n/a
127.169	0.075	254338	keystroke	k	n/a
127.304	0.105	254608	keystroke	e	n/a
127.424	0.105	254848	keystroke	n	n/a
127.634	0.1045	255268	keystroke	Key.space	n/a
127.8285	0.075	255657	keystroke	s	n/a
127.9785	0.09	255957	keystroke	y	n/a
128.219	0.075	256438	keystroke	n	n/a
128.639	0.105	257278	keystroke	t	n/a
128.788	0.151	257576	keystroke	a	n/a
129.1035	0.09	258207	keystroke	z	n/a
129.898	0.0905	259796	keystroke	Key.backspace	n/a
130.8585	0.075	261717	keystroke	x	n/a
131.593	0.075	263186	keystroke	Key.space	n/a
131.773	0.09	263546	keystroke	p	n/a
131.924	0.104	263848	keystroke	r	n/a
132.073	0.1055	264146	keystroke	i	n/a
132.2385	0.0905	264477	keystroke	s	n/a
132.404	0.21	264808	keystroke	o	n/a
132.524	0.105	265048	keystroke	n	n/a
132.764	0.15	265528	keystroke	e	n/a
132.884	0.089	265768	keystroke	r	n/a
133.514	0.059	267028	keystroke	Key.enter	n/a
133.587	9.371	267174	prompt	n/a	backup winter preservation fares\n
134.203	0.12	268406	keystroke	b	n/a
134.384	0.09	268768	keystroke	a	n/a
134.428	0.121	268856	keystroke	c	n/a
134.519	0.165	269038	keystroke	k	n/a
134.654	0.134	269308	keystroke	Key.space	n/a
135.2085	0.09	270417	keystroke	Key.backspace	n/a
135.4935	0.15	270987	keystroke	u	n/a
135.9135	0.105	271827	keystroke	p	n/a
136.1685	0.075	272337	keystroke	Key.space	n/a
136.6185	0.105	273237	keystroke	w	n/a
136.6935	0.12	273387	keystroke	i	n/a
136.7835	0.12	273567	keystroke	n	n/a
137.564	0.12	275128	keystroke	t	n/a
137.7285	0.12	275457	keystroke	e	n/a
137.8185	0.09	275637	keystroke	r	n/a
138.0435	0.12	276087	keystroke	Key.space	n/a
138.3735	0.09	276747	keystroke	p	n/a
138.7785	0.15	277557	keystroke	r	n/a
138.9135	0.09	277827	keystroke	e	n/a
139.1685	0.06	278337	keystroke	s	n/a
139.3785	0.135	278757	keystroke	e	n/a
139.4835	0.105	278967	keystroke	r	n/a
140.0385	0.105	280077	keystroke	v	n/a
140.1885	0.135	280377	keystroke	a	n/a
140.4285	0.0905	280857	keystroke	t	n/a
140.564	0.24	281128	keystroke	i	n/a
140.669	0.12	281338	keystroke	o	n/a
140.744	0.12	281488	keystroke	n	n/a
140.984	0.12	281968	keystroke	Key.space	n/a
141.373	0.15	282746	keystroke	f	n/a
141.538	0.21	283076	keystroke	a	n/a
141.988	0.105	283976	keystroke	r	n/a
142.063	0.105	284126	keystroke	e	n/a
142.288	0.075	284576	keystroke	s	n/a
142.873	0.075	285746	keystroke	Key.enter	n/a
142.962	8.726	285924	prompt	n/a	securities when's over postcard\n
143.624	0.015	287248	keystroke	s	n/a
143.684	0.075	287368	keystroke	e	n/a
143.924	0.09	287848	keystroke	c	n/a
144.059	0.09	288118	keystroke	u	n/a
144.284	0.09	288568	keystroke	r	n/a
144.404	0.075	288808	keystroke	i	n/a
144.7785	0.1055	289557	keystroke	t	n/a
144.9885	0.0755	289977	keystroke	i	n/a
145.183	0.045	290366	keystroke	e	n/a
145.513	0.09	291026	keystroke	s	n/a
145.873	0.075	291746	keystroke	Key.space	n/a
146.083	0.09	292166	keystroke	w	n/a
146.218	0.091	292436	keystroke	h	n/a
146.413	0.06	292826	keystroke	e	n/a
146.579	0.1045	293158	keystroke	n	n/a
146.8035	0.09	293607	keystroke	'	n/a
147.0585	0.03	294117	keystroke	s	n/a
147.3285	0.12	294657	keystroke	Key.space	n/a
147.6585	0.105	295317	keystroke	o	n/a
147.8085	0.09	295617	keystroke	v	n/a
148.0485	0.15	296097	keystroke	e	n/a
148.1685	0.12	296337	keystroke	r	n/a
148.333	0.12	296666	keystroke	Key.space	n/a
148.544	0.194	297088	keystroke	p	n/a
148.708	0.076	297416	keystroke	o	n/a
148.8585	0.09	297717	keystroke	s	n/a
149.684	0.119	299368	keystroke	r	n/a
150.208	0.075	300416	keystroke	Key.backspace	n/a
150.299	0.104	300598	keystroke	t	n/a
150.629	0.104	301258	keystroke	c	n/a
150.8385	0.135	301677	keystroke	a	n/a
151.0635	0.105	302127	keystroke	r	n/a
151.3035	0.0745	302607	keystroke	d	n/a
151.588	0.09	303176	keystroke	Key.enter	n/a
151.692	8.546	303384	prompt	n/a	pasta incorrect broader reporter\n
152.353	0.06	304706	keystroke	p	n/a
152.533	0.12	305066	keystroke	a	n/a
152.578	0.105	305156	keystroke	s	n/a
152.864	0.075	305728	keystroke	t	n/a
153.074	0.12	306148	keystroke	a	n/a
153.254	0.105	306508	keystroke	Key.space	n/a
153.464	0.09	306928	keystroke	i	n/a
153.659	0.105	307318	keystroke	n	n/a
153.824	0.09	307648	keystroke	c	n/a
154.319	0.089	308638	keystroke	o	n/a
154.543	0.06	309086	keystroke	r	n/a
154.708	0.09	309416	keystroke	r	n/a
154.8885	0.1045	309777	keystroke	e	n/a
155.069	0.09	310138	keystroke	c	n/a
155.339	0.075	310678	keystroke	t	n/a
155.4585	0.09	310917	keystroke	Key.space	n/a
155.6685	0.09	311337	keystroke	b	n/a
155.9235	0.09	311847	keystroke	r	n/a
156.1185	0.06	312237	keystroke	o	n/a
156.3585	0.09	312717	keystroke	a	n/a
156.5385	0.105	313077	keystroke	d	n/a
156.8535	0.1645	313707	keystroke	e	n/a
157.004	0.089	314008	keystroke	r	n/a
157.258	0.09	314516	keystroke	Key.space	n/a
157.768	0.0755	315536	keystroke	r	n/a
157.8135	0.135	315627	keystroke	e	n/a
157.9935	0.075	315987	keystroke	p	n/a
158.2185	0.075	316437	keystroke	o	n/a
158.8635	0.09	317727	keystroke	r	n/a
159.1335	0.09	318267	keystroke	t	n/a
159.3585	0.09	318717	keystroke	e	n/a
159.5235	0.09	319047	keystroke	r	n/a
160.124	0.105	320248	keystroke	Key.enter	n/a
160.2425	7.3445	320485	prompt	n/a	lamp festival consider lookup\n
160.769	0.09	321538	keystroke	l	n/a
160.919	0.105	321838	keystroke	a	n/a
161.0985	0.045	322197	keystroke	m	n/a
161.2635	0.075	322527	keystroke	p	n/a
161.5035	0.075	323007	keystroke	Key.space	n/a
161.9085	0.12	323817	keystroke	f	n/a
162.0885	0.105	324177	keystroke	e	n/a
162.3135	0.09	324627	keystroke	s	n/a
162.764	0.105	325528	keystroke	t	n/a
162.959	0.09	325918	keystroke	i	n/a
163.169	0.105	326338	keystroke	v	n/a
163.334	0.075	326668	keystroke	a	n/a
163.484	0.075	326968	keystroke	l	n/a
163.694	0.09	327388	keystroke	Key.space	n/a
163.844	0.12	327688	keystroke	c	n/a
163.964	0.135	327928	keystroke	o	n/a
164.069	0.12	328138	keystroke	n	n/a
164.264	0.105	328528	keystroke	s	n/a
164.429	0.09	328858	keystroke	i	n/a
164.624	0.18	329248	keystroke	d	n/a
164.774	0.21	329548	keystroke	e	n/a
164.939	0.12	329878	keystroke	r	n/a
165.209	0.06	330418	keystroke	Key.space	n/a
165.389	0.075	330778	keystroke	l	n/a
165.614	0.045	331228	keystroke	o	n/a
165.779	0.165	331558	keystroke	o	n/a
165.884	0.12	331768	keystroke	k	n/a
166.214	0.075	332428	keystroke	u	n/a
166.724	0.105	333448	keystroke	p	n/a
167.5185	0.06	335037	keystroke	Key.enter	n/a
167.591	9.7915	335182	prompt	n/a	container rather billy michigan\n
168.194	0.135	336388	keystroke	c	n/a
168.373	0.1205	336746	keystroke	o	n/a
168.4485	0.135	336897	keystroke	n	n/a
168.6435	0.105	337287	keystroke	t	n/a
168.8235	0.12	337647	keystroke	a	n/a
168.9885	0.12	337977	keystroke	i	n/a
169.1985	0.105	338397	keystroke	n	n/a
169.4085	0.15	338817	keystroke	e	n/a
169.4985	0.105	338997	keystroke	r	n/a
169.9185	0.12	339837	keystroke	Key.space	n/a
170.2785	0.15	340557	keystroke	r	n/a
170.4735	0.12	340947	keystroke	a	n/a
170.6685	0.105	341337	keystroke	t	n/a
170.8335	0.12	341667	keystroke	h	n/a
170.9685	0.12	341937	keystroke	e	n/a
171.0285	0.12	342057	keystroke	r	n/a
171.2235	0.09	342447	keystroke	Key.space	n/a
171.4485	0.075	342897	keystroke	b	n/a
171.6285	0.075	343257	keystroke	i	n/a
171.8085	0.075	343617	keystroke	l	n/a
171.9735	0.075	343947	keystroke	l	n/a
172.2285	0.105	344457	keystroke	y	n/a
172.4085	0.12	344817	keystroke	Key.space	n/a
172.8585	0.105	345717	keystroke	m	n/a
173.3985	0.03	346797	keystroke	u	n/a
173.579	0.075	347158	keystroke	c	n/a
173.939	0.045	347878	keystroke	Key.backspace	n/a
174.164	0.015	348328	keystroke	Key.backspace	n/a
174.329	0.06	348658	keystroke	i	n/a
174.7335	0.12	349467	keystroke	c	n/a
175.5285	0.15	351057	keystroke	h	n/a
175.7535	0.105	351507	keystroke	i	n/a
176.1885	0.105	352377	keystroke	g	n/a
176.5185	0.105	353037	keystroke	a	n/a
176.6535	0.1355	353307	keystroke	n	n/a
177.329	0.045	354658	keystroke	Key.enter	n/a
177.3865	9.521	354773	prompt	n/a	processor deborah generic write\n
177.959	0.075	355918	keystroke	p	n/a
178.094	0.105	356188	keystroke	r	n/a
178.214	0.105	356428	keystroke	o	n/a
178.409	0.21	356818	keystroke	c	n/a
178.5735	0.105	357147	keystroke	e	n/a
178.8435	0.075	357687	keystroke	s	n/a
179.039	0.0745	358078	keystroke	s	n/a
179.173	0.076	358346	keystroke	o	n/a
179.4885	0.1055	358977	keystroke	r	n/a
179.7435	0.105	359487	keystroke	Key.space	n/a
180.4185	0.135	360837	keystroke	d	n/a
180.5685	0.075	361137	keystroke	e	n/a
180.7485	0.09	361497	keystroke	b	n/a
180.9585	0.09	361917	keystroke	o	n/a
181.1685	0.12	362337	keystroke	r	n/a
181.3485	0.105	362697	keystroke	a	n/a
181.5435	0.09	363087	keystroke	h	n/a
182.0535	0.09	364107	keystroke	Key.space	n/a
182.699	0.0745	365398	keystroke	g	n/a
182.8935	0.09	365787	keystroke	e	n/a
183.0885	0.06	366177	keystroke	n	n/a
183.2685	0.075	366537	keystroke	e	n/a
183.6135	0.09	367227	keystroke	r	n/a
183.7785	0.075	367557	keystroke	i	n/a
183.9285	0.105	367857	keystroke	c	n/a
184.199	0.12	368398	keystroke	Key.space	n/a
185.129	0.105	370258	keystroke	w	n/a
185.639	0.105	371278	keystroke	r	n/a
185.819	0.06	371638	keystroke	i	n/a
185.939	0.09	371878	keystroke	t	n/a
186.134	0.075	372268	keystroke	e	n/a
186.8085	0.09	373617	keystroke	Key.enter	n/a
186.9135	8.349	373827	prompt	n/a	cabin startup allocated respond\n
187.5435	0.135	375087	keystroke	c	n/a
187.6935	0.12	375387	keystroke	a	n/a
187.8285	0.09	375657	keystroke	b	n/a
188.0535	0.075	376107	keystroke	i	n/a
188.2485	0.165	376497	keystroke	n	n/a
188.3685	0.12	376737	keystroke	Key.space	n/a
188.5485	0.09	377097	keystroke	s	n/a
188.7585	0.1205	377517	keystroke	t	n/a
188.954	0.135	377908	keystroke	a	n/a
189.044	0.09	378088	keystroke	r	n/a
189.269	0.075	378538	keystroke	t	n/a
189.7345	0.089	379469	keystroke	i	n/a
190.0185	0.046	380037	keystroke	p	n/a
190.2885	0.045	380577	keystroke	Key.backspace	n/a
190.4385	0.06	380877	keystroke	Key.backspace	n/a
190.6485	0.09	381297	keystroke	u	n/a
190.889	0.0895	381778	keystroke	p	n/a
191.2035	0.106	382407	keystroke	Key.space	n/a
191.6235	0.12	383247	keystroke	a	n/a
191.7285	0.075	383457	keystroke	l	n/a
191.8935	0.075	383787	keystroke	l	n/a
192.0735	0.09	384147	keystroke	o	n/a
192.269	0.12	384538	keystroke	c	n/a
192.358	0.135	384716	keystroke	a	n/a
192.659	0.104	385318	keystroke	t	n/a
192.823	0.151	385646	keystroke	e	n/a
192.944	0.09	385888	keystroke	d	n/a
193.0935	0.12	386187	keystroke	Key.space	n/a
193.2885	0.135	386577	keystroke	r	n/a
193.3785	0.09	386757	keystroke	e	n/a
193.6035	0.075	387207	keystroke	s	n/a
193.7235	0.075	387447	keystroke	p	n/a
193.9485	0.09	387897	keystroke	o	n/a
194.0985	0.105	388197	keystroke	n	n/a
194.2935	0.09	388587	keystroke	d	n/a
195.1935	0.06	390387	keystroke	Key.enter	n/a
195.2665	10.196	390533	prompt	n/a	girls classes hungary approximate\n
196.0935	0.12	392187	keystroke	g	n/a
196.364	0.06	392728	keystroke	i	n/a
196.484	0.105	392968	keystroke	r	n/a
196.649	0.105	393298	keystroke	l	n/a
196.844	0.075	393688	keystroke	s	n/a
196.994	0.12	393988	keystroke	Key.space	n/a
197.144	0.12	394288	keystroke	c	n/a
197.309	0.09	394618	keystroke	l	n/a
197.489	0.15	394978	keystroke	a	n/a
197.609	0.105	395218	keystroke	s	n/a
197.834	0.075	395668	keystroke	s	n/a
198.029	0.09	396058	keystroke	e	n/a
198.254	0.09	396508	keystroke	s	n/a
198.419	0.12	396838	keystroke	Key.space	n/a
198.779	0.12	397558	keystroke	h	n/a
198.959	0.195	397918	keystroke	u	n/a
199.079	0.135	398158	keystroke	n	n/a
199.334	0.09	398668	keystroke	g	n/a
199.529	0.12	399058	keystroke	a	n/a
199.664	0.105	399328	keystroke	r	n/a
200.024	0.075	400048	keystroke	y	n/a
200.354	0.0895	400708	keystroke	Key.space	n/a
201.599	0.075	403198	keystroke	a	n/a
201.838	0.061	403676	keystroke	p	n/a
202.0035	0.075	404007	keystroke	p	n/a
202.1235	0.075	404247	keystroke	r	n/a
202.2885	0.09	404577	keystroke	o	n/a
202.874	0.075	405748	keystroke	z	n/a
203.4435	0.075	406887	keystroke	Key.backspace	n/a
203.5335	0.075	407067	keystroke	x	n/a
204.119	0.06	408238	keystroke	i	n/a
204.314	0.09	408628	keystroke	m	n/a
204.434	0.075	408868	keystroke	a	n/a
204.644	0.105	409288	keystroke	t	n/a
204.734	0.105	409468	keystroke	e	n/a
205.379	0.075	410758	keystroke	Key.enter	n/a
205.4665	11.8165	410933	prompt	n/a	universal indicating entertaining steady\n
206.0985	0.09	412197	keystroke	u	n/a
206.2935	0.075	412587	keystroke	n	n/a
206.4885	0.06	412977	keystroke	i	n/a
206.7435	0.105	413487	keystroke	v	n/a
206.9535	0.136	413907	keystroke	e	n/a
207.0585	0.135	414117	keystroke	r	n/a
207.584	0.165	415168	keystroke	s	n/a
207.794	0.09	415588	keystroke	a	n/a
207.959	0.225	415918	keystroke	l	n/a
208.154	0.12	416308	keystroke	Key.space	n/a
208.409	0.105	416818	keystroke	i	n/a
208.5885	0.12	417177	keystroke	n	n/a
208.7835	0.105	417567	keystroke	d	n/a
208.9485	0.06	417897	keystroke	i	n/a
209.2935	0.135	418587	keystroke	c	n/a
209.4135	0.105	418827	keystroke	a	n/a
209.6235	0.09	419247	keystroke	t	n/a
209.789	0.135	419578	keystroke	i	n/a
209.909	0.1045	419818	keystroke	n	n/a
210.1035	0.09	420207	keystroke	g	n/a
210.2085	0.135	420417	keystroke	Key.space	n/a
210.3885	0.09	420777	keystroke	e	n/a
210.5985	0.09	421197	keystroke	n	n/a
211.3485	0.0755	422697	keystroke	t	n/a
211.529	0.1045	423058	keystroke	e	n/a
211.9335	0.105	423867	keystroke	r	n/a
212.4735	0.06	424947	keystroke	t	n/a
213.7635	0.09	427527	keystroke	a	n/a
213.9435	0.135	427887	keystroke	i	n/a
214.0335	0.105	428067	keystroke	n	n/a
214.244	0.09	428488	keystroke	i	n/a
214.304	0.105	428608	keystroke	n	n/a
214.439	0.075	428878	keystroke	g	n/a
215.0835	0.09	430167	keystroke	Key.space	n/a
215.3385	0.06	430677	keystroke	s	n/a
215.5335	0.105	431067	keystroke	t	n/a
215.6835	0.18	431367	keystroke	e	n/a
215.8485	0.1355	431697	keystroke	a	n/a
216.2385	0.075	432477	keystroke	d	n/a
216.5385	0.06	433077	keystroke	y	n/a
217.228	0.0455	434456	keystroke	Key.enter	n/a
217.287	7.8855	434574	prompt	n/a	ruby tion efficient warned\n
218.039	0.1045	436078	keystroke	r	n/a
218.1885	0.15	436377	keystroke	u	n/a
218.3835	0.12	436767	keystroke	b	n/a
218.6535	0.075	437307	keystroke	y	n/a
219.119	0.06	438238	keystroke	Key.space	n/a
219.509	0.1045	439018	keystroke	t	n/a
219.6435	0.27	439287	keystroke	i	n/a
219.8085	0.135	439617	keystroke	o	n/a
219.8985	0.15	439797	keystroke	n	n/a
220.1385	0.135	440277	keystroke	Key.space	n/a
220.8435	0.105	441687	keystroke	e	n/a
221.0685	0.09	442137	keystroke	f	n/a
221.3085	0.075	442617	keystroke	f	n/a
221.4885	0.1055	442977	keystroke	i	n/a
222.269	0.12	444538	keystroke	c	n/a
222.839	0.075	445678	keystroke	i	n/a
223.064	0.075	446128	keystroke	e	n/a
223.2135	0.105	446427	keystroke	n	n/a
223.424	0.075	446848	keystroke	t	n/a
223.6785	0.015	447357	keystroke	Key.space	n/a
223.7685	0.1805	447537	keystroke	w	n/a
223.904	0.15	447808	keystroke	a	n/a
224.0235	0.1205	448047	keystroke	r	n/a
224.2185	0.09	448437	keystroke	n	n/a
224.3835	0.0905	448767	keystroke	e	n/a
224.4285	0.1055	448857	keystroke	d	n/a
225.0885	0.0755	450177	keystroke	Key.enter	n/a
225.1765	8.4875	450353	prompt	n/a	marvel blessed safe experiences\n
225.8085	0.12	451617	keystroke	m	n/a
225.9135	0.165	451827	keystroke	a	n/a
226.0335	0.105	452067	keystroke	r	n/a
226.319	0.1045	452638	keystroke	v	n/a
226.4235	0.12	452847	keystroke	e	n/a
226.6185	0.105	453237	keystroke	l	n/a
226.8435	0.09	453687	keystroke	Key.space	n/a
227.0835	0.0905	454167	keystroke	b	n/a
227.2785	0.09	454557	keystroke	l	n/a
227.3835	0.0755	454767	keystroke	e	n/a
227.6395	0.075	455279	keystroke	s	n/a
227.8345	0.0745	455669	keystroke	s	n/a
228.089	0.09	456178	keystroke	e	n/a
228.329	0.09	456658	keystroke	s	n/a
228.7485	0.06	457497	keystroke	Key.backspace	n/a
228.8235	0.06	457647	keystroke	d	n/a
229.184	0.105	458368	keystroke	Key.space	n/a
229.649	0.18	459298	keystroke	s	n/a
229.784	0.135	459568	keystroke	a	n/a
230.129	0.045	460258	keystroke	f	n/a
230.564	0.105	461128	keystroke	e	n/a
230.759	0.135	461518	keystroke	Key.space	n/a
231.1935	0.075	462387	keystroke	e	n/a
231.4345	0.089	462869	keystroke	x	n/a
231.6745	0.06	463349	keystroke	p	n/a
231.8545	0.134	463709	keystroke	e	n/a
232.0035	0.106	464007	keystroke	r	n/a
232.1835	0.061	464367	keystroke	i	n/a
232.3485	0.076	464697	keystroke	e	n/a
232.4685	0.0905	464937	keystroke	n	n/a
232.619	0.15	465238	keystroke	c	n/a
232.724	0.105	465448	keystroke	e	n/a
232.949	0.075	465898	keystroke	s	n/a
233.5935	0.06	467187	keystroke	Key.enter	n/a
233.668	11.515	467336	prompt	n/a	who'll may strings seafood\n
234.2535	0.105	468507	keystroke	w	n/a
234.4035	0.1505	468807	keystroke	h	n/a
234.509	0.105	469018	keystroke	o	n/a
234.7635	0.045	469527	keystroke	l	n/a
235.1985	0.075	470397	keystroke	Key.backspace	n/a
235.754	0.075	471508	keystroke	;	n/a
236.054	0.045	472108	keystroke	l	n/a
236.804	0.06	473608	keystroke	Key.backspace	n/a
237.014	0.045	474028	keystroke	Key.backspace	n/a
237.239	0.06	474478	keystroke	'	n/a
237.524	0.045	475048	keystroke	l	n/a
237.674	0.06	475348	keystroke	l	n/a
237.8535	0.12	475707	keystroke	Key.space	n/a
238.2585	0.09	476517	keystroke	m	n/a
238.4085	0.075	476817	keystroke	a	n/a
238.829	0.09	477658	keystroke	y	n/a
239.084	0.105	478168	keystroke	Key.space	n/a
239.309	0.075	478618	keystroke	s	n/a
239.549	0.075	479098	keystroke	t	n/a
239.729	0.075	479458	keystroke	r	n/a
239.849	0.09	479698	keystroke	i	n/a
239.909	0.1205	479818	keystroke	n	n/a
240.0435	0.091	480087	keystroke	g	n/a
240.2835	0.09	480567	keystroke	s	n/a
240.4935	0.0755	480987	keystroke	Key.space	n/a
240.764	0.105	481528	keystroke	s	n/a
240.944	0.12	481888	keystroke	e	n/a
241.1085	0.15	482217	keystroke	a	n/a
241.724	0.12	483448	keystroke	g	n/a
241.874	0.075	483748	keystroke	o	n/a
242.054	0.075	484108	keystroke	o	n/a
242.369	0.045	484738	keystroke	Key.backspace	n/a
242.519	0.045	485038	keystroke	Key.backspace	n/a
242.669	0.075	485338	keystroke	Key.backspace	n/a
242.834	0.06	485668	keystroke	f	n/a
242.954	0.09	485908	keystroke	o	n/a
243.134	0.075	486268	keystroke	o	n/a
243.8685	0.105	487737	keystroke	d	n/a
245.0835	0.09	490167	keystroke	Key.enter	n/a
245.1875	8.3355	490375	prompt	n/a	wesley lived george katrina\n
245.9985	0.09	491997	keystroke	w	n/a
246.1785	0.075	492357	keystroke	e	n/a
246.419	0.12	492838	keystroke	s	n/a
246.659	0.09	493318	keystroke	l	n/a
246.839	0.09	493678	keystroke	e	n/a
247.139	0.06	494278	keystroke	y	n/a
247.364	0.09	494728	keystroke	Key.space	n/a
247.574	0.075	495148	keystroke	l	n/a
247.874	0.0755	495748	keystroke	i	n/a
248.0995	0.104	496199	keystroke	v	n/a
248.3535	0.151	496707	keystroke	e	n/a
248.4895	0.134	496979	keystroke	d	n/a
248.684	0.12	497368	keystroke	Key.space	n/a
248.939	0.105	497878	keystroke	g	n/a
249.179	0.075	498358	keystroke	e	n/a
249.839	0.09	499678	keystroke	o	n/a
250.139	0.09	500278	keystroke	r	n/a
250.469	0.075	500938	keystroke	g	n/a
250.694	0.105	501388	keystroke	e	n/a
250.904	0.105	501808	keystroke	Key.space	n/a
251.174	0.105	502348	keystroke	k	n/a
251.414	0.09	502828	keystroke	a	n/a
251.624	0.075	503248	keystroke	t	n/a
251.849	0.06	503698	keystroke	r	n/a
252.059	0.075	504118	keystroke	i	n/a
252.2685	0.09	504537	keystroke	n	n/a
252.4485	0.076	504897	keystroke	a	n/a
253.454	0.06	506908	keystroke	Key.enter	n/a
253.5275	7.9155	507055	prompt	n/a	unable messages booty outdoors\n
254.219	0.12	508438	keystroke	u	n/a
254.429	0.105	508858	keystroke	n	n/a
254.609	0.075	509218	keystroke	a	n/a
254.714	0.105	509428	keystroke	b	n/a
254.939	0.105	509878	keystroke	l	n/a
255.104	0.075	510208	keystroke	e	n/a
255.254	0.105	510508	keystroke	Key.space	n/a
255.524	0.105	511048	keystroke	m	n/a
255.659	0.09	511318	keystroke	e	n/a
255.884	0.075	511768	keystroke	s	n/a
256.079	0.09	512158	keystroke	s	n/a
256.259	0.0905	512518	keystroke	a	n/a
256.4695	0.105	512939	keystroke	g	n/a
256.6195	0.105	513239	keystroke	e	n/a
256.8445	0.09	513689	keystroke	s	n/a
256.9795	0.075	513959	keystroke	Key.space	n/a
257.1745	0.105	514349	keystroke	b	n/a
257.3095	0.075	514619	keystroke	o	n/a
257.5045	0.09	515009	keystroke	o	n/a
257.6245	0.089	515249	keystroke	t	n/a
257.8035	0.091	515607	keystroke	y	n/a
258.0285	0.091	516057	keystroke	Key.space	n/a
258.5235	0.166	517047	keystroke	o	n/a
258.6295	0.105	517259	keystroke	u	n/a
258.8095	0.075	517619	keystroke	t	n/a
259.4395	0.09	518879	keystroke	d	n/a
259.7095	0.09	519419	keystroke	o	n/a
259.9345	0.075	519869	keystroke	o	n/a
260.0545	0.105	520109	keystroke	r	n/a
260.654	0.09	521308	keystroke	s	n/a
261.344	0.09	522688	keystroke	Key.enter	n/a
261.4475	9.1605	522895	prompt	n/a	association closure resolved border\n
262.214	0.12	524428	keystroke	a	n/a
262.424	0.0905	524848	keystroke	s	n/a
262.634	0.06	525268	keystroke	s	n/a
262.784	0.105	525568	keystroke	o	n/a
263.279	0.09	526558	keystroke	c	n/a
263.444	0.09	526888	keystroke	i	n/a
263.609	0.1045	527218	keystroke	a	n/a
263.8785	0.09	527757	keystroke	t	n/a
264.0435	0.105	528087	keystroke	i	n/a
264.2535	0.21	528507	keystroke	o	n/a
264.4485	0.1355	528897	keystroke	n	n/a
264.8845	0.075	529769	keystroke	Key.space	n/a
265.199	0.105	530398	keystroke	c	n/a
265.319	0.075	530638	keystroke	l	n/a
265.514	0.075	531028	keystroke	o	n/a
265.7535	0.09	531507	keystroke	s	n/a
265.8735	0.09	531747	keystroke	u	n/a
266.1435	0.165	532287	keystroke	r	n/a
266.3235	0.15	532647	keystroke	e	n/a
266.5935	0.0905	533187	keystroke	Key.space	n/a
266.8795	0.15	533759	keystroke	r	n/a
267.0145	0.09	534029	keystroke	e	n/a
267.2395	0.075	534479	keystroke	s	n/a
267.4035	0.06	534807	keystroke	o	n/a
267.5985	0.106	535197	keystroke	l	n/a
267.7495	0.135	535499	keystroke	v	n/a
268.0045	0.135	536009	keystroke	e	n/a
268.1245	0.135	536249	keystroke	d	n/a
268.3645	0.059	536729	keystroke	Key.space	n/a
268.5735	0.0905	537147	keystroke	b	n/a
268.754	0.105	537508	keystroke	o	n/a
268.964	0.0895	537928	keystroke	r	n/a
269.2035	0.12	538407	keystroke	d	n/a
269.3835	0.165	538767	keystroke	e	n/a
269.5345	0.12	539069	keystroke	r	n/a
270.5235	0.075	541047	keystroke	Key.enter	n/a
270.612	7.0305	541224	prompt	n/a	flows inns they'll regard\n
271.289	0.1205	542578	keystroke	f	n/a
271.7235	0.091	543447	keystroke	l	n/a
271.9345	0.105	543869	keystroke	o	n/a
272.1595	0.09	544319	keystroke	w	n/a
272.7585	0.1205	545517	keystroke	s	n/a
273.1485	0.045	546297	keystroke	Key.space	n/a
273.2985	0.105	546597	keystroke	i	n/a
273.3885	0.105	546777	keystroke	n	n/a
273.6585	0.045	547317	keystroke	n	n/a
273.869	0.06	547738	keystroke	s	n/a
274.274	0.105	548548	keystroke	Key.space	n/a
274.574	0.09	549148	keystroke	t	n/a
274.694	0.12	549388	keystroke	h	n/a
274.829	0.09	549658	keystroke	e	n/a
274.979	0.1055	549958	keystroke	y	n/a
275.2045	0.06	550409	keystroke	'	n/a
275.4295	0.09	550859	keystroke	l	n/a
275.6395	0.075	551279	keystroke	l	n/a
275.909	0.105	551818	keystroke	Key.space	n/a
276.404	0.15	552808	keystroke	r	n/a
276.524	0.09	553048	keystroke	e	n/a
276.749	0.045	553498	keystroke	g	n/a
276.914	0.1505	553828	keystroke	a	n/a
277.0795	0.105	554159	keystroke	r	n/a
277.3045	0.06	554609	keystroke	d	n/a
277.559	0.075	555118	keystroke	Key.enter	n/a
277.6485	7.292	555297	prompt	n/a	shapes call nintendo congress\n
278.339	0.105	556678	keystroke	s	n/a
278.519	0.12	557038	keystroke	h	n/a
278.684	0.105	557368	keystroke	a	n/a
278.849	0.0895	557698	keystroke	p	n/a
279.0285	0.0905	558057	keystroke	e	n/a
279.239	0.0755	558478	keystroke	s	n/a
279.4195	0.12	558839	keystroke	Key.space	n/a
279.7795	0.12	559559	keystroke	c	n/a
279.8545	0.135	559709	keystroke	a	n/a
280.049	0.075	560098	keystroke	l	n/a
280.244	0.09	560488	keystroke	l	n/a
280.319	0.075	560638	keystroke	Key.space	n/a
280.529	0.09	561058	keystroke	n	n/a
280.664	0.15	561328	keystroke	i	n/a
280.769	0.12	561538	keystroke	n	n/a
281.0685	0.135	562137	keystroke	t	n/a
281.1735	0.135	562347	keystroke	e	n/a
281.3695	0.09	562739	keystroke	n	n/a
281.5335	0.076	563067	keystroke	d	n/a
281.6545	0.089	563309	keystroke	o	n/a
281.9835	0.09	563967	keystroke	Key.space	n/a
282.9735	0.09	565947	keystroke	c	n/a
283.0645	0.119	566129	keystroke	o	n/a
283.1685	0.09	566337	keystroke	n	n/a
283.7235	0.075	567447	keystroke	g	n/a
284.0085	0.15	568017	keystroke	r	n/a
284.1285	0.105	568257	keystroke	e	n/a
284.3835	0.06	568767	keystroke	s	n/a
284.5485	0.075	569097	keystroke	s	n/a
284.8635	0.075	569727	keystroke	Key.enter	n/a
284.943	11.1055	569886	prompt	n/a	hull lodge sick correspondence\n
285.6595	0.135	571319	keystroke	h	n/a
286.0945	0.09	572189	keystroke	u	n/a
286.5145	0.09	573029	keystroke	l	n/a
286.7545	0.105	573509	keystroke	l	n/a
286.8745	0.105	573749	keystroke	Key.space	n/a
287.0245	0.075	574049	keystroke	l	n/a
287.2195	0.09	574439	keystroke	o	n/a
287.5195	0.09	575039	keystroke	d	n/a
288.2695	0.089	576539	keystroke	g	n/a
288.4645	0.105	576929	keystroke	e	n/a
289.0485	0.12	578097	keystroke	Key.space	n/a
289.2735	0.075	578547	keystroke	s	n/a
289.3795	0.104	578759	keystroke	i	n/a
289.5595	0.075	579119	keystroke	c	n/a
289.6785	0.151	579357	keystroke	k	n/a
289.7985	0.12	579597	keystroke	Key.space	n/a
290.1295	0.119	580259	keystroke	c	n/a
290.2645	0.105	580529	keystroke	o	n/a
290.4435	0.106	580887	keystroke	r	n/a
290.6245	0.104	581249	keystroke	r	n/a
290.7595	0.105	581519	keystroke	e	n/a
290.9845	0.09	581969	keystroke	s	n/a
291.6445	0.075	583289	keystroke	p	n/a
292.3485	0.1205	584697	keystroke	o	n/a
292.454	0.12	584908	keystroke	n	n/a
292.709	0.09	585418	keystroke	d	n/a
293.309	0.09	586618	keystroke	e	n/a
293.414	0.12	586828	keystroke	n	n/a
294.119	0.135	588238	keystroke	c	n/a
294.419	0.1055	588838	keystroke	e	n/a
295.9335	0.105	591867	keystroke	Key.enter	n/a
296.053	10.39	592106	prompt	n/a	midlands pointer wesley relying\n
297.359	0.105	594718	keystroke	m	n/a
297.644	0.06	595288	keystroke	i	n/a
297.929	0.075	595858	keystroke	d	n/a
298.169	0.09	596338	keystroke	l	n/a
298.379	0.075	596758	keystroke	a	n/a
298.469	0.12	596938	keystroke	n	n/a
298.649	0.15	597298	keystroke	d	n/a
298.784	0.1195	597568	keystroke	s	n/a
298.9485	0.1055	597897	keystroke	Key.space	n/a
299.129	0.1795	598258	keystroke	p	n/a
299.249	0.1045	598498	keystroke	o	n/a
299.4735	0.12	598947	keystroke	i	n/a
299.5485	0.135	599097	keystroke	n	n/a
299.7135	0.15	599427	keystroke	t	n/a
299.9085	0.136	599817	keystroke	e	n/a
300.0145	0.1045	600029	keystroke	r	n/a
300.329	0.105	600658	keystroke	Key.space	n/a
300.689	0.195	601378	keystroke	w	n/a
300.8685	0.0905	601737	keystroke	e	n/a
301.124	0.09	602248	keystroke	s	n/a
301.499	0.12	602998	keystroke	l	n/a
301.649	0.075	603298	keystroke	e	n/a
302.7585	0.091	605517	keystroke	y	n/a
302.9095	0.105	605819	keystroke	Key.space	n/a
303.2235	0.165	606447	keystroke	r	n/a
303.4045	0.12	606809	keystroke	e	n/a
303.9735	0.105	607947	keystroke	l	n/a
304.349	0.06	608698	keystroke	y	n/a
305.354	0.12	610708	keystroke	i	n/a
305.429	0.135	610858	keystroke	n	n/a
305.579	0.09	611158	keystroke	g	n/a
306.359	0.075	612718	keystroke	Key.enter	n/a
306.447	9.311	612894	prompt	n/a	elect blogger chick patrick\n
307.0185	0.09	614037	keystroke	e	n/a
307.1685	0.105	614337	keystroke	l	n/a
307.3035	0.15	614607	keystroke	e	n/a
307.4685	0.135	614937	keystroke	c	n/a
307.8285	0.09	615657	keystroke	t	n/a
308.8935	0.105	617787	keystroke	Key.space	n/a
309.239	0.12	618478	keystroke	c	n/a
309.8235	0.06	619647	keystroke	Key.backspace	n/a
309.8985	0.105	619797	keystroke	v	n/a
310.7395	0.06	621479	keystroke	Key.backspace	n/a
311.024	0.0745	622048	keystroke	b	n/a
311.1885	0.06	622377	keystroke	l	n/a
311.3685	0.09	622737	keystroke	o	n/a
311.6535	0.075	623307	keystroke	g	n/a
311.8335	0.09	623667	keystroke	g	n/a
312.0435	0.12	624087	keystroke	e	n/a
312.1185	0.1205	624237	keystroke	r	n/a
312.344	0.09	624688	keystroke	Key.space	n/a
312.554	0.12	625108	keystroke	c	n/a
312.659	0.15	625318	keystroke	h	n/a
312.779	0.09	625558	keystroke	i	n/a
312.884	0.105	625768	keystroke	c	n/a
313.559	0.0595	627118	keystroke	k	n/a
313.8885	0.105	627777	keystroke	Key.space	n/a
314.1585	0.09	628317	keystroke	p	n/a
314.3235	0.105	628647	keystroke	a	n/a
314.549	0.075	629098	keystroke	t	n/a
314.744	0.09	629488	keystroke	r	n/a
314.879	0.105	629758	keystroke	i	n/a
314.999	0.0895	629998	keystroke	c	n/a
315.1485	0.105	630297	keystroke	k	n/a
315.6735	0.075	631347	keystroke	Key.enter	n/a
315.762	12.941	631524	prompt	n/a	vulnerable proposals fund home\n
316.4535	0.105	632907	keystroke	b	n/a
316.7535	0.045	633507	keystroke	u	n/a
316.8735	0.09	633747	keystroke	l	n/a
317.204	0.045	634408	keystroke	Key.backspace	n/a
317.354	0.0595	634708	keystroke	Key.backspace	n/a
317.519	0.075	635038	keystroke	Key.backspace	n/a
317.834	0.045	635668	keystroke	v	n/a
318.434	0.075	636868	keystroke	u	n/a
318.599	0.09	637198	keystroke	l	n/a
319.019	0.075	638038	keystroke	b	n/a
319.379	0.165	638758	keystroke	e	n/a
319.484	0.105	638968	keystroke	r	n/a
319.799	0.075	639598	keystroke	Key.backspace	n/a
319.949	0.06	639898	keystroke	Key.backspace	n/a
320.114	0.0755	640228	keystroke	Key.backspace	n/a
320.3245	0.06	640649	keystroke	n	n/a
320.879	0.135	641758	keystroke	e	n/a
320.969	0.1045	641938	keystroke	r	n/a
321.2385	0.135	642477	keystroke	a	n/a
321.4635	0.106	642927	keystroke	b	n/a
321.6585	0.106	643317	keystroke	l	n/a
321.7945	0.075	643589	keystroke	e	n/a
321.9745	0.089	643949	keystroke	Key.space	n/a
322.2445	0.075	644489	keystroke	p	n/a
322.5135	0.09	645027	keystroke	r	n/a
322.6335	0.075	645267	keystroke	o	n/a
322.8585	0.075	645717	keystroke	p	n/a
323.069	0.09	646138	keystroke	o	n/a
323.234	0.1055	646468	keystroke	s	n/a
323.4745	0.09	646949	keystroke	a	n/a
323.5935	0.121	647187	keystroke	l	n/a
323.7435	0.121	647487	keystroke	s	n/a
323.9545	0.104	647909	keystroke	Key.space	n/a
324.3745	0.104	648749	keystroke	d	n/a
324.8685	0.075	649737	keystroke	Key.backspace	n/a
325.0035	0.0755	650007	keystroke	f	n/a
325.094	0.06	650188	keystroke	f	n/a
325.274	0.135	650548	keystroke	u	n/a
325.739	0.06	651478	keystroke	Key.backspace	n/a
325.8885	0.06	651777	keystroke	Key.backspace	n/a
326.5185	0.076	653037	keystroke	u	n/a
326.744	0.075	653488	keystroke	n	n/a
326.969	0.09	653938	keystroke	d	n/a
327.2835	0.045	654567	keystroke	Key.space	n/a
327.6135	0.105	655227	keystroke	h	n/a
327.7785	0.135	655557	keystroke	o	n/a
327.8535	0.12	655707	keystroke	m	n/a
327.9585	0.09	655917	keystroke	e	n/a
328.6185	0.075	657237	keystroke	Key.enter	n/a
328.709	17.499	657418	prompt	n/a	deborah gaps thriller attractions\n
336.4665	0.013	672933	keystroke	d	n/a
336.6145	0.06	673229	keystroke	e	n/a
336.9745	0.075	673949	keystroke	b	n/a
337.1695	0.105	674339	keystroke	o	n/a
337.4095	0.09	674819	keystroke	r	n/a
337.6945	0.105	675389	keystroke	a	n/a
337.7845	0.09	675569	keystroke	h	n/a
338.0985	0.105	676197	keystroke	Key.space	n/a
340.651	0.013	681302	keystroke	g	n/a
340.799	0.09	681598	keystroke	a	n/a
340.949	0.105	681898	keystroke	p	n/a
341.129	0.075	682258	keystroke	s	n/a
341.3395	0.105	682679	keystroke	Key.space	n/a
341.9245	0.06	683849	keystroke	t	n/a
342.0745	0.105	684149	keystroke	h	n/a
342.3595	0.045	684719	keystroke	r	n/a
342.5245	0.075	685049	keystroke	i	n/a
342.7195	0.075	685439	keystroke	l	n/a
342.884	0.09	685768	keystroke	l	n/a
343.1085	0.135	686217	keystroke	e	n/a
343.2585	0.076	686517	keystroke	r	n/a
343.4395	0.105	686879	keystroke	Key.space	n/a
343.694	0.105	687388	keystroke	a	n/a
343.934	0.075	687868	keystroke	t	n/a
344.129	0.03	688258	keystroke	t	n/a
344.759	0.09	689518	keystroke	r	n/a
344.954	0.135	689908	keystroke	a	n/a
345.134	0.09	690268	keystroke	c	n/a
345.404	0.075	690808	keystroke	t	n/a
345.539	0.24	691078	keystroke	i	n/a
345.6585	0.18	691317	keystroke	o	n/a
345.7485	0.1205	691497	keystroke	n	n/a
345.899	0.0895	691798	keystroke	s	n/a
346.1085	0.09	692217	keystroke	Key.enter	n/a
346.212	9.671	692424	prompt	n/a	fountain exams attach application\n
347.3095	0.15	694619	keystroke	f	n/a
347.894	0.24	695788	keystroke	o	n/a
348.014	0.15	696028	keystroke	u	n/a
348.119	0.12	696238	keystroke	n	n/a
348.569	0.075	697138	keystroke	t	n/a
348.794	0.09	697588	keystroke	a	n/a
348.929	0.135	697858	keystroke	i	n/a
349.019	0.105	698038	keystroke	n	n/a
349.244	0.105	698488	keystroke	Key.space	n/a
349.409	0.06	698818	keystroke	e	n/a
349.8745	0.105	699749	keystroke	z	n/a
350.0835	0.105	700167	keystroke	a	n/a
350.4585	0.06	700917	keystroke	Key.backspace	n/a
350.5935	0.09	701187	keystroke	Key.backspace	n/a
350.7295	0.074	701459	keystroke	x	n/a
350.939	0.075	701878	keystroke	a	n/a
351.119	0.09	702238	keystroke	m	n/a
351.374	0.105	702748	keystroke	s	n/a
352.0495	0.105	704099	keystroke	Key.space	n/a
352.2595	0.09	704519	keystroke	a	n/a
352.4695	0.06	704939	keystroke	t	n/a
352.6045	0.075	705209	keystroke	t	n/a
352.8745	0.015	705749	keystroke	c	n/a
353.264	0.075	706528	keystroke	Key.backspace	n/a
353.324	0.1195	706648	keystroke	a	n/a
353.3995	0.074	706799	keystroke	c	n/a
353.5485	0.091	707097	keystroke	h	n/a
353.7735	0.09	707547	keystroke	Key.space	n/a
354.0285	0.09	708057	keystroke	a	n/a
354.2685	0.076	708537	keystroke	p	n/a
354.4195	0.15	708839	keystroke	p	n/a
354.4945	0.105	708989	keystroke	l	n/a
354.7495	0.075	709499	keystroke	i	n/a
354.8995	0.135	709799	keystroke	c	n/a
354.9895	0.105	709979	keystroke	a	n/a
355.2145	0.075	710429	keystroke	t	n/a
355.3045	0.255	710609	keystroke	i	n/a
355.3945	0.18	710789	keystroke	o	n/a
355.5295	0.12	711059	keystroke	n	n/a
355.7845	0.0895	711569	keystroke	Key.enter	n/a
355.887	10.436	711774	prompt	n/a	book amendments columbia analyze\n
356.489	0.09	712978	keystroke	b	n/a
356.6995	0.06	713399	keystroke	o	n/a
356.8645	0.119	713729	keystroke	o	n/a
356.8785	0.1805	713757	keystroke	k	n/a
357.014	0.105	714028	keystroke	Key.space	n/a
357.194	0.105	714388	keystroke	a	n/a
357.284	0.1205	714568	keystroke	m	n/a
357.6145	0.09	715229	keystroke	e	n/a
357.7495	0.135	715499	keystroke	n	n/a
357.9145	0.105	715829	keystroke	d	n/a
358.4545	0.135	716909	keystroke	m	n/a
358.6495	0.105	717299	keystroke	e	n/a
358.7845	0.0895	717569	keystroke	n	n/a
358.904	0.06	717808	keystroke	t	n/a
359.114	0.105	718228	keystroke	s	n/a
359.399	0.12	718798	keystroke	Key.space	n/a
359.939	0.06	719878	keystroke	c	n/a
360.12	0.089	720240	keystroke	o	n/a
360.315	0.0895	720630	keystroke	l	n/a
360.5245	0.075	721049	keystroke	u	n/a
360.7345	0.09	721469	keystroke	m	n/a
360.9745	0.0745	721949	keystroke	b	n/a
361.169	0.075	722338	keystroke	i	n/a
361.439	0.015	722878	keystroke	a	n/a
361.574	0.105	723148	keystroke	Key.space	n/a
363.2695	0.12	726539	keystroke	a	n/a
363.4195	0.075	726839	keystroke	n	n/a
363.6445	0.06	727289	keystroke	a	n/a
363.7645	0.105	727529	keystroke	l	n/a
364.589	0.0755	729178	keystroke	y	n/a
364.9045	0.075	729809	keystroke	z	n/a
365.1295	0.09	730259	keystroke	e	n/a
366.254	0.06	732508	keystroke	Key.enter	n/a
366.327	17.5165	732654	prompt	n/a	cloth albuquerque agree queens\n
366.884	0.12	733768	keystroke	c	n/a
367.019	0.0905	734038	keystroke	l	n/a
367.2295	0.075	734459	keystroke	o	n/a
367.3345	0.105	734669	keystroke	t	n/a
367.4845	0.09	734969	keystroke	h	n/a
367.6795	0.09	735359	keystroke	Key.space	n/a
367.9645	0.075	735929	keystroke	a	n/a
368.0845	0.09	736169	keystroke	l	n/a
368.5195	0.105	737039	keystroke	b	n/a
368.7745	0.09	737549	keystroke	u	n/a
369.5845	0.09	739169	keystroke	w	n/a
370.2145	0.09	740429	keystroke	q	n/a
370.5145	0.075	741029	keystroke	Key.backspace	n/a
370.6795	0.06	741359	keystroke	Key.backspace	n/a
370.7995	0.105	741599	keystroke	q	n/a
371.1295	0.12	742259	keystroke	u	n/a
371.3845	0.09	742769	keystroke	e	n/a
372.479	0.09	744958	keystroke	r	n/a
373.289	0.09	746578	keystroke	q	n/a
373.424	0.06	746848	keystroke	u	n/a
373.7695	0.045	747539	keystroke	w	n/a
374.2345	0.105	748469	keystroke	Key.backspace	n/a
374.5795	0.0895	749159	keystroke	e	n/a
375.464	0.12	750928	keystroke	Key.space	n/a
380.852	0.028	761704	keystroke	a	n/a
381.0895	0.075	762179	keystroke	g	n/a
381.3295	0.15	762659	keystroke	r	n/a
381.4495	0.105	762899	keystroke	e	n/a
381.6445	0.105	763289	keystroke	e	n/a
381.7945	0.12	763589	keystroke	Key.space	n/a
382.665	0.105	765330	keystroke	q	n/a
382.845	0.06	765690	keystroke	u	n/a
383.01	0.0745	766020	keystroke	e	n/a
383.1595	0.105	766319	keystroke	e	n/a
383.295	0.105	766590	keystroke	n	n/a
383.415	0.075	766830	keystroke	s	n/a
383.745	0.09	767490	keystroke	Key.enter	n/a
383.8475	6.1835	767695	prompt	n/a	average obtaining lens boring\n
384.345	0.09	768690	keystroke	a	n/a
384.615	0.1045	769230	keystroke	v	n/a
384.8095	0.12	769619	keystroke	e	n/a
384.8845	0.12	769769	keystroke	r	n/a
385.0945	0.105	770189	keystroke	a	n/a
385.3195	0.12	770639	keystroke	g	n/a
385.4095	0.105	770819	keystroke	e	n/a
385.5745	0.09	771149	keystroke	Key.space	n/a
385.7695	0.105	771539	keystroke	o	n/a
385.9345	0.135	771869	keystroke	b	n/a
386.4445	0.075	772889	keystroke	t	n/a
386.5795	0.12	773159	keystroke	a	n/a
386.7145	0.15	773429	keystroke	i	n/a
386.819	0.1055	773638	keystroke	n	n/a
387.0445	0.12	774089	keystroke	i	n/a
387.1345	0.105	774269	keystroke	n	n/a
387.2545	0.105	774509	keystroke	g	n/a
387.4345	0.09	774869	keystroke	Key.space	n/a
387.6295	0.09	775259	keystroke	l	n/a
387.7645	0.09	775529	keystroke	e	n/a
387.9145	0.105	775829	keystroke	n	n/a
388.2595	0.09	776519	keystroke	s	n/a
388.6795	0.06	777359	keystroke	Key.space	n/a
388.8745	0.105	777749	keystroke	b	n/a
388.9945	0.12	777989	keystroke	o	n/a
389.0995	0.105	778199	keystroke	r	n/a
389.2345	0.12	778469	keystroke	i	n/a
389.3245	0.105	778649	keystroke	n	n/a
389.4595	0.075	778919	keystroke	g	n/a
389.9395	0.09	779879	keystroke	Key.enter	n/a
390.035	10.2185	780070	prompt	n/a	items following accommodation snake\n
390.6445	0.09	781289	keystroke	i	n/a
390.96	0.105	781920	keystroke	e	n/a
391.3195	0.06	782639	keystroke	Key.backspace	n/a
391.3945	0.12	782789	keystroke	t	n/a
391.4695	0.105	782939	keystroke	e	n/a
391.6195	0.105	783239	keystroke	m	n/a
391.7845	0.075	783569	keystroke	s	n/a
392.1145	0.09	784229	keystroke	Key.space	n/a
392.6245	0.1355	785249	keystroke	f	n/a
392.9545	0.0905	785909	keystroke	o	n/a
393.149	0.076	786298	keystroke	l	n/a
393.285	0.089	786570	keystroke	l	n/a
393.495	0.105	786990	keystroke	o	n/a
393.9	0.105	787800	keystroke	w	n/a
394.304	0.15	788608	keystroke	i	n/a
394.394	0.105	788788	keystroke	n	n/a
394.574	0.12	789148	keystroke	g	n/a
394.769	0.105	789538	keystroke	Key.space	n/a
395.1895	0.09	790379	keystroke	a	n/a
395.3545	0.0455	790709	keystroke	c	n/a
395.4745	0.0895	790949	keystroke	c	n/a
395.654	0.15	791308	keystroke	o	n/a
395.759	0.12	791518	keystroke	m	n/a
396.6295	0.105	793259	keystroke	o	n/a
397.0045	0.0755	794009	keystroke	Key.backspace	n/a
397.2	0.15	794400	keystroke	m	n/a
397.335	0.12	794670	keystroke	o	n/a
397.875	0.06	795750	keystroke	d	n/a
397.905	0.12	795810	keystroke	a	n/a
398.115	0.089	796230	keystroke	t	n/a
398.219	0.256	796438	keystroke	i	n/a
398.279	0.18	796558	keystroke	o	n/a
398.399	0.135	796798	keystroke	n	n/a
398.504	0.105	797008	keystroke	Key.space	n/a
398.819	0.09	797638	keystroke	s	n/a
398.939	0.106	797878	keystroke	n	n/a
399.074	0.076	798148	keystroke	a	n/a
399.464	0.105	798928	keystroke	k	n/a
399.585	0.09	799170	keystroke	e	n/a
400.1545	0.09	800309	keystroke	Key.enter	n/a
400.2575	6.799	800515	prompt	n/a	angeles entering damage eligible\n
400.9045	0.12	801809	keystroke	a	n/a
401.04	0.1195	802080	keystroke	n	n/a
401.3545	0.15	802709	keystroke	g	n/a
401.4745	0.105	802949	keystroke	e	n/a
401.6245	0.09	803249	keystroke	l	n/a
401.7745	0.105	803549	keystroke	e	n/a
402.0445	0.09	804089	keystroke	s	n/a
402.3595	0.135	804719	keystroke	Key.space	n/a
402.9295	0.06	805859	keystroke	e	n/a
403.0345	0.1195	806069	keystroke	n	n/a
403.169	0.135	806338	keystroke	t	n/a
403.334	0.135	806668	keystroke	e	n/a
403.425	0.134	806850	keystroke	r	n/a
403.634	0.15	807268	keystroke	i	n/a
403.724	0.12	807448	keystroke	n	n/a
403.859	0.105	807718	keystroke	g	n/a
403.994	0.12	807988	keystroke	Key.space	n/a
404.234	0.135	808468	keystroke	d	n/a
404.354	0.1055	808708	keystroke	a	n/a
404.49	0.12	808980	keystroke	m	n/a
404.8945	0.06	809789	keystroke	a	n/a
405.1045	0.12	810209	keystroke	g	n/a
405.1795	0.105	810359	keystroke	e	n/a
405.33	0.104	810660	keystroke	Key.space	n/a
405.57	0.075	811140	keystroke	e	n/a
405.69	0.15	811380	keystroke	l	n/a
405.795	0.105	811590	keystroke	i	n/a
406.095	0.105	812190	keystroke	g	n/a
406.245	0.119	812490	keystroke	i	n/a
406.424	0.105	812848	keystroke	b	n/a
406.605	0.119	813210	keystroke	l	n/a
406.725	0.089	813450	keystroke	e	n/a
407.009	0.046	814018	keystroke	Key.enter	n/a
407.059	8.2175	814118	prompt	n/a	yamaha seen pocket grey\n
407.8045	0.105	815609	keystroke	u	n/a
407.9695	0.105	815939	keystroke	a	n/a
408.3745	0.06	816749	keystroke	Key.backspace	n/a
408.5095	0.075	817019	keystroke	Key.backspace	n/a
408.885	0.075	817770	keystroke	y	n/a
409.065	0.06	818130	keystroke	a	n/a
409.1845	0.12	818369	keystroke	m	n/a
409.3645	0.06	818729	keystroke	a	n/a
409.7845	0.12	819569	keystroke	h	n/a
409.9495	0.045	819899	keystroke	a	n/a
410.3545	0.12	820709	keystroke	Key.space	n/a
410.6995	0.135	821399	keystroke	s	n/a
411.734	0.045	823468	keystroke	e	n/a
411.885	0.089	823770	keystroke	e	n/a
412.02	0.105	824040	keystroke	n	n/a
412.4695	0.09	824939	keystroke	Key.space	n/a
412.6195	0.105	825239	keystroke	p	n/a
412.8295	0.075	825659	keystroke	o	n/a
412.9795	0.1055	825959	keystroke	c	n/a
413.325	0.105	826650	keystroke	k	n/a
413.49	0.15	826980	keystroke	e	n/a
413.595	0.09	827190	keystroke	t	n/a
413.775	0.09	827550	keystroke	Key.space	n/a
414.075	0.12	828150	keystroke	g	n/a
414.375	0.1645	828750	keystroke	r	n/a
414.5245	0.1205	829049	keystroke	e	n/a
414.735	0.105	829470	keystroke	y	n/a
415.2	0.075	830400	keystroke	Key.enter	n/a
415.2795	8.5095	830559	prompt	n/a	convention effects shortcuts modular\n
415.845	0.12	831690	keystroke	c	n/a
415.98	0.12	831960	keystroke	o	n/a
416.07	0.105	832140	keystroke	n	n/a
416.19	0.12	832380	keystroke	v	n/a
416.34	0.09	832680	keystroke	e	n/a
416.745	0.12	833490	keystroke	n	n/a
417	0.12	834000	keystroke	t	n/a
417.105	0.2545	834210	keystroke	i	n/a
417.2095	0.18	834419	keystroke	o	n/a
417.2995	0.21	834599	keystroke	n	n/a
417.4645	0.12	834929	keystroke	Key.space	n/a
417.6895	0.09	835379	keystroke	e	n/a
417.9295	0.015	835859	keystroke	f	n/a
418.2295	0.105	836459	keystroke	f	n/a
418.3945	0.1655	836789	keystroke	e	n/a
418.545	0.1045	837090	keystroke	c	n/a
418.86	0.12	837720	keystroke	t	n/a
419.1145	0.09	838229	keystroke	s	n/a
419.3995	0.15	838799	keystroke	Key.space	n/a
419.8345	0.0905	839669	keystroke	s	n/a
420.014	0.12	840028	keystroke	h	n/a
420.105	0.135	840210	keystroke	o	n/a
420.255	0.09	840510	keystroke	r	n/a
420.465	0.075	840930	keystroke	t	n/a
421.0195	0.105	842039	keystroke	c	n/a
421.1845	0.1355	842369	keystroke	u	n/a
421.425	0.09	842850	keystroke	t	n/a
421.635	0.105	843270	keystroke	s	n/a
421.995	0.105	843990	keystroke	Key.space	n/a
422.28	0.12	844560	keystroke	m	n/a
422.385	0.105	844770	keystroke	o	n/a
422.52	0.105	845040	keystroke	d	n/a
422.7	0.0745	845400	keystroke	u	n/a
422.8795	0.1045	845759	keystroke	l	n/a
423.0145	0.0755	846029	keystroke	a	n/a
423.24	0.075	846480	keystroke	r	n/a
423.705	0.075	847410	keystroke	Key.enter	n/a
423.793	10.662	847586	prompt	n/a	trinidad triangle you'll jpeg\n
424.515	0.105	849030	keystroke	t	n/a
424.8	0.015	849600	keystroke	r	n/a
424.845	0.135	849690	keystroke	i	n/a
424.995	0.105	849990	keystroke	n	n/a
425.115	0.135	850230	keystroke	i	n/a
425.5495	0.105	851099	keystroke	d	n/a
425.6395	0.165	851279	keystroke	a	n/a
425.7895	0.105	851579	keystroke	d	n/a
426.375	0.12	852750	keystroke	Key.space	n/a
426.675	0.09	853350	keystroke	t	n/a
426.87	0.09	853740	keystroke	r	n/a
426.99	0.09	853980	keystroke	i	n/a
427.289	0.076	854578	keystroke	a	n/a
427.545	0.105	855090	keystroke	n	n/a
427.845	0.09	855690	keystroke	g	n/a
427.95	0.075	855900	keystroke	l	n/a
428.085	0.09	856170	keystroke	e	n/a
428.279	0.091	856558	keystroke	Key.space	n/a
428.82	0.135	857640	keystroke	y	n/a
428.97	0.1345	857940	keystroke	o	n/a
429.0445	0.12	858089	keystroke	u	n/a
429.2095	0.12	858419	keystroke	'	n/a
429.4345	0.09	858869	keystroke	l	n/a
429.63	0.12	859260	keystroke	l	n/a
429.72	0.09	859440	keystroke	Key.space	n/a
429.93	0.03	859860	keystroke	j	n/a
430.395	0.09	860790	keystroke	e	n/a
430.905	0.075	861810	keystroke	Key.backspace	n/a
431.13	0.09	862260	keystroke	p	n/a
431.31	0.105	862620	keystroke	e	n/a
431.985	0.075	863970	keystroke	g	n/a
434.432	0.013	868864	keystroke	Key.enter	n/a
434.4595	12.778	868919	prompt	n/a	occupations nest pursuit focus\n
435.5105	0.119	871021	keystroke	o	n/a
435.7495	0.075	871499	keystroke	c	n/a
435.8995	0.09	871799	keystroke	c	n/a
435.9905	0.104	871981	keystroke	u	n/a
436.875	0.09	873750	keystroke	p	n/a
437.025	0.105	874050	keystroke	a	n/a
437.265	0.075	874530	keystroke	t	n/a
437.325	0.225	874650	keystroke	i	n/a
437.415	0.15	874830	keystroke	o	n/a
437.505	0.135	875010	keystroke	n	n/a
437.67	0.09	875340	keystroke	s	n/a
437.82	0.12	875640	keystroke	Key.space	n/a
438.03	0.105	876060	keystroke	n	n/a
438.15	0.09	876300	keystroke	e	n/a
438.81	0.12	877620	keystroke	s	n/a
439.14	0.105	878280	keystroke	t	n/a
439.305	0.135	878610	keystroke	Key.space	n/a
439.62	0.105	879240	keystroke	p	n/a
439.98	0.105	879960	keystroke	u	n/a
440.49	0.12	880980	keystroke	r	n/a
441.5695	0.09	883139	keystroke	s	n/a
441.87	0.06	883740	keystroke	u	n/a
441.885	0.12	883770	keystroke	i	n/a
442.14	0.075	884280	keystroke	t	n/a
442.905	0.09	885810	keystroke	Key.space	n/a
443.16	0.0895	886320	keystroke	f	n/a
443.3095	0.105	886619	keystroke	o	n/a
443.4445	0.09	886889	keystroke	c	n/a
443.6245	0.06	887249	keystroke	u	n/a
443.8495	0.075	887699	keystroke	s	n/a
447.2265	0	894453	keystroke	Key.enter	n/a
447.2425	8.091	894485	prompt	n/a	informal naturally computed arrive\n
448.1845	0.165	896369	keystroke	i	n/a
448.3195	0.12	896639	keystroke	n	n/a
448.56	0.075	897120	keystroke	f	n/a
448.665	0.1195	897330	keystroke	o	n/a
448.8145	0.075	897629	keystroke	r	n/a
448.9495	0.12	897899	keystroke	m	n/a
449.0995	0.09	898199	keystroke	a	n/a
449.3995	0.105	898799	keystroke	l	n/a
449.6695	0.09	899339	keystroke	Key.space	n/a
449.9395	0.075	899879	keystroke	n	n/a
450.1645	0.075	900329	keystroke	a	n/a
450.2695	0.09	900539	keystroke	t	n/a
450.3895	0.12	900779	keystroke	u	n/a
450.5245	0.12	901049	keystroke	r	n/a
450.6595	0.0905	901319	keystroke	a	n/a
450.915	0.09	901830	keystroke	l	n/a
451.17	0.135	902340	keystroke	y	n/a
451.305	0.045	902610	keystroke	Key.space	n/a
451.59	0.045	903180	keystroke	Key.backspace	n/a
451.725	0.075	903450	keystroke	Key.backspace	n/a
451.935	0.09	903870	keystroke	l	n/a
452.205	0.06	904410	keystroke	y	n/a
452.43	0.09	904860	keystroke	Key.space	n/a
452.67	0.1045	905340	keystroke	c	n/a
452.7895	0.105	905579	keystroke	o	n/a
452.8795	0.09	905759	keystroke	m	n/a
453.0295	0.09	906059	keystroke	p	n/a
453.2545	0.105	906509	keystroke	u	n/a
453.3745	0.105	906749	keystroke	t	n/a
453.5095	0.165	907019	keystroke	e	n/a
453.6145	0.105	907229	keystroke	d	n/a
453.7495	0.12	907499	keystroke	Key.space	n/a
453.8995	0.1355	907799	keystroke	a	n/a
454.08	0.09	908160	keystroke	r	n/a
454.245	0.06	908490	keystroke	r	n/a
454.335	0.105	908670	keystroke	i	n/a
454.5	0.135	909000	keystroke	v	n/a
454.59	0.12	909180	keystroke	e	n/a
455.25	0.075	910500	keystroke	Key.enter	n/a
455.3375	9.867	910675	prompt	n/a	powerful install news employees\n
455.88	0.09	911760	keystroke	p	n/a
456.09	0.105	912180	keystroke	o	n/a
456.315	0.135	912630	keystroke	w	n/a
456.375	0.135	912750	keystroke	e	n/a
456.465	0.09	912930	keystroke	r	n/a
456.9	0.12	913800	keystroke	f	n/a
457.185	0.075	914370	keystroke	u	n/a
457.905	0.075	915810	keystroke	l	n/a
458.16	0.09	916320	keystroke	Key.space	n/a
458.55	0.165	917100	keystroke	i	n/a
458.655	0.105	917310	keystroke	n	n/a
458.85	0.09	917700	keystroke	s	n/a
459.075	0.015	918150	keystroke	t	n/a
459.18	0.12	918360	keystroke	a	n/a
459.54	0.09	919080	keystroke	l	n/a
459.765	0.09	919530	keystroke	l	n/a
459.825	0.09	919650	keystroke	Key.space	n/a
460.005	0.12	920010	keystroke	n	n/a
460.095	0.21	920190	keystroke	e	n/a
460.215	0.12	920430	keystroke	w	n/a
460.44	0.12	920880	keystroke	s	n/a
460.635	0.12	921270	keystroke	Key.space	n/a
461.3845	0.105	922769	keystroke	e	n/a
461.5045	0.105	923009	keystroke	m	n/a
461.6545	0.105	923309	keystroke	p	n/a
461.8955	0.089	923791	keystroke	l	n/a
462.1795	0.105	924359	keystroke	i	n/a
462.7055	0.074	925411	keystroke	Key.backspace	n/a
463.1995	0.09	926399	keystroke	o	n/a
463.5145	0.0605	927029	keystroke	y	n/a
463.83	0.06	927660	keystroke	e	n/a
463.995	0.09	927990	keystroke	e	n/a
464.55	0.09	929100	keystroke	s	n/a
465.12	0.075	930240	keystroke	Key.enter	n/a
465.2085	7.263	930417	prompt	n/a	beatles smoking saves weeks\n
465.915	0.12	931830	keystroke	b	n/a
466.05	0.255	932100	keystroke	e	n/a
466.155	0.165	932310	keystroke	a	n/a
466.275	0.12	932550	keystroke	t	n/a
466.44	0.12	932880	keystroke	l	n/a
466.59	0.09	933180	keystroke	e	n/a
466.785	0.105	933570	keystroke	s	n/a
466.965	0.0895	933930	keystroke	Key.space	n/a
467.2045	0.105	934409	keystroke	s	n/a
467.3545	0.18	934709	keystroke	m	n/a
467.4895	0.105	934979	keystroke	o	n/a
468.915	0.105	937830	keystroke	k	n/a
469.185	0.12	938370	keystroke	i	n/a
469.275	0.105	938550	keystroke	n	n/a
469.41	0.1045	938820	keystroke	g	n/a
469.5895	0.105	939179	keystroke	Key.space	n/a
469.7695	0.15	939539	keystroke	s	n/a
469.9045	0.12	939809	keystroke	a	n/a
470.0695	0.135	940139	keystroke	v	n/a
470.1595	0.105	940319	keystroke	e	n/a
470.3695	0.105	940739	keystroke	s	n/a
470.5345	0.09	941069	keystroke	Key.space	n/a
470.8195	0.06	941639	keystroke	w	n/a
471.0895	0.091	942179	keystroke	e	n/a
471.2695	0.075	942539	keystroke	e	n/a
471.3595	0.075	942719	keystroke	k	n/a
471.4805	0.09	942961	keystroke	s	n/a
472.4255	0.044	944851	keystroke	Key.enter	n/a
472.474	6.2975	944948	prompt	n/a	cord carries alive generator\n
473.1445	0.09	946289	keystroke	c	n/a
473.2645	0.075	946529	keystroke	o	n/a
473.3995	0.105	946799	keystroke	r	n/a
473.6245	0.09	947249	keystroke	d	n/a
473.7895	0.045	947579	keystroke	Key.space	n/a
474.045	0.135	948090	keystroke	c	n/a
474.165	0.105	948330	keystroke	a	n/a
474.33	0.09	948660	keystroke	r	n/a
474.5105	0.089	949021	keystroke	r	n/a
474.6445	0.075	949289	keystroke	i	n/a
474.7345	0.075	949469	keystroke	e	n/a
474.8995	0.09	949799	keystroke	s	n/a
475.0345	0.105	950069	keystroke	Key.space	n/a
475.1545	0.105	950309	keystroke	a	n/a
475.3045	0.165	950609	keystroke	l	n/a
475.4395	0.105	950879	keystroke	i	n/a
475.5745	0.135	951149	keystroke	v	n/a
475.6655	0.089	951331	keystroke	e	n/a
475.9045	0.09	951809	keystroke	Key.space	n/a
476.565	0.135	953130	keystroke	g	n/a
476.715	0.105	953430	keystroke	e	n/a
476.9105	0.06	953821	keystroke	n	n/a
477.0605	0.135	954121	keystroke	e	n/a
477.3305	0.12	954661	keystroke	r	n/a
477.6005	0.105	955201	keystroke	a	n/a
477.8405	0.09	955681	keystroke	t	n/a
478.1255	0.075	956251	keystroke	o	n/a
478.2155	0.09	956431	keystroke	r	n/a
478.725	0.045	957450	keystroke	Key.enter	n/a
478.7755	11.673	957551	prompt	n/a	references introduced oops only\n
479.46	0.135	958920	keystroke	r	n/a
479.55	0.12	959100	keystroke	e	n/a
479.73	0.15	959460	keystroke	g	n/a
479.925	0.1645	959850	keystroke	e	n/a
480.045	0.1495	960090	keystroke	r	n/a
480.1645	0.105	960329	keystroke	e	n/a
480.3295	0.045	960659	keystroke	n	n/a
480.4945	0.136	960989	keystroke	c	n/a
480.5705	0.089	961141	keystroke	e	n/a
480.8245	0.045	961649	keystroke	s	n/a
481.1695	0.06	962339	keystroke	Key.backspace	n/a
481.3195	0.06	962639	keystroke	Key.backspace	n/a
481.4545	0.105	962909	keystroke	Key.backspace	n/a
481.6195	0.06	963239	keystroke	Key.backspace	n/a
481.7545	0.06	963509	keystroke	Key.backspace	n/a
481.9195	0.06	963839	keystroke	Key.backspace	n/a
482.0845	0.075	964169	keystroke	Key.backspace	n/a
482.3095	0.075	964619	keystroke	Key.backspace	n/a
482.8955	0.059	965791	keystroke	f	n/a
483.06	0.15	966120	keystroke	e	n/a
483.165	0.15	966330	keystroke	r	n/a
483.285	0.105	966570	keystroke	e	n/a
483.435	0.12	966870	keystroke	n	n/a
483.6	0.15	967200	keystroke	c	n/a
483.72	0.09	967440	keystroke	e	n/a
483.945	0.09	967890	keystroke	s	n/a
484.425	0.135	968850	keystroke	Key.space	n/a
484.71	0.15	969420	keystroke	i	n/a
484.8	0.135	969600	keystroke	n	n/a
485.01	0.0605	970020	keystroke	t	n/a
485.1755	0.105	970351	keystroke	r	n/a
485.8955	0.105	971791	keystroke	o	n/a
486.2695	0.09	972539	keystroke	d	n/a
486.3745	0.09	972749	keystroke	u	n/a
486.5545	0.1655	973109	keystroke	c	n/a
487.02	0.135	974040	keystroke	e	n/a
487.215	0.135	974430	keystroke	d	n/a
487.62	0.105	975240	keystroke	Key.space	n/a
488.115	0.045	976230	keystroke	o	n/a
488.19	0.09	976380	keystroke	o	n/a
488.4	0.09	976800	keystroke	p	n/a
488.55	0.045	977100	keystroke	s	n/a
488.94	0.09	977880	keystroke	Key.space	n/a
489.315	0.1195	978630	keystroke	o	n/a
489.4055	0.119	978811	keystroke	n	n/a
489.5695	0.12	979139	keystroke	l	n/a
489.8395	0.06	979679	keystroke	y	n/a
490.38	0.06	980760	keystroke	Key.enter	n/a
490.4525	10.2715	980905	prompt	n/a	announcements heard copyrights mustn't\n
491.0395	0.1055	982079	keystroke	a	n/a
491.265	0.06	982530	keystroke	n	n/a
491.4305	0.0895	982861	keystroke	n	n/a
491.505	0.195	983010	keystroke	o	n/a
491.6255	0.1045	983251	keystroke	u	n/a
491.7155	0.1345	983431	keystroke	n	n/a
492.3155	0.135	984631	keystroke	c	n/a
492.465	0.105	984930	keystroke	e	n/a
492.795	0.09	985590	keystroke	m	n/a
492.9	0.09	985800	keystroke	e	n/a
493.005	0.12	986010	keystroke	n	n/a
493.08	0.09	986160	keystroke	t	n/a
493.305	0.105	986610	keystroke	s	n/a
493.44	0.09	986880	keystroke	Key.space	n/a
493.605	0.15	987210	keystroke	h	n/a
493.71	0.24	987420	keystroke	e	n/a
493.83	0.15	987660	keystroke	a	n/a
493.905	0.12	987810	keystroke	r	n/a
494.22	0.1195	988440	keystroke	d	n/a
494.4295	0.06	988859	keystroke	Key.space	n/a
494.895	0.1055	989790	keystroke	c	n/a
495.0305	0.06	990061	keystroke	o	n/a
495.2105	0.075	990421	keystroke	p	n/a
495.4805	0.075	990961	keystroke	y	n/a
495.9455	0.105	991891	keystroke	d	n/a
496.4855	0.09	992971	keystroke	Key.backspace	n/a
496.6805	0.09	993361	keystroke	r	n/a
496.7855	0.089	993571	keystroke	i	n/a
496.9355	0.09	993871	keystroke	g	n/a
497.04	0.1055	994080	keystroke	h	n/a
497.1305	0.075	994261	keystroke	t	n/a
497.3855	0.12	994771	keystroke	s	n/a
498.1645	0.06	996329	keystroke	Key.space	n/a
498.3145	0.105	996629	keystroke	m	n/a
498.5995	0.09	997199	keystroke	u	n/a
498.7795	0.06	997559	keystroke	s	n/a
498.9905	0.075	997981	keystroke	t	n/a
499.5305	0.105	999061	keystroke	n	n/a
499.7245	0.0905	999449	keystroke	'	n/a
500.0405	0.075	1000081	keystroke	t	n/a
500.6555	0.06	1001311	keystroke	Key.enter	n/a
500.728	9.881	1001456	prompt	n/a	brochure execution explained crowd\n
501.3445	0.12	1002689	keystroke	b	n/a
501.5245	0.09	1003049	keystroke	r	n/a
501.6755	0.0895	1003351	keystroke	o	n/a
501.915	0.075	1003830	keystroke	c	n/a
502.17	0.165	1004340	keystroke	h	n/a
502.29	0.12	1004580	keystroke	u	n/a
502.53	0.165	1005060	keystroke	r	n/a
502.635	0.12	1005270	keystroke	e	n/a
502.89	0.09	1005780	keystroke	Key.space	n/a
503.58	0.075	1007160	keystroke	e	n/a
504.18	0.075	1008360	keystroke	x	n/a
504.7045	0.105	1009409	keystroke	e	n/a
505.0045	0.1205	1010009	keystroke	c	n/a
505.155	0.12	1010310	keystroke	u	n/a
505.35	0.09	1010700	keystroke	t	n/a
505.485	0.225	1010970	keystroke	i	n/a
505.575	0.18	1011150	keystroke	o	n/a
505.68	0.1205	1011360	keystroke	n	n/a
505.8605	0.12	1011721	keystroke	Key.space	n/a
506.3555	0.09	1012711	keystroke	e	n/a
506.6105	0.119	1013221	keystroke	x	n/a
506.9395	0.18	1013879	keystroke	p	n/a
507.045	0.1045	1014090	keystroke	l	n/a
507.2095	0.105	1014419	keystroke	a	n/a
507.3295	0.121	1014659	keystroke	i	n/a
507.4195	0.091	1014839	keystroke	n	n/a
507.9005	0.12	1015801	keystroke	e	n/a
507.9605	0.105	1015921	keystroke	d	n/a
508.1705	0.1045	1016341	keystroke	Key.space	n/a
508.605	0.105	1017210	keystroke	c	n/a
508.8895	0.105	1017779	keystroke	r	n/a
509.1755	0.0745	1018351	keystroke	w	n/a
509.565	0.0755	1019130	keystroke	Key.backspace	n/a
509.7455	0.1195	1019491	keystroke	o	n/a
509.835	0.075	1019670	keystroke	w	n/a
510.045	0.09	1020090	keystroke	d	n/a
510.555	0.045	1021110	keystroke	Key.enter	n/a
510.613	8.549	1021226	prompt	n/a	surname trivia decision accessory\n
511.4405	0.105	1022881	keystroke	s	n/a
511.5905	0.12	1023181	keystroke	u	n/a
511.7255	0.09	1023451	keystroke	r	n/a
512.0555	0.09	1024111	keystroke	n	n/a
512.2505	0.075	1024501	keystroke	a	n/a
512.3555	0.105	1024711	keystroke	m	n/a
512.4755	0.075	1024951	keystroke	e	n/a
512.6395	0.136	1025279	keystroke	Key.space	n/a
512.925	0.06	1025850	keystroke	t	n/a
513.105	0.06	1026210	keystroke	r	n/a
513.21	0.105	1026420	keystroke	i	n/a
513.42	0.105	1026840	keystroke	c	n/a
513.57	0.105	1027140	keystroke	i	n/a
513.8855	0.06	1027771	keystroke	Key.backspace	n/a
514.0055	0.09	1028011	keystroke	Key.backspace	n/a
514.1105	0.09	1028221	keystroke	v	n/a
514.2155	0.09	1028431	keystroke	i	n/a
514.3355	0.09	1028671	keystroke	a	n/a
514.6505	0.12	1029301	keystroke	Key.space	n/a
515.1	0.1495	1030200	keystroke	d	n/a
515.2195	0.09	1030439	keystroke	e	n/a
515.445	0.09	1030890	keystroke	c	n/a
515.595	0.09	1031190	keystroke	i	n/a
515.73	0.09	1031460	keystroke	s	n/a
515.91	0.2405	1031820	keystroke	i	n/a
516.0155	0.165	1032031	keystroke	o	n/a
516.1055	0.15	1032211	keystroke	n	n/a
516.3295	0.136	1032659	keystroke	Key.space	n/a
516.8255	0.09	1033651	keystroke	a	n/a
517.2745	0.091	1034549	keystroke	c	n/a
517.5005	0.075	1035001	keystroke	c	n/a
517.8905	0.045	1035781	keystroke	e	n/a
518.04	0.075	1036080	keystroke	s	n/a
518.25	0.0905	1036500	keystroke	s	n/a
518.355	0.0905	1036710	keystroke	o	n/a
518.4905	0.09	1036981	keystroke	r	n/a
518.685	0.09	1037370	keystroke	y	n/a
519.06	0.09	1038120	keystroke	Key.enter	n/a
519.167	11.5125	1038334	prompt	n/a	governance apartment latest earthquake\n
520.08	0.12	1040160	keystroke	f	n/a
520.56	0.075	1041120	keystroke	Key.backspace	n/a
520.62	0.09	1041240	keystroke	g	n/a
520.83	0.105	1041660	keystroke	o	n/a
521.43	0.12	1042860	keystroke	v	n/a
521.7155	0.1795	1043431	keystroke	e	n/a
521.835	0.105	1043670	keystroke	r	n/a
522.09	0.12	1044180	keystroke	n	n/a
522.285	0.09	1044570	keystroke	a	n/a
522.5555	0.09	1045111	keystroke	n	n/a
522.7805	0.165	1045561	keystroke	c	n/a
522.9005	0.12	1045801	keystroke	e	n/a
523.215	0.12	1046430	keystroke	Key.space	n/a
523.7255	0.1195	1047451	keystroke	a	n/a
523.8155	0.089	1047631	keystroke	p	n/a
523.9805	0.149	1047961	keystroke	a	n/a
524.1005	0.104	1048201	keystroke	r	n/a
524.3245	0.076	1048649	keystroke	t	n/a
524.5055	0.105	1049011	keystroke	m	n/a
524.6405	0.0895	1049281	keystroke	e	n/a
524.76	0.1055	1049520	keystroke	n	n/a
524.8805	0.105	1049761	keystroke	t	n/a
525.0455	0.105	1050091	keystroke	Key.space	n/a
525.1955	0.09	1050391	keystroke	l	n/a
525.3305	0.135	1050661	keystroke	a	n/a
525.6755	0.105	1051351	keystroke	t	n/a
525.8245	0.106	1051649	keystroke	e	n/a
526.0205	0.105	1052041	keystroke	s	n/a
526.2755	0.075	1052551	keystroke	t	n/a
526.4095	0.135	1052819	keystroke	Key.space	n/a
527.4155	0.09	1054831	keystroke	e	n/a
527.6255	0.105	1055251	keystroke	a	n/a
527.8655	0.105	1055731	keystroke	r	n/a
528.0605	0.09	1056121	keystroke	t	n/a
528.1955	0.1495	1056391	keystroke	h	n/a
528.75	0.075	1057500	keystroke	q	n/a
529.2305	0.104	1058461	keystroke	u	n/a
529.4405	0.075	1058881	keystroke	a	n/a
529.6945	0.136	1059389	keystroke	k	n/a
530.0555	0.09	1060111	keystroke	e	n/a
530.58	0.09	1061160	keystroke	Key.enter	n/a
530.6845	8.2145	1061369	prompt	n/a	cayman debt worried organized\n
531.465	0.12	1062930	keystroke	c	n/a
531.54	0.15	1063080	keystroke	a	n/a
531.72	0.09	1063440	keystroke	y	n/a
531.975	0.105	1063950	keystroke	m	n/a
532.125	0.09	1064250	keystroke	a	n/a
532.245	0.15	1064490	keystroke	n	n/a
532.41	0.0905	1064820	keystroke	Key.space	n/a
532.59	0.135	1065180	keystroke	d	n/a
532.665	0.09	1065330	keystroke	e	n/a
533.055	0.09	1066110	keystroke	b	n/a
533.46	0.105	1066920	keystroke	t	n/a
533.895	0.09	1067790	keystroke	Key.space	n/a
534.2255	0.09	1068451	keystroke	w	n/a
534.3605	0.0745	1068721	keystroke	o	n/a
534.465	0.0905	1068930	keystroke	r	n/a
534.6455	0.075	1069291	keystroke	r	n/a
534.735	0.105	1069470	keystroke	i	n/a
534.8555	0.1195	1069711	keystroke	e	n/a
534.93	0.12	1069860	keystroke	d	n/a
535.095	0.105	1070190	keystroke	Key.space	n/a
535.26	0.12	1070520	keystroke	o	n/a
535.41	0.105	1070820	keystroke	r	n/a
535.8155	0.06	1071631	keystroke	g	n/a
535.9955	0.09	1071991	keystroke	a	n/a
536.1	0.09	1072200	keystroke	n	n/a
536.7	0.105	1073400	keystroke	i	n/a
537	0.0755	1074000	keystroke	z	n/a
537.4355	0.0745	1074871	keystroke	e	n/a
537.54	0.12	1075080	keystroke	d	n/a
538.8	0.09	1077600	keystroke	Key.enter	n/a
538.903	9.6565	1077806	prompt	n/a	alexandria beside account apartments\n
539.7305	0.105	1079461	keystroke	a	n/a
540.0455	0.075	1080091	keystroke	e	n/a
540.1355	0.105	1080271	keystroke	l	n/a
540.4495	0.046	1080899	keystroke	Key.backspace	n/a
540.5695	0.061	1081139	keystroke	Key.backspace	n/a
540.75	0.09	1081500	keystroke	l	n/a
540.87	0.075	1081740	keystroke	e	n/a
541.0945	0.105	1082189	keystroke	x	n/a
541.545	0.09	1083090	keystroke	a	n/a
541.68	0.09	1083360	keystroke	n	n/a
542.22	0.105	1084440	keystroke	d	n/a
542.46	0.105	1084920	keystroke	r	n/a
542.5955	0.1345	1085191	keystroke	i	n/a
542.895	0.09	1085790	keystroke	a	n/a
543.3155	0.015	1086631	keystroke	Key.space	n/a
543.4805	0.105	1086961	keystroke	b	n/a
543.6005	0.06	1087201	keystroke	e	n/a
544.245	0.09	1088490	keystroke	s	n/a
544.41	0.06	1088820	keystroke	i	n/a
544.53	0.15	1089060	keystroke	d	n/a
544.665	0.06	1089330	keystroke	e	n/a
545.22	0.12	1090440	keystroke	Key.space	n/a
545.445	0.105	1090890	keystroke	a	n/a
545.655	0.045	1091310	keystroke	c	n/a
545.805	0.09	1091610	keystroke	c	n/a
545.91	0.195	1091820	keystroke	o	n/a
546	0.12	1092000	keystroke	u	n/a
546.09	0.12	1092180	keystroke	n	n/a
546.24	0.1055	1092480	keystroke	t	n/a
546.4955	0.15	1092991	keystroke	Key.space	n/a
546.8545	0.121	1093709	keystroke	a	n/a
547.0655	0.105	1094131	keystroke	p	n/a
547.2005	0.12	1094401	keystroke	a	n/a
547.3505	0.105	1094701	keystroke	r	n/a
547.5755	0.09	1095151	keystroke	t	n/a
547.7855	0.105	1095571	keystroke	m	n/a
547.9205	0.09	1095841	keystroke	e	n/a
548.0255	0.1195	1096051	keystroke	n	n/a
548.13	0.105	1096260	keystroke	t	n/a
548.325	0.075	1096650	keystroke	s	n/a
548.475	0.075	1096950	keystroke	Key.enter	n/a
548.5635	8.981	1097127	prompt	n/a	delete change classes patterns\n
549.3605	0.149	1098721	keystroke	d	n/a
549.7645	0.135	1099529	keystroke	e	n/a
549.9605	0.09	1099921	keystroke	t	n/a
550.1705	0.09	1100341	keystroke	l	n/a
550.6655	0.06	1101331	keystroke	Key.backspace	n/a
551.4005	0.045	1102801	keystroke	Key.backspace	n/a
551.6405	0.105	1103281	keystroke	l	n/a
551.8205	0.12	1103641	keystroke	e	n/a
551.9105	0.105	1103821	keystroke	t	n/a
552.0155	0.12	1104031	keystroke	e	n/a
552.2855	0.09	1104571	keystroke	Key.space	n/a
552.6155	0.105	1105231	keystroke	c	n/a
552.7055	0.12	1105411	keystroke	h	n/a
552.8555	0.1045	1105711	keystroke	a	n/a
552.9905	0.1055	1105981	keystroke	n	n/a
553.11	0.135	1106220	keystroke	g	n/a
553.201	0.104	1106402	keystroke	e	n/a
553.41	0.09	1106820	keystroke	Key.space	n/a
553.605	0.136	1107210	keystroke	c	n/a
553.756	0.089	1107512	keystroke	l	n/a
553.86	0.12	1107720	keystroke	a	n/a
553.965	0.06	1107930	keystroke	s	n/a
554.13	0.06	1108260	keystroke	s	n/a
554.31	0.091	1108620	keystroke	e	n/a
554.505	0.09	1109010	keystroke	s	n/a
554.58	0.12	1109160	keystroke	Key.space	n/a
554.73	0.105	1109460	keystroke	p	n/a
554.8955	0.12	1109791	keystroke	a	n/a
555.1655	0.075	1110331	keystroke	t	n/a
555.6305	0.06	1111261	keystroke	t	n/a
555.8405	0.12	1111681	keystroke	e	n/a
555.9455	0.09	1111891	keystroke	r	n/a
556.1705	0.09	1112341	keystroke	n	n/a
556.3355	0.075	1112671	keystroke	s	n/a
557.475	0.06	1114950	keystroke	Key.enter	n/a
557.5485	7.0535	1115097	prompt	n/a	these're income shorts romania\n
558.33	0.105	1116660	keystroke	t	n/a
558.465	0.1205	1116930	keystroke	h	n/a
558.5705	0.1045	1117141	keystroke	e	n/a
558.795	0.0905	1117590	keystroke	s	n/a
559.02	0.0755	1118040	keystroke	e	n/a
559.2	0.135	1118400	keystroke	'	n/a
559.35	0.1055	1118700	keystroke	r	n/a
559.44	0.135	1118880	keystroke	e	n/a
559.7105	0.09	1119421	keystroke	Key.space	n/a
560.205	0.181	1120410	keystroke	i	n/a
560.325	0.12	1120650	keystroke	n	n/a
560.415	0.121	1120830	keystroke	c	n/a
560.55	0.165	1121100	keystroke	o	n/a
560.655	0.135	1121310	keystroke	m	n/a
560.805	0.09	1121610	keystroke	e	n/a
560.91	0.105	1121820	keystroke	Key.space	n/a
561.06	0.105	1122120	keystroke	s	n/a
561.151	0.119	1122302	keystroke	h	n/a
561.225	0.1355	1122450	keystroke	o	n/a
561.345	0.105	1122690	keystroke	r	n/a
561.57	0.09	1123140	keystroke	t	n/a
561.87	0.075	1123740	keystroke	s	n/a
562.05	0.165	1124100	keystroke	Key.space	n/a
562.4855	0.1045	1124971	keystroke	r	n/a
562.605	0.1495	1125210	keystroke	o	n/a
562.725	0.091	1125450	keystroke	m	n/a
562.9505	0.09	1125901	keystroke	a	n/a
563.3255	0.135	1126651	keystroke	n	n/a
563.4455	0.09	1126891	keystroke	i	n/a
563.7005	0.105	1127401	keystroke	a	n/a
564.5405	0.06	1129081	keystroke	Key.enter	n/a
564.6045	15.0495	1129209	prompt	n/a	describing january photographic discusses\n
565.3355	0.165	1130671	keystroke	d	n/a
565.4545	0.091	1130909	keystroke	e	n/a
565.6505	0.075	1131301	keystroke	s	n/a
565.8455	0.12	1131691	keystroke	c	n/a
566.1005	0.1045	1132201	keystroke	r	n/a
566.25	0.09	1132500	keystroke	i	n/a
566.4455	0.075	1132891	keystroke	b	n/a
566.6855	0.045	1133371	keystroke	o	n/a
566.7005	0.015	1133401	keystroke	i	n/a
566.7305	0.105	1133461	keystroke	n	n/a
567.1655	0.045	1134331	keystroke	Key.backspace	n/a
567.3005	0.075	1134601	keystroke	Key.backspace	n/a
567.4355	0.06	1134871	keystroke	Key.backspace	n/a
567.6455	0.105	1135291	keystroke	i	n/a
567.7205	0.09	1135441	keystroke	n	n/a
567.7955	0.09	1135591	keystroke	g	n/a
567.9745	0.076	1135949	keystroke	Key.space	n/a
568.561	0.149	1137122	keystroke	j	n/a
568.725	0.1055	1137450	keystroke	a	n/a
568.8455	0.12	1137691	keystroke	n	n/a
569.115	0.075	1138230	keystroke	u	n/a
569.34	0.15	1138680	keystroke	a	n/a
569.46	0.12	1138920	keystroke	r	n/a
570.1055	0.09	1140211	keystroke	y	n/a
570.765	0.105	1141530	keystroke	Key.space	n/a
573.1525	0.013	1146305	keystroke	p	n/a
573.3905	0.134	1146781	keystroke	h	n/a
573.4955	0.12	1146991	keystroke	o	n/a
573.6755	0.09	1147351	keystroke	t	n/a
573.7805	0.135	1147561	keystroke	o	n/a
574.0805	0.119	1148161	keystroke	g	n/a
574.3945	0.136	1148789	keystroke	r	n/a
574.5445	0.151	1149089	keystroke	a	n/a
574.7105	0.045	1149421	keystroke	p	n/a
574.9505	0.0895	1149901	keystroke	h	n/a
575.115	0.09	1150230	keystroke	i	n/a
575.4605	0.105	1150921	keystroke	c	n/a
576.0305	0.105	1152061	keystroke	Key.space	n/a
576.2705	0.1045	1152541	keystroke	d	n/a
576.72	0.09	1153440	keystroke	i	n/a
576.8845	0.075	1153769	keystroke	s	n/a
577.215	0.09	1154430	keystroke	c	n/a
577.35	0.09	1154700	keystroke	u	n/a
578.07	0.105	1156140	keystroke	s	n/a
578.19	0.03	1156380	keystroke	s	n/a
578.325	0.075	1156650	keystroke	e	n/a
578.505	0.09	1157010	keystroke	s	n/a
579.5405	0.104	1159081	keystroke	Key.enter	n/a
579.66	11.919	1159320	prompt	n/a	slope glucose robust immune\n
581.055	0.105	1162110	keystroke	s	n/a
581.145	0.105	1162290	keystroke	l	n/a
581.49	0.09	1162980	keystroke	p	n/a
581.865	0.075	1163730	keystroke	Key.backspace	n/a
582.315	0.135	1164630	keystroke	o	n/a
582.39	0.12	1164780	keystroke	p	n/a
582.54	0.105	1165080	keystroke	e	n/a
582.69	0.12	1165380	keystroke	Key.space	n/a
583.8305	0.09	1167661	keystroke	g	n/a
583.9955	0.105	1167991	keystroke	l	n/a
584.2205	0.09	1168441	keystroke	u	n/a
584.4005	0.075	1168801	keystroke	s	n/a
584.5355	0.15	1169071	keystroke	o	n/a
585.12	0.075	1170240	keystroke	s	n/a
585.39	0.06	1170780	keystroke	Key.backspace	n/a
585.54	0.06	1171080	keystroke	Key.backspace	n/a
585.675	0.09	1171350	keystroke	Key.backspace	n/a
585.825	0.075	1171650	keystroke	Key.backspace	n/a
585.975	0.06	1171950	keystroke	c	n/a
586.4245	0.091	1172849	keystroke	Key.backspace	n/a
586.7555	0.09	1173511	keystroke	u	n/a
587.0255	0.105	1174051	keystroke	c	n/a
587.1605	0.09	1174321	keystroke	o	n/a
587.565	0.1055	1175130	keystroke	s	n/a
587.775	0.105	1175550	keystroke	e	n/a
588.4655	0.12	1176931	keystroke	Key.space	n/a
588.7505	0.105	1177501	keystroke	r	n/a
588.8855	0.1195	1177771	keystroke	o	n/a
589.5155	0.15	1179031	keystroke	b	n/a
589.6355	0.12	1179271	keystroke	u	n/a
589.7405	0.09	1179481	keystroke	s	n/a
589.9655	0.105	1179931	keystroke	t	n/a
590.1305	0.09	1180261	keystroke	Key.space	n/a
590.3555	0.09	1180711	keystroke	i	n/a
590.4905	0.12	1180981	keystroke	m	n/a
590.6705	0.09	1181341	keystroke	m	n/a
590.8505	0.09	1181701	keystroke	u	n/a
591.12	0.105	1182240	keystroke	n	n/a
591.255	0.09	1182510	keystroke	e	n/a
591.4955	0.075	1182991	keystroke	Key.enter	n/a
591.5835	14.684	1183167	prompt	n/a	pipeline slovakia oracle lance\n
592.2605	0.09	1184521	keystroke	p	n/a
592.5	0.0755	1185000	keystroke	i	n/a
593.085	0.06	1186170	keystroke	p	n/a
593.85	0.09	1187700	keystroke	e	n/a
594.075	0.135	1188150	keystroke	l	n/a
594.135	0.15	1188270	keystroke	i	n/a
594.225	0.105	1188450	keystroke	n	n/a
594.315	0.0905	1188630	keystroke	e	n/a
594.6445	0.09	1189289	keystroke	Key.space	n/a
594.9455	0.1045	1189891	keystroke	s	n/a
595.0805	0.09	1190161	keystroke	l	n/a
595.2755	0.09	1190551	keystroke	o	n/a
595.5455	0.105	1191091	keystroke	v	n/a
595.7105	0.105	1191421	keystroke	a	n/a
595.8605	0.074	1191721	keystroke	k	n/a
596.0545	0.09	1192109	keystroke	i	n/a
596.1905	0.09	1192381	keystroke	a	n/a
596.835	0.0755	1193670	keystroke	Key.space	n/a
599.4475	0.028	1198895	keystroke	o	n/a
599.5505	0.09	1199101	keystroke	r	n/a
599.7455	0.0895	1199491	keystroke	a	n/a
600.375	0.105	1200750	keystroke	v	n/a
600.511	0.074	1201022	keystroke	l	n/a
600.6	0.105	1201200	keystroke	e	n/a
601.0805	0.045	1202161	keystroke	Key.backspace	n/a
601.2155	0.06	1202431	keystroke	Key.backspace	n/a
601.3805	0.075	1202761	keystroke	Key.backspace	n/a
601.5005	0.135	1203001	keystroke	c	n/a
601.6805	0.09	1203361	keystroke	l	n/a
601.8005	0.075	1203601	keystroke	e	n/a
602.0705	0.105	1204141	keystroke	Key.space	n/a
602.37	0.09	1204740	keystroke	l	n/a
602.52	0.09	1205040	keystroke	a	n/a
602.595	0.136	1205190	keystroke	n	n/a
602.715	0.09	1205430	keystroke	d	n/a
603.2105	0.075	1206421	keystroke	Key.backspace	n/a
603.3605	0.105	1206721	keystroke	c	n/a
603.4055	0.105	1206811	keystroke	e	n/a
606.258	0	1212516	keystroke	Key.enter	n/a
606.2715	9.248	1212543	prompt	n/a	census canyon failure loads\n
607.111	0.1195	1214222	keystroke	c	n/a
607.3355	0.0605	1214671	keystroke	n	n/a
607.6505	0.0605	1215301	keystroke	Key.backspace	n/a
607.726	0.105	1215452	keystroke	e	n/a
607.876	0.09	1215752	keystroke	n	n/a
608.116	0.09	1216232	keystroke	s	n/a
608.311	0.06	1216622	keystroke	u	n/a
608.476	0.0745	1216952	keystroke	s	n/a
608.6705	0.12	1217341	keystroke	Key.space	n/a
609.2555	0.105	1218511	keystroke	c	n/a
609.4805	0.105	1218961	keystroke	a	n/a
609.8855	0.12	1219771	keystroke	n	n/a
610.2605	0.09	1220521	keystroke	u	n/a
610.7705	0.0745	1221541	keystroke	Key.backspace	n/a
611.101	0.075	1222202	keystroke	y	n/a
611.296	0.12	1222592	keystroke	o	n/a
611.431	0.105	1222862	keystroke	n	n/a
612.166	0.09	1224332	keystroke	Key.space	n/a
613.1555	0.09	1226311	keystroke	f	n/a
613.2305	0.105	1226461	keystroke	a	n/a
613.3805	0.09	1226761	keystroke	i	n/a
613.5605	0.105	1227121	keystroke	l	n/a
613.7855	0.09	1227571	keystroke	u	n/a
613.9055	0.135	1227811	keystroke	r	n/a
613.9955	0.09	1227991	keystroke	e	n/a
614.1305	0.105	1228261	keystroke	Key.space	n/a
614.2655	0.075	1228531	keystroke	l	n/a
614.4455	0.105	1228891	keystroke	o	n/a
614.5955	0.1205	1229191	keystroke	a	n/a
614.746	0.089	1229492	keystroke	d	n/a
614.925	0.075	1229850	keystroke	s	n/a
615.421	0.09	1230842	keystroke	Key.enter	n/a
615.5235	9.851	1231047	prompt	n/a	mobility so're enrollment german\n
616.7255	0.075	1233451	keystroke	m	n/a
616.8755	0.09	1233751	keystroke	o	n/a
617.431	0.06	1234862	keystroke	b	n/a
617.625	0.075	1235250	keystroke	i	n/a
617.895	0.045	1235790	keystroke	l	n/a
617.91	0.075	1235820	keystroke	i	n/a
618.045	0.135	1236090	keystroke	t	n/a
618.21	0.105	1236420	keystroke	y	n/a
618.42	0.09	1236840	keystroke	Key.space	n/a
618.975	0.1205	1237950	keystroke	s	n/a
619.2755	0.09	1238551	keystroke	o	n/a
619.5005	0.105	1239001	keystroke	'	n/a
619.5905	0.1355	1239181	keystroke	r	n/a
619.6505	0.12	1239301	keystroke	e	n/a
619.9355	0.1355	1239871	keystroke	Key.space	n/a
621.5105	0.1205	1243021	keystroke	e	n/a
621.676	0.12	1243352	keystroke	n	n/a
622.006	0.12	1244012	keystroke	r	n/a
622.141	0.075	1244282	keystroke	o	n/a
622.336	0.06	1244672	keystroke	l	n/a
622.515	0.06	1245030	keystroke	l	n/a
622.71	0.09	1245420	keystroke	m	n/a
622.845	0.105	1245690	keystroke	e	n/a
622.981	0.1195	1245962	keystroke	n	n/a
623.1305	0.075	1246261	keystroke	t	n/a
623.2805	0.105	1246561	keystroke	Key.space	n/a
623.5655	0.09	1247131	keystroke	f	n/a
624.0005	0.075	1248001	keystroke	Key.backspace	n/a
624.0605	0.12	1248121	keystroke	g	n/a
624.1955	0.1795	1248391	keystroke	e	n/a
624.3155	0.1205	1248631	keystroke	r	n/a
624.7805	0.09	1249561	keystroke	m	n/a
624.9005	0.09	1249801	keystroke	a	n/a
625.021	0.09	1250042	keystroke	n	n/a
625.291	0.074	1250582	keystroke	Key.enter	n/a
625.3785	9.461	1250757	prompt	n/a	fixes aaron tropical accept\n
626.431	0.045	1252862	keystroke	g	n/a
626.956	0.0745	1253912	keystroke	Key.backspace	n/a
627.151	0.06	1254302	keystroke	f	n/a
627.271	0.075	1254542	keystroke	i	n/a
627.886	0.075	1255772	keystroke	x	n/a
628.216	0.015	1256432	keystroke	e	n/a
628.366	0.075	1256732	keystroke	s	n/a
629.4455	0.12	1258891	keystroke	Key.space	n/a
629.6555	0.075	1259311	keystroke	a	n/a
629.8505	0.09	1259701	keystroke	a	n/a
629.9855	0.1045	1259971	keystroke	r	n/a
630.1355	0.1945	1260271	keystroke	o	n/a
630.2555	0.15	1260511	keystroke	m	n/a
630.6455	0.0745	1261291	keystroke	Key.backspace	n/a
630.8555	0.165	1261711	keystroke	n	n/a
630.9755	0.075	1261951	keystroke	Key.space	n/a
631.6955	0.06	1263391	keystroke	t	n/a
631.8905	0.06	1263781	keystroke	r	n/a
631.9955	0.15	1263991	keystroke	o	n/a
632.1155	0.135	1264231	keystroke	p	n/a
632.2955	0.105	1264591	keystroke	i	n/a
632.4755	0.105	1264951	keystroke	c	n/a
632.5655	0.15	1265131	keystroke	a	n/a
632.6705	0.1655	1265341	keystroke	l	n/a
632.791	0.105	1265582	keystroke	Key.space	n/a
633.316	0.075	1266632	keystroke	c	n/a
633.706	0.015	1267412	keystroke	Key.backspace	n/a
633.736	0.12	1267472	keystroke	a	n/a
633.841	0.045	1267682	keystroke	c	n/a
633.991	0.09	1267982	keystroke	c	n/a
634.215	0.105	1268430	keystroke	e	n/a
634.335	0.075	1268670	keystroke	p	n/a
634.455	0.105	1268910	keystroke	t	n/a
634.755	0.075	1269510	keystroke	Key.enter	n/a
634.8435	8.2025	1269687	prompt	n/a	laboratories giving anyway ebony\n
635.5205	0.105	1271041	keystroke	l	n/a
635.7605	0.1205	1271521	keystroke	a	n/a
635.911	0.0745	1271822	keystroke	b	n/a
636.0605	0.075	1272121	keystroke	o	n/a
636.1655	0.105	1272331	keystroke	r	n/a
636.48	0.091	1272960	keystroke	a	n/a
636.705	0.075	1273410	keystroke	t	n/a
636.855	0.075	1273710	keystroke	o	n/a
637.2455	0.105	1274491	keystroke	r	n/a
637.411	0.075	1274822	keystroke	i	n/a
637.546	0.09	1275092	keystroke	e	n/a
637.756	0.075	1275512	keystroke	s	n/a
637.876	0.12	1275752	keystroke	Key.space	n/a
638.911	0.075	1277822	keystroke	g	n/a
639.046	0.09	1278092	keystroke	i	n/a
639.18	0.076	1278360	keystroke	v	n/a
639.286	0.149	1278572	keystroke	i	n/a
639.405	0.09	1278810	keystroke	n	n/a
639.51	0.09	1279020	keystroke	g	n/a
639.66	0.075	1279320	keystroke	Key.space	n/a
639.93	0.091	1279860	keystroke	a	n/a
640.005	0.12	1280010	keystroke	n	n/a
640.29	0.105	1280580	keystroke	y	n/a
640.47	0.135	1280940	keystroke	w	n/a
640.56	0.09	1281120	keystroke	a	n/a
640.696	0.1645	1281392	keystroke	y	n/a
641.0255	0.0755	1282051	keystroke	Key.space	n/a
641.356	0.105	1282712	keystroke	e	n/a
641.566	0.075	1283132	keystroke	b	n/a
641.836	0.15	1283672	keystroke	o	n/a
641.956	0.105	1283912	keystroke	n	n/a
642.4805	0.105	1284961	keystroke	y	n/a
642.9455	0.09	1285891	keystroke	Key.enter	n/a
643.0505	10.344	1286101	prompt	n/a	engaged advantages takes flow\n
643.621	0.015	1287242	keystroke	e	n/a
643.696	0.105	1287392	keystroke	n	n/a
643.876	0.15	1287752	keystroke	g	n/a
644.071	0.12	1288142	keystroke	a	n/a
644.3705	0.135	1288741	keystroke	g	n/a
644.5655	0.165	1289131	keystroke	e	n/a
644.7005	0.09	1289401	keystroke	d	n/a
644.9105	0.06	1289821	keystroke	Key.space	n/a
645.1505	0.18	1290301	keystroke	a	n/a
645.2855	0.105	1290571	keystroke	d	n/a
645.9455	0.06	1291891	keystroke	a	n/a
646.0655	0.105	1292131	keystroke	n	n/a
646.5755	0.06	1293151	keystroke	Key.backspace	n/a
647.115	0.03	1294230	keystroke	Key.backspace	n/a
647.7755	0.105	1295551	keystroke	v	n/a
647.8655	0.18	1295731	keystroke	a	n/a
648.0005	0.09	1296001	keystroke	n	n/a
648.7355	0.09	1297471	keystroke	t	n/a
648.9305	0.105	1297861	keystroke	a	n/a
649.0955	0.12	1298191	keystroke	g	n/a
649.1855	0.105	1298371	keystroke	e	n/a
649.411	0.1045	1298822	keystroke	s	n/a
649.5455	0.12	1299091	keystroke	Key.space	n/a
649.9955	0.105	1299991	keystroke	t	n/a
650.2205	0.1055	1300441	keystroke	a	n/a
650.341	0.075	1300682	keystroke	k	n/a
650.446	0.075	1300892	keystroke	e	n/a
650.956	0.09	1301912	keystroke	s	n/a
651.106	0.12	1302212	keystroke	Key.space	n/a
651.601	0.135	1303202	keystroke	f	n/a
651.856	0.105	1303712	keystroke	l	n/a
652.066	0.075	1304132	keystroke	o	n/a
652.171	0.089	1304342	keystroke	w	n/a
653.2655	0.12	1306531	keystroke	Key.enter	n/a
653.3985	8.834	1306797	prompt	n/a	ukraine contrast get hard\n
654.1955	0.09	1308391	keystroke	u	n/a
654.4505	0.09	1308901	keystroke	k	n/a
654.916	0.12	1309832	keystroke	r	n/a
655.021	0.164	1310042	keystroke	a	n/a
655.186	0.134	1310372	keystroke	i	n/a
655.275	0.12	1310550	keystroke	n	n/a
655.425	0.09	1310850	keystroke	e	n/a
655.62	0.0905	1311240	keystroke	Key.space	n/a
656.0405	0.06	1312081	keystroke	e	n/a
656.3855	0.075	1312771	keystroke	Key.backspace	n/a
656.4905	0.09	1312981	keystroke	c	n/a
656.6105	0.135	1313221	keystroke	o	n/a
656.7005	0.12	1313401	keystroke	n	n/a
656.8655	0.105	1313731	keystroke	t	n/a
657.0455	0.135	1314091	keystroke	r	n/a
657.1955	0.195	1314391	keystroke	a	n/a
657.3455	0.105	1314691	keystroke	s	n/a
657.5705	0.09	1315141	keystroke	t	n/a
657.6905	0.105	1315381	keystroke	Key.space	n/a
657.9605	0.12	1315921	keystroke	g	n/a
658.0955	0.135	1316191	keystroke	e	n/a
658.2005	0.106	1316401	keystroke	t	n/a
658.3805	0.09	1316761	keystroke	Key.space	n/a
658.6505	0.12	1317301	keystroke	h	n/a
658.831	0.135	1317662	keystroke	a	n/a
658.921	0.135	1317842	keystroke	r	n/a
659.986	0.09	1319972	keystroke	f	n/a
660.675	0.091	1321350	keystroke	Key.backspace	n/a
660.766	0.074	1321532	keystroke	d	n/a
662.161	0.059	1324322	keystroke	Key.enter	n/a
662.239	7.3705	1324478	prompt	n/a	combinations back officials would\n
662.9555	0.12	1325911	keystroke	c	n/a
663.0605	0.195	1326121	keystroke	o	n/a
663.2705	0.135	1326541	keystroke	n	n/a
663.7205	0.075	1327441	keystroke	Key.backspace	n/a
663.9155	0.105	1327831	keystroke	m	n/a
664.1855	0.075	1328371	keystroke	b	n/a
664.3505	0.135	1328701	keystroke	i	n/a
664.4405	0.105	1328881	keystroke	n	n/a
664.5905	0.09	1329181	keystroke	a	n/a
664.7855	0.075	1329571	keystroke	t	n/a
664.8455	0.24	1329691	keystroke	i	n/a
664.9205	0.18	1329841	keystroke	o	n/a
665.0105	0.135	1330021	keystroke	n	n/a
665.2505	0.12	1330501	keystroke	s	n/a
665.4605	0.075	1330921	keystroke	Key.space	n/a
665.6555	0.09	1331311	keystroke	b	n/a
665.7605	0.135	1331521	keystroke	a	n/a
665.8655	0.105	1331731	keystroke	c	n/a
665.9555	0.18	1331911	keystroke	k	n/a
666.0605	0.12	1332121	keystroke	Key.space	n/a
666.2705	0.12	1332541	keystroke	o	n/a
666.4355	0.0905	1332871	keystroke	f	n/a
666.631	0.06	1333262	keystroke	f	n/a
666.841	0.09	1333682	keystroke	i	n/a
667.006	0.1195	1334012	keystroke	c	n/a
667.1855	0.09	1334371	keystroke	i	n/a
667.3655	0.06	1334731	keystroke	a	n/a
667.4705	0.135	1334941	keystroke	l	n/a
667.6205	0.075	1335241	keystroke	s	n/a
667.7555	0.12	1335511	keystroke	Key.space	n/a
668.0555	0.09	1336111	keystroke	w	n/a
668.1455	0.12	1336291	keystroke	o	n/a
668.2205	0.09	1336441	keystroke	u	n/a
668.3855	0.135	1336771	keystroke	l	n/a
668.5055	0.105	1337011	keystroke	d	n/a
669.5105	0.09	1339021	keystroke	Key.enter	n/a
669.614	7.353	1339228	prompt	n/a	supports process charlie gotten\n
670.1705	0.06	1340341	keystroke	s	n/a
670.2455	0.105	1340491	keystroke	u	n/a
670.4555	0.06	1340911	keystroke	p	n/a
670.6055	0.1055	1341211	keystroke	p	n/a
670.6505	0.1205	1341301	keystroke	o	n/a
670.876	0.12	1341752	keystroke	s	n/a
671.116	0.075	1342232	keystroke	r	n/a
671.461	0.045	1342922	keystroke	Key.backspace	n/a
671.596	0.09	1343192	keystroke	Key.backspace	n/a
671.746	0.09	1343492	keystroke	r	n/a
671.956	0.075	1343912	keystroke	t	n/a
672.1805	0.105	1344361	keystroke	s	n/a
672.3155	0.12	1344631	keystroke	Key.space	n/a
672.5705	0.09	1345141	keystroke	p	n/a
672.765	0.09	1345530	keystroke	r	n/a
672.915	0.105	1345830	keystroke	o	n/a
673.065	0.165	1346130	keystroke	c	n/a
673.185	0.105	1346370	keystroke	e	n/a
673.44	0.06	1346880	keystroke	s	n/a
673.62	0.075	1347240	keystroke	s	n/a
673.86	0.09	1347720	keystroke	Key.space	n/a
674.25	0.12	1348500	keystroke	c	n/a
674.385	0.105	1348770	keystroke	h	n/a
674.505	0.135	1349010	keystroke	a	n/a
674.641	0.089	1349282	keystroke	r	n/a
674.76	0.15	1349520	keystroke	l	n/a
674.85	0.105	1349700	keystroke	i	n/a
675.0755	0.075	1350151	keystroke	e	n/a
675.2555	0.09	1350511	keystroke	Key.space	n/a
675.4205	0.075	1350841	keystroke	c	n/a
675.706	0.0745	1351412	keystroke	Key.backspace	n/a
675.8105	0.09	1351621	keystroke	g	n/a
675.9605	0.09	1351921	keystroke	o	n/a
676.0955	0.075	1352191	keystroke	t	n/a
676.2455	0.09	1352491	keystroke	t	n/a
676.5155	0.09	1353031	keystroke	e	n/a
676.6205	0.09	1353241	keystroke	n	n/a
676.8755	0.09	1353751	keystroke	Key.enter	n/a
676.9735	12.631	1353947	prompt	n/a	shirts alexander linear unsubscribe\n
677.6105	0.09	1355221	keystroke	s	n/a
677.7755	0.09	1355551	keystroke	h	n/a
677.9105	0.1045	1355821	keystroke	i	n/a
678.045	0.12	1356090	keystroke	r	n/a
678.27	0.075	1356540	keystroke	t	n/a
678.465	0.09	1356930	keystroke	s	n/a
678.585	0.12	1357170	keystroke	Key.space	n/a
678.735	0.1055	1357470	keystroke	a	n/a
678.8555	0.12	1357711	keystroke	l	n/a
679.036	0.12	1358072	keystroke	e	n/a
679.561	0.09	1359122	keystroke	x	n/a
679.831	0.075	1359662	keystroke	a	n/a
679.966	0.06	1359932	keystroke	n	n/a
680.3855	0.1205	1360771	keystroke	d	n/a
680.5355	0.1355	1361071	keystroke	e	n/a
