onset	duration	sample	value	key	prompt_text
9.4515	11.889	18903	prompt	n/a	the quick brown fox jumps over a lazy dog\n
11.3205	0.043	22641	keystroke	t	n/a
11.3785	0.06	22757	keystroke	h	n/a
11.4535	0.09	22907	keystroke	e	n/a
11.5585	0.0895	23117	keystroke	Key.space	n/a
11.7085	0.15	23417	keystroke	q	n/a
11.8735	0.135	23747	keystroke	u	n/a
11.9935	0.09	23987	keystroke	i	n/a
12.3085	0.105	24617	keystroke	c	n/a
12.4435	0.09	24887	keystroke	k	n/a
12.5935	0.09	25187	keystroke	Key.space	n/a
12.8635	0.09	25727	keystroke	b	n/a
13.1035	0.09	26207	keystroke	r	n/a
13.1785	0.075	26357	keystroke	o	n/a
13.2985	0.105	26597	keystroke	w	n/a
13.3735	0.1045	26747	keystroke	n	n/a
13.493	0.09	26986	keystroke	Key.space	n/a
13.598	0.105	27196	keystroke	f	n/a
13.688	0.09	27376	keystroke	o	n/a
13.838	0.12	27676	keystroke	x	n/a
14.018	0.15	28036	keystroke	Key.space	n/a
14.288	0.0745	28576	keystroke	j	n/a
14.6475	0.105	29295	keystroke	m	n/a
15.143	0.09	30286	keystroke	Key.backspace	n/a
15.398	0.075	30796	keystroke	u	n/a
15.623	0.09	31246	keystroke	m	n/a
15.833	0.105	31666	keystroke	p	n/a
16.283	0.06	32566	keystroke	s	n/a
18.1725	0.09	36345	keystroke	Key.space	n/a
19.1625	0.09	38325	keystroke	o	n/a
19.2225	0.09	38445	keystroke	v	n/a
19.4175	0.1205	38835	keystroke	e	n/a
19.4625	0.1355	38925	keystroke	r	n/a
19.583	0.0755	39166	keystroke	Key.space	n/a
19.748	0.075	39496	keystroke	a	n/a
19.8385	0.09	39677	keystroke	Key.space	n/a
19.9725	0.076	39945	keystroke	l	n/a
20.2735	0.12	40547	keystroke	a	n/a
20.498	0.1205	40996	keystroke	z	n/a
20.6185	0.044	41237	keystroke	y	n/a
20.7225	0.075	41445	keystroke	Key.space	n/a
20.8725	0.12	41745	keystroke	d	n/a
20.9325	0.105	41865	keystroke	o	n/a
21.0975	0.09	42195	keystroke	g	n/a
21.2625	0.075	42525	keystroke	Key.enter	n/a
21.345	10.1955	42690	prompt	n/a	string strategy mailing anyway\n
21.983	0.09	43966	keystroke	s	n/a
22.133	0.09	44266	keystroke	t	n/a
22.313	0.09	44626	keystroke	r	n/a
22.373	0.075	44746	keystroke	i	n/a
22.433	0.12	44866	keystroke	n	n/a
22.463	0.016	44926	keystroke	u	n/a
22.538	0.09	45076	keystroke	g	n/a
22.673	0.0905	45346	keystroke	Key.space	n/a
23.603	0.075	47206	keystroke	Key.backspace	n/a
23.7685	0.0895	47537	keystroke	Key.backspace	n/a
23.9035	0.105	47807	keystroke	Key.backspace	n/a
26.17	0.028	52340	keystroke	g	n/a
26.378	0.09	52756	keystroke	Key.space	n/a
26.513	0.1205	53026	keystroke	s	n/a
26.6635	0.09	53327	keystroke	t	n/a
26.828	0.12	53656	keystroke	r	n/a
26.993	0.105	53986	keystroke	a	n/a
27.473	0.09	54946	keystroke	t	n/a
27.608	0.0755	55216	keystroke	e	n/a
27.8035	0.09	55607	keystroke	g	n/a
27.9085	0.075	55817	keystroke	y	n/a
28.6275	0.09	57255	keystroke	Key.space	n/a
28.7485	0.119	57497	keystroke	m	n/a
28.8525	0.121	57705	keystroke	a	n/a
28.9735	0.075	57947	keystroke	i	n/a
29.2135	0.06	58427	keystroke	l	n/a
29.333	0.135	58666	keystroke	i	n/a
29.438	0.105	58876	keystroke	n	n/a
29.573	0.09	59146	keystroke	g	n/a
30.1125	0.09	60225	keystroke	Key.space	n/a
30.3975	0.091	60795	keystroke	a	n/a
30.4725	0.06	60945	keystroke	n	n/a
30.6835	0.045	61367	keystroke	y	n/a
31.0585	0.15	62117	keystroke	w	n/a
31.1335	0.135	62267	keystroke	a	n/a
31.2235	0.075	62447	keystroke	y	n/a
31.4485	0.09	62897	keystroke	Key.enter	n/a
31.544	11.906	63088	prompt	n/a	belkin potentially proprietary medieval\n
32.333	0.075	64666	keystroke	b	n/a
32.543	0.09	65086	keystroke	e	n/a
32.769	0.104	65538	keystroke	l	n/a
33.008	0.046	66016	keystroke	k	n/a
33.188	0.105	66376	keystroke	i	n/a
33.278	0.105	66556	keystroke	n	n/a
33.548	0.09	67096	keystroke	Key.space	n/a
34.118	0.06	68236	keystroke	p	n/a
34.463	0.105	68926	keystroke	o	n/a
34.658	0.076	69316	keystroke	t	n/a
34.763	0.1205	69526	keystroke	e	n/a
34.8685	0.075	69737	keystroke	n	n/a
35.1085	0.135	70217	keystroke	t	n/a
35.2445	0.074	70489	keystroke	i	n/a
35.4385	0.12	70877	keystroke	a	n/a
35.5285	0.06	71057	keystroke	l	n/a
35.783	0.03	71566	keystroke	l	n/a
35.798	0.0755	71596	keystroke	y	n/a
37.0585	0.09	74117	keystroke	Key.space	n/a
37.3285	0.09	74657	keystroke	p	n/a
37.7485	0.09	75497	keystroke	r	n/a
37.8235	0.09	75647	keystroke	o	n/a
38.0935	0.12	76187	keystroke	p	n/a
38.3785	0.12	76757	keystroke	r	n/a
38.5285	0.06	77057	keystroke	i	n/a
39.4885	0.045	78977	keystroke	e	n/a
40.0585	0.09	80117	keystroke	t	n/a
40.2235	0.105	80447	keystroke	a	n/a
40.2835	0.12	80567	keystroke	r	n/a
40.4035	0.06	80807	keystroke	y	n/a
40.8535	0.06	81707	keystroke	Key.space	n/a
41.2285	0.135	82457	keystroke	m	n/a
41.4985	0.105	82997	keystroke	e	n/a
41.768	0.1205	83536	keystroke	d	n/a
42.0085	0.09	84017	keystroke	i	n/a
42.2485	0.12	84497	keystroke	e	n/a
42.8485	0.1345	85697	keystroke	v	n/a
43.013	0.135	86026	keystroke	a	n/a
43.118	0.09	86236	keystroke	l	n/a
43.388	0.06	86776	keystroke	Key.enter	n/a
43.453	7.032	86906	prompt	n/a	registry o'clock cowboy transition\n
44.138	0.06	88276	keystroke	r	n/a
44.153	0.105	88306	keystroke	e	n/a
44.3635	0.1045	88727	keystroke	g	n/a
44.438	0.09	88876	keystroke	i	n/a
44.543	0.09	89086	keystroke	s	n/a
44.633	0.09	89266	keystroke	t	n/a
44.798	0.105	89596	keystroke	r	n/a
44.888	0.075	89776	keystroke	y	n/a
45.008	0.09	90016	keystroke	Key.space	n/a
45.158	0.075	90316	keystroke	o	n/a
45.488	0.09	90976	keystroke	'	n/a
45.773	0.136	91546	keystroke	c	n/a
45.878	0.09	91756	keystroke	l	n/a
46.314	0.105	92628	keystroke	o	n/a
46.404	0.135	92808	keystroke	c	n/a
46.524	0.0895	93048	keystroke	k	n/a
47.0185	0.06	94037	keystroke	Key.space	n/a
47.2885	0.135	94577	keystroke	c	n/a
47.3935	0.09	94787	keystroke	o	n/a
47.5885	0.0905	95177	keystroke	w	n/a
47.8285	0.075	95657	keystroke	b	n/a
47.8885	0.09	95777	keystroke	o	n/a
48.0685	0.075	96137	keystroke	y	n/a
48.4285	0.09	96857	keystroke	Key.space	n/a
48.848	0.09	97696	keystroke	t	n/a
48.999	0.135	97998	keystroke	r	n/a
49.104	0.089	98208	keystroke	a	n/a
49.464	0.104	98928	keystroke	n	n/a
49.6735	0.12	99347	keystroke	s	n/a
49.7945	0.074	99589	keystroke	i	n/a
49.9285	0.09	99857	keystroke	t	n/a
50.0035	0.15	100007	keystroke	i	n/a
50.0935	0.135	100187	keystroke	o	n/a
50.1685	0.105	100337	keystroke	n	n/a
50.4085	0.075	100817	keystroke	Key.enter	n/a
50.488	9.957	100976	prompt	n/a	mathematical catholic onion calendars\n
51.1585	0.105	102317	keystroke	m	n/a
51.2785	0.105	102557	keystroke	a	n/a
51.4735	0.105	102947	keystroke	t	n/a
51.5485	0.0745	103097	keystroke	h	n/a
51.683	0.09	103366	keystroke	e	n/a
51.8485	0.1045	103697	keystroke	m	n/a
51.983	0.105	103966	keystroke	a	n/a
52.163	0.075	104326	keystroke	t	n/a
52.268	0.075	104536	keystroke	i	n/a
52.373	0.105	104746	keystroke	c	n/a
52.493	0.12	104986	keystroke	a	n/a
52.598	0.075	105196	keystroke	l	n/a
52.958	0.06	105916	keystroke	Key.space	n/a
53.243	0.12	106486	keystroke	c	n/a
53.408	0.105	106816	keystroke	a	n/a
53.6185	0.105	107237	keystroke	t	n/a
53.7835	0.09	107567	keystroke	h	n/a
54.2635	0.06	108527	keystroke	l	n/a
54.7435	0.089	109487	keystroke	Key.backspace	n/a
55.0585	0.06	110117	keystroke	o	n/a
55.2385	0.075	110477	keystroke	l	n/a
55.5385	0.105	111077	keystroke	i	n/a
55.6585	0.105	111317	keystroke	c	n/a
56.2885	0.09	112577	keystroke	Key.space	n/a
56.784	0.09	113568	keystroke	o	n/a
56.994	0.09	113988	keystroke	n	n/a
57.219	0.15	114438	keystroke	i	n/a
57.309	0.135	114618	keystroke	o	n/a
57.384	0.12	114768	keystroke	n	n/a
57.983	0.075	115966	keystroke	Key.space	n/a
58.164	0.12	116328	keystroke	c	n/a
58.314	0.119	116628	keystroke	a	n/a
58.493	0.09	116986	keystroke	l	n/a
58.628	0.06	117256	keystroke	e	n/a
58.718	0.106	117436	keystroke	n	n/a
58.808	0.091	117616	keystroke	d	n/a
59.6635	0.15	119327	keystroke	a	n/a
59.8285	0.105	119657	keystroke	r	n/a
60.0085	0.12	120017	keystroke	s	n/a
60.3535	0.0895	120707	keystroke	Key.enter	n/a
60.4515	8.469	120903	prompt	n/a	funding laughing wider grove\n
61.118	0.12	122236	keystroke	f	n/a
61.224	0.06	122448	keystroke	u	n/a
61.403	0.09	122806	keystroke	n	n/a
61.448	0.091	122896	keystroke	d	n/a
61.644	0.1345	123288	keystroke	i	n/a
61.7185	0.12	123437	keystroke	n	n/a
61.8235	0.09	123647	keystroke	g	n/a
62.393	0.015	124786	keystroke	Key.space	n/a
62.528	0.105	125056	keystroke	l	n/a
62.618	0.12	125236	keystroke	a	n/a
62.768	0.075	125536	keystroke	u	n/a
62.948	0.09	125896	keystroke	h	n/a
63.113	0.165	126226	keystroke	i	n/a
63.218	0.105	126436	keystroke	n	n/a
63.308	0.105	126616	keystroke	g	n/a
63.983	0.075	127966	keystroke	Key.backspace	n/a
64.148	0.06	128296	keystroke	Key.backspace	n/a
64.298	0.075	128596	keystroke	Key.backspace	n/a
64.448	0.075	128896	keystroke	Key.backspace	n/a
64.643	0.09	129286	keystroke	g	n/a
65.558	0.105	131116	keystroke	h	n/a
65.738	0.1505	131476	keystroke	i	n/a
65.828	0.1205	131656	keystroke	n	n/a
65.9635	0.105	131927	keystroke	g	n/a
66.309	0.09	132618	keystroke	Key.space	n/a
66.669	0.09	133338	keystroke	w	n/a
66.744	0.09	133488	keystroke	i	n/a
66.8635	0.0895	133727	keystroke	d	n/a
67.0435	0.12	134087	keystroke	e	n/a
67.1185	0.075	134237	keystroke	r	n/a
67.2835	0.075	134567	keystroke	Key.space	n/a
67.7935	0.09	135587	keystroke	g	n/a
67.9885	0.075	135977	keystroke	r	n/a
68.0785	0.075	136157	keystroke	o	n/a
68.2885	0.09	136577	keystroke	v	n/a
68.4835	0.075	136967	keystroke	e	n/a
68.8435	0.075	137687	keystroke	Key.enter	n/a
68.924	11.801	137848	prompt	n/a	commonwealth cardiff replacement uniprotkb\n
69.623	0.12	139246	keystroke	c	n/a
69.818	0.075	139636	keystroke	o	n/a
69.968	0.09	139936	keystroke	m	n/a
70.088	0.106	140176	keystroke	m	n/a
71.1235	0.135	142247	keystroke	o	n/a
71.2135	0.105	142427	keystroke	n	n/a
71.5735	0.09	143147	keystroke	w	n/a
71.7385	0.1795	143477	keystroke	e	n/a
71.8585	0.1645	143717	keystroke	a	n/a
71.993	0.105	143986	keystroke	l	n/a
72.218	0.12	144436	keystroke	t	n/a
72.323	0.075	144646	keystroke	h	n/a
72.893	0.0755	145786	keystroke	Key.space	n/a
73.1035	0.105	146207	keystroke	c	n/a
73.2535	0.09	146507	keystroke	a	n/a
73.3885	0.09	146777	keystroke	r	n/a
73.5985	0.0745	147197	keystroke	d	n/a
73.689	0.074	147378	keystroke	i	n/a
74.018	0.076	148036	keystroke	f	n/a
74.153	0.09	148306	keystroke	f	n/a
74.7385	0.03	149477	keystroke	Key.space	n/a
75.1885	0.15	150377	keystroke	r	n/a
75.2785	0.12	150557	keystroke	e	n/a
75.4735	0.09	150947	keystroke	p	n/a
75.6385	0.0905	151277	keystroke	l	n/a
75.6835	0.105	151367	keystroke	a	n/a
75.8785	0.105	151757	keystroke	c	n/a
76.0735	0.075	152147	keystroke	e	n/a
76.1785	0.09	152357	keystroke	m	n/a
76.2835	0.075	152567	keystroke	e	n/a
76.3735	0.09	152747	keystroke	n	n/a
76.4785	0.09	152957	keystroke	t	n/a
76.8085	0.09	153617	keystroke	Key.space	n/a
77.303	0.06	154606	keystroke	u	n/a
77.483	0.09	154966	keystroke	n	n/a
77.6485	0.09	155297	keystroke	i	n/a
77.8885	0.105	155777	keystroke	p	n/a
78.1285	0.075	156257	keystroke	r	n/a
78.2185	0.075	156437	keystroke	o	n/a
79.8085	0.075	159617	keystroke	t	n/a
80.0335	0.09	160067	keystroke	k	n/a
80.3335	0.09	160667	keystroke	b	n/a
80.6635	0.06	161327	keystroke	Key.enter	n/a
80.7295	9.7155	161459	prompt	n/a	creativity friday xerox authentication\n
81.443	0.12	162886	keystroke	c	n/a
81.698	0.15	163396	keystroke	r	n/a
81.773	0.135	163546	keystroke	e	n/a
81.833	0.135	163666	keystroke	a	n/a
82.058	0.105	164116	keystroke	t	n/a
82.178	0.0905	164356	keystroke	i	n/a
82.2835	0.1195	164567	keystroke	v	n/a
83.663	0.09	167326	keystroke	i	n/a
83.828	0.0755	167656	keystroke	t	n/a
83.9185	0.075	167837	keystroke	y	n/a
84.1135	0.09	168227	keystroke	Key.space	n/a
84.2635	0.09	168527	keystroke	f	n/a
84.4135	0.09	168827	keystroke	r	n/a
84.5335	0.075	169067	keystroke	i	n/a
84.6235	0.105	169247	keystroke	d	n/a
84.8935	0.12	169787	keystroke	a	n/a
84.9985	0.0755	169997	keystroke	y	n/a
85.494	0.075	170988	keystroke	Key.space	n/a
85.989	0.105	171978	keystroke	x	n/a
86.229	0.06	172458	keystroke	e	n/a
86.469	0.075	172938	keystroke	r	n/a
86.574	0.075	173148	keystroke	o	n/a
86.754	0.105	173508	keystroke	x	n/a
87.399	0.03	174798	keystroke	Key.space	n/a
87.6685	0.09	175337	keystroke	a	n/a
87.8035	0.075	175607	keystroke	u	n/a
87.9385	0.12	175877	keystroke	t	n/a
88.0735	0.06	176147	keystroke	h	n/a
88.2235	0.12	176447	keystroke	e	n/a
88.7035	0.09	177407	keystroke	n	n/a
89.318	0.09	178636	keystroke	t	n/a
89.393	0.075	178786	keystroke	i	n/a
89.528	0.12	179056	keystroke	c	n/a
89.663	0.09	179326	keystroke	a	n/a
89.843	0.09	179686	keystroke	t	n/a
89.948	0.135	179896	keystroke	i	n/a
90.008	0.15	180016	keystroke	o	n/a
90.098	0.105	180196	keystroke	n	n/a
90.368	0.075	180736	keystroke	Key.enter	n/a
90.4485	8.0815	180897	prompt	n/a	placing disabled medications dependence\n
91.2985	0.0755	182597	keystroke	p	n/a
91.523	0.075	183046	keystroke	l	n/a
91.583	0.1055	183166	keystroke	a	n/a
91.8235	0.1045	183647	keystroke	c	n/a
91.943	0.135	183886	keystroke	i	n/a
92.018	0.105	184036	keystroke	n	n/a
92.108	0.09	184216	keystroke	g	n/a
92.723	0.06	185446	keystroke	Key.space	n/a
92.993	0.12	185986	keystroke	d	n/a
93.114	0.074	186228	keystroke	i	n/a
93.203	0.075	186406	keystroke	s	n/a
93.353	0.0905	186706	keystroke	a	n/a
93.5635	0.09	187127	keystroke	b	n/a
93.6835	0.09	187367	keystroke	l	n/a
93.7885	0.09	187577	keystroke	e	n/a
93.9535	0.09	187907	keystroke	d	n/a
94.553	0.075	189106	keystroke	Key.space	n/a
94.778	0.105	189556	keystroke	m	n/a
94.868	0.0905	189736	keystroke	e	n/a
95.0635	0.075	190127	keystroke	d	n/a
95.1235	0.12	190247	keystroke	i	n/a
95.2435	0.105	190487	keystroke	c	n/a
95.3635	0.075	190727	keystroke	a	n/a
95.4985	0.1045	190997	keystroke	t	n/a
95.6185	0.12	191237	keystroke	i	n/a
95.6335	0.135	191267	keystroke	o	n/a
95.7235	0.105	191447	keystroke	n	n/a
95.7985	0.105	191597	keystroke	s	n/a
96.549	0.075	193098	keystroke	Key.space	n/a
96.864	0.075	193728	keystroke	d	n/a
97.029	0.09	194058	keystroke	e	n/a
97.209	0.09	194418	keystroke	p	n/a
97.314	0.075	194628	keystroke	e	n/a
97.434	0.074	194868	keystroke	n	n/a
97.6585	0.09	195317	keystroke	d	n/a
97.8235	0.09	195647	keystroke	e	n/a
97.9285	0.09	195857	keystroke	n	n/a
98.0485	0.105	196097	keystroke	c	n/a
98.2585	0.06	196517	keystroke	e	n/a
98.4535	0.075	196907	keystroke	Key.enter	n/a
98.5335	9.762	197067	prompt	n/a	serves watson exploring surveys\n
99.279	0.045	198558	keystroke	s	n/a
99.413	0.136	198826	keystroke	e	n/a
99.489	0.09	198978	keystroke	r	n/a
99.683	0.075	199366	keystroke	v	n/a
99.833	0.09	199666	keystroke	e	n/a
99.878	0.106	199756	keystroke	r	n/a
100.059	0.03	200118	keystroke	s	n/a
100.643	0.09	201286	keystroke	Key.space	n/a
100.928	0.12	201856	keystroke	w	n/a
101.004	0.119	202008	keystroke	a	n/a
101.153	0.09	202306	keystroke	t	n/a
101.438	0.12	202876	keystroke	s	n/a
101.573	0.1205	203146	keystroke	o	n/a
101.6335	0.105	203267	keystroke	n	n/a
102.2335	0.045	204467	keystroke	Key.space	n/a
102.4135	0.075	204827	keystroke	e	n/a
102.6085	0.12	205217	keystroke	x	n/a
102.7885	0.105	205577	keystroke	p	n/a
103.193	0.06	206386	keystroke	l	n/a
103.358	0.075	206716	keystroke	o	n/a
103.448	0.09	206896	keystroke	r	n/a
103.583	0.0605	207166	keystroke	i	n/a
103.6585	0.045	207317	keystroke	u	n/a
103.6735	0.09	207347	keystroke	n	n/a
103.7485	0.09	207497	keystroke	g	n/a
104.4685	0.075	208937	keystroke	Key.backspace	n/a
104.6335	0.075	209267	keystroke	Key.backspace	n/a
104.8135	0.045	209627	keystroke	Key.backspace	n/a
106.148	0.075	212296	keystroke	n	n/a
106.283	0.0755	212566	keystroke	g	n/a
106.493	0.06	212986	keystroke	Key.space	n/a
106.643	0.09	213286	keystroke	s	n/a
106.943	0.075	213886	keystroke	u	n/a
107.033	0.0605	214066	keystroke	r	n/a
107.273	0.0905	214546	keystroke	v	n/a
107.6335	0.12	215267	keystroke	e	n/a
107.8135	0.09	215627	keystroke	y	n/a
107.9935	0.09	215987	keystroke	s	n/a
108.1735	0.12	216347	keystroke	Key.enter	n/a
108.298	6.927	216596	prompt	n/a	oasis russian mens newly\n
109.029	0.075	218058	keystroke	o	n/a
109.2235	0.105	218447	keystroke	a	n/a
109.4185	0.09	218837	keystroke	s	n/a
109.5685	0.09	219137	keystroke	i	n/a
109.6735	0.1205	219347	keystroke	s	n/a
110.168	0.091	220336	keystroke	Key.space	n/a
110.409	0.134	220818	keystroke	r	n/a
110.694	0.089	221388	keystroke	u	n/a
110.799	0.09	221598	keystroke	s	n/a
111.323	0.106	222646	keystroke	s	n/a
111.414	0.075	222828	keystroke	i	n/a
111.504	0.1195	223008	keystroke	a	n/a
111.6385	0.06	223277	keystroke	n	n/a
112.2835	0.015	224567	keystroke	Key.space	n/a
112.5685	0.075	225137	keystroke	m	n/a
112.6135	0.1195	225227	keystroke	a	n/a
113.063	0.045	226126	keystroke	Key.backspace	n/a
113.123	0.09	226246	keystroke	e	n/a
113.243	0.075	226486	keystroke	n	n/a
113.333	0.106	226666	keystroke	s	n/a
114.0385	0.075	228077	keystroke	Key.space	n/a
114.2635	0.075	228527	keystroke	n	n/a
114.3685	0.15	228737	keystroke	e	n/a
114.4435	0.135	228887	keystroke	w	n/a
114.638	0.06	229276	keystroke	l	n/a
114.833	0.06	229666	keystroke	y	n/a
115.1335	0.0895	230267	keystroke	Key.enter	n/a
115.23	9.985	230460	prompt	n/a	screensaver divorce carter temperature\n
116.1835	0.1195	232367	keystroke	s	n/a
116.529	0.1045	233058	keystroke	c	n/a
116.7385	0.135	233477	keystroke	r	n/a
116.8135	0.105	233627	keystroke	e	n/a
117.0535	0.105	234107	keystroke	e	n/a
117.2185	0.09	234437	keystroke	n	n/a
117.5635	0.12	235127	keystroke	s	n/a
117.6685	0.12	235337	keystroke	a	n/a
117.9085	0.09	235817	keystroke	v	n/a
118.0885	0.105	236177	keystroke	e	n/a
118.1485	0.105	236297	keystroke	r	n/a
118.823	0.105	237646	keystroke	Key.space	n/a
119.003	0.075	238006	keystroke	d	n/a
119.093	0.09	238186	keystroke	i	n/a
119.214	0.0895	238428	keystroke	v	n/a
119.798	0.1055	239596	keystroke	o	n/a
119.9785	0.12	239957	keystroke	r	n/a
120.2335	0.0905	240467	keystroke	c	n/a
120.444	0.09	240888	keystroke	e	n/a
121.179	0.06	242358	keystroke	Key.space	n/a
121.269	0.135	242538	keystroke	c	n/a
121.644	0.015	243288	keystroke	a	n/a
121.689	0.075	243378	keystroke	r	n/a
121.869	0.06	243738	keystroke	t	n/a
121.989	0.12	243978	keystroke	e	n/a
122.064	0.09	244128	keystroke	r	n/a
122.754	0.0745	245508	keystroke	Key.space	n/a
122.9185	0.09	245837	keystroke	t	n/a
123.0385	0.105	246077	keystroke	e	n/a
123.1435	0.12	246287	keystroke	m	n/a
123.414	0.0895	246828	keystroke	p	n/a
123.5185	0.1355	247037	keystroke	e	n/a
123.5935	0.1355	247187	keystroke	r	n/a
124.059	0.09	248118	keystroke	a	n/a
124.599	0.105	249198	keystroke	t	n/a
124.764	0.075	249528	keystroke	u	n/a
124.824	0.12	249648	keystroke	r	n/a
124.899	0.09	249798	keystroke	e	n/a
125.124	0.09	250248	keystroke	Key.enter	n/a
125.218	10.722	250436	prompt	n/a	campbell transparent victor implementing\n
125.904	0.135	251808	keystroke	c	n/a
126.009	0.1195	252018	keystroke	a	n/a
126.1585	0.09	252317	keystroke	m	n/a
126.4135	0.09	252827	keystroke	p	n/a
127.1635	0.105	254327	keystroke	b	n/a
127.3885	0.075	254777	keystroke	e	n/a
127.5685	0.06	255137	keystroke	l	n/a
127.8085	0.015	255617	keystroke	l	n/a
128.1985	0.075	256397	keystroke	Key.space	n/a
128.5285	0.09	257057	keystroke	t	n/a
128.7235	0.1505	257447	keystroke	r	n/a
128.8285	0.1495	257657	keystroke	a	n/a
129.174	0.09	258348	keystroke	n	n/a
129.6685	0.12	259337	keystroke	s	n/a
130.298	0.09	260596	keystroke	p	n/a
130.508	0.105	261016	keystroke	a	n/a
130.688	0.12	261376	keystroke	r	n/a
130.763	0.12	261526	keystroke	e	n/a
130.898	0.09	261796	keystroke	n	n/a
131.003	0.09	262006	keystroke	t	n/a
131.588	0.09	263176	keystroke	Key.space	n/a
131.813	0.12	263626	keystroke	v	n/a
132.038	0.075	264076	keystroke	i	n/a
132.143	0.091	264286	keystroke	c	n/a
132.383	0.09	264766	keystroke	t	n/a
132.488	0.075	264976	keystroke	o	n/a
132.548	0.09	265096	keystroke	r	n/a
133.208	0.0905	266416	keystroke	Key.space	n/a
133.448	0.105	266896	keystroke	i	n/a
133.6735	0.12	267347	keystroke	m	n/a
133.9435	0.09	267887	keystroke	p	n/a
134.1985	0.1045	268397	keystroke	l	n/a
134.423	0.12	268846	keystroke	e	n/a
134.678	0.105	269356	keystroke	m	n/a
134.798	0.12	269596	keystroke	e	n/a
134.903	0.09	269806	keystroke	n	n/a
135.188	0.105	270376	keystroke	t	n/a
135.323	0.135	270646	keystroke	i	n/a
135.428	0.12	270856	keystroke	n	n/a
135.533	0.105	271066	keystroke	g	n/a
135.818	0.12	271636	keystroke	Key.enter	n/a
135.944	7.271	271888	prompt	n/a	passed behavioral trap walter\n
136.598	0.09	273196	keystroke	p	n/a
136.658	0.15	273316	keystroke	a	n/a
136.778	0.106	273556	keystroke	s	n/a
136.959	0.0745	273918	keystroke	s	n/a
137.1385	0.06	274277	keystroke	e	n/a
137.2885	0.105	274577	keystroke	d	n/a
137.5435	0.1055	275087	keystroke	Key.space	n/a
137.784	0.09	275568	keystroke	b	n/a
138.009	0.075	276018	keystroke	e	n/a
138.144	0.075	276288	keystroke	h	n/a
138.234	0.09	276468	keystroke	a	n/a
138.5035	0.105	277007	keystroke	v	n/a
139.5535	0.0745	279107	keystroke	i	n/a
139.719	0.0595	279438	keystroke	o	n/a
139.8835	0.15	279767	keystroke	r	n/a
140.0185	0.105	280037	keystroke	a	n/a
140.1245	0.104	280249	keystroke	l	n/a
140.7235	0.075	281447	keystroke	Key.space	n/a
140.918	0.0755	281836	keystroke	t	n/a
141.083	0.105	282166	keystroke	r	n/a
141.203	0.06	282406	keystroke	a	n/a
141.264	0.089	282528	keystroke	p	n/a
141.983	0.0905	283966	keystroke	Key.space	n/a
142.2235	0.135	284447	keystroke	w	n/a
142.2835	0.165	284567	keystroke	a	n/a
142.4335	0.0895	284867	keystroke	l	n/a
142.583	0.09	285166	keystroke	t	n/a
142.718	0.135	285436	keystroke	e	n/a
142.793	0.106	285586	keystroke	r	n/a
143.1235	0.09	286247	keystroke	Key.enter	n/a
143.218	6.417	286436	prompt	n/a	ethnic tribe perfect size\n
144.1735	0.09	288347	keystroke	e	n/a
144.3835	0.105	288767	keystroke	t	n/a
144.5335	0.09	289067	keystroke	h	n/a
144.9535	0.06	289907	keystroke	n	n/a
145.1035	0.075	290207	keystroke	i	n/a
145.1935	0.09	290387	keystroke	c	n/a
145.7185	0.075	291437	keystroke	Key.space	n/a
145.9435	0.06	291887	keystroke	t	n/a
146.1085	0.09	292217	keystroke	r	n/a
146.2885	0.045	292577	keystroke	i	n/a
146.6635	0.0895	293327	keystroke	b	n/a
146.994	0.0895	293988	keystroke	e	n/a
147.2785	0.075	294557	keystroke	Key.space	n/a
147.4735	0.09	294947	keystroke	p	n/a
147.6085	0.12	295217	keystroke	e	n/a
147.6835	0.075	295367	keystroke	r	n/a
147.8785	0.0605	295757	keystroke	f	n/a
147.984	0.089	295968	keystroke	e	n/a
148.164	0.104	296328	keystroke	c	n/a
148.358	0.075	296716	keystroke	t	n/a
148.448	0.09	296896	keystroke	Key.space	n/a
148.613	0.105	297226	keystroke	s	n/a
148.749	0.089	297498	keystroke	i	n/a
148.944	0.09	297888	keystroke	z	n/a
149.214	0.0895	298428	keystroke	e	n/a
149.5285	0.1045	299057	keystroke	Key.enter	n/a
149.64	7.615	299280	prompt	n/a	outputs plugin sporting cyprus\n
150.549	0.105	301098	keystroke	o	n/a
150.713	0.09	301426	keystroke	u	n/a
150.818	0.09	301636	keystroke	t	n/a
151.013	0.105	302026	keystroke	p	n/a
151.103	0.09	302206	keystroke	u	n/a
151.208	0.105	302416	keystroke	t	n/a
151.583	0.1205	303166	keystroke	s	n/a
151.8085	0.09	303617	keystroke	Key.space	n/a
151.9885	0.1195	303977	keystroke	p	n/a
152.318	0.105	304636	keystroke	l	n/a
152.438	0.105	304876	keystroke	u	n/a
152.858	0.0905	305716	keystroke	g	n/a
153.0385	0.15	306077	keystroke	i	n/a
153.1735	0.09	306347	keystroke	n	n/a
153.398	0.106	306796	keystroke	Key.space	n/a
153.549	0.134	307098	keystroke	s	n/a
153.653	0.09	307306	keystroke	p	n/a
153.833	0.091	307666	keystroke	o	n/a
153.893	0.09	307786	keystroke	r	n/a
154.058	0.105	308116	keystroke	t	n/a
154.164	0.134	308328	keystroke	i	n/a
154.299	0.134	308598	keystroke	n	n/a
154.418	0.09	308836	keystroke	g	n/a
154.673	0.09	309346	keystroke	Key.space	n/a
154.913	0.15	309826	keystroke	c	n/a
155.138	0.09	310276	keystroke	y	n/a
156.173	0.09	312346	keystroke	p	n/a
156.488	0.12	312976	keystroke	r	n/a
156.609	0.089	313218	keystroke	u	n/a
156.743	0.105	313486	keystroke	s	n/a
157.193	0.06	314386	keystroke	Key.enter	n/a
157.258	6.9725	314516	prompt	n/a	lows premium mono younger\n
157.8535	0.06	315707	keystroke	l	n/a
158.0335	0.075	316067	keystroke	o	n/a
158.1535	0.105	316307	keystroke	w	n/a
158.3785	0.135	316757	keystroke	s	n/a
158.978	0.015	317956	keystroke	Key.space	n/a
159.158	0.09	318316	keystroke	p	n/a
159.293	0.135	318586	keystroke	r	n/a
159.368	0.12	318736	keystroke	e	n/a
159.668	0.12	319336	keystroke	m	n/a
160.1785	0.09	320357	keystroke	i	n/a
160.5535	0.075	321107	keystroke	u	n/a
160.7935	0.105	321587	keystroke	m	n/a
161.3185	0.06	322637	keystroke	Key.space	n/a
161.6635	0.12	323327	keystroke	m	n/a
161.8135	0.09	323627	keystroke	o	n/a
161.9785	0.12	323957	keystroke	n	n/a
162.143	0.075	324286	keystroke	o	n/a
162.653	0.075	325306	keystroke	Key.space	n/a
162.9385	0.105	325877	keystroke	y	n/a
163.0585	0.105	326117	keystroke	o	n/a
163.1035	0.09	326207	keystroke	u	n/a
163.3885	0.105	326777	keystroke	n	n/a
163.628	0.075	327256	keystroke	g	n/a
163.808	0.135	327616	keystroke	e	n/a
163.868	0.105	327736	keystroke	r	n/a
164.123	0.105	328246	keystroke	Key.enter	n/a
164.2365	7.2235	328473	prompt	n/a	keyboards louise tech statements\n
165.024	0.12	330048	keystroke	k	n/a
165.159	0.104	330318	keystroke	e	n/a
165.293	0.06	330586	keystroke	y	n/a
165.518	0.105	331036	keystroke	b	n/a
165.593	0.0905	331186	keystroke	o	n/a
165.714	0.135	331428	keystroke	a	n/a
165.804	0.09	331608	keystroke	r	n/a
166.0135	0.12	332027	keystroke	d	n/a
166.1935	0.135	332387	keystroke	s	n/a
166.809	0.09	333618	keystroke	Key.space	n/a
167.079	0.045	334158	keystroke	l	n/a
167.259	0.105	334518	keystroke	o	n/a
167.484	0.09	334968	keystroke	u	n/a
167.739	0.06	335478	keystroke	i	n/a
167.859	0.105	335718	keystroke	s	n/a
168.099	0.06	336198	keystroke	e	n/a
168.249	0.09	336498	keystroke	Key.space	n/a
168.4135	0.105	336827	keystroke	t	n/a
168.5335	0.075	337067	keystroke	e	n/a
168.7135	0.09	337427	keystroke	c	n/a
168.8185	0.075	337637	keystroke	h	n/a
169.3735	0.075	338747	keystroke	Key.space	n/a
169.5385	0.09	339077	keystroke	s	n/a
169.6585	0.0905	339317	keystroke	t	n/a
169.764	0.135	339528	keystroke	a	n/a
169.944	0.075	339888	keystroke	t	n/a
170.169	0.105	340338	keystroke	e	n/a
170.379	0.09	340758	keystroke	m	n/a
170.499	0.0895	340998	keystroke	e	n/a
170.5895	0.074	341179	keystroke	n	n/a
170.6935	0.12	341387	keystroke	t	n/a
170.8585	0.09	341717	keystroke	s	n/a
171.369	0.09	342738	keystroke	Key.enter	n/a
171.4645	8.6355	342929	prompt	n/a	generates proposals minute kernel\n
172.1935	0.045	344387	keystroke	g	n/a
172.3135	0.075	344627	keystroke	e	n/a
172.4185	0.075	344837	keystroke	n	n/a
172.5085	0.135	345017	keystroke	e	n/a
172.5985	0.15	345197	keystroke	r	n/a
172.7785	0.075	345557	keystroke	a	n/a
173.8735	0.075	347747	keystroke	t	n/a
173.9635	0.165	347927	keystroke	e	n/a
174.0385	0.105	348077	keystroke	s	n/a
174.3235	0.105	348647	keystroke	Key.space	n/a
174.4435	0.12	348887	keystroke	p	n/a
174.5785	0.09	349157	keystroke	r	n/a
174.6535	0.09	349307	keystroke	o	n/a
174.9985	0.09	349997	keystroke	p	n/a
175.5535	0.075	351107	keystroke	o	n/a
175.6735	0.1655	351347	keystroke	s	n/a
175.7935	0.1355	351587	keystroke	a	n/a
175.944	0.105	351888	keystroke	l	n/a
176.063	0.106	352126	keystroke	s	n/a
176.439	0.09	352878	keystroke	Key.space	n/a
176.574	0.12	353148	keystroke	m	n/a
176.814	0.09	353628	keystroke	i	n/a
177.039	0.09	354078	keystroke	n	n/a
177.249	0.075	354498	keystroke	u	n/a
177.624	0.0445	355248	keystroke	t	n/a
177.8035	0.075	355607	keystroke	e	n/a
177.9835	0.075	355967	keystroke	Key.space	n/a
178.3435	0.12	356687	keystroke	k	n/a
178.4785	0.1945	356957	keystroke	e	n/a
178.5835	0.1205	357167	keystroke	r	n/a
179.199	0.09	358398	keystroke	n	n/a
179.4535	0.12	358907	keystroke	e	n/a
179.5585	0.0905	359117	keystroke	l	n/a
179.993	0.105	359986	keystroke	Key.enter	n/a
180.1035	7.0315	360207	prompt	n/a	yoga meyer before acoustic\n
180.7885	0.06	361577	keystroke	y	n/a
180.8785	0.1355	361757	keystroke	o	n/a
181.149	0.12	362298	keystroke	g	n/a
181.239	0.134	362478	keystroke	a	n/a
181.7335	0.075	363467	keystroke	Key.space	n/a
182.0485	0.12	364097	keystroke	m	n/a
182.2135	0.105	364427	keystroke	e	n/a
182.3635	0.075	364727	keystroke	y	n/a
182.4685	0.105	364937	keystroke	e	n/a
182.5435	0.105	365087	keystroke	r	n/a
183.0235	0.09	366047	keystroke	Key.space	n/a
183.2335	0.075	366467	keystroke	b	n/a
183.3835	0.105	366767	keystroke	e	n/a
183.4735	0.075	366947	keystroke	r	n/a
184.0885	0.09	368177	keystroke	Key.backspace	n/a
184.239	0.12	368478	keystroke	f	n/a
184.344	0.044	368688	keystroke	o	n/a
184.433	0.106	368866	keystroke	r	n/a
184.494	0.105	368988	keystroke	e	n/a
185.124	0.074	370248	keystroke	Key.space	n/a
185.319	0.089	370638	keystroke	a	n/a
185.529	0.105	371058	keystroke	c	n/a
185.649	0.1195	371298	keystroke	o	n/a
185.7235	0.09	371447	keystroke	u	n/a
185.8735	0.12	371747	keystroke	s	n/a
186.534	0.045	373068	keystroke	t	n/a
186.593	0.075	373186	keystroke	i	n/a
186.728	0.1055	373456	keystroke	c	n/a
187.0435	0.09	374087	keystroke	Key.enter	n/a
187.138	6.732	374276	prompt	n/a	addresses pledge wasn't trials\n
187.778	0.09	375556	keystroke	a	n/a
187.928	0.09	375856	keystroke	d	n/a
188.078	0.075	376156	keystroke	d	n/a
188.318	0.135	376636	keystroke	r	n/a
188.393	0.09	376786	keystroke	e	n/a
188.619	0.074	377238	keystroke	s	n/a
188.783	0.045	377566	keystroke	s	n/a
188.933	0.12	377866	keystroke	e	n/a
188.994	0.104	377988	keystroke	s	n/a
189.248	0.075	378496	keystroke	Key.space	n/a
189.383	0.09	378766	keystroke	p	n/a
189.578	0.105	379156	keystroke	l	n/a
189.698	0.09	379396	keystroke	e	n/a
190.268	0.105	380536	keystroke	d	n/a
190.4635	0.09	380927	keystroke	g	n/a
190.6735	0.075	381347	keystroke	e	n/a
191.0335	0.09	382067	keystroke	Key.space	n/a
191.1985	0.105	382397	keystroke	w	n/a
191.2735	0.18	382547	keystroke	a	n/a
191.4385	0.075	382877	keystroke	s	n/a
191.784	0.09	383568	keystroke	n	n/a
191.934	0.105	383868	keystroke	'	n/a
192.054	0.075	384108	keystroke	t	n/a
192.519	0.09	385038	keystroke	Key.space	n/a
192.894	0.1345	385788	keystroke	t	n/a
193.1335	0.15	386267	keystroke	r	n/a
193.2235	0.165	386447	keystroke	a	n/a
193.3585	0.06	386717	keystroke	i	n/a
193.5235	0.0905	387047	keystroke	l	n/a
193.5835	0.1205	387167	keystroke	s	n/a
193.749	0.12	387498	keystroke	Key.enter	n/a
193.873	6.5225	387746	prompt	n/a	wall experiments mother fotos\n
194.499	0.105	388998	keystroke	w	n/a
194.724	0.12	389448	keystroke	a	n/a
194.844	0.075	389688	keystroke	l	n/a
194.994	0.105	389988	keystroke	l	n/a
195.249	0.105	390498	keystroke	Key.space	n/a
195.564	0.06	391128	keystroke	e	n/a
195.744	0.12	391488	keystroke	x	n/a
195.924	0.12	391848	keystroke	p	n/a
196.074	0.1645	392148	keystroke	e	n/a
196.1785	0.12	392357	keystroke	r	n/a
196.899	0.075	393798	keystroke	i	n/a
197.079	0.075	394158	keystroke	m	n/a
197.199	0.09	394398	keystroke	e	n/a
197.259	0.075	394518	keystroke	n	n/a
197.364	0.09	394728	keystroke	t	n/a
197.529	0.105	395058	keystroke	s	n/a
197.649	0.105	395298	keystroke	Key.space	n/a
197.769	0.135	395538	keystroke	m	n/a
197.859	0.105	395718	keystroke	o	n/a
198.009	0.105	396018	keystroke	t	n/a
198.099	0.075	396198	keystroke	h	n/a
198.174	0.12	396348	keystroke	e	n/a
198.234	0.105	396468	keystroke	r	n/a
198.4135	0.075	396827	keystroke	Key.space	n/a
198.8785	0.12	397757	keystroke	f	n/a
198.9835	0.075	397967	keystroke	o	n/a
199.509	0.105	399018	keystroke	t	n/a
199.719	0.075	399438	keystroke	o	n/a
200.004	0.105	400008	keystroke	s	n/a
200.289	0.105	400578	keystroke	Key.enter	n/a
200.3995	8.2605	400799	prompt	n/a	railroad audience figure hometown\n
201.129	0.15	402258	keystroke	r	n/a
201.233	0.136	402466	keystroke	a	n/a
201.353	0.046	402706	keystroke	i	n/a
201.578	0.0905	403156	keystroke	l	n/a
201.7885	0.1045	403577	keystroke	r	n/a
201.879	0.075	403758	keystroke	o	n/a
201.969	0.105	403938	keystroke	a	n/a
202.194	0.09	404388	keystroke	d	n/a
202.718	0.09	405436	keystroke	Key.space	n/a
202.898	0.135	405796	keystroke	a	n/a
203.048	0.105	406096	keystroke	u	n/a
203.333	0.105	406666	keystroke	d	n/a
203.453	0.105	406906	keystroke	i	n/a
203.6185	0.09	407237	keystroke	e	n/a
203.7535	0.105	407507	keystroke	n	n/a
203.874	0.09	407748	keystroke	c	n/a
204.054	0.075	408108	keystroke	e	n/a
204.534	0.075	409068	keystroke	Key.space	n/a
204.684	0.09	409368	keystroke	f	n/a
204.789	0.09	409578	keystroke	i	n/a
205.014	0.075	410028	keystroke	g	n/a
205.119	0.0895	410238	keystroke	u	n/a
205.1935	0.105	410387	keystroke	r	n/a
205.2535	0.09	410507	keystroke	e	n/a
205.8385	0.06	411677	keystroke	Key.space	n/a
206.1685	0.09	412337	keystroke	h	n/a
206.2435	0.12	412487	keystroke	o	n/a
206.3485	0.105	412697	keystroke	m	n/a
206.4685	0.075	412937	keystroke	e	n/a
206.6185	0.105	413237	keystroke	w	n/a
206.7085	0.06	413417	keystroke	o	n/a
206.7985	0.075	413597	keystroke	r	n/a
207.1885	0.075	414377	keystroke	Key.backspace	n/a
207.3835	0.045	414767	keystroke	Key.backspace	n/a
207.8335	0.06	415667	keystroke	Key.backspace	n/a
207.939	0.09	415878	keystroke	t	n/a
208.089	0.075	416178	keystroke	o	n/a
208.194	0.075	416388	keystroke	w	n/a
208.329	0.045	416658	keystroke	n	n/a
208.569	0.09	417138	keystroke	Key.enter	n/a
208.6625	7.2125	417325	prompt	n/a	uniform clarke dated producers\n
209.619	0.075	419238	keystroke	u	n/a
209.814	0.075	419628	keystroke	n	n/a
209.964	0.075	419928	keystroke	i	n/a
210.099	0.105	420198	keystroke	f	n/a
210.189	0.075	420378	keystroke	o	n/a
210.294	0.0895	420588	keystroke	r	n/a
210.3685	0.105	420737	keystroke	m	n/a
210.8485	0.09	421697	keystroke	Key.space	n/a
211.1785	0.105	422357	keystroke	c	n/a
211.2985	0.09	422597	keystroke	l	n/a
211.4035	0.105	422807	keystroke	a	n/a
211.5535	0.075	423107	keystroke	r	n/a
211.6435	0.09	423287	keystroke	k	n/a
211.8085	0.09	423617	keystroke	e	n/a
212.3635	0.09	424727	keystroke	Key.space	n/a
212.5135	0.105	425027	keystroke	f	n/a
212.6035	0.12	425207	keystroke	a	n/a
213.219	0.0745	426438	keystroke	Key.backspace	n/a
213.3685	0.105	426737	keystroke	Key.backspace	n/a
213.4585	0.12	426917	keystroke	d	n/a
213.5485	0.135	427097	keystroke	a	n/a
213.7135	0.09	427427	keystroke	t	n/a
213.8635	0.09	427727	keystroke	e	n/a
214.0435	0.09	428087	keystroke	d	n/a
214.4335	0.075	428867	keystroke	Key.space	n/a
214.6135	0.09	429227	keystroke	p	n/a
214.7335	0.09	429467	keystroke	r	n/a
214.8085	0.09	429617	keystroke	o	n/a
214.9585	0.105	429917	keystroke	d	n/a
215.0785	0.075	430157	keystroke	u	n/a
215.1835	0.09	430367	keystroke	c	n/a
215.3935	0.135	430787	keystroke	e	n/a
215.4685	0.12	430937	keystroke	r	n/a
215.6335	0.135	431267	keystroke	s	n/a
215.7985	0.075	431597	keystroke	Key.enter	n/a
215.878	7.377	431756	prompt	n/a	prison laboratory joel temperatures\n
216.6085	0.105	433217	keystroke	p	n/a
216.7435	0.12	433487	keystroke	r	n/a
216.8485	0.075	433697	keystroke	i	n/a
217.1035	0.105	434207	keystroke	s	n/a
217.2385	0.12	434477	keystroke	o	n/a
217.3135	0.105	434627	keystroke	n	n/a
217.8085	0.06	435617	keystroke	Key.space	n/a
217.9885	0.105	435977	keystroke	l	n/a
218.1235	0.105	436247	keystroke	a	n/a
218.3485	0.075	436697	keystroke	b	n/a
218.5885	0.09	437177	keystroke	o	n/a
218.7235	0.12	437447	keystroke	r	n/a
219.4135	0.105	438827	keystroke	a	n/a
219.624	0.075	439248	keystroke	t	n/a
219.714	0.06	439428	keystroke	o	n/a
219.789	0.09	439578	keystroke	r	n/a
219.894	0.06	439788	keystroke	y	n/a
220.1785	0.075	440357	keystroke	Key.space	n/a
220.3285	0.12	440657	keystroke	j	n/a
220.4035	0.075	440807	keystroke	o	n/a
220.6285	0.105	441257	keystroke	e	n/a
220.7185	0.09	441437	keystroke	l	n/a
221.214	0.09	442428	keystroke	Key.space	n/a
221.439	0.075	442878	keystroke	t	n/a
221.574	0.105	443148	keystroke	e	n/a
221.694	0.09	443388	keystroke	m	n/a
221.859	0.105	443718	keystroke	p	n/a
222.189	0.165	444378	keystroke	e	n/a
222.264	0.165	444528	keystroke	r	n/a
222.489	0.12	444978	keystroke	a	n/a
222.654	0.089	445308	keystroke	t	n/a
222.758	0.075	445516	keystroke	u	n/a
222.819	0.1345	445638	keystroke	r	n/a
222.893	0.1505	445786	keystroke	e	n/a
222.9685	0.135	445937	keystroke	s	n/a
223.1485	0.105	446297	keystroke	Key.enter	n/a
223.258	6.417	446516	prompt	n/a	wives sale bruce well\n
225.2035	0.075	450407	keystroke	w	n/a
225.608	0.0905	451216	keystroke	i	n/a
225.8035	0.0755	451607	keystroke	v	n/a
225.9985	0.09	451997	keystroke	e	n/a
226.1935	0.09	452387	keystroke	s	n/a
226.6285	0.09	453257	keystroke	Key.space	n/a
226.8385	0.1505	453677	keystroke	s	n/a
226.9135	0.1505	453827	keystroke	a	n/a
227.0485	0.105	454097	keystroke	l	n/a
227.1835	0.075	454367	keystroke	e	n/a
227.4535	0.09	454907	keystroke	Key.space	n/a
227.679	0.045	455358	keystroke	b	n/a
227.829	0.09	455658	keystroke	r	n/a
227.919	0.075	455838	keystroke	u	n/a
228.039	0.105	456078	keystroke	c	n/a
228.264	0.06	456528	keystroke	e	n/a
228.534	0.045	457068	keystroke	Key.space	n/a
229.044	0.18	458088	keystroke	w	n/a
229.179	0.0895	458358	keystroke	e	n/a
229.2535	0.06	458507	keystroke	l	n/a
229.4035	0.075	458807	keystroke	l	n/a
229.5685	0.1055	459137	keystroke	Key.enter	n/a
229.6775	7.3025	459355	prompt	n/a	surgery vitamins ghana badly\n
230.484	0.105	460968	keystroke	s	n/a
230.604	0.075	461208	keystroke	u	n/a
230.754	0.06	461508	keystroke	r	n/a
230.949	0.075	461898	keystroke	g	n/a
231.0835	0.12	462167	keystroke	e	n/a
231.1585	0.09	462317	keystroke	r	n/a
231.2185	0.075	462437	keystroke	y	n/a
231.834	0.075	463668	keystroke	Key.space	n/a
232.149	0.105	464298	keystroke	v	n/a
232.254	0.09	464508	keystroke	i	n/a
232.7485	0.075	465497	keystroke	t	n/a
232.8085	0.105	465617	keystroke	a	n/a
232.9885	0.12	465977	keystroke	m	n/a
233.1385	0.09	466277	keystroke	i	n/a
233.2135	0.09	466427	keystroke	n	n/a
233.3185	0.12	466637	keystroke	s	n/a
233.949	0.075	467898	keystroke	Key.space	n/a
234.2485	0.09	468497	keystroke	g	n/a
234.5935	0.075	469187	keystroke	h	n/a
234.7135	0.105	469427	keystroke	a	n/a
234.8485	0.105	469697	keystroke	n	n/a
235.0585	0.075	470117	keystroke	a	n/a
235.7035	0.09	471407	keystroke	Key.space	n/a
236.0185	0.09	472037	keystroke	b	n/a
236.1535	0.09	472307	keystroke	a	n/a
236.3335	0.105	472667	keystroke	d	n/a
236.4535	0.09	472907	keystroke	l	n/a
236.6485	0.0605	473297	keystroke	y	n/a
236.874	0.105	473748	keystroke	Key.enter	n/a
236.983	6.432	473966	prompt	n/a	some nuclear gonna seattle\n
237.6085	0.03	475217	keystroke	s	n/a
237.6235	0.0905	475247	keystroke	o	n/a
237.729	0.0745	475458	keystroke	m	n/a
237.8045	0.089	475609	keystroke	e	n/a
238.0285	0.06	476057	keystroke	Key.space	n/a
238.1935	0.09	476387	keystroke	n	n/a
238.8385	0.09	477677	keystroke	u	n/a
239.2435	0.1195	478487	keystroke	c	n/a
239.334	0.075	478668	keystroke	l	n/a
239.513	0.24	479026	keystroke	e	n/a
239.618	0.165	479236	keystroke	a	n/a
239.738	0.105	479476	keystroke	r	n/a
240.233	0.06	480466	keystroke	Key.space	n/a
240.6985	0.09	481397	keystroke	g	n/a
240.7735	0.09	481547	keystroke	o	n/a
241.0135	0.06	482027	keystroke	n	n/a
241.1335	0.1055	482267	keystroke	n	n/a
241.2535	0.09	482507	keystroke	a	n/a
241.793	0.045	483586	keystroke	Key.space	n/a
241.989	0.0745	483978	keystroke	s	n/a
242.1235	0.15	484247	keystroke	e	n/a
242.2135	0.135	484427	keystroke	a	n/a
242.5135	0.075	485027	keystroke	t	n/a
242.8885	0.075	485777	keystroke	t	n/a
242.9785	0.12	485957	keystroke	l	n/a
243.1135	0.09	486227	keystroke	e	n/a
243.353	0.06	486706	keystroke	Key.enter	n/a
243.431	7.8295	486862	prompt	n/a	archived identical skins arguments\n
244.224	0.105	488448	keystroke	a	n/a
244.449	0.09	488898	keystroke	r	n/a
244.7935	0.0895	489587	keystroke	c	n/a
245.243	0.061	490486	keystroke	h	n/a
245.349	0.12	490698	keystroke	i	n/a
245.484	0.09	490968	keystroke	v	n/a
245.6935	0.075	491387	keystroke	e	n/a
245.8585	0.075	491717	keystroke	d	n/a
246.294	0.06	492588	keystroke	Key.space	n/a
246.714	0.09	493428	keystroke	i	n/a
246.849	0.06	493698	keystroke	d	n/a
247.029	0.075	494058	keystroke	e	n/a
247.089	0.075	494178	keystroke	n	n/a
247.284	0.09	494568	keystroke	t	n/a
247.389	0.075	494778	keystroke	i	n/a
247.509	0.105	495018	keystroke	c	n/a
248.0335	0.045	496067	keystroke	a	n/a
248.0935	0.105	496187	keystroke	l	n/a
248.2885	0.075	496577	keystroke	Key.space	n/a
248.5885	0.105	497177	keystroke	s	n/a
248.6785	0.06	497357	keystroke	k	n/a
248.8435	0.06	497687	keystroke	i	n/a
248.9935	0.075	497987	keystroke	n	n/a
249.0835	0.0905	498167	keystroke	s	n/a
249.639	0.075	499278	keystroke	Key.space	n/a
249.984	0.09	499968	keystroke	a	n/a
250.089	0.075	500178	keystroke	r	n/a
250.284	0.075	500568	keystroke	g	n/a
250.359	0.06	500718	keystroke	u	n/a
250.539	0.09	501078	keystroke	m	n/a
250.614	0.105	501228	keystroke	e	n/a
250.704	0.09	501408	keystroke	n	n/a
250.809	0.075	501618	keystroke	t	n/a
251.004	0.09	502008	keystroke	s	n/a
251.169	0.09	502338	keystroke	Key.enter	n/a
251.263	7.887	502526	prompt	n/a	check survivor modular crowd\n
251.904	0.105	503808	keystroke	c	n/a
252.024	0.075	504048	keystroke	h	n/a
252.114	0.06	504228	keystroke	e	n/a
252.294	0.075	504588	keystroke	c	n/a
252.384	0.12	504768	keystroke	k	n/a
252.849	0.075	505698	keystroke	Key.space	n/a
252.999	0.075	505998	keystroke	s	n/a
253.104	0.075	506208	keystroke	u	n/a
253.194	0.075	506388	keystroke	r	n/a
253.7185	0.105	507437	keystroke	v	n/a
253.8085	0.075	507617	keystroke	i	n/a
254.0035	0.105	508007	keystroke	v	n/a
254.0935	0.075	508187	keystroke	o	n/a
254.2135	0.075	508427	keystroke	r	n/a
254.783	0.09	509566	keystroke	Key.space	n/a
255.068	0.12	510136	keystroke	m	n/a
255.174	0.09	510348	keystroke	o	n/a
255.6685	0.075	511337	keystroke	d	n/a
255.8185	0.06	511637	keystroke	u	n/a
256.0735	0.075	512147	keystroke	l	n/a
256.1635	0.105	512327	keystroke	a	n/a
256.3885	0.09	512777	keystroke	r	n/a
256.6285	0.075	513257	keystroke	Key.space	n/a
256.8835	0.1345	513767	keystroke	c	n/a
257.123	0.075	514246	keystroke	r	n/a
257.228	0.091	514456	keystroke	o	n/a
257.5135	0.06	515027	keystroke	u	n/a
258.1735	0.12	516347	keystroke	Key.backspace	n/a
258.3085	0.015	516617	keystroke	w	n/a
258.789	0.135	517578	keystroke	d	n/a
259.0585	0.0905	518117	keystroke	Key.enter	n/a
259.153	7.677	518306	prompt	n/a	expired premium exec mini\n
259.9435	0.0755	519887	keystroke	e	n/a
260.124	0.12	520248	keystroke	x	n/a
260.304	0.105	520608	keystroke	p	n/a
260.484	0.09	520968	keystroke	i	n/a
260.574	0.12	521148	keystroke	r	n/a
260.634	0.105	521268	keystroke	e	n/a
260.8285	0.09	521657	keystroke	d	n/a
261.3385	0.09	522677	keystroke	Key.space	n/a
261.6235	0.09	523247	keystroke	p	n/a
261.7285	0.12	523457	keystroke	r	n/a
261.8035	0.09	523607	keystroke	e	n/a
262.2985	0.105	524597	keystroke	m	n/a
262.5385	0.075	525077	keystroke	u	n/a
263.094	0.075	526188	keystroke	Key.backspace	n/a
263.379	0.09	526758	keystroke	i	n/a
263.649	0.06	527298	keystroke	u	n/a
263.859	0.09	527718	keystroke	m	n/a
264.159	0.09	528318	keystroke	Key.space	n/a
264.534	0.075	529068	keystroke	e	n/a
264.909	0.135	529818	keystroke	x	n/a
265.179	0.09	530358	keystroke	e	n/a
265.389	0.105	530778	keystroke	c	n/a
265.6585	0.075	531317	keystroke	Key.space	n/a
266.0635	0.12	532127	keystroke	m	n/a
266.2135	0.09	532427	keystroke	i	n/a
266.3785	0.09	532757	keystroke	n	n/a
266.4835	0.09	532967	keystroke	i	n/a
266.7085	0.12	533417	keystroke	Key.enter	n/a
266.833	6.327	533666	prompt	n/a	implies jewish completion highly\n
267.4885	0.09	534977	keystroke	i	n/a
267.609	0.12	535218	keystroke	m	n/a
267.804	0.075	535608	keystroke	p	n/a
267.984	0.135	535968	keystroke	l	n/a
268.074	0.09	536148	keystroke	i	n/a
268.194	0.165	536388	keystroke	e	n/a
268.254	0.165	536508	keystroke	s	n/a
268.644	0.075	537288	keystroke	Key.space	n/a
268.779	0.105	537558	keystroke	j	n/a
268.914	0.1645	537828	keystroke	e	n/a
269.004	0.1195	538008	keystroke	w	n/a
269.243	0.09	538486	keystroke	i	n/a
269.348	0.151	538696	keystroke	s	n/a
269.454	0.075	538908	keystroke	h	n/a
270.1435	0.075	540287	keystroke	Key.space	n/a
270.4735	0.1355	540947	keystroke	c	n/a
270.5785	0.1205	541157	keystroke	o	n/a
270.639	0.105	541278	keystroke	m	n/a
270.804	0.06	541608	keystroke	p	n/a
270.969	0.105	541938	keystroke	l	n/a
271.059	0.105	542118	keystroke	e	n/a
271.269	0.075	542538	keystroke	t	n/a
271.374	0.15	542748	keystroke	i	n/a
271.389	0.15	542778	keystroke	o	n/a
271.479	0.12	542958	keystroke	n	n/a
271.7335	0.075	543467	keystroke	Key.space	n/a
271.9285	0.0755	543857	keystroke	h	n/a
272.019	0.075	544038	keystroke	i	n/a
272.229	0.075	544458	keystroke	g	n/a
272.259	0.075	544518	keystroke	h	n/a
272.409	0.12	544818	keystroke	l	n/a
272.514	0.075	545028	keystroke	y	n/a
273.0385	0.12	546077	keystroke	Key.enter	n/a
273.1645	6.8655	546329	prompt	n/a	consciousness flickr butter comes\n
273.789	0.135	547578	keystroke	c	n/a
273.909	0.135	547818	keystroke	o	n/a
274.179	0.075	548358	keystroke	n	n/a
274.584	0.075	549168	keystroke	s	n/a
274.794	0.12	549588	keystroke	c	n/a
275.244	0.15	550488	keystroke	i	n/a
275.349	0.1045	550698	keystroke	o	n/a
275.409	0.0895	550818	keystroke	u	n/a
275.5285	0.09	551057	keystroke	s	n/a
275.8585	0.075	551717	keystroke	n	n/a
275.9035	0.1655	551807	keystroke	e	n/a
275.9785	0.1055	551957	keystroke	s	n/a
276.174	0.09	552348	keystroke	s	n/a
276.489	0.06	552978	keystroke	Key.space	n/a
276.669	0.09	553338	keystroke	f	n/a
276.774	0.075	553548	keystroke	l	n/a
276.819	0.075	553638	keystroke	i	n/a
277.029	0.12	554058	keystroke	c	n/a
277.314	0.105	554628	keystroke	k	n/a
277.584	0.09	555168	keystroke	r	n/a
278.034	0.105	556068	keystroke	Key.space	n/a
278.304	0.075	556608	keystroke	b	n/a
278.424	0.06	556848	keystroke	u	n/a
278.499	0.06	556998	keystroke	t	n/a
278.634	0.075	557268	keystroke	t	n/a
278.769	0.12	557538	keystroke	e	n/a
278.829	0.075	557658	keystroke	r	n/a
279.159	0.075	558318	keystroke	Key.space	n/a
279.354	0.135	558708	keystroke	c	n/a
279.474	0.105	558948	keystroke	o	n/a
279.564	0.1055	559128	keystroke	m	n/a
279.6535	0.15	559307	keystroke	e	n/a
279.7435	0.12	559487	keystroke	s	n/a
279.9235	0.105	559847	keystroke	Key.enter	n/a
280.034	4.3165	560068	prompt	n/a	night island think joined\n
280.6435	0.075	561287	keystroke	n	n/a
280.7485	0.105	561497	keystroke	i	n/a
280.8685	0.06	561737	keystroke	g	n/a
280.9295	0.074	561859	keystroke	h	n/a
281.0185	0.061	562037	keystroke	t	n/a
281.124	0.06	562248	keystroke	Key.space	n/a
281.289	0.075	562578	keystroke	i	n/a
281.334	0.12	562668	keystroke	s	n/a
281.469	0.075	562938	keystroke	l	n/a
281.544	0.12	563088	keystroke	a	n/a
281.634	0.09	563268	keystroke	n	n/a
281.739	0.09	563478	keystroke	d	n/a
282.234	0.09	564468	keystroke	Key.space	n/a
282.4585	0.09	564917	keystroke	t	n/a
282.5185	0.12	565037	keystroke	h	n/a
282.6235	0.075	565247	keystroke	i	n/a
282.7285	0.105	565457	keystroke	n	n/a
282.8345	0.104	565669	keystroke	k	n/a
283.284	0.075	566568	keystroke	Key.space	n/a
283.554	0.12	567108	keystroke	j	n/a
283.644	0.135	567288	keystroke	o	n/a
283.749	0.09	567498	keystroke	i	n/a
283.809	0.105	567618	keystroke	n	n/a
283.929	0.09	567858	keystroke	e	n/a
284.094	0.105	568188	keystroke	d	n/a
284.259	0.09	568518	keystroke	Key.enter	n/a
284.353	5.6675	568706	prompt	n/a	holly bring fellow lying\n
285.099	0.105	570198	keystroke	h	n/a
285.189	0.06	570378	keystroke	o	n/a
285.369	0.06	570738	keystroke	l	n/a
285.5185	0.09	571037	keystroke	l	n/a
285.624	0.075	571248	keystroke	y	n/a
285.804	0.06	571608	keystroke	Key.space	n/a
285.999	0.075	571998	keystroke	g	n/a
286.389	0.045	572778	keystroke	Key.backspace	n/a
286.449	0.075	572898	keystroke	b	n/a
286.629	0.09	573258	keystroke	r	n/a
286.689	0.135	573378	keystroke	i	n/a
286.749	0.12	573498	keystroke	n	n/a
286.854	0.09	573708	keystroke	g	n/a
287.4685	0.06	574937	keystroke	Key.space	n/a
287.649	0.045	575298	keystroke	f	n/a
287.769	0.09	575538	keystroke	e	n/a
288.099	0.06	576198	keystroke	l	n/a
288.234	0.075	576468	keystroke	l	n/a
288.4135	0.09	576827	keystroke	o	n/a
288.4885	0.075	576977	keystroke	w	n/a
288.6385	0.09	577277	keystroke	Key.space	n/a
288.7885	0.075	577577	keystroke	l	n/a
288.9685	0.075	577937	keystroke	y	n/a
289.2985	0.105	578597	keystroke	i	n/a
289.4485	0.15	578897	keystroke	n	n/a
289.6885	0.105	579377	keystroke	g	n/a
289.9285	0.09	579857	keystroke	Key.enter	n/a
290.028	9.787	580056	prompt	n/a	because tongue discovered pioneer\n
290.904	0.09	581808	keystroke	b	n/a
291.099	0.0895	582198	keystroke	e	n/a
291.2935	0.135	582587	keystroke	c	n/a
291.4435	0.135	582887	keystroke	a	n/a
291.5935	0.075	583187	keystroke	u	n/a
291.684	0.135	583368	keystroke	s	n/a
291.714	0.165	583428	keystroke	e	n/a
292.404	0.0895	584808	keystroke	Key.space	n/a
292.6885	0.105	585377	keystroke	t	n/a
292.8235	0.12	585647	keystroke	o	n/a
292.9135	0.09	585827	keystroke	n	n/a
293.6335	0.09	587267	keystroke	g	n/a
293.7535	0.0605	587507	keystroke	u	n/a
293.874	0.09	587748	keystroke	e	n/a
294.3085	0.075	588617	keystroke	Key.space	n/a
294.759	0.105	589518	keystroke	d	n/a
294.834	0.105	589668	keystroke	i	n/a
294.954	0.075	589908	keystroke	s	n/a
295.134	0.105	590268	keystroke	c	n/a
295.254	0.075	590508	keystroke	o	n/a
295.914	0.105	591828	keystroke	v	n/a
296.109	0.12	592218	keystroke	e	n/a
296.184	0.105	592368	keystroke	r	n/a
296.364	0.075	592728	keystroke	e	n/a
296.5285	0.09	593057	keystroke	d	n/a
296.8885	0.06	593777	keystroke	Key.space	n/a
297.2185	0.1345	594437	keystroke	p	n/a
297.4135	0.0905	594827	keystroke	i	n/a
297.563	0.091	595126	keystroke	o	n/a
298.029	0.074	596058	keystroke	n	n/a
298.2385	0.0595	596477	keystroke	e	n/a
298.374	0.074	596748	keystroke	e	n/a
298.583	0.09	597166	keystroke	r	n/a
298.808	0.075	597616	keystroke	Key.space	n/a
299.498	0.045	598996	keystroke	Key.backspace	n/a
299.7085	0.105	599417	keystroke	Key.enter	n/a
299.818	4.9025	599636	prompt	n/a	steve improve foster it\n
300.5935	0.09	601187	keystroke	s	n/a
300.7435	0.09	601487	keystroke	t	n/a
300.8935	0.06	601787	keystroke	e	n/a
301.0585	0.075	602117	keystroke	v	n/a
301.2385	0.09	602477	keystroke	e	n/a
301.824	0.045	603648	keystroke	Key.space	n/a
301.974	0.09	603948	keystroke	i	n/a
302.079	0.09	604158	keystroke	m	n/a
302.229	0.09	604458	keystroke	p	n/a
302.379	0.09	604758	keystroke	r	n/a
302.469	0.075	604938	keystroke	o	n/a
302.589	0.075	605178	keystroke	v	n/a
302.739	0.075	605478	keystroke	e	n/a
303.369	0.075	606738	keystroke	Key.space	n/a
303.534	0.075	607068	keystroke	f	n/a
303.594	0.105	607188	keystroke	o	n/a
303.714	0.105	607428	keystroke	s	n/a
303.834	0.075	607668	keystroke	t	n/a
303.954	0.12	607908	keystroke	e	n/a
304.029	0.075	608058	keystroke	r	n/a
304.284	0.06	608568	keystroke	Key.space	n/a
304.404	0.09	608808	keystroke	i	n/a
304.479	0.09	608958	keystroke	t	n/a
304.614	0.105	609228	keystroke	Key.enter	n/a
304.723	7.4975	609446	prompt	n/a	firefox todd search absolutely\n
305.409	0.09	610818	keystroke	f	n/a
305.514	0.075	611028	keystroke	i	n/a
305.619	0.15	611238	keystroke	r	n/a
305.814	0.09	611628	keystroke	e	n/a
306.1285	0.09	612257	keystroke	f	n/a
306.2035	0.09	612407	keystroke	o	n/a
306.3385	0.12	612677	keystroke	x	n/a
306.9385	0.1055	613877	keystroke	Key.space	n/a
307.209	0.06	614418	keystroke	t	n/a
307.299	0.09	614598	keystroke	o	n/a
307.8385	0.0305	615677	keystroke	d	n/a
307.959	0.09	615918	keystroke	d	n/a
308.379	0.045	616758	keystroke	Key.space	n/a
308.6185	0.045	617237	keystroke	s	n/a
308.7535	0.18	617507	keystroke	e	n/a
308.8435	0.12	617687	keystroke	a	n/a
308.9185	0.075	617837	keystroke	r	n/a
309.0985	0.12	618197	keystroke	c	n/a
309.2035	0.105	618407	keystroke	h	n/a
309.5035	0.075	619007	keystroke	Key.space	n/a
309.8935	0.09	619787	keystroke	a	n/a
310.1185	0.0755	620237	keystroke	b	n/a
310.314	0.075	620628	keystroke	s	n/a
310.419	0.075	620838	keystroke	o	n/a
311.319	0.135	622638	keystroke	l	n/a
311.469	0.09	622938	keystroke	u	n/a
311.589	0.0745	623178	keystroke	t	n/a
311.6935	0.09	623387	keystroke	e	n/a
311.7535	0.12	623507	keystroke	l	n/a
311.8435	0.075	623687	keystroke	y	n/a
312.1435	0.075	624287	keystroke	Key.enter	n/a
312.2245	4.916	624449	prompt	n/a	residents sense grows behalf\n
312.8635	0.165	625727	keystroke	r	n/a
312.9835	0.075	625967	keystroke	e	n/a
313.1635	0.105	626327	keystroke	s	n/a
313.2245	0.104	626449	keystroke	i	n/a
313.3435	0.06	626687	keystroke	d	n/a
313.4935	0.06	626987	keystroke	e	n/a
313.5685	0.09	627137	keystroke	n	n/a
313.7185	0.075	627437	keystroke	t	n/a
313.8385	0.105	627677	keystroke	s	n/a
314.0635	0.0605	628127	keystroke	Key.space	n/a
314.1835	0.075	628367	keystroke	s	n/a
314.3035	0.09	628607	keystroke	e	n/a
314.4085	0.06	628817	keystroke	n	n/a
314.4985	0.12	628997	keystroke	s	n/a
314.5735	0.09	629147	keystroke	e	n/a
314.8885	0.045	629777	keystroke	Key.space	n/a
315.2635	0.06	630527	keystroke	g	n/a
315.4285	0.06	630857	keystroke	r	n/a
315.5035	0.075	631007	keystroke	o	n/a
315.6085	0.0605	631217	keystroke	w	n/a
315.789	0.075	631578	keystroke	s	n/a
315.984	0.03	631968	keystroke	Key.space	n/a
316.224	0.09	632448	keystroke	b	n/a
316.404	0.075	632808	keystroke	e	n/a
316.5235	0.075	633047	keystroke	h	n/a
316.6135	0.105	633227	keystroke	a	n/a
316.7635	0.045	633527	keystroke	l	n/a
316.8535	0.09	633707	keystroke	f	n/a
317.019	0.12	634038	keystroke	Key.enter	n/a
317.1445	7.886	634289	prompt	n/a	objects joan organize collectible\n
317.799	0.1195	635598	keystroke	o	n/a
317.9635	0.105	635927	keystroke	b	n/a
318.1735	0.105	636347	keystroke	j	n/a
318.3235	0.0455	636647	keystroke	e	n/a
318.504	0.1045	637008	keystroke	c	n/a
318.7285	0.06	637457	keystroke	t	n/a
318.8935	0.09	637787	keystroke	s	n/a
319.0435	0.075	638087	keystroke	Key.space	n/a
319.1485	0.0905	638297	keystroke	j	n/a
319.2235	0.1055	638447	keystroke	o	n/a
319.314	0.1045	638628	keystroke	a	n/a
319.4485	0.1045	638897	keystroke	n	n/a
320.0185	0.06	640037	keystroke	Key.space	n/a
320.1985	0.09	640397	keystroke	g	n/a
320.3035	0.0745	640607	keystroke	o	n/a
320.843	0.0605	641686	keystroke	Key.backspace	n/a
321.008	0.0455	642016	keystroke	Key.backspace	n/a
321.189	0.075	642378	keystroke	o	n/a
321.249	0.09	642498	keystroke	r	n/a
321.444	0.105	642888	keystroke	g	n/a
321.519	0.105	643038	keystroke	a	n/a
321.609	0.09	643218	keystroke	n	n/a
321.744	0.105	643488	keystroke	i	n/a
321.9085	0.1205	643817	keystroke	z	n/a
322.164	0.075	644328	keystroke	e	n/a
322.614	0.09	645228	keystroke	Key.space	n/a
322.884	0.0145	645768	keystroke	e	n/a
323.2585	0.09	646517	keystroke	Key.backspace	n/a
323.3935	0.1355	646787	keystroke	c	n/a
323.514	0.06	647028	keystroke	o	n/a
323.6935	0.075	647387	keystroke	l	n/a
323.844	0.075	647688	keystroke	l	n/a
323.949	0.06	647898	keystroke	e	n/a
324.114	0.12	648228	keystroke	c	n/a
324.369	0.075	648738	keystroke	t	n/a
324.429	0.105	648858	keystroke	i	n/a
324.564	0.075	649128	keystroke	b	n/a
324.669	0.09	649338	keystroke	l	n/a
324.774	0.075	649548	keystroke	e	n/a
324.909	0.12	649818	keystroke	Key.enter	n/a
325.033	6.882	650066	prompt	n/a	acrobat predictions shore reporting\n
325.7335	0.09	651467	keystroke	a	n/a
325.9735	0.12	651947	keystroke	c	n/a
326.1835	0.075	652367	keystroke	r	n/a
326.2595	0.074	652519	keystroke	o	n/a
326.4535	0.06	652907	keystroke	b	n/a
326.5735	0.105	653147	keystroke	a	n/a
326.7235	0.09	653447	keystroke	t	n/a
327.1285	0.09	654257	keystroke	Key.space	n/a
327.2935	0.09	654587	keystroke	p	n/a
327.4135	0.135	654827	keystroke	r	n/a
327.5035	0.075	655007	keystroke	e	n/a
327.6835	0.09	655367	keystroke	d	n/a
327.7585	0.06	655517	keystroke	i	n/a
327.8635	0.105	655727	keystroke	c	n/a
328.0585	0.075	656117	keystroke	t	n/a
328.1635	0.15	656327	keystroke	i	n/a
328.2535	0.12	656507	keystroke	o	n/a
328.3285	0.105	656657	keystroke	n	n/a
328.4185	0.12	656837	keystroke	s	n/a
329.0335	0.06	658067	keystroke	Key.space	n/a
329.1835	0.0605	658367	keystroke	a	n/a
329.604	0.0745	659208	keystroke	Key.backspace	n/a
329.7085	0.09	659417	keystroke	s	n/a
329.8135	0.09	659627	keystroke	h	n/a
329.8735	0.105	659747	keystroke	o	n/a
329.9485	0.105	659897	keystroke	r	n/a
330.0085	0.09	660017	keystroke	e	n/a
330.6235	0.105	661247	keystroke	Key.space	n/a
330.8485	0.135	661697	keystroke	r	n/a
330.9235	0.09	661847	keystroke	e	n/a
331.0435	0.075	662087	keystroke	p	n/a
331.1785	0.105	662357	keystroke	o	n/a
331.2535	0.075	662507	keystroke	r	n/a
331.4185	0.105	662837	keystroke	t	n/a
331.5085	0.1355	663017	keystroke	i	n/a
331.5835	0.1055	663167	keystroke	n	n/a
331.659	0.09	663318	keystroke	g	n/a
331.854	0.06	663708	keystroke	Key.enter	n/a
331.9185	5.352	663837	prompt	n/a	peterson hire who're repeat\n
332.5585	0.09	665117	keystroke	p	n/a
332.7085	0.09	665417	keystroke	e	n/a
332.904	0.09	665808	keystroke	t	n/a
333.024	0.12	666048	keystroke	e	n/a
333.099	0.12	666198	keystroke	r	n/a
333.3535	0.105	666707	keystroke	s	n/a
333.4435	0.12	666887	keystroke	o	n/a
333.5185	0.1055	667037	keystroke	n	n/a
334.089	0.075	668178	keystroke	Key.space	n/a
334.269	0.0745	668538	keystroke	h	n/a
334.3885	0.09	668777	keystroke	i	n/a
334.4635	0.135	668927	keystroke	r	n/a
334.5385	0.105	669077	keystroke	e	n/a
335.0035	0.075	670007	keystroke	Key.space	n/a
335.1385	0.06	670277	keystroke	w	n/a
335.2135	0.09	670427	keystroke	h	n/a
335.2735	0.105	670547	keystroke	o	n/a
335.4985	0.075	670997	keystroke	'	n/a
335.6335	0.12	671267	keystroke	r	n/a
335.7085	0.09	671417	keystroke	e	n/a
336.264	0.09	672528	keystroke	Key.space	n/a
336.414	0.135	672828	keystroke	r	n/a
336.489	0.12	672978	keystroke	e	n/a
336.609	0.09	673218	keystroke	p	n/a
336.729	0.21	673458	keystroke	e	n/a
336.879	0.135	673758	keystroke	a	n/a
336.984	0.12	673968	keystroke	t	n/a
337.164	0.105	674328	keystroke	Key.enter	n/a
337.273	6.6725	674546	prompt	n/a	tuition tramadol season sims\n
337.974	0.09	675948	keystroke	t	n/a
338.079	0.105	676158	keystroke	u	n/a
338.304	0.075	676608	keystroke	i	n/a
338.454	0.12	676908	keystroke	t	n/a
338.589	0.1945	677178	keystroke	i	n/a
338.694	0.12	677388	keystroke	o	n/a
338.754	0.1195	677508	keystroke	n	n/a
339.4735	0.09	678947	keystroke	Key.space	n/a
339.7135	0.09	679427	keystroke	t	n/a
339.8785	0.165	679757	keystroke	r	n/a
339.9985	0.12	679997	keystroke	a	n/a
340.314	0.12	680628	keystroke	m	n/a
340.464	0.105	680928	keystroke	a	n/a
340.704	0.09	681408	keystroke	d	n/a
341.094	0.075	682188	keystroke	o	n/a
341.259	0.12	682518	keystroke	l	n/a
341.574	0.075	683148	keystroke	Key.space	n/a
341.664	0.06	683328	keystroke	s	n/a
341.784	0.135	683568	keystroke	e	n/a
341.859	0.15	683718	keystroke	a	n/a
341.979	0.135	683958	keystroke	s	n/a
342.054	0.15	684108	keystroke	o	n/a
342.129	0.12	684258	keystroke	n	n/a
342.564	0.09	685128	keystroke	Key.space	n/a
342.789	0.045	685578	keystroke	m	n/a
343.1335	0.061	686267	keystroke	Key.backspace	n/a
343.2095	0.1195	686419	keystroke	s	n/a
343.329	0.135	686658	keystroke	i	n/a
343.389	0.105	686778	keystroke	m	n/a
343.479	0.105	686958	keystroke	s	n/a
343.824	0.12	687648	keystroke	Key.enter	n/a
343.948	6.4925	687896	prompt	n/a	johnston hear router probability\n
344.739	0.105	689478	keystroke	j	n/a
344.889	0.105	689778	keystroke	o	n/a
345.069	0.06	690138	keystroke	h	n/a
345.6235	0.105	691247	keystroke	n	n/a
345.8785	0.09	691757	keystroke	s	n/a
345.9845	0.15	691969	keystroke	o	n/a
346.0745	0.089	692149	keystroke	n	n/a
346.3285	0.075	692657	keystroke	Key.space	n/a
346.5235	0.076	693047	keystroke	h	n/a
346.5835	0.195	693167	keystroke	e	n/a
346.6735	0.121	693347	keystroke	a	n/a
346.7635	0.121	693527	keystroke	r	n/a
347.019	0.075	694038	keystroke	Key.space	n/a
347.244	0.075	694488	keystroke	r	n/a
347.304	0.12	694608	keystroke	o	n/a
347.394	0.06	694788	keystroke	u	n/a
347.484	0.06	694968	keystroke	t	n/a
347.589	0.1355	695178	keystroke	e	n/a
347.6785	0.09	695357	keystroke	r	n/a
348.2935	0.075	696587	keystroke	Key.space	n/a
348.5035	0.105	697007	keystroke	p	n/a
348.6385	0.105	697277	keystroke	r	n/a
348.7585	0.075	697517	keystroke	o	n/a
349.1335	0.09	698267	keystroke	b	n/a
349.3285	0.06	698657	keystroke	a	n/a
349.4635	0.1055	698927	keystroke	b	n/a
349.599	0.09	699198	keystroke	i	n/a
349.839	0.09	699678	keystroke	l	n/a
349.899	0.105	699798	keystroke	i	n/a
350.034	0.09	700068	keystroke	t	n/a
350.109	0.075	700218	keystroke	y	n/a
350.349	0.09	700698	keystroke	Key.enter	n/a
350.445	5.4705	700890	prompt	n/a	kings byte stuck excuse\n
351.039	0.0745	702078	keystroke	k	n/a
351.1885	0.135	702377	keystroke	i	n/a
351.2635	0.105	702527	keystroke	n	n/a
351.639	0.075	703278	keystroke	g	n/a
351.714	0.135	703428	keystroke	s	n/a
352.3735	0.121	704747	keystroke	Key.space	n/a
352.7345	0.06	705469	keystroke	b	n/a
352.8095	0.06	705619	keystroke	y	n/a
352.959	0.0755	705918	keystroke	t	n/a
353.1395	0.09	706279	keystroke	e	n/a
353.4995	0.06	706999	keystroke	Key.space	n/a
353.7095	0.0745	707419	keystroke	s	n/a
353.859	0.09	707718	keystroke	t	n/a
353.964	0.06	707928	keystroke	u	n/a
354.069	0.135	708138	keystroke	c	n/a
354.189	0.09	708378	keystroke	k	n/a
354.714	0.09	709428	keystroke	Key.space	n/a
354.954	0.09	709908	keystroke	e	n/a
355.149	0.075	710298	keystroke	x	n/a
355.314	0.105	710628	keystroke	c	n/a
355.434	0.06	710868	keystroke	u	n/a
355.539	0.15	711078	keystroke	s	n/a
355.614	0.12	711228	keystroke	e	n/a
355.809	0.105	711618	keystroke	Key.enter	n/a
355.918	8.2025	711836	prompt	n/a	luggage transfer tragedy phantom\n
356.7385	0.09	713477	keystroke	l	n/a
356.8735	0.09	713747	keystroke	u	n/a
357.1135	0.045	714227	keystroke	g	n/a
357.2485	0.09	714497	keystroke	g	n/a
357.6535	0.09	715307	keystroke	a	n/a
357.7885	0.075	715577	keystroke	g	n/a
357.9385	0.075	715877	keystroke	e	n/a
358.4935	0.075	716987	keystroke	Key.space	n/a
358.6735	0.075	717347	keystroke	t	n/a
358.8235	0.15	717647	keystroke	r	n/a
358.9285	0.135	717857	keystroke	a	n/a
359.0485	0.075	718097	keystroke	n	n/a
359.1385	0.075	718277	keystroke	s	n/a
359.5285	0.0905	719057	keystroke	f	n/a
359.664	0.135	719328	keystroke	e	n/a
359.739	0.105	719478	keystroke	r	n/a
360.234	0.09	720468	keystroke	Key.space	n/a
360.4435	0.09	720887	keystroke	t	n/a
360.6085	0.195	721217	keystroke	r	n/a
361.0135	0.12	722027	keystroke	a	n/a
361.2535	0.12	722507	keystroke	g	n/a
361.734	0.075	723468	keystroke	e	n/a
361.929	0.1045	723858	keystroke	d	n/a
362.0635	0.075	724127	keystroke	y	n/a
362.6485	0.075	725297	keystroke	Key.space	n/a
362.8135	0.075	725627	keystroke	p	n/a
362.9935	0.06	725987	keystroke	h	n/a
363.3985	0.09	726797	keystroke	a	n/a
363.4585	0.075	726917	keystroke	n	n/a
363.6685	0.09	727337	keystroke	t	n/a
363.7285	0.12	727457	keystroke	o	n/a
363.8185	0.105	727637	keystroke	m	n/a
363.9985	0.12	727997	keystroke	Key.enter	n/a
364.124	12.7915	728248	prompt	n/a	toolkit startup configuration nick\n
364.794	0.105	729588	keystroke	t	n/a
364.884	0.06	729768	keystroke	o	n/a
365.019	0.075	730038	keystroke	o	n/a
365.199	0.09	730398	keystroke	l	n/a
365.349	0.075	730698	keystroke	k	n/a
365.544	0.0745	731088	keystroke	i	n/a
365.7085	0.075	731417	keystroke	t	n/a
366.2785	0.105	732557	keystroke	Key.space	n/a
366.4885	0.06	732977	keystroke	s	n/a
366.6535	0.09	733307	keystroke	t	n/a
366.8485	0.12	733697	keystroke	a	n/a
367.0735	0.075	734147	keystroke	r	n/a
367.2835	0.075	734567	keystroke	t	n/a
367.5685	0.15	735137	keystroke	u	n/a
367.7035	0.09	735407	keystroke	p	n/a
368.0935	0.09	736187	keystroke	Key.space	n/a
368.4085	0.1355	736817	keystroke	c	n/a
368.4985	0.1355	736997	keystroke	o	n/a
368.589	0.09	737178	keystroke	n	n/a
368.724	0.105	737448	keystroke	f	n/a
368.799	0.075	737598	keystroke	i	n/a
368.949	0.09	737898	keystroke	g	n/a
369.054	0.075	738108	keystroke	u	n/a
369.174	0.165	738348	keystroke	r	n/a
369.414	0.105	738828	keystroke	a	n/a
369.534	0.1055	739068	keystroke	t	n/a
369.6995	0.15	739399	keystroke	o	n/a
369.7145	0.15	739429	keystroke	i	n/a
369.8195	0.1045	739639	keystroke	n	n/a
370.044	0.075	740088	keystroke	Key.space	n/a
370.194	0.075	740388	keystroke	n	n/a
370.284	0.09	740568	keystroke	i	n/a
370.389	0.105	740778	keystroke	c	n/a
370.509	0.105	741018	keystroke	k	n/a
371.6485	0.105	743297	keystroke	Key.backspace	n/a
371.8585	0.06	743717	keystroke	Key.backspace	n/a
372.0535	0.045	744107	keystroke	Key.backspace	n/a
372.2785	0.015	744557	keystroke	Key.backspace	n/a
372.4435	0.075	744887	keystroke	Key.backspace	n/a
372.849	0.06	745698	keystroke	Key.backspace	n/a
373.1035	0.09	746207	keystroke	Key.backspace	n/a
374.4235	0.09	748847	keystroke	Key.backspace	n/a
374.6935	0.105	749387	keystroke	i	n/a
374.9785	0.12	749957	keystroke	o	n/a
375.0685	0.09	750137	keystroke	n	n/a
375.6385	0.105	751277	keystroke	Key.space	n/a
376.1185	0.06	752237	keystroke	n	n/a
376.2235	0.075	752447	keystroke	i	n/a
376.3735	0.135	752747	keystroke	c	n/a
376.4935	0.09	752987	keystroke	k	n/a
376.8085	0.105	753617	keystroke	Key.enter	n/a
376.918	6.8075	753836	prompt	n/a	eminem whats frequent taxes\n
377.6785	0.105	755357	keystroke	e	n/a
377.8585	0.09	755717	keystroke	m	n/a
378.1435	0.09	756287	keystroke	i	n/a
378.3685	0.075	756737	keystroke	n	n/a
378.7285	0.06	757457	keystroke	e	n/a
378.8185	0.105	757637	keystroke	m	n/a
379.1035	0.045	758207	keystroke	Key.space	n/a
379.1935	0.09	758387	keystroke	w	n/a
379.3135	0.06	758627	keystroke	h	n/a
379.5085	0.105	759017	keystroke	a	n/a
379.6285	0.105	759257	keystroke	t	n/a
379.8235	0.1055	759647	keystroke	s	n/a
380.319	0.075	760638	keystroke	Key.space	n/a
380.454	0.09	760908	keystroke	f	n/a
380.604	0.12	761208	keystroke	r	n/a
380.664	0.12	761328	keystroke	e	n/a
380.844	0.105	761688	keystroke	q	n/a
380.934	0.075	761868	keystroke	u	n/a
381.039	0.075	762078	keystroke	e	n/a
381.144	0.09	762288	keystroke	n	n/a
381.279	0.045	762558	keystroke	t	n/a
381.639	0.09	763278	keystroke	Key.space	n/a
381.909	0.09	763818	keystroke	f	n/a
382.284	0.105	764568	keystroke	Key.backspace	n/a
382.359	0.105	764718	keystroke	t	n/a
382.659	0.105	765318	keystroke	a	n/a
383.0795	0.06	766159	keystroke	x	n/a
383.2745	0.15	766549	keystroke	e	n/a
383.3645	0.105	766729	keystroke	s	n/a
383.6195	0.105	767239	keystroke	Key.enter	n/a
383.7295	7.151	767459	prompt	n/a	cities scenic whole incomplete\n
384.549	0.105	769098	keystroke	c	n/a
384.654	0.09	769308	keystroke	i	n/a
384.819	0.075	769638	keystroke	t	n/a
384.879	0.09	769758	keystroke	i	n/a
384.97	0.1495	769940	keystroke	e	n/a
385.059	0.1205	770118	keystroke	s	n/a
385.659	0.03	771318	keystroke	Key.space	n/a
385.929	0.09	771858	keystroke	s	n/a
386.094	0.105	772188	keystroke	c	n/a
386.349	0.075	772698	keystroke	e	n/a
386.5445	0.075	773089	keystroke	n	n/a
386.7245	0.075	773449	keystroke	i	n/a
386.8295	0.12	773659	keystroke	c	n/a
387.4145	0.074	774829	keystroke	Key.space	n/a
387.654	0.09	775308	keystroke	w	n/a
387.729	0.09	775458	keystroke	h	n/a
387.804	0.0605	775608	keystroke	o	n/a
387.9695	0.0745	775939	keystroke	l	n/a
387.999	0.09	775998	keystroke	e	n/a
388.764	0.09	777528	keystroke	Key.space	n/a
389.019	0.135	778038	keystroke	i	n/a
389.199	0.045	778398	keystroke	n	n/a
389.439	0.105	778878	keystroke	c	n/a
389.6185	0.165	779237	keystroke	o	n/a
389.6945	0.119	779389	keystroke	m	n/a
390.0685	0.091	780137	keystroke	p	n/a
390.2645	0.074	780529	keystroke	l	n/a
390.3535	0.151	780707	keystroke	e	n/a
390.4885	0.1055	780977	keystroke	t	n/a
390.5635	0.1205	781127	keystroke	e	n/a
390.774	0.105	781548	keystroke	Key.enter	n/a
390.893	8.3875	781786	prompt	n/a	trauma humanity booking rochester\n
391.689	0.09	783378	keystroke	t	n/a
391.854	0.135	783708	keystroke	r	n/a
391.974	0.135	783948	keystroke	a	n/a
392.2295	0.074	784459	keystroke	u	n/a
392.7235	0.03	785447	keystroke	m	n/a
392.7385	0.075	785477	keystroke	a	n/a
393.399	0.1045	786798	keystroke	Key.space	n/a
393.684	0.06	787368	keystroke	h	n/a
393.849	0.075	787698	keystroke	u	n/a
394.059	0.06	788118	keystroke	m	n/a
394.134	0.12	788268	keystroke	a	n/a
394.284	0.0905	788568	keystroke	n	n/a
394.4045	0.074	788809	keystroke	i	n/a
394.4935	0.09	788987	keystroke	t	n/a
394.5845	0.074	789169	keystroke	y	n/a
395.0935	0.06	790187	keystroke	Key.space	n/a
395.3935	0.105	790787	keystroke	b	n/a
395.5135	0.045	791027	keystroke	o	n/a
395.634	0.075	791268	keystroke	o	n/a
395.784	0.09	791568	keystroke	k	n/a
395.979	0.1355	791958	keystroke	i	n/a
396.039	0.12	792078	keystroke	n	n/a
396.1745	0.0595	792349	keystroke	g	n/a
396.954	0.0895	793908	keystroke	Key.space	n/a
397.494	0.105	794988	keystroke	r	n/a
397.584	0.09	795168	keystroke	o	n/a
397.869	0.105	795738	keystroke	c	n/a
397.989	0.1045	795978	keystroke	h	n/a
398.4835	0.18	796967	keystroke	e	n/a
398.5895	0.134	797179	keystroke	s	n/a
398.7695	0.09	797539	keystroke	t	n/a
398.9195	0.12	797839	keystroke	e	n/a
398.9785	0.105	797957	keystroke	r	n/a
399.2185	0.06	798437	keystroke	Key.enter	n/a
399.283	6.3125	798566	prompt	n/a	disks mention accent tampa\n
399.9985	0.075	799997	keystroke	d	n/a
400.0885	0.0755	800177	keystroke	i	n/a
400.194	0.09	800388	keystroke	s	n/a
400.299	0.0895	800598	keystroke	k	n/a
400.4785	0.12	800957	keystroke	s	n/a
401.9935	0.045	803987	keystroke	Key.space	n/a
402.1735	0.09	804347	keystroke	m	n/a
402.2785	0.105	804557	keystroke	e	n/a
402.3685	0.075	804737	keystroke	n	n/a
402.4885	0.09	804977	keystroke	t	n/a
402.5635	0.136	805127	keystroke	i	n/a
402.6085	0.15	805217	keystroke	o	n/a
402.6835	0.12	805367	keystroke	n	n/a
402.8185	0.0755	805637	keystroke	Key.space	n/a
402.954	0.075	805908	keystroke	a	n/a
403.119	0.075	806238	keystroke	c	n/a
403.284	0.075	806568	keystroke	c	n/a
403.464	0.045	806928	keystroke	e	n/a
403.524	0.09	807048	keystroke	n	n/a
403.674	0.09	807348	keystroke	t	n/a
404.3185	0.105	808637	keystroke	Key.space	n/a
404.4835	0.135	808967	keystroke	t	n/a
404.5885	0.12	809177	keystroke	a	n/a
404.6935	0.075	809387	keystroke	m	n/a
404.7985	0.075	809597	keystroke	p	n/a
405.3535	0.135	810707	keystroke	a	n/a
405.5035	0.09	811007	keystroke	Key.enter	n/a
405.5985	7.3915	811197	prompt	n/a	dramatic shouldn't presented proxy\n
406.524	0.06	813048	keystroke	d	n/a
406.659	0.135	813318	keystroke	r	n/a
406.749	0.135	813498	keystroke	a	n/a
406.869	0.1045	813738	keystroke	m	n/a
407.7535	0.135	815507	keystroke	a	n/a
407.9035	0.075	815807	keystroke	t	n/a
408.0085	0.09	816017	keystroke	i	n/a
408.1135	0.105	816227	keystroke	c	n/a
408.2635	0.0905	816527	keystroke	Key.space	n/a
408.399	0.105	816798	keystroke	s	n/a
408.489	0.075	816978	keystroke	h	n/a
408.549	0.135	817098	keystroke	o	n/a
408.654	0.09	817308	keystroke	u	n/a
409.3135	0.09	818627	keystroke	l	n/a
409.4335	0.105	818867	keystroke	d	n/a
409.6735	0.09	819347	keystroke	n	n/a
409.8385	0.09	819677	keystroke	'	n/a
409.9885	0.075	819977	keystroke	t	n/a
410.5285	0.075	821057	keystroke	Key.space	n/a
410.8435	0.09	821687	keystroke	p	n/a
410.9185	0.1355	821837	keystroke	r	n/a
410.9785	0.0905	821957	keystroke	e	n/a
411.174	0.105	822348	keystroke	s	n/a
411.264	0.105	822528	keystroke	e	n/a
411.369	0.075	822738	keystroke	n	n/a
411.459	0.105	822918	keystroke	t	n/a
411.549	0.0895	823098	keystroke	e	n/a
411.7135	0.09	823427	keystroke	d	n/a
411.8935	0.075	823787	keystroke	Key.space	n/a
412.0885	0.09	824177	keystroke	p	n/a
412.2085	0.0905	824417	keystroke	r	n/a
412.284	0.09	824568	keystroke	o	n/a
412.569	0.12	825138	keystroke	x	n/a
412.674	0.075	825348	keystroke	y	n/a
412.914	0.075	825828	keystroke	Key.enter	n/a
412.993	8.038	825986	prompt	n/a	dimensional finds cayman dawn\n
413.634	0.09	827268	keystroke	d	n/a
413.7535	0.09	827507	keystroke	i	n/a
414.0685	0.105	828137	keystroke	m	n/a
414.2185	0.105	828437	keystroke	e	n/a
414.3385	0.09	828677	keystroke	n	n/a
415.0445	0.104	830089	keystroke	s	n/a
415.1185	0.09	830237	keystroke	i	n/a
415.5535	0.165	831107	keystroke	o	n/a
415.6735	0.105	831347	keystroke	n	n/a
416.1085	0.12	832217	keystroke	a	n/a
416.2435	0.09	832487	keystroke	l	n/a
416.784	0.075	833568	keystroke	Key.space	n/a
417.024	0.09	834048	keystroke	f	n/a
417.129	0.075	834258	keystroke	i	n/a
417.264	0.105	834528	keystroke	n	n/a
417.399	0.165	834798	keystroke	d	n/a
417.6235	0.09	835247	keystroke	s	n/a
418.6285	0.075	837257	keystroke	Key.space	n/a
418.8685	0.12	837737	keystroke	c	n/a
419.0335	0.105	838067	keystroke	a	n/a
419.2285	0.06	838457	keystroke	y	n/a
419.4985	0.136	838997	keystroke	m	n/a
419.859	0.105	839718	keystroke	a	n/a
419.919	0.09	839838	keystroke	n	n/a
420.1445	0.074	840289	keystroke	Key.space	n/a
420.3095	0.134	840619	keystroke	d	n/a
420.4285	0.121	840857	keystroke	a	n/a
420.6695	0.075	841339	keystroke	w	n/a
420.7285	0.09	841457	keystroke	n	n/a
420.9245	0.104	841849	keystroke	Key.enter	n/a
421.034	8.1565	842068	prompt	n/a	profile range partnership difficulties\n
422.034	0.1055	844068	keystroke	p	n/a
422.1545	0.1195	844309	keystroke	r	n/a
422.2445	0.0745	844489	keystroke	o	n/a
422.379	0.105	844758	keystroke	f	n/a
422.439	0.075	844878	keystroke	i	n/a
422.589	0.09	845178	keystroke	l	n/a
422.694	0.075	845388	keystroke	e	n/a
423.2335	0.075	846467	keystroke	Key.space	n/a
423.4135	0.136	846827	keystroke	r	n/a
423.5035	0.1355	847007	keystroke	a	n/a
423.5785	0.0905	847157	keystroke	n	n/a
423.699	0.09	847398	keystroke	g	n/a
423.849	0.075	847698	keystroke	e	n/a
424.089	0.09	848178	keystroke	Key.space	n/a
424.284	0.09	848568	keystroke	p	n/a
424.494	0.2395	848988	keystroke	a	n/a
424.6585	0.135	849317	keystroke	r	n/a
425.0035	0.09	850007	keystroke	t	n/a
425.3495	0.104	850699	keystroke	n	n/a
425.4385	0.135	850877	keystroke	e	n/a
425.5145	0.119	851029	keystroke	r	n/a
425.754	0.12	851508	keystroke	s	n/a
425.859	0.075	851718	keystroke	h	n/a
425.964	0.1055	851928	keystroke	i	n/a
426.1445	0.09	852289	keystroke	p	n/a
426.3245	0.075	852649	keystroke	Key.space	n/a
426.4445	0.12	852889	keystroke	d	n/a
426.5495	0.075	853099	keystroke	i	n/a
426.7145	0.075	853429	keystroke	f	n/a
426.8495	0.075	853699	keystroke	f	n/a
426.9545	0.09	853909	keystroke	i	n/a
427.0745	0.12	854149	keystroke	c	n/a
427.1795	0.075	854359	keystroke	u	n/a
428.4095	0.09	856819	keystroke	l	n/a
428.6195	0.09	857239	keystroke	t	n/a
428.6945	0.075	857389	keystroke	i	n/a
428.8285	0.1655	857657	keystroke	e	n/a
428.8895	0.1495	857779	keystroke	s	n/a
429.084	0.105	858168	keystroke	Key.enter	n/a
429.195	5.5455	858390	prompt	n/a	loves previously disco kansas\n
429.8035	0.06	859607	keystroke	l	n/a
429.9695	0.074	859939	keystroke	o	n/a
430.0885	0.0755	860177	keystroke	v	n/a
430.254	0.135	860508	keystroke	e	n/a
430.329	0.15	860658	keystroke	s	n/a
430.629	0.105	861258	keystroke	Key.space	n/a
430.8835	0.09	861767	keystroke	p	n/a
430.9885	0.135	861977	keystroke	r	n/a
431.0635	0.09	862127	keystroke	e	n/a
431.2735	0.09	862547	keystroke	v	n/a
431.3485	0.18	862697	keystroke	i	n/a
431.4085	0.135	862817	keystroke	o	n/a
431.4985	0.105	862997	keystroke	u	n/a
431.6185	0.1205	863237	keystroke	s	n/a
431.6785	0.1205	863357	keystroke	l	n/a
431.784	0.1055	863568	keystroke	y	n/a
432.2945	0.089	864589	keystroke	Key.space	n/a
432.5195	0.104	865039	keystroke	d	n/a
432.6085	0.075	865217	keystroke	i	n/a
432.7145	0.059	865429	keystroke	s	n/a
432.864	0.105	865728	keystroke	c	n/a
432.939	0.09	865878	keystroke	o	n/a
433.359	0.015	866718	keystroke	Key.space	n/a
433.449	0.09	866898	keystroke	k	n/a
433.554	0.105	867108	keystroke	a	n/a
433.66	0.074	867320	keystroke	n	n/a
434.109	0.165	868218	keystroke	s	n/a
434.214	0.135	868428	keystroke	a	n/a
434.3785	0.135	868757	keystroke	s	n/a
434.6335	0.105	869267	keystroke	Key.enter	n/a
434.743	6.2975	869486	prompt	n/a	corp tested rack convenient\n
435.3385	0.12	870677	keystroke	c	n/a
435.4435	0.09	870887	keystroke	o	n/a
435.5935	0.09	871187	keystroke	r	n/a
435.6685	0.09	871337	keystroke	p	n/a
435.8635	0.09	871727	keystroke	Key.space	n/a
436.1635	0.09	872327	keystroke	t	n/a
436.2835	0.135	872567	keystroke	e	n/a
436.5235	0.105	873047	keystroke	s	n/a
436.6585	0.075	873317	keystroke	t	n/a
436.7635	0.09	873527	keystroke	e	n/a
436.929	0.105	873858	keystroke	d	n/a
437.094	0.09	874188	keystroke	Key.space	n/a
437.319	0.15	874638	keystroke	r	n/a
437.439	0.09	874878	keystroke	a	n/a
437.634	0.105	875268	keystroke	c	n/a
437.754	0.0895	875508	keystroke	k	n/a
437.904	0.075	875808	keystroke	Key.space	n/a
438.1145	0.105	876229	keystroke	c	n/a
438.2045	0.12	876409	keystroke	o	n/a
438.2795	0.105	876559	keystroke	n	n/a
438.3995	0.075	876799	keystroke	v	n/a
438.5495	0.075	877099	keystroke	e	n/a
438.6395	0.09	877279	keystroke	n	n/a
440.3485	0.105	880697	keystroke	i	n/a
440.5285	0.09	881057	keystroke	e	n/a
440.6195	0.089	881239	keystroke	n	n/a
440.7235	0.09	881447	keystroke	t	n/a
440.9185	0.12	881837	keystroke	Key.enter	n/a
441.0425	6.523	882085	prompt	n/a	characterization factor audio naples\n
441.714	0.12	883428	keystroke	c	n/a
441.849	0.09	883698	keystroke	h	n/a
441.969	0.12	883938	keystroke	a	n/a
442.1495	0.1345	884299	keystroke	r	n/a
442.269	0.1045	884538	keystroke	a	n/a
442.4785	0.105	884957	keystroke	c	n/a
442.7185	0.075	885437	keystroke	t	n/a
442.8235	0.105	885647	keystroke	e	n/a
442.8835	0.12	885767	keystroke	r	n/a
443.0635	0.1055	886127	keystroke	i	n/a
443.229	0.1355	886458	keystroke	z	n/a
443.4545	0.119	886909	keystroke	a	n/a
443.5885	0.1055	887177	keystroke	t	n/a
443.739	0.1645	887478	keystroke	i	n/a
443.814	0.1345	887628	keystroke	o	n/a
443.8885	0.105	887777	keystroke	n	n/a
443.9785	0.09	887957	keystroke	Key.space	n/a
444.1135	0.09	888227	keystroke	f	n/a
444.1885	0.09	888377	keystroke	a	n/a
444.3385	0.09	888677	keystroke	c	n/a
444.5335	0.06	889067	keystroke	t	n/a
444.6085	0.075	889217	keystroke	o	n/a
444.6985	0.09	889397	keystroke	r	n/a
445.0285	0.075	890057	keystroke	Key.space	n/a
445.1785	0.105	890357	keystroke	a	n/a
445.2845	0.0895	890569	keystroke	u	n/a
445.509	0.105	891018	keystroke	d	n/a
445.629	0.1055	891258	keystroke	i	n/a
445.809	0.09	891618	keystroke	o	n/a
446.244	0.06	892488	keystroke	Key.space	n/a
446.7235	0.075	893447	keystroke	n	n/a
446.7835	0.135	893567	keystroke	a	n/a
446.934	0.06	893868	keystroke	p	n/a
447.099	0.09	894198	keystroke	l	n/a
447.159	0.21	894318	keystroke	e	n/a
447.249	0.1495	894498	keystroke	s	n/a
447.4735	0.0905	894947	keystroke	Key.enter	n/a
447.568	7.0025	895136	prompt	n/a	ancient assistance makers devoted\n
448.599	0.09	897198	keystroke	a	n/a
448.674	0.075	897348	keystroke	n	n/a
448.914	0.105	897828	keystroke	c	n/a
449.064	0.09	898128	keystroke	i	n/a
449.214	0.075	898428	keystroke	e	n/a
449.319	0.06	898638	keystroke	n	n/a
449.424	0.09	898848	keystroke	t	n/a
449.9035	0.09	899807	keystroke	Key.space	n/a
450.0845	0.12	900169	keystroke	a	n/a
450.3095	0.015	900619	keystroke	s	n/a
450.4145	0.075	900829	keystroke	s	n/a
450.5045	0.075	901009	keystroke	i	n/a
451.3595	0.074	902719	keystroke	s	n/a
451.5395	0.134	903079	keystroke	t	n/a
451.6445	0.105	903289	keystroke	a	n/a
451.7635	0.091	903527	keystroke	n	n/a
451.8695	0.089	903739	keystroke	c	n/a
452.0785	0.06	904157	keystroke	e	n/a
452.1535	0.105	904307	keystroke	Key.space	n/a
452.3785	0.106	904757	keystroke	m	n/a
452.4685	0.106	904937	keystroke	a	n/a
452.5885	0.121	905177	keystroke	k	n/a
452.6785	0.12	905357	keystroke	e	n/a
452.7535	0.105	905507	keystroke	r	n/a
452.9335	0.105	905867	keystroke	s	n/a
453.0845	0.1045	906169	keystroke	Key.space	n/a
453.339	0.075	906678	keystroke	d	n/a
453.534	0.06	907068	keystroke	e	n/a
453.6995	0.104	907399	keystroke	v	n/a
453.8345	0.104	907669	keystroke	o	n/a
453.9685	0.09	907937	keystroke	t	n/a
454.0895	0.089	908179	keystroke	e	n/a
454.2685	0.091	908537	keystroke	d	n/a
454.4485	0.12	908897	keystroke	Key.enter	n/a
454.5745	7.631	909149	prompt	n/a	immunology prot plasma france\n
455.289	0.075	910578	keystroke	i	n/a
455.484	0.06	910968	keystroke	m	n/a
455.6335	0.076	911267	keystroke	m	n/a
455.8585	0.075	911717	keystroke	u	n/a
456.1735	0.075	912347	keystroke	n	n/a
456.4135	0.045	912827	keystroke	o	n/a
457.7935	0.045	915587	keystroke	l	n/a
457.9735	0.06	915947	keystroke	o	n/a
458.1535	0.075	916307	keystroke	g	n/a
458.2435	0.075	916487	keystroke	y	n/a
458.4385	0.075	916877	keystroke	Key.space	n/a
458.5585	0.105	917117	keystroke	p	n/a
458.6945	0.089	917389	keystroke	r	n/a
458.7685	0.09	917537	keystroke	o	n/a
458.9785	0.075	917957	keystroke	t	n/a
459.7135	0.06	919427	keystroke	Key.space	n/a
459.8785	0.09	919757	keystroke	p	n/a
460.0585	0.0905	920117	keystroke	l	n/a
460.134	0.135	920268	keystroke	a	n/a
460.404	0.135	920808	keystroke	s	n/a
460.554	0.135	921108	keystroke	m	n/a
460.674	0.12	921348	keystroke	a	n/a
461.124	0.09	922248	keystroke	Key.space	n/a
461.349	0.06	922698	keystroke	f	n/a
461.4835	0.1355	922967	keystroke	r	n/a
461.5885	0.1205	923177	keystroke	a	n/a
461.694	0.09	923388	keystroke	n	n/a
461.799	0.105	923598	keystroke	c	n/a
461.994	0.075	923988	keystroke	e	n/a
462.129	0.075	924258	keystroke	Key.enter	n/a
462.209	9.0715	924418	prompt	n/a	owner phpbb andale travelling\n
463.044	0.0755	926088	keystroke	o	n/a
463.1945	0.09	926389	keystroke	n	n/a
463.3595	0.06	926719	keystroke	w	n/a
463.5395	0.135	927079	keystroke	e	n/a
463.6295	0.09	927259	keystroke	r	n/a
463.9895	0.09	927979	keystroke	Key.backspace	n/a
464.1695	0.06	928339	keystroke	Key.backspace	n/a
464.3345	0.075	928669	keystroke	Key.backspace	n/a
464.4545	0.105	928909	keystroke	Key.backspace	n/a
464.8595	0.075	929719	keystroke	w	n/a
464.9645	0.09	929929	keystroke	n	n/a
465.099	0.12	930198	keystroke	e	n/a
465.174	0.12	930348	keystroke	r	n/a
465.804	0.09	931608	keystroke	Key.space	n/a
466.089	0.09	932178	keystroke	p	n/a
466.299	0.075	932598	keystroke	h	n/a
466.7035	0.091	933407	keystroke	p	n/a
467.1845	0.09	934369	keystroke	b	n/a
467.3495	0.06	934699	keystroke	b	n/a
467.8445	0.074	935689	keystroke	Key.space	n/a
468.0685	0.1205	936137	keystroke	a	n/a
468.174	0.075	936348	keystroke	n	n/a
468.309	0.105	936618	keystroke	d	n/a
468.444	0.105	936888	keystroke	a	n/a
468.564	0.09	937128	keystroke	l	n/a
468.699	0.09	937398	keystroke	e	n/a
468.939	0.045	937878	keystroke	Key.space	n/a
469.089	0.09	938178	keystroke	t	n/a
469.254	0.1345	938508	keystroke	r	n/a
469.3595	0.119	938719	keystroke	a	n/a
469.749	0.09	939498	keystroke	v	n/a
469.929	0.09	939858	keystroke	e	n/a
470.184	0.06	940368	keystroke	l	n/a
470.469	0.09	940938	keystroke	l	n/a
470.694	0.165	941388	keystroke	i	n/a
470.799	0.135	941598	keystroke	n	n/a
470.949	0.0895	941898	keystroke	g	n/a
471.1585	0.12	942317	keystroke	Key.enter	n/a
471.284	5.9365	942568	prompt	n/a	correct logging french iowa\n
471.9995	0.164	943999	keystroke	c	n/a
472.1185	0.06	944237	keystroke	o	n/a
472.2695	0.059	944539	keystroke	r	n/a
472.419	0.12	944838	keystroke	r	n/a
472.524	0.0745	945048	keystroke	e	n/a
472.7195	0.089	945439	keystroke	c	n/a
472.9145	0.059	945829	keystroke	t	n/a
473.1235	0.06	946247	keystroke	Key.space	n/a
473.394	0.06	946788	keystroke	l	n/a
473.559	0.075	947118	keystroke	o	n/a
473.664	0.075	947328	keystroke	g	n/a
473.814	0.09	947628	keystroke	g	n/a
473.919	0.12	947838	keystroke	i	n/a
474.009	0.0895	948018	keystroke	n	n/a
474.0995	0.075	948199	keystroke	g	n/a
474.6085	0.09	949217	keystroke	Key.space	n/a
474.7435	0.09	949487	keystroke	f	n/a
474.8935	0.12	949787	keystroke	r	n/a
474.9535	0.105	949907	keystroke	e	n/a
475.134	0.075	950268	keystroke	n	n/a
475.239	0.12	950478	keystroke	c	n/a
475.344	0.09	950688	keystroke	h	n/a
475.599	0.0745	951198	keystroke	Key.space	n/a
475.7935	0.075	951587	keystroke	l	n/a
476.2285	0.075	952457	keystroke	Key.backspace	n/a
476.4235	0.075	952847	keystroke	i	n/a
476.5885	0.0605	953177	keystroke	o	n/a
476.7395	0.105	953479	keystroke	w	n/a
476.9185	0.12	953837	keystroke	a	n/a
477.0985	0.12	954197	keystroke	Key.enter	n/a
477.2235	5.622	954447	prompt	n/a	layer accept vista seeing\n
477.894	0.105	955788	keystroke	l	n/a
478.014	0.09	956028	keystroke	a	n/a
478.119	0.075	956238	keystroke	y	n/a
478.269	0.135	956538	keystroke	e	n/a
478.344	0.105	956688	keystroke	r	n/a
478.554	0.09	957108	keystroke	Key.space	n/a
478.854	0.09	957708	keystroke	a	n/a
479.049	0.06	958098	keystroke	c	n/a
479.1845	0.075	958369	keystroke	c	n/a
479.3795	0.06	958759	keystroke	e	n/a
479.4695	0.09	958939	keystroke	p	n/a
479.604	0.0605	959208	keystroke	t	n/a
479.8445	0.075	959689	keystroke	Key.space	n/a
480.0995	0.12	960199	keystroke	f	n/a
480.1895	0.09	960379	keystroke	i	n/a
480.594	0.075	961188	keystroke	Key.backspace	n/a
480.7595	0.045	961519	keystroke	Key.backspace	n/a
480.8195	0.09	961639	keystroke	v	n/a
480.9395	0.09	961879	keystroke	i	n/a
481.0445	0.105	962089	keystroke	s	n/a
481.2695	0.09	962539	keystroke	t	n/a
481.4495	0.12	962899	keystroke	a	n/a
481.764	0.075	963528	keystroke	Key.space	n/a
482.019	0.03	964038	keystroke	s	n/a
482.139	0.075	964278	keystroke	e	n/a
482.274	0.075	964548	keystroke	e	n/a
482.394	0.165	964788	keystroke	i	n/a
482.499	0.12	964998	keystroke	n	n/a
482.604	0.06	965208	keystroke	g	n/a
482.754	0.09	965508	keystroke	Key.enter	n/a
482.8515	8.215	965703	prompt	n/a	cooked exemption successfully andrew\n
483.5045	0.075	967009	keystroke	e	n/a
483.8645	0.075	967729	keystroke	Key.backspace	n/a
483.9545	0.09	967909	keystroke	c	n/a
484.1045	0.06	968209	keystroke	o	n/a
484.2395	0.075	968479	keystroke	o	n/a
484.4195	0.075	968839	keystroke	k	n/a
484.5395	0.075	969079	keystroke	e	n/a
484.719	0.075	969438	keystroke	d	n/a
485.154	0.09	970308	keystroke	Key.space	n/a
485.454	0.06	970908	keystroke	e	n/a
485.649	0.06	971298	keystroke	x	n/a
485.934	0.015	971868	keystroke	e	n/a
486.624	0.075	973248	keystroke	m	n/a
486.789	0.105	973578	keystroke	p	n/a
486.969	0.075	973938	keystroke	t	n/a
487.059	0.15	974118	keystroke	i	n/a
487.149	0.12	974298	keystroke	o	n/a
487.194	0.12	974388	keystroke	n	n/a
487.434	0.09	974868	keystroke	Key.space	n/a
487.599	0.075	975198	keystroke	s	n/a
487.749	0.045	975498	keystroke	u	n/a
487.914	0.075	975828	keystroke	c	n/a
488.064	0.075	976128	keystroke	c	n/a
488.7835	0.135	977567	keystroke	e	n/a
488.8445	0.104	977689	keystroke	s	n/a
489.0535	0.06	978107	keystroke	s	n/a
489.2195	0.075	978439	keystroke	f	n/a
489.2795	0.075	978559	keystroke	u	n/a
489.4585	0.06	978917	keystroke	l	n/a
489.5935	0.12	979187	keystroke	l	n/a
489.6835	0.09	979367	keystroke	y	n/a
489.8485	0.075	979697	keystroke	Key.space	n/a
490.0435	0.1505	980087	keystroke	a	n/a
490.179	0.045	980358	keystroke	n	n/a
490.299	0.09	980598	keystroke	d	n/a
490.524	0.15	981048	keystroke	r	n/a
490.614	0.135	981228	keystroke	e	n/a
490.689	0.12	981378	keystroke	w	n/a
490.944	0.12	981888	keystroke	Key.enter	n/a
491.071	6.9545	982142	prompt	n/a	decision brush sharing benchmark\n
491.679	0.105	983358	keystroke	d	n/a
492.159	0.09	984318	keystroke	e	n/a
492.399	0.105	984798	keystroke	c	n/a
492.519	0.09	985038	keystroke	i	n/a
492.654	0.1195	985308	keystroke	s	n/a
492.7585	0.15	985517	keystroke	i	n/a
492.8485	0.135	985697	keystroke	o	n/a
492.8935	0.12	985787	keystroke	n	n/a
493.479	0.105	986958	keystroke	Key.space	n/a
493.944	0.06	987888	keystroke	b	n/a
494.139	0.075	988278	keystroke	r	n/a
494.244	0.09	988488	keystroke	u	n/a
494.379	0.09	988758	keystroke	s	n/a
494.454	0.075	988908	keystroke	h	n/a
495.114	0.045	990228	keystroke	Key.space	n/a
495.219	0.105	990438	keystroke	s	n/a
495.309	0.075	990618	keystroke	h	n/a
495.399	0.09	990798	keystroke	a	n/a
495.504	0.1055	991008	keystroke	r	n/a
495.6395	0.135	991279	keystroke	i	n/a
495.7145	0.135	991429	keystroke	n	n/a
495.8645	0.075	991729	keystroke	g	n/a
496.2245	0.075	992449	keystroke	Key.space	n/a
496.569	0.09	993138	keystroke	b	n/a
496.764	0.075	993528	keystroke	e	n/a
496.854	0.0905	993708	keystroke	n	n/a
496.9745	0.09	993949	keystroke	c	n/a
497.0795	0.045	994159	keystroke	h	n/a
497.3785	0.106	994757	keystroke	m	n/a
497.4695	0.104	994939	keystroke	a	n/a
497.5585	0.1055	995117	keystroke	r	n/a
497.679	0.09	995358	keystroke	k	n/a
497.889	0.135	995778	keystroke	Key.enter	n/a
498.0295	10.2415	996059	prompt	n/a	forests enclosure functioning href\n
498.9835	0.09	997967	keystroke	f	n/a
499.1485	0.09	998297	keystroke	o	n/a
499.3745	0.12	998749	keystroke	r	n/a
499.6445	0.075	999289	keystroke	e	n/a
499.8395	0.09	999679	keystroke	s	n/a
500.0195	0.09	1000039	keystroke	t	n/a
500.1695	0.135	1000339	keystroke	s	n/a
500.7095	0.09	1001419	keystroke	Key.space	n/a
501.054	0.075	1002108	keystroke	e	n/a
501.159	0.075	1002318	keystroke	n	n/a
501.324	0.075	1002648	keystroke	c	n/a
501.834	0.075	1003668	keystroke	l	n/a
502.1495	0.12	1004299	keystroke	o	n/a
502.4645	0.09	1004929	keystroke	s	n/a
502.5845	0.09	1005169	keystroke	u	n/a
502.6585	0.121	1005317	keystroke	r	n/a
502.7345	0.12	1005469	keystroke	e	n/a
503.259	0.09	1006518	keystroke	Key.space	n/a
503.469	0.075	1006938	keystroke	f	n/a
503.619	0.075	1007238	keystroke	u	n/a
503.829	0.06	1007658	keystroke	n	n/a
503.904	0.09	1007808	keystroke	c	n/a
504.099	0.075	1008198	keystroke	t	n/a
504.159	0.165	1008318	keystroke	i	n/a
504.309	0.12	1008618	keystroke	n	n/a
504.939	0.045	1009878	keystroke	Key.backspace	n/a
505.1345	0.12	1010269	keystroke	o	n/a
505.1945	0.1345	1010389	keystroke	n	n/a
505.449	0.12	1010898	keystroke	i	n/a
505.494	0.1205	1010988	keystroke	n	n/a
505.599	0.0905	1011198	keystroke	g	n/a
506.1845	0.075	1012369	keystroke	Key.space	n/a
506.634	0.075	1013268	keystroke	h	n/a
506.754	0.09	1013508	keystroke	e	n/a
507.249	0.075	1014498	keystroke	Key.backspace	n/a
507.309	0.12	1014618	keystroke	r	n/a
507.369	0.09	1014738	keystroke	e	n/a
507.729	0.1055	1015458	keystroke	f	n/a
508.1495	0.12	1016299	keystroke	Key.enter	n/a
508.2735	6.793	1016547	prompt	n/a	bahrain abroad glow interactions\n
509.109	0.105	1018218	keystroke	b	n/a
509.379	0.12	1018758	keystroke	a	n/a
509.604	0.0605	1019208	keystroke	h	n/a
510.1895	0.15	1020379	keystroke	r	n/a
510.4145	0.1195	1020829	keystroke	a	n/a
510.5195	0.1195	1021039	keystroke	i	n/a
510.609	0.12	1021218	keystroke	n	n/a
511.164	0.075	1022328	keystroke	Key.space	n/a
511.419	0.09	1022838	keystroke	a	n/a
511.6445	0.105	1023289	keystroke	b	n/a
511.7945	0.105	1023589	keystroke	o	n/a
511.8845	0.12	1023769	keystroke	a	n/a
511.9595	0.09	1023919	keystroke	r	n/a
512.1095	0.09	1024219	keystroke	d	n/a
512.3195	0.105	1024639	keystroke	Key.space	n/a
512.6045	0.105	1025209	keystroke	g	n/a
512.814	0.09	1025628	keystroke	l	n/a
513.009	0.075	1026018	keystroke	o	n/a
513.099	0.075	1026198	keystroke	w	n/a
513.219	0.0905	1026438	keystroke	Key.space	n/a
513.3695	0.15	1026739	keystroke	i	n/a
513.4595	0.105	1026919	keystroke	n	n/a
513.609	0.09	1027218	keystroke	t	n/a
513.729	0.12	1027458	keystroke	e	n/a
513.804	0.135	1027608	keystroke	r	n/a
513.954	0.105	1027908	keystroke	a	n/a
514.194	0.09	1028388	keystroke	c	n/a
514.374	0.0755	1028748	keystroke	t	n/a
514.4795	0.1945	1028959	keystroke	i	n/a
514.5545	0.1495	1029109	keystroke	o	n/a
514.629	0.105	1029258	keystroke	n	n/a
514.794	0.09	1029588	keystroke	s	n/a
514.959	0.105	1029918	keystroke	Key.enter	n/a
515.0695	5.651	1030139	prompt	n/a	wells match colonial january\n
515.664	0.135	1031328	keystroke	w	n/a
515.754	0.09	1031508	keystroke	e	n/a
515.874	0.075	1031748	keystroke	l	n/a
516.0245	0.075	1032049	keystroke	l	n/a
516.0845	0.135	1032169	keystroke	s	n/a
516.2345	0.09	1032469	keystroke	Key.space	n/a
516.3995	0.12	1032799	keystroke	m	n/a
516.4745	0.135	1032949	keystroke	a	n/a
516.6245	0.09	1033249	keystroke	t	n/a
516.8195	0.09	1033639	keystroke	c	n/a
516.9395	0.075	1033879	keystroke	h	n/a
517.2095	0.06	1034419	keystroke	Key.space	n/a
517.449	0.12	1034898	keystroke	c	n/a
517.554	0.045	1035108	keystroke	o	n/a
517.7195	0.075	1035439	keystroke	l	n/a
517.8845	0.075	1035769	keystroke	o	n/a
518.1245	0.09	1036249	keystroke	n	n/a
518.3335	0.076	1036667	keystroke	i	n/a
518.4245	0.105	1036849	keystroke	a	n/a
518.5145	0.09	1037029	keystroke	l	n/a
519.0245	0.089	1038049	keystroke	Key.space	n/a
519.4145	0.105	1038829	keystroke	j	n/a
519.5345	0.105	1039069	keystroke	a	n/a
519.7295	0.075	1039459	keystroke	n	n/a
519.9245	0.06	1039849	keystroke	u	n/a
520.1495	0.12	1040299	keystroke	a	n/a
520.2395	0.12	1040479	keystroke	r	n/a
520.3445	0.06	1040689	keystroke	y	n/a
520.5995	0.12	1041199	keystroke	Key.enter	n/a
520.7245	5.1865	1041449	prompt	n/a	vacation active reveals blink\n
521.3945	0.105	1042789	keystroke	v	n/a
521.5145	0.09	1043029	keystroke	a	n/a
521.6645	0.135	1043329	keystroke	c	n/a
521.7845	0.09	1043569	keystroke	a	n/a
521.9645	0.075	1043929	keystroke	t	n/a
522.0545	0.18	1044109	keystroke	i	n/a
522.1295	0.12	1044259	keystroke	o	n/a
522.1895	0.135	1044379	keystroke	n	n/a
522.3095	0.12	1044619	keystroke	Key.space	n/a
522.4595	0.09	1044919	keystroke	a	n/a
522.6095	0.12	1045219	keystroke	c	n/a
522.8195	0.045	1045639	keystroke	t	n/a
522.8945	0.06	1045789	keystroke	i	n/a
522.9695	0.075	1045939	keystroke	v	n/a
523.1195	0.075	1046239	keystroke	e	n/a
523.224	0.09	1046448	keystroke	Key.space	n/a
523.374	0.135	1046748	keystroke	r	n/a
523.449	0.075	1046898	keystroke	e	n/a
523.629	0.09	1047258	keystroke	v	n/a
523.764	0.165	1047528	keystroke	e	n/a
523.869	0.15	1047738	keystroke	a	n/a
523.989	0.09	1047978	keystroke	l	n/a
524.094	0.0905	1048188	keystroke	s	n/a
524.3195	0.075	1048639	keystroke	Key.space	n/a
524.6045	0.06	1049209	keystroke	n	n/a
525.0095	0.06	1050019	keystroke	Key.backspace	n/a
525.0845	0.09	1050169	keystroke	b	n/a
525.2045	0.105	1050409	keystroke	l	n/a
525.2945	0.09	1050589	keystroke	i	n/a
525.4445	0.09	1050889	keystroke	n	n/a
525.5795	0.12	1051159	keystroke	k	n/a
525.7895	0.12	1051579	keystroke	Key.enter	n/a
525.915	6.7455	1051830	prompt	n/a	subjective swingers news seniors\n
526.629	0.105	1053258	keystroke	s	n/a
526.749	0.09	1053498	keystroke	u	n/a
526.914	0.09	1053828	keystroke	b	n/a
527.094	0.1055	1054188	keystroke	j	n/a
527.1995	0.075	1054399	keystroke	e	n/a
527.3645	0.075	1054729	keystroke	c	n/a
527.5295	0.075	1055059	keystroke	t	n/a
527.6195	0.075	1055239	keystroke	i	n/a
527.7095	0.09	1055419	keystroke	v	n/a
527.8595	0.06	1055719	keystroke	e	n/a
527.9345	0.09	1055869	keystroke	Key.space	n/a
528.3095	0.075	1056619	keystroke	s	n/a
528.4595	0.135	1056919	keystroke	w	n/a
528.5785	0.0755	1057157	keystroke	i	n/a
528.744	0.075	1057488	keystroke	n	n/a
529.074	0.09	1058148	keystroke	g	n/a
529.269	0.12	1058538	keystroke	e	n/a
529.344	0.105	1058688	keystroke	r	n/a
529.494	0.12	1058988	keystroke	s	n/a
529.989	0.06	1059978	keystroke	Key.space	n/a
530.184	0.09	1060368	keystroke	n	n/a
530.319	0.135	1060638	keystroke	e	n/a
530.364	0.12	1060728	keystroke	w	n/a
530.589	0.105	1061178	keystroke	s	n/a
530.754	0.06	1061508	keystroke	Key.space	n/a
530.934	0.0605	1061868	keystroke	n	n/a
531.2795	0.059	1062559	keystroke	Key.backspace	n/a
531.3245	0.09	1062649	keystroke	s	n/a
531.4745	0.09	1062949	keystroke	e	n/a
531.5945	0.0895	1063189	keystroke	n	n/a
531.729	0.105	1063458	keystroke	i	n/a
531.819	0.105	1063638	keystroke	o	n/a
531.984	0.15	1063968	keystroke	r	n/a
532.314	0.12	1064628	keystroke	s	n/a
532.554	0.105	1065108	keystroke	Key.enter	n/a
532.6635	8.7725	1065327	prompt	n/a	hosting necessarily peace provides\n
533.4845	0.12	1066969	keystroke	h	n/a
533.5895	0.075	1067179	keystroke	o	n/a
533.6945	0.0895	1067389	keystroke	s	n/a
533.814	0.09	1067628	keystroke	t	n/a
533.889	0.15	1067778	keystroke	i	n/a
533.964	0.105	1067928	keystroke	n	n/a
534.084	0.06	1068168	keystroke	g	n/a
534.534	0.075	1069068	keystroke	Key.space	n/a
534.789	0.09	1069578	keystroke	n	n/a
534.9095	0.09	1069819	keystroke	e	n/a
535.1185	0.12	1070237	keystroke	c	n/a
535.8385	0.091	1071677	keystroke	e	n/a
536.1095	0.09	1072219	keystroke	s	n/a
536.2585	0.09	1072517	keystroke	s	n/a
536.454	0.135	1072908	keystroke	a	n/a
536.709	0.105	1073418	keystroke	r	n/a
537.234	0.09	1074468	keystroke	i	n/a
537.384	0.12	1074768	keystroke	l	n/a
537.519	0.0895	1075038	keystroke	y	n/a
538.0435	0.075	1076087	keystroke	Key.space	n/a
538.1935	0.09	1076387	keystroke	p	n/a
538.2985	0.151	1076597	keystroke	r	n/a
538.3885	0.12	1076777	keystroke	e	n/a
538.4335	0.12	1076867	keystroke	a	n/a
539.0035	0.06	1078007	keystroke	Key.backspace	n/a
539.1685	0.045	1078337	keystroke	Key.backspace	n/a
539.3185	0.06	1078637	keystroke	Key.backspace	n/a
539.4085	0.105	1078817	keystroke	e	n/a
539.4685	0.09	1078937	keystroke	a	n/a
539.664	0.09	1079328	keystroke	c	n/a
539.874	0.06	1079748	keystroke	e	n/a
540.174	0.075	1080348	keystroke	Key.space	n/a
540.309	0.12	1080618	keystroke	p	n/a
540.459	0.09	1080918	keystroke	r	n/a
540.534	0.09	1081068	keystroke	o	n/a
540.669	0.105	1081338	keystroke	v	n/a
540.744	0.075	1081488	keystroke	i	n/a
540.834	0.0755	1081668	keystroke	d	n/a
540.9995	0.15	1081999	keystroke	e	n/a
541.1345	0.105	1082269	keystroke	s	n/a
541.3295	0.105	1082659	keystroke	Key.enter	n/a
541.4425	7.298	1082885	prompt	n/a	claims sectors magnificent entry\n
542.1095	0.105	1084219	keystroke	c	n/a
542.2155	0.104	1084431	keystroke	l	n/a
542.3645	0.12	1084729	keystroke	a	n/a
542.4695	0.075	1084939	keystroke	i	n/a
542.5895	0.105	1085179	keystroke	m	n/a
542.6795	0.105	1085359	keystroke	s	n/a
543.264	0.09	1086528	keystroke	Key.space	n/a
543.519	0.015	1087038	keystroke	s	n/a
543.579	0.09	1087158	keystroke	e	n/a
543.759	0.06	1087518	keystroke	c	n/a
543.924	0.06	1087848	keystroke	t	n/a
543.999	0.075	1087998	keystroke	o	n/a
544.0895	0.135	1088179	keystroke	r	n/a
544.209	0.1055	1088418	keystroke	s	n/a
544.7785	0.076	1089557	keystroke	Key.space	n/a
544.9295	0.12	1089859	keystroke	m	n/a
545.0645	0.105	1090129	keystroke	a	n/a
545.3645	0.105	1090729	keystroke	g	n/a
545.5445	0.1045	1091089	keystroke	n	n/a
545.7095	0.075	1091419	keystroke	i	n/a
545.8145	0.075	1091629	keystroke	f	n/a
546.819	0.0755	1093638	keystroke	i	n/a
546.9245	0.105	1093849	keystroke	c	n/a
547.1345	0.06	1094269	keystroke	e	n/a
547.2095	0.075	1094419	keystroke	n	n/a
547.3145	0.0745	1094629	keystroke	t	n/a
547.5395	0.09	1095079	keystroke	Key.space	n/a
547.9895	0.015	1095979	keystroke	e	n/a
548.0345	0.075	1096069	keystroke	n	n/a
548.1545	0.075	1096309	keystroke	t	n/a
548.3045	0.09	1096609	keystroke	r	n/a
548.3795	0.06	1096759	keystroke	y	n/a
548.6195	0.119	1097239	keystroke	Key.enter	n/a
548.743	7.918	1097486	prompt	n/a	handhelds http food guyana\n
549.3695	0.075	1098739	keystroke	h	n/a
549.4595	0.089	1098919	keystroke	a	n/a
549.5635	0.0605	1099127	keystroke	n	n/a
549.639	0.09	1099278	keystroke	d	n/a
549.819	0.075	1099638	keystroke	l	n/a
550.194	0.06	1100388	keystroke	Key.backspace	n/a
550.389	0.06	1100778	keystroke	h	n/a
550.599	0.075	1101198	keystroke	e	n/a
550.719	0.09	1101438	keystroke	l	n/a
550.839	0.12	1101678	keystroke	d	n/a
551.139	0.09	1102278	keystroke	s	n/a
551.6795	0.075	1103359	keystroke	Key.space	n/a
551.9045	0.075	1103809	keystroke	h	n/a
552.0995	0.075	1104199	keystroke	t	n/a
552.2495	0.075	1104499	keystroke	t	n/a
552.3695	0.075	1104739	keystroke	p	n/a
552.5645	0.09	1105129	keystroke	Key.space	n/a
552.8645	0.075	1105729	keystroke	f	n/a
552.9545	0.0745	1105909	keystroke	o	n/a
553.089	0.105	1106178	keystroke	o	n/a
553.179	0.1055	1106358	keystroke	d	n/a
553.5395	0.0895	1107079	keystroke	Key.space	n/a
553.9895	0.09	1107979	keystroke	g	n/a
554.5595	0.12	1109119	keystroke	u	n/a
555.0995	0.09	1110199	keystroke	y	n/a
555.3545	0.075	1110709	keystroke	a	n/a
556.1645	0.105	1112329	keystroke	n	n/a
556.2545	0.1195	1112509	keystroke	a	n/a
556.554	0.105	1113108	keystroke	Key.enter	n/a
556.664	6.987	1113328	prompt	n/a	processed warranty adults nudist\n
557.349	0.06	1114698	keystroke	p	n/a
557.424	0.09	1114848	keystroke	r	n/a
557.529	0.075	1115058	keystroke	o	n/a
557.6795	0.12	1115359	keystroke	c	n/a
557.9195	0.105	1115839	keystroke	e	n/a
558.399	0.12	1116798	keystroke	s	n/a
558.6095	0.075	1117219	keystroke	s	n/a
558.7895	0.075	1117579	keystroke	e	n/a
558.9545	0.09	1117909	keystroke	d	n/a
559.4785	0.09	1118957	keystroke	Key.space	n/a
559.6585	0.12	1119317	keystroke	w	n/a
559.7335	0.121	1119467	keystroke	a	n/a
559.9595	0.0745	1119919	keystroke	r	n/a
560.0945	0.135	1120189	keystroke	r	n/a
560.1845	0.15	1120369	keystroke	a	n/a
560.3045	0.075	1120609	keystroke	n	n/a
560.4545	0.105	1120909	keystroke	t	n/a
560.6195	0.045	1121239	keystroke	y	n/a
560.814	0.09	1121628	keystroke	Key.space	n/a
561.0395	0.09	1122079	keystroke	a	n/a
561.2045	0.12	1122409	keystroke	d	n/a
561.3245	0.075	1122649	keystroke	u	n/a
561.4745	0.075	1122949	keystroke	l	n/a
561.5645	0.0895	1123129	keystroke	t	n/a
561.804	0.105	1123608	keystroke	s	n/a
562.059	0.075	1124118	keystroke	Key.space	n/a
562.3895	0.105	1124779	keystroke	n	n/a
562.8545	0.075	1125709	keystroke	u	n/a
562.9745	0.105	1125949	keystroke	d	n/a
563.1695	0.075	1126339	keystroke	i	n/a
563.2595	0.0745	1126519	keystroke	s	n/a
563.394	0.09	1126788	keystroke	t	n/a
563.544	0.105	1127088	keystroke	Key.enter	n/a
563.6605	8.3155	1127321	prompt	n/a	fired interested antivirus therapist\n
564.249	0.105	1128498	keystroke	f	n/a
564.369	0.06	1128738	keystroke	i	n/a
564.414	0.12	1128828	keystroke	r	n/a
564.504	0.075	1129008	keystroke	e	n/a
564.684	0.075	1129368	keystroke	d	n/a
564.789	0.06	1129578	keystroke	Key.space	n/a
565.029	0.1205	1130058	keystroke	i	n/a
565.1195	0.105	1130239	keystroke	n	n/a
565.2245	0.075	1130449	keystroke	t	n/a
565.3145	0.12	1130629	keystroke	e	n/a
565.3895	0.18	1130779	keystroke	r	n/a
565.4945	0.1345	1130989	keystroke	e	n/a
566.109	0.105	1132218	keystroke	s	n/a
566.259	0.075	1132518	keystroke	t	n/a
566.364	0.091	1132728	keystroke	e	n/a
566.5445	0.075	1133089	keystroke	d	n/a
567.1745	0.074	1134349	keystroke	Key.space	n/a
567.4295	0.105	1134859	keystroke	a	n/a
567.5195	0.1045	1135039	keystroke	n	n/a
567.789	0.105	1135578	keystroke	t	n/a
567.909	0.06	1135818	keystroke	i	n/a
568.194	0.1055	1136388	keystroke	v	n/a
568.5245	0.089	1137049	keystroke	i	n/a
568.6595	0.075	1137319	keystroke	r	n/a
568.8695	0.104	1137739	keystroke	u	n/a
569.0935	0.105	1138187	keystroke	s	n/a
569.6785	0.09	1139357	keystroke	Key.space	n/a
569.9335	0.091	1139867	keystroke	t	n/a
570.0395	0.075	1140079	keystroke	h	n/a
570.1445	0.12	1140289	keystroke	e	n/a
570.2345	0.15	1140469	keystroke	r	n/a
570.3695	0.12	1140739	keystroke	a	n/a
570.5345	0.09	1141069	keystroke	p	n/a
570.7295	0.03	1141459	keystroke	o	n/a
570.8195	0.06	1141639	keystroke	s	n/a
571.2095	0.06	1142419	keystroke	Key.backspace	n/a
571.3595	0.075	1142719	keystroke	Key.backspace	n/a
571.5845	0.075	1143169	keystroke	i	n/a
571.6295	0.135	1143259	keystroke	s	n/a
571.7345	0.105	1143469	keystroke	t	n/a
571.8695	0.1045	1143739	keystroke	Key.enter	n/a
571.98	5.7405	1143960	prompt	n/a	mobile critics marc flows\n
572.709	0.09	1145418	keystroke	m	n/a
572.814	0.09	1145628	keystroke	o	n/a
