onset	duration	sample	value	key	prompt_text
1.019	8.4465	2038	prompt	n/a	the quick brown fox jumps over a lazy dog\n
2.3855	0.0205	4771	keystroke_t	t	n/a
2.395	0.089	4790	keystroke_h	h	n/a
2.493	0.0815	4986	keystroke_e	e	n/a
2.563	0.102	5126	keystroke_Key.space	Key.space	n/a
2.861	0.122	5722	keystroke_q	q	n/a
3.343	0.165	6686	keystroke_u	u	n/a
3.448	0.119	6896	keystroke_i	i	n/a
3.538	0.12	7076	keystroke_c	c	n/a
3.672	0.136	7344	keystroke_j	j	n/a
3.822	0.12	7644	keystroke_Key.space	Key.space	n/a
4.078	0.045	8156	keystroke_b	b	n/a
4.363	0.089	8726	keystroke_Key.backspace	Key.backspace	n/a
4.557	0.0455	9114	keystroke_Key.backspace	Key.backspace	n/a
4.7075	0.075	9415	keystroke_Key.backspace	Key.backspace	n/a
5.2475	0.075	10495	keystroke_k	k	n/a
5.3525	0.105	10705	keystroke_Key.space	Key.space	n/a
5.5325	0.06	11065	keystroke_b	b	n/a
5.7125	0.105	11425	keystroke_r	r	n/a
5.8325	0.09	11665	keystroke_o	o	n/a
5.9375	0.089	11875	keystroke_w	w	n/a
6.0115	0.075	12023	keystroke_n	n	n/a
6.1765	0.09	12353	keystroke_Key.space	Key.space	n/a
6.2675	0.089	12535	keystroke_f	f	n/a
6.4015	0.09	12803	keystroke_o	o	n/a
6.5385	0.105	13077	keystroke_x	x	n/a
6.6585	0.105	13317	keystroke_Key.space	Key.space	n/a
6.9585	0.104	13917	keystroke_j	j	n/a
7.1825	0.105	14365	keystroke_u	u	n/a
7.2425	0.15	14485	keystroke_m	m	n/a
7.3175	0.12	14635	keystroke_p	p	n/a
7.4075	0.09	14815	keystroke_s	s	n/a
7.5575	0.075	15115	keystroke_Key.space	Key.space	n/a
7.7525	0.105	15505	keystroke_o	o	n/a
7.8275	0.105	15655	keystroke_v	v	n/a
7.9775	0.1805	15955	keystroke_e	e	n/a
8.0975	0.0895	16195	keystroke_r	r	n/a
8.202	0.12	16404	keystroke_Key.space	Key.space	n/a
8.307	0.09	16614	keystroke_a	a	n/a
8.412	0.1055	16824	keystroke_Key.space	Key.space	n/a
8.487	0.1215	16974	keystroke_l	l	n/a
8.5785	0.165	17157	keystroke_a	a	n/a
8.6535	0.12	17307	keystroke_z	z	n/a
8.7285	0.105	17457	keystroke_y	y	n/a
8.8035	0.089	17607	keystroke_Key.space	Key.space	n/a
8.8945	0.103	17789	keystroke_d	d	n/a
8.9675	0.091	17935	keystroke_o	o	n/a
9.1475	0.075	18295	keystroke_g	g	n/a
9.3725	0.09	18745	keystroke_Key.enter	Key.enter	n/a
9.4715	3.9835	18943	prompt	n/a	performs speaker cant tourist\n
10.544	0.029	21088	keystroke_p	p	n/a
10.558	0.0455	21116	keystroke_e	e	n/a
10.5885	0.0745	21177	keystroke_r	r	n/a
10.768	0.09	21536	keystroke_f	f	n/a
10.873	0.075	21746	keystroke_o	o	n/a
10.9635	0.1045	21927	keystroke_r	r	n/a
11.053	0.09	22106	keystroke_m	m	n/a
11.158	0.09	22316	keystroke_s	s	n/a
11.278	0.09	22556	keystroke_Key.space	Key.space	n/a
11.414	0.089	22828	keystroke_s	s	n/a
11.518	0.06	23036	keystroke_p	p	n/a
11.683	0.165	23366	keystroke_e	e	n/a
11.788	0.075	23576	keystroke_a	a	n/a
11.833	0.12	23666	keystroke_k	k	n/a
11.968	0.1195	23936	keystroke_e	e	n/a
12.0425	0.106	24085	keystroke_r	r	n/a
12.1325	0.09	24265	keystroke_Key.space	Key.space	n/a
12.2675	0.106	24535	keystroke_c	c	n/a
12.3585	0.105	24717	keystroke_a	a	n/a
12.4485	0.089	24897	keystroke_n	n	n/a
12.5535	0.105	25107	keystroke_t	t	n/a
12.6725	0.09	25345	keystroke_Key.space	Key.space	n/a
12.7475	0.091	25495	keystroke_t	t	n/a
12.8535	0.104	25707	keystroke_o	o	n/a
12.9125	0.106	25825	keystroke_u	u	n/a
12.9735	0.09	25947	keystroke_r	r	n/a
13.0925	0.091	26185	keystroke_i	i	n/a
13.1385	0.135	26277	keystroke_s	s	n/a
13.2585	0.059	26517	keystroke_t	t	n/a
13.3935	0.059	26787	keystroke_Key.enter	Key.enter	n/a
13.459	4.9465	26918	prompt	n/a	michelle textbooks dicke decades\n
14.2785	0.119	28557	keystroke_m	m	n/a
14.353	0.1055	28706	keystroke_i	i	n/a
14.4435	0.104	28887	keystroke_c	c	n/a
14.5325	0.09	29065	keystroke_h	h	n/a
14.6535	0.089	29307	keystroke_e	e	n/a
14.7575	0.06	29515	keystroke_l	l	n/a
14.9075	0.06	29815	keystroke_l	l	n/a
14.9835	0.105	29967	keystroke_e	e	n/a
15.1035	0.104	30207	keystroke_Key.space	Key.space	n/a
15.1925	0.09	30385	keystroke_t	t	n/a
15.2535	0.089	30507	keystroke_e	e	n/a
15.5675	0.091	31135	keystroke_x	x	n/a
15.8085	0.09	31617	keystroke_t	t	n/a
15.8835	0.105	31767	keystroke_b	b	n/a
15.9585	0.09	31917	keystroke_o	o	n/a
16.1385	0.12	32277	keystroke_o	o	n/a
16.1835	0.105	32367	keystroke_k	k	n/a
16.2735	0.09	32547	keystroke_s	s	n/a
16.3485	0.105	32697	keystroke_Key.space	Key.space	n/a
16.5585	0.09	33117	keystroke_d	d	n/a
16.6185	0.075	33237	keystroke_i	i	n/a
16.7385	0.105	33477	keystroke_c	c	n/a
16.8285	0.09	33657	keystroke_k	k	n/a
16.9345	0.074	33869	keystroke_e	e	n/a
17.0235	0.12	34047	keystroke_Key.space	Key.space	n/a
17.3535	0.12	34707	keystroke_d	d	n/a
17.4585	0.15	34917	keystroke_e	e	n/a
17.5935	0.12	35187	keystroke_c	c	n/a
17.7885	0.09	35577	keystroke_a	a	n/a
17.8485	0.12	35697	keystroke_d	d	n/a
17.9235	0.09	35847	keystroke_e	e	n/a
18.2085	0.015	36417	keystroke_s	s	n/a
18.3435	0.06	36687	keystroke_Key.enter	Key.enter	n/a
18.411	4.2095	36822	prompt	n/a	morrison strongly spell nelson\n
19.393	0.136	38786	keystroke_m	m	n/a
19.498	0.105	38996	keystroke_o	o	n/a
19.588	0.075	39176	keystroke_r	r	n/a
19.738	0.105	39476	keystroke_r	r	n/a
19.813	0.09	39626	keystroke_i	i	n/a
19.918	0.105	39836	keystroke_s	s	n/a
19.978	0.12	39956	keystroke_o	o	n/a
20.038	0.105	40076	keystroke_n	n	n/a
20.203	0.1205	40406	keystroke_Key.space	Key.space	n/a
20.2635	0.12	40527	keystroke_s	s	n/a
20.4285	0.06	40857	keystroke_t	t	n/a
20.5795	0.104	41159	keystroke_r	r	n/a
20.6235	0.105	41247	keystroke_o	o	n/a
20.6685	0.105	41337	keystroke_n	n	n/a
20.8035	0.075	41607	keystroke_g	g	n/a
20.8935	0.105	41787	keystroke_l	l	n/a
20.9685	0.09	41937	keystroke_y	y	n/a
21.0135	0.105	42027	keystroke_Key.space	Key.space	n/a
21.1035	0.105	42207	keystroke_s	s	n/a
21.2235	0.075	42447	keystroke_p	p	n/a
21.3435	0.075	42687	keystroke_e	e	n/a
21.4485	0.06	42897	keystroke_l	l	n/a
21.5685	0.105	43137	keystroke_l	l	n/a
21.6285	0.09	43257	keystroke_Key.space	Key.space	n/a
21.8385	0.09	43677	keystroke_n	n	n/a
21.9285	0.1045	43857	keystroke_e	e	n/a
22.048	0.06	44096	keystroke_l	l	n/a
22.154	0.074	44308	keystroke_s	s	n/a
22.243	0.091	44486	keystroke_o	o	n/a
22.303	0.091	44606	keystroke_n	n	n/a
22.528	0.09	45056	keystroke_Key.enter	Key.enter	n/a
22.6255	5.621	45251	prompt	n/a	relatives infants algorithms according\n
23.294	0.12	46588	keystroke_r	r	n/a
23.414	0.119	46828	keystroke_e	e	n/a
23.548	0.106	47096	keystroke_l	l	n/a
23.668	0.09	47336	keystroke_a	a	n/a
23.773	0.075	47546	keystroke_t	t	n/a
23.863	0.075	47726	keystroke_i	i	n/a
23.998	0.1355	47996	keystroke_v	v	n/a
24.0585	0.135	48117	keystroke_e	e	n/a
24.3285	0.105	48657	keystroke_s	s	n/a
24.4485	0.075	48897	keystroke_Key.space	Key.space	n/a
24.5385	0.12	49077	keystroke_i	i	n/a
24.6285	0.105	49257	keystroke_n	n	n/a
24.7185	0.09	49437	keystroke_f	f	n/a
24.8235	0.105	49647	keystroke_a	a	n/a
24.8985	0.09	49797	keystroke_n	n	n/a
25.0035	0.06	50007	keystroke_t	t	n/a
25.1085	0.12	50217	keystroke_s	s	n/a
25.2135	0.105	50427	keystroke_Key.space	Key.space	n/a
25.3335	0.09	50667	keystroke_a	a	n/a
25.4385	0.09	50877	keystroke_l	l	n/a
25.5435	0.09	51087	keystroke_g	g	n/a
25.6635	0.075	51327	keystroke_o	o	n/a
25.7535	0.105	51507	keystroke_r	r	n/a
25.8585	0.075	51717	keystroke_i	i	n/a
25.9485	0.105	51897	keystroke_t	t	n/a
26.0385	0.12	52077	keystroke_h	h	n/a
26.1285	0.09	52257	keystroke_m	m	n/a
26.2035	0.105	52407	keystroke_s	s	n/a
26.3385	0.105	52677	keystroke_Key.space	Key.space	n/a
26.4285	0.105	52857	keystroke_a	a	n/a
26.5635	0.06	53127	keystroke_c	c	n/a
26.6835	0.105	53367	keystroke_c	c	n/a
26.8035	0.09	53607	keystroke_o	o	n/a
27.088	0.105	54176	keystroke_r	r	n/a
27.373	0.12	54746	keystroke_d	d	n/a
27.508	0.1205	55016	keystroke_i	i	n/a
27.5835	0.09	55167	keystroke_n	n	n/a
27.6435	0.075	55287	keystroke_g	g	n/a
28.183	0.06	56366	keystroke_Key.enter	Key.enter	n/a
28.2515	6.5645	56503	prompt	n/a	volkswagen bits hollow sheriff\n
28.904	0.09	57808	keystroke_v	v	n/a
28.994	0.09	57988	keystroke_o	o	n/a
29.219	0.134	58438	keystroke_l	l	n/a
29.293	0.105	58586	keystroke_k	k	n/a
29.594	0.089	59188	keystroke_s	s	n/a
29.848	0.091	59696	keystroke_w	w	n/a
30.418	0.075	60836	keystroke_a	a	n/a
30.629	0.105	61258	keystroke_g	g	n/a
30.718	0.091	61436	keystroke_e	e	n/a
30.779	0.105	61558	keystroke_n	n	n/a
30.958	0.105	61916	keystroke_Key.space	Key.space	n/a
31.154	0.06	62308	keystroke_b	b	n/a
31.363	0.09	62726	keystroke_i	i	n/a
31.409	0.075	62818	keystroke_t	t	n/a
31.573	0.09	63146	keystroke_s	s	n/a
31.678	0.09	63356	keystroke_Key.space	Key.space	n/a
31.813	0.091	63626	keystroke_h	h	n/a
31.873	0.106	63746	keystroke_o	o	n/a
32.083	0.075	64166	keystroke_l	l	n/a
32.218	0.075	64436	keystroke_l	l	n/a
32.414	0.104	64828	keystroke_o	o	n/a
32.489	0.12	64978	keystroke_w	w	n/a
32.593	0.091	65186	keystroke_Key.space	Key.space	n/a
32.714	0.12	65428	keystroke_s	s	n/a
32.819	0.09	65638	keystroke_h	h	n/a
32.893	0.075	65786	keystroke_i	i	n/a
33.343	0.075	66686	keystroke_Key.backspace	Key.backspace	n/a
33.464	0.135	66928	keystroke_e	e	n/a
33.569	0.105	67138	keystroke_r	r	n/a
34.154	0.09	68308	keystroke_i	i	n/a
34.258	0.091	68516	keystroke_f	f	n/a
34.424	0.074	68848	keystroke_f	f	n/a
34.664	0.149	69328	keystroke_Key.enter	Key.enter	n/a
34.8195	5.4485	69639	prompt	n/a	poverty please soap significant\n
35.939	0.075	71878	keystroke_p	p	n/a
36.074	0.105	72148	keystroke_o	o	n/a
36.163	0.091	72326	keystroke_v	v	n/a
36.329	0.135	72658	keystroke_e	e	n/a
36.419	0.09	72838	keystroke_r	r	n/a
36.599	0.09	73198	keystroke_t	t	n/a
36.674	0.105	73348	keystroke_y	y	n/a
36.763	0.15	73526	keystroke_Key.space	Key.space	n/a
36.959	0.135	73918	keystroke_p	p	n/a
37.034	0.105	74068	keystroke_l	l	n/a
37.109	0.165	74218	keystroke_e	e	n/a
37.229	0.06	74458	keystroke_a	a	n/a
37.634	0.09	75268	keystroke_s	s	n/a
37.843	0.076	75686	keystroke_e	e	n/a
37.888	0.135	75776	keystroke_Key.space	Key.space	n/a
38.113	0.106	76226	keystroke_s	s	n/a
38.323	0.091	76646	keystroke_o	o	n/a
38.443	0.076	76886	keystroke_a	a	n/a
38.609	0.06	77218	keystroke_p	p	n/a
38.729	0.105	77458	keystroke_Key.space	Key.space	n/a
38.849	0.12	77698	keystroke_s	s	n/a
38.939	0.105	77878	keystroke_i	i	n/a
39.089	0.104	78178	keystroke_g	g	n/a
39.239	0.15	78478	keystroke_n	n	n/a
39.359	0.105	78718	keystroke_i	i	n/a
39.449	0.09	78898	keystroke_f	f	n/a
39.554	0.09	79108	keystroke_i	i	n/a
39.673	0.121	79346	keystroke_c	c	n/a
39.779	0.12	79558	keystroke_a	a	n/a
39.884	0.09	79768	keystroke_n	n	n/a
40.004	0.0745	80008	keystroke_t	t	n/a
40.1375	0.1205	80275	keystroke_Key.enter	Key.enter	n/a
40.274	9.651	80548	prompt	n/a	pharmaceutical down inspector searched\n
44.237	0	88474	keystroke_p	p	n/a
44.789	0.12	89578	keystroke_h	h	n/a
44.924	0.134	89848	keystroke_a	a	n/a
45.014	0.135	90028	keystroke_r	r	n/a
45.164	0.12	90328	keystroke_m	m	n/a
45.313	0.136	90626	keystroke_a	a	n/a
45.509	0.134	91018	keystroke_c	c	n/a
45.613	0.106	91226	keystroke_e	e	n/a
45.734	0.074	91468	keystroke_u	u	n/a
45.824	0.15	91648	keystroke_t	t	n/a
45.914	0.12	91828	keystroke_i	i	n/a
46.064	0.149	92128	keystroke_c	c	n/a
46.168	0.121	92336	keystroke_a	a	n/a
46.199	0.15	92398	keystroke_l	l	n/a
46.363	0.09	92726	keystroke_Key.space	Key.space	n/a
46.544	0.09	93088	keystroke_d	d	n/a
46.663	0.106	93326	keystroke_o	o	n/a
46.784	0.075	93568	keystroke_w	w	n/a
46.829	0.105	93658	keystroke_n	n	n/a
47.023	0.09	94046	keystroke_Key.space	Key.space	n/a
47.204	0.12	94408	keystroke_i	i	n/a
47.279	0.089	94558	keystroke_n	n	n/a
47.383	0.106	94766	keystroke_s	s	n/a
47.473	0.105	94946	keystroke_p	p	n/a
47.594	0.119	95188	keystroke_e	e	n/a
47.653	0.12	95306	keystroke_c	c	n/a
48.013	0.015	96026	keystroke_t	t	n/a
48.043	0.061	96086	keystroke_o	o	n/a
48.089	0.104	96178	keystroke_r	r	n/a
48.223	0.12	96446	keystroke_Key.space	Key.space	n/a
48.313	0.136	96626	keystroke_s	s	n/a
48.538	0.151	97076	keystroke_e	e	n/a
48.583	0.12	97166	keystroke_a	a	n/a
48.628	0.09	97256	keystroke_r	r	n/a
48.854	0.105	97708	keystroke_c	c	n/a
48.929	0.09	97858	keystroke_h	h	n/a
49.064	0.074	98128	keystroke_e	e	n/a
49.109	0.09	98218	keystroke_d	d	n/a
49.798	0.12	99596	keystroke_Key.enter	Key.enter	n/a
49.926	4.464	99852	prompt	n/a	cloudy parish born reid\n
51.358	0.091	102716	keystroke_c	c	n/a
51.418	0.106	102836	keystroke_l	l	n/a
51.629	0.135	103258	keystroke_o	o	n/a
51.749	0.09	103498	keystroke_u	u	n/a
51.854	0.075	103708	keystroke_d	d	n/a
52.124	0.105	104248	keystroke_y	y	n/a
52.243	0.09	104486	keystroke_Key.space	Key.space	n/a
52.424	0.075	104848	keystroke_p	p	n/a
52.574	0.105	105148	keystroke_a	a	n/a
52.663	0.136	105326	keystroke_r	r	n/a
52.768	0.091	105536	keystroke_i	i	n/a
52.874	0.119	105748	keystroke_s	s	n/a
52.979	0.104	105958	keystroke_h	h	n/a
53.068	0.105	106136	keystroke_Key.space	Key.space	n/a
53.218	0.061	106436	keystroke_b	b	n/a
53.368	0.106	106736	keystroke_o	o	n/a
53.429	0.12	106858	keystroke_r	r	n/a
53.519	0.09	107038	keystroke_n	n	n/a
53.684	0.119	107368	keystroke_Key.space	Key.space	n/a
53.788	0.105	107576	keystroke_r	r	n/a
53.863	0.106	107726	keystroke_e	e	n/a
53.954	0.12	107908	keystroke_i	i	n/a
54.088	0.091	108176	keystroke_d	d	n/a
54.283	0.105	108566	keystroke_Key.enter	Key.enter	n/a
54.3945	4.781	108789	prompt	n/a	scales february weight explains\n
55.018	0.136	110036	keystroke_s	s	n/a
55.184	0.135	110368	keystroke_c	c	n/a
55.304	0.134	110608	keystroke_a	a	n/a
55.424	0.075	110848	keystroke_l	l	n/a
55.529	0.089	111058	keystroke_e	e	n/a
55.724	0.089	111448	keystroke_s	s	n/a
55.828	0.091	111656	keystroke_Key.space	Key.space	n/a
55.964	0.12	111928	keystroke_f	f	n/a
56.114	0.105	112228	keystroke_e	e	n/a
56.519	0.105	113038	keystroke_b	b	n/a
56.668	0.121	113336	keystroke_r	r	n/a
56.729	0.12	113458	keystroke_u	u	n/a
56.863	0.106	113726	keystroke_a	a	n/a
56.924	0.105	113848	keystroke_r	r	n/a
56.999	0.105	113998	keystroke_y	y	n/a
57.059	0.105	114118	keystroke_Key.space	Key.space	n/a
57.224	0.12	114448	keystroke_w	w	n/a
57.433	0.106	114866	keystroke_e	e	n/a
57.494	0.075	114988	keystroke_i	i	n/a
57.704	0.135	115408	keystroke_g	g	n/a
57.779	0.12	115558	keystroke_h	h	n/a
57.854	0.105	115708	keystroke_t	t	n/a
57.973	0.09	115946	keystroke_Key.space	Key.space	n/a
58.064	0.09	116128	keystroke_e	e	n/a
58.274	0.09	116548	keystroke_x	x	n/a
58.349	0.105	116698	keystroke_p	p	n/a
58.394	0.119	116788	keystroke_l	l	n/a
58.649	0.09	117298	keystroke_a	a	n/a
58.724	0.105	117448	keystroke_i	i	n/a
58.799	0.09	117598	keystroke_n	n	n/a
58.919	0.075	117838	keystroke_s	s	n/a
59.099	0.075	118198	keystroke_Key.enter	Key.enter	n/a
59.1795	4.1815	118359	prompt	n/a	addition permit arabic innovation\n
59.699	0.135	119398	keystroke_a	a	n/a
59.804	0.075	119608	keystroke_d	d	n/a
59.938	0.121	119876	keystroke_d	d	n/a
60.074	0.105	120148	keystroke_i	i	n/a
60.224	0.09	120448	keystroke_t	t	n/a
60.299	0.15	120598	keystroke_i	i	n/a
60.344	0.12	120688	keystroke_o	o	n/a
60.404	0.105	120808	keystroke_n	n	n/a
60.584	0.12	121168	keystroke_Key.space	Key.space	n/a
60.674	0.15	121348	keystroke_p	p	n/a
60.749	0.12	121498	keystroke_e	e	n/a
60.809	0.105	121618	keystroke_r	r	n/a
60.899	0.075	121798	keystroke_m	m	n/a
60.929	0.12	121858	keystroke_i	i	n/a
61.034	0.09	122068	keystroke_t	t	n/a
61.138	0.105	122276	keystroke_Key.space	Key.space	n/a
61.259	0.105	122518	keystroke_a	a	n/a
61.349	0.105	122698	keystroke_r	r	n/a
61.439	0.09	122878	keystroke_a	a	n/a
61.484	0.06	122968	keystroke_b	b	n/a
61.679	0.09	123358	keystroke_i	i	n/a
61.753	0.091	123506	keystroke_c	c	n/a
61.858	0.1045	123716	keystroke_Key.space	Key.space	n/a
61.9935	0.12	123987	keystroke_i	i	n/a
62.0685	0.09	124137	keystroke_n	n	n/a
62.2185	0.12	124437	keystroke_n	n	n/a
62.3085	0.12	124617	keystroke_o	o	n/a
62.3985	0.075	124797	keystroke_v	v	n/a
62.5335	0.09	125067	keystroke_a	a	n/a
62.6685	0.075	125337	keystroke_t	t	n/a
62.7285	0.105	125457	keystroke_i	i	n/a
62.7735	0.135	125547	keystroke_o	o	n/a
62.8035	0.135	125607	keystroke_n	n	n/a
63.2235	0.135	126447	keystroke_Key.enter	Key.enter	n/a
63.366	3.954	126732	prompt	n/a	singer dressing remained skilled\n
63.9585	0.12	127917	keystroke_s	s	n/a
64.0485	0.105	128097	keystroke_i	i	n/a
64.0935	0.12	128187	keystroke_n	n	n/a
64.1835	0.075	128367	keystroke_g	g	n/a
64.2735	0.135	128547	keystroke_e	e	n/a
64.3635	0.105	128727	keystroke_r	r	n/a
64.4525	0.106	128905	keystroke_Key.space	Key.space	n/a
64.6035	0.105	129207	keystroke_d	d	n/a
64.7835	0.105	129567	keystroke_r	r	n/a
64.8435	0.135	129687	keystroke_e	e	n/a
65.0685	0.105	130137	keystroke_s	s	n/a
65.2335	0.075	130467	keystroke_s	s	n/a
65.3235	0.09	130647	keystroke_i	i	n/a
65.3835	0.075	130767	keystroke_n	n	n/a
65.4735	0.105	130947	keystroke_g	g	n/a
65.5635	0.104	131127	keystroke_Key.space	Key.space	n/a
65.7135	0.075	131427	keystroke_r	r	n/a
65.7585	0.12	131517	keystroke_e	e	n/a
65.8635	0.12	131727	keystroke_m	m	n/a
65.9685	0.105	131937	keystroke_a	a	n/a
66.0285	0.105	132057	keystroke_i	i	n/a
66.0885	0.105	132177	keystroke_n	n	n/a
66.1485	0.105	132297	keystroke_e	e	n/a
66.2085	0.12	132417	keystroke_d	d	n/a
66.2835	0.105	132567	keystroke_Key.space	Key.space	n/a
66.4785	0.09	132957	keystroke_s	s	n/a
66.5385	0.045	133077	keystroke_k	k	n/a
66.6735	0.105	133347	keystroke_i	i	n/a
66.7485	0.075	133497	keystroke_l	l	n/a
66.8985	0.09	133797	keystroke_l	l	n/a
67.0035	0.12	134007	keystroke_e	e	n/a
67.0635	0.105	134127	keystroke_d	d	n/a
67.184	0.1345	134368	keystroke_Key.enter	Key.enter	n/a
67.324	4.7665	134648	prompt	n/a	bleeding planned that'd guilty\n
67.9785	0.06	135957	keystroke_b	b	n/a
68.1585	0.105	136317	keystroke_l	l	n/a
68.2335	0.09	136467	keystroke_e	e	n/a
68.3835	0.135	136767	keystroke_e	e	n/a
68.4735	0.15	136947	keystroke_d	d	n/a
68.5485	0.12	137097	keystroke_i	i	n/a
68.6085	0.09	137217	keystroke_n	n	n/a
68.7285	0.075	137457	keystroke_g	g	n/a
68.7735	0.12	137547	keystroke_Key.space	Key.space	n/a
68.9235	0.075	137847	keystroke_p	p	n/a
69.1185	0.075	138237	keystroke_l	l	n/a
69.2085	0.105	138417	keystroke_a	a	n/a
69.2835	0.045	138567	keystroke_n	n	n/a
69.4185	0.09	138837	keystroke_n	n	n/a
69.4785	0.15	138957	keystroke_e	e	n/a
69.5535	0.135	139107	keystroke_d	d	n/a
69.6435	0.105	139287	keystroke_Key.space	Key.space	n/a
69.7935	0.09	139587	keystroke_t	t	n/a
69.8535	0.06	139707	keystroke_h	h	n/a
69.9285	0.09	139857	keystroke_a	a	n/a
70.0035	0.09	140007	keystroke_t	t	n/a
70.5285	0.075	141057	keystroke_'	'	n/a
70.6785	0.105	141357	keystroke_d	d	n/a
70.8435	0.09	141687	keystroke_Key.space	Key.space	n/a
70.9785	0.105	141957	keystroke_b	b	n/a
71.0685	0.105	142137	keystroke_e	e	n/a
71.1585	0.09	142317	keystroke_Key.space	Key.space	n/a
71.2785	0.09	142557	keystroke_g	g	n/a
71.3835	0.12	142767	keystroke_u	u	n/a
71.4285	0.165	142857	keystroke_i	i	n/a
71.4885	0.15	142977	keystroke_l	l	n/a
71.5785	0.105	143157	keystroke_t	t	n/a
71.6845	0.074	143369	keystroke_y	y	n/a
71.9835	0.105	143967	keystroke_Key.enter	Key.enter	n/a
72.0945	9.686	144189	prompt	n/a	kijiji dimension semiconductor indication\n
72.7035	0.12	145407	keystroke_k	k	n/a
73.0035	0.105	146007	keystroke_i	i	n/a
73.9185	0.09	147837	keystroke_j	j	n/a
74.0235	0.045	148047	keystroke_i	i	n/a
75.7185	0.105	151437	keystroke_j	j	n/a
75.9885	0.105	151977	keystroke_i	i	n/a
76.7985	0.105	153597	keystroke_Key.space	Key.space	n/a
77.0385	0.12	154077	keystroke_d	d	n/a
77.1285	0.135	154257	keystroke_i	i	n/a
77.2035	0.135	154407	keystroke_m	m	n/a
77.3535	0.09	154707	keystroke_e	e	n/a
77.4735	0.105	154947	keystroke_n	n	n/a
77.5635	0.105	155127	keystroke_s	s	n/a
77.6535	0.135	155307	keystroke_i	i	n/a
77.7735	0.045	155547	keystroke_o	o	n/a
77.8035	0.09	155607	keystroke_n	n	n/a
78.3885	0.12	156777	keystroke_Key.space	Key.space	n/a
78.5835	0.135	157167	keystroke_s	s	n/a
78.8985	0.075	157797	keystroke_e	e	n/a
78.9735	0.135	157947	keystroke_m	m	n/a
79.0785	0.105	158157	keystroke_i	i	n/a
79.4685	0.105	158937	keystroke_c	c	n/a
79.5585	0.105	159117	keystroke_o	o	n/a
79.6335	0.105	159267	keystroke_n	n	n/a
79.7385	0.09	159477	keystroke_d	d	n/a
79.8435	0.12	159687	keystroke_u	u	n/a
79.9485	0.09	159897	keystroke_c	c	n/a
80.1585	0.09	160317	keystroke_t	t	n/a
80.2635	0.09	160527	keystroke_o	o	n/a
80.3685	0.12	160737	keystroke_r	r	n/a
80.4735	0.12	160947	keystroke_Key.space	Key.space	n/a
80.6085	0.12	161217	keystroke_i	i	n/a
80.6835	0.135	161367	keystroke_n	n	n/a
80.8035	0.09	161607	keystroke_d	d	n/a
80.9235	0.105	161847	keystroke_i	i	n/a
80.9985	0.09	161997	keystroke_c	c	n/a
81.1485	0.135	162297	keystroke_a	a	n/a
81.2985	0.075	162597	keystroke_t	t	n/a
81.3585	0.15	162717	keystroke_i	i	n/a
81.4185	0.12	162837	keystroke_o	o	n/a
81.4935	0.09	162987	keystroke_n	n	n/a
81.6585	0.12	163317	keystroke_Key.enter	Key.enter	n/a
81.7865	4.928	163573	prompt	n/a	forget anywhere quality mills\n
82.4385	0.09	164877	keystroke_f	f	n/a
82.5435	0.09	165087	keystroke_o	o	n/a
82.6185	0.075	165237	keystroke_r	r	n/a
82.8135	0.075	165627	keystroke_g	g	n/a
82.9035	0.15	165807	keystroke_e	e	n/a
83.0085	0.09	166017	keystroke_t	t	n/a
83.0835	0.075	166167	keystroke_Key.space	Key.space	n/a
83.2485	0.09	166497	keystroke_a	a	n/a
83.3085	0.135	166617	keystroke_n	n	n/a
83.3835	0.09	166767	keystroke_y	y	n/a
83.4435	0.015	166887	keystroke_u	u	n/a
83.4885	0.105	166977	keystroke_w	w	n/a
84.0885	0.06	168177	keystroke_Key.backspace	Key.backspace	n/a
84.2385	0.09	168477	keystroke_Key.backspace	Key.backspace	n/a
84.4485	0.105	168897	keystroke_w	w	n/a
84.5235	0.12	169047	keystroke_h	h	n/a
84.6585	0.12	169317	keystroke_e	e	n/a
84.7485	0.12	169497	keystroke_r	r	n/a
84.8385	0.135	169677	keystroke_e	e	n/a
84.9435	0.12	169887	keystroke_Key.space	Key.space	n/a
85.2285	0.105	170457	keystroke_q	q	n/a
85.2735	0.105	170547	keystroke_u	u	n/a
85.4685	0.12	170937	keystroke_a	a	n/a
85.5735	0.135	171147	keystroke_l	l	n/a
85.6185	0.12	171237	keystroke_i	i	n/a
85.7095	0.104	171419	keystroke_t	t	n/a
85.7985	0.09	171597	keystroke_y	y	n/a
85.8585	0.075	171717	keystroke_Key.space	Key.space	n/a
86.0685	0.075	172137	keystroke_m	m	n/a
86.1135	0.12	172227	keystroke_i	i	n/a
86.1885	0.075	172377	keystroke_l	l	n/a
86.3235	0.105	172647	keystroke_l	l	n/a
86.4435	0.075	172887	keystroke_s	s	n/a
86.5785	0.135	173157	keystroke_Key.enter	Key.enter	n/a
86.718	4.2725	173436	prompt	n/a	portal referring interesting exit\n
87.2535	0.15	174507	keystroke_p	p	n/a
87.3585	0.105	174717	keystroke_o	o	n/a
87.4185	0.075	174837	keystroke_r	r	n/a
87.5685	0.105	175137	keystroke_t	t	n/a
87.6745	0.104	175349	keystroke_a	a	n/a
87.7035	0.12	175407	keystroke_l	l	n/a
87.8235	0.12	175647	keystroke_Key.space	Key.space	n/a
87.9135	0.105	175827	keystroke_r	r	n/a
88.2135	0.12	176427	keystroke_e	e	n/a
88.3035	0.12	176607	keystroke_f	f	n/a
88.4085	0.135	176817	keystroke_e	e	n/a
88.5135	0.075	177027	keystroke_r	r	n/a
88.6635	0.105	177327	keystroke_r	r	n/a
88.7385	0.12	177477	keystroke_i	i	n/a
88.8135	0.075	177627	keystroke_n	n	n/a
88.9035	0.09	177807	keystroke_g	g	n/a
89.0385	0.075	178077	keystroke_Key.space	Key.space	n/a
89.1435	0.12	178287	keystroke_i	i	n/a
89.2035	0.12	178407	keystroke_n	n	n/a
89.2785	0.09	178557	keystroke_t	t	n/a
89.3535	0.12	178707	keystroke_e	e	n/a
89.4585	0.12	178917	keystroke_r	r	n/a
89.5335	0.12	179067	keystroke_e	e	n/a
89.7435	0.135	179487	keystroke_s	s	n/a
89.8635	0.12	179727	keystroke_t	t	n/a
89.9385	0.075	179877	keystroke_i	i	n/a
89.9685	0.105	179937	keystroke_n	n	n/a
90.0885	0.09	180177	keystroke_g	g	n/a
90.1935	0.105	180387	keystroke_Key.space	Key.space	n/a
90.2685	0.12	180537	keystroke_e	e	n/a
90.4785	0.105	180957	keystroke_x	x	n/a
90.5535	0.105	181107	keystroke_i	i	n/a
90.7335	0.09	181467	keystroke_t	t	n/a
90.9135	0.075	181827	keystroke_Key.enter	Key.enter	n/a
90.994	4.766	181988	prompt	n/a	expired cdna persistent fallen\n
91.5585	0.12	183117	keystroke_e	e	n/a
91.8885	0.12	183777	keystroke_x	x	n/a
91.9635	0.135	183927	keystroke_p	p	n/a
92.0535	0.12	184107	keystroke_i	i	n/a
92.1435	0.12	184287	keystroke_r	r	n/a
92.2485	0.15	184497	keystroke_e	e	n/a
92.3535	0.12	184707	keystroke_d	d	n/a
92.4435	0.105	184887	keystroke_Key.space	Key.space	n/a
92.7295	0.119	185459	keystroke_c	c	n/a
92.9535	0.105	185907	keystroke_d	d	n/a
93.0735	0.105	186147	keystroke_n	n	n/a
93.2085	0.09	186417	keystroke_a	a	n/a
93.2835	0.105	186567	keystroke_Key.space	Key.space	n/a
93.4185	0.12	186837	keystroke_p	p	n/a
93.4935	0.135	186987	keystroke_e	e	n/a
93.5685	0.09	187137	keystroke_r	r	n/a
93.7335	0.09	187467	keystroke_s	s	n/a
93.8245	0.089	187649	keystroke_i	i	n/a
93.8985	0.105	187797	keystroke_s	s	n/a
94.0485	0.12	188097	keystroke_t	t	n/a
94.1535	0.105	188307	keystroke_e	e	n/a
94.2735	0.105	188547	keystroke_n	n	n/a
94.3935	0.09	188787	keystroke_t	t	n/a
94.4985	0.105	188997	keystroke_Key.space	Key.space	n/a
94.7085	0.075	189417	keystroke_f	f	n/a
94.8135	0.135	189627	keystroke_a	a	n/a
94.9035	0.06	189807	keystroke_l	l	n/a
95.0085	0.09	190017	keystroke_l	l	n/a
95.1135	0.045	190227	keystroke_e	e	n/a
95.1885	0.105	190377	keystroke_n	n	n/a
95.6535	0.105	191307	keystroke_Key.enter	Key.enter	n/a
95.765	6.145	191530	prompt	n/a	doom bloggers accountability arbitration\n
96.3735	0.09	192747	keystroke_d	d	n/a
96.4485	0.075	192897	keystroke_o	o	n/a
96.5985	0.105	193197	keystroke_o	o	n/a
96.6585	0.12	193317	keystroke_m	m	n/a
96.9585	0.09	193917	keystroke_Key.space	Key.space	n/a
97.0635	0.09	194127	keystroke_b	b	n/a
97.2585	0.075	194517	keystroke_l	l	n/a
97.4385	0.06	194877	keystroke_o	o	n/a
97.5135	0.09	195027	keystroke_g	g	n/a
97.6935	0.06	195387	keystroke_g	g	n/a
97.8285	0.15	195657	keystroke_e	e	n/a
97.9035	0.09	195807	keystroke_r	r	n/a
98.0535	0.105	196107	keystroke_s	s	n/a
98.1435	0.105	196287	keystroke_Key.space	Key.space	n/a
98.3535	0.12	196707	keystroke_a	a	n/a
98.4435	0.09	196887	keystroke_c	c	n/a
98.5935	0.105	197187	keystroke_c	c	n/a
98.6685	0.15	197337	keystroke_o	o	n/a
98.7285	0.12	197457	keystroke_u	u	n/a
98.8035	0.09	197607	keystroke_n	n	n/a
98.8785	0.105	197757	keystroke_t	t	n/a
99.0285	0.105	198057	keystroke_a	a	n/a
99.2985	0.12	198597	keystroke_b	b	n/a
99.3885	0.135	198777	keystroke_i	i	n/a
99.5085	0.165	199017	keystroke_l	l	n/a
99.6435	0.105	199287	keystroke_i	i	n/a
99.7335	0.105	199467	keystroke_t	t	n/a
99.8685	0.03	199737	keystroke_y	y	n/a
99.8985	0.12	199797	keystroke_Key.space	Key.space	n/a
100.3185	0.105	200637	keystroke_a	a	n/a
100.4385	0.075	200877	keystroke_r	r	n/a
100.5885	0.135	201177	keystroke_b	b	n/a
100.7385	0.105	201477	keystroke_i	i	n/a
100.9635	0.105	201927	keystroke_t	t	n/a
101.1585	0.09	202317	keystroke_r	r	n/a
101.2635	0.105	202527	keystroke_a	a	n/a
101.3535	0.09	202707	keystroke_t	t	n/a
101.4135	0.135	202827	keystroke_i	i	n/a
101.4735	0.135	202947	keystroke_o	o	n/a
101.5935	0.045	203187	keystroke_n	n	n/a
101.7735	0.135	203547	keystroke_Key.enter	Key.enter	n/a
101.9155	5.62	203831	prompt	n/a	carefully afghanistan packing operational\n
102.5235	0.12	205047	keystroke_c	c	n/a
102.7185	0.105	205437	keystroke_a	a	n/a
102.8245	0.119	205649	keystroke_r	r	n/a
102.8835	0.135	205767	keystroke_e	e	n/a
103.0635	0.105	206127	keystroke_f	f	n/a
103.1535	0.09	206307	keystroke_u	u	n/a
103.1985	0.09	206397	keystroke_l	l	n/a
103.3485	0.12	206697	keystroke_l	l	n/a
103.4385	0.105	206877	keystroke_y	y	n/a
103.5135	0.12	207027	keystroke_Key.space	Key.space	n/a
103.6185	0.135	207237	keystroke_a	a	n/a
103.7385	0.09	207477	keystroke_f	f	n/a
103.9335	0.075	207867	keystroke_g	g	n/a
103.9635	0.09	207927	keystroke_h	h	n/a
104.1435	0.12	208287	keystroke_a	a	n/a
104.2785	0.105	208557	keystroke_n	n	n/a
104.6985	0.135	209397	keystroke_i	i	n/a
104.8635	0.165	209727	keystroke_s	s	n/a
104.9985	0.09	209997	keystroke_t	t	n/a
105.1035	0.105	210207	keystroke_a	a	n/a
105.1785	0.105	210357	keystroke_n	n	n/a
105.4035	0.105	210807	keystroke_Key.space	Key.space	n/a
105.4785	0.105	210957	keystroke_p	p	n/a
105.5385	0.165	211077	keystroke_a	a	n/a
105.7185	0.105	211437	keystroke_c	c	n/a
105.7635	0.09	211527	keystroke_k	k	n/a
105.9435	0.105	211887	keystroke_i	i	n/a
106.0035	0.09	212007	keystroke_n	n	n/a
106.0785	0.075	212157	keystroke_g	g	n/a
106.1685	0.09	212337	keystroke_Key.space	Key.space	n/a
106.3335	0.135	212667	keystroke_o	o	n/a
106.3785	0.105	212757	keystroke_p	p	n/a
106.4695	0.134	212939	keystroke_e	e	n/a
106.5585	0.09	213117	keystroke_r	r	n/a
106.6935	0.105	213387	keystroke_a	a	n/a
106.7835	0.06	213567	keystroke_t	t	n/a
106.7995	0.119	213599	keystroke_i	i	n/a
106.8585	0.105	213717	keystroke_o	o	n/a
106.8885	0.105	213777	keystroke_n	n	n/a
107.0085	0.105	214017	keystroke_a	a	n/a
107.1285	0.105	214257	keystroke_l	l	n/a
107.4135	0.12	214827	keystroke_Key.enter	Key.enter	n/a
107.543	3.472	215086	prompt	n/a	shades mills carol wife\n
108.1935	0.12	216387	keystroke_s	s	n/a
108.2685	0.12	216537	keystroke_h	h	n/a
108.3735	0.09	216747	keystroke_a	a	n/a
108.4485	0.12	216897	keystroke_d	d	n/a
108.5235	0.12	217047	keystroke_e	e	n/a
108.7335	0.09	217467	keystroke_s	s	n/a
108.8385	0.09	217677	keystroke_Key.space	Key.space	n/a
109.0785	0.12	218157	keystroke_m	m	n/a
109.1685	0.105	218337	keystroke_i	i	n/a
109.2435	0.06	218487	keystroke_l	l	n/a
109.3935	0.105	218787	keystroke_l	l	n/a
109.5135	0.105	219027	keystroke_s	s	n/a
109.6335	0.12	219267	keystroke_Key.space	Key.space	n/a
109.7235	0.09	219447	keystroke_c	c	n/a
109.8735	0.105	219747	keystroke_a	a	n/a
109.9635	0.09	219927	keystroke_r	r	n/a
110.0685	0.12	220137	keystroke_o	o	n/a
110.3085	0.09	220617	keystroke_l	l	n/a
110.4135	0.12	220827	keystroke_Key.space	Key.space	n/a
110.5485	0.12	221097	keystroke_w	w	n/a
110.6385	0.105	221277	keystroke_i	i	n/a
110.7445	0.105	221489	keystroke_f	f	n/a
110.8185	0.105	221637	keystroke_e	e	n/a
110.9085	0.105	221817	keystroke_Key.enter	Key.enter	n/a
111.021	4.779	222042	prompt	n/a	applications estimated manager donated\n
111.6135	0.105	223227	keystroke_a	a	n/a
111.7035	0.075	223407	keystroke_p	p	n/a
111.8385	0.06	223677	keystroke_p	p	n/a
112.0335	0.09	224067	keystroke_l	l	n/a
112.2735	0.09	224547	keystroke_i	i	n/a
112.3485	0.075	224697	keystroke_c	c	n/a
112.5135	0.105	225027	keystroke_a	a	n/a
112.6335	0.09	225267	keystroke_t	t	n/a
112.6935	0.15	225387	keystroke_i	i	n/a
112.7385	0.135	225477	keystroke_o	o	n/a
112.7985	0.09	225597	keystroke_n	n	n/a
112.9035	0.09	225807	keystroke_s	s	n/a
113.0085	0.12	226017	keystroke_Key.space	Key.space	n/a
113.1585	0.105	226317	keystroke_e	e	n/a
113.3835	0.15	226767	keystroke_s	s	n/a
113.4885	0.09	226977	keystroke_t	t	n/a
113.5185	0.105	227037	keystroke_i	i	n/a
113.5785	0.135	227157	keystroke_m	m	n/a
113.6985	0.075	227397	keystroke_a	a	n/a
113.7435	0.105	227487	keystroke_t	t	n/a
113.8335	0.165	227667	keystroke_e	e	n/a
113.9685	0.12	227937	keystroke_d	d	n/a
114.0435	0.105	228087	keystroke_Key.space	Key.space	n/a
114.2835	0.075	228567	keystroke_m	m	n/a
114.3435	0.09	228687	keystroke_a	a	n/a
114.4485	0.12	228897	keystroke_n	n	n/a
114.5235	0.075	229047	keystroke_a	a	n/a
114.6435	0.121	229287	keystroke_g	g	n/a
114.7485	0.12	229497	keystroke_e	e	n/a
114.8535	0.09	229707	keystroke_r	r	n/a
114.9285	0.12	229857	keystroke_Key.space	Key.space	n/a
115.0785	0.105	230157	keystroke_d	d	n/a
115.1535	0.09	230307	keystroke_o	o	n/a
115.2135	0.09	230427	keystroke_n	n	n/a
115.2735	0.06	230547	keystroke_a	a	n/a
115.3345	0.104	230669	keystroke_t	t	n/a
115.4235	0.12	230847	keystroke_e	e	n/a
115.5585	0.075	231117	keystroke_d	d	n/a
115.7385	0.06	231477	keystroke_Key.enter	Key.enter	n/a
115.804	4.2115	231608	prompt	n/a	relax deny auckland relatives\n
116.3545	0.104	232709	keystroke_r	r	n/a
116.4885	0.06	232977	keystroke_l	l	n/a
116.9085	0.06	233817	keystroke_Key.backspace	Key.backspace	n/a
117.0285	0.105	234057	keystroke_e	e	n/a
117.1485	0.09	234297	keystroke_l	l	n/a
117.2395	0.119	234479	keystroke_a	a	n/a
117.3285	0.105	234657	keystroke_x	x	n/a
117.4485	0.105	234897	keystroke_Key.space	Key.space	n/a
117.5835	0.135	235167	keystroke_d	d	n/a
117.6885	0.12	235377	keystroke_e	e	n/a
117.7485	0.121	235497	keystroke_n	n	n/a
117.8535	0.135	235707	keystroke_y	y	n/a
117.9735	0.09	235947	keystroke_Key.space	Key.space	n/a
118.0335	0.105	236067	keystroke_a	a	n/a
118.1535	0.121	236307	keystroke_u	u	n/a
118.2585	0.12	236517	keystroke_c	c	n/a
118.3635	0.09	236727	keystroke_k	k	n/a
118.4985	0.12	236997	keystroke_l	l	n/a
118.6035	0.105	237207	keystroke_a	a	n/a
118.6785	0.09	237357	keystroke_n	n	n/a
118.7535	0.105	237507	keystroke_d	d	n/a
118.8435	0.12	237687	keystroke_Key.space	Key.space	n/a
118.9785	0.105	237957	keystroke_r	r	n/a
119.0535	0.12	238107	keystroke_e	e	n/a
119.1585	0.09	238317	keystroke_l	l	n/a
119.2635	0.09	238527	keystroke_a	a	n/a
119.3235	0.09	238647	keystroke_t	t	n/a
119.3985	0.09	238797	keystroke_i	i	n/a
119.5335	0.12	239067	keystroke_v	v	n/a
119.6235	0.09	239247	keystroke_e	e	n/a
119.8185	0.09	239637	keystroke_s	s	n/a
119.9235	0.09	239847	keystroke_Key.enter	Key.enter	n/a
120.0215	5.679	240043	prompt	n/a	modifications program exceptional jenny\n
120.6135	0.075	241227	keystroke_m	m	n/a
120.7635	0.106	241527	keystroke_o	o	n/a
120.8535	0.09	241707	keystroke_d	d	n/a
120.9735	0.075	241947	keystroke_i	i	n/a
121.0785	0.105	242157	keystroke_f	f	n/a
121.2285	0.09	242457	keystroke_i	i	n/a
121.3035	0.105	242607	keystroke_c	c	n/a
121.6785	0.075	243357	keystroke_a	a	n/a
121.7685	0.135	243537	keystroke_t	t	n/a
121.9185	0.195	243837	keystroke_i	i	n/a
121.9785	0.15	243957	keystroke_o	o	n/a
122.0985	0.075	244197	keystroke_n	n	n/a
122.1885	0.12	244377	keystroke_s	s	n/a
122.2785	0.12	244557	keystroke_Key.space	Key.space	n/a
122.3685	0.106	244737	keystroke_p	p	n/a
122.4585	0.12	244917	keystroke_r	r	n/a
122.5485	0.12	245097	keystroke_o	o	n/a
122.6995	0.105	245399	keystroke_g	g	n/a
122.9235	0.105	245847	keystroke_r	r	n/a
122.9985	0.135	245997	keystroke_a	a	n/a
123.0585	0.091	246117	keystroke_m	m	n/a
123.2385	0.12	246477	keystroke_Key.space	Key.space	n/a
123.2985	0.105	246597	keystroke_e	e	n/a
123.5085	0.106	247017	keystroke_x	x	n/a
123.7335	0.105	247467	keystroke_c	c	n/a
123.8535	0.09	247707	keystroke_e	e	n/a
123.9285	0.105	247857	keystroke_p	p	n/a
124.0635	0.106	248127	keystroke_t	t	n/a
124.1085	0.165	248217	keystroke_i	i	n/a
124.1535	0.135	248307	keystroke_o	o	n/a
124.2135	0.09	248427	keystroke_n	n	n/a
124.4385	0.135	248877	keystroke_a	a	n/a
124.6195	0.105	249239	keystroke_l	l	n/a
124.7385	0.09	249477	keystroke_Key.space	Key.space	n/a
124.9035	0.105	249807	keystroke_j	j	n/a
124.9935	0.076	249987	keystroke_e	e	n/a
125.0535	0.105	250107	keystroke_n	n	n/a
125.2335	0.091	250467	keystroke_n	n	n/a
125.2935	0.09	250587	keystroke_y	y	n/a
125.5785	0.12	251157	keystroke_Key.enter	Key.enter	n/a
125.7045	5.411	251409	prompt	n/a	cardiac cleaners thereafter aren't\n
126.2685	0.105	252537	keystroke_c	c	n/a
126.3895	0.074	252779	keystroke_a	a	n/a
126.4785	0.105	252957	keystroke_r	r	n/a
126.6885	0.105	253377	keystroke_d	d	n/a
126.8685	0.105	253737	keystroke_i	i	n/a
126.9745	0.119	253949	keystroke_a	a	n/a
127.1235	0.105	254247	keystroke_c	c	n/a
127.2435	0.105	254487	keystroke_Key.space	Key.space	n/a
127.3645	0.089	254729	keystroke_c	c	n/a
127.4695	0.104	254939	keystroke_l	l	n/a
127.5885	0.135	255177	keystroke_e	e	n/a
127.6635	0.075	255327	keystroke_a	a	n/a
127.7085	0.12	255417	keystroke_n	n	n/a
127.8295	0.119	255659	keystroke_e	e	n/a
127.9035	0.091	255807	keystroke_r	r	n/a
128.0545	0.119	256109	keystroke_s	s	n/a
128.1585	0.105	256317	keystroke_Key.space	Key.space	n/a
128.3085	0.105	256617	keystroke_t	t	n/a
128.3985	0.076	256797	keystroke_h	h	n/a
128.4585	0.105	256917	keystroke_e	e	n/a
128.5335	0.136	257067	keystroke_r	r	n/a
128.6385	0.225	257277	keystroke_e	e	n/a
128.7745	0.134	257549	keystroke_a	a	n/a
128.9385	0.12	257877	keystroke_f	f	n/a
129.2235	0.12	258447	keystroke_t	t	n/a
129.3735	0.121	258747	keystroke_e	e	n/a
129.4335	0.12	258867	keystroke_r	r	n/a
129.5545	0.104	259109	keystroke_Key.space	Key.space	n/a
129.7035	0.135	259407	keystroke_a	a	n/a
129.8235	0.12	259647	keystroke_r	r	n/a
129.8835	0.106	259767	keystroke_e	e	n/a
130.0335	0.09	260067	keystroke_n	n	n/a
130.7695	0.075	261539	keystroke_'	'	n/a
130.8585	0.075	261717	keystroke_t	t	n/a
131.0085	0.105	262017	keystroke_Key.enter	Key.enter	n/a
131.1185	4.707	262237	prompt	n/a	protection happiness victim formal\n
131.6695	0.104	263339	keystroke_p	p	n/a
131.7585	0.09	263517	keystroke_r	r	n/a
131.8645	0.105	263729	keystroke_o	o	n/a
131.9535	0.136	263907	keystroke_t	t	n/a
132.0745	0.134	264149	keystroke_e	e	n/a
132.3135	0.106	264627	keystroke_c	c	n/a
132.5835	0.075	265167	keystroke_t	t	n/a
132.6445	0.15	265289	keystroke_i	i	n/a
132.6735	0.135	265347	keystroke_o	o	n/a
132.7485	0.075	265497	keystroke_n	n	n/a
132.9285	0.12	265857	keystroke_Key.space	Key.space	n/a
133.0345	0.104	266069	keystroke_h	h	n/a
133.1535	0.105	266307	keystroke_a	a	n/a
133.2135	0.075	266427	keystroke_p	p	n/a
133.3635	0.12	266727	keystroke_p	p	n/a
133.4545	0.105	266909	keystroke_i	i	n/a
133.5135	0.09	267027	keystroke_n	n	n/a
133.6185	0.106	267237	keystroke_e	e	n/a
133.8295	0.044	267659	keystroke_s	s	n/a
133.9635	0.091	267927	keystroke_s	s	n/a
134.0385	0.135	268077	keystroke_Key.space	Key.space	n/a
134.1885	0.106	268377	keystroke_v	v	n/a
134.3095	0.105	268619	keystroke_i	i	n/a
134.3985	0.105	268797	keystroke_c	c	n/a
134.6385	0.105	269277	keystroke_t	t	n/a
134.6985	0.09	269397	keystroke_i	i	n/a
134.7585	0.075	269517	keystroke_m	m	n/a
134.9385	0.106	269877	keystroke_Key.space	Key.space	n/a
134.9985	0.105	269997	keystroke_f	f	n/a
135.1045	0.105	270209	keystroke_o	o	n/a
135.1945	0.104	270389	keystroke_r	r	n/a
135.2835	0.075	270567	keystroke_m	m	n/a
135.3735	0.105	270747	keystroke_a	a	n/a
135.4485	0.076	270897	keystroke_l	l	n/a
135.7195	0.104	271439	keystroke_Key.enter	Key.enter	n/a
135.8295	4.676	271659	prompt	n/a	technician rebates holders assume\n
136.6945	0.15	273389	keystroke_t	t	n/a
136.8285	0.09	273657	keystroke_e	e	n/a
136.9945	0.134	273989	keystroke_c	c	n/a
137.0845	0.105	274169	keystroke_h	h	n/a
137.2335	0.135	274467	keystroke_n	n	n/a
137.3385	0.12	274677	keystroke_i	i	n/a
137.4285	0.121	274857	keystroke_c	c	n/a
137.5335	0.075	275067	keystroke_i	i	n/a
137.6695	0.089	275339	keystroke_a	a	n/a
137.7445	0.105	275489	keystroke_n	n	n/a
137.9235	0.105	275847	keystroke_Key.space	Key.space	n/a
138.0445	0.105	276089	keystroke_r	r	n/a
138.1045	0.12	276209	keystroke_e	e	n/a
138.1795	0.105	276359	keystroke_b	b	n/a
138.2995	0.104	276599	keystroke_a	a	n/a
138.3445	0.119	276689	keystroke_t	t	n/a
138.4195	0.089	276839	keystroke_e	e	n/a
138.6145	0.135	277229	keystroke_s	s	n/a
138.7035	0.12	277407	keystroke_Key.space	Key.space	n/a
138.7945	0.105	277589	keystroke_h	h	n/a
138.8385	0.106	277677	keystroke_o	o	n/a
139.0485	0.09	278097	keystroke_l	l	n/a
139.0645	0.149	278129	keystroke_d	d	n/a
139.1985	0.165	278397	keystroke_e	e	n/a
139.3035	0.121	278607	keystroke_r	r	n/a
139.4695	0.104	278939	keystroke_s	s	n/a
139.6335	0.105	279267	keystroke_Key.space	Key.space	n/a
139.7245	0.135	279449	keystroke_a	a	n/a
139.8145	0.104	279629	keystroke_s	s	n/a
139.9785	0.121	279957	keystroke_s	s	n/a
140.0545	0.12	280109	keystroke_u	u	n/a
140.1145	0.119	280229	keystroke_m	m	n/a
140.2635	0.075	280527	keystroke_e	e	n/a
140.3695	0.134	280739	keystroke_Key.enter	Key.enter	n/a
140.5105	3.9555	281021	prompt	n/a	team yield diary ordinary\n
141.1045	0.12	282209	keystroke_t	t	n/a
141.2095	0.165	282419	keystroke_e	e	n/a
141.2545	0.134	282509	keystroke_a	a	n/a
141.3145	0.089	282629	keystroke_m	m	n/a
141.4785	0.135	282957	keystroke_Key.space	Key.space	n/a
141.6595	0.09	283319	keystroke_y	y	n/a
141.8695	0.105	283739	keystroke_i	i	n/a
141.9595	0.104	283919	keystroke_e	e	n/a
142.0795	0.09	284159	keystroke_l	l	n/a
142.1845	0.09	284369	keystroke_d	d	n/a
142.2585	0.061	284517	keystroke_Key.space	Key.space	n/a
142.4085	0.075	284817	keystroke_d	d	n/a
142.5445	0.105	285089	keystroke_i	i	n/a
142.6945	0.135	285389	keystroke_a	a	n/a
142.7545	0.12	285509	keystroke_r	r	n/a
142.8295	0.12	285659	keystroke_y	y	n/a
142.8895	0.119	285779	keystroke_Key.space	Key.space	n/a
143.0385	0.151	286077	keystroke_o	o	n/a
143.1445	0.09	286289	keystroke_r	r	n/a
143.3395	0.134	286679	keystroke_d	d	n/a
143.3995	0.135	286799	keystroke_i	i	n/a
143.4585	0.106	286917	keystroke_n	n	n/a
143.5645	0.09	287129	keystroke_a	a	n/a
143.6385	0.121	287277	keystroke_r	r	n/a
143.7295	0.09	287459	keystroke_y	y	n/a
144.3735	0.09	288747	keystroke_Key.enter	Key.enter	n/a
144.4695	7.556	288939	prompt	n/a	performed nevertheless democrats method\n
145.0945	0.12	290189	keystroke_p	p	n/a
145.1995	0.135	290399	keystroke_e	e	n/a
145.2745	0.105	290549	keystroke_r	r	n/a
145.4695	0.105	290939	keystroke_f	f	n/a
145.5445	0.12	291089	keystroke_o	o	n/a
145.6495	0.105	291299	keystroke_r	r	n/a
145.7395	0.12	291479	keystroke_m	m	n/a
145.8445	0.12	291689	keystroke_e	e	n/a
145.9195	0.134	291839	keystroke_d	d	n/a
146.0095	0.12	292019	keystroke_Key.space	Key.space	n/a
146.2495	0.12	292499	keystroke_n	n	n/a
146.3395	0.105	292679	keystroke_e	e	n/a
146.4145	0.135	292829	keystroke_t	t	n/a
146.5345	0.135	293069	keystroke_e	e	n/a
146.6095	0.12	293219	keystroke_r	r	n/a
146.8345	0.089	293669	keystroke_t	t	n/a
147.0745	0.075	294149	keystroke_h	h	n/a
147.1945	0.12	294389	keystroke_e	e	n/a
147.2995	0.105	294599	keystroke_l	l	n/a
147.7495	0.059	295499	keystroke_Key.backspace	Key.backspace	n/a
147.9135	0.045	295827	keystroke_Key.backspace	Key.backspace	n/a
148.0635	0.076	296127	keystroke_Key.backspace	Key.backspace	n/a
148.2145	0.075	296429	keystroke_Key.backspace	Key.backspace	n/a
148.348	0.075	296696	keystroke_Key.backspace	Key.backspace	n/a
148.5145	0.044	297029	keystroke_Key.backspace	Key.backspace	n/a
148.663	0.0765	297326	keystroke_Key.backspace	Key.backspace	n/a
148.814	0.1055	297628	keystroke_v	v	n/a
148.9795	0.1045	297959	keystroke_e	e	n/a
149.054	0.105	298108	keystroke_r	r	n/a
149.234	0.105	298468	keystroke_t	t	n/a
149.324	0.075	298648	keystroke_h	h	n/a
149.414	0.12	298828	keystroke_e	e	n/a
149.519	0.105	299038	keystroke_l	l	n/a
149.6095	0.0895	299219	keystroke_e	e	n/a
149.788	0.0915	299576	keystroke_s	s	n/a
149.954	0.09	299908	keystroke_s	s	n/a
150.059	0.074	300118	keystroke_Key.space	Key.space	n/a
150.223	0.121	300446	keystroke_d	d	n/a
150.299	0.105	300598	keystroke_e	e	n/a
150.419	0.09	300838	keystroke_m	m	n/a
150.449	0.1195	300898	keystroke_o	o	n/a
150.51	0.1035	301020	keystroke_c	c	n/a
150.719	0.105	301438	keystroke_r	r	n/a
150.809	0.165	301618	keystroke_a	a	n/a
150.929	0.09	301858	keystroke_t	t	n/a
151.079	0.105	302158	keystroke_s	s	n/a
151.154	0.09	302308	keystroke_Key.space	Key.space	n/a
151.3485	0.0905	302697	keystroke_m	m	n/a
151.424	0.135	302848	keystroke_e	e	n/a
151.514	0.105	303028	keystroke_t	t	n/a
151.574	0.105	303148	keystroke_h	h	n/a
151.619	0.1195	303238	keystroke_o	o	n/a
151.754	0.09	303508	keystroke_d	d	n/a
151.904	0.12	303808	keystroke_Key.enter	Key.enter	n/a
152.03	4.7955	304060	prompt	n/a	prostate behavior colony mechanics\n
152.5785	0.105	305157	keystroke_p	p	n/a
152.6685	0.12	305337	keystroke_r	r	n/a
152.7585	0.09	305517	keystroke_o	o	n/a
152.9085	0.15	305817	keystroke_s	s	n/a
153.0435	0.0755	306087	keystroke_t	t	n/a
153.1335	0.1055	306267	keystroke_a	a	n/a
153.1945	0.104	306389	keystroke_t	t	n/a
153.284	0.1045	306568	keystroke_e	e	n/a
153.3585	0.135	306717	keystroke_Key.space	Key.space	n/a
153.464	0.0895	306928	keystroke_b	b	n/a
153.5685	0.1205	307137	keystroke_e	e	n/a
153.6735	0.075	307347	keystroke_h	h	n/a
153.7935	0.135	307587	keystroke_a	a	n/a
153.9735	0.12	307947	keystroke_v	v	n/a
154.0785	0.1355	308157	keystroke_i	i	n/a
154.154	0.1195	308308	keystroke_o	o	n/a
154.2595	0.134	308519	keystroke_r	r	n/a
154.3785	0.1355	308757	keystroke_Key.space	Key.space	n/a
154.5435	0.12	309087	keystroke_c	c	n/a
154.6485	0.075	309297	keystroke_o	o	n/a
154.8435	0.045	309687	keystroke_l	l	n/a
154.9935	0.0905	309987	keystroke_o	o	n/a
155.0685	0.105	310137	keystroke_n	n	n/a
155.2185	0.12	310437	keystroke_y	y	n/a
155.3235	0.0905	310647	keystroke_Key.space	Key.space	n/a
155.5335	0.09	311067	keystroke_m	m	n/a
155.609	0.1195	311218	keystroke_e	e	n/a
155.6695	0.134	311339	keystroke_c	c	n/a
155.8935	0.09	311787	keystroke_h	h	n/a
156.2085	0.12	312417	keystroke_a	a	n/a
156.3295	0.1045	312659	keystroke_n	n	n/a
156.389	0.12	312778	keystroke_i	i	n/a
156.4485	0.09	312897	keystroke_c	c	n/a
156.5235	0.105	313047	keystroke_s	s	n/a
156.6885	0.135	313377	keystroke_Key.enter	Key.enter	n/a
156.83	5.2005	313660	prompt	n/a	received hypothetical fought cycle\n
157.3635	0.135	314727	keystroke_r	r	n/a
157.4535	0.135	314907	keystroke_e	e	n/a
157.6485	0.105	315297	keystroke_c	c	n/a
157.9635	0.12	315927	keystroke_e	e	n/a
158.2785	0.12	316557	keystroke_i	i	n/a
158.4435	0.12	316887	keystroke_v	v	n/a
158.6535	0.135	317307	keystroke_e	e	n/a
158.7285	0.135	317457	keystroke_d	d	n/a
158.8485	0.12	317697	keystroke_Key.space	Key.space	n/a
158.9695	0.074	317939	keystroke_h	h	n/a
159.1485	0.075	318297	keystroke_y	y	n/a
159.2835	0.135	318567	keystroke_p	p	n/a
159.3735	0.09	318747	keystroke_o	o	n/a
159.4345	0.089	318869	keystroke_t	t	n/a
159.5685	0.075	319137	keystroke_h	h	n/a
159.6285	0.105	319257	keystroke_e	e	n/a
159.6885	0.105	319377	keystroke_t	t	n/a
159.7945	0.104	319589	keystroke_i	i	n/a
159.9735	0.12	319947	keystroke_c	c	n/a
160.0185	0.165	320037	keystroke_a	a	n/a
160.1085	0.135	320217	keystroke_l	l	n/a
160.2585	0.12	320517	keystroke_Key.space	Key.space	n/a
160.4235	0.105	320847	keystroke_f	f	n/a
160.5735	0.135	321147	keystroke_o	o	n/a
160.6335	0.09	321267	keystroke_u	u	n/a
160.9185	0.15	321837	keystroke_g	g	n/a
161.0235	0.105	322047	keystroke_h	h	n/a
161.1135	0.09	322227	keystroke_t	t	n/a
161.2335	0.075	322467	keystroke_Key.space	Key.space	n/a
161.3695	0.104	322739	keystroke_c	c	n/a
161.4585	0.06	322917	keystroke_y	y	n/a
161.5485	0.09	323097	keystroke_c	c	n/a
161.6085	0.12	323217	keystroke_l	l	n/a
161.7435	0.075	323487	keystroke_e	e	n/a
161.9235	0.105	323847	keystroke_Key.enter	Key.enter	n/a
162.0345	4.767	324069	prompt	n/a	commander tricks rainbow authentic\n
162.7645	0.135	325529	keystroke_c	c	n/a
162.8085	0.105	325617	keystroke_o	o	n/a
162.8835	0.09	325767	keystroke_m	m	n/a
163.0485	0.075	326097	keystroke_m	m	n/a
163.1385	0.12	326277	keystroke_a	a	n/a
163.2285	0.09	326457	keystroke_n	n	n/a
163.2885	0.105	326577	keystroke_d	d	n/a
163.3635	0.135	326727	keystroke_e	e	n/a
163.4835	0.12	326967	keystroke_r	r	n/a
163.6935	0.12	327387	keystroke_Key.space	Key.space	n/a
163.8585	0.075	327717	keystroke_t	t	n/a
164.0235	0.105	328047	keystroke_r	r	n/a
164.0985	0.09	328197	keystroke_i	i	n/a
164.2335	0.105	328467	keystroke_c	c	n/a
164.3245	0.09	328649	keystroke_k	k	n/a
164.4285	0.12	328857	keystroke_s	s	n/a
164.5335	0.09	329067	keystroke_Key.space	Key.space	n/a
164.6685	0.12	329337	keystroke_r	r	n/a
164.7435	0.12	329487	keystroke_a	a	n/a
164.8035	0.105	329607	keystroke_i	i	n/a
164.8485	0.105	329697	keystroke_n	n	n/a
165.0435	0.045	330087	keystroke_b	b	n/a
165.1935	0.09	330387	keystroke_o	o	n/a
165.2685	0.121	330537	keystroke_w	w	n/a
165.3735	0.105	330747	keystroke_Key.space	Key.space	n/a
165.4935	0.105	330987	keystroke_a	a	n/a
165.5685	0.105	331137	keystroke_u	u	n/a
165.6885	0.106	331377	keystroke_t	t	n/a
165.7945	0.074	331589	keystroke_h	h	n/a
165.8835	0.105	331767	keystroke_e	e	n/a
166.0035	0.09	332007	keystroke_n	n	n/a
166.0785	0.09	332157	keystroke_t	t	n/a
166.1985	0.075	332397	keystroke_i	i	n/a
166.3635	0.075	332727	keystroke_c	c	n/a
166.6635	0.135	333327	keystroke_Key.enter	Key.enter	n/a
166.808	4.3125	333616	prompt	n/a	breakfast challenges baking wives\n
167.3985	0.105	334797	keystroke_b	b	n/a
167.4885	0.121	334977	keystroke_r	r	n/a
167.5645	0.15	335129	keystroke_e	e	n/a
167.6095	0.09	335219	keystroke_a	a	n/a
167.6685	0.091	335337	keystroke_k	k	n/a
167.8785	0.12	335757	keystroke_f	f	n/a
168.0135	0.18	336027	keystroke_a	a	n/a
168.1185	0.151	336237	keystroke_s	s	n/a
168.2085	0.121	336417	keystroke_t	t	n/a
168.2835	0.105	336567	keystroke_Key.space	Key.space	n/a
168.5085	0.121	337017	keystroke_c	c	n/a
168.6435	0.075	337287	keystroke_h	h	n/a
168.7635	0.105	337527	keystroke_a	a	n/a
168.8245	0.059	337649	keystroke_l	l	n/a
168.9585	0.106	337917	keystroke_l	l	n/a
169.0495	0.12	338099	keystroke_e	e	n/a
169.1535	0.09	338307	keystroke_n	n	n/a
169.2145	0.104	338429	keystroke_g	g	n/a
169.3035	0.091	338607	keystroke_e	e	n/a
169.4985	0.105	338997	keystroke_s	s	n/a
169.6185	0.105	339237	keystroke_Key.space	Key.space	n/a
169.6785	0.09	339357	keystroke_b	b	n/a
169.7985	0.105	339597	keystroke_a	a	n/a
169.8885	0.06	339777	keystroke_k	k	n/a
170.0395	0.105	340079	keystroke_i	i	n/a
170.0985	0.091	340197	keystroke_n	n	n/a
170.1585	0.075	340317	keystroke_g	g	n/a
170.2785	0.09	340557	keystroke_Key.space	Key.space	n/a
170.3535	0.121	340707	keystroke_w	w	n/a
170.5035	0.075	341007	keystroke_i	i	n/a
170.6535	0.105	341307	keystroke_v	v	n/a
170.7445	0.089	341489	keystroke_e	e	n/a
170.9385	0.091	341877	keystroke_s	s	n/a
171.0145	0.104	342029	keystroke_Key.enter	Key.enter	n/a
171.1255	4.616	342251	prompt	n/a	diagram dominant voltage pubs\n
171.7185	0.105	343437	keystroke_d	d	n/a
171.8095	0.119	343619	keystroke_i	i	n/a
171.9735	0.09	343947	keystroke_a	a	n/a
172.1845	0.074	344369	keystroke_g	g	n/a
172.3635	0.106	344727	keystroke_r	r	n/a
172.4535	0.105	344907	keystroke_a	a	n/a
172.4995	0.089	344999	keystroke_m	m	n/a
172.6785	0.09	345357	keystroke_Key.space	Key.space	n/a
172.8145	0.104	345629	keystroke_d	d	n/a
172.8585	0.12	345717	keystroke_o	o	n/a
172.9485	0.105	345897	keystroke_m	m	n/a
173.0545	0.074	346109	keystroke_i	i	n/a
173.5035	0.075	347007	keystroke_n	n	n/a
173.5945	0.119	347189	keystroke_a	a	n/a
173.7285	0.105	347457	keystroke_n	n	n/a
173.8485	0.105	347697	keystroke_t	t	n/a
173.9685	0.12	347937	keystroke_Key.space	Key.space	n/a
174.2385	0.09	348477	keystroke_v	v	n/a
174.3295	0.059	348659	keystroke_o	o	n/a
174.5095	0.089	349019	keystroke_l	l	n/a
174.5685	0.105	349137	keystroke_t	t	n/a
174.6885	0.09	349377	keystroke_a	a	n/a
174.8235	0.135	349647	keystroke_g	g	n/a
174.9445	0.104	349889	keystroke_e	e	n/a
175.1235	0.12	350247	keystroke_Key.space	Key.space	n/a
175.2295	0.119	350459	keystroke_p	p	n/a
175.3035	0.151	350607	keystroke_u	u	n/a
175.4085	0.106	350817	keystroke_b	b	n/a
175.4695	0.089	350939	keystroke_s	s	n/a
175.6635	0.076	351327	keystroke_Key.enter	Key.enter	n/a
175.747	4.69	351494	prompt	n/a	speeches draws humanities luke\n
176.3845	0.075	352769	keystroke_s	s	n/a
176.8185	0.09	353637	keystroke_p	p	n/a
176.8945	0.074	353789	keystroke_e	e	n/a
177.0445	0.12	354089	keystroke_e	e	n/a
177.1335	0.15	354267	keystroke_c	c	n/a
177.2535	0.09	354507	keystroke_h	h	n/a
177.3285	0.09	354657	keystroke_e	e	n/a
177.5235	0.105	355047	keystroke_s	s	n/a
177.5985	0.12	355197	keystroke_Key.space	Key.space	n/a
177.7045	0.09	355409	keystroke_d	d	n/a
177.9145	0.119	355829	keystroke_r	r	n/a
178.0045	0.134	356009	keystroke_a	a	n/a
178.1235	0.09	356247	keystroke_w	w	n/a
178.3645	0.105	356729	keystroke_s	s	n/a
178.4985	0.135	356997	keystroke_Key.space	Key.space	n/a
178.6185	0.136	357237	keystroke_h	h	n/a
178.6795	0.164	357359	keystroke_u	u	n/a
178.8135	0.12	357627	keystroke_m	m	n/a
178.9485	0.106	357897	keystroke_a	a	n/a
179.0395	0.104	358079	keystroke_n	n	n/a
179.0835	0.105	358167	keystroke_i	i	n/a
179.2035	0.105	358407	keystroke_t	t	n/a
179.2935	0.105	358587	keystroke_i	i	n/a
179.3535	0.105	358707	keystroke_e	e	n/a
179.5635	0.075	359127	keystroke_s	s	n/a
179.6685	0.135	359337	keystroke_Key.space	Key.space	n/a
179.8495	0.105	359699	keystroke_l	l	n/a
179.9235	0.121	359847	keystroke_u	u	n/a
180.0585	0.121	360117	keystroke_k	k	n/a
180.1645	0.089	360329	keystroke_e	e	n/a
180.3285	0.105	360657	keystroke_Key.enter	Key.enter	n/a
180.443	4.163	360886	prompt	n/a	heath adjustable default poultry\n
181.0345	0.075	362069	keystroke_h	h	n/a
181.1395	0.134	362279	keystroke_e	e	n/a
181.1695	0.135	362339	keystroke_a	a	n/a
181.2145	0.135	362429	keystroke_l	l	n/a
181.3335	0.105	362667	keystroke_t	t	n/a
181.3935	0.12	362787	keystroke_h	h	n/a
181.4535	0.121	362907	keystroke_Key.space	Key.space	n/a
181.6045	0.119	363209	keystroke_a	a	n/a
181.7095	0.135	363419	keystroke_d	d	n/a
181.7685	0.06	363537	keystroke_j	j	n/a
181.9195	0.104	363839	keystroke_u	u	n/a
181.9645	0.165	363929	keystroke_s	s	n/a
182.0695	0.119	364139	keystroke_t	t	n/a
182.2195	0.134	364439	keystroke_a	a	n/a
182.3085	0.12	364617	keystroke_b	b	n/a
182.3695	0.15	364739	keystroke_l	l	n/a
182.4895	0.105	364979	keystroke_e	e	n/a
182.5635	0.12	365127	keystroke_Key.space	Key.space	n/a
182.6985	0.151	365397	keystroke_d	d	n/a
182.7895	0.15	365579	keystroke_e	e	n/a
182.8945	0.119	365789	keystroke_f	f	n/a
183.0295	0.104	366059	keystroke_a	a	n/a
183.1035	0.136	366207	keystroke_u	u	n/a
183.1785	0.106	366357	keystroke_l	l	n/a
183.2535	0.091	366507	keystroke_t	t	n/a
183.2985	0.121	366597	keystroke_Key.space	Key.space	n/a
183.4035	0.136	366807	keystroke_p	p	n/a
183.7035	0.121	367407	keystroke_o	o	n/a
183.8995	0.104	367799	keystroke_u	u	n/a
183.9745	0.12	367949	keystroke_l	l	n/a
184.0795	0.089	368159	keystroke_t	t	n/a
184.2585	0.106	368517	keystroke_r	r	n/a
184.2895	0.06	368579	keystroke_y	y	n/a
184.4995	0.104	368999	keystroke_Key.enter	Key.enter	n/a
184.61	6.252	369220	prompt	n/a	helps mustn't ohio snowboard\n
185.1445	0.105	370289	keystroke_h	h	n/a
185.3545	0.105	370709	keystroke_e	e	n/a
185.4745	0.09	370949	keystroke_l	l	n/a
185.6685	0.106	371337	keystroke_p	p	n/a
185.7895	0.09	371579	keystroke_s	s	n/a
185.8795	0.119	371759	keystroke_Key.space	Key.space	n/a
186.1045	0.104	372209	keystroke_m	m	n/a
186.1495	0.12	372299	keystroke_u	u	n/a
186.1945	0.179	372389	keystroke_s	s	n/a
186.4935	0.09	372987	keystroke_t	t	n/a
186.6285	0.075	373257	keystroke_n	n	n/a
187.8445	0.075	375689	keystroke_'	'	n/a
187.9495	0.12	375899	keystroke_t	t	n/a
188.1885	0.09	376377	keystroke_Key.space	Key.space	n/a
188.4445	0.06	376889	keystroke_o	o	n/a
188.8935	0.046	377787	keystroke_h	h	n/a
189.3145	0.15	378629	keystroke_i	i	n/a
189.3595	0.12	378719	keystroke_o	o	n/a
189.5385	0.135	379077	keystroke_Key.space	Key.space	n/a
189.7045	0.135	379409	keystroke_s	s	n/a
189.8245	0.135	379649	keystroke_n	n	n/a
189.9295	0.105	379859	keystroke_o	o	n/a
190.0045	0.105	380009	keystroke_w	w	n/a
190.1545	0.06	380309	keystroke_b	b	n/a
190.2895	0.135	380579	keystroke_o	o	n/a
190.3495	0.09	380699	keystroke_a	a	n/a
190.4095	0.09	380819	keystroke_r	r	n/a
190.6045	0.09	381209	keystroke_d	d	n/a
190.7395	0.12	381479	keystroke_Key.enter	Key.enter	n/a
190.8685	5.437	381737	prompt	n/a	staffing meaningful conclusions university\n
191.4895	0.12	382979	keystroke_s	s	n/a
191.6545	0.12	383309	keystroke_t	t	n/a
191.7595	0.134	383519	keystroke_a	a	n/a
191.9235	0.121	383847	keystroke_f	f	n/a
192.1195	0.12	384239	keystroke_f	f	n/a
192.1785	0.106	384357	keystroke_i	i	n/a
192.2245	0.12	384449	keystroke_n	n	n/a
192.3295	0.09	384659	keystroke_g	g	n/a
192.4045	0.09	384809	keystroke_Key.space	Key.space	n/a
192.5995	0.12	385199	keystroke_m	m	n/a
192.6445	0.165	385289	keystroke_e	e	n/a
192.7045	0.12	385409	keystroke_a	a	n/a
192.7945	0.105	385589	keystroke_n	n	n/a
192.8545	0.12	385709	keystroke_i	i	n/a
192.9445	0.075	385889	keystroke_n	n	n/a
193.1695	0.1045	386339	keystroke_g	g	n/a
193.4095	0.105	386819	keystroke_f	f	n/a
193.484	0.15	386968	keystroke_u	u	n/a
193.5745	0.15	387149	keystroke_l	l	n/a
193.874	0.134	387748	keystroke_Key.space	Key.space	n/a
194.024	0.105	388048	keystroke_c	c	n/a
194.114	0.09	388228	keystroke_o	o	n/a
194.159	0.09	388318	keystroke_n	n	n/a
194.219	0.09	388438	keystroke_c	c	n/a
194.339	0.105	388678	keystroke_l	l	n/a
194.414	0.09	388828	keystroke_u	u	n/a
194.519	0.105	389038	keystroke_s	s	n/a
194.609	0.105	389218	keystroke_i	i	n/a
194.639	0.09	389278	keystroke_o	o	n/a
194.684	0.105	389368	keystroke_n	n	n/a
194.759	0.045	389518	keystroke_s	s	n/a
194.8785	0.09	389757	keystroke_Key.space	Key.space	n/a
195.1045	0.1345	390209	keystroke_u	u	n/a
195.1795	0.1645	390359	keystroke_n	n	n/a
195.2695	0.135	390539	keystroke_i	i	n/a
195.314	0.075	390628	keystroke_v	v	n/a
195.464	0.12	390928	keystroke_e	e	n/a
195.539	0.09	391078	keystroke_r	r	n/a
195.689	0.09	391378	keystroke_s	s	n/a
195.764	0.09	391528	keystroke_i	i	n/a
195.869	0.09	391738	keystroke_t	t	n/a
195.944	0.075	391888	keystroke_y	y	n/a
196.199	0.104	392398	keystroke_Key.enter	Key.enter	n/a
196.312	6.4585	392624	prompt	n/a	russian activated defendant covered\n
196.829	0.12	393658	keystroke_r	r	n/a
196.934	0.09	393868	keystroke_u	u	n/a
197.039	0.165	394078	keystroke_s	s	n/a
197.324	0.06	394648	keystroke_s	s	n/a
197.564	0.075	395128	keystroke_i	i	n/a
197.699	0.12	395398	keystroke_a	a	n/a
197.774	0.09	395548	keystroke_n	n	n/a
197.939	0.119	395878	keystroke_Key.space	Key.space	n/a
197.969	0.09	395938	keystroke_a	a	n/a
198.074	0.105	396148	keystroke_c	c	n/a
198.269	0.075	396538	keystroke_t	t	n/a
198.569	0.075	397138	keystroke_i	i	n/a
198.659	0.075	397318	keystroke_v	v	n/a
198.809	0.105	397618	keystroke_a	a	n/a
198.899	0.09	397798	keystroke_t	t	n/a
199.004	0.15	398008	keystroke_e	e	n/a
199.124	0.12	398248	keystroke_d	d	n/a
199.319	0.105	398638	keystroke_Key.space	Key.space	n/a
199.409	0.12	398818	keystroke_d	d	n/a
199.499	0.15	398998	keystroke_e	e	n/a
199.634	0.09	399268	keystroke_f	f	n/a
199.709	0.12	399418	keystroke_e	e	n/a
199.799	0.12	399598	keystroke_n	n	n/a
199.904	0.12	399808	keystroke_d	d	n/a
199.994	0.135	399988	keystroke_a	a	n/a
200.009	0.03	400018	keystroke_s	s	n/a
200.084	0.105	400168	keystroke_n	n	n/a
200.204	0.105	400408	keystroke_t	t	n/a
200.324	0.105	400648	keystroke_Key.space	Key.space	n/a
200.759	0.09	401518	keystroke_Key.backspace	Key.backspace	n/a
200.924	0.06	401848	keystroke_Key.backspace	Key.backspace	n/a
201.059	0.09	402118	keystroke_Key.backspace	Key.backspace	n/a
201.419	0.015	402838	keystroke_Key.backspace	Key.backspace	n/a
201.614	0.105	403228	keystroke_n	n	n/a
201.704	0.09	403408	keystroke_t	t	n/a
201.839	0.09	403678	keystroke_Key.space	Key.space	n/a
201.974	0.09	403948	keystroke_c	c	n/a
202.049	0.09	404098	keystroke_o	o	n/a
202.154	0.075	404308	keystroke_v	v	n/a
202.289	0.09	404578	keystroke_e	e	n/a
202.349	0.12	404698	keystroke_r	r	n/a
202.454	0.12	404908	keystroke_e	e	n/a
202.544	0.12	405088	keystroke_d	d	n/a
202.679	0.09	405358	keystroke_Key.enter	Key.enter	n/a
202.7775	3.443	405555	prompt	n/a	majority stored dean styles\n
203.399	0.12	406798	keystroke_m	m	n/a
203.534	0.105	407068	keystroke_a	a	n/a
203.624	0.135	407248	keystroke_j	j	n/a
203.714	0.135	407428	keystroke_o	o	n/a
203.744	0.135	407488	keystroke_r	r	n/a
203.864	0.105	407728	keystroke_i	i	n/a
203.984	0.105	407968	keystroke_t	t	n/a
204.044	0.105	408088	keystroke_y	y	n/a
204.104	0.135	408208	keystroke_Key.space	Key.space	n/a
204.2245	0.1195	408449	keystroke_s	s	n/a
204.314	0.105	408628	keystroke_t	t	n/a
204.389	0.135	408778	keystroke_o	o	n/a
204.509	0.12	409018	keystroke_r	r	n/a
204.629	0.135	409258	keystroke_e	e	n/a
204.719	0.105	409438	keystroke_d	d	n/a
204.824	0.12	409648	keystroke_Key.space	Key.space	n/a
204.929	0.135	409858	keystroke_d	d	n/a
205.049	0.18	410098	keystroke_e	e	n/a
205.109	0.135	410218	keystroke_a	a	n/a
205.214	0.09	410428	keystroke_n	n	n/a
205.379	0.105	410758	keystroke_Key.space	Key.space	n/a
205.469	0.135	410938	keystroke_s	s	n/a
205.589	0.12	411178	keystroke_t	t	n/a
205.664	0.075	411328	keystroke_y	y	n/a
205.709	0.15	411418	keystroke_l	l	n/a
205.844	0.06	411688	keystroke_e	e	n/a
206.009	0.075	412018	keystroke_s	s	n/a
206.129	0.09	412258	keystroke_Key.enter	Key.enter	n/a
206.224	3.8515	412448	prompt	n/a	horrible click fleece snap\n
206.789	0.12	413578	keystroke_h	h	n/a
206.864	0.135	413728	keystroke_o	o	n/a
206.924	0.06	413848	keystroke_r	r	n/a
207.059	0.105	414118	keystroke_r	r	n/a
207.119	0.135	414238	keystroke_i	i	n/a
207.194	0.135	414388	keystroke_b	b	n/a
207.269	0.135	414538	keystroke_l	l	n/a
207.344	0.09	414688	keystroke_e	e	n/a
207.449	0.09	414898	keystroke_Key.space	Key.space	n/a
207.614	0.09	415228	keystroke_c	c	n/a
207.659	0.195	415318	keystroke_l	l	n/a
207.764	0.105	415528	keystroke_i	i	n/a
207.989	0.09	415978	keystroke_c	c	n/a
208.139	0.06	416278	keystroke_k	k	n/a
208.379	0.09	416758	keystroke_Key.space	Key.space	n/a
208.514	0.09	417028	keystroke_f	f	n/a
208.664	0.09	417328	keystroke_l	l	n/a
208.844	0.075	417688	keystroke_e	e	n/a
208.994	0.12	417988	keystroke_e	e	n/a
209.144	0.135	418288	keystroke_c	c	n/a
209.219	0.105	418438	keystroke_e	e	n/a
209.294	0.06	418588	keystroke_Key.space	Key.space	n/a
209.444	0.075	418888	keystroke_s	s	n/a
209.504	0.075	419008	keystroke_n	n	n/a
209.609	0.105	419218	keystroke_a	a	n/a
209.684	0.09	419368	keystroke_p	p	n/a
209.939	0.135	419878	keystroke_Key.enter	Key.enter	n/a
210.0795	4.4505	420159	prompt	n/a	designers stock court andale\n
210.629	0.165	421258	keystroke_d	d	n/a
210.779	0.105	421558	keystroke_e	e	n/a
210.989	0.105	421978	keystroke_s	s	n/a
211.109	0.105	422218	keystroke_i	i	n/a
211.229	0.135	422458	keystroke_g	g	n/a
211.349	0.12	422698	keystroke_n	n	n/a
211.454	0.135	422908	keystroke_e	e	n/a
211.514	0.1195	423028	keystroke_r	r	n/a
211.6785	0.12	423357	keystroke_s	s	n/a
211.7835	0.135	423567	keystroke_Key.space	Key.space	n/a
211.8885	0.12	423777	keystroke_s	s	n/a
212.0235	0.09	424047	keystroke_o	o	n/a
212.1435	0.03	424287	keystroke_t	t	n/a
212.4135	0.045	424827	keystroke_Key.backspace	Key.backspace	n/a
212.6085	0.015	425217	keystroke_Key.backspace	Key.backspace	n/a
212.6385	0.09	425277	keystroke_t	t	n/a
212.7435	0.09	425487	keystroke_o	o	n/a
212.9385	0.105	425877	keystroke_c	c	n/a
212.9985	0.12	425997	keystroke_k	k	n/a
213.1035	0.105	426207	keystroke_Key.space	Key.space	n/a
213.1785	0.09	426357	keystroke_c	c	n/a
213.2535	0.135	426507	keystroke_o	o	n/a
213.3285	0.105	426657	keystroke_u	u	n/a
213.4035	0.105	426807	keystroke_r	r	n/a
213.5835	0.105	427167	keystroke_t	t	n/a
213.6735	0.09	427347	keystroke_Key.space	Key.space	n/a
213.8235	0.06	427647	keystroke_a	a	n/a
213.9285	0.105	427857	keystroke_n	n	n/a
214.0335	0.12	428067	keystroke_d	d	n/a
214.1385	0.09	428277	keystroke_a	a	n/a
214.1835	0.105	428367	keystroke_l	l	n/a
214.3035	0.075	428607	keystroke_e	e	n/a
214.4385	0.09	428877	keystroke_Key.enter	Key.enter	n/a
214.5355	3.8045	429071	prompt	n/a	fitted along problem noble\n
215.2335	0.12	430467	keystroke_f	f	n/a
215.2935	0.09	430587	keystroke_i	i	n/a
215.4435	0.06	430887	keystroke_t	t	n/a
215.5635	0.12	431127	keystroke_t	t	n/a
215.6685	0.135	431337	keystroke_e	e	n/a
215.7885	0.135	431577	keystroke_d	d	n/a
215.8785	0.105	431757	keystroke_Key.space	Key.space	n/a
215.9985	0.09	431997	keystroke_a	a	n/a
216.0435	0.09	432087	keystroke_l	l	n/a
216.1935	0.12	432387	keystroke_o	o	n/a
216.2385	0.105	432477	keystroke_n	n	n/a
216.2985	0.075	432597	keystroke_g	g	n/a
216.4335	0.12	432867	keystroke_Key.space	Key.space	n/a
216.5385	0.075	433077	keystroke_p	p	n/a
216.6435	0.105	433287	keystroke_r	r	n/a
216.7035	0.105	433407	keystroke_o	o	n/a
216.7785	0.135	433557	keystroke_b	b	n/a
216.8835	0.15	433767	keystroke_l	l	n/a
216.9885	0.105	433977	keystroke_e	e	n/a
217.0785	0.09	434157	keystroke_m	m	n/a
217.2735	0.075	434547	keystroke_Key.space	Key.space	n/a
217.4385	0.075	434877	keystroke_n	n	n/a
217.4835	0.09	434967	keystroke_o	o	n/a
217.6335	0.105	435267	keystroke_b	b	n/a
217.7085	0.135	435417	keystroke_l	l	n/a
217.8135	0.09	435627	keystroke_e	e	n/a
218.2485	0.09	436497	keystroke_Key.enter	Key.enter	n/a
218.3475	4.343	436695	prompt	n/a	preston reason conversations empire\n
218.8935	0.105	437787	keystroke_p	p	n/a
219.1335	0.15	438267	keystroke_r	r	n/a
219.2385	0.12	438477	keystroke_e	e	n/a
219.4485	0.165	438897	keystroke_s	s	n/a
219.6285	0.105	439257	keystroke_t	t	n/a
219.7035	0.12	439407	keystroke_o	o	n/a
219.7635	0.135	439527	keystroke_n	n	n/a
220.0035	0.12	440007	keystroke_Key.space	Key.space	n/a
220.0785	0.165	440157	keystroke_r	r	n/a
220.1535	0.135	440307	keystroke_e	e	n/a
220.2135	0.165	440427	keystroke_a	a	n/a
220.3635	0.105	440727	keystroke_s	s	n/a
220.4085	0.09	440817	keystroke_o	o	n/a
220.4535	0.135	440907	keystroke_n	n	n/a
220.7235	0.12	441447	keystroke_Key.space	Key.space	n/a
220.8885	0.09	441777	keystroke_c	c	n/a
220.9635	0.09	441927	keystroke_o	o	n/a
221.0235	0.09	442047	keystroke_n	n	n/a
221.0835	0.06	442167	keystroke_v	v	n/a
221.2185	0.135	442437	keystroke_e	e	n/a
221.3085	0.105	442617	keystroke_r	r	n/a
221.4585	0.12	442917	keystroke_s	s	n/a
221.5635	0.135	443127	keystroke_a	a	n/a
221.6835	0.09	443367	keystroke_t	t	n/a
221.7585	0.135	443517	keystroke_i	i	n/a
221.7885	0.135	443577	keystroke_o	o	n/a
221.8485	0.09	443697	keystroke_n	n	n/a
221.9085	0.09	443817	keystroke_s	s	n/a
222.0135	0.075	444027	keystroke_Key.space	Key.space	n/a
222.1335	0.105	444267	keystroke_e	e	n/a
222.1935	0.12	444387	keystroke_m	m	n/a
222.2535	0.15	444507	keystroke_p	p	n/a
222.3285	0.105	444657	keystroke_i	i	n/a
222.4185	0.075	444837	keystroke_r	r	n/a
222.4635	0.09	444927	keystroke_e	e	n/a
222.5835	0.105	445167	keystroke_Key.enter	Key.enter	n/a
222.695	6.3855	445390	prompt	n/a	occupied african departure advertisements\n
223.3485	0.12	446697	keystroke_o	o	n/a
223.4835	0.105	446967	keystroke_c	c	n/a
223.6485	0.03	447297	keystroke_c	c	n/a
223.7235	0.06	447447	keystroke_c	c	n/a
224.1735	0.075	448347	keystroke_Key.backspace	Key.backspace	n/a
224.4135	0.075	448827	keystroke_u	u	n/a
224.5785	0.12	449157	keystroke_p	p	n/a
224.6685	0.12	449337	keystroke_i	i	n/a
224.7435	0.105	449487	keystroke_e	e	n/a
224.8185	0.105	449637	keystroke_d	d	n/a
224.9235	0.12	449847	keystroke_Key.space	Key.space	n/a
225.1035	0.12	450207	keystroke_a	a	n/a
225.1935	0.12	450387	keystroke_f	f	n/a
225.3885	0.12	450777	keystroke_r	r	n/a
225.4935	0.105	450987	keystroke_i	i	n/a
225.6135	0.12	451227	keystroke_c	c	n/a
225.6885	0.12	451377	keystroke_a	a	n/a
225.7485	0.105	451497	keystroke_n	n	n/a
225.9285	0.09	451857	keystroke_Key.space	Key.space	n/a
225.9885	0.105	451977	keystroke_d	d	n/a
226.0635	0.12	452127	keystroke_e	e	n/a
226.1385	0.12	452277	keystroke_p	p	n/a
226.2885	0.09	452577	keystroke_a	a	n/a
226.3335	0.075	452667	keystroke_r	r	n/a
226.5135	0.09	453027	keystroke_t	t	n/a
226.6335	0.09	453267	keystroke_u	u	n/a
226.7085	0.105	453417	keystroke_r	r	n/a
226.7835	0.15	453567	keystroke_e	e	n/a
226.8735	0.165	453747	keystroke_Key.space	Key.space	n/a
227.0235	0.09	454047	keystroke_a	a	n/a
227.0685	0.12	454137	keystroke_d	d	n/a
227.5485	0.06	455097	keystroke_v	v	n/a
227.6835	0.12	455367	keystroke_e	e	n/a
227.7435	0.105	455487	keystroke_r	r	n/a
227.9535	0.09	455907	keystroke_t	t	n/a
228.0585	0.075	456117	keystroke_i	i	n/a
228.1335	0.105	456267	keystroke_s	s	n/a
228.3435	0.09	456687	keystroke_e	e	n/a
228.4185	0.105	456837	keystroke_m	m	n/a
228.5235	0.105	457047	keystroke_e	e	n/a
228.5985	0.12	457197	keystroke_n	n	n/a
228.6885	0.06	457377	keystroke_t	t	n/a
228.8685	0.105	457737	keystroke_s	s	n/a
228.9585	0.12	457917	keystroke_Key.enter	Key.enter	n/a
229.0865	4.0435	458173	prompt	n/a	henry stuart uses dictionaries\n
229.6635	0.105	459327	keystroke_h	h	n/a
229.7535	0.105	459507	keystroke_e	e	n/a
229.8285	0.105	459657	keystroke_n	n	n/a
229.9485	0.105	459897	keystroke_r	r	n/a
230.0085	0.105	460017	keystroke_y	y	n/a
230.0835	0.105	460167	keystroke_Key.space	Key.space	n/a
230.2035	0.15	460407	keystroke_s	s	n/a
230.3235	0.12	460647	keystroke_t	t	n/a
230.4135	0.105	460827	keystroke_u	u	n/a
230.4885	0.12	460977	keystroke_a	a	n/a
230.5785	0.09	461157	keystroke_r	r	n/a
230.7585	0.12	461517	keystroke_t	t	n/a
230.8485	0.12	461697	keystroke_Key.space	Key.space	n/a
230.9385	0.12	461877	keystroke_u	u	n/a
231.0285	0.09	462057	keystroke_s	s	n/a
231.2085	0.09	462417	keystroke_e	e	n/a
231.3885	0.09	462777	keystroke_s	s	n/a
231.4635	0.09	462927	keystroke_Key.space	Key.space	n/a
231.6135	0.12	463227	keystroke_d	d	n/a
231.7485	0.105	463497	keystroke_i	i	n/a
231.9435	0.09	463887	keystroke_c	c	n/a
232.1835	0.09	464367	keystroke_t	t	n/a
232.2585	0.18	464517	keystroke_i	i	n/a
232.3035	0.105	464607	keystroke_o	o	n/a
232.3785	0.075	464757	keystroke_n	n	n/a
232.4235	0.09	464847	keystroke_a	a	n/a
232.4835	0.105	464967	keystroke_r	r	n/a
232.6035	0.09	465207	keystroke_i	i	n/a
232.7085	0.075	465417	keystroke_e	e	n/a
232.8885	0.075	465777	keystroke_s	s	n/a
233.0085	0.12	466017	keystroke_Key.enter	Key.enter	n/a
233.1335	7.0915	466267	prompt	n/a	brochure intensity spotlight figured\n
233.7285	0.075	467457	keystroke_b	b	n/a
233.9085	0.12	467817	keystroke_o	o	n/a
233.9985	0.09	467997	keystroke_r	r	n/a
234.2985	0.06	468597	keystroke_Key.backspace	Key.backspace	n/a
234.4335	0.075	468867	keystroke_Key.backspace	Key.backspace	n/a
234.5535	0.09	469107	keystroke_r	r	n/a
234.7185	0.105	469437	keystroke_o	o	n/a
234.8385	0.09	469677	keystroke_c	c	n/a
234.9435	0.105	469887	keystroke_j	j	n/a
234.9435	0.165	469887	keystroke_h	h	n/a
235.0485	0.075	470097	keystroke_u	u	n/a
235.4535	0.045	470907	keystroke_Key.backspace	Key.backspace	n/a
235.6335	0.045	471267	keystroke_Key.backspace	Key.backspace	n/a
235.9185	0.12	471837	keystroke_u	u	n/a
236.2485	0.105	472497	keystroke_r	r	n/a
236.3085	0.135	472617	keystroke_e	e	n/a
236.3985	0.105	472797	keystroke_Key.space	Key.space	n/a
236.4885	0.15	472977	keystroke_i	i	n/a
236.5785	0.135	473157	keystroke_n	n	n/a
236.6535	0.105	473307	keystroke_t	t	n/a
236.7285	0.12	473457	keystroke_e	e	n/a
236.9385	0.135	473877	keystroke_s	s	n/a
237.4035	0.105	474807	keystroke_Key.backspace	Key.backspace	n/a
237.5235	0.135	475047	keystroke_n	n	n/a
237.6885	0.105	475377	keystroke_s	s	n/a
237.7935	0.105	475587	keystroke_i	i	n/a
237.9135	0.12	475827	keystroke_t	t	n/a
237.9885	0.075	475977	keystroke_y	y	n/a
238.0485	0.135	476097	keystroke_Key.space	Key.space	n/a
238.2435	0.12	476487	keystroke_s	s	n/a
238.3185	0.12	476637	keystroke_p	p	n/a
238.3785	0.12	476757	keystroke_o	o	n/a
238.4835	0.09	476967	keystroke_t	t	n/a
238.7685	0.165	477537	keystroke_l	l	n/a
238.8585	0.09	477717	keystroke_i	i	n/a
239.0685	0.105	478137	keystroke_g	g	n/a
239.0985	0.135	478197	keystroke_h	h	n/a
239.1885	0.09	478377	keystroke_t	t	n/a
239.2635	0.12	478527	keystroke_Key.space	Key.space	n/a
239.4585	0.105	478917	keystroke_f	f	n/a
239.5185	0.09	479037	keystroke_i	i	n/a
239.6385	0.105	479277	keystroke_g	g	n/a
239.7285	0.105	479457	keystroke_u	u	n/a
239.8485	0.09	479697	keystroke_r	r	n/a
239.9085	0.165	479817	keystroke_e	e	n/a
240.0285	0.105	480057	keystroke_d	d	n/a
240.1185	0.105	480237	keystroke_Key.enter	Key.enter	n/a
240.229	2.8765	480458	prompt	n/a	formal highs sync chosen\n
240.7935	0.105	481587	keystroke_f	f	n/a
240.8535	0.15	481707	keystroke_o	o	n/a
241.0185	0.075	482037	keystroke_r	r	n/a
241.0785	0.09	482157	keystroke_m	m	n/a
241.1835	0.105	482367	keystroke_a	a	n/a
241.2285	0.12	482457	keystroke_l	l	n/a
241.3185	0.12	482637	keystroke_Key.space	Key.space	n/a
241.3935	0.18	482787	keystroke_h	h	n/a
241.4835	0.105	482967	keystroke_i	i	n/a
241.6635	0.12	483327	keystroke_g	g	n/a
241.7385	0.105	483477	keystroke_h	h	n/a
241.7985	0.105	483597	keystroke_s	s	n/a
241.8735	0.12	483747	keystroke_Key.space	Key.space	n/a
242.0085	0.12	484017	keystroke_s	s	n/a
242.0985	0.12	484197	keystroke_y	y	n/a
242.1585	0.12	484317	keystroke_n	n	n/a
242.2335	0.075	484467	keystroke_c	c	n/a
242.3685	0.075	484737	keystroke_Key.space	Key.space	n/a
242.4285	0.09	484857	keystroke_c	c	n/a
242.4885	0.09	484977	keystroke_h	h	n/a
242.5335	0.15	485067	keystroke_o	o	n/a
242.6385	0.075	485277	keystroke_s	s	n/a
242.8485	0.06	485697	keystroke_e	e	n/a
242.8935	0.105	485787	keystroke_n	n	n/a
243.0135	0.09	486027	keystroke_Key.enter	Key.enter	n/a
243.1095	4.7355	486219	prompt	n/a	basement spam anonymous thousands\n
243.8685	0.105	487737	keystroke_b	b	n/a
243.9435	0.12	487887	keystroke_a	a	n/a
243.9885	0.12	487977	keystroke_s	s	n/a
244.1985	0.105	488397	keystroke_e	e	n/a
244.2735	0.09	488547	keystroke_m	m	n/a
244.3785	0.105	488757	keystroke_e	e	n/a
244.4535	0.09	488907	keystroke_n	n	n/a
244.5735	0.09	489147	keystroke_t	t	n/a
244.6485	0.135	489297	keystroke_Key.space	Key.space	n/a
244.7985	0.09	489597	keystroke_s	s	n/a
244.9035	0.12	489807	keystroke_p	p	n/a
244.9935	0.105	489987	keystroke_a	a	n/a
245.0835	0.075	490167	keystroke_m	m	n/a
245.2485	0.09	490497	keystroke_Key.space	Key.space	n/a
245.4135	0.105	490827	keystroke_a	a	n/a
245.5035	0.045	491007	keystroke_n	n	n/a
246.0735	0.12	492147	keystroke_o	o	n/a
246.1635	0.105	492327	keystroke_n	n	n/a
246.3735	0.061	492747	keystroke_y	y	n/a
246.5385	0.105	493077	keystroke_m	m	n/a
246.6135	0.135	493227	keystroke_o	o	n/a
246.6735	0.105	493347	keystroke_u	u	n/a
246.7335	0.12	493467	keystroke_s	s	n/a
246.8385	0.105	493677	keystroke_Key.space	Key.space	n/a
246.9885	0.09	493977	keystroke_t	t	n/a
247.0485	0.165	494097	keystroke_h	h	n/a
247.1235	0.12	494247	keystroke_o	o	n/a
247.1685	0.135	494337	keystroke_u	u	n/a
247.2585	0.105	494517	keystroke_s	s	n/a
247.3185	0.15	494637	keystroke_a	a	n/a
247.4085	0.105	494817	keystroke_n	n	n/a
247.5285	0.105	495057	keystroke_d	d	n/a
247.5885	0.105	495177	keystroke_s	s	n/a
247.7385	0.105	495477	keystroke_Key.enter	Key.enter	n/a
247.8515	4.5685	495703	prompt	n/a	tail buildings mainstream citizen\n
248.5185	0.105	497037	keystroke_t	t	n/a
248.6685	0.12	497337	keystroke_a	a	n/a
248.7435	0.15	497487	keystroke_i	i	n/a
248.8035	0.105	497607	keystroke_l	l	n/a
248.9385	0.135	497877	keystroke_Key.space	Key.space	n/a
249.0885	0.06	498177	keystroke_b	b	n/a
249.2985	0.136	498597	keystroke_u	u	n/a
249.3735	0.12	498747	keystroke_i	i	n/a
249.4185	0.12	498837	keystroke_l	l	n/a
249.5395	0.119	499079	keystroke_d	d	n/a
249.6285	0.09	499257	keystroke_i	i	n/a
249.6735	0.12	499347	keystroke_n	n	n/a
249.7785	0.075	499557	keystroke_g	g	n/a
249.9435	0.105	499887	keystroke_s	s	n/a
250.0785	0.045	500157	keystroke_Key.space	Key.space	n/a
250.2585	0.09	500517	keystroke_m	m	n/a
250.3335	0.12	500667	keystroke_a	a	n/a
250.3935	0.105	500787	keystroke_i	i	n/a
250.4385	0.135	500877	keystroke_n	n	n/a
250.5135	0.135	501027	keystroke_s	s	n/a
250.6335	0.075	501267	keystroke_t	t	n/a
250.7985	0.105	501597	keystroke_r	r	n/a
250.8585	0.12	501717	keystroke_e	e	n/a
250.8885	0.135	501777	keystroke_a	a	n/a
250.9635	0.09	501927	keystroke_m	m	n/a
251.1735	0.09	502347	keystroke_Key.space	Key.space	n/a
251.2785	0.105	502557	keystroke_c	c	n/a
251.4285	0.09	502857	keystroke_i	i	n/a
251.5035	0.09	503007	keystroke_t	t	n/a
251.6085	0.12	503217	keystroke_i	i	n/a
251.7585	0.09	503517	keystroke_z	z	n/a
251.9835	0.105	503967	keystroke_e	e	n/a
252.0435	0.15	504087	keystroke_n	n	n/a
252.2985	0.12	504597	keystroke_Key.enter	Key.enter	n/a
252.424	4.4065	504848	prompt	n/a	seniors seattle meant agenda\n
253.0935	0.135	506187	keystroke_s	s	n/a
253.3335	0.09	506667	keystroke_e	e	n/a
253.4385	0.12	506877	keystroke_n	n	n/a
253.4985	0.165	506997	keystroke_i	i	n/a
253.5735	0.12	507147	keystroke_o	o	n/a
253.6485	0.06	507297	keystroke_r	r	n/a
253.7685	0.105	507537	keystroke_s	s	n/a
253.9485	0.075	507897	keystroke_Key.space	Key.space	n/a
254.0685	0.09	508137	keystroke_s	s	n/a
254.2485	0.165	508497	keystroke_e	e	n/a
254.3235	0.135	508647	keystroke_a	a	n/a
254.4285	0.06	508857	keystroke_t	t	n/a
254.5635	0.12	509127	keystroke_t	t	n/a
254.6685	0.12	509337	keystroke_l	l	n/a
254.7735	0.09	509547	keystroke_e	e	n/a
254.8335	0.09	509667	keystroke_Key.space	Key.space	n/a
255.0585	0.09	510117	keystroke_m	m	n/a
255.1035	0.24	510207	keystroke_e	e	n/a
255.1785	0.18	510357	keystroke_a	a	n/a
255.2985	0.136	510597	keystroke_n	n	n/a
255.4485	0.12	510897	keystroke_t	t	n/a
255.5985	0.105	511197	keystroke_Key.space	Key.space	n/a
255.7335	0.105	511467	keystroke_a	a	n/a
255.9285	0.105	511857	keystroke_g	g	n/a
256.0185	0.105	512037	keystroke_e	e	n/a
256.0935	0.105	512187	keystroke_n	n	n/a
256.2145	0.089	512429	keystroke_d	d	n/a
256.3185	0.105	512637	keystroke_a	a	n/a
256.6935	0.135	513387	keystroke_Key.enter	Key.enter	n/a
256.8345	3.581	513669	prompt	n/a	paid wikipedia jose patent\n
257.3685	0.105	514737	keystroke_p	p	n/a
257.4585	0.105	514917	keystroke_a	a	n/a
257.5645	0.089	515129	keystroke_i	i	n/a
257.6685	0.091	515337	keystroke_d	d	n/a
257.7735	0.135	515547	keystroke_Key.space	Key.space	n/a
257.8935	0.09	515787	keystroke_w	w	n/a
257.9685	0.09	515937	keystroke_i	i	n/a
258.1635	0.09	516327	keystroke_k	k	n/a
258.3285	0.075	516657	keystroke_i	i	n/a
258.4795	0.104	516959	keystroke_p	p	n/a
258.5535	0.106	517107	keystroke_e	e	n/a
258.6735	0.105	517347	keystroke_d	d	n/a
258.7935	0.09	517587	keystroke_i	i	n/a
258.9885	0.12	517977	keystroke_a	a	n/a
259.1235	0.105	518247	keystroke_Key.space	Key.space	n/a
259.2435	0.12	518487	keystroke_j	j	n/a
259.3335	0.135	518667	keystroke_o	o	n/a
259.4235	0.075	518847	keystroke_s	s	n/a
259.5885	0.09	519177	keystroke_e	e	n/a
259.6635	0.105	519327	keystroke_Key.space	Key.space	n/a
259.7385	0.135	519477	keystroke_p	p	n/a
259.8135	0.105	519627	keystroke_a	a	n/a
259.9035	0.105	519807	keystroke_t	t	n/a
259.9785	0.105	519957	keystroke_e	e	n/a
260.0985	0.06	520197	keystroke_n	n	n/a
260.1445	0.104	520289	keystroke_t	t	n/a
260.2785	0.135	520557	keystroke_Key.enter	Key.enter	n/a
260.4195	4.6005	520839	prompt	n/a	webcam fashion exclude supply\n
261.1785	0.09	522357	keystroke_w	w	n/a
261.3435	0.12	522687	keystroke_e	e	n/a
261.4485	0.105	522897	keystroke_b	b	n/a
261.6585	0.09	523317	keystroke_c	c	n/a
261.7345	0.134	523469	keystroke_a	a	n/a
261.8085	0.09	523617	keystroke_m	m	n/a
261.9885	0.105	523977	keystroke_Key.space	Key.space	n/a
262.0785	0.105	524157	keystroke_f	f	n/a
262.1535	0.135	524307	keystroke_a	a	n/a
262.2435	0.12	524487	keystroke_s	s	n/a
262.3185	0.075	524637	keystroke_h	h	n/a
262.5135	0.135	525027	keystroke_i	i	n/a
262.5435	0.12	525087	keystroke_o	o	n/a
262.6185	0.075	525237	keystroke_n	n	n/a
262.7985	0.105	525597	keystroke_Key.space	Key.space	n/a
262.9345	0.089	525869	keystroke_e	e	n/a
263.1435	0.105	526287	keystroke_x	x	n/a
263.3085	0.12	526617	keystroke_c	c	n/a
263.3985	0.15	526797	keystroke_l	l	n/a
263.4595	0.119	526919	keystroke_u	u	n/a
263.5635	0.135	527127	keystroke_d	d	n/a
263.6685	0.12	527337	keystroke_e	e	n/a
263.7585	0.135	527517	keystroke_Key.space	Key.space	n/a
263.9085	0.09	527817	keystroke_s	s	n/a
264.1185	0.135	528237	keystroke_u	u	n/a
264.2235	0.09	528447	keystroke_p	p	n/a
264.3735	0.09	528747	keystroke_p	p	n/a
264.5835	0.105	529167	keystroke_l	l	n/a
264.6585	0.105	529317	keystroke_y	y	n/a
264.8985	0.12	529797	keystroke_Key.enter	Key.enter	n/a
265.024	4.1975	530048	prompt	n/a	back warned thompson deficit\n
265.5585	0.105	531117	keystroke_b	b	n/a
265.6335	0.135	531267	keystroke_a	a	n/a
265.7385	0.105	531477	keystroke_c	c	n/a
265.7835	0.09	531567	keystroke_k	k	n/a
265.8585	0.12	531717	keystroke_Key.space	Key.space	n/a
265.9485	0.135	531897	keystroke_w	w	n/a
266.0235	0.105	532047	keystroke_a	a	n/a
266.0995	0.119	532199	keystroke_r	r	n/a
266.2035	0.106	532407	keystroke_n	n	n/a
266.2935	0.135	532587	keystroke_e	e	n/a
266.3985	0.105	532797	keystroke_d	d	n/a
266.4585	0.12	532917	keystroke_Key.space	Key.space	n/a
266.8485	0.09	533697	keystroke_t	t	n/a
266.9685	0.105	533937	keystroke_h	h	n/a
267.2085	0.12	534417	keystroke_o	o	n/a
267.2985	0.136	534597	keystroke_m	m	n/a
267.3585	0.12	534717	keystroke_p	p	n/a
267.4635	0.12	534927	keystroke_s	s	n/a
267.5685	0.105	535137	keystroke_o	o	n/a
267.6435	0.075	535287	keystroke_n	n	n/a
267.8235	0.105	535647	keystroke_Key.space	Key.space	n/a
267.8985	0.12	535797	keystroke_d	d	n/a
268.2895	0.134	536579	keystroke_e	e	n/a
268.4835	0.135	536967	keystroke_f	f	n/a
268.6335	0.106	537267	keystroke_i	i	n/a
268.7085	0.12	537417	keystroke_c	c	n/a
268.8585	0.075	537717	keystroke_i	i	n/a
268.9485	0.091	537897	keystroke_t	t	n/a
269.1135	0.105	538227	keystroke_Key.enter	Key.enter	n/a
269.228	5.6475	538456	prompt	n/a	flyer confidential forestry craft\n
269.8035	0.106	539607	keystroke_f	f	n/a
269.9235	0.15	539847	keystroke_l	l	n/a
269.9985	0.105	539997	keystroke_y	y	n/a
270.0885	0.135	540177	keystroke_e	e	n/a
270.1645	0.089	540329	keystroke_r	r	n/a
270.2085	0.12	540417	keystroke_Key.space	Key.space	n/a
270.4185	0.121	540837	keystroke_c	c	n/a
270.5235	0.136	541047	keystroke_o	o	n/a
270.5985	0.12	541197	keystroke_n	n	n/a
271.0185	0.121	542037	keystroke_f	f	n/a
271.1535	0.12	542307	keystroke_i	i	n/a
271.2585	0.135	542517	keystroke_d	d	n/a
271.3485	0.135	542697	keystroke_e	e	n/a
271.4535	0.106	542907	keystroke_n	n	n/a
271.5445	0.09	543089	keystroke_t	t	n/a
271.6345	0.105	543269	keystroke_i	i	n/a
271.7235	0.105	543447	keystroke_a	a	n/a
271.8135	0.105	543627	keystroke_l	l	n/a
271.9035	0.12	543807	keystroke_Key.space	Key.space	n/a
272.0395	0.074	544079	keystroke_f	f	n/a
272.1295	0.12	544259	keystroke_o	o	n/a
272.2185	0.12	544437	keystroke_r	r	n/a
272.2945	0.119	544589	keystroke_e	e	n/a
272.4895	0.134	544979	keystroke_s	s	n/a
272.6095	0.074	545219	keystroke_t	t	n/a
272.7585	0.135	545517	keystroke_r	r	n/a
272.8795	0.074	545759	keystroke_y	y	n/a
272.9385	0.076	545877	keystroke_Key.space	Key.space	n/a
273.0285	0.106	546057	keystroke_c	c	n/a
273.2535	0.09	546507	keystroke_r	r	n/a
273.3285	0.136	546657	keystroke_a	a	n/a
273.4785	0.151	546957	keystroke_f	f	n/a
273.7495	0.075	547499	keystroke_t	t	n/a
273.8695	0.06	547739	keystroke_'	'	n/a
274.4535	0.06	548907	keystroke_Key.backspace	Key.backspace	n/a
274.7535	0.12	549507	keystroke_Key.enter	Key.enter	n/a
274.8845	5.016	549769	prompt	n/a	harley registered willing long\n
275.5795	0.119	551159	keystroke_h	h	n/a
275.653	0.1065	551306	keystroke_a	a	n/a
275.7285	0.106	551457	keystroke_r	r	n/a
275.8785	0.12	551757	keystroke_l	l	n/a
276.0145	0.135	552029	keystroke_e	e	n/a
276.134	0.0905	552268	keystroke_y	y	n/a
276.1935	0.12	552387	keystroke_Key.space	Key.space	n/a
276.494	0.09	552988	keystroke_n	n	n/a
276.8535	0.06	553707	keystroke_Key.backspace	Key.backspace	n/a
277.0495	0.1045	554099	keystroke_r	r	n/a
277.2595	0.1485	554519	keystroke_e	e	n/a
277.439	0.1045	554878	keystroke_g	g	n/a
277.528	0.12	555056	keystroke_i	i	n/a
277.634	0.134	555268	keystroke_s	s	n/a
277.753	0.136	555506	keystroke_t	t	n/a
277.873	0.1505	555746	keystroke_e	e	n/a
277.979	0.15	555958	keystroke_r	r	n/a
278.113	0.241	556226	keystroke_e	e	n/a
278.234	0.18	556468	keystroke_d	d	n/a
278.473	0.105	556946	keystroke_Key.space	Key.space	n/a
278.594	0.105	557188	keystroke_w	w	n/a
278.669	0.135	557338	keystroke_i	i	n/a
278.758	0.076	557516	keystroke_l	l	n/a
278.9235	0.1205	557847	keystroke_l	l	n/a
278.939	0.135	557878	keystroke_i	i	n/a
279.029	0.119	558058	keystroke_n	n	n/a
279.134	0.075	558268	keystroke_g	g	n/a
279.223	0.105	558446	keystroke_Key.space	Key.space	n/a
279.299	0.09	558598	keystroke_l	l	n/a
279.449	0.12	558898	keystroke_o	o	n/a
279.524	0.135	559048	keystroke_n	n	n/a
279.569	0.06	559138	keystroke_g	g	n/a
279.778	0.12	559556	keystroke_Key.enter	Key.enter	n/a
279.9055	4.645	559811	prompt	n/a	observations bathrooms entrance depend\n
280.544	0.105	561088	keystroke_o	o	n/a
280.784	0.12	561568	keystroke_b	b	n/a
280.994	0.105	561988	keystroke_s	s	n/a
281.189	0.165	562378	keystroke_e	e	n/a
281.264	0.105	562528	keystroke_r	r	n/a
281.354	0.075	562708	keystroke_v	v	n/a
281.444	0.135	562888	keystroke_a	a	n/a
281.534	0.09	563068	keystroke_t	t	n/a
281.609	0.15	563218	keystroke_i	i	n/a
281.669	0.105	563338	keystroke_o	o	n/a
281.714	0.09	563428	keystroke_n	n	n/a
281.789	0.075	563578	keystroke_s	s	n/a
281.909	0.104	563818	keystroke_Key.space	Key.space	n/a
282.044	0.105	564088	keystroke_b	b	n/a
282.119	0.12	564238	keystroke_a	a	n/a
282.194	0.105	564388	keystroke_t	t	n/a
282.299	0.075	564598	keystroke_h	h	n/a
282.389	0.12	564778	keystroke_r	r	n/a
282.464	0.074	564928	keystroke_o	o	n/a
282.599	0.12	565198	keystroke_o	o	n/a
282.674	0.09	565348	keystroke_m	m	n/a
282.779	0.12	565558	keystroke_s	s	n/a
282.868	0.091	565736	keystroke_Key.space	Key.space	n/a
282.989	0.09	565978	keystroke_e	e	n/a
283.064	0.104	566128	keystroke_n	n	n/a
283.154	0.075	566308	keystroke_t	t	n/a
283.319	0.105	566638	keystroke_r	r	n/a
283.409	0.09	566818	keystroke_a	a	n/a
283.469	0.105	566938	keystroke_n	n	n/a
283.589	0.105	567178	keystroke_c	c	n/a
283.679	0.105	567358	keystroke_e	e	n/a
283.723	0.135	567446	keystroke_Key.space	Key.space	n/a
283.873	0.106	567746	keystroke_d	d	n/a
283.934	0.105	567868	keystroke_e	e	n/a
284.009	0.09	568018	keystroke_p	p	n/a
284.114	0.075	568228	keystroke_e	e	n/a
284.174	0.105	568348	keystroke_n	n	n/a
284.249	0.09	568498	keystroke_d	d	n/a
284.429	0.12	568858	keystroke_Key.enter	Key.enter	n/a
284.5545	4.571	569109	prompt	n/a	mazda mitchell sought female\n
285.134	0.105	570268	keystroke_m	m	n/a
285.224	0.03	570448	keystroke_a	a	n/a
285.644	0.135	571288	keystroke_z	z	n/a
286.139	0.165	572278	keystroke_d	d	n/a
286.319	0.105	572638	keystroke_a	a	n/a
286.409	0.075	572818	keystroke_Key.space	Key.space	n/a
286.604	0.105	573208	keystroke_m	m	n/a
286.649	0.135	573298	keystroke_i	i	n/a
286.724	0.12	573448	keystroke_t	t	n/a
286.934	0.12	573868	keystroke_c	c	n/a
287.039	0.09	574078	keystroke_h	h	n/a
287.144	0.105	574288	keystroke_e	e	n/a
287.234	0.06	574468	keystroke_l	l	n/a
287.369	0.105	574738	keystroke_l	l	n/a
287.444	0.105	574888	keystroke_Key.space	Key.space	n/a
287.519	0.09	575038	keystroke_s	s	n/a
287.594	0.165	575188	keystroke_o	o	n/a
287.699	0.12	575398	keystroke_u	u	n/a
287.879	0.105	575758	keystroke_g	g	n/a
287.924	0.105	575848	keystroke_h	h	n/a
288.014	0.12	576028	keystroke_t	t	n/a
288.148	0.136	576296	keystroke_Key.space	Key.space	n/a
288.269	0.105	576538	keystroke_f	f	n/a
288.344	0.105	576688	keystroke_e	e	n/a
288.434	0.09	576868	keystroke_m	m	n/a
288.539	0.12	577078	keystroke_a	a	n/a
288.614	0.105	577228	keystroke_l	l	n/a
288.734	0.105	577468	keystroke_e	e	n/a
289.019	0.105	578038	keystroke_Key.enter	Key.enter	n/a
289.1315	5.004	578263	prompt	n/a	process batman battlefield machine\n
289.709	0.12	579418	keystroke_p	p	n/a
289.844	0.105	579688	keystroke_r	r	n/a
289.934	0.09	579868	keystroke_o	o	n/a
290.054	0.135	580108	keystroke_c	c	n/a
290.174	0.105	580348	keystroke_e	e	n/a
290.369	0.06	580738	keystroke_s	s	n/a
290.534	0.105	581068	keystroke_s	s	n/a
290.579	0.15	581158	keystroke_Key.space	Key.space	n/a
290.699	0.105	581398	keystroke_b	b	n/a
290.789	0.135	581578	keystroke_a	a	n/a
290.894	0.09	581788	keystroke_t	t	n/a
290.969	0.09	581938	keystroke_m	m	n/a
291.089	0.105	582178	keystroke_a	a	n/a
291.134	0.09	582268	keystroke_n	n	n/a
291.298	0.106	582596	keystroke_Key.space	Key.space	n/a
291.359	0.12	582718	keystroke_b	b	n/a
291.449	0.135	582898	keystroke_a	a	n/a
291.554	0.06	583108	keystroke_t	t	n/a
291.779	0.03	583558	keystroke_t	t	n/a
291.794	0.105	583588	keystroke_l	l	n/a
291.914	0.105	583828	keystroke_e	e	n/a
292.049	0.09	584098	keystroke_f	f	n/a
292.124	0.09	584248	keystroke_i	i	n/a
292.274	0.075	584548	keystroke_e	e	n/a
292.439	0.105	584878	keystroke_l	l	n/a
292.664	0.075	585328	keystroke_d	d	n/a
292.799	0.09	585598	keystroke_Key.space	Key.space	n/a
293.009	0.09	586018	keystroke_m	m	n/a
293.054	0.135	586108	keystroke_a	a	n/a
293.174	0.12	586348	keystroke_c	c	n/a
293.264	0.12	586528	keystroke_h	h	n/a
293.324	0.105	586648	keystroke_i	i	n/a
293.369	0.09	586738	keystroke_n	n	n/a
293.849	0.09	587698	keystroke_e	e	n/a
294.044	0.09	588088	keystroke_Key.enter	Key.enter	n/a
294.14	4.2705	588280	prompt	n/a	thereof dinner communicate assist\n
294.809	0.105	589618	keystroke_t	t	n/a
294.884	0.105	589768	keystroke_h	h	n/a
294.974	0.09	589948	keystroke_e	e	n/a
295.034	0.12	590068	keystroke_r	r	n/a
295.139	0.12	590278	keystroke_e	e	n/a
295.214	0.135	590428	keystroke_o	o	n/a
295.349	0.09	590698	keystroke_f	f	n/a
295.454	0.105	590908	keystroke_Key.space	Key.space	n/a
295.589	0.105	591178	keystroke_d	d	n/a
295.679	0.09	591358	keystroke_i	i	n/a
295.739	0.075	591478	keystroke_n	n	n/a
295.904	0.09	591808	keystroke_n	n	n/a
295.934	0.135	591868	keystroke_e	e	n/a
296.009	0.135	592018	keystroke_r	r	n/a
296.099	0.135	592198	keystroke_Key.space	Key.space	n/a
296.324	0.12	592648	keystroke_c	c	n/a
296.504	0.15	593008	keystroke_o	o	n/a
296.609	0.09	593218	keystroke_m	m	n/a
296.774	0.09	593548	keystroke_m	m	n/a
296.834	0.18	593668	keystroke_u	u	n/a
296.969	0.09	593938	keystroke_n	n	n/a
296.999	0.135	593998	keystroke_i	i	n/a
297.089	0.105	594178	keystroke_c	c	n/a
297.209	0.105	594418	keystroke_a	a	n/a
297.329	0.12	594658	keystroke_t	t	n/a
297.389	0.135	594778	keystroke_e	e	n/a
297.494	0.12	594988	keystroke_Key.space	Key.space	n/a
297.614	0.12	595228	keystroke_a	a	n/a
297.704	0.075	595408	keystroke_s	s	n/a
297.869	0.075	595738	keystroke_s	s	n/a
297.914	0.105	595828	keystroke_i	i	n/a
298.034	0.12	596068	keystroke_s	s	n/a
298.139	0.09	596278	keystroke_t	t	n/a
298.289	0.12	596578	keystroke_Key.enter	Key.enter	n/a
298.421	4.715	596842	prompt	n/a	educational ringtones fares kansas\n
299.084	0.12	598168	keystroke_e	e	n/a
299.279	0.135	598558	keystroke_d	d	n/a
299.519	0.12	599038	keystroke_u	u	n/a
299.624	0.12	599248	keystroke_c	c	n/a
299.759	0.12	599518	keystroke_a	a	n/a
299.894	0.105	599788	keystroke_t	t	n/a
299.924	0.15	599848	keystroke_i	i	n/a
299.984	0.12	599968	keystroke_o	o	n/a
300.029	0.105	600058	keystroke_n	n	n/a
300.119	0.12	600238	keystroke_a	a	n/a
300.224	0.12	600448	keystroke_l	l	n/a
300.299	0.135	600598	keystroke_Key.space	Key.space	n/a
300.509	0.15	601018	keystroke_r	r	n/a
300.614	0.135	601228	keystroke_i	i	n/a
300.704	0.12	601408	keystroke_n	n	n/a
300.809	0.075	601618	keystroke_g	g	n/a
300.974	0.105	601948	keystroke_t	t	n/a
301.019	0.12	602038	keystroke_o	o	n/a
301.064	0.12	602128	keystroke_n	n	n/a
301.154	0.075	602308	keystroke_e	e	n/a
301.334	0.09	602668	keystroke_s	s	n/a
301.409	0.12	602818	keystroke_Key.space	Key.space	n/a
301.544	0.09	603088	keystroke_f	f	n/a
301.694	0.09	603388	keystroke_a	a	n/a
301.769	0.12	603538	keystroke_r	r	n/a
301.844	0.105	603688	keystroke_e	e	n/a
302.024	0.105	604048	keystroke_s	s	n/a
302.114	0.12	604228	keystroke_Key.space	Key.space	n/a
302.249	0.105	604498	keystroke_k	k	n/a
302.339	0.135	604678	keystroke_a	a	n/a
302.459	0.105	604918	keystroke_n	n	n/a
302.579	0.075	605158	keystroke_s	s	n/a
302.804	0.135	605608	keystroke_a	a	n/a
302.894	0.075	605788	keystroke_s	s	n/a
302.999	0.135	605998	keystroke_Key.enter	Key.enter	n/a
303.141	7.4645	606282	prompt	n/a	possible sensitivity southern teams\n
303.644	0.15	607288	keystroke_p	p	n/a
303.779	0.09	607558	keystroke_o	o	n/a
303.809	0.045	607618	keystroke_i	i	n/a
303.824	0.075	607648	keystroke_s	s	n/a
304.019	0.075	608038	keystroke_s	s	n/a
304.454	0.045	608908	keystroke_Key.backspace	Key.backspace	n/a
304.634	0.075	609268	keystroke_Key.backspace	Key.backspace	n/a
304.964	0.09	609928	keystroke_=	=	n/a
305.429	0.135	610858	keystroke_Key.backspace	Key.backspace	n/a
305.684	0.075	611368	keystroke_Key.backspace	Key.backspace	n/a
306.299	0.12	612598	keystroke_s	s	n/a
306.479	0.105	612958	keystroke_s	s	n/a
306.569	0.105	613138	keystroke_i	i	n/a
306.614	0.18	613228	keystroke_b	b	n/a
306.719	0.15	613438	keystroke_l	l	n/a
306.824	0.12	613648	keystroke_e	e	n/a
306.959	0.06	613918	keystroke_Key.space	Key.space	n/a
307.124	0.135	614248	keystroke_s	s	n/a
307.364	0.135	614728	keystroke_e	e	n/a
307.469	0.12	614938	keystroke_n	n	n/a
307.604	0.105	615208	keystroke_s	s	n/a
307.844	0.135	615688	keystroke_i	i	n/a
307.994	0.105	615988	keystroke_t	t	n/a
308.129	0.06	616258	keystroke_i	i	n/a
308.219	0.105	616438	keystroke_v	v	n/a
308.309	0.075	616618	keystroke_i	i	n/a
308.429	0.09	616858	keystroke_t	t	n/a
308.504	0.09	617008	keystroke_y	y	n/a
308.579	0.105	617158	keystroke_Key.space	Key.space	n/a
309.239	0.12	618478	keystroke_s	s	n/a
309.344	0.12	618688	keystroke_o	o	n/a
309.374	0.12	618748	keystroke_u	u	n/a
309.479	0.09	618958	keystroke_t	t	n/a
309.584	0.075	619168	keystroke_h	h	n/a
309.644	0.12	619288	keystroke_e	e	n/a
309.734	0.105	619468	keystroke_r	r	n/a
309.794	0.09	619588	keystroke_n	n	n/a
309.974	0.075	619948	keystroke_Key.space	Key.space	n/a
310.034	0.105	620068	keystroke_t	t	n/a
310.124	0.135	620248	keystroke_e	e	n/a
310.169	0.135	620338	keystroke_a	a	n/a
310.229	0.105	620458	keystroke_m	m	n/a
310.364	0.12	620728	keystroke_s	s	n/a
310.484	0.12	620968	keystroke_Key.enter	Key.enter	n/a
310.611	4.434	621222	prompt	n/a	preston outside chevrolet sleeve\n
311.174	0.12	622348	keystroke_p	p	n/a
311.249	0.12	622498	keystroke_r	r	n/a
311.309	0.105	622618	keystroke_e	e	n/a
311.489	0.15	622978	keystroke_s	s	n/a
311.609	0.105	623218	keystroke_t	t	n/a
311.639	0.1345	623278	keystroke_o	o	n/a
311.729	0.0895	623458	keystroke_n	n	n/a
311.9085	0.12	623817	keystroke_Key.space	Key.space	n/a
312.0135	0.15	624027	keystroke_o	o	n/a
312.0735	0.135	624147	keystroke_u	u	n/a
312.1485	0.09	624297	keystroke_t	t	n/a
312.2985	0.165	624597	keystroke_s	s	n/a
312.4185	0.135	624837	keystroke_i	i	n/a
312.5385	0.135	625077	keystroke_d	d	n/a
312.6135	0.135	625227	keystroke_e	e	n/a
312.6885	0.135	625377	keystroke_Key.space	Key.space	n/a
312.9735	0.105	625947	keystroke_c	c	n/a
313.0635	0.09	626127	keystroke_h	h	n/a
313.1685	0.12	626337	keystroke_e	e	n/a
313.3035	0.135	626607	keystroke_v	v	n/a
313.6335	0.075	627267	keystroke_r	r	n/a
313.6785	0.075	627357	keystroke_o	o	n/a
313.8585	0.15	627717	keystroke_l	l	n/a
313.9185	0.15	627837	keystroke_e	e	n/a
314.0235	0.09	628047	keystroke_t	t	n/a
314.1285	0.09	628257	keystroke_Key.space	Key.space	n/a
314.2335	0.105	628467	keystroke_s	s	n/a
314.3535	0.105	628707	keystroke_l	l	n/a
314.4435	0.09	628887	keystroke_e	e	n/a
314.5785	0.15	629157	keystroke_e	e	n/a
314.7285	0.12	629457	keystroke_v	v	n/a
314.8035	0.135	629607	keystroke_e	e	n/a
314.9385	0.105	629877	keystroke_Key.enter	Key.enter	n/a
315.049	5.906	630098	prompt	n/a	emotional represented announcements carbon\n
315.7185	0.12	631437	keystroke_e	e	n/a
315.8235	0.12	631647	keystroke_m	m	n/a
315.8985	0.135	631797	keystroke_o	o	n/a
316.0185	0.105	632037	keystroke_t	t	n/a
316.1385	0.135	632277	keystroke_i	i	n/a
316.1685	0.12	632337	keystroke_o	o	n/a
316.2285	0.105	632457	keystroke_n	n	n/a
316.3185	0.12	632637	keystroke_a	a	n/a
316.4235	0.135	632847	keystroke_l	l	n/a
316.7685	0.12	633537	keystroke_Key.space	Key.space	n/a
316.8885	0.12	633777	keystroke_r	r	n/a
316.9635	0.135	633927	keystroke_e	e	n/a
317.0685	0.12	634137	keystroke_p	p	n/a
317.1585	0.12	634317	keystroke_r	r	n/a
317.2485	0.165	634497	keystroke_e	e	n/a
317.7885	0.09	635577	keystroke_s	s	n/a
317.9685	0.105	635937	keystroke_e	e	n/a
318.0285	0.09	636057	keystroke_n	n	n/a
318.1335	0.09	636267	keystroke_t	t	n/a
318.2085	0.165	636417	keystroke_e	e	n/a
318.3585	0.09	636717	keystroke_d	d	n/a
318.4335	0.105	636867	keystroke_Key.space	Key.space	n/a
318.5535	0.09	637107	keystroke_a	a	n/a
318.6585	0.045	637317	keystroke_n	n	n/a
318.8085	0.09	637617	keystroke_n	n	n/a
318.8535	0.135	637707	keystroke_o	o	n/a
318.9285	0.105	637857	keystroke_u	u	n/a
319.0035	0.105	638007	keystroke_n	n	n/a
319.0785	0.075	638157	keystroke_c	c	n/a
319.3935	0.105	638787	keystroke_e	e	n/a
319.5285	0.06	639057	keystroke_m	m	n/a
319.6185	0.09	639237	keystroke_e	e	n/a
319.6785	0.105	639357	keystroke_n	n	n/a
319.7685	0.09	639537	keystroke_t	t	n/a
319.9185	0.105	639837	keystroke_s	s	n/a
319.9935	0.12	639987	keystroke_Key.space	Key.space	n/a
320.1285	0.09	640257	keystroke_c	c	n/a
320.2485	0.105	640497	keystroke_a	a	n/a
320.3385	0.09	640677	keystroke_r	r	n/a
320.3835	0.09	640767	keystroke_b	b	n/a
320.5185	0.135	641037	keystroke_o	o	n/a
320.5635	0.12	641127	keystroke_n	n	n/a
320.8335	0.12	641667	keystroke_Key.enter	Key.enter	n/a
320.9595	4.3605	641919	prompt	n/a	wyoming entirely spirits punishment\n
321.4935	0.12	642987	keystroke_w	w	n/a
321.5985	0.06	643197	keystroke_y	y	n/a
321.7185	0.18	643437	keystroke_o	o	n/a
321.8685	0.12	643737	keystroke_m	m	n/a
321.9735	0.135	643947	keystroke_i	i	n/a
322.0635	0.105	644127	keystroke_n	n	n/a
322.1385	0.105	644277	keystroke_g	g	n/a
322.2585	0.09	644517	keystroke_Key.space	Key.space	n/a
322.4985	0.105	644997	keystroke_e	e	n/a
322.5585	0.105	645117	keystroke_n	n	n/a
322.6785	0.06	645357	keystroke_t	t	n/a
322.7235	0.105	645447	keystroke_i	i	n/a
322.8285	0.12	645657	keystroke_r	r	n/a
322.9035	0.105	645807	keystroke_e	e	n/a
322.9645	0.119	645929	keystroke_l	l	n/a
323.0535	0.075	646107	keystroke_y	y	n/a
323.0985	0.105	646197	keystroke_Key.space	Key.space	n/a
323.2335	0.105	646467	keystroke_s	s	n/a
323.2935	0.135	646587	keystroke_p	p	n/a
323.3535	0.09	646707	keystroke_i	i	n/a
323.4135	0.075	646827	keystroke_r	r	n/a
323.5485	0.075	647097	keystroke_i	i	n/a
323.5785	0.075	647157	keystroke_t	t	n/a
323.7135	0.12	647427	keystroke_s	s	n/a
323.8335	0.12	647667	keystroke_Key.space	Key.space	n/a
323.9535	0.15	647907	keystroke_p	p	n/a
324.0735	0.12	648147	keystroke_u	u	n/a
324.1335	0.12	648267	keystroke_n	n	n/a
324.4035	0.105	648807	keystroke_i	i	n/a
324.5235	0.12	649047	keystroke_s	s	n/a
324.6135	0.12	649227	keystroke_h	h	n/a
324.7035	0.12	649407	keystroke_m	m	n/a
324.8085	0.135	649617	keystroke_e	e	n/a
324.9285	0.105	649857	keystroke_n	n	n/a
325.0485	0.09	650097	keystroke_t	t	n/a
325.1985	0.12	650397	keystroke_Key.enter	Key.enter	n/a
325.326	4.479	650652	prompt	n/a	years simon learn transexual\n
326.6835	0.12	653367	keystroke_y	y	n/a
326.7585	0.18	653517	keystroke_e	e	n/a
326.8185	0.15	653637	keystroke_a	a	n/a
326.8635	0.12	653727	keystroke_r	r	n/a
327.0285	0.12	654057	keystroke_s	s	n/a
327.1335	0.12	654267	keystroke_Key.space	Key.space	n/a
327.2685	0.09	654537	keystroke_s	s	n/a
327.3285	0.12	654657	keystroke_i	i	n/a
327.4035	0.12	654807	keystroke_m	m	n/a
327.5385	0.135	655077	keystroke_o	o	n/a
327.6285	0.09	655257	keystroke_n	n	n/a
327.8235	0.09	655647	keystroke_Key.space	Key.space	n/a
327.9435	0.15	655887	keystroke_l	l	n/a
328.0035	0.165	656007	keystroke_e	e	n/a
328.0335	0.15	656067	keystroke_a	a	n/a
328.1085	0.105	656217	keystroke_r	r	n/a
328.1985	0.06	656397	keystroke_n	n	n/a
328.3335	0.135	656667	keystroke_Key.space	Key.space	n/a
328.4235	0.09	656847	keystroke_t	t	n/a
328.6035	0.09	657207	keystroke_r	r	n/a
328.6635	0.135	657327	keystroke_a	a	n/a
328.7535	0.075	657507	keystroke_n	n	n/a
328.8585	0.075	657717	keystroke_s	s	n/a
328.9935	0.105	657987	keystroke_e	e	n/a
329.1885	0.12	658377	keystroke_x	x	n/a
329.2635	0.075	658527	keystroke_u	u	n/a
329.3685	0.12	658737	keystroke_a	a	n/a
329.4435	0.12	658887	keystroke_l	l	n/a
329.6985	0.105	659397	keystroke_Key.enter	Key.enter	n/a
329.8105	4.2995	659621	prompt	n/a	vampire wrote peaceful terminal\n
330.4335	0.09	660867	keystroke_v	v	n/a
330.5385	0.135	661077	keystroke_a	a	n/a
330.5985	0.15	661197	keystroke_m	m	n/a
330.7635	0.135	661527	keystroke_p	p	n/a
330.8385	0.12	661677	keystroke_i	i	n/a
330.9285	0.12	661857	keystroke_r	r	n/a
330.9885	0.165	661977	keystroke_e	e	n/a
331.0785	0.12	662157	keystroke_Key.space	Key.space	n/a
331.6035	0.135	663207	keystroke_w	w	n/a
331.7545	0.089	663509	keystroke_r	r	n/a
331.8285	0.105	663657	keystroke_o	o	n/a
331.9635	0.105	663927	keystroke_t	t	n/a
332.0535	0.12	664107	keystroke_e	e	n/a
332.0985	0.165	664197	keystroke_Key.space	Key.space	n/a
332.2785	0.165	664557	keystroke_p	p	n/a
332.2935	0.195	664587	keystroke_e	e	n/a
332.3385	0.165	664677	keystroke_a	a	n/a
332.4735	0.165	664947	keystroke_c	c	n/a
332.6085	0.12	665217	keystroke_e	e	n/a
332.7585	0.105	665517	keystroke_f	f	n/a
332.8185	0.135	665637	keystroke_u	u	n/a
332.8935	0.15	665787	keystroke_l	l	n/a
332.9835	0.135	665967	keystroke_Key.space	Key.space	n/a
333.1335	0.105	666267	keystroke_t	t	n/a
333.2235	0.135	666447	keystroke_e	e	n/a
333.2985	0.12	666597	keystroke_r	r	n/a
333.3735	0.105	666747	keystroke_m	m	n/a
333.4335	0.165	666867	keystroke_i	i	n/a
333.5385	0.12	667077	keystroke_n	n	n/a
333.6435	0.105	667287	keystroke_a	a	n/a
333.7035	0.12	667407	keystroke_l	l	n/a
333.9735	0.135	667947	keystroke_Key.enter	Key.enter	n/a
334.1205	6.14	668241	prompt	n/a	nasdaq campus logitech certificates\n
334.8885	0.12	669777	keystroke_n	n	n/a
335.2635	0.165	670527	keystroke_a	a	n/a
335.3535	0.09	670707	keystroke_s	s	n/a
335.5185	0.12	671037	keystroke_d	d	n/a
335.8035	0.075	671607	keystroke_a	a	n/a
336.0285	0.135	672057	keystroke_q	q	n/a
336.3885	0.105	672777	keystroke_Key.space	Key.space	n/a
336.5385	0.135	673077	keystroke_c	c	n/a
336.6435	0.135	673287	keystroke_a	a	n/a
336.7035	0.165	673407	keystroke_m	m	n/a
336.7935	0.12	673587	keystroke_p	p	n/a
336.8535	0.12	673707	keystroke_u	u	n/a
336.9585	0.075	673917	keystroke_s	s	n/a
337.0185	0.12	674037	keystroke_Key.space	Key.space	n/a
337.1685	0.09	674337	keystroke_l	l	n/a
337.3485	0.09	674697	keystroke_o	o	n/a
337.4085	0.09	674817	keystroke_g	g	n/a
337.9035	0.135	675807	keystroke_i	i	n/a
338.0535	0.105	676107	keystroke_t	t	n/a
338.1885	0.165	676377	keystroke_e	e	n/a
338.3385	0.165	676677	keystroke_c	c	n/a
338.4435	0.12	676887	keystroke_h	h	n/a
338.5485	0.075	677097	keystroke_Key.space	Key.space	n/a
338.6385	0.12	677277	keystroke_c	c	n/a
338.7735	0.12	677547	keystroke_e	e	n/a
338.8785	0.135	677757	keystroke_r	r	n/a
339.0885	0.12	678177	keystroke_t	t	n/a
339.2685	0.105	678537	keystroke_i	i	n/a
339.3585	0.09	678717	keystroke_f	f	n/a
339.4635	0.12	678927	keystroke_i	i	n/a
339.5535	0.105	679107	keystroke_c	c	n/a
339.6735	0.12	679347	keystroke_a	a	n/a
339.7785	0.12	679557	keystroke_t	t	n/a
339.8685	0.105	679737	keystroke_e	e	n/a
340.0485	0.105	680097	keystroke_s	s	n/a
340.1385	0.12	680277	keystroke_Key.enter	Key.enter	n/a
340.269	4.5065	680538	prompt	n/a	podcast poker easter mining\n
340.8135	0.135	681627	keystroke_p	p	n/a
340.9185	0.105	681837	keystroke_o	o	n/a
340.9785	0.075	681957	keystroke_d	d	n/a
341.2785	0.135	682557	keystroke_c	c	n/a
341.4435	0.15	682887	keystroke_a	a	n/a
341.5335	0.18	683067	keystroke_s	s	n/a
