onset	duration	sample	value	key	prompt_text
6.1265	7.518	12253	prompt	n/a	the quick brown fox jumps over a lazy dog\n
7.2085	0.0725	14417	keystroke	t	n/a
7.2365	0.0895	14473	keystroke	h	n/a
7.356	0.09	14712	keystroke	e	n/a
7.4765	0.09	14953	keystroke	Key.space	n/a
7.5515	0.1495	15103	keystroke	q	n/a
7.6565	0.1195	15313	keystroke	u	n/a
7.761	0.0905	15522	keystroke	i	n/a
7.8965	0.105	15793	keystroke	c	n/a
7.9865	0.105	15973	keystroke	k	n/a
8.0765	0.075	16153	keystroke	Key.space	n/a
8.1965	0.09	16393	keystroke	b	n/a
8.2715	0.105	16543	keystroke	r	n/a
8.4215	0.09	16843	keystroke	o	n/a
8.4815	0.135	16963	keystroke	w	n/a
8.6015	0.12	17203	keystroke	n	n/a
8.6915	0.105	17383	keystroke	Key.space	n/a
8.7815	0.09	17563	keystroke	f	n/a
8.9315	0.06	17863	keystroke	o	n/a
9.697	0.075	19394	keystroke	x	n/a
9.787	0.075	19574	keystroke	Key.space	n/a
9.907	0.09	19814	keystroke	j	n/a
10.072	0.06	20144	keystroke	u	n/a
10.222	0.1495	20444	keystroke	m	n/a
10.3265	0.15	20653	keystroke	p	n/a
10.5515	0.1505	21103	keystroke	s	n/a
10.687	0.105	21374	keystroke	Key.space	n/a
10.8965	0.105	21793	keystroke	o	n/a
10.9715	0.105	21943	keystroke	v	n/a
11.182	0.15	22364	keystroke	e	n/a
11.272	0.18	22544	keystroke	r	n/a
11.392	0.09	22784	keystroke	Key.space	n/a
11.527	0.105	23054	keystroke	a	n/a
11.677	0.06	23354	keystroke	Key.space	n/a
11.827	0.12	23654	keystroke	l	n/a
11.947	0.09	23894	keystroke	a	n/a
12.142	0.105	24284	keystroke	z	n/a
12.277	0.12	24554	keystroke	y	n/a
12.337	0.09	24674	keystroke	Key.space	n/a
13.1765	0.075	26353	keystroke	d	n/a
13.2965	0.12	26593	keystroke	o	n/a
13.4315	0.06	26863	keystroke	g	n/a
13.5815	0.06	27163	keystroke	Key.enter	n/a
13.6475	8.441	27295	prompt	n/a	noticed prototype contractor visible\n
14.2415	0.12	28483	keystroke	n	n/a
14.3315	0.1055	28663	keystroke	o	n/a
14.497	0.0595	28994	keystroke	t	n/a
14.587	0.075	29174	keystroke	i	n/a
14.842	0.015	29684	keystroke	c	n/a
14.887	0.135	29774	keystroke	e	n/a
15.1865	0.09	30373	keystroke	d	n/a
15.3065	0.105	30613	keystroke	Key.space	n/a
15.472	0.105	30944	keystroke	p	n/a
15.607	0.075	31214	keystroke	r	n/a
15.697	0.09	31394	keystroke	o	n/a
16.507	0.15	33014	keystroke	t	n/a
16.672	0.075	33344	keystroke	o	n/a
16.987	0.0755	33974	keystroke	t	n/a
17.332	0.18	34664	keystroke	y	n/a
17.452	0.195	34904	keystroke	p	n/a
17.587	0.075	35174	keystroke	e	n/a
17.767	0.075	35534	keystroke	Key.space	n/a
18.157	0.165	36314	keystroke	c	n/a
18.307	0.18	36614	keystroke	o	n/a
18.397	0.105	36794	keystroke	n	n/a
18.847	0.15	37694	keystroke	t	n/a
18.952	0.09	37904	keystroke	r	n/a
19.1615	0.195	38323	keystroke	a	n/a
19.3115	0.105	38623	keystroke	c	n/a
19.6115	0.075	39223	keystroke	t	n/a
19.7315	0.105	39463	keystroke	o	n/a
19.8225	0.089	39645	keystroke	r	n/a
19.9265	0.09	39853	keystroke	Key.space	n/a
20.1515	0.075	40303	keystroke	v	n/a
20.6615	0.075	41323	keystroke	i	n/a
20.7665	0.12	41533	keystroke	s	n/a
20.9165	0.15	41833	keystroke	i	n/a
21.0365	0.181	42073	keystroke	b	n/a
21.2015	0.12	42403	keystroke	l	n/a
21.3065	0.09	42613	keystroke	e	n/a
21.9815	0.105	43963	keystroke	Key.enter	n/a
22.094	8.633	44188	prompt	n/a	method awareness lion gregory\n
22.9725	0.03	45945	keystroke	m	n/a
22.9875	0.12	45975	keystroke	e	n/a
23.0775	0.135	46155	keystroke	t	n/a
23.2575	0.12	46515	keystroke	h	n/a
23.3175	0.165	46635	keystroke	o	n/a
23.4675	0.105	46935	keystroke	d	n/a
23.5575	0.074	47115	keystroke	Key.space	n/a
23.6475	0.18	47295	keystroke	a	n/a
23.7825	0.239	47565	keystroke	w	n/a
23.9325	0.165	47865	keystroke	a	n/a
24.1725	0.1645	48345	keystroke	r	n/a
24.262	0.165	48524	keystroke	e	n/a
24.562	0.0895	49124	keystroke	n	n/a
24.667	0.075	49334	keystroke	e	n/a
24.8765	0.075	49753	keystroke	s	n/a
25.0265	0.1055	50053	keystroke	s	n/a
25.133	0.0745	50266	keystroke	Key.space	n/a
25.282	0.0755	50564	keystroke	l	n/a
25.4775	0.1945	50955	keystroke	i	n/a
25.597	0.24	51194	keystroke	o	n/a
25.777	0.2255	51554	keystroke	n	n/a
27.7275	0.09	55455	keystroke	Key.space	n/a
27.8325	0.3145	55665	keystroke	g	n/a
28.012	0.1505	56024	keystroke	r	n/a
28.102	0.2255	56204	keystroke	e	n/a
28.612	0.195	57224	keystroke	g	n/a
28.852	0.0145	57704	keystroke	o	n/a
28.882	0.0745	57764	keystroke	r	n/a
29.017	0.105	58034	keystroke	y	n/a
30.7305	7.2695	61461	prompt	n/a	merchants charity messaging christians\n
31.5495	0.149	63099	keystroke	m	n/a
31.6385	0.12	63277	keystroke	e	n/a
31.7135	0.091	63427	keystroke	r	n/a
31.9545	0.119	63909	keystroke	c	n/a
32.0885	0.06	64177	keystroke	h	n/a
32.1495	0.089	64299	keystroke	a	n/a
32.2685	0.12	64537	keystroke	n	n/a
32.4335	0.225	64867	keystroke	t	n/a
32.5845	0.149	65169	keystroke	s	n/a
32.7185	0.105	65437	keystroke	Key.space	n/a
32.9445	0.119	65889	keystroke	c	n/a
33.0485	0.061	66097	keystroke	h	n/a
33.1535	0.105	66307	keystroke	a	n/a
33.3035	0.105	66607	keystroke	r	n/a
33.4385	0.075	66877	keystroke	i	n/a
33.6785	0.015	67357	keystroke	t	n/a
33.7085	0.06	67417	keystroke	y	n/a
33.7385	0.09	67477	keystroke	Key.space	n/a
34.0085	0.1345	68017	keystroke	m	n/a
34.128	0.1495	68256	keystroke	e	n/a
34.158	0.135	68316	keystroke	s	n/a
34.398	0.0695	68796	keystroke	s	n/a
34.571	0.074	69142	keystroke	a	n/a
34.931	0.12	69862	keystroke	g	n/a
35.066	0.21	70132	keystroke	i	n/a
35.201	0.165	70402	keystroke	n	n/a
35.4415	0.105	70883	keystroke	g	n/a
35.5315	0.1495	71063	keystroke	Key.space	n/a
35.906	0.03	71812	keystroke	c	n/a
35.996	0.045	71992	keystroke	h	n/a
36.1765	0.044	72353	keystroke	r	n/a
36.2505	0.1645	72501	keystroke	i	n/a
36.461	0.09	72922	keystroke	s	n/a
36.656	0.06	73312	keystroke	t	n/a
36.761	0.105	73522	keystroke	i	n/a
36.911	0.12	73822	keystroke	a	n/a
37.091	0.045	74182	keystroke	n	n/a
37.316	0.09	74632	keystroke	s	n/a
37.886	0.105	75772	keystroke	Key.enter	n/a
38.0095	10.1575	76019	prompt	n/a	marker vegetables bedford curriculum\n
38.6815	0.09	77363	keystroke	m	n/a
38.7715	0.0905	77543	keystroke	a	n/a
39.0415	0.105	78083	keystroke	r	n/a
39.2065	0.09	78413	keystroke	k	n/a
39.3115	0.225	78623	keystroke	e	n/a
39.4315	0.18	78863	keystroke	r	n/a
39.8365	0.12	79673	keystroke	Key.space	n/a
40.0015	0.18	80003	keystroke	v	n/a
40.1065	0.15	80213	keystroke	e	n/a
40.6915	0.135	81383	keystroke	g	n/a
40.7665	0.12	81533	keystroke	e	n/a
41.0215	0.06	82043	keystroke	t	n/a
41.1415	0.15	82283	keystroke	a	n/a
41.2765	0.135	82553	keystroke	b	n/a
41.3815	0.135	82763	keystroke	l	n/a
41.5615	0.105	83123	keystroke	e	n/a
41.7865	0.15	83573	keystroke	s	n/a
41.8765	0.105	83753	keystroke	Key.space	n/a
42.3115	0.105	84623	keystroke	b	n/a
42.3715	0.09	84743	keystroke	e	n/a
42.7615	0.105	85523	keystroke	f	n/a
43.6015	0.134	87203	keystroke	Key.backspace	n/a
43.78	0.291	87560	keystroke	d	n/a
44.086	0.0595	88172	keystroke	f	n/a
44.1605	0.0305	88321	keystroke	o	n/a
44.1755	0.0295	88351	keystroke	r	n/a
44.25	0.015	88500	keystroke	d	n/a
44.266	0.1455	88532	keystroke	Key.space	n/a
45.41	0.135	90820	keystroke	c	n/a
45.53	0.1195	91060	keystroke	u	n/a
45.7105	0.044	91421	keystroke	r	n/a
45.83	0.09	91660	keystroke	r	n/a
45.95	0.075	91900	keystroke	i	n/a
46.055	0.135	92110	keystroke	c	n/a
46.175	0.045	92350	keystroke	u	n/a
46.355	0.075	92710	keystroke	l	n/a
46.535	0.09	93070	keystroke	u	n/a
46.835	0.09	93670	keystroke	m	n/a
48.065	0.09	96130	keystroke	Key.enter	n/a
48.177	4.8855	96354	prompt	n/a	chose pool feed ratios\n
48.8005	0.105	97601	keystroke	c	n/a
48.8905	0.135	97781	keystroke	h	n/a
48.9805	0.15	97961	keystroke	o	n/a
49.0705	0.255	98141	keystroke	s	n/a
49.2655	0.165	98531	keystroke	e	n/a
49.4155	0.075	98831	keystroke	Key.space	n/a
49.5355	0.12	99071	keystroke	p	n/a
49.7605	0.075	99521	keystroke	o	n/a
50.3605	0.105	100721	keystroke	o	n/a
50.6005	0.165	101201	keystroke	l	n/a
50.7505	0.12	101501	keystroke	Key.space	n/a
50.8855	0.18	101771	keystroke	f	n/a
51.0355	0.12	102071	keystroke	e	n/a
51.2455	0.09	102491	keystroke	e	n/a
51.4405	0.12	102881	keystroke	d	n/a
51.5455	0.15	103091	keystroke	Key.space	n/a
51.7105	0.15	103421	keystroke	r	n/a
51.8005	0.12	103601	keystroke	a	n/a
52.0105	0.12	104021	keystroke	t	n/a
52.1155	0.15	104231	keystroke	i	n/a
52.2205	0.1655	104441	keystroke	o	n/a
52.401	0.0745	104802	keystroke	s	n/a
52.9705	0.09	105941	keystroke	Key.enter	n/a
53.0745	4.8475	106149	prompt	n/a	bucks safely arcade sticker\n
53.7655	0.135	107531	keystroke	b	n/a
53.8405	0.1355	107681	keystroke	u	n/a
54.021	0.075	108042	keystroke	c	n/a
54.126	0.1345	108252	keystroke	k	n/a
54.2455	0.075	108491	keystroke	s	n/a
54.3505	0.105	108701	keystroke	Key.space	n/a
54.5155	0.1195	109031	keystroke	s	n/a
54.5755	0.12	109151	keystroke	a	n/a
54.7855	0.195	109571	keystroke	f	n/a
54.8755	0.15	109751	keystroke	e	n/a
55.0405	0.105	110081	keystroke	l	n/a
55.1905	0.12	110381	keystroke	y	n/a
55.2955	0.105	110591	keystroke	Key.space	n/a
55.5205	0.09	111041	keystroke	a	n/a
55.7455	0.09	111491	keystroke	r	n/a
56.0455	0.15	112091	keystroke	c	n/a
56.1355	0.195	112271	keystroke	a	n/a
56.3755	0.18	112751	keystroke	d	n/a
56.4955	0.12	112991	keystroke	e	n/a
56.6305	0.105	113261	keystroke	Key.space	n/a
56.7205	0.12	113441	keystroke	s	n/a
56.8855	0.09	113771	keystroke	t	n/a
56.9905	0.09	113981	keystroke	i	n/a
57.1405	0.105	114281	keystroke	c	n/a
57.2905	0.075	114581	keystroke	k	n/a
57.4105	0.15	114821	keystroke	e	n/a
57.4855	0.195	114971	keystroke	r	n/a
57.8155	0.105	115631	keystroke	Key.enter	n/a
57.9255	9.6645	115851	prompt	n/a	messages ricky simultaneously welding\n
58.6105	0.105	117221	keystroke	m	n/a
58.7905	0.135	117581	keystroke	e	n/a
58.9105	0.075	117821	keystroke	s	n/a
59.1055	0.06	118211	keystroke	s	n/a
59.2405	0.09	118481	keystroke	a	n/a
59.4055	0.195	118811	keystroke	g	n/a
59.5255	0.24	119051	keystroke	e	n/a
59.6155	0.165	119231	keystroke	s	n/a
59.7955	0.105	119591	keystroke	Key.space	n/a
60.0205	0.09	120041	keystroke	r	n/a
60.1555	0.075	120311	keystroke	i	n/a
60.2455	0.165	120491	keystroke	c	n/a
60.4255	0.0755	120851	keystroke	k	n/a
60.6655	0.045	121331	keystroke	y	n/a
61.0255	0.12	122051	keystroke	Key.space	n/a
61.3705	0.135	122741	keystroke	s	n/a
61.5505	0.21	123101	keystroke	i	n/a
61.6555	0.18	123311	keystroke	m	n/a
62.0005	0.075	124001	keystroke	u	n/a
62.3455	0.075	124691	keystroke	l	n/a
62.9155	0.105	125831	keystroke	t	n/a
63.0805	0.135	126161	keystroke	a	n/a
63.2755	0.075	126551	keystroke	n	n/a
63.7105	0.015	127421	keystroke	e	n/a
64.0405	0.285	128081	keystroke	o	n/a
64.1605	0.3	128321	keystroke	u	n/a
64.4755	0.015	128951	keystroke	s	n/a
64.5505	0.105	129101	keystroke	l	n/a
64.6705	0.12	129341	keystroke	y	n/a
65.1805	0.12	130361	keystroke	Key.space	n/a
65.3155	0.15	130631	keystroke	w	n/a
65.4055	0.105	130811	keystroke	e	n/a
66.0205	0.09	132041	keystroke	l	n/a
66.1405	0.12	132281	keystroke	d	n/a
66.3505	0.12	132701	keystroke	i	n/a
66.4105	0.12	132821	keystroke	n	n/a
66.5455	0.105	133091	keystroke	g	n/a
67.4755	0.105	134951	keystroke	Key.enter	n/a
67.594	8.0355	135188	prompt	n/a	pollution easter mesa mountains\n
68.3605	0.195	136721	keystroke	p	n/a
68.5255	0.135	137051	keystroke	o	n/a
68.7505	0.075	137501	keystroke	l	n/a
68.9905	0.06	137981	keystroke	u	n/a
69.3955	0.075	138791	keystroke	Key.backspace	n/a
69.6355	0.09	139271	keystroke	l	n/a
69.9055	0.105	139811	keystroke	u	n/a
70.1155	0.105	140231	keystroke	t	n/a
70.1905	0.225	140381	keystroke	i	n/a
70.2955	0.225	140591	keystroke	o	n/a
70.4305	0.165	140861	keystroke	n	n/a
70.5355	0.15	141071	keystroke	Key.space	n/a
70.7455	0.135	141491	keystroke	e	n/a
70.8355	0.21	141671	keystroke	a	n/a
70.9855	0.12	141971	keystroke	s	n/a
71.2255	0.105	142451	keystroke	t	n/a
71.3755	0.135	142751	keystroke	e	n/a
71.4655	0.12	142931	keystroke	r	n/a
71.5555	0.09	143111	keystroke	Key.space	n/a
71.7355	0.075	143471	keystroke	m	n/a
71.7505	0.1205	143501	keystroke	e	n/a
71.8105	0.15	143621	keystroke	s	n/a
72.1105	0.12	144221	keystroke	a	n/a
73.2955	0.09	146591	keystroke	Key.space	n/a
73.4605	0.1355	146921	keystroke	m	n/a
73.5355	0.27	147071	keystroke	o	n/a
73.7155	0.2105	147431	keystroke	u	n/a
73.866	0.15	147732	keystroke	n	n/a
73.971	0.1795	147942	keystroke	t	n/a
74.106	0.1795	148212	keystroke	a	n/a
74.3	0.181	148600	keystroke	i	n/a
74.391	0.135	148782	keystroke	n	n/a
74.586	0.105	149172	keystroke	s	n/a
75.5	0.1205	151000	keystroke	Key.enter	n/a
75.633	5.5095	151266	prompt	n/a	home finger sperm newman\n
77.315	0.1205	154630	keystroke	h	n/a
77.4205	0.2095	154841	keystroke	o	n/a
77.6	0.135	155200	keystroke	m	n/a
77.705	0.09	155410	keystroke	e	n/a
77.81	0.1205	155620	keystroke	Key.space	n/a
77.9315	0.074	155863	keystroke	f	n/a
77.99	0.2105	155980	keystroke	i	n/a
78.0955	0.135	156191	keystroke	n	n/a
78.216	0.1795	156432	keystroke	g	n/a
78.4405	0.15	156881	keystroke	e	n/a
78.516	0.1495	157032	keystroke	r	n/a
78.6805	0.105	157361	keystroke	Key.space	n/a
78.8605	0.105	157721	keystroke	s	n/a
78.9355	0.135	157871	keystroke	p	n/a
79.1155	0.18	158231	keystroke	e	n/a
79.2205	0.195	158441	keystroke	r	n/a
79.3705	0.195	158741	keystroke	m	n/a
79.4755	0.1355	158951	keystroke	Key.space	n/a
79.716	0.09	159432	keystroke	n	n/a
79.821	0.18	159642	keystroke	e	n/a
79.926	0.15	159852	keystroke	w	n/a
80.1955	0.09	160391	keystroke	m	n/a
80.3005	0.135	160601	keystroke	a	n/a
80.3905	0.075	160781	keystroke	n	n/a
81.021	0.12	162042	keystroke	Key.enter	n/a
81.146	8.9285	162292	prompt	n/a	weapon manufacturing perhaps material\n
81.816	0.21	163632	keystroke	w	n/a
82.071	0.2095	164142	keystroke	e	n/a
82.2065	0.164	164413	keystroke	a	n/a
82.4155	0.225	164831	keystroke	p	n/a
82.5665	0.209	165133	keystroke	o	n/a
82.7155	0.21	165431	keystroke	n	n/a
82.8955	0.12	165791	keystroke	Key.space	n/a
83.0905	0.105	166181	keystroke	m	n/a
83.1805	0.135	166361	keystroke	a	n/a
83.3015	0.209	166603	keystroke	n	n/a
83.4205	0.18	166841	keystroke	u	n/a
83.7055	0.12	167411	keystroke	f	n/a
83.7955	0.135	167591	keystroke	a	n/a
83.9605	0.105	167921	keystroke	c	n/a
84.231	0.075	168462	keystroke	t	n/a
84.321	0.09	168642	keystroke	u	n/a
84.426	0.09	168852	keystroke	r	n/a
84.531	0.15	169062	keystroke	i	n/a
84.621	0.18	169242	keystroke	n	n/a
84.771	0.135	169542	keystroke	g	n/a
84.981	0.105	169962	keystroke	Key.space	n/a
85.8215	0.165	171643	keystroke	p	n/a
85.9565	0.21	171913	keystroke	e	n/a
86.0915	0.135	172183	keystroke	r	n/a
86.5265	0.09	173053	keystroke	h	n/a
86.6315	0.09	173263	keystroke	a	n/a
86.7365	0.105	173473	keystroke	p	n/a
86.8565	0.105	173713	keystroke	s	n/a
86.9615	0.06	173923	keystroke	Key.space	n/a
87.0815	0.09	174163	keystroke	m	n/a
87.1565	0.12	174313	keystroke	e	n/a
87.4415	0.12	174883	keystroke	t	n/a
87.9065	0.06	175813	keystroke	Key.backspace	n/a
88.0565	0.075	176113	keystroke	Key.backspace	n/a
88.1165	0.09	176233	keystroke	a	n/a
88.3115	0.09	176623	keystroke	t	n/a
88.4315	0.165	176863	keystroke	e	n/a
88.5515	0.135	177103	keystroke	r	n/a
88.7015	0.09	177403	keystroke	i	n/a
88.8965	0.09	177793	keystroke	a	n/a
89.1065	0.105	178213	keystroke	l	n/a
89.9915	0.075	179983	keystroke	Key.enter	n/a
90.0785	6.506	180157	prompt	n/a	impressed bizrate accepted chem\n
90.906	0.24	181812	keystroke	i	n/a
91.041	0.165	182082	keystroke	m	n/a
91.191	0.195	182382	keystroke	p	n/a
91.311	0.18	182622	keystroke	r	n/a
91.401	0.165	182802	keystroke	e	n/a
91.521	0.15	183042	keystroke	s	n/a
91.8215	0.1495	183643	keystroke	s	n/a
91.926	0.12	183852	keystroke	e	n/a
92.181	0.09	184362	keystroke	d	n/a
92.226	0.09	184452	keystroke	Key.space	n/a
92.406	0.1205	184812	keystroke	b	n/a
92.4815	0.1345	184963	keystroke	i	n/a
92.8265	0.09	185653	keystroke	z	n/a
93.0965	0.1505	186193	keystroke	r	n/a
93.1715	0.1205	186343	keystroke	a	n/a
93.412	0.149	186824	keystroke	t	n/a
93.471	0.151	186942	keystroke	e	n/a
93.636	0.105	187272	keystroke	Key.space	n/a
93.742	0.104	187484	keystroke	a	n/a
93.966	0.075	187932	keystroke	c	n/a
94.117	0.09	188234	keystroke	c	n/a
94.342	0.104	188684	keystroke	e	n/a
94.731	0.18	189462	keystroke	p	n/a
94.896	0.09	189792	keystroke	t	n/a
95.181	0.015	190362	keystroke	e	n/a
95.286	0.18	190572	keystroke	d	n/a
95.376	0.12	190752	keystroke	Key.space	n/a
95.511	0.09	191022	keystroke	c	n/a
95.631	0.03	191262	keystroke	h	n/a
95.766	0.12	191532	keystroke	e	n/a
95.947	0.089	191894	keystroke	m	n/a
96.471	0.105	192942	keystroke	Key.enter	n/a
96.588	8.772	193176	prompt	n/a	civilization amateur naked scripting\n
97.7765	0.06	195553	keystroke	c	n/a
97.9265	0.075	195853	keystroke	i	n/a
98.0465	0.045	196093	keystroke	v	n/a
98.1065	0.06	196213	keystroke	i	n/a
98.3015	0.045	196603	keystroke	l	n/a
98.4515	0.105	196903	keystroke	i	n/a
98.5715	0.0905	197143	keystroke	x	n/a
99.0965	0.09	198193	keystroke	Key.backspace	n/a
99.2015	0.18	198403	keystroke	z	n/a
99.3065	0.135	198613	keystroke	a	n/a
99.6965	0.09	199393	keystroke	t	n/a
99.8465	0.15	199693	keystroke	i	n/a
99.9365	0.2555	199873	keystroke	o	n/a
100.087	0.2245	200174	keystroke	n	n/a
100.2515	0.105	200503	keystroke	Key.space	n/a
100.537	0.105	201074	keystroke	a	n/a
100.8365	0.09	201673	keystroke	m	n/a
100.9415	0.105	201883	keystroke	a	n/a
101.2415	0.075	202483	keystroke	t	n/a
101.4065	0.09	202813	keystroke	e	n/a
101.6615	0.12	203323	keystroke	u	n/a
101.7665	0.09	203533	keystroke	r	n/a
101.8715	0.09	203743	keystroke	Key.space	n/a
102.0665	0.09	204133	keystroke	n	n/a
102.1265	0.105	204253	keystroke	a	n/a
102.2765	0.105	204553	keystroke	k	n/a
102.3665	0.09	204733	keystroke	e	n/a
102.5615	0.09	205123	keystroke	d	n/a
102.6665	0.0905	205333	keystroke	Key.space	n/a
102.7715	0.075	205543	keystroke	s	n/a
102.9515	0.09	205903	keystroke	c	n/a
103.1615	0.09	206323	keystroke	r	n/a
103.2665	0.135	206533	keystroke	i	n/a
103.3565	0.105	206713	keystroke	p	n/a
103.4465	0.12	206893	keystroke	t	n/a
103.5815	0.21	207163	keystroke	i	n/a
103.7615	0.135	207523	keystroke	n	n/a
103.8815	0.09	207763	keystroke	g	n/a
105.157	0.195	210314	keystroke	Key.enter	n/a
105.3635	6.125	210727	prompt	n/a	ryan dude temperatures running\n
106.2515	0.12	212503	keystroke	r	n/a
106.3865	0.1055	212773	keystroke	y	n/a
106.507	0.18	213014	keystroke	a	n/a
106.627	0.15	213254	keystroke	n	n/a
106.747	0.12	213494	keystroke	Key.space	n/a
106.897	0.075	213794	keystroke	d	n/a
106.987	0.12	213974	keystroke	u	n/a
107.062	0.195	214124	keystroke	d	n/a
107.182	0.165	214364	keystroke	e	n/a
107.917	0.09	215834	keystroke	Key.space	n/a
108.022	0.21	216044	keystroke	t	n/a
108.157	0.195	216314	keystroke	e	n/a
108.337	0.105	216674	keystroke	m	n/a
108.382	0.165	216764	keystroke	p	n/a
108.502	0.15	217004	keystroke	e	n/a
108.577	0.135	217154	keystroke	r	n/a
108.832	0.075	217664	keystroke	a	n/a
109.027	0.075	218054	keystroke	t	n/a
109.132	0.18	218264	keystroke	u	n/a
109.237	0.18	218474	keystroke	r	n/a
109.327	0.225	218654	keystroke	e	n/a
109.462	0.1505	218924	keystroke	s	n/a
109.5975	0.105	219195	keystroke	Key.space	n/a
109.7625	0.09	219525	keystroke	r	n/a
109.8215	0.121	219643	keystroke	u	n/a
109.8965	0.136	219793	keystroke	n	n/a
110.1215	0.121	220243	keystroke	n	n/a
110.2275	0.15	220455	keystroke	i	n/a
110.3025	0.1345	220605	keystroke	n	n/a
110.422	0.075	220844	keystroke	g	n/a
111.3675	0.12	222735	keystroke	Key.enter	n/a
111.491	7.459	222982	prompt	n/a	goals parent studies beautifully\n
112.4165	0.105	224833	keystroke	g	n/a
112.5365	0.09	225073	keystroke	o	n/a
112.6425	0.119	225285	keystroke	a	n/a
112.777	0.0595	225554	keystroke	l	n/a
112.8515	0.105	225703	keystroke	s	n/a
113.0015	0.105	226003	keystroke	Key.space	n/a
114.6825	0.1195	229365	keystroke	p	n/a
114.7725	0.0895	229545	keystroke	a	n/a
114.967	0.165	229934	keystroke	r	n/a
115.057	0.135	230114	keystroke	e	n/a
115.207	0.09	230414	keystroke	n	n/a
115.312	0.105	230624	keystroke	t	n/a
115.462	0.045	230924	keystroke	Key.space	n/a
115.717	0.06	231434	keystroke	s	n/a
115.897	0.09	231794	keystroke	t	n/a
116.062	0.105	232124	keystroke	u	n/a
116.197	0.09	232394	keystroke	d	n/a
116.317	0.105	232634	keystroke	i	n/a
116.437	0.18	232874	keystroke	e	n/a
116.542	0.15	233084	keystroke	s	n/a
116.722	0.12	233444	keystroke	Key.space	n/a
116.917	0.105	233834	keystroke	b	n/a
117.157	0.195	234314	keystroke	e	n/a
117.232	0.165	234464	keystroke	a	n/a
117.457	0.105	234914	keystroke	u	n/a
117.577	0.09	235154	keystroke	t	n/a
117.847	0.105	235694	keystroke	i	n/a
117.997	0.09	235994	keystroke	f	n/a
118.102	0.06	236204	keystroke	u	n/a
118.327	0.06	236654	keystroke	l	n/a
118.462	0.091	236924	keystroke	l	n/a
118.597	0.075	237194	keystroke	y	n/a
118.837	0.105	237674	keystroke	Key.enter	n/a
118.954	7.496	237908	prompt	n/a	larger whether meeting standing\n
119.677	0.12	239354	keystroke	l	n/a
119.752	0.105	239504	keystroke	a	n/a
119.977	0.06	239954	keystroke	r	n/a
120.157	0.12	240314	keystroke	g	n/a
120.262	0.255	240524	keystroke	e	n/a
120.502	0.195	241004	keystroke	r	n/a
120.727	0.105	241454	keystroke	Key.space	n/a
120.967	0.18	241934	keystroke	w	n/a
121.9115	0.12	243823	keystroke	h	n/a
122.1515	0.151	244303	keystroke	e	n/a
122.3615	0.076	244723	keystroke	t	n/a
122.5115	0.151	245023	keystroke	h	n/a
122.6165	0.121	245233	keystroke	e	n/a
122.7065	0.121	245413	keystroke	r	n/a
122.8115	0.075	245623	keystroke	Key.space	n/a
122.9615	0.09	245923	keystroke	m	n/a
123.0365	0.091	246073	keystroke	e	n/a
123.217	0.1055	246434	keystroke	e	n/a
123.3815	0.1065	246763	keystroke	t	n/a
123.473	0.134	246946	keystroke	i	n/a
123.547	0.15	247094	keystroke	n	n/a
123.698	0.0885	247396	keystroke	g	n/a
123.817	0.12	247634	keystroke	Key.space	n/a
123.982	0.06	247964	keystroke	s	n/a
124.192	0.0745	248384	keystroke	t	n/a
124.432	0.106	248864	keystroke	a	n/a
124.5675	0.09	249135	keystroke	n	n/a
124.6725	0.09	249345	keystroke	d	n/a
124.7775	0.15	249555	keystroke	i	n/a
124.8375	0.165	249675	keystroke	n	n/a
125.0325	0.09	250065	keystroke	g	n/a
126.3225	0.12	252645	keystroke	Key.enter	n/a
126.454	4.7745	252908	prompt	n/a	meat justify apart eligible\n
127.0275	0.12	254055	keystroke	m	n/a
127.0875	0.195	254175	keystroke	e	n/a
127.2225	0.18	254445	keystroke	a	n/a
127.3725	0.225	254745	keystroke	t	n/a
127.6125	0.03	255225	keystroke	Key.space	n/a
127.7025	0.075	255405	keystroke	j	n/a
127.8525	0.105	255705	keystroke	u	n/a
127.9425	0.195	255885	keystroke	s	n/a
128.0775	0.15	256155	keystroke	t	n/a
128.2725	0.09	256545	keystroke	i	n/a
128.4075	0.15	256815	keystroke	f	n/a
128.5725	0.105	257145	keystroke	y	n/a
128.662	0.1205	257324	keystroke	Key.space	n/a
128.7825	0.09	257565	keystroke	a	n/a
128.8875	0.12	257775	keystroke	p	n/a
128.9925	0.195	257985	keystroke	a	n/a
129.1425	0.12	258285	keystroke	r	n/a
129.4425	0.03	258885	keystroke	t	n/a
129.4575	0.09	258915	keystroke	Key.space	n/a
129.8025	0.09	259605	keystroke	e	n/a
129.9975	0.075	259995	keystroke	l	n/a
130.1925	0.12	260385	keystroke	i	n/a
130.4025	0.015	260805	keystroke	g	n/a
130.432	0.18	260864	keystroke	i	n/a
130.582	0.1955	261164	keystroke	b	n/a
130.7625	0.15	261525	keystroke	l	n/a
130.9275	0.09	261855	keystroke	e	n/a
131.1525	0.075	262305	keystroke	Key.enter	n/a
131.232	7.117	262464	prompt	n/a	affordable deputy poker compared\n
131.9325	0.075	263865	keystroke	a	n/a
132.3975	0.09	264795	keystroke	f	n/a
132.5475	0.09	265095	keystroke	f	n/a
132.6825	0.12	265365	keystroke	o	n/a
132.7875	0.075	265575	keystroke	r	n/a
133.0125	0.105	266025	keystroke	d	n/a
133.2825	0.135	266565	keystroke	a	n/a
133.4625	0.18	266925	keystroke	b	n/a
133.5975	0.12	267195	keystroke	l	n/a
133.6875	0.075	267375	keystroke	e	n/a
133.8225	0.09	267645	keystroke	Key.space	n/a
133.8975	0.12	267795	keystroke	d	n/a
134.4675	0.105	268935	keystroke	e	n/a
134.7675	0.135	269535	keystroke	p	n/a
135.0075	0.09	270015	keystroke	u	n/a
135.1125	0.105	270225	keystroke	t	n/a
135.2325	0.105	270465	keystroke	y	n/a
135.3075	0.135	270615	keystroke	Key.space	n/a
135.5625	0.195	271125	keystroke	p	n/a
135.7125	0.21	271425	keystroke	o	n/a
135.8625	0.195	271725	keystroke	k	n/a
136.0725	0.1795	272145	keystroke	e	n/a
136.177	0.1355	272354	keystroke	r	n/a
136.357	0.09	272714	keystroke	Key.space	n/a
136.5225	0.135	273045	keystroke	c	n/a
136.5825	0.195	273165	keystroke	o	n/a
136.6875	0.12	273375	keystroke	m	n/a
136.7475	0.165	273495	keystroke	p	n/a
136.8975	0.12	273795	keystroke	a	n/a
137.3025	0.15	274605	keystroke	r	n/a
137.3925	0.105	274785	keystroke	e	n/a
137.6625	0.0895	275325	keystroke	d	n/a
138.1725	0.165	276345	keystroke	Key.enter	n/a
138.355	8.706	276710	prompt	n/a	sticker grade pixel phenomenon\n
138.9525	0.09	277905	keystroke	s	n/a
139.1475	0.075	278295	keystroke	t	n/a
139.2525	0.105	278505	keystroke	i	n/a
139.6125	0.12	279225	keystroke	c	n/a
139.8225	0.12	279645	keystroke	k	n/a
139.9575	0.165	279915	keystroke	e	n/a
140.0465	0.121	280093	keystroke	r	n/a
140.1975	0.105	280395	keystroke	Key.space	n/a
140.3475	0.135	280695	keystroke	g	n/a
140.4225	0.12	280845	keystroke	r	n/a
140.6175	0.15	281235	keystroke	a	n/a
140.7825	0.18	281565	keystroke	d	n/a
140.8875	0.135	281775	keystroke	e	n/a
140.9925	0.09	281985	keystroke	Key.space	n/a
141.1125	0.165	282225	keystroke	p	n/a
141.2325	0.165	282465	keystroke	i	n/a
141.4125	0.09	282825	keystroke	z	n/a
141.6525	0.075	283305	keystroke	e	n/a
142.0125	0.06	284025	keystroke	Key.backspace	n/a
142.162	0.09	284324	keystroke	Key.backspace	n/a
142.867	0.09	285734	keystroke	x	n/a
143.123	0.09	286246	keystroke	e	n/a
143.227	0.135	286454	keystroke	l	n/a
143.302	0.09	286604	keystroke	Key.space	n/a
143.827	0.255	287654	keystroke	p	n/a
144.052	0.1205	288104	keystroke	h	n/a
144.2025	0.135	288405	keystroke	e	n/a
144.5025	0.135	289005	keystroke	n	n/a
144.5925	0.135	289185	keystroke	o	n/a
145.9425	0.105	291885	keystroke	m	n/a
146.0775	0.12	292155	keystroke	e	n/a
146.2425	0.105	292485	keystroke	n	n/a
146.3325	0.165	292665	keystroke	o	n/a
146.4225	0.105	292845	keystroke	n	n/a
147.0075	0.045	294015	keystroke	Key.enter	n/a
147.0645	6.3945	294129	prompt	n/a	proudly interpreted exceed marking\n
147.8175	0.165	295635	keystroke	p	n/a
148.0125	0.12	296025	keystroke	r	n/a
148.1175	0.225	296235	keystroke	o	n/a
148.2525	0.12	296505	keystroke	u	n/a
148.7625	0.09	297525	keystroke	d	n/a
149.0325	0.09	298065	keystroke	l	n/a
149.1075	0.12	298215	keystroke	y	n/a
149.2425	0.105	298485	keystroke	Key.space	n/a
149.4825	0.18	298965	keystroke	i	n/a
149.5575	0.15	299115	keystroke	n	n/a
149.7225	0.075	299445	keystroke	t	n/a
149.8275	0.165	299655	keystroke	e	n/a
149.9475	0.105	299895	keystroke	r	n/a
150.0975	0.135	300195	keystroke	p	n/a
150.1875	0.18	300375	keystroke	r	n/a
150.2775	0.15	300555	keystroke	e	n/a
150.577	0.165	301154	keystroke	t	n/a
150.682	0.1355	301364	keystroke	e	n/a
151.0425	0.09	302085	keystroke	d	n/a
151.1625	0.105	302325	keystroke	Key.space	n/a
151.3125	0.09	302625	keystroke	e	n/a
151.5375	0.15	303075	keystroke	x	n/a
151.7325	0.1195	303465	keystroke	c	n/a
151.912	0.09	303824	keystroke	e	n/a
152.077	0.0905	304154	keystroke	e	n/a
152.3175	0.045	304635	keystroke	d	n/a
152.3325	0.105	304665	keystroke	Key.space	n/a
152.4825	0.15	304965	keystroke	m	n/a
152.5875	0.15	305175	keystroke	a	n/a
152.7225	0.105	305445	keystroke	r	n/a
152.8125	0.105	305625	keystroke	k	n/a
152.9775	0.18	305955	keystroke	i	n/a
153.0675	0.12	306135	keystroke	n	n/a
153.2025	0.12	306405	keystroke	g	n/a
153.3825	0.075	306765	keystroke	Key.enter	n/a
153.466	6.1125	306932	prompt	n/a	soundtrack benchmark india acute\n
154.0575	0.12	308115	keystroke	s	n/a
154.1625	0.195	308325	keystroke	o	n/a
154.2825	0.09	308565	keystroke	u	n/a
154.4925	0.09	308985	keystroke	n	n/a
154.5975	0.06	309195	keystroke	d	n/a
154.8225	0.15	309645	keystroke	t	n/a
154.8975	0.12	309795	keystroke	r	n/a
155.1225	0.21	310245	keystroke	a	n/a
155.2725	0.135	310545	keystroke	c	n/a
155.4225	0.21	310845	keystroke	k	n/a
155.5425	0.105	311085	keystroke	Key.space	n/a
155.8875	0.105	311775	keystroke	b	n/a
155.9775	0.12	311955	keystroke	e	n/a
156.1425	0.12	312285	keystroke	n	n/a
156.2925	0.105	312585	keystroke	c	n/a
156.4275	0.105	312855	keystroke	h	n/a
156.7425	0.09	313485	keystroke	m	n/a
156.8475	0.09	313695	keystroke	a	n/a
157.0725	0.09	314145	keystroke	r	n/a
157.1775	0.15	314355	keystroke	k	n/a
157.2675	0.105	314535	keystroke	Key.space	n/a
157.4325	0.15	314865	keystroke	i	n/a
157.5375	0.1945	315075	keystroke	n	n/a
157.747	0.045	315494	keystroke	d	n/a
157.822	0.12	315644	keystroke	i	n/a
157.957	0.09	315914	keystroke	a	n/a
158.062	0.105	316124	keystroke	Key.space	n/a
158.182	0.15	316364	keystroke	a	n/a
158.347	0.09	316694	keystroke	c	n/a
158.497	0.12	316994	keystroke	u	n/a
158.6625	0.105	317325	keystroke	t	n/a
159.187	0.045	318374	keystroke	e	n/a
159.487	0.09	318974	keystroke	Key.enter	n/a
159.581	5.5325	319162	prompt	n/a	removing language dark cookbook\n
160.177	0.15	320354	keystroke	r	n/a
160.297	0.18	320594	keystroke	e	n/a
160.328	0.209	320656	keystroke	m	n/a
160.522	0.045	321044	keystroke	o	n/a
160.597	0.105	321194	keystroke	v	n/a
160.717	0.165	321434	keystroke	i	n/a
160.822	0.135	321644	keystroke	n	n/a
160.958	0.089	321916	keystroke	g	n/a
161.032	0.105	322064	keystroke	Key.space	n/a
161.212	0.09	322424	keystroke	l	n/a
161.332	0.09	322664	keystroke	a	n/a
161.437	0.18	322874	keystroke	n	n/a
161.632	0.0905	323264	keystroke	g	n/a
161.7515	0.136	323503	keystroke	u	n/a
161.8565	0.075	323713	keystroke	a	n/a
162.0525	0.179	324105	keystroke	g	n/a
162.1415	0.136	324283	keystroke	e	n/a
162.2915	0.106	324583	keystroke	Key.space	n/a
162.4575	0.134	324915	keystroke	d	n/a
162.5475	0.12	325095	keystroke	a	n/a
162.757	0.12	325514	keystroke	r	n/a
162.862	0.136	325724	keystroke	k	n/a
162.922	0.15	325844	keystroke	Key.space	n/a
163.102	0.09	326204	keystroke	c	n/a
163.223	0.059	326446	keystroke	o	n/a
163.372	0.2095	326744	keystroke	o	n/a
163.5075	0.119	327015	keystroke	k	n/a
164.1075	0.09	328215	keystroke	b	n/a
164.2575	0.0445	328515	keystroke	o	n/a
164.392	0.18	328784	keystroke	o	n/a
164.497	0.12	328994	keystroke	k	n/a
164.9775	0.135	329955	keystroke	Key.enter	n/a
165.119	7.2015	330238	prompt	n/a	currencies permits refund entertaining\n
165.832	0.105	331664	keystroke	c	n/a
165.997	0.1055	331994	keystroke	u	n/a
166.1625	0.09	332325	keystroke	r	n/a
166.3575	0.165	332715	keystroke	r	n/a
166.4475	0.135	332895	keystroke	e	n/a
166.6125	0.135	333225	keystroke	n	n/a
166.8975	0.12	333795	keystroke	c	n/a
167.0025	0.135	334005	keystroke	i	n/a
167.1375	0.195	334275	keystroke	e	n/a
167.2575	0.15	334515	keystroke	s	n/a
167.3625	0.105	334725	keystroke	Key.space	n/a
167.4825	0.105	334965	keystroke	p	n/a
167.5875	0.15	335175	keystroke	e	n/a
167.6625	0.1345	335325	keystroke	r	n/a
167.752	0.15	335504	keystroke	m	n/a
167.842	0.18	335684	keystroke	i	n/a
167.947	0.1955	335894	keystroke	t	n/a
168.0825	0.135	336165	keystroke	s	n/a
168.2325	0.135	336465	keystroke	Key.space	n/a
168.3225	0.18	336645	keystroke	r	n/a
168.4275	0.135	336855	keystroke	e	n/a
168.9375	0.09	337875	keystroke	f	n/a
169.0575	0.18	338115	keystroke	u	n/a
169.1625	0.15	338325	keystroke	n	n/a
169.3275	0.075	338655	keystroke	d	n/a
169.4175	0.075	338835	keystroke	Key.space	n/a
169.5225	0.12	339045	keystroke	e	n/a
169.6575	0.09	339315	keystroke	n	n/a
169.7625	0.075	339525	keystroke	t	n/a
169.9125	0.15	339825	keystroke	e	n/a
170.0025	0.135	340005	keystroke	r	n/a
170.2575	0.105	340515	keystroke	t	n/a
170.4375	0.15	340875	keystroke	a	n/a
170.5725	0.195	341145	keystroke	i	n/a
170.6925	0.1345	341385	keystroke	n	n/a
171.472	0.21	342944	keystroke	i	n/a
171.577	0.135	343154	keystroke	n	n/a
171.697	0.075	343394	keystroke	g	n/a
172.2525	0.059	344505	keystroke	Key.enter	n/a
172.3285	6.84	344657	prompt	n/a	peripheral thanksgiving yard turn\n
172.837	0.1205	345674	keystroke	p	n/a
172.9115	0.165	345823	keystroke	e	n/a
173.0175	0.1195	346035	keystroke	r	n/a
173.167	0.09	346334	keystroke	i	n/a
173.3915	0.15	346783	keystroke	p	n/a
173.5265	0.195	347053	keystroke	h	n/a
173.6775	0.1205	347355	keystroke	e	n/a
173.752	0.135	347504	keystroke	r	n/a
173.932	0.15	347864	keystroke	a	n/a
174.037	0.1355	348074	keystroke	l	n/a
174.1425	0.12	348285	keystroke	Key.space	n/a
174.3075	0.12	348615	keystroke	t	n/a
174.4275	0.075	348855	keystroke	h	n/a
174.5475	0.105	349095	keystroke	a	n/a
174.6675	0.09	349335	keystroke	n	n/a
174.7875	0.075	349575	keystroke	s	n/a
175.4775	0.075	350955	keystroke	Key.backspace	n/a
175.8975	0.105	351795	keystroke	k	n/a
176.0325	0.105	352065	keystroke	s	n/a
176.4525	0.09	352905	keystroke	g	n/a
176.5575	0.075	353115	keystroke	i	n/a
176.6775	0.1045	353355	keystroke	v	n/a
176.7525	0.18	353505	keystroke	i	n/a
176.8575	0.15	353715	keystroke	n	n/a
176.9625	0.09	353925	keystroke	g	n/a
177.0975	0.075	354195	keystroke	Key.space	n/a
177.2775	0.12	354555	keystroke	y	n/a
177.3225	0.105	354645	keystroke	a	n/a
177.5025	0.195	355005	keystroke	r	n/a
177.7425	0.1045	355485	keystroke	d	n/a
178.1325	0.105	356265	keystroke	Key.space	n/a
178.2525	0.12	356505	keystroke	t	n/a
178.3275	0.12	356655	keystroke	u	n/a
178.4325	0.12	356865	keystroke	r	n/a
178.5525	0.075	357105	keystroke	n	n/a
179.0325	0.1345	358065	keystroke	Key.enter	n/a
179.171	11.263	358342	prompt	n/a	keyword sleeps supervisor manufacturer\n
180.0515	0.105	360103	keystroke	k	n/a
180.217	0.18	360434	keystroke	e	n/a
180.442	0.105	360884	keystroke	y	n/a
180.562	0.105	361124	keystroke	w	n/a
180.712	0.0905	361424	keystroke	o	n/a
180.8165	0.106	361633	keystroke	r	n/a
180.9375	0.105	361875	keystroke	k	n/a
181.1025	0.105	362205	keystroke	d	n/a
181.805	0.0155	363610	keystroke	Key.backspace	n/a
181.88	0.077	363760	keystroke	Key.backspace	n/a
181.971	0.135	363942	keystroke	d	n/a
182.1455	0.0755	364291	keystroke	Key.space	n/a
182.254	0.0605	364508	keystroke	s	n/a
182.3315	0.1135	364663	keystroke	l	n/a
182.46	0.03	364920	keystroke	e	n/a
182.579	0.09	365158	keystroke	e	n/a
182.684	0.1055	365368	keystroke	p	n/a
182.8195	0.09	365639	keystroke	s	n/a
182.9695	0.015	365939	keystroke	Key.space	n/a
183.0455	0.1195	366091	keystroke	s	n/a
183.15	0.105	366300	keystroke	u	n/a
183.405	0.105	366810	keystroke	p	n/a
183.63	0.075	367260	keystroke	e	n/a
183.645	0.135	367290	keystroke	r	n/a
183.96	0.12	367920	keystroke	v	n/a
184.095	0.06	368190	keystroke	i	n/a
184.17	0.12	368340	keystroke	s	n/a
184.335	0.135	368670	keystroke	o	n/a
184.65	0.12	369300	keystroke	r	n/a
184.9805	0.1045	369961	keystroke	Key.space	n/a
185.13	0.1055	370260	keystroke	m	n/a
185.2205	0.12	370441	keystroke	a	n/a
185.3555	0.1795	370711	keystroke	n	n/a
185.52	0.15	371040	keystroke	u	n/a
185.715	0.165	371430	keystroke	f	n/a
185.835	0.12	371670	keystroke	a	n/a
186.1655	0.0895	372331	keystroke	c	n/a
186.5405	0.06	373081	keystroke	t	n/a
186.6455	0.1195	373291	keystroke	u	n/a
186.9905	0.225	373981	keystroke	r	n/a
187.1705	0.135	374341	keystroke	e	n/a
188.6105	0.105	377221	keystroke	r	n/a
190.2605	0.165	380521	keystroke	Key.enter	n/a
190.4375	16.631	380875	prompt	n/a	monaco ukraine comparable only\n
191.1605	0.12	382321	keystroke	m	n/a
191.3255	0.12	382651	keystroke	a	n/a
192.1955	0.12	384391	keystroke	n	n/a
192.5255	0.09	385051	keystroke	a	n/a
192.81	0.12	385620	keystroke	c	n/a
193.155	0.165	386310	keystroke	o	n/a
193.29	0.09	386580	keystroke	Key.space	n/a
193.47	0.12	386940	keystroke	u	n/a
193.785	0.12	387570	keystroke	k	n/a
193.92	0.1955	387840	keystroke	r	n/a
194.0705	0.15	388141	keystroke	a	n/a
194.2055	0.165	388411	keystroke	i	n/a
194.2805	0.195	388561	keystroke	n	n/a
194.4755	0.075	388951	keystroke	e	n/a
195.9755	0.059	391951	keystroke	Key.backspace	n/a
196.155	0.12	392310	keystroke	Key.backspace	n/a
196.305	0.06	392610	keystroke	Key.backspace	n/a
196.47	0.06	392940	keystroke	Key.backspace	n/a
196.635	0.0605	393270	keystroke	Key.backspace	n/a
196.8005	0.06	393601	keystroke	Key.backspace	n/a
196.9655	0.06	393931	keystroke	Key.backspace	n/a
197.1155	0.075	394231	keystroke	Key.backspace	n/a
197.2955	0.075	394591	keystroke	Key.backspace	n/a
197.4455	0.105	394891	keystroke	Key.backspace	n/a
197.6405	0.075	395281	keystroke	Key.backspace	n/a
197.8355	0.06	395671	keystroke	Key.backspace	n/a
198.0755	0.075	396151	keystroke	Key.backspace	n/a
198.7355	0.075	397471	keystroke	o	n/a
198.9755	0.09	397951	keystroke	n	n/a
199.0955	0.12	398191	keystroke	a	n/a
199.2755	0.105	398551	keystroke	c	n/a
199.4405	0.075	398881	keystroke	o	n/a
199.6505	0.09	399301	keystroke	Key.space	n/a
200.2205	0.12	400441	keystroke	u	n/a
200.5205	0.12	401041	keystroke	k	n/a
200.6555	0.1645	401311	keystroke	r	n/a
200.7605	0.1645	401521	keystroke	a	n/a
200.91	0.135	401820	keystroke	i	n/a
201.015	0.15	402030	keystroke	n	n/a
201.195	0.075	402390	keystroke	e	n/a
204.813	0.042	409626	keystroke	Key.space	n/a
204.93	0.135	409860	keystroke	c	n/a
205.021	0.149	410042	keystroke	o	n/a
205.125	0.165	410250	keystroke	m	n/a
205.245	0.151	410490	keystroke	p	n/a
205.32	0.061	410640	keystroke	a	n/a
205.515	0.105	411030	keystroke	r	n/a
205.696	0.134	411392	keystroke	a	n/a
205.86	0.15	411720	keystroke	b	n/a
205.98	0.136	411960	keystroke	l	n/a
206.1	0.105	412200	keystroke	e	n/a
206.25	0.061	412500	keystroke	Key.space	n/a
206.37	0.105	412740	keystroke	o	n/a
206.476	0.164	412952	keystroke	n	n/a
206.625	0.1505	413250	keystroke	l	n/a
206.8055	0.09	413611	keystroke	y	n/a
206.9705	0.09	413941	keystroke	Key.enter	n/a
207.0725	5.374	414145	prompt	n/a	fighter literally tomorrow items\n
207.9755	0.075	415951	keystroke	f	n/a
208.0355	0.105	416071	keystroke	i	n/a
208.1555	0.12	416311	keystroke	g	n/a
208.2305	0.1045	416461	keystroke	h	n/a
208.38	0.105	416760	keystroke	t	n/a
208.53	0.15	417060	keystroke	e	n/a
208.62	0.15	417240	keystroke	r	n/a
208.74	0.105	417480	keystroke	Key.space	n/a
208.875	0.075	417750	keystroke	l	n/a
209.025	0.12	418050	keystroke	i	n/a
209.13	0.12	418260	keystroke	t	n/a
209.265	0.135	418530	keystroke	e	n/a
209.34	0.21	418680	keystroke	r	n/a
209.565	0.03	419130	keystroke	a	n/a
209.625	0.06	419250	keystroke	l	n/a
209.76	0.105	419520	keystroke	l	n/a
209.88	0.06	419760	keystroke	y	n/a
209.955	0.09	419910	keystroke	Key.space	n/a
210.09	0.105	420180	keystroke	t	n/a
210.18	0.105	420360	keystroke	o	n/a
210.255	0.165	420510	keystroke	m	n/a
210.39	0.15	420780	keystroke	o	n/a
210.525	0.09	421050	keystroke	r	n/a
210.72	0.09	421440	keystroke	r	n/a
210.811	0.134	421622	keystroke	o	n/a
210.96	0.105	421920	keystroke	w	n/a
211.08	0.09	422160	keystroke	Key.space	n/a
211.26	0.105	422520	keystroke	i	n/a
211.335	0.15	422670	keystroke	t	n/a
211.86	0.105	423720	keystroke	e	n/a
212.025	0.135	424050	keystroke	m	n/a
212.145	0.075	424290	keystroke	s	n/a
212.355	0.09	424710	keystroke	Key.enter	n/a
212.449	7.9115	424898	prompt	n/a	richmond judy static candy\n
213.135	0.09	426270	keystroke	r	n/a
213.24	0.105	426480	keystroke	i	n/a
213.39	0.1795	426780	keystroke	c	n/a
213.48	0.1045	426960	keystroke	h	n/a
213.7045	0.1055	427409	keystroke	m	n/a
213.7645	0.1955	427529	keystroke	o	n/a
213.9	0.1645	427800	keystroke	n	n/a
214.0195	0.12	428039	keystroke	d	n/a
214.1245	0.195	428249	keystroke	Key.space	n/a
214.3345	0.03	428669	keystroke	j	n/a
214.4395	0.075	428879	keystroke	u	n/a
214.5895	0.03	429179	keystroke	d	n/a
214.6645	0.165	429329	keystroke	y	n/a
214.7695	0.135	429539	keystroke	Key.space	n/a
215.2945	0.075	430589	keystroke	s	n/a
215.5045	0.105	431009	keystroke	t	n/a
215.6245	0.135	431249	keystroke	a	n/a
215.7745	0.09	431549	keystroke	t	n/a
215.9095	0.105	431819	keystroke	i	n/a
216.089	0.091	432178	keystroke	c	n/a
216.224	0.0905	432448	keystroke	Key.space	n/a
219.1665	0.088	438333	keystroke	c	n/a
219.2095	0.18	438419	keystroke	a	n/a
219.3745	0.105	438749	keystroke	n	n/a
219.6145	0.015	439229	keystroke	d	n/a
219.6595	0.06	439319	keystroke	y	n/a
220.3045	0.045	440609	keystroke	Key.enter	n/a
220.371	7.7345	440742	prompt	n/a	formal resource savannah pleasant\n
221.1295	0.12	442259	keystroke	f	n/a
221.2345	0.105	442469	keystroke	o	n/a
221.3545	0.165	442709	keystroke	r	n/a
221.5345	0.015	443069	keystroke	m	n/a
221.5945	0.12	443189	keystroke	a	n/a
221.7595	0.15	443519	keystroke	l	n/a
221.8645	0.12	443729	keystroke	Key.space	n/a
222.0295	0.225	444059	keystroke	r	n/a
222.0745	0.255	444149	keystroke	e	n/a
222.2695	0.15	444539	keystroke	s	n/a
222.4345	0.195	444869	keystroke	o	n/a
222.5695	0.165	445139	keystroke	u	n/a
222.9445	0.075	445889	keystroke	r	n/a
223.1545	0.18	446309	keystroke	c	n/a
223.2895	0.15	446579	keystroke	e	n/a
223.4695	0.12	446939	keystroke	Key.space	n/a
224.249	0.105	448498	keystroke	s	n/a
224.519	0.09	449038	keystroke	a	n/a
224.729	0.18	449458	keystroke	v	n/a
224.834	0.15	449668	keystroke	a	n/a
225.149	0.075	450298	keystroke	n	n/a
225.314	0.06	450628	keystroke	n	n/a
225.404	0.15	450808	keystroke	a	n/a
225.569	0.135	451138	keystroke	h	n/a
225.659	0.1355	451318	keystroke	Key.space	n/a
226.0195	0.285	452039	keystroke	p	n/a
226.1695	0.195	452339	keystroke	l	n/a
226.3195	0.075	452639	keystroke	e	n/a
226.3795	0.195	452759	keystroke	a	n/a
226.5445	0.12	453089	keystroke	s	n/a
226.7845	0.105	453569	keystroke	a	n/a
226.9645	0.105	453929	keystroke	n	n/a
227.0995	0.09	454199	keystroke	t	n/a
227.9995	0.105	455999	keystroke	Key.enter	n/a
228.1085	6.012	456217	prompt	n/a	packard stores issues rescue\n
228.7195	0.135	457439	keystroke	p	n/a
228.7795	0.15	457559	keystroke	a	n/a
229.1395	0.105	458279	keystroke	c	n/a
229.2745	0.12	458549	keystroke	k	n/a
229.3645	0.15	458729	keystroke	a	n/a
229.6345	0.105	459269	keystroke	r	n/a
229.8895	0.105	459779	keystroke	d	n/a
229.9795	0.105	459959	keystroke	Key.space	n/a
230.0545	0.09	460109	keystroke	s	n/a
230.2645	0.075	460529	keystroke	t	n/a
230.3695	0.12	460739	keystroke	o	n/a
230.4595	0.2245	460919	keystroke	r	n/a
230.5645	0.225	461129	keystroke	e	n/a
230.7145	0.1495	461429	keystroke	s	n/a
231.329	0.12	462658	keystroke	Key.space	n/a
231.599	0.075	463198	keystroke	i	n/a
231.704	0.015	463408	keystroke	s	n/a
231.8085	0.105	463617	keystroke	s	n/a
231.9435	0.1055	463887	keystroke	u	n/a
232.019	0.225	464038	keystroke	e	n/a
232.154	0.15	464308	keystroke	s	n/a
232.379	0.09	464758	keystroke	Key.space	n/a
232.7845	0.165	465569	keystroke	r	n/a
232.859	0.1955	465718	keystroke	e	n/a
233.0395	0.15	466079	keystroke	s	n/a
233.534	0.075	467068	keystroke	c	n/a
233.654	0.1055	467308	keystroke	u	n/a
233.8045	0.105	467609	keystroke	e	n/a
234.0295	0.0895	468059	keystroke	Key.enter	n/a
234.124	9.604	468248	prompt	n/a	stockings minimize gathered picnic\n
234.6895	0.0745	469379	keystroke	s	n/a
234.884	0.09	469768	keystroke	t	n/a
234.975	0.089	469950	keystroke	o	n/a
235.274	0.165	470548	keystroke	c	n/a
235.589	0.015	471178	keystroke	k	n/a
235.694	0.18	471388	keystroke	i	n/a
235.799	0.165	471598	keystroke	n	n/a
235.949	0.12	471898	keystroke	g	n/a
236.159	0.105	472318	keystroke	s	n/a
236.279	0.105	472558	keystroke	Key.space	n/a
236.444	0.12	472888	keystroke	m	n/a
236.549	0.135	473098	keystroke	i	n/a
236.699	0.15	473398	keystroke	n	n/a
236.789	0.15	473578	keystroke	i	n/a
237.209	0.135	474418	keystroke	m	n/a
237.314	0.255	474628	keystroke	i	n/a
237.449	0.135	474898	keystroke	z	n/a
237.689	0.105	475378	keystroke	e	n/a
237.854	0.105	475708	keystroke	Key.space	n/a
238.274	0.135	476548	keystroke	f	n/a
238.334	0.12	476668	keystroke	a	n/a
238.574	0.105	477148	keystroke	t	n/a
238.709	0.105	477418	keystroke	h	n/a
238.799	0.12	477598	keystroke	e	n/a
238.874	0.21	477748	keystroke	r	n/a
239.009	0.105	478018	keystroke	e	n/a
239.354	0.045	478708	keystroke	Key.backspace	n/a
239.549	0.015	479098	keystroke	Key.backspace	n/a
239.684	0.03	479368	keystroke	Key.backspace	n/a
239.804	0.075	479608	keystroke	Key.backspace	n/a
239.969	0.075	479938	keystroke	Key.backspace	n/a
240.149	0.075	480298	keystroke	Key.backspace	n/a
240.4485	0.045	480897	keystroke	Key.backspace	n/a
240.9295	0.1195	481859	keystroke	g	n/a
240.989	0.135	481978	keystroke	a	n/a
241.214	0.105	482428	keystroke	t	n/a
241.3645	0.1045	482729	keystroke	h	n/a
241.424	0.135	482848	keystroke	e	n/a
241.529	0.21	483058	keystroke	r	n/a
241.649	0.18	483298	keystroke	e	n/a
242.054	0.09	484108	keystroke	d	n/a
242.159	0.105	484318	keystroke	Key.space	n/a
242.339	0.1805	484678	keystroke	p	n/a
242.4745	0.135	484949	keystroke	i	n/a
242.6245	0.075	485249	keystroke	c	n/a
242.7295	0.165	485459	keystroke	n	n/a
242.8495	0.135	485699	keystroke	i	n/a
243.0145	0.09	486029	keystroke	c	n/a
243.6295	0.09	487259	keystroke	Key.enter	n/a
243.7325	6.633	487465	prompt	n/a	alter thereafter barriers reserve\n
244.334	0.1505	488668	keystroke	a	n/a
244.6045	0.15	489209	keystroke	l	n/a
244.7995	0.0895	489599	keystroke	t	n/a
244.979	0.1355	489958	keystroke	e	n/a
245.0695	0.105	490139	keystroke	r	n/a
245.1895	0.12	490379	keystroke	Key.space	n/a
245.2945	0.105	490589	keystroke	t	n/a
245.4145	0.075	490829	keystroke	h	n/a
245.4445	0.15	490889	keystroke	e	n/a
245.5645	0.165	491129	keystroke	r	n/a
245.6695	0.135	491339	keystroke	e	n/a
245.9095	0.105	491819	keystroke	a	n/a
246.0745	0.105	492149	keystroke	f	n/a
246.344	0.105	492688	keystroke	t	n/a
246.524	0.1355	493048	keystroke	e	n/a
246.599	0.1505	493198	keystroke	r	n/a
247.484	0.165	494968	keystroke	Key.space	n/a
247.754	0.105	495508	keystroke	b	n/a
247.844	0.06	495688	keystroke	a	n/a
248.024	0.06	496048	keystroke	r	n/a
248.174	0.0755	496348	keystroke	r	n/a
248.3095	0.089	496619	keystroke	i	n/a
248.4135	0.27	496827	keystroke	e	n/a
248.5345	0.284	497069	keystroke	r	n/a
248.7135	0.165	497427	keystroke	s	n/a
248.9235	0.09	497847	keystroke	Key.space	n/a
249.119	0.1645	498238	keystroke	r	n/a
249.2085	0.12	498417	keystroke	e	n/a
249.4035	0.21	498807	keystroke	s	n/a
249.5685	0.12	499137	keystroke	e	n/a
249.6285	0.151	499257	keystroke	r	n/a
249.8085	0.1355	499617	keystroke	v	n/a
249.9285	0.09	499857	keystroke	e	n/a
250.2435	0.12	500487	keystroke	Key.enter	n/a
250.369	5.9815	500738	prompt	n/a	carter bearing simulation annoying\n
251.009	0.165	502018	keystroke	c	n/a
251.084	0.166	502168	keystroke	a	n/a
251.415	0.1045	502830	keystroke	r	n/a
251.6245	0.089	503249	keystroke	t	n/a
251.7595	0.165	503519	keystroke	e	n/a
251.8645	0.1355	503729	keystroke	r	n/a
251.985	0.105	503970	keystroke	Key.space	n/a
252.1795	0.12	504359	keystroke	b	n/a
252.2245	0.165	504449	keystroke	e	n/a
252.3295	0.12	504659	keystroke	a	n/a
252.5245	0.1045	505049	keystroke	r	n/a
252.674	0.1805	505348	keystroke	i	n/a
252.794	0.135	505588	keystroke	n	n/a
252.914	0.1055	505828	keystroke	g	n/a
253.0495	0.075	506099	keystroke	Key.space	n/a
253.1095	0.12	506219	keystroke	s	n/a
253.2145	0.12	506429	keystroke	i	n/a
253.3045	0.135	506609	keystroke	m	n/a
253.5145	0.1195	507029	keystroke	u	n/a
254.0695	0.1945	508139	keystroke	l	n/a
254.144	0.135	508288	keystroke	a	n/a
254.339	0.105	508678	keystroke	t	n/a
254.429	0.195	508858	keystroke	i	n/a
254.549	0.165	509098	keystroke	o	n/a
254.609	0.135	509218	keystroke	n	n/a
254.879	0.09	509758	keystroke	Key.space	n/a
254.924	0.09	509848	keystroke	a	n/a
255.044	0.075	510088	keystroke	n	n/a
255.194	0.105	510388	keystroke	n	n/a
255.269	0.12	510538	keystroke	o	n/a
255.39	0.134	510780	keystroke	y	n/a
255.584	0.075	511168	keystroke	i	n/a
255.599	0.09	511198	keystroke	n	n/a
255.854	0.1055	511708	keystroke	g	n/a
256.259	0.09	512518	keystroke	Key.enter	n/a
256.3535	4.7975	512707	prompt	n/a	automated thunder intro hack\n
256.9795	0.12	513959	keystroke	a	n/a
257.1745	0.06	514349	keystroke	u	n/a
257.2495	0.075	514499	keystroke	t	n/a
257.3695	0.1345	514739	keystroke	o	n/a
257.594	0.06	515188	keystroke	m	n/a
257.639	0.06	515278	keystroke	a	n/a
257.759	0.1205	515518	keystroke	t	n/a
257.9095	0.105	515819	keystroke	e	n/a
258.1345	0.105	516269	keystroke	d	n/a
258.2695	0.105	516539	keystroke	Key.space	n/a
258.5395	0.105	517079	keystroke	t	n/a
258.6295	0.105	517259	keystroke	h	n/a
258.6895	0.18	517379	keystroke	u	n/a
258.8245	0.15	517649	keystroke	n	n/a
258.9755	0.104	517951	keystroke	d	n/a
259.1245	0.195	518249	keystroke	e	n/a
259.2595	0.195	518519	keystroke	r	n/a
259.3795	0.09	518759	keystroke	Key.space	n/a
259.4845	0.1805	518969	keystroke	i	n/a
259.5445	0.1495	519089	keystroke	n	n/a
259.679	0.135	519358	keystroke	t	n/a
259.769	0.18	519538	keystroke	r	n/a
259.889	0.1805	519778	keystroke	o	n/a
260.0395	0.105	520079	keystroke	Key.space	n/a
260.2495	0.09	520499	keystroke	h	n/a
260.3095	0.225	520619	keystroke	a	n/a
260.4595	0.135	520919	keystroke	c	n/a
260.6545	0.075	521309	keystroke	k	n/a
261.0445	0.105	522089	keystroke	Key.enter	n/a
261.1535	5.952	522307	prompt	n/a	tricks respondents species happiness\n
261.8995	0.15	523799	keystroke	t	n/a
261.99	0.1195	523980	keystroke	r	n/a
262.1245	0.165	524249	keystroke	i	n/a
262.3045	0.06	524609	keystroke	c	n/a
262.3495	0.09	524699	keystroke	k	n/a
262.4695	0.09	524939	keystroke	s	n/a
262.5595	0.15	525119	keystroke	Key.space	n/a
262.7395	0.24	525479	keystroke	r	n/a
262.8445	0.21	525689	keystroke	e	n/a
262.9495	0.195	525899	keystroke	s	n/a
263.1595	0.21	526319	keystroke	p	n/a
263.2795	0.165	526559	keystroke	o	n/a
263.3845	0.165	526769	keystroke	n	n/a
263.6245	0.15	527249	keystroke	d	n/a
263.7295	0.1195	527459	keystroke	e	n/a
263.879	0.12	527758	keystroke	n	n/a
263.984	0.1955	527968	keystroke	t	n/a
264.1195	0.21	528239	keystroke	s	n/a
264.3145	0.105	528629	keystroke	Key.space	n/a
264.4345	0.09	528869	keystroke	s	n/a
264.4945	0.18	528989	keystroke	p	n/a
264.6145	0.09	529229	keystroke	e	n/a
264.8245	0.1055	529649	keystroke	c	n/a
264.945	0.119	529890	keystroke	i	n/a
265.169	0.21	530338	keystroke	e	n/a
265.319	0.195	530638	keystroke	s	n/a
265.529	0.0295	531058	keystroke	Key.space	n/a
265.6335	0.061	531267	keystroke	h	n/a
265.6785	0.09	531357	keystroke	a	n/a
265.7835	0.09	531567	keystroke	p	n/a
265.934	0.1645	531868	keystroke	p	n/a
266.113	0.1205	532226	keystroke	i	n/a
266.3235	0.045	532647	keystroke	n	n/a
266.3385	0.2245	532677	keystroke	e	n/a
266.459	0.149	532918	keystroke	s	n/a
266.6835	0.106	533367	keystroke	s	n/a
267.0285	0.075	534057	keystroke	Key.enter	n/a
267.111	6.6395	534222	prompt	n/a	documented pioneer highways replaced\n
267.749	0.0755	535498	keystroke	d	n/a
267.8395	0.09	535679	keystroke	o	n/a
267.9445	0.09	535889	keystroke	c	n/a
268.079	0.045	536158	keystroke	u	n/a
268.289	0.045	536578	keystroke	m	n/a
268.379	0.045	536758	keystroke	e	n/a
268.409	0.105	536818	keystroke	n	n/a
268.544	0.1655	537088	keystroke	t	n/a
268.8145	0.09	537629	keystroke	e	n/a
268.9945	0.105	537989	keystroke	d	n/a
269.0995	0.09	538199	keystroke	Key.space	n/a
269.2645	0.135	538529	keystroke	p	n/a
269.4595	0.1795	538919	keystroke	i	n/a
269.579	0.15	539158	keystroke	o	n/a
269.8495	0.12	539699	keystroke	n	n/a
269.9845	0.075	539969	keystroke	e	n/a
270.1645	0.165	540329	keystroke	e	n/a
270.2845	0.165	540569	keystroke	r	n/a
270.4045	0.09	540809	keystroke	Key.space	n/a
270.5245	0.135	541049	keystroke	h	n/a
270.6295	0.135	541259	keystroke	i	n/a
270.7055	0.104	541411	keystroke	g	n/a
270.8395	0.105	541679	keystroke	h	n/a
271.0795	0.15	542159	keystroke	w	n/a
271.1845	0.18	542369	keystroke	a	n/a
271.4245	0.12	542849	keystroke	y	n/a
271.5145	0.1045	543029	keystroke	s	n/a
271.634	0.09	543268	keystroke	Key.space	n/a
271.9195	0.12	543839	keystroke	r	n/a
271.9795	0.135	543959	keystroke	e	n/a
272.1295	0.18	544259	keystroke	p	n/a
272.2195	0.135	544439	keystroke	l	n/a
272.3395	0.09	544679	keystroke	a	n/a
272.4895	0.18	544979	keystroke	c	n/a
272.6395	0.12	545279	keystroke	e	n/a
272.8645	0.06	545729	keystroke	d	n/a
273.6295	0.12	547259	keystroke	Key.enter	n/a
273.755	6.0405	547510	prompt	n/a	race lives practical peter\n
274.4695	0.239	548939	keystroke	r	n/a
274.5145	0.03	549029	keystroke	a	n/a
274.6495	0.105	549299	keystroke	a	n/a
275.0835	0.06	550167	keystroke	Key.backspace	n/a
275.2045	0.089	550409	keystroke	c	n/a
275.4145	0.089	550829	keystroke	e	n/a
275.4885	0.091	550977	keystroke	Key.space	n/a
275.6995	0.045	551399	keystroke	l	n/a
275.8485	0.106	551697	keystroke	i	n/a
275.9695	0.225	551939	keystroke	v	n/a
276.134	0.2545	552268	keystroke	e	n/a
276.2845	0.165	552569	keystroke	s	n/a
276.4935	0.135	552987	keystroke	Key.space	n/a
276.78	0.164	553560	keystroke	p	n/a
276.869	0.15	553738	keystroke	r	n/a
276.959	0.12	553918	keystroke	a	n/a
277.184	0.06	554368	keystroke	c	n/a
277.424	0.075	554848	keystroke	t	n/a
277.514	0.12	555028	keystroke	i	n/a
277.709	0.18	555418	keystroke	c	n/a
277.829	0.1505	555658	keystroke	a	n/a
277.949	0.165	555898	keystroke	l	n/a
278.099	0.105	556198	keystroke	Key.space	n/a
278.279	0.12	556558	keystroke	p	n/a
278.369	0.06	556738	keystroke	e	n/a
278.579	0.045	557158	keystroke	t	n/a
278.789	0.15	557578	keystroke	e	n/a
278.894	0.12	557788	keystroke	r	n/a
279.6445	0.15	559289	keystroke	Key.enter	n/a
279.798	10.1745	559596	prompt	n/a	hundreds moderate refund louisville\n
280.8295	0.105	561659	keystroke	h	n/a
280.8895	0.2405	561779	keystroke	u	n/a
281.115	0.15	562230	keystroke	n	n/a
281.25	0.09	562500	keystroke	d	n/a
281.565	0.075	563130	keystroke	r	n/a
281.58	0.12	563160	keystroke	e	n/a
281.865	0.135	563730	keystroke	d	n/a
281.985	0.105	563970	keystroke	s	n/a
282.075	0.075	564150	keystroke	Key.space	n/a
282.255	0.075	564510	keystroke	m	n/a
282.3	0.165	564600	keystroke	o	n/a
282.42	0.12	564840	keystroke	d	n/a
282.6	0.195	565200	keystroke	e	n/a
282.72	0.195	565440	keystroke	r	n/a
282.9	0.1045	565800	keystroke	a	n/a
283.1095	0.1655	566219	keystroke	t	n/a
283.1995	0.1805	566399	keystroke	e	n/a
283.395	0.1195	566790	keystroke	Key.space	n/a
283.6345	0.09	567269	keystroke	r	n/a
283.6945	0.105	567389	keystroke	e	n/a
284.055	0.1345	568110	keystroke	f	n/a
284.46	0.18	568920	keystroke	u	n/a
284.58	0.1645	569160	keystroke	n	n/a
284.7595	0.105	569519	keystroke	d	n/a
284.8345	0.105	569669	keystroke	Key.space	n/a
285.0445	0.075	570089	keystroke	l	n/a
285.2695	0.165	570539	keystroke	o	n/a
285.3745	0.3145	570749	keystroke	u	n/a
285.614	0.135	571228	keystroke	i	n/a
285.75	0.27	571500	keystroke	s	n/a
285.929	0.166	571858	keystroke	e	n/a
286.829	0.075	573658	keystroke	Key.backspace	n/a
286.964	0.105	573928	keystroke	v	n/a
287.099	0.0605	574198	keystroke	i	n/a
287.309	0.045	574618	keystroke	l	n/a
287.444	0.12	574888	keystroke	l	n/a
287.579	0.06	575158	keystroke	e	n/a
289.922	0.042	579844	keystroke	Key.enter	n/a
289.978	7.7965	579956	prompt	n/a	shaved cloudy lesbians competitions\n
290.6695	0.09	581339	keystroke	s	n/a
290.7745	0.0605	581549	keystroke	h	n/a
290.88	0.075	581760	keystroke	a	n/a
290.985	0.075	581970	keystroke	v	n/a
291.074	0.091	582148	keystroke	e	n/a
291.27	0.074	582540	keystroke	d	n/a
291.345	0.105	582690	keystroke	Key.space	n/a
291.525	0.12	583050	keystroke	c	n/a
291.645	0.074	583290	keystroke	l	n/a
291.8395	0.2555	583679	keystroke	o	n/a
291.975	0.179	583950	keystroke	u	n/a
292.14	0.134	584280	keystroke	d	n/a
292.379	0.09	584758	keystroke	l	n/a
292.755	0.075	585510	keystroke	Key.backspace	n/a
292.9045	0.075	585809	keystroke	y	n/a
292.9945	0.09	585989	keystroke	Key.space	n/a
293.2345	0.12	586469	keystroke	l	n/a
293.31	0.2545	586620	keystroke	e	n/a
293.4295	0.21	586859	keystroke	s	n/a
293.6545	0.075	587309	keystroke	i	n/a
294.0445	0.045	588089	keystroke	Key.backspace	n/a
294.2995	0.165	588599	keystroke	b	n/a
294.4495	0.15	588899	keystroke	i	n/a
294.5845	0.1205	589169	keystroke	a	n/a
294.735	0.1195	589470	keystroke	n	n/a
294.81	0.1495	589620	keystroke	s	n/a
294.9895	0.09	589979	keystroke	Key.space	n/a
295.5145	0.09	591029	keystroke	c	n/a
295.5895	0.165	591179	keystroke	o	n/a
295.7395	0.18	591479	keystroke	m	n/a
295.8595	0.225	591719	keystroke	p	n/a
296.0395	0.135	592079	keystroke	e	n/a
296.3245	0.075	592649	keystroke	t	n/a
296.3995	0.105	592799	keystroke	i	n/a
296.5195	0.09	593039	keystroke	t	n/a
296.5795	0.195	593159	keystroke	i	n/a
296.6995	0.21	593399	keystroke	o	n/a
296.8195	0.15	593639	keystroke	n	n/a
296.9545	0.135	593909	keystroke	s	n/a
297.659	0.105	595318	keystroke	Key.enter	n/a
297.78	6.391	595560	prompt	n/a	blogging enquiry loan flashers\n
298.74	0.074	597480	keystroke	b	n/a
298.83	0.075	597660	keystroke	l	n/a
298.994	0.09	597988	keystroke	o	n/a
299.174	0.045	598348	keystroke	g	n/a
299.324	0.12	598648	keystroke	g	n/a
299.429	0.12	598858	keystroke	i	n/a
299.489	0.18	598978	keystroke	n	n/a
299.624	0.18	599248	keystroke	g	n/a
299.879	0.1055	599758	keystroke	Key.space	n/a
300.1195	0.0895	600239	keystroke	e	n/a
300.254	0.0755	600508	keystroke	n	n/a
300.9295	0.12	601859	keystroke	q	n/a
301.0345	0.18	602069	keystroke	u	n/a
301.1245	0.165	602249	keystroke	i	n/a
301.3345	0.12	602669	keystroke	r	n/a
301.5145	0.12	603029	keystroke	y	n/a
301.5895	0.1055	603179	keystroke	Key.space	n/a
301.89	0.09	603780	keystroke	l	n/a
302.175	0.015	604350	keystroke	o	n/a
302.25	0.03	604500	keystroke	a	n/a
302.325	0.15	604650	keystroke	n	n/a
302.415	0.12	604830	keystroke	Key.space	n/a
302.6995	0.105	605399	keystroke	f	n/a
302.8495	0.135	605699	keystroke	l	n/a
302.9545	0.195	605909	keystroke	a	n/a
303.0595	0.18	606119	keystroke	s	n/a
303.5695	0.045	607139	keystroke	h	n/a
303.6145	0.3	607229	keystroke	e	n/a
303.7645	0.21	607529	keystroke	r	n/a
303.8995	0.135	607799	keystroke	s	n/a
304.0645	0.105	608129	keystroke	Key.enter	n/a
304.174	7.609	608348	prompt	n/a	email prisoner exhibits facilities\n
304.799	0.075	609598	keystroke	e	n/a
304.904	0.09	609808	keystroke	m	n/a
305.009	0.121	610018	keystroke	a	n/a
305.114	0.076	610228	keystroke	i	n/a
305.31	0.209	610620	keystroke	l	n/a
305.429	0.105	610858	keystroke	Key.space	n/a
305.669	0.106	611338	keystroke	p	n/a
305.775	0.105	611550	keystroke	r	n/a
305.909	0.136	611818	keystroke	i	n/a
306.314	0.105	612628	keystroke	s	n/a
306.494	0.24	612988	keystroke	o	n/a
306.63	0.135	613260	keystroke	n	n/a
306.884	0.195	613768	keystroke	e	n/a
307.019	0.135	614038	keystroke	r	n/a
307.139	0.105	614278	keystroke	Key.space	n/a
307.259	0.09	614518	keystroke	e	n/a
307.995	0.164	615990	keystroke	x	n/a
308.235	0.044	616470	keystroke	h	n/a
308.264	0.12	616528	keystroke	i	n/a
308.444	0.1355	616888	keystroke	b	n/a
308.5345	0.18	617069	keystroke	i	n/a
308.6845	0.195	617369	keystroke	t	n/a
308.7895	0.15	617579	keystroke	s	n/a
308.9245	0.12	617849	keystroke	Key.space	n/a
309.1195	0.165	618239	keystroke	f	n/a
309.2095	0.15	618419	keystroke	a	n/a
309.5395	0.135	619079	keystroke	c	n/a
309.7645	0.075	619529	keystroke	i	n/a
310.0045	0.0755	620009	keystroke	l	n/a
310.1995	0.09	620399	keystroke	i	n/a
310.3345	0.105	620669	keystroke	t	n/a
310.4695	0.105	620939	keystroke	i	n/a
310.5895	0.18	621179	keystroke	e	n/a
310.7245	0.135	621449	keystroke	s	n/a
311.6995	0.075	623399	keystroke	Key.enter	n/a
311.787	8.9735	623574	prompt	n/a	stat considers toys vampire\n
312.404	0.075	624808	keystroke	s	n/a
312.629	0.135	625258	keystroke	t	n/a
312.779	0.136	625558	keystroke	a	n/a
312.944	0.136	625888	keystroke	t	n/a
313.019	0.151	626038	keystroke	e	n/a
313.1545	0.105	626309	keystroke	Key.space	n/a
313.319	0.1215	626638	keystroke	c	n/a
313.409	0.225	626818	keystroke	o	n/a
313.529	0.165	627058	keystroke	n	n/a
313.709	0.105	627418	keystroke	s	n/a
313.829	0.1205	627658	keystroke	i	n/a
314.309	0.045	628618	keystroke	Key.backspace	n/a
314.4745	0.0595	628949	keystroke	Key.backspace	n/a
314.6545	0.0605	629309	keystroke	Key.backspace	n/a
314.805	0.075	629610	keystroke	Key.backspace	n/a
314.97	0.06	629940	keystroke	Key.backspace	n/a
315.15	0.075	630300	keystroke	Key.backspace	n/a
315.33	0.075	630660	keystroke	Key.backspace	n/a
315.615	0.105	631230	keystroke	Key.space	n/a
315.78	0.1345	631560	keystroke	c	n/a
316.289	0.0595	632578	keystroke	n	n/a
316.3635	0.03	632727	keystroke	s	n/a
316.3785	0.03	632757	keystroke	i	n/a
316.4095	0.162	632819	keystroke	d	n/a
316.58	0.151	633160	keystroke	e	n/a
316.595	0.151	633190	keystroke	r	n/a
316.851	0.1345	633702	keystroke	s	n/a
316.9705	0.105	633941	keystroke	Key.space	n/a
317.181	0.09	634362	keystroke	t	n/a
317.256	0.15	634512	keystroke	o	n/a
317.496	0.165	634992	keystroke	y	n/a
317.616	0.105	635232	keystroke	s	n/a
317.736	0.15	635472	keystroke	Key.space	n/a
317.946	0.1805	635892	keystroke	c	n/a
318.051	0.1505	636102	keystroke	a	n/a
318.1565	0.105	636313	keystroke	m	n/a
318.2315	0.075	636463	keystroke	p	n/a
318.517	0.045	637034	keystroke	Key.backspace	n/a
318.6665	0.06	637333	keystroke	Key.backspace	n/a
318.8315	0.06	637663	keystroke	Key.backspace	n/a
318.9815	0.045	637963	keystroke	Key.backspace	n/a
319.5365	0.15	639073	keystroke	v	n/a
319.6115	0.18	639223	keystroke	a	n/a
319.7765	0.105	639553	keystroke	m	n/a
319.8365	0.2705	639673	keystroke	p	n/a
320.032	0.2395	640064	keystroke	i	n/a
320.152	0.1795	640304	keystroke	r	n/a
320.3015	0.09	640603	keystroke	e	n/a
320.6315	0.12	641263	keystroke	Key.enter	n/a
320.7745	12.475	641549	prompt	n/a	eight phillips round pharmaceuticals\n
321.427	0.06	642854	keystroke	e	n/a
321.502	0.105	643004	keystroke	i	n/a
321.622	0.09	643244	keystroke	g	n/a
321.727	0.09	643454	keystroke	h	n/a
321.847	0.134	643694	keystroke	t	n/a
321.966	0.105	643932	keystroke	Key.space	n/a
322.086	0.135	644172	keystroke	p	n/a
322.236	0.165	644472	keystroke	h	n/a
322.386	0.15	644772	keystroke	i	n/a
322.686	0.09	645372	keystroke	l	n/a
323.677	0.149	647354	keystroke	l	n/a
323.841	0.2105	647682	keystroke	i	n/a
323.9915	0.15	647983	keystroke	p	n/a
324.1865	0.105	648373	keystroke	s	n/a
324.3365	0.06	648673	keystroke	Key.space	n/a
324.7415	0.09	649483	keystroke	r	n/a
324.8165	0.21	649633	keystroke	o	n/a
324.9365	0.18	649873	keystroke	u	n/a
325.0275	0.164	650055	keystroke	n	n/a
325.1465	0.105	650293	keystroke	d	n/a
325.2665	0.09	650533	keystroke	Key.space	n/a
326.301	0.1505	652602	keystroke	p	n/a
326.901	0.09	653802	keystroke	h	n/a
326.976	0.1205	653952	keystroke	a	n/a
327.2015	0.1485	654403	keystroke	r	n/a
327.5635	0.018	655127	keystroke	m	n/a
327.627	0.119	655254	keystroke	a	n/a
327.8965	0.0735	655793	keystroke	c	n/a
328.1365	0.0755	656273	keystroke	e	n/a
328.272	0.12	656544	keystroke	u	n/a
328.722	0.075	657444	keystroke	t	n/a
328.992	0.105	657984	keystroke	i	n/a
329.142	0.165	658284	keystroke	c	n/a
329.563	0.06	659126	keystroke	l	n/a
329.608	0.03	659216	keystroke	s	n/a
333.1965	0.0435	666393	keystroke	Key.enter	n/a
333.254	5.921	666508	prompt	n/a	household hired zimbabwe maker\n
334.0045	0.135	668009	keystroke	h	n/a
334.0945	0.18	668189	keystroke	o	n/a
334.1995	0.15	668399	keystroke	u	n/a
334.2895	0.136	668579	keystroke	s	n/a
334.4095	0.121	668819	keystroke	e	n/a
334.4995	0.105	668999	keystroke	h	n/a
334.5745	0.09	669149	keystroke	o	n/a
334.7545	0.12	669509	keystroke	l	n/a
334.8595	0.09	669719	keystroke	d	n/a
334.9345	0.09	669869	keystroke	Key.space	n/a
335.0995	0.151	670199	keystroke	h	n/a
335.2195	0.18	670439	keystroke	i	n/a
335.3395	0.18	670679	keystroke	r	n/a
335.4595	0.09	670919	keystroke	e	n/a
335.6845	0.03	671369	keystroke	d	n/a
336.4945	0.135	672989	keystroke	Key.space	n/a
336.6755	0.119	673351	keystroke	z	n/a
336.7795	0.1945	673559	keystroke	i	n/a
336.959	0.1055	673918	keystroke	m	n/a
337.3495	0.0125	674699	keystroke	b	n/a
337.3715	0.004	674743	keystroke	a	n/a
337.38	0.008	674760	keystroke	b	n/a
337.643	0.195	675286	keystroke	w	n/a
337.778	0.135	675556	keystroke	e	n/a
338.1835	0.105	676367	keystroke	Key.space	n/a
338.3935	0.076	676787	keystroke	m	n/a
338.5135	0.075	677027	keystroke	a	n/a
338.5735	0.15	677147	keystroke	k	n/a
338.7085	0.166	677417	keystroke	e	n/a
338.7985	0.15	677597	keystroke	r	n/a
339.0985	0.075	678197	keystroke	Key.enter	n/a
339.178	5.5025	678356	prompt	n/a	memphis ensemble west armed\n
339.759	0.075	679518	keystroke	m	n/a
339.835	0.104	679670	keystroke	e	n/a
339.954	0.12	679908	keystroke	m	n/a
340.044	0.135	680088	keystroke	p	n/a
340.254	0.15	680508	keystroke	h	n/a
340.314	0.225	680628	keystroke	i	n/a
340.524	0.12	681048	keystroke	s	n/a
340.629	0.09	681258	keystroke	Key.space	n/a
340.8845	0.105	681769	keystroke	e	n/a
341.004	0.0895	682008	keystroke	n	n/a
341.1395	0.2095	682279	keystroke	s	n/a
341.274	0.1495	682548	keystroke	e	n/a
341.709	0.1045	683418	keystroke	m	n/a
342.054	0.2095	684108	keystroke	b	n/a
342.189	0.1345	684378	keystroke	l	n/a
342.3085	0.09	684617	keystroke	e	n/a
342.4285	0.0905	684857	keystroke	Key.space	n/a
342.549	0.18	685098	keystroke	w	n/a
342.6685	0.1655	685337	keystroke	e	n/a
342.909	0.015	685818	keystroke	s	n/a
343.314	0.12	686628	keystroke	t	n/a
343.539	0.12	687078	keystroke	Key.space	n/a
343.704	0.09	687408	keystroke	a	n/a
343.869	0.1205	687738	keystroke	r	n/a
343.9745	0.12	687949	keystroke	m	n/a
344.0645	0.134	688129	keystroke	e	n/a
344.2745	0.09	688549	keystroke	d	n/a
344.6035	0.076	689207	keystroke	Key.enter	n/a
344.688	7.1325	689376	prompt	n/a	notifications teach msgid demonstrated\n
345.4745	0.135	690949	keystroke	n	n/a
345.5645	0.135	691129	keystroke	o	n/a
345.6995	0.09	691399	keystroke	t	n/a
345.8645	0.045	691729	keystroke	i	n/a
345.9695	0.0895	691939	keystroke	f	n/a
346.089	0.105	692178	keystroke	i	n/a
346.209	0.12	692418	keystroke	c	n/a
346.2695	0.12	692539	keystroke	a	n/a
346.5245	0.09	693049	keystroke	t	n/a
346.6295	0.1795	693259	keystroke	i	n/a
346.734	0.1955	693468	keystroke	o	n/a
346.824	0.1205	693648	keystroke	n	n/a
346.9595	0.105	693919	keystroke	s	n/a
347.0795	0.105	694159	keystroke	Key.space	n/a
347.2295	0.15	694459	keystroke	t	n/a
347.3195	0.165	694639	keystroke	e	n/a
347.4995	0.18	694999	keystroke	a	n/a
347.6195	0.15	695239	keystroke	c	n/a
347.7545	0.119	695509	keystroke	h	n/a
347.8295	0.089	695659	keystroke	Key.space	n/a
348.0095	0.105	696019	keystroke	m	n/a
348.1295	0.1045	696259	keystroke	s	n/a
348.5645	0.075	697129	keystroke	g	n/a
348.7145	0.105	697429	keystroke	i	n/a
348.9095	0.105	697819	keystroke	d	n/a
349.0595	0.09	698119	keystroke	Key.space	n/a
349.1645	0.165	698329	keystroke	d	n/a
349.284	0.1505	698568	keystroke	e	n/a
349.4195	0.105	698839	keystroke	m	n/a
349.4945	0.24	698989	keystroke	o	n/a
349.6595	0.12	699319	keystroke	n	n/a
349.9295	0.09	699859	keystroke	s	n/a
350.244	0.135	700488	keystroke	t	n/a
350.319	0.1355	700638	keystroke	r	n/a
350.5745	0.075	701149	keystroke	a	n/a
350.784	0.15	701568	keystroke	t	n/a
350.874	0.135	701748	keystroke	e	n/a
351.129	0.09	702258	keystroke	d	n/a
351.699	0.12	703398	keystroke	Key.enter	n/a
351.8235	8.3605	703647	prompt	n/a	clearing evaluations deeper montgomery\n
352.509	0.105	705018	keystroke	c	n/a
352.644	0.1055	705288	keystroke	l	n/a
352.7945	0.24	705589	keystroke	e	n/a
352.8995	0.195	705799	keystroke	a	n/a
353.0195	0.1355	706039	keystroke	r	n/a
353.1245	0.1505	706249	keystroke	i	n/a
353.23	0.135	706460	keystroke	n	n/a
353.3345	0.1055	706669	keystroke	g	n/a
353.44	0.09	706880	keystroke	Key.space	n/a
353.56	0.105	707120	keystroke	e	n/a
353.83	0.15	707660	keystroke	v	n/a
353.905	0.165	707810	keystroke	a	n/a
354.055	0.105	708110	keystroke	l	n/a
354.265	0.09	708530	keystroke	u	n/a
354.475	0.075	708950	keystroke	t	n/a
355.3	0.075	710600	keystroke	Key.backspace	n/a
355.39	0.075	710780	keystroke	a	n/a
355.6	0.09	711200	keystroke	t	n/a
355.645	0.165	711290	keystroke	i	n/a
355.78	0.165	711560	keystroke	o	n/a
355.885	0.135	711770	keystroke	n	n/a
355.99	0.105	711980	keystroke	s	n/a
356.41	0.105	712820	keystroke	Key.space	n/a
356.5445	0.135	713089	keystroke	d	n/a
356.6195	0.12	713239	keystroke	e	n/a
356.8295	0.09	713659	keystroke	e	n/a
356.9345	0.135	713869	keystroke	p	n/a
357.0545	0.18	714109	keystroke	e	n/a
357.1595	0.135	714319	keystroke	r	n/a
357.2945	0.075	714589	keystroke	Key.space	n/a
357.4595	0.105	714919	keystroke	m	n/a
357.5495	0.2405	715099	keystroke	o	n/a
357.685	0.12	715370	keystroke	n	n/a
357.835	0.104	715670	keystroke	t	n/a
358.209	0.121	716418	keystroke	g	n/a
358.33	0.21	716660	keystroke	o	n/a
358.464	0.106	716928	keystroke	m	n/a
358.57	0.18	717140	keystroke	e	n/a
358.674	0.121	717348	keystroke	r	n/a
358.884	0.075	717768	keystroke	y	n/a
359.9945	0.18	719989	keystroke	Key.enter	n/a
360.189	6.137	720378	prompt	n/a	trains tolerance helpful summer\n
361.8845	0.15	723769	keystroke	t	n/a
361.9445	0.135	723889	keystroke	r	n/a
362.1845	0.255	724369	keystroke	a	n/a
362.3195	0.15	724639	keystroke	i	n/a
362.4545	0.075	724909	keystroke	n	n/a
362.5305	0.089	725061	keystroke	s	n/a
362.6345	0.105	725269	keystroke	Key.space	n/a
362.7845	0.075	725569	keystroke	t	n/a
362.8605	0.089	725721	keystroke	o	n/a
363.0695	0.105	726139	keystroke	l	n/a
363.1595	0.15	726319	keystroke	e	n/a
363.2645	0.15	726529	keystroke	r	n/a
363.4445	0.12	726889	keystroke	a	n/a
363.7445	0.12	727489	keystroke	n	n/a
363.8795	0.165	727759	keystroke	c	n/a
363.9845	0.21	727969	keystroke	e	n/a
364.1495	0.06	728299	keystroke	Key.space	n/a
364.2245	0.09	728449	keystroke	h	n/a
364.2995	0.105	728599	keystroke	e	n/a
364.45	0.135	728900	keystroke	l	n/a
364.54	0.105	729080	keystroke	p	n/a
364.69	0.09	729380	keystroke	f	n/a
364.795	0.075	729590	keystroke	u	n/a
364.975	0.15	729950	keystroke	l	n/a
365.11	0.105	730220	keystroke	Key.space	n/a
365.2	0.075	730400	keystroke	s	n/a
365.29	0.06	730580	keystroke	u	n/a
365.485	0.075	730970	keystroke	m	n/a
365.62	0.105	731240	keystroke	m	n/a
365.74	0.135	731480	keystroke	e	n/a
365.845	0.105	731690	keystroke	r	n/a
366.19	0.135	732380	keystroke	Key.enter	n/a
366.33	9.138	732660	prompt	n/a	manchester beside whenever tonight\n
366.88	0.105	733760	keystroke	m	n/a
366.97	0.1645	733940	keystroke	a	n/a
367.165	0.105	734330	keystroke	n	n/a
367.315	0.105	734630	keystroke	c	n/a
367.465	0.06	734930	keystroke	h	n/a
367.555	0.225	735110	keystroke	e	n/a
367.675	0.18	735350	keystroke	s	n/a
367.855	0.135	735710	keystroke	t	n/a
368.065	0.195	736130	keystroke	e	n/a
368.245	0.0745	736490	keystroke	r	n/a
368.3045	0.09	736609	keystroke	Key.space	n/a
368.4695	0.105	736939	keystroke	b	n/a
368.5445	0.18	737089	keystroke	e	n/a
368.6645	0.15	737329	keystroke	s	n/a
369.1145	0.15	738229	keystroke	i	n/a
369.2195	0.15	738439	keystroke	d	n/a
369.2945	0.1505	738589	keystroke	e	n/a
372.822	0.043	745644	keystroke	Key.space	n/a
372.895	0.09	745790	keystroke	w	n/a
373.015	0.09	746030	keystroke	h	n/a
373.1195	0.0905	746239	keystroke	e	n/a
373.24	0.105	746480	keystroke	n	n/a
373.435	0.09	746870	keystroke	e	n/a
373.66	0.12	747320	keystroke	v	n/a
373.795	0.21	747590	keystroke	e	n/a
373.96	0.12	747920	keystroke	r	n/a
374.29	0.105	748580	keystroke	Key.space	n/a
374.53	0.1205	749060	keystroke	t	n/a
374.59	0.15	749180	keystroke	o	n/a
374.6655	0.1495	749331	keystroke	n	n/a
374.77	0.1805	749540	keystroke	i	n/a
374.9055	0.06	749811	keystroke	g	n/a
374.9805	0.09	749961	keystroke	h	n/a
375.0855	0.075	750171	keystroke	t	n/a
375.3705	0.09	750741	keystroke	Key.enter	n/a
375.472	6.6345	750944	prompt	n/a	streams theatre handmade potentially\n
376.1045	0.121	752209	keystroke	s	n/a
376.3755	0.12	752751	keystroke	t	n/a
376.4355	0.105	752871	keystroke	r	n/a
376.6295	0.1355	753259	keystroke	e	n/a
376.735	0.165	753470	keystroke	a	n/a
376.885	0.09	753770	keystroke	m	n/a
377.02	0.09	754040	keystroke	s	n/a
377.08	0.12	754160	keystroke	Key.space	n/a
377.23	0.09	754460	keystroke	t	n/a
377.335	0.105	754670	keystroke	h	n/a
377.455	0.135	754910	keystroke	e	n/a
377.575	0.1205	755150	keystroke	a	n/a
377.815	0.105	755630	keystroke	t	n/a
377.95	0.165	755900	keystroke	r	n/a
378.1	0.1645	756200	keystroke	e	n/a
378.3095	0.06	756619	keystroke	Key.space	n/a
378.4295	0.1055	756859	keystroke	h	n/a
378.58	0.135	757160	keystroke	a	n/a
378.73	0.09	757460	keystroke	n	n/a
378.835	0.075	757670	keystroke	d	n/a
378.985	0.075	757970	keystroke	m	n/a
379.075	0.105	758150	keystroke	a	n/a
379.225	0.075	758450	keystroke	n	n/a
379.54	0.09	759080	keystroke	Key.backspace	n/a
379.645	0.21	759290	keystroke	d	n/a
379.75	0.135	759500	keystroke	e	n/a
379.9	0.105	759800	keystroke	Key.space	n/a
380.125	0.15	760250	keystroke	p	n/a
380.26	0.06	760520	keystroke	o	n/a
380.65	0.1505	761300	keystroke	t	n/a
380.755	0.1205	761510	keystroke	e	n/a
380.9655	0.075	761931	keystroke	n	n/a
381.0855	0.105	762171	keystroke	t	n/a
381.2055	0.075	762411	keystroke	i	n/a
381.3105	0.09	762621	keystroke	a	n/a
381.4305	0.045	762861	keystroke	l	n/a
381.5805	0.06	763161	keystroke	l	n/a
381.6555	0.075	763311	keystroke	y	n/a
382.0305	0.075	764061	keystroke	Key.enter	n/a
382.1095	9.214	764219	prompt	n/a	modern smallest seafood institution\n
382.765	0.15	765530	keystroke	m	n/a
382.87	0.135	765740	keystroke	o	n/a
382.93	0.195	765860	keystroke	d	n/a
383.035	0.165	766070	keystroke	e	n/a
383.32	0.12	766640	keystroke	r	n/a
383.455	0.1205	766910	keystroke	n	n/a
383.5445	0.106	767089	keystroke	Key.space	n/a
383.6955	0.105	767391	keystroke	s	n/a
383.8155	0.045	767631	keystroke	m	n/a
383.9355	0.105	767871	keystroke	a	n/a
384.0555	0.104	768111	keystroke	l	n/a
384.1745	0.09	768349	keystroke	l	n/a
384.2195	0.331	768439	keystroke	e	n/a
384.3695	0.24	768739	keystroke	s	n/a
384.5505	0.164	769101	keystroke	t	n/a
384.7745	0.09	769549	keystroke	Key.space	n/a
385.06	0.0145	770120	keystroke	s	n/a
385.0895	0.18	770179	keystroke	e	n/a
385.2095	0.21	770419	keystroke	a	n/a
385.5995	0.18	771199	keystroke	f	n/a
386.2145	0.03	772429	keystroke	o	n/a
386.3045	0.09	772609	keystroke	o	n/a
386.4245	0.105	772849	keystroke	d	n/a
386.5895	0.075	773179	keystroke	Key.space	n/a
386.7845	0.165	773569	keystroke	i	n/a
386.9045	0.105	773809	keystroke	n	n/a
387.115	0.105	774230	keystroke	s	n/a
387.2945	0.0905	774589	keystroke	i	n/a
387.475	0.075	774950	keystroke	t	n/a
389.035	0.045	778070	keystroke	Key.backspace	n/a
389.185	0.09	778370	keystroke	Key.backspace	n/a
389.89	0.135	779780	keystroke	t	n/a
390.1	0.12	780200	keystroke	i	n/a
390.265	0.0905	780530	keystroke	t	n/a
390.3995	0.0905	780799	keystroke	u	n/a
390.5505	0.105	781101	keystroke	t	n/a
390.7005	0.165	781401	keystroke	i	n/a
390.7905	0.225	781581	keystroke	o	n/a
390.9255	0.15	781851	keystroke	n	n/a
391.2255	0.09	782451	keystroke	Key.enter	n/a
391.327	7.061	782654	prompt	n/a	polls lucia survival orlando\n
391.8255	0.135	783651	keystroke	p	n/a
391.9155	0.12	783831	keystroke	o	n/a
392.1405	0.09	784281	keystroke	l	n/a
392.2905	0.06	784581	keystroke	l	n/a
392.3655	0.105	784731	keystroke	s	n/a
392.4855	0.09	784971	keystroke	Key.space	n/a
392.6205	0.105	785241	keystroke	l	n/a
392.8455	0.045	785691	keystroke	u	n/a
392.9505	0.12	785901	keystroke	c	n/a
393.1005	0.06	786201	keystroke	i	n/a
393.1905	0.105	786381	keystroke	a	n/a
393.2805	0.1045	786561	keystroke	Key.space	n/a
393.46	0.12	786920	keystroke	s	n/a
393.64	0.165	787280	keystroke	u	n/a
394.225	0.105	788450	keystroke	r	n/a
394.63	0.09	789260	keystroke	v	n/a
394.735	0.105	789470	keystroke	i	n/a
394.855	0.18	789710	keystroke	v	n/a
394.975	0.18	789950	keystroke	a	n/a
395.275	0.165	790550	keystroke	l	n/a
395.3955	0.0895	790791	keystroke	Key.space	n/a
395.575	0.0895	791150	keystroke	o	n/a
395.755	0.1195	791510	keystroke	r	n/a
395.9195	0.09	791839	keystroke	l	n/a
396.0245	0.1065	792049	keystroke	a	n/a
396.115	0.0895	792230	keystroke	n	n/a
396.3255	0.015	792651	keystroke	d	n/a
396.4295	0.075	792859	keystroke	o	n/a
398.2295	0.15	796459	keystroke	Key.enter	n/a
398.393	5.029	796786	prompt	n/a	closed examples matthew passing\n
399.0095	0.135	798019	keystroke	c	n/a
399.1295	0.075	798259	keystroke	l	n/a
399.2795	0.12	798559	keystroke	o	n/a
399.3245	0.18	798649	keystroke	s	n/a
399.4595	0.105	798919	keystroke	e	n/a
399.6545	0.09	799309	keystroke	d	n/a
399.7295	0.09	799459	keystroke	Key.space	n/a
399.865	0.06	799730	keystroke	e	n/a
400.0905	0.18	800181	keystroke	x	n/a
400.2245	0.15	800449	keystroke	a	n/a
400.2855	0.12	800571	keystroke	m	n/a
400.3755	0.2095	800751	keystroke	p	n/a
400.54	0.255	801080	keystroke	l	n/a
400.675	0.21	801350	keystroke	e	n/a
400.825	0.165	801650	keystroke	s	n/a
401.02	0.09	802040	keystroke	Key.space	n/a
401.185	0.105	802370	keystroke	m	n/a
401.245	0.09	802490	keystroke	a	n/a
401.455	0.045	802910	keystroke	t	n/a
401.59	0.105	803180	keystroke	t	n/a
401.77	0.0905	803540	keystroke	h	n/a
401.845	0.195	803690	keystroke	e	n/a
401.95	0.21	803900	keystroke	w	n/a
402.175	0.09	804350	keystroke	Key.space	n/a
402.28	0.136	804560	keystroke	p	n/a
402.37	0.12	804740	keystroke	a	n/a
402.475	0.1045	804950	keystroke	s	n/a
402.655	0.09	805310	keystroke	s	n/a
402.805	0.165	805610	keystroke	i	n/a
402.925	0.075	805850	keystroke	n	n/a
403.015	0.105	806030	keystroke	g	n/a
403.33	0.09	806660	keystroke	Key.enter	n/a
403.4255	9.0175	806851	prompt	n/a	enters institution everyone's cameron\n
404.035	0.105	808070	keystroke	e	n/a
404.23	0.015	808460	keystroke	n	n/a
404.246	0.104	808492	keystroke	t	n/a
404.425	0.21	808850	keystroke	e	n/a
404.53	0.2105	809060	keystroke	r	n/a
404.6655	0.15	809331	keystroke	s	n/a
404.7855	0.105	809571	keystroke	Key.space	n/a
404.9505	0.119	809901	keystroke	i	n/a
404.9805	0.134	809961	keystroke	n	n/a
405.1005	0.09	810201	keystroke	s	n/a
405.295	0.0595	810590	keystroke	t	n/a
405.3855	0.105	810771	keystroke	i	n/a
406.5405	0.09	813081	keystroke	t	n/a
406.6755	0.09	813351	keystroke	u	n/a
406.7955	0.12	813591	keystroke	t	n/a
406.9155	0.165	813831	keystroke	i	n/a
407.0355	0.21	814071	keystroke	o	n/a
407.1255	0.21	814251	keystroke	n	n/a
407.2905	0.105	814581	keystroke	Key.space	n/a
407.4405	0.06	814881	keystroke	e	n/a
407.5605	0.09	815121	keystroke	n	n/a
407.6055	0.135	815211	keystroke	e	n/a
408.0405	0.06	816081	keystroke	Key.backspace	n/a
408.3255	0.03	816651	keystroke	Key.backspace	n/a
408.3405	0.03	816681	keystroke	v	n/a
408.4305	0.27	816861	keystroke	e	n/a
408.6105	0.165	817221	keystroke	r	n/a
408.7755	0.105	817551	keystroke	y	n/a
408.9855	0.165	817971	keystroke	o	n/a
409.0755	0.135	818151	keystroke	n	n/a
409.2405	0.105	818481	keystroke	e	n/a
409.3305	0.105	818661	keystroke	'	n/a
409.4505	0.15	818901	keystroke	s	n/a
409.6155	0.06	819231	keystroke	Key.space	n/a
409.9155	0.06	819831	keystroke	v	n/a
409.9305	0.165	819861	keystroke	c	n/a
409.9455	0.255	819891	keystroke	a	n/a
410.4705	0.06	820941	keystroke	Key.backspace	n/a
410.755	0.105	821510	keystroke	Key.backspace	n/a
411.1	0.045	822200	keystroke	Key.backspace	n/a
411.235	0.165	822470	keystroke	c	n/a
411.325	0.135	822650	keystroke	a	n/a
411.505	0.135	823010	keystroke	m	n/a
411.61	0.225	823220	keystroke	e	n/a
411.715	0.18	823430	keystroke	r	n/a
411.88	0.15	823760	keystroke	o	n/a
411.97	0.09	823940	keystroke	n	n/a
412.345	0.09	824690	keystroke	Key.enter	n/a
412.447	6.11	824894	prompt	n/a	disney sophisticated nylon blame\n
413.305	0.105	826610	keystroke	d	n/a
413.425	0.0755	826850	keystroke	i	n/a
413.47	0.1055	826940	keystroke	s	n/a
413.6055	0.075	827211	keystroke	n	n/a
413.725	0.105	827450	keystroke	e	n/a
413.845	0.135	827690	keystroke	y	n/a
413.95	0.105	827900	keystroke	Key.space	n/a
414.46	0.09	828920	keystroke	s	n/a
414.565	0.165	829130	keystroke	o	n/a
414.655	0.165	829310	keystroke	p	n/a
414.895	0.165	829790	keystroke	h	n/a
414.985	0.135	829970	keystroke	i	n/a
415.3	0.09	830600	keystroke	s	n/a
415.555	0.105	831110	keystroke	t	n/a
415.69	0.105	831380	keystroke	i	n/a
415.885	0.12	831770	keystroke	c	n/a
415.96	0.12	831920	keystroke	a	n/a
416.215	0.135	832430	keystroke	t	n/a
416.32	0.105	832640	keystroke	e	n/a
416.515	0.12	833030	keystroke	d	n/a
416.62	0.12	833240	keystroke	Key.space	n/a
416.755	0.09	833510	keystroke	n	n/a
416.89	0.105	833780	keystroke	y	n/a
417.16	0.075	834320	keystroke	l	n/a
417.355	0.18	834710	keystroke	o	n/a
417.445	0.195	834890	keystroke	n	n/a
417.625	0.06	835250	keystroke	Key.space	n/a
417.775	0.12	835550	keystroke	b	n/a
417.865	0.135	835730	keystroke	l	n/a
418.015	0.12	836030	keystroke	a	n/a
418.15	0.135	836300	keystroke	m	n/a
418.3	0.045	836600	keystroke	e	n/a
418.465	0.09	836930	keystroke	Key.enter	n/a
418.5595	6.7025	837119	prompt	n/a	intent flexibility trade pixel\n
419.14	0.165	838280	keystroke	i	n/a
419.23	0.1205	838460	keystroke	n	n/a
419.3355	0.135	838671	keystroke	t	n/a
419.4105	0.15	838821	keystroke	e	n/a
419.5455	0.105	839091	keystroke	n	n/a
419.6355	0.105	839271	keystroke	t	n/a
419.7255	0.105	839451	keystroke	Key.space	n/a
419.9505	0.15	839901	keystroke	f	n/a
420.0555	0.1195	840111	keystroke	l	n/a
420.1455	0.0895	840291	keystroke	e	n/a
420.806	0.09	841612	keystroke	x	n/a
420.911	0.075	841822	keystroke	i	n/a
421.076	0.15	842152	keystroke	b	n/a
421.181	0.105	842362	keystroke	i	n/a
421.316	0.375	842632	keystroke	l	n/a
421.646	0.18	843292	keystroke	i	n/a
421.855	0.121	843710	keystroke	t	n/a
422.021	0.105	844042	keystroke	y	n/a
422.096	0.1645	844192	keystroke	Key.space	n/a
422.696	0.12	845392	keystroke	t	n/a
422.741	0.135	845482	keystroke	r	n/a
422.951	0.1345	845902	keystroke	a	n/a
423.1005	0.165	846201	keystroke	d	n/a
423.1905	0.15	846381	keystroke	e	n/a
423.3105	0.075	846621	keystroke	Key.space	n/a
423.4005	0.195	846801	keystroke	p	n/a
423.4905	0.195	846981	keystroke	i	n/a
423.7005	0.135	847401	keystroke	z	n/a
424.1655	0.09	848331	keystroke	Key.backspace	n/a
424.5105	0.075	849021	keystroke	x	n/a
424.7655	0.09	849531	keystroke	e	n/a
424.9155	0.06	849831	keystroke	l	n/a
425.2005	0.06	850401	keystroke	Key.enter	n/a
425.265	7.137	850530	prompt	n/a	factor alpha matches conclusions\n
426.025	0.121	852050	keystroke	f	n/a
426.1	0.12	852200	keystroke	a	n/a
426.265	0.09	852530	keystroke	c	n/a
426.565	0.03	853130	keystroke	t	n/a
426.61	0.09	853220	keystroke	o	n/a
426.745	0.045	853490	keystroke	r	n/a
426.791	0.089	853582	keystroke	Key.space	n/a
426.925	0.15	853850	keystroke	a	n/a
427.15	0.225	854300	keystroke	l	n/a
427.555	0.165	855110	keystroke	p	n/a
427.705	0.135	855410	keystroke	h	n/a
427.945	0.135	855890	keystroke	a	n/a
428.065	0.105	856130	keystroke	Key.space	n/a
428.305	0.09	856610	keystroke	m	n/a
428.38	0.075	856760	keystroke	a	n/a
429.415	0.09	858830	keystroke	t	n/a
429.536	0.0895	859072	keystroke	c	n/a
429.6705	0.12	859341	keystroke	h	n/a
429.8055	0.165	859611	keystroke	e	n/a
429.8955	0.165	859791	keystroke	s	n/a
430.0155	0.105	860031	keystroke	Key.space	n/a
430.2105	0.075	860421	keystroke	c	n/a
430.2255	0.15	860451	keystroke	o	n/a
430.3455	0.12	860691	keystroke	n	n/a
430.5255	0.06	861051	keystroke	f	n/a
430.87	0.106	861740	keystroke	Key.backspace	n/a
431.021	0.075	862042	keystroke	c	n/a
431.141	0.105	862282	keystroke	l	n/a
431.411	0.135	862822	keystroke	u	n/a
431.651	0.105	863302	keystroke	s	n/a
431.711	0.165	863422	keystroke	i	n/a
431.815	0.211	863630	keystroke	o	n/a
431.951	0.135	863902	keystroke	n	n/a
432.071	0.12	864142	keystroke	s	n/a
432.2945	0.1055	864589	keystroke	Key.enter	n/a
432.4045	12.7845	864809	prompt	n/a	completed brief tried solely\n
433.0305	0.12	866061	keystroke	c	n/a
433.0905	0.21	866181	keystroke	o	n/a
433.2405	0.1955	866481	keystroke	p	n/a
433.2555	0.075	866511	keystroke	m	n/a
433.376	0.225	866752	keystroke	l	n/a
433.451	0.225	866902	keystroke	e	n/a
433.661	0.21	867322	keystroke	t	n/a
433.781	0.165	867562	keystroke	e	n/a
434.021	0.135	868042	keystroke	d	n/a
434.2755	0.015	868551	keystroke	Key.space	n/a
434.4255	0.075	868851	keystroke	b	n/a
434.5305	0.12	869061	keystroke	r	n/a
434.6655	0.135	869331	keystroke	i	n/a
435.5355	0.075	871071	keystroke	Key.backspace	n/a
435.7455	0.075	871491	keystroke	Key.backspace	n/a
435.9405	0.09	871881	keystroke	Key.backspace	n/a
436.1955	0.015	872391	keystroke	Key.backspace	n/a
436.2855	0.09	872571	keystroke	Key.backspace	n/a
436.4655	0.06	872931	keystroke	Key.backspace	n/a
436.6155	0.0905	873231	keystroke	Key.backspace	n/a
436.81	0.105	873620	keystroke	Key.backspace	n/a
436.99	0.075	873980	keystroke	Key.backspace	n/a
437.185	0.075	874370	keystroke	Key.backspace	n/a
437.38	0.06	874760	keystroke	Key.backspace	n/a
437.9205	0.135	875841	keystroke	m	n/a
438.0255	0.2245	876051	keystroke	p	n/a
438.175	0.165	876350	keystroke	l	n/a
438.265	0.1655	876530	keystroke	e	n/a
438.415	0.1955	876830	keystroke	t	n/a
438.5505	0.12	877101	keystroke	e	n/a
438.745	0.12	877490	keystroke	d	n/a
438.85	0.075	877700	keystroke	Key.space	n/a
438.97	0.09	877940	keystroke	b	n/a
439.09	0.135	878180	keystroke	r	n/a
439.24	0.105	878480	keystroke	i	n/a
439.33	0.0905	878660	keystroke	e	n/a
439.541	0.075	879082	keystroke	d	n/a
439.631	0.104	879262	keystroke	Key.space	n/a
439.8855	0.165	879771	keystroke	t	n/a
439.9605	0.105	879921	keystroke	r	n/a
440.111	0.119	880222	keystroke	i	n/a
440.245	0.105	880490	keystroke	e	n/a
440.696	0.075	881392	keystroke	Key.backspace	n/a
440.861	0.06	881722	keystroke	Key.backspace	n/a
441.011	0.075	882022	keystroke	Key.backspace	n/a
441.176	0.075	882352	keystroke	Key.backspace	n/a
441.386	0.06	882772	keystroke	Key.backspace	n/a
441.641	0.0595	883282	keystroke	Key.backspace	n/a
442.4055	0.105	884811	keystroke	f	n/a
442.6155	0.0745	885231	keystroke	Key.space	n/a
442.706	0.18	885412	keystroke	t	n/a
442.825	0.135	885650	keystroke	r	n/a
442.945	0.135	885890	keystroke	i	n/a
443.111	0.119	886222	keystroke	e	n/a
443.365	0.0905	886730	keystroke	d	n/a
443.4405	0.09	886881	keystroke	Key.space	n/a
443.575	0.105	887150	keystroke	s	n/a
443.65	0.06	887300	keystroke	o	n/a
443.8315	0.074	887663	keystroke	l	n/a
443.9505	0.061	887901	keystroke	e	n/a
444.715	0.1205	889430	keystroke	l	n/a
444.8205	0.1205	889641	keystroke	y	n/a
445.12	0.06	890240	keystroke	Key.enter	n/a
445.194	8.0345	890388	prompt	n/a	japan no bibliographic licence\n
446.021	0.06	892042	keystroke	j	n/a
446.126	0.12	892252	keystroke	a	n/a
446.231	0.09	892462	keystroke	p	n/a
446.336	0.1345	892672	keystroke	a	n/a
446.5005	0.1355	893001	keystroke	n	n/a
446.606	0.105	893212	keystroke	Key.space	n/a
446.756	0.135	893512	keystroke	n	n/a
446.876	0.09	893752	keystroke	o	n/a
446.921	0.075	893842	keystroke	Key.space	n/a
447.071	0.105	894142	keystroke	b	n/a
447.161	0.105	894322	keystroke	i	n/a
447.581	0.075	895162	keystroke	b	n/a
447.821	0.09	895642	keystroke	l	n/a
448.001	0.21	896002	keystroke	i	n/a
448.091	0.135	896182	keystroke	o	n/a
448.331	0.165	896662	keystroke	g	n/a
448.406	0.165	896812	keystroke	r	n/a
448.976	0.135	897952	keystroke	a	n/a
449.096	0.255	898192	keystroke	p	n/a
449.261	0.18	898522	keystroke	h	n/a
449.366	0.18	898732	keystroke	i	n/a
449.516	0.105	899032	keystroke	c	n/a
449.606	0.105	899212	keystroke	Key.space	n/a
449.756	0.09	899512	keystroke	l	n/a
449.921	0.12	899842	keystroke	i	n/a
450.011	0.135	900022	keystroke	c	n/a
450.2955	0.03	900591	keystroke	e	n/a
450.3105	0.09	900621	keystroke	n	n/a
450.656	0.12	901312	keystroke	c	n/a
450.926	0.1045	901852	keystroke	e	n/a
453.1925	0.028	906385	keystroke	Key.enter	n/a
453.2325	8.2315	906465	prompt	n/a	pipes arab weblogs julia\n
455.5185	0.072	911037	keystroke	Key.shift_r	n/a
456.596	0.15	913192	keystroke	p	n/a
456.701	0.135	913402	keystroke	i	n/a
456.911	0.105	913822	keystroke	p	n/a
457.286	0.21	914572	keystroke	e	n/a
457.406	0.135	914812	keystroke	s	n/a
457.571	0.075	915142	keystroke	Key.space	n/a
457.661	0.225	915322	keystroke	a	n/a
458.0055	0.03	916011	keystroke	r	n/a
458.0205	0.075	916041	keystroke	a	n/a
458.1405	0.2105	916281	keystroke	b	n/a
458.2155	0.1505	916431	keystroke	Key.space	n/a
458.381	0.1795	916762	keystroke	w	n/a
458.5455	0.12	917091	keystroke	e	n/a
459.1155	0.075	918231	keystroke	b	n/a
459.581	0.1045	919162	keystroke	l	n/a
459.776	0.105	919552	keystroke	o	n/a
459.896	0.195	919792	keystroke	g	n/a
460.0155	0.21	920031	keystroke	s	n/a
460.2405	0.105	920481	keystroke	Key.space	n/a
460.4505	0.09	920901	keystroke	j	n/a
460.6305	0.105	921261	keystroke	u	n/a
460.856	0.075	921712	keystroke	l	n/a
461.036	0.09	922072	keystroke	i	n/a
461.156	0.105	922312	keystroke	a	n/a
461.366	0.09	922732	keystroke	Key.enter	n/a
461.4675	6.23	922935	prompt	n/a	apparel revenge counter submitted\n
462.101	0.09	924202	keystroke	a	n/a
462.221	0.045	924442	keystroke	p	n/a
462.356	0.09	924712	keystroke	p	n/a
462.431	0.09	924862	keystroke	a	n/a
462.67	0.1805	925340	keystroke	r	n/a
462.79	0.1355	925580	keystroke	e	n/a
463.4505	0.135	926901	keystroke	l	n/a
463.6005	0.12	927201	keystroke	Key.space	n/a
464.231	0.105	928462	keystroke	r	n/a
464.276	0.12	928552	keystroke	e	n/a
464.561	0.1495	929122	keystroke	v	n/a
464.6355	0.135	929271	keystroke	e	n/a
464.8005	0.105	929601	keystroke	n	n/a
464.9805	0.105	929961	keystroke	g	n/a
465.0105	0.136	930021	keystroke	e	n/a
465.2205	0.03	930441	keystroke	Key.space	n/a
465.4005	0.12	930801	keystroke	c	n/a
465.5055	0.196	931011	keystroke	o	n/a
465.5815	0.179	931163	keystroke	u	n/a
465.6855	0.165	931371	keystroke	n	n/a
465.7755	0.12	931551	keystroke	t	n/a
465.9405	0.15	931881	keystroke	e	n/a
466.0455	0.135	932091	keystroke	r	n/a
466.1655	0.135	932331	keystroke	Key.space	n/a
466.3155	0.105	932631	keystroke	s	n/a
466.3605	0.135	932721	keystroke	u	n/a
466.4505	0.09	932901	keystroke	b	n/a
466.676	0.09	933352	keystroke	m	n/a
466.826	0.12	933652	keystroke	i	n/a
466.931	0.045	933862	keystroke	t	n/a
467.051	0.12	934102	keystroke	t	n/a
467.156	0.105	934312	keystroke	e	n/a
467.366	0.075	934732	keystroke	d	n/a
467.636	0.06	935272	keystroke	Key.enter	n/a
467.6995	6.508	935399	prompt	n/a	searched invalid kept maryland\n
468.281	0.09	936562	keystroke	s	n/a
468.491	0.1645	936982	keystroke	e	n/a
468.596	0.1795	937192	keystroke	a	n/a
468.8055	0.09	937611	keystroke	r	n/a
469.0755	0.105	938151	keystroke	c	n/a
469.2255	0.09	938451	keystroke	h	n/a
469.3305	0.09	938661	keystroke	e	n/a
469.5405	0.135	939081	keystroke	d	n/a
469.6155	0.105	939231	keystroke	Key.space	n/a
470.0205	0.21	940041	keystroke	i	n/a
470.1115	0.209	940223	keystroke	n	n/a
470.3055	0.12	940611	keystroke	v	n/a
470.3655	0.15	940731	keystroke	a	n/a
470.5005	0.045	941001	keystroke	l	n/a
470.6655	0.1355	941331	keystroke	i	n/a
470.816	0.2105	941632	keystroke	d	n/a
470.9965	0.104	941993	keystroke	e	n/a
471.4005	0.075	942801	keystroke	Key.backspace	n/a
471.6705	0.06	943341	keystroke	Key.space	n/a
471.9565	0.105	943913	keystroke	k	n/a
472.0755	0.15	944151	keystroke	e	n/a
472.2405	0.06	944481	keystroke	p	n/a
472.3155	0.12	944631	keystroke	t	n/a
472.4505	0.076	944901	keystroke	Key.space	n/a
472.6165	0.0895	945233	keystroke	m	n/a
472.721	0.105	945442	keystroke	a	n/a
473.231	0.09	946462	keystroke	r	n/a
473.351	0.105	946702	keystroke	y	n/a
473.621	0.09	947242	keystroke	l	n/a
473.741	0.09	947482	keystroke	a	n/a
473.831	0.09	947662	keystroke	n	n/a
473.966	0.075	947932	keystroke	d	n/a
474.131	0.075	948262	keystroke	Key.enter	n/a
474.2115	8.4495	948423	prompt	n/a	series neon recover italian\n
474.821	0.06	949642	keystroke	s	n/a
475.031	0.105	950062	keystroke	e	n/a
475.181	0.09	950362	keystroke	i	n/a
475.451	0.225	950902	keystroke	e	n/a
475.586	0.165	951172	keystroke	s	n/a
475.931	0.06	951862	keystroke	Key.backspace	n/a
476.141	0.15	952282	keystroke	Key.backspace	n/a
476.306	0.015	952612	keystroke	Key.backspace	n/a
476.471	0.09	952942	keystroke	r	n/a
476.651	0.135	953302	keystroke	i	n/a
476.801	0.165	953602	keystroke	e	n/a
476.891	0.18	953782	keystroke	s	n/a
477.146	0.09	954292	keystroke	Key.space	n/a
478.061	0.09	956122	keystroke	n	n/a
478.241	0.075	956482	keystroke	e	n/a
478.3465	0.24	956693	keystroke	o	n/a
478.4655	0.196	956931	keystroke	n	n/a
478.6015	0.135	957203	keystroke	Key.space	n/a
478.9315	0.135	957863	keystroke	r	n/a
478.9915	0.135	957983	keystroke	e	n/a
479.2615	0.119	958523	keystroke	c	n/a
479.3955	0.09	958791	keystroke	o	n/a
479.5455	0.061	959091	keystroke	v	n/a
479.7405	0.165	959481	keystroke	e	n/a
479.8305	0.15	959661	keystroke	r	n/a
479.9505	0.09	959901	keystroke	Key.space	n/a
480.0855	0.1805	960171	keystroke	i	n/a
480.1905	0.15	960381	keystroke	t	n/a
480.5205	0.12	961041	keystroke	a	n/a
481.781	0.12	963562	keystroke	l	n/a
481.961	0.09	963922	keystroke	i	n/a
482.081	0.12	964162	keystroke	a	n/a
482.276	0.06	964552	keystroke	n	n/a
482.561	0.09	965122	keystroke	Key.enter	n/a
482.666	8.183	965332	prompt	n/a	different newfoundland diane surname\n
483.4005	0.09	966801	keystroke	d	n/a
483.5055	0.105	967011	keystroke	i	n/a
483.5955	0.09	967191	keystroke	f	n/a
483.7455	0.15	967491	keystroke	f	n/a
483.9405	0.165	967881	keystroke	e	n/a
484.0605	0.195	968121	keystroke	r	n/a
484.1955	0.12	968391	keystroke	e	n/a
484.361	0.1055	968722	keystroke	n	n/a
484.451	0.105	968902	keystroke	t	n/a
484.571	0.105	969142	keystroke	Key.space	n/a
484.751	0.225	969502	keystroke	n	n/a
484.796	0.24	969592	keystroke	e	n/a
485.021	0.03	970042	keystroke	w	n/a
485.126	0.09	970252	keystroke	f	n/a
485.231	0.21	970462	keystroke	o	n/a
485.321	0.18	970642	keystroke	u	n/a
485.411	0.15	970822	keystroke	n	n/a
485.531	0.105	971062	keystroke	d	n/a
485.681	0.1205	971362	keystroke	l	n/a
485.7715	0.12	971543	keystroke	a	n/a
485.9065	0.09	971813	keystroke	n	n/a
486.0115	0.1645	972023	keystroke	d	n/a
486.206	0.09	972412	keystroke	Key.space	n/a
486.341	0.135	972682	keystroke	d	n/a
486.446	0.1055	972892	keystroke	i	n/a
486.5665	0.105	973133	keystroke	a	n/a
486.7765	0.12	973553	keystroke	n	n/a
486.9715	0.09	973943	keystroke	e	n/a
487.1365	0.105	974273	keystroke	Key.space	n/a
487.4665	0.105	974933	keystroke	s	n/a
487.6165	0.105	975233	keystroke	u	n/a
487.7665	0.105	975533	keystroke	r	n/a
487.9465	0.09	975893	keystroke	n	n/a
488.0665	0.18	976133	keystroke	a	n/a
488.2605	0.031	976521	keystroke	m	n/a
488.3065	0.075	976613	keystroke	e	n/a
490.7835	0.057	981567	keystroke	Key.enter	n/a
490.8525	7.1905	981705	prompt	n/a	order fleece governor officials\n
491.8015	0.104	983603	keystroke	o	n/a
491.8765	0.075	983753	keystroke	r	n/a
492.1005	0.075	984201	keystroke	d	n/a
492.3255	0.075	984651	keystroke	e	n/a
492.3555	0.12	984711	keystroke	r	n/a
492.4605	0.09	984921	keystroke	Key.space	n/a
492.5805	0.1055	985161	keystroke	f	n/a
492.701	0.06	985402	keystroke	l	n/a
492.896	0.015	985792	keystroke	e	n/a
492.926	0.075	985852	keystroke	e	n/a
493.136	0.165	986272	keystroke	c	n/a
493.316	0.105	986632	keystroke	e	n/a
493.451	0.09	986902	keystroke	Key.space	n/a
493.6315	0.09	987263	keystroke	g	n/a
493.7365	0.0895	987473	keystroke	o	n/a
494.876	0.135	989752	keystroke	v	n/a
495.1155	0.2705	990231	keystroke	e	n/a
495.236	0.18	990472	keystroke	r	n/a
495.911	0.18	991822	keystroke	n	n/a
496.046	0.135	992092	keystroke	o	n/a
496.196	0.18	992392	keystroke	r	n/a
496.391	0.135	992782	keystroke	Key.space	n/a
496.601	0.1205	993202	keystroke	o	n/a
496.7065	0.074	993413	keystroke	f	n/a
496.8565	0.135	993713	keystroke	f	n/a
497.0515	0.09	994103	keystroke	i	n/a
497.1555	0.106	994311	keystroke	c	n/a
497.2765	0.075	994553	keystroke	i	n/a
497.3965	0.09	994793	keystroke	a	n/a
497.5315	0.075	995063	keystroke	l	n/a
497.6065	0.09	995213	keystroke	s	n/a
497.9515	0.09	995903	keystroke	Key.enter	n/a
498.045	5.9675	996090	prompt	n/a	tulsa horizon expiration stem\n
498.8515	0.105	997703	keystroke	t	n/a
498.9715	0.105	997943	keystroke	u	n/a
499.1815	0.12	998363	keystroke	l	n/a
499.2565	0.12	998513	keystroke	s	n/a
499.5115	0.105	999023	keystroke	a	n/a
499.6015	0.12	999203	keystroke	Key.space	n/a
500.4565	0.179	1000913	keystroke	h	n/a
500.5915	0.15	1001183	keystroke	o	n/a
500.756	0.12	1001512	keystroke	r	n/a
500.891	0.105	1001782	keystroke	i	n/a
500.997	0.089	1001994	keystroke	z	n/a
501.176	0.195	1002352	keystroke	o	n/a
501.281	0.165	1002562	keystroke	n	n/a
501.401	0.135	1002802	keystroke	Key.space	n/a
501.551	0.075	1003102	keystroke	e	n/a
501.776	0.075	1003552	keystroke	x	n/a
501.866	0.345	1003732	keystroke	p	n/a
502.061	0.18	1004122	keystroke	i	n/a
502.226	0.105	1004452	keystroke	r	n/a
502.286	0.12	1004572	keystroke	a	n/a
502.511	0.105	1005022	keystroke	t	n/a
502.601	0.2705	1005202	keystroke	i	n/a
502.7665	0.24	1005533	keystroke	o	n/a
502.9165	0.195	1005833	keystroke	n	n/a
503.0665	0.12	1006133	keystroke	Key.space	n/a
503.3065	0.09	1006613	keystroke	s	n/a
503.5315	0.165	1007063	keystroke	t	n/a
503.6365	0.15	1007273	keystroke	e	n/a
503.7715	0.15	1007543	keystroke	m	n/a
503.9065	0.105	1007813	keystroke	Key.enter	n/a
504.0155	13.3245	1008031	prompt	n/a	cincinnati citizenship student moderate\n
504.8065	0.119	1009613	keystroke	c	n/a
505.0465	0.195	1010093	keystroke	i	n/a
505.1955	0.151	1010391	keystroke	n	n/a
506.5315	0.09	1013063	keystroke	c	n/a
506.6365	0.21	1013273	keystroke	i	n/a
506.7865	0.15	1013573	keystroke	n	n/a
507.1465	0.105	1014293	keystroke	n	n/a
507.2215	0.09	1014443	keystroke	a	n/a
507.4315	0.1045	1014863	keystroke	t	n/a
507.5515	0.15	1015103	keystroke	i	n/a
507.6565	0.105	1015313	keystroke	Key.space	n/a
507.9415	0.105	1015883	keystroke	c	n/a
508.0615	0.105	1016123	keystroke	i	n/a
509.006	0.075	1018012	keystroke	t	n/a
509.501	0.165	1019002	keystroke	i	n/a
510.011	0.09	1020022	keystroke	z	n/a
510.236	0.09	1020472	keystroke	e	n/a
510.371	0.105	1020742	keystroke	n	n/a
510.581	0.12	1021162	keystroke	s	n/a
510.716	0.165	1021432	keystroke	h	n/a
510.8065	0.21	1021613	keystroke	i	n/a
510.9715	0.18	1021943	keystroke	p	n/a
512.4565	0.15	1024913	keystroke	Key.space	n/a
512.8015	0.09	1025603	keystroke	s	n/a
513.0265	0.075	1026053	keystroke	t	n/a
513.1765	0.075	1026353	keystroke	u	n/a
513.3115	0.24	1026623	keystroke	d	n/a
513.4015	0.24	1026803	keystroke	e	n/a
513.6565	0.09	1027313	keystroke	n	n/a
513.8665	0.495	1027733	keystroke	t	n/a
514.1065	0.27	1028213	keystroke	Key.space	n/a
514.3915	0.075	1028783	keystroke	m	n/a
514.4515	0.045	1028903	keystroke	o	n/a
514.4815	0.03	1028963	keystroke	d	n/a
514.5265	0.21	1029053	keystroke	e	n/a
514.6015	0.165	1029203	keystroke	r	n/a
515.4715	0.015	1030943	keystroke	a	n/a
515.6365	0.15	1031273	keystroke	t	n/a
515.7415	0.105	1031483	keystroke	e	n/a
517.1965	0.135	1034393	keystroke	Key.enter	n/a
517.3435	7.2415	1034687	prompt	n/a	civic grocery recording gear\n
518.3815	0.06	1036763	keystroke	c	n/a
518.4865	0.09	1036973	keystroke	i	n/a
518.5915	0.075	1037183	keystroke	v	n/a
518.7115	0.09	1037423	keystroke	i	n/a
519.792	0.105	1039584	keystroke	c	n/a
519.972	0.09	1039944	keystroke	Key.space	n/a
520.197	0.18	1040394	keystroke	g	n/a
520.242	0.2245	1040484	keystroke	r	n/a
520.557	0.105	1041114	keystroke	o	n/a
520.677	0.15	1041354	keystroke	v	n/a
521.187	0.075	1042374	keystroke	Key.backspace	n/a
521.247	0.12	1042494	keystroke	c	n/a
521.517	0.195	1043034	keystroke	e	n/a
521.667	0.165	1043334	keystroke	r	n/a
521.787	0.1345	1043574	keystroke	y	n/a
521.877	0.1205	1043754	keystroke	Key.space	n/a
522.0725	0.24	1044145	keystroke	r	n/a
522.1625	0.165	1044325	keystroke	e	n/a
522.5225	0.1045	1045045	keystroke	c	n/a
522.672	0.09	1045344	keystroke	o	n/a
522.792	0.06	1045584	keystroke	r	n/a
522.942	0.12	1045884	keystroke	d	n/a
523.092	0.18	1046184	keystroke	i	n/a
523.212	0.15	1046424	keystroke	n	n/a
523.377	0.09	1046754	keystroke	g	n/a
523.497	0.105	1046994	keystroke	Key.space	n/a
523.827	0.1655	1047654	keystroke	g	n/a
523.9325	0.1345	1047865	keystroke	e	n/a
524.142	0.165	1048284	keystroke	a	n/a
524.292	0.105	1048584	keystroke	r	n/a
524.502	0.0755	1049004	keystroke	Key.enter	n/a
524.5905	7.2785	1049181	prompt	n/a	donated mile little enquiries\n
525.207	0.09	1050414	keystroke	d	n/a
525.282	0.2105	1050564	keystroke	o	n/a
525.4775	0.165	1050955	keystroke	n	n/a
525.6275	0.03	1051255	keystroke	a	n/a
525.672	0.1355	1051344	keystroke	t	n/a
525.717	0.1205	1051434	keystroke	e	n/a
525.9425	0.12	1051885	keystroke	d	n/a
526.0175	0.105	1052035	keystroke	Key.space	n/a
526.1675	0.165	1052335	keystroke	m	n/a
526.2275	0.165	1052455	keystroke	i	n/a
526.4525	0.105	1052905	keystroke	l	n/a
526.6325	0.06	1053265	keystroke	e	n/a
526.7825	0.09	1053565	keystroke	Key.space	n/a
527.0375	0.06	1054075	keystroke	l	n/a
527.2025	0.075	1054405	keystroke	i	n/a
527.2925	0.075	1054585	keystroke	t	n/a
527.4575	0.09	1054915	keystroke	t	n/a
527.5625	0.12	1055125	keystroke	l	n/a
527.6975	0.12	1055395	keystroke	e	n/a
527.8325	0.075	1055665	keystroke	Key.space	n/a
528.0875	0.075	1056175	keystroke	e	n/a
528.2075	0.165	1056415	keystroke	n	n/a
528.4475	0.15	1056895	keystroke	q	n/a
528.6125	0.15	1057225	keystroke	u	n/a
528.7325	0.105	1057465	keystroke	i	n/a
529.842	0.135	1059684	keystroke	r	n/a
530.022	0.105	1060044	keystroke	i	n/a
530.187	0.15	1060374	keystroke	e	n/a
530.292	0.12	1060584	keystroke	s	n/a
531.7775	0.09	1063555	keystroke	Key.enter	n/a
531.8715	6.9795	1063743	prompt	n/a	illustrated normal nirvana declined\n
532.5125	0.0755	1065025	keystroke	i	n/a
532.7075	0.075	1065415	keystroke	l	n/a
532.8425	0.105	1065685	keystroke	l	n/a
533.1125	0.1795	1066225	keystroke	u	n/a
533.277	0.105	1066554	keystroke	s	n/a
533.4575	0.03	1066915	keystroke	t	n/a
533.4725	0.06	1066945	keystroke	r	n/a
533.6225	0.105	1067245	keystroke	a	n/a
533.8325	0.12	1067665	keystroke	t	n/a
533.9075	0.12	1067815	keystroke	e	n/a
534.1175	0.195	1068235	keystroke	d	n/a
534.1925	0.135	1068385	keystroke	Key.space	n/a
534.4025	0.1795	1068805	keystroke	n	n/a
534.4925	0.1195	1068985	keystroke	o	n/a
534.597	0.03	1069194	keystroke	r	n/a
534.642	0.045	1069284	keystroke	m	n/a
534.7325	0.075	1069465	keystroke	a	n/a
534.793	0.1345	1069586	keystroke	l	n/a
534.9125	0.09	1069825	keystroke	Key.space	n/a
535.0625	0.135	1070125	keystroke	n	n/a
535.1525	0.15	1070305	keystroke	i	n/a
535.4225	0.105	1070845	keystroke	r	n/a
535.7225	0.18	1071445	keystroke	v	n/a
535.8275	0.15	1071655	keystroke	a	n/a
536.0075	0.12	1072015	keystroke	n	n/a
536.1135	0.1645	1072227	keystroke	a	n/a
536.353	0.03	1072706	keystroke	Key.space	n/a
536.443	0.15	1072886	keystroke	d	n/a
536.518	0.15	1073036	keystroke	e	n/a
536.818	0.105	1073636	keystroke	c	n/a
536.938	0.09	1073876	keystroke	l	n/a
537.178	0.135	1074356	keystroke	i	n/a
537.268	0.09	1074536	keystroke	n	n/a
537.403	0.06	1074806	keystroke	e	n/a
537.567	0.076	1075134	keystroke	d	n/a
538.708	0.135	1077416	keystroke	Key.enter	n/a
538.8545	11.741	1077709	prompt	n/a	purpose permitted prepared testimony\n
539.5925	0.21	1079185	keystroke	p	n/a
539.7425	0.1355	1079485	keystroke	u	n/a
539.893	0.1045	1079786	keystroke	r	n/a
539.9525	0.2405	1079905	keystroke	p	n/a
540.1175	0.1805	1080235	keystroke	o	n/a
540.283	0.12	1080566	keystroke	s	n/a
540.343	0.105	1080686	keystroke	e	n/a
540.883	0.09	1081766	keystroke	Key.space	n/a
541.1075	0.12	1082215	keystroke	p	n/a
541.378	0.165	1082756	keystroke	e	n/a
541.483	0.135	1082966	keystroke	r	n/a
541.573	0.135	1083146	keystroke	m	n/a
541.678	0.165	1083356	keystroke	i	n/a
