onset	duration	sample	value	key	prompt_text
3.0585	12.0125	6117	prompt	n/a	the quick brown fox jumps over a lazy dog\n
4.9745	0.001	9949	keystroke_t	t	n/a
5.0335	0.06	10067	keystroke_h	h	n/a
5.423	0.06	10846	keystroke_e	e	n/a
5.618	0.135	11236	keystroke_Key.space	Key.space	n/a
6.067	0.09	12134	keystroke_q	q	n/a
6.202	0.075	12404	keystroke_u	u	n/a
6.442	0.0765	12884	keystroke_i	i	n/a
6.6685	0.061	13337	keystroke_c	c	n/a
6.7885	0.105	13577	keystroke_k	k	n/a
7.0125	0.09	14025	keystroke_Key.space	Key.space	n/a
7.193	0.0755	14386	keystroke_b	b	n/a
7.403	0.0755	14806	keystroke_r	r	n/a
7.5385	0.089	15077	keystroke_o	o	n/a
7.7035	0.089	15407	keystroke_w	w	n/a
7.8075	0.1055	15615	keystroke_n	n	n/a
8.153	0.105	16306	keystroke_Key.space	Key.space	n/a
8.423	0.075	16846	keystroke_f	f	n/a
8.573	0.06	17146	keystroke_o	o	n/a
8.768	0.0905	17536	keystroke_x	x	n/a
9.1735	0.1345	18347	keystroke_Key.space	Key.space	n/a
9.6975	0.106	19395	keystroke_j	j	n/a
9.9835	0.059	19967	keystroke_u	u	n/a
10.253	0.06	20506	keystroke_m	m	n/a
10.4335	0.074	20867	keystroke_p	p	n/a
10.6125	0.0755	21225	keystroke_s	s	n/a
10.823	0.0905	21646	keystroke_Key.space	Key.space	n/a
11.003	0.075	22006	keystroke_o	o	n/a
11.108	0.0755	22216	keystroke_v	v	n/a
11.273	0.09	22546	keystroke_e	e	n/a
11.348	0.0755	22696	keystroke_r	r	n/a
11.5425	0.076	23085	keystroke_Key.space	Key.space	n/a
11.678	0.1055	23356	keystroke_a	a	n/a
11.813	0.075	23626	keystroke_Key.space	Key.space	n/a
12.0235	0.1645	24047	keystroke_l	l	n/a
12.338	0.0755	24676	keystroke_a	a	n/a
12.668	0.0755	25336	keystroke_z	z	n/a
12.8785	0.06	25757	keystroke_y	y	n/a
13.2235	0.0745	26447	keystroke_Key.space	Key.space	n/a
13.9135	0.06	27827	keystroke_d	d	n/a
14.0335	0.0905	28067	keystroke_o	o	n/a
14.244	0.06	28488	keystroke_g	g	n/a
15.008	0.06	30016	keystroke_Key.enter	Key.enter	n/a
15.075	6.0105	30150	prompt	n/a	else spring owen unto\n
15.819	0.0905	31638	keystroke_e	e	n/a
15.999	0.0755	31998	keystroke_l	l	n/a
16.2085	0.09	32417	keystroke_s	s	n/a
16.3135	0.1055	32627	keystroke_e	e	n/a
16.6285	0.105	33257	keystroke_Key.space	Key.space	n/a
16.9145	0.1195	33829	keystroke_s	s	n/a
17.049	0.105	34098	keystroke_p	p	n/a
17.213	0.061	34426	keystroke_r	r	n/a
17.3185	0.0905	34637	keystroke_i	i	n/a
17.514	0.075	35028	keystroke_n	n	n/a
17.6335	0.075	35267	keystroke_g	g	n/a
17.7835	0.0905	35567	keystroke_Key.space	Key.space	n/a
18.0385	0.1055	36077	keystroke_o	o	n/a
18.249	0.075	36498	keystroke_w	w	n/a
18.5035	0.045	37007	keystroke_e	e	n/a
18.6385	0.0605	37277	keystroke_n	n	n/a
18.8485	0.09	37697	keystroke_Key.space	Key.space	n/a
19.314	0.075	38628	keystroke_u	u	n/a
19.5685	0.0755	39137	keystroke_n	n	n/a
19.854	0.075	39708	keystroke_t	t	n/a
19.974	0.075	39948	keystroke_o	o	n/a
21.024	0.059	42048	keystroke_Key.enter	Key.enter	n/a
21.0905	13.285	42181	prompt	n/a	pockets domains greensboro harbor\n
21.999	0.0895	43998	keystroke_o	o	n/a
22.509	0.09	45018	keystroke_Key.backspace	Key.backspace	n/a
22.764	0.1355	45528	keystroke_p	p	n/a
23.139	0.06	46278	keystroke_c	c	n/a
23.544	0.089	47088	keystroke_Key.backspace	Key.backspace	n/a
23.829	0.105	47658	keystroke_o	o	n/a
24.054	0.075	48108	keystroke_c	c	n/a
24.234	0.075	48468	keystroke_k	k	n/a
24.744	0.0745	49488	keystroke_e	e	n/a
24.9385	0.075	49877	keystroke_t	t	n/a
25.149	0.075	50298	keystroke_s	s	n/a
25.2985	0.105	50597	keystroke_Key.space	Key.space	n/a
25.5085	0.06	51017	keystroke_d	d	n/a
25.673	0.0905	51346	keystroke_o	o	n/a
25.869	0.0895	51738	keystroke_m	m	n/a
26.034	0.105	52068	keystroke_a	a	n/a
26.199	0.075	52398	keystroke_i	i	n/a
26.364	0.09	52728	keystroke_n	n	n/a
26.514	0.105	53028	keystroke_s	s	n/a
26.709	0.074	53418	keystroke_Key.space	Key.space	n/a
27.3095	0.074	54619	keystroke_g	g	n/a
27.5035	0.075	55007	keystroke_r	r	n/a
27.6085	0.1355	55217	keystroke_e	e	n/a
27.894	0.09	55788	keystroke_e	e	n/a
28.044	0.075	56088	keystroke_n	n	n/a
28.254	0.09	56508	keystroke_s	s	n/a
28.674	0.075	57348	keystroke_b	b	n/a
28.794	0.09	57588	keystroke_o	o	n/a
28.989	0.075	57978	keystroke_r	r	n/a
29.169	0.0905	58338	keystroke_o	o	n/a
30.1285	0.105	60257	keystroke_Key.space	Key.space	n/a
30.594	0.06	61188	keystroke_h	h	n/a
30.759	0.06	61518	keystroke_a	a	n/a
30.864	0.09	61728	keystroke_r	r	n/a
31.224	0.075	62448	keystroke_b	b	n/a
31.3585	0.0755	62717	keystroke_o	o	n/a
32.064	0.0595	64128	keystroke_r	r	n/a
34.3595	0.0145	68719	keystroke_Key.enter	Key.enter	n/a
34.3805	9.8505	68761	prompt	n/a	massive fiscal advocate vacation\n
35.1545	0.0895	70309	keystroke_m	m	n/a
35.274	0.1045	70548	keystroke_a	a	n/a
35.4685	0.0755	70937	keystroke_s	s	n/a
35.604	0.105	71208	keystroke_s	s	n/a
35.7535	0.06	71507	keystroke_i	i	n/a
35.919	0.09	71838	keystroke_v	v	n/a
36.0835	0.0755	72167	keystroke_e	e	n/a
36.2635	0.09	72527	keystroke_Key.space	Key.space	n/a
36.7885	0.09	73577	keystroke_f	f	n/a
36.9235	0.0755	73847	keystroke_i	i	n/a
37.1485	0.09	74297	keystroke_s	s	n/a
37.5685	0.076	75137	keystroke_c	c	n/a
37.779	0.0895	75558	keystroke_a	a	n/a
37.9285	0.075	75857	keystroke_l	l	n/a
38.124	0.09	76248	keystroke_Key.space	Key.space	n/a
38.4835	0.0305	76967	keystroke_d	d	n/a
39.0535	0.075	78107	keystroke_Key.backspace	Key.backspace	n/a
39.1435	0.105	78287	keystroke_a	a	n/a
39.354	0.075	78708	keystroke_d	d	n/a
39.8185	0.0895	79637	keystroke_v	v	n/a
40.0285	0.0755	80057	keystroke_o	o	n/a
40.539	0.0895	81078	keystroke_c	c	n/a
40.689	0.074	81378	keystroke_a	a	n/a
40.8385	0.0895	81677	keystroke_t	t	n/a
40.988	0.0905	81976	keystroke_e	e	n/a
41.2435	0.1055	82487	keystroke_Key.space	Key.space	n/a
41.6785	0.0905	83357	keystroke_v	v	n/a
41.874	0.075	83748	keystroke_a	a	n/a
42.759	0.075	85518	keystroke_c	c	n/a
42.924	0.06	85848	keystroke_a	a	n/a
43.134	0.075	86268	keystroke_t	t	n/a
43.314	0.045	86628	keystroke_i	i	n/a
43.3445	0.1495	86689	keystroke_o	o	n/a
43.554	0.0755	87108	keystroke_n	n	n/a
44.154	0.074	88308	keystroke_Key.enter	Key.enter	n/a
44.2355	14.56	88471	prompt	n/a	mcdonald thursday heather citysearch\n
45.0685	0.076	90137	keystroke_m	m	n/a
45.324	0.0745	90648	keystroke_o	o	n/a
45.759	0.06	91518	keystroke_Key.backspace	Key.backspace	n/a
45.864	0.075	91728	keystroke_c	c	n/a
46.2995	0.0595	92599	keystroke_d	d	n/a
46.434	0.0895	92868	keystroke_o	o	n/a
46.629	0.0905	93258	keystroke_n	n	n/a
46.869	0.0755	93738	keystroke_a	a	n/a
47.124	0.1055	94248	keystroke_l	l	n/a
47.348	0.0605	94696	keystroke_d	d	n/a
47.6035	0.1055	95207	keystroke_Key.space	Key.space	n/a
47.9785	0.076	95957	keystroke_t	t	n/a
48.0985	0.06	96197	keystroke_h	h	n/a
48.4735	0.0605	96947	keystroke_u	u	n/a
48.819	0.09	97638	keystroke_r	r	n/a
49.1795	0.0745	98359	keystroke_s	s	n/a
49.464	0.06	98928	keystroke_d	d	n/a
49.5835	0.09	99167	keystroke_a	a	n/a
49.764	0.06	99528	keystroke_y	y	n/a
50.0485	0.075	100097	keystroke_Key.space	Key.space	n/a
50.2735	0.06	100547	keystroke_h	h	n/a
50.394	0.075	100788	keystroke_e	e	n/a
50.499	0.09	100998	keystroke_a	a	n/a
50.754	0.06	101508	keystroke_t	t	n/a
50.889	0.059	101778	keystroke_h	h	n/a
51.054	0.06	102108	keystroke_e	e	n/a
51.099	0.09	102198	keystroke_r	r	n/a
52.3735	0.105	104747	keystroke_Key.space	Key.space	n/a
52.944	0.0755	105888	keystroke_c	c	n/a
53.079	0.075	106158	keystroke_i	i	n/a
53.2885	0.0605	106577	keystroke_t	t	n/a
53.634	0.0595	107268	keystroke_y	y	n/a
53.649	0.03	107298	keystroke_t	t	n/a
54.249	0.0595	108498	keystroke_Key.backspace	Key.backspace	n/a
54.489	0.09	108978	keystroke_s	s	n/a
54.669	0.075	109338	keystroke_e	e	n/a
54.774	0.09	109548	keystroke_a	a	n/a
54.924	0.09	109848	keystroke_r	r	n/a
55.2545	0.044	110509	keystroke_c	c	n/a
55.3745	0.0595	110749	keystroke_h	h	n/a
58.7805	0.0135	117561	keystroke_Key.enter	Key.enter	n/a
58.8005	11.7745	117601	prompt	n/a	tenant chemicals lows nitrogen\n
59.949	0.0595	119898	keystroke_t	t	n/a
60.084	0.0745	120168	keystroke_e	e	n/a
60.189	0.075	120378	keystroke_n	n	n/a
60.669	0.09	121338	keystroke_a	a	n/a
60.834	0.06	121668	keystroke_n	n	n/a
61.059	0.074	122118	keystroke_t	t	n/a
61.254	0.105	122508	keystroke_Key.space	Key.space	n/a
61.5995	0.0745	123199	keystroke_c	c	n/a
61.749	0.0455	123498	keystroke_h	h	n/a
61.9285	0.045	123857	keystroke_e	e	n/a
62.0495	0.09	124099	keystroke_m	m	n/a
62.364	0.075	124728	keystroke_i	i	n/a
62.589	0.06	125178	keystroke_s	s	n/a
63.189	0.0595	126378	keystroke_Key.backspace	Key.backspace	n/a
63.2635	0.09	126527	keystroke_c	c	n/a
63.429	0.0895	126858	keystroke_a	a	n/a
63.549	0.105	127098	keystroke_l	l	n/a
63.789	0.075	127578	keystroke_s	s	n/a
63.9535	0.0905	127907	keystroke_Key.space	Key.space	n/a
64.2685	0.061	128537	keystroke_o	o	n/a
64.854	0.06	129708	keystroke_Key.backspace	Key.backspace	n/a
65.079	0.0905	130158	keystroke_l	l	n/a
65.3345	0.059	130669	keystroke_o	o	n/a
65.5285	0.0755	131057	keystroke_w	w	n/a
65.919	0.075	131838	keystroke_s	s	n/a
66.174	0.059	132348	keystroke_Key.space	Key.space	n/a
66.654	0.06	133308	keystroke_n	n	n/a
66.8785	0.0755	133757	keystroke_i	i	n/a
67.134	0.0745	134268	keystroke_t	t	n/a
67.329	0.0755	134658	keystroke_r	r	n/a
67.479	0.075	134958	keystroke_o	o	n/a
67.9135	0.076	135827	keystroke_g	g	n/a
68.139	0.0595	136278	keystroke_e	e	n/a
68.259	0.0745	136518	keystroke_n	n	n/a
70.5715	0.001	141143	keystroke_Key.enter	Key.enter	n/a
70.581	8.4345	141162	prompt	n/a	treat exclusion engines stuff\n
71.454	0.0755	142908	keystroke_t	t	n/a
71.634	0.09	143268	keystroke_r	r	n/a
71.754	0.105	143508	keystroke_e	e	n/a
71.949	0.09	143898	keystroke_a	a	n/a
72.159	0.0745	144318	keystroke_t	t	n/a
72.3985	0.135	144797	keystroke_Key.space	Key.space	n/a
72.984	0.0745	145968	keystroke_e	e	n/a
73.2085	0.0755	146417	keystroke_x	x	n/a
73.493	0.061	146986	keystroke_c	c	n/a
73.6435	0.0905	147287	keystroke_l	l	n/a
73.868	0.0605	147736	keystroke_u	u	n/a
74.0785	0.0755	148157	keystroke_s	s	n/a
74.244	0.075	148488	keystroke_i	i	n/a
74.349	0.15	148698	keystroke_o	o	n/a
74.559	0.0745	149118	keystroke_n	n	n/a
74.799	0.0745	149598	keystroke_Key.space	Key.space	n/a
75.354	0.075	150708	keystroke_g	g	n/a
75.834	0.06	151668	keystroke_Key.backspace	Key.backspace	n/a
75.939	0.075	151878	keystroke_e	e	n/a
76.074	0.075	152148	keystroke_n	n	n/a
76.239	0.075	152478	keystroke_g	g	n/a
76.478	0.076	152956	keystroke_i	i	n/a
76.643	0.106	153286	keystroke_n	n	n/a
76.809	0.0745	153618	keystroke_e	e	n/a
77.0345	0.0745	154069	keystroke_s	s	n/a
77.1685	0.1205	154337	keystroke_Key.space	Key.space	n/a
77.349	0.09	154698	keystroke_s	s	n/a
77.5435	0.076	155087	keystroke_t	t	n/a
77.6785	0.0595	155357	keystroke_u	u	n/a
78.009	0.0605	156018	keystroke_f	f	n/a
78.1885	0.061	156377	keystroke_f	f	n/a
78.9085	0.105	157817	keystroke_Key.enter	Key.enter	n/a
79.022	9.5935	158044	prompt	n/a	tutorials haiti indicating computing\n
79.839	0.0595	159678	keystroke_t	t	n/a
79.9735	0.06	159947	keystroke_u	u	n/a
80.1535	0.06	160307	keystroke_t	t	n/a
80.9345	0.105	161869	keystroke_o	o	n/a
81.1435	0.0755	162287	keystroke_r	r	n/a
81.383	0.076	162766	keystroke_i	i	n/a
81.549	0.104	163098	keystroke_a	a	n/a
81.7295	0.075	163459	keystroke_l	l	n/a
81.8945	0.0885	163789	keystroke_s	s	n/a
82.0585	0.0905	164117	keystroke_Key.space	Key.space	n/a
82.6285	0.075	165257	keystroke_h	h	n/a
82.794	0.1045	165588	keystroke_a	a	n/a
82.9585	0.0755	165917	keystroke_i	i	n/a
83.3635	0.0905	166727	keystroke_t	t	n/a
83.514	0.075	167028	keystroke_i	i	n/a
83.873	0.061	167746	keystroke_Key.space	Key.space	n/a
84.429	0.075	168858	keystroke_i	i	n/a
84.609	0.075	169218	keystroke_n	n	n/a
84.774	0.075	169548	keystroke_d	d	n/a
84.954	0.06	169908	keystroke_i	i	n/a
85.1035	0.0755	170207	keystroke_c	c	n/a
85.2535	0.0755	170507	keystroke_a	a	n/a
85.419	0.09	170838	keystroke_t	t	n/a
85.689	0.09	171378	keystroke_i	i	n/a
85.884	0.076	171768	keystroke_n	n	n/a
86.0195	0.0745	172039	keystroke_g	g	n/a
86.154	0.09	172308	keystroke_Key.space	Key.space	n/a
86.439	0.075	172878	keystroke_c	c	n/a
86.514	0.105	173028	keystroke_o	o	n/a
86.664	0.09	173328	keystroke_m	m	n/a
86.814	0.12	173628	keystroke_p	p	n/a
87.039	0.06	174078	keystroke_u	u	n/a
87.204	0.06	174408	keystroke_t	t	n/a
87.3395	0.0595	174679	keystroke_i	i	n/a
87.474	0.075	174948	keystroke_n	n	n/a
87.579	0.075	175158	keystroke_g	g	n/a
88.554	0.0595	177108	keystroke_Key.enter	Key.enter	n/a
88.62	10.919	177240	prompt	n/a	circular happening feelings assist\n
89.349	0.06	178698	keystroke_c	c	n/a
89.439	0.09	178878	keystroke_i	i	n/a
89.604	0.06	179208	keystroke_r	r	n/a
89.859	0.0605	179718	keystroke_c	c	n/a
89.978	0.061	179956	keystroke_u	u	n/a
90.174	0.075	180348	keystroke_l	l	n/a
90.339	0.09	180678	keystroke_a	a	n/a
90.5335	0.075	181067	keystroke_r	r	n/a
90.729	0.075	181458	keystroke_Key.space	Key.space	n/a
91.3135	0.06	182627	keystroke_h	h	n/a
91.509	0.1045	183018	keystroke_a	a	n/a
91.7335	0.0755	183467	keystroke_p	p	n/a
91.899	0.1045	183798	keystroke_p	p	n/a
92.094	0.075	184188	keystroke_e	e	n/a
92.2135	0.0755	184427	keystroke_n	n	n/a
93.024	0.09	186048	keystroke_i	i	n/a
93.174	0.105	186348	keystroke_n	n	n/a
93.368	0.075	186736	keystroke_g	g	n/a
93.5035	0.09	187007	keystroke_Key.space	Key.space	n/a
93.849	0.075	187698	keystroke_f	f	n/a
94.0885	0.0605	188177	keystroke_e	e	n/a
94.2385	0.075	188477	keystroke_e	e	n/a
94.3435	0.0905	188687	keystroke_l	l	n/a
94.5535	0.075	189107	keystroke_i	i	n/a
94.734	0.09	189468	keystroke_n	n	n/a
94.884	0.12	189768	keystroke_g	g	n/a
95.139	0.0745	190278	keystroke_s	s	n/a
95.348	0.09	190696	keystroke_Key.space	Key.space	n/a
95.588	0.0755	191176	keystroke_a	a	n/a
95.783	0.075	191566	keystroke_s	s	n/a
95.949	0.09	191898	keystroke_s	s	n/a
96.0985	0.0905	192197	keystroke_i	i	n/a
96.2485	0.09	192497	keystroke_s	s	n/a
96.414	0.074	192828	keystroke_t	t	n/a
99.5365	0	199073	keystroke_Key.enter	Key.enter	n/a
99.5425	7.193	199085	prompt	n/a	yards excuse singles briefly\n
100.4335	0.06	200867	keystroke_y	y	n/a
100.584	0.0745	201168	keystroke_a	a	n/a
100.7335	0.0755	201467	keystroke_r	r	n/a
100.9595	0.0745	201919	keystroke_d	d	n/a
101.1685	0.075	202337	keystroke_s	s	n/a
101.274	0.1045	202548	keystroke_Key.space	Key.space	n/a
101.529	0.075	203058	keystroke_e	e	n/a
101.738	0.075	203476	keystroke_x	x	n/a
102.173	0.06	204346	keystroke_c	c	n/a
102.3995	0.06	204799	keystroke_u	u	n/a
102.6835	0.06	205367	keystroke_s	s	n/a
102.864	0.0595	205728	keystroke_e	e	n/a
102.9835	0.09	205967	keystroke_Key.space	Key.space	n/a
103.179	0.0745	206358	keystroke_s	s	n/a
103.2985	0.0745	206597	keystroke_i	i	n/a
103.448	0.09	206896	keystroke_n	n	n/a
103.599	0.074	207198	keystroke_g	g	n/a
103.7935	0.075	207587	keystroke_l	l	n/a
103.958	0.075	207916	keystroke_e	e	n/a
104.168	0.075	208336	keystroke_s	s	n/a
104.228	0.1355	208456	keystroke_Key.space	Key.space	n/a
104.5735	0.075	209147	keystroke_b	b	n/a
104.7985	0.075	209597	keystroke_r	r	n/a
104.994	0.06	209988	keystroke_i	i	n/a
105.189	0.075	210378	keystroke_e	e	n/a
105.429	0.075	210858	keystroke_f	f	n/a
105.6085	0.075	211217	keystroke_l	l	n/a
105.8635	0.045	211727	keystroke_y	y	n/a
106.6735	0.0605	213347	keystroke_Key.enter	Key.enter	n/a
106.741	8.4095	213482	prompt	n/a	rules accepted deposits airlines\n
107.6035	0.0755	215207	keystroke_r	r	n/a
107.7385	0.046	215477	keystroke_u	u	n/a
107.934	0.075	215868	keystroke_l	l	n/a
108.039	0.0745	216078	keystroke_e	e	n/a
108.234	0.09	216468	keystroke_s	s	n/a
108.264	0.135	216528	keystroke_Key.space	Key.space	n/a
108.5645	0.0745	217129	keystroke_a	a	n/a
108.849	0.06	217698	keystroke_c	c	n/a
109.029	0.06	218058	keystroke_c	c	n/a
109.3285	0.046	218657	keystroke_e	e	n/a
109.524	0.12	219048	keystroke_p	p	n/a
109.794	0.0755	219588	keystroke_t	t	n/a
109.989	0.075	219978	keystroke_e	e	n/a
110.184	0.0605	220368	keystroke_d	d	n/a
110.304	0.12	220608	keystroke_Key.space	Key.space	n/a
110.559	0.06	221118	keystroke_d	d	n/a
110.7385	0.045	221477	keystroke_e	e	n/a
110.859	0.105	221718	keystroke_p	p	n/a
111.084	0.0745	222168	keystroke_o	o	n/a
111.354	0.0895	222708	keystroke_s	s	n/a
111.504	0.0895	223008	keystroke_i	i	n/a
111.7585	0.076	223517	keystroke_t	t	n/a
112.0135	0.0755	224027	keystroke_s	s	n/a
112.1935	0.09	224387	keystroke_Key.space	Key.space	n/a
112.464	0.0755	224928	keystroke_a	a	n/a
112.794	0.105	225588	keystroke_i	i	n/a
113.019	0.06	226038	keystroke_r	r	n/a
113.304	0.09	226608	keystroke_l	l	n/a
113.499	0.075	226998	keystroke_i	i	n/a
113.679	0.09	227358	keystroke_n	n	n/a
113.7835	0.09	227567	keystroke_e	e	n/a
114.039	0.0595	228078	keystroke_s	s	n/a
115.089	0.0595	230178	keystroke_Key.enter	Key.enter	n/a
115.1545	8.186	230309	prompt	n/a	proven referrals birth percent\n
115.9735	0.1055	231947	keystroke_p	p	n/a
116.169	0.06	232338	keystroke_r	r	n/a
116.259	0.105	232518	keystroke_o	o	n/a
116.529	0.09	233058	keystroke_v	v	n/a
116.769	0.06	233538	keystroke_e	e	n/a
116.904	0.06	233808	keystroke_n	n	n/a
117.098	0.09	234196	keystroke_Key.space	Key.space	n/a
117.354	0.0905	234708	keystroke_r	r	n/a
117.4285	0.0905	234857	keystroke_e	e	n/a
117.758	0.075	235516	keystroke_f	f	n/a
117.954	0.074	235908	keystroke_e	e	n/a
118.059	0.09	236118	keystroke_r	r	n/a
118.583	0.076	237166	keystroke_r	r	n/a
118.809	0.0895	237618	keystroke_a	a	n/a
119.0035	0.061	238007	keystroke_l	l	n/a
119.1685	0.075	238337	keystroke_s	s	n/a
119.3335	0.1055	238667	keystroke_Key.space	Key.space	n/a
119.7085	0.0755	239417	keystroke_b	b	n/a
119.829	0.09	239658	keystroke_i	i	n/a
119.9785	0.0755	239957	keystroke_r	r	n/a
120.219	0.059	240438	keystroke_t	t	n/a
120.264	0.06	240528	keystroke_h	h	n/a
120.5185	0.0905	241037	keystroke_Key.space	Key.space	n/a
120.849	0.045	241698	keystroke_c	c	n/a
121.269	0.09	242538	keystroke_Key.backspace	Key.backspace	n/a
121.509	0.12	243018	keystroke_p	p	n/a
121.6295	0.0735	243259	keystroke_e	e	n/a
121.719	0.0905	243438	keystroke_r	r	n/a
122.244	0.045	244488	keystroke_c	c	n/a
122.4085	0.06	244817	keystroke_e	e	n/a
122.499	0.0755	244998	keystroke_n	n	n/a
122.6645	0.0595	245329	keystroke_t	t	n/a
123.279	0.06	246558	keystroke_Key.enter	Key.enter	n/a
123.3445	14.6055	246689	prompt	n/a	dreams emerald educational spyware\n
124.134	0.06	248268	keystroke_d	d	n/a
124.299	0.06	248598	keystroke_e	e	n/a
124.449	0.09	248898	keystroke_a	a	n/a
124.5845	0.074	249169	keystroke_m	m	n/a
124.7945	0.0895	249589	keystroke_s	s	n/a
125.2735	0.09	250547	keystroke_Key.space	Key.space	n/a
125.6785	0.0605	251357	keystroke_Key.backspace	Key.backspace	n/a
125.8735	0.06	251747	keystroke_Key.backspace	Key.backspace	n/a
126.054	0.045	252108	keystroke_Key.backspace	Key.backspace	n/a
126.219	0.06	252438	keystroke_Key.backspace	Key.backspace	n/a
126.399	0.075	252798	keystroke_Key.backspace	Key.backspace	n/a
126.624	0.0755	253248	keystroke_r	r	n/a
126.714	0.12	253428	keystroke_e	e	n/a
126.848	0.091	253696	keystroke_a	a	n/a
127.059	0.075	254118	keystroke_m	m	n/a
127.269	0.09	254538	keystroke_s	s	n/a
127.4485	0.1055	254897	keystroke_Key.space	Key.space	n/a
127.824	0.075	255648	keystroke_e	e	n/a
127.974	0.075	255948	keystroke_m	m	n/a
128.1845	0.0745	256369	keystroke_e	e	n/a
128.289	0.1045	256578	keystroke_r	r	n/a
128.514	0.089	257028	keystroke_a	a	n/a
128.7245	0.0745	257449	keystroke_l	l	n/a
129.308	0.061	258616	keystroke_d	d	n/a
129.5035	0.105	259007	keystroke_Key.space	Key.space	n/a
129.8485	0.075	259697	keystroke_d	d	n/a
130.464	0.03	260928	keystroke_e	e	n/a
130.809	0.045	261618	keystroke_Key.backspace	Key.backspace	n/a
131.004	0.06	262008	keystroke_Key.backspace	Key.backspace	n/a
131.079	0.075	262158	keystroke_e	e	n/a
131.2735	0.0605	262547	keystroke_d	d	n/a
131.4245	0.0445	262849	keystroke_u	u	n/a
131.439	0.0155	262878	keystroke_y	y	n/a
131.694	0.06	263388	keystroke_c	c	n/a
132.0685	0.045	264137	keystroke_Key.backspace	Key.backspace	n/a
132.264	0.0595	264528	keystroke_Key.backspace	Key.backspace	n/a
132.3235	0.0905	264647	keystroke_c	c	n/a
132.489	0.09	264978	keystroke_a	a	n/a
132.6535	0.0755	265307	keystroke_t	t	n/a
132.774	0.075	265548	keystroke_i	i	n/a
132.879	0.1355	265758	keystroke_o	o	n/a
133.059	0.09	266118	keystroke_n	n	n/a
133.299	0.089	266598	keystroke_a	a	n/a
133.448	0.0905	266896	keystroke_l	l	n/a
134.2885	0.1355	268577	keystroke_Key.space	Key.space	n/a
134.544	0.089	269088	keystroke_s	s	n/a
134.634	0.105	269268	keystroke_p	p	n/a
134.8745	0.0445	269749	keystroke_y	y	n/a
135.354	0.074	270708	keystroke_w	w	n/a
135.5645	0.0745	271129	keystroke_a	a	n/a
135.714	0.0895	271428	keystroke_r	r	n/a
135.864	0.1045	271728	keystroke_e	e	n/a
137.8885	0.06	275777	keystroke_Key.enter	Key.enter	n/a
137.9545	10.8555	275909	prompt	n/a	characters contributed hospital partners\n
138.834	0.09	277668	keystroke_c	c	n/a
138.9535	0.0755	277907	keystroke_h	h	n/a
139.074	0.074	278148	keystroke_a	a	n/a
139.2085	0.09	278417	keystroke_r	r	n/a
139.433	0.076	278866	keystroke_a	a	n/a
139.644	0.075	279288	keystroke_c	c	n/a
139.8385	0.0755	279677	keystroke_t	t	n/a
139.9585	0.0755	279917	keystroke_e	e	n/a
140.0485	0.0755	280097	keystroke_r	r	n/a
140.243	0.075	280486	keystroke_s	s	n/a
140.333	0.135	280666	keystroke_Key.space	Key.space	n/a
140.604	0.06	281208	keystroke_c	c	n/a
140.784	0.105	281568	keystroke_o	o	n/a
140.904	0.12	281808	keystroke_n	n	n/a
141.174	0.059	282348	keystroke_t	t	n/a
141.308	0.076	282616	keystroke_r	r	n/a
141.459	0.09	282918	keystroke_i	i	n/a
141.774	0.089	283548	keystroke_b	b	n/a
141.924	0.06	283848	keystroke_u	u	n/a
142.164	0.09	284328	keystroke_t	t	n/a
142.314	0.09	284628	keystroke_e	e	n/a
142.5385	0.0905	285077	keystroke_d	d	n/a
142.703	0.1355	285406	keystroke_Key.space	Key.space	n/a
143.124	0.059	286248	keystroke_h	h	n/a
143.304	0.09	286608	keystroke_o	o	n/a
143.769	0.0895	287538	keystroke_s	s	n/a
144.1135	0.09	288227	keystroke_p	p	n/a
144.3535	0.075	288707	keystroke_i	i	n/a
144.519	0.0895	289038	keystroke_t	t	n/a
144.699	0.104	289398	keystroke_a	a	n/a
144.833	0.0905	289666	keystroke_l	l	n/a
145.1035	0.09	290207	keystroke_Key.space	Key.space	n/a
145.5835	0.091	291167	keystroke_p	p	n/a
145.719	0.0895	291438	keystroke_a	a	n/a
145.8535	0.1055	291707	keystroke_r	r	n/a
146.5735	0.075	293147	keystroke_t	t	n/a
146.769	0.0745	293538	keystroke_n	n	n/a
146.9035	0.0755	293807	keystroke_e	e	n/a
146.9935	0.075	293987	keystroke_r	r	n/a
147.2335	0.06	294467	keystroke_s	s	n/a
148.748	0.061	297496	keystroke_Key.enter	Key.enter	n/a
148.815	8.47	297630	prompt	n/a	cells offers teaches publisher\n
149.5135	0.06	299027	keystroke_c	c	n/a
149.6935	0.06	299387	keystroke_e	e	n/a
149.8285	0.0605	299657	keystroke_l	l	n/a
150.0085	0.09	300017	keystroke_l	l	n/a
150.129	0.0895	300258	keystroke_s	s	n/a
150.2785	0.105	300557	keystroke_Key.space	Key.space	n/a
150.579	0.074	301158	keystroke_o	o	n/a
150.758	0.075	301516	keystroke_v	v	n/a
150.9685	0.045	301937	keystroke_e	e	n/a
151.4185	0.045	302837	keystroke_Key.backspace	Key.backspace	n/a
151.6285	0.09	303257	keystroke_Key.backspace	Key.backspace	n/a
151.7785	0.09	303557	keystroke_f	f	n/a
152.0335	0.09	304067	keystroke_f	f	n/a
152.2285	0.06	304457	keystroke_e	e	n/a
152.3035	0.09	304607	keystroke_r	r	n/a
152.5435	0.0745	305087	keystroke_s	s	n/a
152.649	0.12	305298	keystroke_Key.space	Key.space	n/a
152.993	0.061	305986	keystroke_t	t	n/a
153.083	0.121	306166	keystroke_e	e	n/a
153.294	0.0445	306588	keystroke_a	a	n/a
153.4885	0.075	306977	keystroke_c	c	n/a
153.6695	0.059	307339	keystroke_h	h	n/a
153.8785	0.075	307757	keystroke_e	e	n/a
154.0885	0.09	308177	keystroke_s	s	n/a
154.224	0.1045	308448	keystroke_Key.space	Key.space	n/a
154.5085	0.0905	309017	keystroke_p	p	n/a
155.093	0.0755	310186	keystroke_u	u	n/a
155.4085	0.0905	310817	keystroke_b	b	n/a
155.5435	0.09	311087	keystroke_l	l	n/a
155.7385	0.0905	311477	keystroke_i	i	n/a
155.8885	0.09	311777	keystroke_s	s	n/a
156.0535	0.0755	312107	keystroke_h	h	n/a
156.219	0.0745	312438	keystroke_e	e	n/a
156.3685	0.075	312737	keystroke_r	r	n/a
157.223	0.0605	314446	keystroke_Key.enter	Key.enter	n/a
157.2895	8.7255	314579	prompt	n/a	drop hugo tenant outline\n
157.9585	0.075	315917	keystroke_d	d	n/a
158.1535	0.045	316307	keystroke_e	e	n/a
158.2735	0.105	316547	keystroke_o	o	n/a
158.5735	0.075	317147	keystroke_p	p	n/a
159.0085	0.045	318017	keystroke_Key.backspace	Key.backspace	n/a
159.2035	0.06	318407	keystroke_Key.backspace	Key.backspace	n/a
159.398	0.075	318796	keystroke_Key.backspace	Key.backspace	n/a
159.5485	0.0745	319097	keystroke_r	r	n/a
159.668	0.105	319336	keystroke_o	o	n/a
159.879	0.0895	319758	keystroke_p	p	n/a
160.118	0.105	320236	keystroke_Key.space	Key.space	n/a
160.389	0.06	320778	keystroke_h	h	n/a
160.614	0.06	321228	keystroke_u	u	n/a
160.974	0.09	321948	keystroke_g	g	n/a
161.169	0.075	322338	keystroke_o	o	n/a
161.3635	0.1045	322727	keystroke_Key.space	Key.space	n/a
162.0835	0.075	324167	keystroke_t	t	n/a
162.219	0.09	324438	keystroke_e	e	n/a
162.473	0.06	324946	keystroke_n	n	n/a
163.133	0.0755	326266	keystroke_a	a	n/a
163.239	0.075	326478	keystroke_n	n	n/a
163.4185	0.075	326837	keystroke_t	t	n/a
163.6885	0.0895	327377	keystroke_Key.space	Key.space	n/a
163.899	0.075	327798	keystroke_o	o	n/a
164.1085	0.0605	328217	keystroke_u	u	n/a
164.2885	0.0745	328577	keystroke_t	t	n/a
164.5135	0.075	329027	keystroke_l	l	n/a
164.678	0.09	329356	keystroke_i	i	n/a
164.8735	0.09	329747	keystroke_n	n	n/a
164.9785	0.06	329957	keystroke_e	e	n/a
165.938	0.0755	331876	keystroke_Key.enter	Key.enter	n/a
166.02	10.5885	332040	prompt	n/a	senator influenced booking apnic\n
166.869	0.089	333738	keystroke_s	s	n/a
167.0785	0.0755	334157	keystroke_e	e	n/a
167.198	0.075	334396	keystroke_n	n	n/a
167.4085	0.09	334817	keystroke_a	a	n/a
167.784	0.074	335568	keystroke_t	t	n/a
167.9785	0.0745	335957	keystroke_o	o	n/a
168.069	0.074	336138	keystroke_r	r	n/a
168.2635	0.09	336527	keystroke_Key.space	Key.space	n/a
168.4735	0.075	336947	keystroke_i	i	n/a
168.6545	0.074	337309	keystroke_n	n	n/a
168.894	0.0895	337788	keystroke_f	f	n/a
169.059	0.105	338118	keystroke_l	l	n/a
169.343	0.0605	338686	keystroke_u	u	n/a
169.779	0.0745	339558	keystroke_e	e	n/a
169.9135	0.0755	339827	keystroke_n	n	n/a
170.3035	0.0605	340607	keystroke_c	c	n/a
170.5145	0.0745	341029	keystroke_e	e	n/a
170.724	0.075	341448	keystroke_d	d	n/a
170.8135	0.12	341627	keystroke_Key.space	Key.space	n/a
171.1135	0.075	342227	keystroke_b	b	n/a
171.2485	0.0745	342497	keystroke_o	o	n/a
171.429	0.105	342858	keystroke_o	o	n/a
171.654	0.09	343308	keystroke_k	k	n/a
171.864	0.0745	343728	keystroke_i	i	n/a
172.014	0.09	344028	keystroke_n	n	n/a
172.028	0.091	344056	keystroke_g	g	n/a
172.224	0.119	344448	keystroke_Key.space	Key.space	n/a
172.673	0.091	345346	keystroke_a	a	n/a
172.808	0.121	345616	keystroke_p	p	n/a
173.378	0.09	346756	keystroke_n	n	n/a
173.5885	0.0595	347177	keystroke_i	i	n/a
173.693	0.06	347386	keystroke_c	c	n/a
176.6055	0.001	353211	keystroke_Key.enter	Key.enter	n/a
176.612	8.093	353224	prompt	n/a	panels bureau randy spirits\n
177.429	0.1195	354858	keystroke_p	p	n/a
177.6085	0.105	355217	keystroke_a	a	n/a
177.7585	0.075	355517	keystroke_n	n	n/a
178.0585	0.075	356117	keystroke_e	e	n/a
178.2385	0.0755	356477	keystroke_l	l	n/a
178.404	0.0755	356808	keystroke_s	s	n/a
178.5385	0.1205	357077	keystroke_Key.space	Key.space	n/a
179.049	0.0595	358098	keystroke_b	b	n/a
179.2135	0.06	358427	keystroke_u	u	n/a
179.3485	0.09	358697	keystroke_r	r	n/a
179.7085	0.09	359417	keystroke_e	e	n/a
179.9185	0.075	359837	keystroke_a	a	n/a
180.2785	0.0605	360557	keystroke_u	u	n/a
180.6535	0.1045	361307	keystroke_Key.space	Key.space	n/a
180.9535	0.0745	361907	keystroke_r	r	n/a
181.103	0.106	362206	keystroke_a	a	n/a
181.223	0.0605	362446	keystroke_n	n	n/a
181.419	0.06	362838	keystroke_d	d	n/a
181.644	0.06	363288	keystroke_y	y	n/a
181.884	0.089	363768	keystroke_Key.space	Key.space	n/a
182.034	0.104	364068	keystroke_s	s	n/a
182.168	0.106	364336	keystroke_p	p	n/a
182.378	0.09	364756	keystroke_i	i	n/a
182.588	0.0755	365176	keystroke_r	r	n/a
182.9485	0.0755	365897	keystroke_i	i	n/a
183.1445	0.0745	366289	keystroke_t	t	n/a
183.369	0.0745	366738	keystroke_s	s	n/a
184.643	0.061	369286	keystroke_Key.enter	Key.enter	n/a
184.711	14.548	369422	prompt	n/a	tongue responsibility butter they've\n
185.634	0.0745	371268	keystroke_t	t	n/a
185.7385	0.09	371477	keystroke_o	o	n/a
185.874	0.105	371748	keystroke_n	n	n/a
186.129	0.06	372258	keystroke_g	g	n/a
186.234	0.06	372468	keystroke_u	u	n/a
186.399	0.06	372798	keystroke_e	e	n/a
186.564	0.105	373128	keystroke_Key.space	Key.space	n/a
186.909	0.075	373818	keystroke_r	r	n/a
186.999	0.09	373998	keystroke_e	e	n/a
187.254	0.075	374508	keystroke_s	s	n/a
187.4185	0.1355	374837	keystroke_p	p	n/a
187.6435	0.12	375287	keystroke_o	o	n/a
187.8085	0.105	375617	keystroke_n	n	n/a
188.0335	0.0905	376067	keystroke_s	s	n/a
188.2435	0.09	376487	keystroke_i	i	n/a
188.5135	0.075	377027	keystroke_b	b	n/a
188.6935	0.105	377387	keystroke_i	i	n/a
188.919	0.075	377838	keystroke_l	l	n/a
189.024	0.1495	378048	keystroke_i	i	n/a
189.263	0.076	378526	keystroke_t	t	n/a
189.3985	0.0445	378797	keystroke_y	y	n/a
189.879	0.059	379758	keystroke_Key.space	Key.space	n/a
190.2685	0.075	380537	keystroke_b	b	n/a
190.404	0.06	380808	keystroke_u	u	n/a
190.644	0.0745	381288	keystroke_t	t	n/a
190.824	0.0745	381648	keystroke_t	t	n/a
191.0035	0.0605	382007	keystroke_e	e	n/a
191.079	0.075	382158	keystroke_r	r	n/a
191.2135	0.135	382427	keystroke_Key.space	Key.space	n/a
191.4235	0.0595	382847	keystroke_t	t	n/a
191.5285	0.0745	383057	keystroke_h	h	n/a
191.649	0.0595	383298	keystroke_e	e	n/a
191.859	0.0295	383718	keystroke_y	y	n/a
192.398	0.1205	384796	keystroke_'	'	n/a
192.533	0.09	385066	keystroke_r	r	n/a
192.609	0.074	385218	keystroke_e	e	n/a
193.9435	0.075	387887	keystroke_Key.backspace	Key.backspace	n/a
194.154	0.06	388308	keystroke_Key.backspace	Key.backspace	n/a
194.349	0.06	388698	keystroke_v	v	n/a
194.544	0.06	389088	keystroke_e	e	n/a
199.256	0.001	398512	keystroke_Key.enter	Key.enter	n/a
199.264	12.5615	398528	prompt	n/a	immigrants conferencing gabriel nationally\n
200.214	0.09	400428	keystroke_i	i	n/a
200.394	0.075	400788	keystroke_m	m	n/a
200.649	0.12	401298	keystroke_m	m	n/a
201.0245	0.075	402049	keystroke_i	i	n/a
201.3385	0.075	402677	keystroke_g	g	n/a
201.534	0.0895	403068	keystroke_r	r	n/a
201.6985	0.105	403397	keystroke_a	a	n/a
201.7885	0.06	403577	keystroke_n	n	n/a
202.059	0.09	404118	keystroke_t	t	n/a
202.2685	0.0755	404537	keystroke_s	s	n/a
202.358	0.1055	404716	keystroke_Key.space	Key.space	n/a
202.6285	0.0455	405257	keystroke_c	c	n/a
202.749	0.09	405498	keystroke_o	o	n/a
202.899	0.105	405798	keystroke_n	n	n/a
203.454	0.0745	406908	keystroke_f	f	n/a
203.6185	0.0755	407237	keystroke_e	e	n/a
203.6945	0.0745	407389	keystroke_r	r	n/a
204.009	0.06	408018	keystroke_e	e	n/a
204.189	0.06	408378	keystroke_n	n	n/a
204.354	0.075	408708	keystroke_c	c	n/a
204.594	0.075	409188	keystroke_i	i	n/a
204.759	0.09	409518	keystroke_n	n	n/a
204.879	0.075	409758	keystroke_g	g	n/a
205.0285	0.12	410057	keystroke_Key.space	Key.space	n/a
205.7645	0.0745	411529	keystroke_g	g	n/a
205.899	0.104	411798	keystroke_a	a	n/a
206.288	0.075	412576	keystroke_b	b	n/a
206.528	0.076	413056	keystroke_r	r	n/a
206.769	0.075	413538	keystroke_i	i	n/a
207.143	0.076	414286	keystroke_e	e	n/a
207.338	0.0755	414676	keystroke_l	l	n/a
207.5635	0.09	415127	keystroke_Key.space	Key.space	n/a
207.849	0.075	415698	keystroke_n	n	n/a
207.984	0.104	415968	keystroke_a	a	n/a
208.2085	0.0755	416417	keystroke_t	t	n/a
208.328	0.0905	416656	keystroke_i	i	n/a
208.404	0.1345	416808	keystroke_o	o	n/a
208.613	0.09	417226	keystroke_n	n	n/a
209.124	0.105	418248	keystroke_a	a	n/a
209.468	0.09	418936	keystroke_l	l	n/a
209.663	0.09	419326	keystroke_l	l	n/a
209.918	0.061	419836	keystroke_y	y	n/a
211.763	0.0605	423526	keystroke_Key.enter	Key.enter	n/a
211.83	7.03	423660	prompt	n/a	dennis bosnia tackle terms\n
212.799	0.06	425598	keystroke_d	d	n/a
212.979	0.0605	425958	keystroke_e	e	n/a
213.0985	0.0605	426197	keystroke_n	n	n/a
213.3085	0.1205	426617	keystroke_n	n	n/a
213.579	0.06	427158	keystroke_i	i	n/a
213.669	0.075	427338	keystroke_s	s	n/a
213.819	0.075	427638	keystroke_Key.space	Key.space	n/a
214.149	0.075	428298	keystroke_b	b	n/a
214.2995	0.0895	428599	keystroke_o	o	n/a
215.124	0.09	430248	keystroke_s	s	n/a
215.304	0.0895	430608	keystroke_n	n	n/a
215.5135	0.06	431027	keystroke_i	i	n/a
215.6945	0.074	431389	keystroke_a	a	n/a
215.8735	0.075	431747	keystroke_Key.space	Key.space	n/a
216.324	0.075	432648	keystroke_t	t	n/a
216.489	0.0895	432978	keystroke_a	a	n/a
216.7285	0.075	433457	keystroke_c	c	n/a
216.8795	0.0585	433759	keystroke_k	k	n/a
217.2085	0.075	434417	keystroke_l	l	n/a
217.3585	0.0755	434717	keystroke_e	e	n/a
217.539	0.089	435078	keystroke_Key.space	Key.space	n/a
217.869	0.06	435738	keystroke_t	t	n/a
217.989	0.105	435978	keystroke_e	e	n/a
218.0795	0.0745	436159	keystroke_r	r	n/a
218.199	0.06	436398	keystroke_m	m	n/a
218.394	0.09	436788	keystroke_s	s	n/a
218.7985	0.06	437597	keystroke_Key.enter	Key.enter	n/a
218.8635	9.8665	437727	prompt	n/a	post semester zoloft sing\n
219.549	0.09	439098	keystroke_p	p	n/a
219.744	0.09	439488	keystroke_o	o	n/a
219.924	0.075	439848	keystroke_s	s	n/a
220.059	0.075	440118	keystroke_t	t	n/a
220.194	0.09	440388	keystroke_Key.space	Key.space	n/a
220.449	0.09	440898	keystroke_s	s	n/a
220.629	0.09	441258	keystroke_e	e	n/a
220.824	0.06	441648	keystroke_m	m	n/a
220.989	0.09	441978	keystroke_e	e	n/a
221.379	0.09	442758	keystroke_s	s	n/a
221.574	0.075	443148	keystroke_t	t	n/a
221.739	0.074	443478	keystroke_e	e	n/a
221.829	0.075	443658	keystroke_r	r	n/a
222.354	0.104	444708	keystroke_Key.space	Key.space	n/a
223.029	0.074	446058	keystroke_y	y	n/a
223.2685	0.0905	446537	keystroke_o	o	n/a
223.9135	0.06	447827	keystroke_Key.backspace	Key.backspace	n/a
224.109	0.0745	448218	keystroke_Key.backspace	Key.backspace	n/a
224.7235	0.105	449447	keystroke_z	z	n/a
224.9935	0.0605	449987	keystroke_o	o	n/a
225.3685	0.0905	450737	keystroke_l	l	n/a
225.6535	0.06	451307	keystroke_o	o	n/a
226.0435	0.0905	452087	keystroke_f	f	n/a
226.254	0.075	452508	keystroke_t	t	n/a
226.4485	0.12	452897	keystroke_Key.space	Key.space	n/a
226.6885	0.105	453377	keystroke_s	s	n/a
226.794	0.059	453588	keystroke_i	i	n/a
226.9585	0.075	453917	keystroke_n	n	n/a
227.1385	0.06	454277	keystroke_g	g	n/a
228.6685	0.06	457337	keystroke_Key.enter	Key.enter	n/a
228.734	17.636	457468	prompt	n/a	greene banners michelle purchasing\n
230.004	0.0895	460008	keystroke_g	g	n/a
230.229	0.089	460458	keystroke_r	r	n/a
230.5435	0.06	461087	keystroke_e	e	n/a
230.7385	0.045	461477	keystroke_e	e	n/a
230.8885	0.06	461777	keystroke_n	n	n/a
231.339	0.075	462678	keystroke_e	e	n/a
231.594	0.09	463188	keystroke_Key.space	Key.space	n/a
232.028	0.06	464056	keystroke_b	b	n/a
232.224	0.0905	464448	keystroke_a	a	n/a
232.4485	0.06	464897	keystroke_n	n	n/a
232.6285	0.0745	465257	keystroke_n	n	n/a
232.8535	0.045	465707	keystroke_e	e	n/a
232.9285	0.09	465857	keystroke_r	r	n/a
233.1985	0.09	466397	keystroke_s	s	n/a
233.423	0.105	466846	keystroke_Key.space	Key.space	n/a
233.7685	0.075	467537	keystroke_m	m	n/a
234.0235	0.105	468047	keystroke_i	i	n/a
234.399	0.0905	468798	keystroke_s	s	n/a
234.7585	0.075	469517	keystroke_h	h	n/a
234.984	0.0745	469968	keystroke_c	c	n/a
235.4485	0.06	470897	keystroke_e	e	n/a
235.7185	0.075	471437	keystroke_l	l	n/a
235.884	0.075	471768	keystroke_l	l	n/a
236.169	0.0595	472338	keystroke_e	e	n/a
236.3635	0.1045	472727	keystroke_Key.space	Key.space	n/a
236.619	0.0895	473238	keystroke_p	p	n/a
236.8135	0.075	473627	keystroke_u	u	n/a
237.3685	0.075	474737	keystroke_Key.backspace	Key.backspace	n/a
237.563	0.06	475126	keystroke_Key.backspace	Key.backspace	n/a
237.743	0.06	475486	keystroke_Key.backspace	Key.backspace	n/a
237.938	0.045	475876	keystroke_Key.backspace	Key.backspace	n/a
238.5835	0.075	477167	keystroke_Key.backspace	Key.backspace	n/a
238.7935	0.075	477587	keystroke_Key.backspace	Key.backspace	n/a
238.9885	0.06	477977	keystroke_Key.backspace	Key.backspace	n/a
239.1535	0.09	478307	keystroke_Key.backspace	Key.backspace	n/a
239.3775	0.076	478755	keystroke_Key.backspace	Key.backspace	n/a
239.588	0.0745	479176	keystroke_Key.backspace	Key.backspace	n/a
239.8285	0.075	479657	keystroke_c	c	n/a
239.9635	0.075	479927	keystroke_h	h	n/a
240.2185	0.06	480437	keystroke_e	e	n/a
240.398	0.061	480796	keystroke_l	l	n/a
240.579	0.09	481158	keystroke_l	l	n/a
240.908	0.076	481816	keystroke_e	e	n/a
241.1475	0.091	482295	keystroke_Key.space	Key.space	n/a
241.854	0.089	483708	keystroke_p	p	n/a
242.018	0.076	484036	keystroke_u	u	n/a
242.124	0.074	484248	keystroke_r	r	n/a
242.544	0.06	485088	keystroke_c	c	n/a
242.708	0.06	485416	keystroke_h	h	n/a
242.903	0.091	485806	keystroke_a	a	n/a
243.5935	0.09	487187	keystroke_s	s	n/a
243.7135	0.105	487427	keystroke_i	i	n/a
243.8935	0.09	487787	keystroke_n	n	n/a
244.029	0.0595	488058	keystroke_g	g	n/a
246.355	0.013	492710	keystroke_Key.enter	Key.enter	n/a
246.374	10.016	492748	prompt	n/a	weapon resistant bios anaheim\n
247.314	0.089	494628	keystroke_w	w	n/a
247.508	0.0605	495016	keystroke_e	e	n/a
247.6285	0.0745	495257	keystroke_a	a	n/a
247.8685	0.1045	495737	keystroke_p	p	n/a
248.079	0.105	496158	keystroke_o	o	n/a
248.274	0.074	496548	keystroke_n	n	n/a
248.588	0.0615	497176	keystroke_e	e	n/a
249.053	0.075	498106	keystroke_Key.backspace	Key.backspace	n/a
249.2785	0.075	498557	keystroke_Key.space	Key.space	n/a
250.1485	0.06	500297	keystroke_r	r	n/a
250.2235	0.075	500447	keystroke_e	e	n/a
250.4485	0.09	500897	keystroke_s	s	n/a
250.6445	0.059	501289	keystroke_i	i	n/a
250.7635	0.105	501527	keystroke_s	s	n/a
250.958	0.091	501916	keystroke_t	t	n/a
251.154	0.089	502308	keystroke_a	a	n/a
251.333	0.061	502666	keystroke_n	n	n/a
251.8735	0.06	503747	keystroke_t	t	n/a
252.0385	0.12	504077	keystroke_Key.space	Key.space	n/a
252.2935	0.075	504587	keystroke_b	b	n/a
252.4135	0.09	504827	keystroke_i	i	n/a
252.5785	0.105	505157	keystroke_o	o	n/a
252.8785	0.09	505757	keystroke_s	s	n/a
253.1035	0.105	506207	keystroke_Key.space	Key.space	n/a
253.5385	0.105	507077	keystroke_a	a	n/a
253.6885	0.075	507377	keystroke_n	n	n/a
253.8385	0.105	507677	keystroke_a	a	n/a
254.2885	0.06	508577	keystroke_h	h	n/a
254.4685	0.09	508937	keystroke_e	e	n/a
254.7085	0.0755	509417	keystroke_i	i	n/a
254.9785	0.09	509957	keystroke_m	m	n/a
256.313	0.075	512626	keystroke_Key.enter	Key.enter	n/a
256.3945	10.0005	512789	prompt	n/a	frog enhancements seat connect\n
257.2885	0.0595	514577	keystroke_f	f	n/a
257.469	0.074	514938	keystroke_r	r	n/a
257.528	0.075	515056	keystroke_o	o	n/a
257.9635	0.0605	515927	keystroke_n	n	n/a
258.128	0.0605	516256	keystroke_g	g	n/a
258.3835	0.06	516767	keystroke_Key.backspace	Key.backspace	n/a
258.5935	0.06	517187	keystroke_Key.backspace	Key.backspace	n/a
258.684	0.0595	517368	keystroke_g	g	n/a
258.8485	0.0455	517697	keystroke_n	n	n/a
259.3135	0.075	518627	keystroke_Key.backspace	Key.backspace	n/a
259.4935	0.06	518987	keystroke_Key.space	Key.space	n/a
260.004	0.074	520008	keystroke_e	e	n/a
260.093	0.075	520186	keystroke_n	n	n/a
260.603	0.045	521206	keystroke_h	h	n/a
260.7085	0.1055	521417	keystroke_a	a	n/a
260.873	0.06	521746	keystroke_n	n	n/a
261.203	0.0755	522406	keystroke_c	c	n/a
261.428	0.06	522856	keystroke_e	e	n/a
261.578	0.0755	523156	keystroke_m	m	n/a
261.7885	0.0745	523577	keystroke_e	e	n/a
261.878	0.045	523756	keystroke_n	n	n/a
262.058	0.0755	524116	keystroke_t	t	n/a
262.254	0.075	524508	keystroke_s	s	n/a
262.3735	0.105	524747	keystroke_Key.space	Key.space	n/a
262.6135	0.135	525227	keystroke_s	s	n/a
262.8985	0.12	525797	keystroke_e	e	n/a
263.0335	0.09	526067	keystroke_a	a	n/a
263.378	0.06	526756	keystroke_t	t	n/a
263.663	0.1355	527326	keystroke_Key.space	Key.space	n/a
263.9485	0.0455	527897	keystroke_c	c	n/a
264.039	0.089	528078	keystroke_o	o	n/a
264.218	0.0755	528436	keystroke_n	n	n/a
264.4585	0.0755	528917	keystroke_n	n	n/a
264.654	0.0745	529308	keystroke_e	e	n/a
264.8485	0.075	529697	keystroke_c	c	n/a
265.0435	0.06	530087	keystroke_t	t	n/a
266.3185	0.0745	532637	keystroke_Key.enter	Key.enter	n/a
266.3985	10.47	532797	prompt	n/a	explains preventing venice conceptual\n
267.219	0.074	534438	keystroke_e	e	n/a
267.4285	0.075	534857	keystroke_x	x	n/a
267.5785	0.1045	535157	keystroke_p	p	n/a
267.8185	0.075	535637	keystroke_l	l	n/a
267.9535	0.105	535907	keystroke_a	a	n/a
268.1185	0.06	536237	keystroke_i	i	n/a
268.2835	0.09	536567	keystroke_n	n	n/a
268.4785	0.09	536957	keystroke_s	s	n/a
268.6735	0.09	537347	keystroke_Key.space	Key.space	n/a
269.1685	0.105	538337	keystroke_p	p	n/a
269.274	0.09	538548	keystroke_r	r	n/a
269.349	0.089	538698	keystroke_e	e	n/a
269.768	0.075	539536	keystroke_v	v	n/a
269.9635	0.0605	539927	keystroke_e	e	n/a
270.084	0.06	540168	keystroke_n	n	n/a
270.294	0.06	540588	keystroke_t	t	n/a
270.474	0.074	540948	keystroke_i	i	n/a
270.623	0.09	541246	keystroke_n	n	n/a
270.7285	0.0745	541457	keystroke_g	g	n/a
270.8785	0.105	541757	keystroke_Key.space	Key.space	n/a
271.1635	0.075	542327	keystroke_v	v	n/a
271.358	0.06	542716	keystroke_e	e	n/a
271.5535	0.09	543107	keystroke_n	n	n/a
271.8085	0.09	543617	keystroke_i	i	n/a
272.1535	0.06	544307	keystroke_c	c	n/a
272.3485	0.06	544697	keystroke_e	e	n/a
272.4385	0.12	544877	keystroke_Key.space	Key.space	n/a
272.769	0.0595	545538	keystroke_c	c	n/a
272.858	0.1055	545716	keystroke_o	o	n/a
273.038	0.09	546076	keystroke_n	n	n/a
273.5035	0.06	547007	keystroke_c	c	n/a
273.6985	0.06	547397	keystroke_e	e	n/a
273.8335	0.105	547667	keystroke_p	p	n/a
274.0735	0.0745	548147	keystroke_t	t	n/a
274.404	0.059	548808	keystroke_u	u	n/a
274.568	0.09	549136	keystroke_a	a	n/a
274.6885	0.09	549377	keystroke_l	l	n/a
276.865	0.001	553730	keystroke_Key.enter	Key.enter	n/a
276.8725	6.3375	553745	prompt	n/a	word ross savage navy\n
277.613	0.075	555226	keystroke_w	w	n/a
277.7335	0.0745	555467	keystroke_o	o	n/a
277.838	0.0755	555676	keystroke_r	r	n/a
278.078	0.0605	556156	keystroke_d	d	n/a
278.258	0.09	556516	keystroke_Key.space	Key.space	n/a
278.499	0.059	556998	keystroke_r	r	n/a
278.633	0.09	557266	keystroke_o	o	n/a
278.8585	0.0745	557717	keystroke_s	s	n/a
279.024	0.089	558048	keystroke_s	s	n/a
279.1285	0.1045	558257	keystroke_Key.space	Key.space	n/a
279.4585	0.0895	558917	keystroke_s	s	n/a
279.6535	0.0595	559307	keystroke_a	a	n/a
279.803	0.076	559606	keystroke_v	v	n/a
280.1185	0.0895	560237	keystroke_a	a	n/a
280.3435	0.0745	560687	keystroke_g	g	n/a
280.4935	0.0595	560987	keystroke_e	e	n/a
280.688	0.075	561376	keystroke_Key.space	Key.space	n/a
280.883	0.0755	561766	keystroke_n	n	n/a
281.018	0.1055	562036	keystroke_a	a	n/a
281.363	0.0605	562726	keystroke_v	v	n/a
281.5435	0.045	563087	keystroke_y	y	n/a
283.1475	0.0605	566295	keystroke_Key.enter	Key.enter	n/a
283.2145	8.2905	566429	prompt	n/a	checklist address caps somewhat\n
284.0335	0.06	568067	keystroke_c	c	n/a
284.1675	0.0455	568335	keystroke_h	h	n/a
284.3025	0.0615	568605	keystroke_e	e	n/a
284.5135	0.0605	569027	keystroke_c	c	n/a
284.664	0.074	569328	keystroke_k	k	n/a
284.993	0.09	569986	keystroke_l	l	n/a
285.158	0.091	570316	keystroke_i	i	n/a
285.338	0.075	570676	keystroke_s	s	n/a
285.504	0.075	571008	keystroke_t	t	n/a
285.5935	0.1045	571187	keystroke_Key.space	Key.space	n/a
285.863	0.075	571726	keystroke_a	a	n/a
286.0885	0.0595	572177	keystroke_d	d	n/a
286.253	0.09	572506	keystroke_d	d	n/a
286.4935	0.075	572987	keystroke_r	r	n/a
286.5835	0.09	573167	keystroke_e	e	n/a
286.8525	0.061	573705	keystroke_s	s	n/a
287.0185	0.075	574037	keystroke_s	s	n/a
287.1835	0.074	574367	keystroke_Key.space	Key.space	n/a
287.483	0.06	574966	keystroke_c	c	n/a
287.618	0.0895	575236	keystroke_a	a	n/a
287.768	0.1055	575536	keystroke_p	p	n/a
287.9935	0.075	575987	keystroke_s	s	n/a
288.1875	0.09	576375	keystroke_Key.space	Key.space	n/a
288.653	0.1055	577306	keystroke_s	s	n/a
288.788	0.1205	577576	keystroke_o	o	n/a
288.984	0.1045	577968	keystroke_m	m	n/a
289.208	0.0155	578416	keystroke_w	w	n/a
289.7935	0.06	579587	keystroke_Key.backspace	Key.backspace	n/a
289.9135	0.0605	579827	keystroke_e	e	n/a
290.1985	0.105	580397	keystroke_w	w	n/a
290.438	0.06	580876	keystroke_h	h	n/a
290.528	0.12	581056	keystroke_a	a	n/a
290.738	0.0755	581476	keystroke_t	t	n/a
291.443	0.06	582886	keystroke_Key.enter	Key.enter	n/a
291.512	11.2575	583024	prompt	n/a	workshop diagnosis renaissance miles\n
292.238	0.0605	584476	keystroke_w	w	n/a
292.3735	0.075	584747	keystroke_o	o	n/a
292.5085	0.075	585017	keystroke_r	r	n/a
292.958	0.091	585916	keystroke_k	k	n/a
293.408	0.105	586816	keystroke_s	s	n/a
293.603	0.06	587206	keystroke_h	h	n/a
293.8285	0.0895	587657	keystroke_o	o	n/a
294.0535	0.06	588107	keystroke_p	p	n/a
294.353	0.1055	588706	keystroke_Key.space	Key.space	n/a
294.669	0.0595	589338	keystroke_d	d	n/a
294.773	0.075	589546	keystroke_i	i	n/a
294.9535	0.0745	589907	keystroke_a	a	n/a
295.178	0.075	590356	keystroke_g	g	n/a
295.449	0.0595	590898	keystroke_n	n	n/a
295.674	0.0895	591348	keystroke_o	o	n/a
295.8535	0.105	591707	keystroke_s	s	n/a
296.0185	0.075	592037	keystroke_i	i	n/a
296.1235	0.105	592247	keystroke_s	s	n/a
296.438	0.09	592876	keystroke_Key.space	Key.space	n/a
296.798	0.1205	593596	keystroke_r	r	n/a
297.0835	0.09	594167	keystroke_e	e	n/a
297.3685	0.059	594737	keystroke_n	n	n/a
297.6085	0.105	595217	keystroke_a	a	n/a
297.8485	0.075	595697	keystroke_i	i	n/a
298.0435	0.09	596087	keystroke_s	s	n/a
298.5235	0.12	597047	keystroke_s	s	n/a
298.8085	0.075	597617	keystroke_a	a	n/a
298.9285	0.09	597857	keystroke_n	n	n/a
299.228	0.046	598456	keystroke_c	c	n/a
299.4085	0.06	598817	keystroke_e	e	n/a
299.6635	0.105	599327	keystroke_Key.space	Key.space	n/a
299.9485	0.09	599897	keystroke_m	m	n/a
300.1585	0.089	600317	keystroke_i	i	n/a
300.368	0.0755	600736	keystroke_l	l	n/a
300.5175	0.091	601035	keystroke_e	e	n/a
300.7135	0.075	601427	keystroke_s	s	n/a
302.6935	0.075	605387	keystroke_Key.enter	Key.enter	n/a
302.7735	10.091	605547	prompt	n/a	concerns helmet test thailand\n
303.6835	0.0745	607367	keystroke_c	c	n/a
303.803	0.09	607606	keystroke_o	o	n/a
303.968	0.076	607936	keystroke_n	n	n/a
304.268	0.075	608536	keystroke_c	c	n/a
304.449	0.0895	608898	keystroke_e	e	n/a
304.6145	0.089	609229	keystroke_r	r	n/a
304.8535	0.06	609707	keystroke_m	m	n/a
305.3485	0.0745	610697	keystroke_Key.backspace	Key.backspace	n/a
305.573	0.075	611146	keystroke_n	n	n/a
305.6935	0.09	611387	keystroke_s	s	n/a
305.918	0.076	611836	keystroke_Key.space	Key.space	n/a
306.593	0.061	613186	keystroke_h	h	n/a
306.729	0.06	613458	keystroke_e	e	n/a
306.863	0.105	613726	keystroke_l	l	n/a
307.178	0.09	614356	keystroke_m	m	n/a
307.628	0.0755	615256	keystroke_e	e	n/a
307.8235	0.0745	615647	keystroke_t	t	n/a
307.973	0.09	615946	keystroke_Key.space	Key.space	n/a
308.2885	0.1195	616577	keystroke_t	t	n/a
308.5285	0.105	617057	keystroke_e	e	n/a
308.7385	0.09	617477	keystroke_s	s	n/a
308.9035	0.075	617807	keystroke_t	t	n/a
309.0535	0.12	618107	keystroke_Key.space	Key.space	n/a
309.953	0.0755	619906	keystroke_t	t	n/a
310.1035	0.06	620207	keystroke_h	h	n/a
310.3285	0.105	620657	keystroke_a	a	n/a
310.5685	0.075	621137	keystroke_i	i	n/a
311.018	0.091	622036	keystroke_l	l	n/a
311.468	0.075	622936	keystroke_a	a	n/a
311.604	0.059	623208	keystroke_n	n	n/a
311.723	0.076	623446	keystroke_d	d	n/a
312.7885	0.075	625577	keystroke_Key.enter	Key.enter	n/a
312.868	8.892	625736	prompt	n/a	psychology fairy circular mats\n
313.9285	0.075	627857	keystroke_s	s	n/a
314.4535	0.09	628907	keystroke_Key.backspace	Key.backspace	n/a
314.694	0.1195	629388	keystroke_p	p	n/a
314.9035	0.09	629807	keystroke_s	s	n/a
315.1135	0.06	630227	keystroke_y	y	n/a
315.683	0.06	631366	keystroke_c	c	n/a
315.8335	0.0595	631667	keystroke_h	h	n/a
316.043	0.06	632086	keystroke_o	o	n/a
316.298	0.091	632596	keystroke_l	l	n/a
316.524	0.089	633048	keystroke_o	o	n/a
316.748	0.06	633496	keystroke_g	g	n/a
316.914	0.06	633828	keystroke_y	y	n/a
317.198	0.06	634396	keystroke_Key.space	Key.space	n/a
317.4085	0.09	634817	keystroke_f	f	n/a
317.559	0.12	635118	keystroke_a	a	n/a
317.708	0.1055	635416	keystroke_i	i	n/a
317.9785	0.075	635957	keystroke_r	r	n/a
318.3235	0.06	636647	keystroke_y	y	n/a
318.5785	0.089	637157	keystroke_Key.space	Key.space	n/a
318.864	0.0595	637728	keystroke_c	c	n/a
318.969	0.075	637938	keystroke_i	i	n/a
319.1335	0.06	638267	keystroke_r	r	n/a
319.374	0.0745	638748	keystroke_c	c	n/a
319.5235	0.06	639047	keystroke_u	u	n/a
319.734	0.075	639468	keystroke_l	l	n/a
319.9135	0.09	639827	keystroke_a	a	n/a
320.0635	0.075	640127	keystroke_r	r	n/a
320.2135	0.074	640427	keystroke_Key.space	Key.space	n/a
320.3935	0.0905	640787	keystroke_m	m	n/a
320.5435	0.105	641087	keystroke_a	a	n/a
320.7235	0.075	641447	keystroke_t	t	n/a
321.249	0.075	642498	keystroke_s	s	n/a
321.683	0.075	643366	keystroke_Key.enter	Key.enter	n/a
321.7645	11.1405	643529	prompt	n/a	affair you'll arena unexpected\n
322.7935	0.135	645587	keystroke_a	a	n/a
323.1685	0.0755	646337	keystroke_f	f	n/a
323.3635	0.0745	646727	keystroke_f	f	n/a
323.6485	0.0755	647297	keystroke_a	a	n/a
323.844	0.075	647688	keystroke_i	i	n/a
324.1435	0.06	648287	keystroke_r	r	n/a
324.3235	0.074	648647	keystroke_Key.space	Key.space	n/a
324.743	0.045	649486	keystroke_y	y	n/a
324.863	0.091	649726	keystroke_o	o	n/a
324.9835	0.09	649967	keystroke_u	u	n/a
325.2235	0.105	650447	keystroke_'	'	n/a
325.673	0.09	651346	keystroke_l	l	n/a
325.868	0.09	651736	keystroke_l	l	n/a
326.0635	0.1045	652127	keystroke_Key.space	Key.space	n/a
326.318	0.09	652636	keystroke_a	a	n/a
326.5585	0.075	653117	keystroke_r	r	n/a
326.7235	0.09	653447	keystroke_e	e	n/a
326.9775	0.076	653955	keystroke_n	n	n/a
327.1885	0.075	654377	keystroke_e	e	n/a
327.6685	0.0595	655337	keystroke_Key.backspace	Key.backspace	n/a
327.773	0.105	655546	keystroke_a	a	n/a
327.923	0.1055	655846	keystroke_Key.space	Key.space	n/a
328.523	0.075	657046	keystroke_u	u	n/a
328.748	0.091	657496	keystroke_n	n	n/a
329.364	0.0745	658728	keystroke_e	e	n/a
329.5885	0.089	659177	keystroke_x	x	n/a
329.8435	0.105	659687	keystroke_p	p	n/a
330.219	0.0745	660438	keystroke_e	e	n/a
330.744	0.1195	661488	keystroke_c	c	n/a
331.0435	0.059	662087	keystroke_t	t	n/a
331.1925	0.076	662385	keystroke_e	e	n/a
331.388	0.06	662776	keystroke_d	d	n/a
332.8435	0.0595	665687	keystroke_Key.enter	Key.enter	n/a
332.91	11.335	665820	prompt	n/a	thai admissions practical wooden\n
333.8185	0.06	667637	keystroke_t	t	n/a
333.924	0.059	667848	keystroke_h	h	n/a
334.493	0.106	668986	keystroke_a	a	n/a
334.6735	0.075	669347	keystroke_i	i	n/a
335.0175	0.091	670035	keystroke_Key.space	Key.space	n/a
335.589	0.0895	671178	keystroke_a	a	n/a
335.798	0.0755	671596	keystroke_d	d	n/a
335.9625	0.076	671925	keystroke_m	m	n/a
336.1585	0.074	672317	keystroke_i	i	n/a
336.3535	0.059	672707	keystroke_s	s	n/a
336.5325	0.076	673065	keystroke_s	s	n/a
336.6535	0.09	673307	keystroke_i	i	n/a
336.7585	0.135	673517	keystroke_o	o	n/a
336.9535	0.09	673907	keystroke_n	n	n/a
337.0885	0.0895	674177	keystroke_s	s	n/a
337.2985	0.09	674597	keystroke_Key.space	Key.space	n/a
337.6135	0.1045	675227	keystroke_p	p	n/a
337.763	0.091	675526	keystroke_a	a	n/a
337.958	0.0755	675916	keystroke_r	r	n/a
338.378	0.045	676756	keystroke_Key.backspace	Key.backspace	n/a
338.558	0.09	677116	keystroke_Key.backspace	Key.backspace	n/a
338.6635	0.075	677327	keystroke_r	r	n/a
338.8585	0.045	677717	keystroke_q	q	n/a
338.8735	0.06	677747	keystroke_a	a	n/a
339.1725	0.06	678345	keystroke_c	c	n/a
339.5025	0.06	679005	keystroke_Key.backspace	Key.backspace	n/a
339.6975	0.06	679395	keystroke_Key.backspace	Key.backspace	n/a
339.8935	0.09	679787	keystroke_Key.backspace	Key.backspace	n/a
340.1185	0.1045	680237	keystroke_a	a	n/a
340.523	0.0605	681046	keystroke_c	c	n/a
340.7635	0.075	681527	keystroke_t	t	n/a
340.973	0.0755	681946	keystroke_i	i	n/a
341.183	0.0745	682366	keystroke_c	c	n/a
341.3335	0.105	682667	keystroke_a	a	n/a
341.5125	0.0765	683025	keystroke_l	l	n/a
341.7075	0.1055	683415	keystroke_Key.space	Key.space	n/a
341.9485	0.074	683897	keystroke_w	w	n/a
342.1285	0.0745	684257	keystroke_o	o	n/a
342.3225	0.076	684645	keystroke_o	o	n/a
342.5635	0.075	685127	keystroke_d	d	n/a
342.983	0.0605	685966	keystroke_e	e	n/a
343.0885	0.0595	686177	keystroke_n	n	n/a
344.1835	0.06	688367	keystroke_Key.enter	Key.enter	n/a
344.2585	8.341	688517	prompt	n/a	precisely congo territory reaching\n
345.128	0.105	690256	keystroke_p	p	n/a
345.279	0.0895	690558	keystroke_r	r	n/a
345.353	0.075	690706	keystroke_e	e	n/a
345.668	0.06	691336	keystroke_c	c	n/a
345.833	0.0755	691666	keystroke_i	i	n/a
346.013	0.075	692026	keystroke_s	s	n/a
346.5235	0.0745	693047	keystroke_e	e	n/a
346.764	0.075	693528	keystroke_l	l	n/a
347.063	0.0455	694126	keystroke_y	y	n/a
347.288	0.0905	694576	keystroke_Key.space	Key.space	n/a
347.5285	0.06	695057	keystroke_c	c	n/a
347.6335	0.105	695267	keystroke_o	o	n/a
347.9185	0.075	695837	keystroke_n	n	n/a
348.354	0.0745	696708	keystroke_g	g	n/a
348.4885	0.06	696977	keystroke_o	o	n/a
348.6985	0.0895	697397	keystroke_Key.space	Key.space	n/a
349.043	0.061	698086	keystroke_t	t	n/a
349.2085	0.0605	698417	keystroke_e	e	n/a
349.3135	0.06	698627	keystroke_r	r	n/a
349.5085	0.075	699017	keystroke_r	r	n/a
349.658	0.0905	699316	keystroke_i	i	n/a
350.033	0.075	700066	keystroke_t	t	n/a
350.2135	0.075	700427	keystroke_o	o	n/a
350.363	0.0755	700726	keystroke_r	r	n/a
350.6035	0.044	701207	keystroke_y	y	n/a
350.8575	0.105	701715	keystroke_Key.space	Key.space	n/a
351.0825	0.0755	702165	keystroke_r	r	n/a
351.1735	0.104	702347	keystroke_e	e	n/a
351.3535	0.0745	702707	keystroke_a	a	n/a
351.578	0.075	703156	keystroke_c	c	n/a
351.698	0.091	703396	keystroke_h	h	n/a
351.878	0.105	703756	keystroke_i	i	n/a
352.043	0.09	704086	keystroke_n	n	n/a
352.163	0.075	704326	keystroke_g	g	n/a
352.538	0.06	705076	keystroke_Key.enter	Key.enter	n/a
352.6025	7.1525	705205	prompt	n/a	pure fresh technology metals\n
353.4085	0.135	706817	keystroke_p	p	n/a
353.6335	0.045	707267	keystroke_u	u	n/a
353.7235	0.09	707447	keystroke_r	r	n/a
354.1585	0.06	708317	keystroke_e	e	n/a
354.3685	0.105	708737	keystroke_Key.space	Key.space	n/a
354.624	0.0745	709248	keystroke_f	f	n/a
354.8185	0.075	709637	keystroke_r	r	n/a
354.9235	0.075	709847	keystroke_e	e	n/a
355.1485	0.06	710297	keystroke_s	s	n/a
355.328	0.06	710656	keystroke_h	h	n/a
355.553	0.09	711106	keystroke_Key.space	Key.space	n/a
355.824	0.0595	711648	keystroke_t	t	n/a
355.9435	0.09	711887	keystroke_e	e	n/a
356.2135	0.075	712427	keystroke_c	c	n/a
356.3635	0.075	712727	keystroke_h	h	n/a
356.678	0.075	713356	keystroke_n	n	n/a
356.9035	0.06	713807	keystroke_o	o	n/a
357.173	0.09	714346	keystroke_l	l	n/a
357.4135	0.0445	714827	keystroke_o	o	n/a
357.6235	0.06	715247	keystroke_g	g	n/a
357.789	0.0585	715578	keystroke_y	y	n/a
358.1485	0.075	716297	keystroke_Key.space	Key.space	n/a
358.5085	0.09	717017	keystroke_m	m	n/a
358.6285	0.075	717257	keystroke_e	e	n/a
358.8235	0.075	717647	keystroke_t	t	n/a
359.093	0.0755	718186	keystroke_a	a	n/a
359.2735	0.0755	718547	keystroke_l	l	n/a
359.408	0.09	718816	keystroke_s	s	n/a
359.693	0.06	719386	keystroke_Key.enter	Key.enter	n/a
359.7595	11.2	719519	prompt	n/a	uruguay holland renewal classics\n
360.5635	0.0595	721127	keystroke_u	u	n/a
360.773	0.075	721546	keystroke_r	r	n/a
361.193	0.0605	722386	keystroke_u	u	n/a
362.513	0.075	725026	keystroke_g	g	n/a
362.633	0.075	725266	keystroke_u	u	n/a
362.8285	0.0895	725657	keystroke_a	a	n/a
363.2485	0.0595	726497	keystroke_y	y	n/a
363.548	0.105	727096	keystroke_Key.space	Key.space	n/a
363.833	0.076	727666	keystroke_t	t	n/a
364.3585	0.09	728717	keystroke_Key.backspace	Key.backspace	n/a
364.6285	0.06	729257	keystroke_h	h	n/a
364.8235	0.09	729647	keystroke_o	o	n/a
365.3185	0.075	730637	keystroke_l	l	n/a
365.4985	0.105	730997	keystroke_l	l	n/a
365.6485	0.105	731297	keystroke_a	a	n/a
365.7985	0.0595	731597	keystroke_n	n	n/a
365.948	0.0605	731896	keystroke_d	d	n/a
366.098	0.1055	732196	keystroke_Key.space	Key.space	n/a
366.4435	0.09	732887	keystroke_r	r	n/a
366.5185	0.12	733037	keystroke_e	e	n/a
366.6985	0.075	733397	keystroke_n	n	n/a
366.9685	0.075	733937	keystroke_e	e	n/a
367.0285	0.15	734057	keystroke_w	w	n/a
367.4635	0.075	734927	keystroke_a	a	n/a
367.6135	0.09	735227	keystroke_l	l	n/a
367.8225	0.135	735645	keystroke_Key.space	Key.space	n/a
368.0335	0.06	736067	keystroke_c	c	n/a
368.1975	0.075	736395	keystroke_l	l	n/a
368.3185	0.09	736637	keystroke_a	a	n/a
368.513	0.0905	737026	keystroke_s	s	n/a
368.6925	0.091	737385	keystroke_s	s	n/a
368.9935	0.074	737987	keystroke_i	i	n/a
369.2325	0.061	738465	keystroke_c	c	n/a
369.4585	0.09	738917	keystroke_s	s	n/a
370.8985	0.0595	741797	keystroke_Key.enter	Key.enter	n/a
370.963	10.002	741926	prompt	n/a	currency guarantee keeps hilton\n
371.633	0.075	743266	keystroke_c	c	n/a
371.7835	0.0595	743567	keystroke_u	u	n/a
371.9185	0.075	743837	keystroke_r	r	n/a
372.1135	0.0895	744227	keystroke_r	r	n/a
372.233	0.075	744466	keystroke_e	e	n/a
372.3985	0.06	744797	keystroke_n	n	n/a
372.6835	0.045	745367	keystroke_c	c	n/a
372.8485	0.045	745697	keystroke_y	y	n/a
373.0575	0.09	746115	keystroke_Key.space	Key.space	n/a
373.433	0.076	746866	keystroke_g	g	n/a
373.5835	0.0745	747167	keystroke_u	u	n/a
373.749	0.0895	747498	keystroke_a	a	n/a
373.8975	0.0905	747795	keystroke_r	r	n/a
374.3185	0.105	748637	keystroke_a	a	n/a
374.5585	0.12	749117	keystroke_n	n	n/a
374.9185	0.09	749837	keystroke_t	t	n/a
375.3085	0.045	750617	keystroke_e	e	n/a
375.4585	0.075	750917	keystroke_e	e	n/a
375.6235	0.105	751247	keystroke_Key.space	Key.space	n/a
375.9235	0.105	751847	keystroke_k	k	n/a
376.1185	0.06	752237	keystroke_e	e	n/a
376.2685	0.075	752537	keystroke_e	e	n/a
376.4325	0.1055	752865	keystroke_p	p	n/a
376.6285	0.089	753257	keystroke_s	s	n/a
376.793	0.0905	753586	keystroke_Key.space	Key.space	n/a
377.1075	0.061	754215	keystroke_h	h	n/a
377.2885	0.0895	754577	keystroke_i	i	n/a
377.5285	0.075	755057	keystroke_l	l	n/a
378.0835	0.0595	756167	keystroke_t	t	n/a
378.308	0.09	756616	keystroke_o	o	n/a
378.5185	0.0745	757037	keystroke_n	n	n/a
380.9495	0.013	761899	keystroke_Key.enter	Key.enter	n/a
380.9695	8.215	761939	prompt	n/a	costs emerald slides presents\n
381.7435	0.075	763487	keystroke_c	c	n/a
381.8625	0.0755	763725	keystroke_o	o	n/a
381.998	0.0905	763996	keystroke_s	s	n/a
382.1785	0.075	764357	keystroke_t	t	n/a
382.3735	0.0755	764747	keystroke_s	s	n/a
382.5085	0.089	765017	keystroke_Key.space	Key.space	n/a
382.7485	0.06	765497	keystroke_e	e	n/a
382.9285	0.06	765857	keystroke_m	m	n/a
383.1085	0.075	766217	keystroke_e	e	n/a
383.2285	0.075	766457	keystroke_r	r	n/a
383.4085	0.0745	766817	keystroke_a	a	n/a
383.6485	0.09	767297	keystroke_l	l	n/a
384.159	0.0745	768318	keystroke_d	d	n/a
384.3685	0.105	768737	keystroke_Key.space	Key.space	n/a
384.6245	0.0885	769249	keystroke_s	s	n/a
384.8035	0.0755	769607	keystroke_l	l	n/a
384.9685	0.12	769937	keystroke_i	i	n/a
385.2085	0.06	770417	keystroke_d	d	n/a
385.479	0.0745	770958	keystroke_e	e	n/a
385.6885	0.09	771377	keystroke_s	s	n/a
385.8675	0.121	771735	keystroke_Key.space	Key.space	n/a
386.5135	0.104	773027	keystroke_p	p	n/a
386.6335	0.089	773267	keystroke_r	r	n/a
386.7385	0.09	773477	keystroke_e	e	n/a
386.9925	0.0905	773985	keystroke_s	s	n/a
387.4575	0.0615	774915	keystroke_e	e	n/a
387.6375	0.061	775275	keystroke_n	n	n/a
387.7585	0.09	775517	keystroke_t	t	n/a
387.9835	0.075	775967	keystroke_s	s	n/a
389.1085	0.0745	778217	keystroke_Key.enter	Key.enter	n/a
389.1905	10.839	778381	prompt	n/a	combine broadway lucas fleece\n
389.8735	0.075	779747	keystroke_c	c	n/a
389.9635	0.0895	779927	keystroke_o	o	n/a
390.0985	0.12	780197	keystroke_m	m	n/a
390.4575	0.076	780915	keystroke_b	b	n/a
390.5935	0.075	781187	keystroke_i	i	n/a
390.7585	0.089	781517	keystroke_n	n	n/a
390.9535	0.059	781907	keystroke_e	e	n/a
391.133	0.1045	782266	keystroke_Key.space	Key.space	n/a
391.3885	0.075	782777	keystroke_b	b	n/a
391.643	0.09	783286	keystroke_r	r	n/a
392.3035	0.09	784607	keystroke_o	o	n/a
392.498	0.105	784996	keystroke_a	a	n/a
392.784	0.06	785568	keystroke_d	d	n/a
393.068	0.0905	786136	keystroke_w	w	n/a
393.278	0.1055	786556	keystroke_a	a	n/a
393.4875	0.061	786975	keystroke_y	y	n/a
393.743	0.0905	787486	keystroke_Key.space	Key.space	n/a
393.9235	0.0745	787847	keystroke_l	l	n/a
394.148	0.06	788296	keystroke_u	u	n/a
394.403	0.09	788806	keystroke_c	c	n/a
395.183	0.1055	790366	keystroke_a	a	n/a
395.3935	0.1045	790787	keystroke_s	s	n/a
395.6485	0.104	791297	keystroke_Key.space	Key.space	n/a
395.9485	0.075	791897	keystroke_f	f	n/a
396.1135	0.09	792227	keystroke_l	l	n/a
396.3385	0.044	792677	keystroke_e	e	n/a
396.5035	0.0745	793007	keystroke_e	e	n/a
396.7885	0.0745	793577	keystroke_c	c	n/a
397.043	0.045	794086	keystroke_e	e	n/a
399.9855	0.043	799971	keystroke_Key.enter	Key.enter	n/a
400.0345	10.525	800069	prompt	n/a	welsh vietnamese pros click\n
400.9585	0.06	801917	keystroke_w	w	n/a
401.1235	0.09	802247	keystroke_e	e	n/a
401.288	0.0745	802576	keystroke_l	l	n/a
401.5275	0.091	803055	keystroke_s	s	n/a
401.7085	0.045	803417	keystroke_h	h	n/a
401.9625	0.0755	803925	keystroke_Key.space	Key.space	n/a
402.2485	0.074	804497	keystroke_v	v	n/a
402.3835	0.0745	804767	keystroke_i	i	n/a
402.503	0.0905	805006	keystroke_e	e	n/a
402.879	0.0445	805758	keystroke_e	e	n/a
403.3735	0.06	806747	keystroke_Key.backspace	Key.backspace	n/a
403.4785	0.09	806957	keystroke_t	t	n/a
403.6585	0.06	807317	keystroke_n	n	n/a
404.0335	0.075	808067	keystroke_a	a	n/a
404.1835	0.075	808367	keystroke_m	m	n/a
404.6635	0.09	809327	keystroke_e	e	n/a
404.8885	0.09	809777	keystroke_s	s	n/a
405.0985	0.075	810197	keystroke_e	e	n/a
405.3225	0.09	810645	keystroke_Key.space	Key.space	n/a
405.6385	0.09	811277	keystroke_p	p	n/a
405.7885	0.09	811577	keystroke_r	r	n/a
405.9235	0.09	811847	keystroke_o	o	n/a
406.2085	0.09	812417	keystroke_s	s	n/a
406.448	0.1055	812896	keystroke_Key.space	Key.space	n/a
406.809	0.074	813618	keystroke_c	c	n/a
406.9435	0.09	813887	keystroke_l	l	n/a
407.138	0.0905	814276	keystroke_i	i	n/a
407.3635	0.06	814727	keystroke_c	c	n/a
407.4825	0.076	814965	keystroke_k	k	n/a
410.5445	0.013	821089	keystroke_Key.enter	Key.enter	n/a
410.5685	10.176	821137	prompt	n/a	dramatically somewhat encourages don't\n
411.3685	0.075	822737	keystroke_d	d	n/a
411.578	0.0755	823156	keystroke_r	r	n/a
411.7435	0.0895	823487	keystroke_a	a	n/a
411.9235	0.0595	823847	keystroke_m	m	n/a
412.193	0.0895	824386	keystroke_a	a	n/a
412.6585	0.0745	825317	keystroke_t	t	n/a
412.9585	0.075	825917	keystroke_i	i	n/a
413.138	0.075	826276	keystroke_c	c	n/a
413.2725	0.105	826545	keystroke_a	a	n/a
413.4235	0.0745	826847	keystroke_l	l	n/a
413.6025	0.091	827205	keystroke_l	l	n/a
413.8735	0.059	827747	keystroke_y	y	n/a
414.0825	0.076	828165	keystroke_Key.space	Key.space	n/a
414.278	0.09	828556	keystroke_s	s	n/a
414.548	0.105	829096	keystroke_o	o	n/a
414.7575	0.09	829515	keystroke_m	m	n/a
414.878	0.0755	829756	keystroke_e	e	n/a
415.223	0.091	830446	keystroke_w	w	n/a
415.3735	0.06	830747	keystroke_h	h	n/a
415.5225	0.09	831045	keystroke_a	a	n/a
415.6885	0.06	831377	keystroke_t	t	n/a
415.7925	0.121	831585	keystroke_Key.space	Key.space	n/a
416.0635	0.06	832127	keystroke_e	e	n/a
416.1835	0.075	832367	keystroke_n	n	n/a
416.4375	0.076	832875	keystroke_c	c	n/a
416.6035	0.075	833207	keystroke_o	o	n/a
416.7685	0.075	833537	keystroke_u	u	n/a
417.0235	0.075	834047	keystroke_r	r	n/a
417.2925	0.09	834585	keystroke_a	a	n/a
417.5185	0.075	835037	keystroke_g	g	n/a
417.6675	0.076	835335	keystroke_e	e	n/a
417.8635	0.09	835727	keystroke_s	s	n/a
417.9685	0.1195	835937	keystroke_Key.space	Key.space	n/a
418.313	0.0755	836626	keystroke_d	d	n/a
418.4785	0.1045	836957	keystroke_o	o	n/a
418.6585	0.0745	837317	keystroke_n	n	n/a
418.853	0.075	837706	keystroke_'	'	n/a
419.0635	0.06	838127	keystroke_t	t	n/a
420.6825	0.06	841365	keystroke_Key.enter	Key.enter	n/a
420.749	9.6705	841498	prompt	n/a	windows arbor strategy remix\n
421.493	0.0755	842986	keystroke_w	w	n/a
421.628	0.075	843256	keystroke_i	i	n/a
421.7935	0.09	843587	keystroke_n	n	n/a
421.9145	0.059	843829	keystroke_d	d	n/a
422.0785	0.075	844157	keystroke_o	o	n/a
422.1685	0.09	844337	keystroke_w	w	n/a
422.3785	0.09	844757	keystroke_s	s	n/a
422.4085	0.12	844817	keystroke_Key.space	Key.space	n/a
422.7235	0.09	845447	keystroke_a	a	n/a
422.8735	0.075	845747	keystroke_r	r	n/a
423.8785	0.075	847757	keystroke_b	b	n/a
423.8935	0.0295	847787	keystroke_g	g	n/a
424.0435	0.09	848087	keystroke_o	o	n/a
424.2235	0.075	848447	keystroke_r	r	n/a
424.3735	0.105	848747	keystroke_Key.space	Key.space	n/a
424.718	0.045	849436	keystroke_Key.backspace	Key.backspace	n/a
424.898	0.06	849796	keystroke_Key.backspace	Key.backspace	n/a
425.093	0.0455	850186	keystroke_Key.backspace	Key.backspace	n/a
425.258	0.075	850516	keystroke_Key.backspace	Key.backspace	n/a
425.498	0.0755	850996	keystroke_o	o	n/a
425.7385	0.06	851477	keystroke_r	r	n/a
425.8585	0.0745	851717	keystroke_Key.space	Key.space	n/a
426.3235	0.119	852647	keystroke_s	s	n/a
426.5635	0.074	853127	keystroke_t	t	n/a
426.8035	0.075	853607	keystroke_r	r	n/a
426.9535	0.1345	853907	keystroke_e	e	n/a
427.2985	0.0445	854597	keystroke_a	a	n/a
427.613	0.06	855226	keystroke_Key.backspace	Key.backspace	n/a
427.823	0.0755	855646	keystroke_Key.backspace	Key.backspace	n/a
427.8835	0.1055	855767	keystroke_a	a	n/a
428.078	0.06	856156	keystroke_t	t	n/a
428.333	0.075	856666	keystroke_e	e	n/a
428.6935	0.06	857387	keystroke_g	g	n/a
428.8735	0.06	857747	keystroke_y	y	n/a
429.1285	0.09	858257	keystroke_Key.space	Key.space	n/a
429.3535	0.0745	858707	keystroke_r	r	n/a
429.4425	0.106	858885	keystroke_e	e	n/a
429.6225	0.09	859245	keystroke_m	m	n/a
429.878	0.0755	859756	keystroke_i	i	n/a
429.998	0.09	859996	keystroke_x	x	n/a
430.358	0.0605	860716	keystroke_Key.enter	Key.enter	n/a
430.424	9.6255	860848	prompt	n/a	locations volvo riverside instructions\n
431.3175	0.0905	862635	keystroke_l	l	n/a
431.543	0.0755	863086	keystroke_o	o	n/a
431.693	0.075	863386	keystroke_c	c	n/a
431.813	0.105	863626	keystroke_a	a	n/a
432.008	0.1055	864016	keystroke_t	t	n/a
432.188	0.0905	864376	keystroke_i	i	n/a
432.2635	0.15	864527	keystroke_o	o	n/a
432.443	0.0905	864886	keystroke_n	n	n/a
432.6385	0.0895	865277	keystroke_s	s	n/a
432.8625	0.09	865725	keystroke_Key.space	Key.space	n/a
433.2825	0.075	866565	keystroke_v	v	n/a
433.433	0.09	866866	keystroke_o	o	n/a
433.703	0.0605	867406	keystroke_l	l	n/a
434.1685	0.06	868337	keystroke_v	v	n/a
434.3335	0.0745	868667	keystroke_o	o	n/a
434.678	0.09	869356	keystroke_Key.space	Key.space	n/a
435.068	0.0605	870136	keystroke_r	r	n/a
435.233	0.075	870466	keystroke_i	i	n/a
435.3975	0.0765	870795	keystroke_v	v	n/a
435.579	0.0735	871158	keystroke_e	e	n/a
435.638	0.0905	871276	keystroke_r	r	n/a
435.9085	0.089	871817	keystroke_s	s	n/a
436.0875	0.061	872175	keystroke_i	i	n/a
436.253	0.0455	872506	keystroke_d	d	n/a
436.418	0.0605	872836	keystroke_e	e	n/a
436.493	0.105	872986	keystroke_Key.space	Key.space	n/a
436.718	0.0605	873436	keystroke_i	i	n/a
436.838	0.105	873676	keystroke_n	n	n/a
437.2585	0.1195	874517	keystroke_s	s	n/a
437.4825	0.06	874965	keystroke_t	t	n/a
437.6185	0.074	875237	keystroke_r	r	n/a
437.738	0.0745	875476	keystroke_u	u	n/a
437.9185	0.06	875837	keystroke_c	c	n/a
438.0985	0.06	876197	keystroke_t	t	n/a
438.2335	0.075	876467	keystroke_i	i	n/a
438.2925	0.1655	876585	keystroke_o	o	n/a
438.4735	0.09	876947	keystroke_n	n	n/a
438.608	0.075	877216	keystroke_s	s	n/a
439.973	0.0755	879946	keystroke_Key.enter	Key.enter	n/a
440.053	10.3015	880106	prompt	n/a	christina scene evaluate handled\n
440.783	0.0745	881566	keystroke_c	c	n/a
440.9325	0.061	881865	keystroke_h	h	n/a
441.1425	0.075	882285	keystroke_r	r	n/a
441.3835	0.0745	882767	keystroke_s	s	n/a
441.5925	0.09	883185	keystroke_i	i	n/a
442.3275	0.0605	884655	keystroke_Key.backspace	Key.backspace	n/a
442.538	0.0455	885076	keystroke_Key.backspace	Key.backspace	n/a
442.749	0.074	885498	keystroke_i	i	n/a
442.9735	0.09	885947	keystroke_s	s	n/a
443.198	0.075	886396	keystroke_t	t	n/a
443.378	0.09	886756	keystroke_i	i	n/a
443.5575	0.09	887115	keystroke_n	n	n/a
443.8735	0.09	887747	keystroke_a	a	n/a
444.2335	0.135	888467	keystroke_Key.space	Key.space	n/a
444.5335	0.09	889067	keystroke_s	s	n/a
444.7885	0.06	889577	keystroke_c	c	n/a
445.3885	0.06	890777	keystroke_e	e	n/a
445.5535	0.075	891107	keystroke_n	n	n/a
445.7485	0.045	891497	keystroke_e	e	n/a
445.9125	0.09	891825	keystroke_Key.space	Key.space	n/a
446.2135	0.0445	892427	keystroke_e	e	n/a
446.438	0.075	892876	keystroke_v	v	n/a
446.8725	0.1065	893745	keystroke_a	a	n/a
447.3235	0.09	894647	keystroke_l	l	n/a
447.5635	0.06	895127	keystroke_u	u	n/a
447.773	0.1055	895546	keystroke_a	a	n/a
447.9525	0.09	895905	keystroke_t	t	n/a
448.1325	0.076	896265	keystroke_e	e	n/a
448.3885	0.105	896777	keystroke_Key.space	Key.space	n/a
448.6735	0.06	897347	keystroke_h	h	n/a
448.7925	0.106	897585	keystroke_a	a	n/a
449.0035	0.0595	898007	keystroke_n	n	n/a
449.1385	0.074	898277	keystroke_d	d	n/a
449.3335	0.075	898667	keystroke_l	l	n/a
449.453	0.09	898906	keystroke_e	e	n/a
449.6635	0.0745	899327	keystroke_d	d	n/a
450.293	0.0605	900586	keystroke_Key.enter	Key.enter	n/a
450.3595	8.5305	900719	prompt	n/a	roman witnesses surveillance hate\n
451.103	0.061	902206	keystroke_r	r	n/a
451.2385	0.0745	902477	keystroke_o	o	n/a
451.4335	0.105	902867	keystroke_m	m	n/a
451.5685	0.09	903137	keystroke_a	a	n/a
451.763	0.075	903526	keystroke_n	n	n/a
452.0485	0.0745	904097	keystroke_Key.space	Key.space	n/a
452.573	0.075	905146	keystroke_w	w	n/a
452.7085	0.075	905417	keystroke_i	i	n/a
452.9775	0.06	905955	keystroke_t	t	n/a
453.3825	0.0605	906765	keystroke_n	n	n/a
453.5485	0.075	907097	keystroke_e	e	n/a
453.7735	0.0595	907547	keystroke_s	s	n/a
453.9375	0.076	907875	keystroke_s	s	n/a
454.1635	0.075	908327	keystroke_e	e	n/a
454.388	0.075	908776	keystroke_s	s	n/a
454.583	0.12	909166	keystroke_Key.space	Key.space	n/a
454.928	0.0905	909856	keystroke_s	s	n/a
455.123	0.06	910246	keystroke_u	u	n/a
455.228	0.0905	910456	keystroke_r	r	n/a
455.5885	0.06	911177	keystroke_v	v	n/a
455.769	0.06	911538	keystroke_e	e	n/a
456.038	0.0905	912076	keystroke_i	i	n/a
456.3385	0.0745	912677	keystroke_l	l	n/a
456.5035	0.09	913007	keystroke_l	l	n/a
456.6535	0.075	913307	keystroke_a	a	n/a
456.8035	0.075	913607	keystroke_n	n	n/a
456.9985	0.0745	913997	keystroke_c	c	n/a
457.193	0.045	914386	keystroke_e	e	n/a
457.328	0.1045	914656	keystroke_Key.space	Key.space	n/a
457.6135	0.059	915227	keystroke_h	h	n/a
457.718	0.0755	915436	keystroke_a	a	n/a
457.8835	0.0895	915767	keystroke_t	t	n/a
458.0185	0.075	916037	keystroke_e	e	n/a
458.8135	0.0745	917627	keystroke_Key.enter	Key.enter	n/a
458.894	13.511	917788	prompt	n/a	transcription behalf greensboro previously\n
459.7735	0.06	919547	keystroke_t	t	n/a
459.939	0.0595	919878	keystroke_r	r	n/a
460.5985	0.03	921197	keystroke_Key.caps_lock	Key.caps_lock	n/a
460.6135	0.074	921227	keystroke_a	a	n/a
460.7485	0.075	921497	keystroke_n	n	n/a
460.9575	0.091	921915	keystroke_s	s	n/a
461.3485	0.045	922697	keystroke_Key.backspace	Key.backspace	n/a
461.528	0.06	923056	keystroke_Key.backspace	Key.backspace	n/a
461.603	0.165	923206	keystroke_Key.caps_lock	Key.caps_lock	n/a
461.738	0.09	923476	keystroke_Key.backspace	Key.backspace	n/a
462.113	0.0305	924226	keystroke_s	s	n/a
462.5475	0.0605	925095	keystroke_Key.backspace	Key.backspace	n/a
462.6535	0.105	925307	keystroke_a	a	n/a
463.073	0.075	926146	keystroke_n	n	n/a
463.3725	0.0905	926745	keystroke_s	s	n/a
463.778	0.0605	927556	keystroke_c	c	n/a
463.9875	0.075	927975	keystroke_r	r	n/a
464.1225	0.121	928245	keystroke_i	i	n/a
464.2875	0.12	928575	keystroke_p	p	n/a
464.468	0.0745	928936	keystroke_t	t	n/a
464.6475	0.061	929295	keystroke_i	i	n/a
464.6935	0.179	929387	keystroke_o	o	n/a
464.903	0.0905	929806	keystroke_n	n	n/a
465.128	0.09	930256	keystroke_Key.space	Key.space	n/a
465.4585	0.059	930917	keystroke_b	b	n/a
465.6535	0.074	931307	keystroke_e	e	n/a
465.9375	0.06	931875	keystroke_h	h	n/a
466.1635	0.09	932327	keystroke_a	a	n/a
466.418	0.0755	932836	keystroke_l	l	n/a
466.6885	0.0905	933377	keystroke_f	f	n/a
466.913	0.105	933826	keystroke_Key.space	Key.space	n/a
467.274	0.059	934548	keystroke_g	g	n/a
467.4685	0.075	934937	keystroke_r	r	n/a
467.724	0.0745	935448	keystroke_e	e	n/a
467.948	0.06	935896	keystroke_e	e	n/a
468.113	0.075	936226	keystroke_n	n	n/a
468.308	0.09	936616	keystroke_s	s	n/a
468.653	0.075	937306	keystroke_b	b	n/a
468.788	0.09	937576	keystroke_o	o	n/a
468.998	0.0605	937996	keystroke_r	r	n/a
469.133	0.09	938266	keystroke_o	o	n/a
469.433	0.105	938866	keystroke_Key.space	Key.space	n/a
469.688	0.1055	939376	keystroke_p	p	n/a
469.8225	0.09	939645	keystroke_r	r	n/a
469.9285	0.09	939857	keystroke_e	e	n/a
470.213	0.075	940426	keystroke_v	v	n/a
470.3475	0.091	940695	keystroke_i	i	n/a
470.4235	0.1345	940847	keystroke_o	o	n/a
470.633	0.0755	941266	keystroke_u	u	n/a
470.8285	0.09	941657	keystroke_s	s	n/a
470.9625	0.1055	941925	keystroke_l	l	n/a
471.218	0.0605	942436	keystroke_y	y	n/a
472.343	0.06	944686	keystroke_Key.enter	Key.enter	n/a
472.4085	11.306	944817	prompt	n/a	housewares airport encoding terry\n
473.273	0.03	946546	keystroke_h	h	n/a
473.378	0.105	946756	keystroke_o	o	n/a
473.5735	0.06	947147	keystroke_u	u	n/a
473.7985	0.015	947597	keystroke_r	r	n/a
473.9635	0.09	947927	keystroke_s	s	n/a
474.1135	0.09	948227	keystroke_e	e	n/a
474.7125	0.0455	949425	keystroke_Key.backspace	Key.backspace	n/a
474.908	0.059	949816	keystroke_Key.backspace	Key.backspace	n/a
475.103	0.075	950206	keystroke_Key.backspace	Key.backspace	n/a
475.3135	0.09	950627	keystroke_s	s	n/a
475.5085	0.0745	951017	keystroke_e	e	n/a
475.8685	0.12	951737	keystroke_w	w	n/a
476.0935	0.0895	952187	keystroke_a	a	n/a
476.303	0.09	952606	keystroke_r	r	n/a
476.408	0.075	952816	keystroke_e	e	n/a
476.648	0.09	953296	keystroke_s	s	n/a
476.798	0.1345	953596	keystroke_Key.space	Key.space	n/a
477.1275	0.09	954255	keystroke_a	a	n/a
477.3085	0.09	954617	keystroke_i	i	n/a
477.7435	0.075	955487	keystroke_r	r	n/a
478.0285	0.1045	956057	keystroke_p	p	n/a
478.2985	0.0895	956597	keystroke_o	o	n/a
478.613	0.075	957226	keystroke_r	r	n/a
478.838	0.06	957676	keystroke_t	t	n/a
479.0175	0.1055	958035	keystroke_Key.space	Key.space	n/a
479.243	0.045	958486	keystroke_e	e	n/a
479.378	0.0605	958756	keystroke_n	n	n/a
479.678	0.06	959356	keystroke_c	c	n/a
480.3685	0.074	960737	keystroke_o	o	n/a
480.6235	0.0895	961247	keystroke_d	d	n/a
480.848	0.09	961696	keystroke_i	i	n/a
481.058	0.09	962116	keystroke_n	n	n/a
481.163	0.06	962326	keystroke_g	g	n/a
481.328	0.105	962656	keystroke_Key.space	Key.space	n/a
481.703	0.075	963406	keystroke_t	t	n/a
481.883	0.09	963766	keystroke_e	e	n/a
481.943	0.075	963886	keystroke_r	r	n/a
482.168	0.075	964336	keystroke_r	r	n/a
482.378	0.06	964756	keystroke_y	y	n/a
483.638	0.0745	967276	keystroke_Key.enter	Key.enter	n/a
483.7185	13.496	967437	prompt	n/a	subscribe sing syndication picnic\n
484.4635	0.104	968927	keystroke_s	s	n/a
484.613	0.0605	969226	keystroke_u	u	n/a
484.7935	0.0745	969587	keystroke_b	b	n/a
485.1225	0.106	970245	keystroke_s	s	n/a
485.3185	0.0445	970637	keystroke_t	t	n/a
485.408	0.0905	970816	keystroke_r	r	n/a
485.6935	0.075	971387	keystroke_i	i	n/a
486.0975	0.06	972195	keystroke_b	b	n/a
486.3235	0.059	972647	keystroke_e	e	n/a
486.5325	0.075	973065	keystroke_Key.space	Key.space	n/a
487.448	0.06	974896	keystroke_Key.backspace	Key.backspace	n/a
487.628	0.075	975256	keystroke_Key.backspace	Key.backspace	n/a
487.808	0.06	975616	keystroke_Key.backspace	Key.backspace	n/a
487.973	0.06	975946	keystroke_Key.backspace	Key.backspace	n/a
488.1525	0.06	976305	keystroke_Key.backspace	Key.backspace	n/a
488.543	0.06	977086	keystroke_Key.backspace	Key.backspace	n/a
488.678	0.075	977356	keystroke_c	c	n/a
488.963	0.075	977926	keystroke_r	r	n/a
489.353	0.0745	978706	keystroke_i	i	n/a
489.4885	0.075	978977	keystroke_b	b	n/a
489.683	0.0595	979366	keystroke_e	e	n/a
489.8325	0.1055	979665	keystroke_Key.space	Key.space	n/a
490.0585	0.0895	980117	keystroke_s	s	n/a
490.1785	0.075	980357	keystroke_i	i	n/a
490.328	0.0905	980656	keystroke_n	n	n/a
490.4635	0.059	980927	keystroke_g	g	n/a
490.6585	0.0895	981317	keystroke_Key.space	Key.space	n/a
491.213	0.09	982426	keystroke_s	s	n/a
491.468	0.045	982936	keystroke_y	y	n/a
491.7085	0.0745	983417	keystroke_n	n	n/a
492.0235	0.075	984047	keystroke_d	d	n/a
492.1585	0.0895	984317	keystroke_i	i	n/a
492.3835	0.075	984767	keystroke_c	c	n/a
492.5035	0.105	985007	keystroke_a	a	n/a
492.668	0.09	985336	keystroke_t	t	n/a
492.773	0.09	985546	keystroke_i	i	n/a
492.833	0.165	985666	keystroke_o	o	n/a
493.028	0.09	986056	keystroke_n	n	n/a
493.238	0.09	986476	keystroke_Key.space	Key.space	n/a
493.4935	0.1045	986987	keystroke_p	p	n/a
493.718	0.0905	987436	keystroke_i	i	n/a
493.943	0.06	987886	keystroke_c	c	n/a
494.393	0.09	988786	keystroke_n	n	n/a
494.603	0.046	989206	keystroke_e	e	n/a
494.708	0.06	989416	keystroke_i	i	n/a
495.068	0.06	990136	keystroke_Key.backspace	Key.backspace	n/a
495.248	0.075	990496	keystroke_Key.backspace	Key.backspace	n/a
495.473	0.075	990946	keystroke_i	i	n/a
495.593	0.075	991186	keystroke_c	c	n/a
497.138	0.075	994276	keystroke_Key.enter	Key.enter	n/a
497.2215	8.9925	994443	prompt	n/a	anne advertisements thing benefit\n
497.8585	0.09	995717	keystroke_a	a	n/a
498.038	0.0605	996076	keystroke_n	n	n/a
498.233	0.0745	996466	keystroke_n	n	n/a
498.3375	0.076	996675	keystroke_e	e	n/a
498.5175	0.075	997035	keystroke_Key.space	Key.space	n/a
498.8175	0.105	997635	keystroke_a	a	n/a
499.103	0.0605	998206	keystroke_d	d	n/a
499.5985	0.09	999197	keystroke_v	v	n/a
499.7635	0.075	999527	keystroke_e	e	n/a
499.853	0.09	999706	keystroke_r	r	n/a
500.123	0.0755	1000246	keystroke_t	t	n/a
500.303	0.075	1000606	keystroke_i	i	n/a
500.498	0.09	1000996	keystroke_s	s	n/a
500.783	0.075	1001566	keystroke_e	e	n/a
501.068	0.075	1002136	keystroke_m	m	n/a
501.248	0.075	1002496	keystroke_e	e	n/a
501.3685	0.059	1002737	keystroke_n	n	n/a
501.5325	0.061	1003065	keystroke_t	t	n/a
501.7435	0.075	1003487	keystroke_s	s	n/a
501.9075	0.0905	1003815	keystroke_Key.space	Key.space	n/a
502.1325	0.0605	1004265	keystroke_t	t	n/a
502.2975	0.06	1004595	keystroke_h	h	n/a
502.478	0.045	1004956	keystroke_i	i	n/a
502.583	0.105	1005166	keystroke_n	n	n/a
502.8085	0.06	1005617	keystroke_g	g	n/a
503.918	0.1195	1007836	keystroke_Key.space	Key.space	n/a
504.2635	0.059	1008527	keystroke_b	b	n/a
504.4585	0.06	1008917	keystroke_e	e	n/a
504.6385	0.059	1009277	keystroke_n	n	n/a
504.818	0.06	1009636	keystroke_e	e	n/a
505.103	0.0745	1010206	keystroke_f	f	n/a
505.3435	0.0895	1010687	keystroke_i	i	n/a
505.553	0.06	1011106	keystroke_t	t	n/a
506.138	0.075	1012276	keystroke_Key.enter	Key.enter	n/a
506.2175	8.592	1012435	prompt	n/a	travelers grateful joins delete\n
507.008	0.0755	1014016	keystroke_t	t	n/a
507.158	0.0755	1014316	keystroke_r	r	n/a
507.323	0.0895	1014646	keystroke_a	a	n/a
507.578	0.0755	1015156	keystroke_v	v	n/a
507.803	0.075	1015606	keystroke_e	e	n/a
508.013	0.075	1016026	keystroke_l	l	n/a
508.508	0.03	1017016	keystroke_e	e	n/a
508.568	0.09	1017136	keystroke_r	r	n/a
508.808	0.09	1017616	keystroke_s	s	n/a
508.958	0.105	1017916	keystroke_Key.space	Key.space	n/a
509.228	0.06	1018456	keystroke_g	g	n/a
509.438	0.075	1018876	keystroke_r	r	n/a
509.588	0.09	1019176	keystroke_a	a	n/a
509.8425	0.0755	1019685	keystroke_t	t	n/a
509.993	0.075	1019986	keystroke_e	e	n/a
510.413	0.075	1020826	keystroke_f	f	n/a
510.5775	0.0605	1021155	keystroke_u	u	n/a
510.788	0.075	1021576	keystroke_l	l	n/a
511.013	0.09	1022026	keystroke_Key.space	Key.space	n/a
511.3585	0.0595	1022717	keystroke_j	j	n/a
511.6725	0.1055	1023345	keystroke_o	o	n/a
511.8525	0.1055	1023705	keystroke_i	i	n/a
512.0925	0.09	1024185	keystroke_n	n	n/a
512.378	0.0905	1024756	keystroke_s	s	n/a
512.633	0.1045	1025266	keystroke_Key.space	Key.space	n/a
512.8885	0.0745	1025777	keystroke_d	d	n/a
513.0825	0.045	1026165	keystroke_e	e	n/a
513.2185	0.06	1026437	keystroke_l	l	n/a
513.3235	0.074	1026647	keystroke_e	e	n/a
513.5025	0.075	1027005	keystroke_t	t	n/a
513.563	0.0895	1027126	keystroke_e	e	n/a
514.7475	0.06	1029495	keystroke_Key.enter	Key.enter	n/a
514.8135	9.3415	1029627	prompt	n/a	collapse dean sewing xhtml\n
515.7085	0.075	1031417	keystroke_c	c	n/a
515.873	0.075	1031746	keystroke_o	o	n/a
516.143	0.09	1032286	keystroke_l	l	n/a
516.353	0.09	1032706	keystroke_l	l	n/a
516.488	0.105	1032976	keystroke_a	a	n/a
516.653	0.105	1033306	keystroke_p	p	n/a
517.118	0.09	1034236	keystroke_s	s	n/a
517.2685	0.0895	1034537	keystroke_e	e	n/a
517.433	0.0745	1034866	keystroke_Key.space	Key.space	n/a
517.6735	0.059	1035347	keystroke_d	d	n/a
517.8525	0.075	1035705	keystroke_e	e	n/a
517.9725	0.09	1035945	keystroke_a	a	n/a
518.1085	0.059	1036217	keystroke_n	n	n/a
518.333	0.075	1036666	keystroke_Key.space	Key.space	n/a
518.873	0.12	1037746	keystroke_s	s	n/a
519.143	0.09	1038286	keystroke_w	w	n/a
519.368	0.0755	1038736	keystroke_e	e	n/a
519.8325	0.0605	1039665	keystroke_Key.backspace	Key.backspace	n/a
520.028	0.075	1040056	keystroke_Key.backspace	Key.backspace	n/a
520.163	0.0895	1040326	keystroke_e	e	n/a
520.4625	0.091	1040925	keystroke_w	w	n/a
520.928	0.0745	1041856	keystroke_i	i	n/a
521.0925	0.0755	1042185	keystroke_n	n	n/a
521.213	0.06	1042426	keystroke_g	g	n/a
521.348	0.12	1042696	keystroke_Key.space	Key.space	n/a
521.948	0.09	1043896	keystroke_x	x	n/a
522.323	0.0595	1044646	keystroke_h	h	n/a
522.563	0.0605	1045126	keystroke_t	t	n/a
522.638	0.06	1045276	keystroke_m	m	n/a
522.803	0.09	1045606	keystroke_l	l	n/a
524.078	0.075	1048156	keystroke_Key.enter	Key.enter	n/a
524.16	9.1445	1048320	prompt	n/a	serial correct safe rational\n
525.293	0.0595	1050586	keystroke_s	s	n/a
525.398	0.1055	1050796	keystroke_e	e	n/a
525.5935	0.0895	1051187	keystroke_r	r	n/a
525.7725	0.06	1051545	keystroke_i	i	n/a
525.9675	0.091	1051935	keystroke_a	a	n/a
526.1025	0.09	1052205	keystroke_l	l	n/a
526.3275	0.1055	1052655	keystroke_Key.space	Key.space	n/a
526.6275	0.0605	1053255	keystroke_c	c	n/a
527.198	0.09	1054396	keystroke_o	o	n/a
527.438	0.0745	1054876	keystroke_r	r	n/a
527.6175	0.075	1055235	keystroke_r	r	n/a
527.7375	0.09	1055475	keystroke_e	e	n/a
527.9775	0.0605	1055955	keystroke_c	c	n/a
528.2035	0.059	1056407	keystroke_t	t	n/a
528.3075	0.1205	1056615	keystroke_Key.space	Key.space	n/a
528.488	0.09	1056976	keystroke_s	s	n/a
528.653	0.0905	1057306	keystroke_a	a	n/a
528.9825	0.075	1057965	keystroke_f	f	n/a
529.118	0.0745	1058236	keystroke_e	e	n/a
529.373	0.105	1058746	keystroke_Key.space	Key.space	n/a
529.748	0.09	1059496	keystroke_t	t	n/a
529.763	0.06	1059526	keystroke_r	r	n/a
529.943	0.09	1059886	keystroke_a	a	n/a
530.333	0.06	1060666	keystroke_Key.backspace	Key.backspace	n/a
530.5285	0.074	1061057	keystroke_Key.backspace	Key.backspace	n/a
530.6635	0.0595	1061327	keystroke_r	r	n/a
530.8875	0.09	1061775	keystroke_Key.backspace	Key.backspace	n/a
531.143	0.075	1062286	keystroke_Key.backspace	Key.backspace	n/a
531.233	0.0905	1062466	keystroke_r	r	n/a
531.3675	0.106	1062735	keystroke_a	a	n/a
531.593	0.075	1063186	keystroke_t	t	n/a
531.728	0.075	1063456	keystroke_i	i	n/a
531.8185	0.1495	1063637	keystroke_o	o	n/a
532.013	0.0745	1064026	keystroke_n	n	n/a
532.1175	0.121	1064235	keystroke_a	a	n/a
532.298	0.074	1064596	keystroke_l	l	n/a
533.228	0.0745	1066456	keystroke_Key.enter	Key.enter	n/a
533.3085	27.146	1066617	prompt	n/a	julian techrepublic communications farmers\n
534.323	0.0595	1068646	keystroke_j	j	n/a
534.5325	0.061	1069065	keystroke_u	u	n/a
534.8925	0.0605	1069785	keystroke_i	i	n/a
535.343	0.075	1070686	keystroke_Key.backspace	Key.backspace	n/a
535.583	0.075	1071166	keystroke_l	l	n/a
535.7625	0.105	1071525	keystroke_i	i	n/a
536.003	0.0895	1072006	keystroke_a	a	n/a
536.153	0.075	1072306	keystroke_n	n	n/a
537.007	0.106	1074014	keystroke_Key.space	Key.space	n/a
537.623	0.06	1075246	keystroke_t	t	n/a
537.833	0.0595	1075666	keystroke_e	e	n/a
538.7175	0.0605	1077435	keystroke_c	c	n/a
538.8375	0.0745	1077675	keystroke_h	h	n/a
539.408	0.0745	1078816	keystroke_r	r	n/a
539.5725	0.0605	1079145	keystroke_u	u	n/a
539.8275	0.045	1079655	keystroke_b	b	n/a
540.217	0.045	1080434	keystroke_Key.backspace	Key.backspace	n/a
540.398	0.09	1080796	keystroke_Key.backspace	Key.backspace	n/a
540.4725	0.09	1080945	keystroke_e	e	n/a
540.758	0.0445	1081516	keystroke_b	b	n/a
541.178	0.06	1082356	keystroke_Key.backspace	Key.backspace	n/a
541.418	0.0905	1082836	keystroke_p	p	n/a
541.627	0.061	1083254	keystroke_u	u	n/a
541.763	0.075	1083526	keystroke_b	b	n/a
542.363	0.105	1084726	keystroke_l	l	n/a
542.618	0.09	1085236	keystroke_i	i	n/a
542.753	0.075	1085506	keystroke_c	c	n/a
542.993	0.0605	1085986	keystroke_Key.space	Key.space	n/a
543.668	0.075	1087336	keystroke_c	c	n/a
543.923	0.09	1087846	keystroke_o	o	n/a
544.148	0.0755	1088296	keystroke_m	m	n/a
544.358	0.075	1088716	keystroke_m	m	n/a
546.1725	0.0605	1092345	keystroke_u	u	n/a
546.4125	0.075	1092825	keystroke_n	n	n/a
546.713	0.09	1093426	keystroke_c	c	n/a
547.0125	0.076	1094025	keystroke_t	t	n/a
547.1025	0.0905	1094205	keystroke_i	i	n/a
547.178	0.195	1094356	keystroke_o	o	n/a
547.972	0.076	1095944	keystroke_Key.backspace	Key.backspace	n/a
548.198	0.089	1096396	keystroke_Key.backspace	Key.backspace	n/a
549.008	0.075	1098016	keystroke_Key.backspace	Key.backspace	n/a
549.098	0.105	1098196	keystroke_a	a	n/a
549.293	0.075	1098586	keystroke_t	t	n/a
549.4725	0.0755	1098945	keystroke_i	i	n/a
549.593	0.1345	1099186	keystroke_o	o	n/a
549.788	0.0745	1099576	keystroke_n	n	n/a
549.878	0.09	1099756	keystroke_s	s	n/a
550.658	0.135	1101316	keystroke_Key.space	Key.space	n/a
552.322	0.1205	1104644	keystroke_Key.left	Key.left	n/a
552.5475	0.075	1105095	keystroke_Key.left	Key.left	n/a
552.7125	0.0605	1105425	keystroke_Key.left	Key.left	n/a
552.863	0.0745	1105726	keystroke_Key.left	Key.left	n/a
553.0275	0.0755	1106055	keystroke_Key.left	Key.left	n/a
553.1775	0.09	1106355	keystroke_Key.left	Key.left	n/a
553.343	0.105	1106686	keystroke_Key.left	Key.left	n/a
553.538	0.105	1107076	keystroke_Key.left	Key.left	n/a
554.0025	0.09	1108005	keystroke_i	i	n/a
554.783	0.0895	1109566	keystroke_Key.right	Key.right	n/a
554.963	0.0745	1109926	keystroke_Key.right	Key.right	n/a
555.1275	0.0905	1110255	keystroke_Key.right	Key.right	n/a
555.3225	0.075	1110645	keystroke_Key.right	Key.right	n/a
555.5025	0.0755	1111005	keystroke_Key.right	Key.right	n/a
555.6975	0.09	1111395	keystroke_Key.right	Key.right	n/a
555.9075	0.075	1111815	keystroke_Key.right	Key.right	n/a
556.3575	0.0755	1112715	keystroke_Key.right	Key.right	n/a
557.663	0.075	1115326	keystroke_f	f	n/a
557.8135	0.089	1115627	keystroke_a	a	n/a
557.9475	0.0905	1115895	keystroke_r	r	n/a
558.338	0.075	1116676	keystroke_m	m	n/a
558.683	0.105	1117366	keystroke_e	e	n/a
558.833	0.091	1117666	keystroke_r	r	n/a
559.058	0.075	1118116	keystroke_s	s	n/a
560.378	0.075	1120756	keystroke_Key.enter	Key.enter	n/a
560.46	8.649	1120920	prompt	n/a	puzzles coating compact jefferson\n
561.2335	0.1185	1122467	keystroke_p	p	n/a
561.4575	0.061	1122915	keystroke_u	u	n/a
561.698	0.09	1123396	keystroke_z	z	n/a
561.893	0.119	1123786	keystroke_z	z	n/a
562.1635	0.0895	1124327	keystroke_l	l	n/a
562.343	0.075	1124686	keystroke_e	e	n/a
562.567	0.09	1125134	keystroke_s	s	n/a
562.732	0.0905	1125464	keystroke_Key.space	Key.space	n/a
562.958	0.06	1125916	keystroke_c	c	n/a
563.0775	0.09	1126155	keystroke_o	o	n/a
563.2275	0.0755	1126455	keystroke_a	a	n/a
563.468	0.075	1126936	keystroke_r	r	n/a
564.008	0.06	1128016	keystroke_Key.backspace	Key.backspace	n/a
564.098	0.075	1128196	keystroke_t	t	n/a
564.278	0.075	1128556	keystroke_i	i	n/a
564.458	0.075	1128916	keystroke_n	n	n/a
564.548	0.075	1129096	keystroke_g	g	n/a
564.728	0.0895	1129456	keystroke_Key.space	Key.space	n/a
564.9525	0.06	1129905	keystroke_c	c	n/a
565.0425	0.105	1130085	keystroke_o	o	n/a
565.2075	0.1055	1130415	keystroke_m	m	n/a
565.478	0.0745	1130956	keystroke_p	p	n/a
565.823	0.104	1131646	keystroke_a	a	n/a
566.0775	0.0755	1132155	keystroke_c	c	n/a
566.303	0.075	1132606	keystroke_t	t	n/a
566.543	0.105	1133086	keystroke_Key.space	Key.space	n/a
566.978	0.075	1133956	keystroke_j	j	n/a
567.188	0.0595	1134376	keystroke_e	e	n/a
567.5935	0.074	1135187	keystroke_f	f	n/a
567.7725	0.075	1135545	keystroke_f	f	n/a
567.9375	0.0755	1135875	keystroke_e	e	n/a
568.043	0.0595	1136086	keystroke_r	r	n/a
568.283	0.105	1136566	keystroke_s	s	n/a
568.4025	0.09	1136805	keystroke_o	o	n/a
568.5525	0.0755	1137105	keystroke_n	n	n/a
569.0325	0.075	1138065	keystroke_Key.enter	Key.enter	n/a
569.112	14.667	1138224	prompt	n/a	algorithm rates accessibility stephanie\n
569.813	0.09	1139626	keystroke_a	a	n/a
569.9925	0.0905	1139985	keystroke_l	l	n/a
570.6225	0.0605	1141245	keystroke_g	g	n/a
570.7875	0.09	1141575	keystroke_o	o	n/a
571.013	0.0595	1142026	keystroke_r	r	n/a
571.148	0.09	1142296	keystroke_i	i	n/a
571.478	0.06	1142956	keystroke_t	t	n/a
571.598	0.075	1143196	keystroke_h	h	n/a
571.868	0.0745	1143736	keystroke_m	m	n/a
572.137	0.075	1144274	keystroke_Key.space	Key.space	n/a
572.4535	0.0745	1144907	keystroke_r	r	n/a
572.618	0.075	1145236	keystroke_a	a	n/a
572.783	0.09	1145566	keystroke_t	t	n/a
572.9325	0.0445	1145865	keystroke_e	e	n/a
573.353	0.075	1146706	keystroke_s	s	n/a
573.548	0.105	1147096	keystroke_Key.space	Key.space	n/a
573.803	0.075	1147606	keystroke_a	a	n/a
574.208	0.06	1148416	keystroke_c	c	n/a
574.478	0.03	1148956	keystroke_e	e	n/a
574.883	0.075	1149766	keystroke_Key.backspace	Key.backspace	n/a
575.018	0.075	1150036	keystroke_c	c	n/a
575.2425	0.06	1150485	keystroke_e	e	n/a
575.4675	0.0755	1150935	keystroke_s	s	n/a
575.6475	0.075	1151295	keystroke_s	s	n/a
575.783	0.074	1151566	keystroke_i	i	n/a
576.023	0.06	1152046	keystroke_b	b	n/a
576.188	0.09	1152376	keystroke_i	i	n/a
576.398	0.12	1152796	keystroke_l	l	n/a
576.578	0.12	1153156	keystroke_i	i	n/a
576.833	0.045	1153666	keystroke_t	t	n/a
576.953	0.06	1153906	keystroke_y	y	n/a
577.282	0.06	1154564	keystroke_Key.space	Key.space	n/a
577.6275	0.105	1155255	keystroke_s	s	n/a
578.0625	0.0595	1156125	keystroke_t	t	n/a
578.182	0.106	1156364	keystroke_e	e	n/a
578.813	0.045	1157626	keystroke_a	a	n/a
579.233	0.075	1158466	keystroke_Key.backspace	Key.backspace	n/a
579.473	0.105	1158946	keystroke_p	p	n/a
579.8925	0.075	1159785	keystroke_h	h	n/a
580.1175	0.075	1160235	keystroke_a	a	n/a
580.2825	0.045	1160565	keystroke_n	n	n/a
580.6275	0.075	1161255	keystroke_i	i	n/a
580.9435	0.0745	1161887	keystroke_e	e	n/a
583.765	0.013	1167530	keystroke_Key.enter	Key.enter	n/a
583.782	10.1375	1167564	prompt	n/a	legendary alter bedford myrtle\n
584.6325	0.09	1169265	keystroke_l	l	n/a
584.7975	0.075	1169595	keystroke_e	e	n/a
585.023	0.0745	1170046	keystroke_g	g	n/a
585.2925	0.0605	1170585	keystroke_e	e	n/a
585.4275	0.075	1170855	keystroke_n	n	n/a
585.7125	0.075	1171425	keystroke_d	d	n/a
585.893	0.075	1171786	keystroke_a	a	n/a
586.0275	0.09	1172055	keystroke_r	r	n/a
586.2225	0.0305	1172445	keystroke_y	y	n/a
586.463	0.09	1172926	keystroke_Key.space	Key.space	n/a
586.6575	0.0755	1173315	keystroke_a	a	n/a
586.808	0.09	1173616	keystroke_l	l	n/a
587.048	0.075	1174096	keystroke_t	t	n/a
587.228	0.075	1174456	keystroke_e	e	n/a
587.288	0.074	1174576	keystroke_r	r	n/a
587.497	0.09	1174994	keystroke_Key.space	Key.space	n/a
587.828	0.0445	1175656	keystroke_b	b	n/a
587.993	0.0745	1175986	keystroke_e	e	n/a
588.6525	0.0755	1177305	keystroke_d	d	n/a
589.0275	0.0755	1178055	keystroke_f	f	n/a
589.1785	0.0745	1178357	keystroke_o	o	n/a
589.283	0.075	1178566	keystroke_r	r	n/a
589.583	0.06	1179166	keystroke_d	d	n/a
589.763	0.09	1179526	keystroke_Key.space	Key.space	n/a
590.213	0.09	1180426	keystroke_m	m	n/a
590.528	0.045	1181056	keystroke_y	y	n/a
591.038	0.06	1182076	keystroke_r	r	n/a
591.668	0.0745	1183336	keystroke_t	t	n/a
591.908	0.0595	1183816	keystroke_l	l	n/a
592.0275	0.0605	1184055	keystroke_e	e	n/a
593.828	0.09	1187656	keystroke_Key.enter	Key.enter	n/a
593.9225	10.467	1187845	prompt	n/a	miss unauthorized capital real\n
594.653	0.0745	1189306	keystroke_m	m	n/a
594.8475	0.0755	1189695	keystroke_i	i	n/a
595.043	0.0595	1190086	keystroke_s	s	n/a
595.1925	0.09	1190385	keystroke_s	s	n/a
595.2965	0.1215	1190593	keystroke_Key.space	Key.space	n/a
595.5525	0.0605	1191105	keystroke_u	u	n/a
595.7625	0.0755	1191525	keystroke_n	n	n/a
596.1085	0.1045	1192217	keystroke_a	a	n/a
596.288	0.075	1192576	keystroke_u	u	n/a
596.558	0.075	1193116	keystroke_t	t	n/a
596.7975	0.0755	1193595	keystroke_h	h	n/a
597.442	0.0755	1194884	keystroke_r	r	n/a
597.848	0.074	1195696	keystroke_Key.backspace	Key.backspace	n/a
598.088	0.09	1196176	keystroke_o	o	n/a
598.223	0.09	1196446	keystroke_r	r	n/a
598.4175	0.0905	1196835	keystroke_i	i	n/a
598.628	0.105	1197256	keystroke_z	z	n/a
598.8825	0.075	1197765	keystroke_e	e	n/a
599.108	0.075	1198216	keystroke_d	d	n/a
599.2575	0.1045	1198515	keystroke_Key.space	Key.space	n/a
599.512	0.061	1199024	keystroke_c	c	n/a
599.663	0.075	1199326	keystroke_a	a	n/a
599.8125	0.0905	1199625	keystroke_p	p	n/a
600.023	0.09	1200046	keystroke_i	i	n/a
600.278	0.075	1200556	keystroke_t	t	n/a
600.428	0.104	1200856	keystroke_a	a	n/a
600.608	0.075	1201216	keystroke_l	l	n/a
600.937	0.106	1201874	keystroke_Key.space	Key.space	n/a
601.4925	0.0595	1202985	keystroke_r	r	n/a
601.763	0.0895	1203526	keystroke_e	e	n/a
601.973	0.0895	1203946	keystroke_a	a	n/a
602.2125	0.09	1204425	keystroke_l	l	n/a
604.313	0.074	1208626	keystroke_Key.enter	Key.enter	n/a
604.3935	7.7505	1208787	prompt	n/a	wheel school insider choosing\n
605.243	0.0745	1210486	keystroke_w	w	n/a
605.3925	0.0605	1210785	keystroke_h	h	n/a
605.5725	0.0745	1211145	keystroke_e	e	n/a
605.8125	0.075	1211625	keystroke_e	e	n/a
605.933	0.1055	1211866	keystroke_l	l	n/a
606.1575	0.09	1212315	keystroke_Key.space	Key.space	n/a
606.3375	0.09	1212675	keystroke_s	s	n/a
606.5925	0.075	1213185	keystroke_c	c	n/a
606.8025	0.045	1213605	keystroke_h	h	n/a
607.2225	0.09	1214445	keystroke_o	o	n/a
607.4325	0.075	1214865	keystroke_o	o	n/a
607.6425	0.0905	1215285	keystroke_l	l	n/a
607.8825	0.09	1215765	keystroke_Key.space	Key.space	n/a
608.1525	0.075	1216305	keystroke_i	i	n/a
608.318	0.1045	1216636	keystroke_n	n	n/a
608.5125	0.105	1217025	keystroke_s	s	n/a
608.6625	0.0905	1217325	keystroke_i	i	n/a
608.873	0.0595	1217746	keystroke_d	d	n/a
609.0675	0.0755	1218135	keystroke_e	e	n/a
609.232	0.0755	1218464	keystroke_r	r	n/a
609.3825	0.105	1218765	keystroke_Key.space	Key.space	n/a
609.6985	0.059	1219397	keystroke_c	c	n/a
609.8325	0.0595	1219665	keystroke_h	h	n/a
610.013	0.074	1220026	keystroke_o	o	n/a
610.358	0.1195	1220716	keystroke_o	o	n/a
610.717	0.09	1221434	keystroke_s	s	n/a
610.868	0.0895	1221736	keystroke_i	i	n/a
611.048	0.089	1222096	keystroke_n	n	n/a
611.152	0.061	1222304	keystroke_g	g	n/a
612.068	0.075	1224136	keystroke_Key.enter	Key.enter	n/a
612.1555	10.2485	1224311	prompt	n/a	summer canberra waiting perhaps\n
612.8625	0.09	1225725	keystroke_s	s	n/a
612.9975	0.06	1225995	keystroke_u	u	n/a
613.238	0.075	1226476	keystroke_m	m	n/a
613.4175	0.09	1226835	keystroke_m	m	n/a
613.5375	0.075	1227075	keystroke_e	e	n/a
613.6275	0.075	1227255	keystroke_r	r	n/a
613.7475	0.09	1227495	keystroke_Key.space	Key.space	n/a
614.063	0.075	1228126	keystroke_c	c	n/a
614.2425	0.1195	1228485	keystroke_a	a	n/a
614.4825	0.105	1228965	keystroke_n	n	n/a
615.1125	0.06	1230225	keystroke_b	b	n/a
615.2925	0.0905	1230585	keystroke_e	e	n/a
615.368	0.075	1230736	keystroke_r	r	n/a
615.593	0.09	1231186	keystroke_r	r	n/a
615.803	0.09	1231606	keystroke_a	a	n/a
616.147	0.091	1232294	keystroke_Key.space	Key.space	n/a
616.373	0.075	1232746	keystroke_w	w	n/a
616.552	0.106	1233104	keystroke_a	a	n/a
616.763	0.0745	1233526	keystroke_i	i	n/a
617.0475	0.0605	1234095	keystroke_t	t	n/a
617.2125	0.075	1234425	keystroke_i	i	n/a
617.362	0.091	1234724	keystroke_n	n	n/a
617.5125	0.0755	1235025	keystroke_g	g	n/a
617.648	0.1045	1235296	keystroke_Key.space	Key.space	n/a
617.978	0.075	1235956	keystroke_h	h	n/a
618.1575	0.06	1236315	keystroke_e	e	n/a
618.2485	0.0895	1236497	keystroke_r	r	n/a
619.297	0.0605	1238594	keystroke_Key.backspace	Key.backspace	n/a
619.5075	0.06	1239015	keystroke_Key.backspace	Key.backspace	n/a
619.7025	0.075	1239405	keystroke_Key.backspace	Key.backspace	n/a
619.9425	0.1195	1239885	keystroke_p	p	n/a
620.212	0.0755	1240424	keystroke_e	e	n/a
620.347	0.0905	1240694	keystroke_r	r	n/a
620.7675	0.0605	1241535	keystroke_h	h	n/a
620.963	0.09	1241926	keystroke_a	a	n/a
621.2325	0.1345	1242465	keystroke_p	p	n/a
621.472	0.0755	1242944	keystroke_s	s	n/a
622.327	0.075	1244654	keystroke_Key.enter	Key.enter	n/a
622.411	9.443	1244822	prompt	n/a	robert qualifications she'd coaches\n
623.6475	0.075	1247295	keystroke_r	r	n/a
623.7975	0.075	1247595	keystroke_o	o	n/a
623.9925	0.075	1247985	keystroke_b	b	n/a
624.1725	0.045	1248345	keystroke_e	e	n/a
624.2025	0.09	1248405	keystroke_r	r	n/a
624.3675	0.105	1248735	keystroke_Key.space	Key.space	n/a
624.698	0.1045	1249396	keystroke_q	q	n/a
624.8625	0.075	1249725	keystroke_u	u	n/a
625.3125	0.105	1250625	keystroke_a	a	n/a
625.5225	0.105	1251045	keystroke_l	l	n/a
625.7035	0.0895	1251407	keystroke_i	i	n/a
625.8825	0.075	1251765	keystroke_f	f	n/a
626.0025	0.0905	1252005	keystroke_i	i	n/a
626.213	0.075	1252426	keystroke_c	c	n/a
626.3925	0.0605	1252785	keystroke_a	a	n/a
626.498	0.09	1252996	keystroke_t	t	n/a
626.602	0.1055	1253204	keystroke_i	i	n/a
626.7225	0.1505	1253445	keystroke_o	o	n/a
626.9175	0.075	1253835	keystroke_n	n	n/a
627.0825	0.075	1254165	keystroke_s	s	n/a
627.2325	0.09	1254465	keystroke_Key.space	Key.space	n/a
627.4575	0.09	1254915	keystroke_s	s	n/a
627.592	0.0605	1255184	keystroke_h	h	n/a
627.772	0.045	1255544	keystroke_e	e	n/a
627.938	0.119	1255876	keystroke_'	'	n/a
628.267	0.0905	1256534	keystroke_s	s	n/a
628.7025	0.0595	1257405	keystroke_Key.backspace	Key.backspace	n/a
628.8225	0.0605	1257645	keystroke_d	d	n/a
629.0325	0.075	1258065	keystroke_Key.space	Key.space	n/a
629.498	0.075	1258996	keystroke_c	c	n/a
629.6475	0.0755	1259295	keystroke_o	o	n/a
629.8125	0.09	1259625	keystroke_a	a	n/a
630.3975	0.06	1260795	keystroke_c	c	n/a
630.563	0.0595	1261126	keystroke_h	h	n/a
630.743	0.06	1261486	keystroke_e	e	n/a
630.953	0.0745	1261906	keystroke_s	s	n/a
631.7925	0.06	1263585	keystroke_Key.enter	Key.enter	n/a
631.8575	10.4965	1263715	prompt	n/a	creatures lens sandwich whose\n
632.633	0.075	1265266	keystroke_c	c	n/a
632.872	0.076	1265744	keystroke_r	r	n/a
632.9625	0.105	1265925	keystroke_e	e	n/a
633.1125	0.09	1266225	keystroke_a	a	n/a
633.278	0.09	1266556	keystroke_t	t	n/a
633.503	0.045	1267006	keystroke_u	u	n/a
633.608	0.0905	1267216	keystroke_r	r	n/a
633.713	0.075	1267426	keystroke_e	e	n/a
633.953	0.074	1267906	keystroke_s	s	n/a
634.102	0.105	1268204	keystroke_Key.space	Key.space	n/a
634.3275	0.075	1268655	keystroke_l	l	n/a
634.4775	0.0605	1268955	keystroke_e	e	n/a
634.6425	0.06	1269285	keystroke_n	n	n/a
634.808	0.06	1269616	keystroke_g	g	n/a
635.0325	0.075	1270065	keystroke_s	s	n/a
635.1975	0.0905	1270395	keystroke_Key.space	Key.space	n/a
635.828	0.0445	1271656	keystroke_Key.backspace	Key.backspace	n/a
636.0075	0.075	1272015	keystroke_Key.backspace	Key.backspace	n/a
636.1875	0.105	1272375	keystroke_s	s	n/a
636.473	0.0445	1272946	keystroke_Key.backspace	Key.backspace	n/a
636.6675	0.06	1273335	keystroke_Key.backspace	Key.backspace	n/a
636.788	0.1045	1273576	keystroke_s	s	n/a
636.9825	0.0605	1273965	keystroke_Key.space	Key.space	n/a
637.703	0.0745	1275406	keystroke_s	s	n/a
637.8525	0.09	1275705	keystroke_a	a	n/a
638.0175	0.06	1276035	keystroke_n	n	n/a
638.153	0.0755	1276306	keystroke_d	d	n/a
638.5875	0.09	1277175	keystroke_w	w	n/a
638.7225	0.075	1277445	keystroke_i	i	n/a
639.398	0.0595	1278796	keystroke_c	c	n/a
639.5175	0.0755	1279035	keystroke_h	h	n/a
639.7725	0.09	1279545	keystroke_Key.space	Key.space	n/a
640.2525	0.09	1280505	keystroke_w	w	n/a
640.4025	0.06	1280805	keystroke_h	h	n/a
640.5975	0.0605	1281195	keystroke_o	o	n/a
641.063	0.075	1282126	keystroke_s	s	n/a
641.243	0.0595	1282486	keystroke_e	e	n/a
642.292	0.061	1284584	keystroke_Key.enter	Key.enter	n/a
642.3585	9.2205	1284717	prompt	n/a	deployment gonna stays teach\n
643.0575	0.045	1286115	keystroke_d	d	n/a
643.2375	0.0605	1286475	keystroke_e	e	n/a
643.388	0.0745	1286776	keystroke_p	p	n/a
643.5825	0.0905	1287165	keystroke_l	l	n/a
643.7925	0.09	1287585	keystroke_o	o	n/a
644.032	0.045	1288064	keystroke_t	t	n/a
644.033	0.045	1288066	keystroke_y	y	n/a
644.3625	0.0755	1288725	keystroke_m	m	n/a
644.843	0.045	1289686	keystroke_Key.backspace	Key.backspace	n/a
645.0375	0.045	1290075	keystroke_Key.backspace	Key.backspace	n/a
645.218	0.06	1290436	keystroke_Key.backspace	Key.backspace	n/a
645.5025	0.06	1291005	keystroke_y	y	n/a
645.9525	0.075	1291905	keystroke_m	m	n/a
646.103	0.0755	1292206	keystroke_e	e	n/a
646.2225	0.0605	1292445	keystroke_n	n	n/a
646.3575	0.06	1292715	keystroke_t	t	n/a
646.463	0.104	1292926	keystroke_Key.space	Key.space	n/a
646.7625	0.075	1293525	keystroke_g	g	n/a
646.8675	0.09	1293735	keystroke_o	o	n/a
647.1825	0.0605	1294365	keystroke_n	n	n/a
647.3625	0.075	1294725	keystroke_n	n	n/a
647.4825	0.105	1294965	keystroke_a	a	n/a
647.6775	0.075	1295355	keystroke_Key.space	Key.space	n/a
647.9175	0.075	1295835	keystroke_s	s	n/a
648.128	0.09	1296256	keystroke_t	t	n/a
648.278	0.09	1296556	keystroke_a	a	n/a
648.5025	0.045	1297005	keystroke_y	y	n/a
648.638	0.0745	1297276	keystroke_s	s	n/a
