onset	duration	sample	value	key	prompt_text
2.1285	7.5055	4257	prompt	n/a	the quick brown fox jumps over a lazy dog\n
4.592	0.075	9184	keystroke_t	t	n/a
4.712	0.0895	9424	keystroke_h	h	n/a
4.8165	0.0905	9633	keystroke_e	e	n/a
5.1315	0.075	10263	keystroke_Key.space	Key.space	n/a
5.2665	0.1205	10533	keystroke_q	q	n/a
5.372	0.09	10744	keystroke_u	u	n/a
5.447	0.075	10894	keystroke_i	i	n/a
5.537	0.12	11074	keystroke_c	c	n/a
5.612	0.09	11224	keystroke_k	k	n/a
5.717	0.0895	11434	keystroke_Key.space	Key.space	n/a
6.062	0.075	12124	keystroke_b	b	n/a
6.212	0.075	12424	keystroke_r	r	n/a
6.317	0.1045	12634	keystroke_o	o	n/a
6.4065	0.06	12813	keystroke_w	w	n/a
6.4815	0.105	12963	keystroke_n	n	n/a
6.5715	0.06	13143	keystroke_Key.space	Key.space	n/a
6.7365	0.075	13473	keystroke_f	f	n/a
6.8265	0.105	13653	keystroke_o	o	n/a
6.9165	0.15	13833	keystroke_x	x	n/a
7.0365	0.09	14073	keystroke_Key.space	Key.space	n/a
7.2765	0.075	14553	keystroke_j	j	n/a
7.427	0.075	14854	keystroke_u	u	n/a
7.562	0.1195	15124	keystroke_m	m	n/a
7.6665	0.12	15333	keystroke_p	p	n/a
7.7715	0.12	15543	keystroke_s	s	n/a
7.8765	0.09	15753	keystroke_Key.space	Key.space	n/a
8.0115	0.1195	16023	keystroke_o	o	n/a
8.117	0.06	16234	keystroke_v	v	n/a
8.267	0.059	16534	keystroke_e	e	n/a
8.312	0.0895	16624	keystroke_r	r	n/a
8.372	0.0595	16744	keystroke_Key.space	Key.space	n/a
8.4465	0.105	16893	keystroke_a	a	n/a
8.5365	0.075	17073	keystroke_Key.space	Key.space	n/a
8.6415	0.105	17283	keystroke_l	l	n/a
8.7165	0.09	17433	keystroke_a	a	n/a
8.8515	0.195	17703	keystroke_z	z	n/a
9.0015	0.09	18003	keystroke_y	y	n/a
9.0765	0.0755	18153	keystroke_Key.space	Key.space	n/a
9.182	0.09	18364	keystroke_d	d	n/a
9.242	0.1045	18484	keystroke_o	o	n/a
9.3465	0.075	18693	keystroke_g	g	n/a
9.5415	0.0905	19083	keystroke_Key.enter	Key.enter	n/a
9.638	6.1605	19276	prompt	n/a	produced sold responsibilities matches\n
10.262	0.06	20524	keystroke_p	p	n/a
10.322	0.06	20644	keystroke_r	r	n/a
10.427	0.075	20854	keystroke_o	o	n/a
10.517	0.075	21034	keystroke_d	d	n/a
10.607	0.06	21214	keystroke_u	u	n/a
10.697	0.09	21394	keystroke_c	c	n/a
10.832	0.06	21664	keystroke_e	e	n/a
10.952	0.09	21904	keystroke_d	d	n/a
10.997	0.09	21994	keystroke_Key.space	Key.space	n/a
11.132	0.0745	22264	keystroke_s	s	n/a
11.2075	0.059	22415	keystroke_o	o	n/a
11.3115	0.1205	22623	keystroke_l	l	n/a
11.417	0.09	22834	keystroke_d	d	n/a
11.492	0.06	22984	keystroke_Key.space	Key.space	n/a
11.672	0.075	23344	keystroke_r	r	n/a
11.762	0.105	23524	keystroke_e	e	n/a
11.837	0.135	23674	keystroke_s	s	n/a
11.942	0.0595	23884	keystroke_p	p	n/a
12.0025	0.149	24005	keystroke_o	o	n/a
12.1365	0.105	24273	keystroke_n	n	n/a
12.2565	0.09	24513	keystroke_s	s	n/a
12.3765	0.06	24753	keystroke_i	i	n/a
12.5115	0.0755	25023	keystroke_b	b	n/a
12.662	0.045	25324	keystroke_i	i	n/a
13.592	0.075	27184	keystroke_l	l	n/a
13.712	0.09	27424	keystroke_i	i	n/a
13.877	0.075	27754	keystroke_t	t	n/a
13.967	0.0895	27934	keystroke_i	i	n/a
14.0725	0.06	28145	keystroke_e	e	n/a
14.1465	0.15	28293	keystroke_s	s	n/a
14.2815	0.075	28563	keystroke_Key.space	Key.space	n/a
14.822	0.1045	29644	keystroke_m	m	n/a
14.8965	0.12	29793	keystroke_a	a	n/a
14.9715	0.06	29943	keystroke_t	t	n/a
15.1215	0.105	30243	keystroke_c	c	n/a
15.2275	0.074	30455	keystroke_h	h	n/a
15.3025	0.104	30605	keystroke_e	e	n/a
15.3765	0.15	30753	keystroke_s	s	n/a
15.7065	0.0905	31413	keystroke_Key.enter	Key.enter	n/a
15.8015	7.452	31603	prompt	n/a	vault seven rendered naturally\n
16.4565	0.09	32913	keystroke_v	v	n/a
16.5165	0.135	33033	keystroke_a	a	n/a
16.6365	0.105	33273	keystroke_l	l	n/a
17.027	0.0745	34054	keystroke_u	u	n/a
17.5965	0.075	35193	keystroke_Key.backspace	Key.backspace	n/a
17.6865	0.075	35373	keystroke_Key.backspace	Key.backspace	n/a
17.9115	0.045	35823	keystroke_a	a	n/a
18.062	0.06	36124	keystroke_u	u	n/a
18.362	0.045	36724	keystroke_Key.backspace	Key.backspace	n/a
18.4665	0.06	36933	keystroke_Key.backspace	Key.backspace	n/a
18.6765	0.06	37353	keystroke_u	u	n/a
18.8415	0.105	37683	keystroke_l	l	n/a
19.2465	0.12	38493	keystroke_t	t	n/a
19.3365	0.075	38673	keystroke_Key.space	Key.space	n/a
19.5015	0.045	39003	keystroke_s	s	n/a
19.6065	0.075	39213	keystroke_e	e	n/a
19.7415	0.075	39483	keystroke_v	v	n/a
19.8615	0.09	39723	keystroke_e	e	n/a
19.9365	0.12	39873	keystroke_n	n	n/a
20.042	0.0595	40084	keystroke_Key.space	Key.space	n/a
20.5365	0.075	41073	keystroke_r	r	n/a
20.6265	0.06	41253	keystroke_e	e	n/a
20.7465	0.105	41493	keystroke_n	n	n/a
20.8815	0.06	41763	keystroke_d	d	n/a
21.1965	0.1055	42393	keystroke_e	e	n/a
21.287	0.105	42574	keystroke_r	r	n/a
21.393	0.089	42786	keystroke_e	e	n/a
21.572	0.105	43144	keystroke_d	d	n/a
21.692	0.09	43384	keystroke_Key.space	Key.space	n/a
22.2625	0.089	44525	keystroke_n	n	n/a
22.3225	0.104	44645	keystroke_a	a	n/a
22.4125	0.059	44825	keystroke_t	t	n/a
22.4865	0.1055	44973	keystroke_u	u	n/a
22.577	0.09	45154	keystroke_r	r	n/a
22.652	0.105	45304	keystroke_a	a	n/a
22.712	0.06	45424	keystroke_l	l	n/a
22.817	0.09	45634	keystroke_l	l	n/a
22.952	0.075	45904	keystroke_y	y	n/a
23.162	0.09	46324	keystroke_Key.enter	Key.enter	n/a
23.2575	6.9115	46515	prompt	n/a	presenting visitors wiley outdoor\n
24.002	0.09	48004	keystroke_p	p	n/a
24.077	0.1045	48154	keystroke_r	r	n/a
24.1825	0.0895	48365	keystroke_e	e	n/a
24.2565	0.1655	48513	keystroke_s	s	n/a
24.407	0.075	48814	keystroke_e	e	n/a
24.512	0.105	49024	keystroke_n	n	n/a
24.602	0.06	49204	keystroke_t	t	n/a
24.707	0.09	49414	keystroke_i	i	n/a
24.782	0.09	49564	keystroke_n	n	n/a
24.827	0.105	49654	keystroke_g	g	n/a
24.917	0.06	49834	keystroke_Key.space	Key.space	n/a
25.067	0.0905	50134	keystroke_v	v	n/a
25.1725	0.1045	50345	keystroke_i	i	n/a
25.262	0.0605	50524	keystroke_s	s	n/a
25.4275	0.075	50855	keystroke_t	t	n/a
25.7725	0.075	51545	keystroke_Key.backspace	Key.backspace	n/a
26.0125	0.105	52025	keystroke_i	i	n/a
26.1625	0.06	52325	keystroke_t	t	n/a
26.2825	0.09	52565	keystroke_o	o	n/a
26.3425	0.075	52685	keystroke_r	r	n/a
26.4925	0.105	52985	keystroke_s	s	n/a
26.6275	0.0595	53255	keystroke_Key.space	Key.space	n/a
27.1975	0.105	54395	keystroke_w	w	n/a
27.2875	0.06	54575	keystroke_i	i	n/a
27.4075	0.105	54815	keystroke_l	l	n/a
27.5275	0.075	55055	keystroke_e	e	n/a
27.6475	0.075	55295	keystroke_y	y	n/a
27.7375	0.09	55475	keystroke_Key.space	Key.space	n/a
28.1725	0.09	56345	keystroke_o	o	n/a
28.2475	0.09	56495	keystroke_u	u	n/a
28.3825	0.104	56765	keystroke_t	t	n/a
28.6825	0.075	57365	keystroke_d	d	n/a
28.7715	0.046	57543	keystroke_o	o	n/a
28.8625	0.09	57725	keystroke_o	o	n/a
28.9675	0.075	57935	keystroke_r	r	n/a
30.0615	0.106	60123	keystroke_Key.enter	Key.enter	n/a
30.1715	7.3625	60343	prompt	n/a	tactics proved pakistan descriptions\n
30.9165	0.091	61833	keystroke_t	t	n/a
31.0075	0.149	62015	keystroke_a	a	n/a
31.1115	0.105	62223	keystroke_c	c	n/a
31.3215	0.045	62643	keystroke_t	t	n/a
31.4125	0.074	62825	keystroke_i	i	n/a
31.5775	0.104	63155	keystroke_c	c	n/a
31.7265	0.1355	63453	keystroke_s	s	n/a
31.847	0.06	63694	keystroke_Key.space	Key.space	n/a
31.982	0.105	63964	keystroke_p	p	n/a
32.072	0.045	64144	keystroke_r	r	n/a
32.177	0.09	64354	keystroke_o	o	n/a
32.297	0.075	64594	keystroke_v	v	n/a
32.807	0.075	65614	keystroke_e	e	n/a
32.942	0.1205	65884	keystroke_d	d	n/a
33.1825	0.0745	66365	keystroke_Key.space	Key.space	n/a
33.527	0.105	67054	keystroke_p	p	n/a
33.647	0.135	67294	keystroke_a	a	n/a
33.797	0.06	67594	keystroke_k	k	n/a
33.917	0.105	67834	keystroke_i	i	n/a
34.052	0.135	68104	keystroke_s	s	n/a
34.172	0.075	68344	keystroke_t	t	n/a
34.502	0.12	69004	keystroke_a	a	n/a
34.637	0.105	69274	keystroke_n	n	n/a
35.207	0.075	70414	keystroke_Key.space	Key.space	n/a
35.567	0.06	71134	keystroke_d	d	n/a
35.687	0.15	71374	keystroke_e	e	n/a
35.822	0.12	71644	keystroke_s	s	n/a
36.002	0.075	72004	keystroke_c	c	n/a
36.152	0.075	72304	keystroke_r	r	n/a
36.242	0.09	72484	keystroke_i	i	n/a
36.317	0.105	72634	keystroke_p	p	n/a
36.467	0.075	72934	keystroke_t	t	n/a
36.557	0.15	73114	keystroke_i	i	n/a
36.632	0.09	73264	keystroke_o	o	n/a
36.692	0.105	73384	keystroke_n	n	n/a
36.827	0.105	73654	keystroke_s	s	n/a
37.442	0.09	74884	keystroke_Key.enter	Key.enter	n/a
37.5375	5.472	75075	prompt	n/a	earrings oxygen friend secured\n
38.3575	0.12	76715	keystroke_e	e	n/a
38.4475	0.165	76895	keystroke_a	a	n/a
38.5525	0.09	77105	keystroke_r	r	n/a
38.7175	0.075	77435	keystroke_r	r	n/a
38.8675	0.105	77735	keystroke_i	i	n/a
38.9425	0.105	77885	keystroke_n	n	n/a
39.0025	0.09	78005	keystroke_g	g	n/a
39.1675	0.105	78335	keystroke_s	s	n/a
39.2725	0.075	78545	keystroke_Key.space	Key.space	n/a
39.5875	0.105	79175	keystroke_o	o	n/a
39.7075	0.12	79415	keystroke_x	x	n/a
39.9325	0.06	79865	keystroke_y	y	n/a
40.2615	0.0605	80523	keystroke_g	g	n/a
40.367	0.12	80734	keystroke_e	e	n/a
40.457	0.105	80914	keystroke_n	n	n/a
40.757	0.075	81514	keystroke_Key.space	Key.space	n/a
40.997	0.06	81994	keystroke_f	f	n/a
41.132	0.075	82264	keystroke_r	r	n/a
41.237	0.09	82474	keystroke_i	i	n/a
41.342	0.045	82684	keystroke_e	e	n/a
41.432	0.1055	82864	keystroke_n	n	n/a
41.5225	0.105	83045	keystroke_d	d	n/a
41.672	0.0605	83344	keystroke_Key.space	Key.space	n/a
41.8225	0.06	83645	keystroke_s	s	n/a
41.9425	0.075	83885	keystroke_e	e	n/a
42.0625	0.09	84125	keystroke_c	c	n/a
42.1675	0.075	84335	keystroke_u	u	n/a
42.2575	0.105	84515	keystroke_r	r	n/a
42.3315	0.075	84663	keystroke_e	e	n/a
42.4675	0.105	84935	keystroke_d	d	n/a
42.9015	0.105	85803	keystroke_Key.enter	Key.enter	n/a
43.013	5.741	86026	prompt	n/a	composer adjacent drain steering\n
43.7865	0.105	87573	keystroke_c	c	n/a
43.8775	0.059	87755	keystroke_o	o	n/a
43.9215	0.1205	87843	keystroke_m	m	n/a
44.0575	0.12	88115	keystroke_p	p	n/a
44.1625	0.105	88325	keystroke_o	o	n/a
44.3125	0.06	88625	keystroke_s	s	n/a
44.7625	0.15	89525	keystroke_e	e	n/a
44.8825	0.135	89765	keystroke_r	r	n/a
44.9875	0.075	89975	keystroke_Key.space	Key.space	n/a
45.1225	0.075	90245	keystroke_a	a	n/a
45.2725	0.1045	90545	keystroke_d	d	n/a
45.407	0.09	90814	keystroke_j	j	n/a
45.542	0.135	91084	keystroke_a	a	n/a
45.752	0.09	91504	keystroke_c	c	n/a
45.977	0.075	91954	keystroke_e	e	n/a
46.068	0.119	92136	keystroke_n	n	n/a
46.172	0.09	92344	keystroke_t	t	n/a
46.277	0.045	92554	keystroke_Key.space	Key.space	n/a
46.442	0.09	92884	keystroke_d	d	n/a
46.562	0.135	93124	keystroke_r	r	n/a
46.652	0.15	93304	keystroke_a	a	n/a
46.757	0.12	93514	keystroke_i	i	n/a
46.832	0.135	93664	keystroke_n	n	n/a
47.042	0.0755	94084	keystroke_Key.space	Key.space	n/a
47.3575	0.105	94715	keystroke_s	s	n/a
47.4475	0.06	94895	keystroke_t	t	n/a
47.6425	0.105	95285	keystroke_e	e	n/a
47.8075	0.105	95615	keystroke_e	e	n/a
47.9275	0.0895	95855	keystroke_r	r	n/a
48.092	0.105	96184	keystroke_i	i	n/a
48.152	0.135	96304	keystroke_n	n	n/a
48.242	0.075	96484	keystroke_g	g	n/a
48.647	0.105	97294	keystroke_Key.enter	Key.enter	n/a
48.766	5.6725	97532	prompt	n/a	maintained programming tours family\n
49.472	0.105	98944	keystroke_m	m	n/a
49.578	0.089	99156	keystroke_a	a	n/a
49.682	0.09	99364	keystroke_i	i	n/a
49.742	0.1055	99484	keystroke_n	n	n/a
49.952	0.0905	99904	keystroke_t	t	n/a
50.0575	0.135	100115	keystroke_a	a	n/a
50.1775	0.105	100355	keystroke_i	i	n/a
50.2375	0.135	100475	keystroke_n	n	n/a
50.3875	0.03	100775	keystroke_e	e	n/a
50.4925	0.135	100985	keystroke_d	d	n/a
50.5825	0.105	101165	keystroke_Key.space	Key.space	n/a
50.9125	0.075	101825	keystroke_p	p	n/a
51.0025	0.06	102005	keystroke_r	r	n/a
51.0775	0.105	102155	keystroke_o	o	n/a
51.1975	0.03	102395	keystroke_g	g	n/a
51.3025	0.12	102605	keystroke_r	r	n/a
51.3775	0.135	102755	keystroke_a	a	n/a
51.4675	0.075	102935	keystroke_m	m	n/a
51.6175	0.09	103235	keystroke_m	m	n/a
51.7525	0.12	103505	keystroke_i	i	n/a
51.8275	0.12	103655	keystroke_n	n	n/a
51.9025	0.105	103805	keystroke_g	g	n/a
51.9925	0.1045	103985	keystroke_Key.space	Key.space	n/a
52.457	0.09	104914	keystroke_t	t	n/a
52.6075	0.09	105215	keystroke_o	o	n/a
52.6675	0.075	105335	keystroke_u	u	n/a
52.7425	0.075	105485	keystroke_r	r	n/a
52.8775	0.105	105755	keystroke_s	s	n/a
53.222	0.075	106444	keystroke_Key.space	Key.space	n/a
53.447	0.09	106894	keystroke_f	f	n/a
53.523	0.149	107046	keystroke_a	a	n/a
53.657	0.105	107314	keystroke_m	m	n/a
53.807	0.105	107614	keystroke_i	i	n/a
53.897	0.075	107794	keystroke_l	l	n/a
53.973	0.0745	107946	keystroke_y	y	n/a
54.332	0.105	108664	keystroke_Key.enter	Key.enter	n/a
54.4415	5.0825	108883	prompt	n/a	skins dean organizational talking\n
55.1425	0.105	110285	keystroke_s	s	n/a
55.2325	0.06	110465	keystroke_k	k	n/a
55.3675	0.12	110735	keystroke_i	i	n/a
55.4575	0.135	110915	keystroke_n	n	n/a
55.5325	0.135	111065	keystroke_s	s	n/a
55.6525	0.09	111305	keystroke_Key.space	Key.space	n/a
55.7875	0.045	111575	keystroke_d	d	n/a
55.9225	0.12	111845	keystroke_e	e	n/a
55.9825	0.165	111965	keystroke_a	a	n/a
56.1175	0.105	112235	keystroke_n	n	n/a
56.2675	0.0895	112535	keystroke_Key.space	Key.space	n/a
56.538	0.105	113076	keystroke_o	o	n/a
56.658	0.044	113316	keystroke_r	r	n/a
56.792	0.09	113584	keystroke_g	g	n/a
56.897	0.12	113794	keystroke_a	a	n/a
57.003	0.104	114006	keystroke_n	n	n/a
57.092	0.09	114184	keystroke_i	i	n/a
57.197	0.075	114394	keystroke_z	z	n/a
57.377	0.165	114754	keystroke_a	a	n/a
57.497	0.105	114994	keystroke_t	t	n/a
57.572	0.181	115144	keystroke_i	i	n/a
57.632	0.121	115264	keystroke_o	o	n/a
57.722	0.106	115444	keystroke_n	n	n/a
57.842	0.12	115684	keystroke_a	a	n/a
57.933	0.104	115866	keystroke_l	l	n/a
58.337	0.105	116674	keystroke_Key.space	Key.space	n/a
58.622	0.1055	117244	keystroke_t	t	n/a
58.6975	0.135	117395	keystroke_a	a	n/a
58.7725	0.09	117545	keystroke_l	l	n/a
58.8475	0.075	117695	keystroke_k	k	n/a
58.9975	0.135	117995	keystroke_i	i	n/a
59.0725	0.12	118145	keystroke_n	n	n/a
59.1625	0.09	118325	keystroke_g	g	n/a
59.432	0.09	118864	keystroke_Key.enter	Key.enter	n/a
59.5265	6.5675	119053	prompt	n/a	institution lace violations provisions\n
60.2425	0.075	120485	keystroke_i	i	n/a
60.4065	0.091	120813	keystroke_n	n	n/a
60.6325	0.1495	121265	keystroke_s	s	n/a
61.442	0.09	122884	keystroke_t	t	n/a
61.578	0.1045	123156	keystroke_i	i	n/a
61.7725	0.03	123545	keystroke_t	t	n/a
61.9075	0.0895	123815	keystroke_u	u	n/a
62.057	0.075	124114	keystroke_t	t	n/a
62.192	0.15	124384	keystroke_i	i	n/a
62.267	0.105	124534	keystroke_o	o	n/a
62.312	0.12	124624	keystroke_n	n	n/a
62.462	0.105	124924	keystroke_Key.space	Key.space	n/a
63.1225	0.1045	126245	keystroke_l	l	n/a
63.212	0.12	126424	keystroke_a	a	n/a
63.302	0.12	126604	keystroke_c	c	n/a
63.437	0.105	126874	keystroke_e	e	n/a
63.512	0.09	127024	keystroke_Key.space	Key.space	n/a
63.797	0.105	127594	keystroke_v	v	n/a
63.887	0.09	127774	keystroke_i	i	n/a
63.947	0.06	127894	keystroke_o	o	n/a
64.097	0.105	128194	keystroke_l	l	n/a
64.172	0.1355	128344	keystroke_a	a	n/a
64.2625	0.105	128525	keystroke_t	t	n/a
64.3525	0.1345	128705	keystroke_i	i	n/a
64.412	0.12	128824	keystroke_o	o	n/a
64.472	0.12	128944	keystroke_n	n	n/a
64.547	0.135	129094	keystroke_s	s	n/a
64.667	0.06	129334	keystroke_Key.space	Key.space	n/a
64.862	0.09	129724	keystroke_p	p	n/a
64.9375	0.0595	129875	keystroke_r	r	n/a
65.043	0.089	130086	keystroke_o	o	n/a
65.147	0.076	130294	keystroke_v	v	n/a
65.237	0.075	130474	keystroke_i	i	n/a
65.327	0.09	130654	keystroke_s	s	n/a
65.432	0.136	130864	keystroke_i	i	n/a
65.492	0.09	130984	keystroke_o	o	n/a
65.537	0.105	131074	keystroke_n	n	n/a
65.628	0.089	131256	keystroke_s	s	n/a
66.017	0.075	132034	keystroke_Key.enter	Key.enter	n/a
66.0975	6.326	132195	prompt	n/a	foundation peterson gamespot shake\n
66.737	0.076	133474	keystroke_f	f	n/a
66.827	0.076	133654	keystroke_o	o	n/a
66.887	0.045	133774	keystroke_u	u	n/a
67.008	0.089	134016	keystroke_n	n	n/a
67.067	0.075	134134	keystroke_d	d	n/a
67.187	0.165	134374	keystroke_a	a	n/a
67.262	0.135	134524	keystroke_t	t	n/a
67.382	0.136	134764	keystroke_i	i	n/a
67.427	0.105	134854	keystroke_o	o	n/a
67.487	0.12	134974	keystroke_n	n	n/a
67.577	0.06	135154	keystroke_Key.space	Key.space	n/a
67.772	0.105	135544	keystroke_p	p	n/a
67.907	0.1045	135814	keystroke_e	e	n/a
67.997	0.06	135994	keystroke_t	t	n/a
68.132	0.09	136264	keystroke_e	e	n/a
68.192	0.09	136384	keystroke_r	r	n/a
68.447	0.09	136894	keystroke_s	s	n/a
68.552	0.105	137104	keystroke_o	o	n/a
68.612	0.09	137224	keystroke_n	n	n/a
68.747	0.075	137494	keystroke_Key.space	Key.space	n/a
69.182	0.09	138364	keystroke_g	g	n/a
69.242	0.09	138484	keystroke_a	a	n/a
69.302	0.12	138604	keystroke_m	m	n/a
69.392	0.09	138784	keystroke_e	e	n/a
70.637	0.12	141274	keystroke_s	s	n/a
70.742	0.105	141484	keystroke_p	p	n/a
70.817	0.15	141634	keystroke_o	o	n/a
70.982	0.12	141964	keystroke_t	t	n/a
71.072	0.075	142144	keystroke_Key.space	Key.space	n/a
71.3425	0.075	142685	keystroke_s	s	n/a
71.4325	0.09	142865	keystroke_h	h	n/a
71.5075	0.105	143015	keystroke_a	a	n/a
71.5975	0.09	143195	keystroke_k	k	n/a
71.6725	0.105	143345	keystroke_e	e	n/a
72.332	0.09	144664	keystroke_Key.enter	Key.enter	n/a
72.4265	8.6075	144853	prompt	n/a	independence grow mpeg mustn't\n
73.292	0.075	146584	keystroke_i	i	n/a
73.382	0.105	146764	keystroke_n	n	n/a
73.502	0.06	147004	keystroke_d	d	n/a
73.637	0.075	147274	keystroke_e	e	n/a
73.697	0.105	147394	keystroke_p	p	n/a
73.862	0.045	147724	keystroke_e	e	n/a
73.952	0.09	147904	keystroke_n	n	n/a
75.2875	0.045	150575	keystroke_d	d	n/a
75.4225	0.09	150845	keystroke_e	e	n/a
75.5275	0.09	151055	keystroke_n	n	n/a
75.6175	0.12	151235	keystroke_c	c	n/a
75.7225	0.1195	151445	keystroke_e	e	n/a
75.827	0.09	151654	keystroke_Key.space	Key.space	n/a
76.202	0.06	152404	keystroke_g	g	n/a
76.337	0.09	152674	keystroke_r	r	n/a
76.442	0.09	152884	keystroke_o	o	n/a
76.502	0.075	153004	keystroke_w	w	n/a
76.607	0.12	153214	keystroke_n	n	n/a
76.712	0.075	153424	keystroke_Key.space	Key.space	n/a
77.462	0.075	154924	keystroke_Key.backspace	Key.backspace	n/a
77.597	0.09	155194	keystroke_Key.backspace	Key.backspace	n/a
77.9725	0.09	155945	keystroke_Key.space	Key.space	n/a
78.3925	0.105	156785	keystroke_m	m	n/a
78.6025	0.09	157205	keystroke_p	p	n/a
78.8125	0.075	157625	keystroke_e	e	n/a
78.9925	0.075	157985	keystroke_g	g	n/a
79.1875	0.09	158375	keystroke_Key.space	Key.space	n/a
79.4125	0.075	158825	keystroke_m	m	n/a
79.5925	0.075	159185	keystroke_u	u	n/a
79.8325	0.089	159665	keystroke_s	s	n/a
80.088	0.059	160176	keystroke_t	t	n/a
80.252	0.105	160504	keystroke_n	n	n/a
80.463	0.104	160926	keystroke_'	'	n/a
80.582	0.075	161164	keystroke_t	t	n/a
81.017	0.015	162034	keystroke_Key.enter	Key.enter	n/a
81.0365	3.7925	162073	prompt	n/a	stem lang wrist bent\n
81.8875	0.09	163775	keystroke_s	s	n/a
81.9925	0.12	163985	keystroke_t	t	n/a
82.0975	0.12	164195	keystroke_e	e	n/a
82.1875	0.105	164375	keystroke_m	m	n/a
82.2775	0.075	164555	keystroke_Key.space	Key.space	n/a
82.4125	0.09	164825	keystroke_l	l	n/a
82.4875	0.105	164975	keystroke_a	a	n/a
82.5775	0.105	165155	keystroke_n	n	n/a
82.6825	0.105	165365	keystroke_g	g	n/a
82.8025	0.06	165605	keystroke_Key.space	Key.space	n/a
83.0275	0.135	166055	keystroke_w	w	n/a
83.1475	0.0895	166295	keystroke_r	r	n/a
83.222	0.105	166444	keystroke_i	i	n/a
83.328	0.1195	166656	keystroke_s	s	n/a
83.3875	0.135	166775	keystroke_t	t	n/a
83.5075	0.075	167015	keystroke_Key.space	Key.space	n/a
83.8825	0.015	167765	keystroke_d	d	n/a
84.1375	0.075	168275	keystroke_Key.backspace	Key.backspace	n/a
84.1975	0.06	168395	keystroke_b	b	n/a
84.3475	0.06	168695	keystroke_e	e	n/a
84.3925	0.105	168785	keystroke_n	n	n/a
84.4825	0.075	168965	keystroke_t	t	n/a
84.7225	0.105	169445	keystroke_Key.enter	Key.enter	n/a
84.8315	4.6775	169663	prompt	n/a	inner royalty brass shipped\n
85.4875	0.0745	170975	keystroke_i	i	n/a
85.577	0.06	171154	keystroke_n	n	n/a
85.697	0.0905	171394	keystroke_n	n	n/a
85.8625	0.119	171725	keystroke_e	e	n/a
85.952	0.09	171904	keystroke_r	r	n/a
86.027	0.0755	172054	keystroke_Key.space	Key.space	n/a
86.1625	0.075	172325	keystroke_r	r	n/a
86.5225	0.06	173045	keystroke_o	o	n/a
86.6425	0.075	173285	keystroke_y	y	n/a
86.8075	0.12	173615	keystroke_a	a	n/a
86.9565	0.091	173913	keystroke_l	l	n/a
87.0615	0.061	174123	keystroke_t	t	n/a
87.2275	0.09	174455	keystroke_y	y	n/a
87.3625	0.075	174725	keystroke_Key.space	Key.space	n/a
87.8275	0.06	175655	keystroke_b	b	n/a
87.9925	0.105	175985	keystroke_r	r	n/a
88.1125	0.105	176225	keystroke_a	a	n/a
88.1875	0.09	176375	keystroke_s	s	n/a
88.3375	0.075	176675	keystroke_s	s	n/a
88.3975	0.075	176795	keystroke_Key.space	Key.space	n/a
88.5475	0.075	177095	keystroke_s	s	n/a
88.6075	0.075	177215	keystroke_h	h	n/a
88.7275	0.09	177455	keystroke_i	i	n/a
88.8625	0.06	177725	keystroke_p	p	n/a
88.9825	0.075	177965	keystroke_p	p	n/a
89.1025	0.06	178205	keystroke_e	e	n/a
89.2075	0.105	178415	keystroke_d	d	n/a
89.492	0.015	178984	keystroke_Key.enter	Key.enter	n/a
89.512	6.147	179024	prompt	n/a	possession administered coast trauma\n
90.1525	0.075	180305	keystroke_p	p	n/a
90.3025	0.105	180605	keystroke_o	o	n/a
90.4375	0.06	180875	keystroke_s	s	n/a
90.5575	0.075	181115	keystroke_s	s	n/a
90.7075	0.075	181415	keystroke_e	e	n/a
90.8275	0.075	181655	keystroke_s	s	n/a
90.9475	0.105	181895	keystroke_s	s	n/a
91.1275	0.12	182255	keystroke_i	i	n/a
91.2175	0.105	182435	keystroke_o	o	n/a
91.2925	0.12	182585	keystroke_n	n	n/a
91.4275	0.09	182855	keystroke_Key.space	Key.space	n/a
91.5775	0.105	183155	keystroke_a	a	n/a
91.7275	0.0895	183455	keystroke_d	d	n/a
91.818	0.074	183636	keystroke_m	m	n/a
91.907	0.105	183814	keystroke_i	i	n/a
91.997	0.0905	183994	keystroke_n	n	n/a
92.1025	0.105	184205	keystroke_i	i	n/a
92.2525	0.12	184505	keystroke_s	s	n/a
92.3575	0.06	184715	keystroke_t	t	n/a
92.7625	0.105	185525	keystroke_e	e	n/a
92.8525	0.135	185705	keystroke_r	r	n/a
92.9725	0.075	185945	keystroke_e	e	n/a
93.197	0.15	186394	keystroke_d	d	n/a
93.3925	0.12	186785	keystroke_Key.space	Key.space	n/a
93.767	0.12	187534	keystroke_c	c	n/a
93.857	0.09	187714	keystroke_o	o	n/a
93.918	0.164	187836	keystroke_a	a	n/a
93.992	0.15	187984	keystroke_s	s	n/a
94.097	0.135	188194	keystroke_t	t	n/a
94.202	0.09	188404	keystroke_Key.space	Key.space	n/a
94.3825	0.03	188765	keystroke_t	t	n/a
94.4875	0.105	188975	keystroke_r	r	n/a
94.5625	0.12	189125	keystroke_a	a	n/a
94.6975	0.06	189395	keystroke_u	u	n/a
95.1175	0.09	190235	keystroke_m	m	n/a
95.2225	0.135	190445	keystroke_a	a	n/a
95.5525	0.105	191105	keystroke_Key.enter	Key.enter	n/a
95.662	6.072	191324	prompt	n/a	chief appreciation ratios reasons\n
96.5725	0.075	193145	keystroke_c	c	n/a
96.6175	0.105	193235	keystroke_h	h	n/a
97.1425	0.09	194285	keystroke_i	i	n/a
97.2475	0.075	194495	keystroke_e	e	n/a
97.4725	0.135	194945	keystroke_f	f	n/a
97.5925	0.09	195185	keystroke_Key.space	Key.space	n/a
97.7425	0.12	195485	keystroke_a	a	n/a
97.8775	0.045	195755	keystroke_p	p	n/a
97.9675	0.09	195935	keystroke_p	p	n/a
98.0725	0.09	196145	keystroke_r	r	n/a
98.552	0.075	197104	keystroke_e	e	n/a
98.702	0.105	197404	keystroke_c	c	n/a
98.822	0.1055	197644	keystroke_i	i	n/a
98.912	0.1505	197824	keystroke_a	a	n/a
99.0025	0.105	198005	keystroke_t	t	n/a
99.1085	0.134	198217	keystroke_i	i	n/a
99.1825	0.135	198365	keystroke_o	o	n/a
99.2725	0.135	198545	keystroke_n	n	n/a
99.3925	0.075	198785	keystroke_Key.space	Key.space	n/a
99.5875	0.075	199175	keystroke_r	r	n/a
99.6625	0.165	199325	keystroke_a	a	n/a
99.7675	0.105	199535	keystroke_t	t	n/a
99.8425	0.12	199685	keystroke_i	i	n/a
99.9025	0.135	199805	keystroke_o	o	n/a
100.0075	0.09	200015	keystroke_s	s	n/a
100.697	0.075	201394	keystroke_Key.space	Key.space	n/a
100.832	0.09	201664	keystroke_r	r	n/a
100.937	0.06	201874	keystroke_e	e	n/a
100.967	0.18	201934	keystroke_a	a	n/a
101.057	0.121	202114	keystroke_s	s	n/a
101.162	0.075	202324	keystroke_o	o	n/a
101.193	0.104	202386	keystroke_n	n	n/a
101.252	0.12	202504	keystroke_s	s	n/a
101.6275	0.105	203255	keystroke_Key.enter	Key.enter	n/a
101.737	7.437	203474	prompt	n/a	protected observed females songs\n
102.6025	0.075	205205	keystroke_p	p	n/a
102.7225	0.075	205445	keystroke_r	r	n/a
102.7985	0.089	205597	keystroke_o	o	n/a
102.9625	0.0745	205925	keystroke_t	t	n/a
103.112	0.0905	206224	keystroke_e	e	n/a
103.2775	0.09	206555	keystroke_c	c	n/a
103.4575	0.09	206915	keystroke_t	t	n/a
103.5625	0.06	207125	keystroke_e	e	n/a
103.6675	0.15	207335	keystroke_d	d	n/a
103.8025	0.105	207605	keystroke_Key.space	Key.space	n/a
104.297	0.015	208594	keystroke_b	b	n/a
104.3725	0.03	208745	keystroke_o	o	n/a
104.7175	0.06	209435	keystroke_Key.backspace	Key.backspace	n/a
104.8375	0.075	209675	keystroke_Key.backspace	Key.backspace	n/a
105.0925	0.09	210185	keystroke_o	o	n/a
105.2125	0.105	210425	keystroke_b	b	n/a
105.4225	0.075	210845	keystroke_s	s	n/a
105.6475	0.165	211295	keystroke_e	e	n/a
105.8275	0.1205	211655	keystroke_r	r	n/a
106.082	0.09	212164	keystroke_v	v	n/a
106.217	0.06	212434	keystroke_e	e	n/a
106.322	0.135	212644	keystroke_d	d	n/a
106.427	0.075	212854	keystroke_Key.space	Key.space	n/a
106.652	0.09	213304	keystroke_f	f	n/a
106.832	0.075	213664	keystroke_e	e	n/a
106.952	0.12	213904	keystroke_m	m	n/a
107.0875	0.1205	214175	keystroke_a	a	n/a
107.192	0.106	214384	keystroke_l	l	n/a
107.328	0.045	214656	keystroke_e	e	n/a
107.433	0.075	214866	keystroke_d	d	n/a
107.7925	0.06	215585	keystroke_Key.backspace	Key.backspace	n/a
107.8825	0.15	215765	keystroke_s	s	n/a
108.0175	0.105	216035	keystroke_Key.space	Key.space	n/a
108.557	0.06	217114	keystroke_s	s	n/a
108.587	0.105	217174	keystroke_o	o	n/a
108.647	0.105	217294	keystroke_n	n	n/a
108.707	0.09	217414	keystroke_g	g	n/a
108.827	0.136	217654	keystroke_s	s	n/a
109.067	0.105	218134	keystroke_Key.enter	Key.enter	n/a
109.177	11.727	218354	prompt	n/a	researcher encyclopedia wonder measurements\n
110.102	0.12	220204	keystroke_r	r	n/a
110.192	0.091	220384	keystroke_e	e	n/a
110.912	0.075	221824	keystroke_s	s	n/a
111.137	0.1655	222274	keystroke_e	e	n/a
111.2275	0.15	222455	keystroke_a	a	n/a
111.2875	0.12	222575	keystroke_r	r	n/a
111.5125	0.105	223025	keystroke_c	c	n/a
111.6025	0.105	223205	keystroke_h	h	n/a
112.3675	0.12	224735	keystroke_e	e	n/a
112.547	0.105	225094	keystroke_r	r	n/a
112.727	0.06	225454	keystroke_Key.space	Key.space	n/a
114.9495	0.028	229899	keystroke_e	e	n/a
115.0075	0.12	230015	keystroke_n	n	n/a
115.1425	0.12	230285	keystroke_c	c	n/a
115.442	0.105	230884	keystroke_y	y	n/a
116.057	0.09	232114	keystroke_c	c	n/a
116.117	0.075	232234	keystroke_l	l	n/a
116.267	0.105	232534	keystroke_o	o	n/a
116.6425	0.045	233285	keystroke_p	p	n/a
116.7025	0.06	233405	keystroke_e	e	n/a
116.8375	0.09	233675	keystroke_d	d	n/a
116.9575	0.09	233915	keystroke_i	i	n/a
117.0625	0.135	234125	keystroke_a	a	n/a
117.7225	0.075	235445	keystroke_Key.space	Key.space	n/a
117.9025	0.09	235805	keystroke_w	w	n/a
118.008	0.105	236016	keystroke_o	o	n/a
118.052	0.106	236104	keystroke_n	n	n/a
118.128	0.06	236256	keystroke_d	d	n/a
118.277	0.12	236554	keystroke_e	e	n/a
118.352	0.135	236704	keystroke_r	r	n/a
118.457	0.09	236914	keystroke_Key.space	Key.space	n/a
119.027	0.135	238054	keystroke_m	m	n/a
119.192	0.12	238384	keystroke_e	e	n/a
119.297	0.1055	238594	keystroke_a	a	n/a
119.4775	0.09	238955	keystroke_s	s	n/a
119.5825	0.09	239165	keystroke_u	u	n/a
119.6875	0.12	239375	keystroke_r	r	n/a
119.7775	0.09	239555	keystroke_e	e	n/a
119.8975	0.105	239795	keystroke_m	m	n/a
120.0475	0.075	240095	keystroke_e	e	n/a
120.1525	0.09	240305	keystroke_n	n	n/a
120.2575	0.06	240515	keystroke_t	t	n/a
120.4375	0.12	240875	keystroke_s	s	n/a
120.7975	0.105	241595	keystroke_Key.enter	Key.enter	n/a
120.908	8.5155	241816	prompt	n/a	regulation realized mating stanley\n
122.3725	0.105	244745	keystroke_r	r	n/a
122.4625	0.06	244925	keystroke_e	e	n/a
122.6125	0.075	245225	keystroke_g	g	n/a
122.7175	0.075	245435	keystroke_u	u	n/a
122.8525	0.12	245705	keystroke_l	l	n/a
123.392	0.15	246784	keystroke_a	a	n/a
123.587	0.09	247174	keystroke_t	t	n/a
123.692	0.15	247384	keystroke_i	i	n/a
123.738	0.135	247476	keystroke_o	o	n/a
123.812	0.151	247624	keystroke_n	n	n/a
123.992	0.0755	247984	keystroke_Key.space	Key.space	n/a
124.4575	0.09	248915	keystroke_r	r	n/a
124.5325	0.12	249065	keystroke_e	e	n/a
124.6075	0.12	249215	keystroke_a	a	n/a
124.7125	0.105	249425	keystroke_l	l	n/a
124.7875	0.1045	249575	keystroke_i	i	n/a
124.877	0.09	249754	keystroke_z	z	n/a
125.027	0.06	250054	keystroke_e	e	n/a
125.147	0.12	250294	keystroke_d	d	n/a
125.237	0.09	250474	keystroke_Key.space	Key.space	n/a
125.507	0.12	251014	keystroke_m	m	n/a
125.717	0.12	251434	keystroke_a	a	n/a
125.882	0.075	251764	keystroke_t	t	n/a
125.972	0.12	251944	keystroke_i	i	n/a
126.0475	0.1495	252095	keystroke_n	n	n/a
126.107	0.12	252214	keystroke_g	g	n/a
126.212	0.075	252424	keystroke_Key.space	Key.space	n/a
126.722	0.045	253444	keystroke_s	s	n/a
126.797	0.12	253594	keystroke_t	t	n/a
126.902	0.105	253804	keystroke_a	a	n/a
126.977	0.09	253954	keystroke_n	n	n/a
127.082	0.06	254164	keystroke_d	d	n/a
127.487	0.0755	254974	keystroke_Key.backspace	Key.backspace	n/a
127.6975	0.135	255395	keystroke_l	l	n/a
127.8025	0.09	255605	keystroke_e	e	n/a
127.9375	0.09	255875	keystroke_y	y	n/a
129.3325	0.09	258665	keystroke_Key.enter	Key.enter	n/a
129.431	6.7425	258862	prompt	n/a	served all proposal geographical\n
130.2625	0.075	260525	keystroke_s	s	n/a
130.4275	0.09	260855	keystroke_e	e	n/a
130.8175	0.075	261635	keystroke_r	r	n/a
130.9975	0.075	261995	keystroke_v	v	n/a
131.1325	0.06	262265	keystroke_e	e	n/a
131.2525	0.12	262505	keystroke_d	d	n/a
131.3275	0.105	262655	keystroke_Key.space	Key.space	n/a
131.5375	0.1345	263075	keystroke_a	a	n/a
131.657	0.075	263314	keystroke_l	l	n/a
131.777	0.12	263554	keystroke_l	l	n/a
131.882	0.06	263764	keystroke_Key.space	Key.space	n/a
132.002	0.09	264004	keystroke_p	p	n/a
132.107	0.06	264214	keystroke_r	r	n/a
132.197	0.09	264394	keystroke_o	o	n/a
132.483	0.09	264966	keystroke_p	p	n/a
132.617	0.075	265234	keystroke_o	o	n/a
132.722	0.075	265444	keystroke_s	s	n/a
132.842	0.12	265684	keystroke_a	a	n/a
132.932	0.1055	265864	keystroke_l	l	n/a
133.1425	0.075	266285	keystroke_Key.space	Key.space	n/a
133.4425	0.06	266885	keystroke_g	g	n/a
133.5625	0.075	267125	keystroke_e	e	n/a
133.6825	0.1045	267365	keystroke_o	o	n/a
134.042	0.03	268084	keystroke_g	g	n/a
134.162	0.09	268324	keystroke_r	r	n/a
134.942	0.12	269884	keystroke_a	a	n/a
135.077	0.12	270154	keystroke_p	p	n/a
135.182	0.105	270364	keystroke_h	h	n/a
135.272	0.105	270544	keystroke_i	i	n/a
135.347	0.15	270694	keystroke_c	c	n/a
135.437	0.15	270874	keystroke_a	a	n/a
135.542	0.105	271084	keystroke_l	l	n/a
136.112	0.06	272224	keystroke_Key.enter	Key.enter	n/a
136.1765	8.3975	272353	prompt	n/a	oral technical simply novelty\n
136.922	0.075	273844	keystroke_o	o	n/a
137.027	0.12	274054	keystroke_r	r	n/a
137.132	0.135	274264	keystroke_a	a	n/a
137.222	0.12	274444	keystroke_l	l	n/a
137.372	0.09	274744	keystroke_Key.space	Key.space	n/a
137.807	0.075	275614	keystroke_s	s	n/a
138.077	0.06	276154	keystroke_Key.backspace	Key.backspace	n/a
138.167	0.105	276334	keystroke_t	t	n/a
138.257	0.1055	276514	keystroke_e	e	n/a
138.4075	0.12	276815	keystroke_c	c	n/a
139.1275	0.075	278255	keystroke_h	h	n/a
139.2625	0.105	278525	keystroke_n	n	n/a
139.3225	0.105	278645	keystroke_i	i	n/a
139.4125	0.12	278825	keystroke_c	c	n/a
139.4875	0.135	278975	keystroke_a	a	n/a
139.5625	0.09	279125	keystroke_l	l	n/a
139.7725	0.09	279545	keystroke_Key.space	Key.space	n/a
140.087	0.105	280174	keystroke_s	s	n/a
140.192	0.09	280384	keystroke_i	i	n/a
140.267	0.135	280534	keystroke_m	m	n/a
140.372	0.1055	280744	keystroke_p	p	n/a
140.5375	0.105	281075	keystroke_l	l	n/a
140.6875	0.06	281375	keystroke_l	l	n/a
141.4075	0.075	282815	keystroke_Key.backspace	Key.backspace	n/a
141.6025	0.09	283205	keystroke_y	y	n/a
141.8575	0.09	283715	keystroke_Key.space	Key.space	n/a
142.2175	0.09	284435	keystroke_n	n	n/a
142.2625	0.105	284525	keystroke_o	o	n/a
142.4125	0.075	284825	keystroke_v	v	n/a
142.5475	0.09	285095	keystroke_e	e	n/a
142.6075	0.09	285215	keystroke_l	l	n/a
142.7275	0.0595	285455	keystroke_y	y	n/a
143.162	0.075	286324	keystroke_Key.backspace	Key.backspace	n/a
143.238	0.074	286476	keystroke_t	t	n/a
143.762	0.06	287524	keystroke_y	y	n/a
144.482	0.09	288964	keystroke_Key.enter	Key.enter	n/a
144.5765	5.532	289153	prompt	n/a	cashiers wallpapers festival cast\n
145.2775	0.165	290555	keystroke_c	c	n/a
145.3975	0.15	290795	keystroke_a	a	n/a
145.4875	0.15	290975	keystroke_s	s	n/a
145.6225	0.09	291245	keystroke_h	h	n/a
145.6975	0.105	291395	keystroke_i	i	n/a
145.8325	0.105	291665	keystroke_e	e	n/a
145.9075	0.09	291815	keystroke_r	r	n/a
146.0425	0.105	292085	keystroke_s	s	n/a
146.1475	0.06	292295	keystroke_Key.space	Key.space	n/a
146.2675	0.105	292535	keystroke_w	w	n/a
146.3425	0.105	292685	keystroke_a	a	n/a
146.4325	0.06	292865	keystroke_l	l	n/a
146.5225	0.075	293045	keystroke_l	l	n/a
146.717	0.075	293434	keystroke_p	p	n/a
146.793	0.119	293586	keystroke_a	a	n/a
146.897	0.09	293794	keystroke_p	p	n/a
147.002	0.09	294004	keystroke_e	e	n/a
147.077	0.075	294154	keystroke_r	r	n/a
147.197	0.135	294394	keystroke_s	s	n/a
147.302	0.06	294604	keystroke_Key.space	Key.space	n/a
147.422	0.105	294844	keystroke_f	f	n/a
147.542	0.09	295084	keystroke_e	e	n/a
147.662	0.12	295324	keystroke_s	s	n/a
147.752	0.09	295504	keystroke_t	t	n/a
147.857	0.12	295714	keystroke_i	i	n/a
147.962	0.091	295924	keystroke_v	v	n/a
148.022	0.135	296044	keystroke_a	a	n/a
148.112	0.12	296224	keystroke_l	l	n/a
148.247	0.075	296494	keystroke_Key.space	Key.space	n/a
149.1925	0.135	298385	keystroke_c	c	n/a
149.2975	0.165	298595	keystroke_a	a	n/a
149.3875	0.255	298775	keystroke_s	s	n/a
149.5675	0.135	299135	keystroke_t	t	n/a
149.9875	0.12	299975	keystroke_Key.enter	Key.enter	n/a
150.111	4.2125	300222	prompt	n/a	ranks packed wires unlikely\n
150.8425	0.105	301685	keystroke_r	r	n/a
150.9175	0.12	301835	keystroke_a	a	n/a
151.0225	0.09	302045	keystroke_n	n	n/a
151.0975	0.12	302195	keystroke_k	k	n/a
151.2025	0.105	302405	keystroke_s	s	n/a
151.2925	0.075	302585	keystroke_Key.space	Key.space	n/a
151.5475	0.105	303095	keystroke_p	p	n/a
151.6075	0.15	303215	keystroke_a	a	n/a
151.7275	0.105	303455	keystroke_c	c	n/a
151.7875	0.105	303575	keystroke_k	k	n/a
151.8925	0.06	303785	keystroke_e	e	n/a
151.9975	0.135	303995	keystroke_d	d	n/a
152.1175	0.0895	304235	keystroke_Key.space	Key.space	n/a
152.312	0.09	304624	keystroke_w	w	n/a
152.403	0.104	304806	keystroke_i	i	n/a
152.477	0.09	304954	keystroke_r	r	n/a
152.582	0.12	305164	keystroke_e	e	n/a
152.672	0.15	305344	keystroke_s	s	n/a
152.807	0.09	305614	keystroke_Key.space	Key.space	n/a
152.942	0.06	305884	keystroke_u	u	n/a
153.092	0.09	306184	keystroke_n	n	n/a
153.227	0.15	306454	keystroke_l	l	n/a
153.362	0.09	306724	keystroke_i	i	n/a
153.512	0.12	307024	keystroke_k	k	n/a
153.647	0.075	307294	keystroke_e	e	n/a
153.767	0.12	307534	keystroke_l	l	n/a
153.872	0.075	307744	keystroke_y	y	n/a
154.2315	0.091	308463	keystroke_Key.enter	Key.enter	n/a
154.3265	6.3425	308653	prompt	n/a	typical junior leadership camcorders\n
155.342	0.075	310684	keystroke_t	t	n/a
155.492	0.075	310984	keystroke_y	y	n/a
155.612	0.105	311224	keystroke_p	p	n/a
155.702	0.105	311404	keystroke_i	i	n/a
155.792	0.135	311584	keystroke_c	c	n/a
155.882	0.135	311764	keystroke_a	a	n/a
155.972	0.12	311944	keystroke_l	l	n/a
156.077	0.075	312154	keystroke_Key.space	Key.space	n/a
156.227	0.105	312454	keystroke_j	j	n/a
156.392	0.075	312784	keystroke_u	u	n/a
156.542	0.09	313084	keystroke_n	n	n/a
156.602	0.165	313204	keystroke_i	i	n/a
156.707	0.12	313414	keystroke_o	o	n/a
156.797	0.12	313594	keystroke_r	r	n/a
156.887	0.06	313774	keystroke_Key.space	Key.space	n/a
157.172	0.105	314344	keystroke_l	l	n/a
157.262	0.075	314524	keystroke_e	e	n/a
157.307	0.165	314614	keystroke_a	a	n/a
157.442	0.075	314884	keystroke_d	d	n/a
157.6075	0.105	315215	keystroke_e	e	n/a
157.6675	0.12	315335	keystroke_r	r	n/a
157.8025	0.105	315605	keystroke_s	s	n/a
157.8925	0.09	315785	keystroke_h	h	n/a
157.9975	0.1345	315995	keystroke_i	i	n/a
158.147	0.1205	316294	keystroke_p	p	n/a
158.4625	0.075	316925	keystroke_Key.space	Key.space	n/a
158.5975	0.105	317195	keystroke_c	c	n/a
158.9575	0.105	317915	keystroke_a	a	n/a
159.0475	0.09	318095	keystroke_m	m	n/a
159.3175	0.105	318635	keystroke_c	c	n/a
159.4075	0.09	318815	keystroke_o	o	n/a
159.4985	0.104	318997	keystroke_r	r	n/a
159.6325	0.075	319265	keystroke_d	d	n/a
159.7975	0.105	319595	keystroke_e	e	n/a
159.8575	0.105	319715	keystroke_r	r	n/a
160.2475	0.105	320495	keystroke_s	s	n/a
160.5775	0.09	321155	keystroke_Key.enter	Key.enter	n/a
160.6715	4.857	321343	prompt	n/a	crawford belarus stylish earth\n
161.3425	0.06	322685	keystroke_c	c	n/a
161.4775	0.09	322955	keystroke_r	r	n/a
161.5825	0.135	323165	keystroke_a	a	n/a
161.7325	0.12	323465	keystroke_w	w	n/a
161.9725	0.0895	323945	keystroke_f	f	n/a
162.092	0.105	324184	keystroke_o	o	n/a
162.212	0.06	324424	keystroke_r	r	n/a
162.3325	0.12	324665	keystroke_d	d	n/a
162.4375	0.06	324875	keystroke_Key.space	Key.space	n/a
162.6175	0.06	325235	keystroke_b	b	n/a
162.7675	0.06	325535	keystroke_e	e	n/a
162.8575	0.105	325715	keystroke_l	l	n/a
162.9475	0.15	325895	keystroke_a	a	n/a
163.0525	0.105	326105	keystroke_r	r	n/a
163.1875	0.09	326375	keystroke_u	u	n/a
163.2925	0.105	326585	keystroke_s	s	n/a
163.4125	0.075	326825	keystroke_Key.space	Key.space	n/a
163.5925	0.105	327185	keystroke_s	s	n/a
163.6675	0.09	327335	keystroke_t	t	n/a
163.7725	0.075	327545	keystroke_y	y	n/a
163.8625	0.105	327725	keystroke_l	l	n/a
163.9825	0.09	327965	keystroke_i	i	n/a
164.1775	0.075	328355	keystroke_s	s	n/a
164.2675	0.09	328535	keystroke_h	h	n/a
164.4175	0.075	328835	keystroke_Key.space	Key.space	n/a
164.5525	0.15	329105	keystroke_e	e	n/a
164.6425	0.15	329285	keystroke_a	a	n/a
164.7325	0.075	329465	keystroke_r	r	n/a
164.9875	0.06	329975	keystroke_t	t	n/a
165.0925	0.105	330185	keystroke_h	h	n/a
165.4075	0.12	330815	keystroke_Key.enter	Key.enter	n/a
165.5315	7.0925	331063	prompt	n/a	hitting privacy plastics tagged\n
166.2025	0.075	332405	keystroke_h	h	n/a
166.2625	0.075	332525	keystroke_i	i	n/a
166.3675	0.045	332735	keystroke_t	t	n/a
166.4575	0.075	332915	keystroke_t	t	n/a
166.5625	0.12	333125	keystroke_i	i	n/a
166.6375	0.105	333275	keystroke_n	n	n/a
166.6975	0.105	333395	keystroke_g	g	n/a
166.7725	0.105	333545	keystroke_Key.space	Key.space	n/a
166.9075	0.075	333815	keystroke_p	p	n/a
166.9825	0.075	333965	keystroke_r	r	n/a
167.0875	0.09	334175	keystroke_i	i	n/a
167.6275	0.015	335255	keystroke_=	=	n/a
167.6275	0.015	335255	keystroke_Key.backspace	Key.backspace	n/a
167.6575	0.015	335315	keystroke_=	=	n/a
168.347	0.0755	336694	keystroke_Key.backspace	Key.backspace	n/a
169.067	0.1055	338134	keystroke_v	v	n/a
169.1875	0.165	338375	keystroke_a	a	n/a
169.3075	0.12	338615	keystroke_c	c	n/a
169.442	0.075	338884	keystroke_y	y	n/a
169.592	0.0755	339184	keystroke_Key.space	Key.space	n/a
169.9675	0.075	339935	keystroke_p	p	n/a
170.1025	0.0895	340205	keystroke_l	l	n/a
170.1325	0.1505	340265	keystroke_a	a	n/a
170.252	0.24	340504	keystroke_s	s	n/a
170.447	0.12	340894	keystroke_t	t	n/a
170.582	0.106	341164	keystroke_i	i	n/a
170.717	0.09	341434	keystroke_c	c	n/a
170.823	0.12	341646	keystroke_s	s	n/a
171.182	0.075	342364	keystroke_Key.space	Key.space	n/a
171.497	0.075	342994	keystroke_t	t	n/a
171.573	0.119	343146	keystroke_a	a	n/a
171.677	0.165	343354	keystroke_g	g	n/a
171.932	0.105	343864	keystroke_g	g	n/a
172.172	0.045	344344	keystroke_e	e	n/a
172.277	0.105	344554	keystroke_d	d	n/a
172.532	0.09	345064	keystroke_Key.enter	Key.enter	n/a
172.6295	9.849	345259	prompt	n/a	picked blink revenue dump\n
173.492	0.105	346984	keystroke_p	p	n/a
173.627	0.06	347254	keystroke_i	i	n/a
173.792	0.135	347584	keystroke_c	c	n/a
173.912	0.09	347824	keystroke_k	k	n/a
174.0775	0.06	348155	keystroke_e	e	n/a
174.2425	0.12	348485	keystroke_d	d	n/a
174.3325	0.09	348665	keystroke_Key.space	Key.space	n/a
175.6975	0.06	351395	keystroke_Key.backspace	Key.backspace	n/a
175.8625	0.075	351725	keystroke_Key.backspace	Key.backspace	n/a
176.0125	0.06	352025	keystroke_Key.backspace	Key.backspace	n/a
176.1925	0.045	352385	keystroke_Key.backspace	Key.backspace	n/a
176.3575	0.045	352715	keystroke_Key.backspace	Key.backspace	n/a
176.5375	0.045	353075	keystroke_Key.backspace	Key.backspace	n/a
176.7175	0.045	353435	keystroke_Key.backspace	Key.backspace	n/a
176.8675	0.06	353735	keystroke_Key.backspace	Key.backspace	n/a
177.5875	0.059	355175	keystroke_p	p	n/a
177.6925	0.09	355385	keystroke_i	i	n/a
177.8275	0.105	355655	keystroke_c	c	n/a
177.9165	0.0755	355833	keystroke_k	k	n/a
178.022	0.06	356044	keystroke_e	e	n/a
178.142	0.12	356284	keystroke_d	d	n/a
178.217	0.1055	356434	keystroke_Key.space	Key.space	n/a
178.772	0.09	357544	keystroke_b	b	n/a
178.847	0.06	357694	keystroke_l	l	n/a
178.997	0.075	357994	keystroke_i	i	n/a
179.1175	0.1345	358235	keystroke_n	n	n/a
179.1925	0.1045	358385	keystroke_k	k	n/a
179.3575	0.105	358715	keystroke_Key.space	Key.space	n/a
179.8975	0.09	359795	keystroke_r	r	n/a
180.0025	0.06	360005	keystroke_e	e	n/a
180.1525	0.06	360305	keystroke_v	v	n/a
180.2725	0.09	360545	keystroke_e	e	n/a
180.3775	0.06	360755	keystroke_n	n	n/a
180.4975	0.075	360995	keystroke_u	u	n/a
180.6325	0.135	361265	keystroke_e	e	n/a
180.7225	0.075	361445	keystroke_Key.space	Key.space	n/a
180.9775	0.105	361955	keystroke_d	d	n/a
181.0525	0.06	362105	keystroke_u	u	n/a
181.2775	0.135	362555	keystroke_p	p	n/a
181.6975	0.075	363395	keystroke_Key.backspace	Key.backspace	n/a
181.9675	0.12	363935	keystroke_m	m	n/a
182.1025	0.105	364205	keystroke_p	p	n/a
182.3875	0.09	364775	keystroke_Key.enter	Key.enter	n/a
182.4815	7.6475	364963	prompt	n/a	stockings specials topic representatives\n
183.1825	0.135	366365	keystroke_s	s	n/a
183.2725	0.09	366545	keystroke_t	t	n/a
183.3775	0.075	366755	keystroke_o	o	n/a
183.4675	0.105	366935	keystroke_c	c	n/a
183.5575	0.06	367115	keystroke_k	k	n/a
183.6775	0.12	367355	keystroke_i	i	n/a
183.7525	0.12	367505	keystroke_n	n	n/a
183.7825	0.075	367565	keystroke_g	g	n/a
183.9775	0.105	367955	keystroke_s	s	n/a
184.0525	0.075	368105	keystroke_Key.space	Key.space	n/a
184.1575	0.075	368315	keystroke_s	s	n/a
184.2775	0.105	368555	keystroke_p	p	n/a
184.3375	0.075	368675	keystroke_e	e	n/a
184.4725	0.105	368945	keystroke_c	c	n/a
184.5475	0.075	369095	keystroke_i	i	n/a
184.6525	0.09	369305	keystroke_a	a	n/a
184.7875	0.09	369575	keystroke_l	l	n/a
185.3125	0.075	370625	keystroke_Key.space	Key.space	n/a
185.6275	0.06	371255	keystroke_Key.backspace	Key.backspace	n/a
185.8225	0.15	371645	keystroke_s	s	n/a
185.9425	0.09	371885	keystroke_Key.space	Key.space	n/a
186.2125	0.075	372425	keystroke_t	t	n/a
186.3175	0.06	372635	keystroke_o	o	n/a
186.5875	0.075	373175	keystroke_p	p	n/a
186.7375	0.075	373475	keystroke_i	i	n/a
186.8275	0.18	373655	keystroke_c	c	n/a
186.9925	0.105	373985	keystroke_Key.space	Key.space	n/a
187.4875	0.09	374975	keystroke_r	r	n/a
187.5925	0.045	375185	keystroke_e	e	n/a
187.9825	0.09	375965	keystroke_p	p	n/a
188.1925	0.105	376385	keystroke_r	r	n/a
188.2825	0.075	376565	keystroke_e	e	n/a
188.3725	0.18	376745	keystroke_s	s	n/a
188.5075	0.12	377015	keystroke_e	e	n/a
188.6425	0.12	377285	keystroke_n	n	n/a
188.7175	0.075	377435	keystroke_t	t	n/a
188.8975	0.135	377795	keystroke_a	a	n/a
188.9875	0.09	377975	keystroke_t	t	n/a
189.0925	0.09	378185	keystroke_i	i	n/a
189.1975	0.075	378395	keystroke_v	v	n/a
189.3325	0.12	378665	keystroke_e	e	n/a
189.4225	0.135	378845	keystroke_s	s	n/a
190.0375	0.0895	380075	keystroke_Key.enter	Key.enter	n/a
190.133	7.2405	380266	prompt	n/a	you'd fuzzy preliminary recipients\n
190.952	0.06	381904	keystroke_y	y	n/a
191.042	0.075	382084	keystroke_o	o	n/a
191.102	0.075	382204	keystroke_u	u	n/a
191.252	0.12	382504	keystroke_'	'	n/a
191.402	0.12	382804	keystroke_d	d	n/a
191.507	0.09	383014	keystroke_Key.space	Key.space	n/a
191.6875	0.09	383375	keystroke_f	f	n/a
191.7925	0.06	383585	keystroke_u	u	n/a
191.8975	0.075	383795	keystroke_z	z	n/a
192.0175	0.1195	384035	keystroke_z	z	n/a
192.182	0.09	384364	keystroke_y	y	n/a
192.317	0.075	384634	keystroke_Key.space	Key.space	n/a
192.557	0.105	385114	keystroke_p	p	n/a
192.632	0.105	385264	keystroke_r	r	n/a
192.722	0.09	385444	keystroke_e	e	n/a
192.857	0.105	385714	keystroke_l	l	n/a
192.932	0.15	385864	keystroke_i	i	n/a
193.067	0.105	386134	keystroke_m	m	n/a
193.772	0.06	387544	keystroke_i	i	n/a
193.938	0.105	387876	keystroke_n	n	n/a
194.267	0.165	388534	keystroke_a	a	n/a
194.372	0.12	388744	keystroke_r	r	n/a
194.477	0.076	388954	keystroke_y	y	n/a
194.627	0.075	389254	keystroke_Key.space	Key.space	n/a
195.257	0.12	390514	keystroke_r	r	n/a
195.362	0.09	390724	keystroke_e	e	n/a
195.647	0.0755	391294	keystroke_c	c	n/a
195.7675	0.075	391535	keystroke_i	i	n/a
195.8875	0.09	391775	keystroke_p	p	n/a
196.2925	0.09	392585	keystroke_i	i	n/a
196.4875	0.075	392975	keystroke_e	e	n/a
196.6225	0.105	393245	keystroke_n	n	n/a
196.8475	0.06	393695	keystroke_t	t	n/a
196.9675	0.12	393935	keystroke_s	s	n/a
197.2675	0.105	394535	keystroke_Key.enter	Key.enter	n/a
197.3765	6.343	394753	prompt	n/a	monitors humanities gift extensions\n
198.0175	0.09	396035	keystroke_m	m	n/a
198.1525	0.075	396305	keystroke_o	o	n/a
198.2425	0.075	396485	keystroke_n	n	n/a
198.3475	0.09	396695	keystroke_i	i	n/a
198.4975	0.06	396995	keystroke_t	t	n/a
198.5725	0.105	397145	keystroke_o	o	n/a
198.6625	0.075	397325	keystroke_r	r	n/a
198.8425	0.105	397685	keystroke_s	s	n/a
198.9625	0.105	397925	keystroke_Key.space	Key.space	n/a
199.4125	0.06	398825	keystroke_h	h	n/a
199.5475	0.06	399095	keystroke_u	u	n/a
199.6825	0.09	399365	keystroke_m	m	n/a
199.7875	0.105	399575	keystroke_a	a	n/a
199.8775	0.075	399755	keystroke_n	n	n/a
199.9825	0.09	399965	keystroke_i	i	n/a
200.0575	0.075	400115	keystroke_t	t	n/a
200.1925	0.075	400385	keystroke_i	i	n/a
200.3425	0.045	400685	keystroke_e	e	n/a
200.5225	0.135	401045	keystroke_s	s	n/a
200.6875	0.09	401375	keystroke_Key.space	Key.space	n/a
201.4825	0.045	402965	keystroke_g	g	n/a
201.5425	0.06	403085	keystroke_i	i	n/a
201.5875	0.06	403175	keystroke_f	f	n/a
201.7375	0.09	403475	keystroke_t	t	n/a
201.8425	0.06	403685	keystroke_Key.space	Key.space	n/a
202.0075	0.075	404015	keystroke_e	e	n/a
202.1725	0.105	404345	keystroke_x	x	n/a
202.2925	0.105	404585	keystroke_t	t	n/a
202.4125	0.06	404825	keystroke_e	e	n/a
202.5025	0.105	405005	keystroke_n	n	n/a
202.5775	0.09	405155	keystroke_s	s	n/a
202.6825	0.12	405365	keystroke_i	i	n/a
202.7275	0.105	405455	keystroke_o	o	n/a
202.8025	0.09	405605	keystroke_n	n	n/a
202.8625	0.09	405725	keystroke_s	s	n/a
203.5975	0.12	407195	keystroke_Key.enter	Key.enter	n/a
203.728	7.956	407456	prompt	n/a	manufacturing unavailable competitive technology\n
204.4525	0.12	408905	keystroke_m	m	n/a
204.6025	0.12	409205	keystroke_a	a	n/a
204.7075	0.075	409415	keystroke_n	n	n/a
204.8575	0.075	409715	keystroke_u	u	n/a
205.0225	0.075	410045	keystroke_f	f	n/a
205.1275	0.135	410255	keystroke_a	a	n/a
205.2175	0.09	410435	keystroke_c	c	n/a
205.3975	0.045	410795	keystroke_t	t	n/a
205.4725	0.075	410945	keystroke_u	u	n/a
205.5325	0.074	411065	keystroke_r	r	n/a
205.6515	0.106	411303	keystroke_i	i	n/a
205.7265	0.136	411453	keystroke_n	n	n/a
205.8175	0.09	411635	keystroke_g	g	n/a
205.9225	0.044	411845	keystroke_Key.space	Key.space	n/a
206.087	0.061	412174	keystroke_u	u	n/a
206.223	0.105	412446	keystroke_n	n	n/a
206.313	0.12	412626	keystroke_a	a	n/a
206.7175	0.105	413435	keystroke_v	v	n/a
206.8525	0.135	413705	keystroke_a	a	n/a
207.4825	0.06	414965	keystroke_i	i	n/a
207.6475	0.09	415295	keystroke_l	l	n/a
207.7225	0.165	415445	keystroke_a	a	n/a
207.8275	0.105	415655	keystroke_b	b	n/a
207.9025	0.09	415805	keystroke_l	l	n/a
208.0225	0.09	416045	keystroke_e	e	n/a
208.4125	0.06	416825	keystroke_Key.space	Key.space	n/a
208.757	0.105	417514	keystroke_c	c	n/a
208.832	0.075	417664	keystroke_o	o	n/a
208.892	0.12	417784	keystroke_m	m	n/a
209.027	0.105	418054	keystroke_p	p	n/a
209.1175	0.1195	418235	keystroke_e	e	n/a
209.192	0.075	418384	keystroke_t	t	n/a
209.282	0.06	418564	keystroke_i	i	n/a
209.357	0.06	418714	keystroke_t	t	n/a
209.432	0.09	418864	keystroke_i	i	n/a
209.537	0.09	419074	keystroke_v	v	n/a
209.687	0.105	419374	keystroke_e	e	n/a
209.777	0.09	419554	keystroke_Key.space	Key.space	n/a
210.242	0.075	420484	keystroke_t	t	n/a
210.332	0.075	420664	keystroke_e	e	n/a
210.452	0.105	420904	keystroke_c	c	n/a
210.587	0.075	421174	keystroke_h	h	n/a
210.767	0.105	421534	keystroke_n	n	n/a
210.842	0.09	421684	keystroke_o	o	n/a
210.977	0.06	421954	keystroke_l	l	n/a
211.097	0.12	422194	keystroke_o	o	n/a
211.172	0.075	422344	keystroke_g	g	n/a
211.277	0.075	422554	keystroke_y	y	n/a
211.637	0.045	423274	keystroke_Key.enter	Key.enter	n/a
211.6865	4.8425	423373	prompt	n/a	humidity slide contains drop\n
212.447	0.06	424894	keystroke_h	h	n/a
212.567	0.0755	425134	keystroke_u	u	n/a
212.732	0.075	425464	keystroke_m	m	n/a
212.822	0.075	425644	keystroke_i	i	n/a
212.942	0.09	425884	keystroke_d	d	n/a
213.017	0.09	426034	keystroke_i	i	n/a
213.152	0.06	426304	keystroke_t	t	n/a
213.257	0.09	426514	keystroke_y	y	n/a
213.377	0.0605	426754	keystroke_Key.space	Key.space	n/a
213.632	0.075	427264	keystroke_s	s	n/a
214.007	0.105	428014	keystroke_l	l	n/a
214.067	0.12	428134	keystroke_i	i	n/a
214.202	0.045	428404	keystroke_d	d	n/a
214.3225	0.1045	428645	keystroke_e	e	n/a
214.4425	0.09	428885	keystroke_Key.space	Key.space	n/a
214.607	0.09	429214	keystroke_c	c	n/a
214.667	0.075	429334	keystroke_o	o	n/a
214.727	0.09	429454	keystroke_n	n	n/a
214.802	0.09	429604	keystroke_t	t	n/a
214.877	0.09	429754	keystroke_a	a	n/a
214.922	0.105	429844	keystroke_i	i	n/a
214.982	0.105	429964	keystroke_n	n	n/a
215.072	0.12	430144	keystroke_s	s	n/a
215.207	0.09	430414	keystroke_Key.space	Key.space	n/a
215.732	0.12	431464	keystroke_d	d	n/a
215.867	0.105	431734	keystroke_r	r	n/a
215.942	0.105	431884	keystroke_o	o	n/a
215.987	0.12	431974	keystroke_p	p	n/a
216.4525	0.0745	432905	keystroke_Key.enter	Key.enter	n/a
216.5425	11.5065	433085	prompt	n/a	victoria manufactured mile clone\n
217.382	0.075	434764	keystroke_v	v	n/a
217.487	0.105	434974	keystroke_i	i	n/a
217.577	0.0755	435154	keystroke_c	c	n/a
217.7275	0.075	435455	keystroke_t	t	n/a
217.8175	0.075	435635	keystroke_o	o	n/a
217.9075	0.06	435815	keystroke_r	r	n/a
217.9975	0.09	435995	keystroke_i	i	n/a
218.1175	0.1345	436235	keystroke_a	a	n/a
219.6025	0.105	439205	keystroke_Key.space	Key.space	n/a
219.7975	0.105	439595	keystroke_m	m	n/a
219.9035	0.104	439807	keystroke_a	a	n/a
219.9775	0.06	439955	keystroke_n	n	n/a
220.0975	0.075	440195	keystroke_u	u	n/a
220.2475	0.105	440495	keystroke_f	f	n/a
220.3535	0.149	440707	keystroke_a	a	n/a
220.4725	0.12	440945	keystroke_c	c	n/a
220.6675	0.09	441335	keystroke_t	t	n/a
220.7425	0.09	441485	keystroke_u	u	n/a
220.8475	0.075	441695	keystroke_r	r	n/a
220.9075	0.09	441815	keystroke_e	e	n/a
221.0425	0.135	442085	keystroke_d	d	n/a
224.2695	0.043	448539	keystroke_Key.space	Key.space	n/a
224.5525	0.12	449105	keystroke_m	m	n/a
224.7775	0.09	449555	keystroke_i	i	n/a
224.8825	0.12	449765	keystroke_l	l	n/a
225.0475	0.075	450095	keystroke_y	y	n/a
225.4075	0.075	450815	keystroke_Key.backspace	Key.backspace	n/a
225.4975	0.09	450995	keystroke_e	e	n/a
225.6025	0.0895	451205	keystroke_Key.space	Key.space	n/a
226.247	0.075	452494	keystroke_c	c	n/a
226.262	0.045	452524	keystroke_l	l	n/a
226.382	0.09	452764	keystroke_o	o	n/a
226.442	0.105	452884	keystroke_n	n	n/a
226.502	0.06	453004	keystroke_e	e	n/a
227.957	0.0905	455914	keystroke_Key.enter	Key.enter	n/a
228.0605	7.0835	456121	prompt	n/a	wagon tutorials volkswagen warehouse\n
228.797	0.105	457594	keystroke_w	w	n/a
228.872	0.15	457744	keystroke_a	a	n/a
229.007	0.105	458014	keystroke_g	g	n/a
229.127	0.075	458254	keystroke_o	o	n/a
229.172	0.12	458344	keystroke_n	n	n/a
229.262	0.075	458524	keystroke_Key.space	Key.space	n/a
229.442	0.06	458884	keystroke_t	t	n/a
229.517	0.09	459034	keystroke_u	u	n/a
229.622	0.06	459244	keystroke_t	t	n/a
229.727	0.105	459454	keystroke_o	o	n/a
230.012	0.06	460024	keystroke_r	r	n/a
230.087	0.075	460174	keystroke_i	i	n/a
230.177	0.09	460354	keystroke_a	a	n/a
230.252	0.105	460504	keystroke_l	l	n/a
230.372	0.09	460744	keystroke_s	s	n/a
230.747	0.075	461494	keystroke_Key.space	Key.space	n/a
231.287	0.03	462574	keystroke_v	v	n/a
231.302	0.03	462604	keystroke_o	o	n/a
231.377	0.075	462754	keystroke_l	l	n/a
231.528	0.089	463056	keystroke_k	k	n/a
231.677	0.076	463354	keystroke_s	s	n/a
231.872	0.12	463744	keystroke_w	w	n/a
231.947	0.1655	463894	keystroke_a	a	n/a
232.0975	0.09	464195	keystroke_g	g	n/a
232.2625	0.0895	464525	keystroke_e	e	n/a
232.368	0.104	464736	keystroke_n	n	n/a
232.502	0.06	465004	keystroke_Key.space	Key.space	n/a
232.817	0.12	465634	keystroke_w	w	n/a
232.892	0.135	465784	keystroke_a	a	n/a
232.982	0.135	465964	keystroke_r	r	n/a
233.102	0.105	466204	keystroke_e	e	n/a
233.342	0.045	466684	keystroke_h	h	n/a
233.402	0.105	466804	keystroke_o	o	n/a
233.492	0.075	466984	keystroke_u	u	n/a
233.552	0.135	467104	keystroke_s	s	n/a
233.627	0.15	467254	keystroke_e	e	n/a
235.038	0.105	470076	keystroke_Key.enter	Key.enter	n/a
235.148	4.8705	470296	prompt	n/a	blend acquired striking issue\n
235.9375	0.09	471875	keystroke_b	b	n/a
236.0425	0.075	472085	keystroke_l	l	n/a
236.1325	0.06	472265	keystroke_e	e	n/a
236.2075	0.09	472415	keystroke_n	n	n/a
236.2825	0.12	472565	keystroke_d	d	n/a
236.3575	0.09	472715	keystroke_Key.space	Key.space	n/a
236.7175	0.135	473435	keystroke_a	a	n/a
236.8375	0.135	473675	keystroke_c	c	n/a
237.1225	0.12	474245	keystroke_q	q	n/a
237.2575	0.045	474515	keystroke_u	u	n/a
237.2875	0.105	474575	keystroke_i	i	n/a
237.3625	0.105	474725	keystroke_r	r	n/a
237.4525	0.075	474905	keystroke_e	e	n/a
237.5875	0.12	475175	keystroke_d	d	n/a
237.6775	0.09	475355	keystroke_Key.space	Key.space	n/a
237.8575	0.1045	475715	keystroke_s	s	n/a
237.9325	0.0595	475865	keystroke_t	t	n/a
238.052	0.105	476104	keystroke_r	r	n/a
238.172	0.06	476344	keystroke_i	i	n/a
238.307	0.06	476614	keystroke_k	k	n/a
238.427	0.135	476854	keystroke_i	i	n/a
238.517	0.12	477034	keystroke_n	n	n/a
238.592	0.12	477184	keystroke_g	g	n/a
238.697	0.09	477394	keystroke_Key.space	Key.space	n/a
239.3125	0.0895	478625	keystroke_i	i	n/a
239.373	0.059	478746	keystroke_s	s	n/a
239.4775	0.09	478955	keystroke_s	s	n/a
239.5675	0.09	479135	keystroke_u	u	n/a
239.6575	0.09	479315	keystroke_e	e	n/a
239.9275	0.09	479855	keystroke_Key.enter	Key.enter	n/a
240.0315	4.5775	480063	prompt	n/a	enzyme organizer peeing pros\n
240.992	0.06	481984	keystroke_e	e	n/a
241.068	0.119	482136	keystroke_n	n	n/a
241.202	0.12	482404	keystroke_z	z	n/a
241.337	0.06	482674	keystroke_y	y	n/a
241.517	0.09	483034	keystroke_m	m	n/a
241.637	0.12	483274	keystroke_e	e	n/a
241.742	0.09	483484	keystroke_Key.space	Key.space	n/a
241.922	0.105	483844	keystroke_o	o	n/a
242.012	0.0455	484024	keystroke_r	r	n/a
242.1775	0.09	484355	keystroke_g	g	n/a
242.2525	0.09	484505	keystroke_a	a	n/a
242.3575	0.105	484715	keystroke_n	n	n/a
242.4175	0.105	484835	keystroke_i	i	n/a
242.5075	0.09	485015	keystroke_z	z	n/a
242.7175	0.1345	485435	keystroke_e	e	n/a
242.8075	0.1345	485615	keystroke_r	r	n/a
242.912	0.075	485824	keystroke_Key.space	Key.space	n/a
243.062	0.105	486124	keystroke_p	p	n/a
243.212	0.03	486424	keystroke_e	e	n/a
243.302	0.091	486604	keystroke_e	e	n/a
243.4375	0.105	486875	keystroke_i	i	n/a
243.4975	0.135	486995	keystroke_n	n	n/a
243.5875	0.105	487175	keystroke_g	g	n/a
243.6775	0.075	487355	keystroke_Key.space	Key.space	n/a
243.7825	0.09	487565	keystroke_p	p	n/a
243.8875	0.06	487775	keystroke_r	r	n/a
243.9625	0.0895	487925	keystroke_o	o	n/a
244.067	0.09	488134	keystroke_s	s	n/a
244.517	0.09	489034	keystroke_Key.enter	Key.enter	n/a
244.612	7.077	489224	prompt	n/a	when atlantic arrivals honduras\n
245.342	0.075	490684	keystroke_w	w	n/a
245.432	0.075	490864	keystroke_h	h	n/a
245.522	0.06	491044	keystroke_e	e	n/a
245.597	0.105	491194	keystroke_n	n	n/a
245.672	0.075	491344	keystroke_Key.space	Key.space	n/a
245.927	0.1505	491854	keystroke_a	a	n/a
246.047	0.0905	492094	keystroke_t	t	n/a
246.1675	0.09	492335	keystroke_l	l	n/a
246.2585	0.119	492517	keystroke_a	a	n/a
246.3475	0.105	492695	keystroke_n	n	n/a
246.4375	0.09	492875	keystroke_t	t	n/a
246.5575	0.09	493115	keystroke_i	i	n/a
246.6775	0.1495	493355	keystroke_c	c	n/a
246.8125	0.09	493625	keystroke_Key.space	Key.space	n/a
246.9775	0.12	493955	keystroke_a	a	n/a
247.0825	0.045	494165	keystroke_r	r	n/a
247.1725	0.09	494345	keystroke_r	r	n/a
247.2925	0.09	494585	keystroke_i	i	n/a
247.3675	0.105	494735	keystroke_v	v	n/a
247.4575	0.09	494915	keystroke_a	a	n/a
247.5625	0.075	495125	keystroke_l	l	n/a
247.6525	0.105	495305	keystroke_s	s	n/a
248.2675	0.09	496535	keystroke_Key.space	Key.space	n/a
248.4925	0.09	496985	keystroke_h	h	n/a
248.7625	0.09	497525	keystroke_o	o	n/a
248.8075	0.12	497615	keystroke_n	n	n/a
248.9425	0.105	497885	keystroke_d	d	n/a
249.0925	0.09	498185	keystroke_u	u	n/a
249.1835	0.059	498367	keystroke_r	r	n/a
249.3025	0.045	498605	keystroke_s	s	n/a
249.4375	0.075	498875	keystroke_a	a	n/a
249.9625	0.06	499925	keystroke_Key.backspace	Key.backspace	n/a
250.1125	0.06	500225	keystroke_Key.backspace	Key.backspace	n/a
250.2175	0.135	500435	keystroke_a	a	n/a
250.2925	0.15	500585	keystroke_s	s	n/a
251.597	0.0905	503194	keystroke_Key.enter	Key.enter	n/a
251.693	6.026	503386	prompt	n/a	native over raymond accurately\n
252.5425	0.105	505085	keystroke_n	n	n/a
252.6175	0.15	505235	keystroke_a	a	n/a
252.7375	0.09	505475	keystroke_t	t	n/a
252.8425	0.12	505685	keystroke_i	i	n/a
252.9625	0.06	505925	keystroke_v	v	n/a
253.0825	0.105	506165	keystroke_e	e	n/a
253.1575	0.09	506315	keystroke_Key.space	Key.space	n/a
253.2775	0.09	506555	keystroke_o	o	n/a
253.3685	0.089	506737	keystroke_v	v	n/a
253.5175	0.09	507035	keystroke_e	e	n/a
253.5775	0.09	507155	keystroke_r	r	n/a
253.6375	0.075	507275	keystroke_Key.space	Key.space	n/a
253.9375	0.1055	507875	keystroke_r	r	n/a
254.0275	0.135	508055	keystroke_a	a	n/a
254.1775	0.075	508355	keystroke_y	y	n/a
254.3725	0.12	508745	keystroke_m	m	n/a
254.5075	0.06	509015	keystroke_o	o	n/a
254.5525	0.09	509105	keystroke_n	n	n/a
254.6275	0.09	509255	keystroke_d	d	n/a
255.1225	0.105	510245	keystroke_Key.space	Key.space	n/a
255.3325	0.135	510665	keystroke_a	a	n/a
255.4525	0.15	510905	keystroke_c	c	n/a
255.6775	0.12	511355	keystroke_c	c	n/a
255.9625	0.0755	511925	keystroke_u	u	n/a
256.113	0.0895	512226	keystroke_r	r	n/a
256.2325	0.135	512465	keystroke_a	a	n/a
256.3075	0.12	512615	keystroke_t	t	n/a
256.4425	0.105	512885	keystroke_e	e	n/a
256.5775	0.1055	513155	keystroke_l	l	n/a
256.668	0.075	513336	keystroke_y	y	n/a
257.613	0.105	515226	keystroke_Key.enter	Key.enter	n/a
257.727	7.0415	515454	prompt	n/a	twelve mood fitness classical\n
258.4375	0.09	516875	keystroke_t	t	n/a
258.5875	0.105	517175	keystroke_w	w	n/a
258.7525	0.12	517505	keystroke_l	l	n/a
259.3375	0.06	518675	keystroke_Key.backspace	Key.backspace	n/a
260.0575	0.06	520115	keystroke_e	e	n/a
260.1625	0.105	520325	keystroke_l	l	n/a
260.4475	0.015	520895	keystroke_v	v	n/a
260.5375	0.075	521075	keystroke_e	e	n/a
260.987	0.09	521974	keystroke_Key.space	Key.space	n/a
261.152	0.105	522304	keystroke_m	m	n/a
261.287	0.075	522574	keystroke_o	o	n/a
261.437	0.09	522874	keystroke_o	o	n/a
261.557	0.135	523114	keystroke_d	d	n/a
261.677	0.09	523354	keystroke_Key.space	Key.space	n/a
261.917	0.1055	523834	keystroke_f	f	n/a
262.0235	0.089	524047	keystroke_i	i	n/a
262.1275	0.09	524255	keystroke_t	t	n/a
262.3075	0.09	524615	keystroke_n	n	n/a
262.4125	0.0755	524825	keystroke_e	e	n/a
262.563	0.075	525126	keystroke_s	s	n/a
262.683	0.12	525366	keystroke_s	s	n/a
262.923	0.06	525846	keystroke_Key.space	Key.space	n/a
263.118	0.09	526236	keystroke_c	c	n/a
263.178	0.12	526356	keystroke_l	l	n/a
263.268	0.105	526536	keystroke_a	a	n/a
263.343	0.075	526686	keystroke_s	s	n/a
263.463	0.09	526926	keystroke_s	s	n/a
263.553	0.09	527106	keystroke_i	i	n/a
263.628	0.12	527256	keystroke_c	c	n/a
263.703	0.135	527406	keystroke_a	a	n/a
263.792	0.106	527584	keystroke_l	l	n/a
264.6625	0.105	529325	keystroke_Key.enter	Key.enter	n/a
264.7715	9.2375	529543	prompt	n/a	ethiopia candle bent switched\n
265.6225	0.09	531245	keystroke_e	e	n/a
265.8625	0.06	531725	keystroke_t	t	n/a
265.9375	0.0895	531875	keystroke_h	h	n/a
266.072	0.105	532144	keystroke_i	i	n/a
266.267	0.12	532534	keystroke_p	p	n/a
266.6575	0.09	533315	keystroke_o	o	n/a
269.4645	0.013	538929	keystroke_Key.backspace	Key.backspace	n/a
269.6125	0.075	539225	keystroke_Key.backspace	Key.backspace	n/a
270.2275	0.075	540455	keystroke_o	o	n/a
270.3775	0.09	540755	keystroke_p	p	n/a
270.528	0.0895	541056	keystroke_i	i	n/a
270.6475	0.1355	541295	keystroke_a	a	n/a
270.8725	0.09	541745	keystroke_Key.space	Key.space	n/a
271.0675	0.105	542135	keystroke_c	c	n/a
271.1275	0.0905	542255	keystroke_a	a	n/a
271.2025	0.0905	542405	keystroke_n	n	n/a
271.323	0.06	542646	keystroke_d	d	n/a
271.368	0.09	542736	keystroke_l	l	n/a
271.503	0.075	543006	keystroke_e	e	n/a
271.593	0.075	543186	keystroke_Key.space	Key.space	n/a
271.743	0.075	543486	keystroke_b	b	n/a
271.878	0.06	543756	keystroke_e	e	n/a
271.953	0.09	543906	keystroke_n	n	n/a
272.028	0.074	544056	keystroke_t	t	n/a
272.132	0.06	544264	keystroke_Key.space	Key.space	n/a
272.597	0.061	545194	keystroke_s	s	n/a
272.748	0.075	545496	keystroke_w	w	n/a
272.852	0.09	545704	keystroke_i	i	n/a
272.943	0.059	545886	keystroke_t	t	n/a
273.122	0.09	546244	keystroke_c	c	n/a
273.197	0.09	546394	keystroke_h	h	n/a
273.302	0.045	546604	keystroke_e	e	n/a
273.378	0.119	546756	keystroke_d	d	n/a
273.902	0.105	547804	keystroke_Key.enter	Key.enter	n/a
274.012	7.212	548024	prompt	n/a	funds vacancies sociology carefully\n
275.012	0.075	550024	keystroke_f	f	n/a
275.072	0.045	550144	keystroke_u	u	n/a
275.192	0.105	550384	keystroke_n	n	n/a
275.267	0.12	550534	keystroke_d	d	n/a
275.342	0.135	550684	keystroke_s	s	n/a
275.447	0.09	550894	keystroke_Key.space	Key.space	n/a
275.867	0.09	551734	keystroke_v	v	n/a
275.942	0.135	551884	keystroke_a	a	n/a
276.122	0.135	552244	keystroke_c	c	n/a
276.2425	0.1345	552485	keystroke_a	a	n/a
276.437	0.135	552874	keystroke_n	n	n/a
277.097	0.105	554194	keystroke_c	c	n/a
277.187	0.09	554374	keystroke_i	i	n/a
277.292	0.06	554584	keystroke_e	e	n/a
277.397	0.135	554794	keystroke_s	s	n/a
277.832	0.09	555664	keystroke_Key.space	Key.space	n/a
278.1175	0.0895	556235	keystroke_s	s	n/a
278.2375	0.09	556475	keystroke_o	o	n/a
278.3575	0.12	556715	keystroke_c	c	n/a
278.462	0.075	556924	keystroke_i	i	n/a
278.627	0.075	557254	keystroke_o	o	n/a
278.807	0.076	557614	keystroke_l	l	n/a
278.943	0.09	557886	keystroke_o	o	n/a
279.063	0.075	558126	keystroke_g	g	n/a
279.153	0.075	558306	keystroke_y	y	n/a
279.288	0.075	558576	keystroke_Key.space	Key.space	n/a
279.933	0.12	559866	keystroke_c	c	n/a
280.068	0.12	560136	keystroke_a	a	n/a
280.158	0.105	560316	keystroke_r	r	n/a
280.248	0.09	560496	keystroke_e	e	n/a
280.368	0.105	560736	keystroke_f	f	n/a
280.458	0.075	560916	keystroke_u	u	n/a
280.593	0.06	561186	keystroke_l	l	n/a
280.698	0.09	561396	keystroke_l	l	n/a
280.818	0.09	561636	keystroke_y	y	n/a
281.118	0.105	562236	keystroke_Key.enter	Key.enter	n/a
281.227	6.8815	562454	prompt	n/a	unity distinguished advisor puerto\n
281.958	0.044	563916	keystroke_u	u	n/a
282.077	0.105	564154	keystroke_n	n	n/a
282.167	0.09	564334	keystroke_i	i	n/a
282.303	0.074	564606	keystroke_t	t	n/a
282.392	0.076	564784	keystroke_y	y	n/a
282.498	0.074	564996	keystroke_Key.space	Key.space	n/a
282.9475	0.075	565895	keystroke_d	d	n/a
283.0375	0.09	566075	keystroke_i	i	n/a
283.1125	0.075	566225	keystroke_s	s	n/a
283.4875	0.045	566975	keystroke_t	t	n/a
283.5475	0.105	567095	keystroke_i	i	n/a
283.6225	0.105	567245	keystroke_n	n	n/a
283.7575	0.09	567515	keystroke_g	g	n/a
283.9075	0.075	567815	keystroke_u	u	n/a
284.0875	0.105	568175	keystroke_i	i	n/a
284.8675	0.0745	569735	keystroke_s	s	n/a
284.927	0.12	569854	keystroke_h	h	n/a
285.032	0.06	570064	keystroke_e	e	n/a
285.137	0.15	570274	keystroke_d	d	n/a
285.302	0.09	570604	keystroke_Key.space	Key.space	n/a
285.467	0.105	570934	keystroke_a	a	n/a
285.632	0.075	571264	keystroke_d	d	n/a
285.782	0.09	571564	keystroke_v	v	n/a
285.902	0.09	571804	keystroke_i	i	n/a
286.007	0.075	572014	keystroke_s	s	n/a
286.262	0.09	572524	keystroke_o	o	n/a
286.382	0.135	572764	keystroke_r	r	n/a
286.487	0.075	572974	keystroke_Key.space	Key.space	n/a
286.727	0.105	573454	keystroke_p	p	n/a
286.802	0.09	573604	keystroke_u	u	n/a
286.907	0.105	573814	keystroke_e	e	n/a
286.982	0.06	573964	keystroke_r	r	n/a
287.117	0.09	574234	keystroke_t	t	n/a
287.192	0.105	574384	keystroke_o	o	n/a
288.032	0.0755	576064	keystroke_Key.enter	Key.enter	n/a
288.1135	5.6805	576227	prompt	n/a	stranger alcohol sample cambodia\n
288.767	0.09	577534	keystroke_s	s	n/a
288.872	0.06	577744	keystroke_t	t	n/a
289.037	0.105	578074	keystroke_r	r	n/a
289.202	0.12	578404	keystroke_a	a	n/a
289.307	0.12	578614	keystroke_n	n	n/a
289.412	0.06	578824	keystroke_g	g	n/a
289.547	0.105	579094	keystroke_e	e	n/a
289.607	0.105	579214	keystroke_r	r	n/a
289.667	0.075	579334	keystroke_Key.space	Key.space	n/a
289.787	0.12	579574	keystroke_a	a	n/a
289.892	0.0755	579784	keystroke_l	l	n/a
290.0425	0.09	580085	keystroke_c	c	n/a
290.2675	0.105	580535	keystroke_o	o	n/a
290.4925	0.09	580985	keystroke_h	h	n/a
290.5975	0.09	581195	keystroke_o	o	n/a
290.7625	0.12	581525	keystroke_l	l	n/a
290.9425	0.105	581885	keystroke_Key.space	Key.space	n/a
291.183	0.105	582366	keystroke_s	s	n/a
291.272	0.15	582544	keystroke_a	a	n/a
291.348	0.15	582696	keystroke_m	m	n/a
291.468	0.105	582936	keystroke_p	p	n/a
291.618	0.105	583236	keystroke_l	l	n/a
291.708	0.135	583416	keystroke_e	e	n/a
291.812	0.091	583624	keystroke_Key.space	Key.space	n/a
292.2775	0.1195	584555	keystroke_c	c	n/a
292.352	0.1355	584704	keystroke_a	a	n/a
292.472	0.1205	584944	keystroke_m	m	n/a
292.6975	0.075	585395	keystroke_b	b	n/a
292.7875	0.09	585575	keystroke_o	o	n/a
292.9825	0.09	585965	keystroke_d	d	n/a
293.0575	0.09	586115	keystroke_i	i	n/a
293.1925	0.135	586385	keystroke_a	a	n/a
293.6875	0.105	587375	keystroke_Key.enter	Key.enter	n/a
293.798	6.086	587596	prompt	n/a	legends flag burns petition\n
294.4675	0.105	588935	keystroke_l	l	n/a
294.5425	0.0595	589085	keystroke_e	e	n/a
294.6925	0.06	589385	keystroke_g	g	n/a
294.827	0.0755	589654	keystroke_e	e	n/a
294.9475	0.105	589895	keystroke_n	n	n/a
295.0675	0.18	590135	keystroke_d	d	n/a
295.2025	0.18	590405	keystroke_s	s	n/a
295.3075	0.12	590615	keystroke_Key.space	Key.space	n/a
295.5175	0.045	591035	keystroke_g	g	n/a
295.5325	0.015	591065	keystroke_f	f	n/a
295.6075	0.105	591215	keystroke_l	l	n/a
296.3125	0.06	592625	keystroke_Key.backspace	Key.backspace	n/a
296.5075	0.045	593015	keystroke_Key.backspace	Key.backspace	n/a
296.6725	0.06	593345	keystroke_Key.backspace	Key.backspace	n/a
296.8525	0.09	593705	keystroke_f	f	n/a
296.9275	0.105	593855	keystroke_l	l	n/a
297.0025	0.135	594005	keystroke_a	a	n/a
297.1075	0.135	594215	keystroke_g	g	n/a
297.212	0.075	594424	keystroke_Key.space	Key.space	n/a
297.437	0.075	594874	keystroke_b	b	n/a
297.527	0.0905	595054	keystroke_u	u	n/a
297.6475	0.0595	595295	keystroke_r	r	n/a
297.722	0.1055	595444	keystroke_n	n	n/a
297.812	0.09	595624	keystroke_s	s	n/a
298.0975	0.09	596195	keystroke_Key.space	Key.space	n/a
298.4275	0.105	596855	keystroke_p	p	n/a
298.5475	0.105	597095	keystroke_e	e	n/a
298.6225	0.075	597245	keystroke_t	t	n/a
298.7725	0.075	597545	keystroke_i	i	n/a
298.8475	0.06	597695	keystroke_t	t	n/a
298.9525	0.165	597905	keystroke_i	i	n/a
299.028	0.1195	598056	keystroke_o	o	n/a
299.0875	0.12	598175	keystroke_n	n	n/a
299.777	0.105	599554	keystroke_Key.enter	Key.enter	n/a
299.8865	7.392	599773	prompt	n/a	distributions asus cumulative adsl\n
300.707	0.075	601414	keystroke_d	d	n/a
300.797	0.105	601594	keystroke_i	i	n/a
300.887	0.075	601774	keystroke_s	s	n/a
301.172	0.03	602344	keystroke_t	t	n/a
301.307	0.06	602614	keystroke_r	r	n/a
301.382	0.09	602764	keystroke_i	i	n/a
301.487	0.09	602974	keystroke_b	b	n/a
301.607	0.09	603214	keystroke_u	u	n/a
301.757	0.06	603514	keystroke_t	t	n/a
301.862	0.135	603724	keystroke_i	i	n/a
301.967	0.1205	603934	keystroke_o	o	n/a
302.0725	0.12	604145	keystroke_n	n	n/a
302.2225	0.1195	604445	keystroke_s	s	n/a
302.357	0.09	604714	keystroke_Key.space	Key.space	n/a
302.507	0.105	605014	keystroke_a	a	n/a
302.582	0.12	605164	keystroke_s	s	n/a
302.732	0.09	605464	keystroke_u	u	n/a
302.837	0.12	605674	keystroke_s	s	n/a
302.972	0.075	605944	keystroke_Key.space	Key.space	n/a
303.182	0.09	606364	keystroke_c	c	n/a
303.302	0.105	606604	keystroke_u	u	n/a
303.527	0.105	607054	keystroke_m	m	n/a
303.737	0.075	607474	keystroke_u	u	n/a
303.917	0.12	607834	keystroke_l	l	n/a
304.007	0.1505	608014	keystroke_a	a	n/a
304.1125	0.075	608225	keystroke_t	t	n/a
304.2025	0.12	608405	keystroke_i	i	n/a
304.3075	0.075	608615	keystroke_v	v	n/a
304.4425	0.075	608885	keystroke_e	e	n/a
304.5175	0.09	609035	keystroke_Key.space	Key.space	n/a
304.5925	0.12	609185	keystroke_a	a	n/a
304.6975	0.075	609395	keystroke_d	d	n/a
305.387	0.12	610774	keystroke_s	s	n/a
305.492	0.105	610984	keystroke_l	l	n/a
307.1275	0.15	614255	keystroke_Key.enter	Key.enter	n/a
307.2815	5.7575	614563	prompt	n/a	sandy bobby junction charging\n
307.9075	0.135	615815	keystroke_s	s	n/a
307.9975	0.12	615995	keystroke_a	a	n/a
308.0875	0.12	616175	keystroke_n	n	n/a
308.1925	0.105	616385	keystroke_d	d	n/a
308.3125	0.09	616625	keystroke_y	y	n/a
308.4325	0.12	616865	keystroke_Key.space	Key.space	n/a
309.152	0.075	618304	keystroke_b	b	n/a
309.242	0.09	618484	keystroke_o	o	n/a
309.333	0.059	618666	keystroke_b	b	n/a
309.437	0.075	618874	keystroke_b	b	n/a
309.542	0.09	619084	keystroke_y	y	n/a
309.722	0.09	619444	keystroke_Key.space	Key.space	n/a
309.947	0.075	619894	keystroke_j	j	n/a
310.067	0.06	620134	keystroke_u	u	n/a
310.202	0.12	620404	keystroke_n	n	n/a
310.307	0.09	620614	keystroke_c	c	n/a
310.487	0.075	620974	keystroke_t	t	n/a
310.547	0.166	621094	keystroke_i	i	n/a
310.608	0.105	621216	keystroke_o	o	n/a
310.668	0.135	621336	keystroke_n	n	n/a
310.773	0.075	621546	keystroke_Key.space	Key.space	n/a
311.5525	0.0305	623105	keystroke_c	c	n/a
311.568	0.09	623136	keystroke_h	h	n/a
311.613	0.135	623226	keystroke_a	a	n/a
311.688	0.09	623376	keystroke_r	r	n/a
311.853	0.075	623706	keystroke_g	g	n/a
311.913	0.12	623826	keystroke_i	i	n/a
311.988	0.105	623976	keystroke_n	n	n/a
312.048	0.074	624096	keystroke_g	g	n/a
312.9325	0.1045	625865	keystroke_Key.enter	Key.enter	n/a
313.0415	6.9875	626083	prompt	n/a	pack fort compromise wallace\n
313.772	0.105	627544	keystroke_p	p	n/a
313.832	0.15	627664	keystroke_a	a	n/a
313.922	0.1355	627844	keystroke_c	c	n/a
313.997	0.1055	627994	keystroke_k	k	n/a
314.1325	0.09	628265	keystroke_Key.space	Key.space	n/a
314.2825	0.0745	628565	keystroke_f	f	n/a
314.3725	0.0895	628745	keystroke_o	o	n/a
314.432	0.0605	628864	keystroke_r	r	n/a
314.5825	0.075	629165	keystroke_t	t	n/a
315.872	0.12	631744	keystroke_Key.space	Key.space	n/a
316.1125	0.12	632225	keystroke_c	c	n/a
316.2175	0.09	632435	keystroke_o	o	n/a
316.2775	0.15	632555	keystroke_m	m	n/a
316.3975	0.105	632795	keystroke_p	p	n/a
316.7575	0.075	633515	keystroke_r	r	n/a
316.8475	0.09	633695	keystroke_o	o	n/a
317.0425	0.105	634085	keystroke_m	m	n/a
317.1175	0.12	634235	keystroke_i	i	n/a
317.2375	0.075	634475	keystroke_s	s	n/a
317.4475	0.09	634895	keystroke_e	e	n/a
317.6575	0.075	635315	keystroke_Key.space	Key.space	n/a
317.9875	0.12	635975	keystroke_w	w	n/a
318.0475	0.15	636095	keystroke_a	a	n/a
318.1375	0.075	636275	keystroke_l	l	n/a
318.2425	0.105	636485	keystroke_l	l	n/a
318.3325	0.135	636665	keystroke_a	a	n/a
318.5425	0.15	637085	keystroke_c	c	n/a
318.6475	0.165	637295	keystroke_e	e	n/a
319.952	0.075	639904	keystroke_Key.enter	Key.enter	n/a
320.032	18.612	640064	prompt	n/a	sunny garlic emperor sail\n
321.018	0.105	642036	keystroke_s	s	n/a
321.108	0.09	642216	keystroke_u	u	n/a
321.318	0.045	642636	keystroke_n	n	n/a
321.423	0.09	642846	keystroke_n	n	n/a
322.038	0.0595	644076	keystroke_y	y	n/a
322.1275	0.12	644255	keystroke_Key.space	Key.space	n/a
322.3375	0.15	644675	keystroke_a	a	n/a
322.4425	0.075	644885	keystroke_r	r	n/a
323.0875	0.06	646175	keystroke_Key.backspace	Key.backspace	n/a
323.2525	0.06	646505	keystroke_Key.backspace	Key.backspace	n/a
323.4625	0.09	646925	keystroke_a	a	n/a
323.7325	0.06	647465	keystroke_Key.backspace	Key.backspace	n/a
323.8675	0.075	647735	keystroke_g	g	n/a
323.9575	0.135	647915	keystroke_a	a	n/a
324.1675	0.06	648335	keystroke_r	r	n/a
324.8725	0.075	649745	keystroke_g	g	n/a
324.9775	0.1195	649955	keystroke_l	l	n/a
325.067	0.105	650134	keystroke_i	i	n/a
325.142	0.166	650284	keystroke_c	c	n/a
325.278	0.105	650556	keystroke_Key.space	Key.space	n/a
325.653	0.09	651306	keystroke_e	e	n/a
325.713	0.12	651426	keystroke_m	m	n/a
326.747	0.06	653494	keystroke_Key.backspace	Key.backspace	n/a
326.972	0.045	653944	keystroke_Key.backspace	Key.backspace	n/a
327.182	0.075	654364	keystroke_Key.backspace	Key.backspace	n/a
327.482	0.06	654964	keystroke_Key.backspace	Key.backspace	n/a
327.767	0.075	655534	keystroke_Key.backspace	Key.backspace	n/a
328.038	0.09	656076	keystroke_Key.backspace	Key.backspace	n/a
328.563	0.06	657126	keystroke_Key.backspace	Key.backspace	n/a
328.848	0.12	657696	keystroke_l	l	n/a
328.938	0.135	657876	keystroke_i	i	n/a
329.088	0.15	658176	keystroke_c	c	n/a
329.253	0.12	658506	keystroke_Key.space	Key.space	n/a
329.778	0.075	659556	keystroke_e	e	n/a
329.868	0.09	659736	keystroke_m	m	n/a
330.003	0.09	660006	keystroke_p	p	n/a
330.123	0.135	660246	keystroke_e	e	n/a
330.198	0.09	660396	keystroke_r	r	n/a
330.333	0.09	660666	keystroke_o	o	n/a
330.468	0.03	660936	keystroke_e	e	n/a
332.0275	0.045	664055	keystroke_=	=	n/a
332.1925	0.075	664385	keystroke_r	r	n/a
332.7025	0.06	665405	keystroke_Key.backspace	Key.backspace	n/a
332.9425	0.06	665885	keystroke_Key.backspace	Key.backspace	n/a
333.1525	0.075	666305	keystroke_Key.backspace	Key.backspace	n/a
334.427	0.09	668854	keystroke_r	r	n/a
334.6525	0.075	669305	keystroke_Key.space	Key.space	n/a
335.402	0.1205	670804	keystroke_s	s	n/a
335.432	0.195	670864	keystroke_a	a	n/a
335.582	0.09	671164	keystroke_i	i	n/a
335.6425	0.105	671285	keystroke_l	l	n/a
338.6	0.042	677200	keystroke_Key.enter	Key.enter	n/a
338.6565	4.5175	677313	prompt	n/a	pull voluntary producers land\n
339.318	0.09	678636	keystroke_p	p	n/a
339.423	0.0745	678846	keystroke_u	u	n/a
339.573	0.06	679146	keystroke_l	l	n/a
339.6925	0.0755	679385	keystroke_l	l	n/a
339.7825	0.0755	679565	keystroke_Key.space	Key.space	n/a
339.903	0.1345	679806	keystroke_v	v	n/a
339.9625	0.06	679925	keystroke_o	o	n/a
340.0825	0.09	680165	keystroke_l	l	n/a
340.1575	0.09	680315	keystroke_u	u	n/a
340.3225	0.12	680645	keystroke_m	m	n/a
340.7725	0.06	681545	keystroke_Key.backspace	Key.backspace	n/a
340.9825	0.075	681965	keystroke_n	n	n/a
341.1025	0.075	682205	keystroke_t	t	n/a
341.1925	0.15	682385	keystroke_a	a	n/a
341.2825	0.105	682565	keystroke_r	r	n/a
341.4025	0.075	682805	keystroke_y	y	n/a
341.4925	0.045	682985	keystroke_Key.space	Key.space	n/a
341.6575	0.075	683315	keystroke_p	p	n/a
341.7475	0.06	683495	keystroke_r	r	n/a
341.8225	0.075	683645	keystroke_o	o	n/a
341.9275	0.06	683855	keystroke_d	d	n/a
342.0025	0.075	684005	keystroke_u	u	n/a
342.0925	0.06	684185	keystroke_c	c	n/a
342.2425	0.09	684485	keystroke_e	e	n/a
342.3025	0.105	684605	keystroke_r	r	n/a
342.4375	0.105	684875	keystroke_s	s	n/a
342.5275	0.075	685055	keystroke_Key.space	Key.space	n/a
342.6175	0.09	685235	keystroke_l	l	n/a
342.6925	0.06	685385	keystroke_a	a	n/a
342.7675	0.09	685535	keystroke_n	n	n/a
342.8425	0.075	685685	keystroke_d	d	n/a
343.0825	0.09	686165	keystroke_Key.enter	Key.enter	n/a
343.1765	4.4375	686353	prompt	n/a	james depression spring honest\n
343.7425	0.075	687485	keystroke_j	j	n/a
343.8475	0.09	687695	keystroke_a	a	n/a
343.9225	0.09	687845	keystroke_m	m	n/a
343.9975	0.1205	687995	keystroke_e	e	n/a
344.103	0.09	688206	keystroke_s	s	n/a
344.148	0.09	688296	keystroke_Key.space	Key.space	n/a
344.297	0.076	688594	keystroke_d	d	n/a
344.463	0.075	688926	keystroke_e	e	n/a
344.582	0.105	689164	keystroke_p	p	n/a
344.673	0.104	689346	keystroke_r	r	n/a
344.778	0.09	689556	keystroke_e	e	n/a
344.897	0.03	689794	keystroke_s	s	n/a
344.973	0.059	689946	keystroke_s	s	n/a
345.138	0.135	690276	keystroke_i	i	n/a
345.198	0.09	690396	keystroke_o	o	n/a
345.243	0.135	690486	keystroke_n	n	n/a
345.348	0.075	690696	keystroke_Key.space	Key.space	n/a
345.573	0.09	691146	keystroke_s	s	n/a
345.648	0.09	691296	keystroke_p	p	n/a
345.753	0.075	691506	keystroke_r	r	n/a
345.858	0.105	691716	keystroke_i	i	n/a
345.933	0.12	691866	keystroke_n	n	n/a
346.007	0.076	692014	keystroke_g	g	n/a
346.818	0.09	693636	keystroke_Key.space	Key.space	n/a
347.028	0.074	694056	keystroke_h	h	n/a
347.087	0.09	694174	keystroke_o	o	n/a
347.147	0.121	694294	keystroke_n	n	n/a
347.192	0.151	694384	keystroke_e	e	n/a
347.252	0.15	694504	keystroke_s	s	n/a
347.312	0.105	694624	keystroke_t	t	n/a
347.537	0.075	695074	keystroke_Key.enter	Key.enter	n/a
347.617	5.082	695234	prompt	n/a	induction dealt darkness technical\n
348.3175	0.075	696635	keystroke_i	i	n/a
348.3935	0.089	696787	keystroke_n	n	n/a
348.4835	0.059	696967	keystroke_d	d	n/a
348.5725	0.075	697145	keystroke_u	u	n/a
348.648	0.074	697296	keystroke_c	c	n/a
348.7975	0.075	697595	keystroke_t	t	n/a
348.887	0.135	697774	keystroke_i	i	n/a
348.947	0.0605	697894	keystroke_o	o	n/a
348.9775	0.09	697955	keystroke_n	n	n/a
349.037	0.0605	698074	keystroke_Key.space	Key.space	n/a
349.1725	0.045	698345	keystroke_d	d	n/a
349.2775	0.105	698555	keystroke_e	e	n/a
349.337	0.135	698674	keystroke_a	a	n/a
349.4275	0.0895	698855	keystroke_l	l	n/a
349.5325	0.045	699065	keystroke_t	t	n/a
349.983	0.06	699966	keystroke_Key.space	Key.space	n/a
350.4775	0.12	700955	keystroke_d	d	n/a
350.5675	0.165	701135	keystroke_a	a	n/a
350.6575	0.12	701315	keystroke_r	r	n/a
350.7625	0.09	701525	keystroke_k	k	n/a
350.9575	0.09	701915	keystroke_n	n	n/a
351.0625	0.045	702125	keystroke_e	e	n/a
351.1525	0.075	702305	keystroke_s	s	n/a
351.2875	0.105	702575	keystroke_s	s	n/a
351.4075	0.06	702815	keystroke_Key.space	Key.space	n/a
351.5725	0.06	703145	keystroke_t	t	n/a
351.6625	0.105	703325	keystroke_e	e	n/a
351.7975	0.105	703595	keystroke_c	c	n/a
351.8875	0.075	703775	keystroke_h	h	n/a
352.0225	0.105	704045	keystroke_n	n	n/a
352.0825	0.09	704165	keystroke_i	i	n/a
352.1275	0.12	704255	keystroke_c	c	n/a
352.2325	0.1195	704465	keystroke_a	a	n/a
352.307	0.105	704614	keystroke_l	l	n/a
352.6225	0.0745	705245	keystroke_Key.enter	Key.enter	n/a
352.7015	17.9975	705403	prompt	n/a	transportation programmers organisation physically\n
353.4175	0.06	706835	keystroke_t	t	n/a
353.5375	0.105	707075	keystroke_r	r	n/a
353.5975	0.105	707195	keystroke_a	a	n/a
353.7175	0.105	707435	keystroke_n	n	n/a
353.7925	0.0895	707585	keystroke_s	s	n/a
353.898	0.105	707796	keystroke_p	p	n/a
353.988	0.105	707976	keystroke_o	o	n/a
354.108	0.059	708216	keystroke_r	r	n/a
354.242	0.061	708484	keystroke_t	t	n/a
354.332	0.136	708664	keystroke_a	a	n/a
354.407	0.105	708814	keystroke_t	t	n/a
354.453	0.15	708906	keystroke_i	i	n/a
354.527	0.09	709054	keystroke_o	o	n/a
354.573	0.1045	709146	keystroke_n	n	n/a
355.202	0.0905	710404	keystroke_Key.space	Key.space	n/a
355.4575	0.075	710915	keystroke_g	g	n/a
355.7425	0.075	711485	keystroke_Key.backspace	Key.backspace	n/a
355.9825	0.09	711965	keystroke_p	p	n/a
356.1625	0.09	712325	keystroke_r	r	n/a
356.2975	0.105	712595	keystroke_o	o	n/a
356.4475	0.045	712895	keystroke_g	g	n/a
356.5675	0.135	713135	keystroke_r	r	n/a
356.6575	0.135	713315	keystroke_a	a	n/a
356.7625	0.06	713525	keystroke_m	m	n/a
356.8825	0.09	713765	keystroke_m	m	n/a
356.9875	0.09	713975	keystroke_e	e	n/a
357.0475	0.075	714095	keystroke_r	r	n/a
357.5725	0.12	715145	keystroke_s	s	n/a
357.6775	0.075	715355	keystroke_Key.space	Key.space	n/a
357.9325	0.09	715865	keystroke_o	o	n/a
358.0375	0.045	716075	keystroke_r	r	n/a
358.2025	0.09	716405	keystroke_g	g	n/a
358.3375	0.105	716675	keystroke_a	a	n/a
359.3425	0.075	718685	keystroke_n	n	n/a
359.5825	0.09	719165	keystroke_i	i	n/a
359.8225	0.12	719645	keystroke_s	s	n/a
359.9275	0.165	719855	keystroke_a	a	n/a
360.0475	0.12	720095	keystroke_t	t	n/a
360.1225	0.15	720245	keystroke_i	i	n/a
360.1825	0.105	720365	keystroke_o	o	n/a
360.2575	0.105	720515	keystroke_n	n	n/a
360.4975	0.09	720995	keystroke_Key.space	Key.space	n/a
361.128	0.075	722256	keystroke_p	p	n/a
361.188	0.075	722376	keystroke_h	h	n/a
361.353	0.075	722706	keystroke_y	y	n/a
361.473	0.09	722946	keystroke_s	s	n/a
366.455	0.028	732910	keystroke_s	s	n/a
366.528	0.09	733056	keystroke_i	i	n/a
366.633	0.105	733266	keystroke_c	c	n/a
366.708	0.12	733416	keystroke_a	a	n/a
366.798	0.06	733596	keystroke_l	l	n/a
366.873	0.075	733746	keystroke_l	l	n/a
367.218	0.045	734436	keystroke_Key.backspace	Key.backspace	n/a
367.368	0.06	734736	keystroke_Key.backspace	Key.backspace	n/a
367.563	0.06	735126	keystroke_Key.backspace	Key.backspace	n/a
367.788	0.045	735576	keystroke_Key.backspace	Key.backspace	n/a
367.983	0.06	735966	keystroke_Key.backspace	Key.backspace	n/a
368.223	0.06	736446	keystroke_Key.backspace	Key.backspace	n/a
368.463	0.075	736926	keystroke_Key.backspace	Key.backspace	n/a
369.722	0.076	739444	keystroke_s	s	n/a
369.813	0.089	739626	keystroke_i	i	n/a
369.917	0.0905	739834	keystroke_c	c	n/a
369.9775	0.12	739955	keystroke_a	a	n/a
370.0525	0.06	740105	keystroke_l	l	n/a
370.1575	0.09	740315	keystroke_l	l	n/a
370.2925	0.075	740585	keystroke_y	y	n/a
370.6225	0.075	741245	keystroke_Key.enter	Key.enter	n/a
370.7105	4.594	741421	prompt	n/a	trustee vinyl employee site\n
371.493	0.03	742986	keystroke_t	t	n/a
371.613	0.09	743226	keystroke_r	r	n/a
371.718	0.06	743436	keystroke_u	u	n/a
371.793	0.105	743586	keystroke_s	s	n/a
371.868	0.09	743736	keystroke_t	t	n/a
372.0625	0.075	744125	keystroke_e	e	n/a
372.1975	0.075	744395	keystroke_e	e	n/a
372.4225	0.06	744845	keystroke_Key.space	Key.space	n/a
372.5875	0.075	745175	keystroke_v	v	n/a
372.6635	0.074	745327	keystroke_i	i	n/a
372.7225	0.06	745445	keystroke_n	n	n/a
372.8575	0.0745	745715	keystroke_y	y	n/a
373.038	0.089	746076	keystroke_l	l	n/a
373.322	0.09	746644	keystroke_Key.space	Key.space	n/a
373.562	0.061	747124	keystroke_e	e	n/a
373.637	0.106	747274	keystroke_m	m	n/a
373.757	0.105	747514	keystroke_p	p	n/a
373.908	0.059	747816	keystroke_l	l	n/a
374.073	0.0745	748146	keystroke_o	o	n/a
374.1325	0.0905	748265	keystroke_y	y	n/a
374.238	0.045	748476	keystroke_e	e	n/a
374.343	0.12	748686	keystroke_e	e	n/a
374.478	0.06	748956	keystroke_Key.space	Key.space	n/a
374.627	0.075	749254	keystroke_s	s	n/a
374.687	0.106	749374	keystroke_i	i	n/a
374.778	0.105	749556	keystroke_t	t	n/a
374.868	0.105	749736	keystroke_e	e	n/a
375.212	0.09	750424	keystroke_Key.enter	Key.enter	n/a
375.308	4.796	750616	prompt	n/a	organize space specs manually\n
376.1425	0.0895	752285	keystroke_o	o	n/a
376.2775	0.075	752555	keystroke_r	r	n/a
376.5325	0.075	753065	keystroke_g	g	n/a
376.6225	0.135	753245	keystroke_a	a	n/a
376.7425	0.075	753485	keystroke_n	n	n/a
376.8025	0.09	753605	keystroke_i	i	n/a
376.9075	0.12	753815	keystroke_z	z	n/a
377.0875	0.12	754175	keystroke_e	e	n/a
377.1925	0.09	754385	keystroke_Key.space	Key.space	n/a
377.4175	0.06	754835	keystroke_s	s	n/a
377.4925	0.09	754985	keystroke_p	p	n/a
377.5675	0.135	755135	keystroke_a	a	n/a
377.6575	0.135	755315	keystroke_c	c	n/a
377.7625	0.12	755525	keystroke_e	e	n/a
377.8675	0.075	755735	keystroke_Key.space	Key.space	n/a
378.1075	0.075	756215	keystroke_s	s	n/a
378.1675	0.12	756335	keystroke_p	p	n/a
378.2575	0.09	756515	keystroke_e	e	n/a
378.3925	0.12	756785	keystroke_c	c	n/a
378.5725	0.15	757145	keystroke_s	s	n/a
378.7075	0.09	757415	keystroke_Key.space	Key.space	n/a
379.0375	0.09	758075	keystroke_m	m	n/a
379.1425	0.105	758285	keystroke_a	a	n/a
379.2325	0.045	758465	keystroke_n	n	n/a
379.3525	0.075	758705	keystroke_u	u	n/a
379.4425	0.09	758885	keystroke_a	a	n/a
379.5175	0.045	759035	keystroke_l	l	n/a
379.6225	0.0595	759245	keystroke_l	l	n/a
379.803	0.074	759606	keystroke_y	y	n/a
380.012	0.0905	760024	keystroke_Key.enter	Key.enter	n/a
380.11	6.504	760220	prompt	n/a	content newport insulin horse\n
380.8825	0.15	761765	keystroke_c	c	n/a
380.9725	0.09	761945	keystroke_o	o	n/a
381.0475	0.09	762095	keystroke_n	n	n/a
381.1525	0.09	762305	keystroke_t	t	n/a
381.2275	0.0755	762455	keystroke_e	e	n/a
381.318	0.105	762636	keystroke_n	n	n/a
381.408	0.105	762816	keystroke_t	t	n/a
381.498	0.06	762996	keystroke_Key.space	Key.space	n/a
381.723	0.06	763446	keystroke_v	v	n/a
382.173	0.075	764346	keystroke_Key.backspace	Key.backspace	n/a
382.5925	0.0305	765185	keystroke_n	n	n/a
382.638	0.1045	765276	keystroke_e	e	n/a
382.6825	0.105	765365	keystroke_w	w	n/a
382.938	0.075	765876	keystroke_p	p	n/a
382.998	0.15	765996	keystroke_o	o	n/a
383.1625	0.06	766325	keystroke_r	r	n/a
383.3125	0.0605	766625	keystroke_t	t	n/a
383.568	0.0445	767136	keystroke_Key.space	Key.space	n/a
383.838	0.104	767676	keystroke_i	i	n/a
383.898	0.09	767796	keystroke_n	n	n/a
383.988	0.0895	767976	keystroke_s	s	n/a
384.0925	0.09	768185	keystroke_u	u	n/a
384.1975	0.12	768395	keystroke_l	l	n/a
384.5275	0.09	769055	keystroke_i	i	n/a
384.5875	0.12	769175	keystroke_n	n	n/a
384.9625	0.09	769925	keystroke_Key.space	Key.space	n/a
385.203	0.074	770406	keystroke_h	h	n/a
385.293	0.09	770586	keystroke_o	o	n/a
385.368	0.075	770736	keystroke_r	r	n/a
385.563	0.1345	771126	keystroke_s	s	n/a
385.653	0.1195	771306	keystroke_e	e	n/a
386.537	0.075	773074	keystroke_Key.enter	Key.enter	n/a
386.6165	4.0475	773233	prompt	n/a	stories night sister copied\n
387.332	0.09	774664	keystroke_s	s	n/a
387.482	0.06	774964	keystroke_t	t	n/a
387.572	0.075	775144	keystroke_o	o	n/a
387.632	0.075	775264	keystroke_r	r	n/a
387.722	0.075	775444	keystroke_i	i	n/a
387.798	0.074	775596	keystroke_e	e	n/a
387.902	0.12	775804	keystroke_s	s	n/a
387.977	0.075	775954	keystroke_Key.space	Key.space	n/a
388.097	0.075	776194	keystroke_n	n	n/a
388.157	0.06	776314	keystroke_i	i	n/a
388.247	0.06	776494	keystroke_g	g	n/a
388.323	0.074	776646	keystroke_h	h	n/a
388.412	0.06	776824	keystroke_t	t	n/a
388.487	0.045	776974	keystroke_Key.space	Key.space	n/a
388.652	0.06	777304	keystroke_s	s	n/a
388.728	0.104	777456	keystroke_i	i	n/a
388.817	0.091	777634	keystroke_s	s	n/a
388.922	0.075	777844	keystroke_t	t	n/a
389.043	0.12	778086	keystroke_e	e	n/a
389.118	0.12	778236	keystroke_r	r	n/a
389.208	0.074	778416	keystroke_Key.space	Key.space	n/a
389.508	0.119	779016	keystroke_c	c	n/a
389.598	0.104	779196	keystroke_o	o	n/a
389.672	0.075	779344	keystroke_p	p	n/a
389.822	0.105	779644	keystroke_i	i	n/a
389.957	0.045	779914	keystroke_e	e	n/a
390.063	0.105	780126	keystroke_d	d	n/a
390.573	0.09	781146	keystroke_Key.enter	Key.enter	n/a
390.667	3.642	781334	prompt	n/a	tell tank childhood badly\n
391.3225	0.09	782645	keystroke_t	t	n/a
391.3825	0.09	782765	keystroke_e	e	n/a
391.5175	0.06	783035	keystroke_l	l	n/a
391.6225	0.09	783245	keystroke_l	l	n/a
391.7275	0.075	783455	keystroke_Key.space	Key.space	n/a
391.8175	0.12	783635	keystroke_t	t	n/a
391.8925	0.12	783785	keystroke_a	a	n/a
391.9525	0.09	783905	keystroke_n	n	n/a
391.9975	0.12	783995	keystroke_k	k	n/a
392.1625	0.06	784325	keystroke_Key.space	Key.space	n/a
392.4025	0.09	784805	keystroke_c	c	n/a
392.4625	0.075	784925	keystroke_h	h	n/a
392.5075	0.105	785015	keystroke_i	i	n/a
392.5675	0.09	785135	keystroke_l	l	n/a
392.6725	0.075	785345	keystroke_d	d	n/a
392.8675	0.06	785735	keystroke_h	h	n/a
392.9125	0.045	785825	keystroke_o	o	n/a
393.0025	0.09	786005	keystroke_o	o	n/a
393.1525	0.12	786305	keystroke_d	d	n/a
393.2425	0.09	786485	keystroke_Key.space	Key.space	n/a
393.4825	0.09	786965	keystroke_b	b	n/a
393.5575	0.135	787115	keystroke_a	a	n/a
393.7225	0.12	787445	keystroke_d	d	n/a
393.8275	0.09	787655	keystroke_l	l	n/a
393.9325	0.075	787865	keystroke_y	y	n/a
394.2325	0.075	788465	keystroke_Key.enter	Key.enter	n/a
394.3215	4.6825	788643	prompt	n/a	door pace celebrate hereby\n
394.908	0.09	789816	keystroke_d	d	n/a
395.028	0.045	790056	keystroke_o	o	n/a
395.133	0.09	790266	keystroke_o	o	n/a
395.238	0.105	790476	keystroke_r	r	n/a
395.328	0.06	790656	keystroke_Key.space	Key.space	n/a
395.418	0.09	790836	keystroke_p	p	n/a
395.493	0.135	790986	keystroke_a	a	n/a
395.583	0.135	791166	keystroke_c	c	n/a
395.688	0.12	791376	keystroke_e	e	n/a
395.778	0.0745	791556	keystroke_Key.space	Key.space	n/a
395.9725	0.15	791945	keystroke_c	c	n/a
396.1075	0.06	792215	keystroke_e	e	n/a
396.2125	0.09	792425	keystroke_l	l	n/a
396.2725	0.09	792545	keystroke_e	e	n/a
396.9025	0.09	793805	keystroke_b	b	n/a
397.1125	0.135	794225	keystroke_r	r	n/a
397.2325	0.15	794465	keystroke_a	a	n/a
397.3375	0.18	794675	keystroke_t	t	n/a
397.4725	0.165	794945	keystroke_e	e	n/a
397.6525	0.075	795305	keystroke_Key.space	Key.space	n/a
397.9225	0.09	795845	keystroke_h	h	n/a
398.0275	0.0745	796055	keystroke_e	e	n/a
398.072	0.135	796144	keystroke_r	r	n/a
398.162	0.105	796324	keystroke_e	e	n/a
398.462	0.12	796924	keystroke_b	b	n/a
398.5375	0.0895	797075	keystroke_y	y	n/a
398.913	0.09	797826	keystroke_Key.enter	Key.enter	n/a
399.009	7.21	798018	prompt	n/a	stockholm alternate starsmerchant acid\n
399.948	0.1195	799896	keystroke_s	s	n/a
400.038	0.0745	800076	keystroke_t	t	n/a
400.1575	0.09	800315	keystroke_o	o	n/a
400.2485	0.119	800497	keystroke_c	c	n/a
400.3525	0.09	800705	keystroke_k	k	n/a
400.5625	0.075	801125	keystroke_h	h	n/a
400.6225	0.075	801245	keystroke_o	o	n/a
400.7425	0.09	801485	keystroke_l	l	n/a
400.9225	0.09	801845	keystroke_m	m	n/a
401.0875	0.09	802175	keystroke_Key.space	Key.space	n/a
401.3425	0.12	802685	keystroke_a	a	n/a
401.4325	0.09	802865	keystroke_l	l	n/a
401.5375	0.045	803075	keystroke_t	t	n/a
401.5975	0.135	803195	keystroke_e	e	n/a
401.7025	0.0745	803405	keystroke_r	r	n/a
401.7925	0.105	803585	keystroke_n	n	n/a
401.867	0.1205	803734	keystroke_a	a	n/a
401.942	0.121	803884	keystroke_t	t	n/a
402.048	0.105	804096	keystroke_e	e	n/a
402.573	0.105	805146	keystroke_Key.space	Key.space	n/a
403.4125	0.09	806825	keystroke_s	s	n/a
403.5775	0.06	807155	keystroke_t	t	n/a
403.6825	0.18	807365	keystroke_a	a	n/a
403.8025	0.15	807605	keystroke_r	r	n/a
404.0725	0.09	808145	keystroke_s	s	n/a
404.312	0.12	808624	keystroke_m	m	n/a
404.447	0.091	808894	keystroke_e	e	n/a
404.508	0.059	809016	keystroke_r	r	n/a
404.672	0.076	809344	keystroke_c	c	n/a
404.732	0.06	809464	keystroke_h	h	n/a
404.837	0.12	809674	keystroke_a	a	n/a
404.912	0.105	809824	keystroke_n	n	n/a
405.047	0.09	810094	keystroke_t	t	n/a
405.152	0.0755	810304	keystroke_Key.space	Key.space	n/a
405.4075	0.165	810815	keystroke_a	a	n/a
405.5275	0.0905	811055	keystroke_c	c	n/a
405.6325	0.09	811265	keystroke_i	i	n/a
405.7375	0.09	811475	keystroke_d	d	n/a
406.038	0.0145	812076	keystroke_d	d	n/a
406.1125	0.105	812225	keystroke_Key.enter	Key.enter	n/a
406.2235	6.836	812447	prompt	n/a	companion greece livecam harassment\n
407.8075	0.12	815615	keystroke_c	c	n/a
407.8825	0.075	815765	keystroke_o	o	n/a
407.9425	0.1055	815885	keystroke_m	m	n/a
408.0325	0.1355	816065	keystroke_p	p	n/a
408.093	0.1195	816186	keystroke_a	a	n/a
408.1975	0.09	816395	keystroke_n	n	n/a
408.3025	0.135	816605	keystroke_i	i	n/a
408.4075	0.12	816815	keystroke_o	o	n/a
408.5425	0.12	817085	keystroke_n	n	n/a
408.6775	0.105	817355	keystroke_Key.space	Key.space	n/a
408.9175	0.06	817835	keystroke_g	g	n/a
409.0525	0.075	818105	keystroke_r	r	n/a
409.1425	0.03	818285	keystroke_e	e	n/a
409.2175	0.105	818435	keystroke_e	e	n/a
409.4275	0.105	818855	keystroke_c	c	n/a
409.5175	0.105	819035	keystroke_e	e	n/a
409.6075	0.075	819215	keystroke_Key.space	Key.space	n/a
409.7725	0.105	819545	keystroke_l	l	n/a
409.8325	0.12	819665	keystroke_i	i	n/a
409.9375	0.06	819875	keystroke_v	v	n/a
410.073	0.06	820146	keystroke_e	e	n/a
410.2975	0.12	820595	keystroke_c	c	n/a
410.3875	0.135	820775	keystroke_a	a	n/a
410.4775	0.09	820955	keystroke_m	m	n/a
410.8975	0.075	821795	keystroke_Key.space	Key.space	n/a
411.2875	0.105	822575	keystroke_h	h	n/a
411.3775	0.12	822755	keystroke_a	a	n/a
411.4675	0.075	822935	keystroke_r	r	n/a
411.6175	0.075	823235	keystroke_a	a	n/a
411.7975	0.06	823595	keystroke_s	s	n/a
411.9175	0.105	823835	keystroke_s	s	n/a
412.0675	0.09	824135	keystroke_m	m	n/a
412.1725	0.09	824345	keystroke_e	e	n/a
412.2475	0.09	824495	keystroke_n	n	n/a
412.3225	0.06	824645	keystroke_t	t	n/a
412.953	0.105	825906	keystroke_Key.enter	Key.enter	n/a
413.0625	6.3715	826125	prompt	n/a	leone society jokes wide\n
413.897	0.075	827794	keystroke_l	l	n/a
413.927	0.076	827854	keystroke_e	e	n/a
414.093	0.075	828186	keystroke_o	o	n/a
414.153	0.09	828306	keystroke_n	n	n/a
414.228	0.105	828456	keystroke_e	e	n/a
414.408	0.075	828816	keystroke_Key.space	Key.space	n/a
415.0075	0.075	830015	keystroke_s	s	n/a
415.158	0.075	830316	keystroke_o	o	n/a
415.263	0.12	830526	keystroke_c	c	n/a
415.338	0.09	830676	keystroke_i	i	n/a
415.488	0.12	830976	keystroke_e	e	n/a
415.563	0.09	831126	keystroke_t	t	n/a
415.668	0.09	831336	keystroke_y	y	n/a
415.848	0.0745	831696	keystroke_Key.space	Key.space	n/a
416.1625	0.09	832325	keystroke_j	j	n/a
416.2375	0.105	832475	keystroke_o	o	n/a
416.3125	0.06	832625	keystroke_i	i	n/a
416.3575	0.06	832715	keystroke_k	k	n/a
416.3875	0.21	832775	keystroke_e	e	n/a
416.4925	0.18	832985	keystroke_s	s	n/a
416.9725	0.045	833945	keystroke_Key.backspace	Key.backspace	n/a
417.1825	0.045	834365	keystroke_Key.backspace	Key.backspace	n/a
417.423	0.06	834846	keystroke_Key.backspace	Key.backspace	n/a
417.633	0.075	835266	keystroke_Key.backspace	Key.backspace	n/a
417.888	0.0895	835776	keystroke_k	k	n/a
417.9785	0.1485	835957	keystroke_e	e	n/a
418.067	0.151	836134	keystroke_s	s	n/a
418.157	0.105	836314	keystroke_Key.space	Key.space	n/a
418.683	0.045	837366	keystroke_w	w	n/a
418.743	0.104	837486	keystroke_i	i	n/a
418.833	0.074	837666	keystroke_d	d	n/a
418.953	0.134	837906	keystroke_e	e	n/a
419.3275	0.105	838655	keystroke_Key.enter	Key.enter	n/a
419.4365	5.0525	838873	prompt	n/a	leeds latina robots sufficiently\n
420.3475	0.09	840695	keystroke_l	l	n/a
420.4675	0.06	840935	keystroke_e	e	n/a
420.5875	0.09	841175	keystroke_e	e	n/a
420.7675	0.12	841535	keystroke_d	d	n/a
420.8575	0.18	841715	keystroke_s	s	n/a
420.9775	0.12	841955	keystroke_Key.space	Key.space	n/a
421.1725	0.09	842345	keystroke_l	l	n/a
421.2325	0.135	842465	keystroke_a	a	n/a
421.3225	0.075	842645	keystroke_t	t	n/a
421.4125	0.105	842825	keystroke_i	i	n/a
421.4875	0.105	842975	keystroke_n	n	n/a
421.5775	0.12	843155	keystroke_a	a	n/a
421.7275	0.075	843455	keystroke_Key.space	Key.space	n/a
421.8925	0.075	843785	keystroke_r	r	n/a
421.9525	0.075	843905	keystroke_o	o	n/a
422.0725	0.075	844145	keystroke_b	b	n/a
422.1625	0.075	844325	keystroke_o	o	n/a
422.2525	0.06	844505	keystroke_t	t	n/a
422.4025	0.09	844805	keystroke_s	s	n/a
422.5375	0.075	845075	keystroke_Key.space	Key.space	n/a
422.8825	0.075	845765	keystroke_s	s	n/a
422.9725	0.075	845945	keystroke_u	u	n/a
423.0925	0.015	846185	keystroke_f	f	n/a
423.1675	0.09	846335	keystroke_f	f	n/a
423.2875	0.075	846575	keystroke_i	i	n/a
423.3925	0.12	846785	keystroke_c	c	n/a
423.4975	0.09	846995	keystroke_i	i	n/a
423.6325	0.075	847265	keystroke_e	e	n/a
423.7225	0.075	847445	keystroke_n	n	n/a
423.8125	0.0605	847625	keystroke_t	t	n/a
423.9325	0.105	847865	keystroke_l	l	n/a
424.0385	0.074	848077	keystroke_y	y	n/a
424.3975	0.09	848795	keystroke_Key.enter	Key.enter	n/a
424.493	6.626	848986	prompt	n/a	wine toyota bound facial\n
425.088	0.075	850176	keystroke_w	w	n/a
425.178	0.075	850356	keystroke_i	i	n/a
425.223	0.12	850446	keystroke_n	n	n/a
425.313	0.105	850626	keystroke_e	e	n/a
425.403	0.06	850806	keystroke_Key.space	Key.space	n/a
425.703	0.06	851406	keystroke_t	t	n/a
425.808	0.09	851616	keystroke_o	o	n/a
425.928	0.045	851856	keystroke_t	t	n/a
426.033	0.075	852066	keystroke_y	y	n/a
426.633	0.1495	853266	keystroke_Key.backspace	Key.backspace	n/a
426.7975	0.015	853595	keystroke_Key.backspace	Key.backspace	n/a
426.9775	0.06	853955	keystroke_y	y	n/a
427.2325	0.075	854465	keystroke_o	o	n/a
427.3825	0.075	854765	keystroke_t	t	n/a
427.5025	0.135	855005	keystroke_a	a	n/a
427.6825	0.09	855365	keystroke_Key.space	Key.space	n/a
428.1325	0.105	856265	keystroke_b	b	n/a
428.1925	0.075	856385	keystroke_o	o	n/a
428.2525	0.06	856505	keystroke_u	u	n/a
428.3875	0.09	856775	keystroke_n	n	n/a
428.4325	0.12	856865	keystroke_d	d	n/a
428.5675	0.09	857135	keystroke_Key.space	Key.space	n/a
430.0675	0.0905	860135	keystroke_f	f	n/a
430.1425	0.1505	860285	keystroke_a	a	n/a
430.263	0.12	860526	keystroke_c	c	n/a
430.368	0.075	860736	keystroke_i	i	n/a
430.458	0.09	860916	keystroke_a	a	n/a
430.518	0.09	861036	keystroke_l	l	n/a
431.0275	0.09	862055	keystroke_Key.enter	Key.enter	n/a
431.1255	10.209	862251	prompt	n/a	before intermediate tricks controller\n
431.5535	0.239	863107	keystroke_f	f	n/a
431.9425	0.075	863885	keystroke_b	b	n/a
432.1075	0.06	864215	keystroke_e	e	n/a
432.2575	0.045	864515	keystroke_f	f	n/a
432.3325	0.091	864665	keystroke_o	o	n/a
432.3935	0.164	864787	keystroke_r	r	n/a
432.4835	0.119	864967	keystroke_e	e	n/a
432.5875	0.075	865175	keystroke_Key.space	Key.space	n/a
432.9325	0.075	865865	keystroke_Key.backspace	Key.backspace	n/a
433.1875	0.045	866375	keystroke_Key.backspace	Key.backspace	n/a
433.4125	0.045	866825	keystroke_Key.backspace	Key.backspace	n/a
433.6375	0.045	867275	keystroke_Key.backspace	Key.backspace	n/a
433.8775	0.045	867755	keystroke_Key.backspace	Key.backspace	n/a
434.1175	0.03	868235	keystroke_Key.backspace	Key.backspace	n/a
434.3425	0.045	868685	keystroke_Key.backspace	Key.backspace	n/a
434.5825	0.045	869165	keystroke_Key.backspace	Key.backspace	n/a
435.2425	0.075	870485	keystroke_b	b	n/a
435.423	0.075	870846	keystroke_e	e	n/a
435.6025	0.06	871205	keystroke_f	f	n/a
435.6775	0.0755	871355	keystroke_o	o	n/a
435.7675	0.106	871535	keystroke_r	r	n/a
435.8425	0.12	871685	keystroke_e	e	n/a
435.9325	0.09	871865	keystroke_Key.space	Key.space	n/a
436.7425	0.015	873485	keystroke_i	i	n/a
436.8475	0.0755	873695	keystroke_n	n	n/a
436.938	0.06	873876	keystroke_t	t	n/a
437.043	0.105	874086	keystroke_e	e	n/a
437.103	0.09	874206	keystroke_r	r	n/a
437.388	0.09	874776	keystroke_m	m	n/a
437.5375	0.06	875075	keystroke_e	e	n/a
438.2875	0.0605	876575	keystroke_d	d	n/a
438.363	0.075	876726	keystroke_i	i	n/a
438.453	0.135	876906	keystroke_a	a	n/a
438.543	0.12	877086	keystroke_t	t	n/a
438.648	0.105	877296	keystroke_e	e	n/a
438.723	0.09	877446	keystroke_Key.space	Key.space	n/a
438.978	0.045	877956	keystroke_t	t	n/a
439.083	0.075	878166	keystroke_r	r	n/a
439.218	0.075	878436	keystroke_i	i	n/a
439.308	0.075	878616	keystroke_c	c	n/a
439.398	0.09	878796	keystroke_k	k	n/a
439.503	0.12	879006	keystroke_s	s	n/a
439.608	0.06	879216	keystroke_Key.space	Key.space	n/a
439.8475	0.12	879695	keystroke_c	c	n/a
439.9375	0.09	879875	keystroke_o	o	n/a
439.9975	0.09	879995	keystroke_n	n	n/a
440.1025	0.045	880205	keystroke_t	t	n/a
440.1925	0.09	880385	keystroke_r	r	n/a
440.2675	0.0605	880535	keystroke_o	o	n/a
440.4175	0.0605	880835	keystroke_l	l	n/a
440.5375	0.0755	881075	keystroke_l	l	n/a
440.643	0.1195	881286	keystroke_e	e	n/a
440.703	0.09	881406	keystroke_r	r	n/a
441.2425	0.09	882485	keystroke_Key.enter	Key.enter	n/a
441.3385	5.2005	882677	prompt	n/a	wanting roots handmade linked\n
442.008	0.12	884016	keystroke_w	w	n/a
442.083	0.15	884166	keystroke_a	a	n/a
442.188	0.105	884376	keystroke_n	n	n/a
442.278	0.06	884556	keystroke_t	t	n/a
442.383	0.09	884766	keystroke_i	i	n/a
442.443	0.1195	884886	keystroke_n	n	n/a
442.503	0.1045	885006	keystroke_g	g	n/a
442.5925	0.105	885185	keystroke_Key.space	Key.space	n/a
442.8475	0.06	885695	keystroke_r	r	n/a
442.9225	0.06	885845	keystroke_o	o	n/a
443.0275	0.075	886055	keystroke_o	o	n/a
443.1175	0.06	886235	keystroke_t	t	n/a
443.2525	0.09	886505	keystroke_s	s	n/a
443.7475	0.0895	887495	keystroke_Key.space	Key.space	n/a
444.048	0.06	888096	keystroke_h	h	n/a
444.123	0.09	888246	keystroke_a	a	n/a
444.198	0.09	888396	keystroke_n	n	n/a
444.288	0.09	888576	keystroke_d	d	n/a
444.513	0.105	889026	keystroke_m	m	n/a
444.603	0.091	889206	keystroke_a	a	n/a
444.768	0.075	889536	keystroke_d	d	n/a
444.918	0.105	889836	keystroke_e	e	n/a
445.083	0.0895	890166	keystroke_Key.space	Key.space	n/a
445.3075	0.091	890615	keystroke_l	l	n/a
445.4875	0.0755	890975	keystroke_i	i	n/a
445.623	0.135	891246	keystroke_n	n	n/a
445.698	0.12	891396	keystroke_k	k	n/a
445.833	0.06	891666	keystroke_e	e	n/a
445.953	0.1195	891906	keystroke_d	d	n/a
446.4625	0.075	892925	keystroke_Key.enter	Key.enter	n/a
446.5425	4.0015	893085	prompt	n/a	let's care qualification treo\n
447.4375	0.075	894875	keystroke_l	l	n/a
447.4825	0.105	894965	keystroke_e	e	n/a
447.5275	0.09	895055	keystroke_t	t	n/a
447.6325	0.0905	895265	keystroke_'	'	n/a
447.738	0.09	895476	keystroke_s	s	n/a
447.813	0.0895	895626	keystroke_Key.space	Key.space	n/a
448.0835	0.075	896167	keystroke_c	c	n/a
448.1435	0.1345	896287	keystroke_a	a	n/a
448.248	0.12	896496	keystroke_r	r	n/a
448.338	0.105	896676	keystroke_e	e	n/a
448.398	0.075	896796	keystroke_Key.space	Key.space	n/a
448.593	0.105	897186	keystroke_q	q	n/a
448.683	0.0745	897366	keystroke_u	u	n/a
448.7725	0.12	897545	keystroke_a	a	n/a
