onset	duration	sample	value	key	prompt_text
18.628	20.8125	37256	prompt	n/a	the quick brown fox jumps over a lazy dog\n
23.1655	0.072	46331	keystroke	t	n/a
23.2675	0.165	46535	keystroke	h	n/a
23.4475	0.12	46895	keystroke	e	n/a
23.5685	0.149	47137	keystroke	Key.space	n/a
25.0375	0.09	50075	keystroke	q	n/a
25.4425	0.09	50885	keystroke	u	n/a
25.6675	0.105	51335	keystroke	i	n/a
26.4325	0.135	52865	keystroke	c	n/a
26.583	0.1645	53166	keystroke	k	n/a
26.9275	0.12	53855	keystroke	Key.space	n/a
27.4825	0.075	54965	keystroke	f	n/a
28.4875	0.12	56975	keystroke	o	n/a
28.6675	0.135	57335	keystroke	x	n/a
29.1775	0.135	58355	keystroke	Key.space	n/a
29.4925	0.105	58985	keystroke	j	n/a
29.7475	0.06	59495	keystroke	u	n/a
30.018	0.0895	60036	keystroke	m	n/a
30.393	0.0905	60786	keystroke	p	n/a
30.693	0.119	61386	keystroke	s	n/a
31.022	0.1065	62044	keystroke	Key.space	n/a
31.908	0.15	63816	keystroke	o	n/a
32.2225	0.075	64445	keystroke	v	n/a
32.4925	0.105	64985	keystroke	e	n/a
32.5675	0.1205	65135	keystroke	r	n/a
33.183	0.1345	66366	keystroke	Key.space	n/a
33.3475	0.15	66695	keystroke	a	n/a
33.5275	0.15	67055	keystroke	Key.space	n/a
33.798	0.12	67596	keystroke	l	n/a
33.978	0.12	67956	keystroke	a	n/a
35.883	0.135	71766	keystroke	z	n/a
36.138	0.135	72276	keystroke	y	n/a
36.408	0.12	72816	keystroke	Key.space	n/a
36.753	0.135	73506	keystroke	d	n/a
36.873	0.12	73746	keystroke	o	n/a
37.488	0.09	74976	keystroke	g	n/a
39.303	0.135	78606	keystroke	Key.enter	n/a
39.445	13.15	78890	prompt	n/a	advantages shooting transform meter\n
41.5995	0.0585	83199	keystroke	a	n/a
42.048	0.09	84096	keystroke	d	n/a
42.438	0.135	84876	keystroke	v	n/a
42.528	0.165	85056	keystroke	a	n/a
42.768	0.105	85536	keystroke	n	n/a
43.053	0.135	86106	keystroke	t	n/a
43.218	0.135	86436	keystroke	a	n/a
43.728	0.1345	87456	keystroke	g	n/a
43.818	0.1495	87636	keystroke	e	n/a
44.148	0.09	88296	keystroke	s	n/a
44.538	0.12	89076	keystroke	Key.space	n/a
44.748	0.135	89496	keystroke	s	n/a
44.913	0.12	89826	keystroke	h	n/a
45.1675	0.075	90335	keystroke	o	n/a
45.348	0.12	90696	keystroke	o	n/a
45.603	0.09	91206	keystroke	t	n/a
45.753	0.105	91506	keystroke	i	n/a
45.9925	0.105	91985	keystroke	n	n/a
46.1425	0.105	92285	keystroke	g	n/a
46.3225	0.09	92645	keystroke	Key.space	n/a
47.253	0.1795	94506	keystroke	t	n/a
47.5375	0.21	95075	keystroke	r	n/a
47.7325	0.135	95465	keystroke	a	n/a
48.1825	0.09	96365	keystroke	n	n/a
48.3175	0.12	96635	keystroke	s	n/a
49.1575	0.135	98315	keystroke	f	n/a
49.3075	0.135	98615	keystroke	o	n/a
49.4875	0.105	98975	keystroke	r	n/a
50.1025	0.105	100205	keystroke	m	n/a
50.4325	0.1205	100865	keystroke	Key.space	n/a
50.6425	0.105	101285	keystroke	m	n/a
50.808	0.1345	101616	keystroke	e	n/a
51.0775	0.1055	102155	keystroke	t	n/a
51.2725	0.15	102545	keystroke	e	n/a
51.6775	0.09	103355	keystroke	r	n/a
52.5025	0.09	105005	keystroke	Key.enter	n/a
52.5995	13.4655	105199	prompt	n/a	cant dictionaries pike livecam\n
53.9875	0.1505	107975	keystroke	c	n/a
54.0925	0.165	108185	keystroke	a	n/a
54.3325	0.105	108665	keystroke	n	n/a
54.5725	0.09	109145	keystroke	t	n/a
55.353	0.15	110706	keystroke	Key.space	n/a
55.7425	0.1055	111485	keystroke	d	n/a
55.9985	0.105	111997	keystroke	i	n/a
56.2235	0.1195	112447	keystroke	c	n/a
56.778	0.1055	113556	keystroke	t	n/a
56.8985	0.12	113797	keystroke	i	n/a
59.225	0.028	118450	keystroke	o	n/a
59.508	0.105	119016	keystroke	n	n/a
60.0185	0.1495	120037	keystroke	a	n/a
60.273	0.135	120546	keystroke	r	n/a
60.4835	0.15	120967	keystroke	i	n/a
60.7985	0.0445	121597	keystroke	e	n/a
61.2785	0.1195	122557	keystroke	s	n/a
61.518	0.1355	123036	keystroke	Key.space	n/a
62.1185	0.0595	124237	keystroke	p	n/a
62.373	0.1805	124746	keystroke	i	n/a
62.8685	0.1345	125737	keystroke	k	n/a
63.0335	0.1195	126067	keystroke	e	n/a
63.4535	0.1345	126907	keystroke	Key.space	n/a
63.7085	0.12	127417	keystroke	l	n/a
63.9335	0.09	127867	keystroke	i	n/a
64.188	0.1205	128376	keystroke	v	n/a
64.4285	0.09	128857	keystroke	e	n/a
64.908	0.1205	129816	keystroke	c	n/a
64.9835	0.15	129967	keystroke	a	n/a
65.448	0.1055	130896	keystroke	m	n/a
65.928	0.135	131856	keystroke	Key.enter	n/a
66.068	15.7315	132136	prompt	n/a	hall fatty blow performance\n
67.1285	0.075	134257	keystroke	a	n/a
68.8225	0.06	137645	keystroke	Key.backspace	n/a
70.263	0.09	140526	keystroke	h	n/a
70.3975	0.1055	140795	keystroke	a	n/a
70.5925	0.075	141185	keystroke	l	n/a
70.7575	0.12	141515	keystroke	l	n/a
71.163	0.1195	142326	keystroke	Key.space	n/a
71.4625	0.135	142925	keystroke	f	n/a
71.5675	0.1355	143135	keystroke	a	n/a
71.8675	0.0605	143735	keystroke	t	n/a
72.0175	0.105	144035	keystroke	t	n/a
72.2575	0.105	144515	keystroke	y	n/a
72.5425	0.12	145085	keystroke	Key.space	n/a
74.2825	0.105	148565	keystroke	b	n/a
74.4025	0.105	148805	keystroke	e	n/a
75.3475	0.045	150695	keystroke	Key.backspace	n/a
75.8725	0.06	151745	keystroke	l	n/a
76.1125	0.09	152225	keystroke	o	n/a
76.2925	0.12	152585	keystroke	w	n/a
76.9225	0.135	153845	keystroke	Key.space	n/a
78.2575	0.12	156515	keystroke	p	n/a
78.4375	0.18	156875	keystroke	e	n/a
78.5875	0.09	157175	keystroke	r	n/a
78.9175	0.12	157835	keystroke	f	n/a
79.0975	0.075	158195	keystroke	o	n/a
79.9075	0.105	159815	keystroke	r	n/a
80.1625	0.105	160325	keystroke	m	n/a
80.2975	0.135	160595	keystroke	a	n/a
80.5375	0.09	161075	keystroke	n	n/a
80.8375	0.165	161675	keystroke	c	n/a
81.1075	0.105	162215	keystroke	e	n/a
81.7675	0.03	163535	keystroke	Key.enter	n/a
81.803	9.1915	163606	prompt	n/a	knew commands stand outcomes\n
83.2075	0.105	166415	keystroke	k	n/a
83.4625	0.06	166925	keystroke	n	n/a
83.6275	0.12	167255	keystroke	e	n/a
83.8675	0.105	167735	keystroke	w	n/a
84.2575	0.135	168515	keystroke	Key.space	n/a
84.4825	0.15	168965	keystroke	c	n/a
84.6625	0.075	169325	keystroke	o	n/a
85.0675	0.06	170135	keystroke	m	n/a
85.2475	0.09	170495	keystroke	m	n/a
85.4275	0.12	170855	keystroke	a	n/a
85.7425	0.0905	171485	keystroke	n	n/a
85.938	0.105	171876	keystroke	d	n/a
86.163	0.09	172326	keystroke	s	n/a
86.463	0.12	172926	keystroke	Key.space	n/a
86.898	0.165	173796	keystroke	s	n/a
87.213	0.12	174426	keystroke	t	n/a
87.378	0.15	174756	keystroke	a	n/a
87.618	0.09	175236	keystroke	n	n/a
87.843	0.105	175686	keystroke	d	n/a
88.263	0.105	176526	keystroke	Key.space	n/a
88.488	0.12	176976	keystroke	o	n/a
88.713	0.09	177426	keystroke	u	n/a
89.058	0.09	178116	keystroke	t	n/a
89.493	0.165	178986	keystroke	c	n/a
89.613	0.105	179226	keystroke	o	n/a
89.898	0.105	179796	keystroke	m	n/a
90.063	0.12	180126	keystroke	e	n/a
90.273	0.105	180546	keystroke	s	n/a
90.858	0.135	181716	keystroke	Key.enter	n/a
90.998	14.052	181996	prompt	n/a	peaceful isaac factor plain\n
92.088	0.12	184176	keystroke	p	n/a
92.238	0.165	184476	keystroke	e	n/a
92.388	0.165	184776	keystroke	a	n/a
92.763	0.135	185526	keystroke	c	n/a
93.048	0.105	186096	keystroke	e	n/a
93.513	0.045	187026	keystroke	f	n/a
93.783	0.12	187566	keystroke	y	n/a
94.8035	0.06	189607	keystroke	Key.backspace	n/a
95.2385	0.075	190477	keystroke	u	n/a
95.4635	0.12	190927	keystroke	l	n/a
97.2485	0.135	194497	keystroke	Key.space	n/a
97.5485	0.12	195097	keystroke	i	n/a
97.7885	0.165	195577	keystroke	s	n/a
98.1185	0.09	196237	keystroke	a	n/a
98.3135	0.075	196627	keystroke	a	n/a
98.5685	0.165	197137	keystroke	c	n/a
99.0035	0.12	198007	keystroke	Key.space	n/a
99.3485	0.165	198697	keystroke	f	n/a
99.5435	0.135	199087	keystroke	a	n/a
100.2185	0.135	200437	keystroke	c	n/a
100.8935	0.09	201787	keystroke	t	n/a
101.0735	0.12	202147	keystroke	o	n/a
101.4335	0.12	202867	keystroke	r	n/a
102.4535	0.12	204907	keystroke	Key.space	n/a
103.2635	0.135	206527	keystroke	p	n/a
103.6535	0.15	207307	keystroke	l	n/a
103.8635	0.135	207727	keystroke	a	n/a
104.2535	0.12	208507	keystroke	i	n/a
104.5835	0.135	209167	keystroke	n	n/a
105.0035	0.045	210007	keystroke	Key.enter	n/a
105.055	13.376	210110	prompt	n/a	became according enabled babes\n
107.3315	0.042	214663	keystroke	b	n/a
107.4335	0.105	214867	keystroke	e	n/a
107.7335	0.135	215467	keystroke	c	n/a
107.8235	0.18	215647	keystroke	a	n/a
108.5285	0.12	217057	keystroke	m	n/a
108.6485	0.135	217297	keystroke	e	n/a
108.8285	0.09	217657	keystroke	Key.space	n/a
109.1135	0.15	218227	keystroke	a	n/a
109.3835	0.105	218767	keystroke	c	n/a
109.5935	0.105	219187	keystroke	c	n/a
109.7885	0.15	219577	keystroke	o	n/a
110.0585	0.105	220117	keystroke	r	n/a
110.6435	0.15	221287	keystroke	d	n/a
110.8535	0.12	221707	keystroke	i	n/a
111.0785	0.12	222157	keystroke	n	n/a
111.1835	0.15	222367	keystroke	g	n/a
111.7085	0.12	223417	keystroke	Key.space	n/a
112.1585	0.09	224317	keystroke	e	n/a
112.3385	0.105	224677	keystroke	n	n/a
112.7135	0.06	225427	keystroke	d	n/a
112.7585	0.075	225517	keystroke	a	n/a
113.4035	0.12	226807	keystroke	Key.backspace	n/a
113.6885	0.075	227377	keystroke	Key.backspace	n/a
114.4085	0.12	228817	keystroke	a	n/a
115.2485	0.09	230497	keystroke	b	n/a
115.5335	0.105	231067	keystroke	l	n/a
115.6685	0.135	231337	keystroke	e	n/a
115.9835	0.105	231967	keystroke	d	n/a
116.2085	0.105	232417	keystroke	Key.space	n/a
116.4935	0.105	232987	keystroke	b	n/a
116.7485	0.165	233497	keystroke	a	n/a
117.1385	0.105	234277	keystroke	b	n/a
117.3035	0.135	234607	keystroke	e	n/a
117.6185	0.105	235237	keystroke	s	n/a
118.3235	0.105	236647	keystroke	Key.enter	n/a
118.435	14.035	236870	prompt	n/a	november clearly blank infectious\n
120.3485	0.105	240697	keystroke	n	n/a
120.5735	0.135	241147	keystroke	o	n/a
120.7685	0.12	241537	keystroke	v	n/a
120.9335	0.15	241867	keystroke	e	n/a
121.2035	0.09	242407	keystroke	m	n/a
121.4885	0.09	242977	keystroke	b	n/a
121.6385	0.18	243277	keystroke	e	n/a
121.7735	0.12	243547	keystroke	r	n/a
122.2985	0.135	244597	keystroke	Key.space	n/a
122.7485	0.15	245497	keystroke	c	n/a
122.9735	0.12	245947	keystroke	l	n/a
123.2285	0.21	246457	keystroke	e	n/a
123.5585	0.15	247117	keystroke	a	n/a
124.9085	0.12	249817	keystroke	r	n/a
125.1785	0.09	250357	keystroke	l	n/a
125.4485	0.12	250897	keystroke	y	n/a
125.9885	0.105	251977	keystroke	Key.space	n/a
126.5135	0.105	253027	keystroke	b	n/a
126.7535	0.165	253507	keystroke	l	n/a
126.9785	0.135	253957	keystroke	a	n/a
127.4285	0.12	254857	keystroke	n	n/a
127.7135	0.165	255427	keystroke	k	n/a
128.4935	0.15	256987	keystroke	Key.space	n/a
128.7635	0.12	257527	keystroke	i	n/a
129.0335	0.09	258067	keystroke	n	n/a
129.4535	0.135	258907	keystroke	f	n/a
129.6335	0.15	259267	keystroke	e	n/a
130.2485	0.105	260497	keystroke	c	n/a
130.6085	0.105	261217	keystroke	t	n/a
130.7885	0.135	261577	keystroke	i	n/a
131.1335	0.12	262267	keystroke	o	n/a
131.4035	0.105	262807	keystroke	u	n/a
131.6435	0.135	263287	keystroke	s	n/a
132.3335	0.135	264667	keystroke	Key.enter	n/a
132.4735	10.2715	264947	prompt	n/a	ellen projection pink regarding\n
133.6685	0.12	267337	keystroke	e	n/a
133.8785	0.09	267757	keystroke	l	n/a
134.0735	0.09	268147	keystroke	l	n/a
134.2835	0.105	268567	keystroke	e	n/a
134.5685	0.105	269137	keystroke	n	n/a
134.8085	0.12	269617	keystroke	Key.space	n/a
135.1235	0.105	270247	keystroke	p	n/a
135.349	0.105	270698	keystroke	r	n/a
135.634	0.15	271268	keystroke	o	n/a
136.324	0.12	272648	keystroke	j	n/a
136.519	0.12	273038	keystroke	e	n/a
136.789	0.09	273578	keystroke	c	n/a
137.254	0.09	274508	keystroke	t	n/a
137.389	0.15	274778	keystroke	i	n/a
137.644	0.09	275288	keystroke	o	n/a
137.869	0.105	275738	keystroke	n	n/a
138.109	0.105	276218	keystroke	Key.space	n/a
138.484	0.12	276968	keystroke	p	n/a
138.679	0.135	277358	keystroke	i	n/a
138.979	0.09	277958	keystroke	n	n/a
139.324	0.12	278648	keystroke	k	n/a
139.594	0.12	279188	keystroke	Key.space	n/a
140.044	0.15	280088	keystroke	r	n/a
140.149	0.18	280298	keystroke	e	n/a
140.779	0.135	281558	keystroke	g	n/a
140.944	0.165	281888	keystroke	a	n/a
141.184	0.06	282368	keystroke	r	n/a
141.499	0.075	282998	keystroke	d	n/a
141.664	0.09	283328	keystroke	i	n/a
141.859	0.105	283718	keystroke	n	n/a
141.994	0.12	283988	keystroke	g	n/a
142.639	0.105	285278	keystroke	Key.enter	n/a
142.748	12.192	285496	prompt	n/a	arrived hungry shooting lamb\n
143.689	0.135	287378	keystroke	a	n/a
143.989	0.075	287978	keystroke	r	n/a
144.694	0.105	289388	keystroke	r	n/a
144.949	0.09	289898	keystroke	i	n/a
145.114	0.105	290228	keystroke	v	n/a
145.504	0.135	291008	keystroke	e	n/a
145.759	0.12	291518	keystroke	d	n/a
145.954	0.135	291908	keystroke	Key.space	n/a
146.509	0.075	293018	keystroke	h	n/a
148.701	0.058	297402	keystroke	u	n/a
149.089	0.09	298178	keystroke	n	n/a
149.584	0.15	299168	keystroke	g	n/a
149.704	0.15	299408	keystroke	r	n/a
149.914	0.15	299828	keystroke	y	n/a
150.169	0.135	300338	keystroke	Key.space	n/a
150.409	0.135	300818	keystroke	s	n/a
150.619	0.135	301238	keystroke	h	n/a
150.859	0.135	301718	keystroke	o	n/a
151.189	0.105	302378	keystroke	o	n/a
151.654	0.105	303308	keystroke	t	n/a
151.774	0.12	303548	keystroke	i	n/a
151.999	0.12	303998	keystroke	n	n/a
152.134	0.12	304268	keystroke	g	n/a
152.404	0.105	304808	keystroke	Key.space	n/a
152.779	0.075	305558	keystroke	l	n/a
153.139	0.135	306278	keystroke	a	n/a
153.799	0.105	307598	keystroke	m	n/a
154.234	0.075	308468	keystroke	b	n/a
154.879	0.06	309758	keystroke	Key.enter	n/a
154.943	10.572	309886	prompt	n/a	events scenario bind events\n
155.884	0.03	311768	keystroke	e	n/a
156.064	0.09	312128	keystroke	v	n/a
156.349	0.12	312698	keystroke	e	n/a
156.574	0.135	313148	keystroke	n	n/a
156.934	0.135	313868	keystroke	t	n/a
157.174	0.18	314348	keystroke	s	n/a
157.459	0.12	314918	keystroke	Key.space	n/a
157.654	0.12	315308	keystroke	s	n/a
157.939	0.075	315878	keystroke	c	n/a
158.524	0.12	317048	keystroke	e	n/a
158.944	0.09	317888	keystroke	n	n/a
159.049	0.135	318098	keystroke	a	n/a
159.334	0.1195	318668	keystroke	r	n/a
159.5585	0.15	319117	keystroke	i	n/a
160.0535	0.06	320107	keystroke	o	n/a
160.3835	0.136	320767	keystroke	Key.space	n/a
161.0435	0.075	322087	keystroke	b	n/a
161.2235	0.15	322447	keystroke	i	n/a
161.5535	0.075	323107	keystroke	n	n/a
162.2135	0.12	324427	keystroke	d	n/a
162.3335	0.135	324667	keystroke	Key.space	n/a
162.7685	0.12	325537	keystroke	e	n/a
163.2335	0.09	326467	keystroke	v	n/a
163.4435	0.105	326887	keystroke	e	n/a
163.7135	0.105	327427	keystroke	n	n/a
164.4635	0.105	328927	keystroke	t	n/a
164.7335	0.135	329467	keystroke	s	n/a
165.4085	0.105	330817	keystroke	Key.enter	n/a
165.5185	11.292	331037	prompt	n/a	restaurants practices doing brandon\n
166.5635	0.15	333127	keystroke	r	n/a
166.6685	0.18	333337	keystroke	e	n/a
166.8335	0.165	333667	keystroke	s	n/a
167.1335	0.105	334267	keystroke	t	n/a
167.2835	0.105	334567	keystroke	a	n/a
168.1385	0.105	336277	keystroke	u	n/a
168.4385	0.105	336877	keystroke	r	n/a
168.6335	0.135	337267	keystroke	a	n/a
168.8735	0.12	337747	keystroke	n	n/a
169.0235	0.105	338047	keystroke	t	n/a
169.3085	0.12	338617	keystroke	s	n/a
169.5035	0.135	339007	keystroke	Key.space	n/a
170.0585	0.075	340117	keystroke	p	n/a
170.1635	0.12	340327	keystroke	r	n/a
170.3885	0.15	340777	keystroke	a	n/a
170.8235	0.12	341647	keystroke	c	n/a
171.1685	0.105	342337	keystroke	t	n/a
171.3935	0.135	342787	keystroke	i	n/a
171.6635	0.12	343327	keystroke	c	n/a
171.9335	0.09	343867	keystroke	e	n/a
172.2635	0.105	344527	keystroke	s	n/a
172.4885	0.12	344977	keystroke	Key.space	n/a
173.1185	0.15	346237	keystroke	d	n/a
173.2535	0.135	346507	keystroke	o	n/a
173.5085	0.09	347017	keystroke	i	n/a
173.7035	0.09	347407	keystroke	n	n/a
173.8235	0.12	347647	keystroke	g	n/a
174.0035	0.075	348007	keystroke	Key.space	n/a
175.0985	0.075	350197	keystroke	b	n/a
175.3085	0.195	350617	keystroke	r	n/a
175.5935	0.09	351187	keystroke	a	n/a
175.7735	0.12	351547	keystroke	n	n/a
175.9535	0.105	351907	keystroke	d	n/a
176.1185	0.105	352237	keystroke	o	n/a
176.3735	0.09	352747	keystroke	n	n/a
176.7035	0.105	353407	keystroke	Key.enter	n/a
176.815	8.095	353630	prompt	n/a	todd call detail wars\n
177.8735	0.075	355747	keystroke	t	n/a
178.0085	0.12	356017	keystroke	o	n/a
178.2635	0.075	356527	keystroke	d	n/a
178.4435	0.09	356887	keystroke	d	n/a
178.8785	0.105	357757	keystroke	Key.space	n/a
179.1335	0.165	358267	keystroke	c	n/a
179.2535	0.15	358507	keystroke	a	n/a
179.4945	0.089	358989	keystroke	l	n/a
179.7035	0.105	359407	keystroke	l	n/a
179.8685	0.12	359737	keystroke	Key.space	n/a
180.1535	0.105	360307	keystroke	d	n/a
180.3485	0.135	360697	keystroke	e	n/a
180.6935	0.135	361387	keystroke	t	n/a
180.8885	0.165	361777	keystroke	a	n/a
181.3535	0.12	362707	keystroke	i	n/a
181.5935	0.12	363187	keystroke	l	n/a
181.8185	0.09	363637	keystroke	Key.space	n/a
182.0885	0.135	364177	keystroke	w	n/a
182.1785	0.165	364357	keystroke	a	n/a
182.5535	0.105	365107	keystroke	r	n/a
183.0785	0.12	366157	keystroke	s	n/a
184.8035	0.105	369607	keystroke	Key.enter	n/a
184.9135	15.912	369827	prompt	n/a	interesting continued undo university\n
186.2135	0.105	372427	keystroke	i	n/a
186.4685	0.09	372937	keystroke	n	n/a
186.7385	0.12	373477	keystroke	t	n/a
186.8735	0.21	373747	keystroke	e	n/a
187.0385	0.15	374077	keystroke	r	n/a
187.2785	0.15	374557	keystroke	e	n/a
187.5785	0.09	375157	keystroke	s	n/a
187.789	0.0895	375578	keystroke	t	n/a
188.0585	0.09	376117	keystroke	i	n/a
188.5835	0.105	377167	keystroke	n	n/a
188.9285	0.06	377857	keystroke	g	n/a
189.6785	0.12	379357	keystroke	Key.space	n/a
190.0385	0.135	380077	keystroke	c	n/a
190.1585	0.12	380317	keystroke	o	n/a
190.4285	0.09	380857	keystroke	n	n/a
190.5785	0.09	381157	keystroke	t	n/a
190.8785	0.105	381757	keystroke	i	n/a
191.1185	0.105	382237	keystroke	n	n/a
191.6735	0.09	383347	keystroke	u	n/a
192.1085	0.105	384217	keystroke	e	n/a
192.2735	0.03	384547	keystroke	s	n/a
194.1035	0.06	388207	keystroke	Key.backspace	n/a
194.4785	0.075	388957	keystroke	d	n/a
194.6735	0.105	389347	keystroke	Key.space	n/a
195.7535	0.12	391507	keystroke	u	n/a
195.9935	0.09	391987	keystroke	n	n/a
196.3085	0.12	392617	keystroke	d	n/a
196.4885	0.135	392977	keystroke	o	n/a
196.7735	0.12	393547	keystroke	Key.space	n/a
197.9135	0.105	395827	keystroke	u	n/a
198.1835	0.075	396367	keystroke	n	n/a
198.3485	0.09	396697	keystroke	i	n/a
198.5885	0.075	397177	keystroke	v	n/a
198.7535	0.12	397507	keystroke	e	n/a
198.9935	0.105	397987	keystroke	r	n/a
199.2035	0.135	398407	keystroke	s	n/a
199.4435	0.12	398887	keystroke	i	n/a
199.6985	0.09	399397	keystroke	t	n/a
199.8935	0.075	399787	keystroke	y	n/a
200.7035	0.12	401407	keystroke	Key.enter	n/a
200.8285	10.5115	401657	prompt	n/a	filters extends lined minnesota\n
202.3985	0.09	404797	keystroke	f	n/a
202.5335	0.12	405067	keystroke	i	n/a
202.7735	0.105	405547	keystroke	l	n/a
203.0135	0.075	406027	keystroke	t	n/a
203.2385	0.135	406477	keystroke	e	n/a
203.4185	0.12	406837	keystroke	r	n/a
203.6135	0.15	407227	keystroke	s	n/a
203.8085	0.12	407617	keystroke	Key.space	n/a
203.9585	0.135	407917	keystroke	e	n/a
204.3335	0.015	408667	keystroke	x	n/a
205.2335	0.09	410467	keystroke	t	n/a
205.3085	0.135	410617	keystroke	e	n/a
205.5185	0.12	411037	keystroke	n	n/a
205.6835	0.12	411367	keystroke	d	n/a
205.9685	0.135	411937	keystroke	s	n/a
206.2535	0.12	412507	keystroke	Key.space	n/a
206.4935	0.135	412987	keystroke	l	n/a
206.7335	0.165	413467	keystroke	i	n/a
207.0635	0.105	414127	keystroke	n	n/a
207.2735	0.09	414547	keystroke	e	n/a
207.5885	0.09	415177	keystroke	d	n/a
208.2485	0.135	416497	keystroke	Key.space	n/a
208.6535	0.12	417307	keystroke	m	n/a
208.8935	0.105	417787	keystroke	i	n/a
209.3735	0.075	418747	keystroke	n	n/a
209.5685	0.06	419137	keystroke	n	n/a
209.7935	0.075	419587	keystroke	e	n/a
210.0185	0.18	420037	keystroke	s	n/a
210.3785	0.12	420757	keystroke	o	n/a
210.8435	0.045	421687	keystroke	t	n/a
210.9335	0.15	421867	keystroke	a	n/a
211.2335	0.105	422467	keystroke	Key.enter	n/a
211.3435	13.827	422687	prompt	n/a	dealtime assumption interested tanks\n
212.2685	0.09	424537	keystroke	d	n/a
212.4635	0.135	424927	keystroke	e	n/a
212.5835	0.15	425167	keystroke	a	n/a
212.8685	0.12	425737	keystroke	l	n/a
213.3035	0.12	426607	keystroke	t	n/a
213.4685	0.135	426937	keystroke	i	n/a
213.7985	0.135	427597	keystroke	m	n/a
213.9485	0.18	427897	keystroke	e	n/a
214.9685	0.12	429937	keystroke	Key.space	n/a
215.1935	0.135	430387	keystroke	a	n/a
215.4485	0.09	430897	keystroke	s	n/a
215.6435	0.105	431287	keystroke	s	n/a
215.8685	0.12	431737	keystroke	u	n/a
216.1985	0.12	432397	keystroke	m	n/a
216.4835	0.105	432967	keystroke	p	n/a
216.8285	0.15	433657	keystroke	t	n/a
217.1135	0.09	434227	keystroke	i	n/a
217.3385	0.105	434677	keystroke	o	n/a
217.5485	0.105	435097	keystroke	n	n/a
218.089	0.12	436178	keystroke	Key.space	n/a
218.344	0.105	436688	keystroke	i	n/a
218.539	0.105	437078	keystroke	n	n/a
218.704	0.12	437408	keystroke	t	n/a
218.869	0.21	437738	keystroke	e	n/a
219.034	0.15	438068	keystroke	r	n/a
219.214	0.12	438428	keystroke	e	n/a
219.514	0.09	439028	keystroke	s	n/a
219.709	0.06	439418	keystroke	s	n/a
220.234	0.045	440468	keystroke	Key.backspace	n/a
220.954	0.09	441908	keystroke	t	n/a
221.149	0.075	442298	keystroke	e	n/a
221.404	0.09	442808	keystroke	d	n/a
221.539	0.105	443078	keystroke	Key.space	n/a
223.609	0.165	447218	keystroke	t	n/a
223.759	0.135	447518	keystroke	a	n/a
223.924	0.12	447848	keystroke	n	n/a
224.104	0.105	448208	keystroke	k	n/a
224.329	0.135	448658	keystroke	s	n/a
225.049	0.12	450098	keystroke	Key.enter	n/a
225.175	17.7255	450350	prompt	n/a	we'd've campaign consequence boom\n
227.676	0.133	455352	keystroke	w	n/a
228.004	0.105	456008	keystroke	e	n/a
228.484	0.18	456968	keystroke	'	n/a
229.759	0.12	459518	keystroke	d	n/a
230.584	0.135	461168	keystroke	'	n/a
230.959	0.12	461918	keystroke	v	n/a
231.289	0.075	462578	keystroke	e	n/a
231.904	0.12	463808	keystroke	Key.space	n/a
232.849	0.1645	465698	keystroke	c	n/a
232.969	0.1495	465938	keystroke	a	n/a
233.1635	0.18	466327	keystroke	m	n/a
233.4785	0.105	466957	keystroke	p	n/a
233.6885	0.15	467377	keystroke	a	n/a
234.0485	0.12	468097	keystroke	i	n/a
234.6785	0.12	469357	keystroke	g	n/a
234.8585	0.12	469717	keystroke	n	n/a
235.3685	0.12	470737	keystroke	Key.space	n/a
235.7585	0.15	471517	keystroke	c	n/a
235.8935	0.105	471787	keystroke	o	n/a
236.1335	0.06	472267	keystroke	n	n/a
237.4085	0.136	474817	keystroke	s	n/a
238.0685	0.12	476137	keystroke	e	n/a
239.1645	0.119	478329	keystroke	q	n/a
239.4185	0.12	478837	keystroke	u	n/a
239.7195	0.104	479439	keystroke	e	n/a
240.2435	0.061	480487	keystroke	n	n/a
240.5585	0.166	481117	keystroke	c	n/a
240.8435	0.091	481687	keystroke	e	n/a
241.4585	0.105	482917	keystroke	Key.space	n/a
241.7285	0.09	483457	keystroke	b	n/a
241.9835	0.106	483967	keystroke	o	n/a
242.1935	0.105	484387	keystroke	o	n/a
242.4485	0.091	484897	keystroke	m	n/a
242.8235	0.075	485647	keystroke	Key.enter	n/a
242.903	13.1975	485806	prompt	n/a	lebanon academy buyers empire\n
243.9785	0.105	487957	keystroke	l	n/a
244.1435	0.136	488287	keystroke	e	n/a
244.8195	0.089	489639	keystroke	b	n/a
245.0285	0.12	490057	keystroke	a	n/a
245.5685	0.091	491137	keystroke	n	n/a
245.7785	0.091	491557	keystroke	o	n/a
246.0335	0.106	492067	keystroke	n	n/a
246.2585	0.12	492517	keystroke	Key.space	n/a
246.6635	0.135	493327	keystroke	a	n/a
247.2335	0.165	494467	keystroke	c	n/a
247.4885	0.135	494977	keystroke	a	n/a
248.0585	0.165	496117	keystroke	d	n/a
248.9885	0.135	497977	keystroke	e	n/a
249.1685	0.09	498337	keystroke	m	n/a
249.4535	0.106	498907	keystroke	y	n/a
249.6935	0.12	499387	keystroke	Key.space	n/a
250.6095	0.074	501219	keystroke	b	n/a
250.8635	0.12	501727	keystroke	u	n/a
251.1635	0.061	502327	keystroke	y	n/a
252.1835	0.15	504367	keystroke	e	n/a
252.3785	0.15	504757	keystroke	r	n/a
252.5735	0.196	505147	keystroke	s	n/a
252.8285	0.135	505657	keystroke	Key.space	n/a
253.0835	0.136	506167	keystroke	e	n/a
254.1495	0.104	508299	keystroke	m	n/a
254.4035	0.06	508807	keystroke	p	n/a
254.6595	0.09	509319	keystroke	i	n/a
254.9435	0.18	509887	keystroke	r	n/a
255.0635	0.181	510127	keystroke	e	n/a
255.9785	0.121	511957	keystroke	Key.enter	n/a
256.1035	10.857	512207	prompt	n/a	indie surveillance girls brass\n
257.1945	0.104	514389	keystroke	i	n/a
257.4195	0.075	514839	keystroke	n	n/a
257.7645	0.135	515529	keystroke	d	n/a
257.8835	0.121	515767	keystroke	i	n/a
258.1695	0.165	516339	keystroke	e	n/a
258.4535	0.105	516907	keystroke	Key.space	n/a
258.7545	0.119	517509	keystroke	s	n/a
259.0995	0.12	518199	keystroke	u	n/a
259.3695	0.104	518739	keystroke	r	n/a
260.6135	0.121	521227	keystroke	v	n/a
260.7635	0.151	521527	keystroke	e	n/a
261.0195	0.12	522039	keystroke	i	n/a
261.2885	0.045	522577	keystroke	l	n/a
261.4235	0.106	522847	keystroke	l	n/a
261.6195	0.134	523239	keystroke	a	n/a
261.8745	0.105	523749	keystroke	n	n/a
262.0695	0.18	524139	keystroke	c	n/a
262.2945	0.119	524589	keystroke	e	n/a
262.4285	0.105	524857	keystroke	Key.space	n/a
262.8035	0.105	525607	keystroke	g	n/a
262.9395	0.164	525879	keystroke	i	n/a
263.1635	0.121	526327	keystroke	r	n/a
263.3595	0.15	526719	keystroke	l	n/a
263.5695	0.119	527139	keystroke	s	n/a
264.3935	0.105	528787	keystroke	Key.space	n/a
264.6645	0.105	529329	keystroke	b	n/a
264.8445	0.18	529689	keystroke	r	n/a
265.1745	0.134	530349	keystroke	a	n/a
265.4895	0.06	530979	keystroke	s	n/a
265.6535	0.136	531307	keystroke	s	n/a
266.7945	0.165	533589	keystroke	Key.enter	n/a
266.9635	8.292	533927	prompt	n/a	linked wheel select amended\n
267.7845	0.1345	535569	keystroke	l	n/a
268.024	0.12	536048	keystroke	i	n/a
268.294	0.105	536588	keystroke	n	n/a
268.459	0.12	536918	keystroke	k	n/a
268.684	0.135	537368	keystroke	e	n/a
268.939	0.105	537878	keystroke	d	n/a
269.134	0.105	538268	keystroke	Key.space	n/a
269.479	0.18	538958	keystroke	w	n/a
269.689	0.12	539378	keystroke	h	n/a
270.004	0.06	540008	keystroke	e	n/a
270.169	0.105	540338	keystroke	e	n/a
270.394	0.15	540788	keystroke	l	n/a
270.649	0.12	541298	keystroke	Key.space	n/a
270.904	0.225	541808	keystroke	s	n/a
271.054	0.15	542108	keystroke	e	n/a
271.324	0.12	542648	keystroke	l	n/a
271.669	0.12	543338	keystroke	e	n/a
272.014	0.15	544028	keystroke	c	n/a
272.344	0.09	544688	keystroke	t	n/a
272.539	0.105	545078	keystroke	Key.space	n/a
272.749	0.15	545498	keystroke	a	n/a
272.929	0.135	545858	keystroke	m	n/a
273.274	0.15	546548	keystroke	e	n/a
273.634	0.12	547268	keystroke	n	n/a
274.114	0.135	548228	keystroke	d	n/a
274.354	0.12	548708	keystroke	e	n/a
274.594	0.105	549188	keystroke	d	n/a
275.104	0.15	550208	keystroke	Key.enter	n/a
275.258	11.833	550516	prompt	n/a	muscles though operator centuries\n
276.184	0.12	552368	keystroke	m	n/a
277.339	0.12	554678	keystroke	u	n/a
277.909	0.105	555818	keystroke	s	n/a
278.179	0.15	556358	keystroke	c	n/a
278.509	0.135	557018	keystroke	l	n/a
278.674	0.15	557348	keystroke	e	n/a
278.869	0.135	557738	keystroke	s	n/a
279.064	0.12	558128	keystroke	Key.space	n/a
279.349	0.105	558698	keystroke	t	n/a
279.484	0.09	558968	keystroke	h	n/a
279.679	0.15	559358	keystroke	o	n/a
279.874	0.105	559748	keystroke	u	n/a
280.744	0.12	561488	keystroke	g	n/a
280.865	0.119	561730	keystroke	h	n/a
281.149	0.105	562298	keystroke	Key.space	n/a
281.704	0.135	563408	keystroke	o	n/a
282.004	0.12	564008	keystroke	p	n/a
282.259	0.18	564518	keystroke	e	n/a
282.379	0.15	564758	keystroke	r	n/a
282.574	0.195	565148	keystroke	a	n/a
282.859	0.105	565718	keystroke	t	n/a
283.369	0.15	566738	keystroke	o	n/a
283.564	0.135	567128	keystroke	r	n/a
283.789	0.135	567578	keystroke	Key.space	n/a
284.329	0.18	568658	keystroke	c	n/a
284.539	0.15	569078	keystroke	e	n/a
284.659	0.135	569318	keystroke	n	n/a
284.854	0.075	569708	keystroke	t	n/a
285.604	0.12	571208	keystroke	u	n/a
285.769	0.12	571538	keystroke	r	n/a
285.904	0.135	571808	keystroke	i	n/a
286.054	0.18	572108	keystroke	e	n/a
286.204	0.18	572408	keystroke	s	n/a
286.429	0.105	572858	keystroke	Key.space	n/a
286.954	0.135	573908	keystroke	Key.enter	n/a
287.0965	10.7645	574193	prompt	n/a	adventures duty sports nicholas\n
288.289	0.135	576578	keystroke	a	n/a
288.649	0.105	577298	keystroke	d	n/a
288.979	0.105	577958	keystroke	v	n/a
289.144	0.135	578288	keystroke	e	n/a
289.324	0.12	578648	keystroke	n	n/a
289.549	0.105	579098	keystroke	t	n/a
289.834	0.135	579668	keystroke	u	n/a
289.984	0.12	579968	keystroke	r	n/a
290.179	0.135	580358	keystroke	e	n/a
291.154	0.12	582308	keystroke	s	n/a
291.409	0.135	582818	keystroke	Key.space	n/a
291.694	0.15	583388	keystroke	d	n/a
292.084	0.12	584168	keystroke	u	n/a
292.279	0.15	584558	keystroke	t	n/a
292.504	0.165	585008	keystroke	y	n/a
292.789	0.12	585578	keystroke	Key.space	n/a
293.134	0.135	586268	keystroke	s	n/a
293.284	0.165	586568	keystroke	p	n/a
293.629	0.15	587258	keystroke	o	n/a
293.824	0.135	587648	keystroke	r	n/a
294.424	0.135	588848	keystroke	t	n/a
294.709	0.105	589418	keystroke	s	n/a
294.889	0.135	589778	keystroke	Key.space	n/a
295.189	0.12	590378	keystroke	n	n/a
295.444	0.135	590888	keystroke	i	n/a
295.804	0.15	591608	keystroke	c	n/a
296.179	0.105	592358	keystroke	h	n/a
296.434	0.15	592868	keystroke	o	n/a
296.704	0.15	593408	keystroke	l	n/a
297.064	0.195	594128	keystroke	a	n/a
297.334	0.105	594668	keystroke	s	n/a
297.679	0.18	595358	keystroke	Key.enter	n/a
297.864	11.607	595728	prompt	n/a	hughes execution who's feeds\n
299.089	0.09	598178	keystroke	h	n/a
299.254	0.105	598508	keystroke	u	n/a
299.449	0.12	598898	keystroke	g	n/a
299.629	0.09	599258	keystroke	h	n/a
299.779	0.15	599558	keystroke	e	n/a
300.004	0.12	600008	keystroke	s	n/a
300.184	0.12	600368	keystroke	Key.space	n/a
300.409	0.12	600818	keystroke	e	n/a
301.099	0.09	602198	keystroke	x	n/a
301.52	0.134	603040	keystroke	e	n/a
302.089	0.165	604178	keystroke	c	n/a
302.554	0.105	605108	keystroke	u	n/a
302.749	0.09	605498	keystroke	t	n/a
303.619	0.105	607238	keystroke	i	n/a
303.979	0.105	607958	keystroke	o	n/a
304.34	0.104	608680	keystroke	n	n/a
304.924	0.12	609848	keystroke	Key.space	n/a
305.254	0.136	610508	keystroke	w	n/a
305.404	0.105	610808	keystroke	h	n/a
305.629	0.12	611258	keystroke	o	n/a
306.364	0.15	612728	keystroke	'	n/a
306.499	0.165	612998	keystroke	s	n/a
306.679	0.105	613358	keystroke	Key.space	n/a
307.504	0.18	615008	keystroke	f	n/a
307.669	0.135	615338	keystroke	e	n/a
307.984	0.075	615968	keystroke	e	n/a
308.194	0.105	616388	keystroke	d	n/a
308.539	0.105	617078	keystroke	s	n/a
309.3495	0.12	618699	keystroke	Key.enter	n/a
309.4745	11.6215	618949	prompt	n/a	legend provision morris practice\n
312.3365	0.058	624673	keystroke	l	n/a
312.4245	0.105	624849	keystroke	e	n/a
312.6795	0.1045	625359	keystroke	g	n/a
312.8595	0.12	625719	keystroke	e	n/a
313.0395	0.09	626079	keystroke	n	n/a
313.2045	0.15	626409	keystroke	d	n/a
313.4145	0.105	626829	keystroke	Key.space	n/a
313.6995	0.12	627399	keystroke	p	n/a
313.8795	0.12	627759	keystroke	r	n/a
314.2845	0.105	628569	keystroke	o	n/a
314.6895	0.12	629379	keystroke	v	n/a
314.8245	0.105	629649	keystroke	i	n/a
315.0195	0.135	630039	keystroke	s	n/a
315.2145	0.105	630429	keystroke	i	n/a
315.4395	0.075	630879	keystroke	o	n/a
315.6345	0.09	631269	keystroke	n	n/a
315.7845	0.12	631569	keystroke	Key.space	n/a
316.3395	0.15	632679	keystroke	m	n/a
316.5345	0.075	633069	keystroke	o	n/a
316.7445	0.12	633489	keystroke	r	n/a
316.984	0.105	633968	keystroke	r	n/a
317.27	0.12	634540	keystroke	i	n/a
317.434	0.121	634868	keystroke	s	n/a
317.764	0.135	635528	keystroke	Key.space	n/a
318.05	0.119	636100	keystroke	p	n/a
318.365	0.134	636730	keystroke	r	n/a
318.53	0.165	637060	keystroke	a	n/a
318.92	0.165	637840	keystroke	c	n/a
319.249	0.121	638498	keystroke	t	n/a
319.85	0.104	639700	keystroke	i	n/a
320.465	0.119	640930	keystroke	c	n/a
320.69	0.12	641380	keystroke	e	n/a
320.974	0.12	641948	keystroke	Key.enter	n/a
321.0995	13.4515	642199	prompt	n/a	declare wings created legitimate\n
322.13	0.104	644260	keystroke	d	n/a
322.34	0.1045	644680	keystroke	e	n/a
322.5795	0.105	645159	keystroke	c	n/a
322.7745	0.134	645549	keystroke	l	n/a
322.9835	0.15	645967	keystroke	a	n/a
323.3735	0.1065	646747	keystroke	r	n/a
323.6	0.135	647200	keystroke	e	n/a
323.809	0.105	647618	keystroke	Key.space	n/a
324.02	0.15	648040	keystroke	w	n/a
324.305	0.105	648610	keystroke	i	n/a
324.575	0.09	649150	keystroke	n	n/a
324.9345	0.135	649869	keystroke	g	n/a
325.2345	0.149	650469	keystroke	s	n/a
326.03	0.149	652060	keystroke	Key.space	n/a
326.24	0.15	652480	keystroke	c	n/a
326.509	0.091	653018	keystroke	r	n/a
326.749	0.1355	653498	keystroke	e	n/a
326.9445	0.165	653889	keystroke	a	n/a
327.3195	0.104	654639	keystroke	t	n/a
327.5295	0.09	655059	keystroke	e	n/a
327.7395	0.135	655479	keystroke	d	n/a
327.9185	0.135	655837	keystroke	Key.space	n/a
328.1735	0.091	656347	keystroke	l	n/a
328.2795	0.12	656559	keystroke	e	n/a
328.7745	0.135	657549	keystroke	f	n/a
329.0745	0.105	658149	keystroke	e	n/a
329.4645	0.075	658929	keystroke	Key.backspace	n/a
329.6585	0.091	659317	keystroke	Key.backspace	n/a
330.514	0.09	661028	keystroke	g	n/a
332.0895	0.105	664179	keystroke	i	n/a
332.9145	0.09	665829	keystroke	t	n/a
333.0645	0.105	666129	keystroke	i	n/a
333.3045	0.12	666609	keystroke	m	n/a
333.5145	0.135	667029	keystroke	a	n/a
333.8145	0.12	667629	keystroke	t	n/a
334.0095	0.105	668019	keystroke	e	n/a
334.4745	0.075	668949	keystroke	Key.enter	n/a
334.554	14.742	669108	prompt	n/a	why'd article efficient benjamin\n
335.7495	0.15	671499	keystroke	w	n/a
335.9445	0.09	671889	keystroke	h	n/a
336.1395	0.105	672279	keystroke	y	n/a
337.0995	0.12	674199	keystroke	'	n/a
337.2645	0.15	674529	keystroke	s	n/a
337.8045	0.135	675609	keystroke	Key.space	n/a
338.1645	0.12	676329	keystroke	a	n/a
338.4195	0.105	676839	keystroke	r	n/a
338.6445	0.06	677289	keystroke	t	n/a
338.7945	0.12	677589	keystroke	i	n/a
339.0495	0.12	678099	keystroke	c	n/a
339.2295	0.045	678459	keystroke	i	n/a
340.5645	0.09	681129	keystroke	l	n/a
342.1545	0.075	684309	keystroke	Key.backspace	n/a
342.4245	0.09	684849	keystroke	Key.backspace	n/a
342.9045	0.12	685809	keystroke	l	n/a
343.0995	0.105	686199	keystroke	e	n/a
343.3695	0.12	686739	keystroke	Key.space	n/a
344.0895	0.12	688179	keystroke	e	n/a
344.3745	0.06	688749	keystroke	f	n/a
344.5545	0.09	689109	keystroke	f	n/a
344.7345	0.105	689469	keystroke	i	n/a
344.9445	0.12	689889	keystroke	c	n/a
345.2295	0.105	690459	keystroke	i	n/a
345.7395	0.105	691479	keystroke	e	n/a
346.1445	0.18	692289	keystroke	n	n/a
346.4445	0.105	692889	keystroke	t	n/a
346.6395	0.135	693279	keystroke	Key.space	n/a
347.2845	0.09	694569	keystroke	b	n/a
347.4345	0.135	694869	keystroke	e	n/a
347.6445	0.105	695289	keystroke	n	n/a
347.8845	0.12	695769	keystroke	j	n/a
348.1095	0.12	696219	keystroke	a	n/a
348.2895	0.12	696579	keystroke	m	n/a
348.5145	0.105	697029	keystroke	i	n/a
348.6945	0.12	697389	keystroke	n	n/a
349.1745	0.12	698349	keystroke	Key.enter	n/a
349.301	18.6125	698602	prompt	n/a	what'd philippines andorra bacteria\n
350.4795	0.165	700959	keystroke	w	n/a
350.7045	0.09	701409	keystroke	h	n/a
350.8545	0.165	701709	keystroke	a	n/a
351.0795	0.165	702159	keystroke	t	n/a
351.6945	0.135	703389	keystroke	'	n/a
352.2495	0.135	704499	keystroke	s	n/a
353.4495	0.18	706899	keystroke	Key.backspace	n/a
353.7495	0.135	707499	keystroke	d	n/a
354.1545	0.15	708309	keystroke	Key.space	n/a
356.0145	0.15	712029	keystroke	p	n/a
356.2845	0.09	712569	keystroke	h	n/a
356.4795	0.105	712959	keystroke	i	n/a
356.7195	0.12	713439	keystroke	l	n/a
357.4695	0.165	714939	keystroke	l	n/a
358.8945	0.135	717789	keystroke	i	n/a
359.1795	0.12	718359	keystroke	p	n/a
359.5545	0.165	719109	keystroke	p	n/a
359.8995	0.135	719799	keystroke	i	n/a
360.2595	0.135	720519	keystroke	n	n/a
360.4245	0.135	720849	keystroke	e	n/a
360.6195	0.15	721239	keystroke	s	n/a
360.9945	0.135	721989	keystroke	Key.space	n/a
361.2795	0.12	722559	keystroke	a	n/a
361.4895	0.12	722979	keystroke	n	n/a
361.6995	0.165	723399	keystroke	d	n/a
361.9095	0.12	723819	keystroke	o	n/a
362.3295	0.105	724659	keystroke	r	n/a
362.5395	0.105	725079	keystroke	r	n/a
362.7045	0.12	725409	keystroke	a	n/a
363.2445	0.12	726489	keystroke	Key.space	n/a
364.1295	0.03	728259	keystroke	b	n/a
364.8645	0.135	729729	keystroke	a	n/a
365.6145	0.15	731229	keystroke	c	n/a
366.4245	0.12	732849	keystroke	t	n/a
366.6045	0.165	733209	keystroke	e	n/a
366.7995	0.165	733599	keystroke	r	n/a
367.0395	0.165	734079	keystroke	i	n/a
367.4445	0.135	734889	keystroke	a	n/a
367.7895	0.12	735579	keystroke	Key.enter	n/a
367.918	12.458	735836	prompt	n/a	carol usual supposed liverpool\n
369.1545	0.165	738309	keystroke	c	n/a
369.2895	0.195	738579	keystroke	a	n/a
369.5145	0.15	739029	keystroke	r	n/a
370.0245	0.12	740049	keystroke	o	n/a
370.2795	0.15	740559	keystroke	l	n/a
370.5795	0.105	741159	keystroke	Key.space	n/a
371.1945	0.135	742389	keystroke	u	n/a
371.3895	0.135	742779	keystroke	s	n/a
371.7495	0.135	743499	keystroke	u	n/a
372.0495	0.135	744099	keystroke	a	n/a
372.2145	0.165	744429	keystroke	l	n/a
372.4545	0.135	744909	keystroke	Key.space	n/a
372.7695	0.135	745539	keystroke	s	n/a
372.9645	0.12	745929	keystroke	u	n/a
373.1745	0.12	746349	keystroke	p	n/a
373.4145	0.06	746829	keystroke	p	n/a
374.2995	0.135	748599	keystroke	o	n/a
374.6145	0.15	749229	keystroke	s	n/a
374.8545	0.105	749709	keystroke	e	n/a
375.0645	0.105	750129	keystroke	d	n/a
375.5295	0.15	751059	keystroke	Key.space	n/a
375.7545	0.15	751509	keystroke	l	n/a
376.0095	0.135	752019	keystroke	i	n/a
376.6095	0.105	753219	keystroke	v	n/a
376.7595	0.18	753519	keystroke	e	n/a
376.9245	0.09	753849	keystroke	r	n/a
377.3745	0.105	754749	keystroke	p	n/a
378.7245	0.06	757449	keystroke	o	n/a
378.8905	0.089	757781	keystroke	o	n/a
379.4895	0.075	758979	keystroke	l	n/a
380.2395	0.135	760479	keystroke	Key.enter	n/a
380.379	19.5575	760758	prompt	n/a	constitution villas training exchanges\n
381.5295	0.165	763059	keystroke	c	n/a
381.935	0.135	763870	keystroke	o	n/a
382.205	0.09	764410	keystroke	n	n/a
382.46	0.135	764920	keystroke	t	n/a
383.315	0.12	766630	keystroke	i	n/a
383.615	0.09	767230	keystroke	t	n/a
383.945	0.12	767890	keystroke	u	n/a
384.455	0.12	768910	keystroke	t	n/a
384.575	0.135	769150	keystroke	i	n/a
384.8	0.09	769600	keystroke	o	n/a
385.025	0.105	770050	keystroke	n	n/a
385.52	0.135	771040	keystroke	Key.space	n/a
386.42	0.12	772840	keystroke	v	n/a
386.57	0.135	773140	keystroke	i	n/a
386.855	0.06	773710	keystroke	l	n/a
387.02	0.12	774040	keystroke	l	n/a
387.215	0.165	774430	keystroke	a	n/a
387.485	0.15	774970	keystroke	s	n/a
388.52	0.135	777040	keystroke	Key.space	n/a
393.262	0.103	786524	keystroke	t	n/a
393.32	0.195	786640	keystroke	r	n/a
393.455	0.18	786910	keystroke	a	n/a
393.695	0.12	787390	keystroke	i	n/a
394.01	0.135	788020	keystroke	n	n/a
394.52	0.105	789040	keystroke	i	n/a
394.835	0.075	789670	keystroke	n	n/a
394.985	0.165	789970	keystroke	g	n/a
395.105	0.09	790210	keystroke	Key.space	n/a
396.2	0.12	792400	keystroke	e	n/a
396.65	0.165	793300	keystroke	x	n/a
397.655	0.15	795310	keystroke	c	n/a
397.82	0.135	795640	keystroke	h	n/a
398.015	0.135	796030	keystroke	a	n/a
398.3	0.15	796600	keystroke	n	n/a
398.96	0.12	797920	keystroke	g	n/a
399.125	0.135	798250	keystroke	e	n/a
399.335	0.135	798670	keystroke	s	n/a
399.8	0.135	799600	keystroke	Key.enter	n/a
399.9395	13.7375	799879	prompt	n/a	interpreted discussions lean acceptance\n
400.88	0.105	801760	keystroke	i	n/a
401.12	0.09	802240	keystroke	n	n/a
401.285	0.135	802570	keystroke	t	n/a
401.45	0.225	802900	keystroke	e	n/a
401.645	0.12	803290	keystroke	r	n/a
402.62	0.12	805240	keystroke	p	n/a
402.845	0.15	805690	keystroke	r	n/a
402.965	0.15	805930	keystroke	e	n/a
403.595	0.12	807190	keystroke	t	n/a
403.805	0.135	807610	keystroke	e	n/a
404.195	0.165	808390	keystroke	d	n/a
404.51	0.12	809020	keystroke	Key.space	n/a
405.02	0.135	810040	keystroke	d	n/a
405.245	0.135	810490	keystroke	i	n/a
405.47	0.135	810940	keystroke	s	n/a
405.95	0.12	811900	keystroke	c	n/a
406.46	0.075	812920	keystroke	u	n/a
407.27	0.09	814540	keystroke	s	n/a
407.45	0.105	814900	keystroke	s	n/a
408.02	0.075	816040	keystroke	i	n/a
408.23	0.06	816460	keystroke	o	n/a
408.41	0.075	816820	keystroke	n	n/a
408.59	0.12	817180	keystroke	s	n/a
408.83	0.135	817660	keystroke	Key.space	n/a
409.055	0.135	818110	keystroke	l	n/a
409.22	0.18	818440	keystroke	e	n/a
409.535	0.12	819070	keystroke	a	n/a
409.76	0.12	819520	keystroke	n	n/a
409.97	0.105	819940	keystroke	Key.space	n/a
410.225	0.12	820450	keystroke	a	n/a
410.54	0.12	821080	keystroke	c	n/a
410.765	0.12	821530	keystroke	c	n/a
411.035	0.12	822070	keystroke	e	n/a
411.335	0.12	822670	keystroke	p	n/a
411.68	0.15	823360	keystroke	t	n/a
411.845	0.105	823690	keystroke	e	n/a
412.355	0.121	824710	keystroke	Key.backspace	n/a
412.58	0.12	825160	keystroke	a	n/a
412.79	0.12	825580	keystroke	n	n/a
413.03	0.225	826060	keystroke	c	n/a
413.24	0.135	826480	keystroke	e	n/a
413.555	0.12	827110	keystroke	Key.enter	n/a
413.6805	14.412	827361	prompt	n/a	worm rotation nevada turning\n
414.605	0.15	829210	keystroke	w	n/a
414.8	0.15	829600	keystroke	o	n/a
415.01	0.15	830020	keystroke	r	n/a
415.415	0.15	830830	keystroke	m	n/a
415.7	0.105	831400	keystroke	Key.space	n/a
416.15	0.135	832300	keystroke	t	n/a
416.3	0.135	832600	keystroke	o	n/a
416.5095	0.105	833019	keystroke	r	n/a
416.9445	0.075	833889	keystroke	Key.backspace	n/a
417.1695	0.09	834339	keystroke	Key.backspace	n/a
417.4995	0.075	834999	keystroke	Key.backspace	n/a
418.2495	0.075	836499	keystroke	r	n/a
418.3695	0.12	836739	keystroke	o	n/a
418.5795	0.105	837159	keystroke	t	n/a
418.7595	0.15	837519	keystroke	a	n/a
418.9995	0.105	837999	keystroke	t	n/a
419.1345	0.12	838269	keystroke	i	n/a
419.3445	0.09	838689	keystroke	o	n/a
419.5545	0.105	839109	keystroke	n	n/a
420.3195	0.15	840639	keystroke	Key.space	n/a
420.575	0.105	841150	keystroke	n	n/a
420.725	0.12	841450	keystroke	e	n/a
421.8495	0.15	843699	keystroke	v	n/a
421.9695	0.18	843939	keystroke	a	n/a
422.4645	0.135	844929	keystroke	d	n/a
422.6295	0.12	845259	keystroke	a	n/a
423.4395	0.12	846879	keystroke	Key.space	n/a
423.8745	0.12	847749	keystroke	t	n/a
424.0695	0.105	848139	keystroke	u	n/a
424.2495	0.105	848499	keystroke	r	n/a
424.4295	0.09	848859	keystroke	n	n/a
427.1025	0.042	854205	keystroke	i	n/a
427.2645	0.105	854529	keystroke	n	n/a
427.4305	0.119	854861	keystroke	g	n/a
427.9695	0.12	855939	keystroke	Key.enter	n/a
428.0955	18.9265	856191	prompt	n/a	armed zope sara restructuring\n
429.41	0.165	858820	keystroke	a	n/a
429.665	0.12	859330	keystroke	r	n/a
429.905	0.135	859810	keystroke	m	n/a
430.07	0.105	860140	keystroke	e	n/a
430.325	0.075	860650	keystroke	d	n/a
430.46	0.105	860920	keystroke	Key.space	n/a
430.88	0.15	861760	keystroke	z	n/a
431.135	0.15	862270	keystroke	o	n/a
431.63	0.105	863260	keystroke	p	n/a
431.96	0.12	863920	keystroke	e	n/a
432.29	0.12	864580	keystroke	Key.space	n/a
432.68	0.18	865360	keystroke	s	n/a
432.875	0.135	865750	keystroke	a	n/a
434.4205	0.15	868841	keystroke	r	n/a
434.5855	0.135	869171	keystroke	a	n/a
434.8705	0.18	869741	keystroke	Key.space	n/a
435.5455	0.18	871091	keystroke	r	n/a
435.6805	0.165	871361	keystroke	e	n/a
436.2805	0.105	872561	keystroke	s	n/a
437.2705	0.15	874541	keystroke	t	n/a
437.4355	0.105	874871	keystroke	r	n/a
437.4805	0.045	874961	keystroke	e	n/a
439.0405	0.075	878081	keystroke	=	n/a
439.5205	0.075	879041	keystroke	Key.backspace	n/a
439.8505	0.075	879701	keystroke	Key.backspace	n/a
441.4105	0.09	882821	keystroke	u	n/a
441.7255	0.09	883451	keystroke	c	n/a
442.5955	0.12	885191	keystroke	t	n/a
444.8625	0.028	889725	keystroke	u	n/a
445.0105	0.075	890021	keystroke	r	n/a
445.1155	0.105	890231	keystroke	i	n/a
445.3255	0.09	890651	keystroke	n	n/a
445.4605	0.09	890921	keystroke	g	n/a
445.7905	0.075	891581	keystroke	Key.space	n/a
446.6305	0.075	893261	keystroke	Key.backspace	n/a
446.9455	0.075	893891	keystroke	Key.enter	n/a
447.025	8.832	894050	prompt	n/a	instant mirror ones lance\n
448.1605	0.105	896321	keystroke	i	n/a
448.3555	0.105	896711	keystroke	n	n/a
448.7005	0.12	897401	keystroke	s	n/a
448.8955	0.135	897791	keystroke	t	n/a
449.0455	0.12	898091	keystroke	a	n/a
449.1955	0.12	898391	keystroke	n	n/a
449.6155	0.09	899231	keystroke	t	n/a
449.8405	0.105	899681	keystroke	Key.space	n/a
450.1105	0.135	900221	keystroke	m	n/a
450.3355	0.105	900671	keystroke	i	n/a
450.5005	0.105	901001	keystroke	r	n/a
450.7255	0.09	901451	keystroke	r	n/a
451.2805	0.135	902561	keystroke	o	n/a
451.5205	0.105	903041	keystroke	r	n/a
451.7305	0.135	903461	keystroke	Key.space	n/a
452.3755	0.105	904751	keystroke	o	n/a
452.6005	0.09	905201	keystroke	n	n/a
452.7505	0.09	905501	keystroke	c	n/a
453.2605	0.09	906521	keystroke	Key.backspace	n/a
453.4105	0.12	906821	keystroke	e	n/a
453.9355	0.135	907871	keystroke	s	n/a
454.0555	0.12	908111	keystroke	Key.space	n/a
454.3405	0.12	908681	keystroke	l	n/a
454.4305	0.135	908861	keystroke	a	n/a
454.6255	0.105	909251	keystroke	n	n/a
455.1055	0.225	910211	keystroke	c	n/a
455.3455	0.12	910691	keystroke	e	n/a
455.7355	0.12	911471	keystroke	Key.enter	n/a
455.8605	14.7415	911721	prompt	n/a	stud amenities stocks conditions\n
456.6805	0.135	913361	keystroke	s	n/a
456.9355	0.135	913871	keystroke	t	n/a
457.7155	0.135	915431	keystroke	u	n/a
457.9105	0.165	915821	keystroke	d	n/a
458.0905	0.135	916181	keystroke	Key.space	n/a
458.3455	0.15	916691	keystroke	a	n/a
458.5555	0.18	917111	keystroke	m	n/a
458.8855	0.135	917771	keystroke	e	n/a
459.2005	0.105	918401	keystroke	n	n/a
459.8905	0.15	919781	keystroke	t	n/a
462.5025	0.058	925005	keystroke	Key.backspace	n/a
463.2505	0.105	926501	keystroke	i	n/a
463.7305	0.12	927461	keystroke	t	n/a
463.8655	0.135	927731	keystroke	i	n/a
464.3605	0.12	928721	keystroke	e	n/a
464.5855	0.15	929171	keystroke	s	n/a
464.8255	0.12	929651	keystroke	Key.space	n/a
465.0655	0.135	930131	keystroke	s	n/a
465.3505	0.105	930701	keystroke	t	n/a
465.5755	0.135	931151	keystroke	o	n/a
465.8905	0.15	931781	keystroke	c	n/a
466.0255	0.15	932051	keystroke	k	n/a
467.4205	0.165	934841	keystroke	s	n/a
467.8105	0.15	935621	keystroke	Key.space	n/a
468.0505	0.15	936101	keystroke	c	n/a
468.1855	0.105	936371	keystroke	o	n/a
468.4105	0.075	936821	keystroke	n	n/a
468.8005	0.12	937601	keystroke	d	n/a
468.9655	0.12	937931	keystroke	i	n/a
469.2205	0.105	938441	keystroke	t	n/a
469.3405	0.09	938681	keystroke	i	n/a
469.5355	0.075	939071	keystroke	o	n/a
469.7155	0.09	939431	keystroke	n	n/a
469.9105	0.135	939821	keystroke	s	n/a
470.4655	0.135	940931	keystroke	Key.enter	n/a
470.605	8.772	941210	prompt	n/a	conducted grams broke muscle\n
471.5605	0.135	943121	keystroke	c	n/a
471.7105	0.12	943421	keystroke	o	n/a
471.9355	0.105	943871	keystroke	n	n/a
472.2505	0.105	944501	keystroke	d	n/a
472.5805	0.105	945161	keystroke	u	n/a
472.7755	0.12	945551	keystroke	c	n/a
473.0905	0.105	946181	keystroke	t	n/a
473.3455	0.09	946691	keystroke	e	n/a
473.5555	0.135	947111	keystroke	d	n/a
473.8405	0.12	947681	keystroke	Key.space	n/a
474.4255	0.12	948851	keystroke	g	n/a
474.5305	0.195	949061	keystroke	r	n/a
474.6955	0.135	949391	keystroke	a	n/a
474.9805	0.15	949961	keystroke	m	n/a
475.1905	0.135	950381	keystroke	s	n/a
475.3705	0.12	950741	keystroke	Key.space	n/a
476.0155	0.12	952031	keystroke	b	n/a
476.2405	0.135	952481	keystroke	r	n/a
476.4205	0.12	952841	keystroke	o	n/a
476.6905	0.135	953381	keystroke	k	n/a
476.8105	0.15	953621	keystroke	e	n/a
477.0655	0.105	954131	keystroke	Key.space	n/a
477.4555	0.105	954911	keystroke	m	n/a
477.7555	0.135	955511	keystroke	u	n/a
477.9505	0.15	955901	keystroke	s	n/a
478.2355	0.12	956471	keystroke	c	n/a
478.5655	0.15	957131	keystroke	l	n/a
478.7605	0.18	957521	keystroke	e	n/a
479.2105	0.165	958421	keystroke	Key.enter	n/a
479.38	10.812	958760	prompt	n/a	specialist billy monetary contact\n
480.2305	0.135	960461	keystroke	s	n/a
480.5755	0.12	961151	keystroke	p	n/a
480.8005	0.105	961601	keystroke	e	n/a
481.1005	0.12	962201	keystroke	c	n/a
481.2805	0.12	962561	keystroke	i	n/a
481.4905	0.135	962981	keystroke	a	n/a
481.6705	0.135	963341	keystroke	l	n/a
481.9105	0.105	963821	keystroke	i	n/a
482.1055	0.195	964211	keystroke	s	n/a
482.3455	0.06	964691	keystroke	t	n/a
482.7505	0.135	965501	keystroke	Key.space	n/a
483.0805	0.09	966161	keystroke	b	n/a
483.2755	0.105	966551	keystroke	i	n/a
483.5455	0.06	967091	keystroke	l	n/a
483.7255	0.075	967451	keystroke	l	n/a
483.9205	0.105	967841	keystroke	y	n/a
484.1605	0.105	968321	keystroke	Key.space	n/a
484.4005	0.105	968801	keystroke	m	n/a
484.5955	0.09	969191	keystroke	o	n/a
484.7905	0.09	969581	keystroke	n	n/a
485.9005	0.12	971801	keystroke	e	n/a
486.9205	0.15	973841	keystroke	t	n/a
487.0555	0.135	974111	keystroke	a	n/a
487.2805	0.12	974561	keystroke	r	n/a
487.5505	0.09	975101	keystroke	y	n/a
488.1505	0.12	976301	keystroke	Key.space	n/a
488.5105	0.15	977021	keystroke	c	n/a
488.6455	0.105	977291	keystroke	o	n/a
488.8705	0.105	977741	keystroke	n	n/a
489.0505	0.15	978101	keystroke	t	n/a
489.1705	0.165	978341	keystroke	a	n/a
489.4855	0.12	978971	keystroke	c	n/a
489.7705	0.075	979541	keystroke	t	n/a
490.0555	0.135	980111	keystroke	Key.enter	n/a
490.199	21.5935	980398	prompt	n/a	indices distributions situated learn\n
491.8555	0.12	983711	keystroke	i	n/a
492.0955	0.105	984191	keystroke	n	n/a
493.1755	0.105	986351	keystroke	d	n/a
493.4005	0.09	986801	keystroke	i	n/a
493.6705	0.12	987341	keystroke	c	n/a
493.9255	0.105	987851	keystroke	e	n/a
494.2105	0.105	988421	keystroke	s	n/a
494.4505	0.12	988901	keystroke	Key.space	n/a
494.9755	0.12	989951	keystroke	d	n/a
495.2755	0.105	990551	keystroke	i	n/a
496.7455	0.12	993491	keystroke	s	n/a
497.1955	0.15	994391	keystroke	t	n/a
497.3755	0.12	994751	keystroke	r	n/a
497.9905	0.075	995981	keystroke	i	n/a
499.1305	0.09	998261	keystroke	b	n/a
499.8205	0.075	999641	keystroke	u	n/a
500.1205	0.135	1000241	keystroke	t	n/a
500.6605	0.135	1001321	keystroke	i	n/a
500.9155	0.09	1001831	keystroke	o	n/a
501.1105	0.075	1002221	keystroke	n	n/a
501.5305	0.15	1003061	keystroke	s	n/a
501.7555	0.135	1003511	keystroke	Key.space	n/a
502.3855	0.135	1004771	keystroke	s	n/a
502.7605	0.09	1005521	keystroke	i	n/a
503.4955	0.09	1006991	keystroke	t	n/a
503.6755	0.135	1007351	keystroke	u	n/a
503.9755	0.12	1007951	keystroke	a	n/a
504.2905	0.12	1008581	keystroke	r	n/a
504.5305	0.09	1009061	keystroke	t	n/a
504.6805	0.135	1009361	keystroke	e	n/a
504.9055	0.135	1009811	keystroke	d	n/a
505.0705	0.105	1010141	keystroke	Key.space	n/a
506.4655	0.06	1012931	keystroke	Key.backspace	n/a
506.7505	0.075	1013501	keystroke	Key.backspace	n/a
507.1555	0.06	1014311	keystroke	Key.backspace	n/a
507.7855	0.06	1015571	keystroke	Key.backspace	n/a
508.2355	0.045	1016471	keystroke	Key.backspace	n/a
509.2105	0.135	1018421	keystroke	t	n/a
509.3905	0.12	1018781	keystroke	e	n/a
509.6455	0.09	1019291	keystroke	d	n/a
509.7955	0.12	1019591	keystroke	Key.space	n/a
510.1105	0.105	1020221	keystroke	l	n/a
510.2305	0.18	1020461	keystroke	e	n/a
510.3655	0.165	1020731	keystroke	a	n/a
510.6955	0.105	1021391	keystroke	r	n/a
510.9205	0.12	1021841	keystroke	n	n/a
511.6705	0.12	1023341	keystroke	Key.enter	n/a
511.7955	9.1915	1023591	prompt	n/a	compile aids lakes additions\n
512.9905	0.15	1025981	keystroke	c	n/a
513.1255	0.12	1026251	keystroke	o	n/a
513.3955	0.105	1026791	keystroke	m	n/a
513.6055	0.09	1027211	keystroke	p	n/a
514.5355	0.09	1029071	keystroke	i	n/a
514.8655	0.105	1029731	keystroke	l	n/a
515.1055	0.12	1030211	keystroke	e	n/a
515.3155	0.105	1030631	keystroke	Key.space	n/a
515.6455	0.105	1031291	keystroke	a	n/a
515.8105	0.12	1031621	keystroke	i	n/a
516.0505	0.135	1032101	keystroke	d	n/a
516.4405	0.135	1032881	keystroke	s	n/a
516.6655	0.105	1033331	keystroke	Key.space	n/a
517.0105	0.195	1034021	keystroke	l	n/a
517.2805	0.18	1034561	keystroke	a	n/a
517.8205	0.12	1035641	keystroke	k	n/a
517.9555	0.12	1035911	keystroke	e	n/a
518.3305	0.12	1036661	keystroke	s	n/a
518.4955	0.12	1036991	keystroke	Key.space	n/a
518.7055	0.12	1037411	keystroke	a	n/a
518.9755	0.105	1037951	keystroke	d	n/a
519.1855	0.12	1038371	keystroke	d	n/a
519.3805	0.165	1038761	keystroke	i	n/a
519.6505	0.135	1039301	keystroke	t	n/a
519.8005	0.09	1039601	keystroke	i	n/a
519.9955	0.09	1039991	keystroke	o	n/a
520.1755	0.09	1040351	keystroke	n	n/a
520.4305	0.135	1040861	keystroke	s	n/a
520.8655	0.12	1041731	keystroke	Key.enter	n/a
520.99	11.0375	1041980	prompt	n/a	prophet reservations sugar demands\n
521.8705	0.12	1043741	keystroke	p	n/a
522.2155	0.135	1044431	keystroke	r	n/a
522.4105	0.135	1044821	keystroke	o	n/a
523.0255	0.12	1046051	keystroke	p	n/a
523.2655	0.105	1046531	keystroke	h	n/a
523.4155	0.15	1046831	keystroke	e	n/a
523.6855	0.105	1047371	keystroke	t	n/a
523.8505	0.105	1047701	keystroke	Key.space	n/a
524.1955	0.135	1048391	keystroke	r	n/a
524.2855	0.21	1048571	keystroke	e	n/a
524.4355	0.18	1048871	keystroke	s	n/a
524.6905	0.18	1049381	keystroke	e	n/a
524.9005	0.135	1049801	keystroke	r	n/a
525.6205	0.105	1051241	keystroke	v	n/a
525.7265	0.134	1051453	keystroke	a	n/a
525.9355	0.12	1051871	keystroke	t	n/a
526.1155	0.105	1052231	keystroke	i	n/a
526.3405	0.105	1052681	keystroke	o	n/a
526.6105	0.09	1053221	keystroke	n	n/a
527.6905	0.135	1055381	keystroke	s	n/a
528.1255	0.135	1056251	keystroke	Key.space	n/a
528.4255	0.18	1056851	keystroke	s	n/a
528.6205	0.135	1057241	keystroke	u	n/a
529.0105	0.165	1058021	keystroke	g	n/a
529.2355	0.15	1058471	keystroke	a	n/a
529.4905	0.135	1058981	keystroke	r	n/a
529.9105	0.105	1059821	keystroke	Key.space	n/a
530.3455	0.135	1060691	keystroke	d	n/a
530.5555	0.135	1061111	keystroke	e	n/a
530.7355	0.12	1061471	keystroke	m	n/a
530.9005	0.135	1061801	keystroke	a	n/a
531.0505	0.105	1062101	keystroke	n	n/a
531.2755	0.15	1062551	keystroke	d	n/a
531.5305	0.12	1063061	keystroke	s	n/a
531.9655	0.06	1063931	keystroke	Key.enter	n/a
532.03	12.2975	1064060	prompt	n/a	missing published credits stationery\n
533.0905	0.105	1066181	keystroke	m	n/a
533.2405	0.105	1066481	keystroke	i	n/a
533.5705	0.075	1067141	keystroke	s	n/a
533.7355	0.165	1067471	keystroke	s	n/a
533.8855	0.105	1067771	keystroke	i	n/a
534.0815	0.089	1068163	keystroke	n	n/a
534.2305	0.15	1068461	keystroke	g	n/a
534.5455	0.105	1069091	keystroke	Key.space	n/a
535.0555	0.12	1070111	keystroke	p	n/a
535.2655	0.09	1070531	keystroke	u	n/a
535.7005	0.015	1071401	keystroke	b	n/a
535.8505	0.135	1071701	keystroke	l	n/a
536.1205	0.06	1072241	keystroke	i	n/a
536.6005	0.135	1073201	keystroke	s	n/a
536.6905	0.105	1073381	keystroke	h	n/a
536.8555	0.105	1073711	keystroke	e	n/a
537.0655	0.12	1074131	keystroke	d	n/a
537.1705	0.105	1074341	keystroke	Key.space	n/a
537.4105	0.135	1074821	keystroke	c	n/a
537.6955	0.165	1075391	keystroke	r	n/a
537.8615	0.149	1075723	keystroke	e	n/a
538.4155	0.135	1076831	keystroke	d	n/a
538.5655	0.105	1077131	keystroke	i	n/a
538.7455	0.135	1077491	keystroke	t	n/a
539.0455	0.15	1078091	keystroke	s	n/a
539.2555	0.105	1078511	keystroke	Key.space	n/a
540.2905	0.15	1080581	keystroke	s	n/a
540.5155	0.135	1081031	keystroke	t	n/a
540.6655	0.15	1081331	keystroke	a	n/a
540.9355	0.135	1081871	keystroke	t	n/a
541.1155	0.09	1082231	keystroke	i	n/a
541.3105	0.09	1082621	keystroke	o	n/a
541.4905	0.09	1082981	keystroke	n	n/a
543.3805	0.24	1086761	keystroke	e	n/a
543.5605	0.15	1087121	keystroke	r	n/a
543.7705	0.12	1087541	keystroke	y	n/a
544.1905	0.135	1088381	keystroke	Key.enter	n/a
544.33	12.4325	1088660	prompt	n/a	keith trader consequences tenant\n
545.2555	0.135	1090511	keystroke	k	n/a
545.3755	0.135	1090751	keystroke	e	n/a
545.6305	0.105	1091261	keystroke	i	n/a
545.8255	0.135	1091651	keystroke	t	n/a
546.0055	0.105	1092011	keystroke	h	n/a
546.5755	0.09	1093151	keystroke	Key.space	n/a
546.7855	0.18	1093571	keystroke	t	n/a
546.9355	0.18	1093871	keystroke	r	n/a
547.0855	0.15	1094171	keystroke	a	n/a
548.5105	0.105	1097021	keystroke	d	n/a
548.7055	0.195	1097411	keystroke	e	n/a
548.8705	0.12	1097741	keystroke	r	n/a
549.0655	0.105	1098131	keystroke	Key.space	n/a
549.3355	0.135	1098671	keystroke	c	n/a
549.5155	0.105	1099031	keystroke	o	n/a
549.7255	0.075	1099451	keystroke	n	n/a
550.1005	0.105	1100201	keystroke	s	n/a
550.3105	0.135	1100621	keystroke	e	n/a
551.4205	0.12	1102841	keystroke	q	n/a
551.6455	0.135	1103291	keystroke	u	n/a
552.0205	0.165	1104041	keystroke	e	n/a
552.3805	0.105	1104761	keystroke	n	n/a
552.9655	0.15	1105931	keystroke	c	n/a
553.1755	0.165	1106351	keystroke	e	n/a
553.626	0.12	1107252	keystroke	s	n/a
554.286	0.12	1108572	keystroke	Key.space	n/a
554.631	0.15	1109262	keystroke	t	n/a
554.811	0.135	1109622	keystroke	e	n/a
555.096	0.135	1110192	keystroke	n	n/a
555.756	0.135	1111512	keystroke	a	n/a
556.101	0.12	1112202	keystroke	n	n/a
556.266	0.135	1112532	keystroke	t	n/a
556.641	0.12	1113282	keystroke	Key.enter	n/a
556.7655	16.227	1113531	prompt	n/a	ipod federal wisdom activation\n
558.201	0.105	1116402	keystroke	i	n/a
558.456	0.105	1116912	keystroke	p	n/a
559.116	0.105	1118232	keystroke	i	n/a
560.121	0.06	1120242	keystroke	Key.backspace	n/a
560.526	0.09	1121052	keystroke	o	n/a
560.646	0.15	1121292	keystroke	d	n/a
560.811	0.12	1121622	keystroke	Key.space	n/a
561.951	0.06	1123902	keystroke	f	n/a
562.641	0.12	1125282	keystroke	e	n/a
563.001	0.06	1126002	keystroke	d	n/a
563.181	0.12	1126362	keystroke	e	n/a
563.631	0.12	1127262	keystroke	r	n/a
563.766	0.165	1127532	keystroke	a	n/a
564.006	0.135	1128012	keystroke	l	n/a
564.216	0.105	1128432	keystroke	Key.space	n/a
564.441	0.181	1128882	keystroke	w	n/a
564.636	0.105	1129272	keystroke	i	n/a
564.846	0.12	1129692	keystroke	s	n/a
565.866	0.135	1131732	keystroke	d	n/a
565.971	0.135	1131942	keystroke	o	n/a
566.271	0.105	1132542	keystroke	n	n/a
566.4815	0.1195	1132963	keystroke	Key.space	n/a
569.033	0.028	1138066	keystroke	Key.backspace	n/a
569.361	0.075	1138722	keystroke	Key.backspace	n/a
569.946	0.09	1139892	keystroke	m	n/a
570.171	0.105	1140342	keystroke	Key.space	n/a
570.606	0.075	1141212	keystroke	a	n/a
570.816	0.12	1141632	keystroke	c	n/a
571.101	0.09	1142202	keystroke	t	n/a
571.236	0.12	1142472	keystroke	i	n/a
571.521	0.15	1143042	keystroke	v	n/a
571.836	0.165	1143672	keystroke	a	n/a
572.151	0.135	1144302	keystroke	t	n/a
572.271	0.105	1144542	keystroke	i	n/a
572.466	0.09	1144932	keystroke	o	n/a
572.661	0.075	1145322	keystroke	n	n/a
572.931	0.06	1145862	keystroke	Key.enter	n/a
572.9955	13.722	1145991	prompt	n/a	sufficiently milton expects trailers\n
573.876	0.105	1147752	keystroke	s	n/a
574.461	0.12	1148922	keystroke	u	n/a
574.791	0.075	1149582	keystroke	f	n/a
574.971	0.09	1149942	keystroke	f	n/a
575.196	0.105	1150392	keystroke	i	n/a
575.421	0.12	1150842	keystroke	c	n/a
578.466	0.105	1156932	keystroke	i	n/a
578.601	0.135	1157202	keystroke	e	n/a
578.841	0.09	1157682	keystroke	n	n/a
579.006	0.09	1158012	keystroke	t	n/a
579.231	0.105	1158462	keystroke	l	n/a
579.516	0.06	1159032	keystroke	y	n/a
579.801	0.105	1159602	keystroke	Key.space	n/a
580.281	0.12	1160562	keystroke	m	n/a
580.476	0.135	1160952	keystroke	i	n/a
580.746	0.12	1161492	keystroke	l	n/a
581.061	0.105	1162122	keystroke	t	n/a
581.196	0.105	1162392	keystroke	o	n/a
581.421	0.075	1162842	keystroke	n	n/a
581.646	0.09	1163292	keystroke	Key.space	n/a
582.156	0.09	1164312	keystroke	e	n/a
582.666	0.135	1165332	keystroke	x	n/a
582.966	0.12	1165932	keystroke	p	n/a
583.281	0.135	1166562	keystroke	e	n/a
583.596	0.12	1167192	keystroke	c	n/a
583.881	0.09	1167762	keystroke	t	n/a
584.121	0.12	1168242	keystroke	s	n/a
584.376	0.105	1168752	keystroke	Key.space	n/a
584.751	0.165	1169502	keystroke	t	n/a
584.931	0.15	1169862	keystroke	r	n/a
585.051	0.135	1170102	keystroke	a	n/a
585.336	0.135	1170672	keystroke	i	n/a
585.681	0.135	1171362	keystroke	l	n/a
585.861	0.18	1171722	keystroke	e	n/a
586.101	0.15	1172202	keystroke	r	n/a
586.296	0.135	1172592	keystroke	s	n/a
586.641	0.075	1173282	keystroke	Key.enter	n/a
586.72	10.677	1173440	prompt	n/a	shoulder achieve betting magnitude\n
587.481	0.12	1174962	keystroke	s	n/a
587.706	0.105	1175412	keystroke	h	n/a
587.961	0.12	1175922	keystroke	o	n/a
588.141	0.135	1176282	keystroke	u	n/a
588.516	0.105	1177032	keystroke	l	n/a
588.891	0.105	1177782	keystroke	d	n/a
589.101	0.18	1178202	keystroke	e	n/a
589.266	0.09	1178532	keystroke	r	n/a
589.416	0.09	1178832	keystroke	Key.space	n/a
589.641	0.135	1179282	keystroke	a	n/a
589.926	0.12	1179852	keystroke	c	n/a
590.121	0.105	1180242	keystroke	h	n/a
590.616	0.105	1181232	keystroke	i	n/a
591.426	0.135	1182852	keystroke	e	n/a
591.996	0.105	1183992	keystroke	v	n/a
592.176	0.135	1184352	keystroke	e	n/a
592.371	0.09	1184742	keystroke	Key.space	n/a
592.641	0.12	1185282	keystroke	b	n/a
592.776	0.12	1185552	keystroke	e	n/a
593.061	0.09	1186122	keystroke	t	n/a
593.226	0.105	1186452	keystroke	t	n/a
593.796	0.12	1187592	keystroke	i	n/a
593.991	0.12	1187982	keystroke	n	n/a
594.141	0.12	1188282	keystroke	g	n/a
594.291	0.105	1188582	keystroke	Key.space	n/a
594.606	0.105	1189212	keystroke	m	n/a
594.741	0.12	1189482	keystroke	a	n/a
595.266	0.09	1190532	keystroke	g	n/a
595.506	0.105	1191012	keystroke	n	n/a
595.656	0.135	1191312	keystroke	i	n/a
595.866	0.12	1191732	keystroke	t	n/a
596.091	0.09	1192182	keystroke	u	n/a
596.631	0.135	1193262	keystroke	d	n/a
596.916	0.105	1193832	keystroke	e	n/a
597.276	0.1195	1194552	keystroke	Key.enter	n/a
597.4	8.893	1194800	prompt	n/a	metallica patent lions trails\n
598.2505	0.105	1196501	keystroke	m	n/a
598.4455	0.12	1196891	keystroke	e	n/a
598.8055	0.15	1197611	keystroke	t	n/a
598.9705	0.135	1197941	keystroke	a	n/a
599.2405	0.045	1198481	keystroke	l	n/a
599.4055	0.075	1198811	keystroke	l	n/a
599.5855	0.09	1199171	keystroke	i	n/a
599.751	0.18	1199502	keystroke	c	n/a
599.946	0.135	1199892	keystroke	a	n/a
600.126	0.135	1200252	keystroke	Key.space	n/a
601.431	0.105	1202862	keystroke	p	n/a
601.551	0.165	1203102	keystroke	a	n/a
601.836	0.12	1203672	keystroke	t	n/a
602.091	0.09	1204182	keystroke	e	n/a
602.241	0.15	1204482	keystroke	n	n/a
602.406	0.12	1204812	keystroke	t	n/a
602.781	0.105	1205562	keystroke	Key.space	n/a
603.201	0.12	1206402	keystroke	l	n/a
603.411	0.09	1206822	keystroke	i	n/a
603.711	0.09	1207422	keystroke	o	n/a
603.9365	0.075	1207873	keystroke	n	n/a
604.1465	0.165	1208293	keystroke	s	n/a
604.3565	0.12	1208713	keystroke	Key.space	n/a
604.5665	0.165	1209133	keystroke	t	n/a
604.7165	0.18	1209433	keystroke	r	n/a
604.9115	0.15	1209823	keystroke	a	n/a
605.1515	0.105	1210303	keystroke	i	n/a
605.4065	0.105	1210813	keystroke	l	n/a
605.7065	0.165	1211413	keystroke	s	n/a
606.1415	0.15	1212283	keystroke	Key.enter	n/a
606.2965	10.571	1212593	prompt	n/a	leaders insured posts bennett\n
607.2215	0.135	1214443	keystroke	l	n/a
607.3865	0.135	1214773	keystroke	e	n/a
607.4915	0.15	1214983	keystroke	a	n/a
607.8065	0.165	1215613	keystroke	d	n/a
608.0765	0.18	1216153	keystroke	e	n/a
608.2265	0.135	1216453	keystroke	r	n/a
608.5115	0.15	1217023	keystroke	s	n/a
608.7515	0.12	1217503	keystroke	Key.space	n/a
609.0365	0.105	1218073	keystroke	i	n/a
609.2465	0.09	1218493	keystroke	n	n/a
609.4865	0.12	1218973	keystroke	s	n/a
609.8615	0.135	1219723	keystroke	u	n/a
610.1015	0.105	1220203	keystroke	r	n/a
610.3415	0.06	1220683	keystroke	t	n/a
610.5065	0.075	1221013	keystroke	e	n/a
610.8665	0.06	1221733	keystroke	Key.backspace	n/a
611.0465	0.075	1222093	keystroke	Key.backspace	n/a
611.1815	0.105	1222363	keystroke	e	n/a
611.6915	0.165	1223383	keystroke	d	n/a
612.0215	0.135	1224043	keystroke	Key.space	n/a
612.4565	0.12	1224913	keystroke	p	n/a
613.0715	0.105	1226143	keystroke	o	n/a
613.551	0.135	1227102	keystroke	s	n/a
613.851	0.12	1227702	keystroke	t	n/a
614.181	0.165	1228362	keystroke	s	n/a
614.481	0.105	1228962	keystroke	Key.space	n/a
614.916	0.09	1229832	keystroke	b	n/a
615.261	0.135	1230522	keystroke	e	n/a
615.546	0.075	1231092	keystroke	n	n/a
615.711	0.075	1231422	keystroke	n	n/a
615.861	0.12	1231722	keystroke	e	n/a
616.356	0.09	1232712	keystroke	t	n/a
616.536	0.105	1233072	keystroke	t	n/a
616.746	0.12	1233492	keystroke	Key.enter	n/a
616.8725	8.9955	1233745	prompt	n/a	aging arabia races expand\n
617.721	0.105	1235442	keystroke	a	n/a
617.976	0.09	1235952	keystroke	g	n/a
618.172	0.089	1236344	keystroke	i	n/a
618.381	0.105	1236762	keystroke	n	n/a
618.606	0.09	1237212	keystroke	g	n/a
618.801	0.12	1237602	keystroke	Key.space	n/a
619.536	0.135	1239072	keystroke	a	n/a
619.791	0.135	1239582	keystroke	r	n/a
619.956	0.15	1239912	keystroke	a	n/a
620.436	0.09	1240872	keystroke	b	n/a
620.631	0.105	1241262	keystroke	i	n/a
620.961	0.135	1241922	keystroke	a	n/a
621.756	0.12	1243512	keystroke	Key.space	n/a
621.996	0.15	1243992	keystroke	r	n/a
622.131	0.165	1244262	keystroke	a	n/a
622.521	0.15	1245042	keystroke	c	n/a
623.196	0.15	1246392	keystroke	e	n/a
623.436	0.12	1246872	keystroke	s	n/a
623.601	0.135	1247202	keystroke	Key.space	n/a
623.886	0.105	1247772	keystroke	e	n/a
624.1565	0.135	1248313	keystroke	x	n/a
624.7415	0.15	1249483	keystroke	p	n/a
624.9215	0.15	1249843	keystroke	a	n/a
625.1615	0.09	1250323	keystroke	n	n/a
625.3865	0.15	1250773	keystroke	d	n/a
625.7465	0.12	1251493	keystroke	Key.enter	n/a
625.8705	14.5475	1251741	prompt	n/a	exception annotated anderson facility\n
626.8115	0.09	1253623	keystroke	e	n/a
628.3115	0.12	1256623	keystroke	x	n/a
630.0515	0.105	1260103	keystroke	c	n/a
630.2015	0.135	1260403	keystroke	e	n/a
631.3265	0.09	1262653	keystroke	p	n/a
631.9265	0.15	1263853	keystroke	t	n/a
632.0915	0.06	1264183	keystroke	i	n/a
632.8715	0.105	1265743	keystroke	o	n/a
633.0815	0.09	1266163	keystroke	n	n/a
633.5315	0.12	1267063	keystroke	Key.space	n/a
633.8465	0.09	1267693	keystroke	a	n/a
634.0715	0.075	1268143	keystroke	n	n/a
634.2215	0.09	1268443	keystroke	n	n/a
634.4315	0.105	1268863	keystroke	o	n/a
634.8215	0.135	1269643	keystroke	t	n/a
635.0315	0.12	1270063	keystroke	a	n/a
635.2865	0.09	1270573	keystroke	t	n/a
635.5115	0.135	1271023	keystroke	e	n/a
635.7665	0.12	1271533	keystroke	d	n/a
635.9765	0.12	1271953	keystroke	Key.space	n/a
636.1865	0.135	1272373	keystroke	a	n/a
636.3365	0.09	1272673	keystroke	n	n/a
636.4415	0.15	1272883	keystroke	d	n/a
636.7115	0.195	1273423	keystroke	e	n/a
636.8615	0.12	1273723	keystroke	r	n/a
637.0865	0.18	1274173	keystroke	s	n/a
637.2515	0.105	1274503	keystroke	o	n/a
637.4765	0.075	1274953	keystroke	n	n/a
637.6265	0.12	1275253	keystroke	Key.space	n/a
638.0015	0.12	1276003	keystroke	f	n/a
638.1065	0.105	1276213	keystroke	a	n/a
638.4365	0.15	1276873	keystroke	c	n/a
638.5715	0.12	1277143	keystroke	i	n/a
638.7965	0.135	1277593	keystroke	l	n/a
639.3515	0.09	1278703	keystroke	i	n/a
639.6665	0.15	1279333	keystroke	t	n/a
639.7865	0.105	1279573	keystroke	y	n/a
640.3115	0.105	1280623	keystroke	Key.enter	n/a
640.4215	10.7815	1280843	prompt	n/a	small christmas come he's\n
641.5715	0.18	1283143	keystroke	s	n/a
641.8715	0.135	1283743	keystroke	n	n/a
642.0665	0.135	1284133	keystroke	a	n/a
642.3215	0.075	1284643	keystroke	l	n/a
642.5165	0.09	1285033	keystroke	l	n/a
643.0415	0.045	1286083	keystroke	Key.backspace	n/a
643.3265	0.06	1286653	keystroke	Key.backspace	n/a
643.5965	0.075	1287193	keystroke	Key.backspace	n/a
643.8965	0.075	1287793	keystroke	Key.backspace	n/a
644.5415	0.075	1289083	keystroke	m	n/a
644.6915	0.105	1289383	keystroke	a	n/a
644.8265	0.06	1289653	keystroke	l	n/a
645.0965	0.105	1290193	keystroke	l	n/a
645.4265	0.105	1290853	keystroke	Key.space	n/a
645.9815	0.045	1291963	keystroke	c	n/a
646.1465	0.12	1292293	keystroke	h	n/a
647.1065	0.12	1294213	keystroke	r	n/a
647.2415	0.105	1294483	keystroke	i	n/a
647.3765	0.195	1294753	keystroke	s	n/a
647.5565	0.09	1295113	keystroke	t	n/a
647.7515	0.09	1295503	keystroke	m	n/a
648.1265	0.105	1296253	keystroke	a	n/a
648.5165	0.15	1297033	keystroke	s	n/a
648.6815	0.12	1297363	keystroke	Key.space	n/a
648.9965	0.165	1297993	keystroke	c	n/a
649.1165	0.12	1298233	keystroke	o	n/a
649.3415	0.09	1298683	keystroke	m	n/a
649.4765	0.135	1298953	keystroke	e	n/a
649.7015	0.09	1299403	keystroke	Key.space	n/a
649.9115	0.105	1299823	keystroke	h	n/a
650.0315	0.12	1300063	keystroke	e	n/a
650.3765	0.135	1300753	keystroke	'	n/a
650.5265	0.15	1301053	keystroke	s	n/a
651.0965	0.105	1302193	keystroke	Key.enter	n/a
651.2055	13.9475	1302411	prompt	n/a	partly accessibility asylum caribbean\n
652.1165	0.135	1304233	keystroke	p	n/a
652.3415	0.18	1304683	keystroke	a	n/a
652.6415	0.105	1305283	keystroke	r	n/a
652.8515	0.105	1305703	keystroke	t	n/a
653.2115	0.15	1306423	keystroke	l	n/a
653.5415	0.03	1307083	keystroke	y	n/a
654.321	0.12	1308642	keystroke	Key.space	n/a
654.742	0.074	1309484	keystroke	a	n/a
655.206	0.106	1310412	keystroke	c	n/a
655.507	0.015	1311014	keystroke	c	n/a
655.626	0.136	1311252	keystroke	e	n/a
656.272	0.149	1312544	keystroke	s	n/a
656.481	0.106	1312962	keystroke	s	n/a
656.751	0.09	1313502	keystroke	i	n/a
657.876	0.075	1315752	keystroke	b	n/a
658.041	0.121	1316082	keystroke	i	n/a
658.401	0.016	1316802	keystroke	l	n/a
658.491	0.105	1316982	keystroke	i	n/a
658.701	0.12	1317402	keystroke	t	n/a
658.882	0.105	1317764	keystroke	y	n/a
659.181	0.105	1318362	keystroke	Key.space	n/a
659.407	0.149	1318814	keystroke	a	n/a
660.352	0.179	1320704	keystroke	s	n/a
660.636	0.106	1321272	keystroke	y	n/a
660.876	0.105	1321752	keystroke	l	n/a
661.162	0.09	1322324	keystroke	u	n/a
661.477	0.089	1322954	keystroke	m	n/a
661.761	0.105	1323522	keystroke	Key.space	n/a
662.032	0.165	1324064	keystroke	c	n/a
662.167	0.134	1324334	keystroke	a	n/a
662.4365	0.105	1324873	keystroke	r	n/a
662.9915	0.09	1325983	keystroke	i	n/a
663.3065	0.06	1326613	keystroke	b	n/a
663.6065	0.075	1327213	keystroke	b	n/a
664.2515	0.18	1328503	keystroke	e	n/a
664.3865	0.18	1328773	keystroke	a	n/a
664.7015	0.09	1329403	keystroke	n	n/a
665.0615	0.09	1330123	keystroke	Key.enter	n/a
665.1555	20.5775	1330311	prompt	n/a	alto guess architecture infections\n
666.2915	0.09	1332583	keystroke	a	n/a
666.3665	0.135	1332733	keystroke	l	n/a
666.5765	0.135	1333153	keystroke	t	n/a
666.6965	0.105	1333393	keystroke	o	n/a
666.9215	0.105	1333843	keystroke	Key.space	n/a
667.5665	0.075	1335133	keystroke	g	n/a
667.8215	0.105	1335643	keystroke	u	n/a
668.1065	0.15	1336213	keystroke	e	n/a
668.4065	0.075	1336813	keystroke	s	n/a
668.5865	0.09	1337173	keystroke	s	n/a
668.6915	0.135	1337383	keystroke	Key.space	n/a
668.8565	0.18	1337713	keystroke	a	n/a
669.4565	0.09	1338913	keystroke	r	n/a
670.1015	0.15	1340203	keystroke	c	n/a
670.2665	0.12	1340533	keystroke	h	n/a
670.6265	0.15	1341253	keystroke	i	n/a
671.0015	0.135	1342003	keystroke	t	n/a
671.1515	0.12	1342303	keystroke	e	n/a
671.3915	0.15	1342783	keystroke	c	n/a
671.6315	0.09	1343263	keystroke	h	n/a
672.3965	0.06	1344793	keystroke	Key.backspace	n/a
672.6365	0.105	1345273	keystroke	t	n/a
674.3915	0.165	1348783	keystroke	u	n/a
674.5415	0.18	1349083	keystroke	r	n/a
674.6915	0.15	1349383	keystroke	e	n/a
674.8715	0.12	1349743	keystroke	Key.space	n/a
675.8765	0.06	1351753	keystroke	i	n/a
676.0565	0.105	1352113	keystroke	n	n/a
676.2065	0.135	1352413	keystroke	t	n/a
676.3115	0.18	1352623	keystroke	e	n/a
676.7465	0.135	1353493	keystroke	c	n/a
677.5265	0.15	1355053	keystroke	t	n/a
677.6915	0.165	1355383	keystroke	i	n/a
677.991	0.105	1355982	keystroke	o	n/a
678.202	0.09	1356404	keystroke	n	n/a
678.307	0.179	1356614	keystroke	s	n/a
680.589	0.001	1361178	keystroke	Key.backspace	n/a
680.826	0.06	1361652	keystroke	Key.backspace	n/a
681.202	0.044	1362404	keystroke	Key.backspace	n/a
681.441	0.09	1362882	keystroke	Key.backspace	n/a
681.786	0.076	1363572	keystroke	Key.backspace	n/a
682.146	0.061	1364292	keystroke	Key.backspace	n/a
682.746	0.09	1365492	keystroke	Key.backspace	n/a
683.347	0.045	1366694	keystroke	Key.backspace	n/a
683.932	0.135	1367864	keystroke	f	n/a
684.036	0.121	1368072	keystroke	e	n/a
684.262	0.105	1368524	keystroke	c	n/a
684.562	0.059	1369124	keystroke	t	n/a
684.652	0.105	1369304	keystroke	i	n/a
684.877	0.075	1369754	keystroke	o	n/a
685.072	0.075	1370144	keystroke	n	n/a
685.192	0.165	1370384	keystroke	s	n/a
685.642	0.089	1371284	keystroke	Key.enter	n/a
685.736	12.5825	1371472	prompt	n/a	proceeding vegetable miller negotiations\n
686.572	0.135	1373144	keystroke	p	n/a
686.737	0.135	1373474	keystroke	r	n/a
686.932	0.105	1373864	keystroke	o	n/a
687.247	0.135	1374494	keystroke	c	n/a
687.487	0.105	1374974	keystroke	e	n/a
687.712	0.12	1375424	keystroke	e	n/a
687.937	0.135	1375874	keystroke	d	n/a
688.087	0.09	1376174	keystroke	i	n/a
688.282	0.105	1376564	keystroke	n	n/a
688.447	0.135	1376894	keystroke	g	n/a
688.672	0.105	1377344	keystroke	Key.space	n/a
689.107	0.12	1378214	keystroke	v	n/a
689.347	0.135	1378694	keystroke	e	n/a
689.992	0.075	1379984	keystroke	g	n/a
690.112	0.165	1380224	keystroke	e	n/a
690.367	0.09	1380734	keystroke	t	n/a
690.607	0.15	1381214	keystroke	a	n/a
691.192	0.09	1382384	keystroke	b	n/a
691.372	0.12	1382744	keystroke	l	n/a
691.522	0.15	1383044	keystroke	e	n/a
691.687	0.105	1383374	keystroke	Key.space	n/a
691.897	0.09	1383794	keystroke	m	n/a
692.062	0.105	1384124	keystroke	i	n/a
692.272	0.09	1384544	keystroke	l	n/a
692.452	0.105	1384904	keystroke	l	n/a
692.602	0.18	1385204	keystroke	e	n/a
692.737	0.12	1385474	keystroke	r	n/a
692.887	0.12	1385774	keystroke	Key.space	n/a
693.307	0.09	1386614	keystroke	n	n/a
693.592	0.12	1387184	keystroke	e	n/a
694.042	0.12	1388084	keystroke	g	n/a
694.192	0.12	1388384	keystroke	o	n/a
695.347	0.12	1390694	keystroke	t	n/a
695.482	0.15	1390964	keystroke	i	n/a
696.562	0.15	1393124	keystroke	a	n/a
697.162	0.15	1394324	keystroke	t	n/a
697.327	0.105	1394654	keystroke	i	n/a
697.567	0.075	1395134	keystroke	o	n/a
697.747	0.09	1395494	keystroke	n	n/a
697.852	0.165	1395704	keystroke	s	n/a
698.197	0.12	1396394	keystroke	Key.enter	n/a
698.3215	14.667	1396643	prompt	n/a	wishes dozen remember christians\n
699.277	0.15	1398554	keystroke	w	n/a
699.442	0.135	1398884	keystroke	i	n/a
699.607	0.15	1399214	keystroke	s	n/a
699.802	0.135	1399604	keystroke	h	n/a
700.012	0.105	1400024	keystroke	e	n/a
700.282	0.165	1400564	keystroke	s	n/a
700.477	0.12	1400954	keystroke	Key.space	n/a
700.687	0.195	1401374	keystroke	d	n/a
700.837	0.135	1401674	keystroke	o	n/a
701.527	0.135	1403054	keystroke	z	n/a
701.857	0.12	1403714	keystroke	e	n/a
702.232	0.105	1404464	keystroke	n	n/a
702.457	0.09	1404914	keystroke	Key.space	n/a
702.772	0.15	1405544	keystroke	r	n/a
702.862	0.18	1405724	keystroke	e	n/a
703.072	0.12	1406144	keystroke	m	n/a
704.917	0.15	1409834	keystroke	e	n/a
705.097	0.12	1410194	keystroke	m	n/a
705.757	0.09	1411514	keystroke	v	n/a
707.0765	0.06	1414153	keystroke	Key.backspace	n/a
707.4815	0.075	1414963	keystroke	b	n/a
707.5715	0.225	1415143	keystroke	e	n/a
707.7215	0.135	1415443	keystroke	r	n/a
707.9765	0.135	1415953	keystroke	Key.space	n/a
708.3515	0.15	1416703	keystroke	c	n/a
708.5165	0.105	1417033	keystroke	h	n/a
709.1015	0.12	1418203	keystroke	r	n/a
709.3715	0.15	1418743	keystroke	u	n/a
709.5665	0.18	1419133	keystroke	s	n/a
710.1815	0.075	1420363	keystroke	Key.backspace	n/a
710.4665	0.09	1420933	keystroke	Key.backspace	n/a
711.1115	0.105	1422223	keystroke	i	n/a
711.2765	0.165	1422553	keystroke	s	n/a
711.5465	0.09	1423093	keystroke	t	n/a
711.6815	0.12	1423363	keystroke	i	n/a
711.9065	0.135	1423813	keystroke	a	n/a
712.2965	0.12	1424593	keystroke	n	n/a
712.4615	0.15	1424923	keystroke	s	n/a
712.8815	0.105	1425763	keystroke	Key.enter	n/a
712.9915	8.067	1425983	prompt	n/a	baker median coaching systems\n
713.8715	0.105	1427743	keystroke	b	n/a
714.0515	0.1505	1428103	keystroke	a	n/a
714.487	0.12	1428974	keystroke	k	n/a
714.652	0.255	1429304	keystroke	e	n/a
714.862	0.135	1429724	keystroke	r	n/a
715.102	0.09	1430204	keystroke	Key.space	n/a
715.297	0.105	1430594	keystroke	m	n/a
715.417	0.12	1430834	keystroke	e	n/a
715.807	0.105	1431614	keystroke	d	n/a
716.002	0.105	1432004	keystroke	i	n/a
716.332	0.15	1432664	keystroke	a	n/a
716.527	0.135	1433054	keystroke	n	n/a
716.857	0.12	1433714	keystroke	Key.space	n/a
717.202	0.15	1434404	keystroke	c	n/a
717.352	0.12	1434704	keystroke	o	n/a
717.547	0.15	1435094	keystroke	a	n/a
717.847	0.12	1435694	keystroke	c	n/a
718.012	0.09	1436024	keystroke	h	n/a
718.207	0.12	1436414	keystroke	i	n/a
718.447	0.09	1436894	keystroke	n	n/a
718.582	0.135	1437164	keystroke	g	n/a
718.882	0.105	1437764	keystroke	Key.space	n/a
719.272	0.165	1438544	keystroke	s	n/a
719.632	0.12	1439264	keystroke	y	n/a
719.812	0.165	1439624	keystroke	s	n/a
720.067	0.15	1440134	keystroke	t	n/a
720.202	0.15	1440404	keystroke	e	n/a
720.367	0.135	1440734	keystroke	m	n/a
720.517	0.195	1441034	keystroke	s	n/a
720.952	0.105	1441904	keystroke	Key.enter	n/a
721.062	9.3865	1442124	prompt	n/a	eddie years described mall\n
721.867	0.12	1443734	keystroke	e	n/a
722.152	0.09	1444304	keystroke	d	n/a
722.332	0.105	1444664	keystroke	d	n/a
722.497	0.105	1444994	keystroke	i	n/a
722.662	0.15	1445324	keystroke	e	n/a
722.842	0.075	1445684	keystroke	Key.space	n/a
723.142	0.135	1446284	keystroke	y	n/a
723.307	0.24	1446614	keystroke	e	n/a
723.532	0.15	1447064	keystroke	a	n/a
724.147	0.12	1448294	keystroke	r	n/a
724.417	0.195	1448834	keystroke	s	n/a
724.972	0.135	1449944	keystroke	Key.space	n/a
725.302	0.105	1450604	keystroke	d	n/a
725.512	0.105	1451024	keystroke	e	n/a
726.502	0.15	1453004	keystroke	s	n/a
726.892	0.12	1453784	keystroke	c	n/a
727.207	0.105	1454414	keystroke	r	n/a
727.432	0.12	1454864	keystroke	i	n/a
727.927	0.12	1455854	keystroke	b	n/a
728.167	0.165	1456334	keystroke	e	n/a
728.767	0.15	1457534	keystroke	d	n/a
728.902	0.12	1457804	keystroke	Key.space	n/a
729.172	0.06	1458344	keystroke	m	n/a
729.277	0.09	1458554	keystroke	a	n/a
729.862	0.075	1459724	keystroke	l	n/a
730.057	0.075	1460114	keystroke	l	n/a
730.342	0.105	1460684	keystroke	Key.enter	n/a
730.4515	16.272	1460903	prompt	n/a	prescription utah scenic ascii\n
731.212	0.12	1462424	keystroke	p	n/a
731.362	0.15	1462724	keystroke	r	n/a
731.452	0.165	1462904	keystroke	e	n/a
731.917	0.135	1463834	keystroke	s	n/a
733.027	0.105	1466054	keystroke	c	n/a
733.237	0.09	1466474	keystroke	r	n/a
733.402	0.105	1466804	keystroke	i	n/a
733.837	0.105	1467674	keystroke	p	n/a
734.257	0.15	1468514	keystroke	t	n/a
734.422	0.09	1468844	keystroke	i	n/a
734.617	0.09	1469234	keystroke	o	n/a
734.827	0.075	1469654	keystroke	n	n/a
735.022	0.105	1470044	keystroke	Key.space	n/a
735.382	0.09	1470764	keystroke	u	n/a
735.652	0.18	1471304	keystroke	t	n/a
735.847	0.18	1471694	keystroke	a	n/a
736.732	0.105	1473464	keystroke	h	n/a
736.942	0.12	1473884	keystroke	Key.space	n/a
737.137	0.15	1474274	keystroke	s	n/a
737.362	0.165	1474724	keystroke	c	n/a
737.587	0.15	1475174	keystroke	e	n/a
737.857	0.09	1475714	keystroke	n	n/a
738.112	0.105	1476224	keystroke	u	n/a
738.652	0.15	1477304	keystroke	c	n/a
738.862	0.12	1477724	keystroke	Key.space	n/a
739.132	0.15	1478264	keystroke	a	n/a
740.3465	0.075	1480693	keystroke	Key.backspace	n/a
740.6015	0.06	1481203	keystroke	Key.backspace	n/a
740.8565	0.09	1481713	keystroke	Key.backspace	n/a
741.1115	0.06	1482223	keystroke	Key.backspace	n/a
741.9665	0.06	1483933	keystroke	i	n/a
742.0715	0.15	1484143	keystroke	c	n/a
742.2515	0.09	1484503	keystroke	Key.space	n/a
743.1215	0.105	1486243	keystroke	a	n/a
743.4065	0.135	1486813	keystroke	s	n/a
743.5865	0.15	1487173	keystroke	i	n/a
743.7815	0.1205	1487563	keystroke	c	n/a
744.832	0.06	1489664	keystroke	Key.backspace	n/a
744.997	0.09	1489994	keystroke	Key.backspace	n/a
745.117	0.135	1490234	keystroke	c	n/a
745.327	0.135	1490654	keystroke	i	n/a
746.167	0.105	1492334	keystroke	i	n/a
746.602	0.12	1493204	keystroke	Key.enter	n/a
746.7285	15.1295	1493457	prompt	n/a	nutten horses calculators classification\n
747.892	0.09	1495784	keystroke	n	n/a
748.102	0.12	1496204	keystroke	u	n/a
748.252	0.12	1496504	keystroke	t	n/a
748.582	0.015	1497164	keystroke	t	n/a
748.672	0.18	1497344	keystroke	e	n/a
748.897	0.105	1497794	keystroke	n	n/a
749.332	0.045	1498664	keystroke	Key.space	n/a
750.802	0.12	1501604	keystroke	h	n/a
751.027	0.12	1502054	keystroke	o	n/a
751.252	0.12	1502504	keystroke	r	n/a
751.882	0.195	1503764	keystroke	s	n/a
752.062	0.18	1504124	keystroke	e	n/a
752.287	0.135	1504574	keystroke	s	n/a
752.542	0.12	1505084	keystroke	Key.space	n/a
753.037	0.195	1506074	keystroke	c	n/a
753.187	0.15	1506374	keystroke	a	n/a
753.427	0.165	1506854	keystroke	l	n/a
754.282	0.135	1508564	keystroke	c	n/a
754.402	0.12	1508804	keystroke	u	n/a
755.257	0.12	1510514	keystroke	l	n/a
755.392	0.165	1510784	keystroke	a	n/a
755.632	0.15	1511264	keystroke	t	n/a
756.022	0.09	1512044	keystroke	o	n/a
756.187	0.12	1512374	keystroke	r	n/a
756.442	0.165	1512884	keystroke	s	n/a
756.682	0.135	1513364	keystroke	Key.space	n/a
757.282	0.135	1514564	keystroke	c	n/a
757.402	0.15	1514804	keystroke	a	n/a
757.597	0.12	1515194	keystroke	l	n/a
758.002	0.075	1516004	keystroke	Key.backspace	n/a
758.227	0.06	1516454	keystroke	Key.backspace	n/a
758.542	0.105	1517084	keystroke	l	n/a
758.677	0.12	1517354	keystroke	a	n/a
758.947	0.09	1517894	keystroke	s	n/a
759.127	0.105	1518254	keystroke	s	n/a
759.292	0.12	1518584	keystroke	i	n/a
759.592	0.15	1519184	keystroke	f	n/a
759.967	0.12	1519934	keystroke	i	n/a
760.5215	0.165	1521043	keystroke	c	n/a
760.6715	0.18	1521343	keystroke	a	n/a
760.8815	0.15	1521763	keystroke	t	n/a
761.0165	0.12	1522033	keystroke	i	n/a
761.2265	0.105	1522453	keystroke	o	n/a
761.4065	0.105	1522813	keystroke	n	n/a
761.7515	0.105	1523503	keystroke	Key.enter	n/a
761.8615	7.6165	1523723	prompt	n/a	george pool soup teenage\n
762.9215	0.12	1525843	keystroke	g	n/a
763.0265	0.165	1526053	keystroke	e	n/a
763.2815	0.105	1526563	keystroke	o	n/a
763.4915	0.045	1526983	keystroke	r	n/a
763.7015	0.09	1527403	keystroke	g	n/a
763.8965	0.12	1527793	keystroke	e	n/a
764.0465	0.12	1528093	keystroke	Key.space	n/a
764.2715	0.15	1528543	keystroke	p	n/a
764.5865	0.075	1529173	keystroke	o	n/a
764.8115	0.09	1529623	keystroke	o	n/a
765.0515	0.12	1530103	keystroke	l	n/a
765.2915	0.12	1530583	keystroke	Key.space	n/a
765.5165	0.135	1531033	keystroke	s	n/a
765.6965	0.15	1531393	keystroke	o	n/a
765.8915	0.105	1531783	keystroke	u	n/a
766.1915	0.105	1532383	keystroke	p	n/a
766.417	0.119	1532834	keystroke	Key.space	n/a
767.061	0.136	1534122	keystroke	t	n/a
767.182	0.12	1534364	keystroke	e	n/a
767.692	0.09	1535384	keystroke	e	n/a
767.887	0.105	1535774	keystroke	n	n/a
768.141	0.136	1536282	keystroke	a	n/a
768.727	0.12	1537454	keystroke	g	n/a
768.967	0.12	1537934	keystroke	e	n/a
769.387	0.089	1538774	keystroke	Key.enter	n/a
769.4805	16.003	1538961	prompt	n/a	albany attribute weapon phoenix\n
770.332	0.12	1540664	keystroke	a	n/a
770.482	0.135	1540964	keystroke	l	n/a
770.917	0.045	1541834	keystroke	b	n/a
771.157	0.135	1542314	keystroke	a	n/a
771.727	0.105	1543454	keystroke	n	n/a
773.002	0.075	1546004	keystroke	Key.backspace	n/a
774.1425	0.06	1548285	keystroke	n	n/a
774.3825	0.075	1548765	keystroke	y	n/a
774.6375	0.104	1549275	keystroke	Key.space	n/a
774.9825	0.12	1549965	keystroke	a	n/a
775.2825	0.06	1550565	keystroke	t	n/a
775.4175	0.105	1550835	keystroke	t	n/a
775.6275	0.12	1551255	keystroke	r	n/a
775.8825	0.09	1551765	keystroke	i	n/a
776.4815	0.121	1552963	keystroke	b	n/a
776.7675	0.12	1553535	keystroke	u	n/a
776.9925	0.045	1553985	keystroke	t	n/a
777.1875	0.09	1554375	keystroke	e	n/a
777.5175	0.105	1555035	keystroke	Key.space	n/a
778.5975	0.15	1557195	keystroke	w	n/a
778.7625	0.18	1557525	keystroke	e	n/a
778.9875	0.142	1557975	keystroke	a	n/a
779.3475	0.06	1558695	keystroke	Key.space	n/a
780.2175	0.06	1560435	keystroke	Key.backspace	n/a
780.6375	0.09	1561275	keystroke	p	n/a
780.8775	0.09	1561755	keystroke	o	n/a
781.1325	0.075	1562265	keystroke	n	n/a
781.4775	0.105	1562955	keystroke	Key.space	n/a
781.9275	0.12	1563855	keystroke	p	n/a
782.2275	0.09	1564455	keystroke	h	n/a
782.4225	0.105	1564845	keystroke	o	n/a
783.0525	0.105	1566105	keystroke	e	n/a
783.3225	0.12	1566645	keystroke	n	n/a
783.5025	0.135	1567005	keystroke	i	n/a
783.922	0.135	1567844	keystroke	z	n/a
785.017	0.12	1570034	keystroke	Key.backspace	n/a
785.227	0.105	1570454	keystroke	x	n/a
785.407	0.075	1570814	keystroke	Key.enter	n/a
785.488	11.5905	1570976	prompt	n/a	note proxy chelsea unix\n
786.622	0.09	1573244	keystroke	b	n/a
786.847	0.105	1573694	keystroke	o	n/a
787.042	0.09	1574084	keystroke	t	n/a
787.267	0.09	1574534	keystroke	e	n/a
787.447	0.105	1574894	keystroke	Key.space	n/a
787.642	0.135	1575284	keystroke	p	n/a
787.942	0.105	1575884	keystroke	r	n/a
788.167	0.105	1576334	keystroke	o	n/a
788.737	0.12	1577474	keystroke	x	n/a
788.977	0.135	1577954	keystroke	y	n/a
789.337	0.12	1578674	keystroke	Key.space	n/a
789.772	0.135	1579544	keystroke	c	n/a
789.937	0.105	1579874	keystroke	h	n/a
791.272	0.12	1582544	keystroke	e	n/a
791.407	0.12	1582814	keystroke	l	n/a
791.707	0.135	1583414	keystroke	s	n/a
792.172	0.15	1584344	keystroke	e	n/a
792.307	0.135	1584614	keystroke	a	n/a
793.222	0.12	1586444	keystroke	Key.space	n/a
793.837	0.105	1587674	keystroke	u	n/a
794.062	0.105	1588124	keystroke	n	n/a
794.527	0.135	1589054	keystroke	i	n/a
794.917	0.045	1589834	keystroke	c	n/a
795.652	0.12	1591304	keystroke	Key.backspace	n/a
795.802	0.12	1591604	keystroke	x	n/a
797.002	0.075	1594004	keystroke	Key.enter	n/a
797.0815	19.288	1594163	prompt	n/a	identical restaurants focal belgium\n
798.802	0.09	1597604	keystroke	i	n/a
799.147	0.09	1598294	keystroke	d	n/a
799.357	0.105	1598714	keystroke	e	n/a
799.567	0.09	1599134	keystroke	n	n/a
799.702	0.105	1599404	keystroke	t	n/a
799.867	0.09	1599734	keystroke	i	n/a
800.107	0.09	1600214	keystroke	a	n/a
801.292	0.06	1602584	keystroke	Key.backspace	n/a
801.472	0.18	1602944	keystroke	c	n/a
801.637	0.135	1603274	keystroke	a	n/a
802.162	0.12	1604324	keystroke	l	n/a
802.387	0.12	1604774	keystroke	Key.space	n/a
802.687	0.165	1605374	keystroke	r	n/a
802.822	0.135	1605644	keystroke	e	n/a
803.002	0.135	1606004	keystroke	s	n/a
803.317	0.075	1606634	keystroke	t	n/a
805.057	0.165	1610114	keystroke	a	n/a
805.777	0.105	1611554	keystroke	u	n/a
806.3175	0.15	1612635	keystroke	r	n/a
806.4225	0.165	1612845	keystroke	a	n/a
806.6625	0.12	1613325	keystroke	n	n/a
806.8425	0.12	1613685	keystroke	t	n/a
807.4125	0.195	1614825	keystroke	s	n/a
807.8775	0.15	1615755	keystroke	Key.space	n/a
808.3725	0.075	1616745	keystroke	f	n/a
808.5075	0.105	1617015	keystroke	o	n/a
808.9725	0.195	1617945	keystroke	c	n/a
809.1525	0.12	1618305	keystroke	a	n/a
809.3475	0.15	1618695	keystroke	l	n/a
809.5875	0.12	1619175	keystroke	Key.space	n/a
810.0975	0.105	1620195	keystroke	b	n/a
810.2775	0.15	1620555	keystroke	e	n/a
810.8175	0.12	1621635	keystroke	l	n/a
811.9725	0.12	1623945	keystroke	f	n/a
812.1375	0.075	1624275	keystroke	i	n/a
812.8425	0.09	1625685	keystroke	Key.backspace	n/a
813.0825	0.075	1626165	keystroke	Key.backspace	n/a
813.1725	0.105	1626345	keystroke	g	n/a
814.0575	0.09	1628115	keystroke	i	n/a
814.3275	0.075	1628655	keystroke	u	n/a
815.3775	0.105	1630755	keystroke	m	n/a
815.7825	0.105	1631565	keystroke	Key.space	n/a
816.2775	0.09	1632555	keystroke	Key.enter	n/a
816.3725	9.536	1632745	prompt	n/a	argue print dynamic street\n
817.5375	0.135	1635075	keystroke	a	n/a
817.867	0.075	1635734	keystroke	r	n/a
818.092	0.105	1636184	keystroke	g	n/a
818.302	0.105	1636604	keystroke	u	n/a
818.542	0.15	1637084	keystroke	e	n/a
818.752	0.12	1637504	keystroke	Key.space	n/a
819.007	0.12	1638014	keystroke	p	n/a
819.292	0.12	1638584	keystroke	r	n/a
819.547	0.09	1639094	keystroke	i	n/a
819.757	0.105	1639514	keystroke	n	n/a
820.012	0.135	1640024	keystroke	t	n/a
820.222	0.105	1640444	keystroke	Key.space	n/a
821.167	0.105	1642334	keystroke	d	n/a
822.187	0.105	1644374	keystroke	y	n/a
822.472	0.105	1644944	keystroke	n	n/a
822.667	0.135	1645334	keystroke	a	n/a
822.907	0.135	1645814	keystroke	m	n/a
823.102	0.135	1646204	keystroke	i	n/a
823.447	0.165	1646894	keystroke	c	n/a
823.942	0.12	1647884	keystroke	Key.space	n/a
824.197	0.12	1648394	keystroke	s	n/a
824.422	0.135	1648844	keystroke	t	n/a
824.617	0.18	1649234	keystroke	r	n/a
824.977	0.105	1649954	keystroke	e	n/a
825.172	0.12	1650344	keystroke	e	n/a
825.412	0.075	1650824	keystroke	t	n/a
825.817	0.09	1651634	keystroke	Key.enter	n/a
825.9115	10.9925	1651823	prompt	n/a	recommendations rally wants cook\n
826.957	0.135	1653914	keystroke	r	n/a
827.077	0.135	1654154	keystroke	e	n/a
827.362	0.105	1654724	keystroke	c	n/a
827.617	0.105	1655234	keystroke	o	n/a
827.917	0.075	1655834	keystroke	m	n/a
828.127	0.09	1656254	keystroke	m	n/a
828.352	0.09	1656704	keystroke	e	n/a
828.562	0.09	1657124	keystroke	n	n/a
829.012	0.15	1658024	keystroke	d	n/a
829.177	0.105	1658354	keystroke	a	n/a
829.432	0.105	1658864	keystroke	t	n/a
829.597	0.09	1659194	keystroke	i	n/a
829.792	0.075	1659584	keystroke	o	n/a
829.972	0.09	1659944	keystroke	n	n/a
830.137	0.135	1660274	keystroke	s	n/a
830.377	0.105	1660754	keystroke	Key.space	n/a
830.737	0.135	1661474	keystroke	t	n/a
830.887	0.15	1661774	keystroke	a	n/a
831.802	0.06	1663604	keystroke	Key.backspace	n/a
832.177	0.06	1664354	keystroke	Key.backspace	n/a
832.462	0.135	1664924	keystroke	r	n/a
832.672	0.135	1665344	keystroke	a	n/a
833.017	0.105	1666034	keystroke	l	n/a
833.227	0.09	1666454	keystroke	l	n/a
833.452	0.075	1666904	keystroke	y	n/a
833.677	0.105	1667354	keystroke	Key.space	n/a
833.902	0.09	1667804	keystroke	e	n/a
834.412	0.075	1668824	keystroke	Key.backspace	n/a
834.623	0.164	1669246	keystroke	w	n/a
834.847	0.15	1669694	keystroke	a	n/a
835.057	0.12	1670114	keystroke	n	n/a
835.267	0.12	1670534	keystroke	t	n/a
835.642	0.12	1671284	keystroke	s	n/a
835.807	0.135	1671614	keystroke	Key.space	n/a
836.032	0.135	1672064	keystroke	c	n/a
836.152	0.09	1672304	keystroke	o	n/a
836.332	0.075	1672664	keystroke	o	n/a
836.542	0.045	1673084	keystroke	k	n/a
836.842	0.06	1673684	keystroke	Key.enter	n/a
836.907	17.127	1673814	prompt	n/a	transferred gage horizontal programming\n
843.04	0.073	1686080	keystroke	t	n/a
843.083	0.165	1686166	keystroke	r	n/a
843.203	0.15	1686406	keystroke	a	n/a
843.428	0.12	1686856	keystroke	n	n/a
843.953	0.135	1687906	keystroke	s	n/a
844.268	0.105	1688536	keystroke	f	n/a
844.493	0.09	1688986	keystroke	e	n/a
844.763	0.06	1689526	keystroke	r	n/a
844.928	0.09	1689856	keystroke	r	n/a
845.108	0.12	1690216	keystroke	e	n/a
845.377	0.121	1690754	keystroke	d	n/a
845.603	0.12	1691206	keystroke	Key.space	n/a
845.903	0.135	1691806	keystroke	g	n/a
846.023	0.135	1692046	keystroke	a	n/a
846.308	0.09	1692616	keystroke	g	n/a
846.518	0.09	1693036	keystroke	e	n/a
846.848	0.12	1693696	keystroke	Key.space	n/a
847.418	0.09	1694836	keystroke	h	n/a
847.643	0.105	1695286	keystroke	o	n/a
847.9275	0.09	1695855	keystroke	r	n/a
848.1525	0.09	1696305	keystroke	i	n/a
848.5725	0.045	1697145	keystroke	t	n/a
848.9925	0.09	1697985	keystroke	Key.backspace	n/a
849.1425	0.105	1698285	keystroke	z	n/a
849.6975	0.12	1699395	keystroke	o	n/a
849.9675	0.09	1699935	keystroke	n	n/a
850.1775	0.15	1700355	keystroke	t	n/a
850.3425	0.165	1700685	keystroke	a	n/a
850.5375	0.12	1701075	keystroke	l	n/a
850.7925	0.105	1701585	keystroke	Key.space	n/a
851.3775	0.015	1702755	keystroke	p	n/a
851.4825	0.09	1702965	keystroke	r	n/a
851.7375	0.12	1703475	keystroke	o	n/a
852.0525	0.12	1704105	keystroke	g	n/a
852.2475	0.195	1704495	keystroke	r	n/a
852.4125	0.135	1704825	keystroke	a	n/a
852.6075	0.09	1705215	keystroke	m	n/a
852.8025	0.105	1705605	keystroke	m	n/a
853.0125	0.105	1706025	keystroke	i	n/a
853.1925	0.105	1706385	keystroke	n	n/a
853.3575	0.105	1706715	keystroke	g	n/a
853.9275	0.105	1707855	keystroke	Key.enter	n/a
854.037	11.607	1708074	prompt	n/a	anybody originally strain blanket\n
854.9175	0.135	1709835	keystroke	a	n/a
855.1125	0.105	1710225	keystroke	n	n/a
855.3975	0.075	1710795	keystroke	y	n/a
855.7575	0.075	1711515	keystroke	b	n/a
855.9825	0.075	1711965	keystroke	o	n/a
856.6275	0.105	1713255	keystroke	d	n/a
856.7925	0.105	1713585	keystroke	y	n/a
857.0775	0.105	1714155	keystroke	Key.space	n/a
857.3925	0.105	1714785	keystroke	o	n/a
857.6025	0.075	1715205	keystroke	r	n/a
857.8725	0.075	1715745	keystroke	i	n/a
859.253	0.12	1718506	keystroke	g	n/a
859.463	0.105	1718926	keystroke	i	n/a
859.748	0.03	1719496	keystroke	n	n/a
860.813	0.135	1721626	keystroke	a	n/a
861.008	0.09	1722016	keystroke	l	n/a
861.188	0.09	1722376	keystroke	l	n/a
861.428	0.075	1722856	keystroke	y	n/a
861.653	0.105	1723306	keystroke	Key.space	n/a
861.818	0.135	1723636	keystroke	s	n/a
862.073	0.105	1724146	keystroke	t	n/a
862.283	0.165	1724566	keystroke	r	n/a
862.418	0.135	1724836	keystroke	a	n/a
862.673	0.12	1725346	keystroke	i	n/a
862.913	0.09	1725826	keystroke	n	n/a
863.108	0.12	1726216	keystroke	Key.space	n/a
863.813	0.075	1727626	keystroke	b	n/a
864.023	0.105	1728046	keystroke	l	n/a
864.263	0.105	1728526	keystroke	a	n/a
864.473	0.09	1728946	keystroke	n	n/a
864.698	0.09	1729396	keystroke	k	n/a
864.968	0.12	1729936	keystroke	e	n/a
865.298	0.075	1730596	keystroke	t	n/a
865.568	0.075	1731136	keystroke	Key.enter	n/a
865.647	7.257	1731294	prompt	n/a	federal teens ncaa cdna\n
866.858	0.09	1733716	keystroke	f	n/a
867.008	0.105	1734016	keystroke	e	n/a
867.248	0.075	1734496	keystroke	d	n/a
867.473	0.135	1734946	keystroke	e	n/a
867.668	0.135	1735336	keystroke	r	n/a
867.878	0.15	1735756	keystroke	a	n/a
868.073	0.135	1736146	keystroke	l	n/a
868.268	0.12	1736536	keystroke	Key.space	n/a
868.538	0.105	1737076	keystroke	t	n/a
868.673	0.165	1737346	keystroke	e	n/a
868.943	0.105	1737886	keystroke	e	n/a
869.093	0.12	1738186	keystroke	n	n/a
869.318	0.165	1738636	keystroke	s	n/a
869.978	0.12	1739956	keystroke	Key.space	n/a
870.563	0.075	1741126	keystroke	n	n/a
870.788	0.165	1741576	keystroke	c	n/a
870.983	0.12	1741966	keystroke	a	n/a
871.238	0.105	1742476	keystroke	a	n/a
871.433	0.12	1742866	keystroke	Key.space	n/a
871.988	0.09	1743976	keystroke	c	n/a
872.183	0.075	1744366	keystroke	d	n/a
872.423	0.075	1744846	keystroke	n	n/a
872.618	0.075	1745236	keystroke	a	n/a
872.828	0.075	1745656	keystroke	Key.enter	n/a
872.909	10.7355	1745818	prompt	n/a	singles ensemble subjective makeup\n
874.088	0.135	1748176	keystroke	s	n/a
874.238	0.075	1748476	keystroke	i	n/a
874.418	0.105	1748836	keystroke	n	n/a
874.598	0.09	1749196	keystroke	g	n/a
874.838	0.105	1749676	keystroke	l	n/a
875.078	0.18	1750156	keystroke	e	n/a
875.318	0.075	1750636	keystroke	s	n/a
875.498	0.12	1750996	keystroke	Key.space	n/a
875.933	0.105	1751866	keystroke	e	n/a
876.428	0.09	1752856	keystroke	n	n/a
876.683	0.135	1753366	keystroke	s	n/a
876.953	0.12	1753906	keystroke	e	n/a
877.478	0.12	1754956	keystroke	m	n/a
877.838	0.075	1755676	keystroke	b	n/a
878.018	0.12	1756036	keystroke	l	n/a
878.243	0.105	1756486	keystroke	e	n/a
878.423	0.12	1756846	keystroke	Key.space	n/a
879.173	0.135	1758346	keystroke	s	n/a
879.413	0.075	1758826	keystroke	u	n/a
879.668	0.045	1759336	keystroke	b	n/a
880.283	0.075	1760566	keystroke	j	n/a
880.448	0.09	1760896	keystroke	e	n/a
880.778	0.09	1761556	keystroke	c	n/a
881.003	0.09	1762006	keystroke	t	n/a
881.183	0.105	1762366	keystroke	i	n/a
881.498	0.09	1762996	keystroke	v	n/a
881.723	0.075	1763446	keystroke	e	n/a
881.888	0.105	1763776	keystroke	Key.space	n/a
882.113	0.09	1764226	keystroke	m	n/a
882.263	0.15	1764526	keystroke	a	n/a
882.428	0.075	1764856	keystroke	k	n/a
882.593	0.105	1765186	keystroke	e	n/a
883.028	0.075	1766056	keystroke	u	n/a
883.223	0.09	1766446	keystroke	p	n/a
883.598	0.045	1767196	keystroke	Key.enter	n/a
883.6475	13.977	1767295	prompt	n/a	shirt bride apparent featuring\n
884.648	0.12	1769296	keystroke	s	n/a
884.798	0.09	1769596	keystroke	h	n/a
884.963	0.105	1769926	keystroke	i	n/a
885.128	0.12	1770256	keystroke	r	n/a
886.088	0.06	1772176	keystroke	t	n/a
886.298	0.09	1772596	keystroke	Key.space	n/a
886.583	0.075	1773166	keystroke	b	n/a
886.778	0.075	1773556	keystroke	r	n/a
886.958	0.09	1773916	keystroke	i	n/a
887.303	0.105	1774606	keystroke	d	n/a
887.528	0.09	1775056	keystroke	e	n/a
887.738	0.09	1775476	keystroke	Key.space	n/a
888.143	0.12	1776286	keystroke	a	n/a
888.308	0.075	1776616	keystroke	p	n/a
888.518	0.075	1777036	keystroke	p	n/a
888.713	0.15	1777426	keystroke	a	n/a
888.953	0.09	1777906	keystroke	r	n/a
889.223	0.12	1778446	keystroke	e	n/a
889.418	0.105	1778836	keystroke	n	n/a
889.583	0.09	1779166	keystroke	t	n/a
889.793	0.105	1779586	keystroke	Key.space	n/a
890.168	0.03	1780336	keystroke	f	n/a
890.963	0.12	1781926	keystroke	e	n/a
891.143	0.12	1782286	keystroke	a	n/a
891.503	0.105	1783006	keystroke	r	n/a
893.003	0.09	1786006	keystroke	u	n/a
893.168	0.105	1786336	keystroke	r	n/a
893.318	0.105	1786636	keystroke	i	n/a
893.528	0.09	1787056	keystroke	n	n/a
894.143	0.075	1788286	keystroke	Key.backspace	n/a
894.413	0.06	1788826	keystroke	Key.backspace	n/a
894.668	0.075	1789336	keystroke	Key.backspace	n/a
894.908	0.06	1789816	keystroke	Key.backspace	n/a
895.133	0.06	1790266	keystroke	Key.backspace	n/a
895.973	0.06	1791946	keystroke	t	n/a
896.393	0.075	1792786	keystroke	u	n/a
896.543	0.09	1793086	keystroke	r	n/a
896.723	0.09	1793446	keystroke	i	n/a
896.918	0.105	1793836	keystroke	n	n/a
897.098	0.12	1794196	keystroke	g	n/a
897.548	0.075	1795096	keystroke	Key.enter	n/a
897.6275	11.8015	1795255	prompt	n/a	removal necessary secret children\n
898.883	0.09	1797766	keystroke	r	n/a
898.958	0.12	1797916	keystroke	e	n/a
899.123	0.12	1798246	keystroke	m	n/a
899.288	0.12	1798576	keystroke	o	n/a
899.768	0.15	1799536	keystroke	v	n/a
899.888	0.165	1799776	keystroke	a	n/a
900.143	0.12	1800286	keystroke	l	n/a
900.338	0.12	1800676	keystroke	Key.space	n/a
900.833	0.105	1801666	keystroke	n	n/a
900.983	0.105	1801966	keystroke	e	n/a
901.238	0.09	1802476	keystroke	c	n/a
901.478	0.09	1802956	keystroke	e	n/a
902.063	0.06	1804126	keystroke	s	n/a
902.903	0.105	1805806	keystroke	s	n/a
903.128	0.135	1806256	keystroke	a	n/a
903.458	0.09	1806916	keystroke	r	n/a
903.833	0.075	1807666	keystroke	y	n/a
904.133	0.09	1808266	keystroke	Key.space	n/a
904.568	0.12	1809136	keystroke	s	n/a
904.748	0.105	1809496	keystroke	e	n/a
905.0325	0.105	1810065	keystroke	c	n/a
906.2475	0.135	1812495	keystroke	r	n/a
906.3675	0.12	1812735	keystroke	e	n/a
906.6225	0.09	1813245	keystroke	t	n/a
906.8025	0.12	1813605	keystroke	Key.space	n/a
906.9825	0.15	1813965	keystroke	c	n/a
907.1475	0.105	1814295	keystroke	h	n/a
907.5075	0.09	1815015	keystroke	i	n/a
907.8825	0.12	1815765	keystroke	l	n/a
908.3325	0.105	1816665	keystroke	d	n/a
908.6025	0.105	1817205	keystroke	r	n/a
908.7075	0.12	1817415	keystroke	e	n/a
908.9625	0.12	1817925	keystroke	n	n/a
909.3075	0.12	1818615	keystroke	Key.enter	n/a
909.432	13.2425	1818864	prompt	n/a	tons extension money selecting\n
910.3275	0.12	1820655	keystroke	t	n/a
910.4625	0.09	1820925	keystroke	o	n/a
910.6875	0.09	1821375	keystroke	n	n/a
910.9425	0.105	1821885	keystroke	s	n/a
911.1525	0.12	1822305	keystroke	Key.space	n/a
911.4675	0.075	1822935	keystroke	e	n/a
911.7225	0.105	1823445	keystroke	c	n/a
912.4875	0.06	1824975	keystroke	Key.backspace	n/a
912.6525	0.12	1825305	keystroke	x	n/a
913.1925	0.105	1826385	keystroke	e	n/a
913.7025	0.045	1827405	keystroke	Key.backspace	n/a
913.8975	0.105	1827795	keystroke	t	n/a
914.1975	0.09	1828395	keystroke	e	n/a
914.4975	0.105	1828995	keystroke	n	n/a
914.7525	0.105	1829505	keystroke	s	n/a
914.9775	0.12	1829955	keystroke	i	n/a
915.2175	0.105	1830435	keystroke	o	n/a
915.4275	0.09	1830855	keystroke	n	n/a
915.5925	0.105	1831185	keystroke	Key.space	n/a
915.9675	0.12	1831935	keystroke	m	n/a
916.1325	0.09	1832265	keystroke	o	n/a
916.3125	0.105	1832625	keystroke	n	n/a
916.4925	0.105	1832985	keystroke	e	n/a
916.6575	0.09	1833315	keystroke	y	n/a
916.8825	0.12	1833765	keystroke	Key.space	n/a
917.1375	0.1945	1834275	keystroke	s	n/a
917.317	0.091	1834634	keystroke	e	n/a
917.512	0.121	1835024	keystroke	l	n/a
917.692	0.106	1835384	keystroke	e	n/a
918.067	0.091	1836134	keystroke	c	n/a
918.352	0.106	1836704	keystroke	t	n/a
918.517	0.09	1837034	keystroke	i	n/a
918.743	0.029	1837486	keystroke	o	n/a
918.892	0.105	1837784	keystroke	n	n/a
920.4375	0.075	1840875	keystroke	Key.backspace	n/a
920.8125	0.075	1841625	keystroke	Key.backspace	n/a
921.1725	0.045	1842345	keystroke	Key.backspace	n/a
922.0425	0.0605	1844085	keystroke	i	n/a
922.2085	0.089	1844417	keystroke	n	n/a
922.3885	0.089	1844777	keystroke	g	n/a
922.6125	0.06	1845225	keystroke	Key.enter	n/a
922.6775	15.882	1845355	prompt	n/a	preceding firefox specification adults\n
923.5425	0.12	1847085	keystroke	p	n/a
923.8275	0.136	1847655	keystroke	r	n/a
924.1135	0.105	1848227	keystroke	e	n/a
925.0135	0.134	1850027	keystroke	c	n/a
925.2535	0.105	1850507	keystroke	e	n/a
925.5375	0.09	1851075	keystroke	d	n/a
925.6875	0.105	1851375	keystroke	i	n/a
925.8975	0.105	1851795	keystroke	n	n/a
926.1525	0.106	1852305	keystroke	g	n/a
926.4825	0.105	1852965	keystroke	Key.space	n/a
926.8425	0.135	1853685	keystroke	f	n/a
927.0235	0.119	1854047	keystroke	i	n/a
927.2625	0.091	1854525	keystroke	r	n/a
927.5175	0.121	1855035	keystroke	e	n/a
927.9225	0.12	1855845	keystroke	f	n/a
928.1185	0.119	1856237	keystroke	o	n/a
928.3585	0.119	1856717	keystroke	c	n/a
929.7225	0.105	1859445	keystroke	Key.backspace	n/a
930.1135	0.089	1860227	keystroke	x	n/a
930.5775	0.105	1861155	keystroke	Key.space	n/a
931.4475	0.061	1862895	keystroke	s	n/a
931.6585	0.18	1863317	keystroke	p	n/a
932.1975	0.12	1864395	keystroke	e	n/a
932.4975	0.12	1864995	keystroke	c	n/a
932.7985	0.135	1865597	keystroke	i	n/a
933.7435	0.105	1867487	keystroke	f	n/a
933.9385	0.104	1867877	keystroke	i	n/a
934.4635	0.165	1868927	keystroke	c	n/a
934.6285	0.149	1869257	keystroke	a	n/a
934.9125	0.121	1869825	keystroke	t	n/a
935.0635	0.135	1870127	keystroke	i	n/a
935.3335	0.075	1870667	keystroke	o	n/a
935.5435	0.074	1871087	keystroke	n	n/a
935.7525	0.106	1871505	keystroke	s	n/a
936.2325	0.105	1872465	keystroke	Key.space	n/a
936.5335	0.12	1873067	keystroke	a	n/a
936.8935	0.104	1873787	keystroke	d	n/a
937.3875	0.121	1874775	keystroke	u	n/a
