onset	duration	sample	value	key	prompt_text
6.5525	9.468	13105	prompt	n/a	the quick brown fox jumps over a lazy dog\n
8.1725	0.0275	16345	keystroke	t	n/a
8.1725	0.1175	16345	keystroke	h	n/a
8.275	0.0905	16550	keystroke	e	n/a
8.41	0.1195	16820	keystroke	Key.space	n/a
8.6055	0.0905	17211	keystroke	q	n/a
8.681	0.09	17362	keystroke	u	n/a
8.7405	0.1205	17481	keystroke	i	n/a
8.891	0.1055	17782	keystroke	c	n/a
8.981	0.1045	17962	keystroke	k	n/a
9.1305	0.1805	18261	keystroke	Key.space	n/a
9.296	0.075	18592	keystroke	b	n/a
9.506	0.075	19012	keystroke	r	n/a
9.551	0.1205	19102	keystroke	o	n/a
9.747	0.1495	19494	keystroke	w	n/a
9.7765	0.135	19553	keystroke	n	n/a
10.001	0.135	20002	keystroke	Key.space	n/a
10.121	0.165	20242	keystroke	f	n/a
10.2115	0.12	20423	keystroke	o	n/a
10.3315	0.0295	20663	keystroke	f	n/a
10.376	0.12	20752	keystroke	x	n/a
10.511	0.1645	21022	keystroke	Key.space	n/a
10.691	0.105	21382	keystroke	j	n/a
11.141	0.0595	22282	keystroke	Key.backspace	n/a
11.321	0.045	22642	keystroke	Key.backspace	n/a
11.47	0.061	22940	keystroke	Key.backspace	n/a
11.785	0.046	23570	keystroke	Key.backspace	n/a
12.687	0.104	25374	keystroke	x	n/a
12.881	0.135	25762	keystroke	Key.space	n/a
13.1055	0.0755	26211	keystroke	j	n/a
13.301	0.075	26602	keystroke	u	n/a
13.541	0.09	27082	keystroke	m	n/a
13.661	0.135	27322	keystroke	p	n/a
13.811	0.12	27622	keystroke	s	n/a
13.961	0.105	27922	keystroke	Key.space	n/a
14.0815	0.089	28163	keystroke	o	n/a
14.156	0.06	28312	keystroke	v	n/a
14.276	0.1505	28552	keystroke	e	n/a
14.366	0.075	28732	keystroke	r	n/a
14.4555	0.0905	28911	keystroke	Key.space	n/a
14.5765	0.119	29153	keystroke	a	n/a
14.681	0.135	29362	keystroke	Key.space	n/a
14.876	0.1505	29752	keystroke	l	n/a
15.0115	0.104	30023	keystroke	a	n/a
15.2655	0.1355	30531	keystroke	z	n/a
15.386	0.09	30772	keystroke	y	n/a
15.581	0.105	31162	keystroke	Key.space	n/a
15.626	0.15	31252	keystroke	d	n/a
15.731	0.09	31462	keystroke	o	n/a
15.8215	0.0895	31643	keystroke	g	n/a
15.956	0.06	31912	keystroke	Key.enter	n/a
16.025	7.538	32050	prompt	n/a	standings spas communities accomplished\n
16.5565	0.1495	33113	keystroke	t	n/a
17.126	0.045	34252	keystroke	Key.backspace	n/a
17.2915	0.135	34583	keystroke	s	n/a
17.3815	0.135	34763	keystroke	t	n/a
17.5015	0.1345	35003	keystroke	a	n/a
17.6055	0.1505	35211	keystroke	n	n/a
17.6965	0.18	35393	keystroke	d	n/a
17.8465	0.12	35693	keystroke	i	n/a
17.951	0.135	35902	keystroke	n	n/a
18.011	0.135	36022	keystroke	g	n/a
18.116	0.1505	36232	keystroke	s	n/a
18.267	0.1495	36534	keystroke	Key.space	n/a
18.492	0.164	36984	keystroke	s	n/a
18.6265	0.0895	37253	keystroke	p	n/a
18.7315	0.1645	37463	keystroke	a	n/a
18.851	0.12	37702	keystroke	s	n/a
19.0165	0.1195	38033	keystroke	Key.space	n/a
19.2865	0.1195	38573	keystroke	c	n/a
19.346	0.1345	38692	keystroke	o	n/a
19.586	0.0755	39172	keystroke	m	n/a
19.766	0.0745	39532	keystroke	m	n/a
19.976	0.061	39952	keystroke	u	n/a
20.1865	0.0895	40373	keystroke	n	n/a
20.786	0.105	41572	keystroke	i	n/a
20.9815	0.1195	41963	keystroke	t	n/a
21.086	0.135	42172	keystroke	i	n/a
21.176	0.18	42352	keystroke	e	n/a
21.2805	0.1205	42561	keystroke	s	n/a
21.386	0.15	42772	keystroke	Key.space	n/a
21.611	0.136	43222	keystroke	a	n/a
21.806	0.046	43612	keystroke	c	n/a
21.971	0.06	43942	keystroke	c	n/a
22.136	0.1055	44272	keystroke	o	n/a
22.346	0.1205	44692	keystroke	m	n/a
22.541	0.105	45082	keystroke	p	n/a
22.691	0.1945	45382	keystroke	l	n/a
22.856	0.1205	45712	keystroke	i	n/a
22.9905	0.1055	45981	keystroke	s	n/a
23.0515	0.1045	46103	keystroke	h	n/a
23.157	0.09	46314	keystroke	e	n/a
23.352	0.0885	46704	keystroke	d	n/a
23.4855	0.075	46971	keystroke	Key.enter	n/a
23.5665	5.9665	47133	prompt	n/a	movies streets soil preferences\n
24.2215	0.0745	48443	keystroke	m	n/a
24.3405	0.0905	48681	keystroke	o	n/a
24.446	0.1355	48892	keystroke	v	n/a
24.5815	0.135	49163	keystroke	i	n/a
24.656	0.165	49312	keystroke	e	n/a
24.7615	0.105	49523	keystroke	s	n/a
24.8515	0.1345	49703	keystroke	Key.space	n/a
24.971	0.0905	49942	keystroke	s	n/a
25.076	0.12	50152	keystroke	t	n/a
25.316	0.15	50632	keystroke	r	n/a
25.437	0.089	50874	keystroke	e	n/a
25.601	0.12	51202	keystroke	e	n/a
25.766	0.165	51532	keystroke	t	n/a
25.886	0.1345	51772	keystroke	s	n/a
26.051	0.1205	52102	keystroke	Key.space	n/a
26.156	0.1355	52312	keystroke	s	n/a
26.276	0.15	52552	keystroke	o	n/a
26.3965	0.1195	52793	keystroke	i	n/a
26.6515	0.1195	53303	keystroke	l	n/a
26.846	0.0755	53692	keystroke	Key.space	n/a
26.9815	0.104	53963	keystroke	p	n/a
27.116	0.105	54232	keystroke	r	n/a
27.1915	0.1645	54383	keystroke	e	n/a
27.8355	0.166	55671	keystroke	f	n/a
27.9865	0.18	55973	keystroke	e	n/a
28.391	0.12	56782	keystroke	r	n/a
28.7655	0.1055	57531	keystroke	e	n/a
28.9765	0.105	57953	keystroke	n	n/a
29.0365	0.09	58073	keystroke	c	n/a
29.2305	0.1515	58461	keystroke	e	n/a
29.321	0.1355	58642	keystroke	s	n/a
29.4705	0.06	58941	keystroke	Key.enter	n/a
29.538	7.6305	59076	prompt	n/a	franchise removal collective letting\n
30.2665	0.12	60533	keystroke	f	n/a
30.4915	0.089	60983	keystroke	r	n/a
30.5665	0.135	61133	keystroke	a	n/a
30.7015	0.135	61403	keystroke	n	n/a
30.8505	0.106	61701	keystroke	c	n/a
30.9865	0.1495	61973	keystroke	h	n/a
31.1365	0.1195	62273	keystroke	i	n/a
31.271	0.15	62542	keystroke	s	n/a
31.4065	0.1205	62813	keystroke	e	n/a
31.6315	0.135	63263	keystroke	Key.space	n/a
31.9315	0.105	63863	keystroke	r	n/a
32.0065	0.12	64013	keystroke	e	n/a
32.1415	0.075	64283	keystroke	m	n/a
32.2465	0.12	64493	keystroke	o	n/a
32.3515	0.1195	64703	keystroke	v	n/a
32.4555	0.0905	64911	keystroke	e	n/a
33.0415	0.06	66083	keystroke	Key.backspace	n/a
33.3565	0.1645	66713	keystroke	a	n/a
33.476	0.105	66952	keystroke	l	n/a
33.656	0.15	67312	keystroke	Key.space	n/a
33.851	0.105	67702	keystroke	c	n/a
33.926	0.0755	67852	keystroke	o	n/a
34.167	0.09	68334	keystroke	l	n/a
34.3465	0.0895	68693	keystroke	l	n/a
34.391	0.1055	68782	keystroke	e	n/a
34.616	0.0905	69232	keystroke	c	n/a
34.7665	0.105	69533	keystroke	t	n/a
34.872	0.1195	69744	keystroke	i	n/a
35.0215	0.12	70043	keystroke	v	n/a
35.1265	0.09	70253	keystroke	e	n/a
35.2315	0.105	70463	keystroke	Key.space	n/a
35.3515	0.1345	70703	keystroke	l	n/a
35.517	0.074	71034	keystroke	e	n/a
35.621	0.0755	71242	keystroke	e	n/a
36.2365	0.074	72473	keystroke	Key.backspace	n/a
36.4465	0.09	72893	keystroke	t	n/a
36.6415	0.074	73283	keystroke	t	n/a
36.8065	0.075	73613	keystroke	i	n/a
36.8965	0.105	73793	keystroke	n	n/a
36.9715	0.09	73943	keystroke	g	n/a
37.0765	0.09	74153	keystroke	Key.enter	n/a
37.1715	5.022	74343	prompt	n/a	permalink coaches sink drain\n
37.9015	0.09	75803	keystroke	p	n/a
37.9615	0.2095	75923	keystroke	e	n/a
38.051	0.135	76102	keystroke	r	n/a
38.3965	0.15	76793	keystroke	m	n/a
38.5315	0.135	77063	keystroke	a	n/a
38.7415	0.21	77483	keystroke	l	n/a
38.9365	0.105	77873	keystroke	i	n/a
39.0565	0.15	78113	keystroke	n	n/a
39.1765	0.15	78353	keystroke	k	n/a
39.4165	0.15	78833	keystroke	Key.space	n/a
39.596	0.1055	79192	keystroke	c	n/a
39.671	0.12	79342	keystroke	o	n/a
39.776	0.165	79552	keystroke	a	n/a
39.8665	0.105	79733	keystroke	s	n/a
40.2865	0.045	80573	keystroke	Key.backspace	n/a
40.4365	0.105	80873	keystroke	c	n/a
40.5415	0.1205	81083	keystroke	h	n/a
40.6465	0.1645	81293	keystroke	e	n/a
40.7515	0.105	81503	keystroke	s	n/a
40.871	0.1645	81742	keystroke	Key.space	n/a
40.991	0.15	81982	keystroke	s	n/a
41.0515	0.1045	82103	keystroke	i	n/a
41.1715	0.149	82343	keystroke	n	n/a
41.276	0.1195	82552	keystroke	k	n/a
41.4715	0.12	82943	keystroke	Key.space	n/a
41.532	0.1945	83064	keystroke	d	n/a
41.7105	0.106	83421	keystroke	r	n/a
41.8015	0.149	83603	keystroke	a	n/a
41.861	0.0755	83722	keystroke	i	n/a
41.9215	0.119	83843	keystroke	n	n/a
42.1305	0.0605	84261	keystroke	Key.enter	n/a
42.1975	9.5365	84395	prompt	n/a	lexington cluster makers consortium\n
42.9115	0.15	85823	keystroke	l	n/a
43.0315	0.09	86063	keystroke	e	n/a
43.2715	0.105	86543	keystroke	x	n/a
43.4065	0.15	86813	keystroke	i	n/a
43.6915	0.12	87383	keystroke	n	n/a
44.1115	0.09	88223	keystroke	g	n/a
44.4115	0.12	88823	keystroke	t	n/a
44.5165	0.105	89033	keystroke	o	n/a
44.6365	0.105	89273	keystroke	n	n/a
44.8315	0.15	89663	keystroke	Key.space	n/a
44.9965	0.1495	89993	keystroke	c	n/a
45.116	0.09	90232	keystroke	l	n/a
45.281	0.1055	90562	keystroke	u	n/a
45.371	0.1205	90742	keystroke	s	n/a
45.747	0.0895	91494	keystroke	t	n/a
45.8665	0.165	91733	keystroke	e	n/a
45.9715	0.09	91943	keystroke	r	n/a
46.1215	0.12	92243	keystroke	Key.space	n/a
46.377	0.1195	92754	keystroke	m	n/a
46.4665	0.1195	92933	keystroke	a	n/a
46.5705	0.165	93141	keystroke	k	n/a
46.631	0.2855	93262	keystroke	e	n/a
46.7205	0.136	93441	keystroke	r	n/a
46.8105	0.181	93621	keystroke	s	n/a
46.9765	0.165	93953	keystroke	Key.space	n/a
47.2165	0.105	94433	keystroke	c	n/a
47.2915	0.12	94583	keystroke	o	n/a
47.4265	0.105	94853	keystroke	n	n/a
47.5915	0.165	95183	keystroke	s	n/a
47.7715	0.09	95543	keystroke	o	n/a
49.137	0.104	98274	keystroke	r	n/a
49.406	0.18	98812	keystroke	t	n/a
49.512	0.104	99024	keystroke	u	n/a
49.8265	0.1195	99653	keystroke	i	n/a
50.3805	0.061	100761	keystroke	Key.backspace	n/a
50.531	0.06	101062	keystroke	Key.backspace	n/a
50.9965	0.12	101993	keystroke	i	n/a
51.2065	0.075	102413	keystroke	u	n/a
51.446	0.0745	102892	keystroke	m	n/a
51.641	0.09	103282	keystroke	Key.enter	n/a
51.7415	9.247	103483	prompt	n/a	novelty symposium tobago missions\n
54.403	0.0585	108806	keystroke	n	n/a
54.956	0.1205	109912	keystroke	o	n/a
55.091	0.12	110182	keystroke	v	n/a
55.241	0.135	110482	keystroke	e	n/a
55.406	0.136	110812	keystroke	l	n/a
55.586	0.12	111172	keystroke	t	n/a
55.766	0.0755	111532	keystroke	y	n/a
55.961	0.135	111922	keystroke	Key.space	n/a
56.126	0.15	112252	keystroke	s	n/a
56.306	0.09	112612	keystroke	y	n/a
56.6665	0.135	113333	keystroke	m	n/a
56.9965	0.12	113993	keystroke	p	n/a
57.2215	0.09	114443	keystroke	o	n/a
57.3565	0.134	114713	keystroke	s	n/a
57.7605	0.1205	115521	keystroke	i	n/a
57.9415	0.09	115883	keystroke	u	n/a
58.211	0.105	116422	keystroke	m	n/a
58.4665	0.165	116933	keystroke	Key.space	n/a
58.8115	0.09	117623	keystroke	t	n/a
58.9165	0.105	117833	keystroke	o	n/a
59.1415	0.12	118283	keystroke	b	n/a
59.2465	0.195	118493	keystroke	a	n/a
59.5015	0.1045	119003	keystroke	g	n/a
59.621	0.105	119242	keystroke	o	n/a
59.8165	0.12	119633	keystroke	Key.space	n/a
60.011	0.1205	120022	keystroke	m	n/a
60.161	0.105	120322	keystroke	i	n/a
60.236	0.09	120472	keystroke	s	n/a
60.4315	0.1505	120863	keystroke	s	n/a
60.5365	0.09	121073	keystroke	i	n/a
60.611	0.0905	121222	keystroke	o	n/a
60.6865	0.15	121373	keystroke	n	n/a
60.7465	0.12	121493	keystroke	s	n/a
60.9115	0.075	121823	keystroke	Key.enter	n/a
60.993	4.1355	121986	prompt	n/a	chicago strip sent font\n
61.631	0.1205	123262	keystroke	c	n/a
61.7365	0.09	123473	keystroke	h	n/a
61.9015	0.1645	123803	keystroke	i	n/a
62.0215	0.18	124043	keystroke	c	n/a
62.2165	0.1055	124433	keystroke	a	n/a
62.531	0.1505	125062	keystroke	g	n/a
62.6515	0.1195	125303	keystroke	o	n/a
62.861	0.135	125722	keystroke	Key.space	n/a
63.2365	0.0155	126473	keystroke	s	n/a
63.281	0.06	126562	keystroke	t	n/a
63.461	0.1055	126922	keystroke	r	n/a
63.5065	0.15	127013	keystroke	i	n/a
63.581	0.1055	127162	keystroke	p	n/a
63.8065	0.12	127613	keystroke	Key.space	n/a
63.8965	0.135	127793	keystroke	s	n/a
64.0615	0.105	128123	keystroke	e	n/a
64.1665	0.135	128333	keystroke	n	n/a
64.2875	0.104	128575	keystroke	t	n/a
64.4215	0.119	128843	keystroke	Key.space	n/a
64.6615	0.119	129323	keystroke	f	n/a
64.7365	0.105	129473	keystroke	o	n/a
64.8555	0.106	129711	keystroke	n	n/a
64.917	0.104	129834	keystroke	t	n/a
65.036	0.09	130072	keystroke	Key.enter	n/a
65.1325	9.9405	130265	prompt	n/a	efficiently destiny roads accommodate\n
66.027	0.1645	132054	keystroke	e	n/a
66.2815	0.1355	132563	keystroke	f	n/a
66.6715	0.1795	133343	keystroke	f	n/a
67.121	0.15	134242	keystroke	i	n/a
67.571	0.09	135142	keystroke	c	n/a
67.8715	0.165	135743	keystroke	i	n/a
68.0965	0.1345	136193	keystroke	e	n/a
68.306	0.15	136612	keystroke	n	n/a
69.1765	0.12	138353	keystroke	t	n/a
69.7465	0.1345	139493	keystroke	l	n/a
69.911	0.075	139822	keystroke	y	n/a
70.1065	0.1495	140213	keystroke	Key.space	n/a
70.2115	0.1055	140423	keystroke	d	n/a
70.391	0.135	140782	keystroke	e	n/a
70.466	0.1355	140932	keystroke	s	n/a
70.602	0.104	141204	keystroke	t	n/a
70.691	0.1055	141382	keystroke	i	n/a
70.7815	0.1205	141563	keystroke	n	n/a
71.021	0.045	142042	keystroke	i	n/a
71.036	0.0605	142072	keystroke	y	n/a
71.231	0.15	142462	keystroke	Key.space	n/a
71.366	0.1495	142732	keystroke	r	n/a
71.501	0.1195	143002	keystroke	o	n/a
71.5315	0.194	143063	keystroke	a	n/a
71.7105	0.2705	143421	keystroke	d	n/a
71.921	0.1805	143842	keystroke	s	n/a
72.116	0.135	144232	keystroke	Key.space	n/a
72.4615	0.1345	144923	keystroke	a	n/a
72.656	0.0755	145312	keystroke	c	n/a
72.836	0.09	145672	keystroke	c	n/a
72.986	0.12	145972	keystroke	o	n/a
73.1815	0.195	146363	keystroke	m	n/a
73.601	0.0155	147202	keystroke	o	n/a
73.916	0.06	147832	keystroke	Key.backspace	n/a
74.141	0.135	148282	keystroke	m	n/a
74.291	0.0905	148582	keystroke	o	n/a
74.6365	0.135	149273	keystroke	d	n/a
74.7265	0.15	149453	keystroke	a	n/a
74.8165	0.1045	149633	keystroke	t	n/a
74.8905	0.136	149781	keystroke	e	n/a
75.0115	0.06	150023	keystroke	Key.enter	n/a
75.078	9.0105	150156	prompt	n/a	worldcat should've binary bases\n
75.7765	0.12	151553	keystroke	w	n/a
75.8965	0.105	151793	keystroke	o	n/a
75.9565	0.12	151913	keystroke	r	n/a
76.2415	0.09	152483	keystroke	d	n/a
77.006	0.045	154012	keystroke	Key.backspace	n/a
77.366	0.1505	154732	keystroke	l	n/a
77.471	0.135	154942	keystroke	d	n/a
77.651	0.12	155302	keystroke	Key.space	n/a
78.011	0.0605	156022	keystroke	Key.backspace	n/a
78.132	0.104	156264	keystroke	c	n/a
78.221	0.15	156442	keystroke	a	n/a
78.341	0.09	156682	keystroke	t	n/a
78.491	0.1195	156982	keystroke	Key.space	n/a
78.6865	0.165	157373	keystroke	s	n/a
78.7905	0.105	157581	keystroke	h	n/a
78.8805	0.1205	157761	keystroke	o	n/a
79.167	0.0885	158334	keystroke	u	n/a
79.3165	0.15	158633	keystroke	l	n/a
79.4965	0.135	158993	keystroke	d	n/a
79.9015	0.1195	159803	keystroke	'	n/a
80.036	0.1205	160072	keystroke	v	n/a
80.1415	0.105	160283	keystroke	e	n/a
80.4565	0.134	160913	keystroke	Key.space	n/a
81.0715	0.149	162143	keystroke	b	n/a
81.2215	0.1495	162443	keystroke	i	n/a
81.3565	0.1645	162713	keystroke	n	n/a
81.611	0.195	163222	keystroke	a	n/a
81.791	0.135	163582	keystroke	r	n/a
82.256	0.105	164512	keystroke	y	n/a
82.511	0.1645	165022	keystroke	Key.space	n/a
82.991	0.105	165982	keystroke	b	n/a
83.0965	0.1645	166193	keystroke	a	n/a
83.186	0.151	166372	keystroke	s	n/a
83.441	0.315	166882	keystroke	e	n/a
83.726	0.165	167452	keystroke	s	n/a
84.071	0.0145	168142	keystroke	Key.enter	n/a
84.102	8.356	168204	prompt	n/a	licensed valuation acres significantly\n
84.7915	0.15	169583	keystroke	l	n/a
84.9415	0.135	169883	keystroke	i	n/a
85.0465	0.105	170093	keystroke	c	n/a
85.2865	0.105	170573	keystroke	e	n/a
85.4065	0.165	170813	keystroke	n	n/a
85.541	0.1655	171082	keystroke	s	n/a
85.691	0.15	171382	keystroke	e	n/a
85.931	0.09	171862	keystroke	Key.space	n/a
86.291	0.0905	172582	keystroke	Key.backspace	n/a
86.441	0.1655	172882	keystroke	d	n/a
86.621	0.105	173242	keystroke	Key.space	n/a
87.041	0.12	174082	keystroke	v	n/a
87.1465	0.18	174293	keystroke	a	n/a
87.3115	0.1645	174623	keystroke	l	n/a
87.551	0.1355	175102	keystroke	u	n/a
87.881	0.165	175762	keystroke	a	n/a
88.031	0.105	176062	keystroke	t	n/a
88.1065	0.119	176213	keystroke	i	n/a
88.197	0.0885	176394	keystroke	o	n/a
88.2715	0.135	176543	keystroke	n	n/a
88.5415	0.135	177083	keystroke	Key.space	n/a
88.9015	0.1355	177803	keystroke	a	n/a
89.0815	0.1355	178163	keystroke	c	n/a
89.3065	0.149	178613	keystroke	r	n/a
89.4115	0.1645	178823	keystroke	e	n/a
89.4865	0.15	178973	keystroke	s	n/a
89.6805	0.15	179361	keystroke	Key.space	n/a
89.891	0.1345	179782	keystroke	s	n/a
90.0105	0.15	180021	keystroke	i	n/a
90.1305	0.121	180261	keystroke	g	n/a
90.327	0.1795	180654	keystroke	n	n/a
90.777	0.1635	181554	keystroke	i	n/a
91.0615	0.1355	182123	keystroke	f	n/a
91.2115	0.18	182423	keystroke	i	n/a
91.4815	0.12	182963	keystroke	c	n/a
91.6165	0.165	183233	keystroke	a	n/a
91.7665	0.135	183533	keystroke	n	n/a
91.8865	0.105	183773	keystroke	t	n/a
91.9765	0.135	183953	keystroke	l	n/a
92.1715	0.075	184343	keystroke	y	n/a
92.411	0.045	184822	keystroke	Key.enter	n/a
92.463	6.34	184926	prompt	n/a	chair movies reporter excessive\n
93.101	0.12	186202	keystroke	c	n/a
93.191	0.105	186382	keystroke	h	n/a
93.251	0.1505	186502	keystroke	a	n/a
93.371	0.15	186742	keystroke	i	n/a
93.491	0.1055	186982	keystroke	r	n/a
93.506	0.03	187012	keystroke	d	n/a
93.6565	0.0895	187313	keystroke	Key.space	n/a
93.701	0.12	187402	keystroke	m	n/a
93.836	0.105	187672	keystroke	o	n/a
93.926	0.1655	187852	keystroke	v	n/a
94.106	0.1205	188212	keystroke	i	n/a
94.196	0.18	188392	keystroke	e	n/a
94.286	0.165	188572	keystroke	s	n/a
94.436	0.12	188872	keystroke	Key.space	n/a
94.9005	0.1205	189801	keystroke	r	n/a
94.976	0.1355	189952	keystroke	e	n/a
95.112	0.0745	190224	keystroke	p	n/a
95.2615	0.135	190523	keystroke	o	n/a
95.3515	0.15	190703	keystroke	r	n/a
95.5165	0.1045	191033	keystroke	d	n/a
95.951	0.0755	191902	keystroke	Key.backspace	n/a
96.0565	0.075	192113	keystroke	t	n/a
96.176	0.1505	192352	keystroke	e	n/a
96.266	0.1055	192532	keystroke	r	n/a
96.4765	0.1345	192953	keystroke	Key.space	n/a
96.6865	0.1045	193373	keystroke	e	n/a
96.971	0.135	193942	keystroke	x	n/a
97.406	0.1055	194812	keystroke	c	n/a
97.8265	0.1645	195653	keystroke	e	n/a
97.9605	0.12	195921	keystroke	s	n/a
98.1855	0.195	196371	keystroke	s	n/a
98.3655	0.151	196731	keystroke	i	n/a
98.471	0.1055	196942	keystroke	v	n/a
98.5615	0.135	197123	keystroke	e	n/a
98.711	0.0905	197422	keystroke	Key.enter	n/a
98.808	7.4355	197616	prompt	n/a	volvo configuration nick uniform\n
99.5215	0.105	199043	keystroke	v	n/a
99.6115	0.0895	199223	keystroke	o	n/a
99.821	0.166	199642	keystroke	l	n/a
99.942	0.1345	199884	keystroke	v	n/a
100.2115	0.105	200423	keystroke	o	n/a
100.391	0.18	200782	keystroke	Key.space	n/a
100.632	0.104	201264	keystroke	c	n/a
100.676	0.105	201352	keystroke	o	n/a
100.8715	0.165	201743	keystroke	n	n/a
101.021	0.18	202042	keystroke	f	n/a
101.1865	0.1195	202373	keystroke	i	n/a
101.786	0.105	203572	keystroke	g	n/a
101.8765	0.135	203753	keystroke	u	n/a
102.2965	0.105	204593	keystroke	r	n/a
103.6765	0.135	207353	keystroke	a	n/a
103.7965	0.1045	207593	keystroke	t	n/a
103.856	0.1055	207712	keystroke	i	n/a
103.9465	0.1045	207893	keystroke	o	n/a
104.021	0.12	208042	keystroke	n	n/a
104.201	0.18	208402	keystroke	Key.space	n/a
104.366	0.1055	208732	keystroke	n	n/a
104.472	0.1495	208944	keystroke	i	n/a
104.5915	0.105	209183	keystroke	c	n/a
104.7415	0.12	209483	keystroke	k	n/a
104.9065	0.12	209813	keystroke	Key.space	n/a
105.1165	0.075	210233	keystroke	u	n/a
105.3115	0.105	210623	keystroke	n	n/a
105.4315	0.12	210863	keystroke	i	n/a
105.6565	0.15	211313	keystroke	f	n/a
105.7915	0.12	211583	keystroke	o	n/a
105.8965	0.105	211793	keystroke	r	n/a
105.9565	0.105	211913	keystroke	m	n/a
106.1665	0.075	212333	keystroke	Key.enter	n/a
106.247	3.956	212494	prompt	n/a	boss tomorrow builds over\n
106.916	0.091	213832	keystroke	b	n/a
106.9915	0.1495	213983	keystroke	o	n/a
107.1265	0.0755	214253	keystroke	s	n/a
107.336	0.105	214672	keystroke	s	n/a
107.4265	0.1345	214853	keystroke	Key.space	n/a
107.577	0.09	215154	keystroke	t	n/a
107.622	0.1045	215244	keystroke	o	n/a
107.741	0.1355	215482	keystroke	m	n/a
107.861	0.12	215722	keystroke	o	n/a
107.951	0.0755	215902	keystroke	r	n/a
108.101	0.135	216202	keystroke	r	n/a
108.2515	0.1195	216503	keystroke	o	n/a
108.416	0.1205	216832	keystroke	w	n/a
108.5505	0.12	217101	keystroke	Key.space	n/a
108.686	0.135	217372	keystroke	b	n/a
108.8065	0.0755	217613	keystroke	u	n/a
108.851	0.135	217702	keystroke	i	n/a
108.971	0.151	217942	keystroke	l	n/a
109.046	0.255	218092	keystroke	d	n/a
109.181	0.166	218362	keystroke	s	n/a
109.3765	0.1195	218753	keystroke	Key.space	n/a
109.526	0.15	219052	keystroke	o	n/a
109.766	0.0755	219532	keystroke	v	n/a
109.931	0.1055	219862	keystroke	e	n/a
109.9765	0.09	219953	keystroke	r	n/a
110.1265	0.075	220253	keystroke	Key.enter	n/a
110.2075	6.5655	220415	prompt	n/a	yemen celebration sweet recordings\n
110.9515	0.09	221903	keystroke	y	n/a
111.0855	0.1205	222171	keystroke	e	n/a
111.2655	0.1505	222531	keystroke	m	n/a
111.476	0.165	222952	keystroke	e	n/a
111.657	0.119	223314	keystroke	n	n/a
111.8815	0.135	223763	keystroke	Key.space	n/a
112.0015	0.09	224003	keystroke	c	n/a
112.2415	0.09	224483	keystroke	e	n/a
112.4065	0.165	224813	keystroke	l	n/a
112.5715	0.165	225143	keystroke	e	n/a
112.9015	0.09	225803	keystroke	b	n/a
113.1265	0.105	226253	keystroke	r	n/a
113.246	0.1505	226492	keystroke	a	n/a
113.366	0.105	226732	keystroke	t	n/a
113.5315	0.12	227063	keystroke	i	n/a
113.621	0.09	227242	keystroke	o	n/a
113.6805	0.1355	227361	keystroke	n	n/a
113.8755	0.15	227751	keystroke	Key.space	n/a
113.9815	0.1355	227963	keystroke	s	n/a
114.251	0.12	228502	keystroke	w	n/a
114.3415	0.089	228683	keystroke	e	n/a
114.5055	0.121	229011	keystroke	e	n/a
114.7015	0.09	229403	keystroke	t	n/a
114.8665	0.119	229733	keystroke	Key.space	n/a
115.1055	0.1205	230211	keystroke	r	n/a
115.1805	0.106	230361	keystroke	e	n/a
115.4215	0.105	230843	keystroke	c	n/a
115.5415	0.104	231083	keystroke	o	n/a
115.6765	0.1195	231353	keystroke	r	n/a
115.797	0.195	231594	keystroke	d	n/a
116.291	0.1355	232582	keystroke	i	n/a
116.411	0.1495	232822	keystroke	n	n/a
116.486	0.135	232972	keystroke	g	n/a
116.5765	0.1645	233153	keystroke	s	n/a
116.681	0.09	233362	keystroke	Key.enter	n/a
116.7785	4.9595	233557	prompt	n/a	potter valid imaging explaining\n
117.476	0.09	234952	keystroke	p	n/a
117.6565	0.1045	235313	keystroke	o	n/a
117.776	0.0455	235552	keystroke	t	n/a
117.926	0.0755	235852	keystroke	t	n/a
118.061	0.151	236122	keystroke	e	n/a
118.136	0.091	236272	keystroke	r	n/a
118.2705	0.151	236541	keystroke	Key.space	n/a
118.4505	0.0755	236901	keystroke	v	n/a
118.541	0.165	237082	keystroke	a	n/a
118.646	0.2255	237292	keystroke	l	n/a
118.797	0.1195	237594	keystroke	i	n/a
118.8865	0.12	237773	keystroke	d	n/a
119.066	0.135	238132	keystroke	Key.space	n/a
119.2165	0.135	238433	keystroke	i	n/a
119.3365	0.165	238673	keystroke	m	n/a
119.4415	0.1345	238883	keystroke	a	n/a
119.591	0.105	239182	keystroke	g	n/a
119.6815	0.1345	239363	keystroke	i	n/a
119.801	0.165	239602	keystroke	n	n/a
119.936	0.1205	239872	keystroke	g	n/a
120.1015	0.1045	240203	keystroke	Key.space	n/a
120.461	0.1055	240922	keystroke	e	n/a
120.6855	0.09	241371	keystroke	x	n/a
120.746	0.1195	241492	keystroke	p	n/a
120.8815	0.1645	241763	keystroke	l	n/a
120.9705	0.166	241941	keystroke	a	n/a
121.0915	0.135	242183	keystroke	i	n/a
121.2115	0.105	242423	keystroke	n	n/a
121.347	0.1195	242694	keystroke	i	n/a
121.4515	0.12	242903	keystroke	n	n/a
121.5265	0.0905	243053	keystroke	g	n/a
121.6615	0.075	243323	keystroke	Key.enter	n/a
121.745	9.6255	243490	prompt	n/a	applicants architectural telecharger tuesday\n
122.441	0.18	244882	keystroke	a	n/a
122.5915	0.1045	245183	keystroke	p	n/a
122.7715	0.0745	245543	keystroke	p	n/a
122.8615	0.1945	245723	keystroke	l	n/a
122.996	0.1505	245992	keystroke	i	n/a
123.2065	0.1195	246413	keystroke	c	n/a
123.341	0.1655	246682	keystroke	a	n/a
123.4615	0.105	246923	keystroke	t	n/a
123.9265	0.06	247853	keystroke	Key.backspace	n/a
124.0915	0.165	248183	keystroke	n	n/a
124.1665	0.15	248333	keystroke	t	n/a
124.287	0.1645	248574	keystroke	s	n/a
124.4665	0.12	248933	keystroke	Key.space	n/a
124.9465	0.09	249893	keystroke	a	n/a
125.426	0.135	250852	keystroke	r	n/a
125.6815	0.105	251363	keystroke	c	n/a
125.801	0.12	251602	keystroke	h	n/a
125.9065	0.135	251813	keystroke	i	n/a
126.191	0.18	252382	keystroke	t	n/a
126.3865	0.06	252773	keystroke	e	n/a
126.6705	0.0305	253341	keystroke	c	n/a
126.7605	0.136	253521	keystroke	t	n/a
126.8815	0.1195	253763	keystroke	u	n/a
126.9865	0.12	253973	keystroke	r	n/a
127.1965	0.1495	254393	keystroke	a	n/a
127.3015	0.1495	254603	keystroke	l	n/a
127.4655	0.151	254931	keystroke	Key.space	n/a
127.7515	0.15	255503	keystroke	t	n/a
127.871	0.1055	255742	keystroke	e	n/a
127.946	0.135	255892	keystroke	l	n/a
128.066	0.1205	256132	keystroke	e	n/a
128.336	0.075	256672	keystroke	b	n/a
128.756	0.0605	257512	keystroke	Key.backspace	n/a
128.861	0.1505	257722	keystroke	c	n/a
128.9965	0.105	257993	keystroke	h	n/a
129.0265	0.15	258053	keystroke	a	n/a
129.1315	0.135	258263	keystroke	r	n/a
129.4915	0.075	258983	keystroke	g	n/a
129.626	0.15	259252	keystroke	e	n/a
129.686	0.1055	259372	keystroke	r	n/a
129.8655	0.1505	259731	keystroke	Key.space	n/a
130.001	0.09	260002	keystroke	t	n/a
130.0765	0.105	260153	keystroke	u	n/a
130.346	0.1655	260692	keystroke	e	n/a
130.7365	0.1195	261473	keystroke	s	n/a
130.916	0.181	261832	keystroke	d	n/a
131.052	0.1645	262104	keystroke	a	n/a
131.112	0.0595	262224	keystroke	y	n/a
131.3065	0.0595	262613	keystroke	Key.enter	n/a
131.374	4.674	262748	prompt	n/a	dogs cancel preparing dollars\n
131.981	0.36	263962	keystroke	d	n/a
132.071	0.1355	264142	keystroke	o	n/a
132.1915	0.135	264383	keystroke	g	n/a
132.281	0.165	264562	keystroke	s	n/a
132.461	0.135	264922	keystroke	Key.space	n/a
132.5815	0.1195	265163	keystroke	c	n/a
132.7605	0.1955	265521	keystroke	a	n/a
132.927	0.149	265854	keystroke	n	n/a
133.0315	0.1045	266063	keystroke	c	n/a
133.271	0.12	266542	keystroke	e	n/a
133.376	0.18	266752	keystroke	l	n/a
133.5415	0.09	267083	keystroke	Key.space	n/a
133.676	0.106	267352	keystroke	p	n/a
133.766	0.1205	267532	keystroke	r	n/a
133.871	0.135	267742	keystroke	e	n/a
134.0815	0.1045	268163	keystroke	p	n/a
134.216	0.1655	268432	keystroke	a	n/a
134.336	0.1055	268672	keystroke	r	n/a
134.6215	0.1205	269243	keystroke	i	n/a
134.742	0.1495	269484	keystroke	n	n/a
134.801	0.12	269602	keystroke	g	n/a
134.966	0.135	269932	keystroke	Key.space	n/a
135.057	0.1195	270114	keystroke	d	n/a
135.1915	0.0595	270383	keystroke	o	n/a
135.4015	0.0745	270803	keystroke	l	n/a
135.5665	0.0895	271133	keystroke	l	n/a
135.6255	0.121	271251	keystroke	a	n/a
135.7165	0.1795	271433	keystroke	r	n/a
135.852	0.149	271704	keystroke	s	n/a
135.971	0.075	271942	keystroke	Key.enter	n/a
136.053	6.04	272106	prompt	n/a	israeli smell response clouds\n
136.6765	0.15	273353	keystroke	i	n/a
136.8115	0.1795	273623	keystroke	s	n/a
137.021	0.151	274042	keystroke	r	n/a
137.1565	0.1645	274313	keystroke	a	n/a
138.4615	0.1505	276923	keystroke	e	n/a
138.7165	0.1645	277433	keystroke	l	n/a
138.836	0.1355	277672	keystroke	i	n/a
139.076	0.15	278152	keystroke	Key.space	n/a
139.287	0.165	278574	keystroke	s	n/a
139.406	0.135	278812	keystroke	m	n/a
139.512	0.104	279024	keystroke	e	n/a
139.631	0.0905	279262	keystroke	l	n/a
139.8115	0.1345	279623	keystroke	l	n/a
139.916	0.1355	279832	keystroke	Key.space	n/a
140.096	0.15	280192	keystroke	r	n/a
140.186	0.1655	280372	keystroke	e	n/a
140.2765	0.165	280553	keystroke	s	n/a
140.3665	0.1055	280733	keystroke	p	n/a
140.547	0.1045	281094	keystroke	o	n/a
140.6365	0.18	281273	keystroke	n	n/a
140.756	0.195	281512	keystroke	s	n/a
140.9365	0.1355	281873	keystroke	e	n/a
141.101	0.165	282202	keystroke	Key.space	n/a
141.236	0.1055	282472	keystroke	c	n/a
141.3715	0.0895	282743	keystroke	l	n/a
141.566	0.165	283132	keystroke	o	n/a
141.686	0.105	283372	keystroke	u	n/a
141.7615	0.18	283523	keystroke	d	n/a
141.881	0.1505	283762	keystroke	s	n/a
142.0165	0.074	284033	keystroke	Key.enter	n/a
142.098	5.32	284196	prompt	n/a	radius learn despite movie\n
142.8115	0.12	285623	keystroke	r	n/a
142.9165	0.21	285833	keystroke	a	n/a
143.2315	0.15	286463	keystroke	d	n/a
143.4565	0.12	286913	keystroke	i	n/a
143.6665	0.135	287333	keystroke	u	n/a
143.7865	0.18	287573	keystroke	s	n/a
143.9515	0.135	287903	keystroke	Key.space	n/a
144.1615	0.15	288323	keystroke	l	n/a
144.2215	0.2095	288443	keystroke	e	n/a
144.3115	0.18	288623	keystroke	a	n/a
144.4465	0.1195	288893	keystroke	r	n/a
144.821	0.1355	289642	keystroke	n	n/a
145.076	0.135	290152	keystroke	Key.space	n/a
145.316	0.09	290632	keystroke	d	n/a
145.511	0.1505	291022	keystroke	e	n/a
145.5865	0.165	291173	keystroke	s	n/a
145.6915	0.105	291383	keystroke	p	n/a
145.9465	0.1645	291893	keystroke	i	n/a
146.081	0.1205	292162	keystroke	t	n/a
146.1565	0.1495	292313	keystroke	e	n/a
146.381	0.1505	292762	keystroke	Key.space	n/a
146.622	0.134	293244	keystroke	m	n/a
146.771	0.09	293542	keystroke	o	n/a
146.846	0.1355	293692	keystroke	v	n/a
146.9965	0.15	293993	keystroke	i	n/a
147.0865	0.15	294173	keystroke	e	n/a
147.3115	0.105	294623	keystroke	Key.enter	n/a
147.423	4.8695	294846	prompt	n/a	recordings saying parcel oven\n
148.3915	0.105	296783	keystroke	r	n/a
148.452	0.104	296904	keystroke	e	n/a
148.7065	0.105	297413	keystroke	c	n/a
148.8415	0.135	297683	keystroke	o	n/a
149.0065	0.15	298013	keystroke	r	n/a
149.1415	0.1495	298283	keystroke	d	n/a
149.4415	0.0895	298883	keystroke	i	n/a
149.546	0.1655	299092	keystroke	n	n/a
149.5915	0.1345	299183	keystroke	g	n/a
149.696	0.1205	299392	keystroke	s	n/a
149.801	0.15	299602	keystroke	Key.space	n/a
149.921	0.165	299842	keystroke	s	n/a
149.9965	0.1945	299993	keystroke	a	n/a
150.101	0.1205	300202	keystroke	y	n/a
150.2215	0.1345	300443	keystroke	i	n/a
150.3415	0.1345	300683	keystroke	n	n/a
150.447	0.0735	300894	keystroke	g	n/a
150.5655	0.1355	301131	keystroke	Key.space	n/a
150.716	0.1505	301432	keystroke	p	n/a
150.837	0.1795	301674	keystroke	a	n/a
150.9415	0.105	301883	keystroke	r	n/a
151.2265	0.0595	302453	keystroke	c	n/a
151.4065	0.105	302813	keystroke	e	n/a
151.4805	0.165	302961	keystroke	l	n/a
151.6605	0.15	303321	keystroke	Key.space	n/a
151.7965	0.15	303593	keystroke	o	n/a
151.8565	0.12	303713	keystroke	v	n/a
151.9615	0.135	303923	keystroke	e	n/a
152.0515	0.09	304103	keystroke	n	n/a
152.2315	0.06	304463	keystroke	Key.enter	n/a
152.297	5.096	304594	prompt	n/a	wins replies wooden beliefs\n
153.0415	0.0895	306083	keystroke	w	n/a
153.101	0.105	306202	keystroke	i	n/a
153.191	0.1505	306382	keystroke	n	n/a
153.266	0.135	306532	keystroke	s	n/a
153.431	0.15	306862	keystroke	Key.space	n/a
153.6415	0.1345	307283	keystroke	r	n/a
153.716	0.165	307432	keystroke	e	n/a
153.866	0.076	307732	keystroke	p	n/a
154.0765	0.1495	308153	keystroke	l	n/a
154.151	0.1355	308302	keystroke	i	n/a
154.241	0.12	308482	keystroke	e	n/a
154.3015	0.15	308603	keystroke	s	n/a
154.406	0.165	308812	keystroke	Key.space	n/a
154.736	0.135	309472	keystroke	w	n/a
154.856	0.075	309712	keystroke	o	n/a
155.0365	0.1045	310073	keystroke	o	n/a
155.1115	0.135	310223	keystroke	d	n/a
155.4865	0.149	310973	keystroke	e	n/a
155.591	0.1355	311182	keystroke	n	n/a
155.8155	0.18	311631	keystroke	Key.space	n/a
156.0115	0.089	312023	keystroke	b	n/a
156.2205	0.106	312441	keystroke	e	n/a
156.4755	0.212	312951	keystroke	l	n/a
156.6115	0.165	313223	keystroke	i	n/a
156.7165	0.1805	313433	keystroke	e	n/a
156.8665	0.225	313733	keystroke	f	n/a
157.1065	0.165	314213	keystroke	s	n/a
157.2565	0.135	314513	keystroke	Key.enter	n/a
157.395	4.993	314790	prompt	n/a	entities genesis adults kind\n
158.1415	0.09	316283	keystroke	e	n/a
158.2915	0.195	316583	keystroke	n	n/a
158.4715	0.0745	316943	keystroke	t	n/a
158.606	0.105	317212	keystroke	i	n/a
158.726	0.1355	317452	keystroke	t	n/a
158.846	0.1955	317692	keystroke	i	n/a
158.9665	0.2695	317933	keystroke	e	n/a
159.101	0.1955	318202	keystroke	s	n/a
159.266	0.15	318532	keystroke	Key.space	n/a
159.611	0.105	319222	keystroke	g	n/a
159.731	0.15	319462	keystroke	e	n/a
159.851	0.18	319702	keystroke	n	n/a
160.0465	0.135	320093	keystroke	e	n/a
160.481	0.075	320962	keystroke	s	n/a
160.571	0.136	321142	keystroke	i	n/a
160.6915	0.12	321383	keystroke	s	n/a
160.8405	0.1505	321681	keystroke	Key.space	n/a
161.066	0.1505	322132	keystroke	a	n/a
161.1705	0.1505	322341	keystroke	d	n/a
161.2905	0.09	322581	keystroke	u	n/a
161.4105	0.165	322821	keystroke	l	n/a
161.4705	0.121	322941	keystroke	t	n/a
161.5615	0.165	323123	keystroke	s	n/a
161.7115	0.12	323423	keystroke	Key.space	n/a
161.8165	0.105	323633	keystroke	k	n/a
161.996	0.075	323992	keystroke	i	n/a
162.086	0.1355	324172	keystroke	n	n/a
162.146	0.1655	324292	keystroke	d	n/a
162.296	0.09	324592	keystroke	Key.enter	n/a
162.3915	5.6365	324783	prompt	n/a	barnes mustang bugs integral\n
163.1505	0.121	326301	keystroke	b	n/a
163.3165	0.1205	326633	keystroke	a	n/a
163.4055	0.091	326811	keystroke	r	n/a
164.1865	0.165	328373	keystroke	n	n/a
164.3065	0.2245	328613	keystroke	e	n/a
164.441	0.18	328882	keystroke	s	n/a
164.591	0.1505	329182	keystroke	Key.space	n/a
164.847	0.0895	329694	keystroke	m	n/a
165.026	0.1055	330052	keystroke	u	n/a
165.116	0.1205	330232	keystroke	s	n/a
165.2065	0.1495	330413	keystroke	t	n/a
165.4165	0.1805	330833	keystroke	a	n/a
165.536	0.165	331072	keystroke	n	n/a
165.686	0.09	331372	keystroke	g	n/a
165.8065	0.149	331613	keystroke	Key.space	n/a
165.957	0.0895	331914	keystroke	b	n/a
166.061	0.15	332122	keystroke	u	n/a
166.196	0.135	332392	keystroke	g	n/a
166.2865	0.1645	332573	keystroke	s	n/a
166.4965	0.1195	332993	keystroke	Key.space	n/a
166.706	0.105	333412	keystroke	i	n/a
166.871	0.2405	333742	keystroke	n	n/a
167.037	0.164	334074	keystroke	t	n/a
167.1565	0.12	334313	keystroke	e	n/a
167.427	0.0595	334854	keystroke	g	n/a
167.606	0.105	335212	keystroke	r	n/a
167.6815	0.18	335363	keystroke	a	n/a
167.756	0.1355	335512	keystroke	l	n/a
167.951	0.075	335902	keystroke	Key.enter	n/a
168.0315	4.242	336063	prompt	n/a	contains daniel doom income\n
168.687	0.1045	337374	keystroke	c	n/a
168.761	0.1055	337522	keystroke	o	n/a
168.8815	0.1345	337763	keystroke	n	n/a
169.0465	0.105	338093	keystroke	t	n/a
169.136	0.15	338272	keystroke	a	n/a
169.2565	0.0895	338513	keystroke	i	n/a
169.331	0.165	338662	keystroke	n	n/a
169.4365	0.1495	338873	keystroke	s	n/a
169.586	0.165	339172	keystroke	Key.space	n/a
169.766	0.181	339532	keystroke	d	n/a
169.931	0.1355	339862	keystroke	a	n/a
170.021	0.1205	340042	keystroke	n	n/a
170.2465	0.1495	340493	keystroke	i	n/a
170.351	0.15	340702	keystroke	e	n/a
170.5165	0.15	341033	keystroke	l	n/a
170.681	0.135	341362	keystroke	Key.space	n/a
170.7565	0.2095	341513	keystroke	d	n/a
170.8765	0.0905	341753	keystroke	o	n/a
171.057	0.09	342114	keystroke	o	n/a
171.1615	0.15	342323	keystroke	m	n/a
171.3265	0.135	342653	keystroke	Key.space	n/a
171.5815	0.12	343163	keystroke	i	n/a
171.7025	0.119	343405	keystroke	n	n/a
171.7765	0.105	343553	keystroke	c	n/a
171.8965	0.105	343793	keystroke	o	n/a
171.9865	0.135	343973	keystroke	m	n/a
172.0465	0.12	344093	keystroke	e	n/a
172.1965	0.075	344393	keystroke	Key.enter	n/a
172.2775	7.8855	344555	prompt	n/a	point creation circles transcription\n
172.9765	0.075	345953	keystroke	p	n/a
173.1565	0.15	346313	keystroke	o	n/a
173.2465	0.09	346493	keystroke	i	n/a
173.3215	0.1655	346643	keystroke	n	n/a
173.4115	0.1195	346823	keystroke	t	n/a
173.6065	0.1345	347213	keystroke	Key.space	n/a
173.907	0.089	347814	keystroke	c	n/a
174.0555	0.1505	348111	keystroke	r	n/a
174.161	0.105	348322	keystroke	e	n/a
174.2505	0.1355	348501	keystroke	a	n/a
174.401	0.105	348802	keystroke	t	n/a
174.566	0.1805	349132	keystroke	i	n/a
174.716	0.1355	349432	keystroke	o	n/a
174.911	0.166	349822	keystroke	n	n/a
175.196	0.135	350392	keystroke	Key.space	n/a
175.346	0.136	350692	keystroke	c	n/a
175.4515	0.149	350903	keystroke	i	n/a
175.5565	0.105	351113	keystroke	r	n/a
175.7965	0.105	351593	keystroke	c	n/a
175.9315	0.1645	351863	keystroke	l	n/a
176.066	0.1655	352132	keystroke	e	n/a
176.246	0.135	352492	keystroke	Key.space	n/a
176.652	0.0445	353304	keystroke	Key.backspace	n/a
176.7715	0.165	353543	keystroke	s	n/a
176.9215	0.1505	353843	keystroke	Key.space	n/a
177.4615	0.09	354923	keystroke	t	n/a
177.6715	0.105	355343	keystroke	r	n/a
177.7615	0.165	355523	keystroke	a	n/a
177.9115	0.1495	355823	keystroke	n	n/a
178.0315	0.1195	356063	keystroke	s	n/a
178.391	0.091	356782	keystroke	c	n/a
179.216	0.121	358432	keystroke	r	n/a
179.3215	0.135	358643	keystroke	i	n/a
179.4415	0.12	358883	keystroke	p	n/a
179.5905	0.106	359181	keystroke	t	n/a
179.7105	0.136	359421	keystroke	i	n/a
179.8315	0.075	359663	keystroke	o	n/a
179.8915	0.089	359783	keystroke	n	n/a
180.0865	0.0745	360173	keystroke	Key.enter	n/a
180.169	5.0795	360338	prompt	n/a	seven leader biggest princeton\n
180.7465	0.18	361493	keystroke	s	n/a
180.8965	0.12	361793	keystroke	e	n/a
181.062	0.09	362124	keystroke	v	n/a
181.137	0.134	362274	keystroke	e	n/a
181.242	0.104	362484	keystroke	n	n/a
181.466	0.15	362932	keystroke	Key.space	n/a
181.6615	0.1655	363323	keystroke	l	n/a
181.751	0.151	363502	keystroke	e	n/a
181.872	0.15	363744	keystroke	a	n/a
181.992	0.119	363984	keystroke	d	n/a
182.186	0.15	364372	keystroke	e	n/a
182.2615	0.09	364523	keystroke	r	n/a
182.396	0.165	364792	keystroke	Key.space	n/a
182.5315	0.1045	365063	keystroke	b	n/a
182.6515	0.1495	365303	keystroke	i	n/a
182.786	0.075	365572	keystroke	g	n/a
182.9665	0.0745	365933	keystroke	g	n/a
183.0715	0.165	366143	keystroke	e	n/a
183.161	0.15	366322	keystroke	s	n/a
183.2815	0.1195	366563	keystroke	t	n/a
183.446	0.121	366892	keystroke	Key.space	n/a
183.7165	0.075	367433	keystroke	p	n/a
183.8955	0.076	367791	keystroke	r	n/a
184.0465	0.12	368093	keystroke	i	n/a
184.1815	0.165	368363	keystroke	n	n/a
184.3005	0.091	368601	keystroke	c	n/a
184.5115	0.12	369023	keystroke	e	n/a
184.7665	0.0905	369533	keystroke	t	n/a
184.841	0.1205	369682	keystroke	o	n/a
184.976	0.106	369952	keystroke	n	n/a
185.1715	0.075	370343	keystroke	Key.enter	n/a
185.2525	7.2705	370505	prompt	n/a	harris screening vegetables transparency\n
185.9665	0.1205	371933	keystroke	h	n/a
186.056	0.151	372112	keystroke	a	n/a
186.177	0.089	372354	keystroke	r	n/a
186.3565	0.12	372713	keystroke	r	n/a
186.4915	0.135	372983	keystroke	i	n/a
186.5815	0.12	373163	keystroke	s	n/a
186.731	0.1205	373462	keystroke	Key.space	n/a
186.8365	0.134	373673	keystroke	s	n/a
187.0465	0.1055	374093	keystroke	c	n/a
187.196	0.1655	374392	keystroke	r	n/a
187.331	0.09	374662	keystroke	e	n/a
187.4965	0.12	374993	keystroke	e	n/a
187.676	0.135	375352	keystroke	n	n/a
187.887	0.134	375774	keystroke	i	n/a
188.006	0.1355	376012	keystroke	n	n/a
188.066	0.12	376132	keystroke	g	n/a
188.2915	0.105	376583	keystroke	Key.space	n/a
188.426	0.1195	376852	keystroke	v	n/a
188.561	0.1205	377122	keystroke	e	n/a
188.8315	0.165	377663	keystroke	g	n/a
188.9815	0.1045	377963	keystroke	e	n/a
189.2955	0.0755	378591	keystroke	t	n/a
189.4165	0.135	378833	keystroke	a	n/a
189.5665	0.105	379133	keystroke	b	n/a
189.7315	0.15	379463	keystroke	l	n/a
189.7615	0.195	379523	keystroke	e	n/a
189.8665	0.15	379733	keystroke	s	n/a
190.0315	0.165	380063	keystroke	Key.space	n/a
190.3615	0.075	380723	keystroke	t	n/a
190.5555	0.1055	381111	keystroke	r	n/a
190.6455	0.1805	381291	keystroke	a	n/a
190.8115	0.1345	381623	keystroke	n	n/a
190.917	0.104	381834	keystroke	s	n/a
191.111	0.1055	382222	keystroke	p	n/a
191.217	0.1795	382434	keystroke	a	n/a
191.411	0.1655	382822	keystroke	r	n/a
191.6815	0.1345	383363	keystroke	e	n/a
191.876	0.15	383752	keystroke	n	n/a
191.996	0.105	383992	keystroke	c	n/a
192.206	0.075	384412	keystroke	y	n/a
192.461	0.0605	384922	keystroke	Key.enter	n/a
192.528	5.245	385056	prompt	n/a	eden mothers courier yarn\n
193.437	0.119	386874	keystroke	e	n/a
193.6615	0.1045	387323	keystroke	d	n/a
193.8715	0.135	387743	keystroke	e	n/a
193.9765	0.135	387953	keystroke	n	n/a
194.2165	0.12	388433	keystroke	Key.space	n/a
194.3665	0.105	388733	keystroke	m	n/a
194.486	0.12	388972	keystroke	o	n/a
194.5915	0.0905	389183	keystroke	t	n/a
194.636	0.1505	389272	keystroke	h	n/a
194.711	0.24	389422	keystroke	e	n/a
194.802	0.1045	389604	keystroke	r	n/a
194.8765	0.15	389753	keystroke	s	n/a
195.027	0.1345	390054	keystroke	Key.space	n/a
195.266	0.1055	390532	keystroke	o	n/a
195.626	0.0605	391252	keystroke	Key.backspace	n/a
195.837	0.1345	391674	keystroke	c	n/a
195.941	0.1355	391882	keystroke	o	n/a
196.0305	0.151	392061	keystroke	u	n/a
196.1215	0.12	392243	keystroke	r	n/a
196.3615	0.1645	392723	keystroke	i	n/a
196.541	0.2105	393082	keystroke	e	n/a
196.646	0.1505	393292	keystroke	r	n/a
196.8415	0.135	393683	keystroke	Key.space	n/a
197.1265	0.105	394253	keystroke	y	n/a
197.187	0.254	394374	keystroke	a	n/a
197.2615	0.135	394523	keystroke	r	n/a
197.4265	0.12	394853	keystroke	n	n/a
197.6515	0.119	395303	keystroke	Key.enter	n/a
197.777	7.061	395554	prompt	n/a	vessel apollo statistics begin\n
198.521	0.121	397042	keystroke	v	n/a
198.612	0.1495	397224	keystroke	e	n/a
198.8965	0.1345	397793	keystroke	s	n/a
199.151	0.135	398302	keystroke	s	n/a
199.3315	0.1495	398663	keystroke	e	n/a
199.466	0.15	398932	keystroke	l	n/a
199.646	0.105	399292	keystroke	Key.space	n/a
199.7365	0.21	399473	keystroke	a	n/a
199.856	0.1045	399712	keystroke	p	n/a
200.0805	0.1355	400161	keystroke	o	n/a
200.3815	0.075	400763	keystroke	l	n/a
200.5465	0.09	401093	keystroke	l	n/a
200.6965	0.12	401393	keystroke	o	n/a
200.8465	0.165	401693	keystroke	Key.space	n/a
200.9815	0.195	401963	keystroke	s	n/a
201.1615	0.09	402323	keystroke	t	n/a
201.2665	0.1795	402533	keystroke	a	n/a
201.3865	0.09	402773	keystroke	t	n/a
201.5965	0.135	403193	keystroke	t	n/a
201.746	0.165	403492	keystroke	i	n/a
202.226	0.06	404452	keystroke	Key.backspace	n/a
202.406	0.06	404812	keystroke	Key.backspace	n/a
202.601	0.1355	405202	keystroke	i	n/a
202.7215	0.18	405443	keystroke	s	n/a
202.9165	0.09	405833	keystroke	t	n/a
203.3355	0.166	406671	keystroke	i	n/a
203.5615	0.15	407123	keystroke	c	n/a
203.6955	0.136	407391	keystroke	s	n/a
203.8165	0.1345	407633	keystroke	Key.space	n/a
203.9665	0.09	407933	keystroke	b	n/a
204.1765	0.104	408353	keystroke	e	n/a
204.3555	0.105	408711	keystroke	g	n/a
204.4615	0.0895	408923	keystroke	i	n/a
204.5355	0.1205	409071	keystroke	n	n/a
204.7465	0.0895	409493	keystroke	Key.enter	n/a
204.8505	5.132	409701	prompt	n/a	agrees responded craft ruby\n
205.4965	0.1645	410993	keystroke	a	n/a
205.6315	0.09	411263	keystroke	g	n/a
205.841	0.1655	411682	keystroke	r	n/a
205.9765	0.09	411953	keystroke	e	n/a
206.126	0.18	412252	keystroke	e	n/a
206.291	0.1505	412582	keystroke	s	n/a
206.4865	0.12	412973	keystroke	Key.space	n/a
206.876	0.15	413752	keystroke	r	n/a
206.951	0.18	413902	keystroke	e	n/a
207.041	0.18	414082	keystroke	s	n/a
207.176	0.1355	414352	keystroke	p	n/a
207.431	0.135	414862	keystroke	o	n/a
207.551	0.15	415102	keystroke	n	n/a
207.671	0.12	415342	keystroke	d	n/a
207.866	0.0905	415732	keystroke	e	n/a
208.076	0.105	416152	keystroke	d	n/a
208.211	0.165	416422	keystroke	Key.space	n/a
208.436	0.1805	416872	keystroke	c	n/a
208.6015	0.09	417203	keystroke	r	n/a
208.6765	0.15	417353	keystroke	a	n/a
208.7965	0.1045	417593	keystroke	f	n/a
209.0055	0.0905	418011	keystroke	t	n/a
209.141	0.135	418282	keystroke	Key.space	n/a
209.292	0.119	418584	keystroke	r	n/a
209.441	0.135	418882	keystroke	u	n/a
209.561	0.1045	419122	keystroke	b	n/a
209.6805	0.0905	419361	keystroke	y	n/a
209.921	0.06	419842	keystroke	Key.enter	n/a
209.988	6.655	419976	prompt	n/a	grain analysis exact opponents\n
210.7165	0.06	421433	keystroke	g	n/a
210.896	0.09	421792	keystroke	r	n/a
210.971	0.18	421942	keystroke	a	n/a
211.061	0.105	422122	keystroke	i	n/a
211.151	0.1505	422302	keystroke	n	n/a
211.3615	0.0895	422723	keystroke	Key.space	n/a
211.496	0.1355	422992	keystroke	a	n/a
211.6015	0.1495	423203	keystroke	n	n/a
211.796	0.12	423592	keystroke	a	n/a
212.021	0.1355	424042	keystroke	l	n/a
212.306	0.09	424612	keystroke	y	n/a
212.471	0.105	424942	keystroke	s	n/a
212.606	0.135	425212	keystroke	i	n/a
212.726	0.135	425452	keystroke	s	n/a
212.951	0.12	425902	keystroke	Key.space	n/a
213.326	0.105	426652	keystroke	e	n/a
213.566	0.135	427132	keystroke	x	n/a
213.7315	0.1795	427463	keystroke	a	n/a
213.9415	0.1045	427883	keystroke	c	n/a
214.106	0.1055	428212	keystroke	t	n/a
214.376	0.135	428752	keystroke	Key.space	n/a
214.6915	0.2095	429383	keystroke	o	n/a
214.8565	0.0895	429713	keystroke	p	n/a
215.0515	0.0895	430103	keystroke	p	n/a
215.2465	0.12	430493	keystroke	o	n/a
215.4265	0.135	430853	keystroke	n	n/a
215.9655	0.136	431931	keystroke	e	n/a
216.1315	0.15	432263	keystroke	n	n/a
216.2515	0.135	432503	keystroke	t	n/a
216.3415	0.1645	432683	keystroke	s	n/a
216.551	0.09	433102	keystroke	Key.enter	n/a
216.648	5.8895	433296	prompt	n/a	remains prisoners sole jaguar\n
217.2265	0.15	434453	keystroke	r	n/a
217.3315	0.12	434663	keystroke	e	n/a
217.4665	0.135	434933	keystroke	m	n/a
217.5865	0.1345	435173	keystroke	s	n/a
218.051	0.075	436102	keystroke	Key.backspace	n/a
218.261	0.195	436522	keystroke	a	n/a
218.471	0.0905	436942	keystroke	i	n/a
218.5615	0.1645	437123	keystroke	n	n/a
218.651	0.135	437302	keystroke	s	n/a
218.831	0.12	437662	keystroke	Key.space	n/a
219.0265	0.104	438053	keystroke	p	n/a
219.1465	0.09	438293	keystroke	r	n/a
219.2205	0.106	438441	keystroke	i	n/a
219.3715	0.165	438743	keystroke	s	n/a
219.5065	0.105	439013	keystroke	o	n/a
219.6265	0.105	439253	keystroke	n	n/a
220.1655	0.256	440331	keystroke	e	n/a
220.2555	0.151	440511	keystroke	r	n/a
220.3765	0.1495	440753	keystroke	s	n/a
220.541	0.1345	441082	keystroke	Key.space	n/a
220.6915	0.15	441383	keystroke	s	n/a
220.7365	0.106	441473	keystroke	o	n/a
220.9915	0.1495	441983	keystroke	l	n/a
221.0815	0.135	442163	keystroke	e	n/a
221.2005	0.15	442401	keystroke	Key.space	n/a
221.3215	0.134	442643	keystroke	j	n/a
221.4115	0.165	442823	keystroke	a	n/a
221.786	0.0755	443572	keystroke	g	n/a
222.071	0.12	444142	keystroke	u	n/a
222.221	0.15	444442	keystroke	a	n/a
222.296	0.12	444592	keystroke	r	n/a
222.461	0.0755	444922	keystroke	Key.enter	n/a
222.5415	5.4115	445083	prompt	n/a	before calculations why's summit\n
223.1665	0.0445	446333	keystroke	b	n/a
223.2555	0.121	446511	keystroke	e	n/a
223.346	0.1205	446692	keystroke	f	n/a
223.4805	0.1055	446961	keystroke	o	n/a
223.5705	0.121	447141	keystroke	r	n/a
223.6455	0.106	447291	keystroke	e	n/a
223.7665	0.134	447533	keystroke	Key.space	n/a
223.9465	0.1495	447893	keystroke	c	n/a
224.111	0.105	448222	keystroke	a	n/a
224.2015	0.18	448403	keystroke	l	n/a
224.336	0.1205	448672	keystroke	c	n/a
224.501	0.12	449002	keystroke	u	n/a
224.786	0.1205	449572	keystroke	a	n/a
225.176	0.12	450352	keystroke	Key.backspace	n/a
225.461	0.18	450922	keystroke	l	n/a
225.551	0.18	451102	keystroke	a	n/a
225.7005	0.1055	451401	keystroke	t	n/a
225.791	0.105	451582	keystroke	i	n/a
225.881	0.075	451762	keystroke	o	n/a
225.941	0.18	451882	keystroke	n	n/a
226.061	0.09	452122	keystroke	s	n/a
226.181	0.105	452362	keystroke	Key.space	n/a
226.316	0.105	452632	keystroke	w	n/a
226.361	0.03	452722	keystroke	h	n/a
226.481	0.0755	452962	keystroke	y	n/a
226.6765	0.1045	453353	keystroke	'	n/a
226.796	0.105	453592	keystroke	s	n/a
226.931	0.09	453862	keystroke	Key.space	n/a
227.036	0.21	454072	keystroke	s	n/a
227.126	0.09	454252	keystroke	u	n/a
227.4115	0.0595	454823	keystroke	m	n/a
227.5615	0.104	455123	keystroke	m	n/a
227.681	0.1045	455362	keystroke	i	n/a
227.7705	0.075	455541	keystroke	t	n/a
227.8755	0.075	455751	keystroke	Key.enter	n/a
227.9575	6.9855	455915	prompt	n/a	cheese sending karma boating\n
228.521	0.105	457042	keystroke	c	n/a
228.6405	0.12	457281	keystroke	h	n/a
228.8055	0.1055	457611	keystroke	e	n/a
229.0155	0.106	458031	keystroke	e	n/a
229.2555	0.181	458511	keystroke	s	n/a
229.3765	0.135	458753	keystroke	e	n/a
229.526	0.1195	459052	keystroke	Key.space	n/a
229.661	0.1345	459322	keystroke	s	n/a
229.8415	0.1045	459683	keystroke	n	n/a
229.8705	0.0915	459741	keystroke	e	n/a
230.5905	0.0755	461181	keystroke	Key.backspace	n/a
230.7865	0.0895	461573	keystroke	Key.backspace	n/a
230.891	0.135	461782	keystroke	e	n/a
231.041	0.105	462082	keystroke	k	n/a
231.056	0.165	462112	keystroke	n	n/a
231.176	0.18	462352	keystroke	d	n/a
231.5055	0.09	463011	keystroke	Key.backspace	n/a
231.7005	0.0755	463401	keystroke	Key.backspace	n/a
231.9105	0.075	463821	keystroke	Key.backspace	n/a
232.1655	0.151	464331	keystroke	n	n/a
232.2855	0.165	464571	keystroke	d	n/a
232.421	0.0905	464842	keystroke	i	n/a
232.526	0.135	465052	keystroke	n	n/a
232.616	0.1055	465232	keystroke	g	n/a
232.781	0.135	465562	keystroke	Key.space	n/a
232.961	0.18	465922	keystroke	k	n/a
233.096	0.1655	466192	keystroke	a	n/a
233.2165	0.105	466433	keystroke	r	n/a
233.3065	0.15	466613	keystroke	m	n/a
233.5315	0.165	467063	keystroke	a	n/a
233.741	0.1645	467482	keystroke	Key.space	n/a
234.0115	0.105	468023	keystroke	b	n/a
234.1465	0.134	468293	keystroke	o	n/a
234.2515	0.119	468503	keystroke	a	n/a
234.326	0.1205	468652	keystroke	t	n/a
234.5205	0.136	469041	keystroke	i	n/a
234.6405	0.1365	469281	keystroke	n	n/a
234.8355	0.105	469671	keystroke	Key.enter	n/a
234.948	8.905	469896	prompt	n/a	participants individually weak autumn\n
236.1265	0.104	472253	keystroke	p	n/a
236.2165	0.149	472433	keystroke	a	n/a
236.351	0.0745	472702	keystroke	r	n/a
236.531	0.1205	473062	keystroke	t	n/a
236.666	0.1345	473332	keystroke	i	n/a
236.9515	0.09	473903	keystroke	c	n/a
237.1165	0.12	474233	keystroke	i	n/a
237.4905	0.12	474981	keystroke	p	n/a
237.5805	0.1815	475161	keystroke	a	n/a
237.8965	0.165	475793	keystroke	n	n/a
237.9855	0.18	475971	keystroke	t	n/a
238.0915	0.165	476183	keystroke	s	n/a
238.241	0.1505	476482	keystroke	Key.space	n/a
238.4815	0.12	476963	keystroke	i	n/a
238.6605	0.181	477321	keystroke	n	n/a
238.9165	0.165	477833	keystroke	d	n/a
239.0515	0.134	478103	keystroke	i	n/a
239.4255	0.1205	478851	keystroke	v	n/a
239.5165	0.1195	479033	keystroke	i	n/a
239.757	0.1935	479514	keystroke	d	n/a
239.9355	0.121	479871	keystroke	u	n/a
240.0105	0.1505	480021	keystroke	a	n/a
240.1455	0.091	480291	keystroke	l	n/a
240.3405	0.12	480681	keystroke	l	n/a
240.506	0.12	481012	keystroke	y	n/a
240.7165	0.179	481433	keystroke	Key.space	n/a
240.881	0.3605	481762	keystroke	w	n/a
241.0005	0.12	482001	keystroke	a	n/a
241.1215	0.21	482243	keystroke	e	n/a
241.5405	0.075	483081	keystroke	Key.backspace	n/a
241.7065	0.089	483413	keystroke	Key.backspace	n/a
241.8715	0.179	483743	keystroke	e	n/a
241.9915	0.1795	483983	keystroke	a	n/a
242.1115	0.1795	484223	keystroke	k	n/a
242.351	0.135	484702	keystroke	Key.space	n/a
242.501	0.21	485002	keystroke	a	n/a
242.6515	0.1195	485303	keystroke	u	n/a
242.7855	0.1205	485571	keystroke	t	n/a
243.116	0.0905	486232	keystroke	u	n/a
243.3565	0.0895	486713	keystroke	m	n/a
243.581	0.0905	487162	keystroke	n	n/a
243.7765	0.074	487553	keystroke	Key.enter	n/a
243.8575	6.371	487715	prompt	n/a	uploaded recently amplifier religion\n
244.5265	0.15	489053	keystroke	u	n/a
244.6165	0.1645	489233	keystroke	p	n/a
244.766	0.12	489532	keystroke	l	n/a
244.9765	0.12	489953	keystroke	o	n/a
245.081	0.18	490162	keystroke	a	n/a
245.2765	0.075	490553	keystroke	d	n/a
245.4715	0.0745	490943	keystroke	e	n/a
245.666	0.09	491332	keystroke	d	n/a
245.771	0.15	491542	keystroke	Key.space	n/a
245.936	0.12	491872	keystroke	r	n/a
246.026	0.075	492052	keystroke	e	n/a
246.236	0.105	492472	keystroke	c	n/a
246.4465	0.105	492893	keystroke	e	n/a
246.581	0.165	493162	keystroke	n	n/a
246.686	0.105	493372	keystroke	t	n/a
246.792	0.1645	493584	keystroke	l	n/a
246.971	0.09	493942	keystroke	y	n/a
247.181	0.15	494362	keystroke	Key.space	n/a
247.361	0.165	494722	keystroke	a	n/a
247.527	0.149	495054	keystroke	m	n/a
247.766	0.1055	495532	keystroke	p	n/a
247.856	0.226	495712	keystroke	l	n/a
248.036	0.1655	496072	keystroke	i	n/a
248.3215	0.1645	496643	keystroke	f	n/a
248.441	0.1805	496882	keystroke	i	n/a
248.6065	0.1645	497213	keystroke	e	n/a
248.696	0.135	497392	keystroke	r	n/a
248.876	0.1795	497752	keystroke	Key.space	n/a
249.086	0.12	498172	keystroke	r	n/a
249.1765	0.0895	498353	keystroke	e	n/a
249.281	0.165	498562	keystroke	l	n/a
249.401	0.1505	498802	keystroke	i	n/a
249.581	0.121	499162	keystroke	g	n/a
249.731	0.15	499462	keystroke	i	n/a
249.866	0.09	499732	keystroke	o	n/a
249.9415	0.1045	499883	keystroke	n	n/a
250.151	0.075	500302	keystroke	Key.enter	n/a
250.235	5.048	500470	prompt	n/a	theater starting treat wages\n
250.8715	0.15	501743	keystroke	t	n/a
251.0065	0.165	502013	keystroke	h	n/a
251.1565	0.135	502313	keystroke	e	n/a
251.2465	0.15	502493	keystroke	a	n/a
251.3515	0.1045	502703	keystroke	t	n/a
251.501	0.135	503002	keystroke	e	n/a
251.591	0.12	503182	keystroke	r	n/a
251.816	0.1195	503632	keystroke	Key.space	n/a
252.101	0.15	504202	keystroke	s	n/a
252.281	0.0905	504562	keystroke	t	n/a
252.3855	0.301	504771	keystroke	a	n/a
252.476	0.0905	504952	keystroke	r	n/a
252.7015	0.135	505403	keystroke	t	n/a
252.8965	0.135	505793	keystroke	i	n/a
253.0165	0.1495	506033	keystroke	n	n/a
253.1215	0.1345	506243	keystroke	g	n/a
253.301	0.135	506602	keystroke	Key.space	n/a
253.481	0.06	506962	keystroke	t	n/a
253.676	0.18	507352	keystroke	r	n/a
253.766	0.1655	507532	keystroke	e	n/a
253.8715	0.1945	507743	keystroke	a	n/a
254.051	0.135	508102	keystroke	t	n/a
254.261	0.135	508522	keystroke	Key.space	n/a
254.5765	0.135	509153	keystroke	w	n/a
254.666	0.165	509332	keystroke	a	n/a
254.816	0.165	509632	keystroke	g	n/a
254.9215	0.1795	509843	keystroke	e	n/a
255.011	0.165	510022	keystroke	s	n/a
255.191	0.09	510382	keystroke	Key.enter	n/a
255.2855	5.5325	510571	prompt	n/a	broadway gets memo efficiently\n
255.9865	0.075	511973	keystroke	b	n/a
256.1965	0.105	512393	keystroke	r	n/a
256.3165	0.15	512633	keystroke	o	n/a
256.4815	0.165	512963	keystroke	a	n/a
256.6305	0.18	513261	keystroke	d	n/a
256.931	0.1955	513862	keystroke	w	n/a
257.0365	0.165	514073	keystroke	a	n/a
257.1565	0.074	514313	keystroke	y	n/a
257.3515	0.1195	514703	keystroke	Key.space	n/a
257.4415	0.0595	514883	keystroke	g	n/a
257.5455	0.2855	515091	keystroke	e	n/a
257.6215	0.15	515243	keystroke	t	n/a
257.7565	0.1495	515513	keystroke	s	n/a
257.921	0.135	515842	keystroke	Key.space	n/a
258.026	0.135	516052	keystroke	m	n/a
258.131	0.1355	516262	keystroke	e	n/a
258.281	0.12	516562	keystroke	m	n/a
258.461	0.1195	516922	keystroke	o	n/a
258.626	0.195	517252	keystroke	Key.space	n/a
258.8505	0.166	517701	keystroke	e	n/a
259.0305	0.1205	518061	keystroke	f	n/a
259.2265	0.18	518453	keystroke	f	n/a
259.3915	0.1495	518783	keystroke	i	n/a
259.571	0.12	519142	keystroke	c	n/a
259.706	0.18	519412	keystroke	i	n/a
259.8265	0.1795	519653	keystroke	e	n/a
260.051	0.15	520102	keystroke	n	n/a
260.171	0.12	520342	keystroke	t	n/a
260.306	0.135	520612	keystroke	l	n/a
260.486	0.0905	520972	keystroke	y	n/a
260.726	0.0905	521452	keystroke	Key.enter	n/a
260.822	7.796	521644	prompt	n/a	yemen he's third calculate\n
261.7915	0.09	523583	keystroke	y	n/a
262.1515	0.135	524303	keystroke	e	n/a
262.6155	0.151	525231	keystroke	m	n/a
262.752	0.1485	525504	keystroke	e	n/a
262.886	0.1205	525772	keystroke	n	n/a
263.081	0.0905	526162	keystroke	Key.space	n/a
263.2155	0.1505	526431	keystroke	h	n/a
263.2605	0.166	526521	keystroke	e	n/a
263.4405	0.12	526881	keystroke	'	n/a
263.5455	0.121	527091	keystroke	e	n/a
263.6355	0.0905	527271	keystroke	s	n/a
263.7105	0.1055	527421	keystroke	Key.space	n/a
264.341	0.075	528682	keystroke	Key.backspace	n/a
264.5055	0.061	529011	keystroke	Key.backspace	n/a
264.6705	0.0905	529341	keystroke	Key.backspace	n/a
264.8205	0.135	529641	keystroke	s	n/a
265.0015	0.1195	530003	keystroke	Key.space	n/a
265.2105	0.121	530421	keystroke	t	n/a
265.272	0.119	530544	keystroke	h	n/a
265.406	0.1505	530812	keystroke	i	n/a
265.5105	0.136	531021	keystroke	r	n/a
265.6165	0.165	531233	keystroke	d	n/a
265.8105	0.15	531621	keystroke	Key.space	n/a
265.976	0.1195	531952	keystroke	c	n/a
266.277	0.209	532554	keystroke	a	n/a
266.8615	0.165	533723	keystroke	l	n/a
267.0715	0.15	534143	keystroke	c	n/a
267.2065	0.15	534413	keystroke	u	n/a
267.4165	0.15	534833	keystroke	a	n/a
267.6865	0.15	535373	keystroke	l	n/a
267.8065	0.165	535613	keystroke	a	n/a
267.911	0.1505	535822	keystroke	t	n/a
267.9865	0.165	535973	keystroke	e	n/a
268.5105	0.1055	537021	keystroke	Key.enter	n/a
268.623	5.77	537246	prompt	n/a	happy perfectly currently myrtle\n
269.216	0.15	538432	keystroke	h	n/a
269.352	0.1345	538704	keystroke	a	n/a
269.411	0.0905	538822	keystroke	p	n/a
269.5915	0.15	539183	keystroke	p	n/a
269.7565	0.09	539513	keystroke	y	n/a
269.9215	0.12	539843	keystroke	Key.space	n/a
269.9965	0.12	539993	keystroke	p	n/a
270.0565	0.15	540113	keystroke	e	n/a
270.1465	0.12	540293	keystroke	r	n/a
270.3715	0.105	540743	keystroke	f	n/a
270.4615	0.12	540923	keystroke	e	n/a
270.7015	0.09	541403	keystroke	c	n/a
270.8515	0.089	541703	keystroke	t	n/a
270.9565	0.135	541913	keystroke	l	n/a
271.121	0.0745	542242	keystroke	y	n/a
271.301	0.135	542602	keystroke	Key.space	n/a
271.437	0.104	542874	keystroke	c	n/a
271.556	0.105	543112	keystroke	u	n/a
271.646	0.0605	543292	keystroke	r	n/a
271.811	0.09	543622	keystroke	r	n/a
271.961	0.135	543922	keystroke	e	n/a
272.111	0.1805	544222	keystroke	n	n/a
272.2465	0.09	544493	keystroke	t	n/a
272.3205	0.105	544641	keystroke	l	n/a
272.486	0.09	544972	keystroke	y	n/a
272.6365	0.149	545273	keystroke	Key.space	n/a
272.9365	0.105	545873	keystroke	m	n/a
273.1615	0.09	546323	keystroke	y	n/a
273.716	0.09	547432	keystroke	r	n/a
273.926	0.15	547852	keystroke	t	n/a
274.091	0.1655	548182	keystroke	l	n/a
274.166	0.12	548332	keystroke	e	n/a
274.316	0.075	548632	keystroke	Key.enter	n/a
274.3975	7.3	548795	prompt	n/a	reproduction string reporter operate\n
275.141	0.12	550282	keystroke	r	n/a
275.231	0.135	550462	keystroke	e	n/a
275.426	0.1355	550852	keystroke	p	n/a
275.801	0.1205	551602	keystroke	r	n/a
275.9815	0.12	551963	keystroke	o	n/a
276.5215	0.12	553043	keystroke	d	n/a
276.6705	0.106	553341	keystroke	u	n/a
276.7915	0.09	553583	keystroke	c	n/a
276.9865	0.09	553973	keystroke	t	n/a
277.077	0.0895	554154	keystroke	i	n/a
277.1505	0.1055	554301	keystroke	o	n/a
277.2415	0.12	554483	keystroke	n	n/a
277.406	0.1495	554812	keystroke	Key.space	n/a
277.4805	0.1805	554961	keystroke	s	n/a
277.6765	0.0895	555353	keystroke	t	n/a
277.8715	0.12	555743	keystroke	r	n/a
277.9615	0.105	555923	keystroke	i	n/a
278.067	0.149	556134	keystroke	n	n/a
278.156	0.1205	556312	keystroke	g	n/a
278.291	0.105	556582	keystroke	Key.space	n/a
278.426	0.1055	556852	keystroke	p	n/a
278.486	0.1345	556972	keystroke	r	n/a
278.801	0.06	557602	keystroke	Key.backspace	n/a
278.951	0.0755	557902	keystroke	Key.backspace	n/a
279.161	0.165	558322	keystroke	r	n/a
279.2815	0.1045	558563	keystroke	e	n/a
279.3715	0.12	558743	keystroke	p	n/a
279.611	0.1055	559222	keystroke	o	n/a
279.6565	0.1345	559313	keystroke	r	n/a
280.121	0.1205	560242	keystroke	t	n/a
280.271	0.1505	560542	keystroke	e	n/a
280.3765	0.09	560753	keystroke	r	n/a
280.541	0.12	561082	keystroke	Key.space	n/a
280.706	0.21	561412	keystroke	o	n/a
280.811	0.12	561622	keystroke	p	n/a
280.886	0.1805	561772	keystroke	e	n/a
280.991	0.15	561982	keystroke	r	n/a
281.3065	0.1195	562613	keystroke	a	n/a
281.3815	0.1195	562763	keystroke	t	n/a
281.471	0.105	562942	keystroke	e	n/a
281.606	0.09	563212	keystroke	Key.enter	n/a
281.702	5.5155	563404	prompt	n/a	affects schemes cluster sterling\n
282.4315	0.165	564863	keystroke	a	n/a
282.581	0.0905	565162	keystroke	f	n/a
282.7465	0.104	565493	keystroke	f	n/a
282.8355	0.105	565671	keystroke	e	n/a
283.0765	0.105	566153	keystroke	c	n/a
283.2115	0.135	566423	keystroke	t	n/a
283.3165	0.12	566633	keystroke	s	n/a
283.4655	0.136	566931	keystroke	Key.space	n/a
283.5555	0.151	567111	keystroke	s	n/a
283.8265	0.105	567653	keystroke	c	n/a
283.9315	0.12	567863	keystroke	h	n/a
284.1115	0.12	568223	keystroke	e	n/a
284.3215	0.149	568643	keystroke	m	n/a
284.4115	0.2095	568823	keystroke	e	n/a
284.5165	0.1495	569033	keystroke	s	n/a
284.696	0.1505	569392	keystroke	Key.space	n/a
284.9215	0.0895	569843	keystroke	c	n/a
285.027	0.09	570054	keystroke	l	n/a
285.1765	0.1195	570353	keystroke	u	n/a
285.281	0.15	570562	keystroke	s	n/a
285.5665	0.09	571133	keystroke	t	n/a
285.686	0.1505	571372	keystroke	e	n/a
285.791	0.0905	571582	keystroke	r	n/a
285.9565	0.089	571913	keystroke	Key.space	n/a
286.0615	0.165	572123	keystroke	s	n/a
286.2865	0.12	572573	keystroke	t	n/a
286.4515	0.15	572903	keystroke	e	n/a
286.541	0.1205	573082	keystroke	r	n/a
286.7205	0.151	573441	keystroke	l	n/a
286.8555	0.105	573711	keystroke	i	n/a
286.946	0.1205	573892	keystroke	n	n/a
287.0205	0.09	574041	keystroke	g	n/a
287.1255	0.091	574251	keystroke	Key.enter	n/a
287.2215	6.986	574443	prompt	n/a	mills pair sustainability authentication\n
287.921	0.15	575842	keystroke	m	n/a
288.056	0.105	576112	keystroke	i	n/a
288.116	0.15	576232	keystroke	l	n/a
288.341	0.15	576682	keystroke	l	n/a
288.476	0.15	576952	keystroke	s	n/a
288.641	0.135	577282	keystroke	Key.space	n/a
288.941	0.075	577882	keystroke	p	n/a
289.046	0.165	578092	keystroke	a	n/a
289.136	0.165	578272	keystroke	i	n/a
289.361	0.1655	578722	keystroke	r	n/a
289.616	0.135	579232	keystroke	Key.space	n/a
289.916	0.1205	579832	keystroke	s	n/a
290.051	0.105	580102	keystroke	u	n/a
290.141	0.1505	580282	keystroke	s	n/a
290.396	0.105	580792	keystroke	t	n/a
290.486	0.1645	580972	keystroke	a	n/a
290.6055	0.12	581211	keystroke	i	n/a
290.7115	0.165	581423	keystroke	n	n/a
291.0405	0.121	582081	keystroke	a	n/a
291.2215	0.1055	582443	keystroke	b	n/a
291.311	0.1505	582622	keystroke	i	n/a
291.431	0.181	582862	keystroke	l	n/a
291.596	0.12	583192	keystroke	i	n/a
291.656	0.105	583312	keystroke	l	n/a
291.746	0.135	583492	keystroke	t	n/a
291.896	0.09	583792	keystroke	y	n/a
292.121	0.135	584242	keystroke	Key.space	n/a
292.316	0.1945	584632	keystroke	a	n/a
292.496	0.075	584992	keystroke	u	n/a
292.631	0.15	585262	keystroke	t	n/a
292.721	0.1355	585442	keystroke	h	n/a
292.871	0.1355	585742	keystroke	e	n/a
293.007	0.164	586014	keystroke	n	n/a
293.246	0.12	586492	keystroke	t	n/a
293.321	0.135	586642	keystroke	i	n/a
293.561	0.105	587122	keystroke	c	n/a
293.651	0.1505	587302	keystroke	a	n/a
293.7715	0.0895	587543	keystroke	t	n/a
293.7865	0.1195	587573	keystroke	i	n/a
293.876	0.09	587752	keystroke	o	n/a
293.936	0.1055	587872	keystroke	n	n/a
294.116	0.09	588232	keystroke	Key.enter	n/a
294.212	7.781	588424	prompt	n/a	keyboard accreditation delegation nice\n
294.761	0.18	589522	keystroke	k	n/a
294.896	0.135	589792	keystroke	e	n/a
295.076	0.0905	590152	keystroke	y	n/a
295.226	0.091	590452	keystroke	b	n/a
295.3605	0.1205	590721	keystroke	o	n/a
295.4515	0.135	590903	keystroke	a	n/a
295.526	0.135	591052	keystroke	r	n/a
295.6155	0.1505	591231	keystroke	d	n/a
295.7955	0.165	591591	keystroke	Key.space	n/a
295.916	0.1205	591832	keystroke	a	n/a
296.141	0.1355	592282	keystroke	c	n/a
296.396	0.075	592792	keystroke	c	n/a
296.591	0.1205	593182	keystroke	r	n/a
296.6815	0.1645	593363	keystroke	e	n/a
296.831	0.045	593662	keystroke	s	n/a
296.966	0.09	593932	keystroke	d	n/a
297.281	0.06	594562	keystroke	Key.backspace	n/a
297.446	0.105	594892	keystroke	Key.backspace	n/a
297.641	0.0605	595282	keystroke	Key.backspace	n/a
298.2115	0.1195	596423	keystroke	e	n/a
298.451	0.0905	596902	keystroke	d	n/a
298.6615	0.134	597323	keystroke	i	n/a
299.0215	0.105	598043	keystroke	t	n/a
299.157	0.1645	598314	keystroke	a	n/a
299.2475	0.149	598495	keystroke	t	n/a
299.3815	0.12	598763	keystroke	i	n/a
299.4715	0.105	598943	keystroke	o	n/a
299.5465	0.1345	599093	keystroke	n	n/a
299.7555	0.1505	599511	keystroke	Key.space	n/a
299.8315	0.119	599663	keystroke	d	n/a
300.0565	0.12	600113	keystroke	e	n/a
300.2215	0.135	600443	keystroke	l	n/a
300.3115	0.12	600623	keystroke	e	n/a
300.596	0.1205	601192	keystroke	g	n/a
300.8365	0.165	601673	keystroke	a	n/a
300.9865	0.12	601973	keystroke	t	n/a
301.0915	0.105	602183	keystroke	i	n/a
301.1665	0.105	602333	keystroke	o	n/a
301.2565	0.119	602513	keystroke	n	n/a
301.4355	0.09	602871	keystroke	Key.space	n/a
301.5115	0.1195	603023	keystroke	n	n/a
301.616	0.135	603232	keystroke	i	n/a
301.646	0.0455	603292	keystroke	c	n/a
301.796	0.09	603592	keystroke	e	n/a
301.931	0.06	603862	keystroke	Key.enter	n/a
301.997	5.3055	603994	prompt	n/a	kenneth typing maine reflection\n
302.5765	0.1795	605153	keystroke	k	n/a
302.6805	0.1205	605361	keystroke	e	n/a
302.8615	0.075	605723	keystroke	n	n/a
303.026	0.1055	606052	keystroke	n	n/a
303.251	0.12	606502	keystroke	e	n/a
303.446	0.0755	606892	keystroke	t	n/a
303.506	0.12	607012	keystroke	h	n/a
303.686	0.135	607372	keystroke	Key.space	n/a
303.8365	0.1195	607673	keystroke	t	n/a
303.9115	0.1195	607823	keystroke	y	n/a
304.016	0.165	608032	keystroke	p	n/a
304.166	0.15	608332	keystroke	i	n/a
304.301	0.1505	608602	keystroke	n	n/a
304.376	0.105	608752	keystroke	g	n/a
304.5705	0.09	609141	keystroke	Key.space	n/a
304.6305	0.15	609261	keystroke	m	n/a
304.736	0.1645	609472	keystroke	a	n/a
304.8405	0.121	609681	keystroke	i	n/a
304.931	0.15	609862	keystroke	n	n/a
305.066	0.105	610132	keystroke	e	n/a
305.306	0.135	610612	keystroke	Key.space	n/a
305.621	0.135	611242	keystroke	r	n/a
305.726	0.1205	611452	keystroke	e	n/a
305.936	0.135	611872	keystroke	f	n/a
306.026	0.1805	612052	keystroke	l	n/a
306.131	0.09	612262	keystroke	e	n/a
306.341	0.09	612682	keystroke	c	n/a
306.476	0.105	612952	keystroke	t	n/a
306.866	0.1055	613732	keystroke	i	n/a
306.956	0.09	613912	keystroke	o	n/a
307.031	0.0905	614062	keystroke	n	n/a
307.226	0.075	614452	keystroke	Key.enter	n/a
307.3075	5.725	614615	prompt	n/a	specialists pressing desktop anchor\n
307.8715	0.1495	615743	keystroke	s	n/a
307.9915	0.0895	615983	keystroke	p	n/a
308.066	0.0755	616132	keystroke	e	n/a
308.2765	0.12	616553	keystroke	c	n/a
308.3665	0.1645	616733	keystroke	i	n/a
308.4865	0.1495	616973	keystroke	a	n/a
308.6215	0.1495	617243	keystroke	l	n/a
308.9365	0.1645	617873	keystroke	i	n/a
309.0555	0.105	618111	keystroke	s	n/a
309.1465	0.149	618293	keystroke	t	n/a
309.2655	0.1505	618531	keystroke	s	n/a
309.5965	0.1195	619193	keystroke	Key.space	n/a
309.7605	0.09	619521	keystroke	p	n/a
309.8665	0.1495	619733	keystroke	r	n/a
309.956	0.1655	619912	keystroke	e	n/a
310.0455	0.09	620091	keystroke	s	n/a
310.226	0.15	620452	keystroke	s	n/a
310.3465	0.09	620693	keystroke	i	n/a
310.437	0.1485	620874	keystroke	n	n/a
310.5265	0.1045	621053	keystroke	g	n/a
310.6605	0.135	621321	keystroke	Key.space	n/a
310.7365	0.119	621473	keystroke	d	n/a
310.9155	0.1655	621831	keystroke	e	n/a
311.006	0.1495	622012	keystroke	s	n/a
311.1115	0.1495	622223	keystroke	k	n/a
311.3065	0.1345	622613	keystroke	t	n/a
311.4705	0.2105	622941	keystroke	o	n/a
311.546	0.1055	623092	keystroke	p	n/a
311.7555	0.15	623511	keystroke	Key.space	n/a
311.936	0.1195	623872	keystroke	a	n/a
312.2055	0.121	624411	keystroke	n	n/a
312.3555	0.1055	624711	keystroke	c	n/a
312.4615	0.105	624923	keystroke	h	n/a
312.6565	0.135	625313	keystroke	o	n/a
312.7615	0.12	625523	keystroke	r	n/a
312.941	0.0895	625882	keystroke	Key.enter	n/a
313.037	5.8165	626074	prompt	n/a	confidential disability anne nine\n
313.7065	0.09	627413	keystroke	c	n/a
313.7365	0.104	627473	keystroke	o	n/a
313.8565	0.12	627713	keystroke	n	n/a
313.9615	0.165	627923	keystroke	f	n/a
314.0965	0.134	628193	keystroke	i	n/a
314.3815	0.105	628763	keystroke	d	n/a
314.6515	0.12	629303	keystroke	e	n/a
314.8165	0.134	629633	keystroke	n	n/a
315.0555	0.1505	630111	keystroke	t	n/a
315.1755	0.165	630351	keystroke	i	n/a
315.2805	0.15	630561	keystroke	a	n/a
315.371	0.1495	630742	keystroke	l	n/a
315.5505	0.151	631101	keystroke	Key.space	n/a
315.6555	0.15	631311	keystroke	d	n/a
315.7905	0.136	631581	keystroke	i	n/a
315.8955	0.121	631791	keystroke	s	n/a
316.0465	0.179	632093	keystroke	i	n/a
316.2415	0.075	632483	keystroke	b	n/a
316.4365	0.1795	632873	keystroke	i	n/a
316.7665	0.2095	633533	keystroke	l	n/a
316.916	0.1205	633832	keystroke	i	n/a
317.081	0.1505	634162	keystroke	t	n/a
317.321	0.105	634642	keystroke	y	n/a
317.5315	0.104	635063	keystroke	Key.space	n/a
317.6515	0.149	635303	keystroke	a	n/a
317.7705	0.076	635541	keystroke	n	n/a
317.9205	0.15	635841	keystroke	n	n/a
318.011	0.09	636022	keystroke	e	n/a
318.2515	0.104	636503	keystroke	n	n/a
318.4155	0.1355	636831	keystroke	i	n/a
318.521	0.135	637042	keystroke	n	n/a
318.596	0.135	637192	keystroke	e	n/a
318.7765	0.0745	637553	keystroke	Key.enter	n/a
318.8685	5.867	637737	prompt	n/a	fiscal plugin upper currency\n
319.691	0.2105	639382	keystroke	f	n/a
319.811	0.1505	639622	keystroke	i	n/a
319.916	0.135	639832	keystroke	s	n/a
320.261	0.12	640522	keystroke	c	n/a
320.3815	0.1795	640763	keystroke	a	n/a
320.5005	0.1655	641001	keystroke	l	n/a
320.696	0.12	641392	keystroke	Key.space	n/a
320.9365	0.1495	641873	keystroke	p	n/a
321.131	0.21	642262	keystroke	l	n/a
321.371	0.12	642742	keystroke	u	n/a
321.476	0.12	642952	keystroke	g	n/a
321.641	0.135	643282	keystroke	i	n/a
321.761	0.135	643522	keystroke	n	n/a
321.9865	0.0595	643973	keystroke	Key.space	n/a
322.121	0.12	644242	keystroke	u	n/a
322.226	0.075	644452	keystroke	p	n/a
322.406	0.0905	644812	keystroke	p	n/a
322.5115	0.15	645023	keystroke	e	n/a
322.6015	0.134	645203	keystroke	r	n/a
322.7655	0.135	645531	keystroke	Key.space	n/a
323.0965	0.105	646193	keystroke	c	n/a
323.2155	0.1055	646431	keystroke	u	n/a
323.3805	0.076	646761	keystroke	r	n/a
323.5615	0.104	647123	keystroke	r	n/a
323.8615	0.1195	647723	keystroke	e	n/a
324.101	0.15	648202	keystroke	n	n/a
324.2355	0.09	648471	keystroke	c	n/a
324.4165	0.105	648833	keystroke	y	n/a
324.6555	0.075	649311	keystroke	Key.enter	n/a
324.739	4.914	649478	prompt	n/a	ment calculators brain students\n
325.436	0.1205	650872	keystroke	m	n/a
325.496	0.12	650992	keystroke	e	n/a
325.6615	0.1345	651323	keystroke	n	n/a
325.751	0.0905	651502	keystroke	t	n/a
325.886	0.165	651772	keystroke	Key.space	n/a
326.0665	0.1195	652133	keystroke	c	n/a
326.171	0.1495	652342	keystroke	a	n/a
326.3055	0.151	652611	keystroke	l	n/a
326.4105	0.151	652821	keystroke	c	n/a
326.6215	0.1495	653243	keystroke	u	n/a
326.9815	0.1795	653963	keystroke	l	n/a
327.146	0.135	654292	keystroke	a	n/a
327.2515	0.1195	654503	keystroke	t	n/a
327.3865	0.09	654773	keystroke	o	n/a
327.4915	0.1495	654983	keystroke	r	n/a
327.6115	0.1645	655223	keystroke	s	n/a
327.746	0.15	655492	keystroke	Key.space	n/a
327.881	0.0905	655762	keystroke	b	n/a
328.1065	0.09	656213	keystroke	r	n/a
328.1815	0.165	656363	keystroke	a	n/a
328.2565	0.104	656513	keystroke	i	n/a
328.3465	0.135	656693	keystroke	n	n/a
328.6155	0.1205	657231	keystroke	Key.space	n/a
328.6455	0.1805	657291	keystroke	s	n/a
328.766	0.1495	657532	keystroke	t	n/a
328.8865	0.1045	657773	keystroke	u	n/a
328.9615	0.135	657923	keystroke	d	n/a
329.186	0.1205	658372	keystroke	e	n/a
329.2915	0.1345	658583	keystroke	n	n/a
329.3515	0.1195	658703	keystroke	t	n/a
329.4415	0.15	658883	keystroke	s	n/a
329.5455	0.106	659091	keystroke	Key.enter	n/a
329.6575	6.2955	659315	prompt	n/a	antibody temple speak washington\n
330.4315	0.2095	660863	keystroke	a	n/a
330.5965	0.1645	661193	keystroke	n	n/a
330.8065	0.105	661613	keystroke	t	n/a
330.8815	0.149	661763	keystroke	i	n/a
331.1505	0.105	662301	keystroke	b	n/a
331.286	0.1355	662572	keystroke	o	n/a
331.3905	0.196	662781	keystroke	d	n/a
331.6155	0.106	663231	keystroke	y	n/a
331.841	0.1495	663682	keystroke	Key.space	n/a
332.0505	0.136	664101	keystroke	t	n/a
332.2755	0.1655	664551	keystroke	e	n/a
332.471	0.1505	664942	keystroke	m	n/a
332.666	0.09	665332	keystroke	p	n/a
332.7715	0.2095	665543	keystroke	l	n/a
332.9215	0.12	665843	keystroke	e	n/a
333.086	0.105	666172	keystroke	Key.space	n/a
333.582	0.1945	667164	keystroke	s	n/a
333.7915	0.0745	667583	keystroke	p	n/a
333.8365	0.15	667673	keystroke	e	n/a
333.911	0.1655	667822	keystroke	a	n/a
334.0915	0.15	668183	keystroke	k	n/a
334.316	0.0895	668632	keystroke	Key.space	n/a
334.3305	0.091	668661	keystroke	w	n/a
334.3915	0.21	668783	keystroke	a	n/a
334.5265	0.164	669053	keystroke	s	n/a
334.6765	0.149	669353	keystroke	h	n/a
334.9465	0.135	669893	keystroke	i	n/a
335.0665	0.12	670133	keystroke	n	n/a
335.2165	0.06	670433	keystroke	g	n/a
335.3965	0.12	670793	keystroke	t	n/a
335.4865	0.1045	670973	keystroke	o	n/a
335.6065	0.134	671213	keystroke	n	n/a
335.7115	0.165	671423	keystroke	s	n/a
335.8615	0.09	671723	keystroke	Key.enter	n/a
335.9575	6.3105	671915	prompt	n/a	stopping brisbane product dosage\n
336.536	0.1955	673072	keystroke	s	n/a
336.7155	0.106	673431	keystroke	t	n/a
336.791	0.1645	673582	keystroke	o	n/a
336.8665	0.135	673733	keystroke	p	n/a
337.1215	0.119	674243	keystroke	p	n/a
337.2865	0.1495	674573	keystroke	i	n/a
337.421	0.135	674842	keystroke	n	n/a
337.511	0.075	675022	keystroke	g	n/a
337.676	0.1355	675352	keystroke	Key.space	n/a
337.8415	0.105	675683	keystroke	b	n/a
338.096	0.091	676192	keystroke	r	n/a
338.231	0.135	676462	keystroke	i	n/a
338.336	0.2255	676672	keystroke	s	n/a
338.5765	0.09	677153	keystroke	b	n/a
338.6815	0.15	677363	keystroke	a	n/a
338.8005	0.1505	677601	keystroke	n	n/a
338.9365	0.0895	677873	keystroke	e	n/a
339.071	0.09	678142	keystroke	Key.space	n/a
339.236	0.12	678472	keystroke	p	n/a
339.341	0.09	678682	keystroke	r	n/a
339.491	0.105	678982	keystroke	o	n/a
339.581	0.105	679162	keystroke	d	n/a
339.7765	0.1195	679553	keystroke	u	n/a
339.881	0.105	679762	keystroke	c	n/a
340.0765	0.1195	680153	keystroke	t	n/a
340.211	0.1355	680422	keystroke	Key.space	n/a
340.3765	0.1045	680753	keystroke	s	n/a
340.571	0.135	681142	keystroke	o	n/a
340.931	0.075	681862	keystroke	Key.backspace	n/a
341.081	0.09	682162	keystroke	Key.backspace	n/a
341.276	0.105	682552	keystroke	d	n/a
341.351	0.12	682702	keystroke	o	n/a
341.591	0.18	683182	keystroke	s	n/a
341.7565	0.135	683513	keystroke	a	n/a
341.846	0.135	683692	keystroke	g	n/a
341.936	0.165	683872	keystroke	e	n/a
342.161	0.105	684322	keystroke	Key.enter	n/a
342.272	4.8705	684544	prompt	n/a	patent buttons myth makers\n
342.9415	0.09	685883	keystroke	p	n/a
343.0915	0.09	686183	keystroke	a	n/a
343.3605	0.121	686721	keystroke	t	n/a
343.7355	0.135	687471	keystroke	e	n/a
343.9005	0.1955	687801	keystroke	n	n/a
344.0515	0.089	688103	keystroke	t	n/a
344.2455	0.1355	688491	keystroke	Key.space	n/a
344.6215	0.074	689243	keystroke	b	n/a
344.6515	0.12	689303	keystroke	u	n/a
344.846	0.0905	689692	keystroke	t	n/a
345.0265	0.12	690053	keystroke	t	n/a
345.2515	0.089	690503	keystroke	o	n/a
345.3555	0.136	690711	keystroke	n	n/a
345.4305	0.135	690861	keystroke	s	n/a
345.5965	0.164	691193	keystroke	Key.space	n/a
345.7465	0.0895	691493	keystroke	m	n/a
345.956	0.09	691912	keystroke	y	n/a
346.0605	0.1355	692121	keystroke	t	n/a
346.1805	0.105	692361	keystroke	h	n/a
346.3305	0.1505	692661	keystroke	Key.space	n/a
346.4515	0.1345	692903	keystroke	m	n/a
346.541	0.1655	693082	keystroke	a	n/a
346.6615	0.1645	693323	keystroke	k	n/a
346.766	0.255	693532	keystroke	e	n/a
346.856	0.135	693712	keystroke	r	n/a
346.946	0.15	693892	keystroke	s	n/a
347.066	0.075	694132	keystroke	Key.enter	n/a
347.147	4.871	694294	prompt	n/a	motor year downloaded weekly\n
347.846	0.09	695692	keystroke	m	n/a
347.966	0.1055	695932	keystroke	o	n/a
348.1165	0.1345	696233	keystroke	t	n/a
348.2365	0.1195	696473	keystroke	o	n/a
348.386	0.12	696772	keystroke	r	n/a
348.551	0.0905	697102	keystroke	Key.space	n/a
348.746	0.1055	697492	keystroke	y	n/a
348.7765	0.18	697553	keystroke	e	n/a
348.8665	0.135	697733	keystroke	a	n/a
348.926	0.1355	697852	keystroke	r	n/a
349.1215	0.1195	698243	keystroke	Key.space	n/a
349.256	0.1355	698512	keystroke	d	n/a
349.3765	0.1345	698753	keystroke	o	n/a
349.496	0.165	698992	keystroke	w	n/a
349.646	0.1055	699292	keystroke	n	n/a
349.811	0.12	699622	keystroke	l	n/a
350.021	0.1055	700042	keystroke	o	n/a
350.1415	0.165	700283	keystroke	a	n/a
350.2465	0.12	700493	keystroke	d	n/a
350.4565	0.0895	700913	keystroke	e	n/a
350.651	0.12	701302	keystroke	d	n/a
350.786	0.1355	701572	keystroke	Key.space	n/a
350.876	0.18	701752	keystroke	w	n/a
350.996	0.105	701992	keystroke	e	n/a
351.1915	0.105	702383	keystroke	e	n/a
351.3715	0.15	702743	keystroke	k	n/a
351.5365	0.12	703073	keystroke	l	n/a
351.7165	0.075	703433	keystroke	y	n/a
351.9565	0.0595	703913	keystroke	Key.enter	n/a
352.0225	7.092	704045	prompt	n/a	marker substantially leading expressed\n
352.632	0.119	705264	keystroke	m	n/a
352.721	0.1655	705442	keystroke	a	n/a
353.006	0.09	706012	keystroke	r	n/a
353.126	0.18	706252	keystroke	k	n/a
353.246	0.165	706492	keystroke	e	n/a
353.321	0.15	706642	keystroke	r	n/a
353.516	0.15	707032	keystroke	Key.space	n/a
353.681	0.135	707362	keystroke	s	n/a
353.831	0.1505	707662	keystroke	u	n/a
353.936	0.12	707872	keystroke	b	n/a
354.1915	0.149	708383	keystroke	s	n/a
354.3255	0.1355	708651	keystroke	t	n/a
354.446	0.18	708892	keystroke	a	n/a
354.641	0.135	709282	keystroke	i	n/a
354.7915	0.1645	709583	keystroke	n	n/a
354.971	0.09	709942	keystroke	t	n/a
355.091	0.165	710182	keystroke	i	n/a
355.196	0.165	710392	keystroke	a	n/a
355.346	0.105	710692	keystroke	l	n/a
355.511	0.135	711022	keystroke	l	n/a
355.721	0.09	711442	keystroke	y	n/a
355.886	0.1355	711772	keystroke	Key.space	n/a
355.991	0.1505	711982	keystroke	l	n/a
356.111	0.15	712222	keystroke	e	n/a
356.231	0.1805	712462	keystroke	a	n/a
356.3665	0.104	712733	keystroke	d	n/a
356.6065	0.1645	713213	keystroke	e	n/a
357.026	0.075	714052	keystroke	Key.backspace	n/a
357.236	0.15	714472	keystroke	i	n/a
357.3715	0.0895	714743	keystroke	n	n/a
357.446	0.09	714892	keystroke	g	n/a
357.581	0.165	715162	keystroke	Key.space	n/a
357.731	0.06	715462	keystroke	e	n/a
357.956	0.1205	715912	keystroke	x	n/a
358.061	0.0755	716122	keystroke	p	n/a
358.166	0.1195	716332	keystroke	r	n/a
358.256	0.1355	716512	keystroke	e	n/a
358.3315	0.1045	716663	keystroke	s	n/a
358.511	0.1655	717022	keystroke	s	n/a
358.706	0.09	717412	keystroke	e	n/a
358.901	0.105	717802	keystroke	d	n/a
359.021	0.09	718042	keystroke	Key.enter	n/a
359.118	4.1355	718236	prompt	n/a	poor heath clients puppy\n
359.696	0.0905	719392	keystroke	p	n/a
359.876	0.1055	719752	keystroke	o	n/a
360.071	0.135	720142	keystroke	o	n/a
360.2365	0.1045	720473	keystroke	r	n/a
360.356	0.12	720712	keystroke	Key.space	n/a
360.596	0.1355	721192	keystroke	h	n/a
360.7015	0.149	721403	keystroke	e	n/a
360.8055	0.1805	721611	keystroke	a	n/a
361.001	0.09	722002	keystroke	t	n/a
361.076	0.105	722152	keystroke	h	n/a
361.301	0.135	722602	keystroke	Key.space	n/a
361.4665	0.1195	722933	keystroke	c	n/a
361.526	0.18	723052	keystroke	l	n/a
361.646	0.15	723292	keystroke	i	n/a
361.7665	0.1195	723533	keystroke	e	n/a
361.887	0.179	723774	keystroke	n	n/a
361.991	0.1355	723982	keystroke	t	n/a
362.081	0.1805	724162	keystroke	s	n/a
362.2165	0.089	724433	keystroke	Key.space	n/a
362.3505	0.1205	724701	keystroke	p	n/a
362.456	0.1045	724912	keystroke	u	n/a
362.6065	0.1045	725213	keystroke	p	n/a
362.816	0.09	725632	keystroke	p	n/a
362.951	0.09	725902	keystroke	y	n/a
363.191	0.06	726382	keystroke	Key.enter	n/a
363.258	8.275	726516	prompt	n/a	survival concord arrive planning\n
363.8815	0.1645	727763	keystroke	s	n/a
364.0615	0.089	728123	keystroke	u	n/a
364.136	0.0755	728272	keystroke	r	n/a
364.3465	0.09	728693	keystroke	v	n/a
364.421	0.15	728842	keystroke	i	n/a
364.5415	0.18	729083	keystroke	v	n/a
364.7365	0.1495	729473	keystroke	a	n/a
364.8565	0.1195	729713	keystroke	l	n/a
365.1265	0.1495	730253	keystroke	Key.space	n/a
366.011	0.105	732022	keystroke	c	n/a
366.101	0.105	732202	keystroke	o	n/a
366.221	0.1355	732442	keystroke	n	n/a
366.491	0.1355	732982	keystroke	c	n/a
366.627	0.1045	733254	keystroke	o	n/a
366.7915	0.12	733583	keystroke	r	n/a
366.9565	0.1345	733913	keystroke	n	n/a
367.2115	0.1645	734423	keystroke	Key.space	n/a
367.421	0.1655	734842	keystroke	a	n/a
367.781	0.0745	735562	keystroke	Key.backspace	n/a
367.9305	0.075	735861	keystroke	Key.backspace	n/a
368.096	0.0595	736192	keystroke	Key.backspace	n/a
368.3205	0.136	736641	keystroke	d	n/a
368.471	0.105	736942	keystroke	Key.space	n/a
368.786	0.18	737572	keystroke	a	n/a
368.936	0.06	737872	keystroke	r	n/a
369.1005	0.046	738201	keystroke	r	n/a
369.1905	0.121	738381	keystroke	i	n/a
369.3715	0.1345	738743	keystroke	v	n/a
369.491	0.12	738982	keystroke	e	n/a
369.626	0.075	739252	keystroke	Key.space	n/a
369.821	0.105	739642	keystroke	p	n/a
369.911	0.165	739822	keystroke	l	n/a
369.926	0.165	739852	keystroke	a	n/a
370.196	0.03	740392	keystroke	k	n/a
370.601	0.1055	741202	keystroke	Key.backspace	n/a
370.871	0.045	741742	keystroke	n	n/a
371.006	0.075	742012	keystroke	n	n/a
371.156	0.105	742312	keystroke	i	n/a
371.246	0.12	742492	keystroke	n	n/a
371.306	0.09	742612	keystroke	g	n/a
371.441	0.0905	742882	keystroke	Key.enter	n/a
371.537	7.661	743074	prompt	n/a	reverse hewlett trips accompanying\n
372.2515	0.12	744503	keystroke	r	n/a
372.3415	0.09	744683	keystroke	e	n/a
372.656	0.06	745312	keystroke	v	n/a
372.746	0.165	745492	keystroke	e	n/a
372.851	0.165	745702	keystroke	r	n/a
373.1055	0.1955	746211	keystroke	s	n/a
373.2415	0.135	746483	keystroke	e	n/a
373.4365	0.1045	746873	keystroke	Key.space	n/a
373.631	0.1495	747262	keystroke	h	n/a
373.7205	0.21	747441	keystroke	e	n/a
373.8555	0.1515	747711	keystroke	w	n/a
374.111	0.135	748222	keystroke	l	n/a
374.201	0.15	748402	keystroke	e	n/a
374.3205	0.0905	748641	keystroke	t	n/a
374.501	0.106	749002	keystroke	t	n/a
374.696	0.15	749392	keystroke	Key.space	n/a
374.876	0.075	749752	keystroke	t	n/a
375.071	0.09	750142	keystroke	r	n/a
375.1315	0.135	750263	keystroke	i	n/a
375.236	0.105	750472	keystroke	p	n/a
375.356	0.1205	750712	keystroke	s	n/a
375.491	0.135	750982	keystroke	Key.space	n/a
375.641	0.1355	751282	keystroke	a	n/a
375.8205	0.105	751641	keystroke	c	n/a
376.3465	0.134	752693	keystroke	o	n/a
376.5115	0.18	753023	keystroke	m	n/a
376.766	0.06	753532	keystroke	o	n/a
377.111	0.06	754222	keystroke	=	n/a
377.6055	0.0605	755211	keystroke	Key.backspace	n/a
377.741	0.09	755482	keystroke	Key.backspace	n/a
378.0715	0.0895	756143	keystroke	p	n/a
378.281	0.165	756562	keystroke	a	n/a
378.356	0.1205	756712	keystroke	n	n/a
378.687	0.074	757374	keystroke	y	n/a
378.821	0.105	757642	keystroke	i	n/a
378.941	0.105	757882	keystroke	n	n/a
378.986	0.0755	757972	keystroke	g	n/a
379.136	0.06	758272	keystroke	Key.enter	n/a
379.202	3.5965	758404	prompt	n/a	see stolen teen rogers\n
379.826	0.181	759652	keystroke	s	n/a
379.991	0.075	759982	keystroke	e	n/a
380.156	0.0755	760312	keystroke	e	n/a
380.291	0.12	760582	keystroke	Key.space	n/a
380.3665	0.1345	760733	keystroke	s	n/a
380.636	0.15	761272	keystroke	t	n/a
380.7715	0.0445	761543	keystroke	o	n/a
380.9655	0.121	761931	keystroke	l	n/a
381.0415	0.104	762083	keystroke	e	n/a
381.1615	0.1345	762323	keystroke	Key.space	n/a
381.296	0.1345	762592	keystroke	t	n/a
381.4015	0.09	762803	keystroke	e	n/a
381.5805	0.091	763161	keystroke	e	n/a
381.626	0.1055	763252	keystroke	n	n/a
381.8355	0.15	763671	keystroke	Key.space	n/a
382.0615	0.06	764123	keystroke	r	n/a
382.1365	0.134	764273	keystroke	o	n/a
382.2565	0.075	764513	keystroke	g	n/a
382.3765	0.24	764753	keystroke	e	n/a
382.4515	0.1195	764903	keystroke	r	n/a
382.541	0.15	765082	keystroke	s	n/a
382.7065	0.0895	765413	keystroke	Key.enter	n/a
382.8025	5.005	765605	prompt	n/a	drain corn stage slow\n
383.5465	0.2245	767093	keystroke	d	n/a
383.7565	0.0745	767513	keystroke	r	n/a
383.8315	0.1495	767663	keystroke	a	n/a
383.9365	0.1195	767873	keystroke	i	n/a
384.041	0.1355	768082	keystroke	n	n/a
384.251	0.15	768502	keystroke	Key.space	n/a
384.371	0.12	768742	keystroke	c	n/a
384.5065	0.119	769013	keystroke	o	n/a
384.521	0.1355	769042	keystroke	a	n/a
384.581	0.1055	769162	keystroke	r	n/a
384.7455	0.165	769491	keystroke	n	n/a
385.0755	0.0605	770151	keystroke	Key.backspace	n/a
385.2405	0.06	770481	keystroke	Key.backspace	n/a
385.376	0.075	770752	keystroke	Key.backspace	n/a
385.4965	0.1345	770993	keystroke	r	n/a
385.616	0.1505	771232	keystroke	n	n/a
385.901	0.1345	771802	keystroke	Key.space	n/a
385.9615	0.1495	771923	keystroke	s	n/a
386.081	0.09	772162	keystroke	t	n/a
386.186	0.15	772372	keystroke	a	n/a
386.366	0.075	772732	keystroke	g	n/a
386.8315	0.18	773663	keystroke	e	n/a
387.1005	0.105	774201	keystroke	Key.space	n/a
387.221	0.0905	774442	keystroke	s	n/a
387.2965	0.09	774593	keystroke	l	n/a
387.4615	0.12	774923	keystroke	o	n/a
387.5665	0.165	775133	keystroke	w	n/a
387.7455	0.0605	775491	keystroke	Key.enter	n/a
387.8145	5.4545	775629	prompt	n/a	placement effects election ship\n
388.451	0.1355	776902	keystroke	p	n/a
388.6165	0.21	777233	keystroke	l	n/a
388.7665	0.105	777533	keystroke	a	n/a
388.9315	0.09	777863	keystroke	c	n/a
389.2465	0.1795	778493	keystroke	m	n/a
389.411	0.1205	778822	keystroke	e	n/a
389.5605	0.135	779121	keystroke	n	n/a
389.6505	0.075	779301	keystroke	t	n/a
389.816	0.1195	779632	keystroke	Key.space	n/a
389.9515	0.165	779903	keystroke	e	n/a
390.3255	0.135	780651	keystroke	f	n/a
390.536	0.1655	781072	keystroke	f	n/a
390.716	0.1205	781432	keystroke	e	n/a
390.9865	0.09	781973	keystroke	c	n/a
391.1065	0.12	782213	keystroke	t	n/a
391.1965	0.135	782393	keystroke	s	n/a
391.3615	0.15	782723	keystroke	Key.space	n/a
391.6315	0.105	783263	keystroke	e	n/a
391.7215	0.1495	783443	keystroke	l	n/a
391.826	0.075	783652	keystroke	e	n/a
392.036	0.09	784072	keystroke	c	n/a
392.186	0.0905	784372	keystroke	t	n/a
392.2165	0.1195	784433	keystroke	i	n/a
392.321	0.105	784642	keystroke	o	n/a
392.411	0.165	784822	keystroke	n	n/a
392.621	0.105	785242	keystroke	Key.space	n/a
392.711	0.135	785422	keystroke	s	n/a
392.771	0.09	785542	keystroke	h	n/a
392.831	0.1355	785662	keystroke	i	n/a
392.951	0.075	785902	keystroke	p	n/a
393.191	0.075	786382	keystroke	Key.enter	n/a
393.273	5.335	786546	prompt	n/a	sublime cardiff dying garcia\n
394.211	0.135	788422	keystroke	s	n/a
394.316	0.15	788632	keystroke	u	n/a
394.436	0.1055	788872	keystroke	b	n/a
394.7665	0.149	789533	keystroke	l	n/a
394.8865	0.104	789773	keystroke	i	n/a
395.0065	0.15	790013	keystroke	m	n/a
395.1115	0.074	790223	keystroke	e	n/a
395.291	0.1495	790582	keystroke	Key.space	n/a
395.4555	0.136	790911	keystroke	c	n/a
395.5915	0.149	791183	keystroke	a	n/a
395.6815	0.135	791363	keystroke	r	n/a
395.8165	0.149	791633	keystroke	d	n/a
396.1615	0.1345	792323	keystroke	i	n/a
396.311	0.1055	792622	keystroke	f	n/a
396.5065	0.134	793013	keystroke	f	n/a
396.6555	0.1355	793311	keystroke	Key.space	n/a
396.821	0.18	793642	keystroke	d	n/a
397.016	0.0905	794032	keystroke	y	n/a
397.121	0.135	794242	keystroke	i	n/a
397.241	0.12	794482	keystroke	n	n/a
397.316	0.105	794632	keystroke	g	n/a
397.496	0.15	794992	keystroke	Key.space	n/a
397.751	0.12	795502	keystroke	g	n/a
397.916	0.135	795832	keystroke	a	n/a
398.0065	0.0595	796013	keystroke	r	n/a
398.232	0.104	796464	keystroke	c	n/a
398.276	0.15	796552	keystroke	i	n/a
398.3665	0.12	796733	keystroke	a	n/a
398.531	0.075	797062	keystroke	Key.enter	n/a
398.6125	6.3255	797225	prompt	n/a	results protest candle coal\n
399.2065	0.1345	798413	keystroke	r	n/a
399.2815	0.1495	798563	keystroke	e	n/a
399.3855	0.1355	798771	keystroke	s	n/a
399.5355	0.1055	799071	keystroke	u	n/a
399.656	0.15	799312	keystroke	l	n/a
399.731	0.105	799462	keystroke	t	n/a
399.791	0.15	799582	keystroke	s	n/a
399.956	0.105	799912	keystroke	Key.space	n/a
400.091	0.105	800182	keystroke	p	n/a
400.211	0.09	800422	keystroke	r	n/a
400.316	0.135	800632	keystroke	o	n/a
400.556	0.15	801112	keystroke	t	n/a
400.781	0.09	801562	keystroke	e	n/a
401.006	0.18	802012	keystroke	s	n/a
401.171	0.15	802342	keystroke	t	n/a
401.366	0.15	802732	keystroke	Key.space	n/a
401.726	0.1805	803452	keystroke	a	n/a
401.8915	0.15	803783	keystroke	n	n/a
402.0415	0.09	804083	keystroke	d	n/a
402.281	0.1805	804562	keystroke	l	n/a
402.656	0.06	805312	keystroke	Key.backspace	n/a
402.836	0.0455	805672	keystroke	Key.backspace	n/a
402.956	0.045	805912	keystroke	Key.backspace	n/a
403.1055	0.06	806211	keystroke	Key.backspace	n/a
403.4205	0.105	806841	keystroke	c	n/a
403.511	0.1645	807022	keystroke	a	n/a
403.6155	0.151	807231	keystroke	n	n/a
403.7215	0.134	807443	keystroke	d	n/a
403.8565	0.1645	807713	keystroke	l	n/a
403.976	0.0895	807952	keystroke	e	n/a
404.1255	0.181	808251	keystroke	Key.space	n/a
404.3805	0.136	808761	keystroke	c	n/a
404.4555	0.121	808911	keystroke	o	n/a
404.5605	0.166	809121	keystroke	a	n/a
404.6965	0.134	809393	keystroke	l	n/a
404.8755	0.06	809751	keystroke	Key.enter	n/a
404.9425	5.095	809885	prompt	n/a	roughly stress lightweight gently\n
405.6265	0.0595	811253	keystroke	r	n/a
405.656	0.1505	811312	keystroke	o	n/a
405.746	0.12	811492	keystroke	u	n/a
405.851	0.075	811702	keystroke	g	n/a
405.971	0.1045	811942	keystroke	h	n/a
406.1365	0.15	812273	keystroke	l	n/a
406.3315	0.089	812663	keystroke	y	n/a
406.496	0.15	812992	keystroke	Key.space	n/a
406.632	0.1645	813264	keystroke	s	n/a
406.7665	0.09	813533	keystroke	t	n/a
406.9465	0.135	813893	keystroke	r	n/a
407.0515	0.1655	814103	keystroke	e	n/a
407.156	0.0755	814312	keystroke	s	n/a
407.336	0.135	814672	keystroke	s	n/a
407.486	0.165	814972	keystroke	Key.space	n/a
407.681	0.1655	815362	keystroke	l	n/a
407.816	0.1355	815632	keystroke	i	n/a
407.891	0.0905	815782	keystroke	g	n/a
407.996	0.12	815992	keystroke	h	n/a
408.101	0.12	816202	keystroke	t	n/a
408.356	0.1805	816712	keystroke	w	n/a
408.491	0.1055	816982	keystroke	e	n/a
408.6255	0.1355	817251	keystroke	i	n/a
408.701	0.075	817402	keystroke	g	n/a
408.7915	0.1195	817583	keystroke	h	n/a
408.896	0.075	817792	keystroke	t	n/a
409.001	0.12	818002	keystroke	Key.space	n/a
409.136	0.105	818272	keystroke	g	n/a
409.271	0.09	818542	keystroke	e	n/a
409.3915	0.165	818783	keystroke	n	n/a
409.511	0.075	819022	keystroke	t	n/a
409.571	0.1505	819142	keystroke	l	n/a
409.736	0.075	819472	keystroke	y	n/a
409.961	0.075	819922	keystroke	Key.enter	n/a
410.042	5.336	820084	prompt	n/a	hasn't failed brochure compound\n
410.6815	0.12	821363	keystroke	h	n/a
410.7405	0.18	821481	keystroke	a	n/a
410.8155	0.1655	821631	keystroke	s	n/a
410.9355	0.076	821871	keystroke	n	n/a
411.0565	0.135	822113	keystroke	'	n/a
411.2065	0.075	822413	keystroke	t	n/a
411.311	0.1195	822622	keystroke	Key.space	n/a
411.4455	0.0905	822891	keystroke	f	n/a
411.5215	0.165	823043	keystroke	a	n/a
411.5965	0.135	823193	keystroke	i	n/a
411.6715	0.165	823343	keystroke	l	n/a
411.7605	0.106	823521	keystroke	e	n/a
411.941	0.105	823882	keystroke	d	n/a
412.091	0.1345	824182	keystroke	Key.space	n/a
412.4215	0.089	824843	keystroke	b	n/a
412.646	0.0905	825292	keystroke	r	n/a
412.7505	0.12	825501	keystroke	o	n/a
413.0365	0.1345	826073	keystroke	c	n/a
413.216	0.1355	826432	keystroke	h	n/a
413.5005	0.135	827001	keystroke	u	n/a
413.6805	0.1355	827361	keystroke	r	n/a
413.7705	0.136	827541	keystroke	e	n/a
413.9205	0.1505	827841	keystroke	Key.space	n/a
414.1015	0.135	828203	keystroke	c	n/a
414.1915	0.1495	828383	keystroke	o	n/a
414.3565	0.1345	828713	keystroke	m	n/a
414.5355	0.0905	829071	keystroke	p	n/a
414.821	0.1645	829642	keystroke	o	n/a
414.9255	0.0755	829851	keystroke	u	n/a
415.106	0.105	830212	keystroke	n	n/a
415.1665	0.1195	830333	keystroke	d	n/a
415.301	0.075	830602	keystroke	Key.enter	n/a
415.3825	7.8105	830765	prompt	n/a	height knives quotations measured\n
416.0815	0.1045	832163	keystroke	h	n/a
416.141	0.12	832282	keystroke	e	n/a
416.2765	0.15	832553	keystroke	i	n/a
416.381	0.09	832762	keystroke	g	n/a
416.456	0.12	832912	keystroke	h	n/a
416.696	0.1355	833392	keystroke	Key.space	n/a
416.8165	0.15	833633	keystroke	k	n/a
416.9515	0.12	833903	keystroke	n	n/a
417.1465	0.165	834293	keystroke	i	n/a
417.3865	0.135	834773	keystroke	v	n/a
417.4765	0.165	834953	keystroke	e	n/a
417.5665	0.15	835133	keystroke	s	n/a
417.6865	0.135	835373	keystroke	Key.space	n/a
417.9265	0.105	835853	keystroke	q	n/a
417.9715	0.1345	835943	keystroke	u	n/a
418.256	0.18	836512	keystroke	a	n/a
418.496	0.075	836992	keystroke	o	n/a
419.6815	0.105	839363	keystroke	Key.backspace	n/a
419.831	0.135	839662	keystroke	Key.backspace	n/a
420.7765	0.075	841553	keystroke	o	n/a
421.151	0.0755	842302	keystroke	t	n/a
421.241	0.1505	842482	keystroke	a	n/a
421.331	0.1355	842662	keystroke	t	n/a
421.4515	0.1195	842903	keystroke	i	n/a
421.556	0.075	843112	keystroke	o	n/a
421.616	0.135	843232	keystroke	n	n/a
421.826	0.2105	843652	keystroke	s	n/a
422.0805	0.1355	844161	keystroke	Key.space	n/a
422.2765	0.1795	844553	keystroke	m	n/a
422.366	0.15	844732	keystroke	e	n/a
422.471	0.1055	844942	keystroke	a	n/a
422.6515	0.15	845303	keystroke	s	n/a
422.8165	0.12	845633	keystroke	u	n/a
422.9065	0.12	845813	keystroke	r	n/a
422.9815	0.12	845963	keystroke	e	n/a
423.1165	0.0745	846233	keystroke	Key.enter	n/a
423.197	6.491	846394	prompt	n/a	proposals victims tile cartridge\n
424.1515	0.134	848303	keystroke	p	n/a
424.3165	0.1195	848633	keystroke	r	n/a
424.5705	0.136	849141	keystroke	o	n/a
425.0365	0.18	850073	keystroke	p	n/a
425.546	0.135	851092	keystroke	o	n/a
425.8315	0.1795	851663	keystroke	s	n/a
425.951	0.1205	851902	keystroke	a	n/a
426.026	0.18	852052	keystroke	l	n/a
426.161	0.1495	852322	keystroke	s	n/a
426.3405	0.136	852681	keystroke	Key.space	n/a
426.551	0.1205	853102	keystroke	v	n/a
426.656	0.1505	853312	keystroke	i	n/a
426.8205	0.12	853641	keystroke	c	n/a
427.1055	0.12	854211	keystroke	t	n/a
427.1815	0.1045	854363	keystroke	i	n/a
427.2715	0.165	854543	keystroke	m	n/a
427.3915	0.149	854783	keystroke	s	n/a
427.5255	0.135	855051	keystroke	Key.space	n/a
427.6765	0.105	855353	keystroke	t	n/a
427.7365	0.12	855473	keystroke	i	n/a
427.8415	0.15	855683	keystroke	l	n/a
427.901	0.1205	855802	keystroke	e	n/a
428.066	0.12	856132	keystroke	Key.space	n/a
428.201	0.1055	856402	keystroke	c	n/a
428.3215	0.1345	856643	keystroke	a	n/a
428.3965	0.1045	856793	keystroke	r	n/a
428.666	0.1055	857332	keystroke	t	n/a
428.9065	0.119	857813	keystroke	r	n/a
429.072	0.164	858144	keystroke	i	n/a
429.1765	0.165	858353	keystroke	d	n/a
429.356	0.135	858712	keystroke	g	n/a
429.446	0.12	858892	keystroke	e	n/a
429.596	0.09	859192	keystroke	Key.enter	n/a
429.6925	6.94	859385	prompt	n/a	bags transmit measurements voyuer\n
430.526	0.1205	861052	keystroke	b	n/a
430.661	0.1655	861322	keystroke	a	n/a
430.766	0.195	861532	keystroke	g	n/a
430.9465	0.1645	861893	keystroke	s	n/a
431.171	0.1645	862342	keystroke	Key.space	n/a
431.4705	0.091	862941	keystroke	t	n/a
431.6665	0.15	863333	keystroke	r	n/a
431.8315	0.1795	863663	keystroke	a	n/a
432.056	0.18	864112	keystroke	n	n/a
432.221	0.1345	864442	keystroke	s	n/a
432.4165	0.1495	864833	keystroke	m	n/a
432.551	0.1355	865102	keystroke	i	n/a
432.701	0.165	865402	keystroke	s	n/a
433.1215	0.045	866243	keystroke	Key.backspace	n/a
433.2265	0.105	866453	keystroke	t	n/a
433.3915	0.165	866783	keystroke	Key.space	n/a
433.527	0.1945	867054	keystroke	m	n/a
433.6765	0.12	867353	keystroke	e	n/a
433.7665	0.15	867533	keystroke	a	n/a
433.8715	0.135	867743	keystroke	s	n/a
434.0815	0.135	868163	keystroke	u	n/a
434.2015	0.135	868403	keystroke	r	n/a
434.2915	0.1345	868583	keystroke	e	n/a
434.6055	0.136	869211	keystroke	m	n/a
434.7115	0.194	869423	keystroke	e	n/a
434.8465	0.135	869693	keystroke	n	n/a
434.921	0.1045	869842	keystroke	t	n/a
434.9965	0.15	869993	keystroke	s	n/a
435.1465	0.134	870293	keystroke	Key.space	n/a
435.3565	0.119	870713	keystroke	v	n/a
435.4615	0.149	870923	keystroke	o	n/a
435.7015	0.0745	871403	keystroke	y	n/a
436.0765	0.15	872153	keystroke	u	n/a
436.181	0.1195	872362	keystroke	e	n/a
436.4055	0.105	872811	keystroke	r	n/a
436.571	0.06	873142	keystroke	Key.enter	n/a
436.6365	6.0265	873273	prompt	n/a	manga renewable caroline indicator\n
437.2755	0.166	874551	keystroke	m	n/a
437.531	0.2105	875062	keystroke	a	n/a
437.7105	0.1655	875421	keystroke	n	n/a
437.8915	0.134	875783	keystroke	g	n/a
438.041	0.1495	876082	keystroke	a	n/a
438.2205	0.165	876441	keystroke	Key.space	n/a
438.491	0.1365	876982	keystroke	r	n/a
438.596	0.1205	877192	keystroke	e	n/a
438.7615	0.15	877523	keystroke	n	n/a
438.8815	0.195	877763	keystroke	e	n/a
439.0165	0.12	878033	keystroke	w	n/a
439.2565	0.12	878513	keystroke	a	n/a
439.4065	0.0895	878813	keystroke	b	n/a
439.511	0.1645	879022	keystroke	l	n/a
439.6005	0.1055	879201	keystroke	e	n/a
439.736	0.135	879472	keystroke	Key.space	n/a
439.9015	0.1045	879803	keystroke	c	n/a
440.0205	0.151	880041	keystroke	a	n/a
440.1265	0.135	880253	keystroke	r	n/a
440.3215	0.12	880643	keystroke	o	n/a
440.696	0.1795	881392	keystroke	l	n/a
440.8615	0.1195	881723	keystroke	i	n/a
440.9655	0.135	881931	keystroke	n	n/a
441.0105	0.1055	882021	keystroke	e	n/a
441.191	0.15	882382	keystroke	Key.space	n/a
441.356	0.1055	882712	keystroke	i	n/a
441.446	0.135	882892	keystroke	n	n/a
441.596	0.105	883192	keystroke	d	n/a
441.6715	0.1345	883343	keystroke	i	n/a
441.956	0.1205	883912	keystroke	c	n/a
442.091	0.12	884182	keystroke	a	n/a
442.1965	0.1045	884393	keystroke	t	n/a
442.286	0.12	884572	keystroke	o	n/a
442.3915	0.1045	884783	keystroke	r	n/a
442.5855	0.075	885171	keystroke	Key.enter	n/a
442.667	6.6115	885334	prompt	n/a	alice surveillance flashing suffered\n
443.2915	0.135	886583	keystroke	a	n/a
443.3665	0.165	886733	keystroke	l	n/a
443.4865	0.135	886973	keystroke	i	n/a
443.5315	0.104	887063	keystroke	c	n/a
443.7265	0.089	887453	keystroke	e	n/a
443.8905	0.121	887781	keystroke	Key.space	n/a
444.0715	0.15	888143	keystroke	s	n/a
444.236	0.135	888472	keystroke	u	n/a
444.341	0.09	888682	keystroke	r	n/a
444.5815	0.135	889163	keystroke	v	n/a
444.701	0.1345	889402	keystroke	e	n/a
445.241	0.18	890482	keystroke	i	n/a
445.496	0.165	890992	keystroke	l	n/a
445.826	0.105	891652	keystroke	l	n/a
446.006	0.195	892012	keystroke	a	n/a
446.186	0.135	892372	keystroke	n	n/a
446.306	0.06	892612	keystroke	c	n/a
446.501	0.0895	893002	keystroke	e	n/a
446.6365	0.1195	893273	keystroke	Key.space	n/a
446.771	0.15	893542	keystroke	f	n/a
446.8615	0.194	893723	keystroke	l	n/a
447.0105	0.165	894021	keystroke	a	n/a
447.1155	0.166	894231	keystroke	s	n/a
447.2665	0.1195	894533	keystroke	h	n/a
447.371	0.1345	894742	keystroke	i	n/a
447.4905	0.135	894981	keystroke	n	n/a
447.581	0.0895	895162	keystroke	g	n/a
447.7455	0.165	895491	keystroke	Key.space	n/a
448.1065	0.1645	896213	keystroke	s	n/a
448.211	0.12	896422	keystroke	u	n/a
448.316	0.0905	896632	keystroke	f	n/a
448.496	0.0755	896992	keystroke	f	n/a
448.661	0.1345	897322	keystroke	e	n/a
448.7365	0.165	897473	keystroke	r	n/a
448.8565	0.105	897713	keystroke	e	n/a
449.0515	0.135	898103	keystroke	d	n/a
449.1715	0.105	898343	keystroke	Key.enter	n/a
449.2825	10.0755	898565	prompt	n/a	tunes terror securities paragraphs\n
450.0715	0.1195	900143	keystroke	t	n/a
450.146	0.06	900292	keystroke	u	n/a
450.326	0.1205	900652	keystroke	n	n/a
450.371	0.165	900742	keystroke	e	n/a
450.461	0.135	900922	keystroke	s	n/a
450.611	0.165	901222	keystroke	Key.space	n/a
450.8515	0.1345	901703	keystroke	t	n/a
451.061	0.18	902122	keystroke	e	n/a
451.196	0.105	902392	keystroke	r	n/a
451.391	0.12	902782	keystroke	r	n/a
451.526	0.12	903052	keystroke	o	n/a
451.647	0.1195	903294	keystroke	r	n/a
451.856	0.135	903712	keystroke	Key.space	n/a
452.8165	0.165	905633	keystroke	s	n/a
452.951	0.105	905902	keystroke	e	n/a
453.1915	0.1195	906383	keystroke	c	n/a
453.3415	0.135	906683	keystroke	u	n/a
453.5965	0.12	907193	keystroke	r	n/a
453.7305	0.136	907461	keystroke	i	n/a
453.8505	0.1355	907701	keystroke	t	n/a
454.0155	0.105	908031	keystroke	y	n/a
454.6155	0.06	909231	keystroke	Key.backspace	n/a
454.766	0.06	909532	keystroke	Key.backspace	n/a
454.901	0.075	909802	keystroke	Key.backspace	n/a
455.0655	0.075	910131	keystroke	Key.backspace	n/a
455.6365	0.105	911273	keystroke	u	n/a
455.9805	0.075	911961	keystroke	Key.backspace	n/a
456.2065	0.1045	912413	keystroke	r	n/a
456.4165	0.1505	912833	keystroke	i	n/a
456.581	0.1505	913162	keystroke	t	n/a
456.701	0.1505	913402	keystroke	i	n/a
456.821	0.1655	913642	keystroke	e	n/a
456.912	0.15	913824	keystroke	s	n/a
457.0315	0.1195	914063	keystroke	Key.space	n/a
457.2115	0.105	914423	keystroke	p	n/a
457.3315	0.15	914663	keystroke	a	n/a
457.4665	0.15	914933	keystroke	r	n/a
457.6465	0.18	915293	keystroke	a	n/a
457.8715	0.105	915743	keystroke	p	n/a
458.3065	0.075	916613	keystroke	Key.backspace	n/a
458.4865	0.0745	916973	keystroke	g	n/a
458.666	0.0755	917332	keystroke	r	n/a
458.7255	0.195	917451	keystroke	a	n/a
458.8765	0.0895	917753	keystroke	p	n/a
458.982	0.1495	917964	keystroke	h	n/a
459.1015	0.15	918203	keystroke	s	n/a
459.296	0.06	918592	keystroke	Key.enter	n/a
459.365	6.428	918730	prompt	n/a	resulting prison france who've\n
459.986	0.12	919972	keystroke	r	n/a
460.167	0.194	920334	keystroke	e	n/a
460.346	0.1655	920692	keystroke	s	n/a
460.7065	0.12	921413	keystroke	u	n/a
460.8715	0.165	921743	keystroke	l	n/a
461.0215	0.105	922043	keystroke	t	n/a
461.1105	0.121	922221	keystroke	i	n/a
461.2155	0.165	922431	keystroke	n	n/a
461.3215	0.12	922643	keystroke	g	n/a
461.4565	0.059	922913	keystroke	Key.space	n/a
461.5325	0.104	923065	keystroke	p	n/a
461.6215	0.1195	923243	keystroke	r	n/a
461.7115	0.135	923423	keystroke	i	n/a
461.8615	0.1645	923723	keystroke	s	n/a
462.0115	0.1195	924023	keystroke	o	n/a
462.1165	0.12	924233	keystroke	n	n/a
462.311	0.12	924622	keystroke	Key.space	n/a
462.446	0.165	924892	keystroke	f	n/a
462.6415	0.1645	925283	keystroke	a	n/a
463.031	0.165	926062	keystroke	n	n/a
463.2115	0.0895	926423	keystroke	c	n/a
463.5415	0.0595	927083	keystroke	Key.backspace	n/a
463.706	0.0595	927412	keystroke	Key.backspace	n/a
463.8855	0.045	927771	keystroke	Key.backspace	n/a
464.0815	0.104	928163	keystroke	r	n/a
464.2015	0.1795	928403	keystroke	a	n/a
464.3505	0.1355	928701	keystroke	n	n/a
464.456	0.105	928912	keystroke	c	n/a
464.6805	0.106	929361	keystroke	e	n/a
464.7865	0.15	929573	keystroke	Key.space	n/a
464.9205	0.121	929841	keystroke	w	n/a
464.9665	0.105	929933	keystroke	h	n/a
