onset	duration	sample	value	key	prompt_text
3.3175	8.347	6635	prompt	n/a	the quick brown fox jumps over a lazy dog\n
4.507	0.0275	9014	keystroke_t	t	n/a
4.579	0.12	9158	keystroke_h	h	n/a
4.864	0.12	9728	keystroke_e	e	n/a
5.0595	0.0895	10119	keystroke_Key.space	Key.space	n/a
5.1645	0.1045	10329	keystroke_q	q	n/a
5.329	0.0755	10658	keystroke_u	u	n/a
5.4645	0.1045	10929	keystroke_i	i	n/a
5.644	0.075	11288	keystroke_c	c	n/a
5.72	0.0895	11440	keystroke_k	k	n/a
5.8545	0.0905	11709	keystroke_Key.space	Key.space	n/a
6.0505	0.09	12101	keystroke_b	b	n/a
6.2	0.0895	12400	keystroke_r	r	n/a
6.26	0.1355	12520	keystroke_o	o	n/a
6.4705	0.1055	12941	keystroke_w	w	n/a
6.591	0.0905	13182	keystroke_n	n	n/a
6.7555	0.105	13511	keystroke_Key.space	Key.space	n/a
6.9355	0.09	13871	keystroke_f	f	n/a
7.0555	0.09	14111	keystroke_o	o	n/a
7.281	0.09	14562	keystroke_x	x	n/a
7.3855	0.105	14771	keystroke_Key.space	Key.space	n/a
7.551	0.0905	15102	keystroke_j	j	n/a
7.731	0.0745	15462	keystroke_u	u	n/a
8.241	0.09	16482	keystroke_m	m	n/a
8.466	0.0755	16932	keystroke_p	p	n/a
8.5715	0.1045	17143	keystroke_s	s	n/a
8.691	0.09	17382	keystroke_Key.space	Key.space	n/a
8.8115	0.105	17623	keystroke_o	o	n/a
9.141	0.12	18282	keystroke_v	v	n/a
9.396	0.195	18792	keystroke_e	e	n/a
9.5315	0.1645	19063	keystroke_r	r	n/a
9.681	0.09	19362	keystroke_Key.space	Key.space	n/a
9.8465	0.104	19693	keystroke_a	a	n/a
9.9355	0.0905	19871	keystroke_Key.space	Key.space	n/a
10.311	0.0755	20622	keystroke_l	l	n/a
10.521	0.0905	21042	keystroke_a	a	n/a
10.731	0.1505	21462	keystroke_z	z	n/a
10.896	0.0755	21792	keystroke_y	y	n/a
11.001	0.105	22002	keystroke_Key.space	Key.space	n/a
11.1515	0.075	22303	keystroke_d	d	n/a
11.2715	0.09	22543	keystroke_o	o	n/a
11.3915	0.09	22783	keystroke_g	g	n/a
11.586	0.075	23172	keystroke_Key.enter	Key.enter	n/a
11.6715	25.687	23343	prompt	n/a	velvet thereafter transaction acknowledged\n
12.4865	0.09	24973	keystroke_v	v	n/a
12.636	0.12	25272	keystroke_e	e	n/a
12.7715	0.0895	25543	keystroke_l	l	n/a
12.9215	0.0895	25843	keystroke_v	v	n/a
13.1315	0.0895	26263	keystroke_e	e	n/a
13.3855	0.106	26771	keystroke_t	t	n/a
13.686	0.105	27372	keystroke_Key.space	Key.space	n/a
14.167	0.089	28334	keystroke_t	t	n/a
14.271	0.09	28542	keystroke_h	h	n/a
14.4055	0.1805	28811	keystroke_e	e	n/a
14.541	0.1355	29082	keystroke_r	r	n/a
14.886	0.12	29772	keystroke_a	a	n/a
15.096	0.075	30192	keystroke_f	f	n/a
15.2765	0.0895	30553	keystroke_t	t	n/a
15.3815	0.1645	30763	keystroke_e	e	n/a
15.471	0.1345	30942	keystroke_r	r	n/a
15.696	0.1045	31392	keystroke_Key.space	Key.space	n/a
15.951	0.0755	31902	keystroke_t	t	n/a
16.281	0.1505	32562	keystroke_r	r	n/a
16.4915	0.0895	32983	keystroke_a	a	n/a
16.641	0.105	33282	keystroke_n	n	n/a
16.8515	0.09	33703	keystroke_s	s	n/a
19.3885	0.028	38777	keystroke_Key.backspace	Key.backspace	n/a
19.5065	0.06	39013	keystroke_Key.backspace	Key.backspace	n/a
19.6415	0.075	39283	keystroke_Key.backspace	Key.backspace	n/a
19.8215	0.045	39643	keystroke_Key.backspace	Key.backspace	n/a
19.9865	0.06	39973	keystroke_Key.backspace	Key.backspace	n/a
20.151	0.0605	40302	keystroke_Key.backspace	Key.backspace	n/a
20.316	0.075	40632	keystroke_Key.backspace	Key.backspace	n/a
20.5115	0.0295	41023	keystroke_Key.backspace	Key.backspace	n/a
20.661	0.0755	41322	keystroke_Key.backspace	Key.backspace	n/a
20.871	0.09	41742	keystroke_Key.backspace	Key.backspace	n/a
21.2165	0.06	42433	keystroke_Key.backspace	Key.backspace	n/a
21.786	0.075	43572	keystroke_e	e	n/a
22.207	0.149	44414	keystroke_a	a	n/a
22.386	0.075	44772	keystroke_f	f	n/a
22.5065	0.09	45013	keystroke_t	t	n/a
22.5815	0.1945	45163	keystroke_e	e	n/a
22.716	0.1205	45432	keystroke_r	r	n/a
22.896	0.0905	45792	keystroke_Key.space	Key.space	n/a
23.602	0.149	47204	keystroke_t	t	n/a
23.752	0.03	47504	keystroke_r	r	n/a
23.796	0.1505	47592	keystroke_a	a	n/a
24.261	0.0905	48522	keystroke_n	n	n/a
24.486	0.06	48972	keystroke_s	s	n/a
24.726	0.1805	49452	keystroke_a	a	n/a
24.981	0.0905	49962	keystroke_c	c	n/a
25.281	0.0755	50562	keystroke_t	t	n/a
25.4165	0.0895	50833	keystroke_i	i	n/a
25.5965	0.1195	51193	keystroke_o	o	n/a
25.837	0.089	51674	keystroke_n	n	n/a
26.0005	0.076	52001	keystroke_Key.space	Key.space	n/a
26.1215	0.12	52243	keystroke_a	a	n/a
26.3465	0.09	52693	keystroke_c	c	n/a
26.4665	0.105	52933	keystroke_k	k	n/a
26.7815	0.059	53563	keystroke_n	n	n/a
26.9765	0.075	53953	keystroke_o	o	n/a
27.0965	0.0895	54193	keystroke_w	w	n/a
27.2465	0.105	54493	keystroke_l	l	n/a
27.5465	0.105	55093	keystroke_e	e	n/a
28.2215	0.105	56443	keystroke_Key.backspace	Key.backspace	n/a
28.7165	0.105	57433	keystroke_e	e	n/a
28.851	0.0755	57702	keystroke_d	d	n/a
28.9855	0.091	57971	keystroke_g	g	n/a
29.1515	0.105	58303	keystroke_e	e	n/a
29.5265	0.12	59053	keystroke_f	f	n/a
29.7215	0.044	59443	keystroke_e	e	n/a
30.336	0.0895	60672	keystroke_Key.backspace	Key.backspace	n/a
31.1455	0.1205	62291	keystroke_Key.backspace	Key.backspace	n/a
32.3915	0.09	64783	keystroke_d	d	n/a
32.4955	0.0905	64991	keystroke_Key.space	Key.space	n/a
33.472	0.1345	66944	keystroke_a	a	n/a
33.741	0.0905	67482	keystroke_c	c	n/a
33.906	0.1055	67812	keystroke_k	k	n/a
35.1655	0.106	70331	keystroke_Key.backspace	Key.backspace	n/a
35.406	0.1195	70812	keystroke_Key.backspace	Key.backspace	n/a
35.7515	0.104	71503	keystroke_Key.backspace	Key.backspace	n/a
36.891	0.1205	73782	keystroke_Key.backspace	Key.backspace	n/a
37.2515	0.1045	74503	keystroke_Key.enter	Key.enter	n/a
37.3615	6.5365	74723	prompt	n/a	valentine goal kidney lawyers\n
38.1665	0.1495	76333	keystroke_v	v	n/a
38.331	0.151	76662	keystroke_a	a	n/a
38.496	0.1055	76992	keystroke_l	l	n/a
39.006	0.1495	78012	keystroke_e	e	n/a
39.1705	0.0905	78341	keystroke_n	n	n/a
39.246	0.1195	78492	keystroke_t	t	n/a
39.3965	0.0755	78793	keystroke_i	i	n/a
39.5765	0.075	79153	keystroke_n	n	n/a
39.6965	0.0895	79393	keystroke_e	e	n/a
39.816	0.0905	79632	keystroke_Key.space	Key.space	n/a
40.1915	0.09	80383	keystroke_g	g	n/a
40.296	0.105	80592	keystroke_o	o	n/a
40.446	0.1505	80892	keystroke_a	a	n/a
40.581	0.1205	81162	keystroke_l	l	n/a
40.806	0.075	81612	keystroke_Key.space	Key.space	n/a
41.106	0.0905	82212	keystroke_k	k	n/a
41.362	0.0585	82724	keystroke_i	i	n/a
41.481	0.091	82962	keystroke_d	d	n/a
41.6765	0.0595	83353	keystroke_n	n	n/a
41.7815	0.1045	83563	keystroke_e	e	n/a
41.976	0.105	83952	keystroke_y	y	n/a
42.171	0.075	84342	keystroke_Key.space	Key.space	n/a
42.441	0.1205	84882	keystroke_l	l	n/a
42.5915	0.1495	85183	keystroke_a	a	n/a
43.012	0.105	86024	keystroke_w	w	n/a
43.236	0.0755	86472	keystroke_y	y	n/a
43.371	0.195	86742	keystroke_e	e	n/a
43.506	0.166	87012	keystroke_r	r	n/a
43.657	0.1195	87314	keystroke_s	s	n/a
43.791	0.105	87582	keystroke_Key.enter	Key.enter	n/a
43.902	5.9065	87804	prompt	n/a	listings beef bicycle slip\n
44.4665	0.12	88933	keystroke_l	l	n/a
44.6465	0.09	89293	keystroke_i	i	n/a
44.7515	0.105	89503	keystroke_s	s	n/a
44.976	0.0755	89952	keystroke_t	t	n/a
45.006	0.0755	90012	keystroke_i	i	n/a
45.2615	0.0605	90523	keystroke_n	n	n/a
45.382	0.1045	90764	keystroke_g	g	n/a
45.682	0.105	91364	keystroke_s	s	n/a
45.7715	0.09	91543	keystroke_Key.space	Key.space	n/a
46.131	0.0755	92262	keystroke_b	b	n/a
46.266	0.06	92532	keystroke_e	e	n/a
46.461	0.165	92922	keystroke_e	e	n/a
46.6865	0.1195	93373	keystroke_f	f	n/a
46.851	0.1055	93702	keystroke_Key.space	Key.space	n/a
47.706	0.09	95412	keystroke_b	b	n/a
47.841	0.105	95682	keystroke_i	i	n/a
48.0365	0.0755	96073	keystroke_c	c	n/a
48.172	0.089	96344	keystroke_y	y	n/a
48.3805	0.0755	96761	keystroke_c	c	n/a
48.4715	0.1345	96943	keystroke_l	l	n/a
48.6655	0.106	97331	keystroke_e	e	n/a
48.786	0.105	97572	keystroke_Key.space	Key.space	n/a
49.026	0.12	98052	keystroke_s	s	n/a
49.1005	0.1065	98201	keystroke_l	l	n/a
49.296	0.0745	98592	keystroke_i	i	n/a
49.4915	0.075	98983	keystroke_p	p	n/a
49.7315	0.075	99463	keystroke_Key.enter	Key.enter	n/a
49.8135	7.3	99627	prompt	n/a	flood amended indices every\n
50.647	0.0145	101294	keystroke_g	g	n/a
51.201	0.105	102402	keystroke_Key.backspace	Key.backspace	n/a
51.411	0.076	102822	keystroke_f	f	n/a
51.5915	0.0905	103183	keystroke_l	l	n/a
51.787	0.075	103574	keystroke_o	o	n/a
51.9515	0.0755	103903	keystroke_o	o	n/a
52.116	0.0755	104232	keystroke_d	d	n/a
52.2815	0.09	104563	keystroke_Key.space	Key.space	n/a
52.5515	0.1055	105103	keystroke_a	a	n/a
52.686	0.1055	105372	keystroke_m	m	n/a
52.9415	0.0745	105883	keystroke_d	d	n/a
53.3015	0.0745	106603	keystroke_Key.backspace	Key.backspace	n/a
53.4365	0.1045	106873	keystroke_e	e	n/a
53.631	0.0755	107262	keystroke_n	n	n/a
53.8265	0.105	107653	keystroke_d	d	n/a
53.9615	0.15	107923	keystroke_e	e	n/a
54.0965	0.135	108193	keystroke_d	d	n/a
54.2915	0.105	108583	keystroke_Key.space	Key.space	n/a
54.5165	0.06	109033	keystroke_i	i	n/a
54.7115	0.09	109423	keystroke_n	n	n/a
55.0565	0.09	110113	keystroke_d	d	n/a
55.2065	0.075	110413	keystroke_i	i	n/a
55.3415	0.1205	110683	keystroke_c	c	n/a
55.5815	0.165	111163	keystroke_e	e	n/a
55.7165	0.1355	111433	keystroke_s	s	n/a
55.9115	0.105	111823	keystroke_Key.space	Key.space	n/a
56.1665	0.09	112333	keystroke_e	e	n/a
56.376	0.09	112752	keystroke_v	v	n/a
56.452	0.164	112904	keystroke_e	e	n/a
56.571	0.135	113142	keystroke_r	r	n/a
56.661	0.09	113322	keystroke_y	y	n/a
56.946	0.165	113892	keystroke_Key.enter	Key.enter	n/a
57.1185	6.866	114237	prompt	n/a	wrist improvements fans timely\n
57.742	0.1345	115484	keystroke_w	w	n/a
57.9065	0.09	115813	keystroke_r	r	n/a
58.042	0.074	116084	keystroke_i	i	n/a
58.1315	0.1195	116263	keystroke_s	s	n/a
58.3715	0.1195	116743	keystroke_t	t	n/a
58.552	0.119	117104	keystroke_Key.space	Key.space	n/a
58.806	0.09	117612	keystroke_i	i	n/a
59.0165	0.075	118033	keystroke_m	m	n/a
59.2115	0.09	118423	keystroke_p	p	n/a
59.3915	0.09	118783	keystroke_r	r	n/a
59.5415	0.0905	119083	keystroke_o	o	n/a
59.9765	0.1045	119953	keystroke_v	v	n/a
60.246	0.06	120492	keystroke_e	e	n/a
60.771	0.045	121542	keystroke_m	m	n/a
60.8465	0.1045	121693	keystroke_e	e	n/a
60.966	0.09	121932	keystroke_n	n	n/a
61.071	0.105	122142	keystroke_t	t	n/a
61.3265	0.09	122653	keystroke_s	s	n/a
61.462	0.0745	122924	keystroke_Key.space	Key.space	n/a
61.6415	0.1205	123283	keystroke_f	f	n/a
61.822	0.09	123644	keystroke_a	a	n/a
61.912	0.0895	123824	keystroke_n	n	n/a
62.0765	0.1045	124153	keystroke_s	s	n/a
62.271	0.09	124542	keystroke_Key.space	Key.space	n/a
62.646	0.12	125292	keystroke_t	t	n/a
62.796	0.06	125592	keystroke_i	i	n/a
62.9615	0.1055	125923	keystroke_m	m	n/a
63.1115	0.075	126223	keystroke_e	e	n/a
63.2615	0.12	126523	keystroke_l	l	n/a
63.622	0.0595	127244	keystroke_y	y	n/a
63.8765	0.105	127753	keystroke_Key.enter	Key.enter	n/a
63.9955	10.7575	127991	prompt	n/a	september exempt qualities street\n
64.8965	0.135	129793	keystroke_s	s	n/a
65.017	0.1195	130034	keystroke_e	e	n/a
65.2565	0.075	130513	keystroke_p	p	n/a
65.7665	0.12	131533	keystroke_t	t	n/a
65.9765	0.0905	131953	keystroke_e	e	n/a
66.1265	0.0755	132253	keystroke_m	m	n/a
66.4865	0.09	132973	keystroke_b	b	n/a
66.6215	0.18	133243	keystroke_e	e	n/a
66.786	0.106	133572	keystroke_r	r	n/a
66.936	0.09	133872	keystroke_Key.space	Key.space	n/a
68.1365	0.105	136273	keystroke_e	e	n/a
68.7665	0.06	137533	keystroke_x	x	n/a
68.976	0.12	137952	keystroke_c	c	n/a
69.1565	0.135	138313	keystroke_e	e	n/a
69.5015	0.0595	139003	keystroke_p	p	n/a
69.9365	0.06	139873	keystroke_Key.backspace	Key.backspace	n/a
70.0865	0.075	140173	keystroke_Key.backspace	Key.backspace	n/a
70.2815	0.045	140563	keystroke_Key.backspace	Key.backspace	n/a
70.6115	0.1055	141223	keystroke_e	e	n/a
70.7315	0.075	141463	keystroke_m	m	n/a
70.9565	0.09	141913	keystroke_p	p	n/a
71.2115	0.09	142423	keystroke_t	t	n/a
71.616	0.1205	143232	keystroke_Key.space	Key.space	n/a
72.306	0.105	144612	keystroke_q	q	n/a
72.457	0.09	144914	keystroke_u	u	n/a
72.562	0.089	145124	keystroke_a	a	n/a
72.682	0.1045	145364	keystroke_l	l	n/a
72.907	0.059	145814	keystroke_i	i	n/a
72.981	0.1055	145962	keystroke_t	t	n/a
73.101	0.105	146202	keystroke_i	i	n/a
73.296	0.1805	146592	keystroke_e	e	n/a
73.4165	0.1355	146833	keystroke_s	s	n/a
73.5965	0.1045	147193	keystroke_Key.space	Key.space	n/a
73.762	0.089	147524	keystroke_s	s	n/a
73.941	0.0755	147882	keystroke_t	t	n/a
74.062	0.149	148124	keystroke_r	r	n/a
74.226	0.09	148452	keystroke_e	e	n/a
74.421	0.076	148842	keystroke_e	e	n/a
74.5865	0.1045	149173	keystroke_t	t	n/a
74.676	0.075	149352	keystroke_Key.enter	Key.enter	n/a
74.7595	7.8985	149519	prompt	n/a	reserves playback purpose quotes\n
75.4415	0.135	150883	keystroke_r	r	n/a
75.6065	0.134	151213	keystroke_e	e	n/a
76.236	0.105	152472	keystroke_s	s	n/a
76.356	0.15	152712	keystroke_e	e	n/a
76.521	0.091	153042	keystroke_r	r	n/a
76.807	0.1045	153614	keystroke_v	v	n/a
77.0615	0.15	154123	keystroke_e	e	n/a
77.182	0.1195	154364	keystroke_s	s	n/a
77.376	0.0905	154752	keystroke_Key.space	Key.space	n/a
77.6165	0.074	155233	keystroke_p	p	n/a
77.7965	0.12	155593	keystroke_l	l	n/a
77.9015	0.105	155803	keystroke_a	a	n/a
78.0665	0.0755	156133	keystroke_y	y	n/a
78.2765	0.09	156553	keystroke_b	b	n/a
78.3815	0.15	156763	keystroke_a	a	n/a
78.621	0.105	157242	keystroke_c	c	n/a
78.741	0.105	157482	keystroke_k	k	n/a
78.966	0.09	157932	keystroke_Key.space	Key.space	n/a
79.176	0.09	158352	keystroke_p	p	n/a
79.461	0.076	158922	keystroke_u	u	n/a
79.596	0.09	159192	keystroke_r	r	n/a
79.776	0.075	159552	keystroke_p	p	n/a
79.8965	0.1055	159793	keystroke_o	o	n/a
80.107	0.089	160214	keystroke_s	s	n/a
80.166	0.105	160332	keystroke_e	e	n/a
80.556	0.0605	161112	keystroke_s	s	n/a
80.826	0.135	161652	keystroke_Key.space	Key.space	n/a
81.366	0.106	162732	keystroke_q	q	n/a
81.4565	0.09	162913	keystroke_u	u	n/a
81.6515	0.1055	163303	keystroke_o	o	n/a
81.771	0.135	163542	keystroke_t	t	n/a
81.936	0.106	163872	keystroke_e	e	n/a
82.1465	0.09	164293	keystroke_s	s	n/a
82.5515	0.105	165103	keystroke_Key.enter	Key.enter	n/a
82.6615	8.7715	165323	prompt	n/a	snap connecting developmental planned\n
83.287	0.1195	166574	keystroke_s	s	n/a
83.4215	0.1045	166843	keystroke_n	n	n/a
83.556	0.1345	167112	keystroke_a	a	n/a
83.752	0.1045	167504	keystroke_p	p	n/a
83.9315	0.089	167863	keystroke_Key.space	Key.space	n/a
84.2615	0.0905	168523	keystroke_c	c	n/a
84.4415	0.0305	168883	keystroke_o	o	n/a
84.8315	0.0145	169663	keystroke_n	n	n/a
84.9215	0.06	169843	keystroke_n	n	n/a
85.0115	0.0905	170023	keystroke_e	e	n/a
85.222	0.105	170444	keystroke_c	c	n/a
85.462	0.0895	170924	keystroke_t	t	n/a
85.5815	0.075	171163	keystroke_i	i	n/a
85.7315	0.1055	171463	keystroke_n	n	n/a
85.8815	0.06	171763	keystroke_g	g	n/a
86.0015	0.09	172003	keystroke_Key.space	Key.space	n/a
86.5565	0.12	173113	keystroke_d	d	n/a
86.7215	0.09	173443	keystroke_e	e	n/a
86.9315	0.12	173863	keystroke_v	v	n/a
87.1255	0.106	174251	keystroke_e	e	n/a
87.382	0.1045	174764	keystroke_l	l	n/a
87.8765	0.0895	175753	keystroke_o	o	n/a
88.086	0.0455	176172	keystroke_p	p	n/a
88.491	0.045	176982	keystroke_m	m	n/a
88.596	0.12	177192	keystroke_e	e	n/a
88.731	0.09	177462	keystroke_n	n	n/a
88.881	0.106	177762	keystroke_t	t	n/a
89.0615	0.0895	178123	keystroke_Key.space	Key.space	n/a
90.141	0.075	180282	keystroke_p	p	n/a
90.337	0.09	180674	keystroke_l	l	n/a
90.442	0.179	180884	keystroke_a	a	n/a
90.666	0.0905	181332	keystroke_n	n	n/a
90.831	0.075	181662	keystroke_n	n	n/a
90.907	0.179	181814	keystroke_e	e	n/a
91.071	0.121	182142	keystroke_d	d	n/a
91.312	0.1195	182624	keystroke_Key.enter	Key.enter	n/a
91.437	9.536	182874	prompt	n/a	replace restriction launches alto\n
92.301	0.12	184602	keystroke_r	r	n/a
92.422	0.134	184844	keystroke_e	e	n/a
92.5715	0.1045	185143	keystroke_p	p	n/a
92.7965	0.1345	185593	keystroke_l	l	n/a
92.9165	0.1195	185833	keystroke_a	a	n/a
93.1415	0.105	186283	keystroke_c	c	n/a
93.3815	0.15	186763	keystroke_e	e	n/a
94.461	0.06	188922	keystroke_Key.space	Key.space	n/a
94.672	0.119	189344	keystroke_r	r	n/a
94.8065	0.165	189613	keystroke_e	e	n/a
94.9555	0.1215	189911	keystroke_s	s	n/a
95.1965	0.1195	190393	keystroke_t	t	n/a
95.347	0.135	190694	keystroke_r	r	n/a
95.5565	0.09	191113	keystroke_i	i	n/a
95.7505	0.0755	191501	keystroke_c	c	n/a
96.021	0.09	192042	keystroke_t	t	n/a
96.096	0.0755	192192	keystroke_i	i	n/a
96.216	0.1205	192432	keystroke_o	o	n/a
96.4565	0.0895	192913	keystroke_n	n	n/a
96.621	0.075	193242	keystroke_Key.space	Key.space	n/a
96.817	0.074	193634	keystroke_l	l	n/a
96.951	0.09	193902	keystroke_a	a	n/a
97.791	0.075	195582	keystroke_u	u	n/a
98.002	0.0445	196004	keystroke_c	c	n/a
98.407	0.09	196814	keystroke_n	n	n/a
98.8715	0.0445	197743	keystroke_Key.backspace	Key.backspace	n/a
98.9465	0.075	197893	keystroke_Key.backspace	Key.backspace	n/a
99.2015	0.105	198403	keystroke_n	n	n/a
99.3215	0.09	198643	keystroke_c	c	n/a
99.4565	0.105	198913	keystroke_h	h	n/a
99.607	0.1795	199214	keystroke_e	e	n/a
99.7415	0.1495	199483	keystroke_s	s	n/a
99.936	0.105	199872	keystroke_Key.space	Key.space	n/a
100.3115	0.105	200623	keystroke_a	a	n/a
100.3865	0.105	200773	keystroke_l	l	n/a
100.567	0.1045	201134	keystroke_t	t	n/a
100.6565	0.12	201313	keystroke_o	o	n/a
100.8815	0.09	201763	keystroke_Key.enter	Key.enter	n/a
100.978	7.585	201956	prompt	n/a	awesome maritime sandra simply\n
101.6615	0.1495	203323	keystroke_a	a	n/a
101.931	0.0905	203862	keystroke_w	w	n/a
102.1265	0.0905	204253	keystroke_e	e	n/a
102.337	0.0885	204674	keystroke_s	s	n/a
102.4855	0.1055	204971	keystroke_o	o	n/a
103.102	0.1045	206204	keystroke_m	m	n/a
103.2515	0.09	206503	keystroke_e	e	n/a
103.4015	0.075	206803	keystroke_Key.space	Key.space	n/a
103.671	0.0905	207342	keystroke_m	m	n/a
103.7915	0.1645	207583	keystroke_a	a	n/a
104.3765	0.06	208753	keystroke_r	r	n/a
104.5115	0.09	209023	keystroke_i	i	n/a
104.8115	0.09	209623	keystroke_t	t	n/a
104.9465	0.075	209893	keystroke_i	i	n/a
105.1715	0.0605	210343	keystroke_m	m	n/a
105.276	0.09	210552	keystroke_e	e	n/a
105.381	0.075	210762	keystroke_Key.space	Key.space	n/a
105.967	0.119	211934	keystroke_s	s	n/a
106.147	0.1045	212294	keystroke_a	a	n/a
106.296	0.105	212592	keystroke_n	n	n/a
106.491	0.09	212982	keystroke_d	d	n/a
106.716	0.1355	213432	keystroke_r	r	n/a
106.881	0.1505	213762	keystroke_a	a	n/a
107.0615	0.0745	214123	keystroke_Key.space	Key.space	n/a
107.241	0.1055	214482	keystroke_s	s	n/a
107.3615	0.0595	214723	keystroke_i	i	n/a
107.511	0.09	215022	keystroke_m	m	n/a
107.706	0.0605	215412	keystroke_p	p	n/a
107.886	0.076	215772	keystroke_l	l	n/a
108.2015	0.0905	216403	keystroke_y	y	n/a
108.4865	0.0745	216973	keystroke_Key.enter	Key.enter	n/a
108.568	8.14	217136	prompt	n/a	artificial comparative favors distributor\n
109.116	0.165	218232	keystroke_a	a	n/a
109.386	0.0755	218772	keystroke_r	r	n/a
109.581	0.075	219162	keystroke_t	t	n/a
109.701	0.091	219402	keystroke_i	i	n/a
109.8215	0.1055	219643	keystroke_f	f	n/a
109.941	0.09	219882	keystroke_i	i	n/a
110.076	0.1205	220152	keystroke_c	c	n/a
110.2115	0.105	220423	keystroke_i	i	n/a
110.362	0.1195	220724	keystroke_a	a	n/a
110.4665	0.12	220933	keystroke_l	l	n/a
110.6465	0.075	221293	keystroke_Key.space	Key.space	n/a
110.827	0.0885	221654	keystroke_c	c	n/a
110.9015	0.089	221803	keystroke_o	o	n/a
111.097	0.089	222194	keystroke_m	m	n/a
111.292	0.075	222584	keystroke_p	p	n/a
111.396	0.121	222792	keystroke_a	a	n/a
111.6365	0.1195	223273	keystroke_r	r	n/a
111.7865	0.15	223573	keystroke_a	a	n/a
112.086	0.075	224172	keystroke_t	t	n/a
112.2365	0.1055	224473	keystroke_i	i	n/a
112.6715	0.0895	225343	keystroke_v	v	n/a
112.867	0.105	225734	keystroke_e	e	n/a
113.001	0.105	226002	keystroke_Key.space	Key.space	n/a
113.1515	0.105	226303	keystroke_f	f	n/a
113.331	0.1355	226662	keystroke_a	a	n/a
114.3815	0.059	228763	keystroke_v	v	n/a
114.501	0.0755	229002	keystroke_i	i	n/a
114.682	0.134	229364	keystroke_r	r	n/a
114.936	0.075	229872	keystroke_s	s	n/a
115.1465	0.0745	230293	keystroke_Key.backspace	Key.backspace	n/a
115.311	0.0755	230622	keystroke_Key.backspace	Key.backspace	n/a
115.8065	0.0745	231613	keystroke_Key.backspace	Key.backspace	n/a
116.166	0.0755	232332	keystroke_o	o	n/a
116.2865	0.134	232573	keystroke_r	r	n/a
116.4065	0.1345	232813	keystroke_s	s	n/a
116.5705	0.1355	233141	keystroke_Key.enter	Key.enter	n/a
116.7115	6.8065	233423	prompt	n/a	fifth penguin market liabilities\n
117.516	0.0905	235032	keystroke_f	f	n/a
117.652	0.0745	235304	keystroke_i	i	n/a
117.742	0.09	235484	keystroke_f	f	n/a
117.951	0.1055	235902	keystroke_t	t	n/a
118.0865	0.075	236173	keystroke_h	h	n/a
118.2665	0.045	236533	keystroke_Key.space	Key.space	n/a
118.4465	0.03	236893	keystroke_p	p	n/a
118.5215	0.1055	237043	keystroke_e	e	n/a
118.6555	0.106	237311	keystroke_n	n	n/a
118.897	0.0745	237794	keystroke_g	g	n/a
119.391	0.09	238782	keystroke_u	u	n/a
119.722	0.059	239444	keystroke_i	i	n/a
119.946	0.076	239892	keystroke_n	n	n/a
120.066	0.105	240132	keystroke_Key.space	Key.space	n/a
120.246	0.09	240492	keystroke_m	m	n/a
120.351	0.1505	240702	keystroke_a	a	n/a
120.8465	0.09	241693	keystroke_r	r	n/a
120.9965	0.1045	241993	keystroke_k	k	n/a
121.1165	0.1345	242233	keystroke_e	e	n/a
121.3115	0.12	242623	keystroke_t	t	n/a
121.5215	0.0895	243043	keystroke_Key.space	Key.space	n/a
121.7165	0.105	243433	keystroke_l	l	n/a
121.8965	0.0755	243793	keystroke_i	i	n/a
122.0315	0.0895	244063	keystroke_a	a	n/a
122.136	0.09	244272	keystroke_b	b	n/a
122.376	0.076	244752	keystroke_i	i	n/a
122.571	0.0755	245142	keystroke_l	l	n/a
122.7065	0.0745	245413	keystroke_i	i	n/a
122.856	0.12	245712	keystroke_t	t	n/a
123.1415	0.15	246283	keystroke_e	e	n/a
123.2615	0.135	246523	keystroke_s	s	n/a
123.4115	0.1045	246823	keystroke_Key.enter	Key.enter	n/a
123.5235	7.0745	247047	prompt	n/a	troy talking types instructors\n
124.207	0.105	248414	keystroke_t	t	n/a
124.401	0.075	248802	keystroke_o	o	n/a
124.687	0.105	249374	keystroke_r	r	n/a
124.9265	0.09	249853	keystroke_y	y	n/a
125.2415	0.105	250483	keystroke_Key.space	Key.space	n/a
125.4065	0.105	250813	keystroke_t	t	n/a
125.5265	0.12	251053	keystroke_a	a	n/a
125.677	0.1345	251354	keystroke_l	l	n/a
125.8415	0.105	251683	keystroke_k	k	n/a
126.0515	0.06	252103	keystroke_i	i	n/a
126.2615	0.06	252523	keystroke_n	n	n/a
126.3665	0.0905	252733	keystroke_g	g	n/a
126.5015	0.06	253003	keystroke_Key.space	Key.space	n/a
126.6965	0.09	253393	keystroke_t	t	n/a
126.8915	0.09	253783	keystroke_y	y	n/a
127.0415	0.1045	254083	keystroke_p	p	n/a
127.267	0.105	254534	keystroke_e	e	n/a
127.431	0.15	254862	keystroke_Key.space	Key.space	n/a
127.716	0.0605	255432	keystroke_i	i	n/a
127.9115	0.0745	255823	keystroke_n	n	n/a
128.001	0.121	256002	keystroke_s	s	n/a
128.2265	0.06	256453	keystroke_t	t	n/a
128.4215	0.09	256843	keystroke_r	r	n/a
128.5715	0.09	257143	keystroke_u	u	n/a
129.576	0.0605	259152	keystroke_c	c	n/a
129.846	0.0905	259692	keystroke_t	t	n/a
129.9815	0.12	259963	keystroke_o	o	n/a
130.0865	0.21	260173	keystroke_r	r	n/a
130.2815	0.165	260563	keystroke_s	s	n/a
130.4305	0.1655	260861	keystroke_Key.enter	Key.enter	n/a
130.601	14.517	261202	prompt	n/a	accomplished flickr glasgow departmental\n
131.212	0.089	262424	keystroke_a	a	n/a
131.4065	0.0755	262813	keystroke_c	c	n/a
131.6315	0.0605	263263	keystroke_c	c	n/a
131.7505	0.0915	263501	keystroke_o	o	n/a
131.9305	0.106	263861	keystroke_m	m	n/a
132.142	0.075	264284	keystroke_p	p	n/a
132.351	0.0755	264702	keystroke_l	l	n/a
132.532	0.1045	265064	keystroke_i	i	n/a
132.7265	0.1195	265453	keystroke_s	s	n/a
132.832	0.089	265664	keystroke_h	h	n/a
132.966	0.1505	265932	keystroke_e	e	n/a
133.102	0.119	266204	keystroke_d	d	n/a
133.266	0.105	266532	keystroke_Key.space	Key.space	n/a
133.551	0.091	267102	keystroke_f	f	n/a
133.656	0.0755	267312	keystroke_l	l	n/a
133.8215	0.0745	267643	keystroke_i	i	n/a
133.941	0.0605	267882	keystroke_c	c	n/a
134.076	0.09	268152	keystroke_k	k	n/a
134.361	0.105	268722	keystroke_r	r	n/a
134.601	0.09	269202	keystroke_Key.space	Key.space	n/a
135.262	0.09	270524	keystroke_g	g	n/a
135.397	0.135	270794	keystroke_l	l	n/a
135.5465	0.1205	271093	keystroke_a	a	n/a
137.226	0.075	274452	keystroke_s	s	n/a
137.8565	0.135	275713	keystroke_g	g	n/a
139.6265	0.135	279253	keystroke_o	o	n/a
140.0615	0.12	280123	keystroke_w	w	n/a
140.4815	0.1045	280963	keystroke_Key.space	Key.space	n/a
142.5805	0.1515	285161	keystroke_d	d	n/a
142.717	0.105	285434	keystroke_e	e	n/a
142.8655	0.106	285731	keystroke_p	p	n/a
143.0315	0.15	286063	keystroke_a	a	n/a
143.2115	0.119	286423	keystroke_r	r	n/a
143.511	0.1055	287022	keystroke_t	t	n/a
144.021	0.1345	288042	keystroke_m	m	n/a
144.216	0.1355	288432	keystroke_e	e	n/a
144.3665	0.105	288733	keystroke_n	n	n/a
144.487	0.1045	288974	keystroke_t	t	n/a
144.6065	0.12	289213	keystroke_a	a	n/a
144.7715	0.09	289543	keystroke_l	l	n/a
145.0105	0.105	290021	keystroke_Key.enter	Key.enter	n/a
145.123	6.07	290246	prompt	n/a	filed annotation attending coupons\n
145.822	0.089	291644	keystroke_f	f	n/a
145.9265	0.09	291853	keystroke_i	i	n/a
146.107	0.119	292214	keystroke_l	l	n/a
146.242	0.1795	292484	keystroke_e	e	n/a
146.377	0.1045	292754	keystroke_d	d	n/a
146.496	0.09	292992	keystroke_Key.space	Key.space	n/a
146.6465	0.1045	293293	keystroke_a	a	n/a
146.736	0.0605	293472	keystroke_n	n	n/a
146.886	0.06	293772	keystroke_n	n	n/a
147.051	0.12	294102	keystroke_o	o	n/a
147.216	0.135	294432	keystroke_t	t	n/a
147.3665	0.1645	294733	keystroke_a	a	n/a
147.5165	0.1355	295033	keystroke_t	t	n/a
147.666	0.0755	295332	keystroke_i	i	n/a
147.7715	0.12	295543	keystroke_o	o	n/a
147.9815	0.09	295963	keystroke_n	n	n/a
148.1015	0.104	296203	keystroke_Key.space	Key.space	n/a
148.2215	0.164	296443	keystroke_a	a	n/a
148.417	0.0585	296834	keystroke_t	t	n/a
148.5665	0.1205	297133	keystroke_t	t	n/a
148.7465	0.135	297493	keystroke_e	e	n/a
148.8965	0.09	297793	keystroke_n	n	n/a
149.1065	0.12	298213	keystroke_d	d	n/a
149.3315	0.075	298663	keystroke_i	i	n/a
149.5265	0.0745	299053	keystroke_n	n	n/a
149.662	0.0895	299324	keystroke_g	g	n/a
149.766	0.075	299532	keystroke_Key.space	Key.space	n/a
150.0215	0.075	300043	keystroke_c	c	n/a
150.111	0.091	300222	keystroke_o	o	n/a
150.261	0.0905	300522	keystroke_u	u	n/a
150.4715	0.135	300943	keystroke_p	p	n/a
150.6215	0.105	301243	keystroke_o	o	n/a
150.8465	0.09	301693	keystroke_n	n	n/a
151.0865	0.105	302173	keystroke_Key.enter	Key.enter	n/a
151.1975	9.3555	302395	prompt	n/a	roll translations statistics warming\n
151.882	0.09	303764	keystroke_r	r	n/a
151.972	0.104	303944	keystroke_o	o	n/a
152.1515	0.09	304303	keystroke_i	i	n/a
152.7665	0.089	305533	keystroke_Key.backspace	Key.backspace	n/a
153.0815	0.0905	306163	keystroke_l	l	n/a
153.2465	0.075	306493	keystroke_l	l	n/a
153.4415	0.09	306883	keystroke_Key.space	Key.space	n/a
153.6215	0.165	307243	keystroke_t	t	n/a
153.7715	0.135	307543	keystroke_r	r	n/a
153.952	0.1345	307904	keystroke_a	a	n/a
154.1605	0.091	308321	keystroke_n	n	n/a
154.3555	0.0905	308711	keystroke_s	s	n/a
154.5515	0.104	309103	keystroke_l	l	n/a
154.6405	0.151	309281	keystroke_a	a	n/a
154.8515	0.12	309703	keystroke_t	t	n/a
155.0615	0.1055	310123	keystroke_i	i	n/a
155.2115	0.105	310423	keystroke_o	o	n/a
155.4815	0.045	310963	keystroke_n	n	n/a
155.6765	0.075	311353	keystroke_Key.space	Key.space	n/a
155.9915	0.1345	311983	keystroke_s	s	n/a
156.2015	0.1045	312403	keystroke_t	t	n/a
156.381	0.165	312762	keystroke_a	a	n/a
156.576	0.1355	313152	keystroke_t	t	n/a
157.0115	0.09	314023	keystroke_i	i	n/a
157.206	0.1205	314412	keystroke_s	s	n/a
157.506	0.1055	315012	keystroke_t	t	n/a
157.641	0.09	315282	keystroke_i	i	n/a
157.851	0.0905	315702	keystroke_c	c	n/a
158.5865	0.0895	317173	keystroke_s	s	n/a
158.766	0.0905	317532	keystroke_Key.space	Key.space	n/a
159.1715	0.12	318343	keystroke_w	w	n/a
159.3965	0.15	318793	keystroke_a	a	n/a
159.562	0.0895	319124	keystroke_r	r	n/a
159.817	0.0745	319634	keystroke_m	m	n/a
159.9815	0.06	319963	keystroke_i	i	n/a
160.1315	0.0755	320263	keystroke_n	n	n/a
160.222	0.089	320444	keystroke_g	g	n/a
160.371	0.1805	320742	keystroke_Key.enter	Key.enter	n/a
160.557	7.076	321114	prompt	n/a	facts operates typically disposition\n
161.2565	0.105	322513	keystroke_f	f	n/a
161.3755	0.181	322751	keystroke_a	a	n/a
161.5715	0.075	323143	keystroke_c	c	n/a
161.841	0.105	323682	keystroke_t	t	n/a
162.0665	0.1355	324133	keystroke_s	s	n/a
162.216	0.09	324432	keystroke_Key.space	Key.space	n/a
162.441	0.105	324882	keystroke_o	o	n/a
162.591	0.105	325182	keystroke_p	p	n/a
162.697	0.24	325394	keystroke_e	e	n/a
162.907	0.2095	325814	keystroke_r	r	n/a
163.101	0.1805	326202	keystroke_a	a	n/a
163.3865	0.0745	326773	keystroke_t	t	n/a
163.611	0.0755	327222	keystroke_u	u	n/a
163.821	0.091	327642	keystroke_e	e	n/a
164.0755	0.061	328151	keystroke_Key.backspace	Key.backspace	n/a
164.2105	0.09	328421	keystroke_Key.backspace	Key.backspace	n/a
164.3615	0.15	328723	keystroke_e	e	n/a
164.4815	0.12	328963	keystroke_s	s	n/a
164.6455	0.09	329291	keystroke_Key.space	Key.space	n/a
164.9765	0.105	329953	keystroke_t	t	n/a
165.592	0.1045	331184	keystroke_y	y	n/a
165.7865	0.0905	331573	keystroke_p	p	n/a
166.2665	0.105	332533	keystroke_i	i	n/a
166.4165	0.1355	332833	keystroke_c	c	n/a
166.5965	0.12	333193	keystroke_a	a	n/a
166.7765	0.06	333553	keystroke_l	l	n/a
166.8965	0.105	333793	keystroke_l	l	n/a
167.1965	0.09	334393	keystroke_y	y	n/a
167.5415	0.09	335083	keystroke_Key.enter	Key.enter	n/a
167.639	9.684	335278	prompt	n/a	conventions falls mandatory heavy\n
168.7265	0.09	337453	keystroke_c	c	n/a
168.8165	0.09	337633	keystroke_o	o	n/a
169.0265	0.0755	338053	keystroke_n	n	n/a
169.1615	0.075	338323	keystroke_e	e	n/a
169.566	0.09	339132	keystroke_Key.backspace	Key.backspace	n/a
169.701	0.12	339402	keystroke_v	v	n/a
169.956	0.105	339912	keystroke_e	e	n/a
172.0415	0.09	344083	keystroke_n	n	n/a
172.2665	0.075	344533	keystroke_t	t	n/a
172.431	0.0455	344862	keystroke_i	i	n/a
172.5065	0.105	345013	keystroke_o	o	n/a
172.7015	0.12	345403	keystroke_n	n	n/a
172.7915	0.1045	345583	keystroke_s	s	n/a
172.9415	0.0595	345883	keystroke_Key.space	Key.space	n/a
173.061	0.1355	346122	keystroke_f	f	n/a
173.241	0.09	346482	keystroke_a	a	n/a
173.4065	0.105	346813	keystroke_l	l	n/a
173.6015	0.09	347203	keystroke_l	l	n/a
173.7365	0.105	347473	keystroke_s	s	n/a
173.8865	0.075	347773	keystroke_Key.space	Key.space	n/a
174.0815	0.1045	348163	keystroke_m	m	n/a
174.172	0.135	348344	keystroke_a	a	n/a
174.3515	0.09	348703	keystroke_n	n	n/a
174.5915	0.12	349183	keystroke_d	d	n/a
174.8015	0.135	349603	keystroke_a	a	n/a
175.2365	0.1045	350473	keystroke_t	t	n/a
175.356	0.12	350712	keystroke_o	o	n/a
175.521	0.0905	351042	keystroke_r	r	n/a
175.671	0.09	351342	keystroke_y	y	n/a
175.866	0.1055	351732	keystroke_Key.space	Key.space	n/a
176.1365	0.104	352273	keystroke_h	h	n/a
176.2865	0.105	352573	keystroke_e	e	n/a
176.4065	0.194	352813	keystroke_a	a	n/a
176.6765	0.135	353353	keystroke_v	v	n/a
176.8415	0.09	353683	keystroke_y	y	n/a
177.246	0.0745	354492	keystroke_Key.enter	Key.enter	n/a
177.329	12.219	354658	prompt	n/a	where've involvement received declaration\n
178.042	0.149	356084	keystroke_w	w	n/a
178.206	0.09	356412	keystroke_h	h	n/a
178.461	0.15	356922	keystroke_e	e	n/a
178.596	0.1655	357192	keystroke_r	r	n/a
178.7765	0.135	357553	keystroke_e	e	n/a
179.0615	0.12	358123	keystroke_'	'	n/a
179.511	0.09	359022	keystroke_d	d	n/a
180.1115	0.12	360223	keystroke_Key.space	Key.space	n/a
180.4565	0.09	360913	keystroke_i	i	n/a
180.6215	0.105	361243	keystroke_n	n	n/a
181.4455	0.091	362891	keystroke_v	v	n/a
181.5515	0.06	363103	keystroke_o	o	n/a
181.731	0.076	363462	keystroke_l	l	n/a
181.8215	0.075	363643	keystroke_v	v	n/a
182.001	0.12	364002	keystroke_e	e	n/a
182.316	0.09	364632	keystroke_m	m	n/a
182.451	0.121	364902	keystroke_e	e	n/a
182.587	0.104	365174	keystroke_n	n	n/a
182.7065	0.1055	365413	keystroke_t	t	n/a
182.871	0.09	365742	keystroke_Key.space	Key.space	n/a
183.096	0.135	366192	keystroke_r	r	n/a
183.246	0.105	366492	keystroke_e	e	n/a
183.606	0.075	367212	keystroke_v	v	n/a
184.2515	0.0895	368503	keystroke_Key.backspace	Key.backspace	n/a
184.461	0.09	368922	keystroke_c	c	n/a
185.1205	0.106	370241	keystroke_e	e	n/a
185.2715	0.105	370543	keystroke_i	i	n/a
185.6165	0.105	371233	keystroke_v	v	n/a
185.8115	0.165	371623	keystroke_e	e	n/a
186.0515	0.1505	372103	keystroke_d	d	n/a
186.381	0.09	372762	keystroke_Key.space	Key.space	n/a
187.3565	0.105	374713	keystroke_d	d	n/a
187.5665	0.09	375133	keystroke_e	e	n/a
187.9865	0.135	375973	keystroke_c	c	n/a
188.1365	0.135	376273	keystroke_l	l	n/a
188.2565	0.135	376513	keystroke_a	a	n/a
188.4065	0.15	376813	keystroke_r	r	n/a
188.5565	0.1645	377113	keystroke_a	a	n/a
188.766	0.1055	377532	keystroke_t	t	n/a
188.841	0.105	377682	keystroke_i	i	n/a
188.9315	0.135	377863	keystroke_o	o	n/a
189.126	0.1055	378252	keystroke_n	n	n/a
189.3965	0.1495	378793	keystroke_Key.enter	Key.enter	n/a
189.5525	8.7555	379105	prompt	n/a	retain revolution content solved\n
190.2215	0.15	380443	keystroke_r	r	n/a
190.416	0.1655	380832	keystroke_e	e	n/a
190.837	0.1195	381674	keystroke_t	t	n/a
190.986	0.1045	381972	keystroke_a	a	n/a
191.1365	0.09	382273	keystroke_i	i	n/a
191.361	0.0905	382722	keystroke_n	n	n/a
191.5105	0.0905	383021	keystroke_Key.space	Key.space	n/a
191.6765	0.119	383353	keystroke_r	r	n/a
191.8105	0.09	383621	keystroke_e	e	n/a
192.216	0.0895	384432	keystroke_v	v	n/a
192.5465	0.075	385093	keystroke_o	o	n/a
192.741	0.12	385482	keystroke_l	l	n/a
193.431	0.06	386862	keystroke_u	u	n/a
193.521	0.105	387042	keystroke_t	t	n/a
193.716	0.1505	387432	keystroke_i	i	n/a
194.0315	0.0745	388063	keystroke_o	o	n/a
194.2265	0.105	388453	keystroke_n	n	n/a
194.4065	0.075	388813	keystroke_Key.space	Key.space	n/a
194.662	0.0895	389324	keystroke_c	c	n/a
194.7365	0.045	389473	keystroke_o	o	n/a
194.872	0.0895	389744	keystroke_n	n	n/a
195.0215	0.12	390043	keystroke_t	t	n/a
195.187	0.12	390374	keystroke_e	e	n/a
195.4265	0.0745	390853	keystroke_n	n	n/a
195.5615	0.1195	391123	keystroke_t	t	n/a
195.726	0.09	391452	keystroke_Key.space	Key.space	n/a
196.1015	0.075	392203	keystroke_s	s	n/a
196.1915	0.075	392383	keystroke_o	o	n/a
196.3565	0.0895	392713	keystroke_l	l	n/a
196.5065	0.075	393013	keystroke_c	c	n/a
196.7165	0.135	393433	keystroke_e	e	n/a
197.0155	0.06	394031	keystroke_Key.backspace	Key.backspace	n/a
197.1665	0.09	394333	keystroke_Key.backspace	Key.backspace	n/a
197.6015	0.089	395203	keystroke_v	v	n/a
197.8715	0.1345	395743	keystroke_e	e	n/a
197.9615	0.1495	395923	keystroke_d	d	n/a
198.1715	0.134	396343	keystroke_Key.enter	Key.enter	n/a
198.313	10.9295	396626	prompt	n/a	frequently mexico identifying inspired\n
199.0715	0.1195	398143	keystroke_r	r	n/a
199.4165	0.075	398833	keystroke_Key.backspace	Key.backspace	n/a
199.5815	0.075	399163	keystroke_f	f	n/a
199.8065	0.105	399613	keystroke_r	r	n/a
199.8665	0.1645	399733	keystroke_e	e	n/a
200.1215	0.1195	400243	keystroke_q	q	n/a
200.256	0.0755	400512	keystroke_u	u	n/a
200.361	0.15	400722	keystroke_e	e	n/a
200.512	0.104	401024	keystroke_n	n	n/a
200.6615	0.09	401323	keystroke_t	t	n/a
200.8565	0.0905	401713	keystroke_l	l	n/a
201.1715	0.105	402343	keystroke_y	y	n/a
201.4115	0.06	402823	keystroke_Key.space	Key.space	n/a
201.5765	0.09	403153	keystroke_m	m	n/a
201.6815	0.06	403363	keystroke_e	e	n/a
202.0415	0.105	404083	keystroke_x	x	n/a
202.2355	0.106	404471	keystroke_i	i	n/a
202.731	0.0605	405462	keystroke_c	c	n/a
203.0165	0.12	406033	keystroke_o	o	n/a
203.346	0.09	406692	keystroke_Key.space	Key.space	n/a
203.5715	0.09	407143	keystroke_i	i	n/a
203.7665	0.119	407533	keystroke_d	d	n/a
203.9305	0.106	407861	keystroke_e	e	n/a
204.0965	0.089	408193	keystroke_n	n	n/a
204.276	0.1055	408552	keystroke_t	t	n/a
204.5165	0.0755	409033	keystroke_i	i	n/a
204.7865	0.105	409573	keystroke_f	f	n/a
206.0015	0.09	412003	keystroke_y	y	n/a
206.271	0.0745	412542	keystroke_i	i	n/a
206.8105	0.12	413621	keystroke_n	n	n/a
207.0215	0.104	414043	keystroke_g	g	n/a
207.1705	0.09	414341	keystroke_Key.space	Key.space	n/a
207.4265	0.074	414853	keystroke_i	i	n/a
207.8465	0.075	415693	keystroke_n	n	n/a
208.0565	0.104	416113	keystroke_s	s	n/a
208.176	0.09	416352	keystroke_p	p	n/a
208.3865	0.0895	416773	keystroke_i	i	n/a
208.5365	0.1345	417073	keystroke_r	r	n/a
208.7165	0.21	417433	keystroke_e	e	n/a
208.9115	0.1195	417823	keystroke_d	d	n/a
209.106	0.135	418212	keystroke_Key.enter	Key.enter	n/a
209.2475	8.2605	418495	prompt	n/a	apps albany democrat boxed\n
209.886	0.12	419772	keystroke_a	a	n/a
210.081	0.0895	420162	keystroke_p	p	n/a
210.2605	0.106	420521	keystroke_p	p	n/a
210.4265	0.1195	420853	keystroke_s	s	n/a
210.561	0.1055	421122	keystroke_Key.space	Key.space	n/a
210.7715	0.1045	421543	keystroke_a	a	n/a
210.996	0.091	421992	keystroke_l	l	n/a
211.371	0.09	422742	keystroke_b	b	n/a
211.476	0.121	422952	keystroke_a	a	n/a
211.627	0.0885	423254	keystroke_n	n	n/a
211.8815	0.119	423763	keystroke_y	y	n/a
212.0755	0.105	424151	keystroke_Key.space	Key.space	n/a
212.4655	0.0165	424931	keystroke_d	d	n/a
212.6005	0.09	425201	keystroke_d	d	n/a
212.826	0.121	425652	keystroke_e	e	n/a
213.1855	0.091	426371	keystroke_Key.backspace	Key.backspace	n/a
213.3805	0.0605	426761	keystroke_Key.backspace	Key.backspace	n/a
213.801	0.09	427602	keystroke_e	e	n/a
213.9365	0.0745	427873	keystroke_m	m	n/a
214.1165	0.1045	428233	keystroke_o	o	n/a
214.446	0.105	428892	keystroke_c	c	n/a
214.8215	0.1345	429643	keystroke_r	r	n/a
214.9715	0.165	429943	keystroke_a	a	n/a
215.211	0.105	430422	keystroke_t	t	n/a
215.376	0.105	430752	keystroke_Key.space	Key.space	n/a
215.9315	0.09	431863	keystroke_b	b	n/a
216.096	0.1205	432192	keystroke_o	o	n/a
216.5905	0.1055	433181	keystroke_x	x	n/a
216.831	0.1205	433662	keystroke_e	e	n/a
217.041	0.1055	434082	keystroke_d	d	n/a
217.3555	0.151	434711	keystroke_Key.enter	Key.enter	n/a
217.512	5.876	435024	prompt	n/a	bare with google housewares\n
218.2415	0.1045	436483	keystroke_b	b	n/a
218.451	0.18	436902	keystroke_a	a	n/a
218.6465	0.195	437293	keystroke_r	r	n/a
218.856	0.15	437712	keystroke_e	e	n/a
219.051	0.09	438102	keystroke_Key.space	Key.space	n/a
219.186	0.105	438372	keystroke_w	w	n/a
219.276	0.105	438552	keystroke_i	i	n/a
219.411	0.1205	438822	keystroke_t	t	n/a
219.4865	0.1195	438973	keystroke_h	h	n/a
219.636	0.105	439272	keystroke_Key.space	Key.space	n/a
219.816	0.1205	439632	keystroke_g	g	n/a
219.9515	0.075	439903	keystroke_o	o	n/a
220.1315	0.045	440263	keystroke_o	o	n/a
220.342	0.104	440684	keystroke_g	g	n/a
220.476	0.12	440952	keystroke_l	l	n/a
220.701	0.09	441402	keystroke_e	e	n/a
220.851	0.09	441702	keystroke_Key.space	Key.space	n/a
221.1815	0.09	442363	keystroke_h	h	n/a
221.361	0.12	442722	keystroke_o	o	n/a
221.571	0.105	443142	keystroke_u	u	n/a
221.7065	0.1645	443413	keystroke_s	s	n/a
221.8565	0.1495	443713	keystroke_e	e	n/a
222.3965	0.1195	444793	keystroke_w	w	n/a
222.622	0.1635	445244	keystroke_a	a	n/a
222.771	0.21	445542	keystroke_r	r	n/a
222.951	0.195	445902	keystroke_e	e	n/a
223.101	0.15	446202	keystroke_s	s	n/a
223.266	0.12	446532	keystroke_Key.enter	Key.enter	n/a
223.3925	7.4205	446785	prompt	n/a	hasn't cursor enterprise slip\n
224.1055	0.091	448211	keystroke_h	h	n/a
224.2415	0.12	448483	keystroke_a	a	n/a
224.3765	0.135	448753	keystroke_s	s	n/a
224.6015	0.0755	449203	keystroke_n	n	n/a
225.561	0.09	451122	keystroke_'	'	n/a
225.9365	0.105	451873	keystroke_t	t	n/a
226.266	0.09	452532	keystroke_Key.space	Key.space	n/a
226.536	0.075	453072	keystroke_c	c	n/a
226.701	0.12	453402	keystroke_u	u	n/a
226.911	0.06	453822	keystroke_r	r	n/a
227.361	0.105	454722	keystroke_s	s	n/a
227.496	0.1055	454992	keystroke_o	o	n/a
227.6315	0.09	455263	keystroke_r	r	n/a
227.751	0.0905	455502	keystroke_Key.space	Key.space	n/a
227.9765	0.09	455953	keystroke_e	e	n/a
228.096	0.0905	456192	keystroke_n	n	n/a
228.2615	0.105	456523	keystroke_t	t	n/a
228.4415	0.18	456883	keystroke_e	e	n/a
228.576	0.105	457152	keystroke_r	r	n/a
228.7415	0.105	457483	keystroke_p	p	n/a
228.8915	0.09	457783	keystroke_r	r	n/a
229.041	0.135	458082	keystroke_i	i	n/a
229.281	0.12	458562	keystroke_s	s	n/a
229.386	0.135	458772	keystroke_e	e	n/a
229.671	0.09	459342	keystroke_Key.space	Key.space	n/a
229.881	0.12	459762	keystroke_s	s	n/a
229.986	0.0895	459972	keystroke_l	l	n/a
230.2115	0.089	460423	keystroke_i	i	n/a
230.4655	0.09	460931	keystroke_p	p	n/a
230.7365	0.074	461473	keystroke_Key.enter	Key.enter	n/a
230.817	10.661	461634	prompt	n/a	prefix consultant protecting confirmed\n
231.5165	0.09	463033	keystroke_p	p	n/a
231.6215	0.105	463243	keystroke_r	r	n/a
231.7555	0.1205	463511	keystroke_e	e	n/a
232.101	0.075	464202	keystroke_f	f	n/a
232.236	0.105	464472	keystroke_i	i	n/a
232.461	0.12	464922	keystroke_c	c	n/a
232.926	0.105	465852	keystroke_Key.backspace	Key.backspace	n/a
233.151	0.165	466302	keystroke_x	x	n/a
233.6755	0.105	467351	keystroke_Key.space	Key.space	n/a
233.961	0.1055	467922	keystroke_c	c	n/a
234.067	0.1045	468134	keystroke_o	o	n/a
234.276	0.09	468552	keystroke_n	n	n/a
234.816	0.0445	469632	keystroke_s	s	n/a
234.8915	0.074	469783	keystroke_u	u	n/a
235.1005	0.1055	470201	keystroke_l	l	n/a
235.371	0.12	470742	keystroke_t	t	n/a
235.551	0.135	471102	keystroke_a	a	n/a
235.746	0.0605	471492	keystroke_n	n	n/a
236.031	0.1195	472062	keystroke_t	t	n/a
236.316	0.075	472632	keystroke_Key.space	Key.space	n/a
236.5565	0.105	473113	keystroke_p	p	n/a
236.676	0.09	473352	keystroke_r	r	n/a
236.9765	0.0745	473953	keystroke_o	o	n/a
237.1415	0.0895	474283	keystroke_t	t	n/a
237.8765	0.105	475753	keystroke_e	e	n/a
238.1005	0.091	476201	keystroke_c	c	n/a
238.3715	0.104	476743	keystroke_t	t	n/a
238.4905	0.076	476981	keystroke_i	i	n/a
238.672	0.104	477344	keystroke_n	n	n/a
238.8215	0.0895	477643	keystroke_g	g	n/a
238.956	0.09	477912	keystroke_Key.space	Key.space	n/a
239.2565	0.1045	478513	keystroke_c	c	n/a
239.376	0.045	478752	keystroke_o	o	n/a
239.526	0.075	479052	keystroke_n	n	n/a
239.646	0.0905	479292	keystroke_f	f	n/a
239.751	0.105	479502	keystroke_i	i	n/a
240.531	0.075	481062	keystroke_r	r	n/a
240.711	0.045	481422	keystroke_m	m	n/a
240.846	0.165	481692	keystroke_e	e	n/a
240.996	0.135	481992	keystroke_d	d	n/a
241.371	0.105	482742	keystroke_Key.enter	Key.enter	n/a
241.4825	8.0055	482965	prompt	n/a	whom calgary routing parameter\n
242.136	0.12	484272	keystroke_w	w	n/a
242.286	0.105	484572	keystroke_h	h	n/a
242.706	0.12	485412	keystroke_o	o	n/a
242.916	0.105	485832	keystroke_m	m	n/a
243.111	0.09	486222	keystroke_Key.space	Key.space	n/a
243.726	0.075	487452	keystroke_c	c	n/a
243.891	0.105	487782	keystroke_a	a	n/a
244.0715	0.1195	488143	keystroke_l	l	n/a
244.581	0.105	489162	keystroke_g	g	n/a
244.701	0.165	489402	keystroke_a	a	n/a
244.8815	0.119	489763	keystroke_r	r	n/a
245.0755	0.106	490151	keystroke_y	y	n/a
245.2555	0.12	490511	keystroke_Key.space	Key.space	n/a
245.6765	0.1045	491353	keystroke_r	r	n/a
245.751	0.1055	491502	keystroke_o	o	n/a
246.006	0.09	492012	keystroke_u	u	n/a
246.3505	0.09	492701	keystroke_t	t	n/a
246.4705	0.0755	492941	keystroke_i	i	n/a
247.056	0.0905	494112	keystroke_n	n	n/a
247.2065	0.0745	494413	keystroke_g	g	n/a
247.326	0.1045	494652	keystroke_Key.space	Key.space	n/a
247.8815	0.1195	495763	keystroke_p	p	n/a
247.9865	0.1345	495973	keystroke_a	a	n/a
248.166	0.135	496332	keystroke_r	r	n/a
248.316	0.12	496632	keystroke_a	a	n/a
248.556	0.105	497112	keystroke_m	m	n/a
248.676	0.135	497352	keystroke_e	e	n/a
248.826	0.1205	497652	keystroke_t	t	n/a
248.991	0.18	497982	keystroke_e	e	n/a
249.172	0.104	498344	keystroke_r	r	n/a
249.396	0.09	498792	keystroke_Key.enter	Key.enter	n/a
249.4925	11.59	498985	prompt	n/a	standings activity journalist writes\n
250.1315	0.134	500263	keystroke_s	s	n/a
250.3255	0.12	500651	keystroke_t	t	n/a
250.476	0.166	500952	keystroke_a	a	n/a
250.643	0.088	501286	keystroke_n	n	n/a
250.806	0.105	501612	keystroke_d	d	n/a
250.926	0.075	501852	keystroke_i	i	n/a
251.136	0.105	502272	keystroke_n	n	n/a
251.256	0.0905	502512	keystroke_g	g	n/a
251.571	0.105	503142	keystroke_s	s	n/a
251.751	0.075	503502	keystroke_Key.space	Key.space	n/a
252.0665	0.09	504133	keystroke_s	s	n/a
252.501	0.1345	505002	keystroke_Key.backspace	Key.backspace	n/a
252.6365	0.164	505273	keystroke_a	a	n/a
252.8315	0.104	505663	keystroke_c	c	n/a
253.1605	0.091	506321	keystroke_t	t	n/a
253.3405	0.106	506681	keystroke_i	i	n/a
253.5665	0.074	507133	keystroke_v	v	n/a
253.716	0.1045	507432	keystroke_i	i	n/a
253.9105	0.1655	507821	keystroke_t	t	n/a
254.121	0.1055	508242	keystroke_y	y	n/a
254.391	0.105	508782	keystroke_Key.space	Key.space	n/a
254.8115	0.0595	509623	keystroke_h	h	n/a
254.9915	0.104	509983	keystroke_o	o	n/a
255.666	0.075	511332	keystroke_Key.backspace	Key.backspace	n/a
255.816	0.06	511632	keystroke_Key.backspace	Key.backspace	n/a
256.1315	0.105	512263	keystroke_j	j	n/a
256.3115	0.1195	512623	keystroke_o	o	n/a
256.7305	0.075	513461	keystroke_u	u	n/a
256.9105	0.09	513821	keystroke_r	r	n/a
257.121	0.0895	514242	keystroke_n	n	n/a
257.256	0.105	514512	keystroke_a	a	n/a
257.3915	0.1045	514783	keystroke_l	l	n/a
257.6315	0.089	515263	keystroke_i	i	n/a
257.8405	0.105	515681	keystroke_s	s	n/a
258.261	0.105	516522	keystroke_Key.space	Key.space	n/a
258.651	0.09	517302	keystroke_Key.backspace	Key.backspace	n/a
258.786	0.105	517572	keystroke_t	t	n/a
258.996	0.09	517992	keystroke_Key.space	Key.space	n/a
259.416	0.06	518832	keystroke_s	s	n/a
259.716	0.09	519432	keystroke_Key.backspace	Key.backspace	n/a
259.821	0.105	519642	keystroke_w	w	n/a
260.001	0.09	520002	keystroke_r	r	n/a
260.2405	0.045	520481	keystroke_i	i	n/a
260.3005	0.1505	520601	keystroke_t	t	n/a
260.496	0.1955	520992	keystroke_e	e	n/a
260.6455	0.166	521291	keystroke_s	s	n/a
260.9615	0.1195	521923	keystroke_Key.enter	Key.enter	n/a
261.0885	10.5545	522177	prompt	n/a	caution electoral frost began\n
261.5765	0.075	523153	keystroke_s	s	n/a
261.9065	0.104	523813	keystroke_Key.backspace	Key.backspace	n/a
262.0565	0.1495	524113	keystroke_c	c	n/a
262.2215	0.135	524443	keystroke_a	a	n/a
262.8365	0.1045	525673	keystroke_u	u	n/a
263.241	0.12	526482	keystroke_t	t	n/a
263.346	0.1045	526692	keystroke_i	i	n/a
263.5115	0.105	527023	keystroke_o	o	n/a
263.7505	0.105	527501	keystroke_n	n	n/a
263.9905	0.09	527981	keystroke_Key.space	Key.space	n/a
264.3515	0.0745	528703	keystroke_e	e	n/a
264.591	0.0905	529182	keystroke_l	l	n/a
264.6515	0.105	529303	keystroke_e	e	n/a
264.921	0.0605	529842	keystroke_c	c	n/a
265.1765	0.09	530353	keystroke_t	t	n/a
265.2665	0.12	530533	keystroke_o	o	n/a
265.4915	0.15	530983	keystroke_r	r	n/a
265.6565	0.149	531313	keystroke_a	a	n/a
265.761	0.1345	531522	keystroke_l	l	n/a
265.9405	0.09	531881	keystroke_Key.space	Key.space	n/a
266.1815	0.105	532363	keystroke_f	f	n/a
266.526	0.09	533052	keystroke_r	r	n/a
266.721	0.135	533442	keystroke_o	o	n/a
266.857	0.134	533714	keystroke_s	s	n/a
267.486	0.105	534972	keystroke_t	t	n/a
267.726	0.09	535452	keystroke_Key.space	Key.space	n/a
268.1615	0.105	536323	keystroke_b	b	n/a
268.372	0.0895	536744	keystroke_e	e	n/a
269.556	0.105	539112	keystroke_a	a	n/a
269.946	0.09	539892	keystroke_Key.backspace	Key.backspace	n/a
270.051	0.15	540102	keystroke_g	g	n/a
270.216	0.1045	540432	keystroke_a	a	n/a
270.3655	0.091	540731	keystroke_n	n	n/a
270.5015	0.059	541003	keystroke_Key.space	Key.space	n/a
271.2655	0.1205	542531	keystroke_Key.backspace	Key.backspace	n/a
271.5055	0.1355	543011	keystroke_Key.enter	Key.enter	n/a
271.647	16.316	543294	prompt	n/a	height betty wiley entertainment\n
272.3465	0.089	544693	keystroke_h	h	n/a
272.451	0.105	544902	keystroke_e	e	n/a
272.5715	0.09	545143	keystroke_i	i	n/a
272.736	0.0745	545472	keystroke_g	g	n/a
273.006	0.075	546012	keystroke_h	h	n/a
273.141	0.0605	546282	keystroke_t	t	n/a
273.261	0.06	546522	keystroke_Key.space	Key.space	n/a
273.441	0.105	546882	keystroke_b	b	n/a
273.561	0.1355	547122	keystroke_e	e	n/a
273.741	0.075	547482	keystroke_t	t	n/a
273.891	0.06	547782	keystroke_t	t	n/a
273.996	0.1805	547992	keystroke_e	e	n/a
274.1465	0.1195	548293	keystroke_r	r	n/a
274.2515	0.1045	548503	keystroke_y	y	n/a
274.461	0.0755	548922	keystroke_Key.space	Key.space	n/a
274.6265	0.09	549253	keystroke_w	w	n/a
274.7615	0.06	549523	keystroke_i	i	n/a
274.9265	0.12	549853	keystroke_l	l	n/a
275.1065	0.12	550213	keystroke_e	e	n/a
275.2865	0.135	550573	keystroke_y	y	n/a
275.661	0.1055	551322	keystroke_Key.space	Key.space	n/a
276.2155	0.0755	552431	keystroke_e	e	n/a
276.321	0.1195	552642	keystroke_n	n	n/a
279.158	0.001	558316	keystroke_Key.backspace	Key.backspace	n/a
279.9515	0.09	559903	keystroke_Key.backspace	Key.backspace	n/a
280.1455	0.0605	560291	keystroke_Key.backspace	Key.backspace	n/a
280.311	0.06	560622	keystroke_Key.backspace	Key.backspace	n/a
280.491	0.06	560982	keystroke_Key.backspace	Key.backspace	n/a
280.671	0.045	561342	keystroke_Key.backspace	Key.backspace	n/a
280.8205	0.09	561641	keystroke_Key.backspace	Key.backspace	n/a
281.0005	0.091	562001	keystroke_Key.backspace	Key.backspace	n/a
281.211	0.075	562422	keystroke_Key.backspace	Key.backspace	n/a
282.1555	0.09	564311	keystroke_Key.backspace	Key.backspace	n/a
282.7865	0.074	565573	keystroke_y	y	n/a
283.0855	0.105	566171	keystroke_Key.space	Key.space	n/a
284.0015	0.1195	568003	keystroke_w	w	n/a
284.1355	0.06	568271	keystroke_i	i	n/a
284.6905	0.075	569381	keystroke_l	l	n/a
284.8705	0.121	569741	keystroke_e	e	n/a
285.0055	0.1055	570011	keystroke_y	y	n/a
285.2155	0.0755	570431	keystroke_Key.space	Key.space	n/a
285.336	0.121	570672	keystroke_e	e	n/a
285.472	0.0895	570944	keystroke_n	n	n/a
285.876	0.105	571752	keystroke_t	t	n/a
286.086	0.195	572172	keystroke_e	e	n/a
286.221	0.12	572442	keystroke_r	r	n/a
286.551	0.105	573102	keystroke_t	t	n/a
286.716	0.1205	573432	keystroke_a	a	n/a
286.837	0.089	573674	keystroke_i	i	n/a
287.0465	0.09	574093	keystroke_n	n	n/a
287.421	0.09	574842	keystroke_m	m	n/a
287.512	0.119	575024	keystroke_e	e	n/a
287.6165	0.105	575233	keystroke_n	n	n/a
287.766	0.075	575532	keystroke_t	t	n/a
287.856	0.1055	575712	keystroke_Key.enter	Key.enter	n/a
287.9685	2.7695	575937	prompt	n/a	cookie that're would've intermediate\n
288.6215	0.09	577243	keystroke_c	c	n/a
288.742	0.074	577484	keystroke_o	o	n/a
288.921	0.06	577842	keystroke_o	o	n/a
289.101	0.0755	578202	keystroke_k	k	n/a
289.2365	0.12	578473	keystroke_i	i	n/a
289.386	0.1055	578772	keystroke_e	e	n/a
289.551	0.09	579102	keystroke_Key.space	Key.space	n/a
289.7015	0.1195	579403	keystroke_t	t	n/a
289.881	0.075	579762	keystroke_h	h	n/a
290.001	0.1505	580002	keystroke_a	a	n/a
290.196	0.105	580392	keystroke_t	t	n/a
290.661	0.0755	581322	keystroke_Key.enter	Key.enter	n/a
290.742	18.881	581484	prompt	n/a	gotten strengths basically he've\n
293.453	0.013	586906	keystroke_g	g	n/a
293.496	0.1355	586992	keystroke_o	o	n/a
293.6465	0.09	587293	keystroke_t	t	n/a
293.8565	0.09	587713	keystroke_t	t	n/a
294.0515	0.119	588103	keystroke_e	e	n/a
294.1855	0.076	588371	keystroke_n	n	n/a
294.3515	0.0895	588703	keystroke_Key.space	Key.space	n/a
294.6805	0.031	589361	keystroke_s	s	n/a
296.1665	0.06	592333	keystroke_r	r	n/a
297.1415	0.075	594283	keystroke_Key.backspace	Key.backspace	n/a
297.4715	0.09	594943	keystroke_t	t	n/a
297.607	0.135	595214	keystroke_r	r	n/a
297.7555	0.1055	595511	keystroke_e	e	n/a
298.2815	0.075	596563	keystroke_n	n	n/a
298.5515	0.09	597103	keystroke_c	c	n/a
299.046	0.045	598092	keystroke_Key.backspace	Key.backspace	n/a
299.152	0.089	598304	keystroke_g	g	n/a
299.362	0.089	598724	keystroke_h	h	n/a
299.496	0.135	598992	keystroke_t	t	n/a
300.036	0.12	600072	keystroke_Key.backspace	Key.backspace	n/a
300.245	0.121	600490	keystroke_s	s	n/a
301.176	0.105	602352	keystroke_Key.backspace	Key.backspace	n/a
301.5365	0.09	603073	keystroke_Key.backspace	Key.backspace	n/a
301.7465	0.074	603493	keystroke_t	t	n/a
301.9255	0.091	603851	keystroke_h	h	n/a
302.0765	0.1195	604153	keystroke_s	s	n/a
302.241	0.0905	604482	keystroke_Key.space	Key.space	n/a
302.9915	0.075	605983	keystroke_b	b	n/a
303.096	0.135	606192	keystroke_a	a	n/a
303.2465	0.15	606493	keystroke_s	s	n/a
304.0715	0.09	608143	keystroke_i	i	n/a
304.3715	0.105	608743	keystroke_c	c	n/a
304.5815	0.075	609163	keystroke_a	a	n/a
304.7615	0.135	609523	keystroke_a	a	n/a
305.3015	0.075	610603	keystroke_Key.backspace	Key.backspace	n/a
305.6165	0.06	611233	keystroke_l	l	n/a
306.366	0.105	612732	keystroke_l	l	n/a
306.8465	0.0745	613693	keystroke_y	y	n/a
307.011	0.1205	614022	keystroke_Key.space	Key.space	n/a
307.8365	0.105	615673	keystroke_h	h	n/a
308.241	0.105	616482	keystroke_e	e	n/a
308.587	0.0885	617174	keystroke_'	'	n/a
308.9015	0.089	617803	keystroke_v	v	n/a
309.1105	0.106	618221	keystroke_e	e	n/a
309.5165	0.104	619033	keystroke_Key.enter	Key.enter	n/a
309.628	11.17	619256	prompt	n/a	motivated opposition references compromise\n
310.371	0.075	620742	keystroke_m	m	n/a
310.506	0.1195	621012	keystroke_o	o	n/a
310.5805	0.09	621161	keystroke_t	t	n/a
310.7155	0.09	621431	keystroke_i	i	n/a
310.8365	0.135	621673	keystroke_v	v	n/a
311.6165	0.1045	623233	keystroke_a	a	n/a
311.7965	0.105	623593	keystroke_t	t	n/a
312.052	0.1935	624104	keystroke_e	e	n/a
312.217	0.1045	624434	keystroke_d	d	n/a
312.3655	0.075	624731	keystroke_Key.space	Key.space	n/a
312.5615	0.1205	625123	keystroke_o	o	n/a
312.7415	0.104	625483	keystroke_p	p	n/a
312.937	0.0885	625874	keystroke_p	p	n/a
313.4615	0.09	626923	keystroke_o	o	n/a
313.6865	0.074	627373	keystroke_t	t	n/a
313.9565	0.1045	627913	keystroke_i	i	n/a
314.3455	0.076	628691	keystroke_Key.backspace	Key.backspace	n/a
314.5115	0.0445	629023	keystroke_Key.backspace	Key.backspace	n/a
314.691	0.09	629382	keystroke_s	s	n/a
315.2015	0.09	630403	keystroke_i	i	n/a
315.4265	0.09	630853	keystroke_t	t	n/a
315.502	0.0745	631004	keystroke_i	i	n/a
315.6215	0.09	631243	keystroke_o	o	n/a
316.0865	0.104	632173	keystroke_n	n	n/a
316.2965	0.074	632593	keystroke_Key.space	Key.space	n/a
316.6415	0.105	633283	keystroke_r	r	n/a
316.8365	0.104	633673	keystroke_e	e	n/a
317.0015	0.12	634003	keystroke_f	f	n/a
317.1815	0.165	634363	keystroke_e	e	n/a
317.332	0.1795	634664	keystroke_r	r	n/a
317.4965	0.119	634993	keystroke_e	e	n/a
317.6465	0.105	635293	keystroke_n	n	n/a
317.8265	0.105	635653	keystroke_c	c	n/a
318.0065	0.1795	636013	keystroke_e	e	n/a
318.1565	0.135	636313	keystroke_s	s	n/a
318.321	0.075	636642	keystroke_Key.space	Key.space	n/a
318.4715	0.0745	636943	keystroke_c	c	n/a
318.561	0.1055	637122	keystroke_o	o	n/a
318.7715	0.075	637543	keystroke_m	m	n/a
318.9665	0.1495	637933	keystroke_p	p	n/a
319.4165	0.105	638833	keystroke_r	r	n/a
319.6115	0.09	639223	keystroke_o	o	n/a
320.0465	0.0595	640093	keystroke_m	m	n/a
320.211	0.105	640422	keystroke_i	i	n/a
320.346	0.12	640692	keystroke_s	s	n/a
320.481	0.121	640962	keystroke_e	e	n/a
320.6915	0.105	641383	keystroke_Key.enter	Key.enter	n/a
320.802	7.781	641604	prompt	n/a	assignment insured pictures oasis\n
321.411	0.1655	642822	keystroke_a	a	n/a
321.6205	0.075	643241	keystroke_s	s	n/a
321.8015	0.1045	643603	keystroke_s	s	n/a
321.9065	0.09	643813	keystroke_i	i	n/a
322.266	0.03	644532	keystroke_g	g	n/a
322.5815	0.075	645163	keystroke_n	n	n/a
322.852	0.1045	645704	keystroke_m	m	n/a
322.971	0.1505	645942	keystroke_e	e	n/a
323.1065	0.105	646213	keystroke_n	n	n/a
323.241	0.1205	646482	keystroke_t	t	n/a
323.376	0.0745	646752	keystroke_Key.space	Key.space	n/a
323.6465	0.075	647293	keystroke_i	i	n/a
324.0215	0.09	648043	keystroke_n	n	n/a
324.2465	0.12	648493	keystroke_s	s	n/a
324.5765	0.06	649153	keystroke_u	u	n/a
324.6965	0.15	649393	keystroke_r	r	n/a
324.876	0.2105	649752	keystroke_e	e	n/a
325.087	0.1345	650174	keystroke_d	d	n/a
325.266	0.1055	650532	keystroke_Key.space	Key.space	n/a
325.4765	0.1345	650953	keystroke_p	p	n/a
325.971	0.045	651942	keystroke_i	i	n/a
326.196	0.09	652392	keystroke_c	c	n/a
326.4065	0.0745	652813	keystroke_t	t	n/a
326.6315	0.0595	653263	keystroke_u	u	n/a
326.871	0.12	653742	keystroke_r	r	n/a
326.976	0.225	653952	keystroke_e	e	n/a
327.171	0.15	654342	keystroke_s	s	n/a
327.351	0.09	654702	keystroke_Key.space	Key.space	n/a
327.546	0.09	655092	keystroke_o	o	n/a
327.726	0.1655	655452	keystroke_a	a	n/a
327.996	0.1205	655992	keystroke_s	s	n/a
328.131	0.1045	656262	keystroke_i	i	n/a
328.2955	0.09	656591	keystroke_s	s	n/a
328.4615	0.119	656923	keystroke_Key.enter	Key.enter	n/a
328.587	7.9005	657174	prompt	n/a	atomic deployment likelihood ping\n
329.166	0.1055	658332	keystroke_a	a	n/a
329.3915	0.0895	658783	keystroke_t	t	n/a
329.496	0.06	658992	keystroke_o	o	n/a
329.691	0.06	659382	keystroke_m	m	n/a
329.841	0.1055	659682	keystroke_i	i	n/a
330.1105	0.09	660221	keystroke_c	c	n/a
330.2905	0.0905	660581	keystroke_Key.space	Key.space	n/a
330.7115	0.105	661423	keystroke_d	d	n/a
330.8605	0.1205	661721	keystroke_e	e	n/a
331.0265	0.0755	662053	keystroke_p	p	n/a
331.236	0.045	662472	keystroke_l	l	n/a
331.341	0.1355	662682	keystroke_o	o	n/a
331.641	0.1355	663282	keystroke_y	y	n/a
331.8815	0.075	663763	keystroke_m	m	n/a
332.0165	0.1345	664033	keystroke_e	e	n/a
332.152	0.1045	664304	keystroke_n	n	n/a
332.2865	0.105	664573	keystroke_t	t	n/a
332.4505	0.09	664901	keystroke_Key.space	Key.space	n/a
332.7215	0.09	665443	keystroke_l	l	n/a
332.8715	0.105	665743	keystroke_i	i	n/a
333.0815	0.075	666163	keystroke_k	k	n/a
333.2615	0.089	666523	keystroke_e	e	n/a
333.6515	0.074	667303	keystroke_l	l	n/a
333.9065	0.105	667813	keystroke_i	i	n/a
334.2355	0.0905	668471	keystroke_h	h	n/a
334.461	0.03	668922	keystroke_o	o	n/a
334.581	0.0905	669162	keystroke_o	o	n/a
334.746	0.105	669492	keystroke_d	d	n/a
334.911	0.06	669822	keystroke_Key.space	Key.space	n/a
335.4215	0.105	670843	keystroke_p	p	n/a
335.6315	0.105	671263	keystroke_i	i	n/a
335.8405	0.075	671681	keystroke_n	n	n/a
336.156	0.1055	672312	keystroke_g	g	n/a
336.381	0.105	672762	keystroke_Key.enter	Key.enter	n/a
336.492	7.0615	672984	prompt	n/a	iraqi fall classical senegal\n
337.2365	0.06	674473	keystroke_i	i	n/a
337.4165	0.15	674833	keystroke_r	r	n/a
337.5515	0.12	675103	keystroke_a	a	n/a
337.8815	0.15	675763	keystroke_q	q	n/a
338.1665	0.105	676333	keystroke_i	i	n/a
338.3615	0.105	676723	keystroke_Key.space	Key.space	n/a
338.811	0.136	677622	keystroke_f	f	n/a
338.962	0.1345	677924	keystroke_a	a	n/a
339.111	0.075	678222	keystroke_l	l	n/a
339.276	0.09	678552	keystroke_l	l	n/a
339.456	0.075	678912	keystroke_Key.space	Key.space	n/a
339.6065	0.1195	679213	keystroke_c	c	n/a
339.7715	0.135	679543	keystroke_l	l	n/a
340.161	0.1345	680322	keystroke_a	a	n/a
340.3265	0.105	680653	keystroke_s	s	n/a
340.536	0.0905	681072	keystroke_s	s	n/a
340.6865	0.105	681373	keystroke_i	i	n/a
340.896	0.1345	681792	keystroke_c	c	n/a
341.0605	0.121	682121	keystroke_a	a	n/a
341.211	0.1505	682422	keystroke_l	l	n/a
341.4355	0.165	682871	keystroke_Key.space	Key.space	n/a
341.8405	0.151	683681	keystroke_s	s	n/a
342.006	0.075	684012	keystroke_e	e	n/a
342.1865	0.0895	684373	keystroke_n	n	n/a
342.291	0.0905	684582	keystroke_e	e	n/a
342.6665	0.09	685333	keystroke_g	g	n/a
343.0265	0.12	686053	keystroke_a	a	n/a
343.1765	0.105	686353	keystroke_l	l	n/a
343.4315	0.12	686863	keystroke_Key.enter	Key.enter	n/a
343.558	6.79	687116	prompt	n/a	porter provides surgeons myrtle\n
344.1665	0.09	688333	keystroke_p	p	n/a
344.6165	0.089	689233	keystroke_o	o	n/a
344.9165	0.075	689833	keystroke_r	r	n/a
345.1115	0.1195	690223	keystroke_t	t	n/a
345.351	0.18	690702	keystroke_e	e	n/a
345.4715	0.1345	690943	keystroke_r	r	n/a
345.741	0.075	691482	keystroke_Key.space	Key.space	n/a
345.9365	0.0895	691873	keystroke_p	p	n/a
346.0565	0.09	692113	keystroke_r	r	n/a
346.161	0.1055	692322	keystroke_o	o	n/a
346.4015	0.09	692803	keystroke_v	v	n/a
346.5365	0.0895	693073	keystroke_i	i	n/a
346.746	0.135	693492	keystroke_d	d	n/a
346.867	0.194	693734	keystroke_e	e	n/a
347.046	0.1205	694092	keystroke_s	s	n/a
347.1955	0.091	694391	keystroke_Key.space	Key.space	n/a
347.6465	0.1195	695293	keystroke_s	s	n/a
347.7515	0.074	695503	keystroke_u	u	n/a
347.8705	0.076	695741	keystroke_r	r	n/a
348.0965	0.09	696193	keystroke_g	g	n/a
348.216	0.106	696432	keystroke_e	e	n/a
348.441	0.075	696882	keystroke_o	o	n/a
348.636	0.105	697272	keystroke_n	n	n/a
348.7715	0.1045	697543	keystroke_s	s	n/a
348.861	0.0755	697722	keystroke_Key.space	Key.space	n/a
349.056	0.075	698112	keystroke_m	m	n/a
349.296	0.075	698592	keystroke_y	y	n/a
349.551	0.076	699102	keystroke_r	r	n/a
349.746	0.09	699492	keystroke_t	t	n/a
349.866	0.1205	699732	keystroke_l	l	n/a
350.0465	0.12	700093	keystroke_e	e	n/a
350.2405	0.105	700481	keystroke_Key.enter	Key.enter	n/a
350.353	8.1995	700706	prompt	n/a	heavy jazz library removing\n
351.097	0.1045	702194	keystroke_e	e	n/a
351.5015	0.09	703003	keystroke_Key.backspace	Key.backspace	n/a
351.7565	0.105	703513	keystroke_h	h	n/a
351.8765	0.119	703753	keystroke_e	e	n/a
352.0115	0.12	704023	keystroke_a	a	n/a
352.281	0.0755	704562	keystroke_v	v	n/a
352.4315	0.075	704863	keystroke_y	y	n/a
352.5515	0.075	705103	keystroke_Key.space	Key.space	n/a
352.7315	0.105	705463	keystroke_j	j	n/a
352.8515	0.12	705703	keystroke_a	a	n/a
353.2715	0.12	706543	keystroke_z	z	n/a
353.542	0.1045	707084	keystroke_z	z	n/a
353.781	0.075	707562	keystroke_Key.space	Key.space	n/a
353.9765	0.0745	707953	keystroke_l	l	n/a
354.141	0.075	708282	keystroke_i	i	n/a
354.366	0.075	708732	keystroke_b	b	n/a
354.501	0.1355	709002	keystroke_r	r	n/a
354.6515	0.15	709303	keystroke_a	a	n/a
354.7865	0.135	709573	keystroke_r	r	n/a
354.9515	0.12	709903	keystroke_y	y	n/a
355.161	0.0895	710322	keystroke_Key.space	Key.space	n/a
355.7305	0.106	711461	keystroke_r	r	n/a
355.8505	0.136	711701	keystroke_e	e	n/a
355.9715	0.0595	711943	keystroke_m	m	n/a
356.1055	0.121	712211	keystroke_o	o	n/a
356.2555	0.091	712511	keystroke_v	v	n/a
356.7055	0.076	713411	keystroke_n	n	n/a
356.931	0.1045	713862	keystroke_g	g	n/a
357.2755	0.06	714551	keystroke_Key.backspace	Key.backspace	n/a
357.4265	0.075	714853	keystroke_Key.backspace	Key.backspace	n/a
357.8615	0.0295	715723	keystroke_i	i	n/a
358.1765	0.075	716353	keystroke_n	n	n/a
358.2955	0.076	716591	keystroke_g	g	n/a
358.4315	0.119	716863	keystroke_Key.enter	Key.enter	n/a
358.5575	10.6025	717115	prompt	n/a	where's alex competitive candy\n
359.241	0.12	718482	keystroke_w	w	n/a
359.376	0.09	718752	keystroke_h	h	n/a
359.511	0.12	719022	keystroke_e	e	n/a
359.6015	0.1945	719203	keystroke_r	r	n/a
359.782	0.119	719564	keystroke_e	e	n/a
360.1265	0.12	720253	keystroke_'	'	n/a
360.396	0.1055	720792	keystroke_s	s	n/a
360.7715	0.135	721543	keystroke_Key.space	Key.space	n/a
361.071	0.12	722142	keystroke_a	a	n/a
361.296	0.1055	722592	keystroke_l	l	n/a
361.446	0.1055	722892	keystroke_e	e	n/a
361.791	0.1045	723582	keystroke_x	x	n/a
362.0005	0.075	724001	keystroke_Key.space	Key.space	n/a
363.1105	0.09	726221	keystroke_c	c	n/a
363.2155	0.09	726431	keystroke_o	o	n/a
363.381	0.09	726762	keystroke_m	m	n/a
363.5755	0.076	727151	keystroke_p	p	n/a
363.711	0.1055	727422	keystroke_e	e	n/a
363.951	0.09	727902	keystroke_t	t	n/a
364.1755	0.0755	728351	keystroke_i	i	n/a
364.311	0.1045	728622	keystroke_t	t	n/a
364.7905	0.0455	729581	keystroke_v	v	n/a
365.1355	0.0755	730271	keystroke_Key.backspace	Key.backspace	n/a
365.4515	0.074	730903	keystroke_i	i	n/a
365.571	0.1205	731142	keystroke_v	v	n/a
365.7805	0.1355	731561	keystroke_e	e	n/a
365.961	0.075	731922	keystroke_Key.space	Key.space	n/a
366.1715	0.09	732343	keystroke_a	a	n/a
366.4705	0.09	732941	keystroke_Key.backspace	Key.backspace	n/a
366.681	0.1055	733362	keystroke_c	c	n/a
368.001	0.0895	736002	keystroke_a	a	n/a
368.2115	0.06	736423	keystroke_n	n	n/a
368.4815	0.105	736963	keystroke_d	d	n/a
368.6615	0.045	737323	keystroke_y	y	n/a
369.0215	0.135	738043	keystroke_Key.enter	Key.enter	n/a
369.167	5.9305	738334	prompt	n/a	columns areas pain freely\n
369.831	0.045	739662	keystroke_c	c	n/a
369.921	0.09	739842	keystroke_o	o	n/a
370.131	0.09	740262	keystroke_l	l	n/a
370.341	0.0905	740682	keystroke_u	u	n/a
370.596	0.09	741192	keystroke_m	m	n/a
370.8515	0.0895	741703	keystroke_n	n	n/a
370.9415	0.1345	741883	keystroke_s	s	n/a
371.091	0.0895	742182	keystroke_Key.space	Key.space	n/a
371.271	0.1505	742542	keystroke_a	a	n/a
371.4355	0.15	742871	keystroke_r	r	n/a
371.5105	0.195	743021	keystroke_e	e	n/a
371.6915	0.254	743383	keystroke_a	a	n/a
371.916	0.135	743832	keystroke_s	s	n/a
372.5015	0.0895	745003	keystroke_Key.space	Key.space	n/a
372.696	0.1205	745392	keystroke_p	p	n/a
372.7865	0.1495	745573	keystroke_a	a	n/a
372.996	0.06	745992	keystroke_i	i	n/a
373.206	0.0755	746412	keystroke_n	n	n/a
373.311	0.0905	746622	keystroke_Key.space	Key.space	n/a
373.6265	0.0895	747253	keystroke_f	f	n/a
373.8805	0.15	747761	keystroke_r	r	n/a
374.0165	0.09	748033	keystroke_e	e	n/a
374.226	0.1355	748452	keystroke_e	e	n/a
374.376	0.105	748752	keystroke_l	l	n/a
374.631	0.12	749262	keystroke_y	y	n/a
374.991	0.105	749982	keystroke_Key.enter	Key.enter	n/a
375.102	6.506	750204	prompt	n/a	it'd topics merge pdas\n
375.9205	0.0605	751841	keystroke_i	i	n/a
376.1755	0.0905	752351	keystroke_t	t	n/a
376.476	0.0755	752952	keystroke_'	'	n/a
376.7915	0.075	753583	keystroke_d	d	n/a
377.0455	0.0755	754091	keystroke_Key.space	Key.space	n/a
377.5405	0.106	755081	keystroke_t	t	n/a
377.6905	0.106	755381	keystroke_o	o	n/a
377.8405	0.106	755681	keystroke_p	p	n/a
378.0515	0.09	756103	keystroke_i	i	n/a
378.2465	0.12	756493	keystroke_c	c	n/a
378.4265	0.1345	756853	keystroke_s	s	n/a
378.606	0.06	757212	keystroke_Key.space	Key.space	n/a
378.996	0.09	757992	keystroke_m	m	n/a
379.116	0.18	758232	keystroke_e	e	n/a
379.251	0.1645	758502	keystroke_r	r	n/a
379.4455	0.091	758891	keystroke_g	g	n/a
379.596	0.09	759192	keystroke_e	e	n/a
379.8955	0.09	759791	keystroke_Key.space	Key.space	n/a
380.151	0.0755	760302	keystroke_p	p	n/a
380.511	0.12	761022	keystroke_d	d	n/a
380.676	0.12	761352	keystroke_a	a	n/a
380.841	0.15	761682	keystroke_s	s	n/a
381.4715	0.1345	762943	keystroke_Key.enter	Key.enter	n/a
381.612	7.346	763224	prompt	n/a	wonderful honda servers crossword\n
382.2965	0.105	764593	keystroke_w	w	n/a
382.371	0.09	764742	keystroke_o	o	n/a
382.551	0.09	765102	keystroke_n	n	n/a
382.671	0.075	765342	keystroke_d	d	n/a
382.731	0.195	765462	keystroke_e	e	n/a
382.926	0.09	765852	keystroke_r	r	n/a
383.1815	0.075	766363	keystroke_f	f	n/a
383.2565	0.1195	766513	keystroke_u	u	n/a
383.5115	0.105	767023	keystroke_l	l	n/a
383.6315	0.089	767263	keystroke_Key.space	Key.space	n/a
383.8115	0.089	767623	keystroke_h	h	n/a
383.946	0.1045	767892	keystroke_o	o	n/a
384.1265	0.105	768253	keystroke_n	n	n/a
384.2765	0.18	768553	keystroke_d	d	n/a
384.471	0.1205	768942	keystroke_a	a	n/a
384.6365	0.0895	769273	keystroke_Key.space	Key.space	n/a
384.786	0.165	769572	keystroke_s	s	n/a
384.9665	0.1345	769933	keystroke_e	e	n/a
385.117	0.1195	770234	keystroke_r	r	n/a
385.281	0.0895	770562	keystroke_v	v	n/a
385.386	0.2545	770772	keystroke_e	e	n/a
385.536	0.225	771072	keystroke_r	r	n/a
385.7165	0.1645	771433	keystroke_s	s	n/a
385.986	0.105	771972	keystroke_Key.space	Key.space	n/a
386.226	0.075	772452	keystroke_c	c	n/a
386.4665	0.1045	772933	keystroke_r	r	n/a
386.706	0.105	773412	keystroke_o	o	n/a
386.9015	0.089	773803	keystroke_s	s	n/a
387.0965	0.1045	774193	keystroke_s	s	n/a
387.6355	0.1055	775271	keystroke_w	w	n/a
387.8615	0.1045	775723	keystroke_o	o	n/a
388.266	0.09	776532	keystroke_r	r	n/a
388.596	0.0755	777192	keystroke_d	d	n/a
388.8365	0.1195	777673	keystroke_Key.enter	Key.enter	n/a
388.961	9.237	777922	prompt	n/a	william legends stockholm syntax\n
389.6015	0.0895	779203	keystroke_w	w	n/a
389.7065	0.09	779413	keystroke_i	i	n/a
389.9315	0.045	779863	keystroke_l	l	n/a
390.0665	0.09	780133	keystroke_l	l	n/a
390.2315	0.0895	780463	keystroke_i	i	n/a
390.3815	0.1195	780763	keystroke_a	a	n/a
390.5315	0.1045	781063	keystroke_m	m	n/a
390.6965	0.075	781393	keystroke_Key.space	Key.space	n/a
390.891	0.075	781782	keystroke_l	l	n/a
390.9815	0.0595	781963	keystroke_e	e	n/a
391.161	0.1055	782322	keystroke_g	g	n/a
391.3265	0.1345	782653	keystroke_e	e	n/a
391.491	0.075	782982	keystroke_n	n	n/a
391.671	0.1505	783342	keystroke_d	d	n/a
392.2415	0.1195	784483	keystroke_s	s	n/a
392.466	0.076	784932	keystroke_Key.space	Key.space	n/a
392.7515	0.105	785503	keystroke_s	s	n/a
392.9465	0.105	785893	keystroke_t	t	n/a
393.0665	0.105	786133	keystroke_o	o	n/a
393.2315	0.135	786463	keystroke_c	c	n/a
393.4115	0.075	786823	keystroke_k	k	n/a
393.6815	0.045	787363	keystroke_l	l	n/a
394.0265	0.2245	788053	keystroke_Key.backspace	Key.backspace	n/a
394.4315	0.09	788863	keystroke_h	h	n/a
394.6415	0.074	789283	keystroke_o	o	n/a
394.8515	0.0755	789703	keystroke_l	l	n/a
395.0455	0.091	790091	keystroke_m	m	n/a
395.1965	0.104	790393	keystroke_Key.space	Key.space	n/a
395.6305	0.1055	791261	keystroke_s	s	n/a
395.781	0.0905	791562	keystroke_y	y	n/a
396.066	0.1055	792132	keystroke_n	n	n/a
396.231	0.12	792462	keystroke_t	t	n/a
396.396	0.1505	792792	keystroke_a	a	n/a
396.876	0.12	793752	keystroke_z	z	n/a
397.3855	0.12	794771	keystroke_Key.backspace	Key.backspace	n/a
397.5365	0.164	795073	keystroke_x	x	n/a
398.061	0.135	796122	keystroke_Key.enter	Key.enter	n/a
398.202	8.966	796404	prompt	n/a	throughout modules advantages great\n
398.8255	0.1355	797651	keystroke_t	t	n/a
398.9465	0.105	797893	keystroke_h	h	n/a
399.066	0.0895	798132	keystroke_r	r	n/a
399.141	0.1045	798282	keystroke_o	o	n/a
399.2905	0.1205	798581	keystroke_u	u	n/a
399.4265	0.1055	798853	keystroke_g	g	n/a
399.6055	0.136	799211	keystroke_h	h	n/a
399.8765	0.0755	799753	keystroke_o	o	n/a
400.0865	0.1045	800173	keystroke_u	u	n/a
400.236	0.12	800472	keystroke_t	t	n/a
400.4465	0.0895	800893	keystroke_Key.space	Key.space	n/a
400.6415	0.075	801283	keystroke_m	m	n/a
400.7765	0.105	801553	keystroke_o	o	n/a
400.8955	0.121	801791	keystroke_d	d	n/a
401.2105	0.091	802421	keystroke_e	e	n/a
401.3905	0.106	802781	keystroke_u	u	n/a
401.766	0.0755	803532	keystroke_Key.backspace	Key.backspace	n/a
401.9315	0.0445	803863	keystroke_Key.backspace	Key.backspace	n/a
402.2005	0.0905	804401	keystroke_u	u	n/a
402.456	0.105	804912	keystroke_l	l	n/a
402.606	0.195	805212	keystroke_e	e	n/a
402.771	0.1205	805542	keystroke_s	s	n/a
402.936	0.09	805872	keystroke_Key.space	Key.space	n/a
403.236	0.0155	806472	keystroke_a	a	n/a
403.341	0.1055	806682	keystroke_d	d	n/a
403.626	0.09	807252	keystroke_v	v	n/a
403.7465	0.134	807493	keystroke_a	a	n/a
404.271	0.0905	808542	keystroke_n	n	n/a
404.556	0.1205	809112	keystroke_t	t	n/a
404.721	0.1505	809442	keystroke_a	a	n/a
404.9465	0.105	809893	keystroke_g	g	n/a
405.3655	0.21	810731	keystroke_e	e	n/a
405.516	0.1505	811032	keystroke_s	s	n/a
405.681	0.09	811362	keystroke_Key.space	Key.space	n/a
406.011	0.105	812022	keystroke_g	g	n/a
406.176	0.15	812352	keystroke_r	r	n/a
406.371	0.15	812742	keystroke_e	e	n/a
406.656	0.165	813312	keystroke_a	a	n/a
406.806	0.1205	813612	keystroke_t	t	n/a
407.046	0.12	814092	keystroke_Key.enter	Key.enter	n/a
407.173	8.2045	814346	prompt	n/a	speaker screw slideshow million\n
407.8715	0.1045	815743	keystroke_s	s	n/a
407.991	0.1055	815982	keystroke_p	p	n/a
408.1105	0.165	816221	keystroke_e	e	n/a
408.2605	0.181	816521	keystroke_a	a	n/a
408.4415	0.15	816883	keystroke_r	r	n/a
408.906	0.075	817812	keystroke_Key.backspace	Key.backspace	n/a
409.206	0.0905	818412	keystroke_k	k	n/a
409.3265	0.195	818653	keystroke_e	e	n/a
409.4615	0.135	818923	keystroke_r	r	n/a
409.6265	0.09	819253	keystroke_Key.space	Key.space	n/a
409.8665	0.105	819733	keystroke_s	s	n/a
410.121	0.075	820242	keystroke_c	c	n/a
410.4355	0.166	820871	keystroke_r	r	n/a
410.571	0.27	821142	keystroke_e	e	n/a
410.8115	0.164	821623	keystroke_w	w	n/a
411.1265	0.09	822253	keystroke_Key.space	Key.space	n/a
411.3065	0.135	822613	keystroke_s	s	n/a
411.4565	0.105	822913	keystroke_l	l	n/a
411.6365	0.105	823273	keystroke_i	i	n/a
411.7715	0.12	823543	keystroke_d	d	n/a
412.1165	0.015	824233	keystroke_e	e	n/a
412.6715	0.12	825343	keystroke_s	s	n/a
412.8065	0.075	825613	keystroke_h	h	n/a
412.9565	0.105	825913	keystroke_o	o	n/a
413.0915	0.12	826183	keystroke_w	w	n/a
413.3615	0.0895	826723	keystroke_Key.space	Key.space	n/a
413.616	0.0745	827232	keystroke_m	m	n/a
413.811	0.0745	827622	keystroke_i	i	n/a
414.0055	0.196	828011	keystroke_l	l	n/a
414.501	0.0905	829002	keystroke_l	l	n/a
414.6815	0.12	829363	keystroke_i	i	n/a
414.8615	0.104	829723	keystroke_o	o	n/a
415.0565	0.0745	830113	keystroke_n	n	n/a
415.2805	0.09	830561	keystroke_Key.enter	Key.enter	n/a
415.3775	7.4805	830755	prompt	n/a	tones hasn't geographical ranch\n
416.0765	0.12	832153	keystroke_t	t	n/a
416.181	0.0905	832362	keystroke_o	o	n/a
416.391	0.0755	832782	keystroke_n	n	n/a
416.511	0.1795	833022	keystroke_e	e	n/a
416.6755	0.105	833351	keystroke_s	s	n/a
416.7505	0.0905	833501	keystroke_Key.space	Key.space	n/a
416.9605	0.105	833921	keystroke_h	h	n/a
417.096	0.1505	834192	keystroke_a	a	n/a
417.2615	0.1345	834523	keystroke_s	s	n/a
417.9065	0.089	835813	keystroke_n	n	n/a
418.3415	0.0895	836683	keystroke_'	'	n/a
418.6565	0.1045	837313	keystroke_t	t	n/a
418.9555	0.0905	837911	keystroke_Key.space	Key.space	n/a
419.3165	0.104	838633	keystroke_g	g	n/a
419.4965	0.105	838993	keystroke_e	e	n/a
419.6155	0.105	839231	keystroke_o	o	n/a
419.8865	0.12	839773	keystroke_g	g	n/a
420.0515	0.1495	840103	keystroke_r	r	n/a
420.2165	0.119	840433	keystroke_a	a	n/a
420.3205	0.09	840641	keystroke_p	p	n/a
420.591	0.09	841182	keystroke_h	h	n/a
420.741	0.1205	841482	keystroke_i	i	n/a
420.921	0.1505	841842	keystroke_c	c	n/a
421.116	0.135	842232	keystroke_a	a	n/a
421.206	0.135	842412	keystroke_l	l	n/a
421.386	0.09	842772	keystroke_Key.space	Key.space	n/a
421.581	0.1355	843162	keystroke_r	r	n/a
421.7305	0.15	843461	keystroke_a	a	n/a
421.8665	0.0895	843733	keystroke_n	n	n/a
422.2565	0.105	844513	keystroke_c	c	n/a
422.3915	0.105	844783	keystroke_h	h	n/a
422.7665	0.089	845533	keystroke_Key.enter	Key.enter	n/a
422.862	10.001	845724	prompt	n/a	amount update absence near\n
423.5165	0.15	847033	keystroke_a	a	n/a
423.8305	0.151	847661	keystroke_o	o	n/a
424.116	0.06	848232	keystroke_u	u	n/a
424.776	0.135	849552	keystroke_Key.backspace	Key.backspace	n/a
425.016	0.075	850032	keystroke_Key.backspace	Key.backspace	n/a
425.9305	0.0755	851861	keystroke_m	m	n/a
426.097	0.119	852194	keystroke_o	o	n/a
426.336	0.09	852672	keystroke_u	u	n/a
426.9205	0.0905	853841	keystroke_n	n	n/a
427.1315	0.0745	854263	keystroke_t	t	n/a
427.236	0.105	854472	keystroke_Key.space	Key.space	n/a
427.5815	0.0595	855163	keystroke_u	u	n/a
427.926	0.12	855852	keystroke_p	p	n/a
428.2115	0.135	856423	keystroke_d	d	n/a
428.436	0.15	856872	keystroke_a	a	n/a
428.601	0.12	857202	keystroke_t	t	n/a
428.871	0.09	857742	keystroke_e	e	n/a
429.036	0.09	858072	keystroke_Key.space	Key.space	n/a
429.2615	0.1345	858523	keystroke_a	a	n/a
429.516	0.076	859032	keystroke_b	b	n/a
429.7865	0.1205	859573	keystroke_s	s	n/a
429.922	0.1345	859844	keystroke_e	e	n/a
431.3015	0.105	862603	keystroke_n	n	n/a
431.4365	0.135	862873	keystroke_c	c	n/a
431.6315	0.104	863263	keystroke_e	e	n/a
431.811	0.1045	863622	keystroke_Key.space	Key.space	n/a
432.2165	0.1045	864433	keystroke_n	n	n/a
432.322	0.1945	864644	keystroke_e	e	n/a
432.456	0.1955	864912	keystroke_a	a	n/a
432.5755	0.135	865151	keystroke_r	r	n/a
432.7555	0.105	865511	keystroke_Key.enter	Key.enter	n/a
432.8675	11.7405	865735	prompt	n/a	deutsch oaks superb customers\n
433.6715	0.1345	867343	keystroke_d	d	n/a
433.8655	0.061	867731	keystroke_e	e	n/a
434.3455	0.076	868691	keystroke_Key.backspace	Key.backspace	n/a
434.7515	0.089	869503	keystroke_e	e	n/a
434.9155	0.09	869831	keystroke_u	u	n/a
435.726	0.12	871452	keystroke_t	t	n/a
436.1765	0.089	872353	keystroke_s	s	n/a
436.4605	0.106	872921	keystroke_c	c	n/a
436.626	0.105	873252	keystroke_h	h	n/a
437.226	0.0905	874452	keystroke_Key.space	Key.space	n/a
437.391	0.1055	874782	keystroke_o	o	n/a
437.5415	0.15	875083	keystroke_a	a	n/a
438.336	0.12	876672	keystroke_k	k	n/a
438.471	0.12	876942	keystroke_s	s	n/a
438.621	0.12	877242	keystroke_Key.space	Key.space	n/a
439.161	0.105	878322	keystroke_p	p	n/a
439.911	0.09	879822	keystroke_Key.backspace	Key.backspace	n/a
440.031	0.135	880062	keystroke_s	s	n/a
440.286	0.0895	880572	keystroke_u	u	n/a
440.5715	0.105	881143	keystroke_p	p	n/a
440.856	0.1655	881712	keystroke_e	e	n/a
440.991	0.1205	881982	keystroke_r	r	n/a
441.3365	0.0595	882673	keystroke_b	b	n/a
441.516	0.105	883032	keystroke_Key.space	Key.space	n/a
442.1155	0.12	884231	keystroke_s	s	n/a
442.656	0.1045	885312	keystroke_Key.backspace	Key.backspace	n/a
442.8665	0.104	885733	keystroke_c	c	n/a
443.0455	0.09	886091	keystroke_u	u	n/a
443.2855	0.1205	886571	keystroke_s	s	n/a
443.706	0.1055	887412	keystroke_t	t	n/a
443.8265	0.075	887653	keystroke_o	o	n/a
443.991	0.105	887982	keystroke_m	m	n/a
444.066	0.27	888132	keystroke_e	e	n/a
444.2155	0.18	888431	keystroke_r	r	n/a
444.3505	0.166	888701	keystroke_s	s	n/a
444.486	0.12	888972	keystroke_Key.enter	Key.enter	n/a
444.6125	7.1805	889225	prompt	n/a	sold paradise mpeg beans\n
445.2515	0.089	890503	keystroke_s	s	n/a
445.3565	0.074	890713	keystroke_o	o	n/a
445.5655	0.09	891131	keystroke_l	l	n/a
445.821	0.1195	891642	keystroke_d	d	n/a
446.0155	0.0905	892031	keystroke_Key.space	Key.space	n/a
446.3615	0.12	892723	keystroke_p	p	n/a
446.466	0.165	892932	keystroke_a	a	n/a
446.6465	0.1495	893293	keystroke_r	r	n/a
446.8115	0.149	893623	keystroke_a	a	n/a
447.2605	0.09	894521	keystroke_d	d	n/a
447.411	0.0755	894822	keystroke_i	i	n/a
447.576	0.1655	895152	keystroke_s	s	n/a
447.7415	0.1195	895483	keystroke_e	e	n/a
447.936	0.0745	895872	keystroke_Key.space	Key.space	n/a
448.4465	0.119	896893	keystroke_p	p	n/a
449.076	0.075	898152	keystroke_Key.backspace	Key.backspace	n/a
449.541	0.0905	899082	keystroke_m	m	n/a
449.751	0.09	899502	keystroke_p	p	n/a
449.886	0.15	899772	keystroke_e	e	n/a
450.1865	0.1495	900373	keystroke_g	g	n/a
450.546	0.09	901092	keystroke_Key.space	Key.space	n/a
450.9355	0.0905	901871	keystroke_b	b	n/a
451.0405	0.15	902081	keystroke_e	e	n/a
451.1755	0.1355	902351	keystroke_a	a	n/a
451.281	0.0895	902562	keystroke_n	n	n/a
451.4455	0.12	902891	keystroke_s	s	n/a
451.701	0.09	903402	keystroke_Key.enter	Key.enter	n/a
451.797	12.266	903594	prompt	n/a	tunnel constantly christianity waiver\n
452.6315	0.105	905263	keystroke_t	t	n/a
452.7515	0.075	905503	keystroke_u	u	n/a
452.947	0.075	905894	keystroke_n	n	n/a
453.0965	0.09	906193	keystroke_n	n	n/a
453.231	0.195	906462	keystroke_e	e	n/a
453.366	0.135	906732	keystroke_r	r	n/a
453.486	0.105	906972	keystroke_l	l	n/a
453.681	0.09	907362	keystroke_Key.space	Key.space	n/a
454.0705	0.0605	908141	keystroke_c	c	n/a
454.1605	0.0905	908321	keystroke_o	o	n/a
454.521	0.09	909042	keystroke_Key.backspace	Key.backspace	n/a
454.731	0.075	909462	keystroke_Key.backspace	Key.backspace	n/a
454.9105	0.091	909821	keystroke_Key.backspace	Key.backspace	n/a
455.1365	0.12	910273	keystroke_Key.backspace	Key.backspace	n/a
455.4365	0.09	910873	keystroke_Key.backspace	Key.backspace	n/a
456.0065	0.0595	912013	keystroke_l	l	n/a
456.1555	0.09	912311	keystroke_Key.space	Key.space	n/a
456.3205	0.09	912641	keystroke_c	c	n/a
456.4255	0.091	912851	keystroke_o	o	n/a
456.7855	0.075	913571	keystroke_n	n	n/a
457.0265	0.0895	914053	keystroke_s	s	n/a
457.2065	0.12	914413	keystroke_t	t	n/a
457.3405	0.151	914681	keystroke_a	a	n/a
457.7765	0.089	915553	keystroke_n	n	n/a
458.1505	0.1205	916301	keystroke_t	t	n/a
458.5265	0.0905	917053	keystroke_l	l	n/a
458.7965	0.12	917593	keystroke_y	y	n/a
458.9915	0.105	917983	keystroke_Key.space	Key.space	n/a
459.1415	0.089	918283	keystroke_c	c	n/a
459.2765	0.09	918553	keystroke_h	h	n/a
459.3815	0.134	918763	keystroke_r	r	n/a
459.5455	0.091	919091	keystroke_i	i	n/a
459.6965	0.119	919393	keystroke_s	s	n/a
460.116	0.075	920232	keystroke_t	t	n/a
460.296	0.0755	920592	keystroke_i	i	n/a
460.521	0.1505	921042	keystroke_a	a	n/a
460.7315	0.075	921463	keystroke_n	n	n/a
460.9565	0.105	921913	keystroke_i	i	n/a
461.6465	0.089	923293	keystroke_t	t	n/a
461.7965	0.105	923593	keystroke_y	y	n/a
462.156	0.0895	924312	keystroke_Key.space	Key.space	n/a
462.4565	0.1495	924913	keystroke_w	w	n/a
462.636	0.135	925272	keystroke_a	a	n/a
462.816	0.09	925632	keystroke_i	i	n/a
463.266	0.045	926532	keystroke_v	v	n/a
463.596	0.1805	927192	keystroke_e	e	n/a
463.716	0.1505	927432	keystroke_r	r	n/a
463.9555	0.106	927911	keystroke_Key.enter	Key.enter	n/a
464.07	8.948	928140	prompt	n/a	resource killed enclosure rounds\n
464.766	0.06	929532	keystroke_t	t	n/a
465.321	0.105	930642	keystroke_r	r	n/a
465.591	0.09	931182	keystroke_Key.backspace	Key.backspace	n/a
465.771	0.075	931542	keystroke_Key.backspace	Key.backspace	n/a
465.9815	0.149	931963	keystroke_r	r	n/a
466.1165	0.149	932233	keystroke_e	e	n/a
466.2805	0.076	932561	keystroke_s	s	n/a
466.7305	0.0755	933461	keystroke_o	o	n/a
466.9265	0.089	933853	keystroke_u	u	n/a
467.0465	0.09	934093	keystroke_r	r	n/a
467.301	0.1205	934602	keystroke_c	c	n/a
467.526	0.105	935052	keystroke_e	e	n/a
467.691	0.105	935382	keystroke_Key.space	Key.space	n/a
468.0515	0.09	936103	keystroke_k	k	n/a
468.3215	0.12	936643	keystroke_i	i	n/a
468.5465	0.075	937093	keystroke_l	l	n/a
468.8015	0.015	937603	keystroke_l	l	n/a
468.831	0.1805	937662	keystroke_e	e	n/a
468.9665	0.12	937933	keystroke_d	d	n/a
469.101	0.1055	938202	keystroke_Key.space	Key.space	n/a
469.2515	0.0895	938503	keystroke_e	e	n/a
469.371	0.09	938742	keystroke_n	n	n/a
469.536	0.09	939072	keystroke_c	c	n/a
469.881	0.075	939762	keystroke_l	l	n/a
470.151	0.09	940302	keystroke_o	o	n/a
470.5865	0.0445	941173	keystroke_s	s	n/a
470.646	0.045	941292	keystroke_u	u	n/a
470.751	0.165	941502	keystroke_r	r	n/a
470.901	0.15	941802	keystroke_e	e	n/a
471.126	0.105	942252	keystroke_Key.space	Key.space	n/a
471.7865	0.1195	943573	keystroke_r	r	n/a
472.101	0.1045	944202	keystroke_o	o	n/a
472.296	0.0905	944592	keystroke_u	u	n/a
472.476	0.0905	944952	keystroke_n	n	n/a
472.596	0.12	945192	keystroke_d	d	n/a
472.731	0.1505	945462	keystroke_s	s	n/a
472.926	0.09	945852	keystroke_Key.enter	Key.enter	n/a
473.022	7.166	946044	prompt	n/a	salmon at mumbai west\n
473.631	0.09	947262	keystroke_r	r	n/a
473.976	0.105	947952	keystroke_Key.backspace	Key.backspace	n/a
474.1265	0.194	948253	keystroke_s	s	n/a
474.2915	0.12	948583	keystroke_a	a	n/a
474.4415	0.075	948883	keystroke_l	l	n/a
475.371	0.09	950742	keystroke_m	m	n/a
475.6105	0.09	951221	keystroke_o	o	n/a
475.881	0.0745	951762	keystroke_n	n	n/a
476.0455	0.09	952091	keystroke_Key.space	Key.space	n/a
476.2255	0.135	952451	keystroke_a	a	n/a
476.4215	0.09	952843	keystroke_t	t	n/a
476.5255	0.1055	953051	keystroke_Key.space	Key.space	n/a
476.9005	0.076	953801	keystroke_m	m	n/a
477.0815	0.09	954163	keystroke_u	u	n/a
477.2915	0.09	954583	keystroke_m	m	n/a
477.5455	0.075	955091	keystroke_b	b	n/a
477.6355	0.136	955271	keystroke_a	a	n/a
477.8015	0.119	955603	keystroke_i	i	n/a
477.9655	0.106	955931	keystroke_Key.space	Key.space	n/a
478.6415	0.075	957283	keystroke_w	w	n/a
479.1665	0.09	958333	keystroke_e	e	n/a
479.526	0.1195	959052	keystroke_s	s	n/a
479.7965	0.1195	959593	keystroke_t	t	n/a
480.096	0.09	960192	keystroke_Key.enter	Key.enter	n/a
480.1915	9.716	960383	prompt	n/a	competitions advisor designer happy\n
480.8915	0.09	961783	keystroke_c	c	n/a
480.9665	0.09	961933	keystroke_o	o	n/a
481.1165	0.104	962233	keystroke_m	m	n/a
481.2955	0.121	962591	keystroke_p	p	n/a
481.4465	0.105	962893	keystroke_e	e	n/a
481.671	0.0895	963342	keystroke_t	t	n/a
481.7905	0.105	963581	keystroke_i	i	n/a
481.926	0.1055	963852	keystroke_t	t	n/a
482.0765	0.03	964153	keystroke_i	i	n/a
482.1215	0.105	964243	keystroke_o	o	n/a
482.481	0.0905	964962	keystroke_n	n	n/a
482.7065	0.1345	965413	keystroke_s	s	n/a
482.886	0.105	965772	keystroke_Key.space	Key.space	n/a
483.321	0.135	966642	keystroke_a	a	n/a
483.516	0.105	967032	keystroke_d	d	n/a
484.086	0.0895	968172	keystroke_v	v	n/a
484.431	0.0905	968862	keystroke_i	i	n/a
484.716	0.1195	969432	keystroke_s	s	n/a
484.956	0.105	969912	keystroke_o	o	n/a
485.121	0.1055	970242	keystroke_r	r	n/a
485.436	0.0905	970872	keystroke_Key.space	Key.space	n/a
485.676	0.105	971352	keystroke_f	f	n/a
486.2165	0.12	972433	keystroke_Key.backspace	Key.backspace	n/a
486.9665	0.0595	973933	keystroke_d	d	n/a
487.251	0.105	974502	keystroke_e	e	n/a
487.536	0.12	975072	keystroke_s	s	n/a
487.731	0.1055	975462	keystroke_i	i	n/a
487.8965	0.1045	975793	keystroke_g	g	n/a
488.091	0.09	976182	keystroke_n	n	n/a
488.3005	0.211	976601	keystroke_e	e	n/a
488.451	0.135	976902	keystroke_r	r	n/a
488.691	0.09	977382	keystroke_Key.space	Key.space	n/a
488.8865	0.09	977773	keystroke_h	h	n/a
488.9915	0.1045	977983	keystroke_a	a	n/a
489.1255	0.061	978251	keystroke_p	p	n/a
489.2905	0.0605	978581	keystroke_p	p	n/a
489.5465	0.119	979093	keystroke_u	u	n/a
489.861	0.045	979722	keystroke_Key.enter	Key.enter	n/a
489.9125	8.8905	979825	prompt	n/a	shorts hepatitis ain't lotus\n
490.9565	0.119	981913	keystroke_s	s	n/a
491.0305	0.1055	982061	keystroke_h	h	n/a
491.226	0.1055	982452	keystroke_o	o	n/a
491.346	0.18	982692	keystroke_r	r	n/a
491.541	0.18	983082	keystroke_t	t	n/a
491.9315	0.104	983863	keystroke_s	s	n/a
492.0805	0.09	984161	keystroke_Key.space	Key.space	n/a
492.3805	0.0905	984761	keystroke_h	h	n/a
492.501	0.09	985002	keystroke_e	e	n/a
492.846	0.121	985692	keystroke_p	p	n/a
493.0115	0.1045	986023	keystroke_a	a	n/a
493.296	0.09	986592	keystroke_t	t	n/a
493.446	0.09	986892	keystroke_i	i	n/a
493.551	0.12	987102	keystroke_t	t	n/a
493.746	0.0905	987492	keystroke_i	i	n/a
494.4215	0.0895	988843	keystroke_s	s	n/a
494.556	0.09	989112	keystroke_Key.space	Key.space	n/a
494.841	0.1205	989682	keystroke_a	a	n/a
495.037	0.074	990074	keystroke_i	i	n/a
495.2605	0.091	990521	keystroke_n	n	n/a
496.161	0.165	992322	keystroke_'	'	n/a
496.6415	0.1045	993283	keystroke_t	t	n/a
496.941	0.1055	993882	keystroke_Key.space	Key.space	n/a
497.1665	0.105	994333	keystroke_l	l	n/a
497.3765	0.105	994753	keystroke_o	o	n/a
497.5415	0.075	995083	keystroke_t	t	n/a
498.186	0.0745	996372	keystroke_u	u	n/a
498.426	0.1055	996852	keystroke_s	s	n/a
498.696	0.1045	997392	keystroke_Key.enter	Key.enter	n/a
498.8075	7.33	997615	prompt	n/a	location tower pursue funded\n
499.4765	0.089	998953	keystroke_l	l	n/a
499.9705	0.105	999941	keystroke_o	o	n/a
500.121	0.135	1000242	keystroke_c	c	n/a
500.271	0.165	1000542	keystroke_a	a	n/a
500.481	0.105	1000962	keystroke_t	t	n/a
500.571	0.0895	1001142	keystroke_i	i	n/a
500.6915	0.1045	1001383	keystroke_o	o	n/a
500.916	0.075	1001832	keystroke_n	n	n/a
501.021	0.105	1002042	keystroke_Key.space	Key.space	n/a
501.156	0.105	1002312	keystroke_t	t	n/a
501.276	0.12	1002552	keystroke_o	o	n/a
501.4565	0.1795	1002913	keystroke_w	w	n/a
501.606	0.135	1003212	keystroke_e	e	n/a
501.921	0.1045	1003842	keystroke_r	r	n/a
502.0855	0.0755	1004171	keystroke_Key.space	Key.space	n/a
502.2655	0.105	1004531	keystroke_p	p	n/a
502.551	0.0745	1005102	keystroke_u	u	n/a
502.6855	0.106	1005371	keystroke_r	r	n/a
503.0005	0.12	1006001	keystroke_s	s	n/a
503.1365	0.06	1006273	keystroke_u	u	n/a
503.3755	0.091	1006751	keystroke_e	e	n/a
504.216	0.0895	1008432	keystroke_Key.space	Key.space	n/a
504.6055	0.06	1009211	keystroke_f	f	n/a
504.681	0.06	1009362	keystroke_u	u	n/a
504.861	0.0905	1009722	keystroke_n	n	n/a
505.431	0.09	1010862	keystroke_d	d	n/a
505.581	0.1805	1011162	keystroke_e	e	n/a
505.731	0.165	1011462	keystroke_d	d	n/a
506.031	0.105	1012062	keystroke_Key.enter	Key.enter	n/a
506.1415	9.5665	1012283	prompt	n/a	willow principles adding cave\n
506.871	0.12	1013742	keystroke_w	w	n/a
506.976	0.09	1013952	keystroke_i	i	n/a
507.2465	0.06	1014493	keystroke_l	l	n/a
507.4265	0.089	1014853	keystroke_l	l	n/a
507.711	0.0895	1015422	keystroke_o	o	n/a
507.816	0.12	1015632	keystroke_w	w	n/a
507.996	0.06	1015992	keystroke_Key.space	Key.space	n/a
508.1615	0.105	1016323	keystroke_p	p	n/a
508.281	0.075	1016562	keystroke_r	r	n/a
508.401	0.06	1016802	keystroke_u	u	n/a
509.0155	0.075	1018031	keystroke_Key.backspace	Key.backspace	n/a
509.4505	0.046	1018901	keystroke_i	i	n/a
510.0055	0.075	1020011	keystroke_n	n	n/a
510.231	0.09	1020462	keystroke_c	c	n/a
510.366	0.105	1020732	keystroke_i	i	n/a
510.577	0.089	1021154	keystroke_p	p	n/a
510.771	0.12	1021542	keystroke_l	l	n/a
510.8765	0.1645	1021753	keystroke_e	e	n/a
511.0265	0.1045	1022053	keystroke_s	s	n/a
511.9555	0.1055	1023911	keystroke_Key.space	Key.space	n/a
512.1205	0.105	1024241	keystroke_a	a	n/a
512.2855	0.106	1024571	keystroke_d	d	n/a
512.481	0.09	1024962	keystroke_d	d	n/a
512.6005	0.09	1025201	keystroke_i	i	n/a
512.7955	0.075	1025591	keystroke_n	n	n/a
512.8565	0.09	1025713	keystroke_g	g	n/a
512.991	0.09	1025982	keystroke_Key.space	Key.space	n/a
513.711	0.0305	1027422	keystroke_s	s	n/a
514.311	0.135	1028622	keystroke_Key.backspace	Key.backspace	n/a
514.716	0.075	1029432	keystroke_c	c	n/a
514.851	0.15	1029702	keystroke_a	a	n/a
515.136	0.105	1030272	keystroke_v	v	n/a
515.331	0.1355	1030662	keystroke_e	e	n/a
515.556	0.1495	1031112	keystroke_Key.enter	Key.enter	n/a
515.7125	6.6555	1031425	prompt	n/a	combined disable farmer boat\n
516.3355	0.076	1032671	keystroke_c	c	n/a
516.4265	0.0895	1032853	keystroke_o	o	n/a
516.606	0.075	1033212	keystroke_m	m	n/a
516.831	0.0905	1033662	keystroke_b	b	n/a
517.041	0.0905	1034082	keystroke_i	i	n/a
517.206	0.1055	1034412	keystroke_n	n	n/a
517.3265	0.18	1034653	keystroke_e	e	n/a
517.4455	0.105	1034891	keystroke_d	d	n/a
517.5655	0.075	1035131	keystroke_Key.space	Key.space	n/a
517.7765	0.105	1035553	keystroke_d	d	n/a
517.9115	0.09	1035823	keystroke_i	i	n/a
518.121	0.09	1036242	keystroke_s	s	n/a
518.316	0.105	1036632	keystroke_a	a	n/a
518.406	0.105	1036812	keystroke_b	b	n/a
518.676	0.075	1037352	keystroke_l	l	n/a
519.291	0.195	1038582	keystroke_e	e	n/a
519.501	0.045	1039002	keystroke_Key.space	Key.space	n/a
519.696	0.1055	1039392	keystroke_f	f	n/a
519.8315	0.18	1039663	keystroke_a	a	n/a
519.9665	0.12	1039933	keystroke_r	r	n/a
520.221	0.15	1040442	keystroke_e	e	n/a
520.686	0.09	1041372	keystroke_Key.backspace	Key.backspace	n/a
521.046	0.075	1042092	keystroke_m	m	n/a
521.136	0.195	1042272	keystroke_e	e	n/a
521.256	0.105	1042512	keystroke_r	r	n/a
521.4065	0.0745	1042813	keystroke_Key.space	Key.space	n/a
521.736	0.0905	1043472	keystroke_b	b	n/a
521.901	0.1205	1043802	keystroke_o	o	n/a
521.946	0.165	1043892	keystroke_a	a	n/a
522.126	0.09	1044252	keystroke_t	t	n/a
522.246	0.12	1044492	keystroke_Key.enter	Key.enter	n/a
522.3725	5.5005	1044745	prompt	n/a	recently tiny lose alleged\n
523.011	0.135	1046022	keystroke_r	r	n/a
523.131	0.1195	1046262	keystroke_e	e	n/a
523.356	0.12	1046712	keystroke_c	c	n/a
523.506	0.135	1047012	keystroke_e	e	n/a
523.671	0.09	1047342	keystroke_n	n	n/a
523.836	0.12	1047672	keystroke_t	t	n/a
524.001	0.1045	1048002	keystroke_l	l	n/a
524.541	0.0755	1049082	keystroke_y	y	n/a
524.7205	0.0905	1049441	keystroke_Key.space	Key.space	n/a
524.9155	0.09	1049831	keystroke_t	t	n/a
524.9915	0.074	1049983	keystroke_i	i	n/a
525.1865	0.0895	1050373	keystroke_n	n	n/a
525.411	0.135	1050822	keystroke_y	y	n/a
525.606	0.105	1051212	keystroke_Key.space	Key.space	n/a
525.861	0.09	1051722	keystroke_l	l	n/a
526.0415	0.1045	1052083	keystroke_o	o	n/a
526.221	0.1655	1052442	keystroke_s	s	n/a
526.372	0.119	1052744	keystroke_e	e	n/a
526.566	0.075	1053132	keystroke_Key.space	Key.space	n/a
526.7605	0.135	1053521	keystroke_a	a	n/a
526.8815	0.06	1053763	keystroke_l	l	n/a
527.0165	0.1045	1054033	keystroke_l	l	n/a
527.1955	0.0905	1054391	keystroke_e	e	n/a
527.3165	0.089	1054633	keystroke_g	g	n/a
527.4655	0.166	1054931	keystroke_e	e	n/a
527.6015	0.135	1055203	keystroke_d	d	n/a
527.781	0.0895	1055562	keystroke_Key.enter	Key.enter	n/a
527.8765	13.151	1055753	prompt	n/a	hunt prophet visual basketball\n
528.6515	0.075	1057303	keystroke_h	h	n/a
528.8165	0.09	1057633	keystroke_u	u	n/a
529.0265	0.09	1058053	keystroke_n	n	n/a
529.1465	0.105	1058293	keystroke_t	t	n/a
529.266	0.075	1058532	keystroke_Key.space	Key.space	n/a
529.506	0.105	1059012	keystroke_p	p	n/a
530.031	0.0605	1060062	keystroke_r	r	n/a
530.1965	0.074	1060393	keystroke_p	p	n/a
530.4365	0.0895	1060873	keystroke_h	h	n/a
530.571	0.135	1061142	keystroke_e	e	n/a
530.811	0.12	1061622	keystroke_t	t	n/a
531.006	0.105	1062012	keystroke_Key.space	Key.space	n/a
531.816	0.0755	1063632	keystroke_v	v	n/a
531.936	0.105	1063872	keystroke_i	i	n/a
532.1765	0.1045	1064353	keystroke_s	s	n/a
532.8505	0.09	1065701	keystroke_Key.backspace	Key.backspace	n/a
533.0465	0.074	1066093	keystroke_Key.backspace	Key.backspace	n/a
533.2105	0.09	1066421	keystroke_Key.backspace	Key.backspace	n/a
533.4055	0.075	1066811	keystroke_Key.backspace	Key.backspace	n/a
533.6005	0.0755	1067201	keystroke_Key.backspace	Key.backspace	n/a
533.796	0.09	1067592	keystroke_Key.backspace	Key.backspace	n/a
533.9915	0.1045	1067983	keystroke_Key.backspace	Key.backspace	n/a
534.3205	0.0905	1068641	keystroke_Key.backspace	Key.backspace	n/a
534.921	0.0755	1069842	keystroke_o	o	n/a
535.071	0.075	1070142	keystroke_p	p	n/a
535.281	0.09	1070562	keystroke_h	h	n/a
535.4165	0.1045	1070833	keystroke_e	e	n/a
535.566	0.075	1071132	keystroke_t	t	n/a
535.746	0.09	1071492	keystroke_Key.space	Key.space	n/a
536.196	0.09	1072392	keystroke_v	v	n/a
536.346	0.1045	1072692	keystroke_i	i	n/a
536.4965	0.12	1072993	keystroke_s	s	n/a
536.6005	0.105	1073201	keystroke_u	u	n/a
536.8105	0.151	1073621	keystroke_a	a	n/a
536.9915	0.12	1073983	keystroke_l	l	n/a
537.2165	0.074	1074433	keystroke_Key.space	Key.space	n/a
537.7865	0.06	1075573	keystroke_b	b	n/a
537.8615	0.18	1075723	keystroke_a	a	n/a
538.0115	0.15	1076023	keystroke_s	s	n/a
538.146	0.1055	1076292	keystroke_k	k	n/a
538.626	0.06	1077252	keystroke_e	e	n/a
538.836	0.1195	1077672	keystroke_t	t	n/a
539.136	0.106	1078272	keystroke_b	b	n/a
539.3165	0.134	1078633	keystroke_a	a	n/a
540.381	0.0895	1080762	keystroke_l	l	n/a
540.5915	0.12	1081183	keystroke_l	l	n/a
540.951	0.0745	1081902	keystroke_Key.enter	Key.enter	n/a
541.033	15.6845	1082066	prompt	n/a	fioricet kent unfortunately pregnant\n
542.7065	0.0745	1085413	keystroke_f	f	n/a
542.9615	0.1055	1085923	keystroke_i	i	n/a
544.566	0.12	1089132	keystroke_o	o	n/a
544.9265	0.1045	1089853	keystroke_r	r	n/a
545.241	0.105	1090482	keystroke_i	i	n/a
545.601	0.0755	1091202	keystroke_c	c	n/a
546.3065	0.03	1092613	keystroke_e	e	n/a
546.621	0.12	1093242	keystroke_t	t	n/a
546.876	0.075	1093752	keystroke_Key.space	Key.space	n/a
547.176	0.075	1094352	keystroke_k	k	n/a
547.296	0.12	1094592	keystroke_e	e	n/a
547.476	0.105	1094952	keystroke_n	n	n/a
547.6115	0.1045	1095223	keystroke_t	t	n/a
547.746	0.09	1095492	keystroke_Key.space	Key.space	n/a
549.7565	0.0885	1099513	keystroke_u	u	n/a
549.9665	0.0895	1099933	keystroke_n	n	n/a
550.086	0.09	1100172	keystroke_f	f	n/a
550.206	0.12	1100412	keystroke_o	o	n/a
550.371	0.075	1100742	keystroke_r	r	n/a
550.611	0.09	1101222	keystroke_t	t	n/a
550.716	0.075	1101432	keystroke_u	u	n/a
550.911	0.075	1101822	keystroke_n	n	n/a
550.971	0.165	1101942	keystroke_a	a	n/a
551.1655	0.121	1102331	keystroke_t	t	n/a
551.4215	0.09	1102843	keystroke_e	e	n/a
551.7065	0.03	1103413	keystroke_l	l	n/a
552.111	0.1055	1104222	keystroke_y	y	n/a
552.3205	0.105	1104641	keystroke_Key.space	Key.space	n/a
552.5155	0.0905	1105031	keystroke_p	p	n/a
552.6665	0.075	1105333	keystroke_r	r	n/a
553.311	0.09	1106622	keystroke_g	g	n/a
553.836	0.105	1107672	keystroke_Key.backspace	Key.backspace	n/a
553.971	0.0905	1107942	keystroke_e	e	n/a
554.2865	0.104	1108573	keystroke_g	g	n/a
554.661	0.06	1109322	keystroke_n	n	n/a
555.2015	0.0895	1110403	keystroke_a	a	n/a
555.4865	0.0745	1110973	keystroke_t	t	n/a
555.966	0.09	1111932	keystroke_Key.backspace	Key.backspace	n/a
556.2815	0.074	1112563	keystroke_n	n	n/a
556.3855	0.106	1112771	keystroke_t	t	n/a
556.566	0.1495	1113132	keystroke_Key.enter	Key.enter	n/a
556.722	8.921	1113444	prompt	n/a	when technological charger remarkable\n
557.5265	0.12	1115053	keystroke_w	w	n/a
557.6615	0.089	1115323	keystroke_h	h	n/a
557.796	0.1055	1115592	keystroke_e	e	n/a
557.8865	0.075	1115773	keystroke_n	n	n/a
558.0055	0.076	1116011	keystroke_Key.space	Key.space	n/a
558.126	0.105	1116252	keystroke_t	t	n/a
558.336	0.105	1116672	keystroke_e	e	n/a
558.6365	0.1195	1117273	keystroke_c	c	n/a
558.772	0.104	1117544	keystroke_h	h	n/a
559.041	0.06	1118082	keystroke_n	n	n/a
559.236	0.0755	1118472	keystroke_o	o	n/a
559.4455	0.09	1118891	keystroke_l	l	n/a
559.6265	0.105	1119253	keystroke_o	o	n/a
559.8505	0.076	1119701	keystroke_g	g	n/a
560.0005	0.0905	1120001	keystroke_i	i	n/a
560.181	0.12	1120362	keystroke_c	c	n/a
560.331	0.135	1120662	keystroke_a	a	n/a
560.451	0.1205	1120902	keystroke_l	l	n/a
560.631	0.0745	1121262	keystroke_Key.space	Key.space	n/a
560.871	0.0905	1121742	keystroke_c	c	n/a
560.9905	0.091	1121981	keystroke_h	h	n/a
561.1105	0.151	1122221	keystroke_a	a	n/a
561.2155	0.106	1122431	keystroke_r	r	n/a
561.3515	0.089	1122703	keystroke_g	g	n/a
561.4865	0.135	1122973	keystroke_e	e	n/a
561.6065	0.105	1123213	keystroke_r	r	n/a
561.7565	0.104	1123513	keystroke_Key.space	Key.space	n/a
562.102	0.104	1124204	keystroke_r	r	n/a
562.2215	0.1195	1124443	keystroke_e	e	n/a
562.476	0.1205	1124952	keystroke_a	a	n/a
563.076	0.075	1126152	keystroke_Key.backspace	Key.backspace	n/a
563.3605	0.09	1126721	keystroke_m	m	n/a
563.6305	0.1505	1127261	keystroke_a	a	n/a
563.811	0.1205	1127622	keystroke_r	r	n/a
564.066	0.075	1128132	keystroke_k	k	n/a
564.7405	0.1355	1129481	keystroke_a	a	n/a
564.9815	0.0895	1129963	keystroke_b	b	n/a
565.176	0.1055	1130352	keystroke_l	l	n/a
565.296	0.09	1130592	keystroke_e	e	n/a
565.506	0.135	1131012	keystroke_Key.enter	Key.enter	n/a
565.648	8.7255	1131296	prompt	n/a	assists typical surge committees\n
566.2115	0.149	1132423	keystroke_a	a	n/a
566.3915	0.075	1132783	keystroke_s	s	n/a
566.5865	0.09	1133173	keystroke_s	s	n/a
566.8105	0.0605	1133621	keystroke_i	i	n/a
567.0055	0.106	1134011	keystroke_s	s	n/a
567.306	0.1055	1134612	keystroke_t	t	n/a
567.6815	0.09	1135363	keystroke_s	s	n/a
567.786	0.09	1135572	keystroke_Key.space	Key.space	n/a
567.966	0.09	1135932	keystroke_t	t	n/a
568.251	0.1205	1136502	keystroke_y	y	n/a
568.4015	0.1035	1136803	keystroke_p	p	n/a
568.6115	0.105	1137223	keystroke_i	i	n/a
568.7465	0.134	1137493	keystroke_c	c	n/a
568.926	0.105	1137852	keystroke_a	a	n/a
569.0465	0.1045	1138093	keystroke_l	l	n/a
569.211	0.09	1138422	keystroke_Key.space	Key.space	n/a
569.541	0.105	1139082	keystroke_s	s	n/a
569.706	0.105	1139412	keystroke_u	u	n/a
569.8865	0.1045	1139773	keystroke_r	r	n/a
570.051	0.105	1140102	keystroke_g	g	n/a
570.2465	0.0895	1140493	keystroke_e	e	n/a
570.381	0.09	1140762	keystroke_Key.space	Key.space	n/a
570.681	0.105	1141362	keystroke_c	c	n/a
570.801	0.09	1141602	keystroke_o	o	n/a
571.026	0.06	1142052	keystroke_m	m	n/a
571.206	0.045	1142412	keystroke_m	m	n/a
571.416	0.075	1142832	keystroke_i	i	n/a
571.6115	0.0895	1143223	keystroke_t	t	n/a
572.901	0.09	1145802	keystroke_t	t	n/a
573.171	0.12	1146342	keystroke_e	e	n/a
573.546	0.12	1147092	keystroke_e	e	n/a
573.966	0.1205	1147932	keystroke_s	s	n/a
574.281	0.09	1148562	keystroke_Key.enter	Key.enter	n/a
574.3775	8.9955	1148755	prompt	n/a	exclusive hoped economies negotiations\n
575.136	0.09	1150272	keystroke_e	e	n/a
575.751	0.075	1151502	keystroke_x	x	n/a
575.9305	0.1055	1151861	keystroke_c	c	n/a
576.0515	0.1045	1152103	keystroke_l	l	n/a
576.2465	0.09	1152493	keystroke_u	u	n/a
576.351	0.09	1152702	keystroke_s	s	n/a
576.486	0.1355	1152972	keystroke_i	i	n/a
576.681	0.12	1153362	keystroke_v	v	n/a
576.951	0.1055	1153902	keystroke_e	e	n/a
577.101	0.09	1154202	keystroke_Key.space	Key.space	n/a
577.5215	0.06	1155043	keystroke_h	h	n/a
577.7315	0.0895	1155463	keystroke_o	o	n/a
577.897	0.119	1155794	keystroke_p	p	n/a
578.0615	0.18	1156123	keystroke_e	e	n/a
578.2265	0.1195	1156453	keystroke_d	d	n/a
578.376	0.075	1156752	keystroke_Key.space	Key.space	n/a
578.5265	0.1045	1157053	keystroke_e	e	n/a
578.7515	0.105	1157503	keystroke_c	c	n/a
578.9015	0.0745	1157803	keystroke_o	o	n/a
579.051	0.105	1158102	keystroke_n	n	n/a
579.246	0.09	1158492	keystroke_o	o	n/a
579.44	0.0765	1158880	keystroke_m	m	n/a
579.606	0.075	1159212	keystroke_i	i	n/a
579.771	0.165	1159542	keystroke_c	c	n/a
579.9955	0.1355	1159991	keystroke_s	s	n/a
580.176	0.105	1160352	keystroke_Key.space	Key.space	n/a
580.626	0.046	1161252	keystroke_n	n	n/a
580.791	0.12	1161582	keystroke_e	e	n/a
581.2255	0.0755	1162451	keystroke_g	g	n/a
581.4215	0.12	1162843	keystroke_o	o	n/a
581.9315	0.1045	1163863	keystroke_t	t	n/a
582.0965	0.09	1164193	keystroke_i	i	n/a
582.276	0.135	1164552	keystroke_a	a	n/a
582.6065	0.06	1165213	keystroke_t	t	n/a
582.681	0.075	1165362	keystroke_i	i	n/a
582.786	0.1195	1165572	keystroke_o	o	n/a
582.9955	0.0755	1165991	keystroke_n	n	n/a
583.1315	0.12	1166263	keystroke_s	s	n/a
583.2805	0.09	1166561	keystroke_Key.enter	Key.enter	n/a
583.377	7.226	1166754	prompt	n/a	others staying lite theatre\n
584.0615	0.1045	1168123	keystroke_o	o	n/a
584.181	0.12	1168362	keystroke_t	t	n/a
584.316	0.105	1168632	keystroke_h	h	n/a
584.4515	0.1795	1168903	keystroke_e	e	n/a
584.601	0.135	1169202	keystroke_r	r	n/a
584.7515	0.0895	1169503	keystroke_Key.space	Key.space	n/a
585.066	0.1355	1170132	keystroke_s	s	n/a
585.321	0.1045	1170642	keystroke_t	t	n/a
585.6665	0.09	1171333	keystroke_a	a	n/a
585.8165	0.09	1171633	keystroke_y	y	n/a
586.0715	0.075	1172143	keystroke_i	i	n/a
586.251	0.0905	1172502	keystroke_n	n	n/a
586.371	0.0905	1172742	keystroke_g	g	n/a
586.491	0.105	1172982	keystroke_Key.space	Key.space	n/a
587.016	0.06	1174032	keystroke_l	l	n/a
587.166	0.075	1174332	keystroke_i	i	n/a
