onset	duration	sample	value	key	prompt_text
12.221	10.663	24442	prompt	n/a	the quick brown fox jumps over a lazy dog\n
15.369	0.027	30738	keystroke_q	q	n/a
15.4555	0.0755	30911	keystroke_u	u	n/a
15.606	0.1205	31212	keystroke_i	i	n/a
15.757	0.0895	31514	keystroke_c	c	n/a
15.8615	0.135	31723	keystroke_k	k	n/a
16.0865	0.089	32173	keystroke_Key.space	Key.space	n/a
16.611	0.0455	33222	keystroke_b	b	n/a
16.7615	0.105	33523	keystroke_r	r	n/a
16.851	0.1205	33702	keystroke_o	o	n/a
17.0005	0.0905	34001	keystroke_w	w	n/a
17.1055	0.1065	34211	keystroke_n	n	n/a
17.3015	0.0745	34603	keystroke_Key.space	Key.space	n/a
17.7505	0.0905	35501	keystroke_f	f	n/a
17.8865	0.12	35773	keystroke_o	o	n/a
18.0965	0.104	36193	keystroke_x	x	n/a
18.2315	0.0895	36463	keystroke_Key.space	Key.space	n/a
18.396	0.0895	36792	keystroke_j	j	n/a
18.5915	0.0895	37183	keystroke_u	u	n/a
18.876	0.1055	37752	keystroke_m	m	n/a
19.0865	0.1205	38173	keystroke_p	p	n/a
19.4765	0.075	38953	keystroke_s	s	n/a
19.5965	0.075	39193	keystroke_Key.space	Key.space	n/a
19.7315	0.1205	39463	keystroke_o	o	n/a
19.8665	0.09	39733	keystroke_v	v	n/a
20.047	0.09	40094	keystroke_e	e	n/a
20.2115	0.09	40423	keystroke_r	r	n/a
20.3165	0.09	40633	keystroke_Key.space	Key.space	n/a
20.4965	0.105	40993	keystroke_a	a	n/a
20.5705	0.076	41141	keystroke_Key.space	Key.space	n/a
20.7065	0.1345	41413	keystroke_l	l	n/a
20.8265	0.105	41653	keystroke_a	a	n/a
21.0815	0.105	42163	keystroke_z	z	n/a
21.231	0.0755	42462	keystroke_y	y	n/a
21.501	0.0755	43002	keystroke_Key.space	Key.space	n/a
21.801	0.06	43602	keystroke_d	d	n/a
21.9065	0.1345	43813	keystroke_o	o	n/a
22.7015	0.09	45403	keystroke_g	g	n/a
22.8065	0.074	45613	keystroke_Key.enter	Key.enter	n/a
22.889	8.6045	45778	prompt	n/a	suggestions advertise caught unusual\n
24.0665	0.0905	48133	keystroke_s	s	n/a
24.2015	0.0895	48403	keystroke_u	u	n/a
24.411	0.0755	48822	keystroke_g	g	n/a
24.5465	0.0905	49093	keystroke_g	g	n/a
24.7265	0.09	49453	keystroke_e	e	n/a
24.9665	0.105	49933	keystroke_s	s	n/a
25.2515	0.0595	50503	keystroke_t	t	n/a
25.3715	0.12	50743	keystroke_i	i	n/a
25.4165	0.1495	50833	keystroke_o	o	n/a
25.596	0.135	51192	keystroke_n	n	n/a
25.7615	0.0905	51523	keystroke_s	s	n/a
25.8665	0.09	51733	keystroke_Key.space	Key.space	n/a
25.9865	0.135	51973	keystroke_a	a	n/a
26.1515	0.075	52303	keystroke_d	d	n/a
26.3165	0.0755	52633	keystroke_v	v	n/a
26.526	0.076	53052	keystroke_e	e	n/a
26.706	0.03	53412	keystroke_r	r	n/a
26.872	0.0595	53744	keystroke_t	t	n/a
27.006	0.106	54012	keystroke_i	i	n/a
27.186	0.1055	54372	keystroke_s	s	n/a
27.426	0.06	54852	keystroke_e	e	n/a
28.0865	0.075	56173	keystroke_Key.space	Key.space	n/a
28.417	0.135	56834	keystroke_c	c	n/a
28.5215	0.1645	57043	keystroke_a	a	n/a
28.776	0.09	57552	keystroke_u	u	n/a
29.0165	0.0745	58033	keystroke_g	g	n/a
29.136	0.1055	58272	keystroke_h	h	n/a
29.272	0.0895	58544	keystroke_t	t	n/a
29.4365	0.105	58873	keystroke_Key.space	Key.space	n/a
29.6615	0.0895	59323	keystroke_u	u	n/a
29.857	0.0895	59714	keystroke_n	n	n/a
30.081	0.076	60162	keystroke_u	u	n/a
30.2915	0.0905	60583	keystroke_s	s	n/a
30.3965	0.09	60793	keystroke_u	u	n/a
30.6515	0.075	61303	keystroke_a	a	n/a
30.8015	0.12	61603	keystroke_l	l	n/a
31.4165	0.075	62833	keystroke_Key.enter	Key.enter	n/a
31.499	7.8845	62998	prompt	n/a	print coach boxes commodity\n
32.256	0.1205	64512	keystroke_p	p	n/a
32.8715	0.0905	65743	keystroke_r	r	n/a
32.9465	0.12	65893	keystroke_i	i	n/a
33.1265	0.12	66253	keystroke_n	n	n/a
33.3515	0.09	66703	keystroke_t	t	n/a
33.7115	0.105	67423	keystroke_Key.space	Key.space	n/a
33.9665	0.09	67933	keystroke_c	c	n/a
34.3865	0.1205	68773	keystroke_o	o	n/a
34.5365	0.12	69073	keystroke_a	a	n/a
34.7615	0.105	69523	keystroke_c	c	n/a
34.8515	0.12	69703	keystroke_h	h	n/a
34.9565	0.105	69913	keystroke_Key.space	Key.space	n/a
35.1965	0.12	70393	keystroke_o	o	n/a
35.6465	0.075	71293	keystroke_Key.backspace	Key.backspace	n/a
35.767	0.0745	71534	keystroke_b	b	n/a
35.917	0.1205	71834	keystroke_o	o	n/a
36.3665	0.105	72733	keystroke_x	x	n/a
36.6815	0.091	73363	keystroke_e	e	n/a
36.9365	0.0745	73873	keystroke_s	s	n/a
37.161	0.076	74322	keystroke_Key.space	Key.space	n/a
37.4165	0.09	74833	keystroke_c	c	n/a
37.522	0.1195	75044	keystroke_o	o	n/a
37.746	0.061	75492	keystroke_m	m	n/a
37.866	0.0905	75732	keystroke_m	m	n/a
38.1065	0.1045	76213	keystroke_o	o	n/a
38.287	0.0745	76574	keystroke_d	d	n/a
38.376	0.105	76752	keystroke_i	i	n/a
38.631	0.075	77262	keystroke_t	t	n/a
38.752	0.0895	77504	keystroke_y	y	n/a
39.321	0.06	78642	keystroke_Key.enter	Key.enter	n/a
39.389	7.1045	78778	prompt	n/a	trained eternal assist advances\n
40.312	0.09	80624	keystroke_t	t	n/a
40.5515	0.09	81103	keystroke_r	r	n/a
40.8365	0.105	81673	keystroke_a	a	n/a
41.1215	0.09	82243	keystroke_i	i	n/a
41.332	0.0895	82664	keystroke_n	n	n/a
41.602	0.0595	83204	keystroke_e	e	n/a
41.7815	0.0905	83563	keystroke_d	d	n/a
41.9015	0.0905	83803	keystroke_Key.space	Key.space	n/a
42.082	0.1045	84164	keystroke_e	e	n/a
42.292	0.075	84584	keystroke_t	t	n/a
42.4425	0.119	84885	keystroke_e	e	n/a
42.621	0.0905	85242	keystroke_r	r	n/a
42.742	0.1045	85484	keystroke_n	n	n/a
42.8765	0.1195	85753	keystroke_a	a	n/a
43.071	0.136	86142	keystroke_l	l	n/a
43.236	0.076	86472	keystroke_Key.space	Key.space	n/a
43.4465	0.105	86893	keystroke_a	a	n/a
43.6715	0.075	87343	keystroke_s	s	n/a
43.8215	0.09	87643	keystroke_s	s	n/a
43.972	0.1045	87944	keystroke_i	i	n/a
44.1965	0.105	88393	keystroke_s	s	n/a
44.497	0.0745	88994	keystroke_t	t	n/a
44.692	0.0745	89384	keystroke_Key.space	Key.space	n/a
44.872	0.09	89744	keystroke_a	a	n/a
45.052	0.09	90104	keystroke_d	d	n/a
45.231	0.1355	90462	keystroke_v	v	n/a
45.321	0.136	90642	keystroke_a	a	n/a
45.472	0.0895	90944	keystroke_n	n	n/a
45.577	0.0745	91154	keystroke_c	c	n/a
45.966	0.075	91932	keystroke_e	e	n/a
46.1915	0.075	92383	keystroke_s	s	n/a
46.401	0.0905	92802	keystroke_Key.enter	Key.enter	n/a
46.4975	11.576	92995	prompt	n/a	tour sophisticated angry concentration\n
47.407	0.075	94814	keystroke_t	t	n/a
47.572	0.21	95144	keystroke_o	o	n/a
47.722	0.12	95444	keystroke_u	u	n/a
48.067	0.075	96134	keystroke_r	r	n/a
48.606	0.09	97212	keystroke_Key.space	Key.space	n/a
48.847	0.0745	97694	keystroke_s	s	n/a
49.297	0.15	98594	keystroke_o	o	n/a
49.432	0.09	98864	keystroke_p	p	n/a
49.626	0.091	99252	keystroke_h	h	n/a
49.762	0.12	99524	keystroke_i	i	n/a
50.527	0.075	101054	keystroke_s	s	n/a
50.811	0.076	101622	keystroke_t	t	n/a
50.902	0.119	101804	keystroke_i	i	n/a
51.0665	0.105	102133	keystroke_c	c	n/a
51.2615	0.1055	102523	keystroke_a	a	n/a
51.4865	0.09	102973	keystroke_t	t	n/a
51.6815	0.06	103363	keystroke_e	e	n/a
51.877	0.0745	103754	keystroke_d	d	n/a
52.027	0.0745	104054	keystroke_Key.space	Key.space	n/a
52.222	0.12	104444	keystroke_a	a	n/a
52.3715	0.1055	104743	keystroke_n	n	n/a
53.077	0.045	106154	keystroke_g	g	n/a
53.227	0.075	106454	keystroke_r	r	n/a
53.377	0.075	106754	keystroke_y	y	n/a
54.3365	0.075	108673	keystroke_Key.space	Key.space	n/a
54.6375	0.0595	109275	keystroke_c	c	n/a
54.727	0.105	109454	keystroke_o	o	n/a
54.892	0.12	109784	keystroke_n	n	n/a
55.027	0.09	110054	keystroke_s	s	n/a
55.3865	0.1055	110773	keystroke_Key.backspace	Key.backspace	n/a
55.4775	0.074	110955	keystroke_c	c	n/a
55.6865	0.061	111373	keystroke_e	e	n/a
56.377	0.0745	112754	keystroke_t	t	n/a
56.542	0.0895	113084	keystroke_r	r	n/a
56.7075	0.1345	113415	keystroke_a	a	n/a
56.977	0.0905	113954	keystroke_t	t	n/a
57.0825	0.179	114165	keystroke_i	i	n/a
57.1865	0.165	114373	keystroke_o	o	n/a
57.3825	0.134	114765	keystroke_n	n	n/a
57.9965	0.0755	115993	keystroke_Key.enter	Key.enter	n/a
58.0775	13.212	116155	prompt	n/a	destroy basket theta breeds\n
59.047	0.09	118094	keystroke_d	d	n/a
59.287	0.0595	118574	keystroke_e	e	n/a
59.467	0.12	118934	keystroke_s	s	n/a
59.721	0.076	119442	keystroke_t	t	n/a
59.947	0.075	119894	keystroke_r	r	n/a
60.037	0.089	120074	keystroke_o	o	n/a
60.232	0.0755	120464	keystroke_y	y	n/a
60.247	0.044	120494	keystroke_u	u	n/a
60.4715	0.075	120943	keystroke_Key.space	Key.space	n/a
61.012	0.0745	122024	keystroke_b	b	n/a
61.147	0.12	122294	keystroke_a	a	n/a
61.372	0.105	122744	keystroke_s	s	n/a
61.4915	0.136	122983	keystroke_k	k	n/a
61.642	0.0745	123284	keystroke_e	e	n/a
63.1565	0.0605	126313	keystroke_Key.backspace	Key.backspace	n/a
63.3665	0.0455	126733	keystroke_Key.backspace	Key.backspace	n/a
63.561	0.045	127122	keystroke_Key.backspace	Key.backspace	n/a
63.756	0.075	127512	keystroke_Key.backspace	Key.backspace	n/a
63.996	0.0755	127992	keystroke_Key.backspace	Key.backspace	n/a
64.3715	0.0755	128743	keystroke_Key.backspace	Key.backspace	n/a
64.927	0.0745	129854	keystroke_Key.backspace	Key.backspace	n/a
65.707	0.059	131414	keystroke_Key.space	Key.space	n/a
65.902	0.105	131804	keystroke_b	b	n/a
66.0215	0.1055	132043	keystroke_a	a	n/a
66.232	0.09	132464	keystroke_s	s	n/a
66.442	0.12	132884	keystroke_k	k	n/a
66.532	0.09	133064	keystroke_e	e	n/a
66.742	0.105	133484	keystroke_t	t	n/a
67.3715	0.0755	134743	keystroke_Key.space	Key.space	n/a
67.807	0.075	135614	keystroke_t	t	n/a
67.8975	0.1045	135795	keystroke_h	h	n/a
68.077	0.1055	136154	keystroke_e	e	n/a
68.347	0.06	136694	keystroke_t	t	n/a
68.5715	0.1205	137143	keystroke_a	a	n/a
68.767	0.0745	137534	keystroke_Key.space	Key.space	n/a
69.097	0.0745	138194	keystroke_v	v	n/a
69.787	0.09	139574	keystroke_Key.backspace	Key.backspace	n/a
70.0275	0.0745	140055	keystroke_b	b	n/a
70.282	0.0895	140564	keystroke_r	r	n/a
70.432	0.075	140864	keystroke_e	e	n/a
70.582	0.075	141164	keystroke_e	e	n/a
70.792	0.09	141584	keystroke_d	d	n/a
70.987	0.09	141974	keystroke_s	s	n/a
71.227	0.06	142454	keystroke_Key.enter	Key.enter	n/a
71.3015	8.282	142603	prompt	n/a	researchers having exclusive girls\n
72.0515	0.09	144103	keystroke_r	r	n/a
72.202	0.0895	144404	keystroke_e	e	n/a
72.457	0.105	144914	keystroke_s	s	n/a
72.667	0.0905	145334	keystroke_e	e	n/a
72.8615	0.12	145723	keystroke_a	a	n/a
73.102	0.0745	146204	keystroke_r	r	n/a
73.3265	0.1055	146653	keystroke_c	c	n/a
73.4615	0.1205	146923	keystroke_h	h	n/a
73.6565	0.105	147313	keystroke_e	e	n/a
73.867	0.09	147734	keystroke_r	r	n/a
74.1065	0.105	148213	keystroke_s	s	n/a
74.2565	0.09	148513	keystroke_Key.space	Key.space	n/a
74.4815	0.105	148963	keystroke_h	h	n/a
74.632	0.1045	149264	keystroke_a	a	n/a
74.902	0.075	149804	keystroke_v	v	n/a
75.141	0.09	150282	keystroke_i	i	n/a
75.3075	0.1045	150615	keystroke_n	n	n/a
75.4415	0.075	150883	keystroke_g	g	n/a
75.5615	0.1055	151123	keystroke_Key.space	Key.space	n/a
75.802	0.105	151604	keystroke_e	e	n/a
76.177	0.075	152354	keystroke_x	x	n/a
76.447	0.09	152894	keystroke_c	c	n/a
76.627	0.135	153254	keystroke_l	l	n/a
76.882	0.09	153764	keystroke_u	u	n/a
77.077	0.1045	154154	keystroke_s	s	n/a
77.1675	0.104	154335	keystroke_i	i	n/a
77.332	0.0895	154664	keystroke_v	v	n/a
77.557	0.075	155114	keystroke_e	e	n/a
77.6915	0.0905	155383	keystroke_Key.space	Key.space	n/a
78.307	0.075	156614	keystroke_g	g	n/a
78.4115	0.1355	156823	keystroke_i	i	n/a
78.5775	0.0895	157155	keystroke_r	r	n/a
78.7865	0.151	157573	keystroke_l	l	n/a
78.9515	0.076	157903	keystroke_s	s	n/a
79.507	0.0745	159014	keystroke_Key.enter	Key.enter	n/a
79.59	8.064	159180	prompt	n/a	register spot oxide tractor\n
80.362	0.12	160724	keystroke_r	r	n/a
80.4975	0.119	160995	keystroke_e	e	n/a
80.7665	0.075	161533	keystroke_g	g	n/a
80.887	0.105	161774	keystroke_i	i	n/a
81.0665	0.1355	162133	keystroke_s	s	n/a
81.352	0.09	162704	keystroke_t	t	n/a
81.577	0.105	163154	keystroke_e	e	n/a
81.772	0.09	163544	keystroke_r	r	n/a
81.922	0.105	163844	keystroke_Key.space	Key.space	n/a
82.087	0.1345	164174	keystroke_s	s	n/a
82.2375	0.104	164475	keystroke_p	p	n/a
82.3125	0.1645	164625	keystroke_o	o	n/a
82.747	0.0745	165494	keystroke_t	t	n/a
82.8965	0.0755	165793	keystroke_Key.space	Key.space	n/a
83.167	0.1045	166334	keystroke_o	o	n/a
83.3915	0.0905	166783	keystroke_x	x	n/a
83.6315	0.0905	167263	keystroke_i	i	n/a
83.7815	0.06	167563	keystroke_d	d	n/a
83.9615	0.0595	167923	keystroke_e	e	n/a
85.4915	0.075	170983	keystroke_Key.space	Key.space	n/a
85.7615	0.0605	171523	keystroke_t	t	n/a
85.942	0.09	171884	keystroke_r	r	n/a
86.137	0.1205	172274	keystroke_a	a	n/a
86.377	0.0895	172754	keystroke_c	c	n/a
86.677	0.0745	173354	keystroke_t	t	n/a
86.812	0.135	173624	keystroke_o	o	n/a
86.961	0.076	173922	keystroke_r	r	n/a
87.576	0.076	175152	keystroke_Key.enter	Key.enter	n/a
87.6585	7.21	175317	prompt	n/a	phoenix oral natural indiana\n
89.212	0.1045	178424	keystroke_p	p	n/a
89.4815	0.105	178963	keystroke_h	h	n/a
89.6165	0.15	179233	keystroke_o	o	n/a
89.857	0.0595	179714	keystroke_e	e	n/a
89.9765	0.09	179953	keystroke_n	n	n/a
90.1415	0.1205	180283	keystroke_i	i	n/a
90.682	0.0745	181364	keystroke_x	x	n/a
90.9365	0.0755	181873	keystroke_Key.space	Key.space	n/a
91.5065	0.106	183013	keystroke_o	o	n/a
91.642	0.1345	183284	keystroke_r	r	n/a
91.792	0.1345	183584	keystroke_a	a	n/a
91.8815	0.1505	183763	keystroke_l	l	n/a
91.9865	0.09	183973	keystroke_Key.space	Key.space	n/a
92.1515	0.1055	184303	keystroke_n	n	n/a
92.257	0.12	184514	keystroke_a	a	n/a
92.5115	0.0905	185023	keystroke_t	t	n/a
92.6165	0.1205	185233	keystroke_u	u	n/a
92.7815	0.0905	185563	keystroke_r	r	n/a
92.977	0.15	185954	keystroke_a	a	n/a
93.0665	0.1505	186133	keystroke_l	l	n/a
93.1865	0.09	186373	keystroke_Key.space	Key.space	n/a
93.3515	0.0755	186703	keystroke_i	i	n/a
93.502	0.105	187004	keystroke_n	n	n/a
93.621	0.075	187242	keystroke_d	d	n/a
93.772	0.1195	187544	keystroke_i	i	n/a
93.952	0.105	187904	keystroke_a	a	n/a
94.102	0.09	188204	keystroke_n	n	n/a
94.221	0.091	188442	keystroke_a	a	n/a
94.777	0.089	189554	keystroke_Key.enter	Key.enter	n/a
94.872	7.1215	189744	prompt	n/a	nationally sheep largely athens\n
95.542	0.0895	191084	keystroke_n	n	n/a
95.616	0.121	191232	keystroke_a	a	n/a
95.917	0.089	191834	keystroke_t	t	n/a
96.592	0.135	193184	keystroke_i	i	n/a
96.697	0.135	193394	keystroke_o	o	n/a
96.862	0.135	193724	keystroke_n	n	n/a
97.012	0.105	194024	keystroke_a	a	n/a
97.132	0.09	194264	keystroke_l	l	n/a
97.297	0.105	194594	keystroke_l	l	n/a
97.5215	0.09	195043	keystroke_y	y	n/a
97.7165	0.105	195433	keystroke_Key.space	Key.space	n/a
97.912	0.105	195824	keystroke_s	s	n/a
98.0015	0.1205	196003	keystroke_h	h	n/a
98.332	0.0745	196664	keystroke_e	e	n/a
98.497	0.0745	196994	keystroke_e	e	n/a
98.707	0.12	197414	keystroke_p	p	n/a
98.857	0.09	197714	keystroke_Key.space	Key.space	n/a
99.0365	0.105	198073	keystroke_l	l	n/a
99.1565	0.1195	198313	keystroke_a	a	n/a
99.4115	0.09	198823	keystroke_r	r	n/a
99.682	0.0895	199364	keystroke_g	g	n/a
99.921	0.076	199842	keystroke_e	e	n/a
100.042	0.12	200084	keystroke_l	l	n/a
100.312	0.075	200624	keystroke_y	y	n/a
100.4465	0.0755	200893	keystroke_Key.space	Key.space	n/a
100.6265	0.105	201253	keystroke_a	a	n/a
100.9115	0.0755	201823	keystroke_t	t	n/a
101.0315	0.1655	202063	keystroke_h	h	n/a
101.2715	0.0895	202543	keystroke_e	e	n/a
101.4515	0.1055	202903	keystroke_n	n	n/a
101.646	0.076	203292	keystroke_s	s	n/a
101.902	0.09	203804	keystroke_Key.enter	Key.enter	n/a
101.999	9.49	203998	prompt	n/a	automatic dimensions ability teen\n
102.742	0.105	205484	keystroke_a	a	n/a
103.0115	0.075	206023	keystroke_t	t	n/a
103.132	0.0895	206264	keystroke_u	u	n/a
103.9115	0.075	207823	keystroke_Key.backspace	Key.backspace	n/a
104.1065	0.075	208213	keystroke_Key.backspace	Key.backspace	n/a
104.496	0.061	208992	keystroke_u	u	n/a
104.751	0.076	209502	keystroke_t	t	n/a
104.8115	0.1055	209623	keystroke_o	o	n/a
104.977	0.12	209954	keystroke_m	m	n/a
105.082	0.12	210164	keystroke_a	a	n/a
105.367	0.09	210734	keystroke_t	t	n/a
105.487	0.135	210974	keystroke_i	i	n/a
105.667	0.105	211334	keystroke_c	c	n/a
105.8015	0.09	211603	keystroke_Key.space	Key.space	n/a
106.0115	0.075	212023	keystroke_d	d	n/a
106.117	0.0745	212234	keystroke_i	i	n/a
106.2665	0.1205	212533	keystroke_m	m	n/a
106.432	0.0745	212864	keystroke_e	e	n/a
106.5665	0.075	213133	keystroke_n	n	n/a
106.7015	0.12	213403	keystroke_s	s	n/a
107.6465	0.1355	215293	keystroke_i	i	n/a
107.752	0.1195	215504	keystroke_o	o	n/a
107.9165	0.12	215833	keystroke_n	n	n/a
108.097	0.0895	216194	keystroke_s	s	n/a
109.2665	0.075	218533	keystroke_Key.space	Key.space	n/a
109.432	0.0895	218864	keystroke_a	a	n/a
109.657	0.0745	219314	keystroke_b	b	n/a
109.7165	0.0905	219433	keystroke_i	i	n/a
109.897	0.12	219794	keystroke_l	l	n/a
110.002	0.135	220004	keystroke_i	i	n/a
110.212	0.105	220424	keystroke_t	t	n/a
110.362	0.105	220724	keystroke_y	y	n/a
110.437	0.105	220874	keystroke_Key.space	Key.space	n/a
110.707	0.075	221414	keystroke_t	t	n/a
110.872	0.089	221744	keystroke_e	e	n/a
111.052	0.09	222104	keystroke_e	e	n/a
111.2015	0.0905	222403	keystroke_n	n	n/a
111.412	0.075	222824	keystroke_Key.enter	Key.enter	n/a
111.493	8.8305	222986	prompt	n/a	popular seekers daughter alternative\n
112.297	0.09	224594	keystroke_p	p	n/a
112.4615	0.1195	224923	keystroke_o	o	n/a
112.612	0.104	225224	keystroke_p	p	n/a
112.8515	0.0755	225703	keystroke_u	u	n/a
113.091	0.1205	226182	keystroke_l	l	n/a
113.256	0.091	226512	keystroke_a	a	n/a
113.481	0.091	226962	keystroke_r	r	n/a
113.616	0.09	227232	keystroke_Key.space	Key.space	n/a
113.8565	0.105	227713	keystroke_s	s	n/a
114.0815	0.045	228163	keystroke_e	e	n/a
114.187	0.075	228374	keystroke_e	e	n/a
114.307	0.1495	228614	keystroke_k	k	n/a
114.4415	0.09	228883	keystroke_e	e	n/a
114.6215	0.09	229243	keystroke_r	r	n/a
114.8615	0.105	229723	keystroke_s	s	n/a
114.9815	0.0905	229963	keystroke_Key.space	Key.space	n/a
115.1315	0.1195	230263	keystroke_d	d	n/a
115.296	0.1505	230592	keystroke_a	a	n/a
115.4615	0.0895	230923	keystroke_u	u	n/a
116.2265	0.075	232453	keystroke_g	g	n/a
116.347	0.1045	232694	keystroke_h	h	n/a
116.4365	0.1055	232873	keystroke_e	e	n/a
116.827	0.075	233654	keystroke_Key.backspace	Key.backspace	n/a
116.917	0.075	233834	keystroke_t	t	n/a
117.082	0.105	234164	keystroke_e	e	n/a
117.277	0.075	234554	keystroke_r	r	n/a
117.726	0.076	235452	keystroke_Key.space	Key.space	n/a
117.876	0.136	235752	keystroke_a	a	n/a
117.951	0.136	235902	keystroke_l	l	n/a
118.191	0.09	236382	keystroke_t	t	n/a
118.387	0.09	236774	keystroke_e	e	n/a
118.582	0.089	237164	keystroke_r	r	n/a
118.687	0.09	237374	keystroke_n	n	n/a
119.362	0.105	238724	keystroke_a	a	n/a
119.647	0.06	239294	keystroke_t	t	n/a
119.737	0.119	239474	keystroke_i	i	n/a
119.872	0.105	239744	keystroke_v	v	n/a
120.052	0.075	240104	keystroke_e	e	n/a
120.261	0.061	240522	keystroke_Key.enter	Key.enter	n/a
120.3285	8.7845	240657	prompt	n/a	proved psychology green reception\n
121.1615	0.105	242323	keystroke_p	p	n/a
121.537	0.0745	243074	keystroke_r	r	n/a
121.957	0.014	243914	keystroke_o	o	n/a
122.646	0.091	245292	keystroke_v	v	n/a
122.826	0.061	245652	keystroke_e	e	n/a
122.9915	0.0755	245983	keystroke_d	d	n/a
123.2465	0.09	246493	keystroke_Key.space	Key.space	n/a
123.442	0.06	246884	keystroke_p	p	n/a
123.727	0.075	247454	keystroke_s	s	n/a
123.847	0.075	247694	keystroke_y	y	n/a
124.027	0.09	248054	keystroke_c	c	n/a
124.117	0.135	248234	keystroke_h	h	n/a
124.207	0.135	248414	keystroke_o	o	n/a
124.417	0.075	248834	keystroke_l	l	n/a
124.597	0.1195	249194	keystroke_o	o	n/a
124.8815	0.075	249763	keystroke_g	g	n/a
125.001	0.106	250002	keystroke_y	y	n/a
125.151	0.105	250302	keystroke_Key.space	Key.space	n/a
125.7515	0.0605	251503	keystroke_g	g	n/a
125.946	0.0905	251892	keystroke_r	r	n/a
126.1115	0.0895	252223	keystroke_e	e	n/a
126.291	0.075	252582	keystroke_e	e	n/a
126.426	0.105	252852	keystroke_n	n	n/a
126.606	0.0755	253212	keystroke_Key.space	Key.space	n/a
126.951	0.075	253902	keystroke_r	r	n/a
127.071	0.0755	254142	keystroke_e	e	n/a
127.2665	0.0905	254533	keystroke_c	c	n/a
127.491	0.0605	254982	keystroke_e	e	n/a
127.612	0.1045	255224	keystroke_p	p	n/a
128.3615	0.0905	256723	keystroke_t	t	n/a
128.5115	0.15	257023	keystroke_i	i	n/a
128.6015	0.165	257203	keystroke_o	o	n/a
128.7965	0.0905	257593	keystroke_n	n	n/a
129.0215	0.0895	258043	keystroke_Key.enter	Key.enter	n/a
129.117	5.771	258234	prompt	n/a	hope adware singing olive\n
130.116	0.09	260232	keystroke_h	h	n/a
130.236	0.195	260472	keystroke_o	o	n/a
130.3715	0.1645	260743	keystroke_p	p	n/a
130.581	0.076	261162	keystroke_e	e	n/a
130.746	0.091	261492	keystroke_Key.space	Key.space	n/a
131.332	0.089	262664	keystroke_a	a	n/a
131.511	0.076	263022	keystroke_d	d	n/a
131.8415	0.075	263683	keystroke_w	w	n/a
132.0515	0.12	264103	keystroke_a	a	n/a
132.3215	0.09	264643	keystroke_r	r	n/a
132.4415	0.09	264883	keystroke_e	e	n/a
132.6065	0.09	265213	keystroke_Key.space	Key.space	n/a
132.7265	0.12	265453	keystroke_s	s	n/a
132.8015	0.075	265603	keystroke_i	i	n/a
132.9515	0.1055	265903	keystroke_n	n	n/a
133.117	0.074	266234	keystroke_g	g	n/a
133.206	0.105	266412	keystroke_i	i	n/a
133.342	0.135	266684	keystroke_n	n	n/a
133.537	0.089	267074	keystroke_g	g	n/a
133.641	0.105	267282	keystroke_Key.space	Key.space	n/a
133.971	0.075	267942	keystroke_o	o	n/a
134.1515	0.0905	268303	keystroke_l	l	n/a
134.3315	0.075	268663	keystroke_i	i	n/a
134.4515	0.09	268903	keystroke_v	v	n/a
134.6315	0.06	269263	keystroke_e	e	n/a
134.827	0.059	269654	keystroke_Key.enter	Key.enter	n/a
134.8925	7.0605	269785	prompt	n/a	apply applying funk thats\n
135.682	0.074	271364	keystroke_a	a	n/a
135.831	0.045	271662	keystroke_p	p	n/a
135.9215	0.1195	271843	keystroke_p	p	n/a
136.147	0.104	272294	keystroke_l	l	n/a
136.386	0.075	272772	keystroke_y	y	n/a
136.476	0.105	272952	keystroke_Key.space	Key.space	n/a
136.6865	0.09	273373	keystroke_a	a	n/a
137.1815	0.0595	274363	keystroke_p	p	n/a
137.302	0.104	274604	keystroke_p	p	n/a
137.511	0.105	275022	keystroke_l	l	n/a
137.7515	0.0295	275503	keystroke_y	y	n/a
138.636	0.075	277272	keystroke_i	i	n/a
138.771	0.106	277542	keystroke_n	n	n/a
138.981	0.06	277962	keystroke_g	g	n/a
139.176	0.076	278352	keystroke_Key.space	Key.space	n/a
139.551	0.09	279102	keystroke_f	f	n/a
139.657	0.1045	279314	keystroke_u	u	n/a
139.8815	0.09	279763	keystroke_n	n	n/a
140.0615	0.1055	280123	keystroke_k	k	n/a
140.2565	0.0895	280513	keystroke_Key.space	Key.space	n/a
140.9915	0.09	281983	keystroke_t	t	n/a
141.1115	0.105	282223	keystroke_h	h	n/a
141.2015	0.12	282403	keystroke_a	a	n/a
141.4415	0.09	282883	keystroke_t	t	n/a
141.6965	0.1045	283393	keystroke_s	s	n/a
141.9065	0.045	283813	keystroke_Key.enter	Key.enter	n/a
141.957	6.686	283914	prompt	n/a	include machine customize quad\n
142.807	0.09	285614	keystroke_i	i	n/a
142.9715	0.09	285943	keystroke_n	n	n/a
143.1815	0.075	286363	keystroke_c	c	n/a
143.2265	0.105	286453	keystroke_l	l	n/a
143.4515	0.06	286903	keystroke_u	u	n/a
143.6165	0.06	287233	keystroke_c	c	n/a
144.2765	0.06	288553	keystroke_Key.backspace	Key.backspace	n/a
144.7865	0.06	289573	keystroke_d	d	n/a
144.9665	0.06	289933	keystroke_e	e	n/a
145.1465	0.06	290293	keystroke_Key.space	Key.space	n/a
145.342	0.09	290684	keystroke_m	m	n/a
145.476	0.091	290952	keystroke_a	a	n/a
145.702	0.074	291404	keystroke_c	c	n/a
145.792	0.119	291584	keystroke_h	h	n/a
145.866	0.121	291732	keystroke_i	i	n/a
146.047	0.1045	292094	keystroke_n	n	n/a
146.211	0.0755	292422	keystroke_e	e	n/a
146.3465	0.09	292693	keystroke_Key.space	Key.space	n/a
146.5265	0.0905	293053	keystroke_c	c	n/a
146.676	0.0755	293352	keystroke_u	u	n/a
146.782	0.104	293564	keystroke_s	s	n/a
147.0515	0.0745	294103	keystroke_t	t	n/a
147.171	0.1205	294342	keystroke_o	o	n/a
147.366	0.1055	294732	keystroke_m	m	n/a
147.9815	0.0605	295963	keystroke_i	i	n/a
148.1015	0.135	296203	keystroke_z	z	n/a
148.3715	0.06	296743	keystroke_e	e	n/a
148.5665	0.075	297133	keystroke_Key.enter	Key.enter	n/a
148.647	15.506	297294	prompt	n/a	therapeutic configurations mesh goat\n
150.0965	0.03	300193	keystroke_t	t	n/a
151.446	0.09	302892	keystroke_h	h	n/a
151.567	0.074	303134	keystroke_e	e	n/a
151.821	0.09	303642	keystroke_r	r	n/a
152.031	0.0155	304062	keystroke_a	a	n/a
152.7815	0.09	305563	keystroke_p	p	n/a
153.562	0.06	307124	keystroke_e	e	n/a
154.477	0.0745	308954	keystroke_u	u	n/a
155.047	0.09	310094	keystroke_t	t	n/a
155.166	0.1205	310332	keystroke_i	i	n/a
155.331	0.0905	310662	keystroke_c	c	n/a
155.6465	0.09	311293	keystroke_Key.space	Key.space	n/a
156.0215	0.075	312043	keystroke_c	c	n/a
156.1415	0.105	312283	keystroke_o	o	n/a
156.337	0.09	312674	keystroke_n	n	n/a
157.1765	0.09	314353	keystroke_f	f	n/a
157.2815	0.12	314563	keystroke_u	u	n/a
157.672	0.0745	315344	keystroke_g	g	n/a
158.3015	0.06	316603	keystroke_u	u	n/a
158.4815	0.104	316963	keystroke_r	r	n/a
158.616	0.1205	317232	keystroke_a	a	n/a
158.917	0.074	317834	keystroke_t	t	n/a
159.0515	0.1795	318103	keystroke_i	i	n/a
159.156	0.1805	318312	keystroke_o	o	n/a
159.381	0.1055	318762	keystroke_n	n	n/a
159.6965	0.09	319393	keystroke_s	s	n/a
160.026	0.09	320052	keystroke_Key.space	Key.space	n/a
160.2815	0.135	320563	keystroke_m	m	n/a
160.462	0.0595	320924	keystroke_e	e	n/a
160.852	0.074	321704	keystroke_s	s	n/a
161.0165	0.0895	322033	keystroke_h	h	n/a
162.6665	0.09	325333	keystroke_Key.space	Key.space	n/a
163.041	0.075	326082	keystroke_g	g	n/a
163.177	0.119	326354	keystroke_o	o	n/a
163.401	0.09	326802	keystroke_a	a	n/a
163.911	0.06	327822	keystroke_t	t	n/a
164.076	0.0755	328152	keystroke_Key.enter	Key.enter	n/a
164.158	13.1675	328316	prompt	n/a	billy transcripts rochester tyler\n
165.186	0.076	330372	keystroke_b	b	n/a
165.3065	0.105	330613	keystroke_i	i	n/a
165.4865	0.075	330973	keystroke_l	l	n/a
165.6515	0.075	331303	keystroke_l	l	n/a
165.8765	0.09	331753	keystroke_y	y	n/a
166.0115	0.12	332023	keystroke_Key.space	Key.space	n/a
166.311	0.076	332622	keystroke_t	t	n/a
166.491	0.09	332982	keystroke_r	r	n/a
166.731	0.0455	333462	keystroke_r	r	n/a
167.151	0.075	334302	keystroke_Key.backspace	Key.backspace	n/a
167.271	0.075	334542	keystroke_a	a	n/a
167.481	0.09	334962	keystroke_Key.space	Key.space	n/a
167.9615	0.105	335923	keystroke_Key.backspace	Key.backspace	n/a
168.322	0.0745	336644	keystroke_n	n	n/a
168.8315	0.075	337663	keystroke_s	s	n/a
169.836	0.0755	339672	keystroke_c	c	n/a
170.1815	0.075	340363	keystroke_r	r	n/a
170.287	0.119	340574	keystroke_i	i	n/a
170.511	0.105	341022	keystroke_p	p	n/a
170.721	0.0755	341442	keystroke_t	t	n/a
171.486	0.075	342972	keystroke_s	s	n/a
171.576	0.105	343152	keystroke_Key.space	Key.space	n/a
171.847	0.074	343694	keystroke_r	r	n/a
171.906	0.12	343812	keystroke_o	o	n/a
172.117	0.074	344234	keystroke_c	c	n/a
172.176	0.12	344352	keystroke_h	h	n/a
172.3865	0.0745	344773	keystroke_e	e	n/a
172.581	0.12	345162	keystroke_s	s	n/a
172.851	0.075	345702	keystroke_t	t	n/a
173.031	0.09	346062	keystroke_e	e	n/a
173.241	0.09	346482	keystroke_r	r	n/a
173.601	0.09	347202	keystroke_Key.space	Key.space	n/a
173.8115	0.0295	347623	keystroke_l	l	n/a
174.8315	0.06	349663	keystroke_Key.backspace	Key.backspace	n/a
175.5665	0.075	351133	keystroke_t	t	n/a
175.6865	0.0905	351373	keystroke_y	y	n/a
176.286	0.1205	352572	keystroke_l	l	n/a
176.391	0.0755	352782	keystroke_e	e	n/a
176.5865	0.075	353173	keystroke_r	r	n/a
177.2015	0.12	354403	keystroke_Key.enter	Key.enter	n/a
177.334	7.3995	354668	prompt	n/a	cassette assessed funny shell\n
178.042	0.0745	356084	keystroke_c	c	n/a
178.281	0.1055	356562	keystroke_a	a	n/a
178.521	0.091	357042	keystroke_s	s	n/a
178.671	0.106	357342	keystroke_s	s	n/a
178.912	0.105	357824	keystroke_e	e	n/a
179.1665	0.0905	358333	keystroke_t	t	n/a
179.5865	0.09	359173	keystroke_t	t	n/a
179.782	0.0745	359564	keystroke_e	e	n/a
179.9615	0.06	359923	keystroke_Key.space	Key.space	n/a
180.3965	0.12	360793	keystroke_a	a	n/a
180.6515	0.06	361303	keystroke_s	s	n/a
180.7865	0.105	361573	keystroke_s	s	n/a
181.0415	0.105	362083	keystroke_e	e	n/a
181.3265	0.0755	362653	keystroke_s	s	n/a
181.4765	0.09	362953	keystroke_s	s	n/a
181.7165	0.0755	363433	keystroke_e	e	n/a
181.9115	0.075	363823	keystroke_d	d	n/a
182.091	0.0755	364182	keystroke_Key.space	Key.space	n/a
182.361	0.091	364722	keystroke_f	f	n/a
182.4815	0.1195	364963	keystroke_u	u	n/a
182.7665	0.0595	365533	keystroke_n	n	n/a
182.931	0.076	365862	keystroke_n	n	n/a
183.171	0.09	366342	keystroke_y	y	n/a
183.5165	0.075	367033	keystroke_Key.space	Key.space	n/a
183.7565	0.105	367513	keystroke_s	s	n/a
183.8315	0.12	367663	keystroke_h	h	n/a
184.012	0.0895	368024	keystroke_e	e	n/a
184.2065	0.075	368413	keystroke_l	l	n/a
184.3565	0.105	368713	keystroke_l	l	n/a
184.6565	0.075	369313	keystroke_Key.enter	Key.enter	n/a
184.738	10.3605	369476	prompt	n/a	worried examining independently mission\n
185.691	0.135	371382	keystroke_w	w	n/a
185.781	0.0905	371562	keystroke_o	o	n/a
185.991	0.0905	371982	keystroke_r	r	n/a
186.1415	0.105	372283	keystroke_r	r	n/a
186.3065	0.135	372613	keystroke_i	i	n/a
186.4115	0.105	372823	keystroke_e	e	n/a
186.652	0.0895	373304	keystroke_d	d	n/a
187.0565	0.09	374113	keystroke_Key.space	Key.space	n/a
187.6565	0.09	375313	keystroke_e	e	n/a
188.1965	0.09	376393	keystroke_x	x	n/a
188.8415	0.09	377683	keystroke_a	a	n/a
188.947	0.0895	377894	keystroke_m	m	n/a
189.1415	0.075	378283	keystroke_i	i	n/a
189.2765	0.1355	378553	keystroke_n	n	n/a
189.397	0.1495	378794	keystroke_i	i	n/a
189.7115	0.09	379423	keystroke_n	n	n/a
190.1165	0.0745	380233	keystroke_g	g	n/a
190.236	0.075	380472	keystroke_Key.space	Key.space	n/a
190.462	0.1195	380924	keystroke_i	i	n/a
190.6715	0.1055	381343	keystroke_n	n	n/a
190.971	0.076	381942	keystroke_d	d	n/a
191.182	0.059	382364	keystroke_e	e	n/a
191.346	0.1505	382692	keystroke_p	p	n/a
191.511	0.0455	383022	keystroke_e	e	n/a
191.6165	0.09	383233	keystroke_n	n	n/a
191.8865	0.06	383773	keystroke_d	d	n/a
192.067	0.075	384134	keystroke_e	e	n/a
192.4565	0.045	384913	keystroke_n	n	n/a
192.5165	0.045	385033	keystroke_t	t	n/a
192.6065	0.1205	385213	keystroke_l	l	n/a
192.8765	0.0755	385753	keystroke_y	y	n/a
193.3865	0.0595	386773	keystroke_Key.space	Key.space	n/a
193.612	0.0895	387224	keystroke_m	m	n/a
193.8065	0.105	387613	keystroke_i	i	n/a
193.9865	0.0755	387973	keystroke_s	s	n/a
194.151	0.09	388302	keystroke_s	s	n/a
194.241	0.1505	388482	keystroke_i	i	n/a
194.3465	0.12	388693	keystroke_o	o	n/a
194.4965	0.12	388993	keystroke_n	n	n/a
195.0215	0.075	390043	keystroke_Key.enter	Key.enter	n/a
195.1035	8.635	390207	prompt	n/a	futures installed apparent vehicles\n
195.861	0.06	391722	keystroke_f	f	n/a
195.9665	0.0905	391933	keystroke_u	u	n/a
196.626	0.06	393252	keystroke_t	t	n/a
196.716	0.105	393432	keystroke_u	u	n/a
196.836	0.1355	393672	keystroke_r	r	n/a
196.9415	0.105	393883	keystroke_e	e	n/a
197.1815	0.105	394363	keystroke_s	s	n/a
197.3315	0.09	394663	keystroke_Key.space	Key.space	n/a
197.6015	0.0155	395203	keystroke_i	i	n/a
197.6765	0.105	395353	keystroke_n	n	n/a
198.0515	0.09	396103	keystroke_s	s	n/a
198.2765	0.09	396553	keystroke_t	t	n/a
198.4265	0.135	396853	keystroke_a	a	n/a
198.6065	0.06	397213	keystroke_l	l	n/a
198.7565	0.105	397513	keystroke_l	l	n/a
198.877	0.0745	397754	keystroke_e	e	n/a
199.0415	0.09	398083	keystroke_Key.space	Key.space	n/a
199.5365	0.12	399073	keystroke_Key.backspace	Key.backspace	n/a
199.792	0.0895	399584	keystroke_d	d	n/a
199.897	0.0895	399794	keystroke_Key.space	Key.space	n/a
200.4065	0.12	400813	keystroke_a	a	n/a
200.5865	0.0605	401173	keystroke_p	p	n/a
200.7515	0.075	401503	keystroke_p	p	n/a
200.9315	0.12	401863	keystroke_a	a	n/a
201.2775	0.089	402555	keystroke_r	r	n/a
201.561	0.0905	403122	keystroke_e	e	n/a
201.696	0.12	403392	keystroke_n	n	n/a
201.861	0.09	403722	keystroke_t	t	n/a
202.011	0.09	404022	keystroke_Key.space	Key.space	n/a
202.2365	0.09	404473	keystroke_v	v	n/a
202.4465	0.0745	404893	keystroke_e	e	n/a
202.6265	0.121	405253	keystroke_h	h	n/a
202.732	0.12	405464	keystroke_i	i	n/a
202.912	0.09	405824	keystroke_c	c	n/a
203.062	0.119	406124	keystroke_l	l	n/a
203.241	0.075	406482	keystroke_e	e	n/a
203.467	0.0745	406934	keystroke_s	s	n/a
203.676	0.0605	407352	keystroke_Key.enter	Key.enter	n/a
203.743	10.0005	407486	prompt	n/a	respond flour disclosure homepage\n
204.637	0.1195	409274	keystroke_r	r	n/a
204.7415	0.105	409483	keystroke_e	e	n/a
204.9665	0.105	409933	keystroke_s	s	n/a
205.1015	0.1355	410203	keystroke_p	p	n/a
205.1765	0.1495	410353	keystroke_o	o	n/a
205.386	0.121	410772	keystroke_n	n	n/a
205.552	0.075	411104	keystroke_d	d	n/a
205.701	0.091	411402	keystroke_Key.space	Key.space	n/a
205.987	0.059	411974	keystroke_f	f	n/a
206.061	0.12	412122	keystroke_l	l	n/a
206.8415	0.1055	413683	keystroke_o	o	n/a
207.0065	0.09	414013	keystroke_u	u	n/a
207.2765	0.075	414553	keystroke_r	r	n/a
207.4415	0.105	414883	keystroke_Key.space	Key.space	n/a
207.6215	0.09	415243	keystroke_d	d	n/a
207.7115	0.12	415423	keystroke_i	i	n/a
207.8615	0.0745	415723	keystroke_s	s	n/a
208.057	0.075	416114	keystroke_c	c	n/a
208.176	0.121	416352	keystroke_l	l	n/a
209.242	0.0745	418484	keystroke_o	o	n/a
210.006	0.046	420012	keystroke_s	s	n/a
210.022	0.06	420044	keystroke_u	u	n/a
210.202	0.119	420404	keystroke_r	r	n/a
210.277	0.12	420554	keystroke_e	e	n/a
210.5315	0.0745	421063	keystroke_Key.space	Key.space	n/a
210.9965	0.12	421993	keystroke_h	h	n/a
211.0715	0.1355	422143	keystroke_o	o	n/a
211.2665	0.1045	422533	keystroke_m	m	n/a
212.0765	0.045	424153	keystroke_e	e	n/a
212.3165	0.105	424633	keystroke_p	p	n/a
212.4365	0.1055	424873	keystroke_a	a	n/a
212.9165	0.06	425833	keystroke_g	g	n/a
213.0965	0.06	426193	keystroke_e	e	n/a
213.681	0.06	427362	keystroke_Key.enter	Key.enter	n/a
213.747	6.866	427494	prompt	n/a	reservation include finish arms\n
214.506	0.135	429012	keystroke_r	r	n/a
214.596	0.1055	429192	keystroke_e	e	n/a
214.821	0.09	429642	keystroke_s	s	n/a
215.032	0.09	430064	keystroke_e	e	n/a
215.241	0.061	430482	keystroke_r	r	n/a
215.436	0.1055	430872	keystroke_v	v	n/a
215.601	0.1205	431202	keystroke_a	a	n/a
215.8865	0.075	431773	keystroke_t	t	n/a
216.0065	0.1205	432013	keystroke_i	i	n/a
216.081	0.1505	432162	keystroke_o	o	n/a
216.262	0.1195	432524	keystroke_n	n	n/a
216.4265	0.09	432853	keystroke_Key.space	Key.space	n/a
216.7265	0.1205	433453	keystroke_i	i	n/a
217.0565	0.09	434113	keystroke_n	n	n/a
217.5065	0.0605	435013	keystroke_c	c	n/a
217.597	0.1195	435194	keystroke_l	l	n/a
217.8365	0.09	435673	keystroke_u	u	n/a
218.016	0.06	436032	keystroke_d	d	n/a
218.1965	0.0595	436393	keystroke_e	e	n/a
218.346	0.0905	436692	keystroke_Key.space	Key.space	n/a
218.602	0.0745	437204	keystroke_f	f	n/a
218.691	0.0905	437382	keystroke_i	i	n/a
218.9765	0.0755	437953	keystroke_n	n	n/a
219.1415	0.1045	438283	keystroke_i	i	n/a
219.306	0.1055	438612	keystroke_s	s	n/a
219.426	0.075	438852	keystroke_h	h	n/a
219.576	0.09	439152	keystroke_Key.space	Key.space	n/a
219.771	0.12	439542	keystroke_a	a	n/a
220.027	0.0895	440054	keystroke_r	r	n/a
220.207	0.09	440414	keystroke_m	m	n/a
220.326	0.09	440652	keystroke_s	s	n/a
220.537	0.074	441074	keystroke_Key.enter	Key.enter	n/a
220.6165	10.691	441233	prompt	n/a	infinite untitled sydney lace\n
221.4215	0.0905	442843	keystroke_i	i	n/a
221.6165	0.074	443233	keystroke_n	n	n/a
221.887	0.0595	443774	keystroke_f	f	n/a
221.9915	0.105	443983	keystroke_i	i	n/a
222.1565	0.1055	444313	keystroke_n	n	n/a
222.4105	0.075	444821	keystroke_t	t	n/a
222.621	0.06	445242	keystroke_e	e	n/a
222.801	0.075	445602	keystroke_Key.space	Key.space	n/a
224.017	0.075	448034	keystroke_Key.backspace	Key.backspace	n/a
224.211	0.09	448422	keystroke_Key.backspace	Key.backspace	n/a
224.496	0.075	448992	keystroke_Key.backspace	Key.backspace	n/a
225.096	0.0755	450192	keystroke_i	i	n/a
225.5165	0.0745	451033	keystroke_t	t	n/a
225.682	0.0745	451364	keystroke_e	e	n/a
225.8315	0.09	451663	keystroke_Key.space	Key.space	n/a
226.0865	0.075	452173	keystroke_u	u	n/a
226.3115	0.0895	452623	keystroke_n	n	n/a
226.581	0.09	453162	keystroke_t	t	n/a
226.656	0.1355	453312	keystroke_i	i	n/a
226.8815	0.0745	453763	keystroke_t	t	n/a
226.9715	0.1355	453943	keystroke_l	l	n/a
227.122	0.0595	454244	keystroke_e	e	n/a
227.317	0.0895	454634	keystroke_d	d	n/a
227.4965	0.09	454993	keystroke_Key.space	Key.space	n/a
228.1565	0.09	456313	keystroke_s	s	n/a
228.3065	0.0895	456613	keystroke_y	y	n/a
228.501	0.06	457002	keystroke_d	d	n/a
228.621	0.105	457242	keystroke_n	n	n/a
228.772	0.0895	457544	keystroke_e	e	n/a
228.9665	0.075	457933	keystroke_y	y	n/a
229.5515	0.075	459103	keystroke_Key.space	Key.space	n/a
229.732	0.1195	459464	keystroke_l	l	n/a
229.8365	0.105	459673	keystroke_a	a	n/a
230.0165	0.0905	460033	keystroke_c	c	n/a
230.256	0.06	460512	keystroke_e	e	n/a
231.231	0.075	462462	keystroke_Key.enter	Key.enter	n/a
231.311	9.177	462622	prompt	n/a	tribunal closely burner twice\n
232.177	0.0595	464354	keystroke_t	t	n/a
232.3715	0.075	464743	keystroke_r	r	n/a
232.5065	0.105	465013	keystroke_i	i	n/a
233.347	0.015	466694	keystroke_b	b	n/a
233.377	0.044	466754	keystroke_u	u	n/a
233.5565	0.0895	467113	keystroke_n	n	n/a
233.661	0.12	467322	keystroke_a	a	n/a
233.811	0.1205	467622	keystroke_l	l	n/a
233.9615	0.09	467923	keystroke_Key.space	Key.space	n/a
234.2465	0.075	468493	keystroke_c	c	n/a
234.3665	0.075	468733	keystroke_l	l	n/a
234.5615	0.09	469123	keystroke_o	o	n/a
234.6665	0.0905	469333	keystroke_s	s	n/a
234.877	0.0745	469754	keystroke_e	e	n/a
234.9965	0.134	469993	keystroke_l	l	n/a
235.8665	0.074	471733	keystroke_y	y	n/a
236.0905	0.075	472181	keystroke_Key.space	Key.space	n/a
236.8265	0.075	473653	keystroke_b	b	n/a
236.9615	0.105	473923	keystroke_u	u	n/a
237.1265	0.09	474253	keystroke_r	r	n/a
237.2465	0.105	474493	keystroke_n	n	n/a
237.3515	0.09	474703	keystroke_e	e	n/a
237.9355	0.061	475871	keystroke_r	r	n/a
238.4765	0.074	476953	keystroke_Key.space	Key.space	n/a
239.0165	0.09	478033	keystroke_t	t	n/a
239.647	0.0745	479294	keystroke_w	w	n/a
239.9015	0.0905	479803	keystroke_i	i	n/a
239.9465	0.075	479893	keystroke_c	c	n/a
240.1715	0.06	480343	keystroke_e	e	n/a
240.4265	0.06	480853	keystroke_Key.enter	Key.enter	n/a
240.4915	10.2115	480983	prompt	n/a	expires contact stating intelligent\n
241.327	0.0745	482654	keystroke_e	e	n/a
241.5505	0.09	483101	keystroke_x	x	n/a
241.657	0.0885	483314	keystroke_p	p	n/a
242.2265	0.09	484453	keystroke_i	i	n/a
242.3765	0.135	484753	keystroke_r	r	n/a
242.4815	0.09	484963	keystroke_e	e	n/a
242.6905	0.0915	485381	keystroke_s	s	n/a
242.8715	0.089	485743	keystroke_Key.space	Key.space	n/a
243.187	0.0895	486374	keystroke_c	c	n/a
243.5465	0.105	487093	keystroke_o	o	n/a
243.7265	0.09	487453	keystroke_n	n	n/a
243.9665	0.075	487933	keystroke_t	t	n/a
244.1465	0.12	488293	keystroke_a	a	n/a
244.3265	0.0905	488653	keystroke_c	c	n/a
244.5955	0.0755	489191	keystroke_t	t	n/a
244.7765	0.075	489553	keystroke_Key.space	Key.space	n/a
245.2265	0.0745	490453	keystroke_s	s	n/a
245.466	0.1205	490932	keystroke_t	t	n/a
245.6165	0.1045	491233	keystroke_a	a	n/a
245.827	0.09	491654	keystroke_t	t	n/a
245.931	0.105	491862	keystroke_i	i	n/a
246.097	0.119	492194	keystroke_n	n	n/a
246.2315	0.0745	492463	keystroke_g	g	n/a
246.576	0.0745	493152	keystroke_Key.space	Key.space	n/a
247.0865	0.03	494173	keystroke_i	i	n/a
247.1905	0.091	494381	keystroke_n	n	n/a
247.507	0.0745	495014	keystroke_t	t	n/a
247.6415	0.105	495283	keystroke_e	e	n/a
247.8065	0.075	495613	keystroke_l	l	n/a
247.9715	0.0755	495943	keystroke_l	l	n/a
248.1215	0.075	496243	keystroke_i	i	n/a
248.2715	0.075	496543	keystroke_n	n	n/a
249.0815	0.09	498163	keystroke_Key.backspace	Key.backspace	n/a
249.7115	0.075	499423	keystroke_g	g	n/a
249.8765	0.105	499753	keystroke_e	e	n/a
250.0115	0.09	500023	keystroke_n	n	n/a
250.1465	0.075	500293	keystroke_t	t	n/a
250.641	0.06	501282	keystroke_Key.enter	Key.enter	n/a
250.708	12.595	501416	prompt	n/a	prescription appendix moldova blowing\n
251.6765	0.075	503353	keystroke_p	p	n/a
251.7815	0.135	503563	keystroke_r	r	n/a
251.8715	0.105	503743	keystroke_e	e	n/a
252.0965	0.09	504193	keystroke_s	s	n/a
253.1765	0.075	506353	keystroke_c	c	n/a
253.5515	0.075	507103	keystroke_r	r	n/a
253.6415	0.06	507283	keystroke_i	i	n/a
253.7765	0.135	507553	keystroke_p	p	n/a
254.107	0.0745	508214	keystroke_t	t	n/a
254.3605	0.18	508721	keystroke_i	i	n/a
254.4955	0.136	508991	keystroke_o	o	n/a
254.6765	0.105	509353	keystroke_n	n	n/a
255.0955	0.076	510191	keystroke_Key.space	Key.space	n/a
255.486	0.09	510972	keystroke_a	a	n/a
255.636	0.0755	511272	keystroke_p	p	n/a
255.771	0.12	511542	keystroke_p	p	n/a
255.951	0.075	511902	keystroke_e	e	n/a
256.161	0.09	512322	keystroke_n	n	n/a
256.387	0.06	512774	keystroke_d	d	n/a
256.5215	0.105	513043	keystroke_i	i	n/a
257.526	0.075	515052	keystroke_x	x	n/a
257.7515	0.0595	515503	keystroke_Key.space	Key.space	n/a
257.9315	0.0895	515863	keystroke_m	m	n/a
258.172	0.09	516344	keystroke_i	i	n/a
258.3815	0.105	516763	keystroke_l	l	n/a
258.9355	0.061	517871	keystroke_Key.backspace	Key.backspace	n/a
259.116	0.09	518232	keystroke_Key.backspace	Key.backspace	n/a
259.4765	0.09	518953	keystroke_o	o	n/a
259.6865	0.105	519373	keystroke_l	l	n/a
259.8515	0.075	519703	keystroke_d	d	n/a
259.9715	0.1205	519943	keystroke_o	o	n/a
260.106	0.18	520212	keystroke_v	v	n/a
260.2265	0.1195	520453	keystroke_a	a	n/a
260.7365	0.0745	521473	keystroke_Key.space	Key.space	n/a
261.651	0.105	523302	keystroke_b	b	n/a
261.741	0.06	523482	keystroke_l	l	n/a
261.907	0.119	523814	keystroke_o	o	n/a
262.1315	0.09	524263	keystroke_w	w	n/a
262.2365	0.0895	524473	keystroke_i	i	n/a
262.386	0.1205	524772	keystroke_n	n	n/a
262.5365	0.09	525073	keystroke_g	g	n/a
263.2265	0.075	526453	keystroke_Key.enter	Key.enter	n/a
263.3075	8.7405	526615	prompt	n/a	join ridge regulations midwest\n
264.0675	0.119	528135	keystroke_j	j	n/a
264.2015	0.135	528403	keystroke_o	o	n/a
264.3965	0.12	528793	keystroke_i	i	n/a
264.6065	0.105	529213	keystroke_n	n	n/a
264.816	0.0905	529632	keystroke_Key.space	Key.space	n/a
265.2515	0.0755	530503	keystroke_r	r	n/a
265.3565	0.12	530713	keystroke_i	i	n/a
265.5215	0.09	531043	keystroke_d	d	n/a
265.8065	0.075	531613	keystroke_g	g	n/a
265.9865	0.105	531973	keystroke_e	e	n/a
266.1215	0.104	532243	keystroke_Key.space	Key.space	n/a
266.3165	0.135	532633	keystroke_r	r	n/a
266.4205	0.121	532841	keystroke_e	e	n/a
266.6315	0.1055	533263	keystroke_g	g	n/a
266.7215	0.09	533443	keystroke_u	u	n/a
266.9465	0.12	533893	keystroke_l	l	n/a
266.9915	0.105	533983	keystroke_a	a	n/a
267.2615	0.075	534523	keystroke_t	t	n/a
267.906	0.15	535812	keystroke_i	i	n/a
268.011	0.136	536022	keystroke_o	o	n/a
268.191	0.121	536382	keystroke_n	n	n/a
268.7915	0.0745	537583	keystroke_s	s	n/a
268.9115	0.0895	537823	keystroke_Key.space	Key.space	n/a
269.121	0.09	538242	keystroke_m	m	n/a
269.3015	0.09	538603	keystroke_i	i	n/a
269.4515	0.0745	538903	keystroke_d	d	n/a
270.5005	0.0905	541001	keystroke_w	w	n/a
270.696	0.0755	541392	keystroke_e	e	n/a
271.0415	0.1045	542083	keystroke_s	s	n/a
271.416	0.06	542832	keystroke_t	t	n/a
271.9715	0.075	543943	keystroke_Key.enter	Key.enter	n/a
272.053	7.84	544106	prompt	n/a	boards inherited template notebook\n
273.2165	0.06	546433	keystroke_b	b	n/a
273.3515	0.1045	546703	keystroke_o	o	n/a
273.531	0.1055	547062	keystroke_a	a	n/a
273.771	0.0755	547542	keystroke_r	r	n/a
273.996	0.0905	547992	keystroke_d	d	n/a
274.2065	0.0745	548413	keystroke_s	s	n/a
274.461	0.075	548922	keystroke_Key.space	Key.space	n/a
274.611	0.0755	549222	keystroke_i	i	n/a
274.7765	0.09	549553	keystroke_n	n	n/a
275.0315	0.074	550063	keystroke_h	h	n/a
275.1365	0.089	550273	keystroke_e	e	n/a
275.347	0.0745	550694	keystroke_r	r	n/a
275.4515	0.134	550903	keystroke_i	i	n/a
275.6755	0.076	551351	keystroke_t	t	n/a
275.8565	0.075	551713	keystroke_e	e	n/a
276.0665	0.075	552133	keystroke_d	d	n/a
276.1865	0.105	552373	keystroke_Key.space	Key.space	n/a
276.4265	0.075	552853	keystroke_t	t	n/a
276.6665	0.075	553333	keystroke_e	e	n/a
276.891	0.09	553782	keystroke_m	m	n/a
277.1165	0.09	554233	keystroke_p	p	n/a
277.356	0.1205	554712	keystroke_l	l	n/a
277.5815	0.09	555163	keystroke_a	a	n/a
277.9105	0.06	555821	keystroke_t	t	n/a
278.091	0.075	556182	keystroke_e	e	n/a
278.3005	0.0905	556601	keystroke_Key.space	Key.space	n/a
278.452	0.1185	556904	keystroke_n	n	n/a
278.556	0.1505	557112	keystroke_o	o	n/a
278.7215	0.105	557443	keystroke_t	t	n/a
278.8865	0.105	557773	keystroke_e	e	n/a
279.1115	0.075	558223	keystroke_b	b	n/a
279.2615	0.06	558523	keystroke_o	o	n/a
279.4265	0.105	558853	keystroke_o	o	n/a
279.5915	0.105	559183	keystroke_k	k	n/a
279.8315	0.06	559663	keystroke_Key.enter	Key.enter	n/a
279.8985	10.374	559797	prompt	n/a	defense academy subject fetish\n
280.8665	0.06	561733	keystroke_d	d	n/a
281.0615	0.0745	562123	keystroke_e	e	n/a
281.271	0.15	562542	keystroke_f	f	n/a
281.4065	0.09	562813	keystroke_e	e	n/a
281.7215	0.105	563443	keystroke_n	n	n/a
281.9765	0.09	563953	keystroke_s	s	n/a
282.2165	0.045	564433	keystroke_e	e	n/a
282.3365	0.089	564673	keystroke_Key.space	Key.space	n/a
282.472	0.104	564944	keystroke_a	a	n/a
282.6215	0.135	565243	keystroke_d	d	n/a
282.742	0.1195	565484	keystroke_a	a	n/a
283.687	0.0895	567374	keystroke_Key.backspace	Key.backspace	n/a
283.8815	0.075	567763	keystroke_Key.backspace	Key.backspace	n/a
284.0315	0.09	568063	keystroke_c	c	n/a
284.166	0.1055	568332	keystroke_a	a	n/a
284.3765	0.06	568753	keystroke_d	d	n/a
284.541	0.0755	569082	keystroke_e	e	n/a
284.6765	0.1045	569353	keystroke_m	m	n/a
284.9465	0.0895	569893	keystroke_y	y	n/a
285.126	0.09	570252	keystroke_Key.space	Key.space	n/a
285.396	0.09	570792	keystroke_s	s	n/a
285.501	0.09	571002	keystroke_u	u	n/a
285.6965	0.089	571393	keystroke_j	j	n/a
286.3405	0.09	572681	keystroke_Key.backspace	Key.backspace	n/a
286.4465	0.0745	572893	keystroke_b	b	n/a
286.701	0.105	573402	keystroke_j	j	n/a
286.881	0.06	573762	keystroke_e	e	n/a
287.091	0.075	574182	keystroke_c	c	n/a
287.377	0.074	574754	keystroke_t	t	n/a
287.961	0.0755	575922	keystroke_Key.space	Key.space	n/a
288.5315	0.0895	577063	keystroke_f	f	n/a
288.711	0.0755	577422	keystroke_e	e	n/a
288.922	0.0895	577844	keystroke_t	t	n/a
289.056	0.135	578112	keystroke_i	i	n/a
289.4315	0.0745	578863	keystroke_s	s	n/a
289.5365	0.0895	579073	keystroke_h	h	n/a
290.1955	0.075	580391	keystroke_Key.enter	Key.enter	n/a
290.2785	6.1745	580557	prompt	n/a	elder minute posing fiction\n
291.1865	0.06	582373	keystroke_e	e	n/a
291.3515	0.105	582703	keystroke_l	l	n/a
291.5015	0.075	583003	keystroke_d	d	n/a
291.7265	0.06	583453	keystroke_e	e	n/a
291.9215	0.075	583843	keystroke_r	r	n/a
292.1165	0.12	584233	keystroke_Key.space	Key.space	n/a
292.2815	0.075	584563	keystroke_m	m	n/a
292.3865	0.12	584773	keystroke_i	i	n/a
292.5515	0.06	585103	keystroke_n	n	n/a
292.7615	0.075	585523	keystroke_u	u	n/a
293.017	0.0745	586034	keystroke_t	t	n/a
293.2415	0.06	586483	keystroke_e	e	n/a
293.3305	0.105	586661	keystroke_Key.space	Key.space	n/a
293.5865	0.165	587173	keystroke_p	p	n/a
293.706	0.1655	587412	keystroke_o	o	n/a
293.9315	0.15	587863	keystroke_s	s	n/a
294.0215	0.09	588043	keystroke_i	i	n/a
294.1715	0.119	588343	keystroke_n	n	n/a
294.3655	0.09	588731	keystroke_g	g	n/a
294.4715	0.089	588943	keystroke_Key.space	Key.space	n/a
294.7265	0.0755	589453	keystroke_f	f	n/a
294.8165	0.12	589633	keystroke_i	i	n/a
295.0265	0.09	590053	keystroke_c	c	n/a
295.326	0.0605	590652	keystroke_t	t	n/a
295.506	0.1355	591012	keystroke_i	i	n/a
295.5965	0.165	591193	keystroke_o	o	n/a
295.7765	0.12	591553	keystroke_n	n	n/a
296.391	0.0605	592782	keystroke_Key.enter	Key.enter	n/a
296.4575	9.145	592915	prompt	n/a	tion begun entertainment nuts\n
297.7415	0.0745	595483	keystroke_t	t	n/a
297.876	0.1655	595752	keystroke_i	i	n/a
297.9965	0.165	595993	keystroke_o	o	n/a
298.2055	0.106	596411	keystroke_n	n	n/a
298.4315	0.09	596863	keystroke_Key.space	Key.space	n/a
298.9415	0.0895	597883	keystroke_b	b	n/a
299.1365	0.09	598273	keystroke_e	e	n/a
299.4515	0.075	598903	keystroke_g	g	n/a
299.571	0.0755	599142	keystroke_u	u	n/a
299.781	0.105	599562	keystroke_n	n	n/a
300.0365	0.0895	600073	keystroke_Key.space	Key.space	n/a
300.3365	0.0745	600673	keystroke_e	e	n/a
300.4265	0.1045	600853	keystroke_n	n	n/a
300.606	0.0905	601212	keystroke_t	t	n/a
300.7865	0.105	601573	keystroke_e	e	n/a
300.9665	0.075	601933	keystroke_r	r	n/a
301.1765	0.09	602353	keystroke_t	t	n/a
301.926	0.1045	603852	keystroke_a	a	n/a
302.0915	0.09	604183	keystroke_i	i	n/a
302.586	0.09	605172	keystroke_n	n	n/a
302.796	0.091	605592	keystroke_m	m	n/a
303.307	0.06	606614	keystroke_e	e	n/a
303.6065	0.09	607213	keystroke_n	n	n/a
303.7415	0.0745	607483	keystroke_t	t	n/a
304.266	0.075	608532	keystroke_Key.space	Key.space	n/a
304.626	0.075	609252	keystroke_n	n	n/a
304.851	0.045	609702	keystroke_u	u	n/a
305.016	0.1055	610032	keystroke_t	t	n/a
305.271	0.105	610542	keystroke_s	s	n/a
305.526	0.075	611052	keystroke_Key.enter	Key.enter	n/a
305.606	6.087	611212	prompt	n/a	guided flush alliance hour\n
306.816	0.076	613632	keystroke_g	g	n/a
306.9215	0.1195	613843	keystroke_u	u	n/a
306.981	0.165	613962	keystroke_i	i	n/a
307.161	0.075	614322	keystroke_d	d	n/a
307.3565	0.06	614713	keystroke_e	e	n/a
307.551	0.0755	615102	keystroke_d	d	n/a
307.731	0.09	615462	keystroke_Key.space	Key.space	n/a
308.061	0.076	616122	keystroke_f	f	n/a
308.152	0.104	616304	keystroke_l	l	n/a
308.346	0.09	616692	keystroke_u	u	n/a
308.541	0.0755	617082	keystroke_s	s	n/a
308.661	0.105	617322	keystroke_h	h	n/a
308.751	0.0905	617502	keystroke_Key.space	Key.space	n/a
308.9315	0.1045	617863	keystroke_a	a	n/a
309.0665	0.0895	618133	keystroke_l	l	n/a
309.246	0.105	618492	keystroke_l	l	n/a
309.726	0.105	619452	keystroke_i	i	n/a
309.8615	0.0895	619723	keystroke_a	a	n/a
310.1015	0.1045	620203	keystroke_n	n	n/a
310.311	0.09	620622	keystroke_c	c	n/a
310.536	0.0755	621072	keystroke_e	e	n/a
310.656	0.1055	621312	keystroke_Key.space	Key.space	n/a
310.881	0.12	621762	keystroke_h	h	n/a
311.061	0.12	622122	keystroke_o	o	n/a
311.2265	0.1195	622453	keystroke_u	u	n/a
311.406	0.075	622812	keystroke_r	r	n/a
311.616	0.075	623232	keystroke_Key.enter	Key.enter	n/a
311.697	10.1515	623394	prompt	n/a	passes destruction represent vehicles\n
312.6215	0.105	625243	keystroke_p	p	n/a
312.771	0.1055	625542	keystroke_a	a	n/a
312.9965	0.06	625993	keystroke_s	s	n/a
313.1165	0.0905	626233	keystroke_s	s	n/a
313.5965	0.075	627193	keystroke_e	e	n/a
313.941	0.0905	627882	keystroke_s	s	n/a
314.196	0.06	628392	keystroke_Key.space	Key.space	n/a
314.841	0.0755	629682	keystroke_d	d	n/a
315.036	0.061	630072	keystroke_e	e	n/a
315.2615	0.121	630523	keystroke_s	s	n/a
315.5165	0.075	631033	keystroke_t	t	n/a
315.726	0.06	631452	keystroke_r	r	n/a
316.2815	0.09	632563	keystroke_u	u	n/a
316.7615	0.0745	633523	keystroke_c	c	n/a
317.1055	0.031	634211	keystroke_t	t	n/a
317.1805	0.1365	634361	keystroke_i	i	n/a
317.2705	0.15	634541	keystroke_o	o	n/a
317.4655	0.105	634931	keystroke_n	n	n/a
317.6155	0.09	635231	keystroke_Key.space	Key.space	n/a
317.872	0.0895	635744	keystroke_r	r	n/a
317.9755	0.1065	635951	keystroke_e	e	n/a
318.3205	0.091	636641	keystroke_p	p	n/a
318.5765	0.135	637153	keystroke_r	r	n/a
318.6815	0.105	637363	keystroke_e	e	n/a
318.9215	0.105	637843	keystroke_s	s	n/a
319.1315	0.075	638263	keystroke_e	e	n/a
319.3265	0.105	638653	keystroke_n	n	n/a
319.4765	0.075	638953	keystroke_t	t	n/a
319.7005	0.061	639401	keystroke_Key.space	Key.space	n/a
319.9715	0.09	639943	keystroke_v	v	n/a
320.1515	0.09	640303	keystroke_e	e	n/a
320.3465	0.12	640693	keystroke_h	h	n/a
320.4215	0.15	640843	keystroke_i	i	n/a
320.6465	0.09	641293	keystroke_c	c	n/a
320.7665	0.135	641533	keystroke_l	l	n/a
320.9465	0.105	641893	keystroke_e	e	n/a
321.1565	0.075	642313	keystroke_s	s	n/a
321.786	0.06	643572	keystroke_Key.enter	Key.enter	n/a
321.853	32.065	643706	prompt	n/a	strengthen naked tobago portable\n
322.6565	0.105	645313	keystroke_s	s	n/a
323.286	0.0605	646572	keystroke_t	t	n/a
324.4115	0.105	648823	keystroke_r	r	n/a
324.471	0.135	648942	keystroke_e	e	n/a
324.6815	0.0895	649363	keystroke_n	n	n/a
325.326	0.0605	650652	keystroke_g	g	n/a
325.461	0.09	650922	keystroke_h	h	n/a
326.5115	0.075	653023	keystroke_t	t	n/a
326.721	0.075	653442	keystroke_e	e	n/a
326.856	0.09	653712	keystroke_n	n	n/a
327.156	0.09	654312	keystroke_Key.space	Key.space	n/a
327.3965	0.0895	654793	keystroke_n	n	n/a
327.546	0.105	655092	keystroke_a	a	n/a
327.666	0.135	655332	keystroke_k	k	n/a
327.8615	0.075	655723	keystroke_e	e	n/a
328.0705	0.061	656141	keystroke_d	d	n/a
335.6025	0.001	671205	keystroke_Key.backspace	Key.backspace	n/a
335.7065	0.075	671413	keystroke_Key.backspace	Key.backspace	n/a
335.9165	0.06	671833	keystroke_Key.backspace	Key.backspace	n/a
336.1265	0.075	672253	keystroke_Key.backspace	Key.backspace	n/a
336.3365	0.075	672673	keystroke_Key.backspace	Key.backspace	n/a
336.5615	0.075	673123	keystroke_Key.backspace	Key.backspace	n/a
337.1315	0.015	674263	keystroke_Key.backspace	Key.backspace	n/a
338.182	0.074	676364	keystroke_Key.backspace	Key.backspace	n/a
340.146	0.12	680292	keystroke_Key.backspace	Key.backspace	n/a
342.489	0	684978	keystroke_t	t	n/a
344.331	0.09	688662	keystroke_Key.backspace	Key.backspace	n/a
344.571	0.0755	689142	keystroke_Key.backspace	Key.backspace	n/a
345.051	0.0605	690102	keystroke_t	t	n/a
345.1415	0.0895	690283	keystroke_h	h	n/a
345.246	0.075	690492	keystroke_e	e	n/a
345.967	0.0895	691934	keystroke_n	n	n/a
346.161	0.09	692322	keystroke_Key.space	Key.space	n/a
346.341	0.076	692682	keystroke_n	n	n/a
346.432	0.12	692864	keystroke_a	a	n/a
346.522	0.119	693044	keystroke_k	k	n/a
346.687	0.074	693374	keystroke_e	e	n/a
346.897	0.059	693794	keystroke_d	d	n/a
347.0315	0.09	694063	keystroke_Key.space	Key.space	n/a
347.4215	0.045	694843	keystroke_t	t	n/a
347.5715	0.12	695143	keystroke_o	o	n/a
348.291	0.105	696582	keystroke_b	b	n/a
348.337	0.149	696674	keystroke_a	a	n/a
348.621	0.0905	697242	keystroke_g	g	n/a
348.7565	0.1045	697513	keystroke_o	o	n/a
349.011	0.075	698022	keystroke_Key.space	Key.space	n/a
349.477	0.09	698954	keystroke_p	p	n/a
350.2415	0.015	700483	keystroke_a	a	n/a
351.0815	0.06	702163	keystroke_Key.backspace	Key.backspace	n/a
351.5615	0.075	703123	keystroke_o	o	n/a
351.742	0.0595	703484	keystroke_r	r	n/a
351.9065	0.075	703813	keystroke_t	t	n/a
352.1025	0.089	704205	keystroke_a	a	n/a
352.2815	0.075	704563	keystroke_b	b	n/a
352.416	0.1205	704832	keystroke_l	l	n/a
352.492	0.0895	704984	keystroke_e	e	n/a
353.841	0.075	707682	keystroke_Key.enter	Key.enter	n/a
353.9215	11.457	707843	prompt	n/a	cholesterol customized ministry innovations\n
354.712	0.0595	709424	keystroke_c	c	n/a
354.846	0.1355	709692	keystroke_h	h	n/a
354.952	0.1045	709904	keystroke_o	o	n/a
355.192	0.134	710384	keystroke_l	l	n/a
355.3415	0.0595	710683	keystroke_e	e	n/a
355.7315	0.105	711463	keystroke_s	s	n/a
356.0015	0.06	712003	keystroke_t	t	n/a
356.1965	0.105	712393	keystroke_e	e	n/a
356.4365	0.0745	712873	keystroke_r	r	n/a
356.542	0.105	713084	keystroke_o	o	n/a
356.767	0.1345	713534	keystroke_l	l	n/a
356.946	0.1055	713892	keystroke_Key.space	Key.space	n/a
357.322	0.03	714644	keystroke_c	c	n/a
357.531	0.016	715062	keystroke_u	u	n/a
357.607	0.12	715214	keystroke_s	s	n/a
357.8615	0.0905	715723	keystroke_t	t	n/a
357.967	0.12	715934	keystroke_o	o	n/a
358.147	0.09	716294	keystroke_m	m	n/a
358.356	0.105	716712	keystroke_i	i	n/a
358.491	0.09	716982	keystroke_z	z	n/a
358.746	0.0605	717492	keystroke_e	e	n/a
358.9415	0.0755	717883	keystroke_d	d	n/a
359.091	0.091	718182	keystroke_Key.space	Key.space	n/a
359.4665	0.09	718933	keystroke_Key.space	Key.space	n/a
359.9015	0.09	719803	keystroke_Key.backspace	Key.backspace	n/a
360.232	0.0295	720464	keystroke_n	n	n/a
360.786	0.1055	721572	keystroke_Key.backspace	Key.backspace	n/a
361.0565	0.09	722113	keystroke_m	m	n/a
361.237	0.09	722474	keystroke_i	i	n/a
361.4165	0.09	722833	keystroke_n	n	n/a
361.492	0.1195	722984	keystroke_i	i	n/a
361.6865	0.09	723373	keystroke_s	s	n/a
361.9715	0.075	723943	keystroke_t	t	n/a
362.1665	0.09	724333	keystroke_r	r	n/a
362.2865	0.105	724573	keystroke_y	y	n/a
362.4815	0.09	724963	keystroke_Key.space	Key.space	n/a
363.0515	0.091	726103	keystroke_i	i	n/a
363.232	0.0745	726464	keystroke_n	n	n/a
363.382	0.0595	726764	keystroke_n	n	n/a
363.5615	0.12	727123	keystroke_o	o	n/a
363.7265	0.165	727453	keystroke_v	v	n/a
363.8615	0.135	727723	keystroke_a	a	n/a
364.1915	0.105	728383	keystroke_t	t	n/a
364.3115	0.15	728623	keystroke_i	i	n/a
364.3865	0.135	728773	keystroke_o	o	n/a
364.597	0.105	729194	keystroke_n	n	n/a
364.807	0.09	729614	keystroke_s	s	n/a
365.302	0.075	730604	keystroke_Key.enter	Key.enter	n/a
365.383	16.2405	730766	prompt	n/a	governments volunteer occupational rhythm\n
366.5915	0.0595	733183	keystroke_g	g	n/a
366.982	0.0895	733964	keystroke_o	o	n/a
367.386	0.0305	734772	keystroke_v	v	n/a
367.476	0.09	734952	keystroke_e	e	n/a
367.686	0.06	735372	keystroke_r	r	n/a
367.792	0.06	735584	keystroke_m	m	n/a
368.376	0.0755	736752	keystroke_Key.backspace	Key.backspace	n/a
369.0215	0.06	738043	keystroke_n	n	n/a
369.906	0.091	739812	keystroke_m	m	n/a
370.027	0.059	740054	keystroke_e	e	n/a
370.4765	0.075	740953	keystroke_n	n	n/a
370.6565	0.09	741313	keystroke_t	t	n/a
370.9265	0.06	741853	keystroke_s	s	n/a
371.0615	0.09	742123	keystroke_Key.space	Key.space	n/a
371.257	0.0745	742514	keystroke_v	v	n/a
371.3615	0.105	742723	keystroke_o	o	n/a
371.5715	0.1045	743143	keystroke_l	l	n/a
371.7815	0.075	743563	keystroke_n	n	n/a
372.7265	0.06	745453	keystroke_Key.backspace	Key.backspace	n/a
373.086	0.0755	746172	keystroke_u	u	n/a
373.2815	0.0895	746563	keystroke_n	n	n/a
373.507	0.09	747014	keystroke_t	t	n/a
373.702	0.06	747404	keystroke_e	e	n/a
373.8515	0.0895	747703	keystroke_e	e	n/a
374.077	0.075	748154	keystroke_r	r	n/a
374.361	0.0755	748722	keystroke_Key.space	Key.space	n/a
374.677	0.029	749354	keystroke_c	c	n/a
375.172	0.059	750344	keystroke_Key.backspace	Key.backspace	n/a
375.397	0.1045	750794	keystroke_o	o	n/a
375.6365	0.06	751273	keystroke_c	c	n/a
375.7565	0.0755	751513	keystroke_c	c	n/a
375.9365	0.09	751873	keystroke_u	u	n/a
376.3115	0.12	752623	keystroke_p	p	n/a
376.4465	0.105	752893	keystroke_a	a	n/a
377.3165	0.09	754633	keystroke_t	t	n/a
377.4365	0.1505	754873	keystroke_i	i	n/a
377.512	0.164	755024	keystroke_o	o	n/a
377.751	0.1205	755502	keystroke_n	n	n/a
377.931	0.121	755862	keystroke_a	a	n/a
378.0665	0.1355	756133	keystroke_l	l	n/a
378.186	0.09	756372	keystroke_Key.space	Key.space	n/a
378.996	0.075	757992	keystroke_r	r	n/a
379.161	0.06	758322	keystroke_h	h	n/a
379.3715	0.0745	758743	keystroke_y	y	n/a
380.5265	0.09	761053	keystroke_t	t	n/a
380.6765	0.09	761353	keystroke_h	h	n/a
380.9315	0.09	761863	keystroke_m	m	n/a
381.5615	0.06	763123	keystroke_Key.enter	Key.enter	n/a
381.628	11.755	763256	prompt	n/a	okay shepherd deposits trustee\n
383.8295	0.027	767659	keystroke_o	o	n/a
383.9615	0.12	767923	keystroke_k	k	n/a
384.0515	0.1045	768103	keystroke_a	a	n/a
384.276	0.09	768552	keystroke_y	y	n/a
384.4715	0.09	768943	keystroke_Key.space	Key.space	n/a
384.8915	0.075	769783	keystroke_s	s	n/a
385.0115	0.075	770023	keystroke_h	h	n/a
386.031	0.076	772062	keystroke_e	e	n/a
386.211	0.09	772422	keystroke_p	p	n/a
386.5115	0.1055	773023	keystroke_h	h	n/a
386.6915	0.06	773383	keystroke_e	e	n/a
387.817	0.0895	775634	keystroke_r	r	n/a
388.0565	0.075	776113	keystroke_d	d	n/a
388.2815	0.075	776563	keystroke_Key.space	Key.space	n/a
388.5965	0.06	777193	keystroke_d	d	n/a
388.7615	0.075	777523	keystroke_e	e	n/a
389.0765	0.12	778153	keystroke_p	p	n/a
389.2265	0.15	778453	keystroke_o	o	n/a
389.4215	0.105	778843	keystroke_s	s	n/a
389.6015	0.105	779203	keystroke_i	i	n/a
389.8715	0.1055	779743	keystroke_t	t	n/a
390.1415	0.09	780283	keystroke_s	s	n/a
390.2915	0.09	780583	keystroke_Key.space	Key.space	n/a
390.5465	0.075	781093	keystroke_t	t	n/a
390.7415	0.09	781483	keystroke_r	r	n/a
391.3715	0.075	782743	keystroke_u	u	n/a
391.806	0.075	783612	keystroke_s	s	n/a
392.0765	0.1055	784153	keystroke_t	t	n/a
392.9015	0.06	785803	keystroke_e	e	n/a
393.0365	0.074	786073	keystroke_e	e	n/a
393.306	0.075	786612	keystroke_Key.enter	Key.enter	n/a
393.3885	10.8095	786777	prompt	n/a	conspiracy workshop medication reminder\n
394.312	0.059	788624	keystroke_c	c	n/a
394.386	0.09	788772	keystroke_o	o	n/a
394.5365	0.135	789073	keystroke_n	n	n/a
394.6865	0.06	789373	keystroke_s	s	n/a
395.6615	0.075	791323	keystroke_p	p	n/a
395.8415	0.09	791683	keystroke_i	i	n/a
396.081	0.195	792162	keystroke_r	r	n/a
396.231	0.106	792462	keystroke_a	a	n/a
396.426	0.105	792852	keystroke_c	c	n/a
396.606	0.1205	793212	keystroke_y	y	n/a
396.786	0.12	793572	keystroke_Key.space	Key.space	n/a
397.296	0.0755	794592	keystroke_w	w	n/a
397.4015	0.1205	794803	keystroke_o	o	n/a
397.6415	0.09	795283	keystroke_r	r	n/a
397.717	0.1345	795434	keystroke_k	k	n/a
397.987	0.09	795974	keystroke_s	s	n/a
398.1215	0.15	796243	keystroke_h	h	n/a
398.3765	0.105	796753	keystroke_o	o	n/a
398.587	0.0895	797174	keystroke_p	p	n/a
398.9905	0.075	797981	keystroke_Key.space	Key.space	n/a
399.2615	0.12	798523	keystroke_m	m	n/a
399.4265	0.075	798853	keystroke_e	e	n/a
399.6365	0.0745	799273	keystroke_d	d	n/a
399.7265	0.1045	799453	keystroke_i	i	n/a
399.877	0.134	799754	keystroke_c	c	n/a
400.116	0.09	800232	keystroke_a	a	n/a
400.9715	0.0595	801943	keystroke_t	t	n/a
401.1065	0.15	802213	keystroke_i	i	n/a
401.211	0.1655	802422	keystroke_o	o	n/a
401.421	0.105	802842	keystroke_n	n	n/a
401.586	0.1055	803172	keystroke_Key.space	Key.space	n/a
401.8565	0.1045	803713	keystroke_r	r	n/a
402.051	0.09	804102	keystroke_e	e	n/a
402.1865	0.075	804373	keystroke_m	m	n/a
402.3665	0.09	804733	keystroke_i	i	n/a
402.531	0.09	805062	keystroke_n	n	n/a
403.176	0.0605	806352	keystroke_d	d	n/a
403.3115	0.045	806623	keystroke_e	e	n/a
403.5365	0.06	807073	keystroke_r	r	n/a
404.106	0.09	808212	keystroke_Key.enter	Key.enter	n/a
404.203	7.885	808406	prompt	n/a	calling topic she'll toys\n
404.9015	0.1045	809803	keystroke_c	c	n/a
405.112	0.089	810224	keystroke_a	a	n/a
405.2915	0.075	810583	keystroke_l	l	n/a
405.4565	0.105	810913	keystroke_l	l	n/a
405.891	0.075	811782	keystroke_i	i	n/a
406.071	0.12	812142	keystroke_n	n	n/a
406.311	0.075	812622	keystroke_g	g	n/a
406.551	0.075	813102	keystroke_Key.space	Key.space	n/a
407.571	0.031	815142	keystroke_t	t	n/a
407.616	0.1355	815232	keystroke_o	o	n/a
407.781	0.1055	815562	keystroke_p	p	n/a
407.991	0.121	815982	keystroke_i	i	n/a
408.2165	0.0745	816433	keystroke_c	c	n/a
408.5165	0.075	817033	keystroke_Key.space	Key.space	n/a
408.832	0.1045	817664	keystroke_s	s	n/a
408.952	0.1045	817904	keystroke_h	h	n/a
409.207	0.105	818414	keystroke_e	e	n/a
409.3565	0.12	818713	keystroke_'	'	n/a
409.9115	0.105	819823	keystroke_l	l	n/a
410.1215	0.09	820243	keystroke_l	l	n/a
410.9165	0.105	821833	keystroke_Key.space	Key.space	n/a
411.262	0.0745	822524	keystroke_t	t	n/a
411.3815	0.075	822763	keystroke_o	o	n/a
411.5765	0.09	823153	keystroke_y	y	n/a
411.8015	0.105	823603	keystroke_s	s	n/a
412.0115	0.075	824023	keystroke_Key.enter	Key.enter	n/a
412.093	8.68	824186	prompt	n/a	realtors pretty photos powers\n
412.8965	0.15	825793	keystroke_r	r	n/a
413.0015	0.135	826003	keystroke_e	e	n/a
413.257	0.1045	826514	keystroke_a	a	n/a
413.391	0.091	826782	keystroke_l	l	n/a
415.7175	0.014	831435	keystroke_t	t	n/a
415.7915	0.1355	831583	keystroke_o	o	n/a
415.9415	0.09	831883	keystroke_r	r	n/a
416.2115	0.09	832423	keystroke_s	s	n/a
416.3765	0.09	832753	keystroke_Key.space	Key.space	n/a
416.5715	0.105	833143	keystroke_p	p	n/a
416.7515	0.12	833503	keystroke_r	r	n/a
416.8405	0.1215	833681	keystroke_e	e	n/a
417.1255	0.076	834251	keystroke_t	t	n/a
417.277	0.09	834554	keystroke_t	t	n/a
417.517	0.1045	835034	keystroke_y	y	n/a
417.6805	0.106	835361	keystroke_Key.space	Key.space	n/a
417.8615	0.12	835723	keystroke_p	p	n/a
418.1015	0.0905	836203	keystroke_h	h	n/a
418.2215	0.15	836443	keystroke_o	o	n/a
418.4615	0.09	836923	keystroke_t	t	n/a
418.5515	0.135	837103	keystroke_o	o	n/a
418.7625	0.119	837525	keystroke_s	s	n/a
418.8815	0.12	837763	keystroke_Key.space	Key.space	n/a
419.1065	0.12	838213	keystroke_p	p	n/a
419.1665	0.1795	838333	keystroke_o	o	n/a
419.496	0.1205	838992	keystroke_w	w	n/a
419.7215	0.0895	839443	keystroke_e	e	n/a
419.976	0.0905	839952	keystroke_r	r	n/a
420.261	0.1055	840522	keystroke_s	s	n/a
420.6965	0.0745	841393	keystroke_Key.enter	Key.enter	n/a
420.78	8.318	841560	prompt	n/a	adolescent pubs happen think\n
421.612	0.104	843224	keystroke_a	a	n/a
421.8215	0.075	843643	keystroke_d	d	n/a
421.942	0.09	843884	keystroke_o	o	n/a
422.166	0.09	844332	keystroke_l	l	n/a
422.8865	0.075	845773	keystroke_e	e	n/a
423.1115	0.075	846223	keystroke_s	s	n/a
423.307	0.074	846614	keystroke_c	c	n/a
423.5915	0.0595	847183	keystroke_e	e	n/a
423.756	0.09	847512	keystroke_n	n	n/a
423.906	0.076	847812	keystroke_t	t	n/a
424.266	0.09	848532	keystroke_Key.space	Key.space	n/a
424.536	0.091	849072	keystroke_p	p	n/a
424.7315	0.075	849463	keystroke_u	u	n/a
425.3015	0.06	850603	keystroke_b	b	n/a
425.5265	0.075	851053	keystroke_s	s	n/a
425.7665	0.075	851533	keystroke_Key.space	Key.space	n/a
426.1265	0.1055	852253	keystroke_h	h	n/a
426.2465	0.09	852493	keystroke_a	a	n/a
426.3965	0.075	852793	keystroke_p	p	n/a
426.5465	0.09	853093	keystroke_p	p	n/a
427.0865	0.0445	854173	keystroke_e	e	n/a
427.221	0.075	854442	keystroke_n	n	n/a
427.401	0.105	854802	keystroke_Key.space	Key.space	n/a
427.686	0.075	855372	keystroke_t	t	n/a
427.851	0.12	855702	keystroke_h	h	n/a
427.956	0.105	855912	keystroke_i	i	n/a
428.1815	0.0905	856363	keystroke_n	n	n/a
428.421	0.09	856842	keystroke_k	k	n/a
429.036	0.0605	858072	keystroke_Key.enter	Key.enter	n/a
429.1025	7.2855	858205	prompt	n/a	showers needs alias cake\n
430.4315	0.076	860863	keystroke_s	s	n/a
431.1665	0.12	862333	keystroke_h	h	n/a
431.2415	0.165	862483	keystroke_o	o	n/a
431.481	0.1055	862962	keystroke_w	w	n/a
431.661	0.075	863322	keystroke_e	e	n/a
431.901	0.09	863802	keystroke_r	r	n/a
432.156	0.106	864312	keystroke_s	s	n/a
432.3365	0.09	864673	keystroke_Key.space	Key.space	n/a
432.6215	0.09	865243	keystroke_n	n	n/a
432.786	0.075	865572	keystroke_e	e	n/a
432.9515	0.0895	865903	keystroke_e	e	n/a
433.206	0.075	866412	keystroke_d	d	n/a
433.4165	0.09	866833	keystroke_s	s	n/a
433.5215	0.105	867043	keystroke_Key.space	Key.space	n/a
434.3315	0.1055	868663	keystroke_a	a	n/a
434.5115	0.12	869023	keystroke_l	l	n/a
434.737	0.0895	869474	keystroke_i	i	n/a
434.947	0.1195	869894	keystroke_a	a	n/a
435.1865	0.075	870373	keystroke_s	s	n/a
435.3065	0.09	870613	keystroke_Key.space	Key.space	n/a
435.5915	0.09	871183	keystroke_c	c	n/a
435.7565	0.12	871513	keystroke_a	a	n/a
435.9065	0.1505	871813	keystroke_k	k	n/a
436.1315	0.075	872263	keystroke_e	e	n/a
436.3115	0.075	872623	keystroke_Key.enter	Key.enter	n/a
436.393	10.765	872786	prompt	n/a	concentrate cheaper section implementing\n
437.182	0.074	874364	keystroke_c	c	n/a
437.2865	0.1045	874573	keystroke_o	o	n/a
437.452	0.104	874904	keystroke_n	n	n/a
437.841	0.075	875682	keystroke_c	c	n/a
438.0965	0.06	876193	keystroke_e	e	n/a
438.2915	0.0895	876583	keystroke_n	n	n/a
438.771	0.0605	877542	keystroke_t	t	n/a
438.951	0.0755	877902	keystroke_r	r	n/a
439.101	0.1355	878202	keystroke_a	a	n/a
439.342	0.089	878684	keystroke_t	t	n/a
439.5365	0.0755	879073	keystroke_e	e	n/a
439.7765	0.075	879553	keystroke_Key.space	Key.space	n/a
440.0915	0.075	880183	keystroke_c	c	n/a
440.1815	0.12	880363	keystroke_h	h	n/a
440.3915	0.09	880783	keystroke_e	e	n/a
440.6165	0.1055	881233	keystroke_a	a	n/a
440.811	0.106	881622	keystroke_p	p	n/a
441.3665	0.0745	882733	keystroke_e	e	n/a
441.562	0.089	883124	keystroke_r	r	n/a
441.711	0.09	883422	keystroke_Key.space	Key.space	n/a
442.0415	0.105	884083	keystroke_s	s	n/a
442.2515	0.06	884503	keystroke_e	e	n/a
442.446	0.09	884892	keystroke_c	c	n/a
443.2565	0.0895	886513	keystroke_t	t	n/a
443.4065	0.105	886813	keystroke_i	i	n/a
443.452	0.164	886904	keystroke_o	o	n/a
443.676	0.106	887352	keystroke_n	n	n/a
443.916	0.09	887832	keystroke_Key.space	Key.space	n/a
444.202	0.09	888404	keystroke_i	i	n/a
444.367	0.1045	888734	keystroke_m	m	n/a
444.5315	0.105	889063	keystroke_p	p	n/a
444.727	0.1495	889454	keystroke_l	l	n/a
445.237	0.0595	890474	keystroke_e	e	n/a
445.372	0.119	890744	keystroke_m	m	n/a
445.536	0.0605	891072	keystroke_e	e	n/a
445.7305	0.0755	891461	keystroke_n	n	n/a
446.1515	0.0745	892303	keystroke_t	t	n/a
446.2865	0.075	892573	keystroke_i	i	n/a
446.437	0.134	892874	keystroke_n	n	n/a
446.601	0.091	893202	keystroke_g	g	n/a
447.081	0.0755	894162	keystroke_Key.enter	Key.enter	n/a
447.163	6.385	894326	prompt	n/a	producing lane skill collect\n
447.876	0.105	895752	keystroke_p	p	n/a
448.342	0.089	896684	keystroke_r	r	n/a
448.4465	0.1195	896893	keystroke_o	o	n/a
448.581	0.09	897162	keystroke_d	d	n/a
448.716	0.09	897432	keystroke_u	u	n/a
448.866	0.105	897732	keystroke_c	c	n/a
448.972	0.089	897944	keystroke_i	i	n/a
449.151	0.12	898302	keystroke_n	n	n/a
449.3465	0.0905	898693	keystroke_g	g	n/a
449.511	0.09	899022	keystroke_Key.space	Key.space	n/a
449.6915	0.0895	899383	keystroke_l	l	n/a
449.8115	0.1045	899623	keystroke_a	a	n/a
449.931	0.1205	899862	keystroke_n	n	n/a
450.1415	0.075	900283	keystroke_e	e	n/a
450.3365	0.0895	900673	keystroke_Key.space	Key.space	n/a
450.5465	0.075	901093	keystroke_s	s	n/a
450.6365	0.09	901273	keystroke_k	k	n/a
450.832	0.0895	901664	keystroke_i	i	n/a
451.0115	0.09	902023	keystroke_l	l	n/a
451.2065	0.12	902413	keystroke_l	l	n/a
451.3715	0.09	902743	keystroke_Key.space	Key.space	n/a
451.7915	0.09	903583	keystroke_c	c	n/a
451.927	0.089	903854	keystroke_o	o	n/a
452.136	0.09	904272	keystroke_l	l	n/a
452.3015	0.1205	904603	keystroke_l	l	n/a
452.557	0.06	905114	keystroke_e	e	n/a
452.766	0.075	905532	keystroke_c	c	n/a
453.322	0.06	906644	keystroke_t	t	n/a
453.472	0.0745	906944	keystroke_Key.enter	Key.enter	n/a
453.5525	18.0855	907105	prompt	n/a	guyana actions christine precipitation\n
454.8515	0.075	909703	keystroke_g	g	n/a
454.9415	0.075	909883	keystroke_u	u	n/a
455.1665	0.06	910333	keystroke_y	y	n/a
455.392	0.1045	910784	keystroke_a	a	n/a
455.5415	0.1355	911083	keystroke_n	n	n/a
455.7215	0.0755	911443	keystroke_a	a	n/a
456.3215	0.06	912643	keystroke_Key.space	Key.space	n/a
456.577	0.0745	913154	keystroke_a	a	n/a
456.7715	0.075	913543	keystroke_c	c	n/a
458.3615	0.075	916723	keystroke_t	t	n/a
458.5115	0.15	917023	keystroke_i	i	n/a
458.6015	0.15	917203	keystroke_o	o	n/a
458.7665	0.1205	917533	keystroke_n	n	n/a
458.991	0.076	917982	keystroke_s	s	n/a
459.171	0.075	918342	keystroke_Key.space	Key.space	n/a
459.471	0.075	918942	keystroke_c	c	n/a
459.561	0.135	919122	keystroke_h	h	n/a
459.817	0.09	919634	keystroke_r	r	n/a
459.936	0.12	919872	keystroke_i	i	n/a
460.0865	0.1055	920173	keystroke_s	s	n/a
460.9415	0.09	921883	keystroke_t	t	n/a
461.0465	0.12	922093	keystroke_i	i	n/a
461.3015	0.1345	922603	keystroke_n	n	n/a
461.4815	0.06	922963	keystroke_e	e	n/a
461.8715	0.075	923743	keystroke_Key.space	Key.space	n/a
462.112	0.0895	924224	keystroke_p	p	n/a
462.261	0.1505	924522	keystroke_r	r	n/a
462.366	0.1355	924732	keystroke_e	e	n/a
462.696	0.045	925392	keystroke_c	c	n/a
462.787	0.074	925574	keystroke_i	i	n/a
463.5965	0.1055	927193	keystroke_p	p	n/a
464.2415	0.09	928483	keystroke_i	i	n/a
464.5265	0.0895	929053	keystroke_t	t	n/a
464.5415	0.0595	929083	keystroke_r	r	n/a
464.677	0.134	929354	keystroke_a	a	n/a
465.096	0.09	930192	keystroke_t	t	n/a
465.276	0.166	930552	keystroke_i	i	n/a
465.412	0.1795	930824	keystroke_o	o	n/a
465.576	0.1205	931152	keystroke_n	n	n/a
467.783	0.001	935566	keystroke_Key.backspace	Key.backspace	n/a
467.916	0.06	935832	keystroke_Key.backspace	Key.backspace	n/a
468.1265	0.075	936253	keystroke_Key.backspace	Key.backspace	n/a
468.3505	0.091	936701	keystroke_Key.backspace	Key.backspace	n/a
468.8165	0.075	937633	keystroke_Key.backspace	Key.backspace	n/a
469.5965	0.075	939193	keystroke_Key.backspace	Key.backspace	n/a
470.121	0.09	940242	keystroke_a	a	n/a
470.4215	0.075	940843	keystroke_t	t	n/a
470.6615	0.1505	941323	keystroke_i	i	n/a
470.7965	0.1495	941593	keystroke_o	o	n/a
471.037	0.104	942074	keystroke_n	n	n/a
471.5765	0.06	943153	keystroke_Key.enter	Key.enter	n/a
471.6425	2.6805	943285	prompt	n/a	you've garmin liabilities breath\n
473.0315	0.0745	946063	keystroke_y	y	n/a
473.0915	0.2245	946183	keystroke_o	o	n/a
473.241	0.12	946482	keystroke_u	u	n/a
474.276	0.06	948552	keystroke_'	'	n/a
474.291	0.03	948582	keystroke_Key.enter	Key.enter	n/a
474.328	17.92	948656	prompt	n/a	history gains health student\n
474.516	0.09	949032	keystroke_v	v	n/a
474.7115	0.0745	949423	keystroke_e	e	n/a
477.038	0.0285	954076	keystroke_Key.backspace	Key.backspace	n/a
477.2015	0.0895	954403	keystroke_Key.backspace	Key.backspace	n/a
477.726	0.0755	955452	keystroke_h	h	n/a
477.9065	0.09	955813	keystroke_i	i	n/a
478.0265	0.1195	956053	keystroke_s	s	n/a
478.2965	0.0755	956593	keystroke_t	t	n/a
478.4615	0.1045	956923	keystroke_o	o	n/a
478.5515	0.1195	957103	keystroke_r	r	n/a
478.626	0.1205	957252	keystroke_e	e	n/a
478.867	0.1195	957734	keystroke_y	y	n/a
479.076	0.0905	958152	keystroke_Key.space	Key.space	n/a
479.601	0.105	959202	keystroke_g	g	n/a
479.766	0.135	959532	keystroke_a	a	n/a
479.8865	0.1045	959773	keystroke_i	i	n/a
480.0965	0.1195	960193	keystroke_n	n	n/a
480.9515	0.06	961903	keystroke_s	s	n/a
481.971	0.075	963942	keystroke_Key.backspace	Key.backspace	n/a
482.166	0.075	964332	keystroke_Key.backspace	Key.backspace	n/a
482.376	0.075	964752	keystroke_Key.backspace	Key.backspace	n/a
482.601	0.09	965202	keystroke_Key.backspace	Key.backspace	n/a
482.826	0.0755	965652	keystroke_Key.backspace	Key.backspace	n/a
483.0365	0.0745	966073	keystroke_Key.backspace	Key.backspace	n/a
483.291	0.09	966582	keystroke_Key.backspace	Key.backspace	n/a
483.846	0.06	967692	keystroke_Key.backspace	Key.backspace	n/a
484.8365	0.0745	969673	keystroke_y	y	n/a
484.941	0.105	969882	keystroke_Key.space	Key.space	n/a
485.271	0.105	970542	keystroke_g	g	n/a
485.4815	0.1045	970963	keystroke_a	a	n/a
485.631	0.105	971262	keystroke_i	i	n/a
485.826	0.09	971652	keystroke_n	n	n/a
486.0215	0.06	972043	keystroke_s	s	n/a
486.7565	0.0895	973513	keystroke_Key.space	Key.space	n/a
486.9515	0.12	973903	keystroke_h	h	n/a
487.072	0.089	974144	keystroke_e	e	n/a
487.2515	0.1355	974503	keystroke_a	a	n/a
487.837	0.105	975674	keystroke_l	l	n/a
488.0915	0.0905	976183	keystroke_t	t	n/a
488.2115	0.105	976423	keystroke_h	h	n/a
488.4515	0.0895	976903	keystroke_Key.space	Key.space	n/a
488.9915	0.105	977983	keystroke_s	s	n/a
489.3515	0.09	978703	keystroke_t	t	n/a
489.4865	0.089	978973	keystroke_u	u	n/a
489.6215	0.09	979243	keystroke_d	d	n/a
489.8315	0.0605	979663	keystroke_e	e	n/a
489.9365	0.1045	979873	keystroke_n	n	n/a
490.102	0.0895	980204	keystroke_t	t	n/a
492.171	0.075	984342	keystroke_Key.enter	Key.enter	n/a
492.2525	7.062	984505	prompt	n/a	kerry conclusion relating creek\n
493.0715	0.135	986143	keystroke_k	k	n/a
493.192	0.0745	986384	keystroke_e	e	n/a
493.4315	0.075	986863	keystroke_r	r	n/a
493.5515	0.105	987103	keystroke_r	r	n/a
493.7015	0.1205	987403	keystroke_y	y	n/a
493.8665	0.089	987733	keystroke_Key.space	Key.space	n/a
494.0465	0.09	988093	keystroke_c	c	n/a
494.1065	0.12	988213	keystroke_o	o	n/a
494.2865	0.1055	988573	keystroke_n	n	n/a
494.4965	0.06	988993	keystroke_c	c	n/a
494.587	0.1345	989174	keystroke_l	l	n/a
495.1715	0.09	990343	keystroke_u	u	n/a
495.5015	0.0745	991003	keystroke_s	s	n/a
495.7115	0.15	991423	keystroke_i	i	n/a
495.816	0.15	991632	keystroke_o	o	n/a
496.0255	0.091	992051	keystroke_n	n	n/a
496.491	0.0895	992982	keystroke_Key.space	Key.space	n/a
496.7765	0.135	993553	keystroke_r	r	n/a
496.8965	0.105	993793	keystroke_e	e	n/a
497.031	0.1505	994062	keystroke_l	l	n/a
497.151	0.1055	994302	keystroke_a	a	n/a
497.407	0.089	994814	keystroke_t	t	n/a
497.511	0.135	995022	keystroke_i	i	n/a
497.692	0.149	995384	keystroke_n	n	n/a
497.8565	0.09	995713	keystroke_g	g	n/a
498.006	0.105	996012	keystroke_Key.space	Key.space	n/a
498.1865	0.105	996373	keystroke_c	c	n/a
498.4565	0.105	996913	keystroke_r	r	n/a
498.6215	0.09	997243	keystroke_e	e	n/a
498.7865	0.09	997573	keystroke_e	e	n/a
498.9665	0.12	997933	keystroke_k	k	n/a
499.2365	0.075	998473	keystroke_Key.enter	Key.enter	n/a
499.319	13.0135	998638	prompt	n/a	metropolitan parcel facts certificates\n
500.1815	0.0895	1000363	keystroke_m	m	n/a
500.541	0.06	1001082	keystroke_e	e	n/a
500.781	0.0755	1001562	keystroke_t	t	n/a
500.9915	0.09	1001983	keystroke_r	r	n/a
501.2465	0.105	1002493	keystroke_o	o	n/a
501.5315	0.15	1003063	keystroke_p	p	n/a
501.6515	0.12	1003303	keystroke_o	o	n/a
501.877	0.1185	1003754	keystroke_l	l	n/a
502.056	0.1055	1004112	keystroke_i	i	n/a
502.237	0.1195	1004474	keystroke_t	t	n/a
502.386	0.1505	1004772	keystroke_a	a	n/a
502.566	0.1055	1005132	keystroke_n	n	n/a
502.7765	0.0745	1005553	keystroke_Key.space	Key.space	n/a
503.241	0.12	1006482	keystroke_p	p	n/a
503.496	0.1205	1006992	keystroke_a	a	n/a
503.8265	0.089	1007653	keystroke_r	r	n/a
504.0665	0.074	1008133	keystroke_c	c	n/a
504.3055	0.045	1008611	keystroke_e	e	n/a
504.9205	0.091	1009841	keystroke_l	l	n/a
505.1015	0.09	1010203	keystroke_Key.space	Key.space	n/a
505.5815	0.12	1011163	keystroke_f	f	n/a
505.6715	0.135	1011343	keystroke_a	a	n/a
505.9565	0.09	1011913	keystroke_c	c	n/a
506.2115	0.09	1012423	keystroke_t	t	n/a
506.451	0.09	1012902	keystroke_s	s	n/a
506.676	0.0755	1013352	keystroke_Key.space	Key.space	n/a
507.097	0.0735	1014194	keystroke_c	c	n/a
507.2455	0.106	1014491	keystroke_o	o	n/a
507.411	0.0745	1014822	keystroke_r	r	n/a
507.6055	0.076	1015211	keystroke_t	t	n/a
507.7415	0.104	1015483	keystroke_i	i	n/a
508.3255	0.075	1016651	keystroke_Key.backspace	Key.backspace	n/a
508.506	0.0745	1017012	keystroke_Key.backspace	Key.backspace	n/a
508.716	0.09	1017432	keystroke_Key.backspace	Key.backspace	n/a
509.151	0.0905	1018302	keystroke_Key.backspace	Key.backspace	n/a
509.541	0.075	1019082	keystroke_e	e	n/a
509.751	0.0755	1019502	keystroke_r	r	n/a
509.991	0.0755	1019982	keystroke_t	t	n/a
510.1115	0.1045	1020223	keystroke_i	i	n/a
510.501	0.0755	1021002	keystroke_f	f	n/a
510.6215	0.1195	1021243	keystroke_i	i	n/a
510.7565	0.0895	1021513	keystroke_c	c	n/a
510.9815	0.09	1021963	keystroke_a	a	n/a
511.221	0.09	1022442	keystroke_t	t	n/a
511.3715	0.0905	1022743	keystroke_e	e	n/a
511.596	0.075	1023192	keystroke_s	s	n/a
512.256	0.0745	1024512	keystroke_Key.enter	Key.enter	n/a
512.336	8.277	1024672	prompt	n/a	might covered administrative usage\n
513.006	0.0745	1026012	keystroke_m	m	n/a
513.2155	0.1055	1026431	keystroke_i	i	n/a
513.966	0.06	1027932	keystroke_g	g	n/a
514.056	0.1195	1028112	keystroke_h	h	n/a
514.2215	0.0745	1028443	keystroke_t	t	n/a
514.701	0.0745	1029402	keystroke_Key.space	Key.space	n/a
514.9105	0.075	1029821	keystroke_c	c	n/a
515.0005	0.121	1030001	keystroke_o	o	n/a
515.1355	0.091	1030271	keystroke_v	v	n/a
515.316	0.0905	1030632	keystroke_e	e	n/a
515.5555	0.09	1031111	keystroke_r	r	n/a
515.7215	0.104	1031443	keystroke_e	e	n/a
516.156	0.06	1032312	keystroke_d	d	n/a
516.3215	0.0895	1032643	keystroke_Key.space	Key.space	n/a
516.621	0.105	1033242	keystroke_a	a	n/a
516.8465	0.075	1033693	keystroke_d	d	n/a
516.9515	0.12	1033903	keystroke_m	m	n/a
517.1165	0.09	1034233	keystroke_i	i	n/a
517.2665	0.135	1034533	keystroke_n	n	n/a
517.3555	0.151	1034711	keystroke_i	i	n/a
517.4915	0.1045	1034983	keystroke_s	s	n/a
517.8065	0.029	1035613	keystroke_t	t	n/a
517.9415	0.0905	1035883	keystroke_r	r	n/a
518.1215	0.119	1036243	keystroke_a	a	n/a
518.3755	0.061	1036751	keystroke_t	t	n/a
518.4965	0.15	1036993	keystroke_i	i	n/a
518.6465	0.105	1037293	keystroke_v	v	n/a
518.8865	0.06	1037773	keystroke_e	e	n/a
518.9755	0.106	1037951	keystroke_Key.space	Key.space	n/a
519.1865	0.075	1038373	keystroke_u	u	n/a
519.3965	0.18	1038793	keystroke_s	s	n/a
519.502	0.1495	1039004	keystroke_a	a	n/a
519.771	0.0755	1039542	keystroke_g	g	n/a
519.9515	0.074	1039903	keystroke_e	e	n/a
520.5355	0.075	1041071	keystroke_Key.enter	Key.enter	n/a
520.618	8.08	1041236	prompt	n/a	montgomery locate comes duck\n
521.241	0.075	1042482	keystroke_m	m	n/a
521.6915	0.09	1043383	keystroke_o	o	n/a
521.9015	0.075	1043803	keystroke_n	n	n/a
522.5465	0.045	1045093	keystroke_t	t	n/a
522.9815	0.0595	1045963	keystroke_g	g	n/a
523.0865	0.1345	1046173	keystroke_o	o	n/a
524.061	0.1205	1048122	keystroke_m	m	n/a
524.166	0.0745	1048332	keystroke_e	e	n/a
524.376	0.0895	1048752	keystroke_r	r	n/a
524.5255	0.12	1049051	keystroke_y	y	n/a
524.6755	0.105	1049351	keystroke_Key.space	Key.space	n/a
524.931	0.1055	1049862	keystroke_l	l	n/a
525.156	0.105	1050312	keystroke_o	o	n/a
525.261	0.1205	1050522	keystroke_c	c	n/a
525.396	0.1355	1050792	keystroke_a	a	n/a
525.696	0.09	1051392	keystroke_t	t	n/a
525.891	0.09	1051782	keystroke_e	e	n/a
526.056	0.09	1052112	keystroke_Key.space	Key.space	n/a
526.311	0.105	1052622	keystroke_c	c	n/a
526.4015	0.1195	1052803	keystroke_o	o	n/a
526.596	0.135	1053192	keystroke_m	m	n/a
526.7465	0.1055	1053493	keystroke_e	e	n/a
526.9865	0.09	1053973	keystroke_s	s	n/a
527.1805	0.06	1054361	keystroke_Key.space	Key.space	n/a
527.7955	0.076	1055591	keystroke_d	d	n/a
527.9905	0.106	1055981	keystroke_u	u	n/a
528.231	0.0755	1056462	keystroke_c	c	n/a
528.3215	0.0895	1056643	keystroke_k	k	n/a
528.606	0.09	1057212	keystroke_Key.enter	Key.enter	n/a
528.7025	13.9905	1057405	prompt	n/a	what'd toll ma'am nudist\n
529.731	0.0605	1059462	keystroke_w	w	n/a
530.7215	0.119	1061443	keystroke_h	h	n/a
530.8255	0.135	1061651	keystroke_a	a	n/a
531.1265	0.105	1062253	keystroke_t	t	n/a
531.336	0.03	1062672	keystroke_'	'	n/a
532.011	0.06	1064022	keystroke_d	d	n/a
532.9855	0.09	1065971	keystroke_Key.space	Key.space	n/a
533.6305	0.0755	1067261	keystroke_t	t	n/a
533.7665	0.12	1067533	keystroke_o	o	n/a
533.9755	0.09	1067951	keystroke_l	l	n/a
534.186	0.09	1068372	keystroke_l	l	n/a
534.3355	0.105	1068671	keystroke_Key.space	Key.space	n/a
534.5765	0.105	1069153	keystroke_m	m	n/a
535.2515	0.104	1070503	keystroke_a	a	n/a
536.3765	0.0895	1072753	keystroke_'	'	n/a
537.6965	0.0895	1075393	keystroke_a	a	n/a
538.491	0.09	1076982	keystroke_m	m	n/a
538.686	0.0905	1077372	keystroke_Key.space	Key.space	n/a
538.911	0.075	1077822	keystroke_n	n	n/a
539.136	0.06	1078272	keystroke_u	u	n/a
540.0215	0.075	1080043	keystroke_d	d	n/a
540.1565	0.105	1080313	keystroke_i	i	n/a
541.311	0.105	1082622	keystroke_s	s	n/a
541.5965	0.0895	1083193	keystroke_t	t	n/a
542.646	0.0455	1085292	keystroke_Key.enter	Key.enter	n/a
542.701	12.923	1085402	prompt	n/a	modification roof slideshow learners\n
543.396	0.105	1086792	keystroke_m	m	n/a
543.651	0.105	1087302	keystroke_o	o	n/a
543.8615	0.0745	1087723	keystroke_d	d	n/a
543.951	0.105	1087902	keystroke_i	i	n/a
544.281	0.09	1088562	keystroke_f	f	n/a
544.401	0.12	1088802	keystroke_i	i	n/a
544.491	0.075	1088982	keystroke_a	a	n/a
545.0605	0.09	1090121	keystroke_Key.backspace	Key.backspace	n/a
545.3015	0.074	1090603	keystroke_i	i	n/a
545.931	0.075	1091862	keystroke_Key.backspace	Key.backspace	n/a
546.667	0.134	1093334	keystroke_c	c	n/a
546.816	0.135	1093632	keystroke_a	a	n/a
547.1465	0.075	1094293	keystroke_t	t	n/a
547.2665	0.1495	1094533	keystroke_i	i	n/a
547.3715	0.1495	1094743	keystroke_o	o	n/a
547.566	0.1195	1095132	keystroke_n	n	n/a
548.106	0.0745	1096212	keystroke_Key.space	Key.space	n/a
548.3765	0.089	1096753	keystroke_r	r	n/a
548.5105	0.0905	1097021	keystroke_o	o	n/a
548.646	0.135	1097292	keystroke_o	o	n/a
548.856	0.09	1097712	keystroke_f	f	n/a
548.961	0.075	1097922	keystroke_Key.space	Key.space	n/a
549.186	0.0905	1098372	keystroke_s	s	n/a
549.246	0.105	1098492	keystroke_l	l	n/a
550.0115	0.0745	1100023	keystroke_i	i	n/a
550.131	0.075	1100262	keystroke_d	d	n/a
550.326	0.075	1100652	keystroke_e	e	n/a
550.566	0.105	1101132	keystroke_s	s	n/a
550.701	0.1355	1101402	keystroke_h	h	n/a
550.791	0.165	1101582	keystroke_o	o	n/a
551.7355	0.0755	1103471	keystroke_w	w	n/a
552.846	0.135	1105692	keystroke_Key.space	Key.space	n/a
552.9965	0.0595	1105993	keystroke_l	l	n/a
553.101	0.09	1106202	keystroke_e	e	n/a
553.296	0.12	1106592	keystroke_a	a	n/a
553.5655	0.0905	1107131	keystroke_r	r	n/a
553.701	0.105	1107402	keystroke_n	n	n/a
554.4215	0.0745	1108843	keystroke_e	e	n/a
554.6615	0.09	1109323	keystroke_r	r	n/a
554.9465	0.089	1109893	keystroke_s	s	n/a
555.5605	0.061	1111121	keystroke_Key.enter	Key.enter	n/a
555.6295	8.5885	1111259	prompt	n/a	filed reviewed skating shoulder\n
556.776	0.0605	1113552	keystroke_f	f	n/a
556.866	0.1055	1113732	keystroke_i	i	n/a
557.1365	0.135	1114273	keystroke_l	l	n/a
557.3165	0.06	1114633	keystroke_e	e	n/a
557.5265	0.089	1115053	keystroke_d	d	n/a
557.6765	0.089	1115353	keystroke_Key.space	Key.space	n/a
557.9315	0.12	1115863	keystroke_r	r	n/a
558.0665	0.105	1116133	keystroke_e	e	n/a
558.3515	0.0895	1116703	keystroke_v	v	n/a
558.5915	0.12	1117183	keystroke_i	i	n/a
558.8165	0.075	1117633	keystroke_e	e	n/a
559.3265	0.105	1118653	keystroke_w	w	n/a
559.521	0.075	1119042	keystroke_e	e	n/a
559.791	0.075	1119582	keystroke_d	d	n/a
560.001	0.09	1120002	keystroke_Key.space	Key.space	n/a
560.331	0.1045	1120662	keystroke_s	s	n/a
560.4205	0.1205	1120841	keystroke_k	k	n/a
560.5715	0.134	1121143	keystroke_a	a	n/a
560.8855	0.1055	1121771	keystroke_t	t	n/a
561.006	0.09	1122012	keystroke_i	i	n/a
561.186	0.1205	1122372	keystroke_n	n	n/a
561.396	0.06	1122792	keystroke_g	g	n/a
561.561	0.09	1123122	keystroke_Key.space	Key.space	n/a
562.071	0.09	1124142	keystroke_h	h	n/a
562.641	0.135	1125282	keystroke_Key.backspace	Key.backspace	n/a
562.806	0.076	1125612	keystroke_s	s	n/a
562.941	0.105	1125882	keystroke_h	h	n/a
563.076	0.12	1126152	keystroke_o	o	n/a
563.241	0.075	1126482	keystroke_u	u	n/a
563.4205	0.12	1126841	keystroke_l	l	n/a
563.5555	0.0755	1127111	keystroke_d	d	n/a
563.7215	0.075	1127443	keystroke_e	e	n/a
563.9465	0.0755	1127893	keystroke_r	r	n/a
564.1405	0.0755	1128281	keystroke_Key.enter	Key.enter	n/a
564.2225	9.0555	1128445	prompt	n/a	ranks newsletter stroke referenced\n
565.3565	0.0895	1130713	keystroke_r	r	n/a
565.5365	0.1195	1131073	keystroke_a	a	n/a
565.806	0.0905	1131612	keystroke_n	n	n/a
566.1355	0.09	1132271	keystroke_k	k	n/a
566.526	0.0755	1133052	keystroke_s	s	n/a
566.7665	0.075	1133533	keystroke_Key.space	Key.space	n/a
566.9465	0.105	1133893	keystroke_n	n	n/a
567.081	0.0895	1134162	keystroke_e	e	n/a
567.7715	0.0745	1135543	keystroke_w	w	n/a
567.9955	0.075	1135991	keystroke_s	s	n/a
568.266	0.1195	1136532	keystroke_l	l	n/a
568.446	0.075	1136892	keystroke_e	e	n/a
568.7005	0.0605	1137401	keystroke_t	t	n/a
568.8215	0.089	1137643	keystroke_t	t	n/a
569.016	0.1045	1138032	keystroke_e	e	n/a
569.241	0.09	1138482	keystroke_r	r	n/a
569.391	0.105	1138782	keystroke_Key.space	Key.space	n/a
569.586	0.09	1139172	keystroke_s	s	n/a
569.841	0.0755	1139682	keystroke_t	t	n/a
570.051	0.09	1140102	keystroke_r	r	n/a
570.156	0.105	1140312	keystroke_o	o	n/a
570.366	0.1055	1140732	keystroke_k	k	n/a
570.5605	0.0605	1141121	keystroke_e	e	n/a
570.711	0.09	1141422	keystroke_Key.space	Key.space	n/a
570.936	0.1055	1141872	keystroke_r	r	n/a
571.056	0.12	1142112	keystroke_e	e	n/a
571.296	0.18	1142592	keystroke_f	f	n/a
571.431	0.12	1142862	keystroke_e	e	n/a
571.6715	0.15	1143343	keystroke_r	r	n/a
571.7625	0.119	1143525	keystroke_e	e	n/a
572.181	0.09	1144362	keystroke_n	n	n/a
572.316	0.09	1144632	keystroke_c	c	n/a
572.5565	0.075	1145113	keystroke_e	e	n/a
572.7515	0.075	1145503	keystroke_d	d	n/a
573.216	0.06	1146432	keystroke_Key.enter	Key.enter	n/a
573.283	8.95	1146566	prompt	n/a	talked mountain preliminary fool\n
574.2215	0.09	1148443	keystroke_t	t	n/a
574.3865	0.1495	1148773	keystroke_a	a	n/a
574.551	0.105	1149102	keystroke_l	l	n/a
575.1365	0.12	1150273	keystroke_k	k	n/a
575.2415	0.0595	1150483	keystroke_e	e	n/a
575.4515	0.09	1150903	keystroke_d	d	n/a
575.571	0.105	1151142	keystroke_Key.space	Key.space	n/a
575.7965	0.0895	1151593	keystroke_m	m	n/a
576.006	0.105	1152012	keystroke_o	o	n/a
576.2905	0.0155	1152581	keystroke_u	u	n/a
576.4115	0.105	1152823	keystroke_n	n	n/a
576.6665	0.075	1153333	keystroke_t	t	n/a
577.176	0.1055	1154352	keystroke_a	a	n/a
577.266	0.12	1154532	keystroke_i	i	n/a
577.446	0.12	1154892	keystroke_n	n	n/a
577.686	0.075	1155372	keystroke_Key.space	Key.space	n/a
578.061	0.09	1156122	keystroke_p	p	n/a
578.3315	0.12	1156663	keystroke_r	r	n/a
578.421	0.1205	1156842	keystroke_e	e	n/a
578.586	0.1195	1157172	keystroke_l	l	n/a
578.751	0.105	1157502	keystroke_i	i	n/a
578.9465	0.135	1157893	keystroke_m	m	n/a
579.1115	0.09	1158223	keystroke_i	i	n/a
579.3065	0.0895	1158613	keystroke_n	n	n/a
579.4715	0.135	1158943	keystroke_a	a	n/a
579.7715	0.09	1159543	keystroke_r	r	n/a
579.9215	0.0745	1159843	keystroke_y	y	n/a
580.0705	0.105	1160141	keystroke_Key.space	Key.space	n/a
580.7755	0.076	1161551	keystroke_g	g	n/a
581.166	0.0745	1162332	keystroke_Key.backspace	Key.backspace	n/a
581.361	0.075	1162722	keystroke_f	f	n/a
581.526	0.075	1163052	keystroke_o	o	n/a
581.7065	0.09	1163413	keystroke_o	o	n/a
581.916	0.09	1163832	keystroke_l	l	n/a
582.1715	0.0595	1164343	keystroke_Key.enter	Key.enter	n/a
582.2375	10.4505	1164475	prompt	n/a	mode detector compressed drainage\n
583.056	0.075	1166112	keystroke_m	m	n/a
583.266	0.135	1166532	keystroke_o	o	n/a
583.386	0.06	1166772	keystroke_d	d	n/a
583.581	0.06	1167162	keystroke_e	e	n/a
583.701	0.075	1167402	keystroke_Key.space	Key.space	n/a
583.851	0.075	1167702	keystroke_d	d	n/a
584.0615	0.0595	1168123	keystroke_e	e	n/a
584.406	0.075	1168812	keystroke_t	t	n/a
584.601	0.075	1169202	keystroke_e	e	n/a
584.8415	0.0895	1169683	keystroke_c	c	n/a
585.7865	0.075	1171573	keystroke_t	t	n/a
585.9065	0.12	1171813	keystroke_o	o	n/a
586.0705	0.0905	1172141	keystroke_r	r	n/a
586.266	0.09	1172532	keystroke_Key.space	Key.space	n/a
586.761	0.09	1173522	keystroke_c	c	n/a
587.3315	0.1045	1174663	keystroke_o	o	n/a
587.511	0.0755	1175022	keystroke_m	m	n/a
587.691	0.0755	1175382	keystroke_p	p	n/a
587.9455	0.15	1175891	keystroke_r	r	n/a
588.0655	0.1205	1176131	keystroke_e	e	n/a
589.3555	0.076	1178711	keystroke_s	s	n/a
589.566	0.075	1179132	keystroke_s	s	n/a
589.866	0.09	1179732	keystroke_e	e	n/a
590.1505	0.076	1180301	keystroke_d	d	n/a
590.3455	0.0755	1180691	keystroke_Key.space	Key.space	n/a
590.721	0.09	1181442	keystroke_d	d	n/a
590.991	0.09	1181982	keystroke_r	r	n/a
591.141	0.1495	1182282	keystroke_a	a	n/a
591.3065	0.1045	1182613	keystroke_i	i	n/a
591.486	0.1195	1182972	keystroke_n	n	n/a
591.7565	0.105	1183513	keystroke_a	a	n/a
592.086	0.0755	1184172	keystroke_g	g	n/a
592.326	0.075	1184652	keystroke_e	e	n/a
592.611	0.075	1185222	keystroke_Key.enter	Key.enter	n/a
592.6935	12.775	1185387	prompt	n/a	laos psychological edmonton vacations\n
593.7365	0.105	1187473	keystroke_l	l	n/a
593.9015	0.105	1187803	keystroke_a	a	n/a
594.1415	0.105	1188283	keystroke_o	o	n/a
594.3215	0.105	1188643	keystroke_s	s	n/a
594.4415	0.09	1188883	keystroke_Key.space	Key.space	n/a
594.6365	0.09	1189273	keystroke_p	p	n/a
595.986	0.075	1191972	keystroke_s	s	n/a
596.091	0.09	1192182	keystroke_y	y	n/a
596.301	0.105	1192602	keystroke_c	c	n/a
596.421	0.09	1192842	keystroke_h	h	n/a
596.481	0.1505	1192962	keystroke_o	o	n/a
596.706	0.105	1193412	keystroke_l	l	n/a
596.886	0.1205	1193772	keystroke_o	o	n/a
597.3055	0.1055	1194611	keystroke_g	g	n/a
597.396	0.1205	1194792	keystroke_i	i	n/a
597.5755	0.121	1195151	keystroke_c	c	n/a
597.7405	0.105	1195481	keystroke_a	a	n/a
597.8905	0.12	1195781	keystroke_l	l	n/a
598.1455	0.075	1196291	keystroke_Key.space	Key.space	n/a
598.8215	0.074	1197643	keystroke_e	e	n/a
599.0315	0.09	1198063	keystroke_d	d	n/a
599.1055	0.105	1198211	keystroke_m	m	n/a
599.3015	0.089	1198603	keystroke_o	o	n/a
599.4505	0.135	1198901	keystroke_n	n	n/a
599.571	0.12	1199142	keystroke_o	o	n/a
600.201	0.06	1200402	keystroke_Key.backspace	Key.backspace	n/a
600.801	0.0905	1201602	keystroke_t	t	n/a
600.906	0.12	1201812	keystroke_o	o	n/a
601.1155	0.1205	1202231	keystroke_n	n	n/a
601.296	0.075	1202592	keystroke_Key.space	Key.space	n/a
601.5065	0.12	1203013	keystroke_c	c	n/a
601.656	0.15	1203312	keystroke_a	a	n/a
602.691	0.105	1205382	keystroke_Key.backspace	Key.backspace	n/a
602.9465	0.0745	1205893	keystroke_Key.backspace	Key.backspace	n/a
603.1865	0.1645	1206373	keystroke_v	v	n/a
603.2765	0.1645	1206553	keystroke_a	a	n/a
603.576	0.165	1207152	keystroke_c	c	n/a
603.726	0.1205	1207452	keystroke_a	a	n/a
604.1315	0.09	1208263	keystroke_t	t	n/a
604.2965	0.1495	1208593	keystroke_i	i	n/a
604.4165	0.12	1208833	keystroke_o	o	n/a
604.596	0.135	1209192	keystroke_n	n	n/a
604.761	0.075	1209522	keystroke_s	s	n/a
605.451	0.015	1210902	keystroke_Key.enter	Key.enter	n/a
605.4735	9.879	1210947	prompt	n/a	securely collective indonesia territories\n
606.516	0.09	1213032	keystroke_s	s	n/a
606.711	0.06	1213422	keystroke_e	e	n/a
606.951	0.075	1213902	keystroke_c	c	n/a
607.041	0.1055	1214082	keystroke_u	u	n/a
607.266	0.18	1214532	keystroke_r	r	n/a
607.401	0.12	1214802	keystroke_e	e	n/a
607.521	0.12	1215042	keystroke_l	l	n/a
607.7605	0.105	1215521	keystroke_y	y	n/a
607.8355	0.12	1215671	keystroke_Key.space	Key.space	n/a
608.121	0.0745	1216242	keystroke_c	c	n/a
608.5555	0.091	1217111	keystroke_o	o	n/a
608.751	0.075	1217502	keystroke_l	l	n/a
608.901	0.1055	1217802	keystroke_l	l	n/a
609.111	0.075	1218222	keystroke_e	e	n/a
609.666	0.075	1219332	keystroke_c	c	n/a
609.966	0.0755	1219932	keystroke_t	t	n/a
610.086	0.1505	1220172	keystroke_i	i	n/a
610.221	0.105	1220442	keystroke_v	v	n/a
610.461	0.075	1220922	keystroke_e	e	n/a
610.581	0.135	1221162	keystroke_Key.space	Key.space	n/a
610.791	0.105	1221582	keystroke_i	i	n/a
611.0005	0.1055	1222001	keystroke_n	n	n/a
611.271	0.075	1222542	keystroke_d	d	n/a
611.391	0.12	1222782	keystroke_o	o	n/a
611.6315	0.1195	1223263	keystroke_n	n	n/a
611.796	0.0905	1223592	keystroke_e	e	n/a
612.0655	0.1055	1224131	keystroke_s	s	n/a
612.2915	0.134	1224583	keystroke_i	i	n/a
612.4405	0.106	1224881	keystroke_a	a	n/a
612.5905	0.105	1225181	keystroke_Key.space	Key.space	n/a
612.921	0.09	1225842	keystroke_t	t	n/a
613.1315	0.1045	1226263	keystroke_e	e	n/a
613.3865	0.06	1226773	keystroke_r	r	n/a
613.5065	0.09	1227013	keystroke_r	r	n/a
613.9565	0.06	1227913	keystroke_i	i	n/a
614.2865	0.075	1228573	keystroke_t	t	n/a
614.3915	0.12	1228783	keystroke_o	o	n/a
614.5865	0.105	1229173	keystroke_r	r	n/a
614.7065	0.135	1229413	keystroke_i	i	n/a
614.8265	0.09	1229653	keystroke_e	e	n/a
615.0515	0.105	1230103	keystroke_s	s	n/a
615.2765	0.0745	1230553	keystroke_Key.enter	Key.enter	n/a
615.357	12.0405	1230714	prompt	n/a	pierre taiwan polished build\n
616.431	0.12	1232862	keystroke_p	p	n/a
616.7015	0.075	1233403	keystroke_e	e	n/a
617.391	0.09	1234782	keystroke_Key.backspace	Key.backspace	n/a
617.6615	0.0895	1235323	keystroke_i	i	n/a
617.811	0.0905	1235622	keystroke_e	e	n/a
618.0665	0.0745	1236133	keystroke_r	r	n/a
618.201	0.0895	1236402	keystroke_r	r	n/a
618.4115	0.1045	1236823	keystroke_e	e	n/a
618.5905	0.105	1237181	keystroke_Key.space	Key.space	n/a
618.9055	0.091	1237811	keystroke_t	t	n/a
619.161	0.0905	1238322	keystroke_a	a	n/a
619.7165	0.12	1239433	keystroke_i	i	n/a
620.0305	0.09	1240061	keystroke_w	w	n/a
620.196	0.1195	1240392	keystroke_a	a	n/a
620.4815	0.045	1240963	keystroke_s	s	n/a
620.886	0.09	1241772	keystroke_Key.backspace	Key.backspace	n/a
621.096	0.09	1242192	keystroke_n	n	n/a
621.711	0.09	1243422	keystroke_Key.space	Key.space	n/a
623.1355	0.105	1246271	keystroke_p	p	n/a
623.376	0.1205	1246752	keystroke_o	o	n/a
623.631	0.1205	1247262	keystroke_l	l	n/a
623.9305	0.091	1247861	keystroke_i	i	n/a
624.381	0.09	1248762	keystroke_s	s	n/a
624.471	0.105	1248942	keystroke_h	h	n/a
624.891	0.06	1249782	keystroke_e	e	n/a
625.1015	0.06	1250203	keystroke_d	d	n/a
625.8515	0.0895	1251703	keystroke_Key.space	Key.space	n/a
626.451	0.105	1252902	keystroke_b	b	n/a
626.5715	0.1045	1253143	keystroke_u	u	n/a
626.781	0.0895	1253562	keystroke_i	i	n/a
626.961	0.1195	1253922	keystroke_l	l	n/a
627.1105	0.075	1254221	keystroke_d	d	n/a
627.321	0.0745	1254642	keystroke_Key.enter	Key.enter	n/a
627.4015	14.337	1254803	prompt	n/a	century attention payroll beat\n
628.161	0.075	1256322	keystroke_c	c	n/a
628.3415	0.1345	1256683	keystroke_a	a	n/a
628.506	0.105	1257012	keystroke_n	n	n/a
628.866	0.09	1257732	keystroke_t	t	n/a
629.0315	0.134	1258063	keystroke_u	u	n/a
629.3915	0.09	1258783	keystroke_r	r	n/a
629.496	0.0895	1258992	keystroke_y	y	n/a
631.897	0.001	1263794	keystroke_Key.backspace	Key.backspace	n/a
632.016	0.075	1264032	keystroke_Key.backspace	Key.backspace	n/a
632.196	0.075	1264392	keystroke_Key.backspace	Key.backspace	n/a
632.376	0.09	1264752	keystroke_Key.backspace	Key.backspace	n/a
632.6	0.0905	1265200	keystroke_Key.backspace	Key.backspace	n/a
632.975	0.09	1265950	keystroke_Key.backspace	Key.backspace	n/a
633.6815	0.0745	1267363	keystroke_e	e	n/a
633.8615	0.0745	1267723	keystroke_n	n	n/a
634.191	0.09	1268382	keystroke_t	t	n/a
634.326	0.075	1268652	keystroke_u	u	n/a
634.446	0.09	1268892	keystroke_r	r	n/a
634.551	0.0755	1269102	keystroke_y	y	n/a
634.881	0.0745	1269762	keystroke_Key.space	Key.space	n/a
635.5565	0.0895	1271113	keystroke_a	a	n/a
635.8115	0.059	1271623	keystroke_t	t	n/a
635.9305	0.091	1271861	keystroke_t	t	n/a
636.171	0.06	1272342	keystroke_e	e	n/a
636.4115	0.0745	1272823	keystroke_n	n	n/a
636.756	0.075	1273512	keystroke_t	t	n/a
636.936	0.15	1273872	keystroke_i	i	n/a
637.041	0.135	1274082	keystroke_o	o	n/a
637.251	0.0905	1274502	keystroke_n	n	n/a
638.2855	0.06	1276571	keystroke_Key.space	Key.space	n/a
638.8555	0.1355	1277711	keystroke_p	p	n/a
638.9755	0.0605	1277951	keystroke_a	a	n/a
639.1105	0.106	1278221	keystroke_y	y	n/a
639.411	0.09	1278822	keystroke_r	r	n/a
639.5305	0.1055	1279061	keystroke_o	o	n/a
639.741	0.1055	1279482	keystroke_l	l	n/a
639.996	0.105	1279992	keystroke_l	l	n/a
640.251	0.0895	1280502	keystroke_Key.space	Key.space	n/a
640.836	0.0895	1281672	keystroke_b	b	n/a
641.0165	0.105	1282033	keystroke_e	e	n/a
641.181	0.135	1282362	keystroke_a	a	n/a
641.466	0.0755	1282932	keystroke_t	t	n/a
641.6465	0.089	1283293	keystroke_Key.enter	Key.enter	n/a
641.7435	9.354	1283487	prompt	n/a	scholarship rental employ candle\n
642.5315	0.074	1285063	keystroke_s	s	n/a
642.756	0.09	1285512	keystroke_c	c	n/a
642.861	0.135	1285722	keystroke_h	h	n/a
643.1165	0.1195	1286233	keystroke_o	o	n/a
643.506	0.12	1287012	keystroke_l	l	n/a
643.627	0.119	1287254	keystroke_a	a	n/a
643.911	0.0755	1287822	keystroke_r	r	n/a
644.181	0.105	1288362	keystroke_s	s	n/a
644.316	0.105	1288632	keystroke_h	h	n/a
644.466	0.12	1288932	keystroke_i	i	n/a
644.706	0.1055	1289412	keystroke_p	p	n/a
644.931	0.09	1289862	keystroke_Key.space	Key.space	n/a
645.126	0.12	1290252	keystroke_r	r	n/a
645.261	0.135	1290522	keystroke_e	e	n/a
645.426	0.165	1290852	keystroke_n	n	n/a
645.636	0.1055	1291272	keystroke_t	t	n/a
645.906	0.105	1291812	keystroke_a	a	n/a
646.1315	0.1045	1292263	keystroke_l	l	n/a
646.371	0.09	1292742	keystroke_Key.space	Key.space	n/a
647.271	0.0445	1294542	keystroke_e	e	n/a
647.3305	0.106	1294661	keystroke_m	m	n/a
647.586	0.1045	1295172	keystroke_p	p	n/a
647.781	0.1655	1295562	keystroke_l	l	n/a
648.5905	0.09	1297181	keystroke_o	o	n/a
648.801	0.06	1297602	keystroke_y	y	n/a
649.1155	0.0605	1298231	keystroke_Key.space	Key.space	n/a
649.4155	0.0755	1298831	keystroke_c	c	n/a
649.686	0.0905	1299372	keystroke_a	a	n/a
649.8055	0.0755	1299611	keystroke_n	n	n/a
649.9115	0.074	1299823	keystroke_d	d	n/a
650.6005	0.105	1301201	keystroke_l	l	n/a
650.7355	0.0755	1301471	keystroke_e	e	n/a
651.036	0.06	1302072	keystroke_Key.enter	Key.enter	n/a
651.101	11.4265	1302202	prompt	n/a	answering stopped cancelled mice\n
651.9055	0.105	1303811	keystroke_a	a	n/a
652.7315	0.0895	1305463	keystroke_n	n	n/a
652.9265	0.09	1305853	keystroke_s	s	n/a
655.0105	0.1055	1310021	keystroke_w	w	n/a
655.2365	0.074	1310473	keystroke_e	e	n/a
655.6255	0.06	1311251	keystroke_r	r	n/a
655.7315	0.0895	1311463	keystroke_i	i	n/a
655.9265	0.104	1311853	keystroke_n	n	n/a
656.0605	0.076	1312121	keystroke_g	g	n/a
656.316	0.075	1312632	keystroke_Key.space	Key.space	n/a
656.7355	0.075	1313471	keystroke_s	s	n/a
657.021	0.105	1314042	keystroke_t	t	n/a
657.261	0.1195	1314522	keystroke_o	o	n/a
657.486	0.0595	1314972	keystroke_p	p	n/a
657.636	0.1045	1315272	keystroke_p	p	n/a
657.771	0.074	1315542	keystroke_e	e	n/a
657.9815	0.06	1315963	keystroke_d	d	n/a
658.1455	0.0745	1316291	keystroke_Key.space	Key.space	n/a
658.626	0.0605	1317252	keystroke_c	c	n/a
658.8215	0.089	1317643	keystroke_n	n	n/a
659.346	0.0595	1318692	keystroke_Key.backspace	Key.backspace	n/a
659.4205	0.0905	1318841	keystroke_a	a	n/a
659.601	0.1045	1319202	keystroke_n	n	n/a
659.931	0.09	1319862	keystroke_c	c	n/a
660.4415	0.0595	1320883	keystroke_e	e	n/a
660.6505	0.076	1321301	keystroke_l	l	n/a
660.801	0.1505	1321602	keystroke_l	l	n/a
660.8985	0.068	1321797	keystroke_e	e	n/a
661.1165	0.06	1322233	keystroke_d	d	n/a
661.1905	0.105	1322381	keystroke_Key.space	Key.space	n/a
661.6565	0.0745	1323313	keystroke_m	m	n/a
661.881	0.1205	1323762	keystroke_i	i	n/a
662.1065	0.075	1324213	keystroke_c	c	n/a
662.3315	0.0445	1324663	keystroke_e	e	n/a
662.436	0.09	1324872	keystroke_Key.enter	Key.enter	n/a
662.5455	7.077	1325091	prompt	n/a	roughly vids eyed comp\n
663.516	0.075	1327032	keystroke_r	r	n/a
663.5765	0.1345	1327153	keystroke_o	o	n/a
663.696	0.12	1327392	keystroke_u	u	n/a
663.966	0.075	1327932	keystroke_g	g	n/a
664.056	0.09	1328112	keystroke_h	h	n/a
664.251	0.1055	1328502	keystroke_l	l	n/a
664.4905	0.0895	1328981	keystroke_y	y	n/a
664.685	0.09	1329370	keystroke_Key.space	Key.space	n/a
664.941	0.075	1329882	keystroke_v	v	n/a
665.0615	0.1195	1330123	keystroke_i	i	n/a
665.255	0.076	1330510	keystroke_d	d	n/a
