onset	duration	sample	value	key	prompt_text
5.5595	11.35	11119	prompt	n/a	the quick brown fox jumps over a lazy dog\n
7.9485	0.1275	15897	keystroke	t	n/a
8.076	0.112	16152	keystroke	h	n/a
8.1805	0.152	16361	keystroke	e	n/a
8.3165	0.152	16633	keystroke	Key.space	n/a
8.6765	0.128	17353	keystroke	q	n/a
8.8525	0.088	17705	keystroke	u	n/a
9.188	0.096	18376	keystroke	i	n/a
9.324	0.1125	18648	keystroke	c	n/a
9.916	0.088	19832	keystroke	k	n/a
10.4915	0.1915	20983	keystroke	Key.space	n/a
10.8275	0.1285	21655	keystroke	b	n/a
11.0435	0.1445	22087	keystroke	r	n/a
11.1795	0.104	22359	keystroke	o	n/a
11.307	0.1285	22614	keystroke	w	n/a
11.3955	0.1205	22791	keystroke	n	n/a
11.5	0.1275	23000	keystroke	Key.space	n/a
11.844	0.112	23688	keystroke	f	n/a
11.9155	0.112	23831	keystroke	o	n/a
12.116	0.136	24232	keystroke	x	n/a
12.2275	0.1435	24455	keystroke	Key.space	n/a
12.3725	0.095	24745	keystroke	j	n/a
12.5075	0.088	25015	keystroke	u	n/a
12.6835	0.112	25367	keystroke	m	n/a
12.892	0.1035	25784	keystroke	p	n/a
13.02	0.1755	26040	keystroke	s	n/a
13.116	0.1435	26232	keystroke	Key.space	n/a
13.276	0.112	26552	keystroke	o	n/a
13.4035	0.1035	26807	keystroke	v	n/a
13.6275	0.12	27255	keystroke	e	n/a
13.692	0.1835	27384	keystroke	r	n/a
13.8035	0.1285	27607	keystroke	Key.space	n/a
13.9485	0.087	27897	keystroke	a	n/a
14.0115	0.168	28023	keystroke	Key.space	n/a
14.164	0.0875	28328	keystroke	l	n/a
14.2915	0.1125	28583	keystroke	z	n/a
14.7475	0.0635	29495	keystroke	=	n/a
14.8355	0.072	29671	keystroke	a	n/a
15.235	0.0645	30470	keystroke	Key.backspace	n/a
15.3795	0.0555	30759	keystroke	Key.backspace	n/a
15.507	0.08	31014	keystroke	Key.backspace	n/a
15.683	0.0805	31366	keystroke	a	n/a
15.9075	0.128	31815	keystroke	z	n/a
16.019	0.089	32038	keystroke	y	n/a
16.1475	0.1595	32295	keystroke	Key.space	n/a
16.355	0.08	32710	keystroke	d	n/a
16.427	0.1045	32854	keystroke	o	n/a
16.612	0.103	33224	keystroke	g	n/a
16.843	0.064	33686	keystroke	Key.enter	n/a
16.9135	5.435	33827	prompt	n/a	tuning resolved sensor stickers\n
17.723	0.1125	35446	keystroke	t	n/a
17.891	0.0885	35782	keystroke	u	n/a
18.0585	0.1045	36117	keystroke	n	n/a
18.243	0.096	36486	keystroke	i	n/a
18.4185	0.12	36837	keystroke	n	n/a
18.523	0.1195	37046	keystroke	g	n/a
18.5865	0.1605	37173	keystroke	Key.space	n/a
18.8025	0.12	37605	keystroke	r	n/a
18.883	0.136	37766	keystroke	e	n/a
19.1395	0.127	38279	keystroke	s	n/a
19.283	0.104	38566	keystroke	o	n/a
19.515	0.088	39030	keystroke	l	n/a
19.5865	0.104	39173	keystroke	v	n/a
19.763	0.1915	39526	keystroke	e	n/a
19.899	0.176	39798	keystroke	d	n/a
20.0665	0.136	40133	keystroke	Key.space	n/a
20.2345	0.144	40469	keystroke	s	n/a
20.339	0.104	40678	keystroke	e	n/a
20.515	0.0955	41030	keystroke	n	n/a
20.627	0.1115	41254	keystroke	s	n/a
20.763	0.088	41526	keystroke	o	n/a
20.852	0.1745	41704	keystroke	r	n/a
20.971	0.1355	41942	keystroke	Key.space	n/a
21.178	0.169	42356	keystroke	s	n/a
21.3225	0.1125	42645	keystroke	t	n/a
21.4355	0.0795	42871	keystroke	i	n/a
21.619	0.1035	43238	keystroke	c	n/a
21.6905	0.1045	43381	keystroke	k	n/a
21.819	0.192	43638	keystroke	e	n/a
21.947	0.1115	43894	keystroke	r	n/a
21.995	0.1675	43990	keystroke	s	n/a
22.2665	0.0795	44533	keystroke	Key.enter	n/a
22.352	6.8845	44704	prompt	n/a	loan stopped microphone top\n
23.1145	0.0645	46229	keystroke	l	n/a
23.306	0.0725	46612	keystroke	o	n/a
23.3625	0.12	46725	keystroke	a	n/a
23.5545	0.1205	47109	keystroke	n	n/a
23.6665	0.152	47333	keystroke	Key.space	n/a
23.9545	0.096	47909	keystroke	s	n/a
24.307	0.1195	48614	keystroke	t	n/a
24.4505	0.104	48901	keystroke	o	n/a
24.7065	0.0565	49413	keystroke	p	n/a
24.8745	0.08	49749	keystroke	p	n/a
24.946	0.168	49892	keystroke	e	n/a
25.082	0.1205	50164	keystroke	d	n/a
25.362	0.1365	50724	keystroke	Key.space	n/a
26.0185	0.0875	52037	keystroke	m	n/a
26.1945	0.112	52389	keystroke	i	n/a
26.274	0.12	52548	keystroke	c	n/a
26.618	0.105	53236	keystroke	r	n/a
26.714	0.0885	53428	keystroke	o	n/a
26.946	0.0725	53892	keystroke	p	n/a
27.1785	0.0955	54357	keystroke	h	n/a
28.082	0.088	56164	keystroke	o	n/a
28.25	0.1285	56500	keystroke	n	n/a
28.3615	0.112	56723	keystroke	e	n/a
28.49	0.1595	56980	keystroke	Key.space	n/a
28.6185	0.167	57237	keystroke	t	n/a
28.7295	0.16	57459	keystroke	o	n/a
28.826	0.1355	57652	keystroke	p	n/a
29.1855	0.048	58371	keystroke	Key.enter	n/a
29.241	6.0745	58482	prompt	n/a	executed skirts roller company\n
29.858	0.072	59716	keystroke	e	n/a
30.1865	0.1275	60373	keystroke	x	n/a
30.474	0.096	60948	keystroke	e	n/a
30.674	0.1125	61348	keystroke	c	n/a
30.802	0.112	61604	keystroke	u	n/a
30.962	0.128	61924	keystroke	t	n/a
31.058	0.216	62116	keystroke	e	n/a
31.242	0.1045	62484	keystroke	d	n/a
31.4335	0.128	62867	keystroke	Key.space	n/a
31.5945	0.143	63189	keystroke	s	n/a
31.7065	0.08	63413	keystroke	k	n/a
31.8895	0.104	63779	keystroke	i	n/a
31.954	0.1435	63908	keystroke	r	n/a
32.2015	0.152	64403	keystroke	t	n/a
32.2735	0.1685	64547	keystroke	s	n/a
32.3855	0.1685	64771	keystroke	Key.space	n/a
32.562	0.0725	65124	keystroke	s	n/a
32.8735	0.08	65747	keystroke	Key.backspace	n/a
33.0415	0.105	66083	keystroke	r	n/a
33.1535	0.073	66307	keystroke	o	n/a
33.3615	0.0565	66723	keystroke	l	n/a
33.513	0.065	67026	keystroke	l	n/a
33.569	0.1445	67138	keystroke	e	n/a
33.642	0.1275	67284	keystroke	r	n/a
33.777	0.16	67554	keystroke	Key.space	n/a
34.002	0.112	68004	keystroke	c	n/a
34.154	0.072	68308	keystroke	o	n/a
34.298	0.104	68596	keystroke	m	n/a
34.482	0.104	68964	keystroke	p	n/a
34.658	0.128	69316	keystroke	a	n/a
34.738	0.112	69476	keystroke	n	n/a
34.898	0.1045	69796	keystroke	y	n/a
35.2255	0.088	70451	keystroke	Key.enter	n/a
35.3205	9.811	70641	prompt	n/a	republican samples provisions negative\n
36.0015	0.136	72003	keystroke	r	n/a
36.0495	0.1605	72099	keystroke	e	n/a
37.4975	0.088	74995	keystroke	p	n/a
38.0335	0.08	76067	keystroke	u	n/a
38.233	0.088	76466	keystroke	b	n/a
38.457	0.1205	76914	keystroke	l	n/a
38.561	0.12	77122	keystroke	i	n/a
38.7215	0.1445	77443	keystroke	c	n/a
38.8895	0.1435	77779	keystroke	a	n/a
38.985	0.12	77970	keystroke	n	n/a
39.0975	0.1755	78195	keystroke	Key.space	n/a
39.3855	0.1035	78771	keystroke	s	n/a
39.537	0.1595	79074	keystroke	a	n/a
39.618	0.112	79236	keystroke	m	n/a
39.858	0.1275	79716	keystroke	p	n/a
40.1295	0.104	80259	keystroke	l	n/a
40.2415	0.1445	80483	keystroke	e	n/a
40.297	0.1605	80594	keystroke	s	n/a
40.4415	0.176	80883	keystroke	Key.space	n/a
40.873	0.081	81746	keystroke	p	n/a
40.977	0.096	81954	keystroke	r	n/a
41.129	0.096	82258	keystroke	i	n/a
41.385	0.128	82770	keystroke	v	n/a
41.681	0.0645	83362	keystroke	Key.backspace	n/a
41.8255	0.056	83651	keystroke	Key.backspace	n/a
42.0735	0.079	84147	keystroke	o	n/a
42.217	0.136	84434	keystroke	v	n/a
42.625	0.08	85250	keystroke	i	n/a
42.7375	0.096	85475	keystroke	s	n/a
42.8415	0.1355	85683	keystroke	i	n/a
42.9535	0.0795	85907	keystroke	o	n/a
43.073	0.1205	86146	keystroke	n	n/a
43.25	0.111	86500	keystroke	s	n/a
43.321	0.168	86642	keystroke	Key.space	n/a
43.561	0.12	87122	keystroke	n	n/a
43.657	0.1205	87314	keystroke	e	n/a
43.8735	0.103	87747	keystroke	g	n/a
44.1055	0.104	88211	keystroke	a	n/a
44.161	0.1365	88322	keystroke	t	n/a
44.305	0.1045	88610	keystroke	i	n/a
44.529	0.1445	89058	keystroke	v	n/a
44.6575	0.144	89315	keystroke	e	n/a
44.9455	0.183	89891	keystroke	Key.enter	n/a
45.1355	8.1565	90271	prompt	n/a	astrology medical exposure scientific\n
45.8655	0.1995	91731	keystroke	a	n/a
45.977	0.096	91954	keystroke	s	n/a
46.1535	0.1035	92307	keystroke	t	n/a
46.361	0.136	92722	keystroke	r	n/a
46.449	0.0805	92898	keystroke	o	n/a
46.681	0.104	93362	keystroke	l	n/a
46.921	0.0805	93842	keystroke	o	n/a
47.145	0.128	94290	keystroke	g	n/a
47.337	0.1115	94674	keystroke	y	n/a
47.5605	0.1525	95121	keystroke	Key.space	n/a
47.921	0.12	95842	keystroke	m	n/a
47.993	0.176	95986	keystroke	e	n/a
48.1925	0.113	96385	keystroke	d	n/a
48.2645	0.12	96529	keystroke	i	n/a
48.6815	0.1355	97363	keystroke	c	n/a
48.793	0.12	97586	keystroke	a	n/a
48.961	0.168	97922	keystroke	l	n/a
49.177	0.184	98354	keystroke	Key.space	n/a
49.369	0.072	98738	keystroke	e	n/a
49.665	0.1035	99330	keystroke	x	n/a
49.8565	0.081	99713	keystroke	p	n/a
50.0245	0.096	100049	keystroke	o	n/a
50.1765	0.112	100353	keystroke	s	n/a
50.5695	0.1115	101139	keystroke	u	n/a
50.761	0.168	101522	keystroke	r	n/a
50.921	0.152	101842	keystroke	e	n/a
51.209	0.12	102418	keystroke	Key.space	n/a
51.4015	0.1275	102803	keystroke	s	n/a
51.625	0.152	103250	keystroke	c	n/a
51.769	0.096	103538	keystroke	i	n/a
51.857	0.1595	103714	keystroke	e	n/a
52.025	0.12	104050	keystroke	n	n/a
52.1765	0.1365	104353	keystroke	t	n/a
52.3045	0.112	104609	keystroke	i	n/a
52.529	0.08	105058	keystroke	f	n/a
52.5765	0.105	105153	keystroke	i	n/a
52.761	0.1035	105522	keystroke	c	n/a
53.161	0.128	106322	keystroke	Key.enter	n/a
53.3	5.5825	106600	prompt	n/a	folder sensitive applied steven\n
54.001	0.0955	108002	keystroke	f	n/a
54.089	0.04	108178	keystroke	o	n/a
54.2645	0.104	108529	keystroke	l	n/a
54.361	0.119	108722	keystroke	d	n/a
54.536	0.137	109072	keystroke	e	n/a
54.625	0.167	109250	keystroke	r	n/a
54.8	0.128	109600	keystroke	Key.space	n/a
54.952	0.144	109904	keystroke	s	n/a
55.0885	0.112	110177	keystroke	e	n/a
55.2085	0.128	110417	keystroke	n	n/a
55.456	0.176	110912	keystroke	s	n/a
55.657	0.1035	111314	keystroke	i	n/a
55.7925	0.1355	111585	keystroke	t	n/a
55.937	0.1035	111874	keystroke	i	n/a
56.104	0.1765	112208	keystroke	v	n/a
56.297	0.16	112594	keystroke	e	n/a
56.416	0.192	112832	keystroke	Key.space	n/a
56.569	0.143	113138	keystroke	a	n/a
56.713	0.0635	113426	keystroke	p	n/a
56.8165	0.1125	113633	keystroke	p	n/a
57.193	0.088	114386	keystroke	l	n/a
57.3445	0.112	114689	keystroke	i	n/a
57.4245	0.136	114849	keystroke	e	n/a
57.5365	0.1045	115073	keystroke	d	n/a
57.6085	0.1435	115217	keystroke	Key.space	n/a
57.7845	0.104	115569	keystroke	s	n/a
57.904	0.137	115808	keystroke	t	n/a
58.041	0.1115	116082	keystroke	e	n/a
58.312	0.08	116624	keystroke	v	n/a
58.385	0.1275	116770	keystroke	e	n/a
58.48	0.1045	116960	keystroke	n	n/a
58.7845	0.096	117569	keystroke	Key.enter	n/a
58.887	7.203	117774	prompt	n/a	seemed attraction rebates racial\n
59.4805	0.096	118961	keystroke	s	n/a
59.6325	0.1035	119265	keystroke	e	n/a
59.921	0.0875	119842	keystroke	e	n/a
60.3525	0.1035	120705	keystroke	m	n/a
60.4485	0.1515	120897	keystroke	e	n/a
60.584	0.0885	121168	keystroke	d	n/a
61.0485	0.144	122097	keystroke	Key.space	n/a
61.2085	0.0875	122417	keystroke	a	n/a
61.432	0.0965	122864	keystroke	t	n/a
61.608	0.112	123216	keystroke	t	n/a
61.7685	0.128	123537	keystroke	a	n/a
62.176	0.0885	124352	keystroke	Key.backspace	n/a
62.249	0.1195	124498	keystroke	r	n/a
62.337	0.1515	124674	keystroke	a	n/a
62.576	0.121	125152	keystroke	c	n/a
62.864	0.089	125728	keystroke	t	n/a
62.872	0.1445	125744	keystroke	i	n/a
62.984	0.081	125968	keystroke	o	n/a
63.097	0.1275	126194	keystroke	n	n/a
63.4005	0.1915	126801	keystroke	Key.space	n/a
63.657	0.144	127314	keystroke	r	n/a
63.721	0.119	127442	keystroke	e	n/a
63.896	0.128	127792	keystroke	b	n/a
64.025	0.071	128050	keystroke	a	n/a
64.1765	0.16	128353	keystroke	t	n/a
64.2405	0.192	128481	keystroke	e	n/a
64.3605	0.1445	128721	keystroke	s	n/a
64.5365	0.136	129073	keystroke	Key.space	n/a
64.8725	0.1355	129745	keystroke	r	n/a
65.0245	0.088	130049	keystroke	a	n/a
65.24	0.1285	130480	keystroke	c	n/a
65.344	0.0965	130688	keystroke	i	n/a
65.4725	0.12	130945	keystroke	a	n/a
65.6165	0.12	131233	keystroke	l	n/a
65.9845	0.104	131969	keystroke	Key.enter	n/a
66.0945	5.8835	132189	prompt	n/a	contribute rent changing reaction\n
66.841	0.1435	133682	keystroke	c	n/a
66.9365	0.072	133873	keystroke	o	n/a
67.1365	0.1195	134273	keystroke	n	n/a
67.248	0.104	134496	keystroke	t	n/a
67.4725	0.12	134945	keystroke	r	n/a
67.5685	0.064	135137	keystroke	i	n/a
67.8325	0.088	135665	keystroke	b	n/a
67.9765	0.1195	135953	keystroke	u	n/a
68.0645	0.1605	136129	keystroke	t	n/a
68.1365	0.1755	136273	keystroke	e	n/a
68.296	0.176	136592	keystroke	Key.space	n/a
68.5365	0.12	137073	keystroke	r	n/a
68.6005	0.168	137201	keystroke	e	n/a
68.7605	0.112	137521	keystroke	n	n/a
68.873	0.136	137746	keystroke	t	n/a
69.048	0.1925	138096	keystroke	Key.space	n/a
69.385	0.143	138770	keystroke	c	n/a
69.512	0.12	139024	keystroke	h	n/a
69.649	0.1355	139298	keystroke	a	n/a
69.8005	0.112	139601	keystroke	n	n/a
70.0315	0.081	140063	keystroke	g	n/a
70.0875	0.089	140175	keystroke	i	n/a
70.2645	0.128	140529	keystroke	n	n/a
70.3205	0.1205	140641	keystroke	g	n/a
70.4555	0.177	140911	keystroke	Key.space	n/a
70.6405	0.1755	141281	keystroke	r	n/a
70.7045	0.2	141409	keystroke	e	n/a
70.9125	0.136	141825	keystroke	a	n/a
71.096	0.136	142192	keystroke	c	n/a
71.3925	0.1275	142785	keystroke	t	n/a
71.4085	0.1275	142817	keystroke	i	n/a
71.488	0.112	142976	keystroke	o	n/a
71.592	0.137	143184	keystroke	n	n/a
71.912	0.064	143824	keystroke	Key.enter	n/a
71.982	7.3	143964	prompt	n/a	mines meters expanding anniversary\n
72.632	0.128	145264	keystroke	m	n/a
72.7525	0.104	145505	keystroke	i	n/a
72.9445	0.128	145889	keystroke	n	n/a
73.032	0.168	146064	keystroke	e	n/a
73.104	0.1445	146208	keystroke	s	n/a
73.224	0.136	146448	keystroke	Key.space	n/a
73.592	0.0955	147184	keystroke	m	n/a
73.672	0.1205	147344	keystroke	e	n/a
74.0485	0.128	148097	keystroke	t	n/a
74.288	0.1445	148576	keystroke	e	n/a
74.56	0.128	149120	keystroke	r	n/a
74.688	0.1045	149376	keystroke	s	n/a
74.8005	0.1035	149601	keystroke	Key.space	n/a
75.0165	0.1195	150033	keystroke	e	n/a
75.3125	0.1115	150625	keystroke	x	n/a
75.4325	0.1275	150865	keystroke	p	n/a
75.6005	0.1515	151201	keystroke	a	n/a
75.76	0.096	151520	keystroke	n	n/a
76.176	0.1525	152352	keystroke	d	n/a
76.3045	0.072	152609	keystroke	i	n/a
76.4645	0.144	152929	keystroke	n	n/a
76.5525	0.112	153105	keystroke	g	n/a
76.6485	0.144	153297	keystroke	Key.space	n/a
76.857	0.1195	153714	keystroke	a	n/a
76.953	0.0955	153906	keystroke	n	n/a
77.1125	0.096	154225	keystroke	n	n/a
77.2965	0.1045	154593	keystroke	i	n/a
77.4565	0.0805	154913	keystroke	v	n/a
77.6005	0.2005	155201	keystroke	e	n/a
77.745	0.127	155490	keystroke	r	n/a
77.841	0.128	155682	keystroke	s	n/a
78.7045	0.1125	157409	keystroke	a	n/a
78.801	0.128	157602	keystroke	r	n/a
78.865	0.1115	157730	keystroke	y	n/a
79.2085	0.072	158417	keystroke	Key.enter	n/a
79.2865	5.996	158573	prompt	n/a	escorts staying skins system\n
80	0.088	160000	keystroke	e	n/a
80.3925	0.1045	160785	keystroke	s	n/a
80.6645	0.1125	161329	keystroke	c	n/a
80.7685	0.0965	161537	keystroke	o	n/a
80.937	0.12	161874	keystroke	r	n/a
81.1765	0.16	162353	keystroke	t	n/a
81.4165	0.152	162833	keystroke	s	n/a
81.5605	0.152	163121	keystroke	Key.space	n/a
81.889	0.128	163778	keystroke	s	n/a
82.025	0.16	164050	keystroke	t	n/a
82.225	0.104	164450	keystroke	a	n/a
82.305	0.08	164610	keystroke	y	n/a
82.5215	0.0715	165043	keystroke	i	n/a
82.673	0.1355	165346	keystroke	n	n/a
82.753	0.152	165506	keystroke	g	n/a
82.833	0.176	165666	keystroke	Key.space	n/a
82.977	0.095	165954	keystroke	s	n/a
83.049	0.0965	166098	keystroke	k	n/a
83.2405	0.081	166481	keystroke	i	n/a
83.409	0.128	166818	keystroke	n	n/a
83.5295	0.0875	167059	keystroke	s	n/a
83.585	0.168	167170	keystroke	Key.space	n/a
83.737	0.128	167474	keystroke	s	n/a
84.001	0.104	168002	keystroke	y	n/a
84.121	0.152	168242	keystroke	s	n/a
84.401	0.143	168802	keystroke	t	n/a
84.529	0.1755	169058	keystroke	e	n/a
84.665	0.128	169330	keystroke	m	n/a
85.2175	0.0635	170435	keystroke	Key.enter	n/a
85.286	8.3815	170572	prompt	n/a	zshops suburban crossing to've\n
86.5775	0.112	173155	keystroke	z	n/a
87.5215	0.12	175043	keystroke	s	n/a
87.6095	0.1285	175219	keystroke	h	n/a
87.961	0.16	175922	keystroke	o	n/a
88.089	0.121	176178	keystroke	p	n/a
88.2415	0.1285	176483	keystroke	s	n/a
88.417	0.1605	176834	keystroke	Key.space	n/a
88.6015	0.1205	177203	keystroke	s	n/a
88.7775	0.088	177555	keystroke	u	n/a
88.993	0.08	177986	keystroke	b	n/a
89.562	0.096	179124	keystroke	u	n/a
89.666	0.1445	179332	keystroke	r	n/a
89.986	0.104	179972	keystroke	b	n/a
90.418	0.168	180836	keystroke	a	n/a
90.521	0.113	181042	keystroke	n	n/a
90.761	0.185	181522	keystroke	Key.space	n/a
91.0505	0.111	182101	keystroke	c	n/a
91.321	0.136	182642	keystroke	r	n/a
91.466	0.071	182932	keystroke	o	n/a
91.6025	0.087	183205	keystroke	s	n/a
91.7865	0.135	183573	keystroke	s	n/a
91.8735	0.064	183747	keystroke	i	n/a
92.042	0.136	184084	keystroke	n	n/a
92.122	0.1205	184244	keystroke	g	n/a
92.25	0.152	184500	keystroke	Key.space	n/a
92.498	0.144	184996	keystroke	t	n/a
92.585	0.0735	185170	keystroke	o	n/a
92.9305	0.0635	185861	keystroke	'	n/a
93.034	0.136	186068	keystroke	v	n/a
93.1785	0.1515	186357	keystroke	e	n/a
93.5455	0.12	187091	keystroke	Key.enter	n/a
93.6705	6.5415	187341	prompt	n/a	visible barely extensive ampland\n
94.554	0.1355	189108	keystroke	v	n/a
94.682	0.12	189364	keystroke	i	n/a
94.8095	0.096	189619	keystroke	s	n/a
94.8975	0.104	189795	keystroke	i	n/a
95.1225	0.095	190245	keystroke	b	n/a
95.3135	0.145	190627	keystroke	l	n/a
95.4095	0.104	190819	keystroke	e	n/a
95.482	0.1755	190964	keystroke	Key.space	n/a
95.6585	0.127	191317	keystroke	b	n/a
95.8015	0.152	191603	keystroke	a	n/a
95.9945	0.143	191989	keystroke	r	n/a
96.1465	0.1275	192293	keystroke	e	n/a
96.314	0.056	192628	keystroke	l	n/a
96.5705	0.112	193141	keystroke	y	n/a
96.7065	0.16	193413	keystroke	Key.space	n/a
96.8745	0.072	193749	keystroke	e	n/a
97.1465	0.088	194293	keystroke	x	n/a
97.3785	0.184	194757	keystroke	t	n/a
97.4905	0.128	194981	keystroke	e	n/a
97.6585	0.128	195317	keystroke	n	n/a
97.8105	0.112	195621	keystroke	s	n/a
97.9625	0.0955	195925	keystroke	i	n/a
98.098	0.1525	196196	keystroke	v	n/a
98.186	0.136	196372	keystroke	e	n/a
98.338	0.1525	196676	keystroke	Key.space	n/a
98.522	0.128	197044	keystroke	a	n/a
98.6985	0.0875	197397	keystroke	m	n/a
99.21	0.1915	198420	keystroke	p	n/a
99.4025	0.1195	198805	keystroke	l	n/a
99.5625	0.16	199125	keystroke	a	n/a
99.73	0.113	199460	keystroke	n	n/a
99.834	0.1125	199668	keystroke	d	n/a
100.106	0.1045	200212	keystroke	Key.enter	n/a
100.216	6.364	200432	prompt	n/a	sources upset patients generic\n
101.2105	0.1435	202421	keystroke	s	n/a
101.354	0.088	202708	keystroke	o	n/a
101.5545	0.0955	203109	keystroke	u	n/a
101.882	0.1285	203764	keystroke	r	n/a
102.1945	0.176	204389	keystroke	c	n/a
102.291	0.1675	204582	keystroke	e	n/a
102.3785	0.216	204757	keystroke	s	n/a
102.6105	0.152	205221	keystroke	Key.space	n/a
102.7785	0.104	205557	keystroke	u	n/a
103.051	0.0955	206102	keystroke	p	n/a
103.211	0.1115	206422	keystroke	s	n/a
103.4905	0.1605	206981	keystroke	e	n/a
103.5855	0.201	207171	keystroke	t	n/a
103.754	0.176	207508	keystroke	Key.space	n/a
103.9705	0.088	207941	keystroke	p	n/a
104.066	0.112	208132	keystroke	a	n/a
104.179	0.144	208358	keystroke	t	n/a
104.3615	0.0975	208723	keystroke	i	n/a
104.451	0.135	208902	keystroke	e	n/a
104.634	0.0885	209268	keystroke	n	n/a
104.7705	0.16	209541	keystroke	t	n/a
105.0105	0.1445	210021	keystroke	s	n/a
105.1465	0.152	210293	keystroke	Key.space	n/a
105.514	0.12	211028	keystroke	g	n/a
105.642	0.136	211284	keystroke	e	n/a
105.7705	0.1115	211541	keystroke	n	n/a
105.867	0.1435	211734	keystroke	e	n/a
105.954	0.1285	211908	keystroke	r	n/a
106.1065	0.1045	212213	keystroke	i	n/a
106.2345	0.1525	212469	keystroke	c	n/a
106.514	0.0645	213028	keystroke	Key.enter	n/a
106.585	0.0765	213170	prompt	n/a	teachers visits divorce shadow\n
106.618	0.0405	213236	keystroke	Key.enter	n/a
106.6655	10.507	213331	prompt	n/a	generate reviews knight civic\n
111.6105	0.1765	223221	keystroke	g	n/a
111.859	0.127	223718	keystroke	e	n/a
111.979	0.12	223958	keystroke	n	n/a
112.099	0.087	224198	keystroke	e	n/a
112.163	0.12	224326	keystroke	r	n/a
112.347	0.12	224694	keystroke	a	n/a
112.499	0.16	224998	keystroke	t	n/a
112.579	0.1275	225158	keystroke	e	n/a
112.97	0.12	225940	keystroke	Key.space	n/a
113.163	0.112	226326	keystroke	r	n/a
113.235	0.112	226470	keystroke	e	n/a
113.483	0.128	226966	keystroke	v	n/a
113.579	0.096	227158	keystroke	i	n/a
113.675	0.168	227350	keystroke	e	n/a
113.747	0.136	227494	keystroke	w	n/a
114.0745	0.104	228149	keystroke	s	n/a
114.2185	0.1445	228437	keystroke	Key.space	n/a
114.4265	0.0805	228853	keystroke	k	n/a
114.731	0.072	229462	keystroke	n	n/a
114.8665	0.1285	229733	keystroke	i	n/a
114.9705	0.12	229941	keystroke	g	n/a
115.1225	0.1285	230245	keystroke	h	n/a
115.251	0.103	230502	keystroke	t	n/a
115.346	0.128	230692	keystroke	Key.space	n/a
115.563	0.087	231126	keystroke	c	n/a
115.635	0.096	231270	keystroke	i	n/a
115.803	0.1115	231606	keystroke	v	n/a
115.851	0.104	231702	keystroke	i	n/a
116.043	0.0955	232086	keystroke	s	n/a
116.635	0.096	233270	keystroke	Key.backspace	n/a
116.723	0.111	233446	keystroke	c	n/a
117.051	0.12	234102	keystroke	Key.enter	n/a
117.176	6.2605	234352	prompt	n/a	obligation he'd masters optical\n
117.891	0.0875	235782	keystroke	o	n/a
118.0985	0.1125	236197	keystroke	b	n/a
118.315	0.071	236630	keystroke	l	n/a
118.451	0.104	236902	keystroke	i	n/a
118.547	0.136	237094	keystroke	g	n/a
118.8425	0.128	237685	keystroke	a	n/a
119.0345	0.128	238069	keystroke	t	n/a
119.1385	0.112	238277	keystroke	i	n/a
119.187	0.1195	238374	keystroke	o	n/a
119.379	0.1355	238758	keystroke	n	n/a
119.5395	0.1355	239079	keystroke	Key.space	n/a
119.7395	0.1115	239479	keystroke	h	n/a
119.8185	0.1285	239637	keystroke	e	n/a
120.075	0.064	240150	keystroke	'	n/a
120.1705	0.096	240341	keystroke	d	n/a
120.2745	0.1045	240549	keystroke	Key.space	n/a
120.5145	0.064	241029	keystroke	m	n/a
120.5865	0.1605	241173	keystroke	a	n/a
120.7385	0.1125	241477	keystroke	s	n/a
120.971	0.1035	241942	keystroke	t	n/a
121.075	0.0955	242150	keystroke	e	n/a
121.2105	0.1445	242421	keystroke	r	n/a
121.339	0.144	242678	keystroke	s	n/a
121.531	0.144	243062	keystroke	Key.space	n/a
121.819	0.072	243638	keystroke	o	n/a
122.226	0.097	244452	keystroke	p	n/a
122.458	0.1525	244916	keystroke	t	n/a
122.6025	0.1125	245205	keystroke	i	n/a
122.8195	0.135	245639	keystroke	c	n/a
122.9945	0.1045	245989	keystroke	a	n/a
123.0345	0.112	246069	keystroke	l	n/a
123.3385	0.096	246677	keystroke	Key.enter	n/a
123.4425	9.211	246885	prompt	n/a	larry secretariat jerusalem machines\n
124.347	0.087	248694	keystroke	l	n/a
124.435	0.1515	248870	keystroke	a	n/a
124.539	0.136	249078	keystroke	r	n/a
124.739	0.136	249478	keystroke	r	n/a
124.867	0.104	249734	keystroke	y	n/a
125.003	0.128	250006	keystroke	Key.space	n/a
125.3785	0.209	250757	keystroke	s	n/a
125.5225	0.145	251045	keystroke	e	n/a
125.771	0.096	251542	keystroke	c	n/a
126.018	0.1365	252036	keystroke	r	n/a
126.091	0.192	252182	keystroke	e	n/a
126.298	0.136	252596	keystroke	t	n/a
126.499	0.0875	252998	keystroke	a	n/a
126.579	0.1195	253158	keystroke	t	n/a
127.235	0.1435	254470	keystroke	r	n/a
127.4665	0.0485	254933	keystroke	Key.backspace	n/a
127.6345	0.056	255269	keystroke	Key.backspace	n/a
127.875	0.176	255750	keystroke	r	n/a
128.2185	0.0965	256437	keystroke	i	n/a
128.355	0.136	256710	keystroke	a	n/a
128.4825	0.128	256965	keystroke	t	n/a
128.8745	0.136	257749	keystroke	Key.space	n/a
129.075	0.1355	258150	keystroke	j	n/a
129.243	0.128	258486	keystroke	e	n/a
129.323	0.136	258646	keystroke	r	n/a
129.923	0.104	259846	keystroke	u	n/a
130.355	0.112	260710	keystroke	s	n/a
130.5705	0.128	261141	keystroke	a	n/a
130.7145	0.0795	261429	keystroke	l	n/a
130.97	0.129	261940	keystroke	e	n/a
131.058	0.144	262116	keystroke	m	n/a
131.2425	0.1525	262485	keystroke	Key.space	n/a
131.395	0.128	262790	keystroke	m	n/a
131.443	0.136	262886	keystroke	a	n/a
131.691	0.152	263382	keystroke	c	n/a
131.787	0.096	263574	keystroke	h	n/a
131.867	0.072	263734	keystroke	i	n/a
132.0105	0.096	264021	keystroke	n	n/a
132.067	0.1595	264134	keystroke	e	n/a
132.1225	0.1675	264245	keystroke	s	n/a
132.546	0.1045	265092	keystroke	Key.enter	n/a
132.658	8.066	265316	prompt	n/a	fires gentleman suggestion favorite\n
133.4185	0.104	266837	keystroke	f	n/a
133.515	0.1045	267030	keystroke	i	n/a
133.6585	0.136	267317	keystroke	r	n/a
133.699	0.1925	267398	keystroke	e	n/a
133.8025	0.144	267605	keystroke	s	n/a
133.9145	0.16	267829	keystroke	Key.space	n/a
134.283	0.128	268566	keystroke	g	n/a
134.6505	0.104	269301	keystroke	e	n/a
134.7465	0.152	269493	keystroke	n	n/a
134.8585	0.144	269717	keystroke	t	n/a
135.0505	0.128	270101	keystroke	l	n/a
135.171	0.16	270342	keystroke	e	n/a
135.5225	0.0965	271045	keystroke	m	n/a
135.6265	0.1125	271253	keystroke	e	n/a
136.1465	0.0645	272293	keystroke	Key.backspace	n/a
136.3545	0.0805	272709	keystroke	a	n/a
136.442	0.145	272884	keystroke	n	n/a
136.707	0.144	273414	keystroke	Key.space	n/a
137.011	0.096	274022	keystroke	s	n/a
137.036	0.0865	274072	keystroke	u	n/a
137.227	0.079	274454	keystroke	g	n/a
137.387	0.144	274774	keystroke	g	n/a
137.507	0.24	275014	keystroke	e	n/a
137.6425	0.1525	275285	keystroke	s	n/a
137.754	0.1605	275508	keystroke	t	n/a
137.842	0.137	275684	keystroke	i	n/a
137.947	0.064	275894	keystroke	o	n/a
138.123	0.1355	276246	keystroke	n	n/a
138.467	0.144	276934	keystroke	Key.space	n/a
138.715	0.104	277430	keystroke	f	n/a
138.907	0.072	277814	keystroke	a	n/a
139.123	0.088	278246	keystroke	v	n/a
139.187	0.136	278374	keystroke	o	n/a
140.0505	0.1205	280101	keystroke	r	n/a
140.1545	0.1125	280309	keystroke	i	n/a
140.299	0.1275	280598	keystroke	t	n/a
140.3625	0.177	280725	keystroke	e	n/a
140.651	0.0715	281302	keystroke	Key.enter	n/a
140.728	8.4445	281456	prompt	n/a	politics package encouraged exhibition\n
141.906	0.096	283812	keystroke	p	n/a
142.098	0.096	284196	keystroke	o	n/a
142.33	0.097	284660	keystroke	l	n/a
142.562	0.097	285124	keystroke	i	n/a
142.634	0.1365	285268	keystroke	t	n/a
142.778	0.088	285556	keystroke	i	n/a
142.954	0.113	285908	keystroke	c	n/a
143.059	0.104	286118	keystroke	s	n/a
143.267	0.144	286534	keystroke	Key.space	n/a
143.514	0.0805	287028	keystroke	p	n/a
143.587	0.0955	287174	keystroke	a	n/a
143.7945	0.1285	287589	keystroke	c	n/a
143.907	0.0955	287814	keystroke	k	n/a
144.0505	0.104	288101	keystroke	a	n/a
144.3145	0.1525	288629	keystroke	g	n/a
144.4345	0.112	288869	keystroke	e	n/a
144.6025	0.136	289205	keystroke	Key.space	n/a
144.93	0.1525	289860	keystroke	e	n/a
145.067	0.112	290134	keystroke	n	n/a
145.242	0.1285	290484	keystroke	c	n/a
145.322	0.097	290644	keystroke	o	n/a
145.531	0.103	291062	keystroke	u	n/a
145.642	0.112	291284	keystroke	r	n/a
145.819	0.0795	291638	keystroke	a	n/a
146.011	0.128	292022	keystroke	g	n/a
146.163	0.168	292326	keystroke	e	n/a
146.339	0.104	292678	keystroke	d	n/a
146.467	0.1595	292934	keystroke	Key.space	n/a
146.6105	0.072	293221	keystroke	e	n/a
146.859	0.1115	293718	keystroke	x	n/a
147.483	0.1035	294966	keystroke	h	n/a
147.627	0.112	295254	keystroke	i	n/a
147.8665	0.096	295733	keystroke	b	n/a
148.0675	0.1915	296135	keystroke	i	n/a
148.29	0.169	296580	keystroke	t	n/a
148.467	0.168	296934	keystroke	i	n/a
148.571	0.152	297142	keystroke	o	n/a
148.699	0.136	297398	keystroke	n	n/a
149.123	0.047	298246	keystroke	Key.enter	n/a
149.177	8.8915	298354	prompt	n/a	mysimon toolbar proceed recommendations\n
150.0985	0.088	300197	keystroke	m	n/a
150.2905	0.104	300581	keystroke	y	n/a
150.4265	0.152	300853	keystroke	s	n/a
151.1065	0.0875	302213	keystroke	i	n/a
151.475	0.0955	302950	keystroke	m	n/a
151.7305	0.088	303461	keystroke	o	n/a
151.8905	0.1355	303781	keystroke	n	n/a
152.034	0.137	304068	keystroke	Key.space	n/a
152.195	0.184	304390	keystroke	t	n/a
152.5625	0.088	305125	keystroke	o	n/a
152.7465	0.072	305493	keystroke	o	n/a
152.979	0.0955	305958	keystroke	l	n/a
153.2745	0.12	306549	keystroke	b	n/a
153.419	0.1275	306838	keystroke	a	n/a
153.4985	0.16	306997	keystroke	r	n/a
153.635	0.1435	307270	keystroke	Key.space	n/a
153.835	0.119	307670	keystroke	p	n/a
153.946	0.12	307892	keystroke	r	n/a
154.058	0.12	308116	keystroke	o	n/a
154.2425	0.1675	308485	keystroke	c	n/a
154.3625	0.1595	308725	keystroke	e	n/a
154.4905	0.0965	308981	keystroke	s	n/a
154.8825	0.0805	309765	keystroke	Key.backspace	n/a
154.995	0.168	309990	keystroke	e	n/a
155.123	0.152	310246	keystroke	d	n/a
155.234	0.184	310468	keystroke	Key.space	n/a
155.555	0.1435	311110	keystroke	r	n/a
155.643	0.1915	311286	keystroke	e	n/a
155.922	0.1605	311844	keystroke	c	n/a
156.0665	0.0645	312133	keystroke	o	n/a
156.2425	0.128	312485	keystroke	m	n/a
156.722	0.08	313444	keystroke	m	n/a
156.819	0.168	313638	keystroke	e	n/a
156.955	0.128	313910	keystroke	n	n/a
157.115	0.12	314230	keystroke	d	n/a
157.267	0.128	314534	keystroke	a	n/a
157.427	0.136	314854	keystroke	t	n/a
157.515	0.112	315030	keystroke	i	n/a
157.579	0.112	315158	keystroke	o	n/a
157.715	0.12	315430	keystroke	n	n/a
157.811	0.096	315622	keystroke	s	n/a
158.011	0.056	316022	keystroke	Key.enter	n/a
158.0725	10.9	316145	prompt	n/a	investigate barriers provision hate\n
158.667	0.071	317334	keystroke	i	n/a
158.8505	0.1275	317701	keystroke	n	n/a
158.995	0.151	317990	keystroke	v	n/a
159.139	0.247	318278	keystroke	e	n/a
159.4265	0.216	318853	keystroke	s	n/a
159.6905	0.144	319381	keystroke	t	n/a
159.8745	0.0965	319749	keystroke	i	n/a
160.051	0.12	320102	keystroke	g	n/a
160.251	0.087	320502	keystroke	a	n/a
160.4515	0.1595	320903	keystroke	t	n/a
160.539	0.136	321078	keystroke	e	n/a
160.6265	0.152	321253	keystroke	Key.space	n/a
160.891	0.0875	321782	keystroke	b	n/a
160.9865	0.1045	321973	keystroke	a	n/a
161.123	0.0955	322246	keystroke	r	n/a
161.2905	0.144	322581	keystroke	r	n/a
161.3705	0.1525	322741	keystroke	i	n/a
161.467	0.1915	322934	keystroke	e	n/a
161.5545	0.112	323109	keystroke	s	n/a
161.6905	0.1765	323381	keystroke	r	n/a
162.282	0.048	324564	keystroke	Key.backspace	n/a
162.442	0.048	324884	keystroke	Key.backspace	n/a
162.491	0.167	324982	keystroke	r	n/a
162.618	0.128	325236	keystroke	s	n/a
162.7625	0.1675	325525	keystroke	Key.space	n/a
163.2825	0.056	326565	keystroke	p	n/a
163.3465	0.1605	326693	keystroke	r	n/a
163.562	0.104	327124	keystroke	o	n/a
163.738	0.129	327476	keystroke	v	n/a
163.8905	0.08	327781	keystroke	i	n/a
163.9865	0.12	327973	keystroke	s	n/a
164.066	0.1285	328132	keystroke	i	n/a
164.1625	0.104	328325	keystroke	o	n/a
164.2985	0.136	328597	keystroke	n	n/a
164.4185	0.176	328837	keystroke	Key.space	n/a
164.6745	0.136	329349	keystroke	a	n/a
165.0585	0.096	330117	keystroke	Key.backspace	n/a
165.3385	0.1115	330677	keystroke	h	n/a
165.355	0.0555	330710	keystroke	Key.space	n/a
165.4265	0.152	330853	keystroke	a	n/a
165.586	0.152	331172	keystroke	t	n/a
165.642	0.1765	331284	keystroke	e	n/a
165.995	0.0715	331990	keystroke	Key.backspace	n/a
166.1465	0.056	332293	keystroke	Key.backspace	n/a
166.2745	0.096	332549	keystroke	Key.backspace	n/a
166.5785	0.064	333157	keystroke	Key.backspace	n/a
166.9065	0.0875	333813	keystroke	h	n/a
167.027	0.128	334054	keystroke	a	n/a
167.13	0.121	334260	keystroke	t	n/a
167.2025	0.1195	334405	keystroke	e	n/a
167.7785	0.072	335557	keystroke	Key.backspace	n/a
167.9305	0.072	335861	keystroke	Key.backspace	n/a
168.1145	0.0555	336229	keystroke	Key.backspace	n/a
168.442	0.0725	336884	keystroke	Key.backspace	n/a
168.5705	0.1115	337141	keystroke	a	n/a
168.6585	0.1195	337317	keystroke	t	n/a
168.7305	0.1355	337461	keystroke	e	n/a
168.8825	0.088	337765	keystroke	Key.enter	n/a
168.977	7.707	337954	prompt	n/a	what're alexander advertisements gonna\n
169.883	0.1275	339766	keystroke	w	n/a
170.0505	0.12	340101	keystroke	h	n/a
170.1785	0.128	340357	keystroke	a	n/a
170.3145	0.128	340629	keystroke	t	n/a
170.7705	0.088	341541	keystroke	'	n/a
170.931	0.0955	341862	keystroke	r	n/a
170.987	0.1675	341974	keystroke	e	n/a
171.2185	0.136	342437	keystroke	Key.space	n/a
171.499	0.1115	342998	keystroke	a	n/a
171.6345	0.0965	343269	keystroke	l	n/a
172.1545	0.048	344309	keystroke	e	n/a
172.5145	0.096	345029	keystroke	x	n/a
172.8185	0.104	345637	keystroke	a	n/a
172.9065	0.1125	345813	keystroke	n	n/a
173.035	0.1195	346070	keystroke	d	n/a
173.1545	0.168	346309	keystroke	e	n/a
173.2825	0.176	346565	keystroke	r	n/a
173.4425	0.12	346885	keystroke	Key.space	n/a
173.5705	0.12	347141	keystroke	a	n/a
173.6825	0.12	347365	keystroke	d	n/a
173.9705	0.1365	347941	keystroke	v	n/a
174.1935	0.1685	348387	keystroke	e	n/a
174.299	0.136	348598	keystroke	r	n/a
174.5625	0.1525	349125	keystroke	t	n/a
174.707	0.103	349414	keystroke	i	n/a
174.826	0.097	349652	keystroke	s	n/a
174.882	0.137	349764	keystroke	e	n/a
175.083	0.096	350166	keystroke	m	n/a
175.179	0.119	350358	keystroke	e	n/a
175.3465	0.0875	350693	keystroke	n	n/a
175.45	0.144	350900	keystroke	t	n/a
175.5385	0.152	351077	keystroke	s	n/a
175.6665	0.136	351333	keystroke	Key.space	n/a
175.818	0.0885	351636	keystroke	g	n/a
175.914	0.072	351828	keystroke	o	n/a
176.1065	0.0725	352213	keystroke	n	n/a
176.2585	0.08	352517	keystroke	n	n/a
176.3225	0.112	352645	keystroke	a	n/a
176.5785	0.104	353157	keystroke	Key.enter	n/a
176.6885	8.1795	353377	prompt	n/a	decorative injuries winning scout\n
177.4905	0.12	354981	keystroke	d	n/a
177.6585	0.1285	355317	keystroke	e	n/a
177.859	0.1035	355718	keystroke	c	n/a
178.003	0.0875	356006	keystroke	o	n/a
178.187	0.1195	356374	keystroke	r	n/a
178.506	0.1365	357012	keystroke	a	n/a
178.6345	0.1285	357269	keystroke	t	n/a
178.794	0.104	357588	keystroke	i	n/a
179.003	0.111	358006	keystroke	v	n/a
179.074	0.129	358148	keystroke	e	n/a
179.2105	0.128	358421	keystroke	Key.space	n/a
179.3465	0.0875	358693	keystroke	i	n/a
179.5305	0.0875	359061	keystroke	n	n/a
180.4105	0.0955	360821	keystroke	j	n/a
180.5785	0.096	361157	keystroke	u	n/a
180.7385	0.1115	361477	keystroke	r	n/a
180.842	0.121	361684	keystroke	i	n/a
181.019	0.1835	362038	keystroke	e	n/a
181.171	0.143	362342	keystroke	s	n/a
181.53	0.0885	363060	keystroke	Key.backspace	n/a
182.45	0.104	364900	keystroke	s	n/a
182.538	0.136	365076	keystroke	Key.space	n/a
182.883	0.072	365766	keystroke	w	n/a
182.9065	0.0485	365813	keystroke	i	n/a
183.1305	0.063	366261	keystroke	n	n/a
183.274	0.072	366548	keystroke	n	n/a
183.4025	0.1365	366805	keystroke	i	n/a
183.531	0.1115	367062	keystroke	n	n/a
183.651	0.1185	367302	keystroke	g	n/a
183.739	0.159	367478	keystroke	Key.space	n/a
183.906	0.0965	367812	keystroke	s	n/a
184.187	0.0795	368374	keystroke	c	n/a
184.3065	0.056	368613	keystroke	o	n/a
184.4425	0.0965	368885	keystroke	u	n/a
184.5545	0.12	369109	keystroke	t	n/a
184.8185	0.048	369637	keystroke	Key.enter	n/a
184.872	8.212	369744	prompt	n/a	offered developer bones portraits\n
185.5065	0.112	371013	keystroke	o	n/a
185.947	0.071	371894	keystroke	f	n/a
186.13	0.096	372260	keystroke	f	n/a
186.338	0.153	372676	keystroke	e	n/a
186.498	0.144	372996	keystroke	r	n/a
186.626	0.152	373252	keystroke	e	n/a
186.834	0.1205	373668	keystroke	d	n/a
186.97	0.136	373940	keystroke	Key.space	n/a
187.219	0.1515	374438	keystroke	d	n/a
187.338	0.1455	374676	keystroke	e	n/a
187.5865	0.1275	375173	keystroke	v	n/a
187.722	0.0885	375444	keystroke	e	n/a
187.835	0.08	375670	keystroke	l	n/a
188.059	0.144	376118	keystroke	o	n/a
188.155	0.12	376310	keystroke	p	n/a
188.314	0.153	376628	keystroke	e	n/a
188.395	0.184	376790	keystroke	r	n/a
188.65	0.153	377300	keystroke	Key.space	n/a
188.9065	0.0875	377813	keystroke	b	n/a
189.099	0.088	378198	keystroke	o	n/a
189.2665	0.1125	378533	keystroke	n	n/a
189.346	0.1765	378692	keystroke	e	n/a
189.4425	0.136	378885	keystroke	s	n/a
189.5225	0.16	379045	keystroke	Key.space	n/a
189.7465	0.0965	379493	keystroke	p	n/a
189.891	0.1275	379782	keystroke	r	n/a
189.9625	0.0885	379925	keystroke	o	n/a
190.2895	0.0725	380579	keystroke	Key.backspace	n/a
190.8585	0.064	381717	keystroke	Key.backspace	n/a
191.1945	0.048	382389	keystroke	o	n/a
191.7225	0.112	383445	keystroke	r	n/a
191.9465	0.1595	383893	keystroke	t	n/a
192.2665	0.144	384533	keystroke	r	n/a
192.4175	0.097	384835	keystroke	a	n/a
192.5225	0.1115	385045	keystroke	i	n/a
192.6105	0.152	385221	keystroke	t	n/a
192.739	0.1675	385478	keystroke	s	n/a
192.9865	0.095	385973	keystroke	Key.enter	n/a
193.0875	7.3245	386175	prompt	n/a	edited appropriate marathon at\n
193.659	0.111	387318	keystroke	e	n/a
193.914	0.096	387828	keystroke	d	n/a
194.018	0.104	388036	keystroke	i	n/a
194.1545	0.16	388309	keystroke	t	n/a
194.4265	0.1445	388853	keystroke	e	n/a
194.538	0.145	389076	keystroke	d	n/a
194.6185	0.1515	389237	keystroke	Key.space	n/a
194.899	0.16	389798	keystroke	a	n/a
195.01	0.0805	390020	keystroke	p	n/a
195.17	0.097	390340	keystroke	p	n/a
195.274	0.112	390548	keystroke	r	n/a
195.378	0.129	390756	keystroke	o	n/a
195.8425	0.088	391685	keystroke	p	n/a
196.01	0.144	392020	keystroke	r	n/a
196.1465	0.096	392293	keystroke	i	n/a
196.243	0.151	392486	keystroke	a	n/a
196.378	0.152	392756	keystroke	t	n/a
196.467	0.143	392934	keystroke	e	n/a
196.57	0.136	393140	keystroke	Key.space	n/a
197.17	0.1765	394340	keystroke	a	n/a
197.218	0.081	394436	keystroke	m	n/a
197.7785	0.032	395557	keystroke	=	n/a
198.1065	0.0795	396213	keystroke	Key.backspace	n/a
198.2665	0.08	396533	keystroke	Key.backspace	n/a
198.41	0.1045	396820	keystroke	Key.backspace	n/a
198.706	0.1365	397412	keystroke	m	n/a
198.834	0.1445	397668	keystroke	a	n/a
198.9705	0.152	397941	keystroke	r	n/a
199.09	0.128	398180	keystroke	a	n/a
199.282	0.1765	398564	keystroke	t	n/a
199.459	0.1195	398918	keystroke	h	n/a
199.6585	0.096	399317	keystroke	o	n/a
199.858	0.1125	399716	keystroke	n	n/a
199.93	0.1445	399860	keystroke	Key.space	n/a
200.0425	0.128	400085	keystroke	a	n/a
200.1305	0.16	400261	keystroke	t	n/a
200.3465	0.063	400693	keystroke	Key.enter	n/a
200.416	6.412	400832	prompt	n/a	magnitude ancient friendly simon\n
200.987	0.1115	401974	keystroke	m	n/a
201.122	0.096	402244	keystroke	a	n/a
201.314	0.1525	402628	keystroke	g	n/a
201.4905	0.1115	402981	keystroke	n	n/a
201.682	0.097	403364	keystroke	i	n/a
201.834	0.1525	403668	keystroke	t	n/a
202.01	0.104	404020	keystroke	u	n/a
202.226	0.1365	404452	keystroke	d	n/a
202.314	0.168	404628	keystroke	e	n/a
202.466	0.128	404932	keystroke	Key.space	n/a
202.9705	0.1115	405941	keystroke	a	n/a
203.0985	0.0955	406197	keystroke	n	n/a
203.4665	0.1355	406933	keystroke	c	n/a
203.594	0.1045	407188	keystroke	i	n/a
203.7145	0.152	407429	keystroke	e	n/a
203.8505	0.12	407701	keystroke	n	n/a
203.9465	0.152	407893	keystroke	t	n/a
204.138	0.176	408276	keystroke	Key.space	n/a
204.3625	0.1035	408725	keystroke	f	n/a
204.6025	0.1115	409205	keystroke	r	n/a
204.706	0.073	409412	keystroke	i	n/a
204.786	0.1525	409572	keystroke	e	n/a
204.9305	0.104	409861	keystroke	n	n/a
205.035	0.103	410070	keystroke	d	n/a
205.4255	0.081	410851	keystroke	l	n/a
205.674	0.088	411348	keystroke	y	n/a
205.802	0.128	411604	keystroke	Key.space	n/a
206.018	0.121	412036	keystroke	s	n/a
206.0425	0.1275	412085	keystroke	i	n/a
206.194	0.1525	412388	keystroke	m	n/a
206.3145	0.1595	412629	keystroke	o	n/a
206.474	0.104	412948	keystroke	n	n/a
206.754	0.072	413508	keystroke	Key.enter	n/a
206.843	6.5705	413686	prompt	n/a	studies subjects bunch indicated\n
207.6185	0.112	415237	keystroke	s	n/a
207.794	0.12	415588	keystroke	t	n/a
207.906	0.096	415812	keystroke	u	n/a
208.0905	0.1115	416181	keystroke	d	n/a
208.1785	0.112	416357	keystroke	i	n/a
208.2905	0.2155	416581	keystroke	e	n/a
208.41	0.16	416820	keystroke	s	n/a
208.482	0.144	416964	keystroke	Key.space	n/a
208.8985	0.1195	417797	keystroke	s	n/a
208.946	0.096	417892	keystroke	u	n/a
209.1305	0.0955	418261	keystroke	b	n/a
209.3705	0.1035	418741	keystroke	j	n/a
209.475	0.151	418950	keystroke	e	n/a
209.594	0.096	419188	keystroke	c	n/a
209.922	0.1365	419844	keystroke	t	n/a
210.034	0.1445	420068	keystroke	s	n/a
210.1535	0.1765	420307	keystroke	Key.space	n/a
210.322	0.1035	420644	keystroke	b	n/a
210.434	0.08	420868	keystroke	u	n/a
210.6015	0.1205	421203	keystroke	n	n/a
210.7225	0.167	421445	keystroke	c	n/a
210.8585	0.111	421717	keystroke	h	n/a
210.93	0.1355	421860	keystroke	Key.space	n/a
211.1215	0.08	422243	keystroke	i	n/a
211.3055	0.097	422611	keystroke	n	n/a
211.378	0.1195	422756	keystroke	d	n/a
211.5295	0.121	423059	keystroke	i	n/a
211.738	0.1195	423476	keystroke	v	n/a
212.37	0.0795	424740	keystroke	Key.backspace	n/a
212.434	0.144	424868	keystroke	c	n/a
212.562	0.1285	425124	keystroke	a	n/a
212.8015	0.112	425603	keystroke	t	n/a
212.9215	0.185	425843	keystroke	e	n/a
213.138	0.072	426276	keystroke	d	n/a
213.3385	0.071	426677	keystroke	Key.enter	n/a
213.4195	9.2	426839	prompt	n/a	summary relationships phase supported\n
214.1065	0.072	428213	keystroke	s	n/a
214.1865	0.071	428373	keystroke	u	n/a
214.4015	0.24	428803	keystroke	m	n/a
215.058	0.0885	430116	keystroke	m	n/a
215.1865	0.151	430373	keystroke	a	n/a
215.314	0.1285	430628	keystroke	r	n/a
215.5215	0.1045	431043	keystroke	Key.space	n/a
215.866	0.104	431732	keystroke	Key.backspace	n/a
216.226	0.1195	432452	keystroke	y	n/a
216.3535	0.12	432707	keystroke	Key.space	n/a
216.4815	0.192	432963	keystroke	r	n/a
216.6335	0.144	433267	keystroke	e	n/a
216.8025	0.1195	433605	keystroke	l	n/a
216.9295	0.1205	433859	keystroke	a	n/a
217.05	0.152	434100	keystroke	t	n/a
217.2025	0.175	434405	keystroke	i	n/a
217.314	0.1355	434628	keystroke	o	n/a
217.474	0.1195	434948	keystroke	n	n/a
217.626	0.1205	435252	keystroke	s	n/a
217.7545	0.112	435509	keystroke	h	n/a
217.819	0.1275	435638	keystroke	i	n/a
218.218	0.088	436436	keystroke	s	n/a
218.522	0.056	437044	keystroke	Key.backspace	n/a
218.8105	0.087	437621	keystroke	p	n/a
218.9455	0.136	437891	keystroke	s	n/a
219.098	0.136	438196	keystroke	Key.space	n/a
219.7535	0.1045	439507	keystroke	p	n/a
220.0335	0.081	440067	keystroke	h	n/a
220.1375	0.145	440275	keystroke	a	n/a
220.2825	0.039	440565	keystroke	s	n/a
220.626	0.1045	441252	keystroke	e	n/a
220.954	0.088	441908	keystroke	Key.space	n/a
221.05	0.096	442100	keystroke	s	n/a
221.1545	0.0555	442309	keystroke	u	n/a
221.3865	0.0875	442773	keystroke	p	n/a
221.554	0.072	443108	keystroke	p	n/a
221.594	0.136	443188	keystroke	o	n/a
221.698	0.1285	443396	keystroke	r	n/a
221.914	0.144	443828	keystroke	t	n/a
222.066	0.192	444132	keystroke	e	n/a
222.2655	0.145	444531	keystroke	d	n/a
222.4975	0.1205	444995	keystroke	Key.enter	n/a
222.624	6.6995	445248	prompt	n/a	verification measurements israel hour\n
223.5305	0.111	447061	keystroke	v	n/a
223.6815	0.1685	447363	keystroke	e	n/a
223.7935	0.112	447587	keystroke	r	n/a
223.9375	0.1125	447875	keystroke	i	n/a
224.0825	0.0875	448165	keystroke	f	n/a
224.186	0.104	448372	keystroke	i	n/a
224.33	0.136	448660	keystroke	c	n/a
224.4585	0.1835	448917	keystroke	a	n/a
224.6665	0.1355	449333	keystroke	t	n/a
224.722	0.152	449444	keystroke	i	n/a
224.842	0.088	449684	keystroke	o	n/a
224.938	0.152	449876	keystroke	n	n/a
225.0655	0.1445	450131	keystroke	Key.space	n/a
225.2335	0.137	450467	keystroke	m	n/a
225.33	0.1285	450660	keystroke	e	n/a
225.4815	0.152	450963	keystroke	a	n/a
225.5775	0.1125	451155	keystroke	s	n/a
225.706	0.104	451412	keystroke	u	n/a
225.842	0.144	451684	keystroke	r	n/a
225.922	0.1205	451844	keystroke	e	n/a
226.122	0.128	452244	keystroke	m	n/a
226.2665	0.1275	452533	keystroke	e	n/a
226.386	0.112	452772	keystroke	n	n/a
226.4745	0.192	452949	keystroke	t	n/a
226.634	0.1285	453268	keystroke	s	n/a
226.69	0.144	453380	keystroke	Key.space	n/a
226.8265	0.1275	453653	keystroke	i	n/a
226.9385	0.1275	453877	keystroke	s	n/a
227.0975	0.121	454195	keystroke	r	n/a
227.354	0.112	454708	keystroke	a	n/a
227.546	0.112	455092	keystroke	e	n/a
227.8655	0.1205	455731	keystroke	l	n/a
228.034	0.136	456068	keystroke	Key.space	n/a
228.218	0.128	456436	keystroke	h	n/a
228.33	0.128	456660	keystroke	o	n/a
228.506	0.1045	457012	keystroke	u	n/a
228.658	0.096	457316	keystroke	r	n/a
229.2015	0.12	458403	keystroke	Key.enter	n/a
229.3265	5.157	458653	prompt	n/a	fabrics tales redhead closing\n
230.1065	0.103	460213	keystroke	f	n/a
230.2735	0.1445	460547	keystroke	a	n/a
230.386	0.111	460772	keystroke	b	n/a
230.522	0.104	461044	keystroke	r	n/a
230.6495	0.1205	461299	keystroke	i	n/a
230.818	0.1435	461636	keystroke	c	n/a
230.954	0.152	461908	keystroke	s	n/a
231.0975	0.1525	462195	keystroke	Key.space	n/a
231.29	0.1275	462580	keystroke	t	n/a
231.426	0.0955	462852	keystroke	a	n/a
231.554	0.096	463108	keystroke	l	n/a
231.674	0.136	463348	keystroke	e	n/a
231.722	0.1525	463444	keystroke	s	n/a
231.866	0.1355	463732	keystroke	Key.space	n/a
232.0255	0.1525	464051	keystroke	r	n/a
232.1465	0.207	464293	keystroke	e	n/a
232.3625	0.119	464725	keystroke	d	n/a
232.57	0.0875	465140	keystroke	h	n/a
232.666	0.1195	465332	keystroke	e	n/a
232.7535	0.168	465507	keystroke	a	n/a
232.9055	0.12	465811	keystroke	d	n/a
233.0175	0.1285	466035	keystroke	Key.space	n/a
233.1775	0.152	466355	keystroke	c	n/a
233.282	0.0635	466564	keystroke	l	n/a
233.4575	0.088	466915	keystroke	o	n/a
233.5535	0.0805	467107	keystroke	s	n/a
233.6415	0.1045	467283	keystroke	i	n/a
233.81	0.112	467620	keystroke	n	n/a
233.8815	0.12	467763	keystroke	g	n/a
234.394	0.0875	468788	keystroke	Key.enter	n/a
234.4875	6.1095	468975	prompt	n/a	corners insects clients meal\n
235.0975	0.1045	470195	keystroke	c	n/a
235.2735	0.0805	470547	keystroke	o	n/a
235.442	0.1285	470884	keystroke	r	n/a
235.562	0.1115	471124	keystroke	n	n/a
235.7135	0.1125	471427	keystroke	e	n/a
235.778	0.144	471556	keystroke	r	n/a
235.922	0.1515	471844	keystroke	s	n/a
236.0655	0.128	472131	keystroke	Key.space	n/a
236.2015	0.088	472403	keystroke	i	n/a
236.394	0.1115	472788	keystroke	n	n/a
236.5855	0.152	473171	keystroke	s	n/a
236.7455	0.128	473491	keystroke	e	n/a
237.074	0.088	474148	keystroke	c	n/a
237.33	0.144	474660	keystroke	t	n/a
237.45	0.136	474900	keystroke	s	n/a
237.602	0.16	475204	keystroke	Key.space	n/a
237.802	0.112	475604	keystroke	c	n/a
237.922	0.048	475844	keystroke	l	n/a
238.017	0.104	476034	keystroke	i	n/a
238.169	0.16	476338	keystroke	e	n/a
238.305	0.129	476610	keystroke	n	n/a
238.4175	0.1525	476835	keystroke	t	n/a
238.6655	0.1445	477331	keystroke	s	n/a
238.8255	0.128	477651	keystroke	Key.space	n/a
239.098	0.1355	478196	keystroke	m	n/a
239.3625	0.087	478725	keystroke	a	n/a
239.922	0.0955	479844	keystroke	Key.backspace	n/a
239.9935	0.12	479987	keystroke	e	n/a
240.0575	0.1445	480115	keystroke	a	n/a
240.25	0.1115	480500	keystroke	l	n/a
240.5295	0.064	481059	keystroke	Key.enter	n/a
240.602	6.6095	481204	prompt	n/a	gang instructor seasons minimum\n
241.4175	0.144	482835	keystroke	g	n/a
241.6335	0.136	483267	keystroke	a	n/a
241.7615	0.104	483523	keystroke	n	n/a
241.8975	0.104	483795	keystroke	g	n/a
242.1535	0.136	484307	keystroke	Key.space	n/a
242.3775	0.096	484755	keystroke	i	n/a
242.562	0.127	485124	keystroke	n	n/a
242.722	0.0795	485444	keystroke	s	n/a
242.7535	0.1435	485507	keystroke	t	n/a
243.001	0.104	486002	keystroke	r	n/a
243.153	0.097	486306	keystroke	u	n/a
243.33	0.12	486660	keystroke	c	n/a
243.7135	0.128	487427	keystroke	t	n/a
243.8815	0.1205	487763	keystroke	o	n/a
243.9855	0.1525	487971	keystroke	r	n/a
244.217	0.136	488434	keystroke	Key.space	n/a
244.377	0.096	488754	keystroke	s	n/a
244.6415	0.1435	489283	keystroke	e	n/a
244.81	0.176	489620	keystroke	a	n/a
244.938	0.111	489876	keystroke	s	n/a
245.09	0.079	490180	keystroke	o	n/a
245.282	0.1275	490564	keystroke	n	n/a
245.3775	0.12	490755	keystroke	s	n/a
245.457	0.1605	490914	keystroke	Key.space	n/a
245.714	0.1275	491428	keystroke	m	n/a
245.8495	0.0885	491699	keystroke	i	n/a
246.01	0.1355	492020	keystroke	n	n/a
246.1375	0.12	492275	keystroke	i	n/a
246.3705	0.119	492741	keystroke	m	n/a
246.5935	0.0795	493187	keystroke	u	n/a
246.809	0.1045	493618	keystroke	m	n/a
247.1215	0.088	494243	keystroke	Key.enter	n/a
247.215	5.932	494430	prompt	n/a	marked nearby lamps places\n
247.889	0.112	495778	keystroke	m	n/a
247.985	0.1365	495970	keystroke	a	n/a
248.1135	0.12	496227	keystroke	r	n/a
248.1695	0.12	496339	keystroke	k	n/a
248.2815	0.216	496563	keystroke	e	n/a
248.4655	0.16	496931	keystroke	d	n/a
248.6015	0.112	497203	keystroke	Key.space	n/a
248.8575	0.104	497715	keystroke	n	n/a
248.9535	0.192	497907	keystroke	e	n/a
249.0735	0.128	498147	keystroke	a	n/a
249.1375	0.1595	498275	keystroke	r	n/a
249.338	0.112	498676	keystroke	b	n/a
249.457	0.129	498914	keystroke	y	n/a
249.6095	0.144	499219	keystroke	Key.space	n/a
249.8815	0.1115	499763	keystroke	l	n/a
250.0815	0.0805	500163	keystroke	a	n/a
250.145	0.096	500290	keystroke	m	n/a
250.353	0.1045	500706	keystroke	p	n/a
250.4495	0.0965	500899	keystroke	s	n/a
250.617	0.152	501234	keystroke	Key.space	n/a
250.857	0.105	501714	keystroke	p	n/a
251.193	0.129	502386	keystroke	a	n/a
251.282	0.079	502564	keystroke	l	n/a
251.561	0.064	503122	keystroke	Key.backspace	n/a
251.7135	0.0715	503427	keystroke	Key.backspace	n/a
252.01	0.096	504020	keystroke	l	n/a
252.169	0.1445	504338	keystroke	a	n/a
252.329	0.1685	504658	keystroke	c	n/a
252.441	0.153	504882	keystroke	e	n/a
252.5535	0.1685	505107	keystroke	s	n/a
253.002	0.143	506004	keystroke	Key.enter	n/a
253.1515	5.3155	506303	prompt	n/a	connections bike facial prozac\n
253.8095	0.152	507619	keystroke	c	n/a
253.842	0.0635	507684	keystroke	o	n/a
254.05	0.063	508100	keystroke	n	n/a
254.202	0.095	508404	keystroke	n	n/a
254.314	0.151	508628	keystroke	e	n/a
254.4255	0.1035	508851	keystroke	c	n/a
254.7375	0.1355	509475	keystroke	t	n/a
254.841	0.1285	509682	keystroke	i	n/a
254.9135	0.1035	509827	keystroke	o	n/a
255.0655	0.1365	510131	keystroke	n	n/a
255.17	0.112	510340	keystroke	s	n/a
255.209	0.1685	510418	keystroke	Key.space	n/a
255.3935	0.104	510787	keystroke	b	n/a
255.6015	0.0875	511203	keystroke	i	n/a
255.841	0.08	511682	keystroke	k	n/a
255.953	0.176	511906	keystroke	e	n/a
256.1135	0.136	512227	keystroke	Key.space	n/a
256.2735	0.0965	512547	keystroke	f	n/a
256.4015	0.1365	512803	keystroke	a	n/a
256.6095	0.112	513219	keystroke	c	n/a
256.7055	0.072	513411	keystroke	i	n/a
256.834	0.1355	513668	keystroke	a	n/a
256.9215	0.136	513843	keystroke	l	n/a
257.0415	0.16	514083	keystroke	Key.space	n/a
257.265	0.073	514530	keystroke	p	n/a
257.353	0.137	514706	keystroke	r	n/a
257.6815	0.1045	515363	keystroke	o	n/a
257.817	0.0965	515634	keystroke	z	n/a
258.0575	0.0885	516115	keystroke	a	n/a
258.274	0.1035	516548	keystroke	c	n/a
258.337	0.1275	516674	keystroke	Key.enter	n/a
258.472	8.1635	516944	prompt	n/a	cdna leadership respect parker\n
259.322	0.103	518644	keystroke	c	n/a
259.898	0.0955	519796	keystroke	d	n/a
260.106	0.0875	520212	keystroke	n	n/a
260.2335	0.136	520467	keystroke	a	n/a
260.4095	0.144	520819	keystroke	Key.space	n/a
260.866	0.087	521732	keystroke	l	n/a
260.9455	0.1595	521891	keystroke	e	n/a
261.073	0.185	522146	keystroke	a	n/a
261.2495	0.1355	522499	keystroke	d	n/a
261.449	0.1365	522898	keystroke	e	n/a
261.537	0.1365	523074	keystroke	r	n/a
261.753	0.065	523506	keystroke	s	n/a
261.802	0.1035	523604	keystroke	h	n/a
261.9135	0.152	523827	keystroke	i	n/a
262.4735	0.144	524947	keystroke	[	n/a
262.7295	0.168	525459	keystroke	Key.space	n/a
263.2015	0.064	526403	keystroke	Key.backspace	n/a
263.3615	0.088	526723	keystroke	Key.backspace	n/a
263.9135	0.0805	527827	keystroke	p	n/a
264.2485	0.1365	528497	keystroke	Key.space	n/a
264.4495	0.1995	528899	keystroke	r	n/a
264.537	0.2085	529074	keystroke	e	n/a
264.665	0.176	529330	keystroke	s	n/a
264.8815	0.144	529763	keystroke	p	n/a
265.0485	0.1615	530097	keystroke	e	n/a
265.258	0.0795	530516	keystroke	c	n/a
265.5135	0.1445	531027	keystroke	t	n/a
265.5685	0.153	531137	keystroke	Key.space	n/a
265.8095	0.104	531619	keystroke	p	n/a
265.8975	0.1515	531795	keystroke	a	n/a
265.994	0.151	531988	keystroke	r	n/a
266.153	0.128	532306	keystroke	k	n/a
266.249	0.136	532498	keystroke	e	n/a
266.337	0.121	532674	keystroke	r	n/a
266.537	0.096	533074	keystroke	Key.enter	n/a
266.64	8.171	533280	prompt	n/a	legislative sandwich andrews telecom\n
267.3215	0.064	534643	keystroke	l	n/a
267.3855	0.16	534771	keystroke	e	n/a
267.5615	0.128	535123	keystroke	g	n/a
267.6485	0.104	535297	keystroke	i	n/a
267.7775	0.1195	535555	keystroke	s	n/a
267.97	0.1275	535940	keystroke	t	n/a
268.1935	0.056	536387	keystroke	a	n/a
268.553	0.08	537106	keystroke	Key.backspace	n/a
268.7055	0.0875	537411	keystroke	Key.backspace	n/a
269.3055	0.104	538611	keystroke	l	n/a
269.4015	0.144	538803	keystroke	a	n/a
269.5055	0.128	539011	keystroke	t	n/a
269.722	0.111	539444	keystroke	i	n/a
269.8415	0.12	539683	keystroke	v	n/a
269.9215	0.1675	539843	keystroke	e	n/a
270.3135	0.128	540627	keystroke	Key.space	n/a
270.4895	0.112	540979	keystroke	s	n/a
270.6655	0.079	541331	keystroke	a	n/a
270.7535	0.112	541507	keystroke	n	n/a
270.8895	0.071	541779	keystroke	d	n/a
271.0085	0.0965	542017	keystroke	w	n/a
271.1775	0.0875	542355	keystroke	i	n/a
271.3055	0.152	542611	keystroke	c	n/a
271.393	0.1205	542786	keystroke	h	n/a
271.489	0.136	542978	keystroke	Key.space	n/a
271.7775	0.136	543555	keystroke	a	n/a
271.9135	0.096	543827	keystroke	n	n/a
272.001	0.12	544002	keystroke	d	n/a
272.321	0.2005	544642	keystroke	r	n/a
272.449	0.1755	544898	keystroke	e	n/a
272.5375	0.103	545075	keystroke	w	n/a
272.8335	0.1595	545667	keystroke	s	n/a
272.9765	0.1285	545953	keystroke	Key.space	n/a
273.5125	0.176	547025	keystroke	t	n/a
273.6335	0.127	547267	keystroke	e	n/a
273.7925	0.12	547585	keystroke	l	n/a
273.8645	0.1125	547729	keystroke	e	n/a
274.137	0.16	548274	keystroke	c	n/a
274.2325	0.088	548465	keystroke	o	n/a
274.3445	0.1205	548689	keystroke	m	n/a
274.7205	0.0885	549441	keystroke	Key.enter	n/a
274.815	8.633	549630	prompt	n/a	investigators prompt seen appreciated\n
275.5455	0.0955	551091	keystroke	i	n/a
275.7535	0.127	551507	keystroke	n	n/a
276.0165	0.145	552033	keystroke	v	n/a
276.169	0.2005	552338	keystroke	e	n/a
276.2975	0.183	552595	keystroke	s	n/a
276.4335	0.16	552867	keystroke	t	n/a
276.6085	0.105	553217	keystroke	i	n/a
276.8165	0.12	553633	keystroke	g	n/a
277.0415	0.128	554083	keystroke	a	n/a
277.161	0.1365	554322	keystroke	t	n/a
277.2895	0.1035	554579	keystroke	o	n/a
277.433	0.112	554866	keystroke	r	n/a
277.6095	0.1195	555219	keystroke	s	n/a
277.777	0.136	555554	keystroke	Key.space	n/a
278.001	0.072	556002	keystroke	p	n/a
278.105	0.104	556210	keystroke	r	n/a
278.2495	0.0955	556499	keystroke	o	n/a
278.521	0.04	557042	keystroke	m	n/a
278.833	0.096	557666	keystroke	p	n/a
278.953	0.1685	557906	keystroke	t	n/a
279.169	0.16	558338	keystroke	Key.space	n/a
279.673	0.1365	559346	keystroke	s	n/a
279.9445	0.081	559889	keystroke	e	n/a
280.1135	0.112	560227	keystroke	e	n/a
280.2175	0.136	560435	keystroke	n	n/a
280.3775	0.127	560755	keystroke	Key.space	n/a
280.6335	0.1435	561267	keystroke	a	n/a
280.8735	0.088	561747	keystroke	p	n/a
281.0485	0.081	562097	keystroke	p	n/a
281.105	0.152	562210	keystroke	r	n/a
281.673	0.056	563346	keystroke	a	n/a
282.009	0.088	564018	keystroke	Key.backspace	n/a
282.089	0.1525	564178	keystroke	e	n/a
282.2645	0.129	564529	keystroke	c	n/a
282.3775	0.112	564755	keystroke	i	n/a
282.5295	0.1275	565059	keystroke	a	n/a
282.6655	0.1355	565331	keystroke	t	n/a
282.729	0.2325	565458	keystroke	e	n/a
282.993	0.0725	565986	keystroke	d	n/a
283.3295	0.1115	566659	keystroke	Key.enter	n/a
283.45	5.937	566900	prompt	n/a	shark sept synthesis registration\n
284.041	0.0885	568082	keystroke	s	n/a
284.169	0.104	568338	keystroke	h	n/a
284.3135	0.136	568627	keystroke	a	n/a
284.4415	0.1275	568883	keystroke	r	n/a
284.529	0.1045	569058	keystroke	k	n/a
284.641	0.144	569282	keystroke	Key.space	n/a
284.786	0.095	569572	keystroke	s	n/a
285.121	0.08	570242	keystroke	e	n/a
285.249	0.072	570498	keystroke	p	n/a
285.3215	0.16	570643	keystroke	t	n/a
285.473	0.1355	570946	keystroke	Key.space	n/a
285.6485	0.0805	571297	keystroke	s	n/a
285.937	0.0885	571874	keystroke	y	n/a
286.1135	0.1115	572227	keystroke	n	n/a
286.249	0.152	572498	keystroke	t	n/a
286.3775	0.135	572755	keystroke	h	n/a
286.5045	0.185	573009	keystroke	e	n/a
286.7215	0.144	573443	keystroke	s	n/a
286.8805	0.0965	573761	keystroke	i	n/a
286.9845	0.113	573969	keystroke	s	n/a
287.1045	0.168	574209	keystroke	Key.space	n/a
287.585	0.136	575170	keystroke	r	n/a
287.6575	0.216	575315	keystroke	e	n/a
287.8895	0.168	575779	keystroke	g	n/a
287.9925	0.1125	575985	keystroke	i	n/a
288.1215	0.136	576243	keystroke	s	n/a
288.2415	0.128	576483	keystroke	t	n/a
288.4895	0.1355	576979	keystroke	r	n/a
288.6085	0.1525	577217	keystroke	a	n/a
288.745	0.152	577490	keystroke	t	n/a
288.833	0.1365	577666	keystroke	i	n/a
288.9285	0.113	577857	keystroke	o	n/a
289.0175	0.128	578035	keystroke	n	n/a
289.2975	0.087	578595	keystroke	Key.enter	n/a
289.3905	8.644	578781	prompt	n/a	participant maintenance amounts seeking\n
290.065	0.096	580130	keystroke	p	n/a
290.185	0.152	580370	keystroke	a	n/a
290.289	0.128	580578	keystroke	r	n/a
290.497	0.104	580994	keystroke	t	n/a
290.609	0.12	581218	keystroke	i	n/a
290.849	0.104	581698	keystroke	i	n/a
291.177	0.0875	582354	keystroke	Key.backspace	n/a
291.3285	0.145	582657	keystroke	c	n/a
291.497	0.096	582994	keystroke	i	n/a
291.825	0.096	583650	keystroke	p	n/a
291.9935	0.119	583987	keystroke	a	n/a
292.1445	0.12	584289	keystroke	n	n/a
292.2965	0.137	584593	keystroke	t	n/a
292.417	0.1355	584834	keystroke	Key.space	n/a
292.8415	0.0475	585683	keystroke	a	n/a
292.897	0.1115	585794	keystroke	m	n/a
293.1925	0.072	586385	keystroke	Key.backspace	n/a
293.337	0.0715	586674	keystroke	Key.backspace	n/a
293.5855	0.111	587171	keystroke	m	n/a
293.6975	0.0875	587395	keystroke	a	n/a
293.8005	0.1045	587601	keystroke	i	n/a
294.0095	0.127	588019	keystroke	n	n/a
294.145	0.1435	588290	keystroke	t	n/a
294.281	0.1285	588562	keystroke	e	n/a
294.3765	0.0965	588753	keystroke	n	n/a
294.753	0.136	589506	keystroke	a	n/a
294.857	0.112	589714	keystroke	n	n/a
294.969	0.144	589938	keystroke	c	n/a
295.041	0.12	590082	keystroke	e	n/a
295.2	0.145	590400	keystroke	Key.space	n/a
295.5775	0.0875	591155	keystroke	a	n/a
295.649	0.1035	591298	keystroke	m	n/a
295.881	0.1115	591762	keystroke	o	n/a
296.08	0.089	592160	keystroke	u	n/a
296.2565	0.1205	592513	keystroke	n	n/a
296.353	0.128	592706	keystroke	t	n/a
296.449	0.12	592898	keystroke	s	n/a
296.5845	0.1445	593169	keystroke	Key.space	n/a
296.897	0.096	593794	keystroke	s	n/a
297.129	0.096	594258	keystroke	e	n/a
297.313	0.12	594626	keystroke	e	n/a
297.393	0.056	594786	keystroke	k	n/a
297.561	0.056	595122	keystroke	i	n/a
297.6815	0.0955	595363	keystroke	n	n/a
297.737	0.128	595474	keystroke	g	n/a
297.968	0.0645	595936	keystroke	Key.enter	n/a
298.039	6.075	596078	prompt	n/a	pendant around tablets involves\n
298.7845	0.1045	597569	keystroke	p	n/a
298.9445	0.105	597889	keystroke	e	n/a
299.065	0.1115	598130	keystroke	n	n/a
299.1845	0.136	598369	keystroke	d	n/a
299.377	0.1115	598754	keystroke	a	n/a
299.465	0.1035	598930	keystroke	n	n/a
299.625	0.1355	599250	keystroke	t	n/a
299.9205	0.1365	599841	keystroke	Key.space	n/a
300.1205	0.1205	600241	keystroke	a	n/a
300.249	0.112	600498	keystroke	r	n/a
300.369	0.0795	600738	keystroke	o	n/a
300.5445	0.08	601089	keystroke	u	n/a
300.713	0.136	601426	keystroke	n	n/a
300.801	0.1675	601602	keystroke	d	n/a
300.9605	0.1365	601921	keystroke	Key.space	n/a
301.209	0.144	602418	keystroke	t	n/a
301.353	0.1115	602706	keystroke	a	n/a
301.473	0.1035	602946	keystroke	b	n/a
301.681	0.1275	603362	keystroke	l	n/a
301.761	0.184	603522	keystroke	e	n/a
301.921	0.168	603842	keystroke	t	n/a
302.0725	0.1365	604145	keystroke	s	n/a
302.545	0.135	605090	keystroke	Key.space	n/a
302.705	0.072	605410	keystroke	i	n/a
302.881	0.112	605762	keystroke	n	n/a
303.105	0.088	606210	keystroke	v	n/a
303.153	0.0795	606306	keystroke	o	n/a
303.384	0.097	606768	keystroke	l	n/a
303.593	0.176	607186	keystroke	v	n/a
303.721	0.1675	607442	keystroke	e	n/a
303.8325	0.1525	607665	keystroke	s	n/a
304.016	0.0965	608032	keystroke	Key.enter	n/a
304.118	7.876	608236	prompt	n/a	crucial pickup hire happen\n
304.9445	0.104	609889	keystroke	c	n/a
305.2245	0.0725	610449	keystroke	r	n/a
305.2805	0.096	610561	keystroke	u	n/a
305.489	0.1195	610978	keystroke	c	n/a
305.649	0.056	611298	keystroke	u	n/a
305.865	0.1115	611730	keystroke	a	n/a
306.313	0.063	612626	keystroke	Key.backspace	n/a
306.449	0.087	612898	keystroke	Key.backspace	n/a
306.7765	0.08	613553	keystroke	i	n/a
306.8805	0.096	613761	keystroke	a	n/a
306.9925	0.136	613985	keystroke	l	n/a
307.1925	0.144	614385	keystroke	Key.space	n/a
307.8565	0.088	615713	keystroke	p	n/a
308.089	0.087	616178	keystroke	i	n/a
308.201	0.151	616402	keystroke	c	n/a
308.6085	0.08	617217	keystroke	u	n/a
309.0245	0.056	618049	keystroke	Key.backspace	n/a
309.305	0.0875	618610	keystroke	k	n/a
309.5765	0.096	619153	keystroke	u	n/a
309.6965	0.1365	619393	keystroke	p	n/a
309.9285	0.128	619857	keystroke	Key.space	n/a
310.1285	0.088	620257	keystroke	h	n/a
310.1765	0.128	620353	keystroke	i	n/a
310.2885	0.1445	620577	keystroke	r	n/a
310.385	0.152	620770	keystroke	e	n/a
310.553	0.1275	621106	keystroke	Key.space	n/a
310.7365	0.104	621473	keystroke	h	n/a
310.8565	0.144	621713	keystroke	a	n/a
310.9925	0.0725	621985	keystroke	p	n/a
311.1605	0.08	622321	keystroke	p	n/a
311.328	0.136	622656	keystroke	e	n/a
311.657	0.087	623314	keystroke	n	n/a
311.9365	0.056	623873	keystroke	Key.enter	n/a
311.9995	6.8445	623999	prompt	n/a	pediatric laos francisco clark\n
312.6805	0.136	625361	keystroke	p	n/a
312.7925	0.16	625585	keystroke	e	n/a
312.977	0.1275	625954	keystroke	d	n/a
313.073	0.1035	626146	keystroke	i	n/a
313.2725	0.12	626545	keystroke	a	n/a
313.753	0.1195	627506	keystroke	t	n/a
313.9925	0.0645	627985	keystroke	r	n/a
314.089	0.087	628178	keystroke	i	n/a
314.2245	0.1115	628449	keystroke	c	n/a
314.328	0.136	628656	keystroke	Key.space	n/a
314.5525	0.0795	629105	keystroke	l	n/a
314.648	0.112	629296	keystroke	a	n/a
314.825	0.056	629650	keystroke	o	n/a
314.896	0.112	629792	keystroke	s	n/a
315.273	0.167	630546	keystroke	Key.space	n/a
315.5925	0.1035	631185	keystroke	f	n/a
315.817	0.119	631634	keystroke	r	n/a
315.888	0.1845	631776	keystroke	a	n/a
316.0565	0.1115	632113	keystroke	n	n/a
316.176	0.12	632352	keystroke	c	n/a
316.401	0.0955	632802	keystroke	i	n/a
316.4895	0.087	632979	keystroke	s	n/a
317.113	0.1275	634226	keystroke	c	n/a
317.2965	0.1045	634593	keystroke	o	n/a
317.4325	0.1595	634865	keystroke	Key.space	n/a
317.9525	0.2005	635905	keystroke	c	n/a
318.144	0.129	636288	keystroke	l	n/a
318.256	0.1205	636512	keystroke	a	n/a
318.361	0.1585	636722	keystroke	r	n/a
318.425	0.1185	636850	keystroke	k	n/a
318.72	0.121	637440	keystroke	Key.enter	n/a
318.856	7.178	637712	prompt	n/a	defensive hasn't seeker outline\n
319.5525	0.1675	639105	keystroke	d	n/a
319.7685	0.16	639537	keystroke	e	n/a
319.984	0.0885	639968	keystroke	f	n/a
320.1365	0.096	640273	keystroke	e	n/a
320.2645	0.0875	640529	keystroke	n	n/a
320.392	0.1445	640784	keystroke	s	n/a
320.4475	0.145	640895	keystroke	e	n/a
320.776	0.096	641552	keystroke	i	n/a
320.849	0.1595	641698	keystroke	v	n/a
321.112	0.0885	642224	keystroke	e	n/a
321.6565	0.08	643313	keystroke	Key.backspace	n/a
321.8645	0.056	643729	keystroke	Key.backspace	n/a
322.048	0.0645	644096	keystroke	Key.backspace	n/a
322.216	0.08	644432	keystroke	Key.backspace	n/a
322.529	0.087	645058	keystroke	i	n/a
322.617	0.127	645234	keystroke	v	n/a
322.705	0.128	645410	keystroke	e	n/a
322.833	0.135	645666	keystroke	Key.space	n/a
323.032	0.088	646064	keystroke	h	n/a
323.096	0.121	646192	keystroke	a	n/a
323.1525	0.1275	646305	keystroke	s	n/a
323.3205	0.0955	646641	keystroke	n	n/a
323.577	0.064	647154	keystroke	'	n/a
323.657	0.1595	647314	keystroke	t	n/a
323.776	0.1365	647552	keystroke	Key.space	n/a
324.049	0.0875	648098	keystroke	s	n/a
324.2405	0.0725	648481	keystroke	e	n/a
324.408	0.104	648816	keystroke	e	n/a
324.4885	0.0955	648977	keystroke	k	n/a
324.585	0.152	649170	keystroke	e	n/a
324.672	0.1445	649344	keystroke	r	n/a
324.848	0.12	649696	keystroke	Key.space	n/a
325.0245	0.088	650049	keystroke	o	n/a
325.2	0.0885	650400	keystroke	u	n/a
325.296	0.112	650592	keystroke	t	n/a
325.4325	0.0715	650865	keystroke	l	n/a
325.5525	0.0805	651105	keystroke	i	n/a
325.689	0.095	651378	keystroke	n	n/a
325.776	0.089	651552	keystroke	e	n/a
325.984	0.0485	651968	keystroke	Key.enter	n/a
326.038	10.2435	652076	prompt	n/a	argument acceptable logitech legislative\n
326.705	0.1515	653410	keystroke	a	n/a
326.8245	0.112	653649	keystroke	r	n/a
327.0805	0.12	654161	keystroke	g	n/a
327.1285	0.08	654257	keystroke	u	n/a
327.3205	0.112	654641	keystroke	m	n/a
327.4485	0.2	654897	keystroke	e	n/a
327.5445	0.128	655089	keystroke	n	n/a
327.673	0.167	655346	keystroke	t	n/a
327.768	0.152	655536	keystroke	Key.space	n/a
327.9525	0.0965	655905	keystroke	a	n/a
328.136	0.096	656272	keystroke	c	n/a
328.2725	0.128	656545	keystroke	c	n/a
328.8085	0.12	657617	keystroke	e	n/a
328.8965	0.168	657793	keystroke	t	n/a
329.0405	0.104	658081	keystroke	p	n/a
329.5205	0.056	659041	keystroke	Key.backspace	n/a
329.6635	0.049	659327	keystroke	Key.backspace	n/a
329.8805	0.104	659761	keystroke	p	n/a
329.9525	0.152	659905	keystroke	t	n/a
330.1205	0.104	660241	keystroke	a	n/a
330.2645	0.104	660529	keystroke	b	n/a
330.4645	0.1035	660929	keystroke	l	n/a
330.5445	0.1355	661089	keystroke	e	n/a
330.632	0.1525	661264	keystroke	Key.space	n/a
330.792	0.064	661584	keystroke	l	n/a
330.976	0.08	661952	keystroke	o	n/a
331.065	0.0875	662130	keystroke	g	n/a
331.176	0.112	662352	keystroke	i	n/a
331.3285	0.176	662657	keystroke	t	n/a
331.6315	0.137	663263	keystroke	e	n/a
331.8805	0.136	663761	keystroke	c	n/a
331.9605	0.112	663921	keystroke	h	n/a
332.1115	0.152	664223	keystroke	Key.space	n/a
332.3205	0.1125	664641	keystroke	l	n/a
332.4165	0.1275	664833	keystroke	e	n/a
332.8485	0.079	665697	keystroke	g	n/a
333.3835	0.129	666767	keystroke	s	n/a
333.6565	0.088	667313	keystroke	Key.backspace	n/a
333.9365	0.08	667873	keystroke	i	n/a
334.0315	0.113	668063	keystroke	s	n/a
334.6085	0.072	669217	keystroke	l	n/a
334.6965	0.096	669393	keystroke	t	n/a
334.8965	0.08	669793	keystroke	a	n/a
335.0795	0.057	670159	keystroke	Key.backspace	n/a
335.2165	0.0795	670433	keystroke	Key.backspace	n/a
335.352	0.097	670704	keystroke	a	n/a
335.4165	0.1195	670833	keystroke	t	n/a
335.592	0.1115	671184	keystroke	i	n/a
335.7445	0.1915	671489	keystroke	v	n/a
335.88	0.1125	671760	keystroke	e	n/a
336.192	0.0875	672384	keystroke	Key.enter	n/a
336.285	6.653	672570	prompt	n/a	treatments karen recorders detroit\n
337.0565	0.136	674113	keystroke	t	n/a
337.2005	0.119	674401	keystroke	e	n/a
337.3275	0.145	674655	keystroke	r	n/a
337.6165	0.064	675233	keystroke	Key.backspace	n/a
337.7685	0.064	675537	keystroke	Key.backspace	n/a
337.8805	0.16	675761	keystroke	r	n/a
337.9685	0.152	675937	keystroke	e	n/a
338.2165	0.12	676433	keystroke	a	n/a
338.3525	0.12	676705	keystroke	t	n/a
338.4885	0.096	676977	keystroke	m	n/a
338.6565	0.144	677313	keystroke	e	n/a
338.7525	0.104	677505	keystroke	n	n/a
338.8485	0.152	677697	keystroke	t	n/a
338.9365	0.152	677873	keystroke	s	n/a
339.0565	0.152	678113	keystroke	Key.space	n/a
339.225	0.1195	678450	keystroke	k	n/a
339.3365	0.12	678673	keystroke	a	n/a
339.4405	0.104	678881	keystroke	r	n/a
339.5525	0.12	679105	keystroke	e	n/a
339.6645	0.096	679329	keystroke	n	n/a
339.8635	0.1445	679727	keystroke	Key.space	n/a
340.0165	0.0955	680033	keystroke	r	n/a
340.064	0.184	680128	keystroke	e	n/a
340.32	0.112	680640	keystroke	c	n/a
340.44	0.121	680880	keystroke	o	n/a
340.6325	0.144	681265	keystroke	r	n/a
340.904	0.1445	681808	keystroke	d	n/a
341.0325	0.1515	682065	keystroke	e	n/a
341.168	0.1675	682336	keystroke	r	n/a
341.3125	0.16	682625	keystroke	s	n/a
341.4875	0.145	682975	keystroke	Key.space	n/a
341.7445	0.079	683489	keystroke	d	n/a
341.8805	0.168	683761	keystroke	e	n/a
342.0405	0.16	684081	keystroke	t	n/a
342.2805	0.128	684561	keystroke	r	n/a
342.4005	0.144	684801	keystroke	o	n/a
342.4725	0.112	684945	keystroke	i	n/a
342.6485	0.184	685297	keystroke	t	n/a
342.8405	0.096	685681	keystroke	Key.enter	n/a
342.9425	5.6825	685885	prompt	n/a	accordance geneva sheep ghana\n
343.6245	0.112	687249	keystroke	a	n/a
343.8715	0.065	687743	keystroke	c	n/a
344.0245	0.072	688049	keystroke	c	n/a
344.1525	0.088	688305	keystroke	o	n/a
344.3045	0.103	688609	keystroke	r	n/a
344.5525	0.112	689105	keystroke	d	n/a
344.6725	0.096	689345	keystroke	a	n/a
344.792	0.1035	689584	keystroke	n	n/a
344.9275	0.129	689855	keystroke	c	n/a
345.0165	0.136	690033	keystroke	e	n/a
345.1595	0.144	690319	keystroke	Key.space	n/a
345.4	0.1115	690800	keystroke	g	n/a
345.52	0.0635	691040	keystroke	e	n/a
345.6155	0.104	691231	keystroke	n	n/a
345.768	0.128	691536	keystroke	e	n/a
346.048	0.104	692096	keystroke	v	n/a
346.311	0.105	692622	keystroke	a	n/a
346.4	0.1355	692800	keystroke	Key.space	n/a
346.5275	0.0965	693055	keystroke	s	n/a
346.656	0.1045	693312	keystroke	h	n/a
346.7755	0.0805	693551	keystroke	e	n/a
346.9435	0.112	693887	keystroke	e	n/a
347.0475	0.112	694095	keystroke	p	n/a
347.1605	0.135	694321	keystroke	Key.space	n/a
347.832	0.119	695664	keystroke	g	n/a
347.943	0.089	695886	keystroke	h	n/a
348.088	0.08	696176	keystroke	a	n/a
348.184	0.088	696368	keystroke	n	n/a
348.328	0.096	696656	keystroke	a	n/a
348.544	0.08	697088	keystroke	Key.enter	n/a
348.6285	5.253	697257	prompt	n/a	kits emirates travelers deny\n
349.4485	0.0795	698897	keystroke	k	n/a
349.64	0.0955	699280	keystroke	i	n/a
349.728	0.136	699456	keystroke	t	n/a
349.856	0.0965	699712	keystroke	s	n/a
349.912	0.1435	699824	keystroke	Key.space	n/a
350.0955	0.1205	700191	keystroke	e	n/a
350.2405	0.111	700481	keystroke	m	n/a
350.5045	0.096	701009	keystroke	i	n/a
350.6635	0.1365	701327	keystroke	r	n/a
351.0395	0.1045	702079	keystroke	a	n/a
351.184	0.1035	702368	keystroke	t	n/a
351.224	0.176	702448	keystroke	e	n/a
351.4565	0.1275	702913	keystroke	s	n/a
351.568	0.127	703136	keystroke	Key.space	n/a
351.776	0.136	703552	keystroke	t	n/a
352.0325	0.0795	704065	keystroke	r	n/a
352.105	0.0785	704210	keystroke	a	n/a
352.3445	0.096	704689	keystroke	v	n/a
352.424	0.1035	704848	keystroke	e	n/a
352.5755	0.0645	705151	keystroke	l	n/a
352.632	0.128	705264	keystroke	e	n/a
352.736	0.112	705472	keystroke	r	n/a
352.816	0.128	705632	keystroke	s	n/a
352.952	0.136	705904	keystroke	Key.space	n/a
353.216	0.104	706432	keystroke	d	n/a
353.2715	0.1125	706543	keystroke	e	n/a
353.392	0.048	706784	keystroke	n	n/a
353.4965	0.103	706993	keystroke	y	n/a
353.8155	0.064	707631	keystroke	Key.enter	n/a
353.885	6.4445	707770	prompt	n/a	indigenous marketplace taylor accessing\n
354.52	0.088	709040	keystroke	i	n/a
354.712	0.112	709424	keystroke	n	n/a
354.832	0.104	709664	keystroke	d	n/a
354.976	0.112	709952	keystroke	i	n/a
355.136	0.112	710272	keystroke	g	n/a
355.392	0.12	710784	keystroke	e	n/a
355.584	0.08	711168	keystroke	n	n/a
355.712	0.0885	711424	keystroke	o	n/a
355.895	0.097	711790	keystroke	u	n/a
355.999	0.121	711998	keystroke	s	n/a
356.112	0.16	712224	keystroke	Key.space	n/a
356.352	0.143	712704	keystroke	m	n/a
356.456	0.127	712912	keystroke	a	n/a
356.5525	0.1355	713105	keystroke	r	n/a
356.631	0.121	713262	keystroke	k	n/a
356.768	0.127	713536	keystroke	e	n/a
356.8565	0.1345	713713	keystroke	t	n/a
357.0165	0.0555	714033	keystroke	p	n/a
357.232	0.088	714464	keystroke	l	n/a
357.312	0.0875	714624	keystroke	a	n/a
357.463	0.129	714926	keystroke	c	n/a
357.536	0.127	715072	keystroke	e	n/a
357.679	0.144	715358	keystroke	Key.space	n/a
357.976	0.1355	715952	keystroke	t	n/a
358.1365	0.111	716273	keystroke	a	n/a
358.2235	0.097	716447	keystroke	y	n/a
358.48	0.0315	716960	keystroke	l	n/a
358.632	0.0875	717264	keystroke	o	n/a
358.728	0.088	717456	keystroke	r	n/a
358.808	0.128	717616	keystroke	Key.space	n/a
359.016	0.12	718032	keystroke	a	n/a
359.152	0.08	718304	keystroke	c	n/a
359.3285	0.1435	718657	keystroke	c	n/a
359.4475	0.16	718895	keystroke	e	n/a
359.528	0.1355	719056	keystroke	s	n/a
359.728	0.088	719456	keystroke	s	n/a
359.8315	0.096	719663	keystroke	i	n/a
359.9835	0.1045	719967	keystroke	n	n/a
360.048	0.1285	720096	keystroke	g	n/a
360.264	0.064	720528	keystroke	Key.enter	n/a
360.3365	6.9445	720673	prompt	n/a	sought applicant cameroon limiting\n
361	0.12	722000	keystroke	s	n/a
361.0565	0.111	722113	keystroke	o	n/a
361.2315	0.0955	722463	keystroke	u	n/a
361.368	0.1035	722736	keystroke	g	n/a
361.423	0.1285	722846	keystroke	h	n/a
361.6315	0.136	723263	keystroke	t	n/a
361.728	0.1355	723456	keystroke	Key.space	n/a
361.888	0.0955	723776	keystroke	a	n/a
361.9915	0.088	723983	keystroke	p	n/a
362.1755	0.0565	724351	keystroke	p	n/a
362.392	0.111	724784	keystroke	l	n/a
362.5195	0.1125	725039	keystroke	i	n/a
362.6325	0.135	725265	keystroke	c	n/a
362.7675	0.128	725535	keystroke	a	n/a
362.8475	0.1205	725695	keystroke	n	n/a
363.0075	0.1445	726015	keystroke	t	n/a
363.0875	0.136	726175	keystroke	Key.space	n/a
363.376	0.1275	726752	keystroke	c	n/a
363.5675	0.136	727135	keystroke	a	n/a
363.672	0.112	727344	keystroke	m	n/a
363.7995	0.16	727599	keystroke	e	n/a
364.0875	0.0885	728175	keystroke	r	n/a
364.2075	0.088	728415	keystroke	o	n/a
364.376	0.088	728752	keystroke	o	n/a
364.568	0.128	729136	keystroke	n	n/a
364.704	0.1045	729408	keystroke	Key.space	n/a
364.896	0.072	729792	keystroke	l	n/a
365.048	0.096	730096	keystroke	i	n/a
365.2315	0.144	730463	keystroke	m	n/a
365.36	0.144	730720	keystroke	i	n/a
365.5115	0.088	731023	keystroke	t	n/a
365.56	0.0955	731120	keystroke	i	n/a
366.168	0.08	732336	keystroke	n	n/a
366.232	0.12	732464	keystroke	g	n/a
366.367	0.1365	732734	keystroke	Key.space	n/a
366.9035	0.0885	733807	keystroke	Key.backspace	n/a
367.2075	0.072	734415	keystroke	Key.enter	n/a
367.285	8.1725	734570	prompt	n/a	concrete cove genetic cradle\n
368.599	0.104	737198	keystroke	c	n/a
368.6315	0.0795	737263	keystroke	o	n/a
368.8075	0.128	737615	keystroke	n	n/a
369.008	0.1115	738016	keystroke	c	n/a
369.296	0.12	738592	keystroke	r	n/a
369.3995	0.1205	738799	keystroke	e	n/a
369.6315	0.128	739263	keystroke	t	n/a
369.7595	0.08	739519	keystroke	e	n/a
369.9995	0.1285	739999	keystroke	Key.space	n/a
370.256	0.088	740512	keystroke	o	n/a
370.64	0.08	741280	keystroke	Key.backspace	n/a
370.759	0.113	741518	keystroke	c	n/a
370.936	0.104	741872	keystroke	o	n/a
371.088	0.104	742176	keystroke	v	n/a
371.2075	0.1525	742415	keystroke	e	n/a
371.376	0.128	742752	keystroke	Key.space	n/a
371.56	0.136	743120	keystroke	g	n/a
371.688	0.136	743376	keystroke	e	n/a
371.808	0.112	743616	keystroke	n	n/a
371.904	0.1755	743808	keystroke	e	n/a
372.0875	0.112	744175	keystroke	r	n/a
372.591	0.0805	745182	keystroke	Key.backspace	n/a
372.728	0.12	745456	keystroke	t	n/a
372.888	0.095	745776	keystroke	i	n/a
373.048	0.0795	746096	keystroke	c	n/a
373.143	0.1125	746286	keystroke	Key.space	n/a
373.3355	0.096	746671	keystroke	c	n/a
373.944	0.1355	747888	keystroke	r	n/a
374.1275	0.12	748255	keystroke	a	n/a
374.4475	0.128	748895	keystroke	l	n/a
374.783	0.072	749566	keystroke	Key.backspace	n/a
374.9435	0.1195	749887	keystroke	d	n/a
375.071	0.096	750142	keystroke	l	n/a
375.1835	0.1525	750367	keystroke	e	n/a
375.3915	0.064	750783	keystroke	Key.enter	n/a
375.4615	8.4915	750923	prompt	n/a	argued lambda several population\n
376.0555	0.136	752111	keystroke	a	n/a
376.1675	0.12	752335	keystroke	r	n/a
376.4315	0.096	752863	keystroke	g	n/a
376.4715	0.0965	752943	keystroke	u	n/a
376.6555	0.168	753311	keystroke	e	n/a
376.8635	0.088	753727	keystroke	d	n/a
376.9755	0.136	753951	keystroke	Key.space	n/a
377.1755	0.072	754351	keystroke	l	n/a
377.2715	0.112	754543	keystroke	a	n/a
377.4075	0.088	754815	keystroke	m	n/a
377.6715	0.096	755343	keystroke	b	n/a
377.84	0.1195	755680	keystroke	d	n/a
377.9515	0.1115	755903	keystroke	a	n/a
378.103	0.112	756206	keystroke	Key.space	n/a
378.3355	0.0955	756671	keystroke	s	n/a
378.6315	0.1365	757263	keystroke	e	n/a
378.8555	0.0955	757711	keystroke	v	n/a
379.016	0.128	758032	keystroke	e	n/a
379.095	0.152	758190	keystroke	r	n/a
379.2955	0.0635	758591	keystroke	a	n/a
379.383	0.136	758766	keystroke	l	n/a
379.535	0.1765	759070	keystroke	Key.space	n/a
379.839	0.056	759678	keystroke	p	n/a
380.0875	0.0885	760175	keystroke	i	n/a
380.319	0.097	760638	keystroke	p	n/a
380.639	0.065	761278	keystroke	u	n/a
380.975	0.0725	761950	keystroke	Key.backspace	n/a
381.135	0.0725	762270	keystroke	Key.backspace	n/a
381.327	0.0645	762654	keystroke	Key.backspace	n/a
381.8795	0.08	763759	keystroke	o	n/a
382.0235	0.112	764047	keystroke	p	n/a
382.3435	0.056	764687	keystroke	u	n/a
382.575	0.056	765150	keystroke	l	n/a
382.6155	0.128	765231	keystroke	a	n/a
382.7445	0.135	765489	keystroke	t	n/a
382.839	0.112	765678	keystroke	i	n/a
382.903	0.104	765806	keystroke	o	n/a
383.047	0.104	766094	keystroke	n	n/a
383.175	0.0805	766350	keystroke	s	n/a
383.6395	0.0715	767279	keystroke	Key.backspace	n/a
383.8795	0.072	767759	keystroke	Key.enter	n/a
383.9575	8.54	767915	prompt	n/a	tulsa development applying balanced\n
384.824	0.128	769648	keystroke	t	n/a
384.928	0.096	769856	keystroke	u	n/a
385.152	0.096	770304	keystroke	l	n/a
385.304	0.12	770608	keystroke	s	n/a
385.488	0.104	770976	keystroke	a	n/a
385.568	0.144	771136	keystroke	Key.space	n/a
385.888	0.152	771776	keystroke	d	n/a
386.04	0.152	772080	keystroke	e	n/a
386.328	0.08	772656	keystroke	l	n/a
386.76	0.072	773520	keystroke	Key.backspace	n/a
386.848	0.136	773696	keystroke	v	n/a
386.96	0.088	773920	keystroke	e	n/a
387.128	0.064	774256	keystroke	l	n/a
387.296	0.1525	774592	keystroke	o	n/a
387.4155	0.104	774831	keystroke	p	n/a
387.656	0.1195	775312	keystroke	m	n/a
387.7765	0.184	775553	keystroke	e	n/a
387.9125	0.12	775825	keystroke	n	n/a
388.016	0.1685	776032	keystroke	t	n/a
388.1915	0.1525	776383	keystroke	Key.space	n/a
388.352	0.12	776704	keystroke	a	n/a
388.408	0.088	776816	keystroke	p	n/a
388.5845	0.0795	777169	keystroke	p	n/a
388.8085	0.0715	777617	keystroke	l	n/a
389.208	0.072	778416	keystroke	i	n/a
389.528	0.064	779056	keystroke	Key.backspace	n/a
389.8165	0.063	779633	keystroke	u	n/a
390.432	0.08	780864	keystroke	Key.backspace	n/a
390.7685	0.0555	781537	keystroke	y	n/a
390.976	0.0565	781952	keystroke	i	n/a
391.152	0.088	782304	keystroke	n	n/a
391.2325	0.0955	782465	keystroke	g	n/a
391.288	0.1605	782576	keystroke	Key.space	n/a
391.472	0.1035	782944	keystroke	b	n/a
391.5765	0.128	783153	keystroke	a	n/a
391.7125	0.096	783425	keystroke	l	n/a
391.8165	0.1285	783633	keystroke	a	n/a
391.9525	0.103	783905	keystroke	n	n/a
392.0645	0.079	784129	keystroke	c	n/a
392.1365	0.184	784273	keystroke	e	n/a
392.3275	0.065	784655	keystroke	d	n/a
392.4245	0.0715	784849	keystroke	Key.enter	n/a
392.5005	5.8295	785001	prompt	n/a	shipment blast fighters largest\n
393.2245	0.144	786449	keystroke	s	n/a
393.304	0.1125	786608	keystroke	h	n/a
393.4	0.08	786800	keystroke	i	n/a
393.568	0.104	787136	keystroke	p	n/a
393.8	0.112	787600	keystroke	m	n/a
393.928	0.1445	787856	keystroke	e	n/a
394.0645	0.104	788129	keystroke	n	n/a
394.1605	0.16	788321	keystroke	t	n/a
394.3285	0.104	788657	keystroke	Key.space	n/a
394.5445	0.088	789089	keystroke	b	n/a
394.7525	0.1045	789505	keystroke	l	n/a
394.8405	0.176	789681	keystroke	a	n/a
394.9445	0.104	789889	keystroke	s	n/a
395.192	0.112	790384	keystroke	t	n/a
395.306	0.1185	790612	keystroke	Key.space	n/a
395.5285	0.08	791057	keystroke	f	n/a
395.6245	0.088	791249	keystroke	i	n/a
395.768	0.088	791536	keystroke	g	n/a
395.849	0.111	791698	keystroke	h	n/a
396.121	0.096	792242	keystroke	e	n/a
396.48	0.08	792960	keystroke	Key.backspace	n/a
396.545	0.135	793090	keystroke	t	n/a
396.664	0.1525	793328	keystroke	e	n/a
396.7605	0.1605	793521	keystroke	r	n/a
396.872	0.1445	793744	keystroke	s	n/a
397.024	0.1285	794048	keystroke	Key.space	n/a
397.2805	0.104	794561	keystroke	l	n/a
397.3605	0.096	794721	keystroke	a	n/a
397.4325	0.112	794865	keystroke	r	n/a
397.6645	0.128	795329	keystroke	g	n/a
397.8245	0.2	795649	keystroke	e	n/a
397.9925	0.104	795985	keystroke	s	n/a
398.032	0.169	796064	keystroke	t	n/a
398.192	0.1365	796384	keystroke	Key.enter	n/a
398.3335	10.8775	796667	prompt	n/a	'twas illinois friendly detector\n
399.872	0.089	799744	keystroke	'	n/a
400.2725	0.1435	800545	keystroke	t	n/a
400.5205	0.088	801041	keystroke	a	n/a
401.048	0.0805	802096	keystroke	w	n/a
401.2565	0.0645	802513	keystroke	Key.backspace	n/a
401.401	0.072	802802	keystroke	Key.backspace	n/a
401.577	0.04	803154	keystroke	Key.backspace	n/a
402.129	0.1685	804258	keystroke	t	n/a
402.289	0.1365	804578	keystroke	w	n/a
402.4165	0.144	804833	keystroke	a	n/a
402.537	0.104	805074	keystroke	s	n/a
402.6085	0.128	805217	keystroke	Key.space	n/a
403.1285	0.0645	806257	keystroke	i	n/a
403.3365	0.056	806673	keystroke	l	n/a
403.497	0.048	806994	keystroke	l	n/a
403.656	0.112	807312	keystroke	i	n/a
403.76	0.073	807520	keystroke	o	n/a
404.4725	0.064	808945	keystroke	Key.backspace	n/a
404.7775	0.1035	809555	keystroke	n	n/a
404.921	0.144	809842	keystroke	o	n/a
405.001	0.136	810002	keystroke	i	n/a
405.345	0.08	810690	keystroke	s	n/a
405.5205	0.136	811041	keystroke	Key.space	n/a
405.7685	0.08	811537	keystroke	f	n/a
405.9685	0.1685	811937	keystroke	r	n/a
406.249	0.0875	812498	keystroke	i	n/a
406.353	0.1115	812706	keystroke	e	n/a
406.4805	0.105	812961	keystroke	n	n/a
406.5855	0.111	813171	keystroke	d	n/a
406.7525	0.0805	813505	keystroke	l	n/a
406.9765	0.081	813953	keystroke	y	n/a
407.113	0.1355	814226	keystroke	Key.space	n/a
407.353	0.1045	814706	keystroke	d	n/a
407.4405	0.16	814881	keystroke	e	n/a
407.6645	0.056	815329	keystroke	c	n/a
407.9685	0.096	815937	keystroke	Key.backspace	n/a
408.0815	0.1275	816163	keystroke	t	n/a
408.257	0.16	816514	keystroke	e	n/a
408.473	0.08	816946	keystroke	c	n/a
408.713	0.112	817426	keystroke	t	n/a
408.7935	0.111	817587	keystroke	o	n/a
408.929	0.1355	817858	keystroke	r	n/a
409.129	0.08	818258	keystroke	Key.enter	n/a
409.215	5.6435	818430	prompt	n/a	officials thereafter thou gaps\n
409.7695	0.087	819539	keystroke	o	n/a
409.9845	0.073	819969	keystroke	f	n/a
410.145	0.0875	820290	keystroke	f	n/a
410.2485	0.0965	820497	keystroke	i	n/a
410.3845	0.1365	820769	keystroke	c	n/a
410.4565	0.088	820913	keystroke	i	n/a
410.6005	0.104	821201	keystroke	a	n/a
410.681	0.1195	821362	keystroke	l	n/a
410.8095	0.112	821619	keystroke	s	n/a
410.9285	0.144	821857	keystroke	Key.space	n/a
411.1205	0.136	822241	keystroke	t	n/a
411.2575	0.112	822515	keystroke	h	n/a
411.377	0.1445	822754	keystroke	e	n/a
411.513	0.144	823026	keystroke	r	n/a
411.617	0.128	823234	keystroke	e	n/a
411.849	0.0885	823698	keystroke	a	n/a
412.2095	0.0955	824419	keystroke	f	n/a
412.4575	0.12	824915	keystroke	t	n/a
412.5685	0.185	825137	keystroke	e	n/a
412.689	0.1195	825378	keystroke	r	n/a
412.7775	0.1275	825555	keystroke	Key.space	n/a
412.9215	0.1195	825843	keystroke	t	n/a
413.0015	0.1035	826003	keystroke	h	n/a
413.081	0.0725	826162	keystroke	o	n/a
413.2575	0.1275	826515	keystroke	u	n/a
413.3935	0.1275	826787	keystroke	Key.space	n/a
413.809	0.1205	827618	keystroke	g	n/a
413.961	0.112	827922	keystroke	a	n/a
414.113	0.104	828226	keystroke	p	n/a
414.2095	0.1035	828419	keystroke	s	n/a
414.7935	0.0635	829587	keystroke	Key.enter	n/a
414.862	9.533	829724	prompt	n/a	cambodia involved punch volkswagen\n
415.7695	0.1595	831539	keystroke	c	n/a
416.233	0.136	832466	keystroke	a	n/a
416.3535	0.1195	832707	keystroke	m	n/a
416.649	0.112	833298	keystroke	b	n/a
416.8655	0.1035	833731	keystroke	o	n/a
416.985	0.128	833970	keystroke	d	n/a
417.089	0.105	834178	keystroke	i	n/a
417.297	0.112	834594	keystroke	a	n/a
417.41	0.135	834820	keystroke	Key.space	n/a
417.585	0.0805	835170	keystroke	i	n/a
417.761	0.1205	835522	keystroke	n	n/a
418.001	0.12	836002	keystroke	o	n/a
418.4575	0.0635	836915	keystroke	Key.backspace	n/a
418.6095	0.096	837219	keystroke	v	n/a
418.809	0.0885	837618	keystroke	o	n/a
419.0575	0.0795	838115	keystroke	l	n/a
419.193	0.12	838386	keystroke	v	n/a
419.321	0.2325	838642	keystroke	e	n/a
419.4575	0.112	838915	keystroke	d	n/a
419.793	0.1355	839586	keystroke	Key.space	n/a
420.2885	0.08	840577	keystroke	p	n/a
420.513	0.0805	841026	keystroke	u	n/a
420.681	0.104	841362	keystroke	n	n/a
420.793	0.136	841586	keystroke	c	n/a
420.9135	0.1195	841827	keystroke	h	n/a
421.025	0.152	842050	keystroke	Key.space	n/a
421.2975	0.1035	842595	keystroke	v	n/a
421.4095	0.0315	842819	keystroke	o	n/a
421.737	0.0805	843474	keystroke	k	n/a
422.1765	0.08	844353	keystroke	Key.backspace	n/a
422.4885	0.1845	844977	keystroke	l	n/a
422.5935	0.1515	845187	keystroke	k	n/a
422.9045	0.185	845809	keystroke	s	n/a
423.369	0.1445	846738	keystroke	w	n/a
423.5375	0.103	847075	keystroke	a	n/a
423.7295	0.127	847459	keystroke	g	n/a
423.8975	0.1675	847795	keystroke	e	n/a
424.0175	0.104	848035	keystroke	n	n/a
424.297	0.096	848594	keystroke	Key.enter	n/a
424.3995	5.052	848799	prompt	n/a	make conversion rapids spending\n
425.209	0.1525	850418	keystroke	m	n/a
425.402	0.1115	850804	keystroke	a	n/a
425.5535	0.104	851107	keystroke	k	n/a
425.6495	0.136	851299	keystroke	e	n/a
425.7535	0.152	851507	keystroke	Key.space	n/a
426.0335	0.127	852067	keystroke	c	n/a
426.1295	0.088	852259	keystroke	o	n/a
426.2895	0.144	852579	keystroke	n	n/a
426.3935	0.127	852787	keystroke	v	n/a
426.5695	0.184	853139	keystroke	e	n/a
426.6975	0.152	853395	keystroke	r	n/a
426.8165	0.153	853633	keystroke	s	n/a
427.073	0.1285	854146	keystroke	i	n/a
427.161	0.1205	854322	keystroke	o	n/a
427.2655	0.168	854531	keystroke	n	n/a
427.3775	0.16	854755	keystroke	Key.space	n/a
427.5295	0.104	855059	keystroke	r	n/a
427.6415	0.12	855283	keystroke	a	n/a
427.7055	0.096	855411	keystroke	p	n/a
427.9455	0.112	855891	keystroke	i	n/a
428.0655	0.096	856131	keystroke	d	n/a
428.1935	0.12	856387	keystroke	s	n/a
428.2815	0.168	856563	keystroke	Key.space	n/a
428.4415	0.096	856883	keystroke	s	n/a
428.5535	0.112	857107	keystroke	p	n/a
428.6895	0.112	857379	keystroke	e	n/a
428.8335	0.12	857667	keystroke	n	n/a
428.9455	0.08	857891	keystroke	d	n/a
428.9935	0.136	857987	keystroke	i	n/a
429.0975	0.1035	858195	keystroke	n	n/a
429.202	0.127	858404	keystroke	g	n/a
429.3775	0.0715	858755	keystroke	Key.enter	n/a
429.455	7.9015	858910	prompt	n/a	complimentary lesser polymer logged\n
430.089	0.16	860178	keystroke	c	n/a
430.225	0.1205	860450	keystroke	o	n/a
430.4175	0.128	860835	keystroke	m	n/a
430.6415	0.167	861283	keystroke	p	n/a
430.9615	0.12	861923	keystroke	l	n/a
431.2565	0.104	862513	keystroke	i	n/a
431.5935	0.135	863187	keystroke	m	n/a
431.7455	0.1275	863491	keystroke	e	n/a
431.9135	0.112	863827	keystroke	n	n/a
432.0415	0.1835	864083	keystroke	t	n/a
432.377	0.144	864754	keystroke	a	n/a
432.489	0.12	864978	keystroke	r	n/a
432.585	0.12	865170	keystroke	y	n/a
432.713	0.12	865426	keystroke	Key.space	n/a
432.8975	0.1115	865795	keystroke	l	n/a
432.969	0.1675	865938	keystroke	e	n/a
433.0885	0.104	866177	keystroke	s	n/a
433.2815	0.127	866563	keystroke	s	n/a
433.4405	0.137	866881	keystroke	e	n/a
433.4965	0.192	866993	keystroke	r	n/a
433.6725	0.144	867345	keystroke	Key.space	n/a
433.8975	0.079	867795	keystroke	p	n/a
435.0735	0.08	870147	keystroke	o	n/a
435.2895	0.056	870579	keystroke	l	n/a
435.513	0.072	871026	keystroke	y	n/a
435.761	0.096	871522	keystroke	m	n/a
435.873	0.12	871746	keystroke	e	n/a
435.9295	0.1595	871859	keystroke	r	n/a
436.041	0.16	872082	keystroke	Key.space	n/a
436.3765	0.0485	872753	keystroke	l	n/a
436.5455	0.1035	873091	keystroke	o	n/a
436.601	0.096	873202	keystroke	g	n/a
436.7685	0.121	873537	keystroke	g	n/a
436.9295	0.168	873859	keystroke	e	n/a
437.0655	0.1115	874131	keystroke	d	n/a
437.257	0.096	874514	keystroke	Key.enter	n/a
437.3635	5.7355	874727	prompt	n/a	pendant sigma consult grows\n
438.0495	0.096	876099	keystroke	p	n/a
438.153	0.112	876306	keystroke	e	n/a
438.297	0.128	876594	keystroke	n	n/a
438.409	0.128	876818	keystroke	d	n/a
438.553	0.12	877106	keystroke	a	n/a
438.657	0.1115	877314	keystroke	n	n/a
438.7605	0.16	877521	keystroke	t	n/a
438.9125	0.144	877825	keystroke	Key.space	n/a
439.6325	0.105	879265	keystroke	s	n/a
439.6975	0.087	879395	keystroke	i	n/a
439.8405	0.168	879681	keystroke	g	n/a
440.233	0.08	880466	keystroke	m	n/a
440.361	0.08	880722	keystroke	a	n/a
440.481	0.144	880962	keystroke	Key.space	n/a
440.753	0.136	881506	keystroke	c	n/a
440.841	0.08	881682	keystroke	o	n/a
441.1695	0.1035	882339	keystroke	n	n/a
441.353	0.136	882706	keystroke	s	n/a
441.481	0.08	882962	keystroke	u	n/a
441.6965	0.112	883393	keystroke	l	n/a
441.7375	0.1835	883475	keystroke	t	n/a
441.889	0.1595	883778	keystroke	Key.space	n/a
442.1045	0.0965	884209	keystroke	g	n/a
442.321	0.128	884642	keystroke	r	n/a
442.4885	0.1205	884977	keystroke	o	n/a
442.6325	0.0885	885265	keystroke	w	n/a
442.8565	0.072	885713	keystroke	s	n/a
443.049	0.0475	886098	keystroke	Key.enter	n/a
443.103	7.0595	886206	prompt	n/a	attendance operator connecticut land\n
443.8165	0.056	887633	keystroke	a	n/a
443.9365	0.0965	887873	keystroke	t	n/a
444.104	0.1205	888208	keystroke	t	n/a
444.209	0.1525	888418	keystroke	e	n/a
444.3685	0.089	888737	keystroke	n	n/a
444.6405	0.144	889281	keystroke	a	n/a
444.8085	0.089	889617	keystroke	n	n/a
444.8975	0.1435	889795	keystroke	c	n/a
444.969	0.16	889938	keystroke	e	n/a
445.057	0.1675	890114	keystroke	Key.space	n/a
445.5925	0.145	891185	keystroke	o	n/a
445.7135	0.119	891427	keystroke	p	n/a
445.8565	0.152	891713	keystroke	e	n/a
445.9685	0.16	891937	keystroke	r	n/a
446.1845	0.128	892369	keystroke	a	n/a
446.313	0.112	892626	keystroke	t	n/a
446.5285	0.112	893057	keystroke	o	n/a
446.625	0.1275	893250	keystroke	r	n/a
446.7445	0.136	893489	keystroke	Key.space	n/a
447.0165	0.1125	894033	keystroke	c	n/a
447.4165	0.088	894833	keystroke	o	n/a
447.6645	0.08	895329	keystroke	n	n/a
447.833	0.0955	895666	keystroke	n	n/a
448.0245	0.1605	896049	keystroke	e	n/a
448.201	0.136	896402	keystroke	c	n/a
448.577	0.136	897154	keystroke	t	n/a
448.7845	0.072	897569	keystroke	i	n/a
448.969	0.104	897938	keystroke	c	n/a
449.073	0.12	898146	keystroke	u	n/a
449.297	0.184	898594	keystroke	t	n/a
449.385	0.144	898770	keystroke	Key.space	n/a
449.5615	0.0715	899123	keystroke	l	n/a
449.633	0.136	899266	keystroke	a	n/a
449.737	0.12	899474	keystroke	n	n/a
449.849	0.104	899698	keystroke	d	n/a
450.073	0.088	900146	keystroke	Key.enter	n/a
450.1665	6.8925	900333	prompt	n/a	program checkout anybody sans\n
450.833	0.112	901666	keystroke	p	n/a
450.937	0.12	901874	keystroke	r	n/a
451.033	0.104	902066	keystroke	o	n/a
451.337	0.112	902674	keystroke	g	n/a
451.577	0.1445	903154	keystroke	r	n/a
451.681	0.16	903362	keystroke	a	n/a
451.857	0.128	903714	keystroke	m	n/a
452.025	0.159	904050	keystroke	Key.space	n/a
452.353	0.064	904706	keystroke	h	n/a
452.6325	0.0885	905265	keystroke	Key.backspace	n/a
452.7215	0.1355	905443	keystroke	c	n/a
452.952	0.121	905904	keystroke	h	n/a
453.065	0.159	906130	keystroke	e	n/a
453.2085	0.104	906417	keystroke	c	n/a
453.344	0.088	906688	keystroke	k	n/a
453.625	0.0405	907250	keystroke	o	n/a
453.736	0.0725	907472	keystroke	u	n/a
453.857	0.128	907714	keystroke	t	n/a
454.1765	0.1595	908353	keystroke	Key.space	n/a
454.376	0.104	908752	keystroke	a	n/a
454.489	0.047	908978	keystroke	n	n/a
454.64	0.104	909280	keystroke	y	n/a
454.856	0.088	909712	keystroke	b	n/a
455.032	0.113	910064	keystroke	o	n/a
455.2085	0.0885	910417	keystroke	d	n/a
455.2725	0.12	910545	keystroke	y	n/a
455.3765	0.144	910753	keystroke	Key.space	n/a
455.6245	0.112	911249	keystroke	s	n/a
455.7925	0.048	911585	keystroke	a	n/a
455.8245	0.104	911649	keystroke	n	n/a
455.9125	0.088	911825	keystroke	a	n/a
456.0245	0.1275	912049	keystroke	s	n/a
456.5525	0.0555	913105	keystroke	Key.backspace	n/a
456.688	0.096	913376	keystroke	Key.backspace	n/a
456.817	0.104	913634	keystroke	s	n/a
456.9685	0.0875	913937	keystroke	Key.enter	n/a
457.063	8.1485	914126	prompt	n/a	alloy assignments returning snake\n
457.5935	0.095	915187	keystroke	a	n/a
457.6725	0.064	915345	keystroke	l	n/a
457.865	0.031	915730	keystroke	l	n/a
458.0165	0.072	916033	keystroke	o	n/a
458.4885	0.112	916977	keystroke	y	n/a
458.6405	0.128	917281	keystroke	Key.space	n/a
458.7925	0.112	917585	keystroke	a	n/a
458.8885	0.0805	917777	keystroke	s	n/a
459.057	0.08	918114	keystroke	s	n/a
459.1445	0.104	918289	keystroke	i	n/a
459.385	0.135	918770	keystroke	g	n/a
459.504	0.097	919008	keystroke	n	n/a
459.785	0.079	919570	keystroke	m	n/a
459.896	0.113	919792	keystroke	e	n/a
459.993	0.119	919986	keystroke	n	n/a
460.08	0.161	920160	keystroke	t	n/a
460.185	0.144	920370	keystroke	s	n/a
460.304	0.1285	920608	keystroke	Key.space	n/a
460.561	0.136	921122	keystroke	r	n/a
460.801	0.1595	921602	keystroke	t	n/a
461.4725	0.136	922945	keystroke	e	n/a
461.6725	0.056	923345	keystroke	Key.backspace	n/a
461.8485	0.056	923697	keystroke	Key.backspace	n/a
462.0565	0.1275	924113	keystroke	e	n/a
462.2725	0.112	924545	keystroke	t	n/a
462.4005	0.08	924801	keystroke	u	n/a
462.545	0.0955	925090	keystroke	r	n/a
462.697	0.0635	925394	keystroke	n	n/a
462.8245	0.12	925649	keystroke	i	n/a
462.9365	0.088	925873	keystroke	n	n/a
463.0165	0.144	926033	keystroke	g	n/a
463.1765	0.16	926353	keystroke	Key.space	n/a
463.456	0.137	926912	keystroke	s	n/a
463.664	0.112	927328	keystroke	n	n/a
463.784	0.104	927568	keystroke	a	n/a
463.905	0.119	927810	keystroke	k	n/a
464	0.1845	928000	keystroke	e	n/a
465.016	0.192	930032	keystroke	Key.enter	n/a
465.222	8.548	930444	prompt	n/a	approximately street sizes preston\n
465.8005	0.12	931601	keystroke	a	n/a
465.921	0.088	931842	keystroke	p	n/a
466.0885	0.0875	932177	keystroke	p	n/a
466.208	0.1525	932416	keystroke	r	n/a
466.304	0.112	932608	keystroke	o	n/a
466.584	0.12	933168	keystroke	x	n/a
466.705	0.079	933410	keystroke	i	n/a
466.928	0.104	933856	keystroke	m	n/a
467.0565	0.112	934113	keystroke	a	n/a
467.232	0.1045	934464	keystroke	t	n/a
467.2955	0.16	934591	keystroke	e	n/a
467.6085	0.0955	935217	keystroke	s	n/a
467.728	0.1125	935456	keystroke	Key.space	n/a
468.1205	0.064	936241	keystroke	Key.backspace	n/a
468.28	0.064	936560	keystroke	Key.backspace	n/a
468.536	0.104	937072	keystroke	l	n/a
468.648	0.1285	937296	keystroke	t	n/a
468.656	0.128	937312	keystroke	y	n/a
469.304	0.056	938608	keystroke	Key.backspace	n/a
469.448	0.08	938896	keystroke	Key.backspace	n/a
469.84	0.0645	939680	keystroke	y	n/a
470.2005	0.1275	940401	keystroke	Key.space	n/a
470.3205	0.079	940641	keystroke	s	n/a
470.4475	0.121	940895	keystroke	t	n/a
470.6965	0.128	941393	keystroke	r	n/a
470.7605	0.12	941521	keystroke	e	n/a
470.9525	0.104	941905	keystroke	e	n/a
471.1365	0.12	942273	keystroke	t	n/a
471.2965	0.104	942593	keystroke	Key.space	n/a
471.5285	0.0795	943057	keystroke	s	n/a
471.9755	0.064	943951	keystroke	i	n/a
472.1765	0.128	944353	keystroke	z	n/a
472.3435	0.1845	944687	keystroke	e	n/a
472.4805	0.096	944961	keystroke	s	n/a
472.656	0.12	945312	keystroke	Key.space	n/a
472.8485	0.112	945697	keystroke	p	n/a
472.9675	0.137	945935	keystroke	r	n/a
473.0085	0.208	946017	keystroke	e	n/a
473.1355	0.137	946271	keystroke	s	n/a
473.2475	0.145	946495	keystroke	t	n/a
473.3205	0.144	946641	keystroke	o	n/a
473.4565	0.112	946913	keystroke	n	n/a
473.7115	0.056	947423	keystroke	Key.enter	n/a
473.7735	6.044	947547	prompt	n/a	colombia accurate prices boot\n
474.4645	0.104	948929	keystroke	c	n/a
474.617	0.087	949234	keystroke	o	n/a
474.816	0.0805	949632	keystroke	l	n/a
475.0005	0.096	950001	keystroke	o	n/a
475.417	0.112	950834	keystroke	m	n/a
475.7285	0.096	951457	keystroke	b	n/a
475.9205	0.112	951841	keystroke	i	n/a
476.04	0.128	952080	keystroke	a	n/a
476.16	0.1445	952320	keystroke	Key.space	n/a
476.305	0.1275	952610	keystroke	a	n/a
476.512	0.2645	953024	keystroke	c	n/a
477.072	0.0965	954144	keystroke	c	n/a
477.16	0.1045	954320	keystroke	u	n/a
477.416	0.0965	954832	keystroke	r	n/a
477.528	0.0885	955056	keystroke	a	n/a
477.6885	0.1035	955377	keystroke	t	n/a
477.7445	0.1195	955489	keystroke	e	n/a
477.8885	0.127	955777	keystroke	Key.space	n/a
478.1045	0.095	956209	keystroke	p	n/a
478.216	0.088	956432	keystroke	r	n/a
478.3515	0.088	956703	keystroke	i	n/a
478.5035	0.177	957007	keystroke	c	n/a
478.6245	0.1195	957249	keystroke	e	n/a
478.688	0.1525	957376	keystroke	s	n/a
478.8325	0.1515	957665	keystroke	Key.space	n/a
479.0565	0.096	958113	keystroke	b	n/a
479.2725	0.0875	958545	keystroke	o	n/a
479.44	0.104	958880	keystroke	o	n/a
479.48	0.1845	958960	keystroke	t	n/a
479.736	0.08	959472	keystroke	Key.enter	n/a
479.8215	4.876	959643	prompt	n/a	animals ethics agents nice\n
480.576	0.112	961152	keystroke	a	n/a
480.656	0.1035	961312	keystroke	n	n/a
480.8325	0.0955	961665	keystroke	i	n/a
481.0485	0.1435	962097	keystroke	m	n/a
481.2075	0.096	962415	keystroke	a	n/a
481.2795	0.1365	962559	keystroke	l	n/a
481.4395	0.088	962879	keystroke	s	n/a
481.6075	0.1125	963215	keystroke	Key.space	n/a
481.8965	0.127	963793	keystroke	e	n/a
482.048	0.144	964096	keystroke	t	n/a
482.0955	0.1205	964191	keystroke	h	n/a
482.3685	0.088	964737	keystroke	i	n/a
482.4475	0.137	964895	keystroke	c	n/a
482.7045	0.08	965409	keystroke	s	n/a
482.8	0.128	965600	keystroke	Key.space	n/a
482.992	0.136	965984	keystroke	a	n/a
483.2645	0.0875	966529	keystroke	g	n/a
483.3755	0.145	966751	keystroke	e	n/a
483.504	0.128	967008	keystroke	n	n/a
483.592	0.16	967184	keystroke	t	n/a
483.72	0.136	967440	keystroke	s	n/a
483.848	0.176	967696	keystroke	Key.space	n/a
484.088	0.104	968176	keystroke	n	n/a
484.248	0.1035	968496	keystroke	i	n/a
484.344	0.136	968688	keystroke	c	n/a
484.4155	0.1125	968831	keystroke	e	n/a
484.608	0.088	969216	keystroke	Key.enter	n/a
484.7015	6.228	969403	prompt	n/a	verify robots sync swimming\n
485.4565	0.1275	970913	keystroke	v	n/a
485.5915	0.1685	971183	keystroke	e	n/a
485.7115	0.1045	971423	keystroke	r	n/a
485.8315	0.096	971663	keystroke	i	n/a
485.9845	0.0955	971969	keystroke	f	n/a
486.104	0.096	972208	keystroke	y	n/a
486.272	0.144	972544	keystroke	Key.space	n/a
486.712	0.144	973424	keystroke	r	n/a
487.16	0.0805	974320	keystroke	o	n/a
487.368	0.096	974736	keystroke	b	n/a
487.5515	0.1205	975103	keystroke	o	n/a
487.664	0.16	975328	keystroke	t	n/a
487.856	0.16	975712	keystroke	s	n/a
488.048	0.096	976096	keystroke	Key.space	n/a
488.312	0.08	976624	keystroke	s	n/a
488.393	0.087	976786	keystroke	y	n/a
488.568	0.104	977136	keystroke	n	n/a
488.752	0.112	977504	keystroke	c	n/a
488.856	0.136	977712	keystroke	Key.space	n/a
489.12	0.1205	978240	keystroke	s	n/a
489.6085	0.055	979217	keystroke	w	n/a
489.9355	0.0805	979871	keystroke	i	n/a
490.1355	0.08	980271	keystroke	m	n/a
490.296	0.0955	980592	keystroke	m	n/a
490.4	0.1035	980800	keystroke	i	n/a
490.5595	0.112	981119	keystroke	n	n/a
490.6795	0.128	981359	keystroke	g	n/a
490.8555	0.072	981711	keystroke	Key.enter	n/a
490.934	9.8745	981868	prompt	n/a	buying acknowledged russia implemented\n
491.703	0.12	983406	keystroke	b	n/a
491.895	0.121	983790	keystroke	u	n/a
492.128	0.0795	984256	keystroke	y	n/a
492.5195	0.0805	985039	keystroke	i	n/a
492.663	0.112	985326	keystroke	n	n/a
492.8315	0.1195	985663	keystroke	g	n/a
492.919	0.128	985838	keystroke	Key.space	n/a
493.08	0.119	986160	keystroke	a	n/a
493.2795	0.1205	986559	keystroke	c	n/a
493.384	0.08	986768	keystroke	k	n/a
493.56	0.088	987120	keystroke	n	n/a
493.712	0.1115	987424	keystroke	o	n/a
494.0715	0.096	988143	keystroke	w	n/a
494.2315	0.0725	988463	keystroke	l	n/a
495.5995	0.1915	991199	keystroke	e	n/a
495.759	0.1045	991518	keystroke	d	n/a
496.024	0.1515	992048	keystroke	g	n/a
496.1355	0.176	992271	keystroke	e	n/a
496.2635	0.056	992527	keystroke	s	n/a
496.647	0.073	993294	keystroke	Key.backspace	n/a
496.935	0.104	993870	keystroke	d	n/a
497.2235	0.1435	994447	keystroke	Key.space	n/a
497.448	0.1355	994896	keystroke	r	n/a
497.6155	0.096	995231	keystroke	u	n/a
497.7275	0.08	995455	keystroke	s	n/a
497.9195	0.064	995839	keystroke	s	n/a
497.976	0.0955	995952	keystroke	i	n/a
498.1435	0.096	996287	keystroke	a	n/a
498.2555	0.128	996511	keystroke	Key.space	n/a
498.5035	0.064	997007	keystroke	i	n/a
498.6795	0.104	997359	keystroke	m	n/a
498.872	0.1275	997744	keystroke	p	n/a
499.152	0.072	998304	keystroke	l	n/a
499.344	0.08	998688	keystroke	e	n/a
499.7675	0.048	999535	keystroke	m	n/a
499.864	0.0945	999728	keystroke	e	n/a
500.1115	0.088	1000223	keystroke	n	n/a
500.256	0.1195	1000512	keystroke	t	n/a
500.3995	0.16	1000799	keystroke	e	n/a
500.5595	0.0885	1001119	keystroke	d	n/a
500.6945	0.113	1001389	keystroke	Key.enter	n/a
500.8115	4.6775	1001623	prompt	n/a	tooth light nice player\n
501.536	0.1035	1003072	keystroke	t	n/a
501.5835	0.072	1003167	keystroke	o	n/a
501.7515	0.072	1003503	keystroke	o	n/a
502.376	0.1195	1004752	keystroke	t	n/a
502.4555	0.112	1004911	keystroke	h	n/a
502.5835	0.144	1005167	keystroke	Key.space	n/a
502.7605	0.095	1005521	keystroke	l	n/a
502.927	0.096	1005854	keystroke	i	n/a
503.039	0.096	1006078	keystroke	g	n/a
503.1515	0.1195	1006303	keystroke	h	n/a
503.279	0.121	1006558	keystroke	t	n/a
503.359	0.1605	1006718	keystroke	Key.space	n/a
503.703	0.096	1007406	keystroke	n	n/a
503.847	0.1205	1007694	keystroke	i	n/a
503.8875	0.1755	1007775	keystroke	c	n/a
503.9915	0.1595	1007983	keystroke	e	n/a
504.079	0.144	1008158	keystroke	Key.space	n/a
504.2635	0.191	1008527	keystroke	p	n/a
504.3675	0.048	1008735	keystroke	l	n/a
504.9195	0.04	1009839	keystroke	a	n/a
504.9515	0.1275	1009903	keystroke	y	n/a
505.1515	0.0635	1010303	keystroke	e	n/a
505.1835	0.1515	1010367	keystroke	r	n/a
505.447	0.04	1010894	keystroke	Key.enter	n/a
505.493	6.9955	1010986	prompt	n/a	revolutionary looksmart assumption i\n
506.399	0.12	1012798	keystroke	r	n/a
506.503	0.0965	1013006	keystroke	e	n/a
506.695	0.096	1013390	keystroke	v	n/a
506.783	0.072	1013566	keystroke	o	n/a
506.9915	0.0715	1013983	keystroke	l	n/a
507.215	0.0715	1014430	keystroke	u	n/a
507.3505	0.1125	1014701	keystroke	t	n/a
507.4705	0.1285	1014941	keystroke	i	n/a
507.5585	0.104	1015117	keystroke	o	n/a
507.687	0.1195	1015374	keystroke	n	n/a
507.855	0.0965	1015710	keystroke	a	n/a
507.959	0.0965	1015918	keystroke	r	n/a
