onset	duration	sample	value	key	prompt_text
1.6295	11.573	3259	prompt	n/a	the quick brown fox jumps over a lazy dog\n
3.394	0.0285	6788	keystroke	t	n/a
3.407	0.0745	6814	keystroke	h	n/a
3.4975	0.1495	6995	keystroke	e	n/a
3.662	0.09	7324	keystroke	Key.space	n/a
4.157	0.1355	8314	keystroke	q	n/a
4.262	0.12	8524	keystroke	u	n/a
4.3375	0.0745	8675	keystroke	i	n/a
4.4425	0.1195	8885	keystroke	c	n/a
4.577	0.0605	9154	keystroke	k	n/a
4.7115	0.121	9423	keystroke	Key.space	n/a
5.357	0.0895	10714	keystroke	b	n/a
5.6125	0.0605	11225	keystroke	r	n/a
5.7025	0.1155	11405	keystroke	o	n/a
5.7905	0.1175	11581	keystroke	w	n/a
5.9525	0.105	11905	keystroke	n	n/a
6.1025	0.12	12205	keystroke	Key.space	n/a
6.6445	0.0895	13289	keystroke	f	n/a
6.7795	0.119	13559	keystroke	o	n/a
6.8695	0.15	13739	keystroke	x	n/a
7.0345	0.12	14069	keystroke	Key.space	n/a
8.099	0.1205	16198	keystroke	j	n/a
8.1595	0.105	16319	keystroke	u	n/a
8.3395	0.18	16679	keystroke	m	n/a
8.4745	0.1505	16949	keystroke	o	n/a
8.64	0.1495	17280	keystroke	s	n/a
8.7745	0.1645	17549	keystroke	Key.space	n/a
9.1045	0.045	18209	keystroke	Key.backspace	n/a
9.1195	0.015	18239	keystroke	=	n/a
9.2245	0.0745	18449	keystroke	Key.backspace	n/a
9.329	0.09	18658	keystroke	Key.backspace	n/a
9.54	0.0745	19080	keystroke	Key.backspace	n/a
10.1245	0.105	20249	keystroke	p	n/a
10.1845	0.15	20369	keystroke	s	n/a
10.3495	0.0745	20699	keystroke	Key.space	n/a
10.619	0.135	21238	keystroke	o	n/a
10.6945	0.12	21389	keystroke	v	n/a
10.8445	0.1795	21689	keystroke	e	n/a
10.9495	0.1495	21899	keystroke	r	n/a
11.084	0.1355	22168	keystroke	Key.space	n/a
11.2495	0.165	22499	keystroke	a	n/a
11.3845	0.12	22769	keystroke	Key.space	n/a
11.6845	0.135	23369	keystroke	l	n/a
11.7745	0.105	23549	keystroke	a	n/a
11.9845	0.105	23969	keystroke	z	n/a
12.2245	0.105	24449	keystroke	y	n/a
12.344	0.1055	24688	keystroke	Key.space	n/a
12.7345	0.1045	25469	keystroke	d	n/a
12.794	0.1055	25588	keystroke	o	n/a
13.004	0.0905	26008	keystroke	g	n/a
13.1095	0.09	26219	keystroke	Key.enter	n/a
13.2115	10.88	26423	prompt	n/a	serious violations pregnant speeds\n
13.8745	0.15	27749	keystroke	s	n/a
13.9945	0.135	27989	keystroke	e	n/a
14.099	0.151	28198	keystroke	r	n/a
14.2945	0.104	28589	keystroke	i	n/a
14.5195	0.09	29039	keystroke	o	n/a
14.774	0.1055	29548	keystroke	u	n/a
14.909	0.1205	29818	keystroke	s	n/a
15.209	0.12	30418	keystroke	Key.space	n/a
15.689	0.0755	31378	keystroke	v	n/a
16.1085	0.1205	32217	keystroke	i	n/a
16.304	0.12	32608	keystroke	o	n/a
16.5145	0.0905	33029	keystroke	l	n/a
16.589	0.1205	33178	keystroke	a	n/a
16.874	0.1205	33748	keystroke	t	n/a
17.0245	0.135	34049	keystroke	i	n/a
17.084	0.18	34168	keystroke	o	n/a
17.2195	0.105	34439	keystroke	n	n/a
17.339	0.18	34678	keystroke	s	n/a
17.5345	0.1345	35069	keystroke	Key.space	n/a
17.8495	0.12	35699	keystroke	p	n/a
18.074	0.1345	36148	keystroke	r	n/a
18.164	0.1055	36328	keystroke	e	n/a
18.4795	0.105	36959	keystroke	g	n/a
18.5995	0.0905	37199	keystroke	n	n/a
18.7495	0.1045	37499	keystroke	a	n/a
18.8095	0.0895	37619	keystroke	n	n/a
19.0045	0.09	38009	keystroke	t	n/a
19.8295	0.12	39659	keystroke	Key.space	n/a
20.8345	0.135	41669	keystroke	s	n/a
21.0595	0.09	42119	keystroke	p	n/a
21.209	0.1055	42418	keystroke	p	n/a
21.3745	0.1355	42749	keystroke	e	n/a
21.734	0.045	43468	keystroke	Key.backspace	n/a
21.8695	0.045	43739	keystroke	Key.backspace	n/a
21.9745	0.0595	43949	keystroke	Key.backspace	n/a
22.0495	0.1045	44099	keystroke	e	n/a
22.2295	0.12	44459	keystroke	e	n/a
22.6045	0.0745	45209	keystroke	Key.backspace	n/a
22.7545	0.1045	45509	keystroke	Key.backspace	n/a
23.2645	0.09	46529	keystroke	p	n/a
23.3845	0.09	46769	keystroke	e	n/a
23.5495	0.1045	47099	keystroke	e	n/a
23.7295	0.105	47459	keystroke	d	n/a
23.789	0.1355	47578	keystroke	s	n/a
23.984	0.1055	47968	keystroke	Key.enter	n/a
24.0965	10.2245	48193	prompt	n/a	generates banner travis seed\n
24.9595	0.09	49919	keystroke	g	n/a
25.0645	0.1345	50129	keystroke	e	n/a
25.185	0.1195	50370	keystroke	n	n/a
25.3495	0.1195	50699	keystroke	r	n/a
25.769	0.12	51538	keystroke	Key.backspace	n/a
25.844	0.15	51688	keystroke	e	n/a
25.9645	0.135	51929	keystroke	r	n/a
26.1145	0.1045	52229	keystroke	a	n/a
26.684	0.1055	53368	keystroke	t	n/a
26.7745	0.18	53549	keystroke	e	n/a
26.8645	0.15	53729	keystroke	s	n/a
27.0295	0.135	54059	keystroke	Key.space	n/a
27.479	0.061	54958	keystroke	n	n/a
27.7645	0.105	55529	keystroke	Key.backspace	n/a
28.0495	0.1045	56099	keystroke	b	n/a
28.094	0.1195	56188	keystroke	a	n/a
28.274	0.12	56548	keystroke	n	n/a
28.4255	0.119	56851	keystroke	n	n/a
28.559	0.1355	57118	keystroke	e	n/a
28.784	0.135	57568	keystroke	r	n/a
29.159	0.1355	58318	keystroke	Key.space	n/a
29.519	0.03	59038	keystroke	r	n/a
29.5345	0.09	59069	keystroke	t	n/a
29.6105	0.134	59221	keystroke	r	n/a
29.8195	0.1055	59639	keystroke	a	n/a
30.0295	0.0895	60059	keystroke	v	n/a
30.3145	0.09	60629	keystroke	Key.backspace	n/a
30.4795	0.044	60959	keystroke	Key.backspace	n/a
30.5995	0.059	61199	keystroke	Key.backspace	n/a
30.719	0.06	61438	keystroke	Key.backspace	n/a
30.8545	0.06	61709	keystroke	Key.backspace	n/a
30.9155	0.119	61831	keystroke	t	n/a
31.1545	0.06	62309	keystroke	r	n/a
31.529	0.1055	63058	keystroke	a	n/a
32.0845	0.09	64169	keystroke	v	n/a
32.2045	0.1195	64409	keystroke	i	n/a
32.325	0.074	64650	keystroke	s	n/a
32.699	0.1355	65398	keystroke	Key.space	n/a
32.9245	0.135	65849	keystroke	s	n/a
33.419	0.09	66838	keystroke	e	n/a
33.5995	0.1045	67199	keystroke	e	n/a
33.795	0.119	67590	keystroke	d	n/a
34.199	0.1205	68398	keystroke	Key.enter	n/a
34.3255	12.642	68651	prompt	n/a	accommodations laos occupations lectures\n
35.0395	0.09	70079	keystroke	a	n/a
35.249	0.075	70498	keystroke	c	n/a
35.4295	0.0445	70859	keystroke	c	n/a
35.489	0.1355	70978	keystroke	o	n/a
35.7445	0.165	71489	keystroke	m	n/a
35.894	0.1655	71788	keystroke	o	n/a
36.1945	0.1345	72389	keystroke	d	n/a
36.3595	0.105	72719	keystroke	a	n/a
36.7645	0.12	73529	keystroke	t	n/a
36.899	0.1805	73798	keystroke	i	n/a
36.9595	0.1945	73919	keystroke	o	n/a
37.08	0.104	74160	keystroke	n	n/a
37.2295	0.1195	74459	keystroke	s	n/a
37.5745	0.104	75149	keystroke	Key.space	n/a
37.9945	0.1345	75989	keystroke	l	n/a
38.0845	0.1195	76169	keystroke	a	n/a
38.234	0.1205	76468	keystroke	o	n/a
38.339	0.1505	76678	keystroke	s	n/a
38.504	0.12	77008	keystroke	Key.space	n/a
43.351	0.0285	86702	keystroke	o	n/a
43.4545	0.09	86909	keystroke	c	n/a
43.6495	0.105	87299	keystroke	c	n/a
43.7695	0.122	87539	keystroke	u	n/a
44.4445	0.0905	88889	keystroke	p	n/a
44.52	0.12	89040	keystroke	a	n/a
44.7745	0.1045	89549	keystroke	t	n/a
44.8345	0.135	89669	keystroke	i	n/a
44.909	0.195	89818	keystroke	o	n/a
45.0135	0.106	90027	keystroke	n	n/a
45.089	0.0895	90178	keystroke	s	n/a
45.2845	0.12	90569	keystroke	Key.space	n/a
45.7045	0.1195	91409	keystroke	l	n/a
45.7795	0.1045	91559	keystroke	e	n/a
46.0045	0.075	92009	keystroke	c	n/a
46.2145	0.105	92429	keystroke	t	n/a
46.3505	0.1035	92701	keystroke	u	n/a
46.425	0.1345	92850	keystroke	r	n/a
46.5145	0.165	93029	keystroke	e	n/a
46.6495	0.12	93299	keystroke	s	n/a
46.844	0.12	93688	keystroke	Key.enter	n/a
46.9715	13.4945	93943	prompt	n/a	related identifying renew bowl\n
47.654	0.0755	95308	keystroke	r	n/a
47.699	0.12	95398	keystroke	e	n/a
47.9245	0.105	95849	keystroke	l	n/a
47.9695	0.12	95939	keystroke	a	n/a
48.1945	0.09	96389	keystroke	t	n/a
48.3145	0.105	96629	keystroke	e	n/a
48.525	0.089	97050	keystroke	d	n/a
48.659	0.1065	97318	keystroke	Key.space	n/a
49.3945	0.1045	98789	keystroke	i	n/a
49.454	0.0755	98908	keystroke	d	n/a
49.6195	0.12	99239	keystroke	e	n/a
49.7695	0.105	99539	keystroke	n	n/a
50.339	0.105	100678	keystroke	t	n/a
51.2545	0.09	102509	keystroke	i	n/a
51.5845	0.105	103169	keystroke	f	n/a
51.855	0.1345	103710	keystroke	y	n/a
55.861	0.1185	111722	keystroke	i	n/a
55.874	0.1655	111748	keystroke	n	n/a
56.82	0.105	113640	keystroke	g	n/a
56.984	0.1205	113968	keystroke	Key.space	n/a
57.704	0.12	115408	keystroke	r	n/a
57.8095	0.1645	115619	keystroke	e	n/a
58.0945	0.1045	116189	keystroke	n	n/a
58.229	0.09	116458	keystroke	w	n/a
58.6345	0.1055	117269	keystroke	Key.backspace	n/a
58.7845	0.12	117569	keystroke	e	n/a
58.8895	0.1495	117779	keystroke	w	n/a
59.219	0.1505	118438	keystroke	Key.space	n/a
59.7605	0.0895	119521	keystroke	b	n/a
59.8795	0.12	119759	keystroke	o	n/a
59.9845	0.15	119969	keystroke	w	n/a
60.1195	0.1045	120239	keystroke	l	n/a
60.329	0.135	120658	keystroke	Key.enter	n/a
60.469	10.1385	120938	prompt	n/a	programmer connections incurred scotia\n
61.3345	0.09	122669	keystroke	p	n/a
61.3945	0.105	122789	keystroke	r	n/a
61.5145	0.135	123029	keystroke	o	n/a
61.8295	0.075	123659	keystroke	g	n/a
62.039	0.106	124078	keystroke	r	n/a
62.1745	0.089	124349	keystroke	a	n/a
62.2345	0.1045	124469	keystroke	m	n/a
62.414	0.1205	124828	keystroke	m	n/a
62.5945	0.1345	125189	keystroke	e	n/a
62.6695	0.1345	125339	keystroke	r	n/a
62.8945	0.105	125789	keystroke	Key.space	n/a
63.1795	0.1045	126359	keystroke	c	n/a
63.3445	0.1055	126689	keystroke	o	n/a
63.5845	0.075	127169	keystroke	n	n/a
63.719	0.1665	127438	keystroke	n	n/a
63.8395	0.135	127679	keystroke	e	n/a
64.0195	0.1205	128039	keystroke	c	n/a
64.274	0.12	128548	keystroke	t	n/a
64.4545	0.195	128909	keystroke	i	n/a
64.5145	0.225	129029	keystroke	o	n/a
64.62	0.1345	129240	keystroke	n	n/a
65.1	0.1345	130200	keystroke	s	n/a
65.339	0.1355	130678	keystroke	Key.space	n/a
65.744	0.1505	131488	keystroke	i	n/a
65.8345	0.135	131669	keystroke	n	n/a
66.1045	0.1045	132209	keystroke	c	n/a
67.4395	0.135	134879	keystroke	u	n/a
67.664	0.1205	135328	keystroke	r	n/a
67.8595	0.1195	135719	keystroke	r	n/a
68.0685	0.121	136137	keystroke	e	n/a
68.264	0.1355	136528	keystroke	d	n/a
68.459	0.1345	136918	keystroke	Key.space	n/a
68.94	0.1195	137880	keystroke	s	n/a
69.2095	0.135	138419	keystroke	c	n/a
69.3745	0.105	138749	keystroke	o	n/a
69.9595	0.09	139919	keystroke	t	n/a
70.0795	0.1355	140159	keystroke	i	n/a
70.1695	0.135	140339	keystroke	a	n/a
70.515	0.0895	141030	keystroke	Key.enter	n/a
70.6165	9.545	141233	prompt	n/a	adjusted stylus teens branches\n
71.3995	0.1195	142799	keystroke	a	n/a
71.535	0.119	143070	keystroke	d	n/a
72.2095	0.1345	144419	keystroke	j	n/a
72.2845	0.1355	144569	keystroke	u	n/a
72.7645	0.165	145529	keystroke	s	n/a
72.9305	0.104	145861	keystroke	t	n/a
73.32	0.134	146640	keystroke	e	n/a
73.529	0.1505	147058	keystroke	d	n/a
73.739	0.1205	147478	keystroke	Key.space	n/a
74.0545	0.135	148109	keystroke	s	n/a
74.296	0.1035	148592	keystroke	t	n/a
74.4895	0.09	148979	keystroke	y	n/a
74.6095	0.1205	149219	keystroke	l	n/a
74.9695	0.1045	149939	keystroke	u	n/a
75.1045	0.1495	150209	keystroke	s	n/a
75.285	0.1495	150570	keystroke	Key.space	n/a
75.989	0.091	151978	keystroke	t	n/a
76.11	0.1045	152220	keystroke	e	n/a
76.29	0.134	152580	keystroke	e	n/a
76.41	0.104	152820	keystroke	n	n/a
76.515	0.1795	153030	keystroke	s	n/a
76.739	0.136	153478	keystroke	Key.space	n/a
77.2795	0.09	154559	keystroke	b	n/a
77.31	0.1195	154620	keystroke	r	n/a
77.474	0.1505	154948	keystroke	a	n/a
78.06	0.1045	156120	keystroke	n	n/a
78.2095	0.12	156419	keystroke	c	n/a
78.345	0.1195	156690	keystroke	h	n/a
78.4495	0.21	156899	keystroke	e	n/a
78.75	0.1195	157500	keystroke	s	n/a
79.0645	0.12	158129	keystroke	Key.space	n/a
79.7695	0.12	159539	keystroke	Key.backspace	n/a
80.024	0.135	160048	keystroke	Key.enter	n/a
80.1655	6.1765	160331	prompt	n/a	inner added pull interested\n
80.9695	0.105	161939	keystroke	i	n/a
81.164	0.0755	162328	keystroke	n	n/a
81.2995	0.135	162599	keystroke	n	n/a
81.4045	0.15	162809	keystroke	e	n/a
81.4645	0.164	162929	keystroke	r	n/a
81.6295	0.105	163259	keystroke	Key.space	n/a
81.869	0.135	163738	keystroke	a	n/a
82.0195	0.09	164039	keystroke	d	n/a
82.2	0.0895	164400	keystroke	d	n/a
82.409	0.136	164818	keystroke	e	n/a
82.6045	0.1505	165209	keystroke	d	n/a
82.7995	0.135	165599	keystroke	Key.space	n/a
83.175	0.1195	166350	keystroke	p	n/a
83.474	0.1055	166948	keystroke	u	n/a
83.714	0.06	167428	keystroke	l	n/a
83.8495	0.12	167699	keystroke	l	n/a
84.0145	0.12	168029	keystroke	Key.space	n/a
84.285	0.179	168570	keystroke	i	n/a
84.4045	0.1355	168809	keystroke	n	n/a
84.5245	0.105	169049	keystroke	t	n/a
84.6745	0.165	169349	keystroke	e	n/a
84.7945	0.1495	169589	keystroke	r	n/a
84.959	0.1205	169918	keystroke	e	n/a
85.3795	0.105	170759	keystroke	s	n/a
85.7245	0.105	171449	keystroke	t	n/a
85.8145	0.1195	171629	keystroke	e	n/a
85.9945	0.1655	171989	keystroke	d	n/a
86.2045	0.134	172409	keystroke	Key.enter	n/a
86.3445	10.3625	172689	prompt	n/a	networking depot grenada consumer\n
87.2095	0.12	174419	keystroke	n	n/a
87.7035	0.121	175407	keystroke	e	n/a
87.914	0.1055	175828	keystroke	t	n/a
88.3795	0.135	176759	keystroke	w	n/a
88.4995	0.135	176999	keystroke	o	n/a
88.6195	0.105	177239	keystroke	r	n/a
88.7545	0.135	177509	keystroke	k	n/a
88.9945	0.1795	177989	keystroke	i	n/a
89.0545	0.1795	178109	keystroke	n	n/a
89.159	0.1065	178318	keystroke	g	n/a
89.444	0.105	178888	keystroke	Key.space	n/a
89.954	0.0605	179908	keystroke	d	n/a
90.1045	0.12	180209	keystroke	e	n/a
90.239	0.121	180478	keystroke	p	n/a
90.435	0.149	180870	keystroke	o	n/a
90.51	0.134	181020	keystroke	t	n/a
90.689	0.1205	181378	keystroke	Key.space	n/a
91.5445	0.105	183089	keystroke	g	n/a
91.6195	0.1805	183239	keystroke	r	n/a
91.7245	0.1505	183449	keystroke	e	n/a
92.4745	0.06	184949	keystroke	a	n/a
92.5945	0.105	185189	keystroke	n	n/a
92.879	0.0605	185758	keystroke	Key.backspace	n/a
93.0145	0.0895	186029	keystroke	Key.backspace	n/a
93.2395	0.1205	186479	keystroke	n	n/a
93.3445	0.105	186689	keystroke	a	n/a
93.6895	0.0905	187379	keystroke	d	n/a
93.7945	0.135	187589	keystroke	a	n/a
94.094	0.135	188188	keystroke	Key.space	n/a
94.6795	0.1195	189359	keystroke	c	n/a
94.829	0.121	189658	keystroke	o	n/a
95.1145	0.135	190229	keystroke	n	n/a
95.3695	0.1345	190739	keystroke	s	n/a
95.489	0.105	190978	keystroke	u	n/a
95.684	0.1355	191368	keystroke	m	n/a
95.8495	0.1645	191699	keystroke	e	n/a
95.9545	0.135	191909	keystroke	r	n/a
96.5545	0.15	193109	keystroke	Key.enter	n/a
96.711	18.4155	193422	prompt	n/a	charming consistency investigation satisfactory\n
97.65	0.089	195300	keystroke	c	n/a
97.8	0.1045	195600	keystroke	h	n/a
97.844	0.1355	195688	keystroke	a	n/a
97.9945	0.135	195989	keystroke	r	n/a
98.1145	0.105	196229	keystroke	m	n/a
98.3245	0.225	196649	keystroke	i	n/a
98.4445	0.134	196889	keystroke	n	n/a
98.5045	0.1205	197009	keystroke	g	n/a
99.194	0.166	198388	keystroke	Key.space	n/a
99.4795	0.12	198959	keystroke	c	n/a
99.5845	0.12	199169	keystroke	o	n/a
99.7645	0.165	199529	keystroke	n	n/a
99.899	0.1505	199798	keystroke	s	n/a
100.7545	0.135	201509	keystroke	i	n/a
102.2695	0.12	204539	keystroke	s	n/a
103.605	0.135	207210	keystroke	e	n/a
103.8435	0.106	207687	keystroke	n	n/a
104.0695	0.12	208139	keystroke	y	n/a
104.654	0.135	209308	keystroke	Key.backspace	n/a
104.774	0.15	209548	keystroke	s	n/a
104.909	0.135	209818	keystroke	t	n/a
105.3595	0.119	210719	keystroke	Key.backspace	n/a
105.434	0.135	210868	keystroke	y	n/a
106.0485	0.135	212097	keystroke	Key.space	n/a
106.5745	0.1345	213149	keystroke	i	n/a
106.6795	0.1045	213359	keystroke	n	n/a
106.7995	0.0905	213599	keystroke	v	n/a
106.9495	0.1645	213899	keystroke	e	n/a
107.069	0.1055	214138	keystroke	r	n/a
107.744	0.105	215488	keystroke	Key.backspace	n/a
107.789	0.1505	215578	keystroke	s	n/a
108.0895	0.1195	216179	keystroke	t	n/a
108.7645	0.12	217529	keystroke	i	n/a
108.9895	0.075	217979	keystroke	g	n/a
109.3345	0.1045	218669	keystroke	a	n/a
109.9195	0.12	219839	keystroke	t	n/a
110.0245	0.195	220049	keystroke	i	n/a
110.099	0.181	220198	keystroke	o	n/a
110.174	0.151	220348	keystroke	n	n/a
111.2545	0.12	222509	keystroke	Key.space	n/a
111.614	0.165	223228	keystroke	s	n/a
111.7045	0.12	223409	keystroke	a	n/a
112.0195	0.1195	224039	keystroke	t	n/a
112.6335	0.121	225267	keystroke	i	n/a
112.934	0.1055	225868	keystroke	s	n/a
113.5795	0.09	227159	keystroke	f	n/a
113.6995	0.09	227399	keystroke	a	n/a
113.805	0.12	227610	keystroke	c	n/a
114.074	0.0905	228148	keystroke	t	n/a
114.3445	0.135	228689	keystroke	o	n/a
114.629	0.0905	229258	keystroke	r	n/a
114.8245	0.105	229649	keystroke	y	n/a
114.989	0.135	229978	keystroke	Key.enter	n/a
115.1305	6.5805	230261	prompt	n/a	reflection theology shame favor\n
115.799	0.076	231598	keystroke	r	n/a
115.86	0.104	231720	keystroke	e	n/a
116.114	0.09	232228	keystroke	f	n/a
116.249	0.105	232498	keystroke	l	n/a
116.369	0.1205	232738	keystroke	e	n/a
116.5495	0.105	233099	keystroke	c	n/a
116.7745	0.1045	233549	keystroke	t	n/a
116.8195	0.1945	233639	keystroke	i	n/a
116.909	0.195	233818	keystroke	o	n/a
117.029	0.1355	234058	keystroke	n	n/a
117.224	0.1645	234448	keystroke	Key.space	n/a
117.5395	0.1045	235079	keystroke	t	n/a
117.7045	0.12	235409	keystroke	h	n/a
117.8095	0.105	235619	keystroke	e	n/a
118.1695	0.12	236339	keystroke	o	n/a
118.3635	0.076	236727	keystroke	l	n/a
118.4995	0.15	236999	keystroke	o	n/a
118.7695	0.09	237539	keystroke	g	n/a
118.964	0.1055	237928	keystroke	y	n/a
119.309	0.1195	238618	keystroke	Key.space	n/a
119.519	0.121	239038	keystroke	s	n/a
119.655	0.1045	239310	keystroke	h	n/a
119.744	0.1055	239488	keystroke	a	n/a
119.8645	0.135	239729	keystroke	m	n/a
119.969	0.1205	239938	keystroke	e	n/a
120.0745	0.1345	240149	keystroke	Key.space	n/a
120.359	0.09	240718	keystroke	f	n/a
120.509	0.105	241018	keystroke	a	n/a
120.704	0.0905	241408	keystroke	v	n/a
120.841	0.118	241682	keystroke	o	n/a
121.274	0.1055	242548	keystroke	r	n/a
121.589	0.12	243178	keystroke	Key.enter	n/a
121.7155	8.651	243431	prompt	n/a	skin should crest shoes\n
122.3695	0.105	244739	keystroke	s	n/a
122.5345	0.1195	245069	keystroke	k	n/a
122.699	0.1655	245398	keystroke	i	n/a
122.7745	0.1345	245549	keystroke	n	n/a
122.9695	0.135	245939	keystroke	Key.space	n/a
123.434	0.105	246868	keystroke	s	n/a
123.659	0.0755	247318	keystroke	o	n/a
123.674	0.0905	247348	keystroke	h	n/a
123.8995	0.1045	247799	keystroke	u	n/a
124.424	0.06	248848	keystroke	Key.backspace	n/a
124.589	0.0455	249178	keystroke	Key.backspace	n/a
124.7245	0.09	249449	keystroke	Key.backspace	n/a
125.369	0.1055	250738	keystroke	h	n/a
125.4445	0.0755	250889	keystroke	o	n/a
125.624	0.1055	251248	keystroke	u	n/a
125.8345	0.12	251669	keystroke	l	n/a
126.2095	0.105	252419	keystroke	d	n/a
126.4495	0.12	252899	keystroke	Key.space	n/a
127.0795	0.075	254159	keystroke	c	n/a
127.2895	0.12	254579	keystroke	r	n/a
127.3805	0.089	254761	keystroke	e	n/a
127.6345	0.1495	255269	keystroke	s	n/a
127.8295	0.1045	255659	keystroke	t	n/a
128.204	0.105	256408	keystroke	Key.space	n/a
128.579	0.105	257158	keystroke	s	n/a
128.8345	0.0745	257669	keystroke	h	n/a
128.8945	0.105	257789	keystroke	o	n/a
129.014	0.1655	258028	keystroke	e	n/a
129.164	0.1505	258328	keystroke	s	n/a
129.3585	0.1205	258717	keystroke	Key.space	n/a
129.9595	0.105	259919	keystroke	Key.backspace	n/a
130.2445	0.1195	260489	keystroke	Key.enter	n/a
130.3715	10.15	260743	prompt	n/a	cruise international compliance detected\n
131.1295	0.104	262259	keystroke	c	n/a
131.4745	0.1495	262949	keystroke	r	n/a
131.594	0.1505	263188	keystroke	u	n/a
131.6695	0.1195	263339	keystroke	i	n/a
131.729	0.196	263458	keystroke	s	n/a
131.849	0.165	263698	keystroke	e	n/a
132.0295	0.15	264059	keystroke	Key.space	n/a
132.435	0.2245	264870	keystroke	i	n/a
132.5545	0.134	265109	keystroke	n	n/a
132.6445	0.105	265289	keystroke	t	n/a
132.78	0.1495	265560	keystroke	e	n/a
132.87	0.1345	265740	keystroke	r	n/a
133.0195	0.1345	266039	keystroke	n	n/a
133.1395	0.1355	266279	keystroke	a	n/a
133.3495	0.134	266699	keystroke	t	n/a
133.4695	0.165	266939	keystroke	i	n/a
133.529	0.18	267058	keystroke	o	n/a
134.294	0.135	268588	keystroke	n	n/a
134.4	0.104	268800	keystroke	a	n/a
134.594	0.1355	269188	keystroke	l	n/a
134.7745	0.12	269549	keystroke	Key.space	n/a
135.044	0.1505	270088	keystroke	c	n/a
135.344	0.181	270688	keystroke	o	n/a
135.509	0.135	271018	keystroke	m	n/a
136.4095	0.0145	272819	keystroke	p	n/a
136.425	0.1195	272850	keystroke	l	n/a
136.6195	0.135	273239	keystroke	i	n/a
136.7095	0.1195	273419	keystroke	a	n/a
137.0245	0.105	274049	keystroke	n	n/a
137.1145	0.0895	274229	keystroke	c	n/a
137.189	0.136	274378	keystroke	e	n/a
137.6545	0.135	275309	keystroke	Key.space	n/a
137.9545	0.075	275909	keystroke	d	n/a
138.1345	0.06	276269	keystroke	e	n/a
138.2695	0.105	276539	keystroke	t	n/a
138.39	0.119	276780	keystroke	e	n/a
138.5845	0.1045	277169	keystroke	d	n/a
139.1245	0.105	278249	keystroke	Key.backspace	n/a
139.2595	0.135	278519	keystroke	c	n/a
139.544	0.076	279088	keystroke	t	n/a
139.649	0.12	279298	keystroke	e	n/a
139.874	0.12	279748	keystroke	d	n/a
140.3845	0.135	280769	keystroke	Key.enter	n/a
140.5265	8.4995	281053	prompt	n/a	sensors clients laundry defined\n
141.239	0.1355	282478	keystroke	s	n/a
141.3295	0.105	282659	keystroke	e	n/a
141.524	0.1205	283048	keystroke	n	n/a
142.1695	0.135	284339	keystroke	s	n/a
142.2445	0.12	284489	keystroke	e	n/a
142.4695	0.135	284939	keystroke	o	n/a
142.5445	0.12	285089	keystroke	r	n/a
142.7245	0.1505	285449	keystroke	s	n/a
143.0395	0.12	286079	keystroke	Key.space	n/a
143.4595	0.1045	286919	keystroke	c	n/a
143.639	0.075	287278	keystroke	l	n/a
143.8045	0.15	287609	keystroke	i	n/a
143.849	0.1205	287698	keystroke	e	n/a
144.0445	0.105	288089	keystroke	n	n/a
144.1045	0.1195	288209	keystroke	t	n/a
144.239	0.195	288478	keystroke	s	n/a
144.464	0.1045	288928	keystroke	Key.space	n/a
144.8845	0.105	289769	keystroke	l	n/a
144.99	0.1195	289980	keystroke	a	n/a
145.184	0.165	290368	keystroke	u	n/a
145.274	0.1205	290548	keystroke	n	n/a
145.5445	0.105	291089	keystroke	d	n/a
146.2045	0.1795	292409	keystroke	r	n/a
146.3995	0.1045	292799	keystroke	y	n/a
146.745	0.104	293490	keystroke	Key.space	n/a
147.059	0.075	294118	keystroke	d	n/a
147.21	0.134	294420	keystroke	e	n/a
147.51	0.1045	295020	keystroke	f	n/a
147.6	0.1195	295200	keystroke	i	n/a
147.7345	0.135	295469	keystroke	n	n/a
147.81	0.12	295620	keystroke	e	n/a
148.0195	0.1495	296039	keystroke	d	n/a
148.1845	0.1345	296369	keystroke	Key.space	n/a
148.8745	0.15	297749	keystroke	Key.enter	n/a
149.032	12.309	298064	prompt	n/a	depression likely initially innovation\n
149.6695	0.0605	299339	keystroke	d	n/a
149.805	0.1195	299610	keystroke	e	n/a
149.9695	0.1195	299939	keystroke	p	n/a
150.2545	0.1195	300509	keystroke	r	n/a
150.3295	0.12	300659	keystroke	e	n/a
150.4645	0.09	300929	keystroke	s	n/a
150.6445	0.135	301289	keystroke	s	n/a
150.7645	0.2405	301529	keystroke	i	n/a
150.8405	0.2235	301681	keystroke	o	n/a
150.9895	0.1495	301979	keystroke	n	n/a
151.3045	0.15	302609	keystroke	Key.space	n/a
151.605	0.1195	303210	keystroke	l	n/a
151.7845	0.12	303569	keystroke	i	n/a
151.95	0.165	303900	keystroke	k	n/a
152.0535	0.136	304107	keystroke	e	n/a
152.2045	0.1505	304409	keystroke	l	n/a
152.415	0.09	304830	keystroke	y	n/a
152.8195	0.135	305639	keystroke	Key.space	n/a
153.33	0.179	306660	keystroke	i	n/a
153.435	0.12	306870	keystroke	n	n/a
153.6595	0.1205	307319	keystroke	t	n/a
153.7495	0.15	307499	keystroke	i	n/a
154.41	0.074	308820	keystroke	Key.backspace	n/a
154.545	0.075	309090	keystroke	Key.backspace	n/a
154.725	0.15	309450	keystroke	o	n/a
154.74	0.12	309480	keystroke	i	n/a
154.845	0.105	309690	keystroke	t	n/a
155.01	0.12	310020	keystroke	i	n/a
155.399	0.0905	310798	keystroke	Key.backspace	n/a
155.5495	0.0595	311099	keystroke	Key.backspace	n/a
155.6845	0.09	311369	keystroke	Key.backspace	n/a
156.1195	0.045	312239	keystroke	Key.backspace	n/a
156.795	0.119	313590	keystroke	i	n/a
156.93	0.119	313860	keystroke	t	n/a
157.02	0.1345	314040	keystroke	i	n/a
157.199	0.106	314398	keystroke	a	n/a
157.425	0.104	314850	keystroke	l	n/a
157.59	0.1195	315180	keystroke	l	n/a
158.505	0.1045	317010	keystroke	y	n/a
158.8795	0.09	317759	keystroke	Key.space	n/a
159.4795	0.1345	318959	keystroke	i	n/a
159.5995	0.1195	319199	keystroke	n	n/a
159.7945	0.12	319589	keystroke	n	n/a
160.0345	0.12	320069	keystroke	o	n/a
160.2445	0.0755	320489	keystroke	v	n/a
160.3795	0.12	320759	keystroke	a	n/a
160.5745	0.12	321149	keystroke	t	n/a
160.6795	0.24	321359	keystroke	i	n/a
160.7395	0.2105	321479	keystroke	o	n/a
160.844	0.1655	321688	keystroke	n	n/a
161.2345	0.104	322469	keystroke	Key.enter	n/a
161.3465	7.36	322693	prompt	n/a	introduce mart thats wrapped\n
162.1945	0.165	324389	keystroke	i	n/a
162.2695	0.135	324539	keystroke	n	n/a
162.6145	0.09	325229	keystroke	t	n/a
162.84	0.1345	325680	keystroke	r	n/a
162.9895	0.15	325979	keystroke	o	n/a
163.2745	0.075	326549	keystroke	d	n/a
163.4395	0.105	326879	keystroke	u	n/a
163.575	0.1045	327150	keystroke	c	n/a
163.6645	0.135	327329	keystroke	e	n/a
164.1745	0.1515	328349	keystroke	Key.space	n/a
164.445	0.135	328890	keystroke	m	n/a
164.505	0.105	329010	keystroke	a	n/a
164.685	0.135	329370	keystroke	r	n/a
164.895	0.134	329790	keystroke	t	n/a
165.1345	0.1195	330269	keystroke	Key.space	n/a
165.54	0.089	331080	keystroke	t	n/a
165.66	0.075	331320	keystroke	h	n/a
165.7045	0.1055	331409	keystroke	a	n/a
165.93	0.1195	331860	keystroke	t	n/a
166.1995	0.1205	332399	keystroke	s	n/a
166.4245	0.105	332849	keystroke	Key.space	n/a
166.7995	0.1505	333599	keystroke	w	n/a
167.0095	0.1205	334019	keystroke	r	n/a
167.1445	0.135	334289	keystroke	a	n/a
167.4745	0.0295	334949	keystroke	p	n/a
167.684	0.0605	335368	keystroke	p	n/a
167.7295	0.105	335459	keystroke	e	n/a
167.9705	0.1035	335941	keystroke	d	n/a
168.5695	0.135	337139	keystroke	Key.enter	n/a
168.7195	13.1265	337439	prompt	n/a	charlotte neural packaging referred\n
169.5155	0.075	339031	keystroke	c	n/a
169.7395	0.12	339479	keystroke	h	n/a
169.8445	0.09	339689	keystroke	r	n/a
169.9795	0.105	339959	keystroke	a	n/a
170.7905	0.044	341581	keystroke	Key.backspace	n/a
170.9245	0.09	341849	keystroke	Key.backspace	n/a
171.0005	0.074	342001	keystroke	a	n/a
171.0605	0.1345	342121	keystroke	r	n/a
171.2695	0.1355	342539	keystroke	l	n/a
172.0795	0.12	344159	keystroke	o	n/a
172.275	0.09	344550	keystroke	t	n/a
172.44	0.105	344880	keystroke	t	n/a
172.604	0.15	345208	keystroke	e	n/a
172.7695	0.09	345539	keystroke	Key.space	n/a
173.3395	0.12	346679	keystroke	n	n/a
173.3845	0.12	346769	keystroke	e	n/a
173.654	0.1055	347308	keystroke	u	n/a
173.7445	0.165	347489	keystroke	r	n/a
173.9395	0.0905	347879	keystroke	a	n/a
174.104	0.121	348208	keystroke	l	n/a
174.33	0.1195	348660	keystroke	Key.space	n/a
174.6745	0.135	349349	keystroke	p	n/a
174.7195	0.1205	349439	keystroke	a	n/a
174.959	0.0915	349918	keystroke	c	n/a
175.17	0.1495	350340	keystroke	k	n/a
175.3045	0.15	350609	keystroke	a	n/a
175.92	0.03	351840	keystroke	g	n/a
175.98	0.1945	351960	keystroke	i	n/a
176.07	0.0595	352140	keystroke	u	n/a
176.16	0.164	352320	keystroke	n	n/a
176.7745	0.09	353549	keystroke	Key.backspace	n/a
176.9555	0.089	353911	keystroke	Key.backspace	n/a
177.105	0.119	354210	keystroke	g	n/a
177.54	0.1045	355080	keystroke	Key.backspace	n/a
178.0195	0.12	356039	keystroke	n	n/a
178.0645	0.165	356129	keystroke	g	n/a
178.2745	0.1355	356549	keystroke	Key.space	n/a
178.574	0.0905	357148	keystroke	r	n/a
178.6495	0.105	357299	keystroke	e	n/a
178.905	0.1045	357810	keystroke	f	n/a
179.1145	0.09	358229	keystroke	f	n/a
179.2805	0.1945	358561	keystroke	e	n/a
179.4295	0.135	358859	keystroke	r	n/a
180.764	0.0755	361528	keystroke	r	n/a
180.9445	0.1055	361889	keystroke	e	n/a
181.305	0.0145	362610	keystroke	d	n/a
181.71	0.1345	363420	keystroke	Key.enter	n/a
181.852	7.7945	363704	prompt	n/a	manual value variance funky\n
182.8645	0.135	365729	keystroke	m	n/a
182.9545	0.135	365909	keystroke	a	n/a
183.1195	0.1205	366239	keystroke	n	n/a
183.1795	0.1505	366359	keystroke	u	n/a
183.3445	0.1195	366689	keystroke	a	n/a
183.5245	0.15	367049	keystroke	l	n/a
183.8845	0.15	367769	keystroke	Key.space	n/a
184.3795	0.0445	368759	keystroke	v	n/a
184.5895	0.045	369179	keystroke	a	n/a
184.6195	0.09	369239	keystroke	l	n/a
184.8585	0.1355	369717	keystroke	u	n/a
184.9495	0.135	369899	keystroke	e	n/a
185.114	0.135	370228	keystroke	Key.space	n/a
186.1645	0.0595	372329	keystroke	v	n/a
186.299	0.1055	372598	keystroke	a	n/a
186.48	0.1345	372960	keystroke	r	n/a
186.5995	0.1495	373199	keystroke	i	n/a
186.6895	0.105	373379	keystroke	a	n/a
186.8545	0.105	373709	keystroke	n	n/a
187.0195	0.12	374039	keystroke	c	n/a
187.1245	0.1345	374249	keystroke	e	n/a
187.3795	0.135	374759	keystroke	Key.space	n/a
188.2945	0.12	376589	keystroke	f	n/a
188.3845	0.15	376769	keystroke	u	n/a
188.4745	0.15	376949	keystroke	n	n/a
188.6995	0.15	377399	keystroke	k	n/a
189.314	0.121	378628	keystroke	y	n/a
189.5395	0.105	379079	keystroke	Key.enter	n/a
189.65	13.0615	379300	prompt	n/a	moss instances affiliate hampton\n
190.4545	0.151	380909	keystroke	m	n/a
190.5445	0.165	381089	keystroke	o	n/a
190.6645	0.06	381329	keystroke	s	n/a
190.8145	0.1645	381629	keystroke	s	n/a
190.98	0.1195	381960	keystroke	Key.space	n/a
191.339	0.165	382678	keystroke	i	n/a
191.4745	0.1345	382949	keystroke	n	n/a
191.5945	0.1495	383189	keystroke	s	n/a
191.7305	0.119	383461	keystroke	t	n/a
192.225	0.1195	384450	keystroke	a	n/a
192.3745	0.135	384749	keystroke	n	n/a
192.614	0.1055	385228	keystroke	c	n/a
192.689	0.151	385378	keystroke	e	n/a
192.8995	0.15	385799	keystroke	s	n/a
193.1695	0.135	386339	keystroke	Key.space	n/a
193.4545	0.12	386909	keystroke	a	n/a
193.7395	0.09	387479	keystroke	f	n/a
194.0095	0.1055	388019	keystroke	i	n/a
194.4	0.0745	388800	keystroke	Key.backspace	n/a
194.535	0.105	389070	keystroke	f	n/a
194.655	0.1195	389310	keystroke	i	n/a
194.909	0.1355	389818	keystroke	l	n/a
195.1045	0.165	390209	keystroke	i	n/a
195.4945	0.09	390989	keystroke	t	n/a
195.7495	0.1345	391499	keystroke	a	n/a
196.6345	0.0745	393269	keystroke	t	n/a
196.679	0.1205	393358	keystroke	e	n/a
197.2495	0.0745	394499	keystroke	Key.backspace	n/a
197.399	0.0605	394798	keystroke	Key.backspace	n/a
197.5195	0.105	395039	keystroke	Key.backspace	n/a
198.3295	0.0895	396659	keystroke	Key.backspace	n/a
198.5545	0.105	397109	keystroke	a	n/a
198.7645	0.09	397529	keystroke	t	n/a
198.8395	0.1495	397679	keystroke	e	n/a
199.4245	0.12	398849	keystroke	Key.space	n/a
199.7845	0.105	399569	keystroke	h	n/a
199.8295	0.1195	399659	keystroke	a	n/a
200.069	0.151	400138	keystroke	m	n/a
200.1745	0.135	400349	keystroke	p	n/a
200.5795	0.1345	401159	keystroke	t	n/a
200.7445	0.1195	401489	keystroke	o	n/a
201.149	0.1355	402298	keystroke	n	n/a
201.299	0.12	402598	keystroke	s	n/a
202.3645	0.105	404729	keystroke	Key.backspace	n/a
202.6045	0.1055	405209	keystroke	Key.enter	n/a
202.716	8.7105	405432	prompt	n/a	continent settled ensures marker\n
203.49	0.1045	406980	keystroke	c	n/a
203.5645	0.12	407129	keystroke	o	n/a
203.8345	0.1345	407669	keystroke	n	n/a
204.7345	0.15	409469	keystroke	t	n/a
204.824	0.1505	409648	keystroke	i	n/a
204.9295	0.1495	409859	keystroke	n	n/a
205.214	0.0755	410428	keystroke	e	n/a
205.2295	0.105	410459	keystroke	n	n/a
205.8445	0.12	411689	keystroke	t	n/a
206.2795	0.09	412559	keystroke	Key.space	n/a
206.474	0.1655	412948	keystroke	s	n/a
206.6545	0.105	413309	keystroke	e	n/a
206.864	0.09	413728	keystroke	t	n/a
207.0295	0.12	414059	keystroke	t	n/a
207.164	0.1205	414328	keystroke	l	n/a
207.239	0.12	414478	keystroke	e	n/a
207.4195	0.1645	414839	keystroke	d	n/a
207.5995	0.135	415199	keystroke	Key.space	n/a
208.169	0.1205	416338	keystroke	e	n/a
208.2745	0.1505	416549	keystroke	n	n/a
208.53	0.12	417060	keystroke	s	n/a
208.635	0.1045	417270	keystroke	u	n/a
209.2645	0.1055	418529	keystroke	r	n/a
209.3395	0.15	418679	keystroke	e	n/a
209.5195	0.18	419039	keystroke	s	n/a
209.7295	0.1495	419459	keystroke	Key.space	n/a
210.1195	0.1345	420239	keystroke	m	n/a
210.1645	0.135	420329	keystroke	a	n/a
210.315	0.134	420630	keystroke	r	n/a
210.4645	0.15	420929	keystroke	k	n/a
210.584	0.09	421168	keystroke	e	n/a
211.049	0.1205	422098	keystroke	r	n/a
211.2895	0.1345	422579	keystroke	Key.enter	n/a
211.4305	8.4405	422861	prompt	n/a	airplane proven the motion\n
212.0845	0.105	424169	keystroke	a	n/a
212.4285	0.121	424857	keystroke	i	n/a
212.5795	0.105	425159	keystroke	r	n/a
212.6995	0.0905	425399	keystroke	p	n/a
213.929	0.0905	427858	keystroke	l	n/a
214.05	0.1195	428100	keystroke	a	n/a
214.1845	0.12	428369	keystroke	n	n/a
214.3195	0.12	428639	keystroke	e	n/a
214.4245	0.12	428849	keystroke	Key.space	n/a
214.7845	0.12	429569	keystroke	p	n/a
214.8595	0.15	429719	keystroke	r	n/a
214.9945	0.135	429989	keystroke	o	n/a
215.1435	0.1065	430287	keystroke	v	n/a
215.2195	0.1345	430439	keystroke	e	n/a
215.415	0.12	430830	keystroke	n	n/a
216.0745	0.12	432149	keystroke	Key.space	n/a
216.5245	0.1045	433049	keystroke	t	n/a
216.6445	0.1055	433289	keystroke	h	n/a
216.794	0.105	433588	keystroke	Key.space	n/a
217.5895	0.105	435179	keystroke	Key.backspace	n/a
217.7095	0.135	435419	keystroke	e	n/a
218.3545	0.1055	436709	keystroke	Key.space	n/a
218.744	0.1805	437488	keystroke	m	n/a
218.864	0.1805	437728	keystroke	o	n/a
219.1345	0.12	438269	keystroke	t	n/a
219.1945	0.18	438389	keystroke	i	n/a
219.2695	0.18	438539	keystroke	o	n/a
219.3755	0.134	438751	keystroke	n	n/a
219.7345	0.135	439469	keystroke	Key.enter	n/a
219.8755	8.936	439751	prompt	n/a	more fast trademark disposal\n
220.5745	0.1495	441149	keystroke	m	n/a
220.665	0.164	441330	keystroke	o	n/a
220.709	0.1055	441418	keystroke	r	n/a
220.769	0.1655	441538	keystroke	e	n/a
220.919	0.106	441838	keystroke	Key.space	n/a
221.339	0.0755	442678	keystroke	d	n/a
221.7295	0.1195	443459	keystroke	Key.backspace	n/a
221.8195	0.09	443639	keystroke	f	n/a
221.9245	0.1655	443849	keystroke	a	n/a
221.9995	0.15	443999	keystroke	s	n/a
222.2095	0.1195	444419	keystroke	t	n/a
222.404	0.1205	444808	keystroke	Key.space	n/a
222.854	0.1655	445708	keystroke	t	n/a
223.2295	0.0755	446459	keystroke	r	n/a
223.335	0.119	446670	keystroke	a	n/a
223.6045	0.09	447209	keystroke	d	n/a
223.799	0.0905	447598	keystroke	e	n/a
223.9195	0.105	447839	keystroke	m	n/a
224.069	0.0605	448138	keystroke	e	n/a
224.609	0.1055	449218	keystroke	Key.backspace	n/a
224.6845	0.135	449369	keystroke	a	n/a
225.2695	0.1045	450539	keystroke	r	n/a
225.4795	0.119	450959	keystroke	k	n/a
225.7335	0.1205	451467	keystroke	Key.space	n/a
225.989	0.1355	451978	keystroke	d	n/a
226.1995	0.12	452399	keystroke	i	n/a
226.335	0.1195	452670	keystroke	s	n/a
226.484	0.12	452968	keystroke	p	n/a
226.7995	0.15	453599	keystroke	o	n/a
227.0995	0.12	454199	keystroke	s	n/a
227.2945	0.075	454589	keystroke	a	n/a
227.4295	0.06	454859	keystroke	r	n/a
227.7885	0.061	455577	keystroke	Key.backspace	n/a
228.0145	0.12	456029	keystroke	l	n/a
228.6745	0.135	457349	keystroke	Key.enter	n/a
228.816	7.255	457632	prompt	n/a	male incidence verde gary\n
229.5745	0.09	459149	keystroke	m	n/a
229.6195	0.105	459239	keystroke	a	n/a
229.7395	0.105	459479	keystroke	k	n/a
229.8295	0.135	459659	keystroke	e	n/a
229.9495	0.12	459899	keystroke	Key.space	n/a
230.7595	0.164	461519	keystroke	i	n/a
230.864	0.1205	461728	keystroke	n	n/a
231.389	0.1205	462778	keystroke	c	n/a
231.4945	0.105	462989	keystroke	i	n/a
231.6745	0.105	463349	keystroke	d	n/a
232.0495	0.12	464099	keystroke	e	n/a
232.1705	0.104	464341	keystroke	n	n/a
232.3645	0.119	464729	keystroke	c	n/a
232.4695	0.119	464939	keystroke	e	n/a
232.9645	0.135	465929	keystroke	Key.space	n/a
233.2795	0.0305	466559	keystroke	v	n/a
233.5045	0.12	467009	keystroke	e	n/a
233.7445	0.105	467489	keystroke	r	n/a
234.014	0.06	468028	keystroke	d	n/a
234.2095	0.09	468419	keystroke	e	n/a
234.5245	0.105	469049	keystroke	Key.space	n/a
234.959	0.0905	469918	keystroke	g	n/a
235.1545	0.09	470309	keystroke	a	n/a
235.3345	0.105	470669	keystroke	r	n/a
235.815	0.0745	471630	keystroke	y	n/a
235.919	0.1505	471838	keystroke	Key.enter	n/a
236.0755	9.4305	472151	prompt	n/a	middle puzzles malpractice sick\n
236.909	0.15	473818	keystroke	m	n/a
237.0145	0.1355	474029	keystroke	i	n/a
237.105	0.09	474210	keystroke	d	n/a
237.284	0.075	474568	keystroke	d	n/a
237.374	0.135	474748	keystroke	l	n/a
237.4645	0.1645	474929	keystroke	e	n/a
237.63	0.119	475260	keystroke	Key.space	n/a
238.004	0.1055	476008	keystroke	p	n/a
238.259	0.12	476518	keystroke	u	n/a
238.364	0.091	476728	keystroke	z	n/a
238.5445	0.105	477089	keystroke	z	n/a
238.6345	0.165	477269	keystroke	l	n/a
238.7685	0.136	477537	keystroke	e	n/a
238.8895	0.18	477779	keystroke	s	n/a
239.1445	0.1495	478289	keystroke	Key.space	n/a
239.9095	0.12	479819	keystroke	m	n/a
239.9995	0.1345	479999	keystroke	a	n/a
240.1495	0.15	480299	keystroke	l	n/a
241.049	0.1655	482098	keystroke	p	n/a
241.139	0.105	482278	keystroke	r	n/a
241.289	0.105	482578	keystroke	a	n/a
241.544	0.105	483088	keystroke	c	n/a
242.174	0.1205	484348	keystroke	t	n/a
242.3395	0.12	484679	keystroke	i	n/a
242.5195	0.15	485039	keystroke	e	n/a
243.029	0.135	486058	keystroke	Key.space	n/a
243.195	0.119	486390	keystroke	s	n/a
243.299	0.12	486598	keystroke	i	n/a
243.4495	0.1345	486899	keystroke	c	n/a
243.6145	0.135	487229	keystroke	j	n/a
244.2145	0.0895	488429	keystroke	Key.backspace	n/a
244.349	0.12	488698	keystroke	Key.backspace	n/a
245.114	0.105	490228	keystroke	c	n/a
245.174	0.0905	490348	keystroke	k	n/a
245.369	0.1355	490738	keystroke	Key.enter	n/a
245.5105	15.1305	491021	prompt	n/a	accordingly paraguay requests characterized\n
246.39	0.1205	492780	keystroke	a	n/a
246.5845	0.06	493169	keystroke	c	n/a
246.7495	0.105	493499	keystroke	c	n/a
246.8095	0.12	493619	keystroke	o	n/a
247.3795	0.1055	494759	keystroke	r	n/a
247.7395	0.12	495479	keystroke	d	n/a
247.829	0.1355	495658	keystroke	i	n/a
248.0095	0.105	496019	keystroke	n	n/a
248.0845	0.134	496169	keystroke	g	n/a
248.2935	0.151	496587	keystroke	l	n/a
248.9395	0.09	497879	keystroke	y	n/a
249.4785	0.1205	498957	keystroke	Key.space	n/a
249.839	0.135	499678	keystroke	p	n/a
249.914	0.1355	499828	keystroke	a	n/a
250.0945	0.135	500189	keystroke	r	n/a
250.2445	0.1355	500489	keystroke	a	n/a
251.5645	0.0895	503129	keystroke	g	n/a
251.6245	0.1495	503249	keystroke	u	n/a
251.804	0.1355	503608	keystroke	a	n/a
252.074	0.136	504148	keystroke	y	n/a
252.7645	0.1045	505529	keystroke	Key.space	n/a
252.9745	0.1045	505949	keystroke	r	n/a
253.035	0.1345	506070	keystroke	e	n/a
253.23	0.1345	506460	keystroke	q	n/a
253.409	0.21	506818	keystroke	u	n/a
253.499	0.165	506998	keystroke	i	n/a
254.1445	0.09	508289	keystroke	Key.backspace	n/a
254.309	0.1655	508618	keystroke	e	n/a
254.519	0.1805	509038	keystroke	s	n/a
254.76	0.1045	509520	keystroke	t	n/a
255.0445	0.134	510089	keystroke	s	n/a
256.244	0.1355	512488	keystroke	Key.space	n/a
256.65	0.1195	513300	keystroke	c	n/a
256.8145	0.105	513629	keystroke	h	n/a
256.8745	0.135	513749	keystroke	a	n/a
257.0395	0.12	514079	keystroke	r	n/a
257.1605	0.149	514321	keystroke	a	n/a
257.895	0.104	515790	keystroke	c	n/a
258.3145	0.105	516629	keystroke	t	n/a
258.3895	0.166	516779	keystroke	e	n/a
259.769	0.09	519538	keystroke	r	n/a
259.829	0.1055	519658	keystroke	i	n/a
260.085	0.0895	520170	keystroke	e	n/a
260.3395	0.105	520679	keystroke	d	n/a
260.5045	0.135	521009	keystroke	Key.enter	n/a
260.646	8.606	521292	prompt	n/a	islam worcester julia acknowledge\n
261.5545	0.1045	523109	keystroke	i	n/a
261.674	0.0755	523348	keystroke	s	n/a
261.7945	0.12	523589	keystroke	l	n/a
261.9295	0.1045	523859	keystroke	a	n/a
262.02	0.1345	524040	keystroke	m	n/a
262.2145	0.12	524429	keystroke	Key.space	n/a
262.6045	0.12	525209	keystroke	w	n/a
262.7095	0.105	525419	keystroke	o	n/a
262.785	0.1195	525570	keystroke	r	n/a
263.0095	0.09	526019	keystroke	c	n/a
263.0845	0.18	526169	keystroke	e	n/a
263.266	0.1635	526532	keystroke	s	n/a
263.4305	0.1335	526861	keystroke	t	n/a
264.179	0.1795	528358	keystroke	e	n/a
264.299	0.1355	528598	keystroke	r	n/a
264.554	0.1205	529108	keystroke	Key.space	n/a
265.0795	0.12	530159	keystroke	j	n/a
265.124	0.105	530248	keystroke	u	n/a
265.3345	0.1045	530669	keystroke	l	n/a
265.484	0.18	530968	keystroke	i	n/a
265.575	0.1495	531150	keystroke	a	n/a
265.7095	0.1645	531419	keystroke	Key.space	n/a
266.0695	0.119	532139	keystroke	a	n/a
266.3545	0.12	532709	keystroke	c	n/a
266.4285	0.1505	532857	keystroke	k	n/a
267.329	0.1655	534658	keystroke	n	n/a
267.4495	0.135	534899	keystroke	o	n/a
267.4645	0.1215	534929	keystroke	w	n/a
267.7195	0.135	535439	keystroke	l	n/a
268.0195	0.15	536039	keystroke	e	n/a
268.47	0.1045	536940	keystroke	d	n/a
268.71	0.1195	537420	keystroke	g	n/a
268.7995	0.135	537599	keystroke	e	n/a
269.1135	0.1355	538227	keystroke	Key.enter	n/a
269.2565	12.0245	538513	prompt	n/a	sentences gods kidney hosted\n
269.9695	0.135	539939	keystroke	s	n/a
270.0445	0.1195	540089	keystroke	e	n/a
270.2095	0.1495	540419	keystroke	n	n/a
270.404	0.12	540808	keystroke	t	n/a
270.539	0.1355	541078	keystroke	e	n/a
270.749	0.165	541498	keystroke	n	n/a
271.3495	0.075	542699	keystroke	c	n/a
271.4095	0.135	542819	keystroke	e	n/a
271.5295	0.165	543059	keystroke	s	n/a
271.709	0.15	543418	keystroke	Key.space	n/a
272.2495	0.105	544499	keystroke	g	n/a
272.3245	0.135	544649	keystroke	o	n/a
272.4745	0.1195	544949	keystroke	s	n/a
272.909	0.1205	545818	keystroke	Key.backspace	n/a
272.954	0.1355	545908	keystroke	d	n/a
273.045	0.1345	546090	keystroke	s	n/a
273.195	0.1495	546390	keystroke	Key.space	n/a
273.8545	0.1345	547709	keystroke	k	n/a
273.899	0.18	547798	keystroke	i	n/a
274.1395	0.135	548279	keystroke	d	n/a
274.305	0.1335	548610	keystroke	n	n/a
274.455	0.18	548910	keystroke	e	n/a
274.665	0.134	549330	keystroke	t	n/a
275.354	0.105	550708	keystroke	Key.backspace	n/a
275.4445	0.1195	550889	keystroke	y	n/a
275.9545	0.12	551909	keystroke	Key.space	n/a
276.479	0.1505	552958	keystroke	j	n/a
276.8245	0.105	553649	keystroke	Key.backspace	n/a
277.1535	0.121	554307	keystroke	h	n/a
277.244	0.1055	554488	keystroke	o	n/a
277.2895	0.1645	554579	keystroke	s	n/a
277.469	0.1205	554938	keystroke	t	n/a
278.3995	0.135	556799	keystroke	t	n/a
278.5045	0.12	557009	keystroke	e	n/a
278.7445	0.135	557489	keystroke	d	n/a
279.1795	0.09	558359	keystroke	Key.backspace	n/a
279.3595	0.06	558719	keystroke	Key.backspace	n/a
279.479	0.1045	558958	keystroke	Key.backspace	n/a
279.6135	0.121	559227	keystroke	t	n/a
279.704	0.12	559408	keystroke	e	n/a
279.8995	0.1495	559799	keystroke	d	n/a
280.2895	0.0745	560579	keystroke	Key.backspace	n/a
280.454	0.0455	560908	keystroke	Key.backspace	n/a
280.574	0.0905	561148	keystroke	Key.backspace	n/a
280.62	0.1345	561240	keystroke	e	n/a
280.7995	0.149	561599	keystroke	d	n/a
281.1745	0.105	562349	keystroke	Key.enter	n/a
281.285	11.396	562570	prompt	n/a	supports preparing events automatically\n
282.374	0.121	564748	keystroke	s	n/a
282.464	0.1205	564928	keystroke	u	n/a
282.5245	0.1045	565049	keystroke	p	n/a
282.72	0.119	565440	keystroke	p	n/a
282.884	0.1505	565768	keystroke	o	n/a
283.0645	0.135	566129	keystroke	r	n/a
283.3495	0.105	566699	keystroke	t	n/a
283.4245	0.135	566849	keystroke	s	n/a
284.3535	0.1205	568707	keystroke	Key.space	n/a
284.835	0.074	569670	keystroke	p	n/a
284.865	0.1045	569730	keystroke	r	n/a
284.925	0.105	569850	keystroke	e	n/a
285.1195	0.1495	570239	keystroke	p	n/a
285.2545	0.105	570509	keystroke	a	n/a
285.929	0.1205	571858	keystroke	r	n/a
285.974	0.15	571948	keystroke	i	n/a
286.1545	0.12	572309	keystroke	n	n/a
286.229	0.0905	572458	keystroke	g	n/a
286.469	0.1355	572938	keystroke	Key.space	n/a
286.7845	0.1195	573569	keystroke	e	n/a
287.0245	0.075	574049	keystroke	v	n/a
287.0695	0.164	574139	keystroke	e	n/a
287.2645	0.09	574529	keystroke	n	n/a
287.309	0.1355	574618	keystroke	t	n/a
287.504	0.166	575008	keystroke	s	n/a
287.6995	0.1495	575399	keystroke	Key.space	n/a
288.1945	0.09	576389	keystroke	a	n/a
288.404	0.1205	576808	keystroke	u	n/a
288.584	0.1205	577168	keystroke	t	n/a
288.719	0.1195	577438	keystroke	o	n/a
288.989	0.135	577978	keystroke	m	n/a
289.064	0.1055	578128	keystroke	a	n/a
289.334	0.1205	578668	keystroke	t	n/a
289.455	0.1495	578910	keystroke	i	n/a
289.7545	0.0595	579509	keystroke	v	n/a
289.8895	0.0895	579779	keystroke	a	n/a
290.0555	0.1185	580111	keystroke	l	n/a
290.219	0.135	580438	keystroke	l	n/a
290.609	0.06	581218	keystroke	Key.backspace	n/a
290.7595	0.0445	581519	keystroke	Key.backspace	n/a
290.8645	0.075	581729	keystroke	Key.backspace	n/a
291.2385	0.105	582477	keystroke	Key.backspace	n/a
291.614	0.06	583228	keystroke	c	n/a
291.704	0.075	583408	keystroke	a	n/a
291.8535	0.06	583707	keystroke	l	n/a
291.989	0.12	583978	keystroke	l	n/a
292.169	0.105	584338	keystroke	y	n/a
292.574	0.105	585148	keystroke	Key.enter	n/a
292.689	7.9425	585378	prompt	n/a	stamp travelers linking mpeg\n
293.4295	0.1645	586859	keystroke	s	n/a
293.6095	0.0745	587219	keystroke	t	n/a
293.7885	0.1065	587577	keystroke	a	n/a
293.849	0.1805	587698	keystroke	m	n/a
294.0135	0.1205	588027	keystroke	p	n/a
294.254	0.12	588508	keystroke	Key.space	n/a
294.7345	0.1345	589469	keystroke	t	n/a
294.809	0.121	589618	keystroke	r	n/a
295.004	0.1055	590008	keystroke	a	n/a
295.2145	0.074	590429	keystroke	v	n/a
295.3185	0.135	590637	keystroke	e	n/a
295.469	0.15	590938	keystroke	l	n/a
295.604	0.1655	591208	keystroke	e	n/a
295.8445	0.1345	591689	keystroke	r	n/a
296.099	0.105	592198	keystroke	s	n/a
296.714	0.12	593428	keystroke	Key.space	n/a
297.1495	0.0745	594299	keystroke	l	n/a
297.299	0.1505	594598	keystroke	i	n/a
297.479	0.1055	594958	keystroke	n	n/a
298.1095	0.1045	596219	keystroke	k	n/a
298.3035	0.12	596607	keystroke	i	n/a
298.364	0.1355	596728	keystroke	n	n/a
298.484	0.0905	596968	keystroke	g	n/a
298.874	0.135	597748	keystroke	Key.space	n/a
299.294	0.1805	598588	keystroke	m	n/a
299.4295	0.1195	598859	keystroke	p	n/a
299.819	0.12	599638	keystroke	e	n/a
300.134	0.075	600268	keystroke	g	n/a
300.509	0.121	601018	keystroke	Key.enter	n/a
300.635	10.571	601270	prompt	n/a	wyoming tanks numerical offshore\n
301.799	0.09	603598	keystroke	w	n/a
302.069	0.09	604138	keystroke	y	n/a
302.159	0.135	604318	keystroke	o	n/a
303.914	0.15	607828	keystroke	i	n/a
304.0185	0.1205	608037	keystroke	n	n/a
304.095	0.09	608190	keystroke	g	n/a
304.32	0.1185	608640	keystroke	Key.space	n/a
305.115	0.089	610230	keystroke	t	n/a
305.2645	0.135	610529	keystroke	a	n/a
305.6085	0.166	611217	keystroke	n	n/a
305.7285	0.1505	611457	keystroke	k	n/a
305.864	0.1055	611728	keystroke	s	n/a
306.2535	0.1355	612507	keystroke	Key.space	n/a
306.779	0.1345	613558	keystroke	n	n/a
306.8545	0.09	613709	keystroke	u	n/a
307.0335	0.1355	614067	keystroke	m	n/a
307.094	0.165	614188	keystroke	e	n/a
307.17	0.149	614340	keystroke	r	n/a
307.334	0.135	614668	keystroke	i	n/a
307.424	0.105	614848	keystroke	a	n/a
308.0245	0.075	616049	keystroke	Key.backspace	n/a
308.2045	0.0745	616409	keystroke	c	n/a
308.295	0.119	616590	keystroke	a	n/a
308.399	0.12	616798	keystroke	l	n/a
309.0295	0.15	618059	keystroke	Key.space	n/a
309.3445	0.105	618689	keystroke	o	n/a
309.4635	0.075	618927	keystroke	f	n/a
309.6285	0.106	619257	keystroke	f	n/a
309.7645	0.12	619529	keystroke	s	n/a
309.9895	0.12	619979	keystroke	h	n/a
310.094	0.1055	620188	keystroke	o	n/a
310.379	0.1045	620758	keystroke	r	n/a
310.424	0.1345	620848	keystroke	e	n/a
311.0685	0.1355	622137	keystroke	Key.enter	n/a
311.213	7.1325	622426	prompt	n/a	result thereby spots sand\n
311.954	0.12	623908	keystroke	r	n/a
312.404	0.18	624808	keystroke	e	n/a
312.6595	0.15	625319	keystroke	s	n/a
312.824	0.105	625648	keystroke	u	n/a
313.0645	0.12	626129	keystroke	l	n/a
313.1545	0.105	626309	keystroke	t	n/a
313.3935	0.091	626787	keystroke	Key.space	n/a
313.7995	0.1055	627599	keystroke	t	n/a
313.9195	0.09	627839	keystroke	h	n/a
313.979	0.15	627958	keystroke	e	n/a
314.1145	0.165	628229	keystroke	r	n/a
314.264	0.1205	628528	keystroke	e	n/a
314.6545	0.1045	629309	keystroke	y	n/a
314.9845	0.1045	629969	keystroke	Key.backspace	n/a
315.014	0.09	630028	keystroke	b	n/a
315.224	0.105	630448	keystroke	y	n/a
315.7495	0.135	631499	keystroke	Key.space	n/a
315.96	0.1495	631920	keystroke	s	n/a
316.1385	0.106	632277	keystroke	p	n/a
316.3045	0.18	632609	keystroke	o	n/a
316.4245	0.09	632849	keystroke	t	n/a
316.5895	0.15	633179	keystroke	s	n/a
316.799	0.12	633598	keystroke	Key.space	n/a
317.534	0.2105	635068	keystroke	s	n/a
317.714	0.1045	635428	keystroke	a	n/a
317.8495	0.1195	635699	keystroke	n	n/a
317.984	0.1205	635968	keystroke	d	n/a
318.224	0.12	636448	keystroke	Key.enter	n/a
318.3495	17.728	636699	prompt	n/a	acoustic luis post navigation\n
318.9445	0.105	637889	keystroke	a	n/a
319.139	0.09	638278	keystroke	c	n/a
319.259	0.0755	638518	keystroke	o	n/a
319.4985	0.121	638997	keystroke	u	n/a
319.5295	0.075	639059	keystroke	t	n/a
319.6645	0.1645	639329	keystroke	s	n/a
319.7995	0.135	639599	keystroke	t	n/a
319.904	0.1355	639808	keystroke	i	n/a
320.114	0.0755	640228	keystroke	c	n/a
321.2245	0.1045	642449	keystroke	Key.space	n/a
322.184	0.075	644368	keystroke	l	n/a
322.409	0.15	644818	keystroke	u	n/a
322.484	0.165	644968	keystroke	i	n/a
322.574	0.1205	645148	keystroke	s	n/a
322.754	0.1355	645508	keystroke	Key.space	n/a
323.099	0.0445	646198	keystroke	[	n/a
323.1445	0.029	646289	keystroke	p	n/a
323.2495	0.1495	646499	keystroke	o	n/a
323.3235	0.1355	646647	keystroke	s	n/a
323.4445	0.119	646889	keystroke	t	n/a
323.684	0.105	647368	keystroke	Key.space	n/a
324.4795	0.0745	648959	keystroke	Key.backspace	n/a
324.629	0.06	649258	keystroke	Key.backspace	n/a
324.7645	0.06	649529	keystroke	Key.backspace	n/a
324.8845	0.0745	649769	keystroke	Key.backspace	n/a
325.0495	0.06	650099	keystroke	Key.backspace	n/a
325.1695	0.09	650339	keystroke	Key.backspace	n/a
326.429	0.09	652858	keystroke	Key.backspace	n/a
326.534	0.015	653068	keystroke	Key.backspace	n/a
326.6245	0.0445	653249	keystroke	Key.backspace	n/a
326.7745	0.06	653549	keystroke	Key.backspace	n/a
326.924	0.075	653848	keystroke	Key.backspace	n/a
327.089	0.075	654178	keystroke	Key.backspace	n/a
327.269	0.075	654538	keystroke	Key.backspace	n/a
327.4345	0.075	654869	keystroke	Key.backspace	n/a
327.5995	0.06	655199	keystroke	Key.backspace	n/a
327.7495	0.045	655499	keystroke	Key.backspace	n/a
327.8995	0.074	655799	keystroke	Key.backspace	n/a
328.1095	0.119	656219	keystroke	s	n/a
328.7695	0.105	657539	keystroke	t	n/a
328.8145	0.105	657629	keystroke	i	n/a
328.964	0.1205	657928	keystroke	c	n/a
329.129	0.15	658258	keystroke	Key.space	n/a
329.7445	0.105	659489	keystroke	l	n/a
330.254	0.12	660508	keystroke	u	n/a
330.2995	0.135	660599	keystroke	i	n/a
330.3895	0.1045	660779	keystroke	s	n/a
330.539	0.1355	661078	keystroke	Key.space	n/a
330.959	0.0905	661918	keystroke	p	n/a
331.11	0.149	662220	keystroke	o	n/a
331.2145	0.1355	662429	keystroke	s	n/a
331.319	0.1355	662638	keystroke	t	n/a
331.5595	0.1195	663119	keystroke	Key.space	n/a
332.7595	0.09	665519	keystroke	n	n/a
332.8345	0.12	665669	keystroke	a	n/a
333.3295	0.0895	666659	keystroke	v	n/a
333.42	0.12	666840	keystroke	i	n/a
334.094	0.075	668188	keystroke	g	n/a
334.4395	0.0295	668879	keystroke	t	n/a
334.8745	0.12	669749	keystroke	Key.backspace	n/a
334.9795	0.1195	669959	keystroke	a	n/a
335.2945	0.12	670589	keystroke	t	n/a
335.4285	0.1655	670857	keystroke	i	n/a
335.519	0.166	671038	keystroke	o	n/a
335.6695	0.1345	671339	keystroke	n	n/a
335.9545	0.12	671909	keystroke	Key.enter	n/a
336.083	6.7745	672166	prompt	n/a	by louis howdy browsers\n
337.065	0.134	674130	keystroke	b	n/a
337.1545	0.0595	674309	keystroke	y	n/a
337.2295	0.134	674459	keystroke	Key.space	n/a
337.7095	0.105	675419	keystroke	l	n/a
338.069	0.1055	676138	keystroke	u	n/a
338.294	0.1055	676588	keystroke	o	n/a
338.444	0.1355	676888	keystroke	i	n/a
338.5185	0.121	677037	keystroke	s	n/a
338.684	0.1355	677368	keystroke	Key.space	n/a
339.2695	0.0895	678539	keystroke	h	n/a
339.404	0.1205	678808	keystroke	o	n/a
339.4945	0.1345	678989	keystroke	w	n/a
339.7495	0.1505	679499	keystroke	d	n/a
339.9295	0.15	679859	keystroke	y	n/a
340.244	0.1345	680488	keystroke	Key.space	n/a
340.7245	0.075	681449	keystroke	b	n/a
340.9935	0.1355	681987	keystroke	r	n/a
341.175	0.1195	682350	keystroke	o	n/a
341.219	0.1205	682438	keystroke	w	n/a
341.444	0.15	682888	keystroke	s	n/a
341.999	0.165	683998	keystroke	e	n/a
342.209	0.15	684418	keystroke	r	n/a
342.374	0.1195	684748	keystroke	s	n/a
342.7185	0.1365	685437	keystroke	Key.enter	n/a
342.862	6.6695	685724	prompt	n/a	baseball amount locator nano\n
343.754	0.09	687508	keystroke	b	n/a
343.7995	0.1195	687599	keystroke	a	n/a
343.8745	0.1345	687749	keystroke	s	n/a
344.1445	0.12	688289	keystroke	e	n/a
344.715	0.0585	689430	keystroke	b	n/a
344.894	0.09	689788	keystroke	a	n/a
345.0145	0.074	690029	keystroke	l	n/a
345.179	0.091	690358	keystroke	l	n/a
345.3135	0.1355	690627	keystroke	Key.space	n/a
345.5845	0.1345	691169	keystroke	a	n/a
345.734	0.1345	691468	keystroke	m	n/a
345.824	0.1795	691648	keystroke	o	n/a
346.0645	0.2105	692129	keystroke	u	n/a
346.2145	0.1645	692429	keystroke	n	n/a
346.364	0.1505	692728	keystroke	t	n/a
346.5295	0.1355	693059	keystroke	Key.space	n/a
346.934	0.105	693868	keystroke	l	n/a
347.0995	0.165	694199	keystroke	o	n/a
347.2345	0.0745	694469	keystroke	c	n/a
347.3245	0.1195	694649	keystroke	a	n/a
347.549	0.106	695098	keystroke	t	n/a
347.639	0.1805	695278	keystroke	o	n/a
347.8045	0.134	695609	keystroke	r	n/a
348.2835	0.1205	696567	keystroke	Key.space	n/a
348.6595	0.1055	697319	keystroke	n	n/a
348.735	0.1045	697470	keystroke	a	n/a
348.8545	0.255	697709	keystroke	n	n/a
349.0945	0.119	698189	keystroke	o	n/a
349.4095	0.1195	698819	keystroke	Key.enter	n/a
349.5355	13.5555	699071	prompt	n/a	pendant characteristic sudan examining\n
350.43	0.119	700860	keystroke	p	n/a
350.5345	0.1495	701069	keystroke	e	n/a
350.654	0.1355	701308	keystroke	n	n/a
350.8495	0.135	701699	keystroke	d	n/a
350.97	0.1345	701940	keystroke	a	n/a
351.209	0.151	702418	keystroke	n	n/a
351.389	0.1055	702778	keystroke	t	n/a
351.8245	0.135	703649	keystroke	Key.space	n/a
352.2145	0.1195	704429	keystroke	c	n/a
352.3045	0.1195	704609	keystroke	h	n/a
352.409	0.135	704818	keystroke	a	n/a
352.604	0.1205	705208	keystroke	r	n/a
352.739	0.135	705478	keystroke	a	n/a
353.2045	0.1195	706409	keystroke	c	n/a
354.1795	0.09	708359	keystroke	t	n/a
354.2995	0.15	708599	keystroke	e	n/a
354.3745	0.1495	708749	keystroke	r	n/a
354.584	0.15	709168	keystroke	i	n/a
354.719	0.12	709438	keystroke	s	n/a
354.9745	0.12	709949	keystroke	c	n/a
355.484	0.1055	710968	keystroke	t	n/a
355.5605	0.134	711121	keystroke	i	n/a
355.7845	0.135	711569	keystroke	c	n/a
356.0695	0.135	712139	keystroke	Key.space	n/a
356.459	0.091	712918	keystroke	s	n/a
356.6545	0.1195	713309	keystroke	u	n/a
356.714	0.1205	713428	keystroke	d	n/a
356.819	0.1355	713638	keystroke	a	n/a
356.9695	0.135	713939	keystroke	n	n/a
357.1645	0.18	714329	keystroke	Key.space	n/a
357.8245	0.105	715649	keystroke	e	n/a
358.3785	0.1355	716757	keystroke	x	n/a
358.5445	0.1195	717089	keystroke	a	n/a
358.7845	0.1345	717569	keystroke	m	n/a
359.0695	0.1495	718139	keystroke	i	n/a
359.3095	0.465	718619	keystroke	n	n/a
359.4735	0.1205	718947	keystroke	i	n/a
359.4895	0.09	718979	keystroke	u	n/a
359.7895	0.105	719579	keystroke	g	n/a
360.1345	0.0895	720269	keystroke	Key.backspace	n/a
360.5395	0.135	721079	keystroke	n	n/a
360.6755	0.134	721351	keystroke	g	n/a
360.9135	0.0905	721827	keystroke	Key.backspace	n/a
361.0645	0.1345	722129	keystroke	Key.backspace	n/a
361.3495	0.12	722699	keystroke	n	n/a
361.4245	0.105	722849	keystroke	g	n/a
361.7395	0.089	723479	keystroke	Key.backspace	n/a
361.904	0.06	723808	keystroke	Key.backspace	n/a
362.024	0.105	724048	keystroke	Key.backspace	n/a
362.4	0.134	724800	keystroke	n	n/a
362.504	0.1205	725008	keystroke	g	n/a
362.9695	0.12	725939	keystroke	Key.enter	n/a
363.0955	15.116	726191	prompt	n/a	holidays supervisors suppose mysql\n
364.3055	0.1035	728611	keystroke	h	n/a
364.424	0.121	728848	keystroke	o	n/a
364.6195	0.0895	729239	keystroke	l	n/a
364.769	0.165	729538	keystroke	i	n/a
364.8595	0.15	729719	keystroke	d	n/a
364.9635	0.1205	729927	keystroke	a	n/a
365.639	0.1505	731278	keystroke	y	n/a
365.79	0.1345	731580	keystroke	s	n/a
365.909	0.15	731818	keystroke	Key.space	n/a
366.5395	0.1195	733079	keystroke	s	n/a
366.7945	0.1345	733589	keystroke	u	n/a
367.0495	0.1645	734099	keystroke	p	n/a
367.1535	0.1205	734307	keystroke	e	n/a
367.334	0.1645	734668	keystroke	r	n/a
369.0295	0.105	738059	keystroke	v	n/a
369.104	0.1055	738208	keystroke	i	n/a
369.2695	0.15	738539	keystroke	s	n/a
369.4045	0.1345	738809	keystroke	o	n/a
369.809	0.15	739618	keystroke	r	n/a
370.019	0.15	740038	keystroke	s	n/a
370.484	0.12	740968	keystroke	Key.space	n/a
371.1145	0.12	742229	keystroke	s	n/a
371.324	0.1055	742648	keystroke	u	n/a
371.5945	0.075	743189	keystroke	p	n/a
371.7445	0.105	743489	keystroke	p	n/a
371.8195	0.1795	743639	keystroke	e	n/a
372.4195	0.105	744839	keystroke	Key.backspace	n/a
372.9445	0.12	745889	keystroke	o	n/a
372.9895	0.135	745979	keystroke	s	n/a
373.0655	0.2095	746131	keystroke	e	n/a
373.289	0.15	746578	keystroke	Key.space	n/a
373.8895	0.1495	747779	keystroke	m	n/a
374.04	0.134	748080	keystroke	u	n/a
374.3395	0.075	748679	keystroke	s	n/a
374.5345	0.12	749069	keystroke	q	n/a
374.6695	0.134	749339	keystroke	l	n/a
375.0605	0.059	750121	keystroke	Key.backspace	n/a
375.1945	0.045	750389	keystroke	Key.backspace	n/a
375.2995	0.0895	750599	keystroke	Key.backspace	n/a
375.4045	0.1345	750809	keystroke	Key.backspace	n/a
376.229	0.0905	752458	keystroke	y	n/a
376.349	0.09	752698	keystroke	s	n/a
376.529	0.12	753058	keystroke	q	n/a
376.649	0.09	753298	keystroke	;	n/a
377.189	0.075	754378	keystroke	Key.backspace	n/a
377.9095	0.06	755819	keystroke	l	n/a
378.104	0.105	756208	keystroke	Key.enter	n/a
378.2145	10.1065	756429	prompt	n/a	complexity touring desired magnetic\n
379.019	0.105	758038	keystroke	c	n/a
379.094	0.1355	758188	keystroke	o	n/a
379.1985	0.136	758397	keystroke	m	n/a
379.4535	0.105	758907	keystroke	p	n/a
379.6335	0.136	759267	keystroke	l	n/a
379.7245	0.12	759449	keystroke	e	n/a
380.1295	0.0895	760259	keystroke	s	n/a
380.534	0.105	761068	keystroke	Key.backspace	n/a
380.609	0.105	761218	keystroke	x	n/a
381.314	0.075	762628	keystroke	i	n/a
381.509	0.1055	763018	keystroke	t	n/a
381.6735	0.135	763347	keystroke	y	n/a
382.214	0.12	764428	keystroke	Key.space	n/a
382.6795	0.135	765359	keystroke	t	n/a
382.7545	0.09	765509	keystroke	o	n/a
382.979	0.1055	765958	keystroke	u	n/a
383.25	0.1495	766500	keystroke	r	n/a
383.3845	0.195	766769	keystroke	i	n/a
383.4745	0.1345	766949	keystroke	n	n/a
383.5645	0.12	767129	keystroke	g	n/a
383.8335	0.12	767667	keystroke	Key.space	n/a
384.314	0.045	768628	keystroke	d	n/a
384.449	0.075	768898	keystroke	e	n/a
384.6445	0.12	769289	keystroke	s	n/a
384.7185	0.151	769437	keystroke	i	n/a
384.8705	0.059	769741	keystroke	d	n/a
385.05	0.089	770100	keystroke	e	n/a
385.3795	0.059	770759	keystroke	Key.backspace	n/a
385.4995	0.12	770999	keystroke	Key.backspace	n/a
385.65	0.119	771300	keystroke	r	n/a
385.7545	0.1045	771509	keystroke	e	n/a
385.949	0.1355	771898	keystroke	d	n/a
386.3395	0.1345	772679	keystroke	Key.space	n/a
386.6845	0.105	773369	keystroke	m	n/a
386.744	0.0745	773488	keystroke	a	n/a
386.999	0.075	773998	keystroke	g	n/a
387.089	0.105	774178	keystroke	n	n/a
387.164	0.1655	774328	keystroke	e	n/a
387.389	0.12	774778	keystroke	t	n/a
387.57	0.1195	775140	keystroke	i	n/a
387.8095	0.12	775619	keystroke	c	n/a
388.1985	0.12	776397	keystroke	Key.enter	n/a
388.326	10.555	776652	prompt	n/a	phys assignment review operated\n
389.9545	0.105	779909	keystroke	p	n/a
390.074	0.105	780148	keystroke	h	n/a
390.0885	0.136	780177	keystroke	y	n/a
390.3745	0.105	780749	keystroke	s	n/a
390.704	0.1205	781408	keystroke	Key.space	n/a
390.9295	0.1355	781859	keystroke	a	n/a
391.035	0.1345	782070	keystroke	s	n/a
391.2435	0.151	782487	keystroke	s	n/a
391.349	0.1645	782698	keystroke	i	n/a
391.5895	0.119	783179	keystroke	g	n/a
391.844	0.105	783688	keystroke	n	n/a
392.5495	0.1195	785099	keystroke	m	n/a
392.639	0.12	785278	keystroke	e	n/a
392.744	0.1355	785488	keystroke	n	n/a
392.8645	0.12	785729	keystroke	t	n/a
393.344	0.12	786688	keystroke	Key.space	n/a
393.9595	0.1195	787919	keystroke	r	n/a
394.004	0.1805	788008	keystroke	e	n/a
394.9045	0.09	789809	keystroke	v	n/a
395.1145	0.15	790229	keystroke	i	n/a
395.219	0.1805	790438	keystroke	e	n/a
395.339	0.105	790678	keystroke	w	n/a
396.599	0.1055	793198	keystroke	Key.space	n/a
396.839	0.0905	793678	keystroke	o	n/a
397.02	0.12	794040	keystroke	p	n/a
397.125	0.1195	794250	keystroke	e	n/a
397.844	0.12	795688	keystroke	r	n/a
397.979	0.1045	795958	keystroke	a	n/a
398.1895	0.105	796379	keystroke	t	n/a
398.2795	0.119	796559	keystroke	e	n/a
398.4595	0.1345	796919	keystroke	d	n/a
398.729	0.1495	797458	keystroke	Key.enter	n/a
398.8845	12.221	797769	prompt	n/a	location msgstr lead father\n
399.674	0.0755	799348	keystroke	l	n/a
399.8395	0.12	799679	keystroke	o	n/a
399.929	0.075	799858	keystroke	c	n/a
400.034	0.106	800068	keystroke	a	n/a
400.244	0.09	800488	keystroke	t	n/a
400.349	0.18	800698	keystroke	i	n/a
400.439	0.195	800878	keystroke	o	n/a
400.544	0.135	801088	keystroke	n	n/a
400.979	0.135	801958	keystroke	Key.space	n/a
402.2095	0.1195	804419	keystroke	m	n/a
402.314	0.105	804628	keystroke	g	n/a
403.1545	0.1195	806309	keystroke	Key.backspace	n/a
403.215	0.119	806430	keystroke	s	n/a
404.804	0.1205	809608	keystroke	g	n/a
405.2995	0.12	810599	keystroke	s	n/a
405.5245	0.12	811049	keystroke	t	n/a
405.7495	0.104	811499	keystroke	r	n/a
406.124	0.135	812248	keystroke	Key.backspace	n/a
406.244	0.105	812488	keystroke	t	n/a
406.889	0.1195	813778	keystroke	Key.backspace	n/a
407.0245	0.1045	814049	keystroke	r	n/a
407.865	0.119	815730	keystroke	Key.space	n/a
408.1195	0.1345	816239	keystroke	l	n/a
408.2095	0.014	816419	keystroke	e	n/a
408.2395	0.1495	816479	keystroke	a	n/a
408.374	0.15	816748	keystroke	d	n/a
408.494	0.135	816988	keystroke	Key.space	n/a
408.824	0.1205	817648	keystroke	a	n/a
409.0345	0.1195	818069	keystroke	f	n/a
409.4545	0.195	818909	keystroke	e	n/a
409.6195	0.1345	819239	keystroke	r	n/a
409.934	0.09	819868	keystroke	Key.backspace	n/a
410.0985	0.0905	820197	keystroke	Key.backspace	n/a
410.234	0.135	820468	keystroke	t	n/a
410.384	0.18	820768	keystroke	e	n/a
410.504	0.135	821008	keystroke	r	n/a
410.999	0.105	821998	keystroke	Key.enter	n/a
411.1135	7.4025	822227	prompt	n/a	unto remarks heater browsers\n
412.1395	0.0895	824279	keystroke	u	n/a
412.169	0.12	824338	keystroke	n	n/a
412.3195	0.09	824639	keystroke	t	n/a
412.4695	0.105	824939	keystroke	o	n/a
412.994	0.135	825988	keystroke	Key.space	n/a
413.4	0.104	826800	keystroke	r	n/a
413.4445	0.134	826889	keystroke	e	n/a
413.609	0.1355	827218	keystroke	m	n/a
413.7295	0.105	827459	keystroke	a	n/a
413.8635	0.136	827727	keystroke	r	n/a
414.0145	0.12	828029	keystroke	k	n/a
414.149	0.135	828298	keystroke	s	n/a
414.389	0.135	828778	keystroke	Key.space	n/a
414.944	0.075	829888	keystroke	h	n/a
414.959	0.1505	829918	keystroke	e	n/a
415.0345	0.1345	830069	keystroke	a	n/a
415.214	0.1055	830428	keystroke	t	n/a
415.349	0.1655	830698	keystroke	e	n/a
415.4545	0.194	830909	keystroke	r	n/a
415.634	0.15	831268	keystroke	Key.space	n/a
416.534	0.09	833068	keystroke	b	n/a
416.699	0.12	833398	keystroke	r	n/a
416.9545	0.1195	833909	keystroke	o	n/a
417.0295	0.12	834059	keystroke	w	n/a
417.2545	0.1795	834509	keystroke	s	n/a
417.3895	0.2095	834779	keystroke	e	n/a
417.539	0.18	835078	keystroke	r	n/a
418.049	0.15	836098	keystroke	s	n/a
418.319	0.195	836638	keystroke	Key.enter	n/a
418.52	8.2605	837040	prompt	n/a	bands fare duration hire\n
419.309	0.105	838618	keystroke	n	n/a
419.3695	0.1195	838739	keystroke	a	n/a
419.459	0.15	838918	keystroke	d	n/a
419.849	0.075	839698	keystroke	Key.backspace	n/a
420.014	0.24	840028	keystroke	Key.backspace	n/a
420.4335	0.106	840867	keystroke	Key.backspace	n/a
420.87	0.059	841740	keystroke	b	n/a
420.974	0.166	841948	keystroke	a	n/a
421.544	0.135	843088	keystroke	n	n/a
421.664	0.151	843328	keystroke	d	n/a
421.9795	0.1345	843959	keystroke	s	n/a
422.3395	0.1345	844679	keystroke	Key.space	n/a
422.864	0.0755	845728	keystroke	f	n/a
423.0145	0.104	846029	keystroke	a	n/a
423.164	0.105	846328	keystroke	r	n/a
423.239	0.105	846478	keystroke	e	n/a
423.989	0.075	847978	keystroke	Key.space	n/a
424.1845	0.105	848369	keystroke	d	n/a
424.3795	0.12	848759	keystroke	u	n/a
424.5595	0.1045	849119	keystroke	r	n/a
424.724	0.09	849448	keystroke	a	n/a
424.8895	0.1195	849779	keystroke	t	n/a
424.9785	0.1655	849957	keystroke	i	n/a
425.024	0.1955	850048	keystroke	o	n/a
425.1445	0.135	850289	keystroke	n	n/a
425.459	0.1195	850918	keystroke	Key.space	n/a
426.044	0.09	852088	keystroke	h	n/a
426.179	0.1045	852358	keystroke	i	n/a
426.269	0.1355	852538	keystroke	r	n/a
426.3595	0.134	852719	keystroke	e	n/a
426.6595	0.1195	853319	keystroke	Key.enter	n/a
426.785	10.843	853570	prompt	n/a	hearing ecommerce defects wheels\n
428.009	0.0455	856018	keystroke	g	n/a
428.444	0.075	856888	keystroke	h	n/a
428.595	0.119	857190	keystroke	Key.backspace	n/a
428.819	0.09	857638	keystroke	Key.backspace	n/a
429.1345	0.1195	858269	keystroke	h	n/a
429.27	0.1045	858540	keystroke	i	n/a
429.3885	0.121	858777	keystroke	r	n/a
429.494	0.135	858988	keystroke	i	n/a
429.674	0.105	859348	keystroke	n	n/a
429.7645	0.0895	859529	keystroke	g	n/a
429.959	0.15	859918	keystroke	Key.space	n/a
430.349	0.12	860698	keystroke	e	n/a
430.679	0.106	861358	keystroke	c	n/a
430.815	0.149	861630	keystroke	o	n/a
431.429	0.045	862858	keystroke	m	n/a
431.519	0.105	863038	keystroke	m	n/a
431.744	0.15	863488	keystroke	e	n/a
431.8495	0.105	863699	keystroke	r	n/a
432.284	0.1195	864568	keystroke	c	n/a
432.3735	0.1655	864747	keystroke	e	n/a
432.749	0.12	865498	keystroke	Key.space	n/a
433.4845	0.09	866969	keystroke	f	n/a
433.7695	0.1495	867539	keystroke	Key.backspace	n/a
433.874	0.1205	867748	keystroke	d	n/a
433.9795	0.149	867959	keystroke	e	n/a
434.1895	0.12	868379	keystroke	f	n/a
434.2945	0.12	868589	keystroke	e	n/a
434.4895	0.12	868979	keystroke	c	n/a
434.864	0.135	869728	keystroke	s	n/a
435.419	0.134	870838	keystroke	Key.backspace	n/a
435.869	0.105	871738	keystroke	t	n/a
436.004	0.151	872008	keystroke	s	n/a
436.2445	0.1195	872489	keystroke	Key.space	n/a
436.544	0.1205	873088	keystroke	w	n/a
436.6945	0.0745	873389	keystroke	h	n/a
436.784	0.105	873568	keystroke	e	n/a
436.949	0.135	873898	keystroke	e	n/a
437.099	0.135	874198	keystroke	l	n/a
437.22	0.149	874440	keystroke	s	n/a
437.489	0.135	874978	keystroke	Key.enter	n/a
437.6325	11.2735	875265	prompt	n/a	plays programmers ending latter\n
438.569	0.12	877138	keystroke	p	n/a
438.6745	0.1345	877349	keystroke	l	n/a
438.779	0.1045	877558	keystroke	a	n/a
439.0645	0.075	878129	keystroke	y	n/a
439.0795	0.045	878159	keystroke	t	n/a
439.6795	0.1045	879359	keystroke	Key.space	n/a
439.9345	0.12	879869	keystroke	p	n/a
440.234	0.075	880468	keystroke	Key.backspace	n/a
440.384	0.075	880768	keystroke	Key.backspace	n/a
440.519	0.1205	881038	keystroke	Key.backspace	n/a
440.8485	0.0915	881697	keystroke	s	n/a
441.1045	0.1195	882209	keystroke	Key.space	n/a
441.4945	0.0895	882989	keystroke	p	n/a
441.5695	0.1345	883139	keystroke	r	n/a
441.719	0.135	883438	keystroke	o	n/a
442.439	0.075	884878	keystroke	g	n/a
442.574	0.1055	885148	keystroke	r	n/a
442.724	0.09	885448	keystroke	a	n/a
442.8595	0.0895	885719	keystroke	m	n/a
443.009	0.15	886018	keystroke	m	n/a
443.279	0.2105	886558	keystroke	e	n/a
443.414	0.1355	886828	keystroke	r	n/a
443.6245	0.1195	887249	keystroke	s	n/a
443.8635	0.1505	887727	keystroke	Key.space	n/a
444.254	0.1205	888508	keystroke	e	n/a
444.359	0.1205	888718	keystroke	n	n/a
444.494	0.15	888988	keystroke	d	n/a
444.689	0.1205	889378	keystroke	i	n/a
444.839	0.135	889678	keystroke	n	n/a
444.9895	0.1045	889979	keystroke	g	n/a
446.864	0.135	893728	keystroke	Key.space	n/a
447.449	0.075	894898	keystroke	l	n/a
447.5695	0.1645	895139	keystroke	a	n/a
448.034	0.0905	896068	keystroke	t	n/a
448.2445	0.1045	896489	keystroke	t	n/a
448.454	0.12	896908	keystroke	e	n/a
448.499	0.1205	896998	keystroke	r	n/a
448.754	0.1495	897508	keystroke	Key.enter	n/a
448.9105	12.221	897821	prompt	n/a	operations sleeping approaches significant\n
449.9245	0.105	899849	keystroke	o	n/a
450.1035	0.1055	900207	keystroke	p	n/a
450.1945	0.164	900389	keystroke	e	n/a
450.2995	0.134	900599	keystroke	r	n/a
450.494	0.1355	900988	keystroke	a	n/a
451.0345	0.1055	902069	keystroke	t	n/a
451.1095	0.1195	902219	keystroke	i	n/a
451.169	0.1955	902338	keystroke	o	n/a
451.274	0.1495	902548	keystroke	n	n/a
452.099	0.12	904198	keystroke	s	n/a
452.3245	0.165	904649	keystroke	Key.space	n/a
452.954	0.135	905908	keystroke	s	n/a
453.059	0.12	906118	keystroke	l	n/a
453.164	0.0905	906328	keystroke	e	n/a
453.3445	0.135	906689	keystroke	e	n/a
453.4645	0.12	906929	keystroke	p	n/a
454.064	0.1955	908128	keystroke	i	n/a
454.2145	0.135	908429	keystroke	n	n/a
454.2745	0.1045	908549	keystroke	g	n/a
454.5135	0.18	909027	keystroke	Key.space	n/a
454.98	0.149	909960	keystroke	a	n/a
455.204	0.075	910408	keystroke	p	n/a
455.355	0.1495	910710	keystroke	p	n/a
455.5795	0.164	911159	keystroke	r	n/a
456.164	0.1205	912328	keystroke	o	n/a
456.224	0.1045	912448	keystroke	a	n/a
456.4345	0.12	912869	keystroke	c	n/a
456.614	0.0605	913228	keystroke	h	n/a
456.734	0.165	913468	keystroke	e	n/a
456.8095	0.1345	913619	keystroke	r	n/a
457.5285	0.1505	915057	keystroke	Key.backspace	n/a
457.904	0.15	915808	keystroke	s	n/a
458.264	0.165	916528	keystroke	Key.space	n/a
458.8345	0.1345	917669	keystroke	s	n/a
459.119	0.105	918238	keystroke	i	n/a
459.254	0.1205	918508	keystroke	g	n/a
459.494	0.2105	918988	keystroke	n	n/a
459.6905	0.1645	919381	keystroke	i	n/a
460.004	0.09	920008	keystroke	f	n/a
460.0495	0.1345	920099	keystroke	i	n/a
460.244	0.15	920488	keystroke	c	n/a
460.409	0.1205	920818	keystroke	a	n/a
460.649	0.1355	921298	keystroke	n	n/a
460.724	0.1505	921448	keystroke	t	n/a
460.994	0.135	921988	keystroke	Key.enter	n/a
461.1345	6.5815	922269	prompt	n/a	inside hurricane corners the\n
461.9545	0.135	923909	keystroke	i	n/a
462.1945	0.12	924389	keystroke	n	n/a
462.389	0.1355	924778	keystroke	s	n/a
462.5095	0.12	925019	keystroke	i	n/a
462.7045	0.09	925409	keystroke	d	n/a
462.8995	0.15	925799	keystroke	e	n/a
463.0645	0.134	926129	keystroke	Key.space	n/a
463.6935	0.0905	927387	keystroke	h	n/a
463.8595	0.1195	927719	keystroke	u	n/a
463.964	0.06	927928	keystroke	r	n/a
464.2495	0.0295	928499	keystroke	r	n/a
464.264	0.12	928528	keystroke	i	n/a
464.489	0.0755	928978	keystroke	c	n/a
464.5795	0.119	929159	keystroke	a	n/a
464.789	0.09	929578	keystroke	n	n/a
465.0595	0.104	930119	keystroke	e	n/a
465.4045	0.134	930809	keystroke	Key.space	n/a
465.7945	0.1045	931589	keystroke	c	n/a
465.8845	0.0895	931769	keystroke	o	n/a
466.0335	0.121	932067	keystroke	r	n/a
466.229	0.136	932458	keystroke	n	n/a
466.334	0.121	932668	keystroke	e	n/a
466.544	0.135	933088	keystroke	e	n/a
466.589	0.135	933178	keystroke	r	n/a
466.8285	0.1205	933657	keystroke	s	n/a
466.9645	0.1045	933929	keystroke	Key.space	n/a
467.174	0.075	934348	keystroke	t	n/a
467.2645	0.12	934529	keystroke	h	n/a
467.339	0.15	934678	keystroke	e	n/a
467.579	0.135	935158	keystroke	Key.enter	n/a
467.7205	8.5005	935441	prompt	n/a	originally paths collar stake\n
468.629	0.106	937258	keystroke	o	n/a
468.704	0.12	937408	keystroke	r	n/a
468.839	0.1505	937678	keystroke	i	n/a
469.094	0.12	938188	keystroke	g	n/a
469.154	0.1345	938308	keystroke	i	n/a
469.35	0.1185	938700	keystroke	n	n/a
469.439	0.0905	938878	keystroke	a	n/a
469.619	0.0905	939238	keystroke	;	n/a
469.8145	0.0745	939629	keystroke	l	n/a
469.9195	0.1045	939839	keystroke	y	n/a
470.2785	0.06	940557	keystroke	Key.backspace	n/a
470.4295	0.0445	940859	keystroke	Key.backspace	n/a
470.534	0.1055	941068	keystroke	Key.backspace	n/a
471.1645	0.0905	942329	keystroke	l	n/a
471.329	0.105	942658	keystroke	l	n/a
471.345	0.1785	942690	keystroke	y	n/a
471.554	0.1355	943108	keystroke	Key.space	n/a
472.0045	0.1045	944009	keystroke	p	n/a
472.0645	0.1195	944129	keystroke	a	n/a
472.289	0.105	944578	keystroke	t	n/a
472.409	0.135	944818	keystroke	h	n/a
472.529	0.135	945058	keystroke	s	n/a
472.724	0.15	945448	keystroke	Key.space	n/a
473.4145	0.119	946829	keystroke	c	n/a
473.474	0.1045	946948	keystroke	o	n/a
473.669	0.0755	947338	keystroke	l	n/a
473.8045	0.15	947609	keystroke	l	n/a
473.8645	0.1345	947729	keystroke	a	n/a
474.029	0.105	948058	keystroke	r	n/a
474.599	0.1045	949198	keystroke	Key.space	n/a
474.9445	0.105	949889	keystroke	s	n/a
475.0345	0.119	950069	keystroke	t	n/a
475.2445	0.06	950489	keystroke	a	n/a
475.3495	0.12	950699	keystroke	k	n/a
475.424	0.1655	950848	keystroke	e	n/a
475.5905	0.1335	951181	keystroke	Key.space	n/a
476.0845	0.134	952169	keystroke	Key.enter	n/a
476.2255	8.6805	952451	prompt	n/a	board lambda toronto databases\n
477.284	0.105	954568	keystroke	b	n/a
477.464	0.18	954928	keystroke	o	n/a
477.569	0.1195	955138	keystroke	a	n/a
477.7035	0.1065	955407	keystroke	r	n/a
477.9135	0.1205	955827	keystroke	d	n/a
478.109	0.1345	956218	keystroke	Key.space	n/a
478.4395	0.134	956879	keystroke	l	n/a
478.5285	0.106	957057	keystroke	a	n/a
478.7545	0.135	957509	keystroke	m	n/a
479.1895	0.0895	958379	keystroke	b	n/a
479.384	0.15	958768	keystroke	d	n/a
479.519	0.12	959038	keystroke	a	n/a
479.774	0.15	959548	keystroke	Key.space	n/a
481.0945	0.119	962189	keystroke	t	n/a
481.274	0.0905	962548	keystroke	o	n/a
481.3795	0.15	962759	keystroke	r	n/a
481.4545	0.135	962909	keystroke	o	n/a
481.829	0.1355	963658	keystroke	n	n/a
481.9945	0.12	963989	keystroke	t	n/a
482.399	0.12	964798	keystroke	o	n/a
482.684	0.1505	965368	keystroke	Key.space	n/a
482.954	0.1355	965908	keystroke	d	n/a
483.059	0.12	966118	keystroke	a	n/a
483.3145	0.0895	966629	keystroke	t	n/a
483.479	0.09	966958	keystroke	a	n/a
483.809	0.0905	967618	keystroke	b	n/a
483.9595	0.195	967919	keystroke	a	n/a
484.095	0.2545	968190	keystroke	s	n/a
484.3195	0.135	968639	keystroke	e	n/a
484.4695	0.15	968939	keystroke	s	n/a
484.7695	0.1345	969539	keystroke	Key.enter	n/a
484.909	8.2615	969818	prompt	n/a	buildings wires silence moon\n
485.7595	0.1045	971519	keystroke	b	n/a
485.9395	0.149	971879	keystroke	u	n/a
485.9995	0.119	971999	keystroke	i	n/a
486.224	0.166	972448	keystroke	l	n/a
486.3745	0.12	972749	keystroke	d	n/a
486.5095	0.15	973019	keystroke	i	n/a
486.7195	0.15	973439	keystroke	n	n/a
486.7785	0.136	973557	keystroke	g	n/a
486.9445	0.1495	973889	keystroke	s	n/a
487.1385	0.1355	974277	keystroke	Key.space	n/a
487.409	0.1355	974818	keystroke	w	n/a
487.5885	0.076	975177	keystroke	i	n/a
487.6795	0.09	975359	keystroke	i	n/a
488.084	0.0905	976168	keystroke	r	n/a
488.114	0.1955	976228	keystroke	e	n/a
488.5035	0.076	977007	keystroke	Key.backspace	n/a
488.6845	0.045	977369	keystroke	Key.backspace	n/a
488.804	0.0905	977608	keystroke	Key.backspace	n/a
488.9085	0.12	977817	keystroke	r	n/a
488.9685	0.1805	977937	keystroke	e	n/a
489.089	0.195	978178	keystroke	s	n/a
489.3445	0.2245	978689	keystroke	Key.space	n/a
489.974	0.105	979948	keystroke	s	n/a
490.034	0.09	980068	keystroke	i	n/a
490.2285	0.135	980457	keystroke	l	n/a
490.3185	0.1505	980637	keystroke	e	n/a
490.8885	0.1055	981777	keystroke	n	n/a
490.964	0.09	981928	keystroke	c	n/a
491.039	0.1805	982078	keystroke	e	n/a
491.969	0.12	983938	keystroke	Key.space	n/a
492.2095	0.135	984419	keystroke	m	n/a
492.3745	0.06	984749	keystroke	o	n/a
492.5245	0.1645	985049	keystroke	o	n/a
492.704	0.12	985408	keystroke	n	n/a
493.064	0.105	986128	keystroke	Key.enter	n/a
493.1755	10.9005	986351	prompt	n/a	spring teachers substantially program\n
493.934	0.12	987868	keystroke	s	n/a
494.069	0.105	988138	keystroke	p	n/a
494.189	0.15	988378	keystroke	r	n/a
494.324	0.15	988648	keystroke	i	n/a
494.429	0.165	988858	keystroke	n	n/a
494.534	0.165	989068	keystroke	g	n/a
494.729	0.1805	989458	keystroke	Key.space	n/a
495.4785	0.1505	990957	keystroke	t	n/a
495.6445	0.135	991289	keystroke	e	n/a
495.854	0.135	991708	keystroke	a	n/a
496.019	0.135	992038	keystroke	c	n/a
496.679	0.076	993358	keystroke	h	n/a
496.7695	0.1345	993539	keystroke	e	n/a
496.8445	0.1345	993689	keystroke	r	n/a
496.9945	0.1645	993989	keystroke	s	n/a
497.189	0.1345	994378	keystroke	Key.space	n/a
497.6095	0.119	995219	keystroke	s	n/a
497.8195	0.1795	995639	keystroke	u	n/a
497.8945	0.1195	995789	keystroke	b	n/a
498.1335	0.135	996267	keystroke	s	n/a
498.8395	0.074	997679	keystroke	t	n/a
499.004	0.135	998008	keystroke	a	n/a
499.8445	0.105	999689	keystroke	n	n/a
500.054	0.0895	1000108	keystroke	t	n/a
500.114	0.1195	1000228	keystroke	i	n/a
500.2485	0.1055	1000497	keystroke	a	n/a
500.369	0.075	1000738	keystroke	l	n/a
500.519	0.105	1001038	keystroke	l	n/a
501.2545	0.119	1002509	keystroke	y	n/a
501.494	0.12	1002988	keystroke	Key.space	n/a
502.1985	0.09	1004397	keystroke	p	n/a
502.305	0.089	1004610	keystroke	r	n/a
502.424	0.12	1004848	keystroke	o	n/a
502.754	0.09	1005508	keystroke	g	n/a
502.98	0.1045	1005960	keystroke	r	n/a
503.099	0.135	1006198	keystroke	a	n/a
503.264	0.135	1006528	keystroke	m	n/a
503.954	0.12	1007908	keystroke	Key.enter	n/a
504.081	10.062	1008162	prompt	n/a	bahamas babe chick feels\n
505.3195	0.105	1010639	keystroke	b	n/a
505.4395	0.075	1010879	keystroke	a	n/a
505.5445	0.12	1011089	keystroke	h	n/a
505.6795	0.12	1011359	keystroke	a	n/a
505.9045	0.09	1011809	keystroke	,	n/a
506.5495	0.1195	1013099	keystroke	Key.backspace	n/a
506.6545	0.165	1013309	keystroke	a	n/a
506.7745	0.0595	1013549	keystroke	s	n/a
507.014	0.0895	1014028	keystroke	Key.backspace	n/a
507.1635	0.0755	1014327	keystroke	Key.backspace	n/a
507.7795	0.1045	1015559	keystroke	m	n/a
507.839	0.15	1015678	keystroke	a	n/a
507.914	0.165	1015828	keystroke	s	n/a
508.7095	0.1645	1017419	keystroke	Key.space	n/a
509.099	0.0905	1018198	keystroke	b	n/a
509.144	0.06	1018288	keystroke	a	n/a
509.279	0.135	1018558	keystroke	b	n/a
509.339	0.06	1018678	keystroke	a	n/a
509.459	0.165	1018918	keystroke	e	n/a
509.6095	0.135	1019219	keystroke	Key.space	n/a
509.879	0.165	1019758	keystroke	c	n/a
510.0295	0.1045	1020059	keystroke	h	n/a
510.224	0.12	1020448	keystroke	i	n/a
510.359	0.15	1020718	keystroke	c	n/a
510.494	0.105	1020988	keystroke	k	n/a
511.1995	0.1345	1022399	keystroke	Key.space	n/a
512.0235	0.1205	1024047	keystroke	Key.backspace	n/a
512.204	0.12	1024408	keystroke	f	n/a
512.354	0.1055	1024708	keystroke	e	n/a
512.744	0.12	1025488	keystroke	Key.backspace	n/a
512.9095	0.1495	1025819	keystroke	Key.backspace	n/a
513.119	0.12	1026238	keystroke	Key.space	n/a
513.254	0.12	1026508	keystroke	f	n/a
513.3595	0.105	1026719	keystroke	e	n/a
513.5395	0.18	1027079	keystroke	e	n/a
513.6895	0.135	1027379	keystroke	l	n/a
513.8395	0.165	1027679	keystroke	s	n/a
514.0195	0.119	1028039	keystroke	Key.enter	n/a
514.1505	10.1305	1028301	prompt	n/a	format charged loaded displays\n
515.369	0.091	1030738	keystroke	f	n/a
515.475	0.119	1030950	keystroke	o	n/a
515.579	0.105	1031158	keystroke	r	n/a
515.7145	0.105	1031429	keystroke	m	n/a
515.8045	0.105	1031609	keystroke	a	n/a
515.9845	0.12	1031969	keystroke	t	n/a
516.1185	0.12	1032237	keystroke	Key.space	n/a
516.389	0.1345	1032778	keystroke	c	n/a
516.569	0.1205	1033138	keystroke	h	n/a
516.66	0.119	1033320	keystroke	a	n/a
516.794	0.09	1033588	keystroke	r	n/a
517.784	0.105	1035568	keystroke	g	n/a
517.874	0.121	1035748	keystroke	e	n/a
518.0695	0.1495	1036139	keystroke	d	n/a
518.294	0.1345	1036588	keystroke	Key.space	n/a
518.729	0.09	1037458	keystroke	l	n/a
518.8945	0.1645	1037789	keystroke	o	n/a
518.969	0.135	1037938	keystroke	a	n/a
519.074	0.1655	1038148	keystroke	d	n/a
519.3295	0.03	1038659	keystroke	d	n/a
519.479	0.1055	1038958	keystroke	e	n/a
519.8395	0.0595	1039679	keystroke	Key.backspace	n/a
520.0035	0.106	1040007	keystroke	Key.backspace	n/a
520.0945	0.1195	1040189	keystroke	e	n/a
520.289	0.165	1040578	keystroke	d	n/a
520.469	0.135	1040938	keystroke	Key.space	n/a
521.2195	0.135	1042439	keystroke	d	n/a
521.2945	0.105	1042589	keystroke	i	n/a
521.4445	0.135	1042889	keystroke	s	n/a
521.6095	0.12	1043219	keystroke	p	n/a
522.269	0.135	1044538	keystroke	l	n/a
522.5105	0.119	1045021	keystroke	a	n/a
522.914	0.1195	1045828	keystroke	y	n/a
523.004	0.136	1046008	keystroke	s	n/a
523.1685	0.1655	1046337	keystroke	Key.space	n/a
523.8885	0.1055	1047777	keystroke	Key.backspace	n/a
524.144	0.135	1048288	keystroke	Key.enter	n/a
524.2855	10.915	1048571	prompt	n/a	champion maximize cardiovascular counting\n
525.0895	0.1045	1050179	keystroke	c	n/a
525.299	0.09	1050598	keystroke	h	n/a
525.419	0.121	1050838	keystroke	a	n/a
525.5995	0.1345	1051199	keystroke	m	n/a
526.3795	0.1045	1052759	keystroke	p	n/a
526.605	0.164	1053210	keystroke	i	n/a
526.694	0.1655	1053388	keystroke	o	n/a
526.799	0.1505	1053598	keystroke	n	n/a
527.114	0.15	1054228	keystroke	Key.space	n/a
527.609	0.1505	1055218	keystroke	m	n/a
527.684	0.135	1055368	keystroke	a	n/a
527.9695	0.12	1055939	keystroke	x	n/a
528.0905	0.119	1056181	keystroke	i	n/a
528.5695	0.1345	1057139	keystroke	m	n/a
528.6585	0.105	1057317	keystroke	i	n/a
529.184	0.15	1058368	keystroke	z	n/a
529.379	0.165	1058758	keystroke	e	n/a
529.694	0.135	1059388	keystroke	Key.space	n/a
530.069	0.105	1060138	keystroke	c	n/a
530.189	0.1055	1060378	keystroke	a	n/a
530.3245	0.149	1060649	keystroke	r	n/a
530.849	0.1355	1061698	keystroke	d	n/a
530.9985	0.181	1061997	keystroke	i	n/a
531.0745	0.149	1062149	keystroke	o	n/a
531.419	0.1045	1062838	keystroke	v	n/a
531.5995	0.164	1063199	keystroke	a	n/a
531.7045	0.1645	1063409	keystroke	s	n/a
532.124	0.09	1064248	keystroke	c	n/a
532.215	0.104	1064430	keystroke	u	n/a
532.4395	0.1345	1064879	keystroke	l	n/a
532.514	0.105	1065028	keystroke	a	n/a
532.664	0.1205	1065328	keystroke	r	n/a
532.9945	0.1045	1065989	keystroke	Key.space	n/a
533.414	0.09	1066828	keystroke	c	n/a
533.489	0.09	1066978	keystroke	o	n/a
533.744	0.1805	1067488	keystroke	u	n/a
533.849	0.18	1067698	keystroke	n	n/a
534.0135	0.12	1068027	keystroke	t	n/a
534.1045	0.239	1068209	keystroke	i	n/a
534.2395	0.1795	1068479	keystroke	n	n/a
534.374	0.12	1068748	keystroke	g	n/a
535.0485	0.1505	1070097	keystroke	Key.enter	n/a
535.2065	11.9045	1070413	prompt	n/a	updates webster fabulous interventions\n
536.369	0.105	1072738	keystroke	u	n/a
536.415	0.119	1072830	keystroke	p	n/a
536.5785	0.1505	1073157	keystroke	d	n/a
536.714	0.105	1073428	keystroke	a	n/a
536.924	0.135	1073848	keystroke	t	n/a
537.044	0.165	1074088	keystroke	e	n/a
537.224	0.15	1074448	keystroke	s	n/a
537.674	0.135	1075348	keystroke	Key.space	n/a
538.094	0.18	1076188	keystroke	w	n/a
538.184	0.135	1076368	keystroke	e	n/a
538.454	0.09	1076908	keystroke	b	n/a
538.7545	0.179	1077509	keystroke	s	n/a
538.9195	0.1345	1077839	keystroke	t	n/a
539.099	0.165	1078198	keystroke	e	n/a
539.189	0.18	1078378	keystroke	r	n/a
539.819	0.135	1079638	keystroke	Key.space	n/a
540.584	0.075	1081168	keystroke	f	n/a
540.674	0.105	1081348	keystroke	a	n/a
540.929	0.105	1081858	keystroke	b	n/a
541.109	0.135	1082218	keystroke	u	n/a
542.054	0.0895	1084108	keystroke	l	n/a
542.2045	0.1345	1084409	keystroke	o	n/a
542.804	0.1505	1085608	keystroke	u	n/a
542.9085	0.135	1085817	keystroke	s	n/a
543.224	0.1045	1086448	keystroke	Key.space	n/a
543.644	0.2255	1087288	keystroke	i	n/a
543.794	0.15	1087588	keystroke	n	n/a
543.899	0.0905	1087798	keystroke	t	n/a
544.049	0.195	1088098	keystroke	e	n/a
544.154	0.135	1088308	keystroke	r	n/a
544.364	0.165	1088728	keystroke	n	n/a
544.5135	0.135	1089027	keystroke	e	n/a
545.159	0.12	1090318	keystroke	t	n/a
545.3835	0.1505	1090767	keystroke	i	n/a
545.429	0.075	1090858	keystroke	o	n/a
546.359	0.105	1092718	keystroke	n	n/a
546.479	0.1355	1092958	keystroke	s	n/a
547.0035	0.1055	1094007	keystroke	Key.enter	n/a
547.1165	15.234	1094233	prompt	n/a	priced treated naples maximum\n
547.979	0.105	1095958	keystroke	p	n/a
548.054	0.105	1096108	keystroke	r	n/a
548.2035	0.136	1096407	keystroke	i	n/a
548.2945	0.0595	1096589	keystroke	v	n/a
548.384	0.135	1096768	keystroke	e	n/a
548.624	0.15	1097248	keystroke	d	n/a
548.984	0.12	1097968	keystroke	Key.space	n/a
549.314	0.1055	1098628	keystroke	t	n/a
549.3745	0.1795	1098749	keystroke	r	n/a
549.734	0.12	1099468	keystroke	e	n/a
549.959	0.135	1099918	keystroke	a	n/a
550.079	0.12	1100158	keystroke	d	n/a
550.364	0.105	1100728	keystroke	t	n/a
550.484	0.1045	1100968	keystroke	e	n/a
550.679	0.1345	1101358	keystroke	d	n/a
551.144	0.0895	1102288	keystroke	Key.backspace	n/a
551.309	0.0595	1102618	keystroke	Key.backspace	n/a
551.444	0.104	1102888	keystroke	Key.backspace	n/a
551.564	0.12	1103128	keystroke	Key.backspace	n/a
551.699	0.105	1103398	keystroke	t	n/a
551.8635	0.0755	1103727	keystroke	e	n/a
552.0895	0.1045	1104179	keystroke	d	n/a
552.989	0.075	1105978	keystroke	Key.backspace	n/a
553.154	0.06	1106308	keystroke	Key.backspace	n/a
553.304	0.06	1106608	keystroke	Key.backspace	n/a
553.424	0.0895	1106848	keystroke	Key.backspace	n/a
553.543	0.0905	1107086	keystroke	Key.backspace	n/a
553.724	0.0595	1107448	keystroke	Key.backspace	n/a
553.858	0.075	1107716	keystroke	Key.backspace	n/a
554.008	0.0765	1108016	keystroke	Key.backspace	n/a
554.144	0.0745	1108288	keystroke	Key.backspace	n/a
554.2785	0.105	1108557	keystroke	Key.backspace	n/a
554.4585	0.12	1108917	keystroke	Key.backspace	n/a
554.88	0.0745	1109760	keystroke	c	n/a
555.044	0.12	1110088	keystroke	e	n/a
555.269	0.0905	1110538	keystroke	d	n/a
555.3595	0.149	1110719	keystroke	Key.space	n/a
556.079	0.105	1112158	keystroke	t	n/a
556.124	0.225	1112248	keystroke	r	n/a
556.289	0.165	1112578	keystroke	e	n/a
556.6045	0.1045	1113209	keystroke	a	n/a
556.844	0.0905	1113688	keystroke	t	n/a
556.9795	0.12	1113959	keystroke	e	n/a
557.1745	0.149	1114349	keystroke	d	n/a
557.684	0.075	1115368	keystroke	Key.space	n/a
558.164	0.105	1116328	keystroke	n	n/a
558.284	0.0895	1116568	keystroke	a	n/a
558.554	0.1045	1117108	keystroke	p	n/a
558.779	0.135	1117558	keystroke	l	n/a
558.8995	0.149	1117799	keystroke	e	n/a
558.974	0.21	1117948	keystroke	s	n/a
559.199	0.195	1118398	keystroke	Key.space	n/a
559.679	0.135	1119358	keystroke	m	n/a
559.754	0.09	1119508	keystroke	a	n/a
559.904	0.135	1119808	keystroke	i	n/a
560.1135	0.136	1120227	keystroke	x	n/a
560.444	0.045	1120888	keystroke	Key.backspace	n/a
560.594	0.06	1121188	keystroke	Key.backspace	n/a
560.7895	0.1045	1121579	keystroke	x	n/a
560.984	0.135	1121968	keystroke	i	n/a
561.3145	0.135	1122629	keystroke	m	n/a
561.6435	0.15	1123287	keystroke	u	n/a
561.8845	0.1045	1123769	keystroke	m	n/a
562.2295	0.1195	1124459	keystroke	Key.enter	n/a
562.356	10.6445	1124712	prompt	n/a	trials circle chelsea navigate\n
563.6535	0.0755	1127307	keystroke	t	n/a
563.849	0.0755	1127698	keystroke	r	n/a
563.9095	0.09	1127819	keystroke	i	n/a
564.0445	0.105	1128089	keystroke	a	n/a
564.164	0.1055	1128328	keystroke	l	n/a
564.2835	0.15	1128567	keystroke	s	n/a
564.4945	0.1345	1128989	keystroke	Key.space	n/a
565.0795	0.0745	1130159	keystroke	c	n/a
565.229	0.0755	1130458	keystroke	i	n/a
565.2885	0.09	1130577	keystroke	r	n/a
565.604	0.1195	1131208	keystroke	c	n/a
565.829	0.09	1131658	keystroke	l	n/a
565.934	0.1795	1131868	keystroke	e	n/a
566.129	0.15	1132258	keystroke	Key.space	n/a
566.5035	0.1205	1133007	keystroke	c	n/a
566.6535	0.0905	1133307	keystroke	h	n/a
566.7595	0.1195	1133519	keystroke	e	n/a
566.984	0.135	1133968	keystroke	l	n/a
567.389	0.15	1134778	keystroke	s	n/a
567.524	0.12	1135048	keystroke	e	n/a
567.659	0.1355	1135318	keystroke	a	n/a
568.124	0.15	1136248	keystroke	Key.space	n/a
569.309	0.09	1138618	keystroke	n	n/a
569.3395	0.1045	1138679	keystroke	a	n/a
570.014	0.1055	1140028	keystroke	i	n/a
570.134	0.135	1140268	keystroke	g	n/a
570.3895	0.075	1140779	keystroke	a	n/a
570.7635	0.0605	1141527	keystroke	Key.backspace	n/a
570.899	0.06	1141798	keystroke	Key.backspace	n/a
571.034	0.105	1142068	keystroke	Key.backspace	n/a
571.6485	0.061	1143297	keystroke	v	n/a
571.7395	0.134	1143479	keystroke	i	n/a
572.0695	0.0745	1144139	keystroke	g	n/a
572.2645	0.1045	1144529	keystroke	a	n/a
572.504	0.09	1145008	keystroke	t	n/a
572.579	0.15	1145158	keystroke	e	n/a
572.894	0.1045	1145788	keystroke	Key.enter	n/a
573.0055	14.6505	1146011	prompt	n/a	framed markets consists relatively\n
573.974	0.09	1147948	keystroke	f	n/a
574.169	0.09	1148338	keystroke	r	n/a
574.3045	0.1045	1148609	keystroke	a	n/a
574.424	0.09	1148848	keystroke	m	n/a
574.529	0.12	1149058	keystroke	e	n/a
574.724	0.135	1149448	keystroke	d	n/a
574.8745	0.119	1149749	keystroke	Key.space	n/a
575.204	0.12	1150408	keystroke	m	n/a
575.234	0.12	1150468	keystroke	a	n/a
575.4595	0.1345	1150919	keystroke	r	n/a
575.7295	0.09	1151459	keystroke	j	n/a
575.804	0.061	1151608	keystroke	e	n/a
576.0435	0.06	1152087	keystroke	Key.backspace	n/a
576.179	0.105	1152358	keystroke	Key.backspace	n/a
576.8395	0.03	1153679	keystroke	k	n/a
576.8545	0.0445	1153709	keystroke	e	n/a
576.884	0.045	1153768	keystroke	t	n/a
576.974	0.1655	1153948	keystroke	s	n/a
577.2135	0.135	1154427	keystroke	Key.space	n/a
577.5735	0.1355	1155147	keystroke	c	n/a
577.7095	0.1045	1155419	keystroke	o	n/a
577.9795	0.119	1155959	keystroke	n	n/a
578.084	0.1345	1156168	keystroke	s	n/a
578.2335	0.1655	1156467	keystroke	o	n/a
578.354	0.1355	1156708	keystroke	s	n/a
578.564	0.12	1157128	keystroke	c	n/a
578.819	0.061	1157638	keystroke	Key.backspace	n/a
578.9695	0.074	1157939	keystroke	Key.backspace	n/a
579.119	0.1045	1158238	keystroke	Key.backspace	n/a
579.7945	0.104	1159589	keystroke	i	n/a
579.839	0.1355	1159678	keystroke	s	n/a
580.064	0.135	1160128	keystroke	s	n/a
580.1995	0.1045	1160399	keystroke	t	n/a
580.3785	0.106	1160757	keystroke	s	n/a
580.739	0.0595	1161478	keystroke	Key.backspace	n/a
580.8885	0.0605	1161777	keystroke	Key.backspace	n/a
581.009	0.075	1162018	keystroke	Key.backspace	n/a
581.159	0.075	1162318	keystroke	Key.backspace	n/a
581.5495	0.134	1163099	keystroke	t	n/a
581.744	0.135	1163488	keystroke	s	n/a
582.509	0.1045	1165018	keystroke	Key.backspace	n/a
583.8435	0.0895	1167687	keystroke	Key.backspace	n/a
584.399	0.165	1168798	keystroke	s	n/a
584.639	0.135	1169278	keystroke	t	n/a
584.9235	0.136	1169847	keystroke	s	n/a
585.6435	0.12	1171287	keystroke	Key.space	n/a
585.869	0.105	1171738	keystroke	r	n/a
585.929	0.09	1171858	keystroke	e	n/a
586.139	0.09	1172278	keystroke	l	n/a
586.214	0.09	1172428	keystroke	a	n/a
586.619	0.06	1173238	keystroke	t	n/a
586.664	0.105	1173328	keystroke	i	n/a
586.889	0.09	1173778	keystroke	v	n/a
586.994	0.135	1173988	keystroke	e	n/a
587.1145	0.1195	1174229	keystroke	l	n/a
587.325	0.104	1174650	keystroke	y	n/a
587.5035	0.15	1175007	keystroke	Key.enter	n/a
587.661	9.415	1175322	prompt	n/a	homepage candidate pins ontario\n
588.749	0.09	1177498	keystroke	h	n/a
588.794	0.09	1177588	keystroke	o	n/a
588.959	0.12	1177918	keystroke	m	n/a
589.049	0.09	1178098	keystroke	e	n/a
589.2295	0.1645	1178459	keystroke	p	n/a
589.3795	0.1045	1178759	keystroke	a	n/a
589.6945	0.0745	1179389	keystroke	g	n/a
589.7835	0.121	1179567	keystroke	e	n/a
590.3835	0.1055	1180767	keystroke	Key.space	n/a
590.6095	0.1195	1181219	keystroke	c	n/a
590.759	0.105	1181518	keystroke	a	n/a
590.924	0.135	1181848	keystroke	n	n/a
591.0735	0.12	1182147	keystroke	d	n/a
591.2395	0.15	1182479	keystroke	i	n/a
591.3735	0.09	1182747	keystroke	a	n/a
591.449	0.1345	1182898	keystroke	d	n/a
591.5995	0.075	1183199	keystroke	a	n/a
591.7485	0.1205	1183497	keystroke	t	n/a
591.929	0.105	1183858	keystroke	e	n/a
593.219	0.015	1186438	keystroke	Key.space	n/a
593.609	0.1045	1187218	keystroke	p	n/a
593.8635	0.1505	1187727	keystroke	i	n/a
593.939	0.12	1187878	keystroke	n	n/a
593.999	0.15	1187998	keystroke	s	n/a
594.164	0.135	1188328	keystroke	Key.space	n/a
595.259	0.15	1190518	keystroke	o	n/a
595.289	0.135	1190578	keystroke	n	n/a
596.084	0.09	1192168	keystroke	t	n/a
596.2495	0.074	1192499	keystroke	a	n/a
596.444	0.1045	1192888	keystroke	r	n/a
596.5335	0.1655	1193067	keystroke	i	n/a
596.6385	0.075	1193277	keystroke	o	n/a
596.9685	0.105	1193937	keystroke	Key.enter	n/a
597.08	12.0255	1194160	prompt	n/a	omega must've elimination injuries\n
598.034	0.15	1196068	keystroke	o	n/a
598.094	0.1345	1196188	keystroke	m	n/a
598.199	0.136	1196398	keystroke	e	n/a
598.454	0.06	1196908	keystroke	g	n/a
598.589	0.135	1197178	keystroke	a	n/a
598.7685	0.1505	1197537	keystroke	Key.space	n/a
599.67	0.045	1199340	keystroke	m	n/a
599.729	0.1055	1199458	keystroke	u	n/a
599.8195	0.134	1199639	keystroke	s	n/a
599.9385	0.1205	1199877	keystroke	t	n/a
600.3295	0.1045	1200659	keystroke	'	n/a
600.494	0.165	1200988	keystroke	e	n/a
601.0645	0.104	1202129	keystroke	Key.backspace	n/a
601.124	0.105	1202248	keystroke	v	n/a
601.1985	0.1655	1202397	keystroke	e	n/a
601.4395	0.1645	1202879	keystroke	Key.space	n/a
602.069	0.105	1204138	keystroke	e	n/a
602.189	0.105	1204378	keystroke	l	n/a
602.295	0.089	1204590	keystroke	e	n/a
602.414	0.135	1204828	keystroke	i	n/a
602.849	0.075	1205698	keystroke	Key.backspace	n/a
603.059	0.165	1206118	keystroke	Key.backspace	n/a
603.794	0.045	1207588	keystroke	i	n/a
603.869	0.165	1207738	keystroke	m	n/a
604.005	0.164	1208010	keystroke	i	n/a
604.4835	0.12	1208967	keystroke	n	n/a
604.5585	0.1055	1209117	keystroke	a	n/a
604.784	0.12	1209568	keystroke	t	n/a
604.859	0.1645	1209718	keystroke	i	n/a
604.9495	0.18	1209899	keystroke	o	n/a
605.069	0.1345	1210138	keystroke	n	n/a
605.489	0.1345	1210978	keystroke	Key.space	n/a
606.4335	0.1505	1212867	keystroke	i	n/a
606.479	0.15	1212958	keystroke	n	n/a
607.1095	0.075	1214219	keystroke	j	n/a
607.153	0.0905	1214306	keystroke	u	n/a
607.4995	0.15	1214999	keystroke	r	n/a
607.6345	0.12	1215269	keystroke	i	n/a
608.4445	0.1655	1216889	keystroke	e	n/a
608.5645	0.15	1217129	keystroke	s	n/a
609.0585	0.045	1218117	keystroke	Key.enter	n/a
609.11	15.3705	1218220	prompt	n/a	plans betty violations convention\n
610.2585	0.1355	1220517	keystroke	p	n/a
610.334	0.121	1220668	keystroke	l	n/a
610.47	0.134	1220940	keystroke	a	n/a
610.619	0.1205	1221238	keystroke	n	n/a
610.769	0.1505	1221538	keystroke	s	n/a
611.0235	0.12	1222047	keystroke	Key.space	n/a
611.7445	0.029	1223489	keystroke	b	n/a
611.7595	0.089	1223519	keystroke	e	n/a
611.9685	0.076	1223937	keystroke	y	n/a
612.134	0.075	1224268	keystroke	y	n/a
612.404	0.06	1224808	keystroke	Key.backspace	n/a
612.539	0.0595	1225078	keystroke	Key.backspace	n/a
612.6595	0.0745	1225319	keystroke	Key.backspace	n/a
613.2745	0.12	1226549	keystroke	e	n/a
613.514	0.1055	1227028	keystroke	t	n/a
613.6345	0.1645	1227269	keystroke	t	n/a
614.129	0.12	1228258	keystroke	t	n/a
614.294	0.12	1228588	keystroke	y	n/a
614.729	0.09	1229458	keystroke	Key.backspace	n/a
614.894	0.075	1229788	keystroke	Key.backspace	n/a
615.044	0.1195	1230088	keystroke	y	n/a
615.569	0.09	1231138	keystroke	Key.space	n/a
615.9145	0.1195	1231829	keystroke	v	n/a
616.094	0.21	1232188	keystroke	i	n/a
616.23	0.134	1232460	keystroke	o	n/a
616.454	0.0905	1232908	keystroke	k	n/a
616.469	0.0765	1232938	keystroke	l	n/a
616.5595	0.1345	1233119	keystroke	a	n/a
617.174	0.06	1234348	keystroke	Key.backspace	n/a
617.324	0.075	1234648	keystroke	Key.backspace	n/a
617.474	0.045	1234948	keystroke	Key.backspace	n/a
618.2245	0.104	1236449	keystroke	l	n/a
618.269	0.1195	1236538	keystroke	a	n/a
618.4645	0.09	1236929	keystroke	t	n/a
618.4795	0.18	1236959	keystroke	i	n/a
618.5695	0.194	1237139	keystroke	o	n/a
618.749	0.1355	1237498	keystroke	n	n/a
618.9745	0.105	1237949	keystroke	s	n/a
619.4535	0.1055	1238907	keystroke	Key.space	n/a
619.739	0.105	1239478	keystroke	c	n/a
619.814	0.105	1239628	keystroke	o	n/a
620.069	0.1045	1240138	keystroke	n	n/a
620.6985	0.0755	1241397	keystroke	v	n/a
620.819	0.165	1241638	keystroke	e	n/a
621.209	0.12	1242418	keystroke	n	n/a
621.854	0.0895	1243708	keystroke	t	n/a
621.959	0.135	1243918	keystroke	i	n/a
621.974	0.029	1243948	keystroke	u	n/a
621.989	0.1655	1243978	keystroke	o	n/a
622.064	0.1355	1244128	keystroke	n	n/a
622.559	0.0745	1245118	keystroke	Key.backspace	n/a
622.7085	0.105	1245417	keystroke	Key.backspace	n/a
623.189	0.12	1246378	keystroke	Key.backspace	n/a
623.879	0.105	1247758	keystroke	o	n/a
624.1195	0.0895	1248239	keystroke	n	n/a
624.344	0.1345	1248688	keystroke	Key.enter	n/a
624.484	8.682	1248968	prompt	n/a	bali sleeping mods webshots\n
625.679	0.105	1251358	keystroke	b	n/a
625.769	0.1045	1251538	keystroke	a	n/a
625.904	0.105	1251808	keystroke	l	n/a
626.924	0.0445	1253848	keystroke	i	n/a
627.134	0.1055	1254268	keystroke	Key.space	n/a
627.3435	0.09	1254687	keystroke	s	n/a
627.539	0.0895	1255078	keystroke	l	n/a
628.0185	0.045	1256037	keystroke	e	n/a
628.154	0.105	1256308	keystroke	e	n/a
628.2735	0.106	1256547	keystroke	p	n/a
629.219	0.1505	1258438	keystroke	i	n/a
629.3545	0.119	1258709	keystroke	n	n/a
629.414	0.1045	1258828	keystroke	g	n/a
629.6535	0.09	1259307	keystroke	Key.space	n/a
630.2545	0.149	1260509	keystroke	m	n/a
630.3445	0.12	1260689	keystroke	o	n/a
630.4045	0.0895	1260809	keystroke	d	n/a
630.4955	0.1185	1260991	keystroke	s	n/a
630.7335	0.135	1261467	keystroke	Key.space	n/a
631.364	0.195	1262728	keystroke	w	n/a
631.513	0.121	1263026	keystroke	e	n/a
631.919	0.075	1263838	keystroke	b	n/a
632.129	0.12	1264258	keystroke	s	n/a
632.219	0.12	1264438	keystroke	h	n/a
632.5645	0.134	1265129	keystroke	o	n/a
632.6095	0.135	1265219	keystroke	t	n/a
632.7285	0.1355	1265457	keystroke	s	n/a
633.044	0.12	1266088	keystroke	Key.enter	n/a
633.169	8.242	1266338	prompt	n/a	kinds task alternative baseline\n
634.0335	0.1205	1268067	keystroke	k	n/a
634.124	0.105	1268248	keystroke	i	n/a
634.334	0.12	1268668	keystroke	n	n/a
634.394	0.135	1268788	keystroke	d	n/a
634.499	0.135	1268998	keystroke	s	n/a
634.844	0.105	1269688	keystroke	Key.space	n/a
635.219	0.075	1270438	keystroke	t	n/a
635.369	0.18	1270738	keystroke	a	n/a
635.459	0.1655	1270918	keystroke	s	n/a
635.61	0.134	1271220	keystroke	k	n/a
635.834	0.12	1271668	keystroke	Key.space	n/a
636.375	0.088	1272750	keystroke	a	n/a
636.6135	0.105	1273227	keystroke	l	n/a
637.3185	0.136	1274637	keystroke	t	n/a
637.4395	0.1795	1274879	keystroke	e	n/a
637.5585	0.165	1275117	keystroke	r	n/a
638.159	0.105	1276318	keystroke	n	n/a
638.204	0.121	1276408	keystroke	a	n/a
638.459	0.105	1276918	keystroke	t	n/a
638.579	0.135	1277158	keystroke	i	n/a
638.699	0.0745	1277398	keystroke	v	n/a
638.803	0.151	1277606	keystroke	e	n/a
639.359	0.135	1278718	keystroke	Key.space	n/a
639.809	0.075	1279618	keystroke	b	n/a
639.839	0.15	1279678	keystroke	a	n/a
639.899	0.18	1279798	keystroke	s	n/a
640.184	0.1345	1280368	keystroke	e	n/a
640.409	0.105	1280818	keystroke	l	n/a
640.604	0.18	1281208	keystroke	i	n/a
640.754	0.1345	1281508	keystroke	n	n/a
640.904	0.1495	1281808	keystroke	e	n/a
641.264	0.12	1282528	keystroke	Key.enter	n/a
641.422	14.7985	1282844	prompt	n/a	fluid projector olympus christian\n
642.944	0.1195	1285888	keystroke	d	n/a
643.0045	0.12	1286009	keystroke	l	n/a
643.7385	0.0755	1287477	keystroke	Key.backspace	n/a
643.889	0.0595	1287778	keystroke	Key.backspace	n/a
643.9935	0.1205	1287987	keystroke	Key.backspace	n/a
644.1295	0.1345	1288259	keystroke	f	n/a
644.789	0.09	1289578	keystroke	l	n/a
645.089	0.18	1290178	keystroke	u	n/a
645.1495	0.1645	1290299	keystroke	i	n/a
645.299	0.12	1290598	keystroke	d	n/a
645.734	0.135	1291468	keystroke	Key.space	n/a
646.1695	0.104	1292339	keystroke	p	n/a
646.244	0.1205	1292488	keystroke	r	n/a
646.379	0.12	1292758	keystroke	o	n/a
647.174	0.1505	1294348	keystroke	j	n/a
647.234	0.1205	1294468	keystroke	e	n/a
647.3995	0.104	1294799	keystroke	c	n/a
647.609	0.1345	1295218	keystroke	t	n/a
647.8035	0.135	1295607	keystroke	o	n/a
647.9845	0.134	1295969	keystroke	r	n/a
648.449	0.105	1296898	keystroke	Key.space	n/a
648.929	0.1355	1297858	keystroke	l	n/a
649.8435	0.105	1299687	keystroke	Key.backspace	n/a
650.1295	0.104	1300259	keystroke	o	n/a
650.2935	0.121	1300587	keystroke	l	n/a
651.3285	0.105	1302657	keystroke	y	n/a
651.66	0.179	1303320	keystroke	p	n/a
652.5585	0.135	1305117	keystroke	Key.backspace	n/a
652.964	0.1355	1305928	keystroke	m	n/a
653.1155	0.1635	1306231	keystroke	p	n/a
653.398	0.1205	1306796	keystroke	u	n/a
653.4885	0.165	1306977	keystroke	s	n/a
654.193	0.136	1308386	keystroke	Key.space	n/a
654.524	0.1055	1309048	keystroke	c	n/a
654.7045	0.1195	1309409	keystroke	h	n/a
654.839	0.12	1309678	keystroke	r	n/a
654.989	0.18	1309978	keystroke	i	n/a
655.109	0.135	1310218	keystroke	s	n/a
655.379	0.09	1310758	keystroke	t	n/a
655.484	0.105	1310968	keystroke	i	n/a
655.604	0.105	1311208	keystroke	a	n/a
655.785	0.1195	1311570	keystroke	n	n/a
656.098	0.121	1312196	keystroke	Key.enter	n/a
656.2255	15.955	1312451	prompt	n/a	adoption calculators pentium wishlist\n
657.089	0.0595	1314178	keystroke	a	n/a
657.6605	0.104	1315321	keystroke	d	n/a
657.8085	0.1805	1315617	keystroke	o	n/a
657.974	0.135	1315948	keystroke	p	n/a
658.5285	0.1205	1317057	keystroke	t	n/a
658.6645	0.1795	1317329	keystroke	i	n/a
658.754	0.1655	1317508	keystroke	o	n/a
658.904	0.0905	1317808	keystroke	n	n/a
659.309	0.1345	1318618	keystroke	Key.space	n/a
659.549	0.06	1319098	keystroke	c	n/a
659.639	0.12	1319278	keystroke	a	n/a
659.7745	0.1195	1319549	keystroke	l	n/a
660.239	0.09	1320478	keystroke	c	n/a
660.675	0.1195	1321350	keystroke	u	n/a
660.914	0.105	1321828	keystroke	l	n/a
660.974	0.105	1321948	keystroke	a	n/a
661.244	0.105	1322488	keystroke	t	n/a
661.3195	0.179	1322639	keystroke	i	n/a
662.7285	0.1205	1325457	keystroke	o	n/a
663.089	0.045	1326178	keystroke	Key.backspace	n/a
663.239	0.1055	1326478	keystroke	Key.backspace	n/a
663.479	0.1505	1326958	keystroke	o	n/a
663.554	0.165	1327108	keystroke	r	n/a
664.2585	0.1655	1328517	keystroke	s	n/a
664.559	0.12	1329118	keystroke	Key.space	n/a
664.9645	0.119	1329929	keystroke	p	n/a
665.009	0.1645	1330018	keystroke	e	n/a
665.249	0.119	1330498	keystroke	n	n/a
666.029	0.12	1332058	keystroke	t	n/a
