onset	duration	sample	value	key	prompt_text
5.3545	10.708	10709	prompt	n/a	the quick brown fox jumps over a lazy dog\n
7.8115	0.0275	15623	keystroke_t	t	n/a
7.8245	0.0745	15649	keystroke_h	h	n/a
7.929	0.076	15858	keystroke_e	e	n/a
8.0795	0.1045	16159	keystroke_Key.space	Key.space	n/a
8.725	0.0455	17450	keystroke_q	q	n/a
8.7995	0.1205	17599	keystroke_u	u	n/a
8.905	0.075	17810	keystroke_i	i	n/a
9.0245	0.1205	18049	keystroke_c	c	n/a
9.1455	0.059	18291	keystroke_k	k	n/a
9.3245	0.0895	18649	keystroke_Key.space	Key.space	n/a
9.759	0.0455	19518	keystroke_b	b	n/a
9.879	0.091	19758	keystroke_r	r	n/a
10.0455	0.0595	20091	keystroke_o	o	n/a
10.1205	0.0745	20241	keystroke_w	w	n/a
10.4495	0.09	20899	keystroke_n	n	n/a
10.6445	0.0905	21289	keystroke_Key.space	Key.space	n/a
11.0645	0.0605	22129	keystroke_f	f	n/a
11.155	0.0895	22310	keystroke_o	o	n/a
11.3805	0.1045	22761	keystroke_x	x	n/a
11.499	0.076	22998	keystroke_Key.space	Key.space	n/a
11.71	0.06	23420	keystroke_j	j	n/a
11.845	0.1045	23690	keystroke_u	u	n/a
12.1145	0.0755	24229	keystroke_m	m	n/a
12.2495	0.075	24499	keystroke_p	p	n/a
12.34	0.105	24680	keystroke_s	s	n/a
12.4595	0.105	24919	keystroke_Key.space	Key.space	n/a
12.67	0.075	25340	keystroke_o	o	n/a
12.775	0.1045	25550	keystroke_v	v	n/a
12.94	0.15	25880	keystroke_e	e	n/a
13.044	0.106	26088	keystroke_r	r	n/a
13.135	0.044	26270	keystroke_Key.space	Key.space	n/a
13.24	0.0905	26480	keystroke_a	a	n/a
13.3305	0.0745	26661	keystroke_Key.space	Key.space	n/a
13.5555	0.0595	27111	keystroke_k	k	n/a
13.99	0.075	27980	keystroke_Key.backspace	Key.backspace	n/a
14.245	0.0755	28490	keystroke_l	l	n/a
14.3345	0.0745	28669	keystroke_a	a	n/a
14.575	0.1195	29150	keystroke_z	z	n/a
15.1	0.0595	30200	keystroke_y	y	n/a
15.3395	0.1055	30679	keystroke_Key.space	Key.space	n/a
15.505	0.105	31010	keystroke_d	d	n/a
15.6245	0.0905	31249	keystroke_o	o	n/a
15.7295	0.0905	31459	keystroke_g	g	n/a
15.9695	0.0905	31939	keystroke_Key.enter	Key.enter	n/a
16.069	5.9175	32138	prompt	n/a	bones thoughts disagree payable\n
17.0345	0.075	34069	keystroke_b	b	n/a
17.1395	0.135	34279	keystroke_o	o	n/a
17.2295	0.12	34459	keystroke_n	n	n/a
17.3345	0.091	34669	keystroke_e	e	n/a
17.545	0.089	35090	keystroke_s	s	n/a
17.6195	0.0595	35239	keystroke_Key.space	Key.space	n/a
17.784	0.076	35568	keystroke_t	t	n/a
17.875	0.09	35750	keystroke_h	h	n/a
18.0695	0.1355	36139	keystroke_o	o	n/a
18.19	0.06	36380	keystroke_u	u	n/a
18.234	0.0755	36468	keystroke_g	g	n/a
18.385	0.09	36770	keystroke_h	h	n/a
18.445	0.075	36890	keystroke_t	t	n/a
18.7295	0.105	37459	keystroke_s	s	n/a
18.94	0.075	37880	keystroke_Key.space	Key.space	n/a
19.345	0.075	38690	keystroke_d	d	n/a
19.465	0.06	38930	keystroke_i	i	n/a
19.51	0.09	39020	keystroke_s	s	n/a
19.675	0.09	39350	keystroke_a	a	n/a
19.9	0.09	39800	keystroke_g	g	n/a
20.005	0.09	40010	keystroke_r	r	n/a
20.185	0.075	40370	keystroke_e	e	n/a
20.32	0.0895	40640	keystroke_e	e	n/a
20.4545	0.0905	40909	keystroke_Key.space	Key.space	n/a
20.6645	0.1055	41329	keystroke_p	p	n/a
20.7545	0.075	41509	keystroke_a	a	n/a
20.9495	0.075	41899	keystroke_y	y	n/a
21.1145	0.0895	42229	keystroke_a	a	n/a
21.3095	0.09	42619	keystroke_b	b	n/a
21.445	0.0895	42890	keystroke_l	l	n/a
21.5795	0.06	43159	keystroke_e	e	n/a
21.8795	0.1055	43759	keystroke_Key.enter	Key.enter	n/a
21.99	6.7015	43980	prompt	n/a	rover tomorrow orientation winds\n
22.735	0.074	45470	keystroke_r	r	n/a
22.825	0.105	45650	keystroke_o	o	n/a
22.945	0.075	45890	keystroke_v	v	n/a
23.095	0.135	46190	keystroke_e	e	n/a
23.155	0.09	46310	keystroke_r	r	n/a
23.184	0.0905	46368	keystroke_Key.space	Key.space	n/a
23.35	0.0895	46700	keystroke_t	t	n/a
23.455	0.104	46910	keystroke_o	o	n/a
23.619	0.106	47238	keystroke_m	m	n/a
23.755	0.09	47510	keystroke_o	o	n/a
23.86	0.045	47720	keystroke_r	r	n/a
23.98	0.0745	47960	keystroke_r	r	n/a
24.0995	0.0905	48199	keystroke_o	o	n/a
24.234	0.106	48468	keystroke_w	w	n/a
24.594	0.09	49188	keystroke_Key.space	Key.space	n/a
24.804	0.09	49608	keystroke_o	o	n/a
24.924	0.106	49848	keystroke_t	t	n/a
25.315	0.0595	50630	keystroke_i	i	n/a
25.5995	0.0455	51199	keystroke_Key.backspace	Key.backspace	n/a
25.7345	0.06	51469	keystroke_Key.backspace	Key.backspace	n/a
25.9895	0.06	51979	keystroke_r	r	n/a
26.1095	0.075	52219	keystroke_i	i	n/a
26.395	0.09	52790	keystroke_e	e	n/a
26.4995	0.09	52999	keystroke_n	n	n/a
26.6345	0.09	53269	keystroke_t	t	n/a
26.8295	0.0905	53659	keystroke_a	a	n/a
26.98	0.09	53960	keystroke_t	t	n/a
27.0545	0.1805	54109	keystroke_i	i	n/a
27.1295	0.15	54259	keystroke_o	o	n/a
27.2195	0.1205	54439	keystroke_n	n	n/a
27.4145	0.105	54829	keystroke_Key.space	Key.space	n/a
27.88	0.0745	55760	keystroke_w	w	n/a
27.9395	0.0905	55879	keystroke_i	i	n/a
27.97	0.1345	55940	keystroke_n	n	n/a
28.2845	0.09	56569	keystroke_d	d	n/a
28.3895	0.1055	56779	keystroke_s	s	n/a
28.615	0.0745	57230	keystroke_Key.enter	Key.enter	n/a
28.695	10.602	57390	prompt	n/a	selective clip anniversary subaru\n
29.2895	0.075	58579	keystroke_s	s	n/a
29.4995	0.06	58999	keystroke_e	e	n/a
29.5895	0.075	59179	keystroke_l	l	n/a
29.695	0.075	59390	keystroke_e	e	n/a
29.9345	0.1055	59869	keystroke_c	c	n/a
30.3395	0.03	60679	keystroke_t	t	n/a
30.595	0.09	61190	keystroke_i	i	n/a
30.7145	0.0905	61429	keystroke_v	v	n/a
30.895	0.0895	61790	keystroke_e	e	n/a
30.9995	0.075	61999	keystroke_Key.space	Key.space	n/a
31.795	0.1045	63590	keystroke_c	c	n/a
31.8845	0.0895	63769	keystroke_l	l	n/a
32.05	0.12	64100	keystroke_i	i	n/a
32.2895	0.09	64579	keystroke_p	p	n/a
32.545	0.0895	65090	keystroke_n	n	n/a
33.0845	0.0745	66169	keystroke_Key.backspace	Key.backspace	n/a
33.324	0.075	66648	keystroke_Key.space	Key.space	n/a
33.58	0.059	67160	keystroke_a	a	n/a
33.789	0.18	67578	keystroke_n	n	n/a
34.479	0.195	68958	keystroke_n	n	n/a
34.749	0.03	69498	keystroke_o	o	n/a
35.2595	0.075	70519	keystroke_Key.backspace	Key.backspace	n/a
35.5295	0.075	71059	keystroke_i	i	n/a
35.6345	0.105	71269	keystroke_v	v	n/a
35.815	0.1045	71630	keystroke_e	e	n/a
35.8895	0.075	71779	keystroke_r	r	n/a
36.0995	0.06	72199	keystroke_s	s	n/a
36.2495	0.045	72499	keystroke_a	a	n/a
36.8945	0.09	73789	keystroke_r	r	n/a
37.1495	0.09	74299	keystroke_y	y	n/a
37.4495	0.0905	74899	keystroke_Key.space	Key.space	n/a
37.9445	0.09	75889	keystroke_s	s	n/a
38.0045	0.075	76009	keystroke_u	u	n/a
38.1695	0.105	76339	keystroke_b	b	n/a
38.379	0.121	76758	keystroke_a	a	n/a
38.455	0.1195	76910	keystroke_r	r	n/a
38.5895	0.105	77179	keystroke_u	u	n/a
39.1895	0.105	78379	keystroke_Key.enter	Key.enter	n/a
39.301	6.461	78602	prompt	n/a	showtimes at canada catering\n
39.9095	0.12	79819	keystroke_s	s	n/a
40.2545	0.0895	80509	keystroke_h	h	n/a
40.4045	0.105	80809	keystroke_o	o	n/a
40.4945	0.12	80989	keystroke_w	w	n/a
40.8255	0.074	81651	keystroke_t	t	n/a
40.9145	0.165	81829	keystroke_i	i	n/a
40.9755	0.134	81951	keystroke_m	m	n/a
41.0645	0.075	82129	keystroke_e	e	n/a
41.2745	0.075	82549	keystroke_s	s	n/a
41.3795	0.09	82759	keystroke_Key.space	Key.space	n/a
41.919	0.091	83838	keystroke_a	a	n/a
42.0695	0.075	84139	keystroke_t	t	n/a
42.175	0.0895	84350	keystroke_Key.space	Key.space	n/a
42.384	0.121	84768	keystroke_c	c	n/a
42.5345	0.0745	85069	keystroke_a	a	n/a
42.639	0.076	85278	keystroke_n	n	n/a
42.7	0.075	85400	keystroke_a	a	n/a
43.539	0.12	87078	keystroke_d	d	n/a
43.674	0.06	87348	keystroke_a	a	n/a
43.9745	0.075	87949	keystroke_Key.space	Key.space	n/a
44.44	0.105	88880	keystroke_c	c	n/a
44.575	0.075	89150	keystroke_a	a	n/a
44.755	0.104	89510	keystroke_t	t	n/a
44.92	0.105	89840	keystroke_e	e	n/a
44.98	0.09	89960	keystroke_r	r	n/a
45.1	0.105	90200	keystroke_i	i	n/a
45.16	0.12	90320	keystroke_n	n	n/a
45.22	0.089	90440	keystroke_g	g	n/a
45.655	0.104	91310	keystroke_Key.enter	Key.enter	n/a
45.7675	6.9545	91535	prompt	n/a	loop determines herself minerals\n
46.36	0.1045	92720	keystroke_l	l	n/a
46.6145	0.0905	93229	keystroke_o	o	n/a
47.0195	0.0455	94039	keystroke_p	p	n/a
47.485	0.044	94970	keystroke_Key.backspace	Key.backspace	n/a
47.664	0.165	95328	keystroke_o	o	n/a
47.8445	0.06	95689	keystroke_p	p	n/a
48.1595	0.0755	96319	keystroke_Key.space	Key.space	n/a
48.459	0.1205	96918	keystroke_d	d	n/a
48.6095	0.1195	97219	keystroke_e	e	n/a
48.76	0.1045	97520	keystroke_t	t	n/a
48.9095	0.106	97819	keystroke_e	e	n/a
48.969	0.105	97938	keystroke_r	r	n/a
49.089	0.06	98178	keystroke_m	m	n/a
49.209	0.09	98418	keystroke_i	i	n/a
49.285	0.104	98570	keystroke_n	n	n/a
49.3445	0.0745	98689	keystroke_e	e	n/a
49.495	0.104	98990	keystroke_s	s	n/a
49.6	0.059	99200	keystroke_Key.space	Key.space	n/a
49.855	0.119	99710	keystroke_h	h	n/a
49.929	0.105	99858	keystroke_e	e	n/a
50.005	0.09	100010	keystroke_r	r	n/a
50.275	0.104	100550	keystroke_s	s	n/a
50.455	0.09	100910	keystroke_e	e	n/a
50.574	0.0605	101148	keystroke_l	l	n/a
50.7995	0.03	101599	keystroke_f	f	n/a
51.4445	0.06	102889	keystroke_Key.space	Key.space	n/a
51.595	0.1045	103190	keystroke_m	m	n/a
51.7295	0.12	103459	keystroke_i	i	n/a
51.8195	0.105	103639	keystroke_n	n	n/a
51.9545	0.1205	103909	keystroke_e	e	n/a
52.029	0.106	104058	keystroke_r	r	n/a
52.225	0.09	104450	keystroke_a	a	n/a
52.33	0.09	104660	keystroke_l	l	n/a
52.435	0.09	104870	keystroke_s	s	n/a
52.6	0.1195	105200	keystroke_Key.enter	Key.enter	n/a
52.7275	6.684	105455	prompt	n/a	instances rally farmer franklin\n
53.3495	0.135	106699	keystroke_i	i	n/a
53.4395	0.105	106879	keystroke_n	n	n/a
53.5895	0.09	107179	keystroke_s	s	n/a
53.7545	0.09	107509	keystroke_t	t	n/a
53.9345	0.1205	107869	keystroke_a	a	n/a
54.0245	0.1055	108049	keystroke_n	n	n/a
54.1145	0.12	108229	keystroke_c	c	n/a
54.2495	0.1055	108499	keystroke_e	e	n/a
54.5195	0.03	109039	keystroke_s	s	n/a
54.9095	0.075	109819	keystroke_Key.space	Key.space	n/a
55.315	0.09	110630	keystroke_r	r	n/a
55.465	0.09	110930	keystroke_a	a	n/a
55.5695	0.0755	111139	keystroke_l	l	n/a
55.7195	0.1055	111439	keystroke_l	l	n/a
55.81	0.074	111620	keystroke_y	y	n/a
55.93	0.0895	111860	keystroke_Key.space	Key.space	n/a
56.2895	0.075	112579	keystroke_f	f	n/a
56.4095	0.12	112819	keystroke_a	a	n/a
56.4845	0.105	112969	keystroke_r	r	n/a
56.6195	0.105	113239	keystroke_m	m	n/a
56.7095	0.105	113419	keystroke_e	e	n/a
56.7695	0.105	113539	keystroke_r	r	n/a
56.8745	0.0905	113749	keystroke_Key.space	Key.space	n/a
57.565	0.0595	115130	keystroke_f	f	n/a
57.7145	0.0755	115429	keystroke_r	r	n/a
57.8345	0.0905	115669	keystroke_a	a	n/a
57.895	0.1345	115790	keystroke_n	n	n/a
57.969	0.121	115938	keystroke_k	k	n/a
58.27	0.075	116540	keystroke_l	l	n/a
58.509	0.151	117018	keystroke_i	i	n/a
58.6145	0.1195	117229	keystroke_n	n	n/a
59.304	0.105	118608	keystroke_Key.enter	Key.enter	n/a
59.4185	6.9375	118837	prompt	n/a	scenario coated purpose austria\n
60.039	0.075	120078	keystroke_s	s	n/a
60.189	0.1055	120378	keystroke_c	c	n/a
60.354	0.0905	120708	keystroke_e	e	n/a
60.489	0.1055	120978	keystroke_n	n	n/a
60.609	0.106	121218	keystroke_a	a	n/a
60.729	0.136	121458	keystroke_r	r	n/a
60.91	0.1795	121820	keystroke_i	i	n/a
61.015	0.104	122030	keystroke_o	o	n/a
61.299	0.075	122598	keystroke_Key.space	Key.space	n/a
61.75	0.1045	123500	keystroke_c	c	n/a
61.8695	0.1055	123739	keystroke_o	o	n/a
61.96	0.119	123920	keystroke_a	a	n/a
62.2	0.09	124400	keystroke_t	t	n/a
62.365	0.045	124730	keystroke_e	e	n/a
62.65	0.105	125300	keystroke_d	d	n/a
62.904	0.091	125808	keystroke_Key.space	Key.space	n/a
63.175	0.059	126350	keystroke_p	p	n/a
63.43	0.12	126860	keystroke_u	u	n/a
63.52	0.09	127040	keystroke_r	r	n/a
63.7145	0.1955	127429	keystroke_p	p	n/a
63.8645	0.12	127729	keystroke_o	o	n/a
63.9995	0.165	127999	keystroke_s	s	n/a
64.1495	0.105	128299	keystroke_e	e	n/a
64.3895	0.105	128779	keystroke_Key.space	Key.space	n/a
64.5845	0.09	129169	keystroke_a	a	n/a
64.9595	0.0755	129919	keystroke_u	u	n/a
65.1095	0.106	130219	keystroke_s	s	n/a
65.379	0.106	130758	keystroke_t	t	n/a
65.454	0.091	130908	keystroke_r	r	n/a
65.56	0.075	131120	keystroke_i	i	n/a
65.8595	0.0755	131719	keystroke_a	a	n/a
66.25	0.105	132500	keystroke_Key.enter	Key.enter	n/a
66.36	7.8415	132720	prompt	n/a	habits enlarge initially election\n
67.12	0.059	134240	keystroke_h	h	n/a
67.195	0.06	134390	keystroke_a	a	n/a
67.375	0.09	134750	keystroke_b	b	n/a
67.48	0.0895	134960	keystroke_i	i	n/a
67.585	0.0745	135170	keystroke_t	t	n/a
67.7645	0.0905	135529	keystroke_s	s	n/a
67.8845	0.09	135769	keystroke_Key.space	Key.space	n/a
68.065	0.0745	136130	keystroke_e	e	n/a
68.1695	0.0905	136339	keystroke_n	n	n/a
68.7695	0.105	137539	keystroke_l	l	n/a
68.86	0.1495	137720	keystroke_a	a	n/a
68.9945	0.105	137989	keystroke_r	r	n/a
69.2045	0.1505	138409	keystroke_g	g	n/a
69.3995	0.0605	138799	keystroke_e	e	n/a
69.9995	0.075	139999	keystroke_Key.space	Key.space	n/a
70.2995	0.12	140599	keystroke_i	i	n/a
70.3595	0.0905	140719	keystroke_n	n	n/a
70.539	0.09	141078	keystroke_i	i	n/a
71.004	0.09	142008	keystroke_Key.backspace	Key.backspace	n/a
71.455	0.075	142910	keystroke_i	i	n/a
71.59	0.075	143180	keystroke_t	t	n/a
71.8295	0.0755	143659	keystroke_i	i	n/a
71.935	0.075	143870	keystroke_a	a	n/a
72.07	0.075	144140	keystroke_l	l	n/a
72.205	0.09	144410	keystroke_l	l	n/a
72.325	0.075	144650	keystroke_y	y	n/a
72.535	0.09	145070	keystroke_Key.space	Key.space	n/a
72.85	0.075	145700	keystroke_e	e	n/a
73.03	0.105	146060	keystroke_l	l	n/a
73.1495	0.0605	146299	keystroke_e	e	n/a
73.3005	0.1045	146601	keystroke_c	c	n/a
73.495	0.075	146990	keystroke_t	t	n/a
73.54	0.195	147080	keystroke_i	i	n/a
73.63	0.12	147260	keystroke_o	o	n/a
73.69	0.12	147380	keystroke_n	n	n/a
74.11	0.09	148220	keystroke_Key.enter	Key.enter	n/a
74.205	9.9865	148410	prompt	n/a	smtp reasonable amounts featuring\n
74.89	0.1045	149780	keystroke_s	s	n/a
74.98	0.075	149960	keystroke_m	m	n/a
75.5045	0.075	151009	keystroke_t	t	n/a
75.6245	0.075	151249	keystroke_p	p	n/a
76.8995	0.075	153799	keystroke_Key.space	Key.space	n/a
77.305	0.06	154610	keystroke_r	r	n/a
77.32	0.075	154640	keystroke_e	e	n/a
77.59	0.09	155180	keystroke_a	a	n/a
77.74	0.0605	155480	keystroke_s	s	n/a
78.1005	0.1495	156201	keystroke_o	o	n/a
78.19	0.12	156380	keystroke_n	n	n/a
78.34	0.09	156680	keystroke_a	a	n/a
78.49	0.075	156980	keystroke_l	l	n/a
78.85	0.0745	157700	keystroke_Key.backspace	Key.backspace	n/a
79.1045	0.09	158209	keystroke_b	b	n/a
79.2245	0.09	158449	keystroke_l	l	n/a
79.39	0.1045	158780	keystroke_e	e	n/a
79.7345	0.0755	159469	keystroke_Key.space	Key.space	n/a
80.1545	0.09	160309	keystroke_a	a	n/a
80.2745	0.09	160549	keystroke_m	m	n/a
80.455	0.1795	160910	keystroke_o	o	n/a
80.605	0.105	161210	keystroke_u	u	n/a
80.7245	0.06	161449	keystroke_t	t	n/a
80.8295	0.09	161659	keystroke_n	n	n/a
81.1295	0.045	162259	keystroke_Key.backspace	Key.backspace	n/a
81.2495	0.06	162499	keystroke_Key.backspace	Key.backspace	n/a
81.4595	0.09	162919	keystroke_n	n	n/a
81.4895	0.105	162979	keystroke_t	t	n/a
81.61	0.0895	163220	keystroke_s	s	n/a
82.0295	0.0755	164059	keystroke_Key.space	Key.space	n/a
82.63	0.0595	165260	keystroke_f	f	n/a
82.6445	0.12	165289	keystroke_e	e	n/a
82.8245	0.105	165649	keystroke_a	a	n/a
82.9895	0.09	165979	keystroke_t	t	n/a
83.11	0.0745	166220	keystroke_u	u	n/a
83.1995	0.105	166399	keystroke_r	r	n/a
83.4695	0.09	166939	keystroke_i	i	n/a
83.515	0.09	167030	keystroke_n	n	n/a
83.59	0.0895	167180	keystroke_g	g	n/a
84.0695	0.12	168139	keystroke_Key.enter	Key.enter	n/a
84.196	8.3205	168392	prompt	n/a	midi calendars themes curriculum\n
84.8195	0.105	169639	keystroke_m	m	n/a
84.9695	0.1055	169939	keystroke_i	i	n/a
85.09	0.0895	170180	keystroke_d	d	n/a
85.165	0.09	170330	keystroke_i	i	n/a
85.405	0.075	170810	keystroke_Key.space	Key.space	n/a
85.915	0.059	171830	keystroke_c	c	n/a
86.0045	0.105	172009	keystroke_a	a	n/a
86.139	0.09	172278	keystroke_l	l	n/a
86.515	0.0445	173030	keystroke_e	e	n/a
86.74	0.09	173480	keystroke_n	n	n/a
87.0995	0.12	174199	keystroke_d	d	n/a
87.2495	0.1055	174499	keystroke_a	a	n/a
87.3995	0.1055	174799	keystroke_r	r	n/a
87.6095	0.1205	175219	keystroke_s	s	n/a
88.0445	0.075	176089	keystroke_Key.space	Key.space	n/a
88.2395	0.075	176479	keystroke_t	t	n/a
88.3295	0.09	176659	keystroke_h	h	n/a
88.4345	0.0755	176869	keystroke_e	e	n/a
88.5695	0.075	177139	keystroke_m	m	n/a
88.6295	0.0605	177259	keystroke_e	e	n/a
88.7945	0.075	177589	keystroke_s	s	n/a
88.885	0.0895	177770	keystroke_Key.space	Key.space	n/a
89.185	0.09	178370	keystroke_c	c	n/a
89.4995	0.09	178999	keystroke_u	u	n/a
89.86	0.0595	179720	keystroke_r	r	n/a
90.0095	0.0755	180019	keystroke_r	r	n/a
90.175	0.0745	180350	keystroke_i	i	n/a
90.6095	0.1055	181219	keystroke_c	c	n/a
90.865	0.105	181730	keystroke_u	u	n/a
91.375	0.105	182750	keystroke_l	l	n/a
91.87	0.06	183740	keystroke_u	u	n/a
92.065	0.1045	184130	keystroke_m	m	n/a
92.425	0.09	184850	keystroke_Key.enter	Key.enter	n/a
92.5205	7.361	185041	prompt	n/a	religious listed engine dominican\n
93.325	0.12	186650	keystroke_r	r	n/a
93.385	0.1195	186770	keystroke_e	e	n/a
93.52	0.074	187040	keystroke_l	l	n/a
93.699	0.075	187398	keystroke_i	i	n/a
93.789	0.076	187578	keystroke_g	g	n/a
93.894	0.075	187788	keystroke_i	i	n/a
94.105	0.149	188210	keystroke_o	o	n/a
94.2395	0.1045	188479	keystroke_u	u	n/a
94.329	0.076	188658	keystroke_s	s	n/a
94.854	0.09	189708	keystroke_Key.space	Key.space	n/a
95.065	0.09	190130	keystroke_l	l	n/a
95.259	0.091	190518	keystroke_i	i	n/a
95.335	0.0745	190670	keystroke_s	s	n/a
95.515	0.105	191030	keystroke_t	t	n/a
95.605	0.104	191210	keystroke_e	e	n/a
95.77	0.1055	191540	keystroke_d	d	n/a
95.889	0.075	191778	keystroke_Key.space	Key.space	n/a
96.04	0.089	192080	keystroke_e	e	n/a
96.115	0.105	192230	keystroke_n	n	n/a
96.354	0.091	192708	keystroke_g	g	n/a
96.46	0.09	192920	keystroke_i	i	n/a
96.52	0.09	193040	keystroke_n	n	n/a
96.67	0.074	193340	keystroke_e	e	n/a
97.195	0.0445	194390	keystroke_Key.space	Key.space	n/a
97.509	0.091	195018	keystroke_c	c	n/a
98.035	0.0145	196070	keystroke_Key.backspace	Key.backspace	n/a
98.065	0.09	196130	keystroke_d	d	n/a
98.215	0.1045	196430	keystroke_o	o	n/a
98.2745	0.12	196549	keystroke_m	m	n/a
98.6945	0.135	197389	keystroke_i	i	n/a
98.785	0.075	197570	keystroke_n	n	n/a
98.9645	0.1055	197929	keystroke_i	i	n/a
99.2055	0.0895	198411	keystroke_c	c	n/a
99.37	0.105	198740	keystroke_a	a	n/a
99.46	0.09	198920	keystroke_n	n	n/a
99.7895	0.09	199579	keystroke_Key.enter	Key.enter	n/a
99.886	9.0705	199772	prompt	n/a	what specialties fairfield destiny\n
100.54	0.0895	201080	keystroke_w	w	n/a
100.66	0.089	201320	keystroke_h	h	n/a
100.75	0.075	201500	keystroke_a	a	n/a
100.915	0.075	201830	keystroke_t	t	n/a
101.005	0.075	202010	keystroke_Key.space	Key.space	n/a
101.125	0.105	202250	keystroke_s	s	n/a
101.275	0.06	202550	keystroke_p	p	n/a
101.395	0.105	202790	keystroke_e	e	n/a
101.68	0.074	203360	keystroke_c	c	n/a
102.13	0.09	204260	keystroke_i	i	n/a
102.235	0.075	204470	keystroke_a	a	n/a
102.4	0.09	204800	keystroke_l	l	n/a
102.7445	0.045	205489	keystroke_i	i	n/a
103.165	0.075	206330	keystroke_Key.backspace	Key.backspace	n/a
103.405	0.06	206810	keystroke_t	t	n/a
103.555	0.074	207110	keystroke_i	i	n/a
103.72	0.0745	207440	keystroke_e	e	n/a
103.9	0.075	207800	keystroke_s	s	n/a
104.44	0.015	208880	keystroke_Key.space	Key.space	n/a
104.7555	0.0895	209511	keystroke_f	f	n/a
104.905	0.06	209810	keystroke_a	a	n/a
105.01	0.09	210020	keystroke_i	i	n/a
105.145	0.1055	210290	keystroke_r	r	n/a
105.745	0.075	211490	keystroke_f	f	n/a
105.865	0.075	211730	keystroke_i	i	n/a
105.925	0.09	211850	keystroke_e	e	n/a
106.06	0.105	212120	keystroke_l	l	n/a
106.135	0.09	212270	keystroke_d	d	n/a
106.33	0.075	212660	keystroke_Key.space	Key.space	n/a
106.6	0.075	213200	keystroke_d	d	n/a
106.735	0.135	213470	keystroke_e	e	n/a
107.05	0.06	214100	keystroke_s	s	n/a
107.559	0.09	215118	keystroke_t	t	n/a
107.634	0.135	215268	keystroke_i	i	n/a
107.71	0.105	215420	keystroke_n	n	n/a
107.829	0.0455	215658	keystroke_y	y	n/a
108.85	0.105	217700	keystroke_Key.enter	Key.enter	n/a
108.96	8.2165	217920	prompt	n/a	loans striking regulatory getting\n
109.72	0.09	219440	keystroke_l	l	n/a
109.945	0.09	219890	keystroke_o	o	n/a
110.065	0.09	220130	keystroke_a	a	n/a
110.215	0.105	220430	keystroke_n	n	n/a
110.305	0.09	220610	keystroke_s	s	n/a
110.65	0.0745	221300	keystroke_Key.space	Key.space	n/a
111.0105	0.0745	222021	keystroke_s	s	n/a
111.28	0.105	222560	keystroke_t	t	n/a
111.4	0.06	222800	keystroke_r	r	n/a
111.685	0.06	223370	keystroke_i	i	n/a
111.88	0.09	223760	keystroke_k	k	n/a
112.045	0.135	224090	keystroke_i	i	n/a
112.12	0.135	224240	keystroke_n	n	n/a
112.195	0.075	224390	keystroke_g	g	n/a
112.345	0.12	224690	keystroke_Key.space	Key.space	n/a
112.6	0.09	225200	keystroke_r	r	n/a
112.675	0.12	225350	keystroke_e	e	n/a
114.0705	0.0445	228141	keystroke_g	g	n/a
114.25	0.015	228500	keystroke_u	u	n/a
114.415	0.105	228830	keystroke_l	l	n/a
114.684	0.091	229368	keystroke_a	a	n/a
115.2705	0.059	230541	keystroke_t	t	n/a
115.3745	0.1055	230749	keystroke_o	o	n/a
115.465	0.0745	230930	keystroke_r	r	n/a
115.6755	0.074	231351	keystroke_y	y	n/a
115.7645	0.09	231529	keystroke_Key.space	Key.space	n/a
116.2295	0.076	232459	keystroke_g	g	n/a
116.3495	0.0905	232699	keystroke_e	e	n/a
116.485	0.0745	232970	keystroke_t	t	n/a
116.6045	0.1055	233209	keystroke_t	t	n/a
116.6945	0.1205	233389	keystroke_i	i	n/a
116.7545	0.091	233509	keystroke_n	n	n/a
116.8155	0.089	233631	keystroke_g	g	n/a
117.085	0.09	234170	keystroke_Key.enter	Key.enter	n/a
117.181	8.6505	234362	prompt	n/a	hardcover british once renewal\n
117.9555	0.1195	235911	keystroke_h	h	n/a
118.03	0.12	236060	keystroke_a	a	n/a
118.1505	0.0745	236301	keystroke_r	r	n/a
118.285	0.12	236570	keystroke_d	d	n/a
118.93	0.075	237860	keystroke_c	c	n/a
119.14	0.075	238280	keystroke_o	o	n/a
119.2	0.09	238400	keystroke_v	v	n/a
119.365	0.12	238730	keystroke_e	e	n/a
119.44	0.09	238880	keystroke_r	r	n/a
119.665	0.075	239330	keystroke_Key.space	Key.space	n/a
120.46	0.09	240920	keystroke_b	b	n/a
120.61	0.105	241220	keystroke_r	r	n/a
120.73	0.075	241460	keystroke_i	i	n/a
120.865	0.045	241730	keystroke_t	t	n/a
121.015	0.09	242030	keystroke_i	i	n/a
121.18	0.09	242360	keystroke_s	s	n/a
121.315	0.06	242630	keystroke_h	h	n/a
121.555	0.0895	243110	keystroke_Key.space	Key.space	n/a
121.825	0.1495	243650	keystroke_o	o	n/a
121.945	0.12	243890	keystroke_n	n	n/a
122.1245	0.075	244249	keystroke_c	c	n/a
122.1695	0.09	244339	keystroke_e	e	n/a
122.455	0.1045	244910	keystroke_Key.space	Key.space	n/a
123.0995	0.091	246199	keystroke_r	r	n/a
123.1745	0.06	246349	keystroke_e	e	n/a
123.265	0.0895	246530	keystroke_n	n	n/a
123.3555	0.089	246711	keystroke_e	e	n/a
124.015	0.03	248030	keystroke_w	w	n/a
124.135	0.089	248270	keystroke_l	l	n/a
124.884	0.106	249768	keystroke_Key.backspace	Key.backspace	n/a
125.14	0.09	250280	keystroke_a	a	n/a
125.305	0.0905	250610	keystroke_l	l	n/a
125.74	0.09	251480	keystroke_Key.enter	Key.enter	n/a
125.836	8.5765	251672	prompt	n/a	pill diesel positions exceed\n
128.037	0.028	256074	keystroke_p	p	n/a
128.2	0.075	256400	keystroke_i	i	n/a
128.425	0.0605	256850	keystroke_l	l	n/a
128.545	0.075	257090	keystroke_l	l	n/a
128.935	0.09	257870	keystroke_Key.space	Key.space	n/a
129.3245	0.106	258649	keystroke_d	d	n/a
129.4145	0.09	258829	keystroke_i	i	n/a
129.7745	0.045	259549	keystroke_e	e	n/a
129.925	0.0895	259850	keystroke_s	s	n/a
130.4645	0.075	260929	keystroke_e	e	n/a
130.5705	0.104	261141	keystroke_l	l	n/a
131.3345	0.105	262669	keystroke_Key.space	Key.space	n/a
131.62	0.09	263240	keystroke_p	p	n/a
131.755	0.105	263510	keystroke_o	o	n/a
131.9045	0.076	263809	keystroke_s	s	n/a
131.9945	0.0605	263989	keystroke_i	i	n/a
132.13	0.075	264260	keystroke_t	t	n/a
132.1745	0.135	264349	keystroke_i	i	n/a
132.2195	0.1355	264439	keystroke_o	o	n/a
132.325	0.09	264650	keystroke_n	n	n/a
132.4155	0.074	264831	keystroke_s	s	n/a
132.5645	0.075	265129	keystroke_Key.space	Key.space	n/a
132.7895	0.075	265579	keystroke_e	e	n/a
133.4945	0.1055	266989	keystroke_x	x	n/a
133.7195	0.0605	267439	keystroke_c	c	n/a
133.8555	0.0745	267711	keystroke_e	e	n/a
133.99	0.0895	267980	keystroke_e	e	n/a
134.155	0.0905	268310	keystroke_d	d	n/a
134.3045	0.105	268609	keystroke_Key.enter	Key.enter	n/a
134.4165	7.585	268833	prompt	n/a	blind morgan reviews suspension\n
135.3695	0.09	270739	keystroke_b	b	n/a
135.4895	0.075	270979	keystroke_l	l	n/a
135.6705	0.149	271341	keystroke_i	i	n/a
135.7895	0.105	271579	keystroke_n	n	n/a
135.8645	0.0905	271729	keystroke_d	d	n/a
135.9995	0.0755	271999	keystroke_Key.space	Key.space	n/a
136.1795	0.105	272359	keystroke_m	m	n/a
136.2995	0.1205	272599	keystroke_o	o	n/a
136.405	0.045	272810	keystroke_r	r	n/a
136.57	0.075	273140	keystroke_g	g	n/a
136.72	0.089	273440	keystroke_a	a	n/a
136.795	0.075	273590	keystroke_n	n	n/a
136.99	0.09	273980	keystroke_Key.space	Key.space	n/a
137.3195	0.12	274639	keystroke_r	r	n/a
137.3945	0.12	274789	keystroke_e	e	n/a
137.6045	0.105	275209	keystroke_v	v	n/a
137.7395	0.0605	275479	keystroke_i	i	n/a
137.8445	0.105	275689	keystroke_e	e	n/a
137.9045	0.09	275809	keystroke_w	w	n/a
138.0695	0.105	276139	keystroke_s	s	n/a
138.205	0.0895	276410	keystroke_Key.space	Key.space	n/a
138.55	0.06	277100	keystroke_s	s	n/a
138.625	0.105	277250	keystroke_u	u	n/a
138.715	0.075	277430	keystroke_s	s	n/a
139.2395	0.0455	278479	keystroke_p	p	n/a
139.81	0.075	279620	keystroke_e	e	n/a
139.885	0.0595	279770	keystroke_n	n	n/a
141.13	0.105	282260	keystroke_s	s	n/a
141.2205	0.1645	282441	keystroke_i	i	n/a
141.2795	0.1205	282559	keystroke_o	o	n/a
141.3395	0.1055	282679	keystroke_n	n	n/a
141.8945	0.105	283789	keystroke_Key.enter	Key.enter	n/a
142.006	6.0255	284012	prompt	n/a	large pursuant indicate formed\n
142.675	0.135	285350	keystroke_l	l	n/a
142.81	0.075	285620	keystroke_a	a	n/a
142.9	0.09	285800	keystroke_r	r	n/a
143.08	0.09	286160	keystroke_g	g	n/a
143.185	0.12	286370	keystroke_e	e	n/a
143.32	0.09	286640	keystroke_Key.space	Key.space	n/a
143.635	0.045	287270	keystroke_p	p	n/a
143.815	0.09	287630	keystroke_u	u	n/a
143.874	0.091	287748	keystroke_r	r	n/a
144.1	0.06	288200	keystroke_s	s	n/a
144.175	0.09	288350	keystroke_u	u	n/a
144.4	0.075	288800	keystroke_a	a	n/a
144.49	0.105	288980	keystroke_n	n	n/a
144.61	0.09	289220	keystroke_t	t	n/a
144.759	0.09	289518	keystroke_Key.space	Key.space	n/a
145.4945	0.1355	290989	keystroke_i	i	n/a
145.57	0.1045	291140	keystroke_n	n	n/a
145.93	0.105	291860	keystroke_d	d	n/a
146.049	0.075	292098	keystroke_i	i	n/a
146.29	0.105	292580	keystroke_c	c	n/a
146.439	0.106	292878	keystroke_a	a	n/a
146.605	0.1345	293210	keystroke_t	t	n/a
146.7245	0.1055	293449	keystroke_e	e	n/a
146.8745	0.1205	293749	keystroke_Key.space	Key.space	n/a
147.1595	0.105	294319	keystroke_f	f	n/a
147.2795	0.1055	294559	keystroke_o	o	n/a
147.37	0.09	294740	keystroke_r	r	n/a
147.5045	0.09	295009	keystroke_m	m	n/a
147.5495	0.09	295099	keystroke_e	e	n/a
147.7145	0.105	295429	keystroke_d	d	n/a
147.94	0.09	295880	keystroke_Key.enter	Key.enter	n/a
148.0365	7.375	296073	prompt	n/a	divisions thongs lauderdale envelope\n
148.87	0.1045	297740	keystroke_d	d	n/a
149.0195	0.0905	298039	keystroke_i	i	n/a
149.0945	0.0905	298189	keystroke_v	v	n/a
149.2145	0.075	298429	keystroke_i	i	n/a
149.3045	0.075	298609	keystroke_s	s	n/a
149.4095	0.18	298819	keystroke_i	i	n/a
149.485	0.135	298970	keystroke_o	o	n/a
149.5595	0.105	299119	keystroke_n	n	n/a
149.6495	0.09	299299	keystroke_s	s	n/a
149.7545	0.1205	299509	keystroke_Key.space	Key.space	n/a
150.07	0.0745	300140	keystroke_t	t	n/a
150.1895	0.0455	300379	keystroke_h	h	n/a
150.31	0.135	300620	keystroke_o	o	n/a
150.3995	0.105	300799	keystroke_n	n	n/a
150.46	0.0745	300920	keystroke_g	g	n/a
150.6395	0.075	301279	keystroke_s	s	n/a
150.6995	0.105	301399	keystroke_Key.space	Key.space	n/a
150.9845	0.0905	301969	keystroke_l	l	n/a
151.135	0.0895	302270	keystroke_a	a	n/a
151.255	0.0895	302510	keystroke_u	u	n/a
151.4045	0.1055	302809	keystroke_d	d	n/a
151.57	0.105	303140	keystroke_e	e	n/a
151.645	0.075	303290	keystroke_r	r	n/a
151.8695	0.12	303739	keystroke_d	d	n/a
152.035	0.1045	304070	keystroke_a	a	n/a
152.1695	0.075	304339	keystroke_l	l	n/a
152.3195	0.045	304639	keystroke_e	e	n/a
152.7995	0.09	305599	keystroke_Key.space	Key.space	n/a
153.2795	0.045	306559	keystroke_e	e	n/a
153.3395	0.09	306679	keystroke_n	n	n/a
153.8495	0.045	307699	keystroke_v	v	n/a
154	0.074	308000	keystroke_e	e	n/a
154.09	0.105	308180	keystroke_l	l	n/a
154.779	0.0755	309558	keystroke_o	o	n/a
154.8395	0.06	309679	keystroke_p	p	n/a
154.9145	0.0905	309829	keystroke_e	e	n/a
155.3045	0.105	310609	keystroke_Key.enter	Key.enter	n/a
155.419	10.207	310838	prompt	n/a	restaurants servers security squad\n
156.1745	0.1055	312349	keystroke_r	r	n/a
156.235	0.089	312470	keystroke_e	e	n/a
156.3995	0.0605	312799	keystroke_s	s	n/a
156.534	0.106	313068	keystroke_t	t	n/a
156.744	0.091	313488	keystroke_a	a	n/a
156.879	0.091	313758	keystroke_u	u	n/a
156.924	0.106	313848	keystroke_r	r	n/a
157.074	0.091	314148	keystroke_a	a	n/a
157.2245	0.0905	314449	keystroke_n	n	n/a
157.33	0.06	314660	keystroke_t	t	n/a
157.495	0.105	314990	keystroke_s	s	n/a
157.704	0.106	315408	keystroke_Key.space	Key.space	n/a
158.065	0.06	316130	keystroke_s	s	n/a
158.17	0.105	316340	keystroke_e	e	n/a
158.41	0.09	316820	keystroke_v	v	n/a
158.5745	0.12	317149	keystroke_e	e	n/a
158.665	0.12	317330	keystroke_r	r	n/a
158.7995	0.1055	317599	keystroke_s	s	n/a
159.385	0.045	318770	keystroke_Key.space	Key.space	n/a
159.4745	0.0755	318949	keystroke_e	e	n/a
159.655	0.075	319310	keystroke_s	s	n/a
160.0295	0.06	320059	keystroke_Key.backspace	Key.backspace	n/a
160.1645	0.075	320329	keystroke_Key.backspace	Key.backspace	n/a
160.18	0.12	320360	keystroke_s	s	n/a
160.285	0.12	320570	keystroke_e	e	n/a
160.8245	0.1055	321649	keystroke_c	c	n/a
161.1695	0.06	322339	keystroke_u	u	n/a
161.2445	0.1055	322489	keystroke_r	r	n/a
161.38	0.105	322760	keystroke_i	i	n/a
161.4995	0.06	322999	keystroke_t	t	n/a
161.6645	0.075	323329	keystroke_y	y	n/a
162.1145	0.075	324229	keystroke_Key.space	Key.space	n/a
162.2945	0.075	324589	keystroke_s	s	n/a
162.519	0.075	325038	keystroke_w	w	n/a
162.6995	0.075	325399	keystroke_u	u	n/a
162.789	0.076	325578	keystroke_a	a	n/a
163.029	0.106	326058	keystroke_d	d	n/a
163.464	0.076	326928	keystroke_Key.backspace	Key.backspace	n/a
163.6	0.075	327200	keystroke_Key.backspace	Key.backspace	n/a
163.75	0.074	327500	keystroke_Key.backspace	Key.backspace	n/a
163.915	0.09	327830	keystroke_Key.backspace	Key.backspace	n/a
164.0945	0.075	328189	keystroke_q	q	n/a
164.679	0.06	329358	keystroke_u	u	n/a
164.695	0.09	329390	keystroke_a	a	n/a
165.145	0.089	330290	keystroke_d	d	n/a
165.52	0.105	331040	keystroke_Key.enter	Key.enter	n/a
165.6295	7.887	331259	prompt	n/a	blowing stomach thought sing\n
166.48	0.089	332960	keystroke_b	b	n/a
166.585	0.09	333170	keystroke_l	l	n/a
166.735	0.089	333470	keystroke_o	o	n/a
166.794	0.075	333588	keystroke_w	w	n/a
166.974	0.1505	333948	keystroke_i	i	n/a
167.065	0.1195	334130	keystroke_n	n	n/a
167.1545	0.0755	334309	keystroke_g	g	n/a
167.649	0.046	335298	keystroke_Key.space	Key.space	n/a
167.799	0.091	335598	keystroke_s	s	n/a
167.995	0.0895	335990	keystroke_t	t	n/a
168.0695	0.105	336139	keystroke_o	o	n/a
168.1595	0.0755	336319	keystroke_m	m	n/a
168.3095	0.09	336619	keystroke_a	a	n/a
168.5495	0.075	337099	keystroke_c	c	n/a
168.6395	0.045	337279	keystroke_h	h	n/a
168.9995	0.075	337999	keystroke_Key.space	Key.space	n/a
169.5095	0.0905	339019	keystroke_t	t	n/a
169.5695	0.0905	339139	keystroke_h	h	n/a
169.7495	0.15	339499	keystroke_o	o	n/a
169.9145	0.06	339829	keystroke_g	g	n/a
169.9595	0.09	339919	keystroke_u	u	n/a
170.2145	0.0455	340429	keystroke_t	t	n/a
170.56	0.059	341120	keystroke_Key.backspace	Key.backspace	n/a
170.7095	0.0755	341419	keystroke_Key.backspace	Key.backspace	n/a
171.19	0.0895	342380	keystroke_Key.backspace	Key.backspace	n/a
171.4445	0.09	342889	keystroke_u	u	n/a
171.5495	0.0755	343099	keystroke_g	g	n/a
171.6545	0.09	343309	keystroke_h	h	n/a
171.7145	0.075	343429	keystroke_t	t	n/a
171.985	0.1045	343970	keystroke_Key.space	Key.space	n/a
172.2995	0.0605	344599	keystroke_s	s	n/a
172.6895	0.1055	345379	keystroke_i	i	n/a
172.7495	0.09	345499	keystroke_n	n	n/a
172.96	0.06	345920	keystroke_g	g	n/a
173.41	0.1045	346820	keystroke_Key.enter	Key.enter	n/a
173.521	10.0905	347042	prompt	n/a	motherboard packaging mission diagnosis\n
174.1445	0.09	348289	keystroke_m	m	n/a
174.3095	0.09	348619	keystroke_o	o	n/a
174.4295	0.105	348859	keystroke_t	t	n/a
174.52	0.0895	349040	keystroke_h	h	n/a
174.595	0.0895	349190	keystroke_e	e	n/a
174.655	0.09	349310	keystroke_r	r	n/a
175.0145	0.06	350029	keystroke_b	b	n/a
175.1045	0.06	350209	keystroke_o	o	n/a
175.2695	0.1055	350539	keystroke_a	a	n/a
175.39	0.06	350780	keystroke_r	r	n/a
175.5395	0.09	351079	keystroke_d	d	n/a
175.6745	0.105	351349	keystroke_Key.space	Key.space	n/a
176.215	0.074	352430	keystroke_p	p	n/a
176.335	0.1045	352670	keystroke_a	a	n/a
176.4995	0.1055	352999	keystroke_c	c	n/a
176.65	0.075	353300	keystroke_k	k	n/a
176.799	0.1205	353598	keystroke_a	a	n/a
177.265	0.075	354530	keystroke_g	g	n/a
177.3695	0.1355	354739	keystroke_i	i	n/a
177.444	0.106	354888	keystroke_n	n	n/a
177.519	0.09	355038	keystroke_g	g	n/a
177.654	0.0905	355308	keystroke_Key.space	Key.space	n/a
177.969	0.076	355938	keystroke_m	m	n/a
178.0895	0.1055	356179	keystroke_i	i	n/a
178.195	0.06	356390	keystroke_s	s	n/a
178.36	0.075	356720	keystroke_s	s	n/a
178.45	0.21	356900	keystroke_i	i	n/a
178.585	0.1205	357170	keystroke_o	o	n/a
178.675	0.09	357350	keystroke_n	n	n/a
179.005	0.075	358010	keystroke_Key.space	Key.space	n/a
179.68	0.09	359360	keystroke_d	d	n/a
179.815	0.09	359630	keystroke_i	i	n/a
179.935	0.075	359870	keystroke_s	s	n/a
180.145	0.045	360290	keystroke_a	a	n/a
180.73	0.06	361460	keystroke_Key.backspace	Key.backspace	n/a
180.88	0.074	361760	keystroke_Key.backspace	Key.backspace	n/a
181.015	0.075	362030	keystroke_a	a	n/a
181.675	0.09	363350	keystroke_g	g	n/a
181.84	0.075	363680	keystroke_n	n	n/a
182.754	0.076	365508	keystroke_o	o	n/a
183.01	0.09	366020	keystroke_s	s	n/a
183.115	0.06	366230	keystroke_i	i	n/a
183.19	0.075	366380	keystroke_s	s	n/a
183.52	0.09	367040	keystroke_Key.enter	Key.enter	n/a
183.616	8.741	367232	prompt	n/a	stopped snapshot discovered ieee\n
184.225	0.0895	368450	keystroke_s	s	n/a
184.42	0.0745	368840	keystroke_t	t	n/a
185.0945	0.105	370189	keystroke_o	o	n/a
185.2745	0.045	370549	keystroke_p	p	n/a
185.4695	0.09	370939	keystroke_p	p	n/a
185.6195	0.0755	371239	keystroke_e	e	n/a
185.7845	0.09	371569	keystroke_d	d	n/a
185.935	0.09	371870	keystroke_Key.space	Key.space	n/a
186.1145	0.105	372229	keystroke_s	s	n/a
186.2045	0.105	372409	keystroke_n	n	n/a
186.3245	0.0755	372649	keystroke_a	a	n/a
186.5495	0.0755	373099	keystroke_p	p	n/a
187.2095	0.105	374419	keystroke_s	s	n/a
187.3595	0.09	374719	keystroke_h	h	n/a
187.6895	0.105	375379	keystroke_o	o	n/a
187.7795	0.0905	375559	keystroke_t	t	n/a
188.514	0.091	377028	keystroke_Key.space	Key.space	n/a
189.415	0.0905	378830	keystroke_d	d	n/a
189.565	0.075	379130	keystroke_i	i	n/a
189.715	0.09	379430	keystroke_s	s	n/a
190	0.075	380000	keystroke_c	c	n/a
190.06	0.0895	380120	keystroke_o	o	n/a
190.1795	0.105	380359	keystroke_v	v	n/a
190.3595	0.105	380719	keystroke_e	e	n/a
190.4345	0.1205	380869	keystroke_r	r	n/a
190.5395	0.0905	381079	keystroke_e	e	n/a
190.6745	0.09	381349	keystroke_d	d	n/a
190.8095	0.09	381619	keystroke_Key.space	Key.space	n/a
191.17	0.1045	382340	keystroke_i	i	n/a
191.32	0.075	382640	keystroke_e	e	n/a
191.515	0.06	383030	keystroke_e	e	n/a
191.994	0.09	383988	keystroke_e	e	n/a
192.264	0.0905	384528	keystroke_Key.enter	Key.enter	n/a
192.3615	10.06	384723	prompt	n/a	robots consistency richardson cylinder\n
193.1795	0.105	386359	keystroke_r	r	n/a
193.419	0.09	386838	keystroke_o	o	n/a
193.569	0.105	387138	keystroke_b	b	n/a
193.69	0.0895	387380	keystroke_o	o	n/a
193.765	0.089	387530	keystroke_t	t	n/a
193.945	0.0895	387890	keystroke_s	s	n/a
194.08	0.09	388160	keystroke_Key.space	Key.space	n/a
194.32	0.0895	388640	keystroke_c	c	n/a
194.3645	0.105	388729	keystroke_o	o	n/a
194.4845	0.0605	388969	keystroke_n	n	n/a
194.695	0.0895	389390	keystroke_s	s	n/a
194.845	0.0745	389690	keystroke_i	i	n/a
195.25	0.0895	390500	keystroke_s	s	n/a
195.4895	0.075	390979	keystroke_t	t	n/a
195.6245	0.09	391249	keystroke_e	e	n/a
195.7295	0.075	391459	keystroke_n	n	n/a
195.9095	0.105	391819	keystroke_c	c	n/a
196.1645	0.0905	392329	keystroke_y	y	n/a
196.2995	0.09	392599	keystroke_Key.space	Key.space	n/a
196.6295	0.075	393259	keystroke_r	r	n/a
196.7495	0.1055	393499	keystroke_i	i	n/a
196.9145	0.0905	393829	keystroke_c	c	n/a
197.02	0.09	394040	keystroke_h	h	n/a
197.125	0.03	394250	keystroke_e	e	n/a
197.305	0.0605	394610	keystroke_a	a	n/a
197.695	0.075	395390	keystroke_Key.backspace	Key.backspace	n/a
197.83	0.09	395660	keystroke_Key.backspace	Key.backspace	n/a
197.875	0.12	395750	keystroke_a	a	n/a
197.965	0.09	395930	keystroke_r	r	n/a
198.16	0.105	396320	keystroke_d	d	n/a
198.325	0.12	396650	keystroke_s	s	n/a
198.4895	0.1505	396979	keystroke_o	o	n/a
198.595	0.105	397190	keystroke_n	n	n/a
198.79	0.075	397580	keystroke_Key.space	Key.space	n/a
200.245	0.09	400490	keystroke_c	c	n/a
200.56	0.09	401120	keystroke_y	y	n/a
200.665	0.09	401330	keystroke_l	l	n/a
200.89	0.135	401780	keystroke_i	i	n/a
200.965	0.12	401930	keystroke_n	n	n/a
201.595	0.075	403190	keystroke_d	d	n/a
201.745	0.12	403490	keystroke_e	e	n/a
201.82	0.105	403640	keystroke_r	r	n/a
202.33	0.09	404660	keystroke_Key.enter	Key.enter	n/a
202.4255	11.591	404851	prompt	n/a	settled montreal commodity than\n
203.0495	0.075	406099	keystroke_s	s	n/a
203.1995	0.09	406399	keystroke_e	e	n/a
203.3945	0.06	406789	keystroke_t	t	n/a
203.5595	0.03	407119	keystroke_t	t	n/a
203.9645	0.0905	407929	keystroke_l	l	n/a
204.0395	0.075	408079	keystroke_e	e	n/a
204.2195	0.09	408439	keystroke_d	d	n/a
204.3995	0.09	408799	keystroke_Key.space	Key.space	n/a
204.6705	0.089	409341	keystroke_m	m	n/a
204.8045	0.09	409609	keystroke_o	o	n/a
205	0.0445	410000	keystroke_n	n	n/a
205.0145	0.031	410029	keystroke_r	r	n/a
205.735	0.105	411470	keystroke_Key.backspace	Key.backspace	n/a
205.855	0.09	411710	keystroke_t	t	n/a
205.915	0.09	411830	keystroke_r	r	n/a
206.125	0.089	412250	keystroke_a	a	n/a
206.244	0.075	412488	keystroke_l	l	n/a
206.875	0.075	413750	keystroke_Key.backspace	Key.backspace	n/a
207.01	0.075	414020	keystroke_Key.backspace	Key.backspace	n/a
207.055	0.105	414110	keystroke_e	e	n/a
207.205	0.075	414410	keystroke_a	a	n/a
207.385	0.075	414770	keystroke_l	l	n/a
207.925	0.074	415850	keystroke_Key.space	Key.space	n/a
208.389	0.105	416778	keystroke_c	c	n/a
208.464	0.075	416928	keystroke_o	o	n/a
208.6155	0.06	417231	keystroke_m	m	n/a
208.735	0.0745	417470	keystroke_m	m	n/a
208.9155	0.0585	417831	keystroke_o	o	n/a
209.08	0.059	418160	keystroke_t	t	n/a
209.395	0.075	418790	keystroke_Key.backspace	Key.backspace	n/a
209.485	0.075	418970	keystroke_d	d	n/a
209.875	0.06	419750	keystroke_i	i	n/a
210.4	0.074	420800	keystroke_t	t	n/a
211.66	0.12	423320	keystroke_y	y	n/a
212.485	0.105	424970	keystroke_Key.space	Key.space	n/a
212.62	0.09	425240	keystroke_t	t	n/a
212.725	0.12	425450	keystroke_h	h	n/a
212.995	0.074	425990	keystroke_a	a	n/a
213.055	0.09	426110	keystroke_n	n	n/a
213.94	0.0745	427880	keystroke_Key.enter	Key.enter	n/a
214.0205	12.896	428041	prompt	n/a	publicly stars simulations genetic\n
215.3045	0.135	430609	keystroke_p	p	n/a
215.5445	0.1055	431089	keystroke_u	u	n/a
216.115	0.074	432230	keystroke_b	b	n/a
216.805	0.0895	433610	keystroke_l	l	n/a
216.9845	0.075	433969	keystroke_i	i	n/a
217.1045	0.075	434209	keystroke_c	c	n/a
217.99	0.105	435980	keystroke_y	y	n/a
218.3795	0.0755	436759	keystroke_Key.space	Key.space	n/a
218.56	0.075	437120	keystroke_s	s	n/a
218.694	0.121	437388	keystroke_t	t	n/a
218.889	0.15	437778	keystroke_a	a	n/a
219.025	0.089	438050	keystroke_r	r	n/a
219.205	0.104	438410	keystroke_s	s	n/a
219.324	0.09	438648	keystroke_Key.space	Key.space	n/a
219.714	0.0905	439428	keystroke_s	s	n/a
219.82	0.044	439640	keystroke_u	u	n/a
219.999	0.09	439998	keystroke_m	m	n/a
220.3895	0.06	440779	keystroke_Key.backspace	Key.backspace	n/a
220.525	0.0595	441050	keystroke_Key.backspace	Key.backspace	n/a
220.794	0.15	441588	keystroke_i	i	n/a
220.884	0.105	441768	keystroke_m	m	n/a
221.109	0.075	442218	keystroke_u	u	n/a
221.335	0.089	442670	keystroke_l	l	n/a
221.44	0.0595	442880	keystroke_a	a	n/a
221.6195	0.104	443239	keystroke_r	r	n/a
221.8745	0.0755	443749	keystroke_i	i	n/a
222.234	0.0455	444468	keystroke_Key.backspace	Key.backspace	n/a
222.354	0.06	444708	keystroke_Key.backspace	Key.backspace	n/a
222.415	0.0895	444830	keystroke_t	t	n/a
222.775	0.165	445550	keystroke_i	i	n/a
222.925	0.119	445850	keystroke_o	o	n/a
223.194	0.075	446388	keystroke_n	n	n/a
223.315	0.0595	446630	keystroke_s	s	n/a
223.8995	0.1495	447799	keystroke_Key.space	Key.space	n/a
224.23	0.0745	448460	keystroke_g	g	n/a
224.365	0.0745	448730	keystroke_e	e	n/a
224.4695	0.0895	448939	keystroke_n	n	n/a
224.575	0.075	449150	keystroke_e	e	n/a
224.9795	0.0905	449959	keystroke_t	t	n/a
225.204	0.09	450408	keystroke_i	i	n/a
225.835	0.0895	451670	keystroke_c	c	n/a
226.824	0.0905	453648	keystroke_Key.enter	Key.enter	n/a
226.92	6.896	453840	prompt	n/a	conflict tanks experiences platforms\n
227.7845	0.075	455569	keystroke_c	c	n/a
227.8895	0.15	455779	keystroke_o	o	n/a
228.0245	0.075	456049	keystroke_n	n	n/a
228.1895	0.0755	456379	keystroke_f	f	n/a
228.3095	0.0905	456619	keystroke_l	l	n/a
228.505	0.0745	457010	keystroke_i	i	n/a
228.5645	0.0755	457129	keystroke_c	c	n/a
228.7595	0.105	457519	keystroke_t	t	n/a
228.9245	0.09	457849	keystroke_Key.space	Key.space	n/a
229.4345	0.075	458869	keystroke_t	t	n/a
229.5995	0.09	459199	keystroke_a	a	n/a
229.7045	0.1205	459409	keystroke_n	n	n/a
229.7645	0.0755	459529	keystroke_k	k	n/a
229.825	0.089	459650	keystroke_s	s	n/a
229.959	0.0905	459918	keystroke_Key.space	Key.space	n/a
230.4695	0.06	460939	keystroke_e	e	n/a
230.664	0.1505	461328	keystroke_x	x	n/a
230.9195	0.075	461839	keystroke_p	p	n/a
231.0695	0.105	462139	keystroke_e	e	n/a
231.1595	0.105	462319	keystroke_r	r	n/a
231.3245	0.0895	462649	keystroke_i	i	n/a
231.4295	0.0595	462859	keystroke_e	e	n/a
231.5195	0.09	463039	keystroke_n	n	n/a
231.6245	0.0905	463249	keystroke_c	c	n/a
231.7	0.1045	463400	keystroke_e	e	n/a
231.8645	0.1055	463729	keystroke_s	s	n/a
231.9995	0.09	463999	keystroke_Key.space	Key.space	n/a
232.3295	0.135	464659	keystroke_p	p	n/a
232.4795	0.12	464959	keystroke_l	l	n/a
232.6295	0.105	465259	keystroke_a	a	n/a
232.8245	0.105	465649	keystroke_t	t	n/a
233.1245	0.09	466249	keystroke_f	f	n/a
233.2295	0.09	466459	keystroke_o	o	n/a
233.3045	0.075	466609	keystroke_r	r	n/a
233.3945	0.0895	466789	keystroke_m	m	n/a
233.5	0.09	467000	keystroke_s	s	n/a
233.724	0.09	467448	keystroke_Key.enter	Key.enter	n/a
233.8275	11.5685	467655	prompt	n/a	depending fact shop integrity\n
234.46	0.104	468920	keystroke_d	d	n/a
234.625	0.105	469250	keystroke_e	e	n/a
234.895	0.075	469790	keystroke_p	p	n/a
235.075	0.089	470150	keystroke_e	e	n/a
235.18	0.089	470360	keystroke_n	n	n/a
235.285	0.105	470570	keystroke_d	d	n/a
235.42	0.1345	470840	keystroke_i	i	n/a
235.4795	0.135	470959	keystroke_n	n	n/a
235.5995	0.075	471199	keystroke_g	g	n/a
235.8245	0.06	471649	keystroke_Key.space	Key.space	n/a
236.5295	0.09	473059	keystroke_f	f	n/a
236.724	0.1355	473448	keystroke_a	a	n/a
236.875	0.1045	473750	keystroke_c	c	n/a
237.0995	0.09	474199	keystroke_t	t	n/a
237.2195	0.0895	474439	keystroke_Key.space	Key.space	n/a
237.6245	0.0755	475249	keystroke_s	s	n/a
237.7145	0.15	475429	keystroke_h	h	n/a
238.42	0.074	476840	keystroke_i	i	n/a
238.525	0.09	477050	keystroke_o	o	n/a
238.5545	0.0755	477109	keystroke_p	p	n/a
239.019	0.0605	478038	keystroke_Key.backspace	Key.backspace	n/a
239.154	0.0755	478308	keystroke_Key.backspace	Key.backspace	n/a
239.4545	0.0745	478909	keystroke_Key.backspace	Key.backspace	n/a
239.86	0.0895	479720	keystroke_o	o	n/a
239.889	0.0905	479778	keystroke_p	p	n/a
240.55	0.0895	481100	keystroke_Key.space	Key.space	n/a
240.8195	0.105	481639	keystroke_i	i	n/a
240.8945	0.105	481789	keystroke_n	n	n/a
241.015	0.0745	482030	keystroke_t	t	n/a
241.1195	0.105	482239	keystroke_e	e	n/a
241.3295	0.12	482659	keystroke_g	g	n/a
241.6295	0.105	483259	keystroke_r	r	n/a
241.8095	0.1055	483619	keystroke_i	i	n/a
241.929	0.076	483858	keystroke_y	y	n/a
242.5145	0.06	485029	keystroke_Key.backspace	Key.backspace	n/a
242.5595	0.0755	485119	keystroke_r	r	n/a
242.785	0.105	485570	keystroke_y	y	n/a
243.294	0.045	486588	keystroke_Key.backspace	Key.backspace	n/a
243.43	0.09	486860	keystroke_Key.backspace	Key.backspace	n/a
244.029	0.06	488058	keystroke_t	t	n/a
244.209	0.075	488418	keystroke_y	y	n/a
245.3195	0.075	490639	keystroke_Key.enter	Key.enter	n/a
245.399	9.553	490798	prompt	n/a	commission context conventions casa\n
246.219	0.091	492438	keystroke_c	c	n/a
246.324	0.076	492648	keystroke_o	o	n/a
246.5195	0.0305	493039	keystroke_m	m	n/a
246.6245	0.06	493249	keystroke_m	m	n/a
246.7595	0.09	493519	keystroke_i	i	n/a
246.9095	0.075	493819	keystroke_s	s	n/a
247.3445	0.09	494689	keystroke_s	s	n/a
247.4945	0.1955	494989	keystroke_i	i	n/a
247.57	0.15	495140	keystroke_o	o	n/a
247.6595	0.0905	495319	keystroke_n	n	n/a
248.35	0.0595	496700	keystroke_Key.space	Key.space	n/a
248.4845	0.105	496969	keystroke_c	c	n/a
248.5595	0.1055	497119	keystroke_o	o	n/a
248.62	0.0895	497240	keystroke_n	n	n/a
248.7545	0.105	497509	keystroke_t	t	n/a
248.935	0.09	497870	keystroke_a	a	n/a
249.265	0.105	498530	keystroke_Key.backspace	Key.backspace	n/a
249.61	0.06	499220	keystroke_e	e	n/a
250.15	0.0895	500300	keystroke_x	x	n/a
250.45	0.075	500900	keystroke_t	t	n/a
250.7195	0.0755	501439	keystroke_Key.space	Key.space	n/a
251.17	0.1195	502340	keystroke_c	c	n/a
251.259	0.09	502518	keystroke_o	o	n/a
251.319	0.09	502638	keystroke_n	n	n/a
252.2045	0.09	504409	keystroke_v	v	n/a
252.3545	0.09	504709	keystroke_e	e	n/a
252.429	0.12	504858	keystroke_n	n	n/a
252.565	0.075	505130	keystroke_t	t	n/a
252.625	0.165	505250	keystroke_i	i	n/a
252.714	0.105	505428	keystroke_o	o	n/a
252.759	0.105	505518	keystroke_n	n	n/a
252.8045	0.0745	505609	keystroke_s	s	n/a
252.984	0.075	505968	keystroke_Key.space	Key.space	n/a
253.254	0.105	506508	keystroke_c	c	n/a
253.389	0.09	506778	keystroke_a	a	n/a
253.434	0.105	506868	keystroke_s	s	n/a
253.6	0.09	507200	keystroke_a	a	n/a
254.064	0.105	508128	keystroke_'	'	n/a
254.664	0.12	509328	keystroke_Key.backspace	Key.backspace	n/a
254.859	0.091	509718	keystroke_Key.enter	Key.enter	n/a
254.9565	9.4595	509913	prompt	n/a	portland lyrics functional districts\n
256.2545	0.1055	512509	keystroke_p	p	n/a
256.5095	0.0905	513019	keystroke_o	o	n/a
256.6295	0.0605	513259	keystroke_r	r	n/a
256.779	0.09	513558	keystroke_t	t	n/a
257.08	0.09	514160	keystroke_l	l	n/a
257.214	0.091	514428	keystroke_a	a	n/a
257.32	0.105	514640	keystroke_n	n	n/a
257.41	0.105	514820	keystroke_d	d	n/a
257.56	0.075	515120	keystroke_Key.space	Key.space	n/a
257.9045	0.0755	515809	keystroke_l	l	n/a
258.144	0.076	516288	keystroke_y	y	n/a
258.385	0.074	516770	keystroke_r	r	n/a
258.489	0.0905	516978	keystroke_i	i	n/a
258.595	0.105	517190	keystroke_c	c	n/a
258.7445	0.0905	517489	keystroke_s	s	n/a
258.9095	0.075	517819	keystroke_Key.space	Key.space	n/a
259.69	0.075	519380	keystroke_f	f	n/a
259.78	0.1045	519560	keystroke_u	u	n/a
259.84	0.0895	519680	keystroke_n	n	n/a
260.2295	0.1355	520459	keystroke_c	c	n/a
260.5	0.1045	521000	keystroke_t	t	n/a
260.6055	0.179	521211	keystroke_i	i	n/a
260.6795	0.135	521359	keystroke_o	o	n/a
260.7095	0.15	521419	keystroke_n	n	n/a
261.2045	0.0455	522409	keystroke_a	a	n/a
261.3845	0.1055	522769	keystroke_l	l	n/a
262.719	0.0905	525438	keystroke_Key.space	Key.space	n/a
262.975	0.09	525950	keystroke_d	d	n/a
263.125	0.0895	526250	keystroke_i	i	n/a
263.1845	0.0905	526369	keystroke_s	s	n/a
263.4095	0.105	526819	keystroke_t	t	n/a
263.4845	0.09	526969	keystroke_r	r	n/a
263.6495	0.075	527299	keystroke_i	i	n/a
263.6945	0.12	527389	keystroke_c	c	n/a
263.934	0.091	527868	keystroke_t	t	n/a
264.085	0.09	528170	keystroke_s	s	n/a
264.309	0.105	528618	keystroke_Key.enter	Key.enter	n/a
264.4225	12.8045	528845	prompt	n/a	revenues kathy abilities initiative\n
265.06	0.134	530120	keystroke_e	e	n/a
265.4795	0.0905	530959	keystroke_Key.backspace	Key.backspace	n/a
265.5545	0.09	531109	keystroke_r	r	n/a
265.6145	0.1355	531229	keystroke_e	e	n/a
265.8695	0.045	531739	keystroke_n	n	n/a
266.6045	0.09	533209	keystroke_Key.backspace	Key.backspace	n/a
266.875	0.075	533750	keystroke_v	v	n/a
267.04	0.075	534080	keystroke_e	e	n/a
267.16	0.0745	534320	keystroke_n	n	n/a
267.5195	0.0595	535039	keystroke_u	u	n/a
267.565	0.074	535130	keystroke_e	e	n/a
267.715	0.0755	535430	keystroke_s	s	n/a
268.4645	0.0895	536929	keystroke_Key.space	Key.space	n/a
268.87	0.0895	537740	keystroke_k	k	n/a
268.9745	0.1045	537949	keystroke_a	a	n/a
269.2	0.0745	538400	keystroke_t	t	n/a
269.35	0.09	538700	keystroke_y	y	n/a
269.47	0.0895	538940	keystroke_h	h	n/a
270.1145	0.06	540229	keystroke_Key.backspace	Key.backspace	n/a
270.25	0.0895	540500	keystroke_Key.backspace	Key.backspace	n/a
270.5045	0.105	541009	keystroke_h	h	n/a
270.64	0.0895	541280	keystroke_y	y	n/a
271.1795	0.075	542359	keystroke_Key.space	Key.space	n/a
271.3595	0.0905	542719	keystroke_a	a	n/a
271.6145	0.09	543229	keystroke_b	b	n/a
271.675	0.075	543350	keystroke_i	i	n/a
271.8845	0.0755	543769	keystroke_l	l	n/a
272.0645	0.075	544129	keystroke_i	i	n/a
272.185	0.09	544370	keystroke_t	t	n/a
273.4295	0.09	546859	keystroke_i	i	n/a
273.5045	0.0455	547009	keystroke_e	e	n/a
273.654	0.075	547308	keystroke_s	s	n/a
274.015	0.075	548030	keystroke_Key.space	Key.space	n/a
274.225	0.12	548450	keystroke_i	i	n/a
274.3	0.105	548600	keystroke_n	n	n/a
274.434	0.091	548868	keystroke_i	i	n/a
274.584	0.076	549168	keystroke_t	t	n/a
275.619	0.0755	551238	keystroke_i	i	n/a
275.74	0.09	551480	keystroke_a	a	n/a
275.995	0.0745	551990	keystroke_t	t	n/a
276.0995	0.0905	552199	keystroke_i	i	n/a
276.265	0.105	552530	keystroke_v	v	n/a
276.475	0.075	552950	keystroke_e	e	n/a
277.1195	0.105	554239	keystroke_Key.enter	Key.enter	n/a
277.231	7.3155	554462	prompt	n/a	riding soup techno powered\n
277.9145	0.0905	555829	keystroke_r	r	n/a
278.02	0.06	556040	keystroke_i	i	n/a
278.125	0.104	556250	keystroke_d	d	n/a
278.215	0.12	556430	keystroke_i	i	n/a
278.29	0.089	556580	keystroke_n	n	n/a
278.365	0.09	556730	keystroke_g	g	n/a
278.469	0.121	556938	keystroke_Key.space	Key.space	n/a
278.7695	0.0745	557539	keystroke_s	s	n/a
278.859	0.166	557718	keystroke_o	o	n/a
278.98	0.1345	557960	keystroke_u	u	n/a
279.2195	0.1055	558439	keystroke_p	p	n/a
280.044	0.091	560088	keystroke_Key.space	Key.space	n/a
280.3	0.075	560600	keystroke_t	t	n/a
280.36	0.1045	560720	keystroke_e	e	n/a
280.5545	0.1055	561109	keystroke_c	c	n/a
280.6445	0.06	561289	keystroke_h	h	n/a
280.8245	0.045	561649	keystroke_n	n	n/a
280.975	0.1045	561950	keystroke_o	o	n/a
281.59	0.0895	563180	keystroke_Key.space	Key.space	n/a
281.8295	0.09	563659	keystroke_p	p	n/a
282.235	0.0445	564470	keystroke_i	i	n/a
282.4595	0.075	564919	keystroke_o	o	n/a
283.1795	0.075	566359	keystroke_Key.backspace	Key.backspace	n/a
283.3	0.075	566600	keystroke_Key.backspace	Key.backspace	n/a
283.5545	0.1055	567109	keystroke_o	o	n/a
283.645	0.1195	567290	keystroke_w	w	n/a
283.72	0.1195	567440	keystroke_e	e	n/a
283.8545	0.105	567709	keystroke_r	r	n/a
283.945	0.105	567890	keystroke_e	e	n/a
284.1095	0.09	568219	keystroke_d	d	n/a
284.4545	0.09	568909	keystroke_Key.enter	Key.enter	n/a
284.551	8.6805	569102	prompt	n/a	fever download futures fight\n
285.34	0.06	570680	keystroke_f	f	n/a
285.535	0.075	571070	keystroke_e	e	n/a
285.7295	0.075	571459	keystroke_v	v	n/a
285.9245	0.09	571849	keystroke_e	e	n/a
285.9995	0.0905	571999	keystroke_r	r	n/a
286.3745	0.09	572749	keystroke_Key.space	Key.space	n/a
286.989	0.0605	573978	keystroke_d	d	n/a
287.064	0.0905	574128	keystroke_o	o	n/a
287.2145	0.09	574429	keystroke_e	e	n/a
287.3195	0.0755	574639	keystroke_n	n	n/a
287.7245	0.045	575449	keystroke_Key.backspace	Key.backspace	n/a
287.8445	0.075	575689	keystroke_Key.backspace	Key.backspace	n/a
287.9205	0.089	575841	keystroke_w	w	n/a
288.1595	0.09	576319	keystroke_l	l	n/a
288.594	0.075	577188	keystroke_Key.backspace	Key.backspace	n/a
288.834	0.09	577668	keystroke_n	n	n/a
289.075	0.06	578150	keystroke_l	l	n/a
289.255	0.09	578510	keystroke_o	o	n/a
289.33	0.135	578660	keystroke_a	a	n/a
289.434	0.121	578868	keystroke_d	d	n/a
289.899	0.0755	579798	keystroke_Key.space	Key.space	n/a
290.59	0.12	581180	keystroke_f	f	n/a
290.694	0.076	581388	keystroke_u	u	n/a
290.785	0.104	581570	keystroke_t	t	n/a
290.875	0.0895	581750	keystroke_u	u	n/a
290.98	0.09	581960	keystroke_r	r	n/a
291.055	0.09	582110	keystroke_e	e	n/a
291.25	0.0895	582500	keystroke_s	s	n/a
291.3545	0.075	582709	keystroke_Key.space	Key.space	n/a
291.73	0.09	583460	keystroke_g	g	n/a
291.85	0.075	583700	keystroke_i	i	n/a
292.21	0.0445	584420	keystroke_Key.backspace	Key.backspace	n/a
292.3295	0.075	584659	keystroke_Key.backspace	Key.backspace	n/a
292.4345	0.075	584869	keystroke_f	f	n/a
292.57	0.075	585140	keystroke_i	i	n/a
292.6295	0.0605	585259	keystroke_g	g	n/a
292.7495	0.09	585499	keystroke_h	h	n/a
292.7945	0.06	585589	keystroke_t	t	n/a
293.1395	0.09	586279	keystroke_Key.enter	Key.enter	n/a
293.236	6.9705	586472	prompt	n/a	memory changing wide omissions\n
293.9045	0.09	587809	keystroke_m	m	n/a
293.9795	0.06	587959	keystroke_e	e	n/a
294.07	0.0745	588140	keystroke_m	m	n/a
294.1595	0.045	588319	keystroke_e	e	n/a
294.3545	0.075	588709	keystroke_o	o	n/a
294.4445	0.075	588889	keystroke_r	r	n/a
294.67	0.0595	589340	keystroke_y	y	n/a
294.9245	0.09	589849	keystroke_Key.backspace	Key.backspace	n/a
295.0745	0.075	590149	keystroke_Key.backspace	Key.backspace	n/a
295.2095	0.075	590419	keystroke_Key.backspace	Key.backspace	n/a
295.3595	0.0605	590719	keystroke_Key.backspace	Key.backspace	n/a
295.5995	0.0905	591199	keystroke_o	o	n/a
295.6595	0.075	591319	keystroke_r	r	n/a
295.855	0.089	591710	keystroke_y	y	n/a
296.26	0.0895	592520	keystroke_Key.space	Key.space	n/a
296.739	0.091	593478	keystroke_c	c	n/a
296.815	0.105	593630	keystroke_h	h	n/a
296.905	0.09	593810	keystroke_a	a	n/a
297.009	0.091	594018	keystroke_n	n	n/a
297.115	0.09	594230	keystroke_g	g	n/a
297.205	0.105	594410	keystroke_i	i	n/a
297.265	0.09	594530	keystroke_n	n	n/a
297.339	0.076	594678	keystroke_g	g	n/a
297.43	0.104	594860	keystroke_Key.space	Key.space	n/a
297.7745	0.09	595549	keystroke_w	w	n/a
298.0145	0.09	596029	keystroke_i	i	n/a
298.12	0.0895	596240	keystroke_d	d	n/a
298.2845	0.0755	596569	keystroke_e	e	n/a
298.42	0.0895	596840	keystroke_Key.space	Key.space	n/a
298.6295	0.09	597259	keystroke_o	o	n/a
298.8545	0.0905	597709	keystroke_m	m	n/a
299.02	0.0745	598040	keystroke_i	i	n/a
299.14	0.075	598280	keystroke_s	s	n/a
299.29	0.09	598580	keystroke_s	s	n/a
299.41	0.18	598820	keystroke_i	i	n/a
299.499	0.135	598998	keystroke_o	o	n/a
299.559	0.121	599118	keystroke_n	n	n/a
299.7845	0.0605	599569	keystroke_s	s	n/a
300.085	0.12	600170	keystroke_Key.enter	Key.enter	n/a
300.211	7.9155	600422	prompt	n/a	rabbit universal fetish multimedia\n
300.91	0.09	601820	keystroke_r	r	n/a
301.045	0.105	602090	keystroke_a	a	n/a
301.285	0.075	602570	keystroke_b	b	n/a
301.42	0.075	602840	keystroke_b	b	n/a
301.57	0.075	603140	keystroke_i	i	n/a
301.66	0.09	603320	keystroke_t	t	n/a
301.825	0.104	603650	keystroke_Key.space	Key.space	n/a
302.214	0.12	604428	keystroke_u	u	n/a
302.2745	0.1055	604549	keystroke_n	n	n/a
302.424	0.0905	604848	keystroke_i	i	n/a
302.92	0.089	605840	keystroke_v	v	n/a
303.0845	0.1045	606169	keystroke_e	e	n/a
303.145	0.089	606290	keystroke_r	r	n/a
303.339	0.0905	606678	keystroke_s	s	n/a
303.6995	0.09	607399	keystroke_a	a	n/a
303.8195	0.075	607639	keystroke_l	l	n/a
304.165	0.09	608330	keystroke_Key.space	Key.space	n/a
304.75	0.045	609500	keystroke_f	f	n/a
304.8245	0.1205	609649	keystroke_e	e	n/a
304.93	0.075	609860	keystroke_t	t	n/a
305.035	0.09	610070	keystroke_i	i	n/a
305.095	0.105	610190	keystroke_s	s	n/a
305.215	0.09	610430	keystroke_h	h	n/a
305.41	0.059	610820	keystroke_Key.space	Key.space	n/a
305.59	0.075	611180	keystroke_m	m	n/a
305.77	0.075	611540	keystroke_u	u	n/a
305.98	0.09	611960	keystroke_l	l	n/a
306.0845	0.0745	612169	keystroke_t	t	n/a
306.204	0.076	612408	keystroke_i	i	n/a
306.414	0.105	612828	keystroke_m	m	n/a
306.505	0.06	613010	keystroke_e	e	n/a
306.714	0.045	613428	keystroke_d	d	n/a
307.48	0.0895	614960	keystroke_i	i	n/a
307.584	0.0905	615168	keystroke_a	a	n/a
308.02	0.104	616040	keystroke_Key.enter	Key.enter	n/a
308.1305	9.731	616261	prompt	n/a	christianity hold landing directory\n
308.7695	0.105	617539	keystroke_c	c	n/a
308.875	0.12	617750	keystroke_h	h	n/a
309.01	0.075	618020	keystroke_r	r	n/a
309.13	0.105	618260	keystroke_i	i	n/a
309.31	0.105	618620	keystroke_s	s	n/a
309.55	0.075	619100	keystroke_t	t	n/a
309.655	0.09	619310	keystroke_i	i	n/a
309.76	0.09	619520	keystroke_a	a	n/a
309.88	0.104	619760	keystroke_n	n	n/a
310.195	0.09	620390	keystroke_i	i	n/a
310.285	0.045	620570	keystroke_t	t	n/a
310.404	0.1055	620808	keystroke_y	y	n/a
311.439	0.075	622878	keystroke_Key.space	Key.space	n/a
311.6345	0.0745	623269	keystroke_h	h	n/a
311.7995	0.0905	623599	keystroke_o	o	n/a
311.98	0.0745	623960	keystroke_l	l	n/a
312.04	0.075	624080	keystroke_d	d	n/a
312.1445	0.09	624289	keystroke_Key.space	Key.space	n/a
312.31	0.0895	624620	keystroke_l	l	n/a
312.415	0.06	624830	keystroke_a	a	n/a
312.49	0.1045	624980	keystroke_n	n	n/a
312.5795	0.1055	625159	keystroke_d	d	n/a
312.7	0.12	625400	keystroke_i	i	n/a
312.7745	0.0905	625549	keystroke_n	n	n/a
312.8345	0.09	625669	keystroke_g	g	n/a
312.94	0.09	625880	keystroke_Key.space	Key.space	n/a
316.137	0.0425	632274	keystroke_d	d	n/a
316.195	0.1045	632390	keystroke_i	i	n/a
316.285	0.075	632570	keystroke_r	r	n/a
316.4795	0.075	632959	keystroke_e	e	n/a
316.735	0.105	633470	keystroke_c	c	n/a
317.11	0.074	634220	keystroke_t	t	n/a
317.23	0.0895	634460	keystroke_o	o	n/a
317.3495	0.1045	634699	keystroke_r	r	n/a
317.5595	0.075	635119	keystroke_y	y	n/a
317.74	0.12	635480	keystroke_Key.enter	Key.enter	n/a
317.865	9.1015	635730	prompt	n/a	guidelines varied involvement satellite\n
318.715	0.075	637430	keystroke_g	g	n/a
318.805	0.045	637610	keystroke_u	u	n/a
318.9395	0.0905	637879	keystroke_i	i	n/a
319.015	0.074	638030	keystroke_d	d	n/a
319.18	0.075	638360	keystroke_e	e	n/a
319.24	0.074	638480	keystroke_l	l	n/a
319.42	0.119	638840	keystroke_i	i	n/a
319.51	0.09	639020	keystroke_n	n	n/a
319.569	0.075	639138	keystroke_e	e	n/a
319.72	0.075	639440	keystroke_s	s	n/a
319.824	0.09	639648	keystroke_Key.space	Key.space	n/a
320.545	0.119	641090	keystroke_v	v	n/a
320.755	0.104	641510	keystroke_a	a	n/a
320.875	0.075	641750	keystroke_r	r	n/a
321.0095	0.0605	642019	keystroke_i	i	n/a
321.055	0.06	642110	keystroke_e	e	n/a
321.235	0.075	642470	keystroke_d	d	n/a
321.4595	0.0755	642919	keystroke_Key.space	Key.space	n/a
321.79	0.12	643580	keystroke_i	i	n/a
321.865	0.105	643730	keystroke_n	n	n/a
322.345	0.0895	644690	keystroke_v	v	n/a
322.42	0.045	644840	keystroke_o	o	n/a
322.57	0.0895	645140	keystroke_l	l	n/a
322.615	0.075	645230	keystroke_v	v	n/a
322.7495	0.075	645499	keystroke_e	e	n/a
323.1995	0.1045	646399	keystroke_m	m	n/a
323.305	0.09	646610	keystroke_e	e	n/a
323.38	0.1195	646760	keystroke_n	n	n/a
323.4845	0.0745	646969	keystroke_t	t	n/a
323.604	0.09	647208	keystroke_Key.space	Key.space	n/a
323.785	0.075	647570	keystroke_s	s	n/a
324.759	0.106	649518	keystroke_a	a	n/a
325.014	0.09	650028	keystroke_t	t	n/a
325.105	0.104	650210	keystroke_e	e	n/a
325.66	0.06	651320	keystroke_l	l	n/a
325.8095	0.0905	651619	keystroke_l	l	n/a
326.02	0.09	652040	keystroke_i	i	n/a
326.215	0.06	652430	keystroke_t	t	n/a
326.62	0.044	653240	keystroke_e	e	n/a
326.889	0.076	653778	keystroke_Key.enter	Key.enter	n/a
326.9695	6.777	653939	prompt	n/a	transcription retirement atom interim\n
327.699	0.09	655398	keystroke_t	t	n/a
327.745	0.074	655490	keystroke_r	r	n/a
327.895	0.105	655790	keystroke_a	a	n/a
328.015	0.044	656030	keystroke_n	n	n/a
328.09	0.12	656180	keystroke_s	s	n/a
328.3745	0.1055	656749	keystroke_c	c	n/a
328.5845	0.09	657169	keystroke_r	r	n/a
328.69	0.0745	657380	keystroke_i	i	n/a
328.8995	0.0905	657799	keystroke_p	p	n/a
329.3795	0.015	658759	keystroke_t	t	n/a
329.41	0.2105	658820	keystroke_i	i	n/a
329.4995	0.135	658999	keystroke_o	o	n/a
329.5895	0.1055	659179	keystroke_n	n	n/a
329.77	0.104	659540	keystroke_Key.space	Key.space	n/a
329.9655	0.1035	659931	keystroke_r	r	n/a
330.039	0.09	660078	keystroke_e	e	n/a
330.295	0.075	660590	keystroke_t	t	n/a
330.415	0.089	660830	keystroke_i	i	n/a
330.519	0.121	661038	keystroke_r	r	n/a
330.61	0.104	661220	keystroke_e	e	n/a
330.82	0.059	661640	keystroke_m	m	n/a
331.135	0.0595	662270	keystroke_e	e	n/a
331.224	0.1055	662448	keystroke_n	n	n/a
331.315	0.0895	662630	keystroke_t	t	n/a
331.435	0.1045	662870	keystroke_Key.space	Key.space	n/a
331.57	0.1045	663140	keystroke_a	a	n/a
331.7795	0.0905	663559	keystroke_t	t	n/a
331.885	0.12	663770	keystroke_o	o	n/a
331.945	0.12	663890	keystroke_m	m	n/a
332.41	0.075	664820	keystroke_Key.space	Key.space	n/a
332.635	0.12	665270	keystroke_i	i	n/a
332.695	0.12	665390	keystroke_n	n	n/a
332.845	0.09	665690	keystroke_t	t	n/a
332.995	0.09	665990	keystroke_e	e	n/a
333.07	0.075	666140	keystroke_r	r	n/a
333.175	0.135	666350	keystroke_i	i	n/a
333.265	0.105	666530	keystroke_m	m	n/a
333.6245	0.1205	667249	keystroke_Key.enter	Key.enter	n/a
333.75	9.3865	667500	prompt	n/a	notebook checkout boot tariff\n
334.345	0.09	668690	keystroke_n	n	n/a
334.525	0.12	669050	keystroke_o	o	n/a
334.66	0.06	669320	keystroke_t	t	n/a
334.7795	0.1205	669559	keystroke_e	e	n/a
335.065	0.075	670130	keystroke_m	m	n/a
335.605	0.075	671210	keystroke_Key.backspace	Key.backspace	n/a
335.785	0.075	671570	keystroke_b	b	n/a
335.935	0.075	671870	keystroke_o	o	n/a
336.055	0.165	672110	keystroke_o	o	n/a
336.1745	0.1055	672349	keystroke_k	k	n/a
336.834	0.046	673668	keystroke_Key.space	Key.space	n/a
337.135	0.09	674270	keystroke_c	c	n/a
337.42	0.06	674840	keystroke_h	h	n/a
337.659	0.091	675318	keystroke_e	e	n/a
337.795	0.09	675590	keystroke_c	c	n/a
337.9	0.09	675800	keystroke_k	k	n/a
338.185	0.075	676370	keystroke_o	o	n/a
338.335	0.09	676670	keystroke_u	u	n/a
338.455	0.074	676910	keystroke_t	t	n/a
339.07	0.09	678140	keystroke_Key.space	Key.space	n/a
340.029	0.076	680058	keystroke_b	b	n/a
340.15	0.074	680300	keystroke_o	o	n/a
340.27	0.105	680540	keystroke_o	o	n/a
340.479	0.06	680958	keystroke_t	t	n/a
340.795	0.075	681590	keystroke_Key.space	Key.space	n/a
341.1995	0.0905	682399	keystroke_a	a	n/a
341.5745	0.0745	683149	keystroke_Key.backspace	Key.backspace	n/a
341.995	0.075	683990	keystroke_t	t	n/a
342.115	0.135	684230	keystroke_a	a	n/a
342.235	0.09	684470	keystroke_r	r	n/a
342.5495	0.075	685099	keystroke_i	i	n/a
342.6705	0.059	685341	keystroke_f	f	n/a
342.805	0.09	685610	keystroke_f	f	n/a
343.045	0.09	686090	keystroke_Key.enter	Key.enter	n/a
343.1405	6.161	686281	prompt	n/a	crossing density spaces virgin\n
343.9	0.09	687800	keystroke_c	c	n/a
344.11	0.09	688220	keystroke_r	r	n/a
344.23	0.09	688460	keystroke_o	o	n/a
344.35	0.06	688700	keystroke_s	s	n/a
344.53	0.045	689060	keystroke_s	s	n/a
344.605	0.105	689210	keystroke_i	i	n/a
344.665	0.105	689330	keystroke_n	n	n/a
344.755	0.075	689510	keystroke_g	g	n/a
344.86	0.09	689720	keystroke_Key.space	Key.space	n/a
345.085	0.105	690170	keystroke_d	d	n/a
345.22	0.105	690440	keystroke_e	e	n/a
345.31	0.09	690620	keystroke_n	n	n/a
345.445	0.075	690890	keystroke_s	s	n/a
345.55	0.075	691100	keystroke_i	i	n/a
345.6995	0.075	691399	keystroke_t	t	n/a
345.8795	0.075	691759	keystroke_y	y	n/a
346.2695	0.075	692539	keystroke_Key.space	Key.space	n/a
346.5395	0.09	693079	keystroke_s	s	n/a
346.72	0.0595	693440	keystroke_p	p	n/a
347.0795	0.0905	694159	keystroke_a	a	n/a
347.485	0.105	694970	keystroke_c	c	n/a
347.635	0.09	695270	keystroke_e	e	n/a
347.815	0.075	695630	keystroke_s	s	n/a
347.9495	0.075	695899	keystroke_Key.space	Key.space	n/a
348.3545	0.075	696709	keystroke_v	v	n/a
348.55	0.06	697100	keystroke_i	i	n/a
348.625	0.105	697250	keystroke_r	r	n/a
348.82	0.075	697640	keystroke_g	g	n/a
348.88	0.105	697760	keystroke_i	i	n/a
348.94	0.105	697880	keystroke_n	n	n/a
349.21	0.09	698420	keystroke_Key.enter	Key.enter	n/a
349.3065	7.705	698613	prompt	n/a	generating logic sacramento angola\n
350.0655	0.0745	700131	keystroke_g	g	n/a
350.215	0.075	700430	keystroke_e	e	n/a
350.305	0.105	700610	keystroke_n	n	n/a
350.395	0.09	700790	keystroke_e	e	n/a
350.47	0.09	700940	keystroke_r	r	n/a
350.68	0.09	701360	keystroke_a	a	n/a
350.845	0.105	701690	keystroke_t	t	n/a
350.935	0.12	701870	keystroke_i	i	n/a
350.995	0.105	701990	keystroke_n	n	n/a
351.07	0.09	702140	keystroke_g	g	n/a
351.19	0.09	702380	keystroke_Key.space	Key.space	n/a
351.565	0.12	703130	keystroke_l	l	n/a
351.79	0.12	703580	keystroke_o	o	n/a
351.925	0.06	703850	keystroke_g	g	n/a
352.03	0.075	704060	keystroke_i	i	n/a
352.12	0.09	704240	keystroke_c	c	n/a
352.57	0.09	705140	keystroke_Key.space	Key.space	n/a
352.855	0.105	705710	keystroke_s	s	n/a
353.2	0.09	706400	keystroke_a	a	n/a
353.785	0.075	707570	keystroke_c	c	n/a
353.9795	0.0755	707959	keystroke_r	r	n/a
354.1295	0.06	708259	keystroke_a	a	n/a
354.2495	0.105	708499	keystroke_m	m	n/a
354.4295	0.105	708859	keystroke_e	e	n/a
354.5495	0.105	709099	keystroke_n	n	n/a
354.64	0.0745	709280	keystroke_t	t	n/a
354.8945	0.0755	709789	keystroke_o	o	n/a
355.12	0.09	710240	keystroke_Key.space	Key.space	n/a
355.24	0.089	710480	keystroke_a	a	n/a
355.33	0.104	710660	keystroke_n	n	n/a
355.4655	0.1045	710931	keystroke_g	g	n/a
355.585	0.089	711170	keystroke_o	o	n/a
355.749	0.106	711498	keystroke_l	l	n/a
355.84	0.089	711680	keystroke_a	a	n/a
356.92	0.09	713840	keystroke_Key.enter	Key.enter	n/a
357.0145	12.192	714029	prompt	n/a	suicide hurricane advantage examines\n
357.9845	0.09	715969	keystroke_s	s	n/a
358.06	0.0895	716120	keystroke_u	u	n/a
358.2245	0.105	716449	keystroke_i	i	n/a
358.3145	0.09	716629	keystroke_c	c	n/a
358.5545	0.075	717109	keystroke_i	i	n/a
359.1095	0.09	718219	keystroke_d	d	n/a
359.2145	0.105	718429	keystroke_e	e	n/a
359.71	0.0595	719420	keystroke_Key.space	Key.space	n/a
359.92	0.134	719840	keystroke_h	h	n/a
360.039	0.09	720078	keystroke_u	u	n/a
360.16	0.074	720320	keystroke_r	r	n/a
360.2945	0.09	720589	keystroke_r	r	n/a
360.459	0.075	720918	keystroke_i	i	n/a
360.61	0.0595	721220	keystroke_c	c	n/a
360.715	0.075	721430	keystroke_a	a	n/a
360.8195	0.105	721639	keystroke_n	n	n/a
361.18	0.0895	722360	keystroke_Key.space	Key.space	n/a
361.3295	0.105	722659	keystroke_a	a	n/a
361.4645	0.105	722929	keystroke_d	d	n/a
361.7195	0.105	723439	keystroke_v	v	n/a
361.885	0.105	723770	keystroke_a	a	n/a
362.004	0.075	724008	keystroke_n	n	n/a
362.08	0.0895	724160	keystroke_t	t	n/a
362.2145	0.1205	724429	keystroke_a	a	n/a
362.3945	0.0905	724789	keystroke_g	g	n/a
362.47	0.105	724940	keystroke_e	e	n/a
363.204	0.0155	726408	keystroke_Key.backspace	Key.backspace	n/a
363.399	0.045	726798	keystroke_Key.backspace	Key.backspace	n/a
363.535	0.075	727070	keystroke_Key.backspace	Key.backspace	n/a
363.7145	0.0155	727429	keystroke_Key.backspace	Key.backspace	n/a
363.805	0.03	727610	keystroke_Key.backspace	Key.backspace	n/a
363.924	0.03	727848	keystroke_Key.backspace	Key.backspace	n/a
364.134	0.045	728268	keystroke_Key.backspace	Key.backspace	n/a
364.254	0.045	728508	keystroke_Key.backspace	Key.backspace	n/a
364.359	0.0605	728718	keystroke_Key.backspace	Key.backspace	n/a
364.4945	0.0595	728989	keystroke_Key.backspace	Key.backspace	n/a
364.884	0.03	729768	keystroke_e	e	n/a
365.274	0.075	730548	keystroke_Key.space	Key.space	n/a
365.905	0.09	731810	keystroke_a	a	n/a
366.01	0.09	732020	keystroke_d	d	n/a
366.22	0.1045	732440	keystroke_v	v	n/a
366.3695	0.12	732739	keystroke_a	a	n/a
366.4745	0.0905	732949	keystroke_n	n	n/a
366.5795	0.105	733159	keystroke_t	t	n/a
366.7295	0.105	733459	keystroke_a	a	n/a
366.8795	0.12	733759	keystroke_g	g	n/a
366.9695	0.12	733939	keystroke_e	e	n/a
367.615	0.075	735230	keystroke_Key.space	Key.space	n/a
367.78	0.0895	735560	keystroke_e	e	n/a
368.0795	0.09	736159	keystroke_x	x	n/a
368.275	0.09	736550	keystroke_a	a	n/a
368.3945	0.0895	736789	keystroke_m	m	n/a
368.605	0.134	737210	keystroke_i	i	n/a
368.71	0.119	737420	keystroke_n	n	n/a
368.8	0.089	737600	keystroke_e	e	n/a
368.965	0.089	737930	keystroke_s	s	n/a
369.1	0.105	738200	keystroke_Key.enter	Key.enter	n/a
369.2105	6.1315	738421	prompt	n/a	swimming norman durham symbol\n
369.88	0.074	739760	keystroke_s	s	n/a
370.06	0.09	740120	keystroke_w	w	n/a
370.165	0.06	740330	keystroke_i	i	n/a
370.329	0.075	740658	keystroke_m	m	n/a
370.45	0.074	740900	keystroke_m	m	n/a
370.5695	0.1205	741139	keystroke_i	i	n/a
370.6445	0.1055	741289	keystroke_n	n	n/a
370.734	0.0755	741468	keystroke_g	g	n/a
370.824	0.09	741648	keystroke_Key.space	Key.space	n/a
371.0195	0.075	742039	keystroke_n	n	n/a
371.1695	0.075	742339	keystroke_o	o	n/a
371.229	0.0905	742458	keystroke_r	r	n/a
371.32	0.104	742640	keystroke_m	m	n/a
371.44	0.089	742880	keystroke_a	a	n/a
371.544	0.106	743088	keystroke_n	n	n/a
371.799	0.075	743598	keystroke_Key.space	Key.space	n/a
372.504	0.0905	745008	keystroke_d	d	n/a
372.6695	0.0905	745339	keystroke_u	u	n/a
372.8045	0.09	745609	keystroke_r	r	n/a
373.0455	0.059	746091	keystroke_h	h	n/a
373.1495	0.06	746299	keystroke_a	a	n/a
373.255	0.075	746510	keystroke_m	m	n/a
373.4645	0.075	746929	keystroke_Key.space	Key.space	n/a
374.23	0.0895	748460	keystroke_s	s	n/a
374.4995	0.0605	748999	keystroke_y	y	n/a
374.56	0.0745	749120	keystroke_m	m	n/a
374.755	0.06	749510	keystroke_b	b	n/a
374.7845	0.075	749569	keystroke_o	o	n/a
374.95	0.105	749900	keystroke_l	l	n/a
375.2495	0.09	750499	keystroke_Key.enter	Key.enter	n/a
375.3465	5.9955	750693	prompt	n/a	likes stops university burner\n
375.9695	0.105	751939	keystroke_l	l	n/a
376.165	0.0895	752330	keystroke_i	i	n/a
376.33	0.1045	752660	keystroke_k	k	n/a
376.405	0.0745	752810	keystroke_e	e	n/a
376.5395	0.0905	753079	keystroke_s	s	n/a
376.6445	0.0605	753289	keystroke_Key.space	Key.space	n/a
376.855	0.0895	753710	keystroke_s	s	n/a
377.0345	0.106	754069	keystroke_t	t	n/a
377.1245	0.1205	754249	keystroke_o	o	n/a
377.185	0.12	754370	keystroke_p	p	n/a
377.2905	0.0745	754581	keystroke_s	s	n/a
377.409	0.106	754818	keystroke_Key.space	Key.space	n/a
377.965	0.119	755930	keystroke_u	u	n/a
378.04	0.09	756080	keystroke_n	n	n/a
378.175	0.12	756350	keystroke_i	i	n/a
378.34	0.105	756680	keystroke_v	v	n/a
378.55	0.105	757100	keystroke_e	e	n/a
378.61	0.105	757220	keystroke_r	r	n/a
379.09	0.12	758180	keystroke_s	s	n/a
379.225	0.075	758450	keystroke_i	i	n/a
379.314	0.091	758628	keystroke_t	t	n/a
379.4655	0.0895	758931	keystroke_y	y	n/a
379.615	0.075	759230	keystroke_Key.space	Key.space	n/a
380.095	0.105	760190	keystroke_b	b	n/a
380.245	0.06	760490	keystroke_u	u	n/a
380.7695	0.09	761539	keystroke_r	r	n/a
380.89	0.1045	761780	keystroke_n	n	n/a
380.9795	0.09	761959	keystroke_e	e	n/a
381.04	0.0895	762080	keystroke_r	r	n/a
381.265	0.0745	762530	keystroke_Key.enter	Key.enter	n/a
381.345	7.0775	762690	prompt	n/a	lottery programmer teams broken\n
382.03	0.09	764060	keystroke_l	l	n/a
382.255	0.09	764510	keystroke_o	o	n/a
382.375	0.075	764750	keystroke_t	t	n/a
382.51	0.075	765020	keystroke_t	t	n/a
382.63	0.105	765260	keystroke_e	e	n/a
382.705	0.105	765410	keystroke_r	r	n/a
383.035	0.075	766070	keystroke_y	y	n/a
383.5	0.09	767000	keystroke_Key.space	Key.space	n/a
383.845	0.09	767690	keystroke_p	p	n/a
383.98	0.09	767960	keystroke_r	r	n/a
384.085	0.075	768170	keystroke_o	o	n/a
384.385	0.075	768770	keystroke_g	g	n/a
384.535	0.075	769070	keystroke_r	r	n/a
384.745	0.075	769490	keystroke_a	a	n/a
384.805	0.075	769610	keystroke_m	m	n/a
384.94	0.075	769880	keystroke_m	m	n/a
385	0.105	770000	keystroke_e	e	n/a
385.06	0.09	770120	keystroke_r	r	n/a
385.165	0.0895	770330	keystroke_Key.space	Key.space	n/a
385.6895	0.06	771379	keystroke_r	r	n/a
386.2745	0.105	772549	keystroke_Key.backspace	Key.backspace	n/a
386.3345	0.075	772669	keystroke_t	t	n/a
386.3945	0.075	772789	keystroke_e	e	n/a
386.5295	0.105	773059	keystroke_a	a	n/a
386.6655	0.1045	773331	keystroke_m	m	n/a
386.754	0.075	773508	keystroke_s	s	n/a
386.95	0.09	773900	keystroke_Key.space	Key.space	n/a
387.4745	0.0755	774949	keystroke_b	b	n/a
387.595	0.09	775190	keystroke_r	r	n/a
387.67	0.105	775340	keystroke_o	o	n/a
387.73	0.09	775460	keystroke_k	k	n/a
387.79	0.105	775580	keystroke_e	e	n/a
387.955	0.105	775910	keystroke_n	n	n/a
388.315	0.105	776630	keystroke_Key.enter	Key.enter	n/a
388.427	6.159	776854	prompt	n/a	theft bulgarian beth alien\n
389.095	0.09	778190	keystroke_t	t	n/a
389.17	0.09	778340	keystroke_h	h	n/a
389.245	0.105	778490	keystroke_e	e	n/a
389.4105	0.1045	778821	keystroke_f	f	n/a
389.62	0.09	779240	keystroke_t	t	n/a
389.815	0.045	779630	keystroke_Key.space	Key.space	n/a
390.699	0.091	781398	keystroke_b	b	n/a
390.8195	0.0605	781639	keystroke_u	u	n/a
391.015	0.1045	782030	keystroke_l	l	n/a
391.2245	0.075	782449	keystroke_g	g	n/a
391.3605	0.119	782721	keystroke_a	a	n/a
391.4495	0.1055	782899	keystroke_r	r	n/a
391.5695	0.0905	783139	keystroke_i	i	n/a
391.63	0.0895	783260	keystroke_a	a	n/a
391.7195	0.105	783439	keystroke_n	n	n/a
391.9295	0.075	783859	keystroke_Key.space	Key.space	n/a
392.425	0.09	784850	keystroke_b	b	n/a
392.605	0.09	785210	keystroke_e	e	n/a
392.71	0.075	785420	keystroke_t	t	n/a
392.86	0.075	785720	keystroke_h	h	n/a
393.055	0.105	786110	keystroke_Key.space	Key.space	n/a
393.43	0.105	786860	keystroke_a	a	n/a
393.535	0.075	787070	keystroke_l	l	n/a
393.7	0.1045	787400	keystroke_i	i	n/a
393.8195	0.075	787639	keystroke_e	e	n/a
393.91	0.089	787820	keystroke_n	n	n/a
394.479	0.106	788958	keystroke_Key.enter	Key.enter	n/a
394.5895	8.427	789179	prompt	n/a	happy daren't addition reggae\n
395.2	0.09	790400	keystroke_h	h	n/a
395.275	0.075	790550	keystroke_a	a	n/a
395.47	0.075	790940	keystroke_p	p	n/a
395.605	0.09	791210	keystroke_p	p	n/a
395.755	0.09	791510	keystroke_y	y	n/a
395.9945	0.0895	791989	keystroke_Key.space	Key.space	n/a
396.414	0.106	792828	keystroke_a	a	n/a
396.549	0.1055	793098	keystroke_r	r	n/a
396.79	0.0895	793580	keystroke_e	e	n/a
397.269	0.061	794538	keystroke_Key.backspace	Key.backspace	n/a
397.4045	0.0745	794809	keystroke_Key.backspace	Key.backspace	n/a
397.54	0.105	795080	keystroke_Key.backspace	Key.backspace	n/a
397.72	0.075	795440	keystroke_d	d	n/a
397.84	0.1045	795680	keystroke_a	a	n/a
398.08	0.105	796160	keystroke_r	r	n/a
398.1695	0.09	796339	keystroke_e	e	n/a
398.275	0.0745	796550	keystroke_n	n	n/a
398.635	0.0595	797270	keystroke_'	'	n/a
398.7245	0.076	797449	keystroke_t	t	n/a
399.385	0.105	798770	keystroke_Key.space	Key.space	n/a
399.4745	0.076	798949	keystroke_a	a	n/a
399.6245	0.0605	799249	keystroke_d	d	n/a
399.7595	0.09	799519	keystroke_d	d	n/a
399.9545	0.0605	799909	keystroke_i	i	n/a
400.075	0.0895	800150	keystroke_t	t	n/a
400.285	0.1645	800570	keystroke_i	i	n/a
400.3445	0.135	800689	keystroke_o	o	n/a
400.4195	0.1205	800839	keystroke_n	n	n/a
400.99	0.075	801980	keystroke_Key.space	Key.space	n/a
401.3195	0.075	802639	keystroke_r	r	n/a
401.455	0.0895	802910	keystroke_e	e	n/a
401.6795	0.0755	803359	keystroke_g	g	n/a
401.7995	0.0905	803599	keystroke_g	g	n/a
402.46	0.12	804920	keystroke_a	a	n/a
402.565	0.09	805130	keystroke_e	e	n/a
402.94	0.075	805880	keystroke_Key.enter	Key.enter	n/a
403.02	5.6525	806040	prompt	n/a	worse newsletter breach accept\n
403.7345	0.1055	807469	keystroke_w	w	n/a
403.9145	0.0905	807829	keystroke_o	o	n/a
403.9895	0.0905	807979	keystroke_r	r	n/a
404.14	0.1045	808280	keystroke_s	s	n/a
404.305	0.0895	808610	keystroke_e	e	n/a
404.44	0.0745	808880	keystroke_Key.space	Key.space	n/a
404.635	0.074	809270	keystroke_n	n	n/a
404.725	0.075	809450	keystroke_e	e	n/a
404.77	0.09	809540	keystroke_w	w	n/a
404.95	0.105	809900	keystroke_s	s	n/a
405.099	0.1055	810198	keystroke_l	l	n/a
405.3245	0.0905	810649	keystroke_e	e	n/a
405.5195	0.06	811039	keystroke_t	t	n/a
405.655	0.0745	811310	keystroke_t	t	n/a
405.7895	0.1055	811579	keystroke_e	e	n/a
405.88	0.06	811760	keystroke_r	r	n/a
406.105	0.089	812210	keystroke_Key.space	Key.space	n/a
406.465	0.0895	812930	keystroke_b	b	n/a
406.54	0.105	813080	keystroke_r	r	n/a
406.63	0.09	813260	keystroke_e	e	n/a
406.854	0.0455	813708	keystroke_a	a	n/a
407.035	0.12	814070	keystroke_c	c	n/a
407.14	0.09	814280	keystroke_h	h	n/a
407.349	0.106	814698	keystroke_Key.space	Key.space	n/a
407.575	0.09	815150	keystroke_a	a	n/a
407.8595	0.075	815719	keystroke_c	c	n/a
408.0245	0.061	816049	keystroke_c	c	n/a
408.1445	0.091	816289	keystroke_e	e	n/a
408.25	0.1045	816500	keystroke_p	p	n/a
408.3555	0.089	816711	keystroke_t	t	n/a
408.565	0.1045	817130	keystroke_Key.enter	Key.enter	n/a
408.6755	7.3465	817351	prompt	n/a	or computer applicant system\n
409.4195	0.091	818839	keystroke_o	o	n/a
409.4945	0.09	818989	keystroke_r	r	n/a
409.6445	0.0905	819289	keystroke_Key.space	Key.space	n/a
409.81	0.0895	819620	keystroke_c	c	n/a
409.8845	0.12	819769	keystroke_o	o	n/a
409.96	0.105	819920	keystroke_m	m	n/a
410.1245	0.09	820249	keystroke_p	p	n/a
410.3045	0.09	820609	keystroke_u	u	n/a
410.38	0.0745	820760	keystroke_t	t	n/a
410.4995	0.0905	820999	keystroke_e	e	n/a
410.5745	0.0905	821149	keystroke_r	r	n/a
410.6345	0.09	821269	keystroke_Key.space	Key.space	n/a
410.9795	0.075	821959	keystroke_a	a	n/a
411.13	0.075	822260	keystroke_p	p	n/a
411.28	0.06	822560	keystroke_p	p	n/a
411.46	0.09	822920	keystroke_l	l	n/a
411.6555	0.0745	823311	keystroke_i	i	n/a
411.775	0.06	823550	keystroke_c	c	n/a
411.805	0.105	823610	keystroke_a	a	n/a
412.03	0.09	824060	keystroke_t	t	n/a
412.375	0.06	824750	keystroke_n	n	n/a
412.66	0.045	825320	keystroke_Key.backspace	Key.backspace	n/a
412.765	0.075	825530	keystroke_Key.backspace	Key.backspace	n/a
412.9595	0.075	825919	keystroke_t	t	n/a
412.99	0.0605	825980	keystroke_n	n	n/a
413.59	0.075	827180	keystroke_Key.backspace	Key.backspace	n/a
413.7545	0.075	827509	keystroke_Key.backspace	Key.backspace	n/a
414.04	0.0595	828080	keystroke_n	n	n/a
414.0845	0.06	828169	keystroke_t	t	n/a
414.7595	0.0755	829519	keystroke_Key.space	Key.space	n/a
414.85	0.1195	829700	keystroke_s	s	n/a
415.0595	0.09	830119	keystroke_y	y	n/a
415.3445	0.0155	830689	keystroke_s	s	n/a
415.3895	0.09	830779	keystroke_t	t	n/a
415.5545	0.1055	831109	keystroke_e	e	n/a
415.6745	0.0905	831349	keystroke_m	m	n/a
415.9	0.1195	831800	keystroke_Key.enter	Key.enter	n/a
416.026	13.3305	832052	prompt	n/a	philippines manner converter commitments\n
417.2805	0.074	834561	keystroke_p	p	n/a
417.6555	0.1045	835311	keystroke_h	h	n/a
418.105	0.104	836210	keystroke_i	i	n/a
418.555	0.06	837110	keystroke_;	;	n/a
419.7845	0.09	839569	keystroke_Key.backspace	Key.backspace	n/a
420.5045	0.0605	841009	keystroke_l	l	n/a
420.7445	0.015	841489	keystroke_l	l	n/a
421.72	0.09	843440	keystroke_Key.backspace	Key.backspace	n/a
422.4405	0.119	844881	keystroke_i	i	n/a
423.04	0.0745	846080	keystroke_p	p	n/a
423.2195	0.0605	846439	keystroke_p	p	n/a
423.55	0.09	847100	keystroke_i	i	n/a
423.73	0.105	847460	keystroke_n	n	n/a
423.79	0.135	847580	keystroke_e	e	n/a
423.955	0.105	847910	keystroke_s	s	n/a
424.1045	0.0605	848209	keystroke_Key.space	Key.space	n/a
424.33	0.09	848660	keystroke_m	m	n/a
424.449	0.091	848898	keystroke_a	a	n/a
424.585	0.045	849170	keystroke_n	n	n/a
424.69	0.0745	849380	keystroke_n	n	n/a
424.825	0.1055	849650	keystroke_e	e	n/a
424.9	0.074	849800	keystroke_r	r	n/a
425.02	0.09	850040	keystroke_Key.space	Key.space	n/a
425.32	0.104	850640	keystroke_c	c	n/a
425.44	0.119	850880	keystroke_o	o	n/a
425.515	0.105	851030	keystroke_n	n	n/a
425.635	0.075	851270	keystroke_v	v	n/a
425.7855	0.0895	851571	keystroke_e	e	n/a
425.86	0.09	851720	keystroke_r	r	n/a
426.055	0.0895	852110	keystroke_t	t	n/a
426.2345	0.1055	852469	keystroke_e	e	n/a
426.31	0.0895	852620	keystroke_r	r	n/a
426.4595	0.0755	852919	keystroke_Key.space	Key.space	n/a
426.79	0.09	853580	keystroke_c	c	n/a
426.8945	0.0455	853789	keystroke_o	o	n/a
427.03	0.0595	854060	keystroke_m	m	n/a
427.1345	0.075	854269	keystroke_m	m	n/a
427.2995	0.075	854599	keystroke_i	i	n/a
427.3595	0.06	854719	keystroke_t	t	n/a
427.495	0.06	854990	keystroke_e	e	n/a
427.615	0.045	855230	keystroke_m	m	n/a
427.795	0.045	855590	keystroke_e	e	n/a
428.11	0.06	856220	keystroke_Key.backspace	Key.backspace	n/a
428.245	0.06	856490	keystroke_Key.backspace	Key.backspace	n/a
428.38	0.06	856760	keystroke_Key.backspace	Key.backspace	n/a
428.605	0.09	857210	keystroke_m	m	n/a
428.68	0.09	857360	keystroke_e	e	n/a
428.8	0.09	857600	keystroke_n	n	n/a
428.86	0.075	857720	keystroke_t	t	n/a
429.04	0.075	858080	keystroke_s	s	n/a
429.265	0.09	858530	keystroke_Key.enter	Key.enter	n/a
429.3605	8.336	858721	prompt	n/a	hearts helen pushing times\n
430.075	0.09	860150	keystroke_h	h	n/a
430.12	0.12	860240	keystroke_e	e	n/a
430.225	0.149	860450	keystroke_r	r	n/a
430.285	0.0755	860570	keystroke_a	a	n/a
430.4655	0.09	860931	keystroke_t	t	n/a
431.1245	0.06	862249	keystroke_Key.backspace	Key.backspace	n/a
431.2745	0.06	862549	keystroke_Key.backspace	Key.backspace	n/a
431.409	0.1205	862818	keystroke_Key.backspace	Key.backspace	n/a
431.935	0.12	863870	keystroke_a	a	n/a
432.0995	0.09	864199	keystroke_r	r	n/a
432.2645	0.09	864529	keystroke_t	t	n/a
432.4445	0.0755	864889	keystroke_s	s	n/a
432.91	0.09	865820	keystroke_Key.space	Key.space	n/a
433.105	0.09	866210	keystroke_h	h	n/a
433.18	0.06	866360	keystroke_e	e	n/a
433.315	0.105	866630	keystroke_l	l	n/a
433.39	0.09	866780	keystroke_e	e	n/a
433.57	0.0905	867140	keystroke_n	n	n/a
433.705	0.075	867410	keystroke_d	d	n/a
434.14	0.045	868280	keystroke_Key.backspace	Key.backspace	n/a
434.395	0.09	868790	keystroke_Key.space	Key.space	n/a
434.92	0.06	869840	keystroke_p	p	n/a
435.25	0.09	870500	keystroke_u	u	n/a
435.385	0.0755	870770	keystroke_s	s	n/a
435.475	0.09	870950	keystroke_h	h	n/a
435.685	0.135	871370	keystroke_i	i	n/a
435.775	0.12	871550	keystroke_n	n	n/a
435.94	0.0745	871880	keystroke_g	g	n/a
436.5245	0.09	873049	keystroke_Key.space	Key.space	n/a
436.825	0.0895	873650	keystroke_t	t	n/a
436.9145	0.1355	873829	keystroke_i	i	n/a
436.9595	0.12	873919	keystroke_m	m	n/a
437.0645	0.0455	874129	keystroke_e	e	n/a
437.26	0.075	874520	keystroke_s	s	n/a
437.59	0.1045	875180	keystroke_Key.enter	Key.enter	n/a
437.7	7.0015	875400	prompt	n/a	march removable quote spots\n
438.3245	0.046	876649	keystroke_m	m	n/a
438.3545	0.106	876709	keystroke_a	a	n/a
438.4745	0.1055	876949	keystroke_r	r	n/a
438.6855	0.119	877371	keystroke_c	c	n/a
438.775	0.075	877550	keystroke_h	h	n/a
438.9695	0.0905	877939	keystroke_Key.space	Key.space	n/a
439.1795	0.09	878359	keystroke_r	r	n/a
439.2545	0.09	878509	keystroke_e	e	n/a
439.3595	0.076	878719	keystroke_m	m	n/a
439.4945	0.09	878989	keystroke_o	o	n/a
439.5995	0.1055	879199	keystroke_v	v	n/a
440.08	0.12	880160	keystroke_a	a	n/a
440.32	0.075	880640	keystroke_b	b	n/a
440.44	0.075	880880	keystroke_l	l	n/a
440.515	0.089	881030	keystroke_e	e	n/a
440.65	0.0895	881300	keystroke_Key.space	Key.space	n/a
441.3705	0.0295	882741	keystroke_q	q	n/a
441.565	0.03	883130	keystroke_q	q	n/a
442.2555	0.0745	884511	keystroke_Key.backspace	Key.backspace	n/a
442.795	0.09	885590	keystroke_u	u	n/a
443.0055	0.12	886011	keystroke_o	o	n/a
443.1845	0.076	886369	keystroke_t	t	n/a
443.2295	0.091	886459	keystroke_e	e	n/a
443.5305	0.09	887061	keystroke_Key.space	Key.space	n/a
443.8295	0.076	887659	keystroke_s	s	n/a
443.9205	0.09	887841	keystroke_p	p	n/a
444.0845	0.0905	888169	keystroke_o	o	n/a
444.1895	0.091	888379	keystroke_t	t	n/a
444.3395	0.105	888679	keystroke_s	s	n/a
444.58	0.1195	889160	keystroke_Key.enter	Key.enter	n/a
444.7075	5.6785	889415	prompt	n/a	exotic fine have bacterial\n
445.3295	0.091	890659	keystroke_e	e	n/a
445.7045	0.106	891409	keystroke_x	x	n/a
445.8545	0.0755	891709	keystroke_o	o	n/a
446.0345	0.076	892069	keystroke_t	t	n/a
446.1395	0.075	892279	keystroke_i	i	n/a
446.2895	0.075	892579	keystroke_c	c	n/a
446.38	0.0895	892760	keystroke_Key.space	Key.space	n/a
446.9505	0.044	893901	keystroke_f	f	n/a
447.4145	0.105	894829	keystroke_i	i	n/a
447.4745	0.1055	894949	keystroke_n	n	n/a
447.5355	0.075	895071	keystroke_e	e	n/a
447.7	0.0595	895400	keystroke_Key.space	Key.space	n/a
447.8795	0.075	895759	keystroke_h	h	n/a
447.9395	0.09	895879	keystroke_a	a	n/a
448.1195	0.075	896239	keystroke_v	v	n/a
448.2545	0.105	896509	keystroke_e	e	n/a
448.3745	0.09	896749	keystroke_Key.space	Key.space	n/a
448.9595	0.075	897919	keystroke_b	b	n/a
449.1395	0.15	898279	keystroke_a	a	n/a
449.2755	0.089	898551	keystroke_c	c	n/a
449.485	0.1045	898970	keystroke_t	t	n/a
449.6355	0.119	899271	keystroke_e	e	n/a
449.7095	0.105	899419	keystroke_r	r	n/a
449.7995	0.075	899599	keystroke_i	i	n/a
449.86	0.1045	899720	keystroke_a	a	n/a
450.0105	0.0895	900021	keystroke_l	l	n/a
450.2945	0.09	900589	keystroke_Key.enter	Key.enter	n/a
450.3895	6.507	900779	prompt	n/a	teaching election singapore hayes\n
451.135	0.075	902270	keystroke_t	t	n/a
451.18	0.0905	902360	keystroke_e	e	n/a
451.315	0.09	902630	keystroke_a	a	n/a
451.4495	0.1345	902899	keystroke_c	c	n/a
451.6	0.06	903200	keystroke_h	h	n/a
451.705	0.105	903410	keystroke_i	i	n/a
451.765	0.09	903530	keystroke_n	n	n/a
451.825	0.0745	903650	keystroke_g	g	n/a
451.944	0.0905	903888	keystroke_Key.space	Key.space	n/a
452.05	0.0745	904100	keystroke_e	e	n/a
452.1855	0.089	904371	keystroke_l	l	n/a
452.2605	0.059	904521	keystroke_e	e	n/a
452.4695	0.105	904939	keystroke_c	c	n/a
452.68	0.075	905360	keystroke_t	t	n/a
452.7105	0.195	905421	keystroke_i	i	n/a
452.83	0.0905	905660	keystroke_o	o	n/a
452.86	0.1045	905720	keystroke_n	n	n/a
453.0395	0.1055	906079	keystroke_Key.space	Key.space	n/a
453.235	0.09	906470	keystroke_s	s	n/a
453.28	0.12	906560	keystroke_i	i	n/a
453.37	0.105	906740	keystroke_n	n	n/a
453.445	0.0905	906890	keystroke_g	g	n/a
453.76	0.09	907520	keystroke_a	a	n/a
454.3755	0.089	908751	keystroke_p	p	n/a
454.4795	0.12	908959	keystroke_o	o	n/a
454.6295	0.1055	909259	keystroke_r	r	n/a
454.7045	0.1205	909409	keystroke_e	e	n/a
455.185	0.1045	910370	keystroke_Key.space	Key.space	n/a
455.6045	0.09	911209	keystroke_h	h	n/a
455.6955	0.1045	911391	keystroke_a	a	n/a
455.9345	0.076	911869	keystroke_y	y	n/a
456.1895	0.09	912379	keystroke_e	e	n/a
456.4155	0.089	912831	keystroke_s	s	n/a
456.7895	0.105	913579	keystroke_Key.enter	Key.enter	n/a
456.9015	5.59	913803	prompt	n/a	jade examine playlist travel\n
457.66	0.0905	915320	keystroke_j	j	n/a
457.72	0.09	915440	keystroke_a	a	n/a
457.9	0.0755	915800	keystroke_d	d	n/a
458.065	0.075	916130	keystroke_e	e	n/a
458.155	0.075	916310	keystroke_Key.space	Key.space	n/a
458.4855	0.075	916971	keystroke_e	e	n/a
458.6955	0.134	917391	keystroke_x	x	n/a
458.9205	0.09	917841	keystroke_a	a	n/a
458.9955	0.089	917991	keystroke_m	m	n/a
459.1305	0.12	918261	keystroke_i	i	n/a
459.2055	0.12	918411	keystroke_n	n	n/a
459.2515	0.089	918503	keystroke_e	e	n/a
459.4155	0.089	918831	keystroke_Key.space	Key.space	n/a
459.8055	0.135	919611	keystroke_p	p	n/a
459.8945	0.121	919789	keystroke_l	l	n/a
460.0305	0.104	920061	keystroke_a	a	n/a
460.3005	0.09	920601	keystroke_y	y	n/a
460.5245	0.076	921049	keystroke_l	l	n/a
460.7055	0.105	921411	keystroke_i	i	n/a
460.7655	0.06	921531	keystroke_s	s	n/a
460.9445	0.076	921889	keystroke_t	t	n/a
461.0645	0.06	922129	keystroke_Key.space	Key.space	n/a
461.41	0.075	922820	keystroke_t	t	n/a
461.455	0.075	922910	keystroke_r	r	n/a
461.6345	0.09	923269	keystroke_a	a	n/a
461.7845	0.075	923569	keystroke_v	v	n/a
461.9045	0.12	923809	keystroke_e	e	n/a
462.07	0.09	924140	keystroke_l	l	n/a
462.385	0.105	924770	keystroke_Key.enter	Key.enter	n/a
462.496	9.5805	924992	prompt	n/a	possibilities cordless charles hills\n
464.02	0.105	928040	keystroke_p	p	n/a
464.26	0.0745	928520	keystroke_o	o	n/a
464.3945	0.075	928789	keystroke_s	s	n/a
464.56	0.0755	929120	keystroke_s	s	n/a
464.755	0.105	929510	keystroke_i	i	n/a
465.4895	0.0905	930979	keystroke_b	b	n/a
465.5945	0.075	931189	keystroke_i	i	n/a
465.7895	0.075	931579	keystroke_l	l	n/a
465.9695	0.076	931939	keystroke_i	i	n/a
466.0895	0.075	932179	keystroke_t	t	n/a
467.425	0.075	934850	keystroke_i	i	n/a
467.515	0.09	935030	keystroke_e	e	n/a
467.635	0.0755	935270	keystroke_s	s	n/a
468.055	0.075	936110	keystroke_Key.space	Key.space	n/a
468.16	0.105	936320	keystroke_c	c	n/a
468.295	0.1055	936590	keystroke_o	o	n/a
468.4155	0.105	936831	keystroke_r	r	n/a
468.7155	0.105	937431	keystroke_d	d	n/a
468.8805	0.09	937761	keystroke_l	l	n/a
468.9555	0.075	937911	keystroke_e	e	n/a
469.135	0.0595	938270	keystroke_s	s	n/a
469.2995	0.0755	938599	keystroke_s	s	n/a
469.3755	0.0745	938751	keystroke_Key.space	Key.space	n/a
469.5395	0.105	939079	keystroke_c	c	n/a
469.63	0.1045	939260	keystroke_h	h	n/a
469.81	0.0745	939620	keystroke_a	a	n/a
469.8695	0.1055	939739	keystroke_r	r	n/a
470.335	0.06	940670	keystroke_l	l	n/a
470.38	0.09	940760	keystroke_e	e	n/a
470.575	0.09	941150	keystroke_s	s	n/a
470.68	0.09	941360	keystroke_Key.space	Key.space	n/a
471.115	0.09	942230	keystroke_h	h	n/a
471.28	0.06	942560	keystroke_i	i	n/a
471.5205	0.0595	943041	keystroke_l	l	n/a
471.64	0.09	943280	keystroke_l	l	n/a
471.745	0.0895	943490	keystroke_s	s	n/a
471.9845	0.09	943969	keystroke_Key.enter	Key.enter	n/a
472.0805	7.271	944161	prompt	n/a	jeep receiver newfoundland hours\n
472.915	0.03	945830	keystroke_j	j	n/a
472.96	0.075	945920	keystroke_e	e	n/a
473.125	0.06	946250	keystroke_e	e	n/a
473.215	0.09	946430	keystroke_p	p	n/a
473.635	0.105	947270	keystroke_Key.space	Key.space	n/a
474.0845	0.076	948169	keystroke_r	r	n/a
474.1295	0.0905	948259	keystroke_e	e	n/a
474.355	0.0895	948710	keystroke_v	v	n/a
474.7895	0.105	949579	keystroke_Key.backspace	Key.backspace	n/a
474.8795	0.0755	949759	keystroke_c	c	n/a
474.9845	0.09	949969	keystroke_e	e	n/a
475.1195	0.0755	950239	keystroke_i	i	n/a
475.3305	0.0745	950661	keystroke_v	v	n/a
475.4945	0.0905	950989	keystroke_e	e	n/a
475.6145	0.075	951229	keystroke_r	r	n/a
475.8695	0.075	951739	keystroke_Key.space	Key.space	n/a
476.41	0.09	952820	keystroke_n	n	n/a
476.5455	0.0895	953091	keystroke_e	e	n/a
476.6195	0.1055	953239	keystroke_w	w	n/a
476.9805	0.0745	953961	keystroke_f	f	n/a
477.07	0.12	954140	keystroke_o	o	n/a
477.16	0.06	954320	keystroke_u	u	n/a
477.34	0.0905	954680	keystroke_n	n	n/a
477.415	0.09	954830	keystroke_d	d	n/a
477.625	0.09	955250	keystroke_l	l	n/a
477.73	0.075	955460	keystroke_a	a	n/a
477.865	0.12	955730	keystroke_n	n	n/a
477.97	0.1045	955940	keystroke_d	d	n/a
478.3895	0.0905	956779	keystroke_Key.space	Key.space	n/a
478.6745	0.09	957349	keystroke_h	h	n/a
478.8395	0.15	957679	keystroke_o	o	n/a
478.945	0.1045	957890	keystroke_u	u	n/a
478.975	0.1045	957950	keystroke_r	r	n/a
479.125	0.0895	958250	keystroke_s	s	n/a
479.26	0.09	958520	keystroke_Key.enter	Key.enter	n/a
479.356	9.6705	958712	prompt	n/a	initiated interference turkish shares\n
480.31	0.105	960620	keystroke_i	i	n/a
480.385	0.09	960770	keystroke_n	n	n/a
480.5205	0.0895	961041	keystroke_i	i	n/a
480.865	0.075	961730	keystroke_t	t	n/a
480.97	0.09	961940	keystroke_i	i	n/a
481.12	0.09	962240	keystroke_a	a	n/a
481.315	0.105	962630	keystroke_t	t	n/a
481.465	0.075	962930	keystroke_e	e	n/a
481.615	0.09	963230	keystroke_d	d	n/a
481.735	0.075	963470	keystroke_Key.space	Key.space	n/a
482.05	0.12	964100	keystroke_i	i	n/a
482.155	0.12	964310	keystroke_n	n	n/a
482.245	0.075	964490	keystroke_t	t	n/a
482.41	0.09	964820	keystroke_e	e	n/a
482.485	0.09	964970	keystroke_r	r	n/a
482.8905	0.06	965781	keystroke_f	f	n/a
482.9955	0.15	965991	keystroke_e	e	n/a
483.1005	0.105	966201	keystroke_r	r	n/a
483.175	0.135	966350	keystroke_e	e	n/a
483.415	0.0895	966830	keystroke_n	n	n/a
483.5495	0.075	967099	keystroke_c	c	n/a
483.5805	0.1195	967161	keystroke_e	e	n/a
484.3895	0.0905	968779	keystroke_Key.space	Key.space	n/a
484.78	0.0605	969560	keystroke_t	t	n/a
484.8545	0.0755	969709	keystroke_u	u	n/a
484.9445	0.09	969889	keystroke_r	r	n/a
485.08	0.09	970160	keystroke_k	k	n/a
485.2745	0.105	970549	keystroke_i	i	n/a
485.3355	0.105	970671	keystroke_n	n	n/a
485.4105	0.074	970821	keystroke_g	g	n/a
485.8	0.0445	971600	keystroke_Key.backspace	Key.backspace	n/a
485.935	0.09	971870	keystroke_Key.backspace	Key.backspace	n/a
486.07	0.075	972140	keystroke_s	s	n/a
486.7145	0.0605	973429	keystroke_h	h	n/a
487.12	0.075	974240	keystroke_Key.space	Key.space	n/a
487.51	0.075	975020	keystroke_s	s	n/a
487.57	0.105	975140	keystroke_h	h	n/a
487.705	0.09	975410	keystroke_a	a	n/a
487.825	0.135	975650	keystroke_r	r	n/a
487.93	0.105	975860	keystroke_e	e	n/a
488.635	0.015	977270	keystroke_s	s	n/a
488.95	0.075	977900	keystroke_Key.enter	Key.enter	n/a
489.031	9.1755	978062	prompt	n/a	anywhere daniel economic praise\n
489.7005	0.089	979401	keystroke_a	a	n/a
489.775	0.0905	979550	keystroke_n	n	n/a
490.015	0.075	980030	keystroke_y	y	n/a
490.51	0.15	981020	keystroke_w	w	n/a
490.6745	0.1355	981349	keystroke_h	h	n/a
490.7945	0.1655	981589	keystroke_e	e	n/a
490.9155	0.1195	981831	keystroke_r	r	n/a
491.0045	0.0755	982009	keystroke_e	e	n/a
491.4395	0.0455	982879	keystroke_Key.space	Key.space	n/a
492.04	0.0595	984080	keystroke_d	d	n/a
492.1445	0.09	984289	keystroke_a	a	n/a
492.2355	0.0745	984471	keystroke_n	n	n/a
492.4	0.0595	984800	keystroke_i	i	n/a
493.1205	0.044	986241	keystroke_e	e	n/a
493.1795	0.0755	986359	keystroke_l	l	n/a
493.3595	0.121	986719	keystroke_Key.space	Key.space	n/a
493.585	0.105	987170	keystroke_e	e	n/a
493.9895	0.076	987979	keystroke_c	c	n/a
494.11	0.0755	988220	keystroke_o	o	n/a
494.38	0.0755	988760	keystroke_n	n	n/a
494.56	0.15	989120	keystroke_o	o	n/a
494.695	0.09	989390	keystroke_m	m	n/a
494.89	0.135	989780	keystroke_i	i	n/a
494.995	0.09	989990	keystroke_n	n	n/a
495.64	0.09	991280	keystroke_Key.backspace	Key.backspace	n/a
495.775	0.075	991550	keystroke_c	c	n/a
496.15	0.06	992300	keystroke_Key.space	Key.space	n/a
496.54	0.09	993080	keystroke_p	p	n/a
496.735	0.06	993470	keystroke_r	r	n/a
497.0945	0.09	994189	keystroke_a	a	n/a
497.5305	0.059	995061	keystroke_i	i	n/a
497.6655	0.0595	995331	keystroke_s	s	n/a
497.9345	0.0755	995869	keystroke_e	e	n/a
498.13	0.075	996260	keystroke_Key.enter	Key.enter	n/a
498.2095	26.023	996419	prompt	n/a	plugin olympics revisions xanax\n
499.6905	0.0895	999381	keystroke_p	p	n/a
500.95	0.0745	1001900	keystroke_l	l	n/a
501.715	0.09	1003430	keystroke_u	u	n/a
502.21	0.075	1004420	keystroke_g	g	n/a
502.33	0.12	1004660	keystroke_i	i	n/a
502.39	0.105	1004780	keystroke_n	n	n/a
503.245	0.0745	1006490	keystroke_Key.space	Key.space	n/a
503.9955	0.135	1007991	keystroke_o	o	n/a
504.2205	0.089	1008441	keystroke_l	l	n/a
504.4905	0.075	1008981	keystroke_y	y	n/a
504.6705	0.09	1009341	keystroke_m	m	n/a
505	0.1205	1010000	keystroke_u	u	n/a
505.42	0.075	1010840	keystroke_p	p	n/a
505.48	0.105	1010960	keystroke_i	i	n/a
505.99	0.045	1011980	keystroke_Key.backspace	Key.backspace	n/a
506.14	0.06	1012280	keystroke_Key.backspace	Key.backspace	n/a
506.29	0.09	1012580	keystroke_Key.backspace	Key.backspace	n/a
509.7565	0.074	1019513	keystroke_p	p	n/a
510.145	0.105	1020290	keystroke_i	i	n/a
510.925	0.12	1021850	keystroke_c	c	n/a
511.0745	0.135	1022149	keystroke_s	s	n/a
511.8095	0.075	1023619	keystroke_Key.space	Key.space	n/a
512.0345	0.106	1024069	keystroke_r	r	n/a
512.11	0.105	1024220	keystroke_e	e	n/a
512.3805	0.0745	1024761	keystroke_v	v	n/a
512.455	0.105	1024910	keystroke_i	i	n/a
512.545	0.09	1025090	keystroke_s	s	n/a
512.695	0.18	1025390	keystroke_o	o	n/a
512.845	0.09	1025690	keystroke_n	n	n/a
512.965	0.09	1025930	keystroke_s	s	n/a
513.085	0.0895	1026170	keystroke_Key.space	Key.space	n/a
513.9545	0.0905	1027909	keystroke_x	x	n/a
514.21	0.045	1028420	keystroke_a	a	n/a
514.3305	0.1045	1028661	keystroke_n	n	n/a
514.42	0.1055	1028840	keystroke_a	a	n/a
515.275	0.105	1030550	keystroke_x	x	n/a
517.676	0.029	1035352	keystroke_Key.backspace	Key.backspace	n/a
517.795	0.0605	1035590	keystroke_Key.backspace	Key.backspace	n/a
517.96	0.0445	1035920	keystroke_Key.backspace	Key.backspace	n/a
518.0945	0.045	1036189	keystroke_Key.backspace	Key.backspace	n/a
518.23	0.0445	1036460	keystroke_Key.backspace	Key.backspace	n/a
518.3495	0.045	1036699	keystroke_Key.backspace	Key.backspace	n/a
518.455	0.0595	1036910	keystroke_Key.backspace	Key.backspace	n/a
518.5745	0.075	1037149	keystroke_Key.backspace	Key.backspace	n/a
518.7095	0.0605	1037419	keystroke_Key.backspace	Key.backspace	n/a
519.4155	0.104	1038831	keystroke_i	i	n/a
519.5345	0.135	1039069	keystroke_o	o	n/a
519.6555	0.0895	1039311	keystroke_n	n	n/a
519.7895	0.091	1039579	keystroke_s	s	n/a
519.9855	0.059	1039971	keystroke_Key.space	Key.space	n/a
520.7045	0.105	1041409	keystroke_x	x	n/a
520.8695	0.091	1041739	keystroke_a	a	n/a
521.02	0.0895	1042040	keystroke_x	x	n/a
522.4305	0.0745	1044861	keystroke_Key.backspace	Key.backspace	n/a
522.76	0.09	1045520	keystroke_n	n	n/a
522.82	0.105	1045640	keystroke_a	a	n/a
523.3745	0.015	1046749	keystroke_x	x	n/a
524.125	0.1055	1048250	keystroke_Key.enter	Key.enter	n/a
524.236	11.2305	1048472	prompt	n/a	edmonton frankfurt description instrumentation\n
525.145	0.06	1050290	keystroke_e	e	n/a
525.31	0.075	1050620	keystroke_d	d	n/a
525.535	0.075	1051070	keystroke_m	m	n/a
525.6395	0.105	1051279	keystroke_o	o	n/a
525.7155	0.104	1051431	keystroke_n	n	n/a
525.8355	0.0895	1051671	keystroke_t	t	n/a
525.9105	0.1195	1051821	keystroke_o	o	n/a
525.9695	0.105	1051939	keystroke_n	n	n/a
526.15	0.105	1052300	keystroke_Key.space	Key.space	n/a
526.5395	0.075	1053079	keystroke_f	f	n/a
526.6905	0.089	1053381	keystroke_r	r	n/a
526.8095	0.075	1053619	keystroke_a	a	n/a
526.9	0.135	1053800	keystroke_n	n	n/a
527.02	0.075	1054040	keystroke_k	k	n/a
527.515	0.105	1055030	keystroke_f	f	n/a
527.635	0.12	1055270	keystroke_u	u	n/a
527.71	0.06	1055420	keystroke_r	r	n/a
527.8895	0.091	1055779	keystroke_t	t	n/a
528.07	0.0895	1056140	keystroke_Key.space	Key.space	n/a
528.4595	0.105	1056919	keystroke_d	d	n/a
528.625	0.0895	1057250	keystroke_e	e	n/a
528.7895	0.106	1057579	keystroke_s	s	n/a
529.03	0.0895	1058060	keystroke_c	c	n/a
529.2245	0.076	1058449	keystroke_r	r	n/a
529.3005	0.0745	1058601	keystroke_i	i	n/a
529.5395	0.0905	1059079	keystroke_p	p	n/a
529.645	0.0895	1059290	keystroke_t	t	n/a
529.7805	0.165	1059561	keystroke_i	i	n/a
529.9005	0.18	1059801	keystroke_o	o	n/a
530.035	0.135	1060070	keystroke_n	n	n/a
530.59	0.075	1061180	keystroke_Key.space	Key.space	n/a
532.105	0.09	1064210	keystroke_i	i	n/a
532.21	0.105	1064420	keystroke_n	n	n/a
532.8095	0.06	1065619	keystroke_s	s	n/a
533.0205	0.1045	1066041	keystroke_t	t	n/a
533.08	0.1045	1066160	keystroke_r	r	n/a
533.1705	0.089	1066341	keystroke_u	u	n/a
533.59	0.0745	1067180	keystroke_m	m	n/a
533.68	0.0595	1067360	keystroke_e	e	n/a
533.755	0.12	1067510	keystroke_n	n	n/a
534.13	0.0745	1068260	keystroke_t	t	n/a
534.295	0.0895	1068590	keystroke_a	a	n/a
534.4595	0.0905	1068919	keystroke_t	t	n/a
534.5345	0.075	1069069	keystroke_i	i	n/a
534.5645	0.1655	1069129	keystroke_o	o	n/a
534.7305	0.074	1069461	keystroke_n	n	n/a
535.3595	0.105	1070719	keystroke_Key.enter	Key.enter	n/a
535.4705	7.8865	1070941	prompt	n/a	reports chat leslie personality\n
536.1845	0.105	1072369	keystroke_r	r	n/a
536.2455	0.089	1072491	keystroke_e	e	n/a
536.425	0.1355	1072850	keystroke_p	p	n/a
536.5895	0.12	1073179	keystroke_o	o	n/a
536.7395	0.075	1073479	keystroke_r	r	n/a
536.8895	0.09	1073779	keystroke_t	t	n/a
537.0845	0.09	1074169	keystroke_s	s	n/a
537.43	0.0895	1074860	keystroke_Key.space	Key.space	n/a
537.73	0.105	1075460	keystroke_c	c	n/a
537.82	0.06	1075640	keystroke_h	h	n/a
537.895	0.1055	1075790	keystroke_a	a	n/a
538.0755	0.09	1076151	keystroke_t	t	n/a
538.2095	0.076	1076419	keystroke_Key.space	Key.space	n/a
538.4055	0.105	1076811	keystroke_l	l	n/a
538.8695	0.076	1077739	keystroke_e	e	n/a
539.035	0.0605	1078070	keystroke_s	s	n/a
539.23	0.105	1078460	keystroke_l	l	n/a
539.395	0.105	1078790	keystroke_i	i	n/a
539.53	0.075	1079060	keystroke_e	e	n/a
539.86	0.12	1079720	keystroke_Key.space	Key.space	n/a
541.2695	0.091	1082539	keystroke_p	p	n/a
541.63	0.1045	1083260	keystroke_e	e	n/a
541.7205	0.074	1083441	keystroke_r	r	n/a
541.8855	0.1045	1083771	keystroke_s	s	n/a
541.9605	0.1345	1083921	keystroke_o	o	n/a
542.065	0.105	1084130	keystroke_n	n	n/a
542.17	0.09	1084340	keystroke_a	a	n/a
542.275	0.12	1084550	keystroke_l	l	n/a
542.455	0.135	1084910	keystroke_i	i	n/a
542.56	0.06	1085120	keystroke_t	t	n/a
542.71	0.075	1085420	keystroke_y	y	n/a
543.265	0.09	1086530	keystroke_Key.enter	Key.enter	n/a
543.361	6.896	1086722	prompt	n/a	pair evident plug stylish\n
544.96	0.0605	1089920	keystroke_p	p	n/a
545.1705	0.104	1090341	keystroke_a	a	n/a
545.4395	0.075	1090879	keystroke_i	i	n/a
545.5755	0.06	1091151	keystroke_r	r	n/a
546.3095	0.091	1092619	keystroke_Key.space	Key.space	n/a
546.4595	0.1055	1092919	keystroke_e	e	n/a
546.6995	0.06	1093399	keystroke_v	v	n/a
546.7755	0.089	1093551	keystroke_i	i	n/a
546.925	0.0745	1093850	keystroke_d	d	n/a
547.1045	0.06	1094209	keystroke_e	e	n/a
547.1945	0.075	1094389	keystroke_n	n	n/a
547.3	0.0595	1094600	keystroke_t	t	n/a
547.3605	0.104	1094721	keystroke_Key.space	Key.space	n/a
547.78	0.0895	1095560	keystroke_p	p	n/a
547.9155	0.12	1095831	keystroke_l	l	n/a
548.1855	0.1045	1096371	keystroke_u	u	n/a
