onset	duration	sample	value	key	prompt_text
3.727	13.9855	7454	prompt	n/a	the quick brown fox jumps over a lazy dog\n
7.4665	0.073	14933	keystroke	t	n/a
7.4805	0.074	14961	keystroke	h	n/a
7.5995	0.09	15199	keystroke	e	n/a
7.7195	0.075	15439	keystroke	Key.space	n/a
8.2	0.0905	16400	keystroke	q	n/a
8.275	0.0905	16550	keystroke	u	n/a
8.3355	0.09	16671	keystroke	i	n/a
8.5005	0.12	17001	keystroke	c	n/a
8.6055	0.075	17211	keystroke	k	n/a
8.7855	0.0885	17571	keystroke	Key.space	n/a
8.98	0.06	17960	keystroke	b	n/a
9.07	0.09	18140	keystroke	r	n/a
9.175	0.075	18350	keystroke	o	n/a
9.37	0.06	18740	keystroke	w	n/a
9.49	0.09	18980	keystroke	n	n/a
9.79	0.0745	19580	keystroke	Key.space	n/a
10.4195	0.045	20839	keystroke	o	n/a
10.7795	0.075	21559	keystroke	Key.backspace	n/a
10.8995	0.06	21799	keystroke	f	n/a
11.0205	0.074	22041	keystroke	o	n/a
11.59	0.075	23180	keystroke	x	n/a
11.68	0.09	23360	keystroke	Key.space	n/a
11.98	0.045	23960	keystroke	j	n/a
12.355	0.075	24710	keystroke	u	n/a
12.6105	0.074	25221	keystroke	o	n/a
12.8495	0.06	25699	keystroke	m	n/a
13.2095	0.075	26419	keystroke	Key.backspace	n/a
13.3295	0.0905	26659	keystroke	Key.backspace	n/a
13.8705	0.059	27741	keystroke	m	n/a
14.0495	0.06	28099	keystroke	p	n/a
14.2745	0.075	28549	keystroke	s	n/a
14.3795	0.06	28759	keystroke	Key.space	n/a
14.5445	0.075	29089	keystroke	o	n/a
14.65	0.075	29300	keystroke	v	n/a
14.74	0.135	29480	keystroke	e	n/a
14.845	0.075	29690	keystroke	r	n/a
14.98	0.105	29960	keystroke	Key.space	n/a
15.295	0.09	30590	keystroke	a	n/a
15.505	0.075	31010	keystroke	Key.space	n/a
15.7455	0.075	31491	keystroke	l	n/a
15.8795	0.1055	31759	keystroke	a	n/a
16.18	0.09	32360	keystroke	z	n/a
16.33	0.075	32660	keystroke	y	n/a
16.57	0.105	33140	keystroke	Key.space	n/a
16.72	0.075	33440	keystroke	d	n/a
16.9455	0.045	33891	keystroke	o	n/a
17.095	0.06	34190	keystroke	g	n/a
17.635	0.075	35270	keystroke	Key.enter	n/a
17.7165	7.8255	35433	prompt	n/a	honolulu clarity pins apache\n
18.79	0.09	37580	keystroke	h	n/a
19.015	0.0905	38030	keystroke	o	n/a
19.405	0.0905	38810	keystroke	n	n/a
19.6005	0.0595	39201	keystroke	o	n/a
19.9	0.06	39800	keystroke	l	n/a
20.215	0.06	40430	keystroke	u	n/a
20.425	0.075	40850	keystroke	l	n/a
20.65	0.0605	41300	keystroke	u	n/a
20.9955	0.09	41991	keystroke	Key.space	n/a
21.4	0.09	42800	keystroke	c	n/a
21.535	0.075	43070	keystroke	l	n/a
21.64	0.09	43280	keystroke	a	n/a
21.82	0.09	43640	keystroke	r	n/a
21.985	0.06	43970	keystroke	i	n/a
22.15	0.06	44300	keystroke	t	n/a
22.3	0.06	44600	keystroke	y	n/a
22.72	0.075	45440	keystroke	Key.space	n/a
23.1405	0.0595	46281	keystroke	p	n/a
23.635	0.075	47270	keystroke	i	n/a
23.86	0.0595	47720	keystroke	n	n/a
24.0405	0.074	48081	keystroke	s	n/a
24.3245	0.09	48649	keystroke	Key.space	n/a
24.5655	0.074	49131	keystroke	a	n/a
24.6845	0.0755	49369	keystroke	p	n/a
24.805	0.09	49610	keystroke	a	n/a
25.03	0.105	50060	keystroke	c	n/a
25.15	0.0905	50300	keystroke	h	n/a
25.315	0.0455	50630	keystroke	e	n/a
25.45	0.09	50900	keystroke	Key.enter	n/a
25.545	6.432	51090	prompt	n/a	rolling arab reunion round\n
26.5	0.075	53000	keystroke	r	n/a
26.62	0.075	53240	keystroke	o	n/a
26.815	0.075	53630	keystroke	l	n/a
26.95	0.09	53900	keystroke	l	n/a
27.2655	0.135	54531	keystroke	i	n/a
27.3405	0.12	54681	keystroke	n	n/a
27.4905	0.014	54981	keystroke	g	n/a
27.6095	0.09	55219	keystroke	Key.space	n/a
27.7905	0.1045	55581	keystroke	a	n/a
27.955	0.135	55910	keystroke	r	n/a
28.075	0.075	56150	keystroke	a	n/a
28.285	0.075	56570	keystroke	b	n/a
28.7805	0.09	57561	keystroke	Key.space	n/a
29.2755	0.105	58551	keystroke	r	n/a
29.3505	0.09	58701	keystroke	e	n/a
29.5905	0.015	59181	keystroke	u	n/a
29.7255	0.09	59451	keystroke	n	n/a
29.9505	0.12	59901	keystroke	i	n/a
30.0255	0.09	60051	keystroke	o	n/a
30.2505	0.075	60501	keystroke	n	n/a
30.6105	0.09	61221	keystroke	Key.space	n/a
30.8805	0.075	61761	keystroke	r	n/a
30.9705	0.135	61941	keystroke	o	n/a
31.0605	0.075	62121	keystroke	u	n/a
31.2405	0.09	62481	keystroke	n	n/a
31.3455	0.09	62691	keystroke	d	n/a
31.885	0.09	63770	keystroke	Key.enter	n/a
31.98	9.5975	63960	prompt	n/a	wicked taught zimbabwe reflect\n
33.1155	0.075	66231	keystroke	w	n/a
33.4155	0.075	66831	keystroke	i	n/a
33.5805	0.0895	67161	keystroke	c	n/a
33.715	0.075	67430	keystroke	k	n/a
33.8955	0.075	67791	keystroke	e	n/a
34.2255	0.0745	68451	keystroke	d	n/a
34.48	0.105	68960	keystroke	Key.space	n/a
34.9005	0.09	69801	keystroke	t	n/a
35.035	0.09	70070	keystroke	a	n/a
35.245	0.06	70490	keystroke	u	n/a
35.41	0.06	70820	keystroke	g	n/a
35.575	0.0455	71150	keystroke	h	n/a
35.6805	0.06	71361	keystroke	t	n/a
36.0555	0.089	72111	keystroke	Key.space	n/a
36.52	0.06	73040	keystroke	z	n/a
36.685	0.075	73370	keystroke	i	n/a
36.88	0.09	73760	keystroke	m	n/a
37.21	0.075	74420	keystroke	b	n/a
37.4355	0.089	74871	keystroke	a	n/a
38.365	0.06	76730	keystroke	b	n/a
38.905	0.045	77810	keystroke	w	n/a
39.205	0.09	78410	keystroke	e	n/a
39.565	0.075	79130	keystroke	Key.space	n/a
39.9255	0.105	79851	keystroke	r	n/a
39.9855	0.075	79971	keystroke	e	n/a
40.1655	0.105	80331	keystroke	f	n/a
40.3305	0.075	80661	keystroke	l	n/a
40.4955	0.195	80991	keystroke	e	n/a
40.7205	0.1045	81441	keystroke	c	n/a
40.945	0.09	81890	keystroke	t	n/a
41.5	0.075	83000	keystroke	Key.enter	n/a
41.5825	9.6395	83165	prompt	n/a	portraits quarter still quilt\n
42.4455	0.105	84891	keystroke	o	n/a
42.6105	0.089	85221	keystroke	r	n/a
42.7455	0.059	85491	keystroke	o	n/a
43.1945	0.09	86389	keystroke	Key.backspace	n/a
43.3445	0.09	86689	keystroke	Key.backspace	n/a
43.4945	0.12	86989	keystroke	Key.backspace	n/a
43.8405	0.0595	87681	keystroke	p	n/a
44.05	0.0755	88100	keystroke	o	n/a
44.23	0.0755	88460	keystroke	r	n/a
44.425	0.105	88850	keystroke	t	n/a
44.5455	0.09	89091	keystroke	a	n/a
45.13	0.015	90260	keystroke	r	n/a
45.355	0.06	90710	keystroke	Key.backspace	n/a
45.475	0.0755	90950	keystroke	Key.backspace	n/a
45.6255	0.135	91251	keystroke	r	n/a
45.7755	0.105	91551	keystroke	a	n/a
45.9405	0.06	91881	keystroke	i	n/a
46.0755	0.0895	92151	keystroke	t	n/a
46.465	0.045	92930	keystroke	s	n/a
46.735	0.105	93470	keystroke	Key.space	n/a
47.1555	0.105	94311	keystroke	q	n/a
47.4255	0.075	94851	keystroke	u	n/a
47.5455	0.165	95091	keystroke	a	n/a
47.6955	0.105	95391	keystroke	r	n/a
48.34	0.15	96680	keystroke	t	n/a
48.505	0.12	97010	keystroke	e	n/a
48.58	0.09	97160	keystroke	r	n/a
48.865	0.105	97730	keystroke	Key.space	n/a
49.105	0.135	98210	keystroke	s	n/a
49.21	0.09	98420	keystroke	t	n/a
49.315	0.075	98630	keystroke	i	n/a
49.525	0.06	99050	keystroke	l	n/a
49.645	0.075	99290	keystroke	l	n/a
49.885	0.09	99770	keystroke	Key.space	n/a
50.23	0.0905	100460	keystroke	q	n/a
50.4105	0.09	100821	keystroke	u	n/a
50.4555	0.09	100911	keystroke	i	n/a
50.725	0.06	101450	keystroke	l	n/a
50.935	0.06	101870	keystroke	t	n/a
51.13	0.09	102260	keystroke	Key.enter	n/a
51.226	14.411	102452	prompt	n/a	continuity valuation schools secretariat\n
52.195	0.075	104390	keystroke	c	n/a
52.36	0.09	104720	keystroke	o	n/a
52.615	0.075	105230	keystroke	n	n/a
52.915	0.06	105830	keystroke	t	n/a
53.005	0.06	106010	keystroke	i	n/a
53.185	0.105	106370	keystroke	n	n/a
53.275	0.0905	106550	keystroke	u	n/a
53.4855	0.075	106971	keystroke	i	n/a
53.7255	0.045	107451	keystroke	t	n/a
53.935	0.075	107870	keystroke	y	n/a
54.49	0.075	108980	keystroke	Key.space	n/a
55	0.105	110000	keystroke	v	n/a
55.15	0.09	110300	keystroke	a	n/a
55.3905	0.135	110781	keystroke	l	n/a
55.5105	0.06	111021	keystroke	i	n/a
55.5405	0.045	111081	keystroke	u	n/a
55.6605	0.105	111321	keystroke	a	n/a
55.8255	0.0895	111651	keystroke	t	n/a
56.11	0.075	112220	keystroke	Key.backspace	n/a
56.3205	0.015	112641	keystroke	Key.backspace	n/a
56.4255	0.03	112851	keystroke	Key.backspace	n/a
56.5295	0.045	113059	keystroke	Key.backspace	n/a
56.6945	0.015	113389	keystroke	Key.backspace	n/a
58.6005	0.075	117201	keystroke	l	n/a
58.9305	0.075	117861	keystroke	u	n/a
59.0505	0.075	118101	keystroke	a	n/a
59.1855	0.09	118371	keystroke	t	n/a
59.3055	0.105	118611	keystroke	i	n/a
59.3505	0.105	118701	keystroke	o	n/a
59.5905	0.09	119181	keystroke	n	n/a
59.98	0.075	119960	keystroke	Key.space	n/a
60.3405	0.1505	120681	keystroke	s	n/a
60.476	0.1045	120952	keystroke	c	n/a
60.626	0.09	121252	keystroke	h	n/a
60.8355	0.075	121671	keystroke	o	n/a
60.986	0.09	121972	keystroke	o	n/a
61.181	0.09	122362	keystroke	l	n/a
61.361	0.06	122722	keystroke	s	n/a
61.54	0.075	123080	keystroke	Key.space	n/a
62.095	0.09	124190	keystroke	s	n/a
62.425	0.12	124850	keystroke	e	n/a
62.875	0.075	125750	keystroke	c	n/a
63.13	0.105	126260	keystroke	r	n/a
63.22	0.09	126440	keystroke	e	n/a
63.52	0.135	127040	keystroke	t	n/a
63.835	0.06	127670	keystroke	a	n/a
64.18	0.09	128360	keystroke	t	n/a
64.72	0.09	129440	keystroke	Key.backspace	n/a
64.855	0.075	129710	keystroke	r	n/a
65.005	0.09	130010	keystroke	i	n/a
65.125	0.12	130250	keystroke	a	n/a
65.275	0.075	130550	keystroke	t	n/a
65.56	0.0755	131120	keystroke	Key.enter	n/a
65.641	8.7565	131282	prompt	n/a	complications novel libraries revenge\n
66.475	0.075	132950	keystroke	c	n/a
66.58	0.09	133160	keystroke	o	n/a
66.835	0.06	133670	keystroke	m	n/a
67.1355	0.045	134271	keystroke	p	n/a
67.3305	0.075	134661	keystroke	l	n/a
67.5555	0.045	135111	keystroke	i	n/a
67.6905	0.105	135381	keystroke	c	n/a
67.7955	0.135	135591	keystroke	a	n/a
67.9005	0.105	135801	keystroke	t	n/a
68.0205	0.105	136041	keystroke	i	n/a
68.0805	0.09	136161	keystroke	o	n/a
68.2605	0.1045	136521	keystroke	n	n/a
68.41	0.075	136820	keystroke	s	n/a
68.995	0.09	137990	keystroke	Key.space	n/a
69.94	0.06	139880	keystroke	n	n/a
70.09	0.09	140180	keystroke	o	n/a
70.33	0.135	140660	keystroke	v	n/a
70.45	0.09	140900	keystroke	e	n/a
70.6	0.09	141200	keystroke	l	n/a
71.08	0.075	142160	keystroke	Key.space	n/a
71.4845	0.166	142969	keystroke	l	n/a
71.5895	0.075	143179	keystroke	i	n/a
71.8145	0.091	143629	keystroke	b	n/a
71.9355	0.12	143871	keystroke	r	n/a
71.9955	0.105	143991	keystroke	a	n/a
72.1455	0.12	144291	keystroke	r	n/a
72.2805	0.09	144561	keystroke	i	n/a
72.4595	0.076	144919	keystroke	e	n/a
72.6705	0.074	145341	keystroke	s	n/a
72.9395	0.09	145879	keystroke	Key.space	n/a
73.1645	0.12	146329	keystroke	r	n/a
73.2395	0.09	146479	keystroke	e	n/a
73.4505	0.089	146901	keystroke	v	n/a
73.5095	0.09	147019	keystroke	e	n/a
73.6445	0.09	147289	keystroke	n	n/a
73.8855	0.135	147771	keystroke	g	n/a
74.0355	0.06	148071	keystroke	e	n/a
74.3055	0.09	148611	keystroke	Key.enter	n/a
74.404	5.5575	148808	prompt	n/a	hart criticism tolerance located\n
75.3255	0.09	150651	keystroke	h	n/a
75.3855	0.15	150771	keystroke	a	n/a
75.4905	0.09	150981	keystroke	r	n/a
75.7155	0.075	151431	keystroke	t	n/a
76.195	0.075	152390	keystroke	Key.space	n/a
76.5395	0.09	153079	keystroke	c	n/a
76.7795	0.06	153559	keystroke	r	n/a
77.0795	0.09	154159	keystroke	i	n/a
78.46	0.06	156920	keystroke	t	n/a
78.595	0.09	157190	keystroke	i	n/a
78.925	0.09	157850	keystroke	c	n/a
79.045	0.075	158090	keystroke	i	n/a
79.165	0.06	158330	keystroke	s	n/a
79.345	0.09	158690	keystroke	m	n/a
79.8695	0.09	159739	keystroke	Key.enter	n/a
79.9645	2.562	159929	prompt	n/a	walker guns registered crack\n
80.35	0.045	160700	keystroke	t	n/a
80.425	0.075	160850	keystroke	o	n/a
80.605	0.09	161210	keystroke	l	n/a
80.815	0.3	161630	keystroke	e	n/a
81.3855	0.1045	162771	keystroke	r	n/a
81.505	0.09	163010	keystroke	a	n/a
81.6855	0.075	163371	keystroke	n	n/a
82.0155	0.165	164031	keystroke	c	n/a
82.1505	0.075	164301	keystroke	e	n/a
82.4355	0.089	164871	keystroke	Key.enter	n/a
82.5295	19.557	165059	prompt	n/a	physical morrison campaign thesaurus\n
84.265	0.09	168530	keystroke	p	n/a
84.595	0.06	169190	keystroke	h	n/a
84.715	0.09	169430	keystroke	y	n/a
84.97	0.09	169940	keystroke	s	n/a
85.075	0.075	170150	keystroke	i	n/a
85.27	0.1045	170540	keystroke	c	n/a
85.315	0.1205	170630	keystroke	a	n/a
85.4805	0.045	170961	keystroke	k	n/a
85.4955	0.015	170991	keystroke	l	n/a
85.915	0.09	171830	keystroke	Key.space	n/a
86.4995	0.03	172999	keystroke	m	n/a
86.5145	0.091	173029	keystroke	o	n/a
86.8745	0.09	173749	keystroke	Key.backspace	n/a
87.1905	0.075	174381	keystroke	m	n/a
87.3095	0.105	174619	keystroke	o	n/a
87.655	0.09	175310	keystroke	Key.backspace	n/a
87.79	0.0595	175580	keystroke	Key.backspace	n/a
87.9095	0.06	175819	keystroke	Key.backspace	n/a
88.03	0.045	176060	keystroke	Key.backspace	n/a
88.15	0.045	176300	keystroke	Key.backspace	n/a
88.3	0.03	176600	keystroke	Key.backspace	n/a
88.915	0.0755	177830	keystroke	l	n/a
89.155	0.09	178310	keystroke	Key.space	n/a
89.425	0.12	178850	keystroke	m	n/a
89.515	0.075	179030	keystroke	o	n/a
89.77	0.06	179540	keystroke	r	n/a
90.0095	0.015	180019	keystroke	r	n/a
90.0405	0.059	180081	keystroke	i	n/a
90.9705	0.074	181941	keystroke	s	n/a
91.1195	0.165	182239	keystroke	o	n/a
91.2395	0.06	182479	keystroke	n	n/a
91.4495	0.075	182899	keystroke	Key.space	n/a
91.7195	0.105	183439	keystroke	c	n/a
91.7945	0.105	183589	keystroke	a	n/a
91.8845	0.0755	183769	keystroke	m	n/a
92.0645	0.0755	184129	keystroke	p	n/a
93.3245	0.09	186649	keystroke	a	n/a
93.535	0.0745	187070	keystroke	i	n/a
93.775	0.075	187550	keystroke	g	n/a
93.9545	0.045	187909	keystroke	h	n/a
94.81	0.0905	189620	keystroke	Key.backspace	n/a
95.1405	0.06	190281	keystroke	n	n/a
95.5455	0.089	191091	keystroke	Key.space	n/a
95.995	0.105	191990	keystroke	t	n/a
96.115	0.06	192230	keystroke	h	n/a
96.22	0.105	192440	keystroke	e	n/a
97.375	0.165	194750	keystroke	s	n/a
97.495	0.105	194990	keystroke	a	n/a
97.63	0.09	195260	keystroke	u	n/a
97.84	0.0755	195680	keystroke	r	n/a
98.0205	0.09	196041	keystroke	u	n/a
98.2155	0.075	196431	keystroke	s	n/a
99.3695	0.06	198739	keystroke	'	n/a
101.245	0.06	202490	keystroke	Key.backspace	n/a
102.025	0.06	204050	keystroke	Key.enter	n/a
102.09	11.2465	204180	prompt	n/a	synthesis filme productivity savings\n
103.045	0.075	206090	keystroke	s	n/a
103.21	0.06	206420	keystroke	u	n/a
103.585	0.09	207170	keystroke	Key.backspace	n/a
103.765	0.075	207530	keystroke	y	n/a
104.08	0.06	208160	keystroke	h	n/a
104.59	0.075	209180	keystroke	Key.backspace	n/a
104.89	0.075	209780	keystroke	n	n/a
105.055	0.0905	210110	keystroke	t	n/a
105.16	0.075	210320	keystroke	h	n/a
105.295	0.0905	210590	keystroke	e	n/a
105.5505	0.045	211101	keystroke	s	n/a
105.685	0.06	211370	keystroke	i	n/a
105.94	0.075	211880	keystroke	s	n/a
106.57	0.075	213140	keystroke	Key.space	n/a
107.1855	0.0745	214371	keystroke	f	n/a
107.275	0.075	214550	keystroke	i	n/a
107.485	0.045	214970	keystroke	l	n/a
107.68	0.0595	215360	keystroke	m	n/a
107.8	0.0595	215600	keystroke	e	n/a
108.2645	0.046	216529	keystroke	Key.space	n/a
108.7005	0.075	217401	keystroke	p	n/a
108.8505	0.075	217701	keystroke	r	n/a
108.9555	0.075	217911	keystroke	o	n/a
109.4505	0.09	218901	keystroke	d	n/a
109.6005	0.075	219201	keystroke	u	n/a
109.6905	0.075	219381	keystroke	c	n/a
109.8855	0.075	219771	keystroke	t	n/a
110.0055	0.075	220011	keystroke	i	n/a
110.2155	0.075	220431	keystroke	v	n/a
110.3355	0.075	220671	keystroke	i	n/a
110.5305	0.0595	221061	keystroke	t	n/a
110.68	0.075	221360	keystroke	y	n/a
111.19	0.075	222380	keystroke	Key.space	n/a
111.5795	0.0905	223159	keystroke	s	n/a
111.655	0.075	223310	keystroke	a	n/a
111.8955	0.104	223791	keystroke	v	n/a
112.0295	0.105	224059	keystroke	i	n/a
112.0905	0.074	224181	keystroke	n	n/a
112.1795	0.075	224359	keystroke	g	n/a
112.4195	0.076	224839	keystroke	s	n/a
113.2595	0.075	226519	keystroke	Key.enter	n/a
113.3395	10.062	226679	prompt	n/a	dice leaders engineering passport\n
114.5205	0.074	229041	keystroke	d	n/a
114.6255	0.0895	229251	keystroke	i	n/a
114.79	0.1505	229580	keystroke	c	n/a
114.88	0.1205	229760	keystroke	e	n/a
115.36	0.1055	230720	keystroke	Key.space	n/a
115.855	0.075	231710	keystroke	l	n/a
115.975	0.0895	231950	keystroke	e	n/a
116.0345	0.15	232069	keystroke	a	n/a
116.1995	0.12	232399	keystroke	d	n/a
116.3045	0.135	232609	keystroke	e	n/a
116.3795	0.105	232759	keystroke	r	n/a
116.5595	0.105	233119	keystroke	s	n/a
117.0245	0.09	234049	keystroke	Key.space	n/a
117.3695	0.09	234739	keystroke	e	n/a
117.5355	0.104	235071	keystroke	n	n/a
117.985	0.09	235970	keystroke	g	n/a
118.06	0.075	236120	keystroke	i	n/a
118.3005	0.06	236601	keystroke	n	n/a
118.3905	0.075	236781	keystroke	e	n/a
118.5705	0.09	237141	keystroke	e	n/a
118.7205	0.09	237441	keystroke	r	n/a
118.8705	0.045	237741	keystroke	u	n/a
118.9005	0.06	237801	keystroke	n	n/a
119.0205	0.075	238041	keystroke	g	n/a
119.755	0.0605	239510	keystroke	=	n/a
119.995	0.045	239990	keystroke	Key.backspace	n/a
120.145	0.06	240290	keystroke	Key.backspace	n/a
120.295	0.03	240590	keystroke	Key.backspace	n/a
120.5945	0.06	241189	keystroke	Key.backspace	n/a
120.9995	0.09	241999	keystroke	i	n/a
121.2095	0.061	242419	keystroke	n	n/a
121.3445	0.076	242689	keystroke	g	n/a
121.4345	0.0605	242869	keystroke	Key.space	n/a
121.66	0.045	243320	keystroke	p	n/a
121.765	0.135	243530	keystroke	a	n/a
121.87	0.105	243740	keystroke	s	n/a
122.035	0.09	244070	keystroke	s	n/a
122.245	0.075	244490	keystroke	p	n/a
122.275	0.09	244550	keystroke	o	n/a
122.395	0.09	244790	keystroke	r	n/a
122.605	0.09	245210	keystroke	t	n/a
123.3105	0.09	246621	keystroke	Key.enter	n/a
123.405	9.9715	246810	prompt	n/a	grows hungary proof algeria\n
124.33	0.075	248660	keystroke	g	n/a
124.54	0.075	249080	keystroke	r	n/a
124.66	0.0895	249320	keystroke	o	n/a
124.795	0.105	249590	keystroke	w	n/a
125.0355	0.09	250071	keystroke	s	n/a
125.3805	0.09	250761	keystroke	Key.space	n/a
125.8455	0.059	251691	keystroke	h	n/a
125.9945	0.075	251989	keystroke	u	n/a
126.1895	0.105	252379	keystroke	n	n/a
126.3095	0.09	252619	keystroke	g	n/a
126.5345	0.105	253069	keystroke	r	n/a
126.7295	0.03	253459	keystroke	y	n/a
127.3155	0.045	254631	keystroke	Key.backspace	n/a
127.5255	0.045	255051	keystroke	Key.backspace	n/a
127.9605	0.09	255921	keystroke	a	n/a
128.2455	0.045	256491	keystroke	r	n/a
128.455	0.06	256910	keystroke	y	n/a
129.115	0.09	258230	keystroke	Key.space	n/a
129.625	0.075	259250	keystroke	p	n/a
129.745	0.06	259490	keystroke	r	n/a
129.865	0.09	259730	keystroke	o	n/a
130.2705	0.075	260541	keystroke	o	n/a
130.5255	0.075	261051	keystroke	f	n/a
130.9755	0.0895	261951	keystroke	Key.space	n/a
131.38	0.0605	262760	keystroke	a	n/a
131.53	0.075	263060	keystroke	l	n/a
131.9805	0.075	263961	keystroke	g	n/a
132.0855	0.06	264171	keystroke	e	n/a
132.2505	0.09	264501	keystroke	r	n/a
132.3555	0.06	264711	keystroke	i	n/a
132.5205	0.09	265041	keystroke	a	n/a
133.3155	0.06	266631	keystroke	Key.enter	n/a
133.38	10.811	266760	prompt	n/a	plymouth patients nervous infections\n
134.44	0.075	268880	keystroke	p	n/a
134.635	0.075	269270	keystroke	l	n/a
135.01	0.075	270020	keystroke	y	n/a
135.3255	0.075	270651	keystroke	m	n/a
136.6595	0.075	273319	keystroke	o	n/a
136.9595	0.076	273919	keystroke	u	n/a
137.1545	0.0455	274309	keystroke	t	n/a
137.3345	0.075	274669	keystroke	h	n/a
137.6945	0.09	275389	keystroke	Key.space	n/a
138.3395	0.09	276679	keystroke	p	n/a
138.6245	0.105	277249	keystroke	a	n/a
139.1045	0.06	278209	keystroke	t	n/a
139.2095	0.075	278419	keystroke	i	n/a
139.3745	0.09	278749	keystroke	e	n/a
139.5395	0.075	279079	keystroke	n	n/a
139.6445	0.09	279289	keystroke	t	n/a
139.915	0.075	279830	keystroke	s	n/a
140.2	0.075	280400	keystroke	Key.space	n/a
140.545	0.0745	281090	keystroke	n	n/a
140.6945	0.165	281389	keystroke	e	n/a
140.7995	0.105	281599	keystroke	r	n/a
141.0845	0.06	282169	keystroke	v	n/a
141.3245	0.06	282649	keystroke	o	n/a
141.5195	0.06	283039	keystroke	u	n/a
141.67	0.075	283340	keystroke	s	n/a
142.15	0.09	284300	keystroke	Key.space	n/a
142.54	0.09	285080	keystroke	i	n/a
142.78	0.09	285560	keystroke	n	n/a
142.975	0.105	285950	keystroke	f	n/a
143.095	0.12	286190	keystroke	e	n/a
143.23	0.1045	286460	keystroke	c	n/a
143.4545	0.075	286909	keystroke	t	n/a
143.5305	0.104	287061	keystroke	i	n/a
143.5895	0.075	287179	keystroke	o	n/a
143.7555	0.1045	287511	keystroke	n	n/a
143.875	0.09	287750	keystroke	s	n/a
144.115	0.075	288230	keystroke	Key.enter	n/a
144.1935	9.988	288387	prompt	n/a	itself stewart write fight\n
145.2095	0.061	290419	keystroke	i	n/a
145.3455	0.06	290691	keystroke	t	n/a
145.6155	0.1045	291231	keystroke	s	n/a
145.69	0.075	291380	keystroke	e	n/a
145.855	0.0745	291710	keystroke	l	n/a
145.9895	0.075	291979	keystroke	f	n/a
146.3795	0.075	292759	keystroke	Key.space	n/a
146.7545	0.09	293509	keystroke	s	n/a
146.9345	0.15	293869	keystroke	t	n/a
147.1455	0.12	294291	keystroke	e	n/a
147.4605	0.075	294921	keystroke	w	n/a
147.6695	0.165	295339	keystroke	a	n/a
147.8045	0.1055	295609	keystroke	r	n/a
148.015	0.075	296030	keystroke	t	n/a
148.57	0.09	297140	keystroke	Key.space	n/a
148.975	0.105	297950	keystroke	w	n/a
149.14	0.105	298280	keystroke	r	n/a
149.365	0.09	298730	keystroke	i	n/a
149.425	0.165	298850	keystroke	t	n/a
149.56	0.105	299120	keystroke	e	n/a
149.8895	0.0755	299779	keystroke	Key.space	n/a
150.325	0.075	300650	keystroke	f	n/a
150.415	0.0755	300830	keystroke	i	n/a
150.6695	0.075	301339	keystroke	h	n/a
150.8045	0.015	301609	keystroke	t	n/a
151.735	0.09	303470	keystroke	Key.backspace	n/a
151.9	0.09	303800	keystroke	Key.backspace	n/a
152.8	0.06	305600	keystroke	g	n/a
153.46	0.075	306920	keystroke	h	n/a
153.595	0.06	307190	keystroke	t	n/a
154.1055	0.074	308211	keystroke	Key.enter	n/a
154.185	7.886	308370	prompt	n/a	latitude logged robertson flights\n
155.245	0.09	310490	keystroke	l	n/a
155.38	0.09	310760	keystroke	a	n/a
155.665	0.09	311330	keystroke	t	n/a
155.845	0.075	311690	keystroke	i	n/a
156.01	0.06	312020	keystroke	t	n/a
156.1	0.075	312200	keystroke	u	n/a
156.34	0.12	312680	keystroke	d	n/a
156.43	0.09	312860	keystroke	e	n/a
156.6695	0.075	313339	keystroke	Key.space	n/a
156.97	0.075	313940	keystroke	l	n/a
157.12	0.09	314240	keystroke	o	n/a
157.345	0.06	314690	keystroke	g	n/a
157.495	0.12	314990	keystroke	g	n/a
157.66	0.105	315320	keystroke	e	n/a
157.915	0.075	315830	keystroke	d	n/a
158.05	0.105	316100	keystroke	Key.space	n/a
158.56	0.075	317120	keystroke	r	n/a
158.695	0.075	317390	keystroke	o	n/a
158.98	0.075	317960	keystroke	b	n/a
159.055	0.15	318110	keystroke	e	n/a
159.16	0.075	318320	keystroke	r	n/a
159.325	0.09	318650	keystroke	t	n/a
159.64	0.045	319280	keystroke	s	n/a
159.73	0.075	319460	keystroke	o	n/a
159.97	0.075	319940	keystroke	n	n/a
160.18	0.075	320360	keystroke	Key.space	n/a
160.405	0.075	320810	keystroke	f	n/a
160.495	0.12	320990	keystroke	l	n/a
160.585	0.105	321170	keystroke	i	n/a
161.305	0.09	322610	keystroke	g	n/a
161.44	0.09	322880	keystroke	h	n/a
161.56	0.09	323120	keystroke	t	n/a
161.785	0.0905	323570	keystroke	s	n/a
161.9945	0.075	323989	keystroke	Key.enter	n/a
162.074	7.872	324148	prompt	n/a	moving singing contract cameroon\n
162.9555	0.059	325911	keystroke	m	n/a
163.1195	0.075	326239	keystroke	o	n/a
163.5555	0.074	327111	keystroke	v	n/a
163.6445	0.12	327289	keystroke	i	n/a
163.9	0.075	327800	keystroke	n	n/a
164.05	0.075	328100	keystroke	g	n/a
164.44	0.075	328880	keystroke	Key.space	n/a
164.77	0.06	329540	keystroke	s	n/a
164.875	0.075	329750	keystroke	i	n/a
165.085	0.0745	330170	keystroke	n	n/a
165.2195	0.06	330439	keystroke	g	n/a
165.3095	0.09	330619	keystroke	i	n/a
165.3695	0.075	330739	keystroke	n	n/a
165.49	0.06	330980	keystroke	g	n/a
165.8795	0.105	331759	keystroke	Key.space	n/a
166.2095	0.09	332419	keystroke	c	n/a
166.3445	0.09	332689	keystroke	o	n/a
166.3745	0.09	332749	keystroke	n	n/a
166.4655	0.119	332931	keystroke	t	n/a
166.6595	0.136	333319	keystroke	r	n/a
166.8105	0.105	333621	keystroke	a	n/a
167.1855	0.075	334371	keystroke	t	n/a
167.6345	0.061	335269	keystroke	Key.backspace	n/a
167.7245	0.09	335449	keystroke	c	n/a
167.9195	0.075	335839	keystroke	t	n/a
168.2645	0.075	336529	keystroke	Key.space	n/a
168.8195	0.18	337639	keystroke	c	n/a
168.9545	0.105	337909	keystroke	a	n/a
169.1195	0.075	338239	keystroke	m	n/a
169.2545	0.045	338509	keystroke	e	n/a
169.3895	0.09	338779	keystroke	r	n/a
169.4805	0.134	338961	keystroke	o	n/a
169.5845	0.06	339169	keystroke	n	n/a
169.87	0.075	339740	keystroke	Key.enter	n/a
169.949	7.7375	339898	prompt	n/a	dealers posts hunting females\n
170.7105	0.18	341421	keystroke	d	n/a
170.8005	0.225	341601	keystroke	e	n/a
170.9655	0.09	341931	keystroke	a	n/a
171.4605	0.09	342921	keystroke	l	n/a
171.67	0.12	343340	keystroke	e	n/a
171.76	0.09	343520	keystroke	r	n/a
171.955	0.09	343910	keystroke	s	n/a
172.3	0.075	344600	keystroke	Key.space	n/a
172.66	0.135	345320	keystroke	p	n/a
172.735	0.09	345470	keystroke	o	n/a
172.84	0.105	345680	keystroke	s	n/a
172.9	0.105	345800	keystroke	t	n/a
173.14	0.075	346280	keystroke	s	n/a
173.59	0.105	347180	keystroke	Key.space	n/a
174.1	0.06	348200	keystroke	h	n/a
174.235	0.09	348470	keystroke	u	n/a
174.445	0.075	348890	keystroke	n	n/a
174.58	0.09	349160	keystroke	t	n/a
174.715	0.06	349430	keystroke	i	n/a
174.73	0.075	349460	keystroke	n	n/a
174.925	0.06	349850	keystroke	g	n/a
175.39	0.075	350780	keystroke	Key.space	n/a
175.78	0.12	351560	keystroke	f	n/a
175.87	0.105	351740	keystroke	e	n/a
176.08	0.075	352160	keystroke	m	n/a
176.17	0.09	352340	keystroke	a	n/a
176.275	0.075	352550	keystroke	i	n/a
176.605	0.075	353210	keystroke	Key.backspace	n/a
177.145	0.075	354290	keystroke	l	n/a
177.25	0.09	354500	keystroke	e	n/a
177.475	0.075	354950	keystroke	s	n/a
177.595	0.09	355190	keystroke	Key.enter	n/a
177.6915	9.76	355383	prompt	n/a	oregon milwaukee mozilla banking\n
178.6	0.09	357200	keystroke	o	n/a
178.9155	0.075	357831	keystroke	r	n/a
179.2145	0.136	358429	keystroke	g	n/a
179.7245	0.09	359449	keystroke	Key.backspace	n/a
179.8295	0.075	359659	keystroke	e	n/a
180.0545	0.1055	360109	keystroke	g	n/a
180.205	0.09	360410	keystroke	a	n/a
180.385	0.06	360770	keystroke	n	n/a
180.91	0.075	361820	keystroke	Key.space	n/a
181.4955	0.045	362991	keystroke	m	n/a
181.7055	0.075	363411	keystroke	i	n/a
181.9005	0.105	363801	keystroke	l	n/a
182.0805	0.105	364161	keystroke	w	n/a
182.2905	0.1195	364581	keystroke	a	n/a
182.56	0.075	365120	keystroke	u	n/a
182.905	0.075	365810	keystroke	k	n/a
183.58	0.06	367160	keystroke	e	n/a
183.685	0.075	367370	keystroke	e	n/a
183.91	0.075	367820	keystroke	Key.space	n/a
184.315	0.075	368630	keystroke	m	n/a
184.48	0.075	368960	keystroke	o	n/a
184.66	0.105	369320	keystroke	z	n/a
184.78	0.075	369560	keystroke	i	n/a
184.99	0.06	369980	keystroke	l	n/a
185.095	0.09	370190	keystroke	l	n/a
185.29	0.09	370580	keystroke	a	n/a
185.5895	0.075	371179	keystroke	Key.space	n/a
186.07	0.075	372140	keystroke	b	n/a
186.475	0.075	372950	keystroke	a	n/a
186.61	0.075	373220	keystroke	n	n/a
186.82	0.075	373640	keystroke	k	n/a
186.9695	0.15	373939	keystroke	i	n/a
187.0745	0.09	374149	keystroke	n	n/a
187.195	0.0755	374390	keystroke	g	n/a
187.3755	0.0745	374751	keystroke	Key.enter	n/a
187.455	8.186	374910	prompt	n/a	airlines felt plasma concluded\n
188.3345	0.1055	376669	keystroke	a	n/a
188.5	0.06	377000	keystroke	i	n/a
188.71	0.075	377420	keystroke	r	n/a
189.025	0.09	378050	keystroke	l	n/a
189.265	0.135	378530	keystroke	i	n/a
189.37	0.06	378740	keystroke	n	n/a
189.52	0.075	379040	keystroke	e	n/a
189.73	0.09	379460	keystroke	s	n/a
189.9395	0.09	379879	keystroke	Key.space	n/a
190.3895	0.136	380779	keystroke	f	n/a
190.4945	0.105	380989	keystroke	e	n/a
190.5845	0.06	381169	keystroke	l	n/a
190.7645	0.0605	381529	keystroke	t	n/a
191.62	0.075	383240	keystroke	Key.space	n/a
191.9645	0.1355	383929	keystroke	p	n/a
192.0395	0.1055	384079	keystroke	l	n/a
192.175	0.12	384350	keystroke	a	n/a
192.4145	0.105	384829	keystroke	s	n/a
192.6545	0.075	385309	keystroke	m	n/a
192.7595	0.09	385519	keystroke	a	n/a
193.1495	0.09	386299	keystroke	Key.space	n/a
193.5395	0.09	387079	keystroke	c	n/a
193.6745	0.135	387349	keystroke	o	n/a
193.7645	0.075	387529	keystroke	n	n/a
194.3345	0.06	388669	keystroke	c	n/a
194.4845	0.135	388969	keystroke	l	n/a
194.5895	0.075	389179	keystroke	u	n/a
194.8595	0.09	389719	keystroke	d	n/a
195.0695	0.0755	390139	keystroke	e	n/a
195.28	0.09	390560	keystroke	d	n/a
195.5495	0.09	391099	keystroke	Key.enter	n/a
195.644	6.4775	391288	prompt	n/a	camp footage insured holly\n
196.375	0.12	392750	keystroke	c	n/a
196.45	0.09	392900	keystroke	a	n/a
196.51	0.09	393020	keystroke	m	n/a
196.72	0.06	393440	keystroke	p	n/a
197.29	0.09	394580	keystroke	Key.space	n/a
197.68	0.075	395360	keystroke	f	n/a
197.785	0.06	395570	keystroke	o	n/a
197.92	0.09	395840	keystroke	o	n/a
198.04	0.12	396080	keystroke	t	n/a
198.22	0.105	396440	keystroke	a	n/a
198.4	0.09	396800	keystroke	g	n/a
198.58	0.0595	397160	keystroke	e	n/a
198.7895	0.075	397579	keystroke	Key.space	n/a
199.18	0.075	398360	keystroke	i	n/a
199.375	0.075	398750	keystroke	n	n/a
199.48	0.105	398960	keystroke	s	n/a
199.6	0.075	399200	keystroke	u	n/a
199.69	0.149	399380	keystroke	r	n/a
199.81	0.075	399620	keystroke	e	n/a
200.005	0.09	400010	keystroke	d	n/a
200.274	0.09	400548	keystroke	Key.space	n/a
201.085	0.075	402170	keystroke	h	n/a
201.205	0.09	402410	keystroke	o	n/a
201.414	0.076	402828	keystroke	l	n/a
201.535	0.074	403070	keystroke	l	n/a
201.7895	0.0895	403579	keystroke	y	n/a
202.0445	0.075	404089	keystroke	Key.enter	n/a
202.125	8.111	404250	prompt	n/a	earned enlarge gotten neighborhood\n
203.1095	0.12	406219	keystroke	e	n/a
203.3645	0.09	406729	keystroke	a	n/a
203.4095	0.12	406819	keystroke	r	n/a
203.6195	0.06	407239	keystroke	n	n/a
203.7245	0.0745	407449	keystroke	e	n/a
203.935	0.075	407870	keystroke	d	n/a
204.355	0.09	408710	keystroke	Key.space	n/a
204.76	0.0745	409520	keystroke	e	n/a
204.8795	0.075	409759	keystroke	n	n/a
205.0595	0.09	410119	keystroke	l	n/a
205.1945	0.15	410389	keystroke	a	n/a
205.3445	0.09	410689	keystroke	r	n/a
205.554	0.12	411108	keystroke	g	n/a
205.644	0.12	411288	keystroke	e	n/a
205.945	0.0895	411890	keystroke	Key.space	n/a
206.5595	0.075	413119	keystroke	g	n/a
206.6495	0.075	413299	keystroke	o	n/a
206.8145	0.06	413629	keystroke	t	n/a
206.9495	0.1055	413899	keystroke	t	n/a
207.13	0.09	414260	keystroke	e	n/a
207.295	0.075	414590	keystroke	n	n/a
207.58	0.09	415160	keystroke	Key.space	n/a
208.075	0.0745	416150	keystroke	n	n/a
208.1945	0.06	416389	keystroke	e	n/a
208.2995	0.075	416599	keystroke	i	n/a
208.4645	0.06	416929	keystroke	g	n/a
208.5395	0.06	417079	keystroke	h	n/a
208.8395	0.075	417679	keystroke	b	n/a
209.1995	0.075	418399	keystroke	o	n/a
209.3645	0.06	418729	keystroke	r	n/a
209.5745	0.06	419149	keystroke	h	n/a
209.7395	0.06	419479	keystroke	o	n/a
209.8895	0.06	419779	keystroke	o	n/a
209.9945	0.09	419989	keystroke	d	n/a
210.1595	0.075	420319	keystroke	Key.enter	n/a
210.2395	8.4715	420479	prompt	n/a	medicines preferences medication solely\n
211.1195	0.075	422239	keystroke	m	n/a
211.2395	0.075	422479	keystroke	e	n/a
211.4645	0.105	422929	keystroke	d	n/a
211.5845	0.075	423169	keystroke	i	n/a
211.7495	0.075	423499	keystroke	c	n/a
211.8245	0.075	423649	keystroke	i	n/a
212.3495	0.06	424699	keystroke	n	n/a
212.4845	0.075	424969	keystroke	e	n/a
212.7095	0.075	425419	keystroke	s	n/a
212.8895	0.06	425779	keystroke	Key.space	n/a
213.1295	0.06	426259	keystroke	p	n/a
213.2195	0.09	426439	keystroke	r	n/a
213.2795	0.075	426559	keystroke	e	n/a
213.4745	0.165	426949	keystroke	f	n/a
213.5945	0.135	427189	keystroke	e	n/a
214.39	0.105	428780	keystroke	r	n/a
214.465	0.105	428930	keystroke	e	n/a
214.555	0.075	429110	keystroke	n	n/a
214.72	0.105	429440	keystroke	c	n/a
214.78	0.0895	429560	keystroke	e	n/a
215.0045	0.105	430009	keystroke	s	n/a
215.4095	0.09	430819	keystroke	Key.space	n/a
215.68	0.075	431360	keystroke	m	n/a
215.785	0.0895	431570	keystroke	e	n/a
215.9945	0.09	431989	keystroke	d	n/a
216.1145	0.09	432229	keystroke	i	n/a
216.2795	0.105	432559	keystroke	c	n/a
216.3395	0.18	432679	keystroke	a	n/a
216.4895	0.105	432979	keystroke	t	n/a
216.6095	0.09	433219	keystroke	i	n/a
216.6545	0.09	433309	keystroke	o	n/a
216.8195	0.105	433639	keystroke	n	n/a
217.2095	0.06	434419	keystroke	Key.space	n/a
217.4945	0.09	434989	keystroke	s	n/a
217.5995	0.09	435199	keystroke	o	n/a
217.7795	0.09	435559	keystroke	l	n/a
218.0045	0.09	436009	keystroke	e	n/a
218.2595	0.105	436519	keystroke	l	n/a
218.4695	0.075	436939	keystroke	y	n/a
218.6495	0.06	437299	keystroke	Key.enter	n/a
218.714	7.107	437428	prompt	n/a	consent hang debug huntington\n
219.6245	0.09	439249	keystroke	c	n/a
219.7155	0.134	439431	keystroke	o	n/a
219.8045	0.06	439609	keystroke	n	n/a
219.8945	0.15	439789	keystroke	s	n/a
219.9995	0.105	439999	keystroke	e	n/a
220.1495	0.045	440299	keystroke	n	n/a
220.2545	0.09	440509	keystroke	t	n/a
220.959	0.075	441918	keystroke	Key.space	n/a
221.365	0.075	442730	keystroke	h	n/a
221.454	0.076	442908	keystroke	a	n/a
221.605	0.075	443210	keystroke	n	n/a
221.739	0.076	443478	keystroke	g	n/a
222.0695	0.09	444139	keystroke	Key.space	n/a
222.5345	0.105	445069	keystroke	d	n/a
222.6095	0.075	445219	keystroke	e	n/a
222.8795	0.12	445759	keystroke	b	n/a
222.9695	0.075	445939	keystroke	u	n/a
223.0895	0.06	446179	keystroke	g	n/a
223.8245	0.0595	447649	keystroke	Key.space	n/a
224.319	0.075	448638	keystroke	h	n/a
224.469	0.09	448938	keystroke	u	n/a
224.664	0.0755	449328	keystroke	n	n/a
224.7995	0.075	449599	keystroke	t	n/a
224.8895	0.105	449779	keystroke	i	n/a
224.9645	0.06	449929	keystroke	n	n/a
225.0995	0.06	450199	keystroke	g	n/a
225.3395	0.075	450679	keystroke	t	n/a
225.4595	0.0905	450919	keystroke	o	n/a
225.52	0.06	451040	keystroke	n	n/a
225.7445	0.075	451489	keystroke	Key.enter	n/a
225.8235	9.3125	451647	prompt	n/a	chevrolet layers enough corporations\n
226.974	0.105	453948	keystroke	c	n/a
227.064	0.075	454128	keystroke	h	n/a
227.199	0.09	454398	keystroke	e	n/a
227.665	0.09	455330	keystroke	v	n/a
227.8445	0.1205	455689	keystroke	e	n/a
228.2645	0.09	456529	keystroke	Key.backspace	n/a
228.4595	0.105	456919	keystroke	r	n/a
228.5345	0.09	457069	keystroke	e	n/a
228.6995	0.075	457399	keystroke	l	n/a
228.8495	0.09	457699	keystroke	o	n/a
228.9995	0.075	457999	keystroke	t	n/a
229.5095	0.09	459019	keystroke	Key.space	n/a
229.8095	0.0905	459619	keystroke	l	n/a
229.915	0.09	459830	keystroke	a	n/a
230.065	0.075	460130	keystroke	y	n/a
230.185	0.12	460370	keystroke	e	n/a
230.26	0.105	460520	keystroke	r	n/a
230.485	0.06	460970	keystroke	s	n/a
230.7245	0.075	461449	keystroke	Key.space	n/a
230.9645	0.06	461929	keystroke	e	n/a
231.0695	0.105	462139	keystroke	n	n/a
231.2645	0.135	462529	keystroke	o	n/a
231.3545	0.09	462709	keystroke	u	n/a
231.4895	0.075	462979	keystroke	g	n/a
231.5945	0.09	463189	keystroke	h	n/a
232.06	0.105	464120	keystroke	Key.space	n/a
232.645	0.06	465290	keystroke	c	n/a
232.72	0.06	465440	keystroke	o	n/a
233.2	0.06	466400	keystroke	r	n/a
233.4845	0.075	466969	keystroke	p	n/a
233.6645	0.09	467329	keystroke	o	n/a
233.8745	0.12	467749	keystroke	r	n/a
234.1745	0.135	468349	keystroke	a	n/a
234.3845	0.075	468769	keystroke	t	n/a
234.5195	0.105	469039	keystroke	i	n/a
234.5795	0.09	469159	keystroke	o	n/a
234.7295	0.105	469459	keystroke	n	n/a
234.8795	0.09	469759	keystroke	s	n/a
235.0595	0.075	470119	keystroke	Key.enter	n/a
235.139	7.227	470278	prompt	n/a	fibre cite seven increasing\n
236.47	0.1195	472940	keystroke	f	n/a
236.9195	0.09	473839	keystroke	i	n/a
237.2045	0.075	474409	keystroke	b	n/a
237.4	0.165	474800	keystroke	r	n/a
237.52	0.105	475040	keystroke	e	n/a
237.895	0.075	475790	keystroke	Key.space	n/a
238.39	0.075	476780	keystroke	c	n/a
238.51	0.075	477020	keystroke	i	n/a
238.615	0.15	477230	keystroke	t	n/a
238.735	0.105	477470	keystroke	e	n/a
239.02	0.09	478040	keystroke	Key.space	n/a
239.29	0.105	478580	keystroke	s	n/a
239.35	0.105	478700	keystroke	e	n/a
239.68	0.09	479360	keystroke	v	n/a
239.725	0.12	479450	keystroke	e	n/a
239.92	0.06	479840	keystroke	n	n/a
240.324	0.076	480648	keystroke	Key.space	n/a
240.76	0.09	481520	keystroke	i	n/a
240.82	0.09	481640	keystroke	n	n/a
241.045	0.09	482090	keystroke	c	n/a
241.24	0.15	482480	keystroke	r	n/a
241.315	0.12	482630	keystroke	e	n/a
241.405	0.12	482810	keystroke	a	n/a
241.645	0.09	483290	keystroke	s	n/a
241.75	0.1045	483500	keystroke	i	n/a
241.81	0.075	483620	keystroke	n	n/a
241.975	0.045	483950	keystroke	g	n/a
242.29	0.075	484580	keystroke	Key.enter	n/a
242.3695	7.4965	484739	prompt	n/a	make mice leon plans\n
243.28	0.045	486560	keystroke	m	n/a
243.34	0.09	486680	keystroke	a	n/a
243.46	0.06	486920	keystroke	k	n/a
243.55	0.075	487100	keystroke	e	n/a
243.969	0.09	487938	keystroke	Key.space	n/a
244.2995	0.12	488599	keystroke	m	n/a
244.3895	0.075	488779	keystroke	i	n/a
244.5995	0.12	489199	keystroke	c	n/a
244.6745	0.09	489349	keystroke	e	n/a
244.9295	0.09	489859	keystroke	Key.space	n/a
245.2895	0.0755	490579	keystroke	l	n/a
245.44	0.015	490880	keystroke	e	n/a
245.8295	0.0755	491659	keystroke	o	n/a
246.055	0.075	492110	keystroke	n	n/a
246.325	0.075	492650	keystroke	Key.space	n/a
246.52	0.09	493040	keystroke	o	n/a
246.565	0.045	493130	keystroke	p	n/a
246.595	0.075	493190	keystroke	l	n/a
246.685	0.09	493370	keystroke	a	n/a
246.85	0.075	493700	keystroke	n	n/a
246.985	0.0745	493970	keystroke	s	n/a
247.8395	0.0605	495679	keystroke	Key.backspace	n/a
247.96	0.06	495920	keystroke	Key.backspace	n/a
248.08	0.045	496160	keystroke	Key.backspace	n/a
248.2	0.045	496400	keystroke	Key.backspace	n/a
248.3195	0.03	496639	keystroke	Key.backspace	n/a
248.4545	0.045	496909	keystroke	Key.backspace	n/a
249.0395	0.06	498079	keystroke	p	n/a
249.2045	0.075	498409	keystroke	l	n/a
249.3395	0.075	498679	keystroke	a	n/a
249.5195	0.09	499039	keystroke	n	n/a
249.6395	0.06	499279	keystroke	s	n/a
249.7895	0.075	499579	keystroke	Key.enter	n/a
249.8695	8.1715	499739	prompt	n/a	relay gzip fairy football\n
251.245	0.135	502490	keystroke	r	n/a
251.335	0.09	502670	keystroke	e	n/a
251.47	0.075	502940	keystroke	l	n/a
251.62	0.09	503240	keystroke	a	n/a
251.755	0.075	503510	keystroke	y	n/a
252.175	0.06	504350	keystroke	Key.space	n/a
253.3445	0.06	506689	keystroke	g	n/a
253.8395	0.075	507679	keystroke	z	n/a
254.0945	0.045	508189	keystroke	i	n/a
254.3195	0.06	508639	keystroke	p	n/a
254.8745	0.09	509749	keystroke	Key.space	n/a
255.3395	0.135	510679	keystroke	f	n/a
255.4295	0.09	510859	keystroke	a	n/a
255.5345	0.075	511069	keystroke	i	n/a
255.6545	0.075	511309	keystroke	r	n/a
255.864	0.076	511728	keystroke	y	n/a
256.284	0.09	512568	keystroke	Key.space	n/a
256.675	0.075	513350	keystroke	f	n/a
256.795	0.045	513590	keystroke	o	n/a
256.9	0.09	513800	keystroke	o	n/a
256.975	0.0895	513950	keystroke	t	n/a
257.2145	0.09	514429	keystroke	b	n/a
257.3195	0.09	514639	keystroke	a	n/a
257.4695	0.045	514939	keystroke	l	n/a
257.5895	0.075	515179	keystroke	l	n/a
257.9495	0.09	515899	keystroke	Key.enter	n/a
258.046	6.31	516092	prompt	n/a	cape meeting memo virginia\n
258.94	0.12	517880	keystroke	c	n/a
259.015	0.075	518030	keystroke	a	n/a
259.12	0.0595	518240	keystroke	p	n/a
259.2545	0.075	518509	keystroke	e	n/a
259.4045	0.09	518809	keystroke	Key.space	n/a
259.5695	0.075	519139	keystroke	m	n/a
259.6455	0.089	519291	keystroke	e	n/a
259.8395	0.15	519679	keystroke	e	n/a
259.9445	0.135	519889	keystroke	t	n/a
260.0045	0.09	520009	keystroke	i	n/a
260.0645	0.075	520129	keystroke	n	n/a
260.2295	0.09	520459	keystroke	g	n/a
260.8745	0.075	521749	keystroke	Key.space	n/a
261.325	0.09	522650	keystroke	m	n/a
261.505	0.075	523010	keystroke	e	n/a
261.565	0.15	523130	keystroke	m	n/a
261.67	0.1045	523340	keystroke	o	n/a
262.15	0.09	524300	keystroke	Key.space	n/a
263.095	0.075	526190	keystroke	v	n/a
263.215	0.09	526430	keystroke	i	n/a
263.38	0.045	526760	keystroke	r	n/a
263.65	0.045	527300	keystroke	g	n/a
263.695	0.075	527390	keystroke	i	n/a
263.9195	0.1195	527839	keystroke	n	n/a
263.9945	0.105	527989	keystroke	i	n/a
264.1445	0.105	528289	keystroke	a	n/a
264.2945	0.06	528589	keystroke	Key.enter	n/a
264.3595	7.0165	528719	prompt	n/a	ribbon identify someone tablets\n
265.39	0.06	530780	keystroke	r	n/a
265.4645	0.075	530929	keystroke	i	n/a
265.7495	0.0755	531499	keystroke	b	n/a
265.9	0.06	531800	keystroke	b	n/a
266.0195	0.12	532039	keystroke	o	n/a
266.0945	0.06	532189	keystroke	n	n/a
266.3945	0.075	532789	keystroke	Key.space	n/a
266.6795	0.075	533359	keystroke	i	n/a
266.875	0.105	533750	keystroke	d	n/a
266.95	0.105	533900	keystroke	e	n/a
267.085	0.075	534170	keystroke	n	n/a
267.715	0.075	535430	keystroke	t	n/a
267.8045	0.09	535609	keystroke	i	n/a
267.9695	0.06	535939	keystroke	f	n/a
268.0745	0.06	536149	keystroke	y	n/a
268.555	0.09	537110	keystroke	Key.space	n/a
268.975	0.09	537950	keystroke	s	n/a
269.08	0.15	538160	keystroke	o	n/a
269.2	0.075	538400	keystroke	m	n/a
269.305	0.06	538610	keystroke	e	n/a
269.41	0.105	538820	keystroke	o	n/a
269.47	0.075	538940	keystroke	n	n/a
269.62	0.075	539240	keystroke	e	n/a
270.144	0.105	540288	keystroke	Key.space	n/a
270.43	0.12	540860	keystroke	t	n/a
270.52	0.09	541040	keystroke	a	n/a
270.655	0.075	541310	keystroke	b	n/a
270.835	0.09	541670	keystroke	l	n/a
270.94	0.105	541880	keystroke	e	n/a
271	0.09	542000	keystroke	t	n/a
271.18	0.105	542360	keystroke	s	n/a
271.3	0.075	542600	keystroke	Key.enter	n/a
271.3795	9.6865	542759	prompt	n/a	wednesday neutral frequent atomic\n
272.4095	0.135	544819	keystroke	w	n/a
272.4845	0.105	544969	keystroke	e	n/a
272.9645	0.09	545929	keystroke	d	n/a
273.1895	0.075	546379	keystroke	n	n/a
273.3095	0.09	546619	keystroke	e	n/a
273.5195	0.18	547039	keystroke	s	n/a
273.894	0.18	547788	keystroke	d	n/a
274.03	0.089	548060	keystroke	a	n/a
274.1645	0.06	548329	keystroke	y	n/a
274.4945	0.075	548989	keystroke	Key.space	n/a
275.0045	0.075	550009	keystroke	n	n/a
275.1395	0.09	550279	keystroke	e	n/a
275.3195	0.015	550639	keystroke	i	n/a
275.7845	0.09	551569	keystroke	Key.backspace	n/a
276.189	0.075	552378	keystroke	u	n/a
276.504	0.105	553008	keystroke	t	n/a
276.73	0.074	553460	keystroke	r	n/a
276.9545	0.075	553909	keystroke	a	n/a
277.0745	0.075	554149	keystroke	l	n/a
277.5845	0.075	555169	keystroke	Key.space	n/a
278.0195	0.1045	556039	keystroke	f	n/a
278.229	0.1205	556458	keystroke	r	n/a
278.3045	0.09	556609	keystroke	e	n/a
278.62	0.135	557240	keystroke	q	n/a
278.8	0.075	557600	keystroke	u	n/a
278.89	0.105	557780	keystroke	e	n/a
279.1	0.06	558200	keystroke	n	n/a
279.22	0.075	558440	keystroke	t	n/a
279.7745	0.075	559549	keystroke	Key.space	n/a
280.045	0.075	560090	keystroke	a	n/a
280.24	0.075	560480	keystroke	t	n/a
280.33	0.075	560660	keystroke	o	n/a
280.495	0.075	560990	keystroke	m	n/a
280.63	0.075	561260	keystroke	i	n/a
280.825	0.105	561650	keystroke	c	n/a
280.99	0.075	561980	keystroke	Key.enter	n/a
281.0685	8.6375	562137	prompt	n/a	apparatus comparison seen whose\n
281.9795	0.075	563959	keystroke	a	n/a
282.1445	0.06	564289	keystroke	p	n/a
282.2645	0.075	564529	keystroke	p	n/a
282.3695	0.105	564739	keystroke	a	n/a
282.6095	0.075	565219	keystroke	r	n/a
282.9995	0.075	565999	keystroke	a	n/a
283.2395	0.06	566479	keystroke	t	n/a
283.3595	0.075	566719	keystroke	u	n/a
283.5995	0.075	567199	keystroke	s	n/a
284.035	0.09	568070	keystroke	Key.space	n/a
284.3645	0.105	568729	keystroke	c	n/a
284.455	0.0745	568910	keystroke	o	n/a
284.6345	0.075	569269	keystroke	m	n/a
284.8295	0.075	569659	keystroke	p	n/a
284.9195	0.09	569839	keystroke	a	n/a
285.1295	0.06	570259	keystroke	r	n/a
285.2195	0.075	570439	keystroke	i	n/a
285.3845	0.09	570769	keystroke	s	n/a
285.49	0.1495	570980	keystroke	o	n/a
285.6095	0.015	571219	keystroke	n	n/a
286.48	0.09	572960	keystroke	Key.space	n/a
286.645	0.165	573290	keystroke	s	n/a
286.78	0.105	573560	keystroke	e	n/a
286.975	0.09	573950	keystroke	e	n/a
287.17	0.06	574340	keystroke	n	n/a
287.41	0.09	574820	keystroke	Key.space	n/a
287.695	0.06	575390	keystroke	w	n/a
287.7995	0.075	575599	keystroke	h	n/a
287.98	0.0895	575960	keystroke	o	n/a
288.1295	0.03	576259	keystroke	e	n/a
288.7445	0.12	577489	keystroke	e	n/a
289.0295	0.06	578059	keystroke	Key.backspace	n/a
289.1645	0.09	578329	keystroke	Key.backspace	n/a
289.2695	0.1205	578539	keystroke	s	n/a
289.3445	0.09	578689	keystroke	e	n/a
289.63	0.075	579260	keystroke	Key.enter	n/a
289.71	6.266	579420	prompt	n/a	checked alive centuries dean\n
290.4995	0.12	580999	keystroke	c	n/a
290.6195	0.075	581239	keystroke	h	n/a
290.7095	0.105	581419	keystroke	e	n/a
290.7695	0.1205	581539	keystroke	c	n/a
290.904	0.09	581808	keystroke	k	n/a
291.009	0.06	582018	keystroke	e	n/a
291.219	0.09	582438	keystroke	d	n/a
291.5645	0.075	583129	keystroke	Key.space	n/a
291.7595	0.075	583519	keystroke	a	n/a
291.8645	0.1495	583729	keystroke	l	n/a
291.954	0.09	583908	keystroke	i	n/a
292.149	0.135	584298	keystroke	v	n/a
292.239	0.106	584478	keystroke	e	n/a
292.659	0.075	585318	keystroke	Key.space	n/a
293.034	0.12	586068	keystroke	c	n/a
293.124	0.105	586248	keystroke	e	n/a
293.214	0.09	586428	keystroke	n	n/a
293.454	0.09	586908	keystroke	t	n/a
293.574	0.091	587148	keystroke	u	n/a
293.875	0.0745	587750	keystroke	r	n/a
293.995	0.06	587990	keystroke	i	n/a
294.115	0.09	588230	keystroke	e	n/a
294.355	0.09	588710	keystroke	s	n/a
294.834	0.091	589668	keystroke	Key.space	n/a
295.0745	0.195	590149	keystroke	d	n/a
295.1945	0.165	590389	keystroke	e	n/a
295.4045	0.075	590809	keystroke	a	n/a
295.6745	0.09	591349	keystroke	n	n/a
295.914	0.0605	591828	keystroke	Key.enter	n/a
295.9785	7.1525	591957	prompt	n/a	american quest fame herbal\n
296.6495	0.075	593299	keystroke	a	n/a
296.8595	0.075	593719	keystroke	m	n/a
297.0395	0.09	594079	keystroke	e	n/a
297.2345	0.06	594469	keystroke	i	n/a
297.669	0.091	595338	keystroke	Key.backspace	n/a
297.775	0.104	595550	keystroke	r	n/a
297.909	0.09	595818	keystroke	i	n/a
298.029	0.135	596058	keystroke	c	n/a
298.119	0.09	596238	keystroke	a	n/a
298.269	0.075	596538	keystroke	n	n/a
298.779	0.015	597558	keystroke	Key.space	n/a
299.079	0.09	598158	keystroke	q	n/a
299.319	0.09	598638	keystroke	u	n/a
299.439	0.12	598878	keystroke	e	n/a
299.529	0.165	599058	keystroke	s	n/a
299.664	0.09	599328	keystroke	t	n/a
300.159	0.075	600318	keystroke	Key.space	n/a
300.534	0.1355	601068	keystroke	f	n/a
300.6395	0.075	601279	keystroke	a	n/a
300.7445	0.06	601489	keystroke	m	n/a
300.8795	0.06	601759	keystroke	e	n/a
301.1795	0.075	602359	keystroke	Key.space	n/a
302.125	0.09	604250	keystroke	h	n/a
302.23	0.15	604460	keystroke	e	n/a
302.32	0.105	604640	keystroke	r	n/a
302.545	0.075	605090	keystroke	b	n/a
302.68	0.105	605360	keystroke	a	n/a
302.8	0.075	605600	keystroke	l	n/a
303.055	0.075	606110	keystroke	Key.enter	n/a
303.1345	9.852	606269	prompt	n/a	brussels phones accomplish cleaning\n
304.0595	0.075	608119	keystroke	b	n/a
304.1795	0.09	608359	keystroke	r	n/a
304.2845	0.075	608569	keystroke	u	n/a
304.4495	0.075	608899	keystroke	s	n/a
304.5995	0.135	609199	keystroke	s	n/a
304.7945	0.09	609589	keystroke	e	n/a
305.0045	0.06	610009	keystroke	l	n/a
305.1695	0.075	610339	keystroke	l	n/a
305.5745	0.075	611149	keystroke	s	n/a
305.889	0.061	611778	keystroke	Key.backspace	n/a
306.01	0.075	612020	keystroke	Key.backspace	n/a
306.205	0.075	612410	keystroke	s	n/a
306.745	0.075	613490	keystroke	Key.space	n/a
307.015	0.06	614030	keystroke	p	n/a
307.27	0.105	614540	keystroke	h	n/a
307.36	0.18	614720	keystroke	o	n/a
307.69	0.075	615380	keystroke	e	n/a
308.4545	0.075	616909	keystroke	Key.backspace	n/a
308.7095	0.06	617419	keystroke	n	n/a
308.7995	0.075	617599	keystroke	e	n/a
309.0245	0.09	618049	keystroke	s	n/a
309.2045	0.09	618409	keystroke	Key.space	n/a
309.4595	0.075	618919	keystroke	a	n/a
309.6845	0.09	619369	keystroke	c	n/a
309.8945	0.045	619789	keystroke	c	n/a
309.9545	0.06	619909	keystroke	o	n/a
310.1195	0.075	620239	keystroke	m	n/a
310.2695	0.15	620539	keystroke	p	n/a
310.3595	0.075	620719	keystroke	l	n/a
310.5545	0.0895	621109	keystroke	i	n/a
310.6745	0.075	621349	keystroke	s	n/a
310.824	0.075	621648	keystroke	h	n/a
311.245	0.0895	622490	keystroke	Key.space	n/a
311.4695	0.09	622939	keystroke	c	n/a
311.5745	0.0755	623149	keystroke	l	n/a
311.68	0.12	623360	keystroke	e	n/a
311.7695	0.0905	623539	keystroke	a	n/a
311.8745	0.12	623749	keystroke	n	n/a
311.9645	0.12	623929	keystroke	i	n/a
312.0095	0.12	624019	keystroke	n	n/a
312.1745	0.075	624349	keystroke	g	n/a
312.9095	0.075	625819	keystroke	Key.enter	n/a
312.9895	8.2165	625979	prompt	n/a	xhtml governor moment ment\n
313.8095	0.105	627619	keystroke	e	n/a
314.2745	0.075	628549	keystroke	Key.backspace	n/a
314.455	0.09	628910	keystroke	x	n/a
314.665	0.075	629330	keystroke	h	n/a
314.83	0.09	629660	keystroke	t	n/a
314.935	0.1495	629870	keystroke	m	n/a
315.025	0.1045	630050	keystroke	l	n/a
315.3545	0.075	630709	keystroke	Key.space	n/a
315.8345	0.09	631669	keystroke	g	n/a
315.9545	0.075	631909	keystroke	o	n/a
316.2695	0.075	632539	keystroke	b	n/a
316.6	0.075	633200	keystroke	Key.backspace	n/a
316.72	0.105	633440	keystroke	v	n/a
316.84	0.135	633680	keystroke	e	n/a
316.93	0.09	633860	keystroke	r	n/a
317.065	0.06	634130	keystroke	n	n/a
317.29	0.075	634580	keystroke	o	n/a
317.425	0.06	634850	keystroke	r	n/a
317.934	0.0755	635868	keystroke	Key.space	n/a
318.549	0.0755	637098	keystroke	o	n/a
318.9095	0.06	637819	keystroke	Key.backspace	n/a
319.1495	0.09	638299	keystroke	m	n/a
319.2405	0.074	638481	keystroke	o	n/a
319.4795	0.06	638959	keystroke	m	n/a
319.5845	0.06	639169	keystroke	e	n/a
319.7045	0.0755	639409	keystroke	n	n/a
319.81	0.0745	639620	keystroke	t	n/a
320.1995	0.075	640399	keystroke	Key.space	n/a
320.5745	0.075	641149	keystroke	m	n/a
320.6645	0.09	641329	keystroke	e	n/a
320.8	0.075	641600	keystroke	n	n/a
320.89	0.075	641780	keystroke	t	n/a
321.13	0.074	642260	keystroke	Key.enter	n/a
321.2085	8.9525	642417	prompt	n/a	checklist bars clocks cheapest\n
322.059	0.106	644118	keystroke	c	n/a
322.105	0.09	644210	keystroke	h	n/a
322.21	0.104	644420	keystroke	e	n/a
322.254	0.121	644508	keystroke	c	n/a
322.33	0.059	644660	keystroke	k	n/a
322.57	0.134	645140	keystroke	l	n/a
322.645	0.105	645290	keystroke	i	n/a
322.81	0.15	645620	keystroke	s	n/a
322.915	0.09	645830	keystroke	t	n/a
323.275	0.09	646550	keystroke	Key.space	n/a
323.769	0.0905	647538	keystroke	b	n/a
323.8295	0.15	647659	keystroke	a	n/a
323.9345	0.12	647869	keystroke	r	n/a
324.2195	0.0905	648439	keystroke	s	n/a
325.3895	0.09	650779	keystroke	Key.space	n/a
325.975	0.09	651950	keystroke	c	n/a
326.23	0.06	652460	keystroke	l	n/a
326.365	0.09	652730	keystroke	o	n/a
326.515	0.075	653030	keystroke	c	n/a
326.62	0.09	653240	keystroke	k	n/a
326.755	0.075	653510	keystroke	s	n/a
327.114	0.105	654228	keystroke	Key.space	n/a
327.6695	0.1505	655339	keystroke	c	n/a
327.82	0.09	655640	keystroke	h	n/a
327.984	0.09	655968	keystroke	e	n/a
328.195	0.045	656390	keystroke	p	n/a
328.749	0.075	657498	keystroke	Key.backspace	n/a
328.869	0.09	657738	keystroke	a	n/a
329.019	0.09	658038	keystroke	p	n/a
329.139	0.105	658278	keystroke	e	n/a
329.394	0.15	658788	keystroke	s	n/a
329.499	0.075	658998	keystroke	t	n/a
330.0995	0.06	660199	keystroke	Key.enter	n/a
330.1655	10.0005	660331	prompt	n/a	protein mpegs exhibition outstanding\n
331.2245	0.09	662449	keystroke	p	n/a
331.3445	0.09	662689	keystroke	r	n/a
331.4495	0.075	662899	keystroke	o	n/a
331.675	0.165	663350	keystroke	t	n/a
331.795	0.105	663590	keystroke	e	n/a
331.915	0.075	663830	keystroke	i	n/a
332.2	0.06	664400	keystroke	n	n/a
332.814	0.09	665628	keystroke	Key.space	n/a
333.714	0.075	667428	keystroke	m	n/a
333.8945	0.09	667789	keystroke	p	n/a
334.0895	0.1205	668179	keystroke	e	n/a
334.3145	0.09	668629	keystroke	g	n/a
334.5395	0.09	669079	keystroke	s	n/a
334.9	0.105	669800	keystroke	Key.space	n/a
335.2	0.06	670400	keystroke	e	n/a
335.485	0.0745	670970	keystroke	x	n/a
335.6945	0.06	671389	keystroke	h	n/a
335.8445	0.075	671689	keystroke	i	n/a
336.1445	0.075	672289	keystroke	b	n/a
336.2945	0.09	672589	keystroke	i	n/a
336.4745	0.09	672949	keystroke	t	n/a
336.6095	0.105	673219	keystroke	i	n/a
336.6695	0.09	673339	keystroke	o	n/a
336.8945	0.06	673789	keystroke	n	n/a
337.2395	0.09	674479	keystroke	Key.space	n/a
337.7345	0.105	675469	keystroke	o	n/a
338.1695	0.06	676339	keystroke	u	n/a
338.3345	0.045	676669	keystroke	t	n/a
338.6945	0.165	677389	keystroke	s	n/a
338.9195	0.195	677839	keystroke	t	n/a
339.0995	0.105	678199	keystroke	a	n/a
339.2945	0.06	678589	keystroke	n	n/a
339.4595	0.09	678919	keystroke	d	n/a
339.655	0.09	679310	keystroke	i	n/a
339.7	0.09	679400	keystroke	n	n/a
339.894	0.076	679788	keystroke	g	n/a
340.089	0.075	680178	keystroke	Key.enter	n/a
340.17	7.556	680340	prompt	n/a	defects gotta scsi camcorders\n
341.004	0.18	682008	keystroke	d	n/a
341.14	0.149	682280	keystroke	e	n/a
341.335	0.164	682670	keystroke	f	n/a
341.425	0.179	682850	keystroke	e	n/a
341.634	0.12	683268	keystroke	c	n/a
341.844	0.091	683688	keystroke	t	n/a
342.085	0.09	684170	keystroke	s	n/a
342.3995	0.09	684799	keystroke	Key.space	n/a
342.9695	0.075	685939	keystroke	g	n/a
343.0745	0.06	686149	keystroke	o	n/a
343.2095	0.075	686419	keystroke	t	n/a
343.3745	0.135	686749	keystroke	t	n/a
343.6295	0.09	687259	keystroke	a	n/a
343.8095	0.105	687619	keystroke	Key.space	n/a
344.0195	0.165	688039	keystroke	s	n/a
344.1695	0.09	688339	keystroke	c	n/a
344.7245	0.09	689449	keystroke	s	n/a
344.8895	0.075	689779	keystroke	i	n/a
345.609	0.0905	691218	keystroke	Key.space	n/a
345.849	0.1205	691698	keystroke	c	n/a
345.9095	0.105	691819	keystroke	a	n/a
346.0155	0.074	692031	keystroke	m	n/a
346.554	0.106	693108	keystroke	c	n/a
346.689	0.06	693378	keystroke	o	n/a
346.794	0.075	693588	keystroke	r	n/a
347.034	0.135	694068	keystroke	d	n/a
347.139	0.15	694278	keystroke	e	n/a
347.214	0.121	694428	keystroke	r	n/a
347.41	0.105	694820	keystroke	s	n/a
347.649	0.076	695298	keystroke	Key.enter	n/a
347.7305	6.6855	695461	prompt	n/a	frozen visa rogers mode\n
348.595	0.09	697190	keystroke	f	n/a
348.82	0.06	697640	keystroke	r	n/a
348.925	0.075	697850	keystroke	o	n/a
349.48	0.135	698960	keystroke	z	n/a
349.585	0.105	699170	keystroke	e	n/a
349.75	0.06	699500	keystroke	n	n/a
350.2145	0.075	700429	keystroke	Key.space	n/a
350.7095	0.09	701419	keystroke	v	n/a
350.8145	0.075	701629	keystroke	i	n/a
350.95	0.135	701900	keystroke	s	n/a
351.13	0.105	702260	keystroke	a	n/a
351.579	0.09	703158	keystroke	Key.space	n/a
352.104	0.1065	704208	keystroke	r	n/a
352.3595	0.075	704719	keystroke	o	n/a
352.6895	0.105	705379	keystroke	g	n/a
352.8395	0.135	705679	keystroke	e	n/a
352.9145	0.105	705829	keystroke	r	n/a
353.1395	0.09	706279	keystroke	s	n/a
353.5295	0.09	707059	keystroke	Key.space	n/a
353.845	0.1195	707690	keystroke	m	n/a
353.9195	0.105	707839	keystroke	o	n/a
354.0395	0.165	708079	keystroke	d	n/a
354.1445	0.12	708289	keystroke	e	n/a
354.3395	0.075	708679	keystroke	Key.enter	n/a
354.42	7.301	708840	prompt	n/a	fitness boot everything democratic\n
355.615	0.075	711230	keystroke	f	n/a
355.705	0.09	711410	keystroke	i	n/a
355.8095	0.075	711619	keystroke	t	n/a
355.9895	0.075	711979	keystroke	n	n/a
356.0795	0.09	712159	keystroke	e	n/a
356.3345	0.075	712669	keystroke	s	n/a
356.5895	0.015	713179	keystroke	s	n/a
356.6495	0.09	713299	keystroke	Key.space	n/a
356.8895	0.09	713779	keystroke	b	n/a
357.0995	0.045	714199	keystroke	o	n/a
357.2195	0.105	714439	keystroke	o	n/a
357.4295	0.045	714859	keystroke	t	n/a
357.669	0.075	715338	keystroke	Key.space	n/a
357.8195	0.1055	715639	keystroke	e	n/a
358.0745	0.075	716149	keystroke	v	n/a
358.1645	0.15	716329	keystroke	e	n/a
358.2545	0.105	716509	keystroke	r	n/a
358.555	0.0745	717110	keystroke	y	n/a
358.7945	0.09	717589	keystroke	t	n/a
358.8545	0.165	717709	keystroke	h	n/a
358.9295	0.15	717859	keystroke	i	n/a
359.05	0.09	718100	keystroke	n	n/a
359.1845	0.0755	718369	keystroke	g	n/a
359.8745	0.09	719749	keystroke	Key.space	n/a
360.1295	0.165	720259	keystroke	d	n/a
360.2345	0.12	720469	keystroke	e	n/a
360.4145	0.105	720829	keystroke	m	n/a
360.4895	0.075	720979	keystroke	o	n/a
360.7145	0.09	721429	keystroke	c	n/a
360.8945	0.12	721789	keystroke	r	n/a
360.9995	0.09	721999	keystroke	a	n/a
361.1495	0.105	722299	keystroke	t	n/a
361.2845	0.09	722569	keystroke	i	n/a
361.4195	0.105	722839	keystroke	c	n/a
361.6595	0.06	723319	keystroke	Key.enter	n/a
361.724	7.797	723448	prompt	n/a	decreased directory cent galleries\n
362.4995	0.1805	724999	keystroke	d	n/a
362.6195	0.1055	725239	keystroke	e	n/a
362.8	0.1195	725600	keystroke	c	n/a
363.0095	0.135	726019	keystroke	r	n/a
363.0845	0.105	726169	keystroke	e	n/a
363.3995	0.09	726799	keystroke	a	n/a
363.415	0.1495	726830	keystroke	s	n/a
363.52	0.0895	727040	keystroke	e	n/a
363.7445	0.075	727489	keystroke	s	n/a
364.374	0.06	728748	keystroke	Key.backspace	n/a
364.464	0.09	728928	keystroke	d	n/a
364.734	0.075	729468	keystroke	Key.space	n/a
364.944	0.0905	729888	keystroke	d	n/a
365.0495	0.09	730099	keystroke	i	n/a
365.169	0.15	730338	keystroke	r	n/a
365.289	0.105	730578	keystroke	e	n/a
365.4545	0.0895	730909	keystroke	c	n/a
365.649	0.0605	731298	keystroke	t	n/a
365.739	0.075	731478	keystroke	o	n/a
365.859	0.045	731718	keystroke	r	n/a
365.994	0.0605	731988	keystroke	y	n/a
366.4595	0.075	732919	keystroke	Key.space	n/a
366.7145	0.1345	733429	keystroke	c	n/a
366.8045	0.0595	733609	keystroke	e	n/a
366.954	0.061	733908	keystroke	n	n/a
367.074	0.075	734148	keystroke	t	n/a
367.599	0.075	735198	keystroke	Key.space	n/a
368.0645	0.09	736129	keystroke	g	n/a
368.1695	0.0905	736339	keystroke	a	n/a
368.32	0.06	736640	keystroke	l	n/a
368.455	0.09	736910	keystroke	l	n/a
368.53	0.12	737060	keystroke	e	n/a
368.62	0.09	737240	keystroke	r	n/a
368.845	0.09	737690	keystroke	r	n/a
368.965	0.09	737930	keystroke	i	n/a
369.085	0.09	738170	keystroke	e	n/a
369.2945	0.09	738589	keystroke	s	n/a
369.4295	0.09	738859	keystroke	Key.enter	n/a
369.5255	7.2555	739051	prompt	n/a	legally goat seeker machinery\n
370.3295	0.0755	740659	keystroke	l	n/a
370.4645	0.12	740929	keystroke	e	n/a
370.6145	0.12	741229	keystroke	g	n/a
370.7495	0.105	741499	keystroke	a	n/a
370.8845	0.06	741769	keystroke	l	n/a
371.0045	0.075	742009	keystroke	l	n/a
371.1245	0.06	742249	keystroke	y	n/a
371.8145	0.075	743629	keystroke	Key.space	n/a
372.2495	0.0905	744499	keystroke	g	n/a
372.43	0.045	744860	keystroke	o	n/a
372.46	0.075	744920	keystroke	a	n/a
373.1345	0.06	746269	keystroke	t	n/a
373.5245	0.09	747049	keystroke	Key.space	n/a
373.7795	0.15	747559	keystroke	s	n/a
373.8995	0.105	747799	keystroke	e	n/a
374.0795	0.105	748159	keystroke	e	n/a
374.2145	0.09	748429	keystroke	k	n/a
374.3795	0.105	748759	keystroke	e	n/a
374.4395	0.09	748879	keystroke	r	n/a
374.6645	0.075	749329	keystroke	Key.space	n/a
374.9495	0.075	749899	keystroke	m	n/a
375.0395	0.09	750079	keystroke	a	n/a
375.235	0.12	750470	keystroke	c	n/a
375.355	0.075	750710	keystroke	h	n/a
375.535	0.075	751070	keystroke	i	n/a
375.82	0.0895	751640	keystroke	n	n/a
375.9995	0.105	751999	keystroke	e	n/a
376.1345	0.12	752269	keystroke	r	n/a
376.4195	0.075	752839	keystroke	y	n/a
376.7045	0.075	753409	keystroke	Key.enter	n/a
376.784	6.687	753568	prompt	n/a	rivers latitude running tyler\n
377.5745	0.12	755149	keystroke	r	n/a
377.725	0.0895	755450	keystroke	i	n/a
377.9195	0.105	755839	keystroke	v	n/a
378.0695	0.12	756139	keystroke	e	n/a
378.1595	0.105	756319	keystroke	r	n/a
378.3845	0.075	756769	keystroke	s	n/a
378.7445	0.075	757489	keystroke	Key.space	n/a
379.0145	0.075	758029	keystroke	l	n/a
379.134	0.15	758268	keystroke	a	n/a
379.359	0.075	758718	keystroke	t	n/a
379.494	0.09	758988	keystroke	i	n/a
379.674	0.091	759348	keystroke	t	n/a
380.5895	0.075	761179	keystroke	u	n/a
380.7095	0.165	761419	keystroke	d	n/a
380.8295	0.105	761659	keystroke	e	n/a
381.0995	0.075	762199	keystroke	Key.space	n/a
381.4745	0.075	762949	keystroke	r	n/a
381.5645	0.075	763129	keystroke	u	n/a
381.775	0.075	763550	keystroke	n	n/a
381.91	0.075	763820	keystroke	n	n/a
381.955	0.165	763910	keystroke	i	n/a
382.045	0.09	764090	keystroke	n	n/a
382.195	0.06	764390	keystroke	g	n/a
382.359	0.09	764718	keystroke	Key.space	n/a
382.6295	0.06	765259	keystroke	t	n/a
382.7345	0.075	765469	keystroke	y	n/a
382.9595	0.075	765919	keystroke	l	n/a
383.0795	0.12	766159	keystroke	e	n/a
383.1395	0.075	766279	keystroke	r	n/a
383.3945	0.075	766789	keystroke	Key.enter	n/a
383.474	10.2125	766948	prompt	n/a	collective conventional bedroom humor\n
384.3845	0.03	768769	keystroke	c	n/a
384.3995	0.06	768799	keystroke	o	n/a
384.5795	0.0595	769159	keystroke	l	n/a
384.684	0.075	769368	keystroke	l	n/a
384.805	0.119	769610	keystroke	e	n/a
384.879	0.09	769758	keystroke	c	n/a
385.15	0.09	770300	keystroke	t	n/a
385.27	0.09	770540	keystroke	i	n/a
385.405	0.1645	770810	keystroke	v	n/a
385.5245	0.105	771049	keystroke	e	n/a
385.869	0.09	771738	keystroke	Key.space	n/a
386.1395	0.0895	772279	keystroke	c	n/a
386.1995	0.1195	772399	keystroke	o	n/a
386.289	0.075	772578	keystroke	n	n/a
386.394	0.105	772788	keystroke	v	n/a
386.514	0.1205	773028	keystroke	e	n/a
387.4295	0.075	774859	keystroke	n	n/a
387.5345	0.09	775069	keystroke	t	n/a
387.7145	0.1045	775429	keystroke	i	n/a
387.7745	0.0755	775549	keystroke	o	n/a
387.925	0.105	775850	keystroke	n	n/a
388.075	0.0745	776150	keystroke	a	n/a
388.1945	0.06	776389	keystroke	l	n/a
389.2895	0.045	778579	keystroke	Key.space	n/a
389.68	0.074	779360	keystroke	b	n/a
389.739	0.06	779478	keystroke	e	n/a
389.904	0.061	779808	keystroke	e	n/a
390.1745	0.06	780349	keystroke	d	n/a
390.7445	0.06	781489	keystroke	Key.backspace	n/a
390.8495	0.0745	781699	keystroke	Key.backspace	n/a
390.984	0.09	781968	keystroke	d	n/a
391.224	0.06	782448	keystroke	r	n/a
391.314	0.076	782628	keystroke	o	n/a
391.45	0.075	782900	keystroke	o	n/a
391.63	0.09	783260	keystroke	m	n/a
392.245	0.0895	784490	keystroke	Key.space	n/a
392.529	0.06	785058	keystroke	h	n/a
392.709	0.061	785418	keystroke	u	n/a
392.949	0.075	785898	keystroke	m	n/a
393.099	0.06	786198	keystroke	o	n/a
393.354	0.061	786708	keystroke	r	n/a
393.594	0.09	787188	keystroke	Key.enter	n/a
393.6895	9.1615	787379	prompt	n/a	wired latinas uncle clearly\n
394.81	0.105	789620	keystroke	w	n/a
394.87	0.045	789740	keystroke	e	n/a
394.93	0.06	789860	keystroke	i	n/a
395.5745	0.075	791149	keystroke	Key.backspace	n/a
395.7095	0.075	791419	keystroke	Key.backspace	n/a
395.9495	0.09	791899	keystroke	o	n/a
395.9645	0.06	791929	keystroke	i	n/a
396.1745	0.135	792349	keystroke	r	n/a
396.2495	0.105	792499	keystroke	e	n/a
396.6095	0.045	793219	keystroke	Key.backspace	n/a
396.7295	0.06	793459	keystroke	Key.backspace	n/a
396.8345	0.045	793669	keystroke	Key.backspace	n/a
397.0895	0.075	794179	keystroke	Key.backspace	n/a
397.6745	0.0905	795349	keystroke	i	n/a
397.8995	0.18	795799	keystroke	r	n/a
397.9745	0.1205	795949	keystroke	e	n/a
398.2295	0.075	796459	keystroke	d	n/a
398.6795	0.075	797359	keystroke	Key.space	n/a
398.9645	0.105	797929	keystroke	l	n/a
399.0695	0.15	798139	keystroke	a	n/a
399.1895	0.09	798379	keystroke	t	n/a
399.2795	0.075	798559	keystroke	i	n/a
399.4895	0.075	798979	keystroke	n	n/a
399.5795	0.12	799159	keystroke	a	n/a
399.7745	0.1045	799549	keystroke	s	n/a
399.999	0.075	799998	keystroke	Key.space	n/a
400.359	0.075	800718	keystroke	u	n/a
400.554	0.075	801108	keystroke	n	n/a
400.674	0.09	801348	keystroke	c	n/a
400.765	0.074	801530	keystroke	l	n/a
400.914	0.076	801828	keystroke	e	n/a
401.395	0.075	802790	keystroke	Key.space	n/a
401.74	0.075	803480	keystroke	c	n/a
401.83	0.075	803660	keystroke	l	n/a
401.935	0.12	803870	keystroke	e	n/a
402.025	0.15	804050	keystroke	a	n/a
402.145	0.075	804290	keystroke	r	n/a
402.25	0.1045	804500	keystroke	l	n/a
402.5045	0.075	805009	keystroke	y	n/a
402.7595	0.09	805519	keystroke	Key.enter	n/a
402.8535	7.9325	805707	prompt	n/a	i've known minimal suited\n
403.8095	0.06	807619	keystroke	i	n/a
404.4695	0.075	808939	keystroke	'	n/a
404.7245	0.12	809449	keystroke	v	n/a
404.8445	0.075	809689	keystroke	e	n/a
405.384	0.075	810768	keystroke	Key.space	n/a
406.284	0.075	812568	keystroke	k	n/a
406.344	0.12	812688	keystroke	n	n/a
406.569	0.075	813138	keystroke	o	n/a
406.794	0.045	813588	keystroke	w	n/a
406.914	0.075	813828	keystroke	n	n/a
407.184	0.075	814368	keystroke	Key.space	n/a
407.95	0.105	815900	keystroke	m	n/a
408.085	0.09	816170	keystroke	i	n/a
408.31	0.09	816620	keystroke	n	n/a
408.415	0.075	816830	keystroke	i	n/a
408.685	0.075	817370	keystroke	m	n/a
408.805	0.105	817610	keystroke	a	n/a
408.94	0.075	817880	keystroke	l	n/a
409.329	0.075	818658	keystroke	Key.space	n/a
409.735	0.059	819470	keystroke	s	n/a
409.884	0.09	819768	keystroke	u	n/a
410.064	0.075	820128	keystroke	i	n/a
410.184	0.15	820368	keystroke	t	n/a
410.274	0.135	820548	keystroke	e	n/a
410.5145	0.09	821029	keystroke	d	n/a
410.7095	0.075	821419	keystroke	Key.enter	n/a
410.789	8.097	821578	prompt	n/a	writing foam stephanie effective\n
411.789	0.1355	823578	keystroke	w	n/a
411.8795	0.075	823759	keystroke	r	n/a
411.9995	0.06	823999	keystroke	i	n/a
412.1045	0.12	824209	keystroke	t	n/a
412.2545	0.12	824509	keystroke	i	n/a
412.3295	0.075	824659	keystroke	n	n/a
412.4795	0.06	824959	keystroke	g	n/a
412.779	0.09	825558	keystroke	Key.space	n/a
413.169	0.09	826338	keystroke	g	n/a
413.274	0.06	826548	keystroke	o	n/a
413.589	0.0605	827178	keystroke	Key.backspace	n/a
413.7245	0.06	827449	keystroke	Key.backspace	n/a
413.8145	0.0905	827629	keystroke	f	n/a
413.965	0.0745	827930	keystroke	o	n/a
414.0995	0.09	828199	keystroke	a	n/a
414.2495	0.0755	828499	keystroke	m	n/a
414.745	0.105	829490	keystroke	Key.space	n/a
415.12	0.105	830240	keystroke	s	n/a
415.27	0.18	830540	keystroke	t	n/a
415.39	0.105	830780	keystroke	e	n/a
415.615	0.075	831230	keystroke	p	n/a
415.87	0.075	831740	keystroke	h	n/a
416.005	0.075	832010	keystroke	a	n/a
416.125	0.12	832250	keystroke	n	n/a
416.185	0.09	832370	keystroke	i	n/a
416.335	0.075	832670	keystroke	e	n/a
416.74	0.105	833480	keystroke	Key.space	n/a
416.98	0.12	833960	keystroke	e	n/a
417.16	0.135	834320	keystroke	f	n/a
417.325	0.09	834650	keystroke	f	n/a
417.52	0.09	835040	keystroke	f	n/a
417.79	0.1945	835580	keystroke	e	n/a
417.9995	0.09	835999	keystroke	c	n/a
418.2245	0.06	836449	keystroke	t	n/a
418.3745	0.06	836749	keystroke	i	n/a
418.4645	0.15	836929	keystroke	v	n/a
418.5845	0.1055	837169	keystroke	e	n/a
418.825	0.06	837650	keystroke	Key.enter	n/a
418.891	8.98	837782	prompt	n/a	leadership tomatoes information generated\n
419.8145	0.075	839629	keystroke	l	n/a
419.9345	0.12	839869	keystroke	e	n/a
420.0245	0.18	840049	keystroke	a	n/a
420.1595	0.15	840319	keystroke	d	n/a
420.3105	0.134	840621	keystroke	e	n/a
420.3995	0.105	840799	keystroke	r	n/a
420.8645	0.0905	841729	keystroke	s	n/a
421	0.09	842000	keystroke	h	n/a
421.21	0.075	842420	keystroke	i	n/a
421.4045	0.06	842809	keystroke	p	n/a
421.8095	0.09	843619	keystroke	Key.space	n/a
422.0645	0.075	844129	keystroke	t	n/a
422.1395	0.06	844279	keystroke	o	n/a
422.3345	0.06	844669	keystroke	m	n/a
422.4095	0.12	844819	keystroke	a	n/a
422.4845	0.105	844969	keystroke	t	n/a
422.6345	0.075	845269	keystroke	i	n/a
423.1145	0.06	846229	keystroke	Key.backspace	n/a
423.3095	0.1055	846619	keystroke	o	n/a
423.43	0.06	846860	keystroke	e	n/a
423.624	0.091	847248	keystroke	s	n/a
424.0895	0.09	848179	keystroke	Key.space	n/a
424.4645	0.075	848929	keystroke	i	n/a
424.5095	0.075	849019	keystroke	n	n/a
424.6745	0.075	849349	keystroke	f	n/a
424.7645	0.06	849529	keystroke	o	n/a
424.8395	0.105	849679	keystroke	r	n/a
424.9595	0.06	849919	keystroke	m	n/a
425.034	0.135	850068	keystroke	a	n/a
425.109	0.09	850218	keystroke	t	n/a
425.154	0.075	850308	keystroke	i	n/a
425.2	0.059	850400	keystroke	o	n/a
425.334	0.105	850668	keystroke	n	n/a
425.964	0.075	851928	keystroke	Key.space	n/a
426.46	0.1645	852920	keystroke	g	n/a
426.61	0.1045	853220	keystroke	e	n/a
426.76	0.09	853520	keystroke	n	n/a
426.88	0.09	853760	keystroke	e	n/a
427.03	0.12	854060	keystroke	r	n/a
427.165	0.105	854330	keystroke	a	n/a
427.3	0.15	854600	keystroke	t	n/a
427.39	0.12	854780	keystroke	e	n/a
427.585	0.105	855170	keystroke	d	n/a
427.795	0.0745	855590	keystroke	Key.enter	n/a
427.874	7.407	855748	prompt	n/a	older wrote naples tamil\n
428.7845	0.06	857569	keystroke	o	n/a
428.9495	0.09	857899	keystroke	l	n/a
429.0695	0.12	858139	keystroke	d	n/a
429.2045	0.135	858409	keystroke	e	n/a
429.2795	0.105	858559	keystroke	r	n/a
429.6845	0.09	859369	keystroke	Key.space	n/a
430.0145	0.165	860029	keystroke	w	n/a
430.1195	0.09	860239	keystroke	r	n/a
430.2995	0.075	860599	keystroke	o	n/a
430.4195	0.12	860839	keystroke	t	n/a
430.5095	0.12	861019	keystroke	e	n/a
431.5295	0.075	863059	keystroke	Key.space	n/a
431.9195	0.075	863839	keystroke	n	n/a
432.0095	0.09	864019	keystroke	a	n/a
432.1295	0.09	864259	keystroke	p	n/a
432.2645	0.0745	864529	keystroke	e	n/a
432.399	0.06	864798	keystroke	l	n/a
432.9845	0.06	865969	keystroke	Key.backspace	n/a
433.1045	0.06	866209	keystroke	Key.backspace	n/a
433.3295	0.075	866659	keystroke	l	n/a
433.4795	0.06	866959	keystroke	e	n/a
433.69	0.075	867380	keystroke	s	n/a
433.81	0.0745	867620	keystroke	Key.space	n/a
434.2295	0.105	868459	keystroke	t	n/a
434.3045	0.105	868609	keystroke	a	n/a
434.4845	0.09	868969	keystroke	m	n/a
434.5595	0.075	869119	keystroke	i	n/a
434.7545	0.075	869509	keystroke	l	n/a
435.204	0.0755	870408	keystroke	Key.enter	n/a
435.2875	8.0485	870575	prompt	n/a	alike pointing enlargement june\n
436.1345	0.1055	872269	keystroke	a	n/a
436.404	0.105	872808	keystroke	l	n/a
436.464	0.09	872928	keystroke	i	n/a
436.689	0.06	873378	keystroke	k	n/a
436.824	0.075	873648	keystroke	e	n/a
437.169	0.075	874338	keystroke	Key.space	n/a
437.619	0.1505	875238	keystroke	p	n/a
437.874	0.075	875748	keystroke	o	n/a
438.0245	0.09	876049	keystroke	i	n/a
438.2495	0.0895	876499	keystroke	n	n/a
438.399	0.06	876798	keystroke	t	n/a
438.474	0.09	876948	keystroke	i	n/a
438.519	0.075	877038	keystroke	n	n/a
438.669	0.075	877338	keystroke	g	n/a
439.479	0.09	878958	keystroke	Key.space	n/a
439.9595	0.0755	879919	keystroke	e	n/a
440.05	0.06	880100	keystroke	n	n/a
440.245	0.06	880490	keystroke	l	n/a
440.514	0.18	881028	keystroke	a	n/a
440.649	0.105	881298	keystroke	r	n/a
441.3095	0.12	882619	keystroke	g	n/a
441.3845	0.105	882769	keystroke	e	n/a
441.5045	0.09	883009	keystroke	m	n/a
441.6545	0.06	883309	keystroke	e	n/a
441.7445	0.075	883489	keystroke	n	n/a
441.879	0.075	883758	keystroke	t	n/a
442.299	0.09	884598	keystroke	Key.space	n/a
442.69	0.044	885380	keystroke	j	n/a
442.809	0.075	885618	keystroke	u	n/a
443.005	0.074	886010	keystroke	n	n/a
443.14	0.0745	886280	keystroke	e	n/a
443.2745	0.06	886549	keystroke	Key.enter	n/a
443.339	6.8815	886678	prompt	n/a	free steve dramatically diverse\n
444.129	0.09	888258	keystroke	f	n/a
444.339	0.105	888678	keystroke	r	n/a
444.6395	0.015	889279	keystroke	e	n/a
444.6995	0.105	889399	keystroke	e	n/a
444.9395	0.105	889879	keystroke	Key.space	n/a
445.2545	0.105	890509	keystroke	s	n/a
445.3895	0.15	890779	keystroke	t	n/a
445.5095	0.105	891019	keystroke	e	n/a
445.7345	0.12	891469	keystroke	v	n/a
445.8095	0.09	891619	keystroke	e	n/a
446.3045	0.075	892609	keystroke	Key.space	n/a
446.6945	0.09	893389	keystroke	d	n/a
446.8595	0.135	893719	keystroke	r	n/a
446.9795	0.105	893959	keystroke	a	n/a
447.1745	0.075	894349	keystroke	m	n/a
447.2645	0.09	894529	keystroke	a	n/a
447.4745	0.09	894949	keystroke	t	n/a
447.5795	0.06	895159	keystroke	i	n/a
447.7445	0.1195	895489	keystroke	c	n/a
447.8195	0.105	895639	keystroke	a	n/a
447.9395	0.06	895879	keystroke	l	n/a
448.0595	0.09	896119	keystroke	l	n/a
448.3145	0.06	896629	keystroke	y	n/a
448.8095	0.015	897619	keystroke	Key.space	n/a
449.1395	0.105	898279	keystroke	d	n/a
449.2745	0.06	898549	keystroke	i	n/a
449.4395	0.09	898879	keystroke	v	n/a
449.5445	0.135	899089	keystroke	e	n/a
449.6345	0.12	899269	keystroke	r	n/a
449.8295	0.15	899659	keystroke	s	n/a
449.9495	0.0895	899899	keystroke	e	n/a
450.144	0.075	900288	keystroke	Key.enter	n/a
450.224	6.462	900448	prompt	n/a	info saint anytime agree\n
451.2695	0.075	902539	keystroke	i	n/a
451.2995	0.06	902599	keystroke	n	n/a
451.4195	0.075	902839	keystroke	f	n/a
451.4945	0.075	902989	keystroke	o	n/a
451.9145	0.09	903829	keystroke	Key.space	n/a
452.4245	0.135	904849	keystroke	s	n/a
452.5745	0.105	905149	keystroke	a	n/a
452.7095	0.09	905419	keystroke	i	n/a
452.7695	0.075	905539	keystroke	n	n/a
452.9045	0.09	905809	keystroke	t	n/a
453.4145	0.075	906829	keystroke	Key.space	n/a
453.8045	0.0595	907609	keystroke	a	n/a
453.894	0.045	907788	keystroke	n	n/a
454.044	0.06	908088	keystroke	y	n/a
454.194	0.075	908388	keystroke	t	n/a
454.254	0.12	908508	keystroke	i	n/a
454.314	0.075	908628	keystroke	m	n/a
454.494	0.06	908988	keystroke	e	n/a
455.004	0.09	910008	keystroke	Key.space	n/a
455.439	0.075	910878	keystroke	a	n/a
455.634	0.075	911268	keystroke	g	n/a
455.9945	0.12	911989	keystroke	r	n/a
456.2345	0.06	912469	keystroke	e	n/a
456.3845	0.09	912769	keystroke	e	n/a
456.6245	0.06	913249	keystroke	Key.enter	n/a
456.6895	8.741	913379	prompt	n/a	annually expires built entire\n
457.4945	0.075	914989	keystroke	a	n/a
457.929	0.045	915858	keystroke	n	n/a
458.049	0.075	916098	keystroke	n	n/a
458.2145	0.09	916429	keystroke	u	n/a
458.4395	0.075	916879	keystroke	a	n/a
458.5595	0.06	917119	keystroke	l	n/a
458.6945	0.09	917389	keystroke	l	n/a
458.9345	0.075	917869	keystroke	y	n/a
459.2345	0.075	918469	keystroke	Key.space	n/a
459.5795	0.075	919159	keystroke	e	n/a
459.7895	0.0755	919579	keystroke	x	n/a
459.97	0.06	919940	keystroke	p	n/a
460.195	0.075	920390	keystroke	i	n/a
460.2845	0.1505	920569	keystroke	r	n/a
460.3595	0.105	920719	keystroke	e	n/a
460.599	0.09	921198	keystroke	s	n/a
460.974	0.1055	921948	keystroke	Key.space	n/a
461.4395	0.06	922879	keystroke	b	n/a
461.6195	0.105	923239	keystroke	u	n/a
461.6795	0.075	923359	keystroke	i	n/a
461.874	0.09	923748	keystroke	l	n/a
462.024	0.075	924048	keystroke	t	n/a
462.3395	0.09	924679	keystroke	Key.space	n/a
462.6095	0.105	925219	keystroke	e	n/a
462.7745	0.045	925549	keystroke	n	n/a
462.9545	0.09	925909	keystroke	i	n/a
463.0895	0.105	926179	keystroke	r	n/a
463.3445	0.135	926689	keystroke	e	n/a
463.7945	0.075	927589	keystroke	Key.backspace	n/a
463.9295	0.06	927859	keystroke	Key.backspace	n/a
464.0645	0.04	928129	keystroke	Key.backspace	n/a
464.754	0.105	929508	keystroke	t	n/a
464.844	0.09	929688	keystroke	i	n/a
464.979	0.105	929958	keystroke	r	n/a
465.04	0.119	930080	keystroke	e	n/a
465.369	0.06	930738	keystroke	Key.enter	n/a
465.4335	6.8975	930867	prompt	n/a	allen funeral sleeping alex\n
466.2695	0.09	932539	keystroke	a	n/a
466.4195	0.06	932839	keystroke	l	n/a
466.5395	0.075	933079	keystroke	l	n/a
466.6745	0.06	933349	keystroke	e	n/a
466.8095	0.06	933619	keystroke	n	n/a
467.4245	0.09	934849	keystroke	Key.space	n/a
468.024	0.075	936048	keystroke	f	n/a
468.129	0.06	936258	keystroke	u	n/a
468.309	0.09	936618	keystroke	n	n/a
468.444	0.09	936888	keystroke	e	n/a
468.654	0.15	937308	keystroke	r	n/a
468.789	0.09	937578	keystroke	a	n/a
468.984	0.06	937968	keystroke	l	n/a
469.314	0.075	938628	keystroke	Key.space	n/a
469.54	0.075	939080	keystroke	s	n/a
469.675	0.06	939350	keystroke	l	n/a
469.8245	0.075	939649	keystroke	e	n/a
469.9895	0.075	939979	keystroke	e	n/a
470.0795	0.075	940159	keystroke	p	n/a
470.29	0.105	940580	keystroke	i	n/a
470.35	0.075	940700	keystroke	n	n/a
470.4845	0.06	940969	keystroke	g	n/a
470.7545	0.075	941509	keystroke	Key.space	n/a
471.1295	0.12	942259	keystroke	a	n/a
471.5645	0.06	943129	keystroke	l	n/a
471.7295	0.045	943459	keystroke	e	n/a
471.954	0.075	943908	keystroke	x	n/a
472.284	0.045	944568	keystroke	Key.enter	n/a
472.3335	8.4425	944667	prompt	n/a	live photographs shadow underlying\n
473.1695	0.105	946339	keystroke	l	n/a
473.2595	0.045	946519	keystroke	i	n/a
473.4395	0.12	946879	keystroke	v	n/a
473.5295	0.09	947059	keystroke	e	n/a
473.7395	0.0755	947479	keystroke	Key.space	n/a
474.1745	0.075	948349	keystroke	p	n/a
474.4445	0.06	948889	keystroke	h	n/a
474.6995	0.06	949399	keystroke	t	n/a
474.8495	0.06	949699	keystroke	o	n/a
475.479	0.045	950958	keystroke	Key.backspace	n/a
475.584	0.075	951168	keystroke	Key.backspace	n/a
475.809	0.075	951618	keystroke	o	n/a
475.929	0.06	951858	keystroke	t	n/a
476.064	0.06	952128	keystroke	o	n/a
476.424	0.09	952848	keystroke	g	n/a
476.694	0.15	953388	keystroke	r	n/a
476.814	0.105	953628	keystroke	a	n/a
476.964	0.105	953928	keystroke	p	n/a
477.2795	0.06	954559	keystroke	h	n/a
477.4295	0.09	954859	keystroke	s	n/a
477.6095	0.0745	955219	keystroke	Key.space	n/a
477.715	0.1195	955430	keystroke	s	n/a
477.8645	0.0595	955729	keystroke	h	n/a
477.909	0.12	955818	keystroke	a	n/a
478.104	0.09	956208	keystroke	d	n/a
478.269	0.06	956538	keystroke	o	n/a
478.404	0.075	956808	keystroke	w	n/a
478.9595	0.075	957919	keystroke	Key.space	n/a
479.3045	0.045	958609	keystroke	u	n/a
479.4695	0.105	958939	keystroke	n	n/a
479.5895	0.09	959179	keystroke	d	n/a
479.6795	0.135	959359	keystroke	e	n/a
479.7695	0.105	959539	keystroke	r	n/a
479.9345	0.0895	959869	keystroke	l	n/a
480.174	0.09	960348	keystroke	y	n/a
480.249	0.181	960498	keystroke	i	n/a
480.384	0.09	960768	keystroke	n	n/a
480.49	0.089	960980	keystroke	g	n/a
480.714	0.06	961428	keystroke	Key.enter	n/a
480.7795	6.8365	961559	prompt	n/a	digital nowhere happens loading\n
481.9895	0.06	963979	keystroke	d	n/a
482.0795	0.06	964159	keystroke	i	n/a
482.2445	0.075	964489	keystroke	g	n/a
482.3345	0.06	964669	keystroke	i	n/a
482.4545	0.15	964909	keystroke	t	n/a
482.5595	0.105	965119	keystroke	a	n/a
482.7845	0.06	965569	keystroke	l	n/a
483.2495	0.075	966499	keystroke	Key.space	n/a
483.5345	0.075	967069	keystroke	n	n/a
483.6695	0.075	967339	keystroke	o	n/a
483.9845	0.09	967969	keystroke	w	n/a
484.134	0.09	968268	keystroke	h	n/a
484.209	0.12	968418	keystroke	e	n/a
484.3	0.119	968600	keystroke	r	n/a
484.404	0.075	968808	keystroke	e	n/a
484.719	0.09	969438	keystroke	Key.space	n/a
484.959	0.09	969918	keystroke	h	n/a
485.065	0.089	970130	keystroke	a	n/a
485.17	0.075	970340	keystroke	p	n/a
485.305	0.074	970610	keystroke	p	n/a
485.4395	0.09	970879	keystroke	e	n/a
485.6345	0.06	971269	keystroke	n	n/a
485.9945	0.0595	971989	keystroke	s	n/a
486.519	0.075	973038	keystroke	Key.space	n/a
486.774	0.045	973548	keystroke	l	n/a
486.894	0.075	973788	keystroke	o	n/a
486.954	0.135	973908	keystroke	a	n/a
487.059	0.09	974118	keystroke	d	n/a
487.179	0.105	974358	keystroke	i	n/a
487.224	0.075	974448	keystroke	n	n/a
487.359	0.09	974718	keystroke	g	n/a
487.569	0.045	975138	keystroke	Key.enter	n/a
487.6185	6.7625	975237	prompt	n/a	solo operator line aerial\n
488.319	0.09	976638	keystroke	s	n/a
488.424	0.0755	976848	keystroke	o	n/a
488.6045	0.09	977209	keystroke	l	n/a
488.7395	0.075	977479	keystroke	o	n/a
489.0095	0.09	978019	keystroke	Key.space	n/a
489.534	0.075	979068	keystroke	o	n/a
489.729	0.075	979458	keystroke	p	n/a
489.909	0.135	979818	keystroke	e	n/a
490.014	0.135	980028	keystroke	r	n/a
490.179	0.166	980358	keystroke	a	n/a
490.299	0.061	980598	keystroke	t	n/a
490.45	0.06	980900	keystroke	o	n/a
490.615	0.044	981230	keystroke	r	n/a
491.199	0.075	982398	keystroke	Key.space	n/a
491.454	0.165	982908	keystroke	l	n/a
491.559	0.075	983118	keystroke	i	n/a
491.7545	0.075	983509	keystroke	n	n/a
491.9045	0.075	983809	keystroke	e	n/a
492.0845	0.09	984169	keystroke	Key.space	n/a
492.3095	0.09	984619	keystroke	a	n/a
492.7595	0.09	985519	keystroke	e	n/a
492.9695	0.075	985939	keystroke	r	n/a
493.1045	0.075	986209	keystroke	i	n/a
493.2695	0.075	986539	keystroke	e	n/a
493.8245	0.1495	987649	keystroke	Key.backspace	n/a
493.989	0.03	987978	keystroke	a	n/a
494.109	0.045	988218	keystroke	l	n/a
494.319	0.06	988638	keystroke	Key.enter	n/a
494.384	9.117	988768	prompt	n/a	tray residential recipient islands\n
495.519	0.045	991038	keystroke	t	n/a
495.864	0.09	991728	keystroke	r	n/a
495.999	0.075	991998	keystroke	a	n/a
496.2095	0.045	992419	keystroke	y	n/a
496.7645	0.075	993529	keystroke	Key.space	n/a
497.1095	0.135	994219	keystroke	r	n/a
497.1845	0.09	994369	keystroke	e	n/a
497.3795	0.12	994759	keystroke	s	n/a
497.4545	0.09	994909	keystroke	i	n/a
497.5895	0.1645	995179	keystroke	d	n/a
497.7095	0.1045	995419	keystroke	e	n/a
497.799	0.06	995598	keystroke	n	n/a
497.949	0.075	995898	keystroke	t	n/a
498.039	0.09	996078	keystroke	i	n/a
498.189	0.09	996378	keystroke	a	n/a
498.324	0.06	996648	keystroke	l	n/a
498.789	0.015	997578	keystroke	Key.space	n/a
499.3295	0.135	998659	keystroke	r	n/a
499.4495	0.03	998899	keystroke	e	n/a
499.5545	0.105	999109	keystroke	c	n/a
499.6895	0.0745	999379	keystroke	i	n/a
499.9295	0.195	999859	keystroke	p	n/a
500.0645	0.09	1000129	keystroke	i	n/a
500.3195	0.09	1000639	keystroke	e	n/a
500.6945	0.06	1001389	keystroke	n	n/a
501.0845	0.06	1002169	keystroke	t	n/a
501.4895	0.09	1002979	keystroke	Key.space	n/a
502.0595	0.075	1004119	keystroke	i	n/a
502.2995	0.0595	1004599	keystroke	s	n/a
502.509	0.0755	1005018	keystroke	l	n/a
502.6145	0.105	1005229	keystroke	a	n/a
502.7495	0.075	1005499	keystroke	n	n/a
502.8545	0.09	1005709	keystroke	d	n/a
503.0795	0.075	1006159	keystroke	s	n/a
503.409	0.09	1006818	keystroke	Key.enter	n/a
503.5045	7.2415	1007009	prompt	n/a	author punishment compact panama\n
504.294	0.09	1008588	keystroke	a	n/a
504.474	0.075	1008948	keystroke	u	n/a
504.654	0.075	1009308	keystroke	t	n/a
504.73	0.059	1009460	keystroke	h	n/a
504.879	0.075	1009758	keystroke	o	n/a
505.029	0.075	1010058	keystroke	r	n/a
505.329	0.06	1010658	keystroke	Key.space	n/a
505.644	0.105	1011288	keystroke	p	n/a
505.8245	0.0745	1011649	keystroke	u	n/a
506.049	0.1055	1012098	keystroke	n	n/a
506.1245	0.075	1012249	keystroke	i	n/a
506.2445	0.09	1012489	keystroke	s	n/a
506.3495	0.075	1012699	keystroke	h	n/a
506.5895	0.045	1013179	keystroke	m	n/a
506.6795	0.06	1013359	keystroke	e	n/a
506.799	0.075	1013598	keystroke	n	n/a
506.904	0.06	1013808	keystroke	t	n/a
507.174	0.09	1014348	keystroke	Key.space	n/a
507.9095	0.09	1015819	keystroke	c	n/a
508.0145	0.045	1016029	keystroke	o	n/a
508.1795	0.075	1016359	keystroke	m	n/a
508.3595	0.075	1016719	keystroke	p	n/a
508.4645	0.1505	1016929	keystroke	a	n/a
508.5845	0.1055	1017169	keystroke	c	n/a
508.795	0.089	1017590	keystroke	t	n/a
509.3045	0.06	1018609	keystroke	Key.space	n/a
509.7245	0.075	1019449	keystroke	p	n/a
509.8895	0.0895	1019779	keystroke	a	n/a
509.994	0.075	1019988	keystroke	n	n/a
510.144	0.09	1020288	keystroke	a	n/a
510.264	0.09	1020528	keystroke	m	n/a
510.414	0.075	1020828	keystroke	a	n/a
510.669	0.075	1021338	keystroke	Key.enter	n/a
510.7485	13.4225	1021497	prompt	n/a	bryan would've integrity interracial\n
511.8995	0.075	1023799	keystroke	b	n/a
512.0495	0.06	1024099	keystroke	r	n/a
512.1545	0.06	1024309	keystroke	y	n/a
512.2745	0.09	1024549	keystroke	a	n/a
512.4095	0.09	1024819	keystroke	n	n/a
512.799	0.075	1025598	keystroke	Key.space	n/a
513.174	0.075	1026348	keystroke	w	n/a
513.234	0.121	1026468	keystroke	o	n/a
513.309	0.075	1026618	keystroke	u	n/a
513.594	0.075	1027188	keystroke	d	n/a
514.2545	0.15	1028509	keystroke	Key.backspace	n/a
514.7495	0.045	1029499	keystroke	l	n/a
514.7645	0.015	1029529	keystroke	;	n/a
514.8545	0.09	1029709	keystroke	d	n/a
515.1995	0.075	1030399	keystroke	'	n/a
515.6195	0.105	1031239	keystroke	v	n/a
515.7695	0.1345	1031539	keystroke	e	n/a
516.549	0.075	1033098	keystroke	Key.backspace	n/a
516.804	0.045	1033608	keystroke	Key.backspace	n/a
516.909	0.06	1033818	keystroke	Key.backspace	n/a
517.029	0.06	1034058	keystroke	Key.backspace	n/a
517.149	0.06	1034298	keystroke	Key.backspace	n/a
517.719	0.075	1035438	keystroke	d	n/a
518.244	0.075	1036488	keystroke	'	n/a
518.499	0.15	1036998	keystroke	v	n/a
518.619	0.105	1037238	keystroke	e	n/a
519.144	0.075	1038288	keystroke	Key.space	n/a
519.5645	0.09	1039129	keystroke	i	n/a
519.6095	0.075	1039219	keystroke	n	n/a
519.8345	0.165	1039669	keystroke	t	n/a
520.1195	0.105	1040239	keystroke	e	n/a
520.4045	0.075	1040809	keystroke	g	n/a
520.5995	0.075	1041199	keystroke	r	n/a
520.7345	0.075	1041469	keystroke	i	n/a
520.8995	0.09	1041799	keystroke	t	n/a
521.0345	0.075	1042069	keystroke	y	n/a
521.4245	0.075	1042849	keystroke	Key.space	n/a
521.7695	0.1045	1043539	keystroke	i	n/a
521.8145	0.0895	1043629	keystroke	n	n/a
521.979	0.12	1043958	keystroke	t	n/a
522.114	0.1505	1044228	keystroke	e	n/a
522.189	0.1205	1044378	keystroke	r	n/a
522.5045	0.15	1045009	keystroke	r	n/a
522.6695	0.105	1045339	keystroke	a	n/a
523.5095	0.105	1047019	keystroke	c	n/a
523.5995	0.06	1047199	keystroke	i	n/a
523.7785	0.075	1047557	keystroke	a	n/a
523.8845	0.075	1047769	keystroke	l	n/a
524.1085	0.06	1048217	keystroke	Key.enter	n/a
524.176	6.28	1048352	prompt	n/a	anything out flying flight\n
524.9795	0.09	1049959	keystroke	a	n/a
525.1145	0.06	1050229	keystroke	n	n/a
525.2945	0.09	1050589	keystroke	y	n/a
525.4445	0.09	1050889	keystroke	t	n/a
525.4895	0.165	1050979	keystroke	h	n/a
525.5945	0.105	1051189	keystroke	i	n/a
525.6845	0.09	1051369	keystroke	n	n/a
526.0295	0.075	1052059	keystroke	g	n/a
526.554	0.0895	1053108	keystroke	Key.space	n/a
526.8845	0.134	1053769	keystroke	o	n/a
526.9585	0.0905	1053917	keystroke	u	n/a
527.1085	0.0615	1054217	keystroke	t	n/a
527.4245	0.0745	1054849	keystroke	Key.space	n/a
527.8745	0.045	1055749	keystroke	f	n/a
528.0835	0.09	1056167	keystroke	l	n/a
528.2945	0.075	1056589	keystroke	y	n/a
528.3995	0.165	1056799	keystroke	i	n/a
528.5195	0.075	1057039	keystroke	n	n/a
528.6995	0.045	1057399	keystroke	g	n/a
528.8945	0.075	1057789	keystroke	Key.space	n/a
529.539	0.075	1059078	keystroke	f	n/a
529.629	0.09	1059258	keystroke	l	n/a
529.689	0.075	1059378	keystroke	i	n/a
529.824	0.06	1059648	keystroke	g	n/a
529.944	0.06	1059888	keystroke	h	n/a
530.049	0.06	1060098	keystroke	t	n/a
530.394	0.06	1060788	keystroke	Key.enter	n/a
530.459	9.0415	1060918	prompt	n/a	endorsed clearance cologne adds\n
531.234	0.075	1062468	keystroke	e	n/a
531.729	0.0905	1063458	keystroke	n	n/a
531.9245	0.09	1063849	keystroke	d	n/a
532.1645	0.06	1064329	keystroke	o	n/a
532.2995	0.105	1064599	keystroke	r	n/a
533.3945	0.164	1066789	keystroke	s	n/a
533.5145	0.12	1067029	keystroke	e	n/a
533.769	0.0755	1067538	keystroke	d	n/a
534.1295	0.09	1068259	keystroke	Key.space	n/a
534.564	0.105	1069128	keystroke	c	n/a
534.714	0.075	1069428	keystroke	l	n/a
534.834	0.12	1069668	keystroke	e	n/a
534.969	0.1505	1069938	keystroke	a	n/a
535.0895	0.075	1070179	keystroke	r	n/a
535.3895	0.06	1070779	keystroke	a	n/a
535.5395	0.06	1071079	keystroke	n	n/a
536.1245	0.135	1072249	keystroke	c	n/a
536.2145	0.089	1072429	keystroke	e	n/a
536.4985	0.09	1072997	keystroke	Key.space	n/a
536.9795	0.105	1073959	keystroke	c	n/a
537.0545	0.045	1074109	keystroke	o	n/a
537.2195	0.075	1074439	keystroke	l	n/a
537.3545	0.09	1074709	keystroke	o	n/a
537.5645	0.06	1075129	keystroke	g	n/a
537.8195	0.09	1075639	keystroke	n	n/a
538.0445	0.06	1076089	keystroke	e	n/a
538.4645	0.075	1076929	keystroke	Key.space	n/a
538.7195	0.105	1077439	keystroke	a	n/a
538.8995	0.09	1077799	keystroke	d	n/a
539.0645	0.09	1078129	keystroke	d	n/a
539.2745	0.075	1078549	keystroke	s	n/a
539.4245	0.075	1078849	keystroke	Key.enter	n/a
539.5035	11.112	1079007	prompt	n/a	circuit hebrew techrepublic funny\n
540.3545	0.075	1080709	keystroke	c	n/a
540.5645	0.045	1081129	keystroke	i	n/a
540.8945	0.06	1081789	keystroke	r	n/a
541.2545	0.06	1082509	keystroke	t	n/a
541.6595	0.075	1083319	keystroke	Key.backspace	n/a
541.7795	0.0895	1083559	keystroke	c	n/a
541.989	0.06	1083978	keystroke	u	n/a
542.184	0.075	1084368	keystroke	i	n/a
542.334	0.075	1084668	keystroke	t	n/a
542.9345	0.0895	1085869	keystroke	Key.space	n/a
543.774	0.06	1087548	keystroke	h	n/a
543.939	0.075	1087878	keystroke	e	n/a
544.179	0.045	1088358	keystroke	g	n/a
544.494	0.06	1088988	keystroke	Key.backspace	n/a
544.749	0.075	1089498	keystroke	b	n/a
544.884	0.15	1089768	keystroke	r	n/a
544.989	0.09	1089978	keystroke	e	n/a
545.199	0.06	1090398	keystroke	w	n/a
545.664	0.075	1091328	keystroke	Key.space	n/a
546.219	0.15	1092438	keystroke	t	n/a
546.309	0.12	1092618	keystroke	e	n/a
546.549	0.06	1093098	keystroke	h	n/a
547.029	0.105	1094058	keystroke	Key.backspace	n/a
547.179	0.09	1094358	keystroke	c	n/a
547.314	0.06	1094628	keystroke	h	n/a
547.7795	0.12	1095559	keystroke	r	n/a
547.8545	0.09	1095709	keystroke	e	n/a
548.0795	0.075	1096159	keystroke	p	n/a
548.2895	0.09	1096579	keystroke	u	n/a
548.7095	0.105	1097419	keystroke	b	n/a
548.8595	0.15	1097719	keystroke	l	n/a
548.9495	0.075	1097899	keystroke	i	n/a
549.0845	0.06	1098169	keystroke	c	n/a
549.3995	0.09	1098799	keystroke	Key.space	n/a
549.7735	0.0755	1099547	keystroke	f	n/a
549.8645	0.059	1099729	keystroke	u	n/a
550.0735	0.06	1100147	keystroke	n	n/a
550.1945	0.075	1100389	keystroke	n	n/a
550.2985	0.076	1100597	keystroke	y	n/a
550.5385	0.075	1101077	keystroke	Key.enter	n/a
550.619	9.4615	1101238	prompt	n/a	screw collectables forgot skating\n
551.469	0.165	1102938	keystroke	s	n/a
551.619	0.105	1103238	keystroke	c	n/a
551.814	0.105	1103628	keystroke	r	n/a
552.024	0.15	1104048	keystroke	e	n/a
552.129	0.12	1104258	keystroke	w	n/a
552.8945	0.075	1105789	keystroke	Key.space	n/a
553.239	0.1055	1106478	keystroke	c	n/a
553.329	0.06	1106658	keystroke	o	n/a
553.479	0.075	1106958	keystroke	l	n/a
553.6145	0.06	1107229	keystroke	l	n/a
553.6895	0.165	1107379	keystroke	e	n/a
553.8395	0.09	1107679	keystroke	c	n/a
554.0345	0.09	1108069	keystroke	t	n/a
554.1695	0.075	1108339	keystroke	o	n/a
554.4545	0.015	1108909	keystroke	b	n/a
554.9345	0.06	1109869	keystroke	Key.backspace	n/a
555.0995	0.075	1110199	keystroke	Key.backspace	n/a
555.339	0.12	1110678	keystroke	a	n/a
555.489	0.0905	1110978	keystroke	b	n/a
555.699	0.075	1111398	keystroke	l	n/a
555.834	0.075	1111668	keystroke	e	n/a
556.044	0.075	1112088	keystroke	s	n/a
556.4195	0.075	1112839	keystroke	Key.space	n/a
556.7195	0.075	1113439	keystroke	f	n/a
556.8095	0.075	1113619	keystroke	o	n/a
556.8995	0.09	1113799	keystroke	r	n/a
557.0945	0.075	1114189	keystroke	g	n/a
557.1705	0.059	1114341	keystroke	o	n/a
557.3045	0.06	1114609	keystroke	t	n/a
557.5445	0.09	1115089	keystroke	Key.space	n/a
557.8295	0.1045	1115659	keystroke	s	n/a
558.024	0.075	1116048	keystroke	k	n/a
558.084	0.105	1116168	keystroke	a	n/a
558.279	0.09	1116558	keystroke	i	n/a
558.339	0.045	1116678	keystroke	n	n/a
559.1935	0.046	1118387	keystroke	Key.backspace	n/a
559.3145	0.06	1118629	keystroke	Key.backspace	n/a
559.4045	0.06	1118809	keystroke	t	n/a
559.5245	0.09	1119049	keystroke	i	n/a
559.5695	0.074	1119139	keystroke	n	n/a
559.6745	0.075	1119349	keystroke	g	n/a
560.0195	0.06	1120039	keystroke	Key.enter	n/a
560.084	6.0115	1120168	prompt	n/a	notes sitting collector extra\n
561.1445	0.1195	1122289	keystroke	n	n/a
561.219	0.075	1122438	keystroke	o	n/a
561.309	0.15	1122618	keystroke	t	n/a
561.399	0.09	1122798	keystroke	e	n/a
561.624	0.075	1123248	keystroke	s	n/a
561.924	0.0745	1123848	keystroke	Key.space	n/a
562.209	0.0605	1124418	keystroke	s	n/a
562.3135	0.075	1124627	keystroke	i	n/a
562.4485	0.061	1124897	keystroke	t	n/a
562.5845	0.104	1125169	keystroke	t	n/a
562.704	0.075	1125408	keystroke	i	n/a
562.7485	0.061	1125497	keystroke	n	n/a
562.8685	0.0755	1125737	keystroke	g	n/a
563.064	0.09	1126128	keystroke	Key.space	n/a
563.319	0.09	1126638	keystroke	c	n/a
563.394	0.06	1126788	keystroke	o	n/a
563.544	0.075	1127088	keystroke	l	n/a
563.664	0.075	1127328	keystroke	l	n/a
563.754	0.1205	1127508	keystroke	e	n/a
563.844	0.0905	1127688	keystroke	c	n/a
564.0245	0.075	1128049	keystroke	t	n/a
564.1445	0.075	1128289	keystroke	o	n/a
564.2645	0.06	1128529	keystroke	r	n/a
564.714	0.09	1129428	keystroke	Key.space	n/a
564.999	0.045	1129998	keystroke	e	n/a
565.209	0.06	1130418	keystroke	x	n/a
565.449	0.15	1130898	keystroke	t	n/a
565.554	0.075	1131108	keystroke	r	n/a
565.749	0.09	1131498	keystroke	a	n/a
566.034	0.06	1132068	keystroke	Key.enter	n/a
566.099	6.9115	1132198	prompt	n/a	restriction clothes enters cast\n
566.874	0.105	1133748	keystroke	r	n/a
566.934	0.09	1133868	keystroke	e	n/a
567.129	0.09	1134258	keystroke	s	n/a
567.384	0.075	1134768	keystroke	c	n/a
567.789	0.0905	1135578	keystroke	Key.backspace	n/a
567.9245	0.105	1135849	keystroke	t	n/a
568.1495	0.075	1136299	keystroke	r	n/a
568.4195	0.06	1136839	keystroke	i	n/a
568.5545	0.0745	1137109	keystroke	c	n/a
568.749	0.075	1137498	keystroke	t	n/a
568.809	0.105	1137618	keystroke	i	n/a
568.854	0.09	1137708	keystroke	o	n/a
569.019	0.09	1138038	keystroke	n	n/a
569.544	0.075	1139088	keystroke	Key.space	n/a
569.769	0.09	1139538	keystroke	c	n/a
569.844	0.075	1139688	keystroke	l	n/a
569.9795	0.06	1139959	keystroke	o	n/a
570.1145	0.09	1140229	keystroke	t	n/a
570.2495	0.09	1140499	keystroke	h	n/a
570.3845	0.075	1140769	keystroke	e	n/a
570.5945	0.09	1141189	keystroke	s	n/a
570.7435	0.09	1141487	keystroke	Key.space	n/a
571.0295	0.09	1142059	keystroke	e	n/a
571.1795	0.075	1142359	keystroke	n	n/a
571.2395	0.1045	1142479	keystroke	t	n/a
571.359	0.135	1142718	keystroke	e	n/a
571.464	0.075	1142928	keystroke	r	n/a
571.644	0.0905	1143288	keystroke	s	n/a
571.8395	0.0895	1143679	keystroke	Key.space	n/a
572.26	0.149	1144520	keystroke	c	n/a
572.41	0.134	1144820	keystroke	a	n/a
572.5	0.194	1145000	keystroke	s	n/a
572.664	0.09	1145328	keystroke	t	n/a
572.949	0.06	1145898	keystroke	Key.enter	n/a
573.013	8.1575	1146026	prompt	n/a	george sheep rear ethics\n
574.059	0.12	1148118	keystroke	g	n/a
574.284	0.12	1148568	keystroke	e	n/a
574.554	0.075	1149108	keystroke	o	n/a
574.719	0.09	1149438	keystroke	r	n/a
574.9145	0.12	1149829	keystroke	g	n/a
575.0195	0.075	1150039	keystroke	e	n/a
575.2445	0.09	1150489	keystroke	Key.space	n/a
575.589	0.09	1151178	keystroke	s	n/a
575.754	0.075	1151508	keystroke	h	n/a
575.904	0.075	1151808	keystroke	e	n/a
576.069	0.075	1152138	keystroke	e	n/a
576.159	0.0605	1152318	keystroke	p	n/a
576.3995	0.09	1152799	keystroke	Key.space	n/a
577.029	0.15	1154058	keystroke	r	n/a
577.119	0.105	1154238	keystroke	e	n/a
577.344	0.15	1154688	keystroke	a	n/a
577.479	0.045	1154958	keystroke	t	n/a
578.1835	0.076	1156367	keystroke	Key.backspace	n/a
578.6945	0.06	1157389	keystroke	r	n/a
578.8135	0.105	1157627	keystroke	Key.space	n/a
579.4145	0.075	1158829	keystroke	e	n/a
579.6695	0.09	1159339	keystroke	h	n/a
580.059	0.09	1160118	keystroke	Key.backspace	n/a
580.194	0.075	1160388	keystroke	t	n/a
580.3285	0.0755	1160657	keystroke	h	n/a
580.449	0.075	1160898	keystroke	i	n/a
580.719	0.0895	1161438	keystroke	c	n/a
580.914	0.09	1161828	keystroke	s	n/a
581.064	0.105	1162128	keystroke	Key.enter	n/a
581.173	9.2225	1162346	prompt	n/a	password style spanish explicit\n
582.054	0.075	1164108	keystroke	p	n/a
582.204	0.135	1164408	keystroke	a	n/a
582.279	0.3305	1164558	keystroke	s	n/a
582.8645	0.105	1165729	keystroke	s	n/a
583.1495	0.09	1166299	keystroke	w	n/a
583.2845	0.075	1166569	keystroke	o	n/a
583.3745	0.0595	1166749	keystroke	r	n/a
583.554	0.09	1167108	keystroke	d	n/a
583.854	0.0905	1167708	keystroke	Key.space	n/a
584.1245	0.105	1168249	keystroke	s	n/a
584.2445	0.12	1168489	keystroke	t	n/a
584.4095	0.075	1168819	keystroke	y	n/a
584.6195	0.075	1169239	keystroke	l	n/a
584.7845	0.06	1169569	keystroke	e	n/a
585.174	0.075	1170348	keystroke	Key.space	n/a
585.414	0.075	1170828	keystroke	s	n/a
585.549	0.075	1171098	keystroke	p	n/a
585.699	0.075	1171398	keystroke	a	n/a
585.9695	0.06	1171939	keystroke	n	n/a
586.1195	0.075	1172239	keystroke	i	n/a
586.2995	0.0595	1172599	keystroke	s	n/a
586.404	0.075	1172808	keystroke	h	n/a
586.824	0.09	1173648	keystroke	Key.space	n/a
587.079	0.06	1174158	keystroke	e	n/a
587.289	0.09	1174578	keystroke	x	n/a
587.424	0.165	1174848	keystroke	p	n/a
587.529	0.09	1175058	keystroke	l	n/a
587.7845	0.0895	1175569	keystroke	i	n/a
588.069	0.0905	1176138	keystroke	i	n/a
588.1735	0.0905	1176347	keystroke	t	n/a
589.299	0.045	1178598	keystroke	Key.backspace	n/a
589.404	0.075	1178808	keystroke	Key.backspace	n/a
589.554	0.075	1179108	keystroke	c	n/a
589.764	0.06	1179528	keystroke	t	n/a
589.8695	0.09	1179739	keystroke	i	n/a
590.3195	0.075	1180639	keystroke	Key.enter	n/a
590.3985	11.037	1180797	prompt	n/a	compensation disposition humanitarian crossing\n
591.8045	0.0895	1183609	keystroke	c	n/a
591.879	0.045	1183758	keystroke	o	n/a
592.059	0.06	1184118	keystroke	m	n/a
592.194	0.075	1184388	keystroke	p	n/a
592.314	0.075	1184628	keystroke	e	n/a
592.434	0.075	1184868	keystroke	n	n/a
592.644	0.06	1185288	keystroke	s	n/a
592.75	0.179	1185500	keystroke	a	n/a
592.869	0.12	1185738	keystroke	t	n/a
592.974	0.09	1185948	keystroke	i	n/a
593.034	0.075	1186068	keystroke	o	n/a
593.184	0.09	1186368	keystroke	n	n/a
593.769	0.1195	1187538	keystroke	Key.space	n/a
594.0385	0.091	1188077	keystroke	d	n/a
594.1445	0.06	1188289	keystroke	i	n/a
594.2345	0.09	1188469	keystroke	s	n/a
594.4145	0.105	1188829	keystroke	p	n/a
594.4595	0.105	1188919	keystroke	o	n/a
594.909	0.09	1189818	keystroke	s	n/a
595.134	0.06	1190268	keystroke	i	n/a
595.389	0.09	1190778	keystroke	t	n/a
595.464	0.1055	1190928	keystroke	i	n/a
595.524	0.1055	1191048	keystroke	o	n/a
595.6745	0.09	1191349	keystroke	n	n/a
596.304	0.105	1192608	keystroke	Key.space	n/a
596.844	0.06	1193688	keystroke	h	n/a
596.979	0.075	1193958	keystroke	u	n/a
597.219	0.075	1194438	keystroke	m	n/a
597.9845	0.09	1195969	keystroke	a	n/a
598.2545	0.075	1196509	keystroke	n	n/a
598.4795	0.06	1196959	keystroke	i	n/a
598.6745	0.09	1197349	keystroke	t	n/a
599.0045	0.105	1198009	keystroke	a	n/a
599.2445	0.045	1198489	keystroke	r	n/a
599.3495	0.06	1198699	keystroke	i	n/a
599.5295	0.075	1199059	keystroke	a	n/a
599.6795	0.06	1199359	keystroke	n	n/a
599.9035	0.09	1199807	keystroke	Key.space	n/a
600.2045	0.105	1200409	keystroke	c	n/a
600.4295	0.075	1200859	keystroke	r	n/a
600.5945	0.06	1201189	keystroke	o	n/a
600.7745	0.09	1201549	keystroke	s	n/a
600.9395	0.06	1201879	keystroke	s	n/a
601.0145	0.105	1202029	keystroke	i	n/a
601.0745	0.09	1202149	keystroke	n	n/a
601.2245	0.09	1202449	keystroke	g	n/a
601.3595	0.074	1202719	keystroke	Key.enter	n/a
601.438	9.688	1202876	prompt	n/a	staffing bolivia corruption price\n
602.3045	0.149	1204609	keystroke	s	n/a
602.3935	0.105	1204787	keystroke	t	n/a
602.5135	0.09	1205027	keystroke	a	n/a
602.754	0.075	1205508	keystroke	f	n/a
602.919	0.12	1205838	keystroke	f	n/a
602.994	0.105	1205988	keystroke	i	n/a
603.054	0.06	1206108	keystroke	n	n/a
603.219	0.06	1206438	keystroke	g	n/a
603.549	0.06	1207098	keystroke	Key.space	n/a
604.3585	0.09	1208717	keystroke	b	n/a
604.4645	0.074	1208929	keystroke	o	n/a
604.6895	0.089	1209379	keystroke	l	n/a
604.8085	0.105	1209617	keystroke	i	n/a
606.009	0.075	1212018	keystroke	v	n/a
606.099	0.075	1212198	keystroke	i	n/a
606.279	0.06	1212558	keystroke	a	n/a
606.879	0.105	1213758	keystroke	Key.space	n/a
607.629	0.09	1215258	keystroke	c	n/a
607.764	0.06	1215528	keystroke	o	n/a
608.004	0.06	1216008	keystroke	r	n/a
608.1535	0.075	1216307	keystroke	r	n/a
608.3185	0.06	1216637	keystroke	u	n/a
608.544	0.06	1217088	keystroke	p	n/a
608.694	0.075	1217388	keystroke	t	n/a
608.754	0.105	1217508	keystroke	i	n/a
608.814	0.09	1217628	keystroke	o	n/a
608.994	0.09	1217988	keystroke	n	n/a
609.339	0.075	1218678	keystroke	Key.space	n/a
610.0885	0.075	1220177	keystroke	p	n/a
610.2235	0.06	1220447	keystroke	r	n/a
610.3435	0.09	1220687	keystroke	i	n/a
610.5985	0.1805	1221197	keystroke	c	n/a
610.719	0.12	1221438	keystroke	e	n/a
611.064	0.06	1222128	keystroke	Key.enter	n/a
611.1295	6.821	1222259	prompt	n/a	program reforms myself topics\n
611.919	0.06	1223838	keystroke	p	n/a
612.009	0.075	1224018	keystroke	r	n/a
612.114	0.075	1224228	keystroke	o	n/a
612.4735	0.181	1224947	keystroke	g	n/a
612.5945	0.135	1225189	keystroke	r	n/a
612.8645	0.075	1225729	keystroke	a	n/a
613.0445	0.06	1226089	keystroke	m	n/a
613.3435	0.075	1226687	keystroke	Key.space	n/a
613.629	0.105	1227258	keystroke	r	n/a
613.689	0.105	1227378	keystroke	e	n/a
613.884	0.105	1227768	keystroke	f	n/a
614.034	0.075	1228068	keystroke	o	n/a
614.124	0.09	1228248	keystroke	r	n/a
614.394	0.06	1228788	keystroke	m	n/a
614.6795	0.045	1229359	keystroke	s	n/a
614.9345	0.0595	1229869	keystroke	Key.space	n/a
615.279	0.075	1230558	keystroke	m	n/a
615.459	0.075	1230918	keystroke	y	n/a
615.564	0.105	1231128	keystroke	s	n/a
615.639	0.06	1231278	keystroke	e	n/a
615.7735	0.075	1231547	keystroke	l	n/a
615.9095	0.0745	1231819	keystroke	f	n/a
616.284	0.075	1232568	keystroke	Key.space	n/a
616.659	0.075	1233318	keystroke	t	n/a
616.914	0.06	1233828	keystroke	o	n/a
617.109	0.15	1234218	keystroke	p	n/a
617.214	0.105	1234428	keystroke	i	n/a
617.484	0.105	1234968	keystroke	c	n/a
617.694	0.075	1235388	keystroke	s	n/a
617.874	0.0745	1235748	keystroke	Key.enter	n/a
617.954	6.927	1235908	prompt	n/a	context mpeg benz tanks\n
618.6985	0.075	1237397	keystroke	c	n/a
618.7585	0.136	1237517	keystroke	o	n/a
618.8485	0.061	1237697	keystroke	n	n/a
618.9385	0.12	1237877	keystroke	t	n/a
619.1795	0.1045	1238359	keystroke	e	n/a
619.554	0.06	1239108	keystroke	x	n/a
619.599	0.045	1239198	keystroke	t	n/a
620.124	0.075	1240248	keystroke	Key.space	n/a
620.454	0.075	1240908	keystroke	m	n/a
620.589	0.09	1241178	keystroke	p	n/a
620.829	0.09	1241658	keystroke	e	n/a
621.204	0.075	1242408	keystroke	g	n/a
621.984	0.0745	1243968	keystroke	Key.space	n/a
622.4185	0.075	1244837	keystroke	b	n/a
622.5385	0.06	1245077	keystroke	e	n/a
622.6435	0.075	1245287	keystroke	n	n/a
622.9285	0.06	1245857	keystroke	z	n/a
623.499	0.075	1246998	keystroke	Key.space	n/a
624.099	0.09	1248198	keystroke	t	n/a
624.2045	0.1045	1248409	keystroke	a	n/a
624.369	0.105	1248738	keystroke	n	n/a
624.489	0.1055	1248978	keystroke	k	n/a
624.6545	0.075	1249309	keystroke	s	n/a
624.789	0.09	1249578	keystroke	Key.enter	n/a
624.8855	9.9705	1249771	prompt	n/a	after flickr phil streaming\n
625.7045	0.09	1251409	keystroke	a	n/a
625.8095	0.074	1251619	keystroke	f	n/a
625.9595	0.105	1251919	keystroke	t	n/a
626.0495	0.1645	1252099	keystroke	e	n/a
626.154	0.105	1252308	keystroke	r	n/a
