onset	duration	sample	value	key	prompt_text
4.028	16.6565	8056	prompt	n/a	the quick brown fox jumps over a lazy dog\n
6.8475	0.0725	13695	keystroke	t	n/a
6.937	0.1215	13874	keystroke	h	n/a
7.1035	0.135	14207	keystroke	e	n/a
7.8275	0.074	15655	keystroke	Key.space	n/a
8.172	0.12	16344	keystroke	q	n/a
8.337	0.075	16674	keystroke	u	n/a
9.222	0.075	18444	keystroke	i	n/a
9.4615	0.09	18923	keystroke	c	n/a
9.626	0.09	19252	keystroke	k	n/a
9.866	0.09	19732	keystroke	Key.space	n/a
11.532	0.0895	23064	keystroke	b	n/a
11.8015	0.105	23603	keystroke	r	n/a
12.0565	0.09	24113	keystroke	o	n/a
12.2365	0.1205	24473	keystroke	w	n/a
12.447	0.0895	24894	keystroke	n	n/a
12.7165	0.075	25433	keystroke	Key.space	n/a
13.677	0.075	27354	keystroke	f	n/a
13.8425	0.105	27685	keystroke	o	n/a
14.127	0.105	28254	keystroke	x	n/a
14.412	0.09	28824	keystroke	Key.space	n/a
14.607	0.09	29214	keystroke	j	n/a
14.8015	0.075	29603	keystroke	u	n/a
15.042	0.105	30084	keystroke	m	n/a
15.357	0.105	30714	keystroke	p	n/a
15.627	0.105	31254	keystroke	s	n/a
15.942	0.075	31884	keystroke	Key.space	n/a
16.107	0.105	32214	keystroke	o	n/a
16.302	0.105	32604	keystroke	v	n/a
16.587	0.18	33174	keystroke	e	n/a
16.722	0.09	33444	keystroke	r	n/a
16.887	0.09	33774	keystroke	Key.space	n/a
17.082	0.0895	34164	keystroke	a	n/a
17.2315	0.0905	34463	keystroke	Key.space	n/a
17.9965	0.106	35993	keystroke	l	n/a
18.282	0.1045	36564	keystroke	a	n/a
18.7465	0.105	37493	keystroke	z	n/a
18.9415	0.09	37883	keystroke	y	n/a
19.1815	0.09	38363	keystroke	Key.space	n/a
19.527	0.09	39054	keystroke	d	n/a
19.722	0.09	39444	keystroke	o	n/a
20.037	0.075	40074	keystroke	g	n/a
20.6065	0.075	41213	keystroke	Key.enter	n/a
20.689	14.47	41378	prompt	n/a	motherboard professionals studio academy\n
21.6115	0.09	43223	keystroke	m	n/a
22.062	0.105	44124	keystroke	o	n/a
22.272	0.12	44544	keystroke	t	n/a
22.437	0.09	44874	keystroke	h	n/a
22.557	0.165	45114	keystroke	e	n/a
22.647	0.12	45294	keystroke	r	n/a
23.172	0.1055	46344	keystroke	b	n/a
23.7575	0.0895	47515	keystroke	o	n/a
24.131	0.0905	48262	keystroke	a	n/a
24.342	0.12	48684	keystroke	r	n/a
24.7465	0.12	49493	keystroke	d	n/a
25.1065	0.075	50213	keystroke	Key.space	n/a
25.4965	0.12	50993	keystroke	p	n/a
25.7065	0.12	51413	keystroke	r	n/a
25.9015	0.1205	51803	keystroke	o	n/a
26.232	0.075	52464	keystroke	f	n/a
26.622	0.12	53244	keystroke	e	n/a
26.9665	0.075	53933	keystroke	s	n/a
27.1465	0.15	54293	keystroke	s	n/a
27.4465	0.0755	54893	keystroke	i	n/a
27.807	0.105	55614	keystroke	o	n/a
28.047	0.12	56094	keystroke	n	n/a
28.767	0.09	57534	keystroke	a	n/a
28.947	0.12	57894	keystroke	l	n/a
29.187	0.0895	58374	keystroke	s	n/a
29.4415	0.075	58883	keystroke	Key.space	n/a
29.907	0.12	59814	keystroke	s	n/a
30.5365	0.045	61073	keystroke	t	n/a
30.7465	0.09	61493	keystroke	u	n/a
31.0615	0.09	62123	keystroke	d	n/a
31.272	0.09	62544	keystroke	i	n/a
31.512	0.105	63024	keystroke	o	n/a
31.752	0.075	63504	keystroke	Key.space	n/a
32.0675	0.12	64135	keystroke	a	n/a
32.5315	0.031	65063	keystroke	c	n/a
33.1315	0.105	66263	keystroke	a	n/a
33.5515	0.09	67103	keystroke	d	n/a
33.852	0.105	67704	keystroke	e	n/a
34.452	0.075	68904	keystroke	m	n/a
34.707	0.075	69414	keystroke	y	n/a
35.052	0.105	70104	keystroke	Key.enter	n/a
35.1625	11.2465	70325	prompt	n/a	party blessed language kenya\n
35.9975	0.089	71995	keystroke	p	n/a
36.1625	0.165	72325	keystroke	a	n/a
36.3415	0.0755	72683	keystroke	r	n/a
37.107	0.075	74214	keystroke	t	n/a
37.347	0.09	74694	keystroke	y	n/a
37.602	0.09	75204	keystroke	Key.space	n/a
37.932	0.09	75864	keystroke	b	n/a
38.217	0.03	76434	keystroke	e	n/a
39.2515	0.045	78503	keystroke	Key.backspace	n/a
39.9725	0.09	79945	keystroke	l	n/a
40.1225	0.15	80245	keystroke	e	n/a
40.437	0.075	80874	keystroke	s	n/a
40.587	0.12	81174	keystroke	s	n/a
40.827	0.105	81654	keystroke	e	n/a
41.112	0.0895	82224	keystroke	d	n/a
41.727	0.09	83454	keystroke	Key.space	n/a
42.057	0.075	84114	keystroke	l	n/a
42.2515	0.12	84503	keystroke	a	n/a
42.5075	0.09	85015	keystroke	n	n/a
42.7775	0.09	85555	keystroke	g	n/a
43.002	0.075	86004	keystroke	u	n/a
43.377	0.09	86754	keystroke	a	n/a
44.0075	0.0895	88015	keystroke	g	n/a
44.3075	0.105	88615	keystroke	e	n/a
44.6065	0.09	89213	keystroke	Key.space	n/a
45.132	0.06	90264	keystroke	k	n/a
45.3875	0.075	90775	keystroke	e	n/a
45.5225	0.09	91045	keystroke	n	n/a
45.7615	0.09	91523	keystroke	y	n/a
46.017	0.09	92034	keystroke	a	n/a
46.3025	0.104	92605	keystroke	Key.enter	n/a
46.412	15.0185	92824	prompt	n/a	telecommunications relay pediatric ultra\n
47.142	0.1045	94284	keystroke	t	n/a
47.3825	0.135	94765	keystroke	e	n/a
47.9825	0.045	95965	keystroke	l	n/a
48.582	0.075	97164	keystroke	e	n/a
48.897	0.09	97794	keystroke	c	n/a
49.182	0.1045	98364	keystroke	o	n/a
49.542	0.075	99084	keystroke	m	n/a
49.722	0.06	99444	keystroke	m	n/a
50.1275	0.09	100255	keystroke	u	n/a
50.4125	0.0895	100825	keystroke	n	n/a
50.667	0.06	101334	keystroke	i	n/a
50.922	0.0905	101844	keystroke	c	n/a
51.192	0.12	102384	keystroke	a	n/a
51.4475	0.105	102895	keystroke	t	n/a
51.6125	0.09	103225	keystroke	i	n/a
51.8225	0.105	103645	keystroke	o	n/a
52.0015	0.091	104003	keystroke	n	n/a
52.1815	0.09	104363	keystroke	s	n/a
52.3915	0.09	104783	keystroke	Key.space	n/a
52.7215	0.1355	105443	keystroke	r	n/a
54.147	0.105	108294	keystroke	e	n/a
54.357	0.105	108714	keystroke	l	n/a
54.5665	0.09	109133	keystroke	a	n/a
54.686	0.09	109372	keystroke	y	n/a
54.9405	0.075	109881	keystroke	Key.space	n/a
55.18	0.1045	110360	keystroke	p	n/a
55.673	0.12	111346	keystroke	e	n/a
55.9725	0.0895	111945	keystroke	d	n/a
56.346	0.06	112692	keystroke	i	n/a
57.199	0.09	114398	keystroke	a	n/a
58.142	0.091	116284	keystroke	t	n/a
58.4125	0.0895	116825	keystroke	r	n/a
58.622	0.0605	117244	keystroke	i	n/a
58.8185	0.0745	117637	keystroke	c	n/a
59.057	0.09	118114	keystroke	Key.space	n/a
59.4325	0.1195	118865	keystroke	u	n/a
59.973	0.0895	119946	keystroke	l	n/a
60.167	0.1065	120334	keystroke	t	n/a
60.7375	0.077	121475	keystroke	r	n/a
61.0685	0.09	122137	keystroke	a	n/a
61.323	0.1055	122646	keystroke	Key.enter	n/a
61.4335	13.9025	122867	prompt	n/a	hammer enabling palestine java\n
62.1625	0.0745	124325	keystroke	h	n/a
62.343	0.105	124686	keystroke	a	n/a
62.538	0.075	125076	keystroke	m	n/a
62.733	0.0745	125466	keystroke	m	n/a
63.0335	0.2095	126067	keystroke	e	n/a
63.198	0.1045	126396	keystroke	r	n/a
63.4085	0.0895	126817	keystroke	Key.space	n/a
63.7825	0.1065	127565	keystroke	e	n/a
63.9335	0.12	127867	keystroke	n	n/a
64.3525	0.136	128705	keystroke	a	n/a
64.757	0.075	129514	keystroke	b	n/a
65.073	0.075	130146	keystroke	l	n/a
65.2825	0.06	130565	keystroke	i	n/a
65.4625	0.0605	130925	keystroke	n	n/a
65.583	0.0895	131166	keystroke	g	n/a
65.7175	0.105	131435	keystroke	Key.space	n/a
66.1225	0.091	132245	keystroke	p	n/a
66.422	0.091	132844	keystroke	a	n/a
66.9025	0.09	133805	keystroke	l	n/a
67.1435	0.134	134287	keystroke	e	n/a
67.5485	0.105	135097	keystroke	s	n/a
67.863	0.0745	135726	keystroke	t	n/a
67.9825	0.091	135965	keystroke	i	n/a
68.2685	0.0145	136537	keystroke	n	n/a
68.8975	0.105	137795	keystroke	e	n/a
69.1685	0.09	138337	keystroke	Key.space	n/a
69.5425	0.0745	139085	keystroke	j	n/a
69.753	0.12	139506	keystroke	a	n/a
69.9775	0.105	139955	keystroke	v	n/a
70.2635	0.1195	140527	keystroke	e	n/a
72.4995	0.001	144999	keystroke	Key.backspace	n/a
72.8435	0.015	145687	keystroke	Key.backspace	n/a
72.963	0.06	145926	keystroke	Key.backspace	n/a
74.5395	0.1035	149079	keystroke	a	n/a
74.794	0.09	149588	keystroke	v	n/a
75.019	0.135	150038	keystroke	e	n/a
75.229	0.1045	150458	keystroke	Key.enter	n/a
75.3405	9.835	150681	prompt	n/a	writer premiere stamps quantity\n
76.399	0.09	152798	keystroke	w	n/a
76.6375	0.135	153275	keystroke	r	n/a
77.1785	0.0595	154357	keystroke	i	n/a
77.358	0.09	154716	keystroke	t	n/a
77.554	0.164	155108	keystroke	e	n/a
77.6585	0.1045	155317	keystroke	r	n/a
77.793	0.105	155586	keystroke	Key.space	n/a
78.0185	0.12	156037	keystroke	p	n/a
78.5135	0.1045	157027	keystroke	r	n/a
78.753	0.1195	157506	keystroke	e	n/a
79.0695	0.104	158139	keystroke	m	n/a
79.338	0.075	158676	keystroke	i	n/a
79.564	0.119	159128	keystroke	e	n/a
79.863	0.1345	159726	keystroke	r	n/a
80.058	0.12	160116	keystroke	e	n/a
80.2675	0.09	160535	keystroke	Key.space	n/a
80.507	0.1365	161014	keystroke	s	n/a
80.7485	0.1495	161497	keystroke	t	n/a
81.079	0.075	162158	keystroke	a	n/a
81.634	0.09	163268	keystroke	m	n/a
81.8585	0.105	163717	keystroke	p	n/a
82.0525	0.1065	164105	keystroke	s	n/a
82.219	0.0895	164438	keystroke	Key.space	n/a
82.5645	0.1345	165129	keystroke	q	n/a
82.744	0.0895	165488	keystroke	u	n/a
83.1185	0.12	166237	keystroke	a	n/a
83.2685	0.1055	166537	keystroke	n	n/a
83.794	0.0885	167588	keystroke	t	n/a
83.958	0.075	167916	keystroke	i	n/a
84.543	0.09	169086	keystroke	t	n/a
84.694	0.0895	169388	keystroke	y	n/a
85.0835	0.0895	170167	keystroke	Key.enter	n/a
85.181	8.8445	170362	prompt	n/a	reader part southern lingerie\n
85.8635	0.121	171727	keystroke	r	n/a
86.103	0.121	172206	keystroke	e	n/a
86.4485	0.105	172897	keystroke	a	n/a
86.733	0.0755	173466	keystroke	d	n/a
87.034	0.1645	174068	keystroke	e	n/a
87.1535	0.12	174307	keystroke	r	n/a
87.3785	0.09	174757	keystroke	Key.space	n/a
87.618	0.105	175236	keystroke	p	n/a
87.753	0.1505	175506	keystroke	a	n/a
87.8735	0.12	175747	keystroke	r	n/a
88.0985	0.1045	176197	keystroke	t	n/a
88.278	0.0755	176556	keystroke	Key.space	n/a
88.6235	0.09	177247	keystroke	s	n/a
88.9695	0.149	177939	keystroke	o	n/a
89.2085	0.06	178417	keystroke	u	n/a
89.4935	0.105	178987	keystroke	t	n/a
89.7485	0.0745	179497	keystroke	h	n/a
90.1835	0.1945	180367	keystroke	e	n/a
90.318	0.135	180636	keystroke	r	n/a
90.558	0.09	181116	keystroke	n	n/a
90.8425	0.0755	181685	keystroke	Key.space	n/a
91.413	0.0905	182826	keystroke	l	n/a
91.803	0.075	183606	keystroke	i	n/a
91.9695	0.0895	183939	keystroke	n	n/a
92.2685	0.0895	184537	keystroke	g	n/a
92.6135	0.1345	185227	keystroke	e	n/a
93.004	0.09	186008	keystroke	r	n/a
93.2735	0.06	186547	keystroke	i	n/a
93.514	0.09	187028	keystroke	e	n/a
93.9185	0.1055	187837	keystroke	Key.enter	n/a
94.0285	20.7275	188057	prompt	n/a	palmer decisions javascript special\n
94.8045	0.1045	189609	keystroke	p	n/a
95.044	0.105	190088	keystroke	a	n/a
95.209	0.1195	190418	keystroke	l	n/a
95.6295	0.1045	191259	keystroke	m	n/a
96.244	0.15	192488	keystroke	e	n/a
96.334	0.1345	192668	keystroke	r	n/a
96.5585	0.0915	193117	keystroke	Key.space	n/a
97.0085	0.1055	194017	keystroke	d	n/a
97.264	0.1645	194528	keystroke	e	n/a
97.715	0.1045	195430	keystroke	c	n/a
98.029	0.075	196058	keystroke	i	n/a
98.254	0.09	196508	keystroke	s	n/a
98.494	0.09	196988	keystroke	i	n/a
98.704	0.105	197408	keystroke	o	n/a
98.884	0.1045	197768	keystroke	n	n/a
99.0485	0.12	198097	keystroke	s	n/a
99.2135	0.09	198427	keystroke	Key.space	n/a
99.4985	0.106	198997	keystroke	j	n/a
99.7235	0.135	199447	keystroke	a	n/a
100.0235	0.09	200047	keystroke	v	n/a
100.5185	0.106	201037	keystroke	a	n/a
100.999	0.135	201998	keystroke	s	n/a
101.704	0.09	203408	keystroke	c	n/a
102.1685	0.0905	204337	keystroke	r	n/a
102.409	0.075	204818	keystroke	i	n/a
102.844	0.09	205688	keystroke	p	n/a
103.054	0.0905	206108	keystroke	t	n/a
103.264	0.09	206528	keystroke	Key.space	n/a
104.644	0.0905	209288	keystroke	Key.backspace	n/a
104.8845	0.0745	209769	keystroke	Key.backspace	n/a
105.079	0.075	210158	keystroke	Key.backspace	n/a
105.3035	0.091	210607	keystroke	Key.backspace	n/a
105.6045	0.1055	211209	keystroke	Key.backspace	n/a
105.815	0.0745	211630	keystroke	Key.backspace	n/a
106.0095	0.09	212019	keystroke	Key.backspace	n/a
106.2045	0.105	212409	keystroke	Key.backspace	n/a
106.3995	0.105	212799	keystroke	Key.backspace	n/a
106.579	0.0905	213158	keystroke	Key.backspace	n/a
108.2745	0.15	216549	keystroke	a	n/a
108.6345	0.15	217269	keystroke	v	n/a
109.009	0.135	218018	keystroke	a	n/a
109.579	0.15	219158	keystroke	s	n/a
109.9395	0.1345	219879	keystroke	c	n/a
110.3145	0.1345	220629	keystroke	r	n/a
110.795	0.105	221590	keystroke	i	n/a
111.1245	0.105	222249	keystroke	p	n/a
111.319	0.105	222638	keystroke	t	n/a
111.784	0.09	223568	keystroke	Key.space	n/a
112.3245	0.1045	224649	keystroke	s	n/a
112.564	0.105	225128	keystroke	p	n/a
113.1045	0.1195	226209	keystroke	e	n/a
113.779	0.06	227558	keystroke	c	n/a
113.9595	0.075	227919	keystroke	i	n/a
114.124	0.1205	228248	keystroke	a	n/a
114.349	0.091	228698	keystroke	l	n/a
114.6495	0.1045	229299	keystroke	Key.enter	n/a
114.759	12.597	229518	prompt	n/a	objectives programming phentermine reception\n
115.639	0.075	231278	keystroke	o	n/a
115.9695	0.12	231939	keystroke	b	n/a
116.4485	0.076	232897	keystroke	j	n/a
116.674	0.135	233348	keystroke	e	n/a
116.9895	0.09	233979	keystroke	c	n/a
117.2445	0.089	234489	keystroke	t	n/a
117.4085	0.075	234817	keystroke	i	n/a
117.694	0.09	235388	keystroke	v	n/a
118.009	0.1045	236018	keystroke	e	n/a
118.2485	0.105	236497	keystroke	s	n/a
118.399	0.105	236798	keystroke	Key.space	n/a
118.654	0.1205	237308	keystroke	p	n/a
118.8045	0.135	237609	keystroke	r	n/a
118.9995	0.12	237999	keystroke	o	n/a
119.344	0.12	238688	keystroke	g	n/a
119.674	0.09	239348	keystroke	r	n/a
119.9595	0.1045	239919	keystroke	a	n/a
120.199	0.09	240398	keystroke	m	n/a
120.394	0.0605	240788	keystroke	m	n/a
120.5745	0.06	241149	keystroke	i	n/a
120.7095	0.1055	241419	keystroke	n	n/a
120.83	0.0745	241660	keystroke	g	n/a
120.9645	0.1045	241929	keystroke	Key.space	n/a
121.5045	0.105	243009	keystroke	p	n/a
121.819	0.075	243638	keystroke	h	n/a
122.2235	0.105	244447	keystroke	e	n/a
122.5245	0.0745	245049	keystroke	n	n/a
122.794	0.105	245588	keystroke	t	n/a
123.1845	0.2095	246369	keystroke	e	n/a
123.334	0.106	246668	keystroke	r	n/a
123.59	0.09	247180	keystroke	m	n/a
123.815	0.09	247630	keystroke	i	n/a
124.0245	0.09	248049	keystroke	n	n/a
124.3545	0.1055	248709	keystroke	e	n/a
124.715	0.075	249430	keystroke	Key.space	n/a
125.2695	0.15	250539	keystroke	r	n/a
125.495	0.165	250990	keystroke	e	n/a
125.84	0.119	251680	keystroke	c	n/a
126.064	0.1505	252128	keystroke	e	n/a
126.2595	0.105	252519	keystroke	p	n/a
126.484	0.105	252968	keystroke	t	n/a
126.604	0.0905	253208	keystroke	i	n/a
126.7845	0.12	253569	keystroke	o	n/a
126.994	0.0905	253988	keystroke	n	n/a
127.2645	0.09	254529	keystroke	Key.enter	n/a
127.359	14.4275	254718	prompt	n/a	organisms sussex earnings reaction\n
128.2545	0.06	256509	keystroke	o	n/a
128.4795	0.1205	256959	keystroke	r	n/a
130.1745	0.075	260349	keystroke	g	n/a
130.745	0.105	261490	keystroke	a	n/a
131.15	0.0745	262300	keystroke	n	n/a
131.525	0.06	263050	keystroke	i	n/a
131.705	0.12	263410	keystroke	s	n/a
131.944	0.0905	263888	keystroke	m	n/a
132.1995	0.105	264399	keystroke	s	n/a
132.53	0.105	265060	keystroke	Key.space	n/a
132.8295	0.1055	265659	keystroke	s	n/a
132.8895	0.1205	265779	keystroke	u	n/a
133.4595	0.03	266919	keystroke	s	n/a
133.58	0.1045	267160	keystroke	s	n/a
133.97	0.135	267940	keystroke	e	n/a
134.4645	0.135	268929	keystroke	x	n/a
134.78	0.1045	269560	keystroke	Key.space	n/a
135.365	0.15	270730	keystroke	e	n/a
135.6945	0.1345	271389	keystroke	a	n/a
135.7845	0.15	271569	keystroke	r	n/a
136.129	0.0895	272258	keystroke	n	n/a
136.3085	0.0905	272617	keystroke	i	n/a
136.474	0.075	272948	keystroke	n	n/a
136.504	0.0895	273008	keystroke	g	n/a
137.375	0.09	274750	keystroke	s	n/a
138.1395	0.015	276279	keystroke	Key.space	n/a
138.499	0.151	276998	keystroke	r	n/a
138.815	0.12	277630	keystroke	e	n/a
139.28	0.134	278560	keystroke	a	n/a
139.549	0.0905	279098	keystroke	c	n/a
139.7745	0.09	279549	keystroke	t	n/a
139.8945	0.09	279789	keystroke	i	n/a
140.0895	0.1045	280179	keystroke	o	n/a
140.284	0.105	280568	keystroke	n	n/a
141.6945	0.09	283389	keystroke	Key.enter	n/a
141.7915	18.129	283583	prompt	n/a	studying madrid remedy diversity\n
142.7005	0.104	285401	keystroke	s	n/a
142.91	0.105	285820	keystroke	t	n/a
143.105	0.09	286210	keystroke	u	n/a
143.2695	0.135	286539	keystroke	d	n/a
143.5095	0.0905	287019	keystroke	i	n/a
143.675	0.105	287350	keystroke	n	n/a
143.825	0.105	287650	keystroke	g	n/a
144.005	0.12	288010	keystroke	Key.space	n/a
144.515	0.075	289030	keystroke	m	n/a
145.294	0.0755	290588	keystroke	Key.backspace	n/a
145.5195	0.06	291039	keystroke	Key.backspace	n/a
145.6995	0.075	291399	keystroke	Key.backspace	n/a
145.8945	0.0755	291789	keystroke	Key.backspace	n/a
146.09	0.105	292180	keystroke	Key.backspace	n/a
146.3	0.09	292600	keystroke	Key.backspace	n/a
147.29	0.1045	294580	keystroke	d	n/a
147.5445	0.09	295089	keystroke	y	n/a
147.845	0.06	295690	keystroke	i	n/a
147.98	0.09	295960	keystroke	n	n/a
148.16	0.09	296320	keystroke	g	n/a
148.37	0.105	296740	keystroke	Key.space	n/a
148.7595	0.105	297519	keystroke	m	n/a
148.9695	0.12	297939	keystroke	a	n/a
149.7195	0.105	299439	keystroke	d	n/a
149.9895	0.15	299979	keystroke	r	n/a
150.2145	0.09	300429	keystroke	i	n/a
150.4845	0.12	300969	keystroke	d	n/a
150.7395	0.09	301479	keystroke	Key.space	n/a
151.2055	0.149	302411	keystroke	r	n/a
151.4295	0.135	302859	keystroke	e	n/a
154.252	0.001	308504	keystroke	m	n/a
154.355	0.1495	308710	keystroke	e	n/a
154.64	0.09	309280	keystroke	d	n/a
154.9545	0.09	309909	keystroke	y	n/a
155.1945	0.1055	310389	keystroke	Key.space	n/a
155.6145	0.105	311229	keystroke	d	n/a
155.9145	0.0605	311829	keystroke	i	n/a
156.2895	0.1355	312579	keystroke	v	n/a
157.58	0.135	315160	keystroke	e	n/a
157.88	0.1495	315760	keystroke	r	n/a
158.18	0.135	316360	keystroke	s	n/a
159.1545	0.075	318309	keystroke	i	n/a
159.3795	0.105	318759	keystroke	t	n/a
159.5445	0.0895	319089	keystroke	y	n/a
159.7995	0.119	319599	keystroke	Key.enter	n/a
159.924	13.4225	319848	prompt	n/a	beds studied trader judgment\n
160.1595	0.0295	320319	keystroke	k	n/a
160.7605	0.104	321521	keystroke	b	n/a
161.0295	0.135	322059	keystroke	e	n/a
161.3445	0.09	322689	keystroke	d	n/a
161.5695	0.12	323139	keystroke	s	n/a
161.735	0.09	323470	keystroke	Key.space	n/a
161.9595	0.1205	323919	keystroke	s	n/a
162.2	0.12	324400	keystroke	t	n/a
162.38	0.09	324760	keystroke	u	n/a
163.295	0.09	326590	keystroke	Key.backspace	n/a
163.52	0.06	327040	keystroke	Key.backspace	n/a
163.6845	0.06	327369	keystroke	Key.backspace	n/a
163.8495	0.06	327699	keystroke	Key.backspace	n/a
164.0145	0.06	328029	keystroke	Key.backspace	n/a
164.18	0.075	328360	keystroke	Key.backspace	n/a
164.4505	0.0895	328901	keystroke	Key.backspace	n/a
164.66	0.09	329320	keystroke	Key.backspace	n/a
164.8855	0.06	329771	keystroke	Key.backspace	n/a
165.0805	0.045	330161	keystroke	Key.backspace	n/a
165.725	0.075	331450	keystroke	b	n/a
165.9805	0.135	331961	keystroke	e	n/a
166.34	0.105	332680	keystroke	d	n/a
166.67	0.09	333340	keystroke	s	n/a
166.925	0.09	333850	keystroke	Key.space	n/a
167.195	0.135	334390	keystroke	s	n/a
167.8705	0.09	335741	keystroke	t	n/a
168.0055	0.0895	336011	keystroke	u	n/a
168.245	0.12	336490	keystroke	d	n/a
168.455	0.06	336910	keystroke	i	n/a
168.665	0.1495	337330	keystroke	e	n/a
168.9645	0.1055	337929	keystroke	d	n/a
169.19	0.0895	338380	keystroke	Key.space	n/a
169.3245	0.12	338649	keystroke	t	n/a
169.595	0.15	339190	keystroke	r	n/a
169.955	0.1205	339910	keystroke	a	n/a
170.3	0.09	340600	keystroke	d	n/a
170.525	0.1945	341050	keystroke	e	n/a
170.6895	0.1055	341379	keystroke	r	n/a
170.84	0.12	341680	keystroke	Key.space	n/a
171.125	0.12	342250	keystroke	j	n/a
171.35	0.075	342700	keystroke	u	n/a
171.9355	0.105	343871	keystroke	d	n/a
172.3695	0.0905	344739	keystroke	g	n/a
172.595	0.075	345190	keystroke	m	n/a
172.715	0.12	345430	keystroke	e	n/a
172.865	0.12	345730	keystroke	n	n/a
173	0.09	346000	keystroke	t	n/a
173.225	0.1205	346450	keystroke	Key.enter	n/a
173.35	14.442	346700	prompt	n/a	pixels who'll recommendation rules\n
174.11	0.09	348220	keystroke	p	n/a
174.365	0.075	348730	keystroke	i	n/a
174.7105	0.1195	349421	keystroke	x	n/a
174.995	0.12	349990	keystroke	e	n/a
175.19	0.09	350380	keystroke	l	n/a
175.37	0.09	350740	keystroke	s	n/a
175.58	0.12	351160	keystroke	Key.space	n/a
176.045	0.105	352090	keystroke	w	n/a
176.21	0.1205	352420	keystroke	h	n/a
176.5555	0.12	353111	keystroke	o	n/a
177.4095	0.09	354819	keystroke	'	n/a
178.4145	0.075	356829	keystroke	o	n/a
178.6095	0.09	357219	keystroke	o	n/a
178.94	0.09	357880	keystroke	Key.space	n/a
179.7955	0.06	359591	keystroke	Key.backspace	n/a
180.155	0.0905	360310	keystroke	Key.backspace	n/a
180.8005	0.075	361601	keystroke	Key.backspace	n/a
181.58	0.075	363160	keystroke	l	n/a
181.82	0.075	363640	keystroke	l	n/a
182.585	0.09	365170	keystroke	Key.space	n/a
182.8845	0.1205	365769	keystroke	r	n/a
183.11	0.1355	366220	keystroke	e	n/a
183.5005	0.0895	367001	keystroke	c	n/a
183.71	0.105	367420	keystroke	o	n/a
183.95	0.06	367900	keystroke	m	n/a
184.1155	0.075	368231	keystroke	m	n/a
184.31	0.12	368620	keystroke	e	n/a
184.46	0.105	368920	keystroke	n	n/a
184.6855	0.12	369371	keystroke	d	n/a
185.0005	0.12	370001	keystroke	a	n/a
185.2105	0.105	370421	keystroke	t	n/a
185.3605	0.09	370721	keystroke	i	n/a
185.5555	0.075	371111	keystroke	o	n/a
185.705	0.09	371410	keystroke	n	n/a
185.9445	0.105	371889	keystroke	Key.space	n/a
186.1995	0.12	372399	keystroke	r	n/a
186.409	0.075	372818	keystroke	u	n/a
187.0845	0.09	374169	keystroke	l	n/a
187.3105	0.105	374621	keystroke	e	n/a
187.5205	0.1195	375041	keystroke	s	n/a
187.6855	0.105	375371	keystroke	Key.enter	n/a
187.795	39.507	375590	prompt	n/a	experience patrick wikipedia stroke\n
188.5555	0.1655	377111	keystroke	e	n/a
189.0055	0.135	378011	keystroke	x	n/a
189.3645	0.0915	378729	keystroke	p	n/a
189.6655	0.1195	379331	keystroke	r	n/a
190.595	0.06	381190	keystroke	Key.backspace	n/a
190.8505	0.1645	381701	keystroke	e	n/a
190.9705	0.12	381941	keystroke	r	n/a
191.42	0.075	382840	keystroke	i	n/a
192.1105	0.075	384221	keystroke	n	n/a
192.455	0.12	384910	keystroke	c	n/a
192.695	0.105	385390	keystroke	e	n/a
192.92	0.09	385840	keystroke	Key.space	n/a
193.7145	0.09	387429	keystroke	Key.backspace	n/a
193.9245	0.075	387849	keystroke	Key.backspace	n/a
194.105	0.0755	388210	keystroke	Key.backspace	n/a
194.3005	0.09	388601	keystroke	Key.backspace	n/a
194.4805	0.0895	388961	keystroke	Key.backspace	n/a
194.675	0.09	389350	keystroke	Key.backspace	n/a
195.8605	0.105	391721	keystroke	r	n/a
196.4305	0.0755	392861	keystroke	i	n/a
196.865	0.1355	393730	keystroke	e	n/a
197.2405	0.09	394481	keystroke	n	n/a
197.4655	0.15	394931	keystroke	c	n/a
197.7505	0.1045	395501	keystroke	e	n/a
198.7105	0.104	397421	keystroke	Key.space	n/a
199.49	0.09	398980	keystroke	p	n/a
199.701	0.1345	399402	keystroke	a	n/a
199.9255	0.135	399851	keystroke	t	n/a
200.1805	0.135	400361	keystroke	r	n/a
200.3605	0.075	400721	keystroke	i	n/a
200.555	0.075	401110	keystroke	c	n/a
200.705	0.06	401410	keystroke	k	n/a
201.2305	0.119	402461	keystroke	w	n/a
201.4845	0.075	402969	keystroke	i	n/a
201.83	0.075	403660	keystroke	k	n/a
202.1	0.06	404200	keystroke	i	n/a
202.445	0.105	404890	keystroke	p	n/a
202.73	0.12	405460	keystroke	e	n/a
203.42	0.045	406840	keystroke	d	n/a
203.585	0.075	407170	keystroke	i	n/a
203.7955	0.105	407591	keystroke	a	n/a
203.9905	0.105	407981	keystroke	Key.space	n/a
204.2905	0.1195	408581	keystroke	s	n/a
207.2305	0.105	414461	keystroke	Key.backspace	n/a
207.4555	0.06	414911	keystroke	Key.backspace	n/a
207.6355	0.105	415271	keystroke	Key.backspace	n/a
209.6005	0.075	419201	keystroke	k	n/a
210.516	0.105	421032	keystroke	Key.space	n/a
211.0855	0.105	422171	keystroke	w	n/a
211.416	0.075	422832	keystroke	i	n/a
211.716	0.075	423432	keystroke	k	n/a
212.24	0.075	424480	keystroke	i	n/a
212.54	0.105	425080	keystroke	p	n/a
212.81	0.151	425620	keystroke	e	n/a
213.156	0.0895	426312	keystroke	d	n/a
213.4405	0.06	426881	keystroke	i	n/a
214.5655	0.1195	429131	keystroke	a	n/a
215.2255	0.09	430451	keystroke	Key.backspace	n/a
215.4205	0.09	430841	keystroke	Key.backspace	n/a
216.7855	0.09	433571	keystroke	Key.backspace	n/a
216.9805	0.0905	433961	keystroke	Key.backspace	n/a
217.1755	0.255	434351	keystroke	Key.backspace	n/a
219.0805	0.21	438161	keystroke	r	n/a
219.3055	0.075	438611	keystroke	i	n/a
219.5605	0.105	439121	keystroke	c	n/a
219.6955	0.075	439391	keystroke	k	n/a
220.056	0.1045	440112	keystroke	Key.space	n/a
221.166	0.135	442332	keystroke	w	n/a
221.376	0.09	442752	keystroke	i	n/a
221.706	0.06	443412	keystroke	k	n/a
221.9305	0.06	443861	keystroke	i	n/a
222.2605	0.09	444521	keystroke	p	n/a
222.5005	0.1505	445001	keystroke	e	n/a
222.921	0.09	445842	keystroke	d	n/a
223.086	0.06	446172	keystroke	i	n/a
223.266	0.1055	446532	keystroke	a	n/a
223.4765	0.119	446953	keystroke	Key.space	n/a
223.716	0.12	447432	keystroke	s	n/a
223.926	0.12	447852	keystroke	t	n/a
224.1965	0.1345	448393	keystroke	r	n/a
225.756	0.09	451512	keystroke	o	n/a
226.401	0.075	452802	keystroke	k	n/a
226.5655	0.105	453131	keystroke	e	n/a
226.835	0.09	453670	keystroke	Key.space	n/a
227.21	0.09	454420	keystroke	Key.enter	n/a
227.305	17.5465	454610	prompt	n/a	bars firefox devices evanescence\n
228.0505	0.1055	456101	keystroke	b	n/a
228.291	0.165	456582	keystroke	a	n/a
228.441	0.15	456882	keystroke	r	n/a
228.801	0.105	457602	keystroke	s	n/a
228.966	0.12	457932	keystroke	Key.space	n/a
229.2355	0.0755	458471	keystroke	f	n/a
229.3855	0.075	458771	keystroke	i	n/a
229.5805	0.15	459161	keystroke	r	n/a
229.8205	0.1055	459641	keystroke	e	n/a
230.526	0.105	461052	keystroke	g	n/a
230.8705	0.09	461741	keystroke	o	n/a
231.1855	0.06	462371	keystroke	x	n/a
231.695	0.075	463390	keystroke	Key.backspace	n/a
231.935	0.09	463870	keystroke	Key.backspace	n/a
232.115	0.045	464230	keystroke	Key.backspace	n/a
232.3705	0.1055	464741	keystroke	f	n/a
232.6855	0.09	465371	keystroke	o	n/a
232.986	0.105	465972	keystroke	x	n/a
233.4805	0.0605	466961	keystroke	Key.space	n/a
233.9605	0.105	467921	keystroke	d	n/a
234.186	0.165	468372	keystroke	e	n/a
234.5455	0.105	469091	keystroke	c	n/a
234.7705	0.06	469541	keystroke	i	n/a
234.9655	0.12	469931	keystroke	e	n/a
235.715	0.075	471430	keystroke	=	n/a
235.925	0.06	471850	keystroke	Key.backspace	n/a
236.7195	0.1505	473439	keystroke	Key.backspace	n/a
236.885	0.121	473770	keystroke	Key.backspace	n/a
237.11	0.105	474220	keystroke	Key.backspace	n/a
237.335	0.076	474670	keystroke	Key.backspace	n/a
237.53	0.046	475060	keystroke	Key.backspace	n/a
238.415	0.045	476830	keystroke	Key.space	n/a
238.9555	0.12	477911	keystroke	d	n/a
239.2705	0.165	478541	keystroke	e	n/a
239.6	0.1355	479200	keystroke	v	n/a
239.8255	0.06	479651	keystroke	i	n/a
239.976	0.1345	479952	keystroke	c	n/a
240.1855	0.15	480371	keystroke	e	n/a
240.4105	0.1045	480821	keystroke	s	n/a
240.515	0.12	481030	keystroke	Key.space	n/a
240.9205	0.1795	481841	keystroke	e	n/a
241.16	0.09	482320	keystroke	n	n/a
242.03	0.135	484060	keystroke	a	n/a
242.195	0.1205	484390	keystroke	n	n/a
242.525	0.12	485050	keystroke	e	n/a
242.885	0.1355	485770	keystroke	s	n/a
243.4845	0.135	486969	keystroke	c	n/a
243.785	0.12	487570	keystroke	e	n/a
243.95	0.09	487900	keystroke	n	n/a
244.235	0.09	488470	keystroke	c	n/a
244.43	0.1045	488860	keystroke	e	n/a
244.744	0.105	489488	keystroke	Key.enter	n/a
244.8545	13.933	489709	prompt	n/a	realtor feature herbal hero\n
245.63	0.1495	491260	keystroke	r	n/a
245.8695	0.1055	491739	keystroke	e	n/a
246.14	0.09	492280	keystroke	l	n/a
246.5745	0.0905	493149	keystroke	t	n/a
246.725	0.09	493450	keystroke	o	n/a
246.92	0.1055	493840	keystroke	r	n/a
247.0555	0.135	494111	keystroke	Key.space	n/a
247.3405	0.1045	494681	keystroke	f	n/a
248.375	0.075	496750	keystroke	Key.backspace	n/a
248.5545	0.075	497109	keystroke	Key.backspace	n/a
248.749	0.09	497498	keystroke	Key.backspace	n/a
248.944	0.09	497888	keystroke	Key.backspace	n/a
249.1395	0.09	498279	keystroke	Key.backspace	n/a
249.3345	0.09	498669	keystroke	Key.backspace	n/a
249.725	0.075	499450	keystroke	Key.backspace	n/a
250.0405	0.075	500081	keystroke	Key.backspace	n/a
250.4905	0.135	500981	keystroke	r	n/a
250.9555	0.3455	501911	keystroke	e	n/a
251.8105	0.135	503621	keystroke	a	n/a
252.5155	0.105	505031	keystroke	l	n/a
252.845	0.09	505690	keystroke	t	n/a
253.0105	0.105	506021	keystroke	o	n/a
253.175	0.106	506350	keystroke	r	n/a
253.3845	0.1205	506769	keystroke	Key.space	n/a
253.655	0.12	507310	keystroke	f	n/a
254.1795	0.0905	508359	keystroke	e	n/a
254.495	0.12	508990	keystroke	a	n/a
254.72	0.1345	509440	keystroke	t	n/a
254.9445	0.09	509889	keystroke	u	n/a
255.1395	0.15	510279	keystroke	r	n/a
255.3645	0.105	510729	keystroke	e	n/a
255.5895	0.105	511179	keystroke	Key.space	n/a
256.115	0.075	512230	keystroke	h	n/a
256.325	0.15	512650	keystroke	e	n/a
256.43	0.12	512860	keystroke	r	n/a
256.76	0.105	513520	keystroke	b	n/a
256.97	0.12	513940	keystroke	a	n/a
257.12	0.105	514240	keystroke	l	n/a
257.36	0.09	514720	keystroke	Key.space	n/a
257.6005	0.075	515201	keystroke	h	n/a
257.811	0.135	515622	keystroke	e	n/a
258.095	0.105	516190	keystroke	r	n/a
258.291	0.1045	516582	keystroke	o	n/a
258.696	0.09	517392	keystroke	Key.enter	n/a
258.7925	10.2995	517585	prompt	n/a	pound crucial daniel cell\n
259.505	0.09	519010	keystroke	p	n/a
259.7755	0.1045	519551	keystroke	o	n/a
259.925	0.1495	519850	keystroke	u	n/a
260.1945	0.105	520389	keystroke	n	n/a
260.375	0.09	520750	keystroke	d	n/a
260.555	0.12	521110	keystroke	Key.space	n/a
261.0195	0.12	522039	keystroke	c	n/a
261.3055	0.09	522611	keystroke	r	n/a
261.5155	0.0755	523031	keystroke	u	n/a
261.785	0.12	523570	keystroke	c	n/a
262.0405	0.06	524081	keystroke	i	n/a
262.2505	0.12	524501	keystroke	a	n/a
262.4455	0.1045	524891	keystroke	l	n/a
262.7005	0.0755	525401	keystroke	Key.space	n/a
263.4505	0.075	526901	keystroke	d	n/a
264.0655	0.104	528131	keystroke	a	n/a
264.3045	0.09	528609	keystroke	n	n/a
264.6345	0.06	529269	keystroke	i	n/a
264.8145	0.105	529629	keystroke	e	n/a
265.0095	0.105	530019	keystroke	l	n/a
265.2645	0.06	530529	keystroke	Key.space	n/a
265.55	0.12	531100	keystroke	c	n/a
266.4645	0.12	532929	keystroke	e	n/a
266.7345	0.06	533469	keystroke	t	n/a
267.499	0.09	534998	keystroke	Key.backspace	n/a
268.46	0.0595	536920	keystroke	l	n/a
268.655	0.09	537310	keystroke	l	n/a
269.015	0.0755	538030	keystroke	Key.enter	n/a
269.0945	10.955	538189	prompt	n/a	publicly wage know logical\n
269.8855	0.12	539771	keystroke	p	n/a
270.1105	0.106	540221	keystroke	u	n/a
270.5305	0.105	541061	keystroke	b	n/a
270.815	0.0905	541630	keystroke	l	n/a
271.281	0.0895	542562	keystroke	i	n/a
271.581	0.104	543162	keystroke	c	n/a
271.85	0.105	543700	keystroke	l	n/a
272.151	0.089	544302	keystroke	y	n/a
272.4055	0.105	544811	keystroke	Key.space	n/a
273.261	0.12	546522	keystroke	w	n/a
273.5155	0.105	547031	keystroke	a	n/a
273.8455	0.09	547691	keystroke	g	n/a
274.0855	0.1195	548171	keystroke	e	n/a
274.295	0.1055	548590	keystroke	Key.space	n/a
274.5355	0.09	549071	keystroke	k	n/a
274.7155	0.105	549431	keystroke	n	n/a
274.955	0.09	549910	keystroke	o	n/a
274.97	0.06	549940	keystroke	i	n/a
275.09	0.135	550180	keystroke	w	n/a
275.7795	0.075	551559	keystroke	Key.space	n/a
276.3045	0.075	552609	keystroke	Key.backspace	n/a
276.5155	0.06	553031	keystroke	Key.backspace	n/a
276.695	0.09	553390	keystroke	Key.backspace	n/a
277.3105	0.105	554621	keystroke	w	n/a
277.5655	0.1055	555131	keystroke	Key.space	n/a
278.3605	0.045	556721	keystroke	l	n/a
278.5105	0.09	557021	keystroke	o	n/a
278.6755	0.105	557351	keystroke	g	n/a
278.915	0.076	557830	keystroke	i	n/a
279.185	0.105	558370	keystroke	c	n/a
279.4105	0.135	558821	keystroke	a	n/a
279.56	0.09	559120	keystroke	l	n/a
279.9355	0.104	559871	keystroke	Key.enter	n/a
280.053	28.835	560106	prompt	n/a	salon louisville slim bangkok\n
280.956	0.12	561912	keystroke	s	n/a
281.271	0.12	562542	keystroke	a	n/a
281.4665	0.105	562933	keystroke	l	n/a
281.7355	0.12	563471	keystroke	o	n/a
281.9915	0.105	563983	keystroke	n	n/a
282.231	0.105	564462	keystroke	Key.space	n/a
282.801	0.075	565602	keystroke	l	n/a
283.221	0.1055	566442	keystroke	o	n/a
283.3715	0.1195	566743	keystroke	u	n/a
283.686	0.06	567372	keystroke	i	n/a
284.4805	0.1055	568961	keystroke	s	n/a
285.036	0.105	570072	keystroke	v	n/a
285.321	0.06	570642	keystroke	i	n/a
285.636	0.075	571272	keystroke	l	n/a
285.831	0.0745	571662	keystroke	l	n/a
286.071	0.105	572142	keystroke	e	n/a
286.266	0.12	572532	keystroke	Key.space	n/a
286.551	0.105	573102	keystroke	s	n/a
289.745	0.09	579490	keystroke	Key.backspace	n/a
289.955	0.075	579910	keystroke	Key.backspace	n/a
290.135	0.0755	580270	keystroke	Key.backspace	n/a
291.681	0.074	583362	keystroke	i	n/a
291.921	0.12	583842	keystroke	s	n/a
292.325	0.121	584650	keystroke	v	n/a
292.7755	0.075	585551	keystroke	l	n/a
292.9705	0.075	585941	keystroke	l	n/a
293.3005	0.12	586601	keystroke	e	n/a
293.6905	0.105	587381	keystroke	Key.space	n/a
297.203	0.0575	594406	keystroke	Key.backspace	n/a
297.3805	0.06	594761	keystroke	Key.backspace	n/a
297.5605	0.075	595121	keystroke	Key.backspace	n/a
297.7555	0.075	595511	keystroke	Key.backspace	n/a
297.9505	0.075	595901	keystroke	Key.backspace	n/a
298.5655	0.015	597131	keystroke	Key.backspace	n/a
298.6555	0.045	597311	keystroke	Key.backspace	n/a
300.1855	0.075	600371	keystroke	i	n/a
300.425	0.151	600850	keystroke	s	n/a
300.86	0.12	601720	keystroke	v	n/a
301.175	0.09	602350	keystroke	i	n/a
301.445	0.06	602890	keystroke	l	n/a
301.7605	0.1505	603521	keystroke	e	n/a
302.076	0.12	604152	keystroke	Key.space	n/a
302.331	0.1045	604662	keystroke	s	n/a
302.4655	0.0905	604931	keystroke	l	n/a
302.706	0.09	605412	keystroke	i	n/a
303.0055	0.075	606011	keystroke	m	n/a
303.276	0.12	606552	keystroke	Key.space	n/a
303.5605	0.076	607121	keystroke	b	n/a
303.846	0.119	607692	keystroke	a	n/a
304.041	0.119	608082	keystroke	n	n/a
305.376	0.09	610752	keystroke	g	n/a
305.886	0.1195	611772	keystroke	k	n/a
306.441	0.1195	612882	keystroke	o	n/a
306.7105	0.06	613421	keystroke	l	n/a
307.956	0.075	615912	keystroke	Key.backspace	n/a
308.481	0.06	616962	keystroke	k	n/a
308.826	0.06	617652	keystroke	Key.enter	n/a
308.891	9.852	617782	prompt	n/a	grows item standard skirts\n
309.652	0.075	619304	keystroke	g	n/a
309.877	0.135	619754	keystroke	r	n/a
310.132	0.045	620264	keystroke	o	n/a
310.7315	0.12	621463	keystroke	w	n/a
311.0165	0.0755	622033	keystroke	s	n/a
311.197	0.12	622394	keystroke	Key.space	n/a
311.602	0.075	623204	keystroke	i	n/a
312.0515	0.12	624103	keystroke	t	n/a
312.3365	0.1205	624673	keystroke	e	n/a
312.5015	0.12	625003	keystroke	m	n/a
312.7715	0.105	625543	keystroke	Key.space	n/a
313.0715	0.105	626143	keystroke	s	n/a
313.387	0.1195	626774	keystroke	t	n/a
314.5265	0.105	629053	keystroke	a	n/a
314.6765	0.1205	629353	keystroke	n	n/a
314.902	0.1195	629804	keystroke	d	n/a
315.457	0.1345	630914	keystroke	a	n/a
315.5765	0.135	631153	keystroke	r	n/a
316.2815	0.09	632563	keystroke	d	n/a
316.5065	0.12	633013	keystroke	Key.space	n/a
316.9415	0.09	633883	keystroke	s	n/a
317.3915	0.06	634783	keystroke	k	n/a
317.6015	0.06	635203	keystroke	i	n/a
317.9915	0.105	635983	keystroke	r	n/a
318.2015	0.09	636403	keystroke	t	n/a
318.4415	0.105	636883	keystroke	s	n/a
318.6215	0.1205	637243	keystroke	Key.enter	n/a
318.755	10.0685	637510	prompt	n/a	prep casinos dosage billion\n
319.4025	0.104	638805	keystroke	p	n/a
320.197	0.105	640394	keystroke	r	n/a
320.4665	0.105	640933	keystroke	e	n/a
321.0515	0.075	642103	keystroke	p	n/a
321.412	0.0895	642824	keystroke	Key.space	n/a
322.297	0.09	644594	keystroke	c	n/a
322.597	0.1195	645194	keystroke	a	n/a
322.8215	0.1055	645643	keystroke	s	n/a
323.017	0.0905	646034	keystroke	i	n/a
323.212	0.1205	646424	keystroke	n	n/a
323.467	0.12	646934	keystroke	o	n/a
323.692	0.105	647384	keystroke	s	n/a
323.902	0.135	647804	keystroke	Key.space	n/a
324.382	0.075	648764	keystroke	d	n/a
324.532	0.105	649064	keystroke	o	n/a
325.177	0.12	650354	keystroke	s	n/a
325.537	0.135	651074	keystroke	a	n/a
325.747	0.12	651494	keystroke	g	n/a
326.017	0.105	652034	keystroke	e	n/a
326.3015	0.1055	652603	keystroke	Key.space	n/a
326.6475	0.105	653295	keystroke	b	n/a
326.8575	0.075	653715	keystroke	i	n/a
327.142	0.105	654284	keystroke	l	n/a
327.367	0.09	654734	keystroke	l	n/a
328.012	0.075	656024	keystroke	i	n/a
328.222	0.1195	656444	keystroke	o	n/a
328.4165	0.0905	656833	keystroke	n	n/a
328.732	0.0895	657464	keystroke	Key.enter	n/a
328.8265	21.567	657653	prompt	n/a	margaret assure groundwater spray\n
329.602	0.06	659204	keystroke	m	n/a
329.827	0.165	659654	keystroke	a	n/a
329.992	0.165	659984	keystroke	r	n/a
330.502	0.105	661004	keystroke	g	n/a
330.8025	0.1645	661605	keystroke	a	n/a
331.762	0.105	663524	keystroke	r	n/a
332.122	0.12	664244	keystroke	e	n/a
332.317	0.105	664634	keystroke	t	n/a
332.542	0.105	665084	keystroke	Key.space	n/a
336.412	0.06	672824	keystroke	Key.backspace	n/a
336.592	0.06	673184	keystroke	Key.backspace	n/a
337.492	0.12	674984	keystroke	m	n/a
337.822	0.15	675644	keystroke	a	n/a
338.182	0.15	676364	keystroke	r	n/a
339.0825	0.135	678165	keystroke	g	n/a
340.267	0.15	680534	keystroke	a	n/a
340.807	0.135	681614	keystroke	r	n/a
341.227	0.1495	682454	keystroke	e	n/a
341.5715	0.105	683143	keystroke	t	n/a
341.7665	0.12	683533	keystroke	Key.space	n/a
342.8625	0.12	685725	keystroke	a	n/a
343.1175	0.09	686235	keystroke	s	n/a
343.2825	0.12	686565	keystroke	s	n/a
343.5075	0.09	687015	keystroke	u	n/a
343.6425	0.165	687285	keystroke	r	n/a
343.9875	0.09	687975	keystroke	Key.space	n/a
344.3465	0.165	688693	keystroke	g	n/a
345.1415	0.075	690283	keystroke	r	n/a
345.457	0.1045	690914	keystroke	o	n/a
345.622	0.105	691244	keystroke	u	n/a
346.6715	0.075	693343	keystroke	n	n/a
346.8375	0.105	693675	keystroke	d	n/a
347.5415	0.12	695083	keystroke	w	n/a
347.7815	0.12	695563	keystroke	a	n/a
347.9775	0.119	695955	keystroke	t	n/a
348.217	0.165	696434	keystroke	e	n/a
348.337	0.135	696674	keystroke	r	n/a
348.5615	0.105	697123	keystroke	Key.space	n/a
348.8915	0.105	697783	keystroke	s	n/a
349.0415	0.105	698083	keystroke	p	n/a
349.2215	0.135	698443	keystroke	r	n/a
349.732	0.1045	699464	keystroke	a	n/a
350.0165	0.075	700033	keystroke	y	n/a
350.2865	0.105	700573	keystroke	Key.enter	n/a
350.3975	23.1625	700795	prompt	n/a	president tahoe tale safer\n
351.5625	0.1045	703125	keystroke	p	n/a
351.7725	0.15	703545	keystroke	r	n/a
351.9975	0.12	703995	keystroke	e	n/a
352.2225	0.1195	704445	keystroke	s	n/a
352.462	0.075	704924	keystroke	i	n/a
352.687	0.09	705374	keystroke	d	n/a
352.912	0.12	705824	keystroke	e	n/a
353.062	0.135	706124	keystroke	n	n/a
353.242	0.09	706484	keystroke	t	n/a
353.392	0.105	706784	keystroke	Key.space	n/a
353.8875	0.119	707775	keystroke	t	n/a
354.2025	0.12	708405	keystroke	a	n/a
354.623	0.0905	709246	keystroke	h	n/a
354.8335	0.089	709667	keystroke	o	n/a
354.999	0.12	709998	keystroke	w	n/a
355.2695	0.1045	710539	keystroke	Key.space	n/a
356.097	0.09	712194	keystroke	t	n/a
356.337	0.0905	712674	keystroke	a	n/a
356.5175	0.106	713035	keystroke	l	n/a
356.699	0.119	713398	keystroke	e	n/a
357.315	0.1205	714630	keystroke	Key.space	n/a
359.1795	0.1055	718359	keystroke	Key.backspace	n/a
359.405	0.1055	718810	keystroke	Key.backspace	n/a
359.616	0.105	719232	keystroke	Key.backspace	n/a
360.0225	0.045	720045	keystroke	Key.backspace	n/a
360.173	0.105	720346	keystroke	Key.backspace	n/a
360.3835	0.105	720767	keystroke	Key.backspace	n/a
360.594	0.1055	721188	keystroke	Key.backspace	n/a
360.8045	0.105	721609	keystroke	Key.backspace	n/a
361.647	0.06	723294	keystroke	i	n/a
361.917	0.03	723834	keystroke	e	n/a
362.4735	0.075	724947	keystroke	Key.backspace	n/a
362.684	0.075	725368	keystroke	Key.backspace	n/a
363.331	0.0455	726662	keystroke	o	n/a
363.4965	0.1205	726993	keystroke	e	n/a
363.918	0.09	727836	keystroke	Key.space	n/a
364.414	0.1205	728828	keystroke	s	n/a
366.4445	0.09	732889	keystroke	Key.backspace	n/a
366.715	0.09	733430	keystroke	Key.backspace	n/a
366.9705	0.1055	733941	keystroke	Key.backspace	n/a
367.2115	0.075	734423	keystroke	Key.backspace	n/a
367.422	0.075	734844	keystroke	Key.backspace	n/a
367.6325	0.09	735265	keystroke	Key.backspace	n/a
367.843	0.06	735686	keystroke	Key.backspace	n/a
368.625	0.045	737250	keystroke	t	n/a
368.986	0.1655	737972	keystroke	a	n/a
369.753	0.1205	739506	keystroke	h	n/a
369.9485	0.1205	739897	keystroke	o	n/a
370.3695	0.1055	740739	keystroke	e	n/a
371.0165	0.09	742033	keystroke	Key.space	n/a
371.603	0.075	743206	keystroke	t	n/a
371.7835	0.12	743567	keystroke	a	n/a
371.9185	0.0905	743837	keystroke	l	n/a
372.084	0.1055	744168	keystroke	e	n/a
372.2345	0.1055	744469	keystroke	Key.space	n/a
372.43	0.1205	744860	keystroke	s	n/a
372.6555	0.1205	745311	keystroke	a	n/a
372.866	0.1205	745732	keystroke	f	n/a
373.122	0.1805	746244	keystroke	e	n/a
373.257	0.1055	746514	keystroke	r	n/a
373.4375	0.1205	746875	keystroke	Key.enter	n/a
373.5645	14.2365	747129	prompt	n/a	packaging currencies alot speeches\n
374.5055	0.09	749011	keystroke	p	n/a
374.701	0.1955	749402	keystroke	a	n/a
374.9415	0.1355	749883	keystroke	c	n/a
375.092	0.0755	750184	keystroke	k	n/a
375.423	0.135	750846	keystroke	a	n/a
375.934	0.0755	751868	keystroke	g	n/a
376.0545	0.075	752109	keystroke	i	n/a
376.235	0.0905	752470	keystroke	n	n/a
376.43	0.0905	752860	keystroke	g	n/a
376.6105	0.1055	753221	keystroke	Key.space	n/a
377.257	0.1065	754514	keystroke	c	n/a
377.4375	0.1055	754875	keystroke	u	n/a
378.039	0.1205	756078	keystroke	r	n/a
378.2345	0.1055	756469	keystroke	r	n/a
378.4905	0.12	756981	keystroke	e	n/a
380.5365	0.06	761073	keystroke	n	n/a
380.8515	0.121	761703	keystroke	c	n/a
381.0775	0.0755	762155	keystroke	i	n/a
381.2735	0.135	762547	keystroke	e	n/a
381.4835	0.1205	762967	keystroke	s	n/a
381.619	0.105	763238	keystroke	Key.space	n/a
382.055	0.1055	764110	keystroke	a	n/a
382.2205	0.1205	764441	keystroke	l	n/a
382.4915	0.105	764983	keystroke	o	n/a
382.6865	0.1055	765373	keystroke	t	n/a
383.303	0.06	766606	keystroke	Key.space	n/a
383.7995	0.0455	767599	keystroke	s	n/a
384.31	0.1055	768620	keystroke	p	n/a
385.468	0.2555	770936	keystroke	e	n/a
385.859	0.1655	771718	keystroke	e	n/a
386.2505	0.1205	772501	keystroke	c	n/a
386.446	0.1055	772892	keystroke	h	n/a
386.5965	0.135	773193	keystroke	e	n/a
386.852	0.1055	773704	keystroke	s	n/a
387.7085	0.091	775417	keystroke	Key.enter	n/a
387.804	8.402	775608	prompt	n/a	informal frame detroit chain\n
388.6115	0.089	777223	keystroke	i	n/a
388.8665	0.091	777733	keystroke	n	n/a
389.0325	0.1045	778065	keystroke	f	n/a
389.1825	0.1505	778365	keystroke	o	n/a
389.2875	0.1205	778575	keystroke	r	n/a
389.5435	0.09	779087	keystroke	m	n/a
389.9795	0.1355	779959	keystroke	a	n/a
390.22	0.12	780440	keystroke	l	n/a
390.446	0.105	780892	keystroke	Key.space	n/a
390.656	0.1205	781312	keystroke	f	n/a
390.8965	0.1505	781793	keystroke	r	n/a
391.137	0.1355	782274	keystroke	a	n/a
391.2725	0.1055	782545	keystroke	m	n/a
391.4535	0.12	782907	keystroke	e	n/a
391.6035	0.12	783207	keystroke	Key.space	n/a
391.9195	0.12	783839	keystroke	d	n/a
392.175	0.135	784350	keystroke	e	n/a
392.731	0.105	785462	keystroke	t	n/a
393.017	0.09	786034	keystroke	r	n/a
393.2875	0.1205	786575	keystroke	o	n/a
393.783	0.075	787566	keystroke	i	n/a
393.8885	0.105	787777	keystroke	t	n/a
394.2495	0.1055	788499	keystroke	Key.space	n/a
394.4905	0.12	788981	keystroke	c	n/a
394.7155	0.105	789431	keystroke	h	n/a
395.407	0.1205	790814	keystroke	a	n/a
395.5425	0.105	791085	keystroke	i	n/a
395.738	0.135	791476	keystroke	n	n/a
396.0685	0.1355	792137	keystroke	Key.enter	n/a
396.209	15.4645	792418	prompt	n/a	corp stations graduate integral\n
397.0165	0.12	794033	keystroke	c	n/a
397.1965	0.135	794393	keystroke	o	n/a
397.3915	0.136	794783	keystroke	r	n/a
397.5875	0.1355	795175	keystroke	p	n/a
397.948	0.121	795896	keystroke	Key.space	n/a
398.64	0.12	797280	keystroke	s	n/a
399.9325	0.136	799865	keystroke	t	n/a
400.429	0.105	800858	keystroke	a	n/a
400.5945	0.12	801189	keystroke	t	n/a
400.7895	0.105	801579	keystroke	i	n/a
401.0295	0.121	802059	keystroke	o	n/a
401.2105	0.12	802421	keystroke	n	n/a
401.4205	0.1205	802841	keystroke	s	n/a
402.608	0.0905	805216	keystroke	Key.space	n/a
403.2845	0.105	806569	keystroke	g	n/a
403.5855	0.105	807171	keystroke	r	n/a
403.841	0.12	807682	keystroke	a	n/a
404.3065	0.0905	808613	keystroke	d	n/a
404.592	0.1045	809184	keystroke	u	n/a
404.922	0.135	809844	keystroke	a	n/a
405.072	0.1195	810144	keystroke	t	n/a
405.3415	0.105	810683	keystroke	e	n/a
405.566	0.1205	811132	keystroke	Key.space	n/a
406.8715	0.09	813743	keystroke	i	n/a
407.876	0.105	815752	keystroke	n	n/a
408.086	0.135	816172	keystroke	t	n/a
408.341	0.226	816682	keystroke	e	n/a
408.461	0.091	816922	keystroke	r	n/a
409.4515	0.12	818903	keystroke	Key.backspace	n/a
410.426	0.0895	820852	keystroke	g	n/a
410.8315	0.1195	821663	keystroke	r	n/a
411.086	0.12	822172	keystroke	a	n/a
411.236	0.135	822472	keystroke	l	n/a
411.551	0.12	823102	keystroke	Key.enter	n/a
411.678	11.1945	823356	prompt	n/a	beginning film collector titans\n
412.45	0.1205	824900	keystroke	b	n/a
412.75	0.1655	825500	keystroke	e	n/a
413.529	0.1205	827058	keystroke	g	n/a
413.694	0.195	827388	keystroke	i	n/a
414.7295	0.12	829459	keystroke	n	n/a
414.9395	0.0895	829879	keystroke	n	n/a
415.149	0.09	830298	keystroke	i	n/a
415.359	0.135	830718	keystroke	n	n/a
415.5225	0.105	831045	keystroke	g	n/a
415.7025	0.12	831405	keystroke	Key.space	n/a
416.047	0.0895	832094	keystroke	f	n/a
416.2125	0.1045	832425	keystroke	i	n/a
416.408	0.104	832816	keystroke	l	n/a
416.5725	0.121	833145	keystroke	e	n/a
416.7375	0.1055	833475	keystroke	Key.space	n/a
417.413	0.1505	834826	keystroke	c	n/a
417.7585	0.135	835517	keystroke	o	n/a
418.463	0.09	836926	keystroke	l	n/a
418.673	0.09	837346	keystroke	l	n/a
418.883	0.1645	837766	keystroke	e	n/a
419.212	0.1055	838424	keystroke	c	n/a
419.4525	0.105	838905	keystroke	t	n/a
419.6165	0.1505	839233	keystroke	o	n/a
419.827	0.1355	839654	keystroke	r	n/a
420.1415	0.075	840283	keystroke	Key.space	n/a
420.5765	0.1205	841153	keystroke	t	n/a
421.1325	0.044	842265	keystroke	i	n/a
421.8065	0.1205	843613	keystroke	t	n/a
422.122	0.104	844244	keystroke	a	n/a
422.286	0.105	844572	keystroke	n	n/a
422.466	0.1355	844932	keystroke	s	n/a
422.751	0.12	845502	keystroke	Key.enter	n/a
422.8775	16.7875	845755	prompt	n/a	away millions recommends niagara\n
423.5605	0.105	847121	keystroke	a	n/a
423.9205	0.12	847841	keystroke	w	n/a
424.1755	0.12	848351	keystroke	a	n/a
424.3405	0.12	848681	keystroke	y	n/a
424.671	0.105	849342	keystroke	Key.space	n/a
425	0.0755	850000	keystroke	m	n/a
425.2705	0.104	850541	keystroke	i	n/a
425.795	0.059	851590	keystroke	l	n/a
425.959	0.105	851918	keystroke	l	n/a
426.199	0.09	852398	keystroke	s	n/a
427.563	0.06	855126	keystroke	Key.backspace	n/a
428.943	0.075	857886	keystroke	i	n/a
429.6925	0.06	859385	keystroke	o	n/a
429.8275	0.1045	859655	keystroke	n	n/a
430.0225	0.15	860045	keystroke	s	n/a
430.2175	0.12	860435	keystroke	Key.space	n/a
430.592	0.15	861184	keystroke	r	n/a
430.802	0.195	861604	keystroke	e	n/a
431.072	0.1495	862144	keystroke	c	n/a
431.3575	0.135	862715	keystroke	o	n/a
431.7315	0.046	863463	keystroke	n	n/a
432.6915	0.105	865383	keystroke	Key.backspace	n/a
434.086	0.015	868172	keystroke	m	n/a
434.191	0.075	868382	keystroke	m	n/a
434.401	0.1195	868802	keystroke	e	n/a
434.5355	0.105	869071	keystroke	n	n/a
434.7305	0.12	869461	keystroke	d	n/a
434.985	0.105	869970	keystroke	s	n/a
435.3	0.091	870600	keystroke	Key.space	n/a
435.81	0.105	871620	keystroke	n	n/a
436.1395	0.0905	872279	keystroke	i	n/a
436.6795	0.075	873359	keystroke	a	n/a
436.89	0.12	873780	keystroke	g	n/a
438.6145	0.1355	877229	keystroke	a	n/a
438.795	0.15	877590	keystroke	r	n/a
439.199	0.135	878398	keystroke	a	n/a
439.5445	0.1195	879089	keystroke	Key.enter	n/a
439.6695	12.874	879339	prompt	n/a	demand sake saskatchewan meanwhile\n
440.5185	0.104	881037	keystroke	d	n/a
440.728	0.1495	881456	keystroke	e	n/a
440.9075	0.1055	881815	keystroke	m	n/a
441.073	0.119	882146	keystroke	a	n/a
441.162	0.105	882324	keystroke	n	n/a
441.867	0.12	883734	keystroke	d	n/a
442.062	0.119	884124	keystroke	Key.space	n/a
442.361	0.135	884722	keystroke	s	n/a
442.796	0.15	885592	keystroke	a	n/a
442.961	0.135	885922	keystroke	k	n/a
443.216	0.105	886432	keystroke	e	n/a
443.426	0.105	886852	keystroke	Key.space	n/a
443.8315	0.165	887663	keystroke	s	n/a
444.671	0.0895	889342	keystroke	a	n/a
444.9255	0.12	889851	keystroke	s	n/a
445.285	0.105	890570	keystroke	k	n/a
445.63	0.151	891260	keystroke	a	n/a
445.871	0.1045	891742	keystroke	t	n/a
446.1405	0.1195	892281	keystroke	c	n/a
446.32	0.1045	892640	keystroke	h	n/a
446.5895	0.151	893179	keystroke	e	n/a
446.9345	0.15	893869	keystroke	w	n/a
447.2045	0.12	894409	keystroke	a	n/a
447.5195	0.09	895039	keystroke	n	n/a
447.7895	0.105	895579	keystroke	Key.space	n/a
449.0195	0.09	898039	keystroke	m	n/a
449.604	0.1045	899208	keystroke	e	n/a
449.798	0.12	899596	keystroke	a	n/a
450.3085	0.09	900617	keystroke	n	n/a
450.6835	0.1195	901367	keystroke	w	n/a
450.9685	0.12	901937	keystroke	h	n/a
451.1935	0.1185	902387	keystroke	i	n/a
451.9725	0.105	903945	keystroke	l	n/a
452.1975	0.1045	904395	keystroke	e	n/a
452.422	0.12	904844	keystroke	Key.enter	n/a
452.5465	12.56	905093	prompt	n/a	scoring cemetery brisbane recall\n
453.307	0.15	906614	keystroke	s	n/a
453.592	0.12	907184	keystroke	c	n/a
453.832	0.105	907664	keystroke	o	n/a
454.042	0.12	908084	keystroke	r	n/a
454.2965	0.075	908593	keystroke	i	n/a
454.4465	0.135	908893	keystroke	n	n/a
454.6565	0.09	909313	keystroke	g	n/a
454.791	0.12	909582	keystroke	Key.space	n/a
455.196	0.12	910392	keystroke	c	n/a
455.421	0.135	910842	keystroke	e	n/a
455.9005	0.09	911801	keystroke	m	n/a
456.1555	0.12	912311	keystroke	e	n/a
456.4255	0.0895	912851	keystroke	t	n/a
457.325	0.2105	914650	keystroke	e	n/a
457.4905	0.135	914981	keystroke	r	n/a
457.7305	0.105	915461	keystroke	y	n/a
457.9545	0.12	915909	keystroke	Key.space	n/a
458.3145	0.105	916629	keystroke	b	n/a
458.5695	0.135	917139	keystroke	r	n/a
458.7945	0.105	917589	keystroke	i	n/a
459.139	0.195	918278	keystroke	s	n/a
459.7545	0.1345	919509	keystroke	b	n/a
460.069	0.12	920138	keystroke	a	n/a
460.219	0.15	920438	keystroke	n	n/a
460.879	0.105	921758	keystroke	e	n/a
461.178	0.045	922356	keystroke	Key.space	n/a
461.493	0.1655	922986	keystroke	r	n/a
462.483	0.12	924966	keystroke	e	n/a
462.813	0.135	925626	keystroke	a	n/a
463.727	0.09	927454	keystroke	Key.backspace	n/a
464.206	0.1205	928412	keystroke	c	n/a
464.387	0.134	928774	keystroke	a	n/a
464.536	0.1345	929072	keystroke	l	n/a
464.971	0.134	929942	keystroke	Key.enter	n/a
465.111	23.296	930222	prompt	n/a	accountability they're linked sort\n
466.1845	0.1345	932369	keystroke	a	n/a
466.469	0.1505	932938	keystroke	c	n/a
466.6955	0.104	933391	keystroke	c	n/a
466.9495	0.15	933899	keystroke	o	n/a
467.1295	0.12	934259	keystroke	u	n/a
467.3545	0.075	934709	keystroke	n	n/a
467.8195	0.09	935639	keystroke	t	n/a
468.2245	0.15	936449	keystroke	a	n/a
468.525	0.09	937050	keystroke	b	n/a
468.795	0.15	937590	keystroke	l	n/a
469.229	0.09	938458	keystroke	i	n/a
474.956	0.1655	949912	keystroke	a	n/a
475.301	0.15	950602	keystroke	c	n/a
475.556	0.135	951112	keystroke	c	n/a
475.961	0.165	951922	keystroke	o	n/a
476.3505	0.165	952701	keystroke	u	n/a
476.7855	0.135	953571	keystroke	n	n/a
477.1455	0.18	954291	keystroke	t	n/a
477.4905	0.165	954981	keystroke	a	n/a
478.0305	0.135	956061	keystroke	b	n/a
478.465	0.105	956930	keystroke	i	n/a
479.38	0.15	958760	keystroke	l	n/a
479.8	0.105	959600	keystroke	i	n/a
480.0695	0.075	960139	keystroke	t	n/a
480.1745	0.12	960349	keystroke	y	n/a
480.4445	0.1195	960889	keystroke	Key.space	n/a
480.924	0.12	961848	keystroke	t	n/a
481.074	0.12	962148	keystroke	h	n/a
481.299	0.15	962598	keystroke	e	n/a
481.584	0.1195	963168	keystroke	y	n/a
482.873	0.12	965746	keystroke	'	n/a
483.9235	0.12	967847	keystroke	r	n/a
484.118	0.15	968236	keystroke	e	n/a
484.523	0.105	969046	keystroke	Key.space	n/a
485.107	0.121	970214	keystroke	l	n/a
485.362	0.075	970724	keystroke	i	n/a
485.632	0.015	971264	keystroke	n	n/a
485.9175	0.09	971835	keystroke	k	n/a
486.517	0.15	973034	keystroke	e	n/a
486.7865	0.105	973573	keystroke	d	n/a
486.9215	0.12	973843	keystroke	Key.space	n/a
487.236	0.15	974472	keystroke	s	n/a
487.596	0.12	975192	keystroke	o	n/a
487.791	0.15	975582	keystroke	r	n/a
488.001	0.105	976002	keystroke	t	n/a
488.256	0.15	976512	keystroke	Key.enter	n/a
488.4105	16.9545	976821	prompt	n/a	loved williams switching facility\n
489.1555	0.09	978311	keystroke	l	n/a
489.3655	0.09	978731	keystroke	o	n/a
489.5305	0.09	979061	keystroke	v	n/a
489.7405	0.18	979481	keystroke	e	n/a
490.025	0.105	980050	keystroke	d	n/a
490.16	0.12	980320	keystroke	Key.space	n/a
490.37	0.12	980740	keystroke	w	n/a
490.52	0.1495	981040	keystroke	i	n/a
490.79	0.09	981580	keystroke	l	n/a
490.985	0.1045	981970	keystroke	l	n/a
491.3595	0.09	982719	keystroke	i	n/a
491.5545	0.105	983109	keystroke	a	n/a
491.7645	0.1045	983529	keystroke	m	n/a
491.989	0.09	983978	keystroke	s	n/a
492.124	0.135	984248	keystroke	Key.space	n/a
494.48	0.028	988960	keystroke	Key.backspace	n/a
494.613	0.09	989226	keystroke	Key.backspace	n/a
494.808	0.074	989616	keystroke	Key.backspace	n/a
495.002	0.075	990004	keystroke	Key.backspace	n/a
495.167	0.0905	990334	keystroke	Key.backspace	n/a
495.3475	0.104	990695	keystroke	Key.backspace	n/a
495.5415	0.076	991083	keystroke	Key.backspace	n/a
495.6915	0.105	991383	keystroke	Key.backspace	n/a
495.946	0.105	991892	keystroke	Key.backspace	n/a
496.8765	0.105	993753	keystroke	w	n/a
497.2215	0.105	994443	keystroke	i	n/a
497.671	0.105	995342	keystroke	l	n/a
497.9555	0.105	995911	keystroke	l	n/a
498.196	0.105	996392	keystroke	i	n/a
498.451	0.1055	996902	keystroke	a	n/a
498.6015	0.09	997203	keystroke	m	n/a
498.8715	0.1045	997743	keystroke	s	n/a
499.141	0.1045	998282	keystroke	Key.space	n/a
499.636	0.1195	999272	keystroke	s	n/a
499.9205	0.135	999841	keystroke	w	n/a
500.76	0.075	1001520	keystroke	i	n/a
501	0.1045	1002000	keystroke	t	n/a
501.3145	0.105	1002629	keystroke	c	n/a
501.4495	0.12	1002899	keystroke	h	n/a
501.7495	0.015	1003499	keystroke	i	n/a
501.8095	0.12	1003619	keystroke	n	n/a
501.9585	0.091	1003917	keystroke	g	n/a
502.0945	0.104	1004189	keystroke	Key.space	n/a
502.8445	0.105	1005689	keystroke	f	n/a
503.0695	0.12	1006139	keystroke	a	n/a
503.3395	0.105	1006679	keystroke	c	n/a
503.984	0.09	1007968	keystroke	i	n/a
504.3885	0.105	1008777	keystroke	l	n/a
504.6435	0.075	1009287	keystroke	i	n/a
504.7935	0.09	1009587	keystroke	t	n/a
504.9135	0.1195	1009827	keystroke	y	n/a
505.243	0.12	1010486	keystroke	Key.enter	n/a
505.369	13.399	1010738	prompt	n/a	joan vehicles packets book\n
506.083	0.09	1012166	keystroke	j	n/a
506.382	0.12	1012764	keystroke	a	n/a
506.9375	0.1195	1013875	keystroke	o	n/a
507.9715	0.075	1015943	keystroke	Key.backspace	n/a
508.2265	0.075	1016453	keystroke	Key.backspace	n/a
508.6765	0.12	1017353	keystroke	o	n/a
508.9465	0.105	1017893	keystroke	a	n/a
509.126	0.09	1018252	keystroke	n	n/a
509.4255	0.1045	1018851	keystroke	Key.space	n/a
509.7545	0.105	1019509	keystroke	v	n/a
513.2525	0.071	1026505	keystroke	e	n/a
513.5035	0.105	1027007	keystroke	h	n/a
513.7885	0.0755	1027577	keystroke	i	n/a
514.044	0.12	1028088	keystroke	c	n/a
514.2235	0.12	1028447	keystroke	l	n/a
514.3885	0.1505	1028777	keystroke	e	n/a
514.644	0.105	1029288	keystroke	s	n/a
514.779	0.1195	1029558	keystroke	Key.space	n/a
515.1535	0.105	1030307	keystroke	p	n/a
515.348	0.12	1030696	keystroke	a	n/a
515.678	0.105	1031356	keystroke	c	n/a
515.858	0.105	1031716	keystroke	k	n/a
516.398	0.135	1032796	keystroke	e	n/a
516.653	0.12	1033306	keystroke	t	n/a
516.967	0.105	1033934	keystroke	s	n/a
517.102	0.105	1034204	keystroke	Key.space	n/a
517.312	0.1045	1034624	keystroke	b	n/a
517.5365	0.105	1035073	keystroke	o	n/a
517.7615	0.09	1035523	keystroke	o	n/a
518.3465	0.075	1036693	keystroke	k	n/a
518.6315	0.135	1037263	keystroke	Key.enter	n/a
518.771	9.5775	1037542	prompt	n/a	native perspective cart belle\n
519.487	0.0745	1038974	keystroke	n	n/a
519.6965	0.149	1039393	keystroke	a	n/a
520.0265	0.134	1040053	keystroke	t	n/a
520.1765	0.09	1040353	keystroke	i	n/a
520.4305	0.1205	1040861	keystroke	c	n/a
520.64	0.135	1041280	keystroke	e	n/a
520.805	0.15	1041610	keystroke	Key.space	n/a
521.8405	0.135	1043681	keystroke	p	n/a
522.1855	0.18	1044371	keystroke	e	n/a
522.3355	0.15	1044671	keystroke	r	n/a
523.325	0.1345	1046650	keystroke	s	n/a
523.6845	0.135	1047369	keystroke	p	n/a
523.969	0.1505	1047938	keystroke	e	n/a
524.269	0.12	1048538	keystroke	c	n/a
524.524	0.12	1049048	keystroke	t	n/a
524.689	0.09	1049378	keystroke	i	n/a
524.869	0.135	1049738	keystroke	v	n/a
525.154	0.135	1050308	keystroke	e	n/a
525.334	0.1045	1050668	keystroke	Key.space	n/a
525.8135	0.135	1051627	keystroke	c	n/a
526.0525	0.15	1052105	keystroke	a	n/a
526.1875	0.135	1052375	keystroke	r	n/a
526.4125	0.09	1052825	keystroke	t	n/a
526.5325	0.1045	1053065	keystroke	Key.space	n/a
527.0125	0.0455	1054025	keystroke	b	n/a
527.253	0.12	1054506	keystroke	e	n/a
527.597	0.09	1055194	keystroke	l	n/a
527.792	0.09	1055584	keystroke	l	n/a
527.927	0.1345	1055854	keystroke	e	n/a
528.2265	0.1205	1056453	keystroke	Key.enter	n/a
528.3515	8.244	1056703	prompt	n/a	lose northeast black simon\n
529.022	0.0745	1058044	keystroke	l	n/a
529.261	0.06	1058522	keystroke	o	n/a
529.441	0.1355	1058882	keystroke	s	n/a
529.6665	0.105	1059333	keystroke	e	n/a
529.8465	0.1195	1059693	keystroke	Key.space	n/a
530.1615	0.089	1060323	keystroke	n	n/a
530.4165	0.135	1060833	keystroke	o	n/a
530.7615	0.1195	1061523	keystroke	r	n/a
530.986	0.09	1061972	keystroke	t	n/a
531.016	0.12	1062032	keystroke	h	n/a
531.4205	0.135	1062841	keystroke	e	n/a
531.7205	0.105	1063441	keystroke	a	n/a
531.9455	0.1345	1063891	keystroke	s	n/a
532.2005	0.105	1064401	keystroke	t	n/a
532.4855	0.105	1064971	keystroke	Key.space	n/a
533.0845	0.136	1066169	keystroke	b	n/a
533.3255	0.1045	1066651	keystroke	l	n/a
533.505	0.1345	1067010	keystroke	a	n/a
533.7745	0.12	1067549	keystroke	c	n/a
533.985	0.105	1067970	keystroke	k	n/a
534.435	0.09	1068870	keystroke	Key.space	n/a
534.9295	0.12	1069859	keystroke	s	n/a
535.2445	0.1045	1070489	keystroke	i	n/a
535.514	0.09	1071028	keystroke	m	n/a
535.889	0.135	1071778	keystroke	o	n/a
536.144	0.12	1072288	keystroke	n	n/a
536.474	0.12	1072948	keystroke	Key.enter	n/a
536.599	21.034	1073198	prompt	n/a	planes powder surveillance skirt\n
536.819	0.015	1073638	keystroke	k	n/a
537.359	0.12	1074718	keystroke	p	n/a
537.659	0.09	1075318	keystroke	l	n/a
537.8085	0.135	1075617	keystroke	a	n/a
538.1235	0.105	1076247	keystroke	n	n/a
538.3035	0.1355	1076607	keystroke	e	n/a
538.544	0.12	1077088	keystroke	s	n/a
538.7535	0.1345	1077507	keystroke	Key.space	n/a
539.3985	0.105	1078797	keystroke	p	n/a
539.728	0.0895	1079456	keystroke	o	n/a
539.9375	0.105	1079875	keystroke	w	n/a
540.8065	0.09	1081613	keystroke	d	n/a
541.7055	0.4655	1083411	keystroke	Key.backspace	n/a
542.3655	0.075	1084731	keystroke	Key.backspace	n/a
542.5905	0.045	1085181	keystroke	Key.backspace	n/a
542.785	0.06	1085570	keystroke	Key.backspace	n/a
542.965	0.075	1085930	keystroke	Key.backspace	n/a
543.16	0.06	1086320	keystroke	Key.backspace	n/a
543.34	0.0755	1086680	keystroke	Key.backspace	n/a
543.5205	0.06	1087041	keystroke	Key.backspace	n/a
543.7005	0.06	1087401	keystroke	Key.backspace	n/a
543.8805	0.0905	1087761	keystroke	Key.backspace	n/a
544.076	0.075	1088152	keystroke	Key.backspace	n/a
544.286	0.09	1088572	keystroke	Key.backspace	n/a
544.496	0.06	1088992	keystroke	Key.backspace	n/a
545.1855	0.1045	1090371	keystroke	p	n/a
545.47	0.075	1090940	keystroke	l	n/a
545.7105	0.135	1091421	keystroke	a	n/a
545.9355	0.105	1091871	keystroke	n	n/a
546.2055	0.135	1092411	keystroke	e	n/a
546.5505	0.1195	1093101	keystroke	s	n/a
546.76	0.105	1093520	keystroke	Key.space	n/a
547.1795	0.1205	1094359	keystroke	o	n/a
549.0535	0.0755	1098107	keystroke	Key.backspace	n/a
550.0885	0.12	1100177	keystroke	p	n/a
550.523	0.09	1101046	keystroke	o	n/a
550.7475	0.12	1101495	keystroke	w	n/a
551.153	0.105	1102306	keystroke	d	n/a
551.408	0.1945	1102816	keystroke	e	n/a
551.5425	0.12	1103085	keystroke	r	n/a
551.7525	0.105	1103505	keystroke	Key.space	n/a
552.0225	0.12	1104045	keystroke	s	n/a
552.2475	0.105	1104495	keystroke	u	n/a
552.4125	0.15	1104825	keystroke	r	n/a
552.773	0.1195	1105546	keystroke	v	n/a
552.9975	0.105	1105995	keystroke	e	n/a
554.452	0.09	1108904	keystroke	i	n/a
555.247	0.09	1110494	keystroke	l	n/a
555.442	0.09	1110884	keystroke	l	n/a
555.592	0.12	1111184	keystroke	a	n/a
555.727	0.105	1111454	keystroke	n	n/a
555.9815	0.12	1111963	keystroke	c	n/a
556.1465	0.1205	1112293	keystroke	e	n/a
556.282	0.105	1112564	keystroke	Key.space	n/a
556.537	0.105	1113074	keystroke	s	n/a
556.717	0.09	1113434	keystroke	k	n/a
556.942	0.0595	1113884	keystroke	i	n/a
557.0765	0.15	1114153	keystroke	r	n/a
557.3315	0.105	1114663	keystroke	t	n/a
557.4965	0.135	1114993	keystroke	Key.enter	n/a
557.642	10.4275	1115284	prompt	n/a	wherever tours won't continues\n
558.471	0.135	1116942	keystroke	w	n/a
559.2215	0.074	1118443	keystroke	h	n/a
559.4315	0.21	1118863	keystroke	e	n/a
559.5815	0.135	1119163	keystroke	r	n/a
560.541	0.134	1121082	keystroke	e	n/a
560.84	0.0905	1121680	keystroke	v	n/a
561.0505	0.195	1122101	keystroke	e	n/a
561.1555	0.15	1122311	keystroke	r	n/a
561.635	0.09	1123270	keystroke	Key.space	n/a
562.579	0.09	1125158	keystroke	t	n/a
562.789	0.1045	1125578	keystroke	o	n/a
562.9835	0.1205	1125967	keystroke	u	n/a
563.089	0.1355	1126178	keystroke	r	n/a
563.3595	0.12	1126719	keystroke	s	n/a
563.5095	0.1195	1127019	keystroke	Key.space	n/a
563.735	0.134	1127470	keystroke	w	n/a
563.884	0.135	1127768	keystroke	o	n/a
564.0945	0.105	1128189	keystroke	n	n/a
564.3195	0.135	1128639	keystroke	'	n/a
564.5145	0.09	1129029	keystroke	t	n/a
564.7845	0.09	1129569	keystroke	Key.space	n/a
565.159	0.12	1130318	keystroke	c	n/a
565.309	0.135	1130618	keystroke	o	n/a
565.549	0.105	1131098	keystroke	n	n/a
565.699	0.135	1131398	keystroke	t	n/a
566.3885	0.12	1132777	keystroke	i	n/a
566.7485	0.105	1133497	keystroke	n	n/a
566.9585	0.09	1133917	keystroke	u	n/a
567.1385	0.1345	1134277	keystroke	e	n/a
567.363	0.12	1134726	keystroke	s	n/a
567.978	0.09	1135956	keystroke	Key.enter	n/a
568.073	12.5025	1136146	prompt	n/a	rebate medications hire stanford\n
568.7725	0.135	1137545	keystroke	r	n/a
568.9825	0.1345	1137965	keystroke	e	n/a
569.2515	0.105	1138503	keystroke	b	n/a
569.4915	0.1055	1138983	keystroke	a	n/a
569.657	0.12	1139314	keystroke	t	n/a
569.927	0.105	1139854	keystroke	Key.space	n/a
570.227	0.09	1140454	keystroke	m	n/a
570.4215	0.1655	1140843	keystroke	e	n/a
572.267	0.1045	1144534	keystroke	Key.backspace	n/a
572.5515	0.075	1145103	keystroke	Key.backspace	n/a
572.7465	0.105	1145493	keystroke	Key.backspace	n/a
573.0765	0.1345	1146153	keystroke	e	n/a
573.406	0.12	1146812	keystroke	Key.space	n/a
574.0805	0.1355	1148161	keystroke	m	n/a
574.3955	0.15	1148791	keystroke	e	n/a
574.981	0.09	1149962	keystroke	d	n/a
575.3705	0.09	1150741	keystroke	i	n/a
575.671	0.1195	1151342	keystroke	c	n/a
575.8805	0.15	1151761	keystroke	a	n/a
576.0605	0.105	1152121	keystroke	t	n/a
576.2255	0.12	1152451	keystroke	i	n/a
576.4205	0.135	1152841	keystroke	o	n/a
576.6155	0.1645	1153231	keystroke	n	n/a
576.795	0.135	1153590	keystroke	s	n/a
577.05	0.09	1154100	keystroke	Key.space	n/a
577.695	0.075	1155390	keystroke	h	n/a
577.905	0.09	1155810	keystroke	i	n/a
578.085	0.12	1156170	keystroke	r	n/a
578.28	0.105	1156560	keystroke	e	n/a
578.3995	0.105	1156799	keystroke	Key.space	n/a
578.6095	0.1805	1157219	keystroke	s	n/a
578.865	0.12	1157730	keystroke	t	n/a
579.12	0.105	1158240	keystroke	a	n/a
579.24	0.1045	1158480	keystroke	n	n/a
579.4645	0.105	1158929	keystroke	f	n/a
579.6295	0.12	1159259	keystroke	o	n/a
579.7645	0.1195	1159529	keystroke	r	n/a
580.1695	0.12	1160339	keystroke	d	n/a
580.439	0.135	1160878	keystroke	Key.enter	n/a
580.5785	18.0805	1161157	prompt	n/a	taiwan generates kennedy explanation\n
581.444	0.089	1162888	keystroke	t	n/a
582.3585	0.12	1164717	keystroke	a	n/a
582.6435	0.09	1165287	keystroke	i	n/a
582.868	0.12	1165736	keystroke	w	n/a
583.1375	0.075	1166275	keystroke	a	n/a
583.6925	0.105	1167385	keystroke	n	n/a
584.0525	0.09	1168105	keystroke	Key.space	n/a
584.668	0.09	1169336	keystroke	g	n/a
584.9375	0.1495	1169875	keystroke	e	n/a
585.102	0.105	1170204	keystroke	n	n/a
585.507	0.18	1171014	keystroke	e	n/a
585.612	0.15	1171224	keystroke	r	n/a
585.9125	0.09	1171825	keystroke	a	n/a
586.092	0.105	1172184	keystroke	t	n/a
586.3465	0.12	1172693	keystroke	e	n/a
586.6165	0.075	1173233	keystroke	s	n/a
586.7215	0.105	1173443	keystroke	Key.space	n/a
587.111	0.09	1174222	keystroke	k	n/a
587.396	0.15	1174792	keystroke	e	n/a
587.636	0.09	1175272	keystroke	n	n/a
587.816	0.075	1175632	keystroke	n	n/a
588.056	0.0455	1176112	keystroke	e	n/a
588.1915	0.09	1176383	keystroke	e	n/a
589.241	0.09	1178482	keystroke	Key.backspace	n/a
589.6465	0.12	1179293	keystroke	d	n/a
589.9465	0.165	1179893	keystroke	y	n/a
590.261	0.105	1180522	keystroke	Key.space	n/a
591.2205	0.165	1182441	keystroke	s	n/a
592.36	0.075	1184720	keystroke	Key.backspace	n/a
592.585	0.045	1185170	keystroke	Key.backspace	n/a
593.3945	0.105	1186789	keystroke	Key.space	n/a
595.419	0.1195	1190838	keystroke	e	n/a
595.898	0.1355	1191796	keystroke	x	n/a
596.1835	0.105	1192367	keystroke	p	n/a
596.468	0.105	1192936	keystroke	l	n/a
596.633	0.105	1193266	keystroke	a	n/a
597.263	0.09	1194526	keystroke	n	n/a
597.578	0.1055	1195156	keystroke	a	n/a
597.757	0.091	1195514	keystroke	t	n/a
597.863	0.105	1195726	keystroke	i	n/a
598.073	0.1045	1196146	keystroke	o	n/a
598.2375	0.105	1196475	keystroke	n	n/a
598.5375	0.12	1197075	keystroke	Key.enter	n/a
598.662	12.7135	1197324	prompt	n/a	ultram appreciated descending recreation\n
599.4675	0.09	1198935	keystroke	u	n/a
600.037	0.105	1200074	keystroke	l	n/a
600.232	0.1055	1200464	keystroke	t	n/a
600.622	0.1195	1201244	keystroke	r	n/a
600.8765	0.12	1201753	keystroke	a	n/a
601.0565	0.12	1202113	keystroke	m	n/a
601.2815	0.105	1202563	keystroke	Key.space	n/a
601.6415	0.1055	1203283	keystroke	a	n/a
601.9415	0.105	1203883	keystroke	p	n/a
602.1215	0.1055	1204243	keystroke	p	n/a
602.4665	0.135	1204933	keystroke	r	n/a
602.872	0.135	1205744	keystroke	e	n/a
603.501	0.12	1207002	keystroke	c	n/a
603.771	0.075	1207542	keystroke	i	n/a
603.966	0.135	1207932	keystroke	a	n/a
604.146	0.09	1208292	keystroke	t	n/a
604.386	0.135	1208772	keystroke	e	n/a
604.6555	0.1045	1209311	keystroke	d	n/a
604.82	0.121	1209640	keystroke	Key.space	n/a
605.195	0.106	1210390	keystroke	d	n/a
605.481	0.165	1210962	keystroke	e	n/a
605.916	0.12	1211832	keystroke	c	n/a
606.1255	0.12	1212251	keystroke	e	n/a
606.2755	0.12	1212551	keystroke	n	n/a
606.6055	0.1195	1213211	keystroke	d	n/a
606.74	0.105	1213480	keystroke	i	n/a
606.92	0.12	1213840	keystroke	n	n/a
607.07	0.091	1214140	keystroke	g	n/a
607.19	0.105	1214380	keystroke	Key.space	n/a
607.505	0.15	1215010	keystroke	r	n/a
607.76	0.1495	1215520	keystroke	e	n/a
608.0895	0.1495	1216179	keystroke	c	n/a
609.5295	0.105	1219059	keystroke	r	n/a
609.979	0.12	1219958	keystroke	e	n/a
610.204	0.1345	1220408	keystroke	a	n/a
610.3235	0.1355	1220647	keystroke	t	n/a
610.534	0.12	1221068	keystroke	i	n/a
610.729	0.12	1221458	keystroke	o	n/a
610.9095	0.12	1221819	keystroke	n	n/a
611.2245	0.15	1222449	keystroke	Key.enter	n/a
611.3785	19.2815	1222757	prompt	n/a	designated sandwich postage prix\n
612.364	0.105	1224728	keystroke	d	n/a
612.754	0.1345	1225508	keystroke	e	n/a
613.308	0.135	1226616	keystroke	s	n/a
613.6985	0.105	1227397	keystroke	i	n/a
613.9685	0.105	1227937	keystroke	g	n/a
614.253	0.09	1228506	keystroke	n	n/a
614.568	0.165	1229136	keystroke	a	n/a
614.748	0.135	1229496	keystroke	t	n/a
614.9875	0.1345	1229975	keystroke	e	n/a
615.242	0.0895	1230484	keystroke	d	n/a
615.4825	0.075	1230965	keystroke	Key.space	n/a
615.782	0.1505	1231564	keystroke	s	n/a
616.0375	0.1345	1232075	keystroke	a	n/a
616.187	0.12	1232374	keystroke	n	n/a
616.922	0.12	1233844	keystroke	d	n/a
617.207	0.12	1234414	keystroke	w	n/a
617.357	0.1045	1234714	keystroke	i	n/a
618.3615	0.1195	1236723	keystroke	c	n/a
618.496	0.1205	1236992	keystroke	h	n/a
618.8115	0.105	1237623	keystroke	Key.space	n/a
619.351	0.03	1238702	keystroke	k	n/a
619.4865	0.12	1238973	keystroke	p	n/a
619.741	0.12	1239482	keystroke	o	n/a
619.9055	0.151	1239811	keystroke	s	n/a
620.161	0.1205	1240322	keystroke	t	n/a
620.416	0.135	1240832	keystroke	a	n/a
620.6855	0.1055	1241371	keystroke	g	n/a
620.941	0.105	1241882	keystroke	e	n/a
621.121	0.12	1242242	keystroke	Key.space	n/a
621.4055	0.1505	1242811	keystroke	p	n/a
621.586	0.135	1243172	keystroke	r	n/a
621.841	0.03	1243682	keystroke	i	n/a
622.92	0.06	1245840	keystroke	Key.backspace	n/a
623.1	0.075	1246200	keystroke	Key.backspace	n/a
623.3255	0.09	1246651	keystroke	=	n/a
624.1055	0.075	1248211	keystroke	Key.backspace	n/a
624.3145	0.045	1248629	keystroke	Key.backspace	n/a
624.4955	0.059	1248991	keystroke	Key.backspace	n/a
624.675	0.06	1249350	keystroke	Key.backspace	n/a
624.8545	0.075	1249709	keystroke	Key.backspace	n/a
625.0345	0.09	1250069	keystroke	Key.backspace	n/a
625.2145	0.09	1250429	keystroke	Key.backspace	n/a
625.3945	0.075	1250789	keystroke	Key.backspace	n/a
625.5745	0.09	1251149	keystroke	Key.backspace	n/a
625.7995	0.0895	1251599	keystroke	Key.backspace	n/a
626.039	0.03	1252078	keystroke	Key.backspace	n/a
627.029	0.1195	1254058	keystroke	p	n/a
627.2995	0.089	1254599	keystroke	o	n/a
627.5395	0.119	1255079	keystroke	s	n/a
627.764	0.135	1255528	keystroke	t	n/a
628.019	0.1345	1256038	keystroke	a	n/a
628.2285	0.1055	1256457	keystroke	g	n/a
628.4685	0.105	1256937	keystroke	e	n/a
628.648	0.12	1257296	keystroke	Key.space	n/a
628.978	0.12	1257956	keystroke	p	n/a
629.143	0.135	1258286	keystroke	r	n/a
629.323	0.075	1258646	keystroke	i	n/a
630.2235	0.1195	1260447	keystroke	x	n/a
630.538	0.12	1261076	keystroke	Key.enter	n/a
630.663	20.497	1261326	prompt	n/a	interesting disappointed munich municipality\n
631.7085	0.06	1263417	keystroke	i	n/a
631.8885	0.105	1263777	keystroke	n	n/a
632.0235	0.105	1264047	keystroke	t	n/a
632.2185	0.1645	1264437	keystroke	e	n/a
632.323	0.12	1264646	keystroke	r	n/a
632.593	0.1345	1265186	keystroke	r	n/a
633.882	0.105	1267764	keystroke	Key.backspace	n/a
634.392	0.1345	1268784	keystroke	e	n/a
634.6015	0.1505	1269203	keystroke	s	n/a
634.827	0.1345	1269654	keystroke	t	n/a
635.0365	0.105	1270073	keystroke	i	n/a
635.2015	0.12	1270403	keystroke	n	n/a
635.3515	0.09	1270703	keystroke	g	n/a
635.6515	0.105	1271303	keystroke	Key.space	n/a
636.0265	0.0895	1272053	keystroke	d	n/a
636.176	0.09	1272352	keystroke	i	n/a
636.311	0.18	1272622	keystroke	s	n/a
636.641	0.12	1273282	keystroke	p	n/a
637.586	0.075	1275172	keystroke	Key.backspace	n/a
639.281	0.1055	1278562	keystroke	a	n/a
639.5065	0.0895	1279013	keystroke	p	n/a
639.686	0.1055	1279372	keystroke	p	n/a
640.4355	0.09	1280871	keystroke	o	n/a
640.8705	0.0745	1281741	keystroke	i	n/a
641.05	0.105	1282100	keystroke	n	n/a
641.3205	0.105	1282641	keystroke	t	n/a
641.5455	0.12	1283091	keystroke	e	n/a
641.8	0.09	1283600	keystroke	d	n/a
642.0545	0.105	1284109	keystroke	Key.space	n/a
642.6105	0.1045	1285221	keystroke	m	n/a
642.835	0.09	1285670	keystroke	u	n/a
643.09	0.12	1286180	keystroke	c	n/a
643.495	0.075	1286990	keystroke	i	n/a
643.75	0.105	1287500	keystroke	c	n/a
643.9	0.105	1287800	keystroke	h	n/a
644.1245	0.09	1288249	keystroke	Key.space	n/a
644.4545	0.075	1288909	keystroke	m	n/a
645.6695	0.105	1291339	keystroke	u	n/a
647.588	0.076	1295176	keystroke	n	n/a
647.8585	0.06	1295717	keystroke	i	n/a
648.129	0.12	1296258	keystroke	c	n/a
648.369	0.06	1296738	keystroke	i	n/a
648.6985	0.09	1297397	keystroke	p	n/a
648.9685	0.12	1297937	keystroke	a	n/a
650.139	0.075	1300278	keystroke	l	n/a
650.409	0.075	1300818	keystroke	i	n/a
650.574	0.105	1301148	keystroke	t	n/a
650.6935	0.09	1301387	keystroke	y	n/a
651.053	0.105	1302106	keystroke	Key.enter	n/a
651.163	15.1145	1302326	prompt	n/a	positions stylus composition request\n
651.833	0.105	1303666	keystroke	p	n/a
652.103	0.15	1304206	keystroke	o	n/a
652.463	0.12	1304926	keystroke	s	n/a
653.738	0.045	1307476	keystroke	i	n/a
653.8885	0.12	1307777	keystroke	t	n/a
654.0685	0.119	1308137	keystroke	o	n/a
654.3075	0.075	1308615	keystroke	n	n/a
654.4725	0.105	1308945	keystroke	s	n/a
654.6375	0.09	1309275	keystroke	Key.space	n/a
654.938	0.105	1309876	keystroke	s	n/a
655.433	0.09	1310866	keystroke	t	n/a
655.838	0.105	1311676	keystroke	y	n/a
656.213	0.09	1312426	keystroke	l	n/a
656.9625	0.075	1313925	keystroke	u	n/a
657.172	0.12	1314344	keystroke	s	n/a
657.3525	0.12	1314705	keystroke	Key.space	n/a
657.9375	0.105	1315875	keystroke	c	n/a
658.1325	0.09	1316265	keystroke	o	n/a
658.3575	0.09	1316715	keystroke	m	n/a
658.658	0.1195	1317316	keystroke	p	n/a
658.9275	0.089	1317855	keystroke	o	n/a
659.1525	0.105	1318305	keystroke	s	n/a
659.7665	0.06	1319533	keystroke	i	n/a
659.9925	0.104	1319985	keystroke	t	n/a
660.1875	0.089	1320375	keystroke	o	n/a
661.462	0.0595	1322924	keystroke	Key.backspace	n/a
662.8115	0.075	1325623	keystroke	i	n/a
663.081	0.09	1326162	keystroke	o	n/a
663.276	0.09	1326552	keystroke	n	n/a
663.5165	0.09	1327033	keystroke	Key.space	n/a
663.756	0.15	1327512	keystroke	r	n/a
664.401	0.1505	1328802	keystroke	e	n/a
664.6865	0.119	1329373	keystroke	q	n/a
664.8065	0.105	1329613	keystroke	u	n/a
665.421	0.165	1330842	keystroke	e	n/a
665.661	0.1495	1331322	keystroke	s	n/a
665.9155	0.1055	1331831	keystroke	t	n/a
666.171	0.105	1332342	keystroke	Key.enter	n/a
666.2805	12.175	1332561	prompt	n/a	spirit bolivia disabled calm\n
667.0705	0.105	1334141	keystroke	s	n/a
667.2805	0.0905	1334561	keystroke	p	n/a
667.536	0.075	1335072	keystroke	i	n/a
667.746	0.135	1335492	keystroke	r	n/a
667.986	0.104	1335972	keystroke	t	n/a
668.18	0.1055	1336360	keystroke	Key.space	n/a
668.4805	0.135	1336961	keystroke	b	n/a
668.7655	0.12	1337531	keystroke	o	n/a
669.275	0.075	1338550	keystroke	l	n/a
669.5155	0.045	1339031	keystroke	i	n/a
669.695	0.105	1339390	keystroke	v	n/a
669.9945	0.061	1339989	keystroke	i	n/a
670.49	0.105	1340980	keystroke	a	n/a
670.6995	0.105	1341399	keystroke	Key.space	n/a
671.4795	0.0905	1342959	keystroke	d	n/a
672.59	0.06	1345180	keystroke	i	n/a
672.7995	0.12	1345599	keystroke	s	n/a
673.0995	0.165	1346199	keystroke	a	n/a
673.3845	0.105	1346769	keystroke	b	n/a
673.5945	0.105	1347189	keystroke	l	n/a
673.7445	0.12	1347489	keystroke	e	n/a
674.03	0.09	1348060	keystroke	d	n/a
674.254	0.105	1348508	keystroke	Key.space	n/a
674.72	0.12	1349440	keystroke	c	n/a
674.93	0.075	1349860	keystroke	l	n/a
675.9795	0.06	1351959	keystroke	Key.backspace	n/a
676.3545	0.105	1352709	keystroke	a	n/a
676.5345	0.105	1353069	keystroke	l	n/a
677.434	0.075	1354868	keystroke	m	n/a
678.3635	0.09	1356727	keystroke	Key.enter	n/a
678.4585	12.4895	1356917	prompt	n/a	dentists schemes search looksmart\n
679.4285	0.105	1358857	keystroke	d	n/a
679.6835	0.105	1359367	keystroke	e	n/a
679.8635	0.09	1359727	keystroke	n	n/a
680.4035	0.105	1360807	keystroke	t	n/a
680.5985	0.075	1361197	keystroke	i	n/a
680.9275	0.105	1361855	keystroke	s	n/a
681.153	0.105	1362306	keystroke	t	n/a
681.558	0.09	1363116	keystroke	s	n/a
681.798	0.105	1363596	keystroke	Key.space	n/a
682.2625	0.1055	1364525	keystroke	s	n/a
682.533	0.15	1365066	keystroke	c	n/a
682.818	0.09	1365636	keystroke	h	n/a
683.313	0.135	1366626	keystroke	e	n/a
683.508	0.1045	1367016	keystroke	m	n/a
683.7325	0.105	1367465	keystroke	e	n/a
683.973	0.15	1367946	keystroke	s	n/a
684.168	0.0895	1368336	keystroke	Key.space	n/a
684.4075	0.15	1368815	keystroke	s	n/a
684.678	0.12	1369356	keystroke	e	n/a
685.3075	0.15	1370615	keystroke	a	n/a
685.4725	0.135	1370945	keystroke	r	n/a
685.8475	0.12	1371695	keystroke	c	n/a
686.3725	0.0755	1372745	keystroke	h	n/a
686.6275	0.105	1373255	keystroke	Key.space	n/a
687.0325	0.075	1374065	keystroke	l	n/a
687.333	0.105	1374666	keystroke	o	n/a
687.5425	0.09	1375085	keystroke	o	n/a
688.2925	0.06	1376585	keystroke	k	n/a
688.517	0.1205	1377034	keystroke	s	n/a
689.0575	0.1345	1378115	keystroke	s	n/a
689.267	0.105	1378534	keystroke	m	n/a
689.6265	0.165	1379253	keystroke	a	n/a
689.8075	0.149	1379615	keystroke	r	n/a
690.061	0.076	1380122	keystroke	t	n/a
690.8565	0.09	1381713	keystroke	Key.enter	n/a
690.951	10.871	1381902	prompt	n/a	drives gazette pros verify\n
691.8615	0.105	1383723	keystroke	d	n/a
692.1165	0.075	1384233	keystroke	i	n/a
692.8515	0.09	1385703	keystroke	r	n/a
693.811	0.09	1387622	keystroke	Key.backspace	n/a
694.216	0.075	1388432	keystroke	Key.backspace	n/a
694.7115	0.105	1389423	keystroke	r	n/a
694.9365	0.075	1389873	keystroke	i	n/a
695.2065	0.0895	1390413	keystroke	v	n/a
695.446	0.12	1390892	keystroke	e	n/a
695.611	0.12	1391222	keystroke	s	n/a
695.761	0.1045	1391522	keystroke	Key.space	n/a
696.0605	0.12	1392121	keystroke	g	n/a
696.3455	0.135	1392691	keystroke	a	n/a
696.751	0.105	1393502	keystroke	z	n/a
697.081	0.12	1394162	keystroke	e	n/a
697.336	0.075	1394672	keystroke	t	n/a
697.4855	0.09	1394971	keystroke	t	n/a
697.7405	0.105	1395481	keystroke	e	n/a
697.9805	0.075	1395961	keystroke	Key.space	n/a
698.251	0.105	1396502	keystroke	p	n/a
698.416	0.1195	1396832	keystroke	r	n/a
698.5955	0.105	1397191	keystroke	o	n/a
698.8655	0.105	1397731	keystroke	s	n/a
699.1055	0.09	1398211	keystroke	Key.space	n/a
699.4505	0.105	1398901	keystroke	v	n/a
699.9605	0.09	1399921	keystroke	e	n/a
700.59	0.105	1401180	keystroke	r	n/a
700.86	0.06	1401720	keystroke	i	n/a
701.19	0.075	1402380	keystroke	f	n/a
701.37	0.09	1402740	keystroke	y	n/a
701.73	0.09	1403460	keystroke	Key.enter	n/a
701.827	14.318	1403654	prompt	n/a	university importantly caroline venture\n
702.585	0.0755	1405170	keystroke	u	n/a
702.9755	0.09	1405951	keystroke	n	n/a
704.0095	0.06	1408019	keystroke	i	n/a
704.2945	0.105	1408589	keystroke	v	n/a
704.5945	0.1205	1409189	keystroke	e	n/a
704.895	0.135	1409790	keystroke	r	n/a
705.4345	0.12	1410869	keystroke	s	n/a
705.5845	0.0745	1411169	keystroke	i	n/a
705.764	0.12	1411528	keystroke	t	n/a
705.899	0.105	1411798	keystroke	y	n/a
706.109	0.1205	1412218	keystroke	Key.space	n/a
706.6945	0.0905	1413389	keystroke	i	n/a
706.935	0.09	1413870	keystroke	m	n/a
707.3395	0.09	1414679	keystroke	p	n/a
707.6245	0.09	1415249	keystroke	o	n/a
707.8345	0.12	1415669	keystroke	r	n/a
708.089	0.09	1416178	keystroke	t	n/a
708.854	0.105	1417708	keystroke	a	n/a
708.974	0.09	1417948	keystroke	n	n/a
709.4995	0.09	1418999	keystroke	t	n/a
709.7095	0.09	1419419	keystroke	l	n/a
709.9495	0.089	1419899	keystroke	y	n/a
710.2045	0.1045	1420409	keystroke	Key.space	n/a
710.6985	0.09	1421397	keystroke	c	n/a
710.9085	0.18	1421817	keystroke	a	n/a
711.1485	0.12	1422297	keystroke	r	n/a
711.5535	0.09	1423107	keystroke	o	n/a
711.7785	0.09	1423557	keystroke	l	n/a
711.9885	0.06	1423977	keystroke	i	n/a
712.139	0.075	1424278	keystroke	n	n/a
712.334	0.105	1424668	keystroke	e	n/a
712.484	0.105	1424968	keystroke	Key.space	n/a
712.919	0.105	1425838	keystroke	v	n/a
714.3435	0.15	1428687	keystroke	e	n/a
714.5085	0.075	1429017	keystroke	n	n/a
715.019	0.0895	1430038	keystroke	t	n/a
715.2285	0.0905	1430457	keystroke	u	n/a
715.4235	0.135	1430847	keystroke	r	n/a
715.6935	0.12	1431387	keystroke	e	n/a
716.0685	0.075	1432137	keystroke	Key.enter	n/a
716.148	13.855	1432296	prompt	n/a	inquire myself modern primarily\n
716.9235	0.075	1433847	keystroke	i	n/a
717.748	0.075	1435496	keystroke	n	n/a
718.093	0.135	1436186	keystroke	q	n/a
718.243	0.09	1436486	keystroke	u	n/a
718.903	0.075	1437806	keystroke	i	n/a
719.113	0.1645	1438226	keystroke	r	n/a
719.4575	0.105	1438915	keystroke	e	n/a
719.6525	0.105	1439305	keystroke	Key.space	n/a
720.0125	0.09	1440025	keystroke	m	n/a
720.2525	0.1355	1440505	keystroke	e	n/a
720.508	0.075	1441016	keystroke	y	n/a
720.852	0.12	1441704	keystroke	s	n/a
721.212	0.09	1442424	keystroke	e	n/a
721.422	0.075	1442844	keystroke	l	n/a
721.647	0.075	1443294	keystroke	f	n/a
722.202	0.105	1444404	keystroke	Key.space	n/a
722.6215	0.09	1445243	keystroke	m	n/a
722.877	0.105	1445754	keystroke	o	n/a
723.1475	0.1045	1446295	keystroke	d	n/a
723.4325	0.2245	1446865	keystroke	e	n/a
723.5825	0.0895	1447165	keystroke	r	n/a
724.9465	0.075	1449893	keystroke	n	n/a
725.577	0.09	1451154	keystroke	Key.space	n/a
725.9965	0.12	1451993	keystroke	p	n/a
726.1915	0.12	1452383	keystroke	r	n/a
726.4015	0.06	1452803	keystroke	i	n/a
726.8215	0.075	1453643	keystroke	m	n/a
727.1365	0.105	1454273	keystroke	a	n/a
727.8865	0.09	1455773	keystroke	r	n/a
728.1565	0.075	1456313	keystroke	i	n/a
729.281	0.09	1458562	keystroke	l	n/a
729.536	0.09	1459072	keystroke	y	n/a
729.911	0.09	1459822	keystroke	Key.enter	n/a
730.006	25.9285	1460012	prompt	n/a	actress vancouver athletic gets\n
730.8115	0.15	1461623	keystroke	a	n/a
731.0815	0.105	1462163	keystroke	c	n/a
731.366	0.09	1462732	keystroke	t	n/a
731.741	0.12	1463482	keystroke	r	n/a
731.981	0.12	1463962	keystroke	e	n/a
732.252	0.104	1464504	keystroke	s	n/a
732.491	0.105	1464982	keystroke	s	n/a
732.746	0.105	1465492	keystroke	Key.space	n/a
733.4215	0.12	1466843	keystroke	a	n/a
733.6165	0.09	1467233	keystroke	n	n/a
733.946	0.12	1467892	keystroke	c	n/a
734.231	0.0895	1468462	keystroke	o	n/a
734.546	0.09	1469092	keystroke	u	n/a
735.356	0.075	1470712	keystroke	v	n/a
735.641	0.18	1471282	keystroke	e	n/a
735.776	0.1205	1471552	keystroke	r	n/a
735.9705	0.09	1471941	keystroke	Key.space	n/a
736.2255	0.12	1472451	keystroke	a	n/a
737.875	0.075	1475750	keystroke	Key.backspace	n/a
738.1305	0.03	1476261	keystroke	Key.backspace	n/a
738.2955	0.09	1476591	keystroke	Key.backspace	n/a
738.5055	0.075	1477011	keystroke	Key.backspace	n/a
738.7005	0.075	1477401	keystroke	Key.backspace	n/a
738.91	0.075	1477820	keystroke	Key.backspace	n/a
739.105	0.0745	1478210	keystroke	Key.backspace	n/a
739.3005	0.0895	1478601	keystroke	Key.backspace	n/a
739.51	0.075	1479020	keystroke	Key.backspace	n/a
739.7345	0.03	1479469	keystroke	Key.backspace	n/a
740.1545	0.015	1480309	keystroke	k	n/a
740.6505	0.105	1481301	keystroke	v	n/a
740.905	0.1345	1481810	keystroke	a	n/a
741.145	0.105	1482290	keystroke	n	n/a
741.7455	0.09	1483491	keystroke	c	n/a
742.4195	0.075	1484839	keystroke	o	n/a
742.7205	0.089	1485441	keystroke	u	n/a
743.4245	0.0905	1486849	keystroke	v	n/a
744.3095	0.09	1488619	keystroke	Key.backspace	n/a
744.5645	0.0605	1489129	keystroke	Key.backspace	n/a
744.76	0.0745	1489520	keystroke	Key.backspace	n/a
744.9545	0.105	1489909	keystroke	Key.backspace	n/a
745.1795	0.075	1490359	keystroke	Key.backspace	n/a
745.3805	0.069	1490761	keystroke	Key.backspace	n/a
745.5845	0.0755	1491169	keystroke	Key.backspace	n/a
746.0045	0.09	1492009	keystroke	Key.backspace	n/a
747.13	0.09	1494260	keystroke	v	n/a
748.0145	0.1345	1496029	keystroke	a	n/a
748.1645	0.1195	1496329	keystroke	n	n/a
748.7345	0.09	1497469	keystroke	c	n/a
749.1545	0.09	1498309	keystroke	o	n/a
749.3495	0.105	1498699	keystroke	u	n/a
750.444	0.075	1500888	keystroke	v	n/a
750.6845	0.18	1501369	keystroke	e	n/a
750.8185	0.121	1501637	keystroke	r	n/a
751.0285	0.091	1502057	keystroke	Key.space	n/a
751.4495	0.1045	1502899	keystroke	a	n/a
751.7185	0.12	1503437	keystroke	t	n/a
752.2135	0.09	1504427	keystroke	h	n/a
752.6635	0.06	1505327	keystroke	l	n/a
752.8885	0.105	1505777	keystroke	e	n/a
753.158	0.105	1506316	keystroke	t	n/a
753.324	0.075	1506648	keystroke	i	n/a
753.549	0.09	1507098	keystroke	c	n/a
754.208	0.09	1508416	keystroke	Key.space	n/a
754.613	0.0905	1509226	keystroke	g	n/a
754.8225	0.12	1509645	keystroke	e	n/a
755.0325	0.09	1510065	keystroke	t	n/a
755.3175	0.135	1510635	keystroke	s	n/a
755.8275	0.105	1511655	keystroke	Key.enter	n/a
755.9375	12.7005	1511875	prompt	n/a	rock decimal tremendous salmon\n
756.7125	0.106	1513425	keystroke	r	n/a
756.8925	0.12	1513785	keystroke	o	n/a
757.103	0.105	1514206	keystroke	c	n/a
757.298	0.09	1514596	keystroke	k	n/a
757.538	0.1045	1515076	keystroke	Key.space	n/a
758.0625	0.09	1516125	keystroke	d	n/a
758.3325	0.12	1516665	keystroke	e	n/a
758.7825	0.105	1517565	keystroke	c	n/a
758.9925	0.075	1517985	keystroke	i	n/a
759.217	0.0905	1518434	keystroke	m	n/a
759.7575	0.1055	1519515	keystroke	a	n/a
759.983	0.105	1519966	keystroke	l	n/a
760.208	0.09	1520416	keystroke	Key.space	n/a
760.478	0.104	1520956	keystroke	t	n/a
761.017	0.09	1522034	keystroke	r	n/a
762.1425	0.105	1524285	keystroke	e	n/a
762.4275	0.09	1524855	keystroke	m	n/a
762.907	0.105	1525814	keystroke	e	n/a
763.057	0.09	1526114	keystroke	n	n/a
763.477	0.09	1526954	keystroke	d	n/a
763.657	0.12	1527314	keystroke	o	n/a
763.822	0.1055	1527644	keystroke	u	n/a
764.0325	0.12	1528065	keystroke	s	n/a
764.3025	0.1195	1528605	keystroke	Key.space	n/a
764.752	0.135	1529504	keystroke	s	n/a
765.097	0.15	1530194	keystroke	a	n/a
765.907	0.075	1531814	keystroke	l	n/a
766.237	0.135	1532474	keystroke	o	n/a
767.212	0.075	1534424	keystroke	Key.backspace	n/a
767.797	0.105	1535594	keystroke	m	n/a
767.977	0.105	1535954	keystroke	o	n/a
768.157	0.12	1536314	keystroke	n	n/a
768.532	0.1045	1537064	keystroke	Key.enter	n/a
768.641	13.7965	1537282	prompt	n/a	friendship participating emacs threaded\n
769.8065	0.015	1539613	keystroke	f	n/a
769.9415	0.1055	1539883	keystroke	r	n/a
770.182	0.0745	1540364	keystroke	i	n/a
770.4065	0.165	1540813	keystroke	e	n/a
770.6475	0.1045	1541295	keystroke	n	n/a
772.132	0.105	1544264	keystroke	d	n/a
772.492	0.135	1544984	keystroke	s	n/a
772.687	0.135	1545374	keystroke	h	n/a
772.912	0.135	1545824	keystroke	i	n/a
773.197	0.135	1546394	keystroke	p	n/a
773.452	0.0595	1546904	keystroke	Key.space	n/a
773.737	0.1195	1547474	keystroke	p	n/a
773.9615	0.15	1547923	keystroke	a	n/a
774.1565	0.18	1548313	keystroke	r	n/a
774.3815	0.105	1548763	keystroke	t	n/a
774.636	0.076	1549272	keystroke	i	n/a
774.9365	0.105	1549873	keystroke	c	n/a
775.2365	0.09	1550473	keystroke	i	n/a
775.7615	0.09	1551523	keystroke	p	n/a
776.0015	0.105	1552003	keystroke	a	n/a
776.1815	0.1495	1552363	keystroke	t	n/a
776.6915	0.09	1553383	keystroke	i	n/a
776.856	0.09	1553712	keystroke	n	n/a
777.006	0.09	1554012	keystroke	g	n/a
777.156	0.105	1554312	keystroke	Key.space	n/a
777.621	0.12	1555242	keystroke	e	n/a
777.816	0.12	1555632	keystroke	m	n/a
778.1015	0.135	1556203	keystroke	a	n/a
778.4165	0.12	1556833	keystroke	c	n/a
778.701	0.105	1557402	keystroke	s	n/a
778.9115	0.089	1557823	keystroke	Key.space	n/a
779.2865	0.12	1558573	keystroke	t	n/a
779.5555	0.09	1559111	keystroke	h	n/a
780.411	0.12	1560822	keystroke	r	n/a
780.6505	0.12	1561301	keystroke	e	n/a
780.9505	0.12	1561901	keystroke	a	n/a
781.191	0.12	1562382	keystroke	d	n/a
781.506	0.12	1563012	keystroke	e	n/a
781.7905	0.09	1563581	keystroke	d	n/a
782.0455	0.075	1564091	keystroke	Key.space	n/a
782.3305	0.105	1564661	keystroke	Key.enter	n/a
782.4405	12.9705	1564881	prompt	n/a	district cars compatibility cycle\n
783.365	0.09	1566730	keystroke	d	n/a
783.635	0.06	1567270	keystroke	i	n/a
783.83	0.135	1567660	keystroke	s	n/a
784.07	0.105	1568140	keystroke	t	n/a
784.3855	0.105	1568771	keystroke	r	n/a
784.5355	0.075	1569071	keystroke	i	n/a
784.82	0.09	1569640	keystroke	c	n/a
785.09	0.0745	1570180	keystroke	t	n/a
785.33	0.12	1570660	keystroke	Key.space	n/a
785.675	0.105	1571350	keystroke	c	n/a
785.93	0.15	1571860	keystroke	a	n/a
786.0945	0.1055	1572189	keystroke	r	n/a
786.4105	0.104	1572821	keystroke	s	n/a
786.56	0.105	1573120	keystroke	Key.space	n/a
786.8745	0.075	1573749	keystroke	c	n/a
786.9945	0.1055	1573989	keystroke	o	n/a
787.205	0.104	1574410	keystroke	m	n/a
787.73	0.089	1575460	keystroke	p	n/a
787.9845	0.09	1575969	keystroke	a	n/a
788.254	0.105	1576508	keystroke	t	n/a
788.8245	0.0745	1577649	keystroke	i	n/a
789.2595	0.0895	1578519	keystroke	b	n/a
790.249	0.045	1580498	keystroke	l	n/a
791.059	0.06	1582118	keystroke	Key.backspace	n/a
791.644	0.105	1583288	keystroke	i	n/a
792.154	0.075	1584308	keystroke	l	n/a
792.694	0.0605	1585388	keystroke	i	n/a
792.9495	0.09	1585899	keystroke	t	n/a
793.0995	0.075	1586199	keystroke	y	n/a
793.3395	0.075	1586679	keystroke	Key.space	n/a
793.6095	0.105	1587219	keystroke	c	n/a
793.894	0.09	1587788	keystroke	y	n/a
794.344	0.1055	1588688	keystroke	c	n/a
794.5395	0.135	1589079	keystroke	e	n/a
794.749	0.105	1589498	keystroke	l	n/a
795.3185	0.09	1590637	keystroke	Key.enter	n/a
795.414	12.6105	1590828	prompt	n/a	theorem clocks childrens making\n
796.519	0.105	1593038	keystroke	t	n/a
796.774	0.09	1593548	keystroke	h	n/a
797.014	0.135	1594028	keystroke	e	n/a
797.419	0.0895	1594838	keystroke	o	n/a
797.7035	0.135	1595407	keystroke	r	n/a
797.9435	0.1505	1595887	keystroke	e	n/a
798.139	0.0905	1596278	keystroke	m	n/a
798.394	0.09	1596788	keystroke	Key.space	n/a
798.7835	0.075	1597567	keystroke	c	n/a
798.9935	0.09	1597987	keystroke	l	n/a
799.2785	0.09	1598557	keystroke	o	n/a
799.7735	0.09	1599547	keystroke	c	n/a
799.9235	0.075	1599847	keystroke	k	n/a
800.1935	0.09	1600387	keystroke	s	n/a
800.344	0.1195	1600688	keystroke	Key.space	n/a
800.6585	0.1195	1601317	keystroke	c	n/a
800.8535	0.1055	1601707	keystroke	h	n/a
801.3935	0.075	1602787	keystroke	i	n/a
801.6485	0.075	1603297	keystroke	l	n/a
802.114	0.12	1604228	keystroke	d	n/a
802.654	0.12	1605308	keystroke	r	n/a
802.894	0.105	1605788	keystroke	e	n/a
803.074	0.09	1606148	keystroke	n	n/a
803.284	0.104	1606568	keystroke	s	n/a
803.493	0.091	1606986	keystroke	Key.space	n/a
803.764	0.075	1607528	keystroke	m	n/a
804.424	0.119	1608848	keystroke	a	n/a
806.508	0.0755	1613016	keystroke	k	n/a
806.7335	0.075	1613467	keystroke	i	n/a
806.9135	0.075	1613827	keystroke	n	n/a
807.0935	0.075	1614187	keystroke	g	n/a
807.6185	0.075	1615237	keystroke	Key.space	n/a
807.9035	0.12	1615807	keystroke	Key.enter	n/a
808.028	11.7855	1616056	prompt	n/a	nevertheless then certain obituaries\n
808.7425	0.075	1617485	keystroke	n	n/a
808.938	0.1345	1617876	keystroke	e	n/a
809.373	0.104	1618746	keystroke	v	n/a
809.583	0.1795	1619166	keystroke	e	n/a
809.688	0.1355	1619376	keystroke	r	n/a
809.958	0.119	1619916	keystroke	t	n/a
810.1675	0.1055	1620335	keystroke	h	n/a
810.5125	0.105	1621025	keystroke	e	n/a
811.3825	0.075	1622765	keystroke	l	n/a
811.5775	0.12	1623155	keystroke	e	n/a
811.817	0.105	1623634	keystroke	s	n/a
812.012	0.105	1624024	keystroke	s	n/a
812.372	0.105	1624744	keystroke	Key.space	n/a
812.9425	0.0755	1625885	keystroke	t	n/a
813.063	0.12	1626126	keystroke	h	n/a
813.228	0.12	1626456	keystroke	e	n/a
813.363	0.12	1626726	keystroke	n	n/a
813.618	0.105	1627236	keystroke	Key.space	n/a
813.873	0.12	1627746	keystroke	c	n/a
814.383	0.1045	1628766	keystroke	e	n/a
814.6375	0.105	1629275	keystroke	r	n/a
814.8625	0.09	1629725	keystroke	t	n/a
815.1475	0.105	1630295	keystroke	a	n/a
815.3125	0.09	1630625	keystroke	i	n/a
815.5075	0.075	1631015	keystroke	n	n/a
815.7175	0.105	1631435	keystroke	Key.space	n/a
816.2275	0.09	1632455	keystroke	o	n/a
816.7975	0.075	1633595	keystroke	b	n/a
817.2325	0.06	1634465	keystroke	i	n/a
817.5325	0.1045	1635065	keystroke	t	n/a
818.0725	0.075	1636145	keystroke	u	n/a
818.4925	0.1495	1636985	keystroke	a	n/a
818.657	0.12	1637314	keystroke	r	n/a
819.092	0.0605	1638184	keystroke	i	n/a
819.2875	0.09	1638575	keystroke	e	n/a
819.4825	0.15	1638965	keystroke	s	n/a
819.7075	0.105	1639415	keystroke	Key.enter	n/a
819.8165	19.512	1639633	prompt	n/a	mustn't offered mortality mars\n
822.0945	0.013	1644189	keystroke	m	n/a
822.2575	0.09	1644515	keystroke	u	n/a
822.4525	0.105	1644905	keystroke	s	n/a
822.6615	0.121	1645323	keystroke	t	n/a
823.5325	0.075	1647065	keystroke	n	n/a
823.8475	0.1195	1647695	keystroke	'	n/a
824.312	0.075	1648624	keystroke	t	n/a
824.597	0.09	1649194	keystroke	Key.space	n/a
824.867	0.09	1649734	keystroke	o	n/a
825.002	0.09	1650004	keystroke	f	n/a
825.167	0.105	1650334	keystroke	f	n/a
825.482	0.18	1650964	keystroke	e	n/a
825.602	0.1195	1651204	keystroke	r	n/a
826.2915	0.12	1652583	keystroke	d	n/a
826.5315	0.0905	1653063	keystroke	Key.space	n/a
826.8475	0.074	1653695	keystroke	m	n/a
827.0565	0.105	1654113	keystroke	o	n/a
827.3275	0.105	1654655	keystroke	r	n/a
827.537	0.12	1655074	keystroke	t	n/a
827.912	0.12	1655824	keystroke	a	n/a
831.2285	0.013	1662457	keystroke	Key.backspace	n/a
831.3615	0.075	1662723	keystroke	Key.backspace	n/a
831.557	0.075	1663114	keystroke	Key.backspace	n/a
831.782	0.105	1663564	keystroke	Key.backspace	n/a
832.022	0.09	1664044	keystroke	Key.backspace	n/a
832.457	0.09	1664914	keystroke	Key.backspace	n/a
832.8765	0.09	1665753	keystroke	Key.backspace	n/a
833.0715	0.0905	1666143	keystroke	Key.backspace	n/a
834.197	0.12	1668394	keystroke	r	n/a
834.497	0.15	1668994	keystroke	e	n/a
834.767	0.1045	1669534	keystroke	d	n/a
835.0215	0.105	1670043	keystroke	Key.space	n/a
835.2765	0.09	1670553	keystroke	m	n/a
835.5765	0.105	1671153	keystroke	o	n/a
835.8015	0.105	1671603	keystroke	r	n/a
836.026	0.12	1672052	keystroke	t	n/a
836.402	0.135	1672804	keystroke	a	n/a
836.717	0.105	1673434	keystroke	l	n/a
837.7515	0.06	1675503	keystroke	i	n/a
837.9015	0.09	1675803	keystroke	t	n/a
838.0065	0.105	1676013	keystroke	y	n/a
838.2465	0.12	1676493	keystroke	Key.space	n/a
838.5015	0.075	1677003	keystroke	m	n/a
838.636	0.1505	1677272	keystroke	a	n/a
838.7415	0.1655	1677483	keystroke	r	n/a
839.057	0.12	1678114	keystroke	s	n/a
839.222	0.105	1678444	keystroke	Key.enter	n/a
839.333	12.7595	1678666	prompt	n/a	tissue subsidiary traditional arab\n
840.4665	0.09	1680933	keystroke	t	n/a
840.6315	0.09	1681263	keystroke	i	n/a
841.2455	0.091	1682491	keystroke	s	n/a
841.426	0.09	1682852	keystroke	s	n/a
841.561	0.0905	1683122	keystroke	u	n/a
841.7865	0.09	1683573	keystroke	e	n/a
841.981	0.0755	1683962	keystroke	Key.space	n/a
842.311	0.0905	1684622	keystroke	s	n/a
842.5065	0.105	1685013	keystroke	u	n/a
842.986	0.075	1685972	keystroke	b	n/a
843.796	0.09	1687592	keystroke	s	n/a
844.021	0.075	1688042	keystroke	i	n/a
844.441	0.09	1688882	keystroke	d	n/a
844.966	0.075	1689932	keystroke	i	n/a
845.281	0.135	1690562	keystroke	a	n/a
845.401	0.12	1690802	keystroke	r	n/a
845.581	0.09	1691162	keystroke	y	n/a
845.821	0.09	1691642	keystroke	Key.space	n/a
846.136	0.105	1692272	keystroke	t	n/a
846.421	0.1355	1692842	keystroke	r	n/a
846.7365	0.1345	1693473	keystroke	a	n/a
847.3505	0.09	1694701	keystroke	d	n/a
847.726	0.06	1695452	keystroke	i	n/a
847.981	0.105	1695962	keystroke	t	n/a
848.296	0.09	1696592	keystroke	i	n/a
848.7465	0.09	1697493	keystroke	o	n/a
849.001	0.0905	1698002	keystroke	n	n/a
849.2105	0.105	1698421	keystroke	a	n/a
849.4055	0.09	1698811	keystroke	l	n/a
849.8405	0.09	1699681	keystroke	Key.space	n/a
850.561	0.105	1701122	keystroke	a	n/a
850.831	0.12	1701662	keystroke	r	n/a
851.236	0.12	1702472	keystroke	a	n/a
851.536	0.09	1703072	keystroke	b	n/a
851.9855	0.105	1703971	keystroke	Key.enter	n/a
852.0975	17.829	1704195	prompt	n/a	surgeon doing biotechnology boulder\n
852.8255	0.0905	1705651	keystroke	s	n/a
853.0355	0.09	1706071	keystroke	u	n/a
853.231	0.12	1706462	keystroke	r	n/a
853.6515	0.075	1707303	keystroke	g	n/a
853.8915	0.12	1707783	keystroke	e	n/a
854.1465	0.12	1708293	keystroke	o	n/a
854.3565	0.09	1708713	keystroke	n	n/a
854.5965	0.105	1709193	keystroke	Key.space	n/a
854.926	0.09	1709852	keystroke	d	n/a
855.2415	0.09	1710483	keystroke	o	n/a
855.4515	0.075	1710903	keystroke	i	n/a
855.6315	0.12	1711263	keystroke	n	n/a
855.8415	0.075	1711683	keystroke	g	n/a
855.9755	0.105	1711951	keystroke	Key.space	n/a
856.756	0.135	1713512	keystroke	b	n/a
857.0855	0.075	1714171	keystroke	i	n/a
857.3555	0.091	1714711	keystroke	t	n/a
859.593	0.001	1719186	keystroke	Key.backspace	n/a
860.866	0.075	1721732	keystroke	o	n/a
861.121	0.105	1722242	keystroke	t	n/a
861.421	0.075	1722842	keystroke	h	n/a
862.186	0.15	1724372	keystroke	Key.backspace	n/a
862.9055	0.135	1725811	keystroke	e	n/a
863.251	0.09	1726502	keystroke	c	n/a
863.416	0.09	1726832	keystroke	h	n/a
863.866	0.09	1727732	keystroke	n	n/a
864.091	0.12	1728182	keystroke	o	n/a
864.466	0.09	1728932	keystroke	l	n/a
864.736	0.104	1729472	keystroke	o	n/a
865.305	0.075	1730610	keystroke	g	n/a
865.605	0.075	1731210	keystroke	y	n/a
865.845	0.12	1731690	keystroke	Key.space	n/a
867.585	0.09	1735170	keystroke	b	n/a
868.275	0.091	1736550	keystroke	o	n/a
868.44	0.105	1736880	keystroke	u	n/a
869.13	0.06	1738260	keystroke	l	n/a
869.265	0.105	1738530	keystroke	d	n/a
869.52	0.15	1739040	keystroke	e	n/a
869.625	0.105	1739250	keystroke	r	n/a
869.82	0.105	1739640	keystroke	Key.enter	n/a
869.93	16.1365	1739860	prompt	n/a	o'clock korean equipped organization\n
871.6645	0.091	1743329	keystroke	0	n/a
872.205	0.0905	1744410	keystroke	'	n/a
872.9705	0.075	1745941	keystroke	c	n/a
873.1205	0.105	1746241	keystroke	l	n/a
873.4055	0.09	1746811	keystroke	o	n/a
873.5855	0.09	1747171	keystroke	c	n/a
873.765	0.075	1747530	keystroke	k	n/a
874.125	0.075	1748250	keystroke	Key.space	n/a
875.2495	0.0755	1750499	keystroke	k	n/a
875.835	0.075	1751670	keystroke	o	n/a
876.135	0.105	1752270	keystroke	r	n/a
876.345	0.105	1752690	keystroke	e	n/a
876.5545	0.1055	1753109	keystroke	a	n/a
876.645	0.09	1753290	keystroke	n	n/a
876.87	0.09	1753740	keystroke	Key.space	n/a
877.3945	0.106	1754789	keystroke	e	n/a
877.725	0.12	1755450	keystroke	q	n/a
877.905	0.12	1755810	keystroke	u	n/a
878.28	0.12	1756560	keystroke	i	n/a
878.61	0.09	1757220	keystroke	p	n/a
878.805	0.09	1757610	keystroke	p	n/a
878.955	0.135	1757910	keystroke	e	n/a
879.225	0.075	1758450	keystroke	d	n/a
879.435	0.105	1758870	keystroke	Key.space	n/a
879.7645	0.091	1759529	keystroke	o	n/a
879.9605	0.12	1759921	keystroke	r	n/a
880.2755	0.0895	1760551	keystroke	g	n/a
880.5895	0.105	1761179	keystroke	a	n/a
881.2795	0.075	1762559	keystroke	n	n/a
881.5495	0.06	1763099	keystroke	i	n/a
881.805	0.105	1763610	keystroke	z	n/a
882.48	0.105	1764960	keystroke	a	n/a
885.0175	0.0125	1770035	keystroke	t	n/a
885.0755	0.1045	1770151	keystroke	i	n/a
885.255	0.12	1770510	keystroke	o	n/a
885.465	0.135	1770930	keystroke	n	n/a
885.99	0.075	1771980	keystroke	Key.enter	n/a
886.0695	9.672	1772139	prompt	n/a	company good grip identify\n
886.905	0.105	1773810	keystroke	c	n/a
887.3995	0.105	1774799	keystroke	o	n/a
887.5945	0.105	1775189	keystroke	m	n/a
887.9095	0.03	1775819	keystroke	p	n/a
888.075	0.09	1776150	keystroke	a	n/a
888.405	0.09	1776810	keystroke	n	n/a
888.6745	0.09	1777349	keystroke	y	n/a
888.9745	0.09	1777949	keystroke	Key.space	n/a
889.2895	0.0755	1778579	keystroke	g	n/a
889.515	0.0895	1779030	keystroke	o	n/a
889.6945	0.105	1779389	keystroke	o	n/a
889.8295	0.09	1779659	keystroke	d	n/a
889.9645	0.105	1779929	keystroke	Key.space	n/a
890.2345	0.09	1780469	keystroke	g	n/a
890.4895	0.12	1780979	keystroke	r	n/a
891.2245	0.09	1782449	keystroke	i	n/a
891.4345	0.105	1782869	keystroke	p	n/a
891.6595	0.09	1783319	keystroke	Key.space	n/a
892.14	0.06	1784280	keystroke	i	n/a
892.53	0.09	1785060	keystroke	d	n/a
892.77	0.12	1785540	keystroke	e	n/a
892.905	0.075	1785810	keystroke	n	n/a
893.28	0.06	1786560	keystroke	i	n/a
894.03	0.075	1788060	keystroke	Key.backspace	n/a
894.51	0.0895	1789020	keystroke	t	n/a
894.854	0.061	1789708	keystroke	i	n/a
895.0945	0.09	1790189	keystroke	f	n/a
895.2745	0.09	1790549	keystroke	y	n/a
895.649	0.0905	1791298	keystroke	Key.enter	n/a
895.7445	13.4665	1791489	prompt	n/a	vehicle pine theme what'd\n
896.5505	0.089	1793101	keystroke	v	n/a
896.8795	0.12	1793759	keystroke	e	n/a
897.5245	0.075	1795049	keystroke	h	n/a
897.765	0.075	1795530	keystroke	i	n/a
898.02	0.09	1796040	keystroke	c	n/a
898.26	0.09	1796520	keystroke	l	n/a
898.485	0.09	1796970	keystroke	e	n/a
898.679	0.09	1797358	keystroke	Key.space	n/a
898.875	0.12	1797750	keystroke	p	n/a
899.2645	0.0755	1798529	keystroke	i	n/a
899.4305	0.0735	1798861	keystroke	n	n/a
899.67	0.1055	1799340	keystroke	e	n/a
899.8205	0.104	1799641	keystroke	Key.space	n/a
900.315	0.075	1800630	keystroke	t	n/a
900.45	0.105	1800900	keystroke	h	n/a
900.6295	0.135	1801259	keystroke	e	n/a
901.1245	0.03	1802249	keystroke	m	n/a
901.3045	0.105	1802609	keystroke	e	n/a
901.5145	0.105	1803029	keystroke	Key.space	n/a
902.0395	0.105	1804079	keystroke	w	n/a
902.3695	0.105	1804739	keystroke	a	n/a
902.94	0.09	1805880	keystroke	t	n/a
903.525	0.12	1807050	keystroke	'	n/a
904.724	0.09	1809448	keystroke	Key.backspace	n/a
905.144	0.076	1810288	keystroke	Key.backspace	n/a
906.4195	0.09	1812839	keystroke	Key.backspace	n/a
907.11	0.09	1814220	keystroke	h	n/a
907.35	0.12	1814700	keystroke	a	n/a
907.5295	0.12	1815059	keystroke	t	n/a
908.25	0.12	1816500	keystroke	'	n/a
908.6395	0.09	1817279	keystroke	d	n/a
908.8195	0.075	1817639	keystroke	Key.space	n/a
909.0895	0.12	1818179	keystroke	Key.enter	n/a
909.214	21.027	1818428	prompt	n/a	tooth actual passing vehicles\n
909.9	0.09	1819800	keystroke	t	n/a
910.155	0.09	1820310	keystroke	o	n/a
910.35	0.09	1820700	keystroke	o	n/a
910.485	0.1195	1820970	keystroke	t	n/a
910.5895	0.105	1821179	keystroke	h	n/a
910.8145	0.09	1821629	keystroke	Key.space	n/a
911.0845	0.12	1822169	keystroke	a	n/a
911.3545	0.09	1822709	keystroke	c	n/a
911.5795	0.075	1823159	keystroke	t	n/a
911.7145	0.0905	1823429	keystroke	u	n/a
912	0.105	1824000	keystroke	a	n/a
912.18	0.09	1824360	keystroke	l	n/a
912.42	0.12	1824840	keystroke	Key.space	n/a
912.69	0.105	1825380	keystroke	p	n/a
912.885	0.12	1825770	keystroke	a	n/a
913.365	0.105	1826730	keystroke	s	n/a
913.5895	0.075	1827179	keystroke	s	n/a
913.9045	0.06	1827809	keystroke	i	n/a
914.0695	0.075	1828139	keystroke	n	n/a
914.2495	0.075	1828499	keystroke	g	n/a
914.4295	0.09	1828859	keystroke	Key.space	n/a
914.909	0.1055	1829818	keystroke	c	n/a
915.585	0.09	1831170	keystroke	h	n/a
915.84	0.09	1831680	keystroke	i	n/a
916.064	0.106	1832128	keystroke	c	n/a
916.32	0.075	1832640	keystroke	l	n/a
916.515	0.12	1833030	keystroke	e	n/a
