onset	duration	sample	value	key	prompt_text
4.028	16.6565	8056	prompt	n/a	the quick brown fox jumps over a lazy dog\n
6.8475	0.0725	13695	keystroke_t	t	n/a
6.937	0.1215	13874	keystroke_h	h	n/a
7.1035	0.135	14207	keystroke_e	e	n/a
7.8275	0.074	15655	keystroke_Key.space	Key.space	n/a
8.172	0.12	16344	keystroke_q	q	n/a
8.337	0.075	16674	keystroke_u	u	n/a
9.222	0.075	18444	keystroke_i	i	n/a
9.4615	0.09	18923	keystroke_c	c	n/a
9.626	0.09	19252	keystroke_k	k	n/a
9.866	0.09	19732	keystroke_Key.space	Key.space	n/a
11.532	0.0895	23064	keystroke_b	b	n/a
11.8015	0.105	23603	keystroke_r	r	n/a
12.0565	0.09	24113	keystroke_o	o	n/a
12.2365	0.1205	24473	keystroke_w	w	n/a
12.447	0.0895	24894	keystroke_n	n	n/a
12.7165	0.075	25433	keystroke_Key.space	Key.space	n/a
13.677	0.075	27354	keystroke_f	f	n/a
13.8425	0.105	27685	keystroke_o	o	n/a
14.127	0.105	28254	keystroke_x	x	n/a
14.412	0.09	28824	keystroke_Key.space	Key.space	n/a
14.607	0.09	29214	keystroke_j	j	n/a
14.8015	0.075	29603	keystroke_u	u	n/a
15.042	0.105	30084	keystroke_m	m	n/a
15.357	0.105	30714	keystroke_p	p	n/a
15.627	0.105	31254	keystroke_s	s	n/a
15.942	0.075	31884	keystroke_Key.space	Key.space	n/a
16.107	0.105	32214	keystroke_o	o	n/a
16.302	0.105	32604	keystroke_v	v	n/a
16.587	0.18	33174	keystroke_e	e	n/a
16.722	0.09	33444	keystroke_r	r	n/a
16.887	0.09	33774	keystroke_Key.space	Key.space	n/a
17.082	0.0895	34164	keystroke_a	a	n/a
17.2315	0.0905	34463	keystroke_Key.space	Key.space	n/a
17.9965	0.106	35993	keystroke_l	l	n/a
18.282	0.1045	36564	keystroke_a	a	n/a
18.7465	0.105	37493	keystroke_z	z	n/a
18.9415	0.09	37883	keystroke_y	y	n/a
19.1815	0.09	38363	keystroke_Key.space	Key.space	n/a
19.527	0.09	39054	keystroke_d	d	n/a
19.722	0.09	39444	keystroke_o	o	n/a
20.037	0.075	40074	keystroke_g	g	n/a
20.6065	0.075	41213	keystroke_Key.enter	Key.enter	n/a
20.689	14.47	41378	prompt	n/a	motherboard professionals studio academy\n
21.6115	0.09	43223	keystroke_m	m	n/a
22.062	0.105	44124	keystroke_o	o	n/a
22.272	0.12	44544	keystroke_t	t	n/a
22.437	0.09	44874	keystroke_h	h	n/a
22.557	0.165	45114	keystroke_e	e	n/a
22.647	0.12	45294	keystroke_r	r	n/a
23.172	0.1055	46344	keystroke_b	b	n/a
23.7575	0.0895	47515	keystroke_o	o	n/a
24.131	0.0905	48262	keystroke_a	a	n/a
24.342	0.12	48684	keystroke_r	r	n/a
24.7465	0.12	49493	keystroke_d	d	n/a
25.1065	0.075	50213	keystroke_Key.space	Key.space	n/a
25.4965	0.12	50993	keystroke_p	p	n/a
25.7065	0.12	51413	keystroke_r	r	n/a
25.9015	0.1205	51803	keystroke_o	o	n/a
26.232	0.075	52464	keystroke_f	f	n/a
26.622	0.12	53244	keystroke_e	e	n/a
26.9665	0.075	53933	keystroke_s	s	n/a
27.1465	0.15	54293	keystroke_s	s	n/a
27.4465	0.0755	54893	keystroke_i	i	n/a
27.807	0.105	55614	keystroke_o	o	n/a
28.047	0.12	56094	keystroke_n	n	n/a
28.767	0.09	57534	keystroke_a	a	n/a
28.947	0.12	57894	keystroke_l	l	n/a
29.187	0.0895	58374	keystroke_s	s	n/a
29.4415	0.075	58883	keystroke_Key.space	Key.space	n/a
29.907	0.12	59814	keystroke_s	s	n/a
30.5365	0.045	61073	keystroke_t	t	n/a
30.7465	0.09	61493	keystroke_u	u	n/a
31.0615	0.09	62123	keystroke_d	d	n/a
31.272	0.09	62544	keystroke_i	i	n/a
31.512	0.105	63024	keystroke_o	o	n/a
31.752	0.075	63504	keystroke_Key.space	Key.space	n/a
32.0675	0.12	64135	keystroke_a	a	n/a
32.5315	0.031	65063	keystroke_c	c	n/a
33.1315	0.105	66263	keystroke_a	a	n/a
33.5515	0.09	67103	keystroke_d	d	n/a
33.852	0.105	67704	keystroke_e	e	n/a
34.452	0.075	68904	keystroke_m	m	n/a
34.707	0.075	69414	keystroke_y	y	n/a
35.052	0.105	70104	keystroke_Key.enter	Key.enter	n/a
35.1625	11.2465	70325	prompt	n/a	party blessed language kenya\n
35.9975	0.089	71995	keystroke_p	p	n/a
36.1625	0.165	72325	keystroke_a	a	n/a
36.3415	0.0755	72683	keystroke_r	r	n/a
37.107	0.075	74214	keystroke_t	t	n/a
37.347	0.09	74694	keystroke_y	y	n/a
37.602	0.09	75204	keystroke_Key.space	Key.space	n/a
37.932	0.09	75864	keystroke_b	b	n/a
38.217	0.03	76434	keystroke_e	e	n/a
39.2515	0.045	78503	keystroke_Key.backspace	Key.backspace	n/a
39.9725	0.09	79945	keystroke_l	l	n/a
40.1225	0.15	80245	keystroke_e	e	n/a
40.437	0.075	80874	keystroke_s	s	n/a
40.587	0.12	81174	keystroke_s	s	n/a
40.827	0.105	81654	keystroke_e	e	n/a
41.112	0.0895	82224	keystroke_d	d	n/a
41.727	0.09	83454	keystroke_Key.space	Key.space	n/a
42.057	0.075	84114	keystroke_l	l	n/a
42.2515	0.12	84503	keystroke_a	a	n/a
42.5075	0.09	85015	keystroke_n	n	n/a
42.7775	0.09	85555	keystroke_g	g	n/a
43.002	0.075	86004	keystroke_u	u	n/a
43.377	0.09	86754	keystroke_a	a	n/a
44.0075	0.0895	88015	keystroke_g	g	n/a
44.3075	0.105	88615	keystroke_e	e	n/a
44.6065	0.09	89213	keystroke_Key.space	Key.space	n/a
45.132	0.06	90264	keystroke_k	k	n/a
45.3875	0.075	90775	keystroke_e	e	n/a
45.5225	0.09	91045	keystroke_n	n	n/a
45.7615	0.09	91523	keystroke_y	y	n/a
46.017	0.09	92034	keystroke_a	a	n/a
46.3025	0.104	92605	keystroke_Key.enter	Key.enter	n/a
46.412	15.0185	92824	prompt	n/a	telecommunications relay pediatric ultra\n
47.142	0.1045	94284	keystroke_t	t	n/a
47.3825	0.135	94765	keystroke_e	e	n/a
47.9825	0.045	95965	keystroke_l	l	n/a
48.582	0.075	97164	keystroke_e	e	n/a
48.897	0.09	97794	keystroke_c	c	n/a
49.182	0.1045	98364	keystroke_o	o	n/a
49.542	0.075	99084	keystroke_m	m	n/a
49.722	0.06	99444	keystroke_m	m	n/a
50.1275	0.09	100255	keystroke_u	u	n/a
50.4125	0.0895	100825	keystroke_n	n	n/a
50.667	0.06	101334	keystroke_i	i	n/a
50.922	0.0905	101844	keystroke_c	c	n/a
51.192	0.12	102384	keystroke_a	a	n/a
51.4475	0.105	102895	keystroke_t	t	n/a
51.6125	0.09	103225	keystroke_i	i	n/a
51.8225	0.105	103645	keystroke_o	o	n/a
52.0015	0.091	104003	keystroke_n	n	n/a
52.1815	0.09	104363	keystroke_s	s	n/a
52.3915	0.09	104783	keystroke_Key.space	Key.space	n/a
52.7215	0.1355	105443	keystroke_r	r	n/a
54.147	0.105	108294	keystroke_e	e	n/a
54.357	0.105	108714	keystroke_l	l	n/a
54.5665	0.09	109133	keystroke_a	a	n/a
54.686	0.09	109372	keystroke_y	y	n/a
54.9405	0.075	109881	keystroke_Key.space	Key.space	n/a
55.18	0.1045	110360	keystroke_p	p	n/a
55.673	0.12	111346	keystroke_e	e	n/a
55.9725	0.0895	111945	keystroke_d	d	n/a
56.346	0.06	112692	keystroke_i	i	n/a
57.199	0.09	114398	keystroke_a	a	n/a
58.142	0.091	116284	keystroke_t	t	n/a
58.4125	0.0895	116825	keystroke_r	r	n/a
58.622	0.0605	117244	keystroke_i	i	n/a
58.8185	0.0745	117637	keystroke_c	c	n/a
59.057	0.09	118114	keystroke_Key.space	Key.space	n/a
59.4325	0.1195	118865	keystroke_u	u	n/a
59.973	0.0895	119946	keystroke_l	l	n/a
60.167	0.1065	120334	keystroke_t	t	n/a
60.7375	0.077	121475	keystroke_r	r	n/a
61.0685	0.09	122137	keystroke_a	a	n/a
61.323	0.1055	122646	keystroke_Key.enter	Key.enter	n/a
61.4335	13.9025	122867	prompt	n/a	hammer enabling palestine java\n
62.1625	0.0745	124325	keystroke_h	h	n/a
62.343	0.105	124686	keystroke_a	a	n/a
62.538	0.075	125076	keystroke_m	m	n/a
62.733	0.0745	125466	keystroke_m	m	n/a
63.0335	0.2095	126067	keystroke_e	e	n/a
63.198	0.1045	126396	keystroke_r	r	n/a
63.4085	0.0895	126817	keystroke_Key.space	Key.space	n/a
63.7825	0.1065	127565	keystroke_e	e	n/a
63.9335	0.12	127867	keystroke_n	n	n/a
64.3525	0.136	128705	keystroke_a	a	n/a
64.757	0.075	129514	keystroke_b	b	n/a
65.073	0.075	130146	keystroke_l	l	n/a
65.2825	0.06	130565	keystroke_i	i	n/a
65.4625	0.0605	130925	keystroke_n	n	n/a
65.583	0.0895	131166	keystroke_g	g	n/a
65.7175	0.105	131435	keystroke_Key.space	Key.space	n/a
66.1225	0.091	132245	keystroke_p	p	n/a
66.422	0.091	132844	keystroke_a	a	n/a
66.9025	0.09	133805	keystroke_l	l	n/a
67.1435	0.134	134287	keystroke_e	e	n/a
67.5485	0.105	135097	keystroke_s	s	n/a
67.863	0.0745	135726	keystroke_t	t	n/a
67.9825	0.091	135965	keystroke_i	i	n/a
68.2685	0.0145	136537	keystroke_n	n	n/a
68.8975	0.105	137795	keystroke_e	e	n/a
69.1685	0.09	138337	keystroke_Key.space	Key.space	n/a
69.5425	0.0745	139085	keystroke_j	j	n/a
69.753	0.12	139506	keystroke_a	a	n/a
69.9775	0.105	139955	keystroke_v	v	n/a
70.2635	0.1195	140527	keystroke_e	e	n/a
72.4995	0.001	144999	keystroke_Key.backspace	Key.backspace	n/a
72.8435	0.015	145687	keystroke_Key.backspace	Key.backspace	n/a
72.963	0.06	145926	keystroke_Key.backspace	Key.backspace	n/a
74.5395	0.1035	149079	keystroke_a	a	n/a
74.794	0.09	149588	keystroke_v	v	n/a
75.019	0.135	150038	keystroke_e	e	n/a
75.229	0.1045	150458	keystroke_Key.enter	Key.enter	n/a
75.3405	9.835	150681	prompt	n/a	writer premiere stamps quantity\n
76.399	0.09	152798	keystroke_w	w	n/a
76.6375	0.135	153275	keystroke_r	r	n/a
77.1785	0.0595	154357	keystroke_i	i	n/a
77.358	0.09	154716	keystroke_t	t	n/a
77.554	0.164	155108	keystroke_e	e	n/a
77.6585	0.1045	155317	keystroke_r	r	n/a
77.793	0.105	155586	keystroke_Key.space	Key.space	n/a
78.0185	0.12	156037	keystroke_p	p	n/a
78.5135	0.1045	157027	keystroke_r	r	n/a
78.753	0.1195	157506	keystroke_e	e	n/a
79.0695	0.104	158139	keystroke_m	m	n/a
79.338	0.075	158676	keystroke_i	i	n/a
79.564	0.119	159128	keystroke_e	e	n/a
79.863	0.1345	159726	keystroke_r	r	n/a
80.058	0.12	160116	keystroke_e	e	n/a
80.2675	0.09	160535	keystroke_Key.space	Key.space	n/a
80.507	0.1365	161014	keystroke_s	s	n/a
80.7485	0.1495	161497	keystroke_t	t	n/a
81.079	0.075	162158	keystroke_a	a	n/a
81.634	0.09	163268	keystroke_m	m	n/a
81.8585	0.105	163717	keystroke_p	p	n/a
82.0525	0.1065	164105	keystroke_s	s	n/a
82.219	0.0895	164438	keystroke_Key.space	Key.space	n/a
82.5645	0.1345	165129	keystroke_q	q	n/a
82.744	0.0895	165488	keystroke_u	u	n/a
83.1185	0.12	166237	keystroke_a	a	n/a
83.2685	0.1055	166537	keystroke_n	n	n/a
83.794	0.0885	167588	keystroke_t	t	n/a
83.958	0.075	167916	keystroke_i	i	n/a
84.543	0.09	169086	keystroke_t	t	n/a
84.694	0.0895	169388	keystroke_y	y	n/a
85.0835	0.0895	170167	keystroke_Key.enter	Key.enter	n/a
85.181	8.8445	170362	prompt	n/a	reader part southern lingerie\n
85.8635	0.121	171727	keystroke_r	r	n/a
86.103	0.121	172206	keystroke_e	e	n/a
86.4485	0.105	172897	keystroke_a	a	n/a
86.733	0.0755	173466	keystroke_d	d	n/a
87.034	0.1645	174068	keystroke_e	e	n/a
87.1535	0.12	174307	keystroke_r	r	n/a
87.3785	0.09	174757	keystroke_Key.space	Key.space	n/a
87.618	0.105	175236	keystroke_p	p	n/a
87.753	0.1505	175506	keystroke_a	a	n/a
87.8735	0.12	175747	keystroke_r	r	n/a
88.0985	0.1045	176197	keystroke_t	t	n/a
88.278	0.0755	176556	keystroke_Key.space	Key.space	n/a
88.6235	0.09	177247	keystroke_s	s	n/a
88.9695	0.149	177939	keystroke_o	o	n/a
89.2085	0.06	178417	keystroke_u	u	n/a
89.4935	0.105	178987	keystroke_t	t	n/a
89.7485	0.0745	179497	keystroke_h	h	n/a
90.1835	0.1945	180367	keystroke_e	e	n/a
90.318	0.135	180636	keystroke_r	r	n/a
90.558	0.09	181116	keystroke_n	n	n/a
90.8425	0.0755	181685	keystroke_Key.space	Key.space	n/a
91.413	0.0905	182826	keystroke_l	l	n/a
91.803	0.075	183606	keystroke_i	i	n/a
91.9695	0.0895	183939	keystroke_n	n	n/a
92.2685	0.0895	184537	keystroke_g	g	n/a
92.6135	0.1345	185227	keystroke_e	e	n/a
93.004	0.09	186008	keystroke_r	r	n/a
93.2735	0.06	186547	keystroke_i	i	n/a
93.514	0.09	187028	keystroke_e	e	n/a
93.9185	0.1055	187837	keystroke_Key.enter	Key.enter	n/a
94.0285	20.7275	188057	prompt	n/a	palmer decisions javascript special\n
94.8045	0.1045	189609	keystroke_p	p	n/a
95.044	0.105	190088	keystroke_a	a	n/a
95.209	0.1195	190418	keystroke_l	l	n/a
95.6295	0.1045	191259	keystroke_m	m	n/a
96.244	0.15	192488	keystroke_e	e	n/a
96.334	0.1345	192668	keystroke_r	r	n/a
96.5585	0.0915	193117	keystroke_Key.space	Key.space	n/a
97.0085	0.1055	194017	keystroke_d	d	n/a
97.264	0.1645	194528	keystroke_e	e	n/a
97.715	0.1045	195430	keystroke_c	c	n/a
98.029	0.075	196058	keystroke_i	i	n/a
98.254	0.09	196508	keystroke_s	s	n/a
98.494	0.09	196988	keystroke_i	i	n/a
98.704	0.105	197408	keystroke_o	o	n/a
98.884	0.1045	197768	keystroke_n	n	n/a
99.0485	0.12	198097	keystroke_s	s	n/a
99.2135	0.09	198427	keystroke_Key.space	Key.space	n/a
99.4985	0.106	198997	keystroke_j	j	n/a
99.7235	0.135	199447	keystroke_a	a	n/a
100.0235	0.09	200047	keystroke_v	v	n/a
100.5185	0.106	201037	keystroke_a	a	n/a
100.999	0.135	201998	keystroke_s	s	n/a
101.704	0.09	203408	keystroke_c	c	n/a
102.1685	0.0905	204337	keystroke_r	r	n/a
102.409	0.075	204818	keystroke_i	i	n/a
102.844	0.09	205688	keystroke_p	p	n/a
103.054	0.0905	206108	keystroke_t	t	n/a
103.264	0.09	206528	keystroke_Key.space	Key.space	n/a
104.644	0.0905	209288	keystroke_Key.backspace	Key.backspace	n/a
104.8845	0.0745	209769	keystroke_Key.backspace	Key.backspace	n/a
105.079	0.075	210158	keystroke_Key.backspace	Key.backspace	n/a
105.3035	0.091	210607	keystroke_Key.backspace	Key.backspace	n/a
105.6045	0.1055	211209	keystroke_Key.backspace	Key.backspace	n/a
105.815	0.0745	211630	keystroke_Key.backspace	Key.backspace	n/a
106.0095	0.09	212019	keystroke_Key.backspace	Key.backspace	n/a
106.2045	0.105	212409	keystroke_Key.backspace	Key.backspace	n/a
106.3995	0.105	212799	keystroke_Key.backspace	Key.backspace	n/a
106.579	0.0905	213158	keystroke_Key.backspace	Key.backspace	n/a
108.2745	0.15	216549	keystroke_a	a	n/a
108.6345	0.15	217269	keystroke_v	v	n/a
109.009	0.135	218018	keystroke_a	a	n/a
109.579	0.15	219158	keystroke_s	s	n/a
109.9395	0.1345	219879	keystroke_c	c	n/a
110.3145	0.1345	220629	keystroke_r	r	n/a
110.795	0.105	221590	keystroke_i	i	n/a
111.1245	0.105	222249	keystroke_p	p	n/a
111.319	0.105	222638	keystroke_t	t	n/a
111.784	0.09	223568	keystroke_Key.space	Key.space	n/a
112.3245	0.1045	224649	keystroke_s	s	n/a
112.564	0.105	225128	keystroke_p	p	n/a
113.1045	0.1195	226209	keystroke_e	e	n/a
113.779	0.06	227558	keystroke_c	c	n/a
113.9595	0.075	227919	keystroke_i	i	n/a
114.124	0.1205	228248	keystroke_a	a	n/a
114.349	0.091	228698	keystroke_l	l	n/a
114.6495	0.1045	229299	keystroke_Key.enter	Key.enter	n/a
114.759	12.597	229518	prompt	n/a	objectives programming phentermine reception\n
115.639	0.075	231278	keystroke_o	o	n/a
115.9695	0.12	231939	keystroke_b	b	n/a
116.4485	0.076	232897	keystroke_j	j	n/a
116.674	0.135	233348	keystroke_e	e	n/a
116.9895	0.09	233979	keystroke_c	c	n/a
117.2445	0.089	234489	keystroke_t	t	n/a
117.4085	0.075	234817	keystroke_i	i	n/a
117.694	0.09	235388	keystroke_v	v	n/a
118.009	0.1045	236018	keystroke_e	e	n/a
118.2485	0.105	236497	keystroke_s	s	n/a
118.399	0.105	236798	keystroke_Key.space	Key.space	n/a
118.654	0.1205	237308	keystroke_p	p	n/a
118.8045	0.135	237609	keystroke_r	r	n/a
118.9995	0.12	237999	keystroke_o	o	n/a
119.344	0.12	238688	keystroke_g	g	n/a
119.674	0.09	239348	keystroke_r	r	n/a
119.9595	0.1045	239919	keystroke_a	a	n/a
120.199	0.09	240398	keystroke_m	m	n/a
120.394	0.0605	240788	keystroke_m	m	n/a
120.5745	0.06	241149	keystroke_i	i	n/a
120.7095	0.1055	241419	keystroke_n	n	n/a
120.83	0.0745	241660	keystroke_g	g	n/a
120.9645	0.1045	241929	keystroke_Key.space	Key.space	n/a
121.5045	0.105	243009	keystroke_p	p	n/a
121.819	0.075	243638	keystroke_h	h	n/a
122.2235	0.105	244447	keystroke_e	e	n/a
122.5245	0.0745	245049	keystroke_n	n	n/a
122.794	0.105	245588	keystroke_t	t	n/a
123.1845	0.2095	246369	keystroke_e	e	n/a
123.334	0.106	246668	keystroke_r	r	n/a
123.59	0.09	247180	keystroke_m	m	n/a
123.815	0.09	247630	keystroke_i	i	n/a
124.0245	0.09	248049	keystroke_n	n	n/a
124.3545	0.1055	248709	keystroke_e	e	n/a
124.715	0.075	249430	keystroke_Key.space	Key.space	n/a
125.2695	0.15	250539	keystroke_r	r	n/a
125.495	0.165	250990	keystroke_e	e	n/a
125.84	0.119	251680	keystroke_c	c	n/a
126.064	0.1505	252128	keystroke_e	e	n/a
126.2595	0.105	252519	keystroke_p	p	n/a
126.484	0.105	252968	keystroke_t	t	n/a
126.604	0.0905	253208	keystroke_i	i	n/a
126.7845	0.12	253569	keystroke_o	o	n/a
126.994	0.0905	253988	keystroke_n	n	n/a
127.2645	0.09	254529	keystroke_Key.enter	Key.enter	n/a
127.359	14.4275	254718	prompt	n/a	organisms sussex earnings reaction\n
128.2545	0.06	256509	keystroke_o	o	n/a
128.4795	0.1205	256959	keystroke_r	r	n/a
130.1745	0.075	260349	keystroke_g	g	n/a
130.745	0.105	261490	keystroke_a	a	n/a
131.15	0.0745	262300	keystroke_n	n	n/a
131.525	0.06	263050	keystroke_i	i	n/a
131.705	0.12	263410	keystroke_s	s	n/a
131.944	0.0905	263888	keystroke_m	m	n/a
132.1995	0.105	264399	keystroke_s	s	n/a
132.53	0.105	265060	keystroke_Key.space	Key.space	n/a
132.8295	0.1055	265659	keystroke_s	s	n/a
132.8895	0.1205	265779	keystroke_u	u	n/a
133.4595	0.03	266919	keystroke_s	s	n/a
133.58	0.1045	267160	keystroke_s	s	n/a
133.97	0.135	267940	keystroke_e	e	n/a
134.4645	0.135	268929	keystroke_x	x	n/a
134.78	0.1045	269560	keystroke_Key.space	Key.space	n/a
135.365	0.15	270730	keystroke_e	e	n/a
135.6945	0.1345	271389	keystroke_a	a	n/a
135.7845	0.15	271569	keystroke_r	r	n/a
136.129	0.0895	272258	keystroke_n	n	n/a
136.3085	0.0905	272617	keystroke_i	i	n/a
136.474	0.075	272948	keystroke_n	n	n/a
136.504	0.0895	273008	keystroke_g	g	n/a
137.375	0.09	274750	keystroke_s	s	n/a
138.1395	0.015	276279	keystroke_Key.space	Key.space	n/a
138.499	0.151	276998	keystroke_r	r	n/a
138.815	0.12	277630	keystroke_e	e	n/a
139.28	0.134	278560	keystroke_a	a	n/a
139.549	0.0905	279098	keystroke_c	c	n/a
139.7745	0.09	279549	keystroke_t	t	n/a
139.8945	0.09	279789	keystroke_i	i	n/a
140.0895	0.1045	280179	keystroke_o	o	n/a
140.284	0.105	280568	keystroke_n	n	n/a
141.6945	0.09	283389	keystroke_Key.enter	Key.enter	n/a
141.7915	18.129	283583	prompt	n/a	studying madrid remedy diversity\n
142.7005	0.104	285401	keystroke_s	s	n/a
142.91	0.105	285820	keystroke_t	t	n/a
143.105	0.09	286210	keystroke_u	u	n/a
143.2695	0.135	286539	keystroke_d	d	n/a
143.5095	0.0905	287019	keystroke_i	i	n/a
143.675	0.105	287350	keystroke_n	n	n/a
143.825	0.105	287650	keystroke_g	g	n/a
144.005	0.12	288010	keystroke_Key.space	Key.space	n/a
144.515	0.075	289030	keystroke_m	m	n/a
145.294	0.0755	290588	keystroke_Key.backspace	Key.backspace	n/a
145.5195	0.06	291039	keystroke_Key.backspace	Key.backspace	n/a
145.6995	0.075	291399	keystroke_Key.backspace	Key.backspace	n/a
145.8945	0.0755	291789	keystroke_Key.backspace	Key.backspace	n/a
146.09	0.105	292180	keystroke_Key.backspace	Key.backspace	n/a
146.3	0.09	292600	keystroke_Key.backspace	Key.backspace	n/a
147.29	0.1045	294580	keystroke_d	d	n/a
147.5445	0.09	295089	keystroke_y	y	n/a
147.845	0.06	295690	keystroke_i	i	n/a
147.98	0.09	295960	keystroke_n	n	n/a
148.16	0.09	296320	keystroke_g	g	n/a
148.37	0.105	296740	keystroke_Key.space	Key.space	n/a
148.7595	0.105	297519	keystroke_m	m	n/a
148.9695	0.12	297939	keystroke_a	a	n/a
149.7195	0.105	299439	keystroke_d	d	n/a
149.9895	0.15	299979	keystroke_r	r	n/a
150.2145	0.09	300429	keystroke_i	i	n/a
150.4845	0.12	300969	keystroke_d	d	n/a
150.7395	0.09	301479	keystroke_Key.space	Key.space	n/a
151.2055	0.149	302411	keystroke_r	r	n/a
151.4295	0.135	302859	keystroke_e	e	n/a
154.252	0.001	308504	keystroke_m	m	n/a
154.355	0.1495	308710	keystroke_e	e	n/a
154.64	0.09	309280	keystroke_d	d	n/a
154.9545	0.09	309909	keystroke_y	y	n/a
155.1945	0.1055	310389	keystroke_Key.space	Key.space	n/a
155.6145	0.105	311229	keystroke_d	d	n/a
155.9145	0.0605	311829	keystroke_i	i	n/a
156.2895	0.1355	312579	keystroke_v	v	n/a
157.58	0.135	315160	keystroke_e	e	n/a
157.88	0.1495	315760	keystroke_r	r	n/a
158.18	0.135	316360	keystroke_s	s	n/a
159.1545	0.075	318309	keystroke_i	i	n/a
159.3795	0.105	318759	keystroke_t	t	n/a
159.5445	0.0895	319089	keystroke_y	y	n/a
159.7995	0.119	319599	keystroke_Key.enter	Key.enter	n/a
159.924	13.4225	319848	prompt	n/a	beds studied trader judgment\n
160.1595	0.0295	320319	keystroke_k	k	n/a
160.7605	0.104	321521	keystroke_b	b	n/a
161.0295	0.135	322059	keystroke_e	e	n/a
161.3445	0.09	322689	keystroke_d	d	n/a
161.5695	0.12	323139	keystroke_s	s	n/a
161.735	0.09	323470	keystroke_Key.space	Key.space	n/a
161.9595	0.1205	323919	keystroke_s	s	n/a
162.2	0.12	324400	keystroke_t	t	n/a
162.38	0.09	324760	keystroke_u	u	n/a
163.295	0.09	326590	keystroke_Key.backspace	Key.backspace	n/a
163.52	0.06	327040	keystroke_Key.backspace	Key.backspace	n/a
163.6845	0.06	327369	keystroke_Key.backspace	Key.backspace	n/a
163.8495	0.06	327699	keystroke_Key.backspace	Key.backspace	n/a
164.0145	0.06	328029	keystroke_Key.backspace	Key.backspace	n/a
164.18	0.075	328360	keystroke_Key.backspace	Key.backspace	n/a
164.4505	0.0895	328901	keystroke_Key.backspace	Key.backspace	n/a
164.66	0.09	329320	keystroke_Key.backspace	Key.backspace	n/a
164.8855	0.06	329771	keystroke_Key.backspace	Key.backspace	n/a
165.0805	0.045	330161	keystroke_Key.backspace	Key.backspace	n/a
165.725	0.075	331450	keystroke_b	b	n/a
165.9805	0.135	331961	keystroke_e	e	n/a
166.34	0.105	332680	keystroke_d	d	n/a
166.67	0.09	333340	keystroke_s	s	n/a
166.925	0.09	333850	keystroke_Key.space	Key.space	n/a
167.195	0.135	334390	keystroke_s	s	n/a
167.8705	0.09	335741	keystroke_t	t	n/a
168.0055	0.0895	336011	keystroke_u	u	n/a
168.245	0.12	336490	keystroke_d	d	n/a
168.455	0.06	336910	keystroke_i	i	n/a
168.665	0.1495	337330	keystroke_e	e	n/a
168.9645	0.1055	337929	keystroke_d	d	n/a
169.19	0.0895	338380	keystroke_Key.space	Key.space	n/a
169.3245	0.12	338649	keystroke_t	t	n/a
169.595	0.15	339190	keystroke_r	r	n/a
169.955	0.1205	339910	keystroke_a	a	n/a
170.3	0.09	340600	keystroke_d	d	n/a
170.525	0.1945	341050	keystroke_e	e	n/a
170.6895	0.1055	341379	keystroke_r	r	n/a
170.84	0.12	341680	keystroke_Key.space	Key.space	n/a
171.125	0.12	342250	keystroke_j	j	n/a
171.35	0.075	342700	keystroke_u	u	n/a
171.9355	0.105	343871	keystroke_d	d	n/a
172.3695	0.0905	344739	keystroke_g	g	n/a
172.595	0.075	345190	keystroke_m	m	n/a
172.715	0.12	345430	keystroke_e	e	n/a
172.865	0.12	345730	keystroke_n	n	n/a
173	0.09	346000	keystroke_t	t	n/a
173.225	0.1205	346450	keystroke_Key.enter	Key.enter	n/a
173.35	14.442	346700	prompt	n/a	pixels who'll recommendation rules\n
174.11	0.09	348220	keystroke_p	p	n/a
174.365	0.075	348730	keystroke_i	i	n/a
174.7105	0.1195	349421	keystroke_x	x	n/a
174.995	0.12	349990	keystroke_e	e	n/a
175.19	0.09	350380	keystroke_l	l	n/a
175.37	0.09	350740	keystroke_s	s	n/a
175.58	0.12	351160	keystroke_Key.space	Key.space	n/a
176.045	0.105	352090	keystroke_w	w	n/a
176.21	0.1205	352420	keystroke_h	h	n/a
176.5555	0.12	353111	keystroke_o	o	n/a
177.4095	0.09	354819	keystroke_'	'	n/a
178.4145	0.075	356829	keystroke_o	o	n/a
178.6095	0.09	357219	keystroke_o	o	n/a
178.94	0.09	357880	keystroke_Key.space	Key.space	n/a
179.7955	0.06	359591	keystroke_Key.backspace	Key.backspace	n/a
180.155	0.0905	360310	keystroke_Key.backspace	Key.backspace	n/a
180.8005	0.075	361601	keystroke_Key.backspace	Key.backspace	n/a
181.58	0.075	363160	keystroke_l	l	n/a
181.82	0.075	363640	keystroke_l	l	n/a
182.585	0.09	365170	keystroke_Key.space	Key.space	n/a
182.8845	0.1205	365769	keystroke_r	r	n/a
183.11	0.1355	366220	keystroke_e	e	n/a
183.5005	0.0895	367001	keystroke_c	c	n/a
183.71	0.105	367420	keystroke_o	o	n/a
183.95	0.06	367900	keystroke_m	m	n/a
184.1155	0.075	368231	keystroke_m	m	n/a
184.31	0.12	368620	keystroke_e	e	n/a
184.46	0.105	368920	keystroke_n	n	n/a
184.6855	0.12	369371	keystroke_d	d	n/a
185.0005	0.12	370001	keystroke_a	a	n/a
185.2105	0.105	370421	keystroke_t	t	n/a
185.3605	0.09	370721	keystroke_i	i	n/a
185.5555	0.075	371111	keystroke_o	o	n/a
185.705	0.09	371410	keystroke_n	n	n/a
185.9445	0.105	371889	keystroke_Key.space	Key.space	n/a
186.1995	0.12	372399	keystroke_r	r	n/a
186.409	0.075	372818	keystroke_u	u	n/a
187.0845	0.09	374169	keystroke_l	l	n/a
187.3105	0.105	374621	keystroke_e	e	n/a
187.5205	0.1195	375041	keystroke_s	s	n/a
187.6855	0.105	375371	keystroke_Key.enter	Key.enter	n/a
187.795	39.507	375590	prompt	n/a	experience patrick wikipedia stroke\n
188.5555	0.1655	377111	keystroke_e	e	n/a
189.0055	0.135	378011	keystroke_x	x	n/a
189.3645	0.0915	378729	keystroke_p	p	n/a
189.6655	0.1195	379331	keystroke_r	r	n/a
190.595	0.06	381190	keystroke_Key.backspace	Key.backspace	n/a
190.8505	0.1645	381701	keystroke_e	e	n/a
190.9705	0.12	381941	keystroke_r	r	n/a
191.42	0.075	382840	keystroke_i	i	n/a
192.1105	0.075	384221	keystroke_n	n	n/a
192.455	0.12	384910	keystroke_c	c	n/a
192.695	0.105	385390	keystroke_e	e	n/a
192.92	0.09	385840	keystroke_Key.space	Key.space	n/a
193.7145	0.09	387429	keystroke_Key.backspace	Key.backspace	n/a
193.9245	0.075	387849	keystroke_Key.backspace	Key.backspace	n/a
194.105	0.0755	388210	keystroke_Key.backspace	Key.backspace	n/a
194.3005	0.09	388601	keystroke_Key.backspace	Key.backspace	n/a
194.4805	0.0895	388961	keystroke_Key.backspace	Key.backspace	n/a
194.675	0.09	389350	keystroke_Key.backspace	Key.backspace	n/a
195.8605	0.105	391721	keystroke_r	r	n/a
196.4305	0.0755	392861	keystroke_i	i	n/a
196.865	0.1355	393730	keystroke_e	e	n/a
197.2405	0.09	394481	keystroke_n	n	n/a
197.4655	0.15	394931	keystroke_c	c	n/a
197.7505	0.1045	395501	keystroke_e	e	n/a
198.7105	0.104	397421	keystroke_Key.space	Key.space	n/a
199.49	0.09	398980	keystroke_p	p	n/a
199.701	0.1345	399402	keystroke_a	a	n/a
199.9255	0.135	399851	keystroke_t	t	n/a
200.1805	0.135	400361	keystroke_r	r	n/a
200.3605	0.075	400721	keystroke_i	i	n/a
200.555	0.075	401110	keystroke_c	c	n/a
200.705	0.06	401410	keystroke_k	k	n/a
201.2305	0.119	402461	keystroke_w	w	n/a
201.4845	0.075	402969	keystroke_i	i	n/a
201.83	0.075	403660	keystroke_k	k	n/a
202.1	0.06	404200	keystroke_i	i	n/a
202.445	0.105	404890	keystroke_p	p	n/a
202.73	0.12	405460	keystroke_e	e	n/a
203.42	0.045	406840	keystroke_d	d	n/a
203.585	0.075	407170	keystroke_i	i	n/a
203.7955	0.105	407591	keystroke_a	a	n/a
203.9905	0.105	407981	keystroke_Key.space	Key.space	n/a
204.2905	0.1195	408581	keystroke_s	s	n/a
207.2305	0.105	414461	keystroke_Key.backspace	Key.backspace	n/a
207.4555	0.06	414911	keystroke_Key.backspace	Key.backspace	n/a
207.6355	0.105	415271	keystroke_Key.backspace	Key.backspace	n/a
209.6005	0.075	419201	keystroke_k	k	n/a
210.516	0.105	421032	keystroke_Key.space	Key.space	n/a
211.0855	0.105	422171	keystroke_w	w	n/a
211.416	0.075	422832	keystroke_i	i	n/a
211.716	0.075	423432	keystroke_k	k	n/a
212.24	0.075	424480	keystroke_i	i	n/a
212.54	0.105	425080	keystroke_p	p	n/a
212.81	0.151	425620	keystroke_e	e	n/a
213.156	0.0895	426312	keystroke_d	d	n/a
213.4405	0.06	426881	keystroke_i	i	n/a
214.5655	0.1195	429131	keystroke_a	a	n/a
215.2255	0.09	430451	keystroke_Key.backspace	Key.backspace	n/a
215.4205	0.09	430841	keystroke_Key.backspace	Key.backspace	n/a
216.7855	0.09	433571	keystroke_Key.backspace	Key.backspace	n/a
216.9805	0.0905	433961	keystroke_Key.backspace	Key.backspace	n/a
217.1755	0.255	434351	keystroke_Key.backspace	Key.backspace	n/a
219.0805	0.21	438161	keystroke_r	r	n/a
219.3055	0.075	438611	keystroke_i	i	n/a
219.5605	0.105	439121	keystroke_c	c	n/a
219.6955	0.075	439391	keystroke_k	k	n/a
220.056	0.1045	440112	keystroke_Key.space	Key.space	n/a
221.166	0.135	442332	keystroke_w	w	n/a
221.376	0.09	442752	keystroke_i	i	n/a
221.706	0.06	443412	keystroke_k	k	n/a
221.9305	0.06	443861	keystroke_i	i	n/a
222.2605	0.09	444521	keystroke_p	p	n/a
222.5005	0.1505	445001	keystroke_e	e	n/a
222.921	0.09	445842	keystroke_d	d	n/a
223.086	0.06	446172	keystroke_i	i	n/a
223.266	0.1055	446532	keystroke_a	a	n/a
223.4765	0.119	446953	keystroke_Key.space	Key.space	n/a
223.716	0.12	447432	keystroke_s	s	n/a
223.926	0.12	447852	keystroke_t	t	n/a
224.1965	0.1345	448393	keystroke_r	r	n/a
225.756	0.09	451512	keystroke_o	o	n/a
226.401	0.075	452802	keystroke_k	k	n/a
226.5655	0.105	453131	keystroke_e	e	n/a
226.835	0.09	453670	keystroke_Key.space	Key.space	n/a
227.21	0.09	454420	keystroke_Key.enter	Key.enter	n/a
227.305	17.5465	454610	prompt	n/a	bars firefox devices evanescence\n
228.0505	0.1055	456101	keystroke_b	b	n/a
228.291	0.165	456582	keystroke_a	a	n/a
228.441	0.15	456882	keystroke_r	r	n/a
228.801	0.105	457602	keystroke_s	s	n/a
228.966	0.12	457932	keystroke_Key.space	Key.space	n/a
229.2355	0.0755	458471	keystroke_f	f	n/a
229.3855	0.075	458771	keystroke_i	i	n/a
229.5805	0.15	459161	keystroke_r	r	n/a
229.8205	0.1055	459641	keystroke_e	e	n/a
230.526	0.105	461052	keystroke_g	g	n/a
230.8705	0.09	461741	keystroke_o	o	n/a
231.1855	0.06	462371	keystroke_x	x	n/a
231.695	0.075	463390	keystroke_Key.backspace	Key.backspace	n/a
231.935	0.09	463870	keystroke_Key.backspace	Key.backspace	n/a
232.115	0.045	464230	keystroke_Key.backspace	Key.backspace	n/a
232.3705	0.1055	464741	keystroke_f	f	n/a
232.6855	0.09	465371	keystroke_o	o	n/a
232.986	0.105	465972	keystroke_x	x	n/a
233.4805	0.0605	466961	keystroke_Key.space	Key.space	n/a
233.9605	0.105	467921	keystroke_d	d	n/a
234.186	0.165	468372	keystroke_e	e	n/a
234.5455	0.105	469091	keystroke_c	c	n/a
234.7705	0.06	469541	keystroke_i	i	n/a
234.9655	0.12	469931	keystroke_e	e	n/a
235.715	0.075	471430	keystroke_=	=	n/a
235.925	0.06	471850	keystroke_Key.backspace	Key.backspace	n/a
236.7195	0.1505	473439	keystroke_Key.backspace	Key.backspace	n/a
236.885	0.121	473770	keystroke_Key.backspace	Key.backspace	n/a
237.11	0.105	474220	keystroke_Key.backspace	Key.backspace	n/a
237.335	0.076	474670	keystroke_Key.backspace	Key.backspace	n/a
237.53	0.046	475060	keystroke_Key.backspace	Key.backspace	n/a
238.415	0.045	476830	keystroke_Key.space	Key.space	n/a
238.9555	0.12	477911	keystroke_d	d	n/a
239.2705	0.165	478541	keystroke_e	e	n/a
239.6	0.1355	479200	keystroke_v	v	n/a
239.8255	0.06	479651	keystroke_i	i	n/a
239.976	0.1345	479952	keystroke_c	c	n/a
240.1855	0.15	480371	keystroke_e	e	n/a
240.4105	0.1045	480821	keystroke_s	s	n/a
240.515	0.12	481030	keystroke_Key.space	Key.space	n/a
240.9205	0.1795	481841	keystroke_e	e	n/a
241.16	0.09	482320	keystroke_n	n	n/a
242.03	0.135	484060	keystroke_a	a	n/a
242.195	0.1205	484390	keystroke_n	n	n/a
242.525	0.12	485050	keystroke_e	e	n/a
242.885	0.1355	485770	keystroke_s	s	n/a
243.4845	0.135	486969	keystroke_c	c	n/a
243.785	0.12	487570	keystroke_e	e	n/a
243.95	0.09	487900	keystroke_n	n	n/a
244.235	0.09	488470	keystroke_c	c	n/a
244.43	0.1045	488860	keystroke_e	e	n/a
244.744	0.105	489488	keystroke_Key.enter	Key.enter	n/a
244.8545	13.933	489709	prompt	n/a	realtor feature herbal hero\n
245.63	0.1495	491260	keystroke_r	r	n/a
245.8695	0.1055	491739	keystroke_e	e	n/a
246.14	0.09	492280	keystroke_l	l	n/a
246.5745	0.0905	493149	keystroke_t	t	n/a
246.725	0.09	493450	keystroke_o	o	n/a
246.92	0.1055	493840	keystroke_r	r	n/a
247.0555	0.135	494111	keystroke_Key.space	Key.space	n/a
247.3405	0.1045	494681	keystroke_f	f	n/a
248.375	0.075	496750	keystroke_Key.backspace	Key.backspace	n/a
248.5545	0.075	497109	keystroke_Key.backspace	Key.backspace	n/a
248.749	0.09	497498	keystroke_Key.backspace	Key.backspace	n/a
248.944	0.09	497888	keystroke_Key.backspace	Key.backspace	n/a
249.1395	0.09	498279	keystroke_Key.backspace	Key.backspace	n/a
249.3345	0.09	498669	keystroke_Key.backspace	Key.backspace	n/a
249.725	0.075	499450	keystroke_Key.backspace	Key.backspace	n/a
250.0405	0.075	500081	keystroke_Key.backspace	Key.backspace	n/a
250.4905	0.135	500981	keystroke_r	r	n/a
250.9555	0.3455	501911	keystroke_e	e	n/a
251.8105	0.135	503621	keystroke_a	a	n/a
252.5155	0.105	505031	keystroke_l	l	n/a
252.845	0.09	505690	keystroke_t	t	n/a
253.0105	0.105	506021	keystroke_o	o	n/a
253.175	0.106	506350	keystroke_r	r	n/a
253.3845	0.1205	506769	keystroke_Key.space	Key.space	n/a
253.655	0.12	507310	keystroke_f	f	n/a
254.1795	0.0905	508359	keystroke_e	e	n/a
254.495	0.12	508990	keystroke_a	a	n/a
254.72	0.1345	509440	keystroke_t	t	n/a
254.9445	0.09	509889	keystroke_u	u	n/a
255.1395	0.15	510279	keystroke_r	r	n/a
255.3645	0.105	510729	keystroke_e	e	n/a
255.5895	0.105	511179	keystroke_Key.space	Key.space	n/a
256.115	0.075	512230	keystroke_h	h	n/a
256.325	0.15	512650	keystroke_e	e	n/a
256.43	0.12	512860	keystroke_r	r	n/a
256.76	0.105	513520	keystroke_b	b	n/a
256.97	0.12	513940	keystroke_a	a	n/a
257.12	0.105	514240	keystroke_l	l	n/a
257.36	0.09	514720	keystroke_Key.space	Key.space	n/a
257.6005	0.075	515201	keystroke_h	h	n/a
257.811	0.135	515622	keystroke_e	e	n/a
258.095	0.105	516190	keystroke_r	r	n/a
258.291	0.1045	516582	keystroke_o	o	n/a
258.696	0.09	517392	keystroke_Key.enter	Key.enter	n/a
258.7925	10.2995	517585	prompt	n/a	pound crucial daniel cell\n
259.505	0.09	519010	keystroke_p	p	n/a
259.7755	0.1045	519551	keystroke_o	o	n/a
259.925	0.1495	519850	keystroke_u	u	n/a
260.1945	0.105	520389	keystroke_n	n	n/a
260.375	0.09	520750	keystroke_d	d	n/a
260.555	0.12	521110	keystroke_Key.space	Key.space	n/a
261.0195	0.12	522039	keystroke_c	c	n/a
261.3055	0.09	522611	keystroke_r	r	n/a
261.5155	0.0755	523031	keystroke_u	u	n/a
261.785	0.12	523570	keystroke_c	c	n/a
262.0405	0.06	524081	keystroke_i	i	n/a
262.2505	0.12	524501	keystroke_a	a	n/a
262.4455	0.1045	524891	keystroke_l	l	n/a
262.7005	0.0755	525401	keystroke_Key.space	Key.space	n/a
263.4505	0.075	526901	keystroke_d	d	n/a
264.0655	0.104	528131	keystroke_a	a	n/a
264.3045	0.09	528609	keystroke_n	n	n/a
264.6345	0.06	529269	keystroke_i	i	n/a
264.8145	0.105	529629	keystroke_e	e	n/a
265.0095	0.105	530019	keystroke_l	l	n/a
265.2645	0.06	530529	keystroke_Key.space	Key.space	n/a
265.55	0.12	531100	keystroke_c	c	n/a
266.4645	0.12	532929	keystroke_e	e	n/a
266.7345	0.06	533469	keystroke_t	t	n/a
267.499	0.09	534998	keystroke_Key.backspace	Key.backspace	n/a
268.46	0.0595	536920	keystroke_l	l	n/a
268.655	0.09	537310	keystroke_l	l	n/a
269.015	0.0755	538030	keystroke_Key.enter	Key.enter	n/a
269.0945	10.955	538189	prompt	n/a	publicly wage know logical\n
269.8855	0.12	539771	keystroke_p	p	n/a
270.1105	0.106	540221	keystroke_u	u	n/a
270.5305	0.105	541061	keystroke_b	b	n/a
270.815	0.0905	541630	keystroke_l	l	n/a
271.281	0.0895	542562	keystroke_i	i	n/a
271.581	0.104	543162	keystroke_c	c	n/a
271.85	0.105	543700	keystroke_l	l	n/a
272.151	0.089	544302	keystroke_y	y	n/a
272.4055	0.105	544811	keystroke_Key.space	Key.space	n/a
273.261	0.12	546522	keystroke_w	w	n/a
273.5155	0.105	547031	keystroke_a	a	n/a
273.8455	0.09	547691	keystroke_g	g	n/a
274.0855	0.1195	548171	keystroke_e	e	n/a
274.295	0.1055	548590	keystroke_Key.space	Key.space	n/a
274.5355	0.09	549071	keystroke_k	k	n/a
274.7155	0.105	549431	keystroke_n	n	n/a
274.955	0.09	549910	keystroke_o	o	n/a
274.97	0.06	549940	keystroke_i	i	n/a
275.09	0.135	550180	keystroke_w	w	n/a
275.7795	0.075	551559	keystroke_Key.space	Key.space	n/a
276.3045	0.075	552609	keystroke_Key.backspace	Key.backspace	n/a
276.5155	0.06	553031	keystroke_Key.backspace	Key.backspace	n/a
276.695	0.09	553390	keystroke_Key.backspace	Key.backspace	n/a
277.3105	0.105	554621	keystroke_w	w	n/a
277.5655	0.1055	555131	keystroke_Key.space	Key.space	n/a
278.3605	0.045	556721	keystroke_l	l	n/a
278.5105	0.09	557021	keystroke_o	o	n/a
278.6755	0.105	557351	keystroke_g	g	n/a
278.915	0.076	557830	keystroke_i	i	n/a
279.185	0.105	558370	keystroke_c	c	n/a
279.4105	0.135	558821	keystroke_a	a	n/a
279.56	0.09	559120	keystroke_l	l	n/a
279.9355	0.104	559871	keystroke_Key.enter	Key.enter	n/a
280.053	28.835	560106	prompt	n/a	salon louisville slim bangkok\n
280.956	0.12	561912	keystroke_s	s	n/a
281.271	0.12	562542	keystroke_a	a	n/a
281.4665	0.105	562933	keystroke_l	l	n/a
281.7355	0.12	563471	keystroke_o	o	n/a
281.9915	0.105	563983	keystroke_n	n	n/a
282.231	0.105	564462	keystroke_Key.space	Key.space	n/a
282.801	0.075	565602	keystroke_l	l	n/a
283.221	0.1055	566442	keystroke_o	o	n/a
283.3715	0.1195	566743	keystroke_u	u	n/a
283.686	0.06	567372	keystroke_i	i	n/a
284.4805	0.1055	568961	keystroke_s	s	n/a
285.036	0.105	570072	keystroke_v	v	n/a
285.321	0.06	570642	keystroke_i	i	n/a
285.636	0.075	571272	keystroke_l	l	n/a
285.831	0.0745	571662	keystroke_l	l	n/a
286.071	0.105	572142	keystroke_e	e	n/a
286.266	0.12	572532	keystroke_Key.space	Key.space	n/a
286.551	0.105	573102	keystroke_s	s	n/a
289.745	0.09	579490	keystroke_Key.backspace	Key.backspace	n/a
289.955	0.075	579910	keystroke_Key.backspace	Key.backspace	n/a
290.135	0.0755	580270	keystroke_Key.backspace	Key.backspace	n/a
291.681	0.074	583362	keystroke_i	i	n/a
291.921	0.12	583842	keystroke_s	s	n/a
292.325	0.121	584650	keystroke_v	v	n/a
292.7755	0.075	585551	keystroke_l	l	n/a
292.9705	0.075	585941	keystroke_l	l	n/a
293.3005	0.12	586601	keystroke_e	e	n/a
293.6905	0.105	587381	keystroke_Key.space	Key.space	n/a
297.203	0.0575	594406	keystroke_Key.backspace	Key.backspace	n/a
297.3805	0.06	594761	keystroke_Key.backspace	Key.backspace	n/a
297.5605	0.075	595121	keystroke_Key.backspace	Key.backspace	n/a
297.7555	0.075	595511	keystroke_Key.backspace	Key.backspace	n/a
297.9505	0.075	595901	keystroke_Key.backspace	Key.backspace	n/a
298.5655	0.015	597131	keystroke_Key.backspace	Key.backspace	n/a
298.6555	0.045	597311	keystroke_Key.backspace	Key.backspace	n/a
300.1855	0.075	600371	keystroke_i	i	n/a
300.425	0.151	600850	keystroke_s	s	n/a
300.86	0.12	601720	keystroke_v	v	n/a
301.175	0.09	602350	keystroke_i	i	n/a
301.445	0.06	602890	keystroke_l	l	n/a
301.7605	0.1505	603521	keystroke_e	e	n/a
302.076	0.12	604152	keystroke_Key.space	Key.space	n/a
302.331	0.1045	604662	keystroke_s	s	n/a
302.4655	0.0905	604931	keystroke_l	l	n/a
302.706	0.09	605412	keystroke_i	i	n/a
303.0055	0.075	606011	keystroke_m	m	n/a
303.276	0.12	606552	keystroke_Key.space	Key.space	n/a
303.5605	0.076	607121	keystroke_b	b	n/a
303.846	0.119	607692	keystroke_a	a	n/a
304.041	0.119	608082	keystroke_n	n	n/a
305.376	0.09	610752	keystroke_g	g	n/a
305.886	0.1195	611772	keystroke_k	k	n/a
306.441	0.1195	612882	keystroke_o	o	n/a
306.7105	0.06	613421	keystroke_l	l	n/a
307.956	0.075	615912	keystroke_Key.backspace	Key.backspace	n/a
308.481	0.06	616962	keystroke_k	k	n/a
308.826	0.06	617652	keystroke_Key.enter	Key.enter	n/a
308.891	9.852	617782	prompt	n/a	grows item standard skirts\n
309.652	0.075	619304	keystroke_g	g	n/a
309.877	0.135	619754	keystroke_r	r	n/a
310.132	0.045	620264	keystroke_o	o	n/a
310.7315	0.12	621463	keystroke_w	w	n/a
311.0165	0.0755	622033	keystroke_s	s	n/a
311.197	0.12	622394	keystroke_Key.space	Key.space	n/a
311.602	0.075	623204	keystroke_i	i	n/a
312.0515	0.12	624103	keystroke_t	t	n/a
312.3365	0.1205	624673	keystroke_e	e	n/a
312.5015	0.12	625003	keystroke_m	m	n/a
312.7715	0.105	625543	keystroke_Key.space	Key.space	n/a
313.0715	0.105	626143	keystroke_s	s	n/a
313.387	0.1195	626774	keystroke_t	t	n/a
314.5265	0.105	629053	keystroke_a	a	n/a
314.6765	0.1205	629353	keystroke_n	n	n/a
314.902	0.1195	629804	keystroke_d	d	n/a
315.457	0.1345	630914	keystroke_a	a	n/a
315.5765	0.135	631153	keystroke_r	r	n/a
316.2815	0.09	632563	keystroke_d	d	n/a
316.5065	0.12	633013	keystroke_Key.space	Key.space	n/a
316.9415	0.09	633883	keystroke_s	s	n/a
317.3915	0.06	634783	keystroke_k	k	n/a
317.6015	0.06	635203	keystroke_i	i	n/a
317.9915	0.105	635983	keystroke_r	r	n/a
318.2015	0.09	636403	keystroke_t	t	n/a
318.4415	0.105	636883	keystroke_s	s	n/a
318.6215	0.1205	637243	keystroke_Key.enter	Key.enter	n/a
318.755	10.0685	637510	prompt	n/a	prep casinos dosage billion\n
319.4025	0.104	638805	keystroke_p	p	n/a
320.197	0.105	640394	keystroke_r	r	n/a
320.4665	0.105	640933	keystroke_e	e	n/a
321.0515	0.075	642103	keystroke_p	p	n/a
321.412	0.0895	642824	keystroke_Key.space	Key.space	n/a
322.297	0.09	644594	keystroke_c	c	n/a
322.597	0.1195	645194	keystroke_a	a	n/a
322.8215	0.1055	645643	keystroke_s	s	n/a
323.017	0.0905	646034	keystroke_i	i	n/a
323.212	0.1205	646424	keystroke_n	n	n/a
323.467	0.12	646934	keystroke_o	o	n/a
323.692	0.105	647384	keystroke_s	s	n/a
323.902	0.135	647804	keystroke_Key.space	Key.space	n/a
324.382	0.075	648764	keystroke_d	d	n/a
324.532	0.105	649064	keystroke_o	o	n/a
325.177	0.12	650354	keystroke_s	s	n/a
325.537	0.135	651074	keystroke_a	a	n/a
325.747	0.12	651494	keystroke_g	g	n/a
326.017	0.105	652034	keystroke_e	e	n/a
326.3015	0.1055	652603	keystroke_Key.space	Key.space	n/a
326.6475	0.105	653295	keystroke_b	b	n/a
326.8575	0.075	653715	keystroke_i	i	n/a
327.142	0.105	654284	keystroke_l	l	n/a
327.367	0.09	654734	keystroke_l	l	n/a
328.012	0.075	656024	keystroke_i	i	n/a
328.222	0.1195	656444	keystroke_o	o	n/a
328.4165	0.0905	656833	keystroke_n	n	n/a
328.732	0.0895	657464	keystroke_Key.enter	Key.enter	n/a
328.8265	21.567	657653	prompt	n/a	margaret assure groundwater spray\n
329.602	0.06	659204	keystroke_m	m	n/a
329.827	0.165	659654	keystroke_a	a	n/a
329.992	0.165	659984	keystroke_r	r	n/a
330.502	0.105	661004	keystroke_g	g	n/a
330.8025	0.1645	661605	keystroke_a	a	n/a
331.762	0.105	663524	keystroke_r	r	n/a
332.122	0.12	664244	keystroke_e	e	n/a
332.317	0.105	664634	keystroke_t	t	n/a
332.542	0.105	665084	keystroke_Key.space	Key.space	n/a
336.412	0.06	672824	keystroke_Key.backspace	Key.backspace	n/a
336.592	0.06	673184	keystroke_Key.backspace	Key.backspace	n/a
337.492	0.12	674984	keystroke_m	m	n/a
337.822	0.15	675644	keystroke_a	a	n/a
338.182	0.15	676364	keystroke_r	r	n/a
339.0825	0.135	678165	keystroke_g	g	n/a
340.267	0.15	680534	keystroke_a	a	n/a
340.807	0.135	681614	keystroke_r	r	n/a
341.227	0.1495	682454	keystroke_e	e	n/a
341.5715	0.105	683143	keystroke_t	t	n/a
341.7665	0.12	683533	keystroke_Key.space	Key.space	n/a
342.8625	0.12	685725	keystroke_a	a	n/a
343.1175	0.09	686235	keystroke_s	s	n/a
343.2825	0.12	686565	keystroke_s	s	n/a
343.5075	0.09	687015	keystroke_u	u	n/a
343.6425	0.165	687285	keystroke_r	r	n/a
343.9875	0.09	687975	keystroke_Key.space	Key.space	n/a
344.3465	0.165	688693	keystroke_g	g	n/a
345.1415	0.075	690283	keystroke_r	r	n/a
345.457	0.1045	690914	keystroke_o	o	n/a
345.622	0.105	691244	keystroke_u	u	n/a
346.6715	0.075	693343	keystroke_n	n	n/a
346.8375	0.105	693675	keystroke_d	d	n/a
347.5415	0.12	695083	keystroke_w	w	n/a
347.7815	0.12	695563	keystroke_a	a	n/a
347.9775	0.119	695955	keystroke_t	t	n/a
348.217	0.165	696434	keystroke_e	e	n/a
348.337	0.135	696674	keystroke_r	r	n/a
348.5615	0.105	697123	keystroke_Key.space	Key.space	n/a
348.8915	0.105	697783	keystroke_s	s	n/a
349.0415	0.105	698083	keystroke_p	p	n/a
349.2215	0.135	698443	keystroke_r	r	n/a
349.732	0.1045	699464	keystroke_a	a	n/a
350.0165	0.075	700033	keystroke_y	y	n/a
350.2865	0.105	700573	keystroke_Key.enter	Key.enter	n/a
350.3975	23.1625	700795	prompt	n/a	president tahoe tale safer\n
351.5625	0.1045	703125	keystroke_p	p	n/a
351.7725	0.15	703545	keystroke_r	r	n/a
351.9975	0.12	703995	keystroke_e	e	n/a
352.2225	0.1195	704445	keystroke_s	s	n/a
352.462	0.075	704924	keystroke_i	i	n/a
352.687	0.09	705374	keystroke_d	d	n/a
352.912	0.12	705824	keystroke_e	e	n/a
353.062	0.135	706124	keystroke_n	n	n/a
353.242	0.09	706484	keystroke_t	t	n/a
353.392	0.105	706784	keystroke_Key.space	Key.space	n/a
353.8875	0.119	707775	keystroke_t	t	n/a
354.2025	0.12	708405	keystroke_a	a	n/a
354.623	0.0905	709246	keystroke_h	h	n/a
354.8335	0.089	709667	keystroke_o	o	n/a
354.999	0.12	709998	keystroke_w	w	n/a
355.2695	0.1045	710539	keystroke_Key.space	Key.space	n/a
356.097	0.09	712194	keystroke_t	t	n/a
356.337	0.0905	712674	keystroke_a	a	n/a
356.5175	0.106	713035	keystroke_l	l	n/a
356.699	0.119	713398	keystroke_e	e	n/a
357.315	0.1205	714630	keystroke_Key.space	Key.space	n/a
359.1795	0.1055	718359	keystroke_Key.backspace	Key.backspace	n/a
359.405	0.1055	718810	keystroke_Key.backspace	Key.backspace	n/a
359.616	0.105	719232	keystroke_Key.backspace	Key.backspace	n/a
360.0225	0.045	720045	keystroke_Key.backspace	Key.backspace	n/a
360.173	0.105	720346	keystroke_Key.backspace	Key.backspace	n/a
360.3835	0.105	720767	keystroke_Key.backspace	Key.backspace	n/a
360.594	0.1055	721188	keystroke_Key.backspace	Key.backspace	n/a
360.8045	0.105	721609	keystroke_Key.backspace	Key.backspace	n/a
361.647	0.06	723294	keystroke_i	i	n/a
361.917	0.03	723834	keystroke_e	e	n/a
362.4735	0.075	724947	keystroke_Key.backspace	Key.backspace	n/a
362.684	0.075	725368	keystroke_Key.backspace	Key.backspace	n/a
363.331	0.0455	726662	keystroke_o	o	n/a
363.4965	0.1205	726993	keystroke_e	e	n/a
363.918	0.09	727836	keystroke_Key.space	Key.space	n/a
364.414	0.1205	728828	keystroke_s	s	n/a
366.4445	0.09	732889	keystroke_Key.backspace	Key.backspace	n/a
366.715	0.09	733430	keystroke_Key.backspace	Key.backspace	n/a
366.9705	0.1055	733941	keystroke_Key.backspace	Key.backspace	n/a
367.2115	0.075	734423	keystroke_Key.backspace	Key.backspace	n/a
367.422	0.075	734844	keystroke_Key.backspace	Key.backspace	n/a
367.6325	0.09	735265	keystroke_Key.backspace	Key.backspace	n/a
367.843	0.06	735686	keystroke_Key.backspace	Key.backspace	n/a
368.625	0.045	737250	keystroke_t	t	n/a
368.986	0.1655	737972	keystroke_a	a	n/a
369.753	0.1205	739506	keystroke_h	h	n/a
369.9485	0.1205	739897	keystroke_o	o	n/a
370.3695	0.1055	740739	keystroke_e	e	n/a
371.0165	0.09	742033	keystroke_Key.space	Key.space	n/a
371.603	0.075	743206	keystroke_t	t	n/a
371.7835	0.12	743567	keystroke_a	a	n/a
371.9185	0.0905	743837	keystroke_l	l	n/a
372.084	0.1055	744168	keystroke_e	e	n/a
372.2345	0.1055	744469	keystroke_Key.space	Key.space	n/a
372.43	0.1205	744860	keystroke_s	s	n/a
372.6555	0.1205	745311	keystroke_a	a	n/a
372.866	0.1205	745732	keystroke_f	f	n/a
373.122	0.1805	746244	keystroke_e	e	n/a
373.257	0.1055	746514	keystroke_r	r	n/a
373.4375	0.1205	746875	keystroke_Key.enter	Key.enter	n/a
373.5645	14.2365	747129	prompt	n/a	packaging currencies alot speeches\n
374.5055	0.09	749011	keystroke_p	p	n/a
374.701	0.1955	749402	keystroke_a	a	n/a
374.9415	0.1355	749883	keystroke_c	c	n/a
375.092	0.0755	750184	keystroke_k	k	n/a
375.423	0.135	750846	keystroke_a	a	n/a
375.934	0.0755	751868	keystroke_g	g	n/a
376.0545	0.075	752109	keystroke_i	i	n/a
376.235	0.0905	752470	keystroke_n	n	n/a
376.43	0.0905	752860	keystroke_g	g	n/a
376.6105	0.1055	753221	keystroke_Key.space	Key.space	n/a
377.257	0.1065	754514	keystroke_c	c	n/a
377.4375	0.1055	754875	keystroke_u	u	n/a
378.039	0.1205	756078	keystroke_r	r	n/a
378.2345	0.1055	756469	keystroke_r	r	n/a
378.4905	0.12	756981	keystroke_e	e	n/a
380.5365	0.06	761073	keystroke_n	n	n/a
380.8515	0.121	761703	keystroke_c	c	n/a
381.0775	0.0755	762155	keystroke_i	i	n/a
381.2735	0.135	762547	keystroke_e	e	n/a
381.4835	0.1205	762967	keystroke_s	s	n/a
381.619	0.105	763238	keystroke_Key.space	Key.space	n/a
382.055	0.1055	764110	keystroke_a	a	n/a
382.2205	0.1205	764441	keystroke_l	l	n/a
382.4915	0.105	764983	keystroke_o	o	n/a
382.6865	0.1055	765373	keystroke_t	t	n/a
383.303	0.06	766606	keystroke_Key.space	Key.space	n/a
383.7995	0.0455	767599	keystroke_s	s	n/a
384.31	0.1055	768620	keystroke_p	p	n/a
385.468	0.2555	770936	keystroke_e	e	n/a
385.859	0.1655	771718	keystroke_e	e	n/a
386.2505	0.1205	772501	keystroke_c	c	n/a
386.446	0.1055	772892	keystroke_h	h	n/a
386.5965	0.135	773193	keystroke_e	e	n/a
386.852	0.1055	773704	keystroke_s	s	n/a
387.7085	0.091	775417	keystroke_Key.enter	Key.enter	n/a
387.804	8.402	775608	prompt	n/a	informal frame detroit chain\n
388.6115	0.089	777223	keystroke_i	i	n/a
388.8665	0.091	777733	keystroke_n	n	n/a
389.0325	0.1045	778065	keystroke_f	f	n/a
389.1825	0.1505	778365	keystroke_o	o	n/a
389.2875	0.1205	778575	keystroke_r	r	n/a
389.5435	0.09	779087	keystroke_m	m	n/a
389.9795	0.1355	779959	keystroke_a	a	n/a
390.22	0.12	780440	keystroke_l	l	n/a
390.446	0.105	780892	keystroke_Key.space	Key.space	n/a
390.656	0.1205	781312	keystroke_f	f	n/a
390.8965	0.1505	781793	keystroke_r	r	n/a
391.137	0.1355	782274	keystroke_a	a	n/a
391.2725	0.1055	782545	keystroke_m	m	n/a
391.4535	0.12	782907	keystroke_e	e	n/a
391.6035	0.12	783207	keystroke_Key.space	Key.space	n/a
391.9195	0.12	783839	keystroke_d	d	n/a
392.175	0.135	784350	keystroke_e	e	n/a
392.731	0.105	785462	keystroke_t	t	n/a
393.017	0.09	786034	keystroke_r	r	n/a
393.2875	0.1205	786575	keystroke_o	o	n/a
393.783	0.075	787566	keystroke_i	i	n/a
393.8885	0.105	787777	keystroke_t	t	n/a
394.2495	0.1055	788499	keystroke_Key.space	Key.space	n/a
394.4905	0.12	788981	keystroke_c	c	n/a
394.7155	0.105	789431	keystroke_h	h	n/a
395.407	0.1205	790814	keystroke_a	a	n/a
395.5425	0.105	791085	keystroke_i	i	n/a
395.738	0.135	791476	keystroke_n	n	n/a
396.0685	0.1355	792137	keystroke_Key.enter	Key.enter	n/a
396.209	15.4645	792418	prompt	n/a	corp stations graduate integral\n
397.0165	0.12	794033	keystroke_c	c	n/a
397.1965	0.135	794393	keystroke_o	o	n/a
397.3915	0.136	794783	keystroke_r	r	n/a
397.5875	0.1355	795175	keystroke_p	p	n/a
397.948	0.121	795896	keystroke_Key.space	Key.space	n/a
398.64	0.12	797280	keystroke_s	s	n/a
399.9325	0.136	799865	keystroke_t	t	n/a
400.429	0.105	800858	keystroke_a	a	n/a
400.5945	0.12	801189	keystroke_t	t	n/a
400.7895	0.105	801579	keystroke_i	i	n/a
401.0295	0.121	802059	keystroke_o	o	n/a
401.2105	0.12	802421	keystroke_n	n	n/a
401.4205	0.1205	802841	keystroke_s	s	n/a
402.608	0.0905	805216	keystroke_Key.space	Key.space	n/a
403.2845	0.105	806569	keystroke_g	g	n/a
403.5855	0.105	807171	keystroke_r	r	n/a
403.841	0.12	807682	keystroke_a	a	n/a
404.3065	0.0905	808613	keystroke_d	d	n/a
404.592	0.1045	809184	keystroke_u	u	n/a
404.922	0.135	809844	keystroke_a	a	n/a
405.072	0.1195	810144	keystroke_t	t	n/a
405.3415	0.105	810683	keystroke_e	e	n/a
405.566	0.1205	811132	keystroke_Key.space	Key.space	n/a
406.8715	0.09	813743	keystroke_i	i	n/a
407.876	0.105	815752	keystroke_n	n	n/a
408.086	0.135	816172	keystroke_t	t	n/a
408.341	0.226	816682	keystroke_e	e	n/a
408.461	0.091	816922	keystroke_r	r	n/a
409.4515	0.12	818903	keystroke_Key.backspace	Key.backspace	n/a
410.426	0.0895	820852	keystroke_g	g	n/a
410.8315	0.1195	821663	keystroke_r	r	n/a
411.086	0.12	822172	keystroke_a	a	n/a
411.236	0.135	822472	keystroke_l	l	n/a
411.551	0.12	823102	keystroke_Key.enter	Key.enter	n/a
411.678	11.1945	823356	prompt	n/a	beginning film collector titans\n
412.45	0.1205	824900	keystroke_b	b	n/a
412.75	0.1655	825500	keystroke_e	e	n/a
413.529	0.1205	827058	keystroke_g	g	n/a
413.694	0.195	827388	keystroke_i	i	n/a
414.7295	0.12	829459	keystroke_n	n	n/a
414.9395	0.0895	829879	keystroke_n	n	n/a
415.149	0.09	830298	keystroke_i	i	n/a
415.359	0.135	830718	keystroke_n	n	n/a
415.5225	0.105	831045	keystroke_g	g	n/a
415.7025	0.12	831405	keystroke_Key.space	Key.space	n/a
416.047	0.0895	832094	keystroke_f	f	n/a
416.2125	0.1045	832425	keystroke_i	i	n/a
416.408	0.104	832816	keystroke_l	l	n/a
416.5725	0.121	833145	keystroke_e	e	n/a
416.7375	0.1055	833475	keystroke_Key.space	Key.space	n/a
417.413	0.1505	834826	keystroke_c	c	n/a
417.7585	0.135	835517	keystroke_o	o	n/a
418.463	0.09	836926	keystroke_l	l	n/a
418.673	0.09	837346	keystroke_l	l	n/a
418.883	0.1645	837766	keystroke_e	e	n/a
419.212	0.1055	838424	keystroke_c	c	n/a
419.4525	0.105	838905	keystroke_t	t	n/a
419.6165	0.1505	839233	keystroke_o	o	n/a
419.827	0.1355	839654	keystroke_r	r	n/a
420.1415	0.075	840283	keystroke_Key.space	Key.space	n/a
420.5765	0.1205	841153	keystroke_t	t	n/a
421.1325	0.044	842265	keystroke_i	i	n/a
421.8065	0.1205	843613	keystroke_t	t	n/a
422.122	0.104	844244	keystroke_a	a	n/a
422.286	0.105	844572	keystroke_n	n	n/a
422.466	0.1355	844932	keystroke_s	s	n/a
422.751	0.12	845502	keystroke_Key.enter	Key.enter	n/a
422.8775	16.7875	845755	prompt	n/a	away millions recommends niagara\n
423.5605	0.105	847121	keystroke_a	a	n/a
423.9205	0.12	847841	keystroke_w	w	n/a
424.1755	0.12	848351	keystroke_a	a	n/a
424.3405	0.12	848681	keystroke_y	y	n/a
424.671	0.105	849342	keystroke_Key.space	Key.space	n/a
425	0.0755	850000	keystroke_m	m	n/a
425.2705	0.104	850541	keystroke_i	i	n/a
425.795	0.059	851590	keystroke_l	l	n/a
425.959	0.105	851918	keystroke_l	l	n/a
426.199	0.09	852398	keystroke_s	s	n/a
427.563	0.06	855126	keystroke_Key.backspace	Key.backspace	n/a
428.943	0.075	857886	keystroke_i	i	n/a
429.6925	0.06	859385	keystroke_o	o	n/a
429.8275	0.1045	859655	keystroke_n	n	n/a
430.0225	0.15	860045	keystroke_s	s	n/a
430.2175	0.12	860435	keystroke_Key.space	Key.space	n/a
430.592	0.15	861184	keystroke_r	r	n/a
430.802	0.195	861604	keystroke_e	e	n/a
431.072	0.1495	862144	keystroke_c	c	n/a
431.3575	0.135	862715	keystroke_o	o	n/a
431.7315	0.046	863463	keystroke_n	n	n/a
432.6915	0.105	865383	keystroke_Key.backspace	Key.backspace	n/a
434.086	0.015	868172	keystroke_m	m	n/a
434.191	0.075	868382	keystroke_m	m	n/a
434.401	0.1195	868802	keystroke_e	e	n/a
434.5355	0.105	869071	keystroke_n	n	n/a
434.7305	0.12	869461	keystroke_d	d	n/a
434.985	0.105	869970	keystroke_s	s	n/a
435.3	0.091	870600	keystroke_Key.space	Key.space	n/a
435.81	0.105	871620	keystroke_n	n	n/a
436.1395	0.0905	872279	keystroke_i	i	n/a
436.6795	0.075	873359	keystroke_a	a	n/a
436.89	0.12	873780	keystroke_g	g	n/a
438.6145	0.1355	877229	keystroke_a	a	n/a
438.795	0.15	877590	keystroke_r	r	n/a
439.199	0.135	878398	keystroke_a	a	n/a
439.5445	0.1195	879089	keystroke_Key.enter	Key.enter	n/a
439.6695	12.874	879339	prompt	n/a	demand sake saskatchewan meanwhile\n
440.5185	0.104	881037	keystroke_d	d	n/a
440.728	0.1495	881456	keystroke_e	e	n/a
440.9075	0.1055	881815	keystroke_m	m	n/a
441.073	0.119	882146	keystroke_a	a	n/a
441.162	0.105	882324	keystroke_n	n	n/a
441.867	0.12	883734	keystroke_d	d	n/a
442.062	0.119	884124	keystroke_Key.space	Key.space	n/a
442.361	0.135	884722	keystroke_s	s	n/a
442.796	0.15	885592	keystroke_a	a	n/a
442.961	0.135	885922	keystroke_k	k	n/a
443.216	0.105	886432	keystroke_e	e	n/a
443.426	0.105	886852	keystroke_Key.space	Key.space	n/a
443.8315	0.165	887663	keystroke_s	s	n/a
444.671	0.0895	889342	keystroke_a	a	n/a
444.9255	0.12	889851	keystroke_s	s	n/a
445.285	0.105	890570	keystroke_k	k	n/a
445.63	0.151	891260	keystroke_a	a	n/a
445.871	0.1045	891742	keystroke_t	t	n/a
446.1405	0.1195	892281	keystroke_c	c	n/a
446.32	0.1045	892640	keystroke_h	h	n/a
446.5895	0.151	893179	keystroke_e	e	n/a
446.9345	0.15	893869	keystroke_w	w	n/a
447.2045	0.12	894409	keystroke_a	a	n/a
447.5195	0.09	895039	keystroke_n	n	n/a
447.7895	0.105	895579	keystroke_Key.space	Key.space	n/a
449.0195	0.09	898039	keystroke_m	m	n/a
449.604	0.1045	899208	keystroke_e	e	n/a
449.798	0.12	899596	keystroke_a	a	n/a
450.3085	0.09	900617	keystroke_n	n	n/a
450.6835	0.1195	901367	keystroke_w	w	n/a
450.9685	0.12	901937	keystroke_h	h	n/a
451.1935	0.1185	902387	keystroke_i	i	n/a
451.9725	0.105	903945	keystroke_l	l	n/a
452.1975	0.1045	904395	keystroke_e	e	n/a
452.422	0.12	904844	keystroke_Key.enter	Key.enter	n/a
452.5465	12.56	905093	prompt	n/a	scoring cemetery brisbane recall\n
453.307	0.15	906614	keystroke_s	s	n/a
453.592	0.12	907184	keystroke_c	c	n/a
453.832	0.105	907664	keystroke_o	o	n/a
454.042	0.12	908084	keystroke_r	r	n/a
454.2965	0.075	908593	keystroke_i	i	n/a
454.4465	0.135	908893	keystroke_n	n	n/a
454.6565	0.09	909313	keystroke_g	g	n/a
454.791	0.12	909582	keystroke_Key.space	Key.space	n/a
455.196	0.12	910392	keystroke_c	c	n/a
455.421	0.135	910842	keystroke_e	e	n/a
455.9005	0.09	911801	keystroke_m	m	n/a
456.1555	0.12	912311	keystroke_e	e	n/a
456.4255	0.0895	912851	keystroke_t	t	n/a
457.325	0.2105	914650	keystroke_e	e	n/a
457.4905	0.135	914981	keystroke_r	r	n/a
457.7305	0.105	915461	keystroke_y	y	n/a
457.9545	0.12	915909	keystroke_Key.space	Key.space	n/a
458.3145	0.105	916629	keystroke_b	b	n/a
458.5695	0.135	917139	keystroke_r	r	n/a
458.7945	0.105	917589	keystroke_i	i	n/a
459.139	0.195	918278	keystroke_s	s	n/a
459.7545	0.1345	919509	keystroke_b	b	n/a
460.069	0.12	920138	keystroke_a	a	n/a
460.219	0.15	920438	keystroke_n	n	n/a
460.879	0.105	921758	keystroke_e	e	n/a
461.178	0.045	922356	keystroke_Key.space	Key.space	n/a
461.493	0.1655	922986	keystroke_r	r	n/a
462.483	0.12	924966	keystroke_e	e	n/a
462.813	0.135	925626	keystroke_a	a	n/a
463.727	0.09	927454	keystroke_Key.backspace	Key.backspace	n/a
464.206	0.1205	928412	keystroke_c	c	n/a
464.387	0.134	928774	keystroke_a	a	n/a
464.536	0.1345	929072	keystroke_l	l	n/a
464.971	0.134	929942	keystroke_Key.enter	Key.enter	n/a
465.111	23.296	930222	prompt	n/a	accountability they're linked sort\n
466.1845	0.1345	932369	keystroke_a	a	n/a
466.469	0.1505	932938	keystroke_c	c	n/a
466.6955	0.104	933391	keystroke_c	c	n/a
466.9495	0.15	933899	keystroke_o	o	n/a
467.1295	0.12	934259	keystroke_u	u	n/a
467.3545	0.075	934709	keystroke_n	n	n/a
467.8195	0.09	935639	keystroke_t	t	n/a
468.2245	0.15	936449	keystroke_a	a	n/a
468.525	0.09	937050	keystroke_b	b	n/a
468.795	0.15	937590	keystroke_l	l	n/a
469.229	0.09	938458	keystroke_i	i	n/a
474.956	0.1655	949912	keystroke_a	a	n/a
475.301	0.15	950602	keystroke_c	c	n/a
475.556	0.135	951112	keystroke_c	c	n/a
475.961	0.165	951922	keystroke_o	o	n/a
476.3505	0.165	952701	keystroke_u	u	n/a
476.7855	0.135	953571	keystroke_n	n	n/a
477.1455	0.18	954291	keystroke_t	t	n/a
477.4905	0.165	954981	keystroke_a	a	n/a
478.0305	0.135	956061	keystroke_b	b	n/a
478.465	0.105	956930	keystroke_i	i	n/a
479.38	0.15	958760	keystroke_l	l	n/a
479.8	0.105	959600	keystroke_i	i	n/a
480.0695	0.075	960139	keystroke_t	t	n/a
480.1745	0.12	960349	keystroke_y	y	n/a
480.4445	0.1195	960889	keystroke_Key.space	Key.space	n/a
480.924	0.12	961848	keystroke_t	t	n/a
481.074	0.12	962148	keystroke_h	h	n/a
481.299	0.15	962598	keystroke_e	e	n/a
481.584	0.1195	963168	keystroke_y	y	n/a
482.873	0.12	965746	keystroke_'	'	n/a
483.9235	0.12	967847	keystroke_r	r	n/a
484.118	0.15	968236	keystroke_e	e	n/a
484.523	0.105	969046	keystroke_Key.space	Key.space	n/a
485.107	0.121	970214	keystroke_l	l	n/a
485.362	0.075	970724	keystroke_i	i	n/a
485.632	0.015	971264	keystroke_n	n	n/a
485.9175	0.09	971835	keystroke_k	k	n/a
486.517	0.15	973034	keystroke_e	e	n/a
486.7865	0.105	973573	keystroke_d	d	n/a
486.9215	0.12	973843	keystroke_Key.space	Key.space	n/a
487.236	0.15	974472	keystroke_s	s	n/a
487.596	0.12	975192	keystroke_o	o	n/a
487.791	0.15	975582	keystroke_r	r	n/a
488.001	0.105	976002	keystroke_t	t	n/a
488.256	0.15	976512	keystroke_Key.enter	Key.enter	n/a
488.4105	16.9545	976821	prompt	n/a	loved williams switching facility\n
489.1555	0.09	978311	keystroke_l	l	n/a
489.3655	0.09	978731	keystroke_o	o	n/a
489.5305	0.09	979061	keystroke_v	v	n/a
489.7405	0.18	979481	keystroke_e	e	n/a
490.025	0.105	980050	keystroke_d	d	n/a
490.16	0.12	980320	keystroke_Key.space	Key.space	n/a
490.37	0.12	980740	keystroke_w	w	n/a
490.52	0.1495	981040	keystroke_i	i	n/a
490.79	0.09	981580	keystroke_l	l	n/a
490.985	0.1045	981970	keystroke_l	l	n/a
491.3595	0.09	982719	keystroke_i	i	n/a
491.5545	0.105	983109	keystroke_a	a	n/a
491.7645	0.1045	983529	keystroke_m	m	n/a
491.989	0.09	983978	keystroke_s	s	n/a
492.124	0.135	984248	keystroke_Key.space	Key.space	n/a
494.48	0.028	988960	keystroke_Key.backspace	Key.backspace	n/a
494.613	0.09	989226	keystroke_Key.backspace	Key.backspace	n/a
494.808	0.074	989616	keystroke_Key.backspace	Key.backspace	n/a
495.002	0.075	990004	keystroke_Key.backspace	Key.backspace	n/a
495.167	0.0905	990334	keystroke_Key.backspace	Key.backspace	n/a
495.3475	0.104	990695	keystroke_Key.backspace	Key.backspace	n/a
495.5415	0.076	991083	keystroke_Key.backspace	Key.backspace	n/a
495.6915	0.105	991383	keystroke_Key.backspace	Key.backspace	n/a
495.946	0.105	991892	keystroke_Key.backspace	Key.backspace	n/a
496.8765	0.105	993753	keystroke_w	w	n/a
497.2215	0.105	994443	keystroke_i	i	n/a
497.671	0.105	995342	keystroke_l	l	n/a
497.9555	0.105	995911	keystroke_l	l	n/a
498.196	0.105	996392	keystroke_i	i	n/a
498.451	0.1055	996902	keystroke_a	a	n/a
498.6015	0.09	997203	keystroke_m	m	n/a
498.8715	0.1045	997743	keystroke_s	s	n/a
499.141	0.1045	998282	keystroke_Key.space	Key.space	n/a
499.636	0.1195	999272	keystroke_s	s	n/a
499.9205	0.135	999841	keystroke_w	w	n/a
500.76	0.075	1001520	keystroke_i	i	n/a
501	0.1045	1002000	keystroke_t	t	n/a
501.3145	0.105	1002629	keystroke_c	c	n/a
501.4495	0.12	1002899	keystroke_h	h	n/a
501.7495	0.015	1003499	keystroke_i	i	n/a
501.8095	0.12	1003619	keystroke_n	n	n/a
501.9585	0.091	1003917	keystroke_g	g	n/a
502.0945	0.104	1004189	keystroke_Key.space	Key.space	n/a
502.8445	0.105	1005689	keystroke_f	f	n/a
503.0695	0.12	1006139	keystroke_a	a	n/a
503.3395	0.105	1006679	keystroke_c	c	n/a
503.984	0.09	1007968	keystroke_i	i	n/a
504.3885	0.105	1008777	keystroke_l	l	n/a
504.6435	0.075	1009287	keystroke_i	i	n/a
504.7935	0.09	1009587	keystroke_t	t	n/a
504.9135	0.1195	1009827	keystroke_y	y	n/a
505.243	0.12	1010486	keystroke_Key.enter	Key.enter	n/a
505.369	13.399	1010738	prompt	n/a	joan vehicles packets book\n
506.083	0.09	1012166	keystroke_j	j	n/a
506.382	0.12	1012764	keystroke_a	a	n/a
506.9375	0.1195	1013875	keystroke_o	o	n/a
507.9715	0.075	1015943	keystroke_Key.backspace	Key.backspace	n/a
508.2265	0.075	1016453	keystroke_Key.backspace	Key.backspace	n/a
508.6765	0.12	1017353	keystroke_o	o	n/a
508.9465	0.105	1017893	keystroke_a	a	n/a
509.126	0.09	1018252	keystroke_n	n	n/a
509.4255	0.1045	1018851	keystroke_Key.space	Key.space	n/a
509.7545	0.105	1019509	keystroke_v	v	n/a
513.2525	0.071	1026505	keystroke_e	e	n/a
513.5035	0.105	1027007	keystroke_h	h	n/a
513.7885	0.0755	1027577	keystroke_i	i	n/a
514.044	0.12	1028088	keystroke_c	c	n/a
514.2235	0.12	1028447	keystroke_l	l	n/a
514.3885	0.1505	1028777	keystroke_e	e	n/a
514.644	0.105	1029288	keystroke_s	s	n/a
514.779	0.1195	1029558	keystroke_Key.space	Key.space	n/a
515.1535	0.105	1030307	keystroke_p	p	n/a
515.348	0.12	1030696	keystroke_a	a	n/a
515.678	0.105	1031356	keystroke_c	c	n/a
515.858	0.105	1031716	keystroke_k	k	n/a
516.398	0.135	1032796	keystroke_e	e	n/a
516.653	0.12	1033306	keystroke_t	t	n/a
516.967	0.105	1033934	keystroke_s	s	n/a
517.102	0.105	1034204	keystroke_Key.space	Key.space	n/a
517.312	0.1045	1034624	keystroke_b	b	n/a
517.5365	0.105	1035073	keystroke_o	o	n/a
517.7615	0.09	1035523	keystroke_o	o	n/a
518.3465	0.075	1036693	keystroke_k	k	n/a
518.6315	0.135	1037263	keystroke_Key.enter	Key.enter	n/a
518.771	9.5775	1037542	prompt	n/a	native perspective cart belle\n
519.487	0.0745	1038974	keystroke_n	n	n/a
519.6965	0.149	1039393	keystroke_a	a	n/a
520.0265	0.134	1040053	keystroke_t	t	n/a
520.1765	0.09	1040353	keystroke_i	i	n/a
520.4305	0.1205	1040861	keystroke_c	c	n/a
520.64	0.135	1041280	keystroke_e	e	n/a
520.805	0.15	1041610	keystroke_Key.space	Key.space	n/a
521.8405	0.135	1043681	keystroke_p	p	n/a
522.1855	0.18	1044371	keystroke_e	e	n/a
522.3355	0.15	1044671	keystroke_r	r	n/a
523.325	0.1345	1046650	keystroke_s	s	n/a
523.6845	0.135	1047369	keystroke_p	p	n/a
523.969	0.1505	1047938	keystroke_e	e	n/a
524.269	0.12	1048538	keystroke_c	c	n/a
524.524	0.12	1049048	keystroke_t	t	n/a
524.689	0.09	1049378	keystroke_i	i	n/a
524.869	0.135	1049738	keystroke_v	v	n/a
525.154	0.135	1050308	keystroke_e	e	n/a
525.334	0.1045	1050668	keystroke_Key.space	Key.space	n/a
525.8135	0.135	1051627	keystroke_c	c	n/a
526.0525	0.15	1052105	keystroke_a	a	n/a
526.1875	0.135	1052375	keystroke_r	r	n/a
526.4125	0.09	1052825	keystroke_t	t	n/a
526.5325	0.1045	1053065	keystroke_Key.space	Key.space	n/a
527.0125	0.0455	1054025	keystroke_b	b	n/a
527.253	0.12	1054506	keystroke_e	e	n/a
527.597	0.09	1055194	keystroke_l	l	n/a
527.792	0.09	1055584	keystroke_l	l	n/a
527.927	0.1345	1055854	keystroke_e	e	n/a
528.2265	0.1205	1056453	keystroke_Key.enter	Key.enter	n/a
528.3515	8.244	1056703	prompt	n/a	lose northeast black simon\n
529.022	0.0745	1058044	keystroke_l	l	n/a
529.261	0.06	1058522	keystroke_o	o	n/a
529.441	0.1355	1058882	keystroke_s	s	n/a
529.6665	0.105	1059333	keystroke_e	e	n/a
529.8465	0.1195	1059693	keystroke_Key.space	Key.space	n/a
530.1615	0.089	1060323	keystroke_n	n	n/a
530.4165	0.135	1060833	keystroke_o	o	n/a
530.7615	0.1195	1061523	keystroke_r	r	n/a
530.986	0.09	1061972	keystroke_t	t	n/a
531.016	0.12	1062032	keystroke_h	h	n/a
531.4205	0.135	1062841	keystroke_e	e	n/a
531.7205	0.105	1063441	keystroke_a	a	n/a
531.9455	0.1345	1063891	keystroke_s	s	n/a
532.2005	0.105	1064401	keystroke_t	t	n/a
532.4855	0.105	1064971	keystroke_Key.space	Key.space	n/a
533.0845	0.136	1066169	keystroke_b	b	n/a
533.3255	0.1045	1066651	keystroke_l	l	n/a
533.505	0.1345	1067010	keystroke_a	a	n/a
533.7745	0.12	1067549	keystroke_c	c	n/a
533.985	0.105	1067970	keystroke_k	k	n/a
534.435	0.09	1068870	keystroke_Key.space	Key.space	n/a
534.9295	0.12	1069859	keystroke_s	s	n/a
535.2445	0.1045	1070489	keystroke_i	i	n/a
535.514	0.09	1071028	keystroke_m	m	n/a
535.889	0.135	1071778	keystroke_o	o	n/a
536.144	0.12	1072288	keystroke_n	n	n/a
536.474	0.12	1072948	keystroke_Key.enter	Key.enter	n/a
536.599	21.034	1073198	prompt	n/a	planes powder surveillance skirt\n
536.819	0.015	1073638	keystroke_k	k	n/a
537.359	0.12	1074718	keystroke_p	p	n/a
537.659	0.09	1075318	keystroke_l	l	n/a
537.8085	0.135	1075617	keystroke_a	a	n/a
538.1235	0.105	1076247	keystroke_n	n	n/a
538.3035	0.1355	1076607	keystroke_e	e	n/a
538.544	0.12	1077088	keystroke_s	s	n/a
538.7535	0.1345	1077507	keystroke_Key.space	Key.space	n/a
539.3985	0.105	1078797	keystroke_p	p	n/a
539.728	0.0895	1079456	keystroke_o	o	n/a
539.9375	0.105	1079875	keystroke_w	w	n/a
540.8065	0.09	1081613	keystroke_d	d	n/a
541.7055	0.4655	1083411	keystroke_Key.backspace	Key.backspace	n/a
542.3655	0.075	1084731	keystroke_Key.backspace	Key.backspace	n/a
542.5905	0.045	1085181	keystroke_Key.backspace	Key.backspace	n/a
542.785	0.06	1085570	keystroke_Key.backspace	Key.backspace	n/a
542.965	0.075	1085930	keystroke_Key.backspace	Key.backspace	n/a
543.16	0.06	1086320	keystroke_Key.backspace	Key.backspace	n/a
543.34	0.0755	1086680	keystroke_Key.backspace	Key.backspace	n/a
543.5205	0.06	1087041	keystroke_Key.backspace	Key.backspace	n/a
543.7005	0.06	1087401	keystroke_Key.backspace	Key.backspace	n/a
543.8805	0.0905	1087761	keystroke_Key.backspace	Key.backspace	n/a
544.076	0.075	1088152	keystroke_Key.backspace	Key.backspace	n/a
544.286	0.09	1088572	keystroke_Key.backspace	Key.backspace	n/a
544.496	0.06	1088992	keystroke_Key.backspace	Key.backspace	n/a
545.1855	0.1045	1090371	keystroke_p	p	n/a
545.47	0.075	1090940	keystroke_l	l	n/a
545.7105	0.135	1091421	keystroke_a	a	n/a
545.9355	0.105	1091871	keystroke_n	n	n/a
546.2055	0.135	1092411	keystroke_e	e	n/a
546.5505	0.1195	1093101	keystroke_s	s	n/a
546.76	0.105	1093520	keystroke_Key.space	Key.space	n/a
547.1795	0.1205	1094359	keystroke_o	o	n/a
549.0535	0.0755	1098107	keystroke_Key.backspace	Key.backspace	n/a
550.0885	0.12	1100177	keystroke_p	p	n/a
550.523	0.09	1101046	keystroke_o	o	n/a
550.7475	0.12	1101495	keystroke_w	w	n/a
551.153	0.105	1102306	keystroke_d	d	n/a
551.408	0.1945	1102816	keystroke_e	e	n/a
551.5425	0.12	1103085	keystroke_r	r	n/a
551.7525	0.105	1103505	keystroke_Key.space	Key.space	n/a
552.0225	0.12	1104045	keystroke_s	s	n/a
552.2475	0.105	1104495	keystroke_u	u	n/a
552.4125	0.15	1104825	keystroke_r	r	n/a
552.773	0.1195	1105546	keystroke_v	v	n/a
552.9975	0.105	1105995	keystroke_e	e	n/a
554.452	0.09	1108904	keystroke_i	i	n/a
555.247	0.09	1110494	keystroke_l	l	n/a
555.442	0.09	1110884	keystroke_l	l	n/a
555.592	0.12	1111184	keystroke_a	a	n/a
555.727	0.105	1111454	keystroke_n	n	n/a
555.9815	0.12	1111963	keystroke_c	c	n/a
556.1465	0.1205	1112293	keystroke_e	e	n/a
556.282	0.105	1112564	keystroke_Key.space	Key.space	n/a
556.537	0.105	1113074	keystroke_s	s	n/a
556.717	0.09	1113434	keystroke_k	k	n/a
556.942	0.0595	1113884	keystroke_i	i	n/a
557.0765	0.15	1114153	keystroke_r	r	n/a
557.3315	0.105	1114663	keystroke_t	t	n/a
557.4965	0.135	1114993	keystroke_Key.enter	Key.enter	n/a
557.642	10.4275	1115284	prompt	n/a	wherever tours won't continues\n
558.471	0.135	1116942	keystroke_w	w	n/a
559.2215	0.074	1118443	keystroke_h	h	n/a
559.4315	0.21	1118863	keystroke_e	e	n/a
559.5815	0.135	1119163	keystroke_r	r	n/a
560.541	0.134	1121082	keystroke_e	e	n/a
560.84	0.0905	1121680	keystroke_v	v	n/a
561.0505	0.195	1122101	keystroke_e	e	n/a
561.1555	0.15	1122311	keystroke_r	r	n/a
561.635	0.09	1123270	keystroke_Key.space	Key.space	n/a
562.579	0.09	1125158	keystroke_t	t	n/a
562.789	0.1045	1125578	keystroke_o	o	n/a
562.9835	0.1205	1125967	keystroke_u	u	n/a
563.089	0.1355	1126178	keystroke_r	r	n/a
563.3595	0.12	1126719	keystroke_s	s	n/a
563.5095	0.1195	1127019	keystroke_Key.space	Key.space	n/a
563.735	0.134	1127470	keystroke_w	w	n/a
563.884	0.135	1127768	keystroke_o	o	n/a
564.0945	0.105	1128189	keystroke_n	n	n/a
564.3195	0.135	1128639	keystroke_'	'	n/a
564.5145	0.09	1129029	keystroke_t	t	n/a
564.7845	0.09	1129569	keystroke_Key.space	Key.space	n/a
565.159	0.12	1130318	keystroke_c	c	n/a
565.309	0.135	1130618	keystroke_o	o	n/a
565.549	0.105	1131098	keystroke_n	n	n/a
565.699	0.135	1131398	keystroke_t	t	n/a
566.3885	0.12	1132777	keystroke_i	i	n/a
566.7485	0.105	1133497	keystroke_n	n	n/a
566.9585	0.09	1133917	keystroke_u	u	n/a
567.1385	0.1345	1134277	keystroke_e	e	n/a
567.363	0.12	1134726	keystroke_s	s	n/a
567.978	0.09	1135956	keystroke_Key.enter	Key.enter	n/a
568.073	12.5025	1136146	prompt	n/a	rebate medications hire stanford\n
568.7725	0.135	1137545	keystroke_r	r	n/a
568.9825	0.1345	1137965	keystroke_e	e	n/a
569.2515	0.105	1138503	keystroke_b	b	n/a
569.4915	0.1055	1138983	keystroke_a	a	n/a
569.657	0.12	1139314	keystroke_t	t	n/a
569.927	0.105	1139854	keystroke_Key.space	Key.space	n/a
570.227	0.09	1140454	keystroke_m	m	n/a
570.4215	0.1655	1140843	keystroke_e	e	n/a
572.267	0.1045	1144534	keystroke_Key.backspace	Key.backspace	n/a
572.5515	0.075	1145103	keystroke_Key.backspace	Key.backspace	n/a
572.7465	0.105	1145493	keystroke_Key.backspace	Key.backspace	n/a
573.0765	0.1345	1146153	keystroke_e	e	n/a
573.406	0.12	1146812	keystroke_Key.space	Key.space	n/a
574.0805	0.1355	1148161	keystroke_m	m	n/a
574.3955	0.15	1148791	keystroke_e	e	n/a
574.981	0.09	1149962	keystroke_d	d	n/a
575.3705	0.09	1150741	keystroke_i	i	n/a
575.671	0.1195	1151342	keystroke_c	c	n/a
575.8805	0.15	1151761	keystroke_a	a	n/a
576.0605	0.105	1152121	keystroke_t	t	n/a
576.2255	0.12	1152451	keystroke_i	i	n/a
576.4205	0.135	1152841	keystroke_o	o	n/a
576.6155	0.1645	1153231	keystroke_n	n	n/a
576.795	0.135	1153590	keystroke_s	s	n/a
577.05	0.09	1154100	keystroke_Key.space	Key.space	n/a
577.695	0.075	1155390	keystroke_h	h	n/a
577.905	0.09	1155810	keystroke_i	i	n/a
578.085	0.12	1156170	keystroke_r	r	n/a
578.28	0.105	1156560	keystroke_e	e	n/a
578.3995	0.105	1156799	keystroke_Key.space	Key.space	n/a
578.6095	0.1805	1157219	keystroke_s	s	n/a
578.865	0.12	1157730	keystroke_t	t	n/a
579.12	0.105	1158240	keystroke_a	a	n/a
579.24	0.1045	1158480	keystroke_n	n	n/a
579.4645	0.105	1158929	keystroke_f	f	n/a
579.6295	0.12	1159259	keystroke_o	o	n/a
579.7645	0.1195	1159529	keystroke_r	r	n/a
580.1695	0.12	1160339	keystroke_d	d	n/a
580.439	0.135	1160878	keystroke_Key.enter	Key.enter	n/a
580.5785	18.0805	1161157	prompt	n/a	taiwan generates kennedy explanation\n
581.444	0.089	1162888	keystroke_t	t	n/a
582.3585	0.12	1164717	keystroke_a	a	n/a
582.6435	0.09	1165287	keystroke_i	i	n/a
582.868	0.12	1165736	keystroke_w	w	n/a
583.1375	0.075	1166275	keystroke_a	a	n/a
583.6925	0.105	1167385	keystroke_n	n	n/a
584.0525	0.09	1168105	keystroke_Key.space	Key.space	n/a
584.668	0.09	1169336	keystroke_g	g	n/a
584.9375	0.1495	1169875	keystroke_e	e	n/a
585.102	0.105	1170204	keystroke_n	n	n/a
585.507	0.18	1171014	keystroke_e	e	n/a
585.612	0.15	1171224	keystroke_r	r	n/a
585.9125	0.09	1171825	keystroke_a	a	n/a
586.092	0.105	1172184	keystroke_t	t	n/a
586.3465	0.12	1172693	keystroke_e	e	n/a
586.6165	0.075	1173233	keystroke_s	s	n/a
586.7215	0.105	1173443	keystroke_Key.space	Key.space	n/a
587.111	0.09	1174222	keystroke_k	k	n/a
587.396	0.15	1174792	keystroke_e	e	n/a
587.636	0.09	1175272	keystroke_n	n	n/a
587.816	0.075	1175632	keystroke_n	n	n/a
588.056	0.0455	1176112	keystroke_e	e	n/a
588.1915	0.09	1176383	keystroke_e	e	n/a
589.241	0.09	1178482	keystroke_Key.backspace	Key.backspace	n/a
589.6465	0.12	1179293	keystroke_d	d	n/a
589.9465	0.165	1179893	keystroke_y	y	n/a
590.261	0.105	1180522	keystroke_Key.space	Key.space	n/a
591.2205	0.165	1182441	keystroke_s	s	n/a
592.36	0.075	1184720	keystroke_Key.backspace	Key.backspace	n/a
592.585	0.045	1185170	keystroke_Key.backspace	Key.backspace	n/a
593.3945	0.105	1186789	keystroke_Key.space	Key.space	n/a
595.419	0.1195	1190838	keystroke_e	e	n/a
595.898	0.1355	1191796	keystroke_x	x	n/a
596.1835	0.105	1192367	keystroke_p	p	n/a
596.468	0.105	1192936	keystroke_l	l	n/a
596.633	0.105	1193266	keystroke_a	a	n/a
597.263	0.09	1194526	keystroke_n	n	n/a
597.578	0.1055	1195156	keystroke_a	a	n/a
597.757	0.091	1195514	keystroke_t	t	n/a
597.863	0.105	1195726	keystroke_i	i	n/a
598.073	0.1045	1196146	keystroke_o	o	n/a
598.2375	0.105	1196475	keystroke_n	n	n/a
598.5375	0.12	1197075	keystroke_Key.enter	Key.enter	n/a
598.662	12.7135	1197324	prompt	n/a	ultram appreciated descending recreation\n
599.4675	0.09	1198935	keystroke_u	u	n/a
600.037	0.105	1200074	keystroke_l	l	n/a
600.232	0.1055	1200464	keystroke_t	t	n/a
600.622	0.1195	1201244	keystroke_r	r	n/a
600.8765	0.12	1201753	keystroke_a	a	n/a
601.0565	0.12	1202113	keystroke_m	m	n/a
601.2815	0.105	1202563	keystroke_Key.space	Key.space	n/a
601.6415	0.1055	1203283	keystroke_a	a	n/a
601.9415	0.105	1203883	keystroke_p	p	n/a
602.1215	0.1055	1204243	keystroke_p	p	n/a
602.4665	0.135	1204933	keystroke_r	r	n/a
602.872	0.135	1205744	keystroke_e	e	n/a
603.501	0.12	1207002	keystroke_c	c	n/a
603.771	0.075	1207542	keystroke_i	i	n/a
603.966	0.135	1207932	keystroke_a	a	n/a
604.146	0.09	1208292	keystroke_t	t	n/a
604.386	0.135	1208772	keystroke_e	e	n/a
604.6555	0.1045	1209311	keystroke_d	d	n/a
604.82	0.121	1209640	keystroke_Key.space	Key.space	n/a
605.195	0.106	1210390	keystroke_d	d	n/a
605.481	0.165	1210962	keystroke_e	e	n/a
605.916	0.12	1211832	keystroke_c	c	n/a
606.1255	0.12	1212251	keystroke_e	e	n/a
606.2755	0.12	1212551	keystroke_n	n	n/a
606.6055	0.1195	1213211	keystroke_d	d	n/a
606.74	0.105	1213480	keystroke_i	i	n/a
606.92	0.12	1213840	keystroke_n	n	n/a
607.07	0.091	1214140	keystroke_g	g	n/a
607.19	0.105	1214380	keystroke_Key.space	Key.space	n/a
607.505	0.15	1215010	keystroke_r	r	n/a
607.76	0.1495	1215520	keystroke_e	e	n/a
608.0895	0.1495	1216179	keystroke_c	c	n/a
609.5295	0.105	1219059	keystroke_r	r	n/a
609.979	0.12	1219958	keystroke_e	e	n/a
610.204	0.1345	1220408	keystroke_a	a	n/a
610.3235	0.1355	1220647	keystroke_t	t	n/a
610.534	0.12	1221068	keystroke_i	i	n/a
610.729	0.12	1221458	keystroke_o	o	n/a
610.9095	0.12	1221819	keystroke_n	n	n/a
611.2245	0.15	1222449	keystroke_Key.enter	Key.enter	n/a
611.3785	19.2815	1222757	prompt	n/a	designated sandwich postage prix\n
612.364	0.105	1224728	keystroke_d	d	n/a
612.754	0.1345	1225508	keystroke_e	e	n/a
613.308	0.135	1226616	keystroke_s	s	n/a
613.6985	0.105	1227397	keystroke_i	i	n/a
613.9685	0.105	1227937	keystroke_g	g	n/a
614.253	0.09	1228506	keystroke_n	n	n/a
614.568	0.165	1229136	keystroke_a	a	n/a
614.748	0.135	1229496	keystroke_t	t	n/a
614.9875	0.1345	1229975	keystroke_e	e	n/a
615.242	0.0895	1230484	keystroke_d	d	n/a
615.4825	0.075	1230965	keystroke_Key.space	Key.space	n/a
615.782	0.1505	1231564	keystroke_s	s	n/a
616.0375	0.1345	1232075	keystroke_a	a	n/a
616.187	0.12	1232374	keystroke_n	n	n/a
616.922	0.12	1233844	keystroke_d	d	n/a
617.207	0.12	1234414	keystroke_w	w	n/a
617.357	0.1045	1234714	keystroke_i	i	n/a
618.3615	0.1195	1236723	keystroke_c	c	n/a
618.496	0.1205	1236992	keystroke_h	h	n/a
618.8115	0.105	1237623	keystroke_Key.space	Key.space	n/a
619.351	0.03	1238702	keystroke_k	k	n/a
619.4865	0.12	1238973	keystroke_p	p	n/a
619.741	0.12	1239482	keystroke_o	o	n/a
619.9055	0.151	1239811	keystroke_s	s	n/a
620.161	0.1205	1240322	keystroke_t	t	n/a
620.416	0.135	1240832	keystroke_a	a	n/a
620.6855	0.1055	1241371	keystroke_g	g	n/a
620.941	0.105	1241882	keystroke_e	e	n/a
621.121	0.12	1242242	keystroke_Key.space	Key.space	n/a
621.4055	0.1505	1242811	keystroke_p	p	n/a
621.586	0.135	1243172	keystroke_r	r	n/a
621.841	0.03	1243682	keystroke_i	i	n/a
622.92	0.06	1245840	keystroke_Key.backspace	Key.backspace	n/a
623.1	0.075	1246200	keystroke_Key.backspace	Key.backspace	n/a
623.3255	0.09	1246651	keystroke_=	=	n/a
624.1055	0.075	1248211	keystroke_Key.backspace	Key.backspace	n/a
624.3145	0.045	1248629	keystroke_Key.backspace	Key.backspace	n/a
624.4955	0.059	1248991	keystroke_Key.backspace	Key.backspace	n/a
624.675	0.06	1249350	keystroke_Key.backspace	Key.backspace	n/a
624.8545	0.075	1249709	keystroke_Key.backspace	Key.backspace	n/a
625.0345	0.09	1250069	keystroke_Key.backspace	Key.backspace	n/a
625.2145	0.09	1250429	keystroke_Key.backspace	Key.backspace	n/a
625.3945	0.075	1250789	keystroke_Key.backspace	Key.backspace	n/a
625.5745	0.09	1251149	keystroke_Key.backspace	Key.backspace	n/a
625.7995	0.0895	1251599	keystroke_Key.backspace	Key.backspace	n/a
626.039	0.03	1252078	keystroke_Key.backspace	Key.backspace	n/a
627.029	0.1195	1254058	keystroke_p	p	n/a
627.2995	0.089	1254599	keystroke_o	o	n/a
627.5395	0.119	1255079	keystroke_s	s	n/a
627.764	0.135	1255528	keystroke_t	t	n/a
628.019	0.1345	1256038	keystroke_a	a	n/a
628.2285	0.1055	1256457	keystroke_g	g	n/a
628.4685	0.105	1256937	keystroke_e	e	n/a
628.648	0.12	1257296	keystroke_Key.space	Key.space	n/a
628.978	0.12	1257956	keystroke_p	p	n/a
629.143	0.135	1258286	keystroke_r	r	n/a
629.323	0.075	1258646	keystroke_i	i	n/a
630.2235	0.1195	1260447	keystroke_x	x	n/a
630.538	0.12	1261076	keystroke_Key.enter	Key.enter	n/a
630.663	20.497	1261326	prompt	n/a	interesting disappointed munich municipality\n
631.7085	0.06	1263417	keystroke_i	i	n/a
631.8885	0.105	1263777	keystroke_n	n	n/a
632.0235	0.105	1264047	keystroke_t	t	n/a
632.2185	0.1645	1264437	keystroke_e	e	n/a
632.323	0.12	1264646	keystroke_r	r	n/a
632.593	0.1345	1265186	keystroke_r	r	n/a
633.882	0.105	1267764	keystroke_Key.backspace	Key.backspace	n/a
634.392	0.1345	1268784	keystroke_e	e	n/a
634.6015	0.1505	1269203	keystroke_s	s	n/a
634.827	0.1345	1269654	keystroke_t	t	n/a
635.0365	0.105	1270073	keystroke_i	i	n/a
635.2015	0.12	1270403	keystroke_n	n	n/a
635.3515	0.09	1270703	keystroke_g	g	n/a
635.6515	0.105	1271303	keystroke_Key.space	Key.space	n/a
636.0265	0.0895	1272053	keystroke_d	d	n/a
636.176	0.09	1272352	keystroke_i	i	n/a
636.311	0.18	1272622	keystroke_s	s	n/a
636.641	0.12	1273282	keystroke_p	p	n/a
637.586	0.075	1275172	keystroke_Key.backspace	Key.backspace	n/a
639.281	0.1055	1278562	keystroke_a	a	n/a
639.5065	0.0895	1279013	keystroke_p	p	n/a
639.686	0.1055	1279372	keystroke_p	p	n/a
640.4355	0.09	1280871	keystroke_o	o	n/a
640.8705	0.0745	1281741	keystroke_i	i	n/a
641.05	0.105	1282100	keystroke_n	n	n/a
641.3205	0.105	1282641	keystroke_t	t	n/a
641.5455	0.12	1283091	keystroke_e	e	n/a
641.8	0.09	1283600	keystroke_d	d	n/a
642.0545	0.105	1284109	keystroke_Key.space	Key.space	n/a
642.6105	0.1045	1285221	keystroke_m	m	n/a
642.835	0.09	1285670	keystroke_u	u	n/a
643.09	0.12	1286180	keystroke_c	c	n/a
643.495	0.075	1286990	keystroke_i	i	n/a
643.75	0.105	1287500	keystroke_c	c	n/a
643.9	0.105	1287800	keystroke_h	h	n/a
644.1245	0.09	1288249	keystroke_Key.space	Key.space	n/a
644.4545	0.075	1288909	keystroke_m	m	n/a
645.6695	0.105	1291339	keystroke_u	u	n/a
647.588	0.076	1295176	keystroke_n	n	n/a
647.8585	0.06	1295717	keystroke_i	i	n/a
648.129	0.12	1296258	keystroke_c	c	n/a
648.369	0.06	1296738	keystroke_i	i	n/a
648.6985	0.09	1297397	keystroke_p	p	n/a
648.9685	0.12	1297937	keystroke_a	a	n/a
650.139	0.075	1300278	keystroke_l	l	n/a
650.409	0.075	1300818	keystroke_i	i	n/a
650.574	0.105	1301148	keystroke_t	t	n/a
650.6935	0.09	1301387	keystroke_y	y	n/a
651.053	0.105	1302106	keystroke_Key.enter	Key.enter	n/a
651.163	15.1145	1302326	prompt	n/a	positions stylus composition request\n
651.833	0.105	1303666	keystroke_p	p	n/a
652.103	0.15	1304206	keystroke_o	o	n/a
652.463	0.12	1304926	keystroke_s	s	n/a
653.738	0.045	1307476	keystroke_i	i	n/a
653.8885	0.12	1307777	keystroke_t	t	n/a
654.0685	0.119	1308137	keystroke_o	o	n/a
654.3075	0.075	1308615	keystroke_n	n	n/a
654.4725	0.105	1308945	keystroke_s	s	n/a
654.6375	0.09	1309275	keystroke_Key.space	Key.space	n/a
654.938	0.105	1309876	keystroke_s	s	n/a
655.433	0.09	1310866	keystroke_t	t	n/a
655.838	0.105	1311676	keystroke_y	y	n/a
656.213	0.09	1312426	keystroke_l	l	n/a
656.9625	0.075	1313925	keystroke_u	u	n/a
657.172	0.12	1314344	keystroke_s	s	n/a
657.3525	0.12	1314705	keystroke_Key.space	Key.space	n/a
657.9375	0.105	1315875	keystroke_c	c	n/a
658.1325	0.09	1316265	keystroke_o	o	n/a
658.3575	0.09	1316715	keystroke_m	m	n/a
658.658	0.1195	1317316	keystroke_p	p	n/a
658.9275	0.089	1317855	keystroke_o	o	n/a
659.1525	0.105	1318305	keystroke_s	s	n/a
659.7665	0.06	1319533	keystroke_i	i	n/a
659.9925	0.104	1319985	keystroke_t	t	n/a
660.1875	0.089	1320375	keystroke_o	o	n/a
661.462	0.0595	1322924	keystroke_Key.backspace	Key.backspace	n/a
662.8115	0.075	1325623	keystroke_i	i	n/a
663.081	0.09	1326162	keystroke_o	o	n/a
663.276	0.09	1326552	keystroke_n	n	n/a
663.5165	0.09	1327033	keystroke_Key.space	Key.space	n/a
663.756	0.15	1327512	keystroke_r	r	n/a
664.401	0.1505	1328802	keystroke_e	e	n/a
664.6865	0.119	1329373	keystroke_q	q	n/a
664.8065	0.105	1329613	keystroke_u	u	n/a
665.421	0.165	1330842	keystroke_e	e	n/a
665.661	0.1495	1331322	keystroke_s	s	n/a
665.9155	0.1055	1331831	keystroke_t	t	n/a
666.171	0.105	1332342	keystroke_Key.enter	Key.enter	n/a
666.2805	12.175	1332561	prompt	n/a	spirit bolivia disabled calm\n
667.0705	0.105	1334141	keystroke_s	s	n/a
667.2805	0.0905	1334561	keystroke_p	p	n/a
667.536	0.075	1335072	keystroke_i	i	n/a
667.746	0.135	1335492	keystroke_r	r	n/a
667.986	0.104	1335972	keystroke_t	t	n/a
668.18	0.1055	1336360	keystroke_Key.space	Key.space	n/a
668.4805	0.135	1336961	keystroke_b	b	n/a
668.7655	0.12	1337531	keystroke_o	o	n/a
669.275	0.075	1338550	keystroke_l	l	n/a
669.5155	0.045	1339031	keystroke_i	i	n/a
669.695	0.105	1339390	keystroke_v	v	n/a
669.9945	0.061	1339989	keystroke_i	i	n/a
670.49	0.105	1340980	keystroke_a	a	n/a
670.6995	0.105	1341399	keystroke_Key.space	Key.space	n/a
671.4795	0.0905	1342959	keystroke_d	d	n/a
672.59	0.06	1345180	keystroke_i	i	n/a
672.7995	0.12	1345599	keystroke_s	s	n/a
673.0995	0.165	1346199	keystroke_a	a	n/a
673.3845	0.105	1346769	keystroke_b	b	n/a
673.5945	0.105	1347189	keystroke_l	l	n/a
673.7445	0.12	1347489	keystroke_e	e	n/a
674.03	0.09	1348060	keystroke_d	d	n/a
674.254	0.105	1348508	keystroke_Key.space	Key.space	n/a
674.72	0.12	1349440	keystroke_c	c	n/a
674.93	0.075	1349860	keystroke_l	l	n/a
675.9795	0.06	1351959	keystroke_Key.backspace	Key.backspace	n/a
676.3545	0.105	1352709	keystroke_a	a	n/a
676.5345	0.105	1353069	keystroke_l	l	n/a
677.434	0.075	1354868	keystroke_m	m	n/a
678.3635	0.09	1356727	keystroke_Key.enter	Key.enter	n/a
678.4585	12.4895	1356917	prompt	n/a	dentists schemes search looksmart\n
679.4285	0.105	1358857	keystroke_d	d	n/a
679.6835	0.105	1359367	keystroke_e	e	n/a
679.8635	0.09	1359727	keystroke_n	n	n/a
680.4035	0.105	1360807	keystroke_t	t	n/a
680.5985	0.075	1361197	keystroke_i	i	n/a
680.9275	0.105	1361855	keystroke_s	s	n/a
681.153	0.105	1362306	keystroke_t	t	n/a
681.558	0.09	1363116	keystroke_s	s	n/a
681.798	0.105	1363596	keystroke_Key.space	Key.space	n/a
682.2625	0.1055	1364525	keystroke_s	s	n/a
682.533	0.15	1365066	keystroke_c	c	n/a
682.818	0.09	1365636	keystroke_h	h	n/a
683.313	0.135	1366626	keystroke_e	e	n/a
683.508	0.1045	1367016	keystroke_m	m	n/a
683.7325	0.105	1367465	keystroke_e	e	n/a
683.973	0.15	1367946	keystroke_s	s	n/a
684.168	0.0895	1368336	keystroke_Key.space	Key.space	n/a
684.4075	0.15	1368815	keystroke_s	s	n/a
684.678	0.12	1369356	keystroke_e	e	n/a
685.3075	0.15	1370615	keystroke_a	a	n/a
685.4725	0.135	1370945	keystroke_r	r	n/a
685.8475	0.12	1371695	keystroke_c	c	n/a
686.3725	0.0755	1372745	keystroke_h	h	n/a
686.6275	0.105	1373255	keystroke_Key.space	Key.space	n/a
687.0325	0.075	1374065	keystroke_l	l	n/a
687.333	0.105	1374666	keystroke_o	o	n/a
687.5425	0.09	1375085	keystroke_o	o	n/a
688.2925	0.06	1376585	keystroke_k	k	n/a
688.517	0.1205	1377034	keystroke_s	s	n/a
689.0575	0.1345	1378115	keystroke_s	s	n/a
689.267	0.105	1378534	keystroke_m	m	n/a
689.6265	0.165	1379253	keystroke_a	a	n/a
689.8075	0.149	1379615	keystroke_r	r	n/a
690.061	0.076	1380122	keystroke_t	t	n/a
690.8565	0.09	1381713	keystroke_Key.enter	Key.enter	n/a
690.951	10.871	1381902	prompt	n/a	drives gazette pros verify\n
691.8615	0.105	1383723	keystroke_d	d	n/a
692.1165	0.075	1384233	keystroke_i	i	n/a
692.8515	0.09	1385703	keystroke_r	r	n/a
693.811	0.09	1387622	keystroke_Key.backspace	Key.backspace	n/a
694.216	0.075	1388432	keystroke_Key.backspace	Key.backspace	n/a
694.7115	0.105	1389423	keystroke_r	r	n/a
694.9365	0.075	1389873	keystroke_i	i	n/a
695.2065	0.0895	1390413	keystroke_v	v	n/a
695.446	0.12	1390892	keystroke_e	e	n/a
695.611	0.12	1391222	keystroke_s	s	n/a
695.761	0.1045	1391522	keystroke_Key.space	Key.space	n/a
696.0605	0.12	1392121	keystroke_g	g	n/a
696.3455	0.135	1392691	keystroke_a	a	n/a
696.751	0.105	1393502	keystroke_z	z	n/a
697.081	0.12	1394162	keystroke_e	e	n/a
697.336	0.075	1394672	keystroke_t	t	n/a
697.4855	0.09	1394971	keystroke_t	t	n/a
697.7405	0.105	1395481	keystroke_e	e	n/a
697.9805	0.075	1395961	keystroke_Key.space	Key.space	n/a
698.251	0.105	1396502	keystroke_p	p	n/a
698.416	0.1195	1396832	keystroke_r	r	n/a
698.5955	0.105	1397191	keystroke_o	o	n/a
698.8655	0.105	1397731	keystroke_s	s	n/a
699.1055	0.09	1398211	keystroke_Key.space	Key.space	n/a
699.4505	0.105	1398901	keystroke_v	v	n/a
699.9605	0.09	1399921	keystroke_e	e	n/a
700.59	0.105	1401180	keystroke_r	r	n/a
700.86	0.06	1401720	keystroke_i	i	n/a
701.19	0.075	1402380	keystroke_f	f	n/a
701.37	0.09	1402740	keystroke_y	y	n/a
701.73	0.09	1403460	keystroke_Key.enter	Key.enter	n/a
701.827	14.318	1403654	prompt	n/a	university importantly caroline venture\n
702.585	0.0755	1405170	keystroke_u	u	n/a
702.9755	0.09	1405951	keystroke_n	n	n/a
704.0095	0.06	1408019	keystroke_i	i	n/a
704.2945	0.105	1408589	keystroke_v	v	n/a
704.5945	0.1205	1409189	keystroke_e	e	n/a
704.895	0.135	1409790	keystroke_r	r	n/a
705.4345	0.12	1410869	keystroke_s	s	n/a
705.5845	0.0745	1411169	keystroke_i	i	n/a
705.764	0.12	1411528	keystroke_t	t	n/a
705.899	0.105	1411798	keystroke_y	y	n/a
706.109	0.1205	1412218	keystroke_Key.space	Key.space	n/a
706.6945	0.0905	1413389	keystroke_i	i	n/a
706.935	0.09	1413870	keystroke_m	m	n/a
707.3395	0.09	1414679	keystroke_p	p	n/a
707.6245	0.09	1415249	keystroke_o	o	n/a
707.8345	0.12	1415669	keystroke_r	r	n/a
708.089	0.09	1416178	keystroke_t	t	n/a
708.854	0.105	1417708	keystroke_a	a	n/a
708.974	0.09	1417948	keystroke_n	n	n/a
709.4995	0.09	1418999	keystroke_t	t	n/a
709.7095	0.09	1419419	keystroke_l	l	n/a
709.9495	0.089	1419899	keystroke_y	y	n/a
710.2045	0.1045	1420409	keystroke_Key.space	Key.space	n/a
710.6985	0.09	1421397	keystroke_c	c	n/a
710.9085	0.18	1421817	keystroke_a	a	n/a
711.1485	0.12	1422297	keystroke_r	r	n/a
711.5535	0.09	1423107	keystroke_o	o	n/a
711.7785	0.09	1423557	keystroke_l	l	n/a
711.9885	0.06	1423977	keystroke_i	i	n/a
712.139	0.075	1424278	keystroke_n	n	n/a
712.334	0.105	1424668	keystroke_e	e	n/a
712.484	0.105	1424968	keystroke_Key.space	Key.space	n/a
712.919	0.105	1425838	keystroke_v	v	n/a
714.3435	0.15	1428687	keystroke_e	e	n/a
714.5085	0.075	1429017	keystroke_n	n	n/a
715.019	0.0895	1430038	keystroke_t	t	n/a
715.2285	0.0905	1430457	keystroke_u	u	n/a
715.4235	0.135	1430847	keystroke_r	r	n/a
715.6935	0.12	1431387	keystroke_e	e	n/a
716.0685	0.075	1432137	keystroke_Key.enter	Key.enter	n/a
716.148	13.855	1432296	prompt	n/a	inquire myself modern primarily\n
716.9235	0.075	1433847	keystroke_i	i	n/a
717.748	0.075	1435496	keystroke_n	n	n/a
718.093	0.135	1436186	keystroke_q	q	n/a
718.243	0.09	1436486	keystroke_u	u	n/a
718.903	0.075	1437806	keystroke_i	i	n/a
719.113	0.1645	1438226	keystroke_r	r	n/a
719.4575	0.105	1438915	keystroke_e	e	n/a
719.6525	0.105	1439305	keystroke_Key.space	Key.space	n/a
720.0125	0.09	1440025	keystroke_m	m	n/a
720.2525	0.1355	1440505	keystroke_e	e	n/a
720.508	0.075	1441016	keystroke_y	y	n/a
720.852	0.12	1441704	keystroke_s	s	n/a
721.212	0.09	1442424	keystroke_e	e	n/a
721.422	0.075	1442844	keystroke_l	l	n/a
721.647	0.075	1443294	keystroke_f	f	n/a
722.202	0.105	1444404	keystroke_Key.space	Key.space	n/a
722.6215	0.09	1445243	keystroke_m	m	n/a
722.877	0.105	1445754	keystroke_o	o	n/a
723.1475	0.1045	1446295	keystroke_d	d	n/a
723.4325	0.2245	1446865	keystroke_e	e	n/a
723.5825	0.0895	1447165	keystroke_r	r	n/a
724.9465	0.075	1449893	keystroke_n	n	n/a
725.577	0.09	1451154	keystroke_Key.space	Key.space	n/a
725.9965	0.12	1451993	keystroke_p	p	n/a
726.1915	0.12	1452383	keystroke_r	r	n/a
726.4015	0.06	1452803	keystroke_i	i	n/a
726.8215	0.075	1453643	keystroke_m	m	n/a
727.1365	0.105	1454273	keystroke_a	a	n/a
727.8865	0.09	1455773	keystroke_r	r	n/a
728.1565	0.075	1456313	keystroke_i	i	n/a
729.281	0.09	1458562	keystroke_l	l	n/a
729.536	0.09	1459072	keystroke_y	y	n/a
729.911	0.09	1459822	keystroke_Key.enter	Key.enter	n/a
730.006	25.9285	1460012	prompt	n/a	actress vancouver athletic gets\n
730.8115	0.15	1461623	keystroke_a	a	n/a
731.0815	0.105	1462163	keystroke_c	c	n/a
731.366	0.09	1462732	keystroke_t	t	n/a
731.741	0.12	1463482	keystroke_r	r	n/a
731.981	0.12	1463962	keystroke_e	e	n/a
732.252	0.104	1464504	keystroke_s	s	n/a
732.491	0.105	1464982	keystroke_s	s	n/a
732.746	0.105	1465492	keystroke_Key.space	Key.space	n/a
733.4215	0.12	1466843	keystroke_a	a	n/a
733.6165	0.09	1467233	keystroke_n	n	n/a
733.946	0.12	1467892	keystroke_c	c	n/a
734.231	0.0895	1468462	keystroke_o	o	n/a
734.546	0.09	1469092	keystroke_u	u	n/a
735.356	0.075	1470712	keystroke_v	v	n/a
735.641	0.18	1471282	keystroke_e	e	n/a
735.776	0.1205	1471552	keystroke_r	r	n/a
735.9705	0.09	1471941	keystroke_Key.space	Key.space	n/a
736.2255	0.12	1472451	keystroke_a	a	n/a
737.875	0.075	1475750	keystroke_Key.backspace	Key.backspace	n/a
738.1305	0.03	1476261	keystroke_Key.backspace	Key.backspace	n/a
738.2955	0.09	1476591	keystroke_Key.backspace	Key.backspace	n/a
738.5055	0.075	1477011	keystroke_Key.backspace	Key.backspace	n/a
738.7005	0.075	1477401	keystroke_Key.backspace	Key.backspace	n/a
738.91	0.075	1477820	keystroke_Key.backspace	Key.backspace	n/a
739.105	0.0745	1478210	keystroke_Key.backspace	Key.backspace	n/a
739.3005	0.0895	1478601	keystroke_Key.backspace	Key.backspace	n/a
739.51	0.075	1479020	keystroke_Key.backspace	Key.backspace	n/a
739.7345	0.03	1479469	keystroke_Key.backspace	Key.backspace	n/a
740.1545	0.015	1480309	keystroke_k	k	n/a
740.6505	0.105	1481301	keystroke_v	v	n/a
740.905	0.1345	1481810	keystroke_a	a	n/a
741.145	0.105	1482290	keystroke_n	n	n/a
741.7455	0.09	1483491	keystroke_c	c	n/a
742.4195	0.075	1484839	keystroke_o	o	n/a
742.7205	0.089	1485441	keystroke_u	u	n/a
743.4245	0.0905	1486849	keystroke_v	v	n/a
744.3095	0.09	1488619	keystroke_Key.backspace	Key.backspace	n/a
744.5645	0.0605	1489129	keystroke_Key.backspace	Key.backspace	n/a
744.76	0.0745	1489520	keystroke_Key.backspace	Key.backspace	n/a
744.9545	0.105	1489909	keystroke_Key.backspace	Key.backspace	n/a
745.1795	0.075	1490359	keystroke_Key.backspace	Key.backspace	n/a
745.3805	0.069	1490761	keystroke_Key.backspace	Key.backspace	n/a
745.5845	0.0755	1491169	keystroke_Key.backspace	Key.backspace	n/a
746.0045	0.09	1492009	keystroke_Key.backspace	Key.backspace	n/a
747.13	0.09	1494260	keystroke_v	v	n/a
748.0145	0.1345	1496029	keystroke_a	a	n/a
748.1645	0.1195	1496329	keystroke_n	n	n/a
748.7345	0.09	1497469	keystroke_c	c	n/a
749.1545	0.09	1498309	keystroke_o	o	n/a
749.3495	0.105	1498699	keystroke_u	u	n/a
750.444	0.075	1500888	keystroke_v	v	n/a
750.6845	0.18	1501369	keystroke_e	e	n/a
750.8185	0.121	1501637	keystroke_r	r	n/a
751.0285	0.091	1502057	keystroke_Key.space	Key.space	n/a
751.4495	0.1045	1502899	keystroke_a	a	n/a
751.7185	0.12	1503437	keystroke_t	t	n/a
752.2135	0.09	1504427	keystroke_h	h	n/a
752.6635	0.06	1505327	keystroke_l	l	n/a
752.8885	0.105	1505777	keystroke_e	e	n/a
753.158	0.105	1506316	keystroke_t	t	n/a
753.324	0.075	1506648	keystroke_i	i	n/a
753.549	0.09	1507098	keystroke_c	c	n/a
754.208	0.09	1508416	keystroke_Key.space	Key.space	n/a
754.613	0.0905	1509226	keystroke_g	g	n/a
754.8225	0.12	1509645	keystroke_e	e	n/a
755.0325	0.09	1510065	keystroke_t	t	n/a
755.3175	0.135	1510635	keystroke_s	s	n/a
755.8275	0.105	1511655	keystroke_Key.enter	Key.enter	n/a
755.9375	12.7005	1511875	prompt	n/a	rock decimal tremendous salmon\n
756.7125	0.106	1513425	keystroke_r	r	n/a
756.8925	0.12	1513785	keystroke_o	o	n/a
757.103	0.105	1514206	keystroke_c	c	n/a
757.298	0.09	1514596	keystroke_k	k	n/a
757.538	0.1045	1515076	keystroke_Key.space	Key.space	n/a
758.0625	0.09	1516125	keystroke_d	d	n/a
758.3325	0.12	1516665	keystroke_e	e	n/a
758.7825	0.105	1517565	keystroke_c	c	n/a
758.9925	0.075	1517985	keystroke_i	i	n/a
759.217	0.0905	1518434	keystroke_m	m	n/a
759.7575	0.1055	1519515	keystroke_a	a	n/a
759.983	0.105	1519966	keystroke_l	l	n/a
760.208	0.09	1520416	keystroke_Key.space	Key.space	n/a
760.478	0.104	1520956	keystroke_t	t	n/a
761.017	0.09	1522034	keystroke_r	r	n/a
762.1425	0.105	1524285	keystroke_e	e	n/a
762.4275	0.09	1524855	keystroke_m	m	n/a
762.907	0.105	1525814	keystroke_e	e	n/a
763.057	0.09	1526114	keystroke_n	n	n/a
763.477	0.09	1526954	keystroke_d	d	n/a
763.657	0.12	1527314	keystroke_o	o	n/a
763.822	0.1055	1527644	keystroke_u	u	n/a
764.0325	0.12	1528065	keystroke_s	s	n/a
764.3025	0.1195	1528605	keystroke_Key.space	Key.space	n/a
764.752	0.135	1529504	keystroke_s	s	n/a
765.097	0.15	1530194	keystroke_a	a	n/a
765.907	0.075	1531814	keystroke_l	l	n/a
766.237	0.135	1532474	keystroke_o	o	n/a
767.212	0.075	1534424	keystroke_Key.backspace	Key.backspace	n/a
767.797	0.105	1535594	keystroke_m	m	n/a
767.977	0.105	1535954	keystroke_o	o	n/a
768.157	0.12	1536314	keystroke_n	n	n/a
768.532	0.1045	1537064	keystroke_Key.enter	Key.enter	n/a
768.641	13.7965	1537282	prompt	n/a	friendship participating emacs threaded\n
769.8065	0.015	1539613	keystroke_f	f	n/a
769.9415	0.1055	1539883	keystroke_r	r	n/a
770.182	0.0745	1540364	keystroke_i	i	n/a
770.4065	0.165	1540813	keystroke_e	e	n/a
770.6475	0.1045	1541295	keystroke_n	n	n/a
772.132	0.105	1544264	keystroke_d	d	n/a
772.492	0.135	1544984	keystroke_s	s	n/a
772.687	0.135	1545374	keystroke_h	h	n/a
772.912	0.135	1545824	keystroke_i	i	n/a
773.197	0.135	1546394	keystroke_p	p	n/a
773.452	0.0595	1546904	keystroke_Key.space	Key.space	n/a
773.737	0.1195	1547474	keystroke_p	p	n/a
773.9615	0.15	1547923	keystroke_a	a	n/a
774.1565	0.18	1548313	keystroke_r	r	n/a
774.3815	0.105	1548763	keystroke_t	t	n/a
774.636	0.076	1549272	keystroke_i	i	n/a
774.9365	0.105	1549873	keystroke_c	c	n/a
775.2365	0.09	1550473	keystroke_i	i	n/a
775.7615	0.09	1551523	keystroke_p	p	n/a
776.0015	0.105	1552003	keystroke_a	a	n/a
776.1815	0.1495	1552363	keystroke_t	t	n/a
776.6915	0.09	1553383	keystroke_i	i	n/a
776.856	0.09	1553712	keystroke_n	n	n/a
777.006	0.09	1554012	keystroke_g	g	n/a
777.156	0.105	1554312	keystroke_Key.space	Key.space	n/a
777.621	0.12	1555242	keystroke_e	e	n/a
777.816	0.12	1555632	keystroke_m	m	n/a
778.1015	0.135	1556203	keystroke_a	a	n/a
778.4165	0.12	1556833	keystroke_c	c	n/a
778.701	0.105	1557402	keystroke_s	s	n/a
778.9115	0.089	1557823	keystroke_Key.space	Key.space	n/a
779.2865	0.12	1558573	keystroke_t	t	n/a
779.5555	0.09	1559111	keystroke_h	h	n/a
780.411	0.12	1560822	keystroke_r	r	n/a
780.6505	0.12	1561301	keystroke_e	e	n/a
780.9505	0.12	1561901	keystroke_a	a	n/a
781.191	0.12	1562382	keystroke_d	d	n/a
781.506	0.12	1563012	keystroke_e	e	n/a
781.7905	0.09	1563581	keystroke_d	d	n/a
782.0455	0.075	1564091	keystroke_Key.space	Key.space	n/a
782.3305	0.105	1564661	keystroke_Key.enter	Key.enter	n/a
782.4405	12.9705	1564881	prompt	n/a	district cars compatibility cycle\n
783.365	0.09	1566730	keystroke_d	d	n/a
783.635	0.06	1567270	keystroke_i	i	n/a
783.83	0.135	1567660	keystroke_s	s	n/a
784.07	0.105	1568140	keystroke_t	t	n/a
784.3855	0.105	1568771	keystroke_r	r	n/a
784.5355	0.075	1569071	keystroke_i	i	n/a
784.82	0.09	1569640	keystroke_c	c	n/a
785.09	0.0745	1570180	keystroke_t	t	n/a
785.33	0.12	1570660	keystroke_Key.space	Key.space	n/a
785.675	0.105	1571350	keystroke_c	c	n/a
785.93	0.15	1571860	keystroke_a	a	n/a
786.0945	0.1055	1572189	keystroke_r	r	n/a
786.4105	0.104	1572821	keystroke_s	s	n/a
786.56	0.105	1573120	keystroke_Key.space	Key.space	n/a
786.8745	0.075	1573749	keystroke_c	c	n/a
786.9945	0.1055	1573989	keystroke_o	o	n/a
787.205	0.104	1574410	keystroke_m	m	n/a
787.73	0.089	1575460	keystroke_p	p	n/a
787.9845	0.09	1575969	keystroke_a	a	n/a
788.254	0.105	1576508	keystroke_t	t	n/a
788.8245	0.0745	1577649	keystroke_i	i	n/a
789.2595	0.0895	1578519	keystroke_b	b	n/a
790.249	0.045	1580498	keystroke_l	l	n/a
791.059	0.06	1582118	keystroke_Key.backspace	Key.backspace	n/a
791.644	0.105	1583288	keystroke_i	i	n/a
792.154	0.075	1584308	keystroke_l	l	n/a
792.694	0.0605	1585388	keystroke_i	i	n/a
792.9495	0.09	1585899	keystroke_t	t	n/a
793.0995	0.075	1586199	keystroke_y	y	n/a
793.3395	0.075	1586679	keystroke_Key.space	Key.space	n/a
793.6095	0.105	1587219	keystroke_c	c	n/a
793.894	0.09	1587788	keystroke_y	y	n/a
794.344	0.1055	1588688	keystroke_c	c	n/a
794.5395	0.135	1589079	keystroke_e	e	n/a
794.749	0.105	1589498	keystroke_l	l	n/a
795.3185	0.09	1590637	keystroke_Key.enter	Key.enter	n/a
795.414	12.6105	1590828	prompt	n/a	theorem clocks childrens making\n
796.519	0.105	1593038	keystroke_t	t	n/a
796.774	0.09	1593548	keystroke_h	h	n/a
797.014	0.135	1594028	keystroke_e	e	n/a
797.419	0.0895	1594838	keystroke_o	o	n/a
797.7035	0.135	1595407	keystroke_r	r	n/a
797.9435	0.1505	1595887	keystroke_e	e	n/a
798.139	0.0905	1596278	keystroke_m	m	n/a
798.394	0.09	1596788	keystroke_Key.space	Key.space	n/a
798.7835	0.075	1597567	keystroke_c	c	n/a
798.9935	0.09	1597987	keystroke_l	l	n/a
799.2785	0.09	1598557	keystroke_o	o	n/a
799.7735	0.09	1599547	keystroke_c	c	n/a
799.9235	0.075	1599847	keystroke_k	k	n/a
800.1935	0.09	1600387	keystroke_s	s	n/a
800.344	0.1195	1600688	keystroke_Key.space	Key.space	n/a
800.6585	0.1195	1601317	keystroke_c	c	n/a
800.8535	0.1055	1601707	keystroke_h	h	n/a
801.3935	0.075	1602787	keystroke_i	i	n/a
801.6485	0.075	1603297	keystroke_l	l	n/a
802.114	0.12	1604228	keystroke_d	d	n/a
802.654	0.12	1605308	keystroke_r	r	n/a
802.894	0.105	1605788	keystroke_e	e	n/a
803.074	0.09	1606148	keystroke_n	n	n/a
803.284	0.104	1606568	keystroke_s	s	n/a
803.493	0.091	1606986	keystroke_Key.space	Key.space	n/a
803.764	0.075	1607528	keystroke_m	m	n/a
804.424	0.119	1608848	keystroke_a	a	n/a
806.508	0.0755	1613016	keystroke_k	k	n/a
806.7335	0.075	1613467	keystroke_i	i	n/a
806.9135	0.075	1613827	keystroke_n	n	n/a
807.0935	0.075	1614187	keystroke_g	g	n/a
807.6185	0.075	1615237	keystroke_Key.space	Key.space	n/a
807.9035	0.12	1615807	keystroke_Key.enter	Key.enter	n/a
808.028	11.7855	1616056	prompt	n/a	nevertheless then certain obituaries\n
808.7425	0.075	1617485	keystroke_n	n	n/a
808.938	0.1345	1617876	keystroke_e	e	n/a
809.373	0.104	1618746	keystroke_v	v	n/a
809.583	0.1795	1619166	keystroke_e	e	n/a
809.688	0.1355	1619376	keystroke_r	r	n/a
809.958	0.119	1619916	keystroke_t	t	n/a
810.1675	0.1055	1620335	keystroke_h	h	n/a
810.5125	0.105	1621025	keystroke_e	e	n/a
811.3825	0.075	1622765	keystroke_l	l	n/a
811.5775	0.12	1623155	keystroke_e	e	n/a
811.817	0.105	1623634	keystroke_s	s	n/a
812.012	0.105	1624024	keystroke_s	s	n/a
812.372	0.105	1624744	keystroke_Key.space	Key.space	n/a
812.9425	0.0755	1625885	keystroke_t	t	n/a
813.063	0.12	1626126	keystroke_h	h	n/a
813.228	0.12	1626456	keystroke_e	e	n/a
813.363	0.12	1626726	keystroke_n	n	n/a
813.618	0.105	1627236	keystroke_Key.space	Key.space	n/a
813.873	0.12	1627746	keystroke_c	c	n/a
814.383	0.1045	1628766	keystroke_e	e	n/a
814.6375	0.105	1629275	keystroke_r	r	n/a
814.8625	0.09	1629725	keystroke_t	t	n/a
815.1475	0.105	1630295	keystroke_a	a	n/a
815.3125	0.09	1630625	keystroke_i	i	n/a
815.5075	0.075	1631015	keystroke_n	n	n/a
815.7175	0.105	1631435	keystroke_Key.space	Key.space	n/a
816.2275	0.09	1632455	keystroke_o	o	n/a
816.7975	0.075	1633595	keystroke_b	b	n/a
817.2325	0.06	1634465	keystroke_i	i	n/a
817.5325	0.1045	1635065	keystroke_t	t	n/a
818.0725	0.075	1636145	keystroke_u	u	n/a
818.4925	0.1495	1636985	keystroke_a	a	n/a
818.657	0.12	1637314	keystroke_r	r	n/a
819.092	0.0605	1638184	keystroke_i	i	n/a
819.2875	0.09	1638575	keystroke_e	e	n/a
819.4825	0.15	1638965	keystroke_s	s	n/a
819.7075	0.105	1639415	keystroke_Key.enter	Key.enter	n/a
819.8165	19.512	1639633	prompt	n/a	mustn't offered mortality mars\n
822.0945	0.013	1644189	keystroke_m	m	n/a
822.2575	0.09	1644515	keystroke_u	u	n/a
822.4525	0.105	1644905	keystroke_s	s	n/a
822.6615	0.121	1645323	keystroke_t	t	n/a
823.5325	0.075	1647065	keystroke_n	n	n/a
823.8475	0.1195	1647695	keystroke_'	'	n/a
824.312	0.075	1648624	keystroke_t	t	n/a
824.597	0.09	1649194	keystroke_Key.space	Key.space	n/a
824.867	0.09	1649734	keystroke_o	o	n/a
825.002	0.09	1650004	keystroke_f	f	n/a
825.167	0.105	1650334	keystroke_f	f	n/a
825.482	0.18	1650964	keystroke_e	e	n/a
825.602	0.1195	1651204	keystroke_r	r	n/a
826.2915	0.12	1652583	keystroke_d	d	n/a
826.5315	0.0905	1653063	keystroke_Key.space	Key.space	n/a
826.8475	0.074	1653695	keystroke_m	m	n/a
827.0565	0.105	1654113	keystroke_o	o	n/a
827.3275	0.105	1654655	keystroke_r	r	n/a
827.537	0.12	1655074	keystroke_t	t	n/a
827.912	0.12	1655824	keystroke_a	a	n/a
831.2285	0.013	1662457	keystroke_Key.backspace	Key.backspace	n/a
831.3615	0.075	1662723	keystroke_Key.backspace	Key.backspace	n/a
831.557	0.075	1663114	keystroke_Key.backspace	Key.backspace	n/a
831.782	0.105	1663564	keystroke_Key.backspace	Key.backspace	n/a
832.022	0.09	1664044	keystroke_Key.backspace	Key.backspace	n/a
832.457	0.09	1664914	keystroke_Key.backspace	Key.backspace	n/a
832.8765	0.09	1665753	keystroke_Key.backspace	Key.backspace	n/a
833.0715	0.0905	1666143	keystroke_Key.backspace	Key.backspace	n/a
834.197	0.12	1668394	keystroke_r	r	n/a
834.497	0.15	1668994	keystroke_e	e	n/a
834.767	0.1045	1669534	keystroke_d	d	n/a
835.0215	0.105	1670043	keystroke_Key.space	Key.space	n/a
835.2765	0.09	1670553	keystroke_m	m	n/a
835.5765	0.105	1671153	keystroke_o	o	n/a
835.8015	0.105	1671603	keystroke_r	r	n/a
836.026	0.12	1672052	keystroke_t	t	n/a
836.402	0.135	1672804	keystroke_a	a	n/a
836.717	0.105	1673434	keystroke_l	l	n/a
837.7515	0.06	1675503	keystroke_i	i	n/a
