onset	duration	sample	value	key	prompt_text
3.167	10.916	6334	prompt	n/a	the quick brown fox jumps over a lazy dog\n
5.773	0	11546	keystroke_t	t	n/a
5.774	0.055	11548	keystroke_h	h	n/a
5.8445	0.1045	11689	keystroke_e	e	n/a
5.949	0.1355	11898	keystroke_Key.space	Key.space	n/a
6.1145	0.105	12229	keystroke_q	q	n/a
6.3095	0.1195	12619	keystroke_u	u	n/a
6.369	0.1355	12738	keystroke_i	i	n/a
6.4895	0.135	12979	keystroke_c	c	n/a
6.6545	0.1795	13309	keystroke_k	k	n/a
6.7895	0.105	13579	keystroke_Key.space	Key.space	n/a
7.09	0.075	14180	keystroke_b	b	n/a
7.285	0.134	14570	keystroke_r	r	n/a
7.449	0.105	14898	keystroke_o	o	n/a
7.54	0.12	15080	keystroke_w	w	n/a
7.719	0.1505	15438	keystroke_n	n	n/a
7.824	0.1355	15648	keystroke_Key.space	Key.space	n/a
8.1845	0.09	16369	keystroke_f	f	n/a
8.3045	0.105	16609	keystroke_o	o	n/a
8.4545	0.18	16909	keystroke_x	x	n/a
8.6795	0.1345	17359	keystroke_Key.space	Key.space	n/a
8.844	0.106	17688	keystroke_j	j	n/a
9.069	0.06	18138	keystroke_u	u	n/a
9.295	0.119	18590	keystroke_m	m	n/a
9.37	0.149	18740	keystroke_p	p	n/a
9.474	0.135	18948	keystroke_s	s	n/a
9.669	0.135	19338	keystroke_Key.space	Key.space	n/a
9.9995	0.105	19999	keystroke_o	o	n/a
10.0745	0.105	20149	keystroke_v	v	n/a
10.1945	0.15	20389	keystroke_e	e	n/a
10.3145	0.121	20629	keystroke_r	r	n/a
10.4495	0.105	20899	keystroke_Key.space	Key.space	n/a
10.5995	0.105	21199	keystroke_a	a	n/a
10.7195	0.12	21439	keystroke_Key.space	Key.space	n/a
10.8845	0.18	21769	keystroke_l	l	n/a
11.0495	0.09	22099	keystroke_z	z	n/a
11.2745	0.12	22549	keystroke_a	a	n/a
11.4395	0.135	22879	keystroke_y	y	n/a
11.5145	0.165	23029	keystroke_Key.space	Key.space	n/a
11.979	0.06	23958	keystroke_Key.backspace	Key.backspace	n/a
12.144	0.09	24288	keystroke_Key.backspace	Key.backspace	n/a
12.324	0.045	24648	keystroke_Key.backspace	Key.backspace	n/a
12.444	0.12	24888	keystroke_Key.backspace	Key.backspace	n/a
12.58	0.075	25160	keystroke_a	a	n/a
12.819	0.166	25638	keystroke_z	z	n/a
12.97	0.135	25940	keystroke_y	y	n/a
13.029	0.135	26058	keystroke_Key.space	Key.space	n/a
13.389	0.121	26778	keystroke_d	d	n/a
13.524	0.091	27048	keystroke_o	o	n/a
13.629	0.195	27258	keystroke_g	g	n/a
13.9745	0.105	27949	keystroke_Key.enter	Key.enter	n/a
14.09	12.0215	28180	prompt	n/a	guidance where're legitimate chrysler\n
14.8895	0.105	29779	keystroke_g	g	n/a
14.9795	0.121	29959	keystroke_u	u	n/a
15.0545	0.165	30109	keystroke_i	i	n/a
15.2495	0.15	30499	keystroke_a	a	n/a
15.9395	0.075	31879	keystroke_Key.backspace	Key.backspace	n/a
16.0305	0.029	32061	keystroke_d	d	n/a
16.0445	0.03	32089	keystroke_a	a	n/a
16.0895	0.015	32179	keystroke_n	n	n/a
16.1195	0.135	32239	keystroke_c	c	n/a
16.4045	0.075	32809	keystroke_e	e	n/a
16.7495	0.12	33499	keystroke_Key.space	Key.space	n/a
17.0945	0.09	34189	keystroke_w	w	n/a
17.1995	0.075	34399	keystroke_h	h	n/a
17.2895	0.09	34579	keystroke_e	e	n/a
17.3495	0.151	34699	keystroke_r	r	n/a
17.4695	0.12	34939	keystroke_e	e	n/a
17.6495	0.15	35299	keystroke_'	'	n/a
17.9645	0.165	35929	keystroke_r	r	n/a
18.0855	0.15	36171	keystroke_e	e	n/a
18.2945	0.135	36589	keystroke_Key.space	Key.space	n/a
18.6395	0.12	37279	keystroke_l	l	n/a
18.7745	0.06	37549	keystroke_e	e	n/a
19.0145	0.135	38029	keystroke_g	g	n/a
19.2995	0.135	38599	keystroke_i	i	n/a
20.245	0.09	40490	keystroke_Key.backspace	Key.backspace	n/a
21.25	0.15	42500	keystroke_i	i	n/a
21.52	0.09	43040	keystroke_t	t	n/a
21.655	0.09	43310	keystroke_i	i	n/a
21.8795	0.15	43759	keystroke_m	m	n/a
22.0445	0.105	44089	keystroke_a	a	n/a
22.1195	0.165	44239	keystroke_t	t	n/a
22.2695	0.12	44539	keystroke_e	e	n/a
22.4045	0.12	44809	keystroke_Key.space	Key.space	n/a
23.2745	0.15	46549	keystroke_c	c	n/a
23.4995	0.15	46999	keystroke_h	h	n/a
23.8145	0.1205	47629	keystroke_r	r	n/a
23.965	0.15	47930	keystroke_y	y	n/a
24.325	0.12	48650	keystroke_s	s	n/a
25.03	0.21	50060	keystroke_l	l	n/a
25.525	0.15	51050	keystroke_e	e	n/a
25.645	0.18	51290	keystroke_r	r	n/a
26.005	0.105	52010	keystroke_Key.enter	Key.enter	n/a
26.116	11.38	52232	prompt	n/a	throughout defend policy anonymous\n
27.745	0.06	55490	keystroke_t	t	n/a
27.82	0.12	55640	keystroke_h	h	n/a
27.969	0.091	55938	keystroke_r	r	n/a
28.09	0.15	56180	keystroke_o	o	n/a
28.194	0.136	56388	keystroke_u	u	n/a
28.36	0.12	56720	keystroke_g	g	n/a
28.524	0.121	57048	keystroke_h	h	n/a
28.63	0.149	57260	keystroke_Key.space	Key.space	n/a
29.575	0.06	59150	keystroke_Key.backspace	Key.backspace	n/a
29.77	0.1355	59540	keystroke_o	o	n/a
29.844	0.136	59688	keystroke_u	u	n/a
29.965	0.12	59930	keystroke_t	t	n/a
30.19	0.135	60380	keystroke_Key.space	Key.space	n/a
31.12	0.06	62240	keystroke_d	d	n/a
31.285	0.09	62570	keystroke_e	e	n/a
31.63	0.135	63260	keystroke_f	f	n/a
31.84	0.1495	63680	keystroke_e	e	n/a
32.2445	0.135	64489	keystroke_n	n	n/a
32.4995	0.105	64999	keystroke_c	c	n/a
32.9645	0.075	65929	keystroke_Key.backspace	Key.backspace	n/a
33.0245	0.105	66049	keystroke_d	d	n/a
33.1895	0.12	66379	keystroke_Key.space	Key.space	n/a
33.3845	0.12	66769	keystroke_p	p	n/a
33.6245	0.09	67249	keystroke_o	o	n/a
33.8495	0.1505	67699	keystroke_l	l	n/a
33.955	0.15	67910	keystroke_i	i	n/a
34.375	0.165	68750	keystroke_c	c	n/a
34.51	0.135	69020	keystroke_y	y	n/a
34.585	0.135	69170	keystroke_Key.space	Key.space	n/a
34.945	0.165	69890	keystroke_a	a	n/a
35.02	0.135	70040	keystroke_n	n	n/a
35.455	0.12	70910	keystroke_o	o	n/a
35.605	0.165	71210	keystroke_n	n	n/a
36.249	0.121	72498	keystroke_y	y	n/a
36.61	0.164	73220	keystroke_m	m	n/a
36.789	0.18	73578	keystroke_o	o	n/a
36.939	0.1355	73878	keystroke_u	u	n/a
37.0445	0.15	74089	keystroke_s	s	n/a
37.3895	0.105	74779	keystroke_Key.enter	Key.enter	n/a
37.502	9.639	75004	prompt	n/a	plain grey malta eugene\n
38.29	0.045	76580	keystroke_p	p	n/a
38.44	0.105	76880	keystroke_l	l	n/a
38.53	0.135	77060	keystroke_a	a	n/a
38.68	0.105	77360	keystroke_i	i	n/a
38.725	0.165	77450	keystroke_n	n	n/a
38.83	0.164	77660	keystroke_Key.space	Key.space	n/a
39.1	0.06	78200	keystroke_g	g	n/a
39.28	0.09	78560	keystroke_r	r	n/a
39.34	0.135	78680	keystroke_e	e	n/a
39.505	0.105	79010	keystroke_y	y	n/a
39.549	0.136	79098	keystroke_Key.space	Key.space	n/a
39.895	0.1195	79790	keystroke_m	m	n/a
40.1795	0.15	80359	keystroke_l	l	n/a
40.6145	0.075	81229	keystroke_Key.backspace	Key.backspace	n/a
40.7045	0.105	81409	keystroke_a	a	n/a
40.8395	0.105	81679	keystroke_l	l	n/a
40.9295	0.135	81859	keystroke_t	t	n/a
41.1245	0.165	82249	keystroke_a	a	n/a
41.3045	0.12	82609	keystroke_Key.space	Key.space	n/a
42.0545	0.135	84109	keystroke_e	e	n/a
42.1745	0.15	84349	keystroke_u	u	n/a
43.1945	0.09	86389	keystroke_g	g	n/a
43.2695	0.12	86539	keystroke_e	e	n/a
43.3745	0.12	86749	keystroke_n	n	n/a
43.5105	0.104	87021	keystroke_e	e	n/a
46.993	0.146	93986	keystroke_Key.enter	Key.enter	n/a
47.1465	13.4195	94293	prompt	n/a	bleeding belgium paths remainder\n
48.0245	0.15	96049	keystroke_b	b	n/a
48.3245	0.181	96649	keystroke_l	l	n/a
48.4745	0.09	96949	keystroke_e	e	n/a
48.6845	0.09	97369	keystroke_d	d	n/a
48.8345	0.105	97669	keystroke_d	d	n/a
48.9995	0.135	97999	keystroke_i	i	n/a
49.0595	0.165	98119	keystroke_n	n	n/a
49.1645	0.09	98329	keystroke_g	g	n/a
49.2995	0.165	98599	keystroke_Key.space	Key.space	n/a
49.6745	0.135	99349	keystroke_b	b	n/a
49.7795	0.15	99559	keystroke_e	e	n/a
50.2295	0.06	100459	keystroke_Key.backspace	Key.backspace	n/a
50.3945	0.075	100789	keystroke_Key.backspace	Key.backspace	n/a
50.5595	0.075	101119	keystroke_Key.backspace	Key.backspace	n/a
50.7395	0.06	101479	keystroke_Key.backspace	Key.backspace	n/a
50.9045	0.075	101809	keystroke_Key.backspace	Key.backspace	n/a
51.0545	0.09	102109	keystroke_Key.backspace	Key.backspace	n/a
51.2195	0.105	102439	keystroke_Key.backspace	Key.backspace	n/a
51.7445	0.075	103489	keystroke_Key.backspace	Key.backspace	n/a
51.8945	0.075	103789	keystroke_e	e	n/a
52.105	0.09	104210	keystroke_d	d	n/a
52.225	0.195	104450	keystroke_i	i	n/a
52.3	0.15	104600	keystroke_n	n	n/a
52.435	0.09	104870	keystroke_g	g	n/a
52.585	0.165	105170	keystroke_Key.space	Key.space	n/a
53.02	0.105	106040	keystroke_b	b	n/a
53.155	0.105	106310	keystroke_e	e	n/a
53.305	0.15	106610	keystroke_l	l	n/a
53.937	0.088	107874	keystroke_g	g	n/a
54.28	0.15	108560	keystroke_i	i	n/a
54.445	0.105	108890	keystroke_u	u	n/a
54.715	0.12	109430	keystroke_m	m	n/a
55.36	0.135	110720	keystroke_Key.space	Key.space	n/a
55.96	0.24	111920	keystroke_p	p	n/a
56.215	0.03	112430	keystroke_a	a	n/a
56.574	0.106	113148	keystroke_t	t	n/a
56.694	0.121	113388	keystroke_h	h	n/a
56.86	0.1645	113720	keystroke_s	s	n/a
57.2645	0.15	114529	keystroke_Key.space	Key.space	n/a
58.15	0.105	116300	keystroke_r	r	n/a
58.21	0.164	116420	keystroke_e	e	n/a
58.33	0.18	116660	keystroke_m	m	n/a
58.614	0.105	117228	keystroke_a	a	n/a
58.72	0.15	117440	keystroke_i	i	n/a
58.81	0.164	117620	keystroke_n	n	n/a
58.975	0.089	117950	keystroke_d	d	n/a
59.274	0.121	118548	keystroke_e	e	n/a
59.349	0.165	118698	keystroke_r	r	n/a
60.444	0.12	120888	keystroke_Key.enter	Key.enter	n/a
60.5745	12.4725	121149	prompt	n/a	clerk desire brighton dublin\n
61.449	0.09	122898	keystroke_c	c	n/a
61.524	0.12	123048	keystroke_l	l	n/a
61.659	0.135	123318	keystroke_e	e	n/a
61.779	0.135	123558	keystroke_r	r	n/a
61.9745	0.1805	123949	keystroke_k	k	n/a
62.215	0.149	124430	keystroke_Key.space	Key.space	n/a
62.695	0.09	125390	keystroke_d	d	n/a
62.89	0.074	125780	keystroke_e	e	n/a
63.07	0.104	126140	keystroke_s	s	n/a
63.19	0.134	126380	keystroke_i	i	n/a
63.31	0.105	126620	keystroke_r	r	n/a
63.369	0.15	126738	keystroke_e	e	n/a
63.55	0.15	127100	keystroke_Key.space	Key.space	n/a
63.97	0.0745	127940	keystroke_b	b	n/a
64.1645	0.09	128329	keystroke_r	r	n/a
64.4495	0.135	128899	keystroke_i	i	n/a
64.6445	0.105	129289	keystroke_g	g	n/a
64.9145	0.12	129829	keystroke_h	h	n/a
65.1545	0.135	130309	keystroke_t	t	n/a
65.4095	0.165	130819	keystroke_o	o	n/a
65.5445	0.195	131089	keystroke_n	n	n/a
65.7545	0.18	131509	keystroke_Key.space	Key.space	n/a
66.5045	0.075	133009	keystroke_Key.backspace	Key.backspace	n/a
66.6695	0.09	133339	keystroke_Key.backspace	Key.backspace	n/a
66.8495	0.06	133699	keystroke_Key.backspace	Key.backspace	n/a
67.014	0.0905	134028	keystroke_Key.backspace	Key.backspace	n/a
68.0945	0.3	136189	keystroke_o	o	n/a
68.6795	0.165	137359	keystroke_n	n	n/a
68.9345	0.15	137869	keystroke_Key.space	Key.space	n/a
69.8045	0.06	139609	keystroke_Key.backspace	Key.backspace	n/a
69.9545	0.09	139909	keystroke_Key.backspace	Key.backspace	n/a
70.0745	0.12	140149	keystroke_t	t	n/a
70.2395	0.105	140479	keystroke_o	o	n/a
70.5095	0.06	141019	keystroke_Key.backspace	Key.backspace	n/a
70.675	0.0595	141350	keystroke_Key.backspace	Key.backspace	n/a
70.8095	0.105	141619	keystroke_Key.backspace	Key.backspace	n/a
70.9595	0.105	141919	keystroke_t	t	n/a
71.0945	0.18	142189	keystroke_o	o	n/a
71.1695	0.135	142339	keystroke_n	n	n/a
71.2445	0.1655	142489	keystroke_Key.space	Key.space	n/a
71.7245	0.12	143449	keystroke_d	d	n/a
71.8295	0.105	143659	keystroke_u	u	n/a
72.0095	0.075	144019	keystroke_b	b	n/a
72.1145	0.15	144229	keystroke_l	l	n/a
72.2045	0.18	144409	keystroke_i	i	n/a
72.5945	0.1505	145189	keystroke_n	n	n/a
72.924	0.121	145848	keystroke_Key.enter	Key.enter	n/a
73.054	6.3525	146108	prompt	n/a	zoning peoples necklace fundamental\n
73.9	0.149	147800	keystroke_z	z	n/a
73.959	0.1205	147918	keystroke_o	o	n/a
74.034	0.1655	148068	keystroke_n	n	n/a
74.2295	0.18	148459	keystroke_i	i	n/a
74.3195	0.135	148639	keystroke_n	n	n/a
74.4245	0.105	148849	keystroke_g	g	n/a
74.5145	0.165	149029	keystroke_Key.space	Key.space	n/a
74.6495	0.12	149299	keystroke_p	p	n/a
74.7995	0.135	149599	keystroke_e	e	n/a
74.9045	0.09	149809	keystroke_o	o	n/a
75.0995	0.075	150199	keystroke_p	p	n/a
75.2795	0.12	150559	keystroke_l	l	n/a
75.3545	0.12	150709	keystroke_e	e	n/a
75.4595	0.135	150919	keystroke_s	s	n/a
75.6245	0.135	151249	keystroke_Key.space	Key.space	n/a
75.9545	0.105	151909	keystroke_n	n	n/a
76.0745	0.1055	152149	keystroke_e	e	n/a
76.3295	0.135	152659	keystroke_c	c	n/a
76.4795	0.12	152959	keystroke_k	k	n/a
76.7495	0.09	153499	keystroke_l	l	n/a
76.87	0.0895	153740	keystroke_a	a	n/a
77.065	0.12	154130	keystroke_c	c	n/a
77.29	0.09	154580	keystroke_e	e	n/a
77.424	0.135	154848	keystroke_Key.space	Key.space	n/a
77.665	0.12	155330	keystroke_f	f	n/a
77.755	0.075	155510	keystroke_u	u	n/a
77.965	0.09	155930	keystroke_n	n	n/a
78.0995	0.15	156199	keystroke_d	d	n/a
78.2645	0.105	156529	keystroke_a	a	n/a
78.4145	0.12	156829	keystroke_m	m	n/a
78.5945	0.12	157189	keystroke_e	e	n/a
78.6995	0.09	157399	keystroke_n	n	n/a
78.8195	0.12	157639	keystroke_t	t	n/a
78.9545	0.15	157909	keystroke_a	a	n/a
79.0745	0.12	158149	keystroke_l	l	n/a
79.3145	0.09	158629	keystroke_Key.enter	Key.enter	n/a
79.4145	7.987	158829	prompt	n/a	charging webcast arctic buck\n
80.154	0.09	160308	keystroke_c	c	n/a
80.214	0.09	160428	keystroke_h	h	n/a
80.364	0.1055	160728	keystroke_a	a	n/a
80.409	0.105	160818	keystroke_r	r	n/a
80.6495	0.0895	161299	keystroke_g	g	n/a
80.769	0.165	161538	keystroke_i	i	n/a
80.844	0.181	161688	keystroke_n	n	n/a
81.355	0.089	162710	keystroke_g	g	n/a
81.534	0.15	163068	keystroke_Key.space	Key.space	n/a
81.9845	0.09	163969	keystroke_w	w	n/a
82.0595	0.1655	164119	keystroke_e	e	n/a
82.524	0.15	165048	keystroke_b	b	n/a
82.78	0.15	165560	keystroke_a	a	n/a
82.989	0.226	165978	keystroke_s	s	n/a
83.784	0.06	167568	keystroke_Key.backspace	Key.backspace	n/a
83.934	0.105	167868	keystroke_Key.backspace	Key.backspace	n/a
83.995	0.1045	167990	keystroke_c	c	n/a
84.055	0.1345	168110	keystroke_a	a	n/a
84.2645	0.165	168529	keystroke_s	s	n/a
84.4305	0.119	168861	keystroke_t	t	n/a
84.7145	0.15	169429	keystroke_Key.space	Key.space	n/a
85.1495	0.12	170299	keystroke_a	a	n/a
85.2245	0.135	170449	keystroke_r	r	n/a
85.7195	0.12	171439	keystroke_c	c	n/a
85.9745	0.09	171949	keystroke_t	t	n/a
86.1545	0.1355	172309	keystroke_i	i	n/a
86.305	0.1195	172610	keystroke_c	c	n/a
86.4695	0.119	172939	keystroke_Key.space	Key.space	n/a
86.6495	0.09	173299	keystroke_b	b	n/a
86.7545	0.09	173509	keystroke_u	u	n/a
86.8895	0.18	173779	keystroke_c	c	n/a
87.0545	0.15	174109	keystroke_k	k	n/a
87.3245	0.075	174649	keystroke_Key.enter	Key.enter	n/a
87.4065	8.8895	174813	prompt	n/a	newman princess ebooks commonly\n
88.1795	0.135	176359	keystroke_n	n	n/a
88.2845	0.12	176569	keystroke_e	e	n/a
88.3595	0.135	176719	keystroke_w	w	n/a
89.0345	0.105	178069	keystroke_m	m	n/a
89.1845	0.18	178369	keystroke_a	a	n/a
89.3345	0.135	178669	keystroke_n	n	n/a
89.6495	0.135	179299	keystroke_Key.space	Key.space	n/a
89.9195	0.12	179839	keystroke_p	p	n/a
90.0395	0.09	180079	keystroke_r	r	n/a
90.1595	0.18	180319	keystroke_i	i	n/a
90.3245	0.135	180649	keystroke_n	n	n/a
90.4595	0.12	180919	keystroke_c	c	n/a
90.7295	0.09	181459	keystroke_e	e	n/a
91.0145	0.075	182029	keystroke_s	s	n/a
91.2095	0.105	182419	keystroke_s	s	n/a
91.3445	0.135	182689	keystroke_Key.space	Key.space	n/a
91.5545	0.09	183109	keystroke_d	d	n/a
91.8845	0.0895	183769	keystroke_Key.backspace	Key.backspace	n/a
91.9445	0.09	183889	keystroke_e	e	n/a
92.1845	0.105	184369	keystroke_b	b	n/a
92.3045	0.105	184609	keystroke_o	o	n/a
92.5145	0.18	185029	keystroke_o	o	n/a
92.6795	0.15	185359	keystroke_k	k	n/a
92.8445	0.12	185689	keystroke_s	s	n/a
93.0095	0.15	186019	keystroke_Key.space	Key.space	n/a
93.3695	0.135	186739	keystroke_c	c	n/a
93.4745	0.165	186949	keystroke_o	o	n/a
93.5945	0.12	187189	keystroke_m	m	n/a
93.7895	0.135	187579	keystroke_m	m	n/a
94.5545	0.135	189109	keystroke_o	o	n/a
94.6745	0.135	189349	keystroke_n	n	n/a
94.8695	0.18	189739	keystroke_l	l	n/a
95.0195	0.15	190039	keystroke_y	y	n/a
95.1395	0.15	190279	keystroke_Key.space	Key.space	n/a
96.1745	0.12	192349	keystroke_Key.enter	Key.enter	n/a
96.3015	7.315	192603	prompt	n/a	identifier listen nickname asks\n
97.044	0.136	194088	keystroke_i	i	n/a
97.164	0.09	194328	keystroke_d	d	n/a
97.3595	0.0895	194719	keystroke_e	e	n/a
97.464	0.12	194928	keystroke_n	n	n/a
97.644	0.105	195288	keystroke_t	t	n/a
97.779	0.1055	195558	keystroke_i	i	n/a
97.914	0.0905	195828	keystroke_f	f	n/a
98.019	0.105	196038	keystroke_i	i	n/a
98.2895	0.15	196579	keystroke_e	e	n/a
98.4095	0.135	196819	keystroke_r	r	n/a
98.6345	0.15	197269	keystroke_Key.space	Key.space	n/a
98.9495	0.075	197899	keystroke_i	i	n/a
99.2645	0.06	198529	keystroke_Key.backspace	Key.backspace	n/a
99.4595	0.15	198919	keystroke_l	l	n/a
99.5345	0.165	199069	keystroke_i	i	n/a
99.6395	0.165	199279	keystroke_s	s	n/a
99.8195	0.15	199639	keystroke_t	t	n/a
100.2845	0.135	200569	keystroke_e	e	n/a
100.4495	0.15	200899	keystroke_n	n	n/a
100.5695	0.15	201139	keystroke_Key.space	Key.space	n/a
100.9895	0.165	201979	keystroke_n	n	n/a
101.1095	0.12	202219	keystroke_i	i	n/a
101.2305	0.134	202461	keystroke_c	c	n/a
101.3795	0.12	202759	keystroke_k	k	n/a
101.7245	0.075	203449	keystroke_n	n	n/a
101.8895	0.1195	203779	keystroke_a	a	n/a
101.9645	0.1045	203929	keystroke_m	m	n/a
102.144	0.121	204288	keystroke_e	e	n/a
102.249	0.15	204498	keystroke_Key.space	Key.space	n/a
102.564	0.18	205128	keystroke_a	a	n/a
102.73	0.12	205460	keystroke_s	s	n/a
102.865	0.134	205730	keystroke_k	k	n/a
103.314	0.105	206628	keystroke_s	s	n/a
103.494	0.12	206988	keystroke_Key.enter	Key.enter	n/a
103.6205	6.2655	207241	prompt	n/a	alcohol survey white rica\n
104.3495	0.105	208699	keystroke_a	a	n/a
104.4395	0.12	208879	keystroke_l	l	n/a
104.6945	0.15	209389	keystroke_c	c	n/a
105.0245	0.12	210049	keystroke_o	o	n/a
105.5345	0.135	211069	keystroke_h	h	n/a
105.6245	0.15	211249	keystroke_o	o	n/a
105.8795	0.12	211759	keystroke_l	l	n/a
106.1195	0.135	212239	keystroke_Key.space	Key.space	n/a
106.4495	0.09	212899	keystroke_s	s	n/a
106.5245	0.09	213049	keystroke_u	u	n/a
106.7495	0.135	213499	keystroke_r	r	n/a
107.394	0.12	214788	keystroke_v	v	n/a
107.484	0.195	214968	keystroke_e	e	n/a
107.649	0.12	215298	keystroke_y	y	n/a
107.724	0.135	215448	keystroke_Key.space	Key.space	n/a
108.114	0.1055	216228	keystroke_w	w	n/a
108.2045	0.135	216409	keystroke_h	h	n/a
108.2345	0.18	216469	keystroke_i	i	n/a
108.3995	0.12	216799	keystroke_t	t	n/a
108.5045	0.135	217009	keystroke_e	e	n/a
108.6545	0.15	217309	keystroke_Key.space	Key.space	n/a
108.8795	0.165	217759	keystroke_r	r	n/a
109.0295	0.12	218059	keystroke_i	i	n/a
109.3145	0.12	218629	keystroke_c	c	n/a
109.4495	0.09	218899	keystroke_a	a	n/a
109.7795	0.105	219559	keystroke_Key.enter	Key.enter	n/a
109.891	5.035	219782	prompt	n/a	ever sage roommate brakes\n
110.5295	0.105	221059	keystroke_e	e	n/a
110.6645	0.105	221329	keystroke_v	v	n/a
110.7545	0.195	221509	keystroke_e	e	n/a
110.8895	0.135	221779	keystroke_r	r	n/a
111.0545	0.165	222109	keystroke_Key.space	Key.space	n/a
111.2345	0.12	222469	keystroke_s	s	n/a
111.3245	0.15	222649	keystroke_a	a	n/a
111.4595	0.12	222919	keystroke_g	g	n/a
111.5495	0.15	223099	keystroke_e	e	n/a
111.7145	0.15	223429	keystroke_Key.space	Key.space	n/a
112.044	0.105	224088	keystroke_r	r	n/a
112.164	0.1055	224328	keystroke_o	o	n/a
112.3445	0.15	224689	keystroke_o	o	n/a
112.4495	0.135	224899	keystroke_m	m	n/a
112.8995	0.105	225799	keystroke_m	m	n/a
113.0645	0.105	226129	keystroke_a	a	n/a
113.1545	0.15	226309	keystroke_t	t	n/a
113.2745	0.135	226549	keystroke_e	e	n/a
113.4545	0.15	226909	keystroke_Key.space	Key.space	n/a
113.8145	0.06	227629	keystroke_b	b	n/a
114.0095	0.105	228019	keystroke_r	r	n/a
114.0695	0.12	228139	keystroke_a	a	n/a
114.2045	0.135	228409	keystroke_k	k	n/a
114.3245	0.12	228649	keystroke_e	e	n/a
114.6695	0.105	229339	keystroke_s	s	n/a
114.8195	0.105	229639	keystroke_Key.enter	Key.enter	n/a
114.9305	7.8855	229861	prompt	n/a	compounds protest export curves\n
115.6745	0.165	231349	keystroke_c	c	n/a
115.7645	0.135	231529	keystroke_o	o	n/a
116.0045	0.12	232009	keystroke_m	m	n/a
116.0945	0.1195	232189	keystroke_p	p	n/a
116.334	0.165	232668	keystroke_o	o	n/a
116.484	0.12	232968	keystroke_u	u	n/a
116.724	0.106	233448	keystroke_n	n	n/a
116.889	0.136	233778	keystroke_d	d	n/a
117.43	0.12	234860	keystroke_s	s	n/a
117.625	0.134	235250	keystroke_Key.space	Key.space	n/a
118.075	0.09	236150	keystroke_p	p	n/a
118.2245	0.105	236449	keystroke_r	r	n/a
118.3145	0.09	236629	keystroke_o	o	n/a
118.5545	0.135	237109	keystroke_t	t	n/a
119.7395	0.15	239479	keystroke_e	e	n/a
119.8595	0.135	239719	keystroke_s	s	n/a
119.9795	0.105	239959	keystroke_t	t	n/a
120.1745	0.1495	240349	keystroke_Key.space	Key.space	n/a
120.49	0.075	240980	keystroke_e	e	n/a
120.685	0.134	241370	keystroke_x	x	n/a
120.805	0.134	241610	keystroke_p	p	n/a
120.894	0.166	241788	keystroke_o	o	n/a
121.075	0.09	242150	keystroke_r	r	n/a
121.27	0.074	242540	keystroke_t	t	n/a
121.405	0.134	242810	keystroke_Key.space	Key.space	n/a
121.8095	0.09	243619	keystroke_c	c	n/a
121.9145	0.0905	243829	keystroke_u	u	n/a
122.02	0.074	244040	keystroke_r	r	n/a
122.2445	0.105	244489	keystroke_v	v	n/a
122.3345	0.105	244669	keystroke_e	e	n/a
122.5295	0.12	245059	keystroke_s	s	n/a
122.7095	0.105	245419	keystroke_Key.enter	Key.enter	n/a
122.821	7.6305	245642	prompt	n/a	adopt taxation collection fiji\n
123.549	0.1055	247098	keystroke_a	a	n/a
123.7895	0.135	247579	keystroke_d	d	n/a
123.9995	0.105	247999	keystroke_o	o	n/a
124.2245	0.12	248449	keystroke_p	p	n/a
124.3745	0.09	248749	keystroke_t	t	n/a
124.5695	0.135	249139	keystroke_Key.space	Key.space	n/a
124.8845	0.12	249769	keystroke_e	e	n/a
125.2745	0.09	250549	keystroke_Key.backspace	Key.backspace	n/a
125.3345	0.105	250669	keystroke_t	t	n/a
125.4095	0.105	250819	keystroke_a	a	n/a
125.6345	0.135	251269	keystroke_x	x	n/a
126.1895	0.1045	252379	keystroke_a	a	n/a
126.625	0.089	253250	keystroke_t	t	n/a
126.73	0.12	253460	keystroke_i	i	n/a
126.835	0.1345	253670	keystroke_o	o	n/a
126.91	0.1795	253820	keystroke_n	n	n/a
127.0445	0.15	254089	keystroke_Key.space	Key.space	n/a
127.3145	0.105	254629	keystroke_c	c	n/a
127.3895	0.09	254779	keystroke_o	o	n/a
127.5845	0.06	255169	keystroke_l	l	n/a
127.7345	0.1205	255469	keystroke_l	l	n/a
127.7495	0.0905	255499	keystroke_e	e	n/a
127.96	0.075	255920	keystroke_c	c	n/a
128.11	0.105	256220	keystroke_t	t	n/a
128.2	0.0595	256400	keystroke_i	i	n/a
128.23	0.1945	256460	keystroke_o	o	n/a
128.3645	0.09	256729	keystroke_n	n	n/a
128.3945	0.135	256789	keystroke_Key.space	Key.space	n/a
128.6645	0.12	257329	keystroke_f	f	n/a
128.7695	0.105	257539	keystroke_i	i	n/a
128.9195	0.09	257839	keystroke_g	g	n/a
129.1745	0.15	258349	keystroke_i	i	n/a
129.5795	0.075	259159	keystroke_Key.backspace	Key.backspace	n/a
129.7145	0.09	259429	keystroke_Key.backspace	Key.backspace	n/a
129.9095	0.135	259819	keystroke_j	j	n/a
129.9695	0.15	259939	keystroke_i	i	n/a
130.3445	0.105	260689	keystroke_Key.enter	Key.enter	n/a
130.456	11.77	260912	prompt	n/a	diesel beatles consistently sunshine\n
131.2145	0.12	262429	keystroke_d	d	n/a
131.3645	0.135	262729	keystroke_i	i	n/a
131.6195	0.09	263239	keystroke_e	e	n/a
132.144	0.15	264288	keystroke_s	s	n/a
132.264	0.166	264528	keystroke_e	e	n/a
132.475	0.194	264950	keystroke_l	l	n/a
132.684	0.1355	265368	keystroke_Key.space	Key.space	n/a
133.0895	0.09	266179	keystroke_b	b	n/a
133.5245	0.12	267049	keystroke_e	e	n/a
134.0045	0.09	268009	keystroke_a	a	n/a
134.2295	0.0905	268459	keystroke_t	t	n/a
134.424	0.165	268848	keystroke_l	l	n/a
134.559	0.181	269118	keystroke_e	e	n/a
134.724	0.135	269448	keystroke_s	s	n/a
135.13	0.134	270260	keystroke_Key.space	Key.space	n/a
138.222	0.027	276444	keystroke_c	c	n/a
138.234	0.1355	276468	keystroke_o	o	n/a
138.294	0.1505	276588	keystroke_n	n	n/a
138.4145	0.12	276829	keystroke_s	s	n/a
138.5645	0.135	277129	keystroke_i	i	n/a
138.9395	0.15	277879	keystroke_t	t	n/a
139.0445	0.15	278089	keystroke_e	e	n/a
139.2095	0.105	278419	keystroke_n	n	n/a
139.4345	0.165	278869	keystroke_l	l	n/a
139.5545	0.15	279109	keystroke_y	y	n/a
139.659	0.1505	279318	keystroke_Key.space	Key.space	n/a
140.0645	0.12	280129	keystroke_s	s	n/a
140.1395	0.105	280279	keystroke_u	u	n/a
140.305	0.1045	280610	keystroke_r	r	n/a
140.7845	0.074	281569	keystroke_Key.backspace	Key.backspace	n/a
140.9795	0.075	281959	keystroke_n	n	n/a
141.1145	0.12	282229	keystroke_s	s	n/a
141.2495	0.12	282499	keystroke_h	h	n/a
141.3245	0.15	282649	keystroke_i	i	n/a
141.6095	0.135	283219	keystroke_n	n	n/a
141.7745	0.15	283549	keystroke_e	e	n/a
142.104	0.12	284208	keystroke_Key.enter	Key.enter	n/a
142.2305	15.505	284461	prompt	n/a	incorrect convenience veterinary biodiversity\n
142.8845	0.195	285769	keystroke_i	i	n/a
142.9745	0.15	285949	keystroke_n	n	n/a
143.1255	0.134	286251	keystroke_c	c	n/a
143.2895	0.135	286579	keystroke_o	o	n/a
143.4545	0.075	286909	keystroke_r	r	n/a
143.6645	0.09	287329	keystroke_r	r	n/a
143.7245	0.09	287449	keystroke_e	e	n/a
144.2945	0.1495	288589	keystroke_c	c	n/a
144.594	0.06	289188	keystroke_t	t	n/a
144.804	0.15	289608	keystroke_Key.space	Key.space	n/a
145.135	0.089	290270	keystroke_c	c	n/a
145.209	0.105	290418	keystroke_o	o	n/a
145.269	0.15	290538	keystroke_n	n	n/a
145.375	0.149	290750	keystroke_v	v	n/a
145.509	0.135	291018	keystroke_e	e	n/a
145.659	0.18	291318	keystroke_n	n	n/a
145.884	0.21	291768	keystroke_i	i	n/a
146.109	0.12	292218	keystroke_n	n	n/a
146.214	0.105	292428	keystroke_c	c	n/a
146.469	0.075	292938	keystroke_e	e	n/a
146.709	0.15	293418	keystroke_Key.space	Key.space	n/a
147.519	0.015	295038	keystroke_Key.backspace	Key.backspace	n/a
147.609	0.09	295218	keystroke_Key.backspace	Key.backspace	n/a
147.789	0.09	295578	keystroke_Key.backspace	Key.backspace	n/a
147.969	0.075	295938	keystroke_Key.backspace	Key.backspace	n/a
148.149	0.075	296298	keystroke_Key.backspace	Key.backspace	n/a
148.299	0.09	296598	keystroke_Key.backspace	Key.backspace	n/a
148.494	0.075	296988	keystroke_Key.backspace	Key.backspace	n/a
149.334	0.12	298668	keystroke_e	e	n/a
149.424	0.135	298848	keystroke_n	n	n/a
150.684	0.12	301368	keystroke_i	i	n/a
150.909	0.105	301818	keystroke_e	e	n/a
151.029	0.105	302058	keystroke_n	n	n/a
151.164	0.09	302328	keystroke_c	c	n/a
151.389	0.075	302778	keystroke_e	e	n/a
151.539	0.15	303078	keystroke_Key.space	Key.space	n/a
151.9595	0.1045	303919	keystroke_v	v	n/a
152.034	0.15	304068	keystroke_e	e	n/a
152.379	0.12	304758	keystroke_t	t	n/a
152.514	0.18	305028	keystroke_e	e	n/a
152.664	0.195	305328	keystroke_r	r	n/a
153.159	0.165	306318	keystroke_i	i	n/a
153.294	0.196	306588	keystroke_n	n	n/a
153.564	0.15	307128	keystroke_a	a	n/a
153.759	0.165	307518	keystroke_r	r	n/a
153.954	0.135	307908	keystroke_y	y	n/a
154.029	0.15	308058	keystroke_Key.space	Key.space	n/a
154.7495	0.09	309499	keystroke_b	b	n/a
154.8545	0.12	309709	keystroke_i	i	n/a
155.2145	0.135	310429	keystroke_o	o	n/a
155.6195	0.12	311239	keystroke_d	d	n/a
155.7245	0.12	311449	keystroke_i	i	n/a
156.1145	0.12	312229	keystroke_v	v	n/a
156.2195	0.1945	312439	keystroke_e	e	n/a
156.3695	0.1195	312739	keystroke_r	r	n/a
157.044	0.06	314088	keystroke_s	s	n/a
157.149	0.105	314298	keystroke_i	i	n/a
157.24	0.12	314480	keystroke_t	t	n/a
157.389	0.135	314778	keystroke_y	y	n/a
157.629	0.105	315258	keystroke_Key.enter	Key.enter	n/a
157.7405	10.1505	315481	prompt	n/a	requirements slideshow quarterly kernel\n
158.425	0.134	316850	keystroke_r	r	n/a
158.529	0.135	317058	keystroke_e	e	n/a
158.739	0.15	317478	keystroke_q	q	n/a
158.875	0.12	317750	keystroke_u	u	n/a
158.919	0.165	317838	keystroke_i	i	n/a
159.055	0.195	318110	keystroke_r	r	n/a
159.339	0.15	318678	keystroke_e	e	n/a
159.52	0.134	319040	keystroke_m	m	n/a
159.655	0.104	319310	keystroke_e	e	n/a
159.804	0.12	319608	keystroke_n	n	n/a
159.894	0.105	319788	keystroke_t	t	n/a
160.149	0.135	320298	keystroke_s	s	n/a
160.344	0.135	320688	keystroke_Key.space	Key.space	n/a
160.885	0.149	321770	keystroke_s	s	n/a
161.049	0.135	322098	keystroke_l	l	n/a
161.124	0.165	322248	keystroke_i	i	n/a
161.259	0.075	322518	keystroke_d	d	n/a
161.469	0.06	322938	keystroke_e	e	n/a
161.8145	0.12	323629	keystroke_s	s	n/a
161.9195	0.1495	323839	keystroke_h	h	n/a
161.994	0.165	323988	keystroke_o	o	n/a
162.144	0.09	324288	keystroke_w	w	n/a
162.339	0.1355	324678	keystroke_Key.space	Key.space	n/a
162.7145	0.105	325429	keystroke_q	q	n/a
162.8345	0.135	325669	keystroke_u	u	n/a
162.9995	0.18	325999	keystroke_a	a	n/a
163.1645	0.15	326329	keystroke_n	n	n/a
164.7695	0.09	329539	keystroke_Key.backspace	Key.backspace	n/a
164.8895	0.09	329779	keystroke_r	r	n/a
165.1145	0.105	330229	keystroke_t	t	n/a
165.2345	0.18	330469	keystroke_e	e	n/a
165.3695	0.135	330739	keystroke_r	r	n/a
165.5345	0.165	331069	keystroke_l	l	n/a
165.6695	0.165	331339	keystroke_y	y	n/a
165.7745	0.165	331549	keystroke_Key.space	Key.space	n/a
166.4795	0.18	332959	keystroke_k	k	n/a
166.6295	0.135	333259	keystroke_e	e	n/a
166.974	0.135	333948	keystroke_r	r	n/a
167.1545	0.1645	334309	keystroke_n	n	n/a
167.349	0.165	334698	keystroke_e	e	n/a
167.499	0.135	334998	keystroke_l	l	n/a
167.799	0.09	335598	keystroke_Key.enter	Key.enter	n/a
167.8955	9.7155	335791	prompt	n/a	archived fears blowing colleges\n
168.594	0.105	337188	keystroke_a	a	n/a
168.984	0.105	337968	keystroke_r	r	n/a
169.254	0.135	338508	keystroke_c	c	n/a
169.375	0.134	338750	keystroke_h	h	n/a
169.464	0.15	338928	keystroke_i	i	n/a
169.599	0.12	339198	keystroke_e	e	n/a
169.824	0.135	339648	keystroke_v	v	n/a
169.929	0.165	339858	keystroke_e	e	n/a
170.244	0.18	340488	keystroke_Key.space	Key.space	n/a
170.619	0.075	341238	keystroke_Key.backspace	Key.backspace	n/a
170.799	0.075	341598	keystroke_Key.backspace	Key.backspace	n/a
170.964	0.06	341928	keystroke_Key.backspace	Key.backspace	n/a
171.114	0.105	342228	keystroke_Key.backspace	Key.backspace	n/a
171.234	0.12	342468	keystroke_v	v	n/a
171.324	0.135	342648	keystroke_e	e	n/a
171.594	0.105	343188	keystroke_d	d	n/a
171.804	0.135	343608	keystroke_Key.space	Key.space	n/a
172.8695	0.135	345739	keystroke_f	f	n/a
173.0945	0.165	346189	keystroke_e	e	n/a
173.2295	0.135	346459	keystroke_a	a	n/a
173.2895	0.12	346579	keystroke_r	r	n/a
173.4995	0.12	346999	keystroke_s	s	n/a
174.3095	0.1495	348619	keystroke_Key.space	Key.space	n/a
174.804	0.09	349608	keystroke_b	b	n/a
174.864	0.09	349728	keystroke_l	l	n/a
175.059	0.105	350118	keystroke_o	o	n/a
175.149	0.09	350298	keystroke_w	w	n/a
175.299	0.165	350598	keystroke_i	i	n/a
175.374	0.165	350748	keystroke_n	n	n/a
175.449	0.09	350898	keystroke_g	g	n/a
175.554	0.15	351108	keystroke_Key.space	Key.space	n/a
175.749	0.135	351498	keystroke_c	c	n/a
175.854	0.09	351708	keystroke_o	o	n/a
176.049	0.075	352098	keystroke_l	l	n/a
176.199	0.135	352398	keystroke_l	l	n/a
176.319	0.1355	352638	keystroke_e	e	n/a
176.7245	0.15	353449	keystroke_g	g	n/a
176.8595	0.1495	353719	keystroke_e	e	n/a
177.234	0.151	354468	keystroke_s	s	n/a
177.489	0.12	354978	keystroke_Key.enter	Key.enter	n/a
177.616	21.5495	355232	prompt	n/a	dentists consciousness wheat airports\n
178.344	0.075	356688	keystroke_d	d	n/a
178.554	0.105	357108	keystroke_e	e	n/a
178.674	0.12	357348	keystroke_n	n	n/a
178.795	0.104	357590	keystroke_t	t	n/a
178.959	0.12	357918	keystroke_i	i	n/a
179.064	0.165	358128	keystroke_s	s	n/a
179.244	0.135	358488	keystroke_t	t	n/a
179.469	0.1205	358938	keystroke_s	s	n/a
179.679	0.135	359358	keystroke_Key.space	Key.space	n/a
180.009	0.09	360018	keystroke_c	c	n/a
180.054	0.15	360108	keystroke_o	o	n/a
180.129	0.165	360258	keystroke_n	n	n/a
180.279	0.12	360558	keystroke_s	s	n/a
180.444	0.1205	360888	keystroke_i	i	n/a
180.5495	0.09	361099	keystroke_d	d	n/a
180.7745	0.105	361549	keystroke_e	e	n/a
181.3145	0.074	362629	keystroke_Key.backspace	Key.backspace	n/a
181.6745	0.06	363349	keystroke_Key.backspace	Key.backspace	n/a
181.9295	0.1045	363859	keystroke_c	c	n/a
182.049	0.12	364098	keystroke_i	i	n/a
182.124	0.195	364248	keystroke_o	o	n/a
182.259	0.12	364518	keystroke_u	u	n/a
182.334	0.1655	364668	keystroke_s	s	n/a
182.7245	0.135	365449	keystroke_n	n	n/a
182.8295	0.105	365659	keystroke_e	e	n/a
183.0095	0.09	366019	keystroke_s	s	n/a
183.204	0.1355	366408	keystroke_s	s	n/a
183.414	0.135	366828	keystroke_Key.space	Key.space	n/a
183.864	0.06	367728	keystroke_w	w	n/a
183.969	0.105	367938	keystroke_h	h	n/a
184.4785	0.09	368957	keystroke_Key.backspace	Key.backspace	n/a
185.4995	0.089	370999	keystroke_Key.backspace	Key.backspace	n/a
185.6935	0.0905	371387	keystroke_Key.backspace	Key.backspace	n/a
185.874	0.09	371748	keystroke_Key.backspace	Key.backspace	n/a
186.084	0.09	372168	keystroke_Key.backspace	Key.backspace	n/a
186.294	0.09	372588	keystroke_Key.backspace	Key.backspace	n/a
186.7585	0.1055	373517	keystroke_c	c	n/a
186.894	0.1955	373788	keystroke_i	i	n/a
187.0745	0.15	374149	keystroke_s	s	n/a
187.2095	0.15	374419	keystroke_o	o	n/a
187.2845	0.15	374569	keystroke_u	u	n/a
187.6895	0.135	375379	keystroke_n	n	n/a
187.8545	0.12	375709	keystroke_e	e	n/a
188.1545	0.105	376309	keystroke_s	s	n/a
188.3495	0.12	376699	keystroke_s	s	n/a
188.4985	0.135	376997	keystroke_Key.space	Key.space	n/a
188.6635	0.106	377327	keystroke_w	w	n/a
188.7995	0.15	377599	keystroke_h	h	n/a
189.114	0.165	378228	keystroke_e	e	n/a
189.249	0.15	378498	keystroke_a	a	n/a
189.369	0.12	378738	keystroke_t	t	n/a
189.849	0.48	379698	keystroke_Key.backspace	Key.backspace	n/a
192.309	0.135	384618	keystroke_Key.backspace	Key.backspace	n/a
192.8485	0.12	385697	keystroke_Key.backspace	Key.backspace	n/a
193.0585	0.09	386117	keystroke_Key.backspace	Key.backspace	n/a
193.2535	0.075	386507	keystroke_Key.backspace	Key.backspace	n/a
193.4335	0.075	386867	keystroke_Key.backspace	Key.backspace	n/a
193.6435	0.06	387287	keystroke_Key.backspace	Key.backspace	n/a
193.8245	0.074	387649	keystroke_Key.backspace	Key.backspace	n/a
194.0035	0.09	388007	keystroke_Key.backspace	Key.backspace	n/a
194.1985	0.09	388397	keystroke_Key.backspace	Key.backspace	n/a
194.3935	0.09	388787	keystroke_Key.backspace	Key.backspace	n/a
195.069	0.135	390138	keystroke_i	i	n/a
195.279	0.135	390558	keystroke_o	o	n/a
195.369	0.12	390738	keystroke_u	u	n/a
195.519	0.135	391038	keystroke_s	s	n/a
195.834	0.15	391668	keystroke_n	n	n/a
195.9995	0.0895	391999	keystroke_e	e	n/a
196.194	0.075	392388	keystroke_s	s	n/a
196.359	0.12	392718	keystroke_s	s	n/a
196.5235	0.165	393047	keystroke_Key.space	Key.space	n/a
196.9285	0.1055	393857	keystroke_w	w	n/a
197.019	0.135	394038	keystroke_h	h	n/a
197.139	0.12	394278	keystroke_e	e	n/a
197.244	0.12	394488	keystroke_a	a	n/a
197.319	0.135	394638	keystroke_t	t	n/a
197.469	0.12	394938	keystroke_Key.space	Key.space	n/a
197.784	0.09	395568	keystroke_a	a	n/a
198.114	0.12	396228	keystroke_i	i	n/a
198.249	0.135	396498	keystroke_r	r	n/a
198.369	0.195	396738	keystroke_p	p	n/a
198.504	0.135	397008	keystroke_o	o	n/a
198.594	0.09	397188	keystroke_r	r	n/a
198.804	0.09	397608	keystroke_t	t	n/a
199.059	0.105	398118	keystroke_Key.enter	Key.enter	n/a
199.1725	7.733	398345	prompt	n/a	shield objective contributed kinds\n
199.869	0.135	399738	keystroke_s	s	n/a
199.959	0.15	399918	keystroke_h	h	n/a
200.049	0.135	400098	keystroke_i	i	n/a
200.17	0.104	400340	keystroke_e	e	n/a
200.469	0.135	400938	keystroke_d	d	n/a
200.664	0.105	401328	keystroke_l	l	n/a
201.069	0.075	402138	keystroke_Key.backspace	Key.backspace	n/a
201.234	0.075	402468	keystroke_Key.backspace	Key.backspace	n/a
201.369	0.105	402738	keystroke_Key.backspace	Key.backspace	n/a
201.699	0.105	403398	keystroke_e	e	n/a
201.879	0.1345	403758	keystroke_l	l	n/a
201.9995	0.15	403999	keystroke_d	d	n/a
202.2835	0.135	404567	keystroke_Key.space	Key.space	n/a
202.6435	0.135	405287	keystroke_o	o	n/a
202.734	0.1195	405468	keystroke_b	b	n/a
203.0035	0.12	406007	keystroke_j	j	n/a
203.1085	0.091	406217	keystroke_e	e	n/a
203.3185	0.076	406637	keystroke_c	c	n/a
203.499	0.0755	406998	keystroke_t	t	n/a
203.6035	0.135	407207	keystroke_i	i	n/a
203.7395	0.104	407479	keystroke_v	v	n/a
203.8445	0.134	407689	keystroke_e	e	n/a
203.9795	0.119	407959	keystroke_Key.space	Key.space	n/a
204.2945	0.119	408589	keystroke_c	c	n/a
204.3535	0.165	408707	keystroke_o	o	n/a
204.4295	0.1495	408859	keystroke_n	n	n/a
204.654	0.075	409308	keystroke_t	t	n/a
204.834	0.105	409668	keystroke_r	r	n/a
204.924	0.105	409848	keystroke_i	i	n/a
205.059	0.09	410118	keystroke_b	b	n/a
205.164	0.105	410328	keystroke_u	u	n/a
205.314	0.15	410628	keystroke_t	t	n/a
205.434	0.09	410868	keystroke_e	e	n/a
205.629	0.105	411258	keystroke_d	d	n/a
205.749	0.12	411498	keystroke_Key.space	Key.space	n/a
205.929	0.135	411858	keystroke_k	k	n/a
206.184	0.195	412368	keystroke_i	i	n/a
206.32	0.134	412640	keystroke_n	n	n/a
206.424	0.12	412848	keystroke_d	d	n/a
206.529	0.12	413058	keystroke_s	s	n/a
206.784	0.12	413568	keystroke_Key.enter	Key.enter	n/a
206.9095	10.001	413819	prompt	n/a	mathematical pierre london stakeholders\n
207.6385	0.12	415277	keystroke_m	m	n/a
207.9085	0.165	415817	keystroke_e	e	n/a
208.5385	0.1055	417077	keystroke_Key.backspace	Key.backspace	n/a
208.645	0.134	417290	keystroke_a	a	n/a
208.749	0.12	417498	keystroke_t	t	n/a
208.914	0.135	417828	keystroke_h	h	n/a
209.214	0.21	418428	keystroke_e	e	n/a
209.874	0.12	419748	keystroke_m	m	n/a
210.099	0.105	420198	keystroke_a	a	n/a
210.324	0.105	420648	keystroke_t	t	n/a
210.6245	0.12	421249	keystroke_i	i	n/a
210.9245	0.12	421849	keystroke_c	c	n/a
211.0295	0.135	422059	keystroke_a	a	n/a
211.1945	0.165	422389	keystroke_l	l	n/a
211.3445	0.12	422689	keystroke_Key.space	Key.space	n/a
211.5245	0.12	423049	keystroke_p	p	n/a
211.7635	0.105	423527	keystroke_i	i	n/a
211.989	0.15	423978	keystroke_e	e	n/a
212.229	0.06	424458	keystroke_r	r	n/a
212.409	0.135	424818	keystroke_r	r	n/a
212.529	0.1495	425058	keystroke_e	e	n/a
212.7835	0.135	425567	keystroke_Key.space	Key.space	n/a
213.1285	0.075	426257	keystroke_l	l	n/a
213.3085	0.165	426617	keystroke_o	o	n/a
213.3985	0.165	426797	keystroke_n	n	n/a
213.5785	0.165	427157	keystroke_d	d	n/a
213.7135	0.165	427427	keystroke_o	o	n/a
213.8035	0.166	427607	keystroke_n	n	n/a
213.9385	0.15	427877	keystroke_Key.space	Key.space	n/a
214.1935	0.12	428387	keystroke_s	s	n/a
214.2985	0.135	428597	keystroke_t	t	n/a
214.4195	0.165	428839	keystroke_a	a	n/a
214.5695	0.195	429139	keystroke_k	k	n/a
215.4995	0.134	430999	keystroke_e	e	n/a
215.844	0.09	431688	keystroke_h	h	n/a
215.889	0.12	431778	keystroke_o	o	n/a
216.099	0.135	432198	keystroke_l	l	n/a
216.204	0.06	432408	keystroke_d	d	n/a
216.384	0.09	432768	keystroke_e	e	n/a
216.444	0.15	432888	keystroke_r	r	n/a
216.609	0.09	433218	keystroke_s	s	n/a
216.789	0.12	433578	keystroke_Key.enter	Key.enter	n/a
216.9155	13.675	433831	prompt	n/a	maintains occurring speeds minds\n
217.5235	0.105	435047	keystroke_m	m	n/a
217.7185	0.1505	435437	keystroke_a	a	n/a
217.884	0.18	435768	keystroke_i	i	n/a
217.974	0.165	435948	keystroke_n	n	n/a
218.409	0.075	436818	keystroke_t	t	n/a
218.6045	0.135	437209	keystroke_r	r	n/a
219.0085	0.075	438017	keystroke_Key.backspace	Key.backspace	n/a
219.0995	0.164	438199	keystroke_a	a	n/a
219.2345	0.195	438469	keystroke_i	i	n/a
219.3245	0.165	438649	keystroke_n	n	n/a
219.5345	0.12	439069	keystroke_s	s	n/a
219.6835	0.15	439367	keystroke_Key.space	Key.space	n/a
220.1635	0.15	440327	keystroke_c	c	n/a
220.2695	0.105	440539	keystroke_o	o	n/a
220.5385	0.0605	441077	keystroke_Key.backspace	Key.backspace	n/a
220.6595	0.0895	441319	keystroke_Key.backspace	Key.backspace	n/a
220.869	0.105	441738	keystroke_o	o	n/a
220.929	0.12	441858	keystroke_c	c	n/a
221.274	0.09	442548	keystroke_u	u	n/a
221.439	0.06	442878	keystroke_r	r	n/a
221.604	0.09	443208	keystroke_r	r	n/a
221.724	0.15	443448	keystroke_i	i	n/a
222.0535	0.075	444107	keystroke_Key.backspace	Key.backspace	n/a
222.2185	0.0755	444437	keystroke_Key.backspace	Key.backspace	n/a
222.3985	0.045	444797	keystroke_Key.backspace	Key.backspace	n/a
222.519	0.12	445038	keystroke_Key.backspace	Key.backspace	n/a
222.609	0.105	445218	keystroke_c	c	n/a
222.804	0.105	445608	keystroke_u	u	n/a
222.969	0.09	445938	keystroke_r	r	n/a
223.074	0.195	446148	keystroke_i	i	n/a
223.194	0.135	446388	keystroke_n	n	n/a
223.329	0.105	446658	keystroke_g	g	n/a
223.449	0.18	446898	keystroke_i	i	n/a
223.524	0.15	447048	keystroke_n	n	n/a
223.734	0.105	447468	keystroke_g	g	n/a
225.2935	0.075	450587	keystroke_Key.backspace	Key.backspace	n/a
225.4735	0.075	450947	keystroke_Key.backspace	Key.backspace	n/a
225.6235	0.09	451247	keystroke_Key.backspace	Key.backspace	n/a
225.7885	0.09	451577	keystroke_Key.backspace	Key.backspace	n/a
225.9685	0.12	451937	keystroke_Key.backspace	Key.backspace	n/a
227.2285	0.075	454457	keystroke_Key.backspace	Key.backspace	n/a
227.4245	0.105	454849	keystroke_r	r	n/a
227.5445	0.18	455089	keystroke_i	i	n/a
227.6345	0.135	455269	keystroke_n	n	n/a
227.7535	0.121	455507	keystroke_g	g	n/a
227.8895	0.149	455779	keystroke_Key.space	Key.space	n/a
228.4135	0.106	456827	keystroke_s	s	n/a
228.5345	0.104	457069	keystroke_p	p	n/a
228.6095	0.089	457219	keystroke_e	e	n/a
228.8195	0.075	457639	keystroke_e	e	n/a
229.0435	0.076	458087	keystroke_d	d	n/a
229.1035	0.135	458207	keystroke_s	s	n/a
229.4035	0.12	458807	keystroke_Key.space	Key.space	n/a
229.6435	0.12	459287	keystroke_m	m	n/a
229.7495	0.179	459499	keystroke_i	i	n/a
229.8695	0.15	459739	keystroke_n	n	n/a
229.9745	0.134	459949	keystroke_d	d	n/a
230.0945	0.134	460189	keystroke_s	s	n/a
230.4835	0.105	460967	keystroke_Key.enter	Key.enter	n/a
230.5985	6.697	461197	prompt	n/a	hardly york logical posted\n
231.264	0.105	462528	keystroke_h	h	n/a
231.504	0.135	463008	keystroke_a	a	n/a
231.579	0.12	463158	keystroke_r	r	n/a
231.774	0.18	463548	keystroke_d	d	n/a
231.894	0.2095	463788	keystroke_l	l	n/a
231.9995	0.134	463999	keystroke_y	y	n/a
232.0735	0.135	464147	keystroke_Key.space	Key.space	n/a
232.4935	0.12	464987	keystroke_y	y	n/a
232.7045	0.135	465409	keystroke_o	o	n/a
232.8545	0.09	465709	keystroke_r	r	n/a
232.9885	0.166	465977	keystroke_k	k	n/a
233.2435	0.135	466487	keystroke_Key.space	Key.space	n/a
233.649	0.105	467298	keystroke_l	l	n/a
233.859	0.105	467718	keystroke_o	o	n/a
234.009	0.0905	468018	keystroke_g	g	n/a
234.1595	0.1045	468319	keystroke_i	i	n/a
234.4145	0.1195	468829	keystroke_c	c	n/a
234.8485	0.09	469697	keystroke_Key.backspace	Key.backspace	n/a
235.1945	0.119	470389	keystroke_c	c	n/a
235.2995	0.164	470599	keystroke_a	a	n/a
235.5085	0.165	471017	keystroke_l	l	n/a
235.5685	0.151	471137	keystroke_Key.space	Key.space	n/a
235.8535	0.105	471707	keystroke_p	p	n/a
236.0785	0.121	472157	keystroke_o	o	n/a
236.2735	0.105	472547	keystroke_s	s	n/a
236.3635	0.135	472727	keystroke_t	t	n/a
236.4835	0.105	472967	keystroke_e	e	n/a
236.694	0.15	473388	keystroke_d	d	n/a
237.1585	0.135	474317	keystroke_Key.enter	Key.enter	n/a
237.3	7.5115	474600	prompt	n/a	homepage breast village ocean\n
238.0585	0.105	476117	keystroke_h	h	n/a
238.1785	0.18	476357	keystroke_o	o	n/a
238.2995	0.164	476599	keystroke_m	m	n/a
239.064	0.045	478128	keystroke_p	p	n/a
239.304	0.09	478608	keystroke_Key.backspace	Key.backspace	n/a
239.409	0.105	478818	keystroke_e	e	n/a
239.529	0.12	479058	keystroke_p	p	n/a
239.664	0.135	479328	keystroke_a	a	n/a
239.769	0.15	479538	keystroke_g	g	n/a
239.874	0.15	479748	keystroke_e	e	n/a
240.084	0.15	480168	keystroke_Key.space	Key.space	n/a
240.444	0.06	480888	keystroke_b	b	n/a
240.639	0.135	481278	keystroke_r	r	n/a
240.729	0.12	481458	keystroke_e	e	n/a
240.789	0.165	481578	keystroke_a	a	n/a
241.074	0.105	482148	keystroke_s	s	n/a
241.254	0.105	482508	keystroke_t	t	n/a
241.404	0.15	482808	keystroke_Key.space	Key.space	n/a
241.899	0.1345	483798	keystroke_v	v	n/a
242.0185	0.09	484037	keystroke_i	i	n/a
242.2135	0.09	484427	keystroke_l	l	n/a
242.3935	0.15	484787	keystroke_l	l	n/a
242.4835	0.135	484967	keystroke_a	a	n/a
242.5885	0.1205	485177	keystroke_g	g	n/a
242.679	0.15	485358	keystroke_e	e	n/a
242.784	0.12	485568	keystroke_Key.space	Key.space	n/a
242.979	0.135	485958	keystroke_o	o	n/a
243.069	0.12	486138	keystroke_c	c	n/a
243.429	0.09	486858	keystroke_e	e	n/a
243.564	0.12	487128	keystroke_n	n	n/a
244.2535	0.06	488507	keystroke_Key.backspace	Key.backspace	n/a
244.2995	0.164	488599	keystroke_a	a	n/a
244.4645	0.119	488929	keystroke_n	n	n/a
244.6585	0.15	489317	keystroke_Key.enter	Key.enter	n/a
244.8165	10.2245	489633	prompt	n/a	spider intel tiger reflections\n
245.4685	0.12	490937	keystroke_s	s	n/a
245.6195	0.029	491239	keystroke_i	i	n/a
246.039	0.06	492078	keystroke_Key.backspace	Key.backspace	n/a
246.219	0.15	492438	keystroke_p	p	n/a
246.324	0.15	492648	keystroke_i	i	n/a
246.459	0.075	492918	keystroke_d	d	n/a
246.654	0.165	493308	keystroke_e	e	n/a
246.744	0.135	493488	keystroke_r	r	n/a
246.894	0.1345	493788	keystroke_Key.space	Key.space	n/a
247.0585	0.165	494117	keystroke_i	i	n/a
247.1485	0.18	494297	keystroke_n	n	n/a
247.3585	0.12	494717	keystroke_i	i	n/a
247.8085	0.091	495617	keystroke_Key.backspace	Key.backspace	n/a
247.8995	0.12	495799	keystroke_t	t	n/a
247.9745	0.18	495949	keystroke_e	e	n/a
248.1385	0.151	496277	keystroke_l	l	n/a
248.2445	0.134	496489	keystroke_Key.space	Key.space	n/a
248.694	0.09	497388	keystroke_t	t	n/a
248.754	0.105	497508	keystroke_i	i	n/a
248.994	0.18	497988	keystroke_g	g	n/a
249.249	0.18	498498	keystroke_e	e	n/a
249.384	0.135	498768	keystroke_r	r	n/a
249.594	0.135	499188	keystroke_Key.space	Key.space	n/a
249.9685	0.151	499937	keystroke_r	r	n/a
250.0735	0.135	500147	keystroke_e	e	n/a
250.2535	0.15	500507	keystroke_l	l	n/a
250.3585	0.105	500717	keystroke_e	e	n/a
250.6435	0.1055	501287	keystroke_c	c	n/a
251.034	0.09	502068	keystroke_t	t	n/a
251.139	0.12	502278	keystroke_i	i	n/a
251.244	0.18	502488	keystroke_o	o	n/a
251.334	0.195	502668	keystroke_n	n	n/a
251.469	0.15	502938	keystroke_s	s	n/a
252.114	0.09	504228	keystroke_Key.backspace	Key.backspace	n/a
252.294	0.09	504588	keystroke_Key.backspace	Key.backspace	n/a
252.459	0.105	504918	keystroke_Key.backspace	Key.backspace	n/a
252.654	0.075	505308	keystroke_Key.backspace	Key.backspace	n/a
252.819	0.0895	505638	keystroke_Key.backspace	Key.backspace	n/a
252.9985	0.06	505997	keystroke_Key.backspace	Key.backspace	n/a
253.1485	0.09	506297	keystroke_Key.backspace	Key.backspace	n/a
253.3435	0.09	506687	keystroke_Key.backspace	Key.backspace	n/a
253.4195	0.149	506839	keystroke_f	f	n/a
253.6135	0.15	507227	keystroke_l	l	n/a
253.7035	0.075	507407	keystroke_e	e	n/a
253.9435	0.105	507887	keystroke_c	c	n/a
254.3485	0.06	508697	keystroke_t	t	n/a
254.4385	0.135	508877	keystroke_i	i	n/a
254.5285	0.15	509057	keystroke_o	o	n/a
254.6035	0.1505	509207	keystroke_n	n	n/a
254.709	0.15	509418	keystroke_s	s	n/a
254.919	0.119	509838	keystroke_Key.enter	Key.enter	n/a
255.047	6.144	510094	prompt	n/a	enemy round important deal\n
255.714	0.105	511428	keystroke_e	e	n/a
255.849	0.1055	511698	keystroke_n	n	n/a
255.999	0.15	511998	keystroke_e	e	n/a
256.119	0.135	512238	keystroke_r	r	n/a
256.7485	0.09	513497	keystroke_Key.backspace	Key.backspace	n/a
257.154	0.09	514308	keystroke_m	m	n/a
257.409	0.12	514818	keystroke_y	y	n/a
257.499	0.165	514998	keystroke_Key.space	Key.space	n/a
258.024	0.105	516048	keystroke_r	r	n/a
258.084	0.12	516168	keystroke_o	o	n/a
258.144	0.12	516288	keystroke_u	u	n/a
258.384	0.105	516768	keystroke_n	n	n/a
258.504	0.09	517008	keystroke_d	d	n/a
258.594	0.1495	517188	keystroke_Key.space	Key.space	n/a
258.7595	0.149	517519	keystroke_i	i	n/a
258.8335	0.1645	517667	keystroke_m	m	n/a
258.9395	0.1795	517879	keystroke_p	p	n/a
259.0445	0.1335	518089	keystroke_o	o	n/a
259.163	0.12	518326	keystroke_r	r	n/a
259.449	0.1505	518898	keystroke_t	t	n/a
259.553	0.1215	519106	keystroke_a	a	n/a
259.719	0.135	519438	keystroke_n	n	n/a
259.883	0.1215	519766	keystroke_t	t	n/a
260.154	0.135	520308	keystroke_Key.space	Key.space	n/a
260.424	0.089	520848	keystroke_d	d	n/a
260.6045	0.1195	521209	keystroke_e	e	n/a
260.6785	0.195	521357	keystroke_a	a	n/a
260.8135	0.15	521627	keystroke_l	l	n/a
261.0385	0.15	522077	keystroke_Key.enter	Key.enter	n/a
261.199	13.5815	522398	prompt	n/a	readily separately conclude butterfly\n
261.8945	0.105	523789	keystroke_r	r	n/a
261.9695	0.105	523939	keystroke_e	e	n/a
262.044	0.105	524088	keystroke_a	a	n/a
262.239	0.164	524478	keystroke_d	d	n/a
262.404	0.09	524808	keystroke_i	i	n/a
262.479	0.194	524958	keystroke_l	l	n/a
262.644	0.1495	525288	keystroke_y	y	n/a
262.734	0.1645	525468	keystroke_Key.space	Key.space	n/a
263.8435	0.105	527687	keystroke_s	s	n/a
263.9635	0.12	527927	keystroke_p	p	n/a
264.0845	0.134	528169	keystroke_e	e	n/a
264.3985	0.075	528797	keystroke_Key.backspace	Key.backspace	n/a
264.5335	0.09	529067	keystroke_Key.backspace	Key.backspace	n/a
264.5935	0.1505	529187	keystroke_e	e	n/a
264.759	0.135	529518	keystroke_p	p	n/a
264.909	0.135	529818	keystroke_e	e	n/a
265.104	0.15	530208	keystroke_r	r	n/a
265.269	0.135	530538	keystroke_a	a	n/a
265.374	0.135	530748	keystroke_t	t	n/a
265.479	0.165	530958	keystroke_e	e	n/a
265.659	0.18	531318	keystroke_l	l	n/a
265.734	0.165	531468	keystroke_y	y	n/a
265.824	0.165	531648	keystroke_Key.space	Key.space	n/a
266.589	0.06	533178	keystroke_Key.backspace	Key.backspace	n/a
266.709	0.1045	533418	keystroke_Key.backspace	Key.backspace	n/a
266.8885	0.0905	533777	keystroke_Key.backspace	Key.backspace	n/a
267.069	0.075	534138	keystroke_Key.backspace	Key.backspace	n/a
267.249	0.0745	534498	keystroke_Key.backspace	Key.backspace	n/a
267.3985	0.09	534797	keystroke_Key.backspace	Key.backspace	n/a
267.5785	0.09	535157	keystroke_Key.backspace	Key.backspace	n/a
267.7435	0.12	535487	keystroke_Key.backspace	Key.backspace	n/a
267.8785	0.15	535757	keystroke_a	a	n/a
268.3285	0.12	536657	keystroke_r	r	n/a
268.4335	0.12	536867	keystroke_a	a	n/a
268.5835	0.15	537167	keystroke_t	t	n/a
268.7185	0.1505	537437	keystroke_e	e	n/a
268.884	0.165	537768	keystroke_l	l	n/a
268.959	0.165	537918	keystroke_y	y	n/a
269.064	0.12	538128	keystroke_Key.space	Key.space	n/a
269.469	0.18	538938	keystroke_o	o	n/a
269.544	0.165	539088	keystroke_n	n	n/a
269.904	0.06	539808	keystroke_Key.backspace	Key.backspace	n/a
270.024	0.105	540048	keystroke_Key.backspace	Key.backspace	n/a
270.114	0.12	540228	keystroke_c	c	n/a
270.249	0.15	540498	keystroke_o	o	n/a
270.354	0.135	540708	keystroke_n	n	n/a
270.534	0.105	541068	keystroke_c	c	n/a
270.624	0.1495	541248	keystroke_l	l	n/a
270.684	0.1645	541368	keystroke_u	u	n/a
270.8185	0.105	541637	keystroke_d	d	n/a
271.0285	0.12	542057	keystroke_e	e	n/a
271.2085	0.135	542417	keystroke_Key.space	Key.space	n/a
271.5535	0.135	543107	keystroke_b	b	n/a
271.7035	0.0455	543407	keystroke_e	e	n/a
271.869	0.1195	543738	keystroke_u	u	n/a
272.1535	0.09	544307	keystroke_Key.backspace	Key.backspace	n/a
272.2585	0.12	544517	keystroke_Key.backspace	Key.backspace	n/a
272.6785	0.091	545357	keystroke_u	u	n/a
272.874	0.09	545748	keystroke_t	t	n/a
273.129	0.09	546258	keystroke_t	t	n/a
273.234	0.136	546468	keystroke_e	e	n/a
273.354	0.105	546708	keystroke_r	r	n/a
273.624	0.134	547248	keystroke_f	f	n/a
273.864	0.15	547728	keystroke_y	y	n/a
273.969	0.165	547938	keystroke_l	l	n/a
274.644	0.135	549288	keystroke_Key.enter	Key.enter	n/a
274.786	6.939	549572	prompt	n/a	heads genome doug plants\n
275.529	0.09	551058	keystroke_h	h	n/a
275.589	0.09	551178	keystroke_e	e	n/a
275.664	0.105	551328	keystroke_a	a	n/a
275.814	0.134	551628	keystroke_d	d	n/a
275.964	0.105	551928	keystroke_s	s	n/a
276.113	0.12	552226	keystroke_Key.space	Key.space	n/a
276.654	0.119	553308	keystroke_g	g	n/a
276.744	0.1495	553488	keystroke_e	e	n/a
276.9535	0.1505	553907	keystroke_n	n	n/a
277.329	0.12	554658	keystroke_o	o	n/a
277.539	0.12	555078	keystroke_r	r	n/a
278.048	0.09	556096	keystroke_Key.backspace	Key.backspace	n/a
278.273	0.105	556546	keystroke_m	m	n/a
278.483	0.121	556966	keystroke_e	e	n/a
278.663	0.1515	557326	keystroke_Key.space	Key.space	n/a
279.0235	0.121	558047	keystroke_d	d	n/a
279.1285	0.15	558257	keystroke_o	o	n/a
279.2185	0.15	558437	keystroke_u	u	n/a
279.4135	0.09	558827	keystroke_g	g	n/a
279.7135	0.1355	559427	keystroke_Key.space	Key.space	n/a
280.254	0.105	560508	keystroke_p	p	n/a
280.464	0.12	560928	keystroke_l	l	n/a
280.524	0.15	561048	keystroke_a	a	n/a
281.049	0.135	562098	keystroke_n	n	n/a
281.214	0.105	562428	keystroke_t	t	n/a
281.619	0.104	563238	keystroke_Key.enter	Key.enter	n/a
281.679	0.1795	563358	keystroke_s	s	n/a
281.73	0.295	563460	prompt	n/a	albert cooperative kijiji sharp\n
281.769	0.2545	563538	keystroke_Key.enter	Key.enter	n/a
282.0325	15.5775	564065	prompt	n/a	qualifications construct pharmaceuticals coaches\n
283.3885	0.135	566777	keystroke_q	q	n/a
283.4785	0.135	566957	keystroke_u	u	n/a
283.6735	0.15	567347	keystroke_a	a	n/a
284.6035	0.165	569207	keystroke_l	l	n/a
284.6935	0.165	569387	keystroke_i	i	n/a
285.008	0.106	570016	keystroke_f	f	n/a
285.144	0.119	570288	keystroke_i	i	n/a
285.714	0.119	571428	keystroke_c	c	n/a
285.818	0.106	571636	keystroke_a	a	n/a
285.9535	0.12	571907	keystroke_t	t	n/a
286.088	0.045	572176	keystroke_i	i	n/a
286.118	0.195	572236	keystroke_o	o	n/a
286.238	0.1355	572476	keystroke_n	n	n/a
286.343	0.12	572686	keystroke_s	s	n/a
286.523	0.135	573046	keystroke_Key.space	Key.space	n/a
286.9585	0.1205	573917	keystroke_c	c	n/a
287.048	0.196	574096	keystroke_o	o	n/a
287.109	0.195	574218	keystroke_n	n	n/a
287.349	0.12	574698	keystroke_s	s	n/a
287.754	0.045	575508	keystroke_t	t	n/a
287.903	0.106	575806	keystroke_r	r	n/a
288.069	0.105	576138	keystroke_u	u	n/a
288.189	0.119	576378	keystroke_c	c	n/a
288.354	0.104	576708	keystroke_k	k	n/a
288.9385	0.075	577877	keystroke_Key.backspace	Key.backspace	n/a
289.0585	0.105	578117	keystroke_t	t	n/a
289.8535	0.12	579707	keystroke_Key.space	Key.space	n/a
290.1085	0.15	580217	keystroke_p	p	n/a
290.2435	0.12	580487	keystroke_h	h	n/a
290.4985	0.1205	580997	keystroke_a	a	n/a
290.573	0.135	581146	keystroke_r	r	n/a
290.783	0.151	581566	keystroke_m	m	n/a
291.204	0.105	582408	keystroke_a	a	n/a
291.9235	0.105	583847	keystroke_c	c	n/a
292.1945	0.104	584389	keystroke_e	e	n/a
292.899	0.135	585798	keystroke_u	u	n/a
293.649	0.09	587298	keystroke_t	t	n/a
293.769	0.12	587538	keystroke_i	i	n/a
294.009	0.12	588018	keystroke_c	c	n/a
294.084	0.105	588168	keystroke_a	a	n/a
294.219	0.12	588438	keystroke_l	l	n/a
294.354	0.105	588708	keystroke_s	s	n/a
294.564	0.135	589128	keystroke_Key.space	Key.space	n/a
295.028	0.121	590056	keystroke_c	c	n/a
295.133	0.12	590266	keystroke_a	a	n/a
295.208	0.121	590416	keystroke_o	o	n/a
295.583	0.135	591166	keystroke_a	a	n/a
295.913	0.06	591826	keystroke_Key.backspace	Key.backspace	n/a
296.064	0.074	592128	keystroke_Key.backspace	Key.backspace	n/a
296.214	0.089	592428	keystroke_Key.backspace	Key.backspace	n/a
296.424	0.105	592848	keystroke_o	o	n/a
296.469	0.105	592938	keystroke_a	a	n/a
296.709	0.075	593418	keystroke_c	c	n/a
296.814	0.134	593628	keystroke_h	h	n/a
296.963	0.091	593926	keystroke_e	e	n/a
297.099	0.135	594198	keystroke_s	s	n/a
297.519	0.09	595038	keystroke_Key.enter	Key.enter	n/a
297.6145	8.621	595229	prompt	n/a	debt appearance heroes hardly\n
298.404	0.09	596808	keystroke_d	d	n/a
298.584	0.135	597168	keystroke_e	e	n/a
298.854	0.105	597708	keystroke_b	b	n/a
299.094	0.09	598188	keystroke_t	t	n/a
299.303	0.136	598606	keystroke_Key.space	Key.space	n/a
299.469	0.135	598938	keystroke_a	a	n/a
299.664	0.09	599328	keystroke_p	p	n/a
299.859	0.105	599718	keystroke_p	p	n/a
300.414	0.165	600828	keystroke_a	a	n/a
300.998	0.075	601996	keystroke_Key.backspace	Key.backspace	n/a
301.058	0.15	602116	keystroke_e	e	n/a
301.164	0.119	602328	keystroke_a	a	n/a
301.239	0.164	602478	keystroke_r	r	n/a
301.598	0.09	603196	keystroke_e	e	n/a
302.1685	0.075	604337	keystroke_Key.backspace	Key.backspace	n/a
302.2285	0.105	604457	keystroke_a	a	n/a
302.3935	0.09	604787	keystroke_n	n	n/a
302.4845	0.089	604969	keystroke_c	c	n/a
302.6935	0.091	605387	keystroke_e	e	n/a
302.8285	0.135	605657	keystroke_Key.space	Key.space	n/a
303.0535	0.076	606107	keystroke_h	h	n/a
303.1435	0.135	606287	keystroke_e	e	n/a
303.2635	0.09	606527	keystroke_a	a	n/a
303.6385	0.09	607277	keystroke_Key.backspace	Key.backspace	n/a
303.7735	0.091	607547	keystroke_r	r	n/a
303.8785	0.09	607757	keystroke_o	o	n/a
304.4785	0.18	608957	keystroke_e	e	n/a
304.6435	0.105	609287	keystroke_s	s	n/a
304.8685	0.151	609737	keystroke_Key.space	Key.space	n/a
305.1685	0.09	610337	keystroke_h	h	n/a
305.3485	0.12	610697	keystroke_a	a	n/a
305.4235	0.09	610847	keystroke_r	r	n/a
305.6185	0.135	611237	keystroke_d	d	n/a
305.8135	0.15	611627	keystroke_l	l	n/a
305.9335	0.105	611867	keystroke_y	y	n/a
306.1435	0.09	612287	keystroke_Key.enter	Key.enter	n/a
306.241	6.3545	612482	prompt	n/a	color referral survey contact\n
306.9085	0.15	613817	keystroke_c	c	n/a
307.0285	0.075	614057	keystroke_o	o	n/a
307.2095	0.074	614419	keystroke_l	l	n/a
307.4035	0.075	614807	keystroke_o	o	n/a
307.5235	0.075	615047	keystroke_r	r	n/a
307.6885	0.15	615377	keystroke_Key.space	Key.space	n/a
308.1385	0.09	616277	keystroke_r	r	n/a
308.2135	0.135	616427	keystroke_e	e	n/a
308.4235	0.09	616847	keystroke_f	f	n/a
308.4985	0.135	616997	keystroke_e	e	n/a
308.6185	0.18	617237	keystroke_r	r	n/a
308.964	0.18	617928	keystroke_r	r	n/a
309.129	0.18	618258	keystroke_a	a	n/a
309.339	0.135	618678	keystroke_l	l	n/a
309.414	0.135	618828	keystroke_Key.space	Key.space	n/a
309.744	0.105	619488	keystroke_s	s	n/a
309.834	0.105	619668	keystroke_u	u	n/a
309.999	0.09	619998	keystroke_r	r	n/a
310.254	0.15	620508	keystroke_v	v	n/a
310.419	0.15	620838	keystroke_e	e	n/a
310.554	0.135	621108	keystroke_y	y	n/a
310.629	0.15	621258	keystroke_Key.space	Key.space	n/a
311.409	0.15	622818	keystroke_c	c	n/a
311.514	0.15	623028	keystroke_o	o	n/a
311.574	0.165	623148	keystroke_n	n	n/a
311.754	0.135	623508	keystroke_t	t	n/a
311.874	0.09	623748	keystroke_a	a	n/a
312.0535	0.12	624107	keystroke_c	c	n/a
312.2635	0.105	624527	keystroke_t	t	n/a
312.4885	0.105	624977	keystroke_Key.enter	Key.enter	n/a
312.6005	7.57	625201	prompt	n/a	pretty congratulations surgery bears\n
313.2685	0.12	626537	keystroke_p	p	n/a
313.3585	0.12	626717	keystroke_r	r	n/a
313.4485	0.12	626897	keystroke_e	e	n/a
313.6435	0.075	627287	keystroke_t	t	n/a
313.8085	0.09	627617	keystroke_t	t	n/a
313.8995	0.134	627799	keystroke_y	y	n/a
313.9585	0.12	627917	keystroke_Key.space	Key.space	n/a
314.2135	0.09	628427	keystroke_c	c	n/a
314.3335	0.165	628667	keystroke_o	o	n/a
314.4385	0.18	628877	keystroke_n	n	n/a
314.6035	0.165	629207	keystroke_g	g	n/a
315.609	0.149	631218	keystroke_r	r	n/a
315.743	0.135	631486	keystroke_a	a	n/a
315.879	0.104	631758	keystroke_t	t	n/a
316.103	0.136	632206	keystroke_u	u	n/a
316.223	0.18	632446	keystroke_l	l	n/a
316.389	0.059	632778	keystroke_a	a	n/a
316.433	0.12	632866	keystroke_t	t	n/a
316.598	0.121	633196	keystroke_i	i	n/a
316.689	0.165	633378	keystroke_o	o	n/a
316.778	0.1505	633556	keystroke_n	n	n/a
316.868	0.136	633736	keystroke_s	s	n/a
317.019	0.15	634038	keystroke_Key.space	Key.space	n/a
317.469	0.105	634938	keystroke_s	s	n/a
317.559	0.105	635118	keystroke_u	u	n/a
318.069	0.09	636138	keystroke_r	r	n/a
318.339	0.12	636678	keystroke_g	g	n/a
318.429	0.135	636858	keystroke_e	e	n/a
318.684	0.135	637368	keystroke_r	r	n/a
318.864	0.1495	637728	keystroke_y	y	n/a
318.9535	0.15	637907	keystroke_Key.space	Key.space	n/a
319.3435	0.105	638687	keystroke_b	b	n/a
319.4635	0.135	638927	keystroke_e	e	n/a
319.6135	0.075	639227	keystroke_a	a	n/a
319.6435	0.135	639287	keystroke_r	r	n/a
319.8235	0.135	639647	keystroke_s	s	n/a
320.0785	0.09	640157	keystroke_Key.enter	Key.enter	n/a
320.176	9.204	640352	prompt	n/a	clicks diagnosis radius contracting\n
320.8285	0.1345	641657	keystroke_c	c	n/a
320.948	0.121	641896	keystroke_l	l	n/a
320.993	0.15	641986	keystroke_i	i	n/a
321.158	0.106	642316	keystroke_c	c	n/a
321.278	0.15	642556	keystroke_k	k	n/a
321.459	0.119	642918	keystroke_s	s	n/a
321.668	0.135	643336	keystroke_Key.space	Key.space	n/a
322.179	0.09	644358	keystroke_d	d	n/a
322.284	0.105	644568	keystroke_i	i	n/a
322.404	0.09	644808	keystroke_a	a	n/a
322.809	0.09	645618	keystroke_g	g	n/a
323.019	0.149	646038	keystroke_n	n	n/a
323.139	0.15	646278	keystroke_o	o	n/a
323.544	0.12	647088	keystroke_s	s	n/a
323.678	0.12	647356	keystroke_i	i	n/a
323.814	0.119	647628	keystroke_s	s	n/a
324.083	0.15	648166	keystroke_Key.space	Key.space	n/a
324.398	0.135	648796	keystroke_r	r	n/a
324.519	0.104	649038	keystroke_a	a	n/a
324.773	0.135	649546	keystroke_d	d	n/a
324.894	0.135	649788	keystroke_i	i	n/a
325.059	0.135	650118	keystroke_s	s	n/a
325.179	0.12	650358	keystroke_o	o	n/a
325.479	0.075	650958	keystroke_Key.backspace	Key.backspace	n/a
325.644	0.075	651288	keystroke_Key.backspace	Key.backspace	n/a
325.824	0.09	651648	keystroke_u	u	n/a
325.944	0.135	651888	keystroke_s	s	n/a
326.604	0.135	653208	keystroke_Key.space	Key.space	n/a
327.6235	0.12	655247	keystroke_c	c	n/a
327.6985	0.21	655397	keystroke_o	o	n/a
327.7585	0.195	655517	keystroke_n	n	n/a
328.0135	0.06	656027	keystroke_t	t	n/a
328.2085	0.105	656417	keystroke_r	r	n/a
328.2685	0.105	656537	keystroke_a	a	n/a
328.4785	0.09	656957	keystroke_c	c	n/a
328.6585	0.075	657317	keystroke_t	t	n/a
328.7485	0.18	657497	keystroke_i	i	n/a
328.8385	0.1655	657677	keystroke_n	n	n/a
328.959	0.105	657918	keystroke_g	g	n/a
329.244	0.134	658488	keystroke_Key.enter	Key.enter	n/a
329.385	12.415	658770	prompt	n/a	accessory collector tyler bolt\n
330.174	0.104	660348	keystroke_a	a	n/a
330.384	0.105	660768	keystroke_c	c	n/a
330.578	0.075	661156	keystroke_c	c	n/a
330.804	0.074	661608	keystroke_e	e	n/a
331.149	0.104	662298	keystroke_s	s	n/a
331.268	0.105	662536	keystroke_o	o	n/a
331.388	0.076	662776	keystroke_r	r	n/a
331.598	0.06	663196	keystroke_r	r	n/a
331.778	0.105	663556	keystroke_r	r	n/a
331.868	0.136	663736	keystroke_y	y	n/a
331.943	0.151	663886	keystroke_Key.space	Key.space	n/a
332.364	0.06	664728	keystroke_Key.backspace	Key.backspace	n/a
332.544	0.075	665088	keystroke_Key.backspace	Key.backspace	n/a
332.679	0.09	665358	keystroke_Key.backspace	Key.backspace	n/a
332.829	0.105	665658	keystroke_Key.backspace	Key.backspace	n/a
333.3235	0.12	666647	keystroke_y	y	n/a
333.3835	0.12	666767	keystroke_Key.space	Key.space	n/a
333.8635	0.075	667727	keystroke_Key.backspace	Key.backspace	n/a
334.0435	0.075	668087	keystroke_Key.backspace	Key.backspace	n/a
334.2085	0.105	668417	keystroke_Key.backspace	Key.backspace	n/a
334.4485	0.075	668897	keystroke_Key.backspace	Key.backspace	n/a
334.5835	0.135	669167	keystroke_s	s	n/a
334.7335	0.135	669467	keystroke_o	o	n/a
335.334	0.105	670668	keystroke_r	r	n/a
335.454	0.135	670908	keystroke_y	y	n/a
335.544	0.134	671088	keystroke_Key.space	Key.space	n/a
336.053	0.091	672106	keystroke_o	o	n/a
336.173	0.15	672346	keystroke_c	c	n/a
336.503	0.045	673006	keystroke_=	=	n/a
336.638	0.105	673276	keystroke_Key.backspace	Key.backspace	n/a
336.878	0.075	673756	keystroke_Key.backspace	Key.backspace	n/a
337.0735	0.09	674147	keystroke_Key.backspace	Key.backspace	n/a
337.2095	0.179	674419	keystroke_c	c	n/a
337.3585	0.09	674717	keystroke_o	o	n/a
337.5685	0.045	675137	keystroke_l	l	n/a
337.7185	0.105	675437	keystroke_l	l	n/a
337.7485	0.075	675497	keystroke_e	e	n/a
337.9585	0.075	675917	keystroke_c	c	n/a
338.1385	0.06	676277	keystroke_t	t	n/a
338.2135	0.12	676427	keystroke_o	o	n/a
338.3485	0.105	676697	keystroke_r	r	n/a
338.4835	0.165	676967	keystroke_Key.space	Key.space	n/a
338.9185	0.09	677837	keystroke_t	t	n/a
339.0685	0.135	678137	keystroke_y	y	n/a
339.1885	0.195	678377	keystroke_l	l	n/a
339.3085	0.18	678617	keystroke_e	e	n/a
339.4435	0.165	678887	keystroke_r	r	n/a
340.0885	0.18	680177	keystroke_Key.space	Key.space	n/a
340.4185	0.135	680837	keystroke_b	b	n/a
340.5235	0.09	681047	keystroke_o	o	n/a
340.7185	0.12	681437	keystroke_l	l	n/a
340.8835	0.09	681767	keystroke_t	t	n/a
341.6785	0.12	683357	keystroke_Key.enter	Key.enter	n/a
341.8045	8.216	683609	prompt	n/a	function bibliography hunting takes\n
342.684	0.089	685368	keystroke_f	f	n/a
342.774	0.074	685548	keystroke_u	u	n/a
342.999	0.0745	685998	keystroke_n	n	n/a
343.1185	0.105	686237	keystroke_c	c	n/a
343.3435	0.09	686687	keystroke_t	t	n/a
343.4485	0.12	686897	keystroke_i	i	n/a
343.5235	0.225	687047	keystroke_o	o	n/a
343.6285	0.165	687257	keystroke_n	n	n/a
343.8385	0.15	687677	keystroke_Key.space	Key.space	n/a
344.1685	0.105	688337	keystroke_b	b	n/a
344.3035	0.12	688607	keystroke_i	i	n/a
344.4535	0.09	688907	keystroke_b	b	n/a
345.0835	0.12	690167	keystroke_l	l	n/a
345.3085	0.12	690617	keystroke_o	o	n/a
345.9835	0.045	691967	keystroke_Key.backspace	Key.backspace	n/a
346.1935	0.15	692387	keystroke_i	i	n/a
346.2835	0.165	692567	keystroke_o	o	n/a
346.7035	0.075	693407	keystroke_g	g	n/a
346.8985	0.12	693797	keystroke_r	r	n/a
346.9885	0.1505	693977	keystroke_a	a	n/a
346.9895	0.164	693979	keystroke_p	p	n/a
347.1085	0.12	694217	keystroke_h	h	n/a
347.3485	0.12	694697	keystroke_y	y	n/a
347.4385	0.15	694877	keystroke_Key.space	Key.space	n/a
348.1285	0.075	696257	keystroke_h	h	n/a
348.3085	0.06	696617	keystroke_u	u	n/a
348.5185	0.075	697037	keystroke_n	n	n/a
348.6085	0.0755	697217	keystroke_t	t	n/a
348.7285	0.15	697457	keystroke_i	i	n/a
348.8035	0.15	697607	keystroke_n	n	n/a
348.9385	0.0755	697877	keystroke_g	g	n/a
349.028	0.135	698056	keystroke_Key.space	Key.space	n/a
349.253	0.165	698506	keystroke_t	t	n/a
349.373	0.091	698746	keystroke_a	a	n/a
349.448	0.135	698896	keystroke_k	k	n/a
349.598	0.135	699196	keystroke_e	e	n/a
349.689	0.119	699378	keystroke_s	s	n/a
349.928	0.09	699856	keystroke_Key.enter	Key.enter	n/a
350.0275	8.1085	700055	prompt	n/a	signs anime polymer bicycle\n
350.663	0.105	701326	keystroke_s	s	n/a
350.783	0.12	701566	keystroke_i	i	n/a
350.918	0.075	701836	keystroke_g	g	n/a
350.994	0.1195	701988	keystroke_n	n	n/a
351.1285	0.105	702257	keystroke_s	s	n/a
351.2485	0.15	702497	keystroke_Key.space	Key.space	n/a
351.6535	0.15	703307	keystroke_a	a	n/a
351.7885	0.12	703577	keystroke_n	n	n/a
351.8785	0.1195	703757	keystroke_i	i	n/a
352.028	0.135	704056	keystroke_m	m	n/a
352.178	0.12	704356	keystroke_e	e	n/a
352.358	0.18	704716	keystroke_Key.space	Key.space	n/a
352.703	0.15	705406	keystroke_p	p	n/a
352.823	0.12	705646	keystroke_o	o	n/a
353.079	0.105	706158	keystroke_l	l	n/a
353.364	0.105	706728	keystroke_y	y	n/a
354.204	0.105	708408	keystroke_m	m	n/a
354.369	0.165	708738	keystroke_e	e	n/a
354.474	0.15	708948	keystroke_r	r	n/a
354.639	0.15	709278	keystroke_Key.space	Key.space	n/a
354.969	0.09	709938	keystroke_b	b	n/a
355.073	0.12	710146	keystroke_y	y	n/a
355.539	0.179	711078	keystroke_c	c	n/a
356.078	0.09	712156	keystroke_Key.backspace	Key.backspace	n/a
356.213	0.09	712426	keystroke_Key.backspace	Key.backspace	n/a
356.393	0.135	712786	keystroke_i	i	n/a
356.543	0.12	713086	keystroke_c	c	n/a
356.693	0.121	713386	keystroke_y	y	n/a
357.3835	0.15	714767	keystroke_c	c	n/a
357.5185	0.12	715037	keystroke_l	l	n/a
357.6685	0.135	715337	keystroke_e	e	n/a
358.0435	0.09	716087	keystroke_Key.enter	Key.enter	n/a
358.141	8.289	716282	prompt	n/a	andrews trials wait podcast\n
358.8685	0.12	717737	keystroke_a	a	n/a
358.9735	0.12	717947	keystroke_n	n	n/a
359.0785	0.09	718157	keystroke_d	d	n/a
359.3035	0.12	718607	keystroke_e	e	n/a
359.3935	0.135	718787	keystroke_r	r	n/a
359.6035	0.135	719207	keystroke_s	s	n/a
360.2335	0.06	720467	keystroke_Key.backspace	Key.backspace	n/a
360.3835	0.075	720767	keystroke_Key.backspace	Key.backspace	n/a
360.5335	0.105	721067	keystroke_Key.backspace	Key.backspace	n/a
360.5795	0.164	721159	keystroke_r	r	n/a
360.6985	0.165	721397	keystroke_e	e	n/a
360.8785	0.12	721757	keystroke_w	w	n/a
361.1185	0.12	722237	keystroke_s	s	n/a
361.2985	0.135	722597	keystroke_Key.space	Key.space	n/a
361.8385	0.015	723677	keystroke_t	t	n/a
361.9285	0.1195	723857	keystroke_r	r	n/a
362.018	0.105	724036	keystroke_a	a	n/a
362.124	0.134	724248	keystroke_i	i	n/a
362.213	0.135	724426	keystroke_l	l	n/a
362.288	0.105	724576	keystroke_s	s	n/a
362.513	0.12	725026	keystroke_Key.space	Key.space	n/a
362.933	0.195	725866	keystroke_w	w	n/a
363.069	0.134	726138	keystroke_a	a	n/a
363.218	0.15	726436	keystroke_i	i	n/a
363.3235	0.0905	726647	keystroke_t	t	n/a
363.953	0.09	727906	keystroke_Key.space	Key.space	n/a
364.163	0.105	728326	keystroke_p	p	n/a
364.373	0.12	728746	keystroke_o	o	n/a
364.508	0.12	729016	keystroke_d	d	n/a
364.943	0.105	729886	keystroke_c	c	n/a
365.018	0.1505	730036	keystroke_a	a	n/a
365.184	0.1195	730368	keystroke_s	s	n/a
365.3035	0.1505	730607	keystroke_t	t	n/a
366.3085	0.12	732617	keystroke_Key.enter	Key.enter	n/a
366.4345	8.201	732869	prompt	n/a	stranger portrait neutral actor\n
367.1185	0.12	734237	keystroke_s	s	n/a
367.2685	0.0755	734537	keystroke_t	t	n/a
367.4335	0.105	734867	keystroke_r	r	n/a
367.5085	0.1205	735017	keystroke_a	a	n/a
367.629	0.1045	735258	keystroke_g	g	n/a
367.7185	0.165	735437	keystroke_e	e	n/a
367.8535	0.12	735707	keystroke_r	r	n/a
368.0335	0.135	736067	keystroke_Key.space	Key.space	n/a
368.2135	0.135	736427	keystroke_p	p	n/a
368.3935	0.12	736787	keystroke_r	r	n/a
368.499	0.1195	736998	keystroke_o	o	n/a
368.8135	0.075	737627	keystroke_Key.backspace	Key.backspace	n/a
368.9475	0.091	737895	keystroke_Key.backspace	Key.backspace	n/a
369.159	0.12	738318	keystroke_o	o	n/a
369.248	0.091	738496	keystroke_r	r	n/a
369.473	0.075	738946	keystroke_t	t	n/a
369.653	0.136	739306	keystroke_r	r	n/a
369.759	0.165	739518	keystroke_a	a	n/a
369.894	0.224	739788	keystroke_i	i	n/a
370.073	0.061	740146	keystroke_n	n	n/a
370.239	0.09	740478	keystroke_t	t	n/a
370.509	0.075	741018	keystroke_Key.backspace	Key.backspace	n/a
370.659	0.105	741318	keystroke_Key.backspace	Key.backspace	n/a
370.809	0.105	741618	keystroke_t	t	n/a
371.004	0.134	742008	keystroke_Key.space	Key.space	n/a
371.634	0.134	743268	keystroke_n	n	n/a
371.754	0.135	743508	keystroke_e	e	n/a
371.918	0.1355	743836	keystroke_w	w	n/a
372.3535	0.075	744707	keystroke_Key.backspace	Key.backspace	n/a
372.5485	0.09	745097	keystroke_u	u	n/a
372.8335	0.09	745667	keystroke_t	t	n/a
373.0435	0.15	746087	keystroke_r	r	n/a
373.2085	0.15	746417	keystroke_a	a	n/a
373.3285	0.165	746657	keystroke_l	l	n/a
373.4035	0.15	746807	keystroke_Key.space	Key.space	n/a
373.7035	0.09	747407	keystroke_a	a	n/a
373.8685	0.105	747737	keystroke_c	c	n/a
374.0635	0.075	748127	keystroke_t	t	n/a
374.2135	0.09	748427	keystroke_o	o	n/a
374.3485	0.12	748697	keystroke_r	r	n/a
374.5435	0.09	749087	keystroke_Key.enter	Key.enter	n/a
374.642	8.244	749284	prompt	n/a	advisory revision daisy flavor\n
375.2335	0.09	750467	keystroke_s	s	n/a
375.3385	0.195	750677	keystroke_a	a	n/a
375.6385	0.0595	751277	keystroke_Key.backspace	Key.backspace	n/a
375.788	0.12	751576	keystroke_Key.backspace	Key.backspace	n/a
375.893	0.12	751786	keystroke_a	a	n/a
375.983	0.136	751966	keystroke_d	d	n/a
376.073	0.165	752146	keystroke_v	v	n/a
376.433	0.21	752866	keystroke_i	i	n/a
377.7085	0.12	755417	keystroke_s	s	n/a
377.7835	0.12	755567	keystroke_o	o	n/a
377.9185	0.12	755837	keystroke_r	r	n/a
378.0835	0.165	756167	keystroke_y	y	n/a
378.1885	0.165	756377	keystroke_Key.space	Key.space	n/a
378.5635	0.12	757127	keystroke_r	r	n/a
378.6535	0.12	757307	keystroke_e	e	n/a
378.9235	0.09	757847	keystroke_v	v	n/a
378.9985	0.09	757997	keystroke_i	i	n/a
379.149	0.1195	758298	keystroke_s	s	n/a
379.2235	0.135	758447	keystroke_i	i	n/a
379.3435	0.165	758687	keystroke_o	o	n/a
379.4335	0.18	758867	keystroke_n	n	n/a
379.6885	0.15	759377	keystroke_Key.space	Key.space	n/a
380.0185	0.12	760037	keystroke_d	d	n/a
380.2735	0.135	760547	keystroke_a	a	n/a
380.3935	0.15	760787	keystroke_i	i	n/a
380.5735	0.12	761147	keystroke_s	s	n/a
380.7985	0.135	761597	keystroke_y	y	n/a
380.8885	0.135	761777	keystroke_Key.space	Key.space	n/a
381.6085	0.09	763217	keystroke_f	f	n/a
381.7285	0.12	763457	keystroke_l	l	n/a
381.8635	0.195	763727	keystroke_a	a	n/a
382.3135	0.105	764627	keystroke_v	v	n/a
382.4485	0.12	764897	keystroke_o	o	n/a
382.5985	0.105	765197	keystroke_r	r	n/a
382.7935	0.09	765587	keystroke_Key.enter	Key.enter	n/a
382.891	43.6695	765782	prompt	n/a	substantially bronze thanks loaded\n
383.589	0.089	767178	keystroke_s	s	n/a
383.723	0.105	767446	keystroke_u	u	n/a
383.843	0.091	767686	keystroke_s	s	n/a
384.083	0.09	768166	keystroke_b	b	n/a
384.893	0.12	769786	keystroke_t	t	n/a
385.013	0.151	770026	keystroke_a	a	n/a
385.2235	0.195	770447	keystroke_i	i	n/a
385.3885	0.21	770777	keystroke_n	n	n/a
385.9135	0.06	771827	keystroke_Key.backspace	Key.backspace	n/a
386.0635	0.075	772127	keystroke_Key.backspace	Key.backspace	n/a
386.3485	0.12	772697	keystroke_n	n	n/a
387.6685	0.09	775337	keystroke_t	t	n/a
387.8035	0.09	775607	keystroke_i	i	n/a
387.8935	0.18	775787	keystroke_a	a	n/a
388.0595	0.074	776119	keystroke_l	l	n/a
388.2385	0.135	776477	keystroke_l	l	n/a
388.3285	0.135	776657	keystroke_y	y	n/a
388.4185	0.135	776837	keystroke_Key.space	Key.space	n/a
388.6885	0.075	777377	keystroke_b	b	n/a
388.8835	0.105	777767	keystroke_r	r	n/a
388.9735	0.12	777947	keystroke_o	o	n/a
389.349	0.134	778698	keystroke_n	n	n/a
389.513	0.135	779026	keystroke_z	z	n/a
389.753	0.15	779506	keystroke_e	e	n/a
392.273	0.076	784546	keystroke_Key.backspace	Key.backspace	n/a
392.468	0.075	784936	keystroke_Key.backspace	Key.backspace	n/a
392.648	0.091	785296	keystroke_Key.backspace	Key.backspace	n/a
392.843	0.075	785686	keystroke_Key.backspace	Key.backspace	n/a
393.009	0.105	786018	keystroke_Key.backspace	Key.backspace	n/a
393.204	0.119	786408	keystroke_s	s	n/a
393.518	0.15	787036	keystroke_t	t	n/a
393.653	0.12	787306	keystroke_a	a	n/a
393.774	0.149	787548	keystroke_n	n	n/a
394.118	0.075	788236	keystroke_t	t	n/a
394.223	0.09	788446	keystroke_i	i	n/a
394.359	0.135	788718	keystroke_c	c	n/a
394.778	0.075	789556	keystroke_Key.backspace	Key.backspace	n/a
394.884	0.105	789768	keystroke_a	a	n/a
395.018	0.091	790036	keystroke_l	l	n/a
395.378	0.18	790756	keystroke_l	l	n/a
395.633	0.15	791266	keystroke_y	y	n/a
395.708	0.135	791416	keystroke_Key.space	Key.space	n/a
396.113	0.09	792226	keystroke_b	b	n/a
396.338	0.15	792676	keystroke_r	r	n/a
396.473	0.09	792946	keystroke_o	o	n/a
397.493	0.075	794986	keystroke_Key.backspace	Key.backspace	n/a
397.688	0.09	795376	keystroke_Key.backspace	Key.backspace	n/a
397.898	0.09	795796	keystroke_Key.backspace	Key.backspace	n/a
398.378	0.09	796756	keystroke_Key.backspace	Key.backspace	n/a
398.588	0.09	797176	keystroke_Key.backspace	Key.backspace	n/a
398.798	0.075	797596	keystroke_Key.backspace	Key.backspace	n/a
398.948	0.09	797896	keystroke_Key.backspace	Key.backspace	n/a
399.158	0.0755	798316	keystroke_Key.backspace	Key.backspace	n/a
400.9885	0.09	801977	keystroke_Key.backspace	Key.backspace	n/a
401.9185	0.1045	803837	keystroke_t	t	n/a
401.993	0.135	803986	keystroke_a	a	n/a
402.114	0.134	804228	keystroke_n	n	n/a
402.263	0.105	804526	keystroke_t	t	n/a
402.548	0.105	805096	keystroke_t	t	n/a
402.684	0.105	805368	keystroke_i	i	n/a
403.028	0.075	806056	keystroke_Key.backspace	Key.backspace	n/a
403.193	0.0905	806386	keystroke_Key.backspace	Key.backspace	n/a
403.3285	0.105	806657	keystroke_t	t	n/a
403.5385	0.105	807077	keystroke_i	i	n/a
403.6585	0.135	807317	keystroke_a	a	n/a
403.7785	0.135	807557	keystroke_l	l	n/a
404.1535	0.09	808307	keystroke_Key.backspace	Key.backspace	n/a
404.4235	0.015	808847	keystroke_Key.backspace	Key.backspace	n/a
404.4685	0.075	808937	keystroke_Key.backspace	Key.backspace	n/a
404.6185	0.105	809237	keystroke_Key.backspace	Key.backspace	n/a
404.8435	0.09	809687	keystroke_i	i	n/a
404.9185	0.18	809837	keystroke_a	a	n/a
405.0535	0.09	810107	keystroke_l	l	n/a
405.2485	0.12	810497	keystroke_l	l	n/a
405.3235	0.15	810647	keystroke_y	y	n/a
405.3985	0.12	810797	keystroke_Key.space	Key.space	n/a
405.7135	0.075	811427	keystroke_b	b	n/a
406.8535	0.075	813707	keystroke_Key.backspace	Key.backspace	n/a
407.078	0.12	814156	keystroke_Key.backspace	Key.backspace	n/a
411.777	0.026	823554	keystroke_t	t	n/a
411.789	0.104	823578	keystroke_i	i	n/a
411.938	0.1505	823876	keystroke_a	a	n/a
412.0435	0.075	824087	keystroke_l	l	n/a
412.2085	0.135	824417	keystroke_l	l	n/a
412.3135	0.12	824627	keystroke_y	y	n/a
412.3885	0.12	824777	keystroke_Key.space	Key.space	n/a
415.0435	0.06	830087	keystroke_Key.backspace	Key.backspace	n/a
415.3285	0.09	830657	keystroke_b	b	n/a
415.7335	0.12	831467	keystroke_s	s	n/a
415.8685	0.12	831737	keystroke_i	i	n/a
416.1085	0.12	832217	keystroke_t	t	n/a
416.2435	0.105	832487	keystroke_a	a	n/a
416.3785	0.15	832757	keystroke_n	n	n/a
416.6635	0.09	833327	keystroke_t	t	n/a
416.8285	0.105	833657	keystroke_i	i	n/a
416.978	0.15	833956	keystroke_a	a	n/a
417.143	0.09	834286	keystroke_l	l	n/a
417.3535	0.135	834707	keystroke_l	l	n/a
417.4885	0.12	834977	keystroke_y	y	n/a
417.5785	0.12	835157	keystroke_Key.space	Key.space	n/a
419.0485	0.09	838097	keystroke_Key.backspace	Key.backspace	n/a
419.2285	0.09	838457	keystroke_Key.backspace	Key.backspace	n/a
419.4085	0.105	838817	keystroke_t	t	n/a
419.4985	0.1205	838997	keystroke_a	a	n/a
419.6335	0.105	839267	keystroke_n	n	n/a
419.8885	0.0905	839777	keystroke_t	t	n/a
420.0985	0.135	840197	keystroke_i	i	n/a
420.5335	0.15	841067	keystroke_a	a	n/a
420.6835	0.09	841367	keystroke_l	l	n/a
420.8485	0.135	841697	keystroke_l	l	n/a
420.9385	0.12	841877	keystroke_y	y	n/a
420.9675	0.165	841935	keystroke_Key.space	Key.space	n/a
421.403	0.06	842806	keystroke_b	b	n/a
421.598	0.136	843196	keystroke_r	r	n/a
421.689	0.104	843378	keystroke_o	o	n/a
421.898	0.1655	843796	keystroke_z	z	n/a
422.0785	0.165	844157	keystroke_n	n	n/a
422.2285	0.105	844457	keystroke_Key.space	Key.space	n/a
422.7685	0.045	845537	keystroke_Key.backspace	Key.backspace	n/a
422.9035	0.105	845807	keystroke_Key.backspace	Key.backspace	n/a
423.0535	0.105	846107	keystroke_Key.backspace	Key.backspace	n/a
423.2785	0.0895	846557	keystroke_n	n	n/a
423.353	0.135	846706	keystroke_z	z	n/a
423.503	0.135	847006	keystroke_e	e	n/a
423.698	0.15	847396	keystroke_Key.space	Key.space	n/a
424.208	0.105	848416	keystroke_t	t	n/a
424.283	0.09	848566	keystroke_h	h	n/a
424.418	0.105	848836	keystroke_a	a	n/a
424.538	0.105	849076	keystroke_n	n	n/a
424.568	0.165	849136	keystroke_k	k	n/a
424.673	0.09	849346	keystroke_s	s	n/a
424.808	0.12	849616	keystroke_Key.space	Key.space	n/a
425.003	0.09	850006	keystroke_l	l	n/a
425.184	0.134	850368	keystroke_o	o	n/a
425.258	0.105	850516	keystroke_a	a	n/a
425.408	0.12	850816	keystroke_d	d	n/a
425.618	0.09	851236	keystroke_e	e	n/a
425.843	0.09	851686	keystroke_d	d	n/a
426.443	0.105	852886	keystroke_Key.enter	Key.enter	n/a
426.5705	13.735	853141	prompt	n/a	grand report sterling shouldn't've\n
427.298	0.061	854596	keystroke_g	g	n/a
427.493	0.091	854986	keystroke_r	r	n/a
427.539	0.134	855078	keystroke_a	a	n/a
427.688	0.121	855376	keystroke_n	n	n/a
427.809	0.104	855618	keystroke_d	d	n/a
427.898	0.15	855796	keystroke_Key.space	Key.space	n/a
428.109	0.119	856218	keystroke_r	r	n/a
428.184	0.15	856368	keystroke_e	e	n/a
428.348	0.136	856696	keystroke_p	p	n/a
428.409	0.179	856818	keystroke_o	o	n/a
428.558	0.09	857116	keystroke_r	r	n/a
428.753	0.09	857506	keystroke_t	t	n/a
428.903	0.15	857806	keystroke_Key.space	Key.space	n/a
429.623	0.075	859246	keystroke_s	s	n/a
429.683	0.255	859366	keystroke_t	t	n/a
430.088	0.135	860176	keystroke_e	e	n/a
430.193	0.135	860386	keystroke_r	r	n/a
430.418	0.165	860836	keystroke_l	l	n/a
430.553	0.195	861106	keystroke_i	i	n/a
430.688	0.18	861376	keystroke_n	n	n/a
430.853	0.105	861706	keystroke_g	g	n/a
430.988	0.15	861976	keystroke_Key.space	Key.space	n/a
431.288	0.12	862576	keystroke_s	s	n/a
431.378	0.12	862756	keystroke_h	h	n/a
431.438	0.195	862876	keystroke_o	o	n/a
431.603	0.12	863206	keystroke_u	u	n/a
432.593	0.165	865186	keystroke_l	l	n/a
432.968	0.12	865936	keystroke_d	d	n/a
433.118	0.135	866236	keystroke_n	n	n/a
433.209	0.1495	866418	keystroke_'	'	n/a
433.3735	0.09	866747	keystroke_t	t	n/a
434.153	0.106	868306	keystroke_v	v	n/a
434.244	0.164	868488	keystroke_e	e	n/a
434.693	0.075	869386	keystroke_Key.backspace	Key.backspace	n/a
434.873	0.09	869746	keystroke_Key.backspace	Key.backspace	n/a
435.068	0.075	870136	keystroke_Key.backspace	Key.backspace	n/a
437.063	0.12	874126	keystroke_'	'	n/a
437.5725	0.09	875145	keystroke_Key.backspace	Key.backspace	n/a
437.6925	0.121	875385	keystroke_t	t	n/a
438.3685	0.135	876737	keystroke_'	'	n/a
438.8475	0.136	877695	keystroke_v	v	n/a
438.9685	0.165	877937	keystroke_e	e	n/a
440.183	0.12	880366	keystroke_Key.enter	Key.enter	n/a
440.3095	8.38	880619	prompt	n/a	potatoes hull floral evident\n
441.068	0.135	882136	keystroke_p	p	n/a
441.143	0.15	882286	keystroke_o	o	n/a
441.338	0.135	882676	keystroke_t	t	n/a
441.488	0.135	882976	keystroke_e	e	n/a
441.953	0.0895	883906	keystroke_Key.backspace	Key.backspace	n/a
442.0585	0.105	884117	keystroke_t	t	n/a
442.1475	0.151	884295	keystroke_a	a	n/a
442.5225	0.076	885045	keystroke_o	o	n/a
442.7475	0.075	885495	keystroke_Key.backspace	Key.backspace	n/a
442.9275	0.06	885855	keystroke_Key.backspace	Key.backspace	n/a
443.0475	0.12	886095	keystroke_Key.backspace	Key.backspace	n/a
443.1375	0.121	886275	keystroke_a	a	n/a
443.3775	0.0905	886755	keystroke_t	t	n/a
443.483	0.105	886966	keystroke_o	o	n/a
443.648	0.12	887296	keystroke_s	s	n/a
444.098	0.09	888196	keystroke_Key.backspace	Key.backspace	n/a
444.203	0.09	888406	keystroke_e	e	n/a
444.248	0.15	888496	keystroke_s	s	n/a
444.518	0.135	889036	keystroke_Key.space	Key.space	n/a
444.923	0.075	889846	keystroke_h	h	n/a
445.104	0.105	890208	keystroke_u	u	n/a
445.4935	0.075	890987	keystroke_l	l	n/a
445.6735	0.18	891347	keystroke_l	l	n/a
445.8085	0.135	891617	keystroke_Key.space	Key.space	n/a
446.3785	0.12	892757	keystroke_f	f	n/a
446.4685	0.09	892937	keystroke_l	l	n/a
446.6635	0.105	893327	keystroke_o	o	n/a
446.8135	0.1945	893627	keystroke_r	r	n/a
446.963	0.15	893926	keystroke_a	a	n/a
447.098	0.15	894196	keystroke_l	l	n/a
447.173	0.135	894346	keystroke_Key.space	Key.space	n/a
447.323	0.1355	894646	keystroke_e	e	n/a
447.5785	0.15	895157	keystroke_v	v	n/a
447.7425	0.121	895485	keystroke_i	i	n/a
447.9085	0.06	895817	keystroke_d	d	n/a
448.1035	0.075	896207	keystroke_e	e	n/a
448.2085	0.15	896417	keystroke_n	n	n/a
448.3435	0.135	896687	keystroke_t	t	n/a
448.5685	0.119	897137	keystroke_Key.enter	Key.enter	n/a
448.695	8.7855	897390	prompt	n/a	appreciated equipment how'll handheld\n
449.468	0.12	898936	keystroke_a	a	n/a
449.618	0.075	899236	keystroke_p	p	n/a
449.798	0.106	899596	keystroke_p	p	n/a
449.8585	0.104	899717	keystroke_r	r	n/a
449.933	0.105	899866	keystroke_e	e	n/a
450.2025	0.135	900405	keystroke_c	c	n/a
450.3835	0.119	900767	keystroke_i	i	n/a
450.4275	0.166	900855	keystroke_a	a	n/a
450.5785	0.105	901157	keystroke_t	t	n/a
450.6535	0.105	901307	keystroke_e	e	n/a
450.8785	0.105	901757	keystroke_d	d	n/a
451.0425	0.121	902085	keystroke_Key.space	Key.space	n/a
451.418	0.12	902836	keystroke_e	e	n/a
451.718	0.105	903436	keystroke_q	q	n/a
451.808	0.12	903616	keystroke_u	u	n/a
451.868	0.1655	903736	keystroke_i	i	n/a
452.2735	0.105	904547	keystroke_p	p	n/a
452.4975	0.106	904995	keystroke_m	m	n/a
452.6175	0.12	905235	keystroke_e	e	n/a
452.7675	0.075	905535	keystroke_n	n	n/a
452.8435	0.105	905687	keystroke_t	t	n/a
452.9625	0.12	905925	keystroke_Key.space	Key.space	n/a
453.2335	0.134	906467	keystroke_h	h	n/a
453.3225	0.1355	906645	keystroke_o	o	n/a
453.668	0.105	907336	keystroke_e	e	n/a
454.013	0.06	908026	keystroke_Key.backspace	Key.backspace	n/a
454.103	0.09	908206	keystroke_w	w	n/a
454.253	0.135	908506	keystroke_'	'	n/a
454.493	0.105	908986	keystroke_l	l	n/a
454.703	0.15	909406	keystroke_l	l	n/a
454.823	0.15	909646	keystroke_Key.space	Key.space	n/a
455.2285	0.0745	910457	keystroke_h	h	n/a
455.348	0.1055	910696	keystroke_a	a	n/a
455.4685	0.12	910937	keystroke_n	n	n/a
455.6035	0.12	911207	keystroke_d	d	n/a
456.5035	0.105	913007	keystroke_h	h	n/a
456.6685	0.12	913337	keystroke_e	e	n/a
456.8035	0.12	913607	keystroke_l	l	n/a
457.118	0.105	914236	keystroke_f	f	n/a
457.388	0.0905	914776	keystroke_Key.enter	Key.enter	n/a
457.485	20.7845	914970	prompt	n/a	podcasts algeria norfolk bandwidth\n
458.6035	0.105	917207	keystroke_p	p	n/a
458.8135	0.135	917627	keystroke_o	o	n/a
458.9335	0.12	917867	keystroke_d	d	n/a
459.3385	0.09	918677	keystroke_Key.backspace	Key.backspace	n/a
459.773	0.105	919546	keystroke_d	d	n/a
460.283	0.075	920566	keystroke_c	c	n/a
460.328	0.165	920656	keystroke_a	a	n/a
460.509	0.179	921018	keystroke_s	s	n/a
460.703	0.151	921406	keystroke_t	t	n/a
461.078	0.15	922156	keystroke_s	s	n/a
461.4385	0.15	922877	keystroke_Key.space	Key.space	n/a
461.8585	0.1195	923717	keystroke_a	a	n/a
462.083	0.15	924166	keystroke_l	l	n/a
462.368	0.09	924736	keystroke_g	g	n/a
462.848	0.165	925696	keystroke_e	e	n/a
462.968	0.135	925936	keystroke_r	r	n/a
463.223	0.15	926446	keystroke_a	a	n/a
463.463	0.135	926926	keystroke_Key.space	Key.space	n/a
464.018	0.15	928036	keystroke_n	n	n/a
464.108	0.18	928216	keystroke_o	o	n/a
464.258	0.12	928516	keystroke_r	r	n/a
465.068	0.075	930136	keystroke_Key.backspace	Key.backspace	n/a
465.248	0.09	930496	keystroke_Key.backspace	Key.backspace	n/a
465.428	0.09	930856	keystroke_Key.backspace	Key.backspace	n/a
465.623	0.075	931246	keystroke_Key.backspace	Key.backspace	n/a
465.803	0.06	931606	keystroke_Key.backspace	Key.backspace	n/a
465.968	0.09	931936	keystroke_Key.backspace	Key.backspace	n/a
467.0785	0.12	934157	keystroke_r	r	n/a
467.2435	0.12	934487	keystroke_i	i	n/a
467.3785	0.164	934757	keystroke_a	a	n/a
467.618	0.165	935236	keystroke_Key.space	Key.space	n/a
471.176	0.072	942352	keystroke_n	n	n/a
471.188	0.135	942376	keystroke_o	o	n/a
471.308	0.105	942616	keystroke_r	r	n/a
471.6985	0.105	943397	keystroke_f	f	n/a
471.7735	0.105	943547	keystroke_o	o	n/a
473.048	0.165	946096	keystroke_l	l	n/a
473.183	0.195	946366	keystroke_k	k	n/a
473.348	0.165	946696	keystroke_Key.space	Key.space	n/a
473.753	0.105	947506	keystroke_b	b	n/a
473.843	0.15	947686	keystroke_a	a	n/a
473.948	0.15	947896	keystroke_n	n	n/a
474.113	0.15	948226	keystroke_d	d	n/a
474.548	0.045	949096	keystroke_w	w	n/a
474.623	0.135	949246	keystroke_i	i	n/a
475.178	0.15	950356	keystroke_d	d	n/a
475.6885	0.105	951377	keystroke_t	t	n/a
475.8385	0.12	951677	keystroke_h	h	n/a
478.2115	0.056	956423	keystroke_Key.enter	Key.enter	n/a
478.285	8.7155	956570	prompt	n/a	dont expanded bent widescreen\n
478.9425	0.136	957885	keystroke_d	d	n/a
479.0335	0.15	958067	keystroke_o	o	n/a
479.1225	0.195	958245	keystroke_n	n	n/a
479.3785	0.059	958757	keystroke_t	t	n/a
479.873	0.105	959746	keystroke_Key.backspace	Key.backspace	n/a
480.354	0.104	960708	keystroke_t	t	n/a
480.473	0.1645	960946	keystroke_Key.space	Key.space	n/a
480.7425	0.0905	961485	keystroke_e	e	n/a
481.208	0.1645	962416	keystroke_x	x	n/a
481.4025	0.12	962805	keystroke_p	p	n/a
481.5535	0.12	963107	keystroke_a	a	n/a
481.6885	0.135	963377	keystroke_n	n	n/a
481.8985	0.1195	963797	keystroke_d	d	n/a
482.168	0.075	964336	keystroke_e	e	n/a
482.363	0.105	964726	keystroke_d	d	n/a
482.528	0.12	965056	keystroke_Key.space	Key.space	n/a
482.738	0.135	965476	keystroke_b	b	n/a
482.858	0.135	965716	keystroke_e	e	n/a
482.978	0.135	965956	keystroke_n	n	n/a
483.128	0.09	966256	keystroke_t	t	n/a
483.278	0.12	966556	keystroke_Key.space	Key.space	n/a
483.6375	0.091	967275	keystroke_w	w	n/a
483.7735	0.105	967547	keystroke_i	i	n/a
483.8925	0.136	967785	keystroke_d	d	n/a
485.0785	0.195	970157	keystroke_e	e	n/a
485.948	0.075	971896	keystroke_s	s	n/a
486.158	0.075	972316	keystroke_c	c	n/a
486.323	0.105	972646	keystroke_r	r	n/a
486.398	0.12	972796	keystroke_e	e	n/a
486.608	0.15	973216	keystroke_e	e	n/a
486.713	0.135	973426	keystroke_n	n	n/a
486.863	0.1345	973726	keystroke_Key.enter	Key.enter	n/a
487.006	6.3385	974012	prompt	n/a	bills commands hints consistent\n
487.793	0.105	975586	keystroke_b	b	n/a
487.913	0.12	975826	keystroke_i	i	n/a
488.003	0.09	976006	keystroke_l	l	n/a
488.168	0.165	976336	keystroke_l	l	n/a
488.288	0.12	976576	keystroke_s	s	n/a
488.423	0.12	976846	keystroke_Key.space	Key.space	n/a
488.678	0.135	977356	keystroke_c	c	n/a
488.828	0.12	977656	keystroke_o	o	n/a
488.918	0.075	977836	keystroke_m	m	n/a
489.053	0.105	978106	keystroke_m	m	n/a
489.443	0.1205	978886	keystroke_a	a	n/a
489.5485	0.119	979097	keystroke_n	n	n/a
489.6825	0.105	979365	keystroke_d	d	n/a
489.8625	0.135	979725	keystroke_s	s	n/a
490.0575	0.12	980115	keystroke_Key.space	Key.space	n/a
490.3125	0.135	980625	keystroke_h	h	n/a
490.3875	0.15	980775	keystroke_i	i	n/a
490.5975	0.15	981195	keystroke_n	n	n/a
490.7925	0.045	981585	keystroke_t	t	n/a
490.9125	0.12	981825	keystroke_s	s	n/a
491.0925	0.15	982185	keystroke_Key.space	Key.space	n/a
491.558	0.105	983116	keystroke_c	c	n/a
491.678	0.135	983356	keystroke_o	o	n/a
491.753	0.15	983506	keystroke_n	n	n/a
491.948	0.1055	983896	keystroke_s	s	n/a
492.0835	0.104	984167	keystroke_i	i	n/a
492.2035	0.075	984407	keystroke_s	s	n/a
492.4125	0.18	984825	keystroke_t	t	n/a
492.6235	0.134	985247	keystroke_e	e	n/a
492.8185	0.15	985637	keystroke_n	n	n/a
492.9535	0.135	985907	keystroke_t	t	n/a
493.2375	0.105	986475	keystroke_Key.enter	Key.enter	n/a
493.349	6.326	986698	prompt	n/a	acne styles luggage false\n
494.033	0.09	988066	keystroke_a	a	n/a
494.258	0.135	988516	keystroke_c	c	n/a
494.483	0.15	988966	keystroke_n	n	n/a
494.738	0.12	989476	keystroke_e	e	n/a
494.933	0.1355	989866	keystroke_Key.space	Key.space	n/a
495.278	0.12	990556	keystroke_s	s	n/a
495.4585	0.12	990917	keystroke_t	t	n/a
495.6235	0.135	991247	keystroke_y	y	n/a
495.6835	0.18	991367	keystroke_l	l	n/a
495.8785	0.134	991757	keystroke_e	e	n/a
495.9835	0.15	991967	keystroke_s	s	n/a
496.3425	0.136	992685	keystroke_Key.space	Key.space	n/a
496.7185	0.1495	993437	keystroke_l	l	n/a
497.0175	0.105	994035	keystroke_u	u	n/a
497.273	0.0595	994546	keystroke_g	g	n/a
497.4825	0.0755	994965	keystroke_g	g	n/a
497.603	0.1205	995206	keystroke_a	a	n/a
497.738	0.105	995476	keystroke_g	g	n/a
497.828	0.12	995656	keystroke_e	e	n/a
498.008	0.15	996016	keystroke_Key.space	Key.space	n/a
498.728	0.135	997456	keystroke_f	f	n/a
498.818	0.12	997636	keystroke_a	a	n/a
498.968	0.15	997936	keystroke_l	l	n/a
499.253	0.15	998506	keystroke_s	s	n/a
499.388	0.12	998776	keystroke_t	t	n/a
499.568	0.105	999136	keystroke_Key.enter	Key.enter	n/a
499.68	9.52	999360	prompt	n/a	votes italy upgrade lawn\n
500.438	0.105	1000876	keystroke_v	v	n/a
500.558	0.12	1001116	keystroke_o	o	n/a
500.693	0.136	1001386	keystroke_t	t	n/a
500.813	0.15	1001626	keystroke_e	e	n/a
500.948	0.15	1001896	keystroke_s	s	n/a
501.203	0.12	1002406	keystroke_Key.space	Key.space	n/a
501.803	0.075	1003606	keystroke_i	i	n/a
501.908	0.105	1003816	keystroke_t	t	n/a
501.998	0.135	1003996	keystroke_a	a	n/a
502.118	0.165	1004236	keystroke_l	l	n/a
502.253	0.135	1004506	keystroke_y	y	n/a
502.328	0.15	1004656	keystroke_Key.space	Key.space	n/a
502.598	0.12	1005196	keystroke_u	u	n/a
502.763	0.091	1005526	keystroke_r	r	n/a
503.303	0.06	1006606	keystroke_g	g	n/a
503.483	0.105	1006966	keystroke_r	r	n/a
503.558	0.135	1007116	keystroke_a	a	n/a
504.038	0.09	1008076	keystroke_d	d	n/a
504.263	0.12	1008526	keystroke_Key.space	Key.space	n/a
504.458	0.15	1008916	keystroke_l	l	n/a
504.578	0.105	1009156	keystroke_a	a	n/a
504.833	0.135	1009666	keystroke_w	w	n/a
505.058	0.15	1010116	keystroke_n	n	n/a
505.9585	0.09	1011917	keystroke_Key.backspace	Key.backspace	n/a
506.1385	0.09	1012277	keystroke_Key.backspace	Key.backspace	n/a
506.3035	0.089	1012607	keystroke_Key.backspace	Key.backspace	n/a
506.4835	0.075	1012967	keystroke_Key.backspace	Key.backspace	n/a
506.8735	0.1045	1013747	keystroke_Key.backspace	Key.backspace	n/a
507.023	0.12	1014046	keystroke_e	e	n/a
507.443	0.135	1014886	keystroke_Key.space	Key.space	n/a
507.698	0.12	1015396	keystroke_l	l	n/a
507.803	0.12	1015606	keystroke_a	a	n/a
507.923	0.15	1015846	keystroke_n	n	n/a
508.118	0.105	1016236	keystroke_w	w	n/a
508.328	0.075	1016656	keystroke_Key.backspace	Key.backspace	n/a
508.463	0.105	1016926	keystroke_Key.backspace	Key.backspace	n/a
508.583	0.12	1017166	keystroke_w	w	n/a
508.823	0.105	1017646	keystroke_n	n	n/a
509.093	0.105	1018186	keystroke_Key.enter	Key.enter	n/a
509.205	10.5395	1018410	prompt	n/a	belt mineral intellectual classifieds\n
510.0985	0.12	1020197	keystroke_b	b	n/a
510.2035	0.105	1020407	keystroke_e	e	n/a
510.2935	0.15	1020587	keystroke_l	l	n/a
510.5035	0.12	1021007	keystroke_t	t	n/a
510.7125	0.121	1021425	keystroke_Key.space	Key.space	n/a
510.9385	0.15	1021877	keystroke_m	m	n/a
511.0735	0.165	1022147	keystroke_i	i	n/a
511.2085	0.15	1022417	keystroke_n	n	n/a
511.6725	0.135	1023345	keystroke_e	e	n/a
511.8375	0.1955	1023675	keystroke_r	r	n/a
512.213	0.135	1024426	keystroke_a	a	n/a
512.333	0.15	1024666	keystroke_l	l	n/a
512.408	0.135	1024816	keystroke_Key.space	Key.space	n/a
512.708	0.15	1025416	keystroke_i	i	n/a
512.783	0.165	1025566	keystroke_n	n	n/a
513.098	0.105	1026196	keystroke_t	t	n/a
513.173	0.15	1026346	keystroke_e	e	n/a
513.383	0.135	1026766	keystroke_l	l	n/a
513.743	0.1195	1027486	keystroke_l	l	n/a
513.8475	0.09	1027695	keystroke_e	e	n/a
514.1035	0.104	1028207	keystroke_c	c	n/a
514.3575	0.075	1028715	keystroke_t	t	n/a
514.4925	0.12	1028985	keystroke_u	u	n/a
514.7035	0.209	1029407	keystroke_a	a	n/a
515.0775	0.135	1030155	keystroke_l	l	n/a
515.1675	0.15	1030335	keystroke_Key.space	Key.space	n/a
515.828	0.045	1031656	keystroke_a	a	n/a
516.218	0.075	1032436	keystroke_Key.backspace	Key.backspace	n/a
516.308	0.121	1032616	keystroke_c	c	n/a
516.473	0.12	1032946	keystroke_l	l	n/a
516.578	0.105	1033156	keystroke_a	a	n/a
516.803	0.075	1033606	keystroke_s	s	n/a
516.968	0.105	1033936	keystroke_s	s	n/a
517.088	0.12	1034176	keystroke_i	i	n/a
517.313	0.105	1034626	keystroke_f	f	n/a
517.433	0.09	1034866	keystroke_i	i	n/a
517.583	0.105	1035166	keystroke_c	c	n/a
518.243	0.105	1036486	keystroke_Key.backspace	Key.backspace	n/a
518.333	0.075	1036666	keystroke_e	e	n/a
518.543	0.09	1037086	keystroke_d	d	n/a
518.708	0.105	1037416	keystroke_s	s	n/a
519.6985	0.045	1039397	keystroke_Key.enter	Key.enter	n/a
519.751	12.654	1039502	prompt	n/a	alberta activists camera representation\n
520.538	0.135	1041076	keystroke_a	a	n/a
520.688	0.195	1041376	keystroke_l	l	n/a
521.018	0.105	1042036	keystroke_b	b	n/a
521.168	0.165	1042336	keystroke_e	e	n/a
521.303	0.09	1042606	keystroke_r	r	n/a
521.528	0.1355	1043056	keystroke_t	t	n/a
521.6485	0.135	1043297	keystroke_a	a	n/a
521.7975	0.151	1043595	keystroke_Key.space	Key.space	n/a
521.9635	0.1045	1043927	keystroke_a	a	n/a
522.143	0.12	1044286	keystroke_c	c	n/a
522.383	0.09	1044766	keystroke_t	t	n/a
522.578	0.09	1045156	keystroke_i	i	n/a
522.683	0.135	1045366	keystroke_v	v	n/a
522.833	0.105	1045666	keystroke_i	i	n/a
522.983	0.105	1045966	keystroke_t	t	n/a
523.463	0.3755	1046926	keystroke_Key.backspace	Key.backspace	n/a
526.5255	0.042	1053051	keystroke_s	s	n/a
526.5525	0.12	1053105	keystroke_t	t	n/a
526.9285	0.1345	1053857	keystroke_s	s	n/a
527.123	0.165	1054246	keystroke_Key.space	Key.space	n/a
527.513	0.09	1055026	keystroke_c	c	n/a
527.588	0.0895	1055176	keystroke_a	a	n/a
527.798	0.1495	1055596	keystroke_m	m	n/a
527.9625	0.15	1055925	keystroke_e	e	n/a
528.0975	0.1815	1056195	keystroke_r	r	n/a
528.443	0.15	1056886	keystroke_a	a	n/a
528.6825	0.1205	1057365	keystroke_Key.space	Key.space	n/a
528.9975	0.165	1057995	keystroke_r	r	n/a
529.118	0.135	1058236	keystroke_e	e	n/a
529.2675	0.105	1058535	keystroke_p	p	n/a
529.4035	0.134	1058807	keystroke_r	r	n/a
529.4775	0.15	1058955	keystroke_e	e	n/a
529.5835	0.2245	1059167	keystroke_s	s	n/a
530.229	0.134	1060458	keystroke_n	n	n/a
530.753	0.075	1061506	keystroke_Key.backspace	Key.backspace	n/a
531.233	0.12	1062466	keystroke_e	e	n/a
531.368	0.075	1062736	keystroke_n	n	n/a
531.533	0.075	1063066	keystroke_t	t	n/a
531.593	0.1495	1063186	keystroke_a	a	n/a
531.7285	0.149	1063457	keystroke_t	t	n/a
531.8625	0.106	1063725	keystroke_i	i	n/a
531.9375	0.136	1063875	keystroke_o	o	n/a
531.9835	0.18	1063967	keystroke_n	n	n/a
532.2835	0.12	1064567	keystroke_Key.enter	Key.enter	n/a
532.41	7.854	1064820	prompt	n/a	unsigned copies posts sticks\n
533.0935	0.12	1066187	keystroke_u	u	n/a
533.3185	0.09	1066637	keystroke_r	r	n/a
533.4835	0.09	1066967	keystroke_n	n	n/a
533.7525	0.075	1067505	keystroke_Key.backspace	Key.backspace	n/a
533.8875	0.075	1067775	keystroke_Key.backspace	Key.backspace	n/a
534.0985	0.089	1068197	keystroke_n	n	n/a
534.3375	0.105	1068675	keystroke_s	s	n/a
534.3985	0.089	1068797	keystroke_i	i	n/a
534.5325	0.12	1069065	keystroke_g	g	n/a
534.6375	0.135	1069275	keystroke_n	n	n/a
534.7575	0.075	1069515	keystroke_e	e	n/a
534.9675	0.105	1069935	keystroke_d	d	n/a
535.1325	0.135	1070265	keystroke_Key.space	Key.space	n/a
535.4785	0.104	1070957	keystroke_c	c	n/a
535.5375	0.105	1071075	keystroke_o	o	n/a
535.7025	0.1655	1071405	keystroke_p	p	n/a
535.883	0.165	1071766	keystroke_i	i	n/a
535.973	0.135	1071946	keystroke_e	e	n/a
536.078	0.15	1072156	keystroke_s	s	n/a
536.243	0.135	1072486	keystroke_Key.space	Key.space	n/a
536.513	0.12	1073026	keystroke_s	s	n/a
536.603	0.18	1073206	keystroke_p	p	n/a
536.708	0.135	1073416	keystroke_o	o	n/a
536.9775	0.075	1073955	keystroke_Key.backspace	Key.backspace	n/a
537.1285	0.089	1074257	keystroke_Key.backspace	Key.backspace	n/a
537.2775	0.076	1074555	keystroke_Key.backspace	Key.backspace	n/a
537.4875	0.15	1074975	keystroke_p	p	n/a
537.5925	0.136	1075185	keystroke_o	o	n/a
537.6535	0.1195	1075307	keystroke_s	s	n/a
537.758	0.09	1075516	keystroke_t	t	n/a
537.908	0.12	1075816	keystroke_s	s	n/a
538.163	0.135	1076326	keystroke_Key.space	Key.space	n/a
538.493	0.12	1076986	keystroke_s	s	n/a
538.763	0.135	1077526	keystroke_t	t	n/a
538.928	0.15	1077856	keystroke_i	i	n/a
539.123	0.12	1078246	keystroke_c	c	n/a
539.273	0.18	1078546	keystroke_k	k	n/a
539.618	0.15	1079236	keystroke_s	s	n/a
540.158	0.105	1080316	keystroke_Key.enter	Key.enter	n/a
540.2695	7.06	1080539	prompt	n/a	miracle directions grow ecology\n
540.938	0.15	1081876	keystroke_m	m	n/a
541.058	0.135	1082116	keystroke_i	i	n/a
541.283	0.15	1082566	keystroke_r	r	n/a
541.448	0.09	1082896	keystroke_a	a	n/a
541.958	0.135	1083916	keystroke_c	c	n/a
542.078	0.18	1084156	keystroke_l	l	n/a
542.243	0.105	1084486	keystroke_e	e	n/a
542.4075	0.135	1084815	keystroke_Key.space	Key.space	n/a
542.604	0.1185	1085208	keystroke_d	d	n/a
542.7075	0.1205	1085415	keystroke_i	i	n/a
542.8575	0.09	1085715	keystroke_r	r	n/a
542.9025	0.105	1085805	keystroke_e	e	n/a
543.1275	0.0755	1086255	keystroke_c	c	n/a
543.3225	0.075	1086645	keystroke_t	t	n/a
543.5175	0.15	1087035	keystroke_i	i	n/a
543.6225	0.2405	1087245	keystroke_o	o	n/a
543.818	0.165	1087636	keystroke_n	n	n/a
543.967	0.121	1087934	keystroke_Key.space	Key.space	n/a
544.043	0.135	1088086	keystroke_s	s	n/a
544.388	0.075	1088776	keystroke_Key.backspace	Key.backspace	n/a
544.537	0.106	1089074	keystroke_Key.backspace	Key.backspace	n/a
544.628	0.12	1089256	keystroke_s	s	n/a
544.763	0.149	1089526	keystroke_Key.space	Key.space	n/a
545.108	0.06	1090216	keystroke_g	g	n/a
545.318	0.06	1090636	keystroke_r	r	n/a
545.393	0.105	1090786	keystroke_o	o	n/a
545.498	0.105	1090996	keystroke_w	w	n/a
545.648	0.1345	1091296	keystroke_Key.space	Key.space	n/a
545.9035	0.12	1091807	keystroke_e	e	n/a
546.2935	0.09	1092587	keystroke_c	c	n/a
546.3985	0.075	1092797	keystroke_o	o	n/a
546.5925	0.075	1093185	keystroke_l	l	n/a
546.7575	0.135	1093515	keystroke_o	o	n/a
546.8935	0.1045	1093787	keystroke_g	g	n/a
547.013	0.09	1094026	keystroke_y	y	n/a
547.223	0.105	1094446	keystroke_Key.enter	Key.enter	n/a
547.3345	8.215	1094669	prompt	n/a	wheat increase culture constructed\n
548.0335	0.09	1096067	keystroke_w	w	n/a
548.1385	0.09	1096277	keystroke_h	h	n/a
548.2425	0.166	1096485	keystroke_e	e	n/a
548.3625	0.136	1096725	keystroke_a	a	n/a
548.5135	0.09	1097027	keystroke_t	t	n/a
549.0675	0.12	1098135	keystroke_Key.space	Key.space	n/a
549.2935	0.18	1098587	keystroke_i	i	n/a
549.3835	0.134	1098767	keystroke_n	n	n/a
549.5035	0.075	1099007	keystroke_c	c	n/a
549.7125	0.0905	1099425	keystroke_r	r	n/a
549.788	0.09	1099576	keystroke_e	e	n/a
549.863	0.135	1099726	keystroke_a	a	n/a
550.088	0.195	1100176	keystroke_s	s	n/a
550.298	0.165	1100596	keystroke_e	e	n/a
550.718	0.105	1101436	keystroke_Key.space	Key.space	n/a
551.183	0.09	1102366	keystroke_c	c	n/a
551.258	0.12	1102516	keystroke_u	u	n/a
551.348	0.105	1102696	keystroke_l	l	n/a
551.438	0.09	1102876	keystroke_t	t	n/a
551.573	0.12	1103146	keystroke_u	u	n/a
551.678	0.09	1103356	keystroke_r	r	n/a
551.738	0.12	1103476	keystroke_e	e	n/a
551.888	0.1495	1103776	keystroke_Key.space	Key.space	n/a
552.1425	0.09	1104285	keystroke_c	c	n/a
552.2025	0.15	1104405	keystroke_o	o	n/a
552.2775	0.165	1104555	keystroke_n	n	n/a
552.4575	0.105	1104915	keystroke_s	s	n/a
552.6525	0.165	1105305	keystroke_i	i	n/a
553.2525	0.09	1106505	keystroke_Key.backspace	Key.backspace	n/a
553.3735	0.06	1106747	keystroke_t	t	n/a
553.5525	0.135	1107105	keystroke_r	r	n/a
553.6885	0.1495	1107377	keystroke_u	u	n/a
554.543	0.09	1109086	keystroke_c	c	n/a
554.768	0.09	1109536	keystroke_t	t	n/a
554.873	0.12	1109746	keystroke_e	e	n/a
555.113	0.12	1110226	keystroke_d	d	n/a
555.443	0.105	1110886	keystroke_Key.enter	Key.enter	n/a
555.5555	6.624	1111111	prompt	n/a	moves pontiac pipe toshiba\n
556.253	0.12	1112506	keystroke_m	m	n/a
556.358	0.135	1112716	keystroke_o	o	n/a
556.448	0.105	1112896	keystroke_v	v	n/a
556.538	0.12	1113076	keystroke_e	e	n/a
556.688	0.12	1113376	keystroke_s	s	n/a
556.838	0.1345	1113676	keystroke_Key.space	Key.space	n/a
557.4235	0.059	1114847	keystroke_p	p	n/a
557.4525	0.21	1114905	keystroke_o	o	n/a
557.5875	0.135	1115175	keystroke_n	n	n/a
557.8125	0.09	1115625	keystroke_t	t	n/a
557.9475	0.105	1115895	keystroke_i	i	n/a
558.113	0.0895	1116226	keystroke_a	a	n/a
558.323	0.1495	1116646	keystroke_c	c	n/a
