onset	duration	sample	value	key	prompt_text
1.2	17.74	2400	prompt	n/a	the quick brown fox jumps over a lazy dog\n
9.9695	0.011	19939	keystroke_t	t	n/a
9.9695	0.101	19939	keystroke_h	h	n/a
10.0865	0.12	20173	keystroke_e	e	n/a
10.5205	0.121	21041	keystroke_Key.space	Key.space	n/a
10.656	0.1055	21312	keystroke_q	q	n/a
10.8215	0.1045	21643	keystroke_u	u	n/a
10.927	0.134	21854	keystroke_i	i	n/a
11.0765	0.12	22153	keystroke_c	c	n/a
11.2115	0.135	22423	keystroke_k	k	n/a
11.3615	0.0895	22723	keystroke_Key.space	Key.space	n/a
11.586	0.135	23172	keystroke_b	b	n/a
11.886	0.0445	23772	keystroke_r	r	n/a
12.0355	0.1055	24071	keystroke_w	w	n/a
12.156	0.135	24312	keystroke_o	o	n/a
12.456	0.09	24912	keystroke_Key.backspace	Key.backspace	n/a
12.621	0.0745	25242	keystroke_Key.backspace	Key.backspace	n/a
12.8605	0.091	25721	keystroke_o	o	n/a
13.0265	0.089	26053	keystroke_w	w	n/a
13.1315	0.075	26263	keystroke_n	n	n/a
13.3565	0.1045	26713	keystroke_Key.space	Key.space	n/a
13.551	0.1055	27102	keystroke_f	f	n/a
13.7165	0.15	27433	keystroke_o	o	n/a
13.882	0.1045	27764	keystroke_x	x	n/a
14.0465	0.075	28093	keystroke_Key.space	Key.space	n/a
14.1065	0.0745	28213	keystroke_j	j	n/a
14.2715	0.0895	28543	keystroke_u	u	n/a
14.4665	0.135	28933	keystroke_m	m	n/a
14.6165	0.09	29233	keystroke_p	p	n/a
14.721	0.1055	29442	keystroke_s	s	n/a
14.9015	0.105	29803	keystroke_Key.space	Key.space	n/a
15.0665	0.135	30133	keystroke_o	o	n/a
15.1565	0.09	30313	keystroke_v	v	n/a
15.4565	0.015	30913	keystroke_e	e	n/a
15.5165	0.12	31033	keystroke_Key.space	Key.space	n/a
15.8615	0.105	31723	keystroke_Key.backspace	Key.backspace	n/a
15.9515	0.12	31903	keystroke_r	r	n/a
16.1015	0.135	32203	keystroke_Key.space	Key.space	n/a
16.2815	0.165	32563	keystroke_a	a	n/a
16.431	0.105	32862	keystroke_Key.space	Key.space	n/a
16.7465	0.12	33493	keystroke_l	l	n/a
17.107	0.134	34214	keystroke_z	z	n/a
17.4815	0.09	34963	keystroke_Key.backspace	Key.backspace	n/a
17.5115	0.09	35023	keystroke_a	a	n/a
17.6615	0.105	35323	keystroke_z	z	n/a
17.9615	0.105	35923	keystroke_y	y	n/a
18.1115	0.06	36223	keystroke_Key.space	Key.space	n/a
18.3065	0.105	36613	keystroke_d	d	n/a
18.3965	0.105	36793	keystroke_o	o	n/a
18.6215	0.0895	37243	keystroke_g	g	n/a
18.831	0.105	37662	keystroke_Key.enter	Key.enter	n/a
18.9475	12.0205	37895	prompt	n/a	themselves diffs creature giants\n
19.5065	0.0445	39013	keystroke_t	t	n/a
19.536	0.09	39072	keystroke_h	h	n/a
19.641	0.105	39282	keystroke_e	e	n/a
19.761	0.12	39522	keystroke_m	m	n/a
20.0315	0.089	40063	keystroke_s	s	n/a
20.1815	0.09	40363	keystroke_e	e	n/a
20.3315	0.18	40663	keystroke_l	l	n/a
20.4215	0.165	40843	keystroke_i	i	n/a
20.5265	0.06	41053	keystroke_v	v	n/a
20.6015	0.075	41203	keystroke_e	e	n/a
20.7815	0.105	41563	keystroke_s	s	n/a
20.9015	0.09	41803	keystroke_Key.space	Key.space	n/a
21.2015	0.075	42403	keystroke_d	d	n/a
21.4705	0.075	42941	keystroke_Key.backspace	Key.backspace	n/a
21.6065	0.074	43213	keystroke_Key.backspace	Key.backspace	n/a
21.7405	0.09	43481	keystroke_Key.backspace	Key.backspace	n/a
21.8905	0.06	43781	keystroke_Key.backspace	Key.backspace	n/a
22.0255	0.075	44051	keystroke_Key.backspace	Key.backspace	n/a
22.1615	0.1045	44323	keystroke_Key.backspace	Key.backspace	n/a
22.236	0.09	44472	keystroke_e	e	n/a
22.416	0.09	44832	keystroke_s	s	n/a
22.746	0.1045	45492	keystroke_Key.backspace	Key.backspace	n/a
22.8355	0.076	45671	keystroke_v	v	n/a
23.2715	0.1195	46543	keystroke_e	e	n/a
23.511	0.09	47022	keystroke_s	s	n/a
23.826	0.075	47652	keystroke_Key.backspace	Key.backspace	n/a
23.976	0.075	47952	keystroke_Key.backspace	Key.backspace	n/a
24.111	0.075	48222	keystroke_Key.backspace	Key.backspace	n/a
24.246	0.09	48492	keystroke_Key.backspace	Key.backspace	n/a
24.456	0.09	48912	keystroke_v	v	n/a
24.561	0.105	49122	keystroke_e	e	n/a
24.726	0.12	49452	keystroke_s	s	n/a
24.9055	0.09	49811	keystroke_Key.space	Key.space	n/a
25.191	0.09	50382	keystroke_d	d	n/a
25.326	0.12	50652	keystroke_i	i	n/a
25.416	0.0745	50832	keystroke_f	f	n/a
25.5805	0.076	51161	keystroke_f	f	n/a
25.7765	0.105	51553	keystroke_s	s	n/a
26.226	0.075	52452	keystroke_Key.backspace	Key.backspace	n/a
26.361	0.0755	52722	keystroke_Key.backspace	Key.backspace	n/a
26.4965	0.105	52993	keystroke_Key.backspace	Key.backspace	n/a
26.886	0.09	53772	keystroke_f	f	n/a
27.066	0.09	54132	keystroke_f	f	n/a
27.2465	0.12	54493	keystroke_s	s	n/a
27.3965	0.105	54793	keystroke_Key.space	Key.space	n/a
27.8465	0.12	55693	keystroke_c	c	n/a
28.1015	0.09	56203	keystroke_r	r	n/a
28.1615	0.135	56323	keystroke_e	e	n/a
28.3565	0.09	56713	keystroke_a	a	n/a
28.5065	0.09	57013	keystroke_t	t	n/a
28.6715	0.12	57343	keystroke_u	u	n/a
28.7765	0.1045	57553	keystroke_r	r	n/a
28.851	0.135	57702	keystroke_e	e	n/a
29.346	0.105	58692	keystroke_Key.space	Key.space	n/a
29.691	0.0905	59382	keystroke_g	g	n/a
29.8115	0.105	59623	keystroke_i	i	n/a
30.022	0.104	60044	keystroke_a	a	n/a
30.396	0.105	60792	keystroke_n	n	n/a
30.472	0.089	60944	keystroke_t	t	n/a
30.651	0.106	61302	keystroke_s	s	n/a
30.861	0.105	61722	keystroke_Key.enter	Key.enter	n/a
30.9755	11.033	61951	prompt	n/a	lowest newer astrology synthesis\n
31.582	0.075	63164	keystroke_l	l	n/a
31.746	0.12	63492	keystroke_o	o	n/a
31.822	0.089	63644	keystroke_w	w	n/a
31.927	0.119	63854	keystroke_e	e	n/a
32.121	0.105	64242	keystroke_s	s	n/a
32.331	0.076	64662	keystroke_t	t	n/a
32.526	0.105	65052	keystroke_Key.space	Key.space	n/a
32.871	0.105	65742	keystroke_n	n	n/a
32.991	0.12	65982	keystroke_e	e	n/a
33.171	0.09	66342	keystroke_w	w	n/a
33.411	0.135	66822	keystroke_e	e	n/a
33.576	0.105	67152	keystroke_r	r	n/a
33.771	0.09	67542	keystroke_Key.space	Key.space	n/a
34.0415	0.105	68083	keystroke_a	a	n/a
34.2815	0.09	68563	keystroke_s	s	n/a
34.5665	0.0895	69133	keystroke_t	t	n/a
35.136	0.1205	70272	keystroke_r	r	n/a
35.6165	0.105	71233	keystroke_o	o	n/a
35.9465	0.12	71893	keystroke_l	l	n/a
36.1715	0.105	72343	keystroke_o	o	n/a
36.5915	0.09	73183	keystroke_g	g	n/a
36.8465	0.105	73693	keystroke_y	y	n/a
37.0715	0.075	74143	keystroke_Key.space	Key.space	n/a
37.5065	0.105	75013	keystroke_s	s	n/a
37.9565	0.09	75913	keystroke_y	y	n/a
38.316	0.09	76632	keystroke_n	n	n/a
38.556	0.075	77112	keystroke_t	t	n/a
38.736	0.12	77472	keystroke_h	h	n/a
38.871	0.0605	77742	keystroke_e	e	n/a
39.0065	0.105	78013	keystroke_s	s	n/a
39.1715	0.075	78343	keystroke_e	e	n/a
39.4855	0.06	78971	keystroke_Key.backspace	Key.backspace	n/a
39.6205	0.09	79241	keystroke_Key.backspace	Key.backspace	n/a
39.8165	0.105	79633	keystroke_i	i	n/a
39.9215	0.09	79843	keystroke_s	s	n/a
40.1015	0.075	80203	keystroke_e	e	n/a
40.746	0.075	81492	keystroke_Key.backspace	Key.backspace	n/a
40.896	0.09	81792	keystroke_Key.backspace	Key.backspace	n/a
41.106	0.06	82212	keystroke_Key.backspace	Key.backspace	n/a
41.391	0.09	82782	keystroke_s	s	n/a
41.496	0.15	82992	keystroke_i	i	n/a
41.631	0.075	83262	keystroke_s	s	n/a
41.886	0.12	83772	keystroke_Key.enter	Key.enter	n/a
42.0145	9.129	84029	prompt	n/a	divorce sixth portions nursery\n
42.577	0.089	85154	keystroke_a	a	n/a
42.816	0.06	85632	keystroke_Key.backspace	Key.backspace	n/a
42.922	0.12	85844	keystroke_d	d	n/a
43.026	0.106	86052	keystroke_i	i	n/a
43.161	0.091	86322	keystroke_v	v	n/a
43.296	0.136	86592	keystroke_e	e	n/a
44.286	0.06	88572	keystroke_Key.backspace	Key.backspace	n/a
44.466	0.09	88932	keystroke_o	o	n/a
44.572	0.06	89144	keystroke_r	r	n/a
44.857	0.09	89714	keystroke_c	c	n/a
45.066	0.106	90132	keystroke_e	e	n/a
45.201	0.105	90402	keystroke_Key.space	Key.space	n/a
45.352	0.105	90704	keystroke_s	s	n/a
45.502	0.09	91004	keystroke_i	i	n/a
45.741	0.12	91482	keystroke_x	x	n/a
46.161	0.105	92322	keystroke_t	t	n/a
46.296	0.09	92592	keystroke_h	h	n/a
46.431	0.105	92862	keystroke_Key.space	Key.space	n/a
46.702	0.075	93404	keystroke_p	p	n/a
47.016	0.091	94032	keystroke_o	o	n/a
47.3465	0.0445	94693	keystroke_t	t	n/a
47.631	0.0595	95262	keystroke_Key.backspace	Key.backspace	n/a
47.7365	0.09	95473	keystroke_r	r	n/a
47.9465	0.09	95893	keystroke_t	t	n/a
48.0955	0.286	96191	keystroke_i	i	n/a
48.2155	0.151	96431	keystroke_o	o	n/a
48.2905	0.1365	96581	keystroke_n	n	n/a
49.0105	0.1515	98021	keystroke_s	s	n/a
49.1755	0.1055	98351	keystroke_Key.space	Key.space	n/a
49.371	0.09	98742	keystroke_n	n	n/a
49.746	0.09	99492	keystroke_u	u	n/a
49.881	0.135	99762	keystroke_r	r	n/a
50.226	0.075	100452	keystroke_s	s	n/a
50.391	0.105	100782	keystroke_e	e	n/a
50.556	0.105	101112	keystroke_r	r	n/a
50.826	0.09	101652	keystroke_y	y	n/a
51.006	0.1345	102012	keystroke_Key.enter	Key.enter	n/a
51.1495	8.304	102299	prompt	n/a	publicity limousines hart follows\n
51.6815	0.135	103363	keystroke_p	p	n/a
51.9215	0.089	103843	keystroke_u	u	n/a
52.2965	0.06	104593	keystroke_b	b	n/a
52.4165	0.149	104833	keystroke_l	l	n/a
52.5065	0.149	105013	keystroke_i	i	n/a
52.7465	0.12	105493	keystroke_c	c	n/a
52.9565	0.15	105913	keystroke_i	i	n/a
53.1665	0.119	106333	keystroke_t	t	n/a
53.4065	0.09	106813	keystroke_y	y	n/a
53.5105	0.105	107021	keystroke_Key.space	Key.space	n/a
53.7355	0.135	107471	keystroke_l	l	n/a
53.8565	0.135	107713	keystroke_i	i	n/a
54.0655	0.15	108131	keystroke_m	m	n/a
54.3365	0.074	108673	keystroke_o	o	n/a
54.5305	0.091	109061	keystroke_u	u	n/a
55.1915	0.12	110383	keystroke_s	s	n/a
55.3415	0.105	110683	keystroke_i	i	n/a
55.9715	0.09	111943	keystroke_n	n	n/a
56.0765	0.075	112153	keystroke_e	e	n/a
56.2565	0.135	112513	keystroke_s	s	n/a
56.6315	0.135	113263	keystroke_Key.space	Key.space	n/a
56.8265	0.12	113653	keystroke_h	h	n/a
56.9315	0.09	113863	keystroke_a	a	n/a
57.1115	0.075	114223	keystroke_r	r	n/a
57.3065	0.105	114613	keystroke_t	t	n/a
57.456	0.105	114912	keystroke_Key.space	Key.space	n/a
57.862	0.089	115724	keystroke_f	f	n/a
58.131	0.075	116262	keystroke_o	o	n/a
58.326	0.045	116652	keystroke_l	l	n/a
58.461	0.075	116922	keystroke_l	l	n/a
58.611	0.135	117222	keystroke_o	o	n/a
58.716	0.075	117432	keystroke_w	w	n/a
58.911	0.105	117822	keystroke_s	s	n/a
59.331	0.12	118662	keystroke_Key.enter	Key.enter	n/a
59.459	8.0505	118918	prompt	n/a	diego caution exams sending\n
60.096	0.075	120192	keystroke_e	e	n/a
60.351	0.075	120702	keystroke_Key.backspace	Key.backspace	n/a
60.457	0.119	120914	keystroke_d	d	n/a
60.561	0.09	121122	keystroke_i	i	n/a
60.726	0.06	121452	keystroke_a	a	n/a
60.996	0.09	121992	keystroke_Key.backspace	Key.backspace	n/a
61.116	0.076	122232	keystroke_e	e	n/a
61.326	0.105	122652	keystroke_g	g	n/a
61.461	0.121	122922	keystroke_o	o	n/a
61.731	0.105	123462	keystroke_Key.space	Key.space	n/a
61.956	0.135	123912	keystroke_c	c	n/a
62.076	0.135	124152	keystroke_a	a	n/a
62.346	0.09	124692	keystroke_u	u	n/a
62.661	0.075	125322	keystroke_t	t	n/a
62.721	0.255	125442	keystroke_i	i	n/a
62.811	0.12	125622	keystroke_o	o	n/a
62.886	0.135	125772	keystroke_n	n	n/a
64.821	0.09	129642	keystroke_Key.space	Key.space	n/a
64.971	0.09	129942	keystroke_e	e	n/a
65.181	0.105	130362	keystroke_x	x	n/a
65.331	0.091	130662	keystroke_a	a	n/a
65.452	0.104	130904	keystroke_m	m	n/a
65.676	0.105	131352	keystroke_s	s	n/a
65.931	0.105	131862	keystroke_Key.space	Key.space	n/a
66.322	0.089	132644	keystroke_s	s	n/a
66.501	0.075	133002	keystroke_e	e	n/a
66.606	0.075	133212	keystroke_n	n	n/a
66.711	0.105	133422	keystroke_d	d	n/a
66.831	0.15	133662	keystroke_i	i	n/a
66.906	0.12	133812	keystroke_n	n	n/a
67.011	0.075	134022	keystroke_g	g	n/a
67.416	0.09	134832	keystroke_Key.enter	Key.enter	n/a
67.516	6.652	135032	prompt	n/a	love reflect purchase great\n
67.971	0.0905	135942	keystroke_l	l	n/a
68.1515	0.1355	136303	keystroke_o	o	n/a
68.241	0.09	136482	keystroke_v	v	n/a
68.376	0.135	136752	keystroke_e	e	n/a
68.601	0.091	137202	keystroke_Key.space	Key.space	n/a
68.931	0.09	137862	keystroke_r	r	n/a
69.066	0.12	138132	keystroke_e	e	n/a
69.366	0.15	138732	keystroke_f	f	n/a
69.501	0.1055	139002	keystroke_e	e	n/a
69.8765	0.075	139753	keystroke_Key.backspace	Key.backspace	n/a
70.1015	0.12	140203	keystroke_l	l	n/a
70.1765	0.09	140353	keystroke_e	e	n/a
70.3865	0.105	140773	keystroke_c	c	n/a
70.6415	0.105	141283	keystroke_t	t	n/a
70.7765	0.12	141553	keystroke_Key.space	Key.space	n/a
71.0315	0.105	142063	keystroke_p	p	n/a
71.2115	0.12	142423	keystroke_u	u	n/a
71.3465	0.09	142693	keystroke_r	r	n/a
71.6015	0.105	143203	keystroke_c	c	n/a
71.6915	0.105	143383	keystroke_h	h	n/a
72.1415	0.12	144283	keystroke_a	a	n/a
72.2465	0.105	144493	keystroke_s	s	n/a
72.4565	0.105	144913	keystroke_e	e	n/a
72.9515	0.06	145903	keystroke_Key.space	Key.space	n/a
73.1765	0.075	146353	keystroke_g	g	n/a
73.3565	0.075	146713	keystroke_r	r	n/a
73.4465	0.165	146893	keystroke_e	e	n/a
73.6115	0.135	147223	keystroke_a	a	n/a
73.7615	0.105	147523	keystroke_t	t	n/a
74.0015	0.165	148003	keystroke_Key.enter	Key.enter	n/a
74.1745	10.8835	148349	prompt	n/a	scotland peninsula affordable fortune\n
74.7965	0.105	149593	keystroke_s	s	n/a
75.2765	0.075	150553	keystroke_o	o	n/a
75.5315	0.09	151063	keystroke_Key.backspace	Key.backspace	n/a
75.6365	0.06	151273	keystroke_c	c	n/a
75.7415	0.105	151483	keystroke_o	o	n/a
75.9815	0.075	151963	keystroke_t	t	n/a
76.4165	0.105	152833	keystroke_l	l	n/a
76.6105	0.106	153221	keystroke_a	a	n/a
76.7765	0.105	153553	keystroke_n	n	n/a
76.9265	0.12	153853	keystroke_d	d	n/a
77.2855	0.105	154571	keystroke_Key.space	Key.space	n/a
77.511	0.0905	155022	keystroke_p	p	n/a
77.8115	0.105	155623	keystroke_e	e	n/a
77.9315	0.075	155863	keystroke_n	n	n/a
78.2015	0.09	156403	keystroke_i	i	n/a
78.5465	0.105	157093	keystroke_Key.backspace	Key.backspace	n/a
78.7565	0.09	157513	keystroke_n	n	n/a
78.9365	0.105	157873	keystroke_s	s	n/a
79.1015	0.06	158203	keystroke_u	u	n/a
79.2665	0.1055	158533	keystroke_l	l	n/a
79.461	0.105	158922	keystroke_a	a	n/a
79.656	0.12	159312	keystroke_Key.space	Key.space	n/a
79.881	0.045	159762	keystroke_a	a	n/a
80.136	0.09	160272	keystroke_f	f	n/a
80.301	0.12	160602	keystroke_f	f	n/a
80.466	0.1055	160932	keystroke_o	o	n/a
80.5865	0.09	161173	keystroke_r	r	n/a
80.9765	0.105	161953	keystroke_a	a	n/a
81.2315	0.075	162463	keystroke_Key.backspace	Key.backspace	n/a
81.2765	0.15	162553	keystroke_d	d	n/a
81.3815	0.105	162763	keystroke_a	a	n/a
81.6215	0.09	163243	keystroke_b	b	n/a
81.7115	0.135	163423	keystroke_l	l	n/a
81.8475	0.1185	163695	keystroke_e	e	n/a
81.9515	0.1195	163903	keystroke_Key.space	Key.space	n/a
82.191	0.12	164382	keystroke_f	f	n/a
82.326	0.105	164652	keystroke_o	o	n/a
82.416	0.1055	164832	keystroke_r	r	n/a
82.6715	0.075	165343	keystroke_t	t	n/a
82.8665	0.0895	165733	keystroke_u	u	n/a
83.076	0.09	166152	keystroke_n	n	n/a
83.196	0.09	166392	keystroke_e	e	n/a
84.936	0.12	169872	keystroke_Key.enter	Key.enter	n/a
85.0625	7.031	170125	prompt	n/a	at nicholas laura asin\n
85.566	0.12	171132	keystroke_a	a	n/a
85.791	0.105	171582	keystroke_t	t	n/a
85.941	0.135	171882	keystroke_Key.space	Key.space	n/a
86.316	0.12	172632	keystroke_n	n	n/a
86.646	0.09	173292	keystroke_i	i	n/a
86.916	0.15	173832	keystroke_c	c	n/a
87.456	0.105	174912	keystroke_h	h	n/a
87.621	0.105	175242	keystroke_o	o	n/a
87.831	0.135	175662	keystroke_l	l	n/a
87.952	0.134	175904	keystroke_a	a	n/a
88.131	0.12	176262	keystroke_s	s	n/a
88.326	0.12	176652	keystroke_Key.space	Key.space	n/a
89.436	0.135	178872	keystroke_l	l	n/a
89.947	0.149	179894	keystroke_a	a	n/a
90.141	0.12	180282	keystroke_u	u	n/a
90.366	0.105	180732	keystroke_r	r	n/a
90.606	0.12	181212	keystroke_a	a	n/a
90.771	0.105	181542	keystroke_Key.space	Key.space	n/a
90.996	0.135	181992	keystroke_a	a	n/a
91.102	0.104	182204	keystroke_s	s	n/a
91.236	0.135	182472	keystroke_i	i	n/a
91.447	0.134	182894	keystroke_n	n	n/a
91.9565	0.135	183913	keystroke_Key.enter	Key.enter	n/a
92.0985	6.1455	184197	prompt	n/a	loving derek norm graduated\n
92.6165	0.09	185233	keystroke_l	l	n/a
92.8115	0.075	185623	keystroke_o	o	n/a
92.9015	0.12	185803	keystroke_v	v	n/a
92.9915	0.15	185983	keystroke_i	i	n/a
93.0665	0.09	186133	keystroke_n	n	n/a
93.1415	0.105	186283	keystroke_g	g	n/a
93.2615	0.075	186523	keystroke_Key.space	Key.space	n/a
93.4115	0.12	186823	keystroke_d	d	n/a
93.6065	0.135	187213	keystroke_e	e	n/a
93.7565	0.105	187513	keystroke_r	r	n/a
93.8915	0.12	187783	keystroke_e	e	n/a
93.9965	0.135	187993	keystroke_k	k	n/a
94.1605	0.12	188321	keystroke_Key.space	Key.space	n/a
94.4305	0.091	188861	keystroke_n	n	n/a
94.5355	0.105	189071	keystroke_o	o	n/a
94.6555	0.105	189311	keystroke_r	r	n/a
94.7615	0.105	189523	keystroke_m	m	n/a
95.2705	0.106	190541	keystroke_Key.space	Key.space	n/a
95.526	0.1205	191052	keystroke_d	d	n/a
95.8115	0.105	191623	keystroke_r	r	n/a
96.276	0.045	192552	keystroke_Key.backspace	Key.backspace	n/a
96.411	0.06	192822	keystroke_Key.backspace	Key.backspace	n/a
96.561	0.06	193122	keystroke_g	g	n/a
96.711	0.09	193422	keystroke_r	r	n/a
96.921	0.12	193842	keystroke_a	a	n/a
97.221	0.135	194442	keystroke_d	d	n/a
97.341	0.09	194682	keystroke_u	u	n/a
97.461	0.075	194922	keystroke_a	a	n/a
97.626	0.09	195252	keystroke_t	t	n/a
97.761	0.12	195522	keystroke_e	e	n/a
97.956	0.12	195912	keystroke_d	d	n/a
98.106	0.135	196212	keystroke_Key.enter	Key.enter	n/a
98.2485	9.2045	196497	prompt	n/a	skirt missed bangkok colon\n
98.736	0.135	197472	keystroke_s	s	n/a
99.081	0.12	198162	keystroke_k	k	n/a
99.261	0.12	198522	keystroke_e	e	n/a
99.561	0.06	199122	keystroke_Key.backspace	Key.backspace	n/a
99.741	0.09	199482	keystroke_i	i	n/a
99.846	0.0905	199692	keystroke_r	r	n/a
100.0565	0.12	200113	keystroke_t	t	n/a
100.3705	0.121	200741	keystroke_Key.space	Key.space	n/a
100.4615	0.09	200923	keystroke_m	m	n/a
100.5805	0.121	201161	keystroke_i	i	n/a
100.6715	0.089	201343	keystroke_s	s	n/a
100.8665	0.045	201733	keystroke_s	s	n/a
101.0015	0.09	202003	keystroke_e	e	n/a
101.1665	0.15	202333	keystroke_d	d	n/a
101.3315	0.074	202663	keystroke_Key.space	Key.space	n/a
101.5265	0.0295	203053	keystroke_m	m	n/a
101.811	0.075	203622	keystroke_b	b	n/a
101.991	0.03	203982	keystroke_Key.backspace	Key.backspace	n/a
102.096	0.09	204192	keystroke_Key.backspace	Key.backspace	n/a
102.246	0.12	204492	keystroke_b	b	n/a
102.516	0.105	205032	keystroke_a	a	n/a
102.756	0.075	205512	keystroke_Key.backspace	Key.backspace	n/a
102.951	0.09	205902	keystroke_n	n	n/a
103.3265	0.105	206653	keystroke_a	a	n/a
103.5815	0.0595	207163	keystroke_Key.backspace	Key.backspace	n/a
103.716	0.09	207432	keystroke_Key.backspace	Key.backspace	n/a
103.8515	0.12	207703	keystroke_a	a	n/a
103.9415	0.075	207883	keystroke_n	n	n/a
104.0605	0.106	208121	keystroke_g	g	n/a
104.2105	0.15	208421	keystroke_k	k	n/a
104.4505	0.12	208901	keystroke_o	o	n/a
104.7215	0.12	209443	keystroke_k	k	n/a
104.9755	0.105	209951	keystroke_Key.space	Key.space	n/a
105.1705	0.121	210341	keystroke_c	c	n/a
105.2765	0.074	210553	keystroke_o	o	n/a
105.4555	0.105	210911	keystroke_l	l	n/a
105.5465	0.105	211093	keystroke_n	n	n/a
106.0555	0.075	212111	keystroke_Key.backspace	Key.backspace	n/a
106.386	0.165	212772	keystroke_o	o	n/a
106.536	0.09	213072	keystroke_n	n	n/a
107.331	0.12	214662	keystroke_Key.enter	Key.enter	n/a
107.4605	4.9125	214921	prompt	n/a	server kevin spider endif\n
107.917	0.089	215834	keystroke_s	s	n/a
108.111	0.105	216222	keystroke_e	e	n/a
108.276	0.091	216552	keystroke_r	r	n/a
108.471	0.09	216942	keystroke_v	v	n/a
108.591	0.15	217182	keystroke_e	e	n/a
108.711	0.105	217422	keystroke_r	r	n/a
108.846	0.075	217692	keystroke_Key.space	Key.space	n/a
108.906	0.15	217812	keystroke_k	k	n/a
109.041	0.105	218082	keystroke_e	e	n/a
109.206	0.0755	218412	keystroke_v	v	n/a
109.2965	0.18	218593	keystroke_i	i	n/a
109.4165	0.104	218833	keystroke_n	n	n/a
109.5355	0.105	219071	keystroke_Key.space	Key.space	n/a
109.7165	0.105	219433	keystroke_s	s	n/a
110.1355	0.075	220271	keystroke_p	p	n/a
110.3605	0.12	220721	keystroke_i	i	n/a
110.4965	0.089	220993	keystroke_d	d	n/a
110.6755	0.135	221351	keystroke_e	e	n/a
110.8255	0.12	221651	keystroke_r	r	n/a
111.0505	0.12	222101	keystroke_Key.space	Key.space	n/a
111.2305	0.12	222461	keystroke_e	e	n/a
111.5465	0.089	223093	keystroke_n	n	n/a
111.6965	0.12	223393	keystroke_d	d	n/a
111.8455	0.09	223691	keystroke_i	i	n/a
111.9955	0.106	223991	keystroke_f	f	n/a
112.2505	0.12	224501	keystroke_Key.enter	Key.enter	n/a
112.3785	5.9645	224757	prompt	n/a	limits letter hewlett yarn\n
112.9715	0.104	225943	keystroke_l	l	n/a
113.1205	0.121	226241	keystroke_i	i	n/a
113.2855	0.121	226571	keystroke_m	m	n/a
113.8865	0.105	227773	keystroke_i	i	n/a
114.0065	0.105	228013	keystroke_t	t	n/a
114.2755	0.106	228551	keystroke_s	s	n/a
114.426	0.105	228852	keystroke_Key.space	Key.space	n/a
114.532	0.149	229064	keystroke_l	l	n/a
114.636	0.12	229272	keystroke_e	e	n/a
114.816	0.075	229632	keystroke_t	t	n/a
114.996	0.06	229992	keystroke_t	t	n/a
115.116	0.195	230232	keystroke_e	e	n/a
115.221	0.06	230442	keystroke_r	r	n/a
115.296	0.105	230592	keystroke_Key.space	Key.space	n/a
115.806	0.12	231612	keystroke_h	h	n/a
115.941	0.075	231882	keystroke_e	e	n/a
116.196	0.075	232392	keystroke_w	w	n/a
116.451	0.12	232902	keystroke_l	l	n/a
116.526	0.135	233052	keystroke_e	e	n/a
116.706	0.09	233412	keystroke_t	t	n/a
116.901	0.075	233802	keystroke_t	t	n/a
117.021	0.105	234042	keystroke_Key.space	Key.space	n/a
117.306	0.075	234612	keystroke_y	y	n/a
117.501	0.12	235002	keystroke_a	a	n/a
117.636	0.1055	235272	keystroke_r	r	n/a
117.756	0.1355	235512	keystroke_n	n	n/a
118.2215	0.12	236443	keystroke_Key.enter	Key.enter	n/a
118.348	6.775	236696	prompt	n/a	killer austria plot flesh\n
118.9115	0.075	237823	keystroke_k	k	n/a
119.0915	0.06	238183	keystroke_i	i	n/a
119.2265	0.075	238453	keystroke_l	l	n/a
119.3765	0.12	238753	keystroke_l	l	n/a
119.4665	0.165	238933	keystroke_e	e	n/a
119.6165	0.105	239233	keystroke_r	r	n/a
119.7665	0.1195	239533	keystroke_Key.space	Key.space	n/a
119.961	0.15	239922	keystroke_a	a	n/a
120.186	0.09	240372	keystroke_u	u	n/a
120.261	0.09	240522	keystroke_s	s	n/a
120.576	0.075	241152	keystroke_t	t	n/a
120.756	0.06	241512	keystroke_r	r	n/a
120.921	0.09	241842	keystroke_i	i	n/a
121.056	0.135	242112	keystroke_a	a	n/a
121.311	0.09	242622	keystroke_Key.space	Key.space	n/a
121.416	0.135	242832	keystroke_l	l	n/a
121.671	0.09	243342	keystroke_o	o	n/a
121.911	0.09	243822	keystroke_t	t	n/a
122.691	0.06	245382	keystroke_Key.backspace	Key.backspace	n/a
122.826	0.0605	245652	keystroke_Key.backspace	Key.backspace	n/a
122.9465	0.105	245893	keystroke_Key.backspace	Key.backspace	n/a
123.2315	0.12	246463	keystroke_p	p	n/a
123.4265	0.105	246853	keystroke_l	l	n/a
123.6215	0.12	247243	keystroke_o	o	n/a
123.8015	0.12	247603	keystroke_t	t	n/a
123.9965	0.104	247993	keystroke_Key.space	Key.space	n/a
124.2065	0.09	248413	keystroke_f	f	n/a
124.3115	0.135	248623	keystroke_l	l	n/a
124.5215	0.075	249043	keystroke_e	e	n/a
124.7015	0.09	249403	keystroke_s	s	n/a
124.7755	0.121	249551	keystroke_h	h	n/a
124.9715	0.15	249943	keystroke_Key.enter	Key.enter	n/a
125.128	5.1855	250256	prompt	n/a	cambodia desire cutting rock\n
125.8265	0.12	251653	keystroke_c	c	n/a
125.9165	0.12	251833	keystroke_a	a	n/a
126.0665	0.089	252133	keystroke_m	m	n/a
126.4865	0.075	252973	keystroke_b	b	n/a
126.5765	0.105	253153	keystroke_o	o	n/a
126.7115	0.135	253423	keystroke_d	d	n/a
127.041	0.105	254082	keystroke_i	i	n/a
127.147	0.134	254294	keystroke_a	a	n/a
127.386	0.09	254772	keystroke_Key.space	Key.space	n/a
127.626	0.06	255252	keystroke_d	d	n/a
127.806	0.09	255612	keystroke_e	e	n/a
128.031	0.12	256062	keystroke_s	s	n/a
128.167	0.104	256334	keystroke_i	i	n/a
128.272	0.119	256544	keystroke_r	r	n/a
128.376	0.165	256752	keystroke_e	e	n/a
128.542	0.119	257084	keystroke_Key.space	Key.space	n/a
128.721	0.135	257442	keystroke_c	c	n/a
128.871	0.09	257742	keystroke_u	u	n/a
129.021	0.015	258042	keystroke_t	t	n/a
129.141	0.075	258282	keystroke_t	t	n/a
129.231	0.135	258462	keystroke_i	i	n/a
129.306	0.12	258612	keystroke_n	n	n/a
129.396	0.09	258792	keystroke_g	g	n/a
129.501	0.09	259002	keystroke_Key.space	Key.space	n/a
129.636	0.105	259272	keystroke_r	r	n/a
129.7265	0.105	259453	keystroke_o	o	n/a
129.9055	0.106	259811	keystroke_c	c	n/a
129.9965	0.12	259993	keystroke_k	k	n/a
130.1905	0.12	260381	keystroke_Key.enter	Key.enter	n/a
130.3195	12.294	260639	prompt	n/a	pediatric sized saints sublimedirectory\n
130.8815	0.104	261763	keystroke_p	p	n/a
131.1065	0.135	262213	keystroke_e	e	n/a
132.0665	0.12	264133	keystroke_d	d	n/a
132.2615	0.105	264523	keystroke_i	i	n/a
132.4555	0.091	264911	keystroke_a	a	n/a
132.7265	0.074	265453	keystroke_t	t	n/a
132.9365	0.075	265873	keystroke_r	r	n/a
133.0865	0.15	266173	keystroke_i	i	n/a
133.2215	0.12	266443	keystroke_c	c	n/a
133.3855	0.121	266771	keystroke_Key.space	Key.space	n/a
133.5215	0.09	267043	keystroke_s	s	n/a
133.6565	0.12	267313	keystroke_i	i	n/a
133.9715	0.0895	267943	keystroke_z	z	n/a
134.136	0.06	268272	keystroke_e	e	n/a
134.286	0.1205	268572	keystroke_d	d	n/a
134.436	0.1055	268872	keystroke_Key.space	Key.space	n/a
134.646	0.1055	269292	keystroke_s	s	n/a
135.0215	0.1645	270043	keystroke_a	a	n/a
135.2315	0.164	270463	keystroke_i	i	n/a
135.321	0.1055	270642	keystroke_n	n	n/a
135.5015	0.105	271003	keystroke_t	t	n/a
135.9665	0.12	271933	keystroke_s	s	n/a
136.2655	0.105	272531	keystroke_Key.space	Key.space	n/a
136.4465	0.104	272893	keystroke_s	s	n/a
136.6265	0.089	273253	keystroke_u	u	n/a
136.9255	0.076	273851	keystroke_b	b	n/a
137.2865	0.12	274573	keystroke_l	l	n/a
137.3915	0.06	274783	keystroke_i	i	n/a
137.7215	0.105	275443	keystroke_m	m	n/a
138.0665	0.075	276133	keystroke_e	e	n/a
138.5025	0.134	277005	keystroke_d	d	n/a
138.7265	0.105	277453	keystroke_i	i	n/a
138.9515	0.105	277903	keystroke_r	r	n/a
139.2065	0.12	278413	keystroke_c	c	n/a
139.5965	0.0895	279193	keystroke_t	t	n/a
140.4815	0.0295	280963	keystroke_Key.backspace	Key.backspace	n/a
140.616	0.075	281232	keystroke_Key.backspace	Key.backspace	n/a
140.886	0.0905	281772	keystroke_e	e	n/a
141.471	0.1355	282942	keystroke_c	c	n/a
141.756	0.105	283512	keystroke_t	t	n/a
141.921	0.0905	283842	keystroke_o	o	n/a
142.0555	0.0755	284111	keystroke_r	r	n/a
142.281	0.1045	284562	keystroke_y	y	n/a
142.4455	0.165	284891	keystroke_Key.enter	Key.enter	n/a
142.6195	8.4995	285239	prompt	n/a	salvador expenses somebody vitamin\n
143.1365	0.105	286273	keystroke_s	s	n/a
143.3165	0.135	286633	keystroke_a	a	n/a
143.8565	0.12	287713	keystroke_l	l	n/a
144.0365	0.105	288073	keystroke_v	v	n/a
144.3365	0.135	288673	keystroke_a	a	n/a
144.8015	0.06	289603	keystroke_o	o	n/a
144.9215	0.15	289843	keystroke_d	d	n/a
145.2065	0.0595	290413	keystroke_Key.backspace	Key.backspace	n/a
145.341	0.06	290682	keystroke_Key.backspace	Key.backspace	n/a
145.431	0.105	290862	keystroke_d	d	n/a
145.521	0.12	291042	keystroke_o	o	n/a
145.671	0.12	291342	keystroke_r	r	n/a
145.806	0.105	291612	keystroke_Key.space	Key.space	n/a
146.0755	0.091	292151	keystroke_e	e	n/a
146.2865	0.104	292573	keystroke_x	x	n/a
146.4505	0.076	292901	keystroke_p	p	n/a
146.5555	0.12	293111	keystroke_e	e	n/a
146.7355	0.076	293471	keystroke_n	n	n/a
147.0355	0.076	294071	keystroke_s	s	n/a
147.2015	0.06	294403	keystroke_e	e	n/a
147.3955	0.105	294791	keystroke_s	s	n/a
147.5605	0.105	295121	keystroke_Key.space	Key.space	n/a
147.7255	0.09	295451	keystroke_s	s	n/a
147.8305	0.135	295661	keystroke_o	o	n/a
147.9365	0.09	295873	keystroke_m	m	n/a
148.0405	0.09	296081	keystroke_e	e	n/a
148.3405	0.046	296681	keystroke_b	b	n/a
148.4915	0.119	296983	keystroke_o	o	n/a
148.6705	0.12	297341	keystroke_y	y	n/a
149.1355	0.075	298271	keystroke_Key.backspace	Key.backspace	n/a
149.2115	0.075	298423	keystroke_d	d	n/a
149.4215	0.104	298843	keystroke_y	y	n/a
149.5555	0.06	299111	keystroke_Key.space	Key.space	n/a
149.7355	0.091	299471	keystroke_v	v	n/a
149.8555	0.12	299711	keystroke_i	i	n/a
150.1715	0.075	300343	keystroke_t	t	n/a
150.3515	0.149	300703	keystroke_a	a	n/a
150.5465	0.09	301093	keystroke_m	m	n/a
150.6815	0.18	301363	keystroke_i	i	n/a
150.7705	0.121	301541	keystroke_n	n	n/a
151.011	0.1045	302022	keystroke_Key.enter	Key.enter	n/a
151.1245	8.4835	302249	prompt	n/a	negotiations harris scoop earlier\n
151.7615	0.075	303523	keystroke_n	n	n/a
151.9105	0.121	303821	keystroke_e	e	n/a
152.1355	0.12	304271	keystroke_g	g	n/a
152.2715	0.09	304543	keystroke_o	o	n/a
152.6755	0.121	305351	keystroke_t	t	n/a
152.9305	0.0905	305861	keystroke_i	i	n/a
153.096	0.12	306192	keystroke_a	a	n/a
153.366	0.075	306732	keystroke_t	t	n/a
153.411	0.225	306822	keystroke_i	i	n/a
153.456	0.165	306912	keystroke_o	o	n/a
153.561	0.09	307122	keystroke_n	n	n/a
153.651	0.12	307302	keystroke_s	s	n/a
153.786	0.09	307572	keystroke_Key.space	Key.space	n/a
153.981	0.12	307962	keystroke_h	h	n/a
154.131	0.09	308262	keystroke_a	a	n/a
154.3415	0.0595	308683	keystroke_r	r	n/a
154.476	0.09	308952	keystroke_r	r	n/a
154.581	0.12	309162	keystroke_i	i	n/a
154.671	0.045	309342	keystroke_e	e	n/a
155.031	0.09	310062	keystroke_Key.backspace	Key.backspace	n/a
155.136	0.12	310272	keystroke_s	s	n/a
155.376	0.105	310752	keystroke_Key.space	Key.space	n/a
155.706	0.12	311412	keystroke_c	c	n/a
155.871	0.075	311742	keystroke_o	o	n/a
156.306	0.06	312612	keystroke_Key.backspace	Key.backspace	n/a
156.426	0.12	312852	keystroke_Key.backspace	Key.backspace	n/a
156.531	0.06	313062	keystroke_s	s	n/a
156.561	0.135	313122	keystroke_c	c	n/a
156.771	0.075	313542	keystroke_o	o	n/a
156.921	0.105	313842	keystroke_o	o	n/a
157.311	0.09	314622	keystroke_p	p	n/a
157.491	0.12	314982	keystroke_Key.space	Key.space	n/a
158.541	0.12	317082	keystroke_e	e	n/a
158.691	0.09	317382	keystroke_a	a	n/a
158.856	0.135	317712	keystroke_r	r	n/a
158.976	0.105	317952	keystroke_l	l	n/a
159.126	0.105	318252	keystroke_i	i	n/a
159.216	0.12	318432	keystroke_e	e	n/a
159.351	0.0895	318702	keystroke_r	r	n/a
159.5005	0.105	319001	keystroke_Key.enter	Key.enter	n/a
159.616	8.498	319232	prompt	n/a	intl destiny planets competitive\n
160.266	0.12	320532	keystroke_i	i	n/a
160.371	0.09	320742	keystroke_n	n	n/a
160.701	0.09	321402	keystroke_t	t	n/a
160.926	0.09	321852	keystroke_l	l	n/a
161.211	0.12	322422	keystroke_Key.space	Key.space	n/a
161.376	0.09	322752	keystroke_d	d	n/a
161.556	0.075	323112	keystroke_e	e	n/a
161.751	0.105	323502	keystroke_s	s	n/a
162.141	0.06	324282	keystroke_t	t	n/a
162.186	0.18	324372	keystroke_i	i	n/a
162.276	0.12	324552	keystroke_n	n	n/a
162.741	0.09	325482	keystroke_y	y	n/a
162.966	0.075	325932	keystroke_Key.space	Key.space	n/a
163.206	0.105	326412	keystroke_p	p	n/a
163.401	0.12	326802	keystroke_l	l	n/a
163.522	0.119	327044	keystroke_a	a	n/a
163.626	0.075	327252	keystroke_n	n	n/a
163.9255	0.105	327851	keystroke_e	e	n/a
164.1655	0.076	328331	keystroke_t	t	n/a
164.4055	0.12	328811	keystroke_s	s	n/a
164.5405	0.105	329081	keystroke_Key.space	Key.space	n/a
164.8115	0.09	329623	keystroke_o	o	n/a
165.1405	0.06	330281	keystroke_Key.backspace	Key.backspace	n/a
165.2165	0.12	330433	keystroke_c	c	n/a
165.3215	0.255	330643	keystroke_o	o	n/a
165.5165	0.12	331033	keystroke_m	m	n/a
165.9515	0.06	331903	keystroke_p	p	n/a
166.3865	0.135	332773	keystroke_e	e	n/a
166.6565	0.09	333313	keystroke_t	t	n/a
166.7915	0.1045	333583	keystroke_i	i	n/a
167.091	0.06	334182	keystroke_t	t	n/a
167.181	0.121	334362	keystroke_i	i	n/a
167.316	0.045	334632	keystroke_v	v	n/a
167.481	0.09	334962	keystroke_e	e	n/a
167.991	0.12	335982	keystroke_Key.enter	Key.enter	n/a
168.1205	9.4575	336241	prompt	n/a	construction arabia habits steam\n
168.651	0.15	337302	keystroke_c	c	n/a
168.846	0.105	337692	keystroke_o	o	n/a
169.071	0.105	338142	keystroke_u	u	n/a
169.581	0.075	339162	keystroke_Key.backspace	Key.backspace	n/a
169.7905	0.076	339581	keystroke_n	n	n/a
169.9855	0.106	339971	keystroke_s	s	n/a
170.2115	0.09	340423	keystroke_t	t	n/a
170.3905	0.075	340781	keystroke_r	r	n/a
170.5865	0.089	341173	keystroke_u	u	n/a
170.6915	0.119	341383	keystroke_c	c	n/a
170.9455	0.0905	341891	keystroke_t	t	n/a
171.066	0.225	342132	keystroke_i	i	n/a
171.126	0.15	342252	keystroke_o	o	n/a
171.246	0.105	342492	keystroke_n	n	n/a
172.386	0.09	344772	keystroke_Key.space	Key.space	n/a
172.611	0.09	345222	keystroke_a	a	n/a
172.851	0.075	345702	keystroke_r	r	n/a
173.031	0.135	346062	keystroke_a	a	n/a
173.271	0.06	346542	keystroke_b	b	n/a
173.376	0.12	346752	keystroke_i	i	n/a
173.481	0.12	346962	keystroke_a	a	n/a
173.886	0.105	347772	keystroke_Key.space	Key.space	n/a
174.201	0.09	348402	keystroke_h	h	n/a
174.276	0.135	348552	keystroke_a	a	n/a
174.546	0.105	349092	keystroke_t	t	n/a
175.251	0.09	350502	keystroke_Key.backspace	Key.backspace	n/a
175.371	0.09	350742	keystroke_b	b	n/a
175.476	0.075	350952	keystroke_i	i	n/a
175.581	0.09	351162	keystroke_t	t	n/a
175.821	0.105	351642	keystroke_s	s	n/a
175.956	0.12	351912	keystroke_Key.space	Key.space	n/a
176.151	0.09	352302	keystroke_s	s	n/a
176.3465	0.075	352693	keystroke_t	t	n/a
176.4815	0.12	352963	keystroke_e	e	n/a
176.6465	0.1195	353293	keystroke_a	a	n/a
176.796	0.12	353592	keystroke_m	m	n/a
177.456	0.12	354912	keystroke_Key.enter	Key.enter	n/a
177.5825	5.0355	355165	prompt	n/a	rush proper gain utah\n
178.2515	0.074	356503	keystroke_r	r	n/a
178.4005	0.091	356801	keystroke_u	u	n/a
178.4765	0.12	356953	keystroke_s	s	n/a
178.6255	0.106	357251	keystroke_h	h	n/a
178.7755	0.12	357551	keystroke_Key.space	Key.space	n/a
179.1665	0.075	358333	keystroke_p	p	n/a
179.4065	0.09	358813	keystroke_r	r	n/a
179.5115	0.089	359023	keystroke_o	o	n/a
179.7365	0.12	359473	keystroke_p	p	n/a
179.9015	0.165	359803	keystroke_e	e	n/a
180.0815	0.09	360163	keystroke_r	r	n/a
180.2305	0.106	360461	keystroke_Key.space	Key.space	n/a
180.8015	0.074	361603	keystroke_g	g	n/a
180.9065	0.135	361813	keystroke_a	a	n/a
181.0115	0.1645	362023	keystroke_i	i	n/a
181.1005	0.1205	362201	keystroke_n	n	n/a
181.371	0.09	362742	keystroke_Key.space	Key.space	n/a
181.746	0.105	363492	keystroke_u	u	n/a
181.896	0.12	363792	keystroke_t	t	n/a
182.151	0.105	364302	keystroke_a	a	n/a
182.271	0.09	364542	keystroke_h	h	n/a
182.541	0.075	365082	keystroke_Key.enter	Key.enter	n/a
182.624	5.709	365248	prompt	n/a	russian comparison harvest printed\n
183.3055	0.075	366611	keystroke_r	r	n/a
183.5755	0.105	367151	keystroke_u	u	n/a
183.7105	0.06	367421	keystroke_s	s	n/a
183.8605	0.105	367721	keystroke_s	s	n/a
183.9505	0.12	367901	keystroke_i	i	n/a
184.1305	0.09	368261	keystroke_a	a	n/a
184.2505	0.12	368501	keystroke_n	n	n/a
184.6255	0.09	369251	keystroke_Key.space	Key.space	n/a
184.7905	0.105	369581	keystroke_c	c	n/a
184.8805	0.135	369761	keystroke_o	o	n/a
184.9705	0.105	369941	keystroke_m	m	n/a
185.1205	0.135	370241	keystroke_p	p	n/a
185.2405	0.09	370481	keystroke_a	a	n/a
185.4355	0.09	370871	keystroke_r	r	n/a
185.5705	0.1205	371141	keystroke_i	i	n/a
185.706	0.09	371412	keystroke_s	s	n/a
185.781	0.12	371562	keystroke_o	o	n/a
185.856	0.09	371712	keystroke_n	n	n/a
185.976	0.105	371952	keystroke_Key.space	Key.space	n/a
186.141	0.105	372282	keystroke_h	h	n/a
186.246	0.075	372492	keystroke_a	a	n/a
186.456	0.06	372912	keystroke_r	r	n/a
186.696	0.045	373392	keystroke_v	v	n/a
186.786	0.105	373572	keystroke_e	e	n/a
186.95	0.121	373900	keystroke_s	s	n/a
187.116	0.135	374232	keystroke_t	t	n/a
187.266	0.075	374532	keystroke_Key.space	Key.space	n/a
187.371	0.12	374742	keystroke_p	p	n/a
187.536	0.075	375072	keystroke_r	r	n/a
187.596	0.165	375192	keystroke_i	i	n/a
187.671	0.12	375342	keystroke_n	n	n/a
187.746	0.105	375492	keystroke_t	t	n/a
187.911	0.06	375822	keystroke_e	e	n/a
188.091	0.0895	376182	keystroke_d	d	n/a
188.2255	0.105	376451	keystroke_Key.enter	Key.enter	n/a
188.338	12.0845	376676	prompt	n/a	pics charleston knife accompanying\n
188.9005	0.09	377801	keystroke_p	p	n/a
189.1105	0.12	378221	keystroke_i	i	n/a
189.2005	0.105	378401	keystroke_c	c	n/a
189.3955	0.105	378791	keystroke_s	s	n/a
189.5455	0.09	379091	keystroke_Key.space	Key.space	n/a
189.8305	0.106	379661	keystroke_h	h	n/a
190.1005	0.0905	380201	keystroke_Key.backspace	Key.backspace	n/a
190.206	0.12	380412	keystroke_c	c	n/a
190.311	0.09	380622	keystroke_h	h	n/a
190.431	0.105	380862	keystroke_a	a	n/a
190.701	0.075	381402	keystroke_r	r	n/a
190.971	0.09	381942	keystroke_e	e	n/a
191.301	0.045	382602	keystroke_Key.backspace	Key.backspace	n/a
191.511	0.135	383022	keystroke_l	l	n/a
191.631	0.075	383262	keystroke_e	e	n/a
191.811	0.135	383622	keystroke_s	s	n/a
192.096	0.045	384192	keystroke_t	t	n/a
192.171	0.12	384342	keystroke_o	o	n/a
192.261	0.09	384522	keystroke_n	n	n/a
192.366	0.12	384732	keystroke_Key.space	Key.space	n/a
192.606	0.105	385212	keystroke_k	k	n/a
192.966	0.105	385932	keystroke_n	n	n/a
193.086	0.15	386172	keystroke_i	i	n/a
193.221	0.105	386442	keystroke_f	f	n/a
193.311	0.135	386622	keystroke_e	e	n/a
193.716	0.105	387432	keystroke_Key.space	Key.space	n/a
193.926	0.1205	387852	keystroke_c	c	n/a
194.031	0.12	388062	keystroke_a	a	n/a
194.481	0.09	388962	keystroke_Key.backspace	Key.backspace	n/a
194.646	0.104	389292	keystroke_Key.backspace	Key.backspace	n/a
194.766	0.105	389532	keystroke_a	a	n/a
194.826	0.135	389652	keystroke_c	c	n/a
195.036	0.09	390072	keystroke_c	c	n/a
197.7695	0.042	395539	keystroke_o	o	n/a
197.886	0.075	395772	keystroke_m	m	n/a
198.036	0.105	396072	keystroke_p	p	n/a
198.516	0.105	397032	keystroke_a	a	n/a
198.906	0.03	397812	keystroke_Key.backspace	Key.backspace	n/a
199.146	0.09	398292	keystroke_a	a	n/a
199.221	0.09	398442	keystroke_n	n	n/a
199.386	0.135	398772	keystroke_y	y	n/a
199.506	0.105	399012	keystroke_i	i	n/a
199.551	0.09	399102	keystroke_n	n	n/a
199.671	0.12	399342	keystroke_g	g	n/a
200.301	0.12	400602	keystroke_Key.enter	Key.enter	n/a
200.428	12.1145	400856	prompt	n/a	detection sync mistakes meant\n
204.6245	0.012	409249	keystroke_d	d	n/a
204.7415	0.1045	409483	keystroke_e	e	n/a
204.9655	0.105	409931	keystroke_c	c	n/a
205.266	0.075	410532	keystroke_Key.backspace	Key.backspace	n/a
205.461	0.09	410922	keystroke_t	t	n/a
206.736	0.075	413472	keystroke_e	e	n/a
206.931	0.105	413862	keystroke_c	c	n/a
207.216	0.075	414432	keystroke_t	t	n/a
207.321	0.24	414642	keystroke_i	i	n/a
207.396	0.15	414792	keystroke_o	o	n/a
207.471	0.135	414942	keystroke_n	n	n/a
207.876	0.105	415752	keystroke_Key.space	Key.space	n/a
208.191	0.09	416382	keystroke_s	s	n/a
208.401	0.075	416802	keystroke_y	y	n/a
208.626	0.09	417252	keystroke_n	n	n/a
208.866	0.12	417732	keystroke_c	c	n/a
209.121	0.075	418242	keystroke_Key.space	Key.space	n/a
209.301	0.09	418602	keystroke_m	m	n/a
209.451	0.105	418902	keystroke_i	i	n/a
209.541	0.12	419082	keystroke_s	s	n/a
209.796	0.09	419592	keystroke_t	t	n/a
210.006	0.12	420012	keystroke_a	a	n/a
210.156	0.135	420312	keystroke_k	k	n/a
210.276	0.09	420552	keystroke_e	e	n/a
210.546	0.12	421092	keystroke_s	s	n/a
210.786	0.12	421572	keystroke_Key.space	Key.space	n/a
211.041	0.105	422082	keystroke_m	m	n/a
211.206	0.12	422412	keystroke_e	e	n/a
211.371	0.09	422742	keystroke_a	a	n/a
211.506	0.075	423012	keystroke_n	n	n/a
211.656	0.06	423312	keystroke_t	t	n/a
211.776	0.12	423552	keystroke_h	h	n/a
212.181	0.03	424362	keystroke_Key.backspace	Key.backspace	n/a
212.421	0.12	424842	keystroke_Key.enter	Key.enter	n/a
212.548	10.0145	425096	prompt	n/a	expenditure hammer stock montana\n
213.351	0.06	426702	keystroke_e	e	n/a
213.546	0.12	427092	keystroke_x	x	n/a
213.726	0.09	427452	keystroke_p	p	n/a
213.846	0.09	427692	keystroke_e	e	n/a
213.981	0.075	427962	keystroke_n	n	n/a
214.251	0.105	428502	keystroke_d	d	n/a
214.431	0.075	428862	keystroke_i	i	n/a
214.671	0.09	429342	keystroke_t	t	n/a
214.806	0.09	429612	keystroke_u	u	n/a
214.881	0.075	429762	keystroke_r	r	n/a
215.001	0.165	430002	keystroke_e	e	n/a
215.181	0.105	430362	keystroke_Key.space	Key.space	n/a
215.406	0.075	430812	keystroke_h	h	n/a
215.511	0.09	431022	keystroke_a	a	n/a
215.661	0.105	431322	keystroke_m	m	n/a
217.296	0.09	434592	keystroke_m	m	n/a
217.431	0.1055	434862	keystroke_e	e	n/a
217.6255	0.1355	435251	keystroke_r	r	n/a
217.911	0.09	435822	keystroke_Key.space	Key.space	n/a
218.511	0.06	437022	keystroke_s	s	n/a
218.706	0.075	437412	keystroke_t	t	n/a
218.841	0.12	437682	keystroke_o	o	n/a
218.991	0.12	437982	keystroke_c	c	n/a
220.341	0.09	440682	keystroke_k	k	n/a
220.491	0.105	440982	keystroke_Key.space	Key.space	n/a
220.971	0.075	441942	keystroke_m	m	n/a
221.061	0.12	442122	keystroke_o	o	n/a
221.166	0.09	442332	keystroke_n	n	n/a
221.316	0.165	442632	keystroke_d	d	n/a
221.6605	0.075	443321	keystroke_Key.backspace	Key.backspace	n/a
221.7955	0.106	443591	keystroke_t	t	n/a
221.9755	0.135	443951	keystroke_a	a	n/a
222.1555	0.15	444311	keystroke_n	n	n/a
222.2905	0.105	444581	keystroke_a	a	n/a
222.4405	0.12	444881	keystroke_Key.enter	Key.enter	n/a
222.5675	12.265	445135	prompt	n/a	floyd treasures premises rebates\n
223.2655	0.09	446531	keystroke_f	f	n/a
223.3405	0.105	446681	keystroke_l	l	n/a
223.566	0.09	447132	keystroke_o	o	n/a
223.806	0.0905	447612	keystroke_y	y	n/a
224.076	0.135	448152	keystroke_d	d	n/a
224.481	0.075	448962	keystroke_Key.space	Key.space	n/a
224.8405	0.06	449681	keystroke_t	t	n/a
225.0355	0.105	450071	keystroke_r	r	n/a
226.2055	0.076	452411	keystroke_e	e	n/a
226.7605	0.135	453521	keystroke_a	a	n/a
227.0005	0.12	454001	keystroke_s	s	n/a
227.2255	0.09	454451	keystroke_u	u	n/a
227.3305	0.105	454661	keystroke_r	r	n/a
227.4655	0.045	454931	keystroke_e	e	n/a
227.6155	0.135	455231	keystroke_s	s	n/a
227.7355	0.105	455471	keystroke_Key.space	Key.space	n/a
228.0955	0.09	456191	keystroke_p	p	n/a
230.739	0.026	461478	keystroke_r	r	n/a
230.84	0.105	461680	keystroke_e	e	n/a
231.051	0.089	462102	keystroke_m	m	n/a
231.216	0.09	462432	keystroke_i	i	n/a
231.336	0.09	462672	keystroke_s	s	n/a
231.501	0.09	463002	keystroke_s	s	n/a
231.8	0.0905	463600	keystroke_Key.backspace	Key.backspace	n/a
231.9665	0.0595	463933	keystroke_e	e	n/a
232.2365	0.075	464473	keystroke_s	s	n/a
232.8505	0.075	465701	keystroke_Key.space	Key.space	n/a
233.0455	0.091	466091	keystroke_r	r	n/a
233.1205	0.136	466241	keystroke_e	e	n/a
233.3605	0.105	466721	keystroke_b	b	n/a
233.5415	0.1345	467083	keystroke_a	a	n/a
234.1405	0.0605	468281	keystroke_t	t	n/a
234.276	0.104	468552	keystroke_e	e	n/a
234.441	0.12	468882	keystroke_s	s	n/a
234.726	0.104	469452	keystroke_Key.enter	Key.enter	n/a
234.838	10.6595	469676	prompt	n/a	kings richard springer flower\n
235.431	0.09	470862	keystroke_k	k	n/a
235.611	0.119	471222	keystroke_i	i	n/a
235.685	0.105	471370	keystroke_n	n	n/a
236.016	0.074	472032	keystroke_g	g	n/a
236.241	0.149	472482	keystroke_s	s	n/a
236.436	0.12	472872	keystroke_Key.space	Key.space	n/a
236.7355	0.075	473471	keystroke_r	r	n/a
236.7955	0.121	473591	keystroke_e	e	n/a
237.0655	0.135	474131	keystroke_c	c	n/a
237.291	0.09	474582	keystroke_h	h	n/a
237.366	0.09	474732	keystroke_a	a	n/a
237.516	0.075	475032	keystroke_r	r	n/a
237.696	0.135	475392	keystroke_d	d	n/a
238.281	0.12	476562	keystroke_Key.space	Key.space	n/a
238.491	0.15	476982	keystroke_s	s	n/a
238.896	0.06	477792	keystroke_Key.backspace	Key.backspace	n/a
239.046	0.045	478092	keystroke_Key.backspace	Key.backspace	n/a
239.151	0.09	478302	keystroke_Key.backspace	Key.backspace	n/a
239.271	0.09	478542	keystroke_Key.backspace	Key.backspace	n/a
239.451	0.045	478902	keystroke_Key.backspace	Key.backspace	n/a
239.556	0.0745	479112	keystroke_Key.backspace	Key.backspace	n/a
239.7205	0.045	479441	keystroke_Key.backspace	Key.backspace	n/a
240.4405	0.06	480881	keystroke_Key.backspace	Key.backspace	n/a
240.6355	0.06	481271	keystroke_i	i	n/a
240.7405	0.15	481481	keystroke_c	c	n/a
240.9055	0.12	481811	keystroke_h	h	n/a
241.1605	0.09	482321	keystroke_a	a	n/a
241.3555	0.075	482711	keystroke_r	r	n/a
241.5505	0.12	483101	keystroke_d	d	n/a
241.7305	0.12	483461	keystroke_Key.space	Key.space	n/a
241.9255	0.105	483851	keystroke_s	s	n/a
242.0605	0.105	484121	keystroke_p	p	n/a
243.3955	0.06	486791	keystroke_r	r	n/a
243.4705	0.15	486941	keystroke_i	i	n/a
243.5455	0.12	487091	keystroke_n	n	n/a
243.6055	0.105	487211	keystroke_g	g	n/a
243.8155	0.15	487631	keystroke_e	e	n/a
243.9955	0.061	487991	keystroke_r	r	n/a
244.0855	0.105	488171	keystroke_Key.space	Key.space	n/a
244.2205	0.135	488441	keystroke_f	f	n/a
244.3855	0.105	488771	keystroke_l	l	n/a
244.5815	0.134	489163	keystroke_o	o	n/a
244.6555	0.105	489311	keystroke_w	w	n/a
244.7905	0.196	489581	keystroke_e	e	n/a
244.9265	0.119	489853	keystroke_r	r	n/a
245.3605	0.135	490721	keystroke_Key.enter	Key.enter	n/a
245.502	9.731	491004	prompt	n/a	riverside stroke emily conjunction\n
246.2455	0.075	492491	keystroke_r	r	n/a
246.4565	0.089	492913	keystroke_e	e	n/a
246.7405	0.06	493481	keystroke_Key.backspace	Key.backspace	n/a
246.9055	0.09	493811	keystroke_i	i	n/a
247.0105	0.06	494021	keystroke_v	v	n/a
247.1155	0.121	494231	keystroke_e	e	n/a
247.2205	0.075	494441	keystroke_r	r	n/a
247.4455	0.09	494891	keystroke_s	s	n/a
247.5815	0.104	495163	keystroke_i	i	n/a
247.6265	0.089	495253	keystroke_d	d	n/a
247.8205	0.136	495641	keystroke_e	e	n/a
248.2255	0.105	496451	keystroke_Key.space	Key.space	n/a
248.4355	0.12	496871	keystroke_s	s	n/a
248.6905	0.075	497381	keystroke_t	t	n/a
248.8265	0.104	497653	keystroke_o	o	n/a
249.3205	0.06	498641	keystroke_Key.backspace	Key.backspace	n/a
249.4555	0.09	498911	keystroke_r	r	n/a
249.5465	0.089	499093	keystroke_o	o	n/a
249.7405	0.075	499481	keystroke_e	e	n/a
249.7565	0.105	499513	keystroke_k	k	n/a
250.1455	0.075	500291	keystroke_Key.backspace	Key.backspace	n/a
250.2815	0.074	500563	keystroke_Key.backspace	Key.backspace	n/a
250.506	0.0595	501012	keystroke_k	k	n/a
250.6105	0.135	501221	keystroke_e	e	n/a
250.7315	0.104	501463	keystroke_Key.space	Key.space	n/a
250.9855	0.106	501971	keystroke_e	e	n/a
251.0915	0.09	502183	keystroke_m	m	n/a
251.2555	0.09	502511	keystroke_i	i	n/a
251.3615	0.18	502723	keystroke_l	l	n/a
251.5265	0.12	503053	keystroke_y	y	n/a
251.735	0.151	503470	keystroke_Key.space	Key.space	n/a
252.261	0.12	504522	keystroke_c	c	n/a
252.365	0.091	504730	keystroke_o	o	n/a
252.426	0.089	504852	keystroke_n	n	n/a
252.876	0.105	505752	keystroke_j	j	n/a
253.085	0.121	506170	keystroke_u	u	n/a
253.296	0.105	506592	keystroke_c	c	n/a
253.6105	0.06	507221	keystroke_Key.backspace	Key.backspace	n/a
253.7755	0.076	507551	keystroke_n	n	n/a
254.2255	0.105	508451	keystroke_c	c	n/a
254.5105	0.06	509021	keystroke_t	t	n/a
254.5715	0.224	509143	keystroke_i	i	n/a
254.6455	0.18	509291	keystroke_o	o	n/a
254.7055	0.135	509411	keystroke_n	n	n/a
255.0955	0.135	510191	keystroke_Key.enter	Key.enter	n/a
255.237	4.9755	510474	prompt	n/a	kinds holds guru by\n
255.9655	0.09	511931	keystroke_k	k	n/a
256.1455	0.1205	512291	keystroke_i	i	n/a
256.2055	0.1055	512411	keystroke_n	n	n/a
256.281	0.135	512562	keystroke_d	d	n/a
256.431	0.135	512862	keystroke_s	s	n/a
256.641	0.15	513282	keystroke_Key.space	Key.space	n/a
257.031	0.135	514062	keystroke_h	h	n/a
257.136	0.09	514272	keystroke_o	o	n/a
257.301	0.135	514602	keystroke_l	l	n/a
257.452	0.104	514904	keystroke_d	d	n/a
257.796	0.105	515592	keystroke_s	s	n/a
257.961	0.06	515922	keystroke_Key.space	Key.space	n/a
258.276	0.105	516552	keystroke_g	g	n/a
258.696	0.09	517392	keystroke_u	u	n/a
258.801	0.075	517602	keystroke_r	r	n/a
259.356	0.105	518712	keystroke_u	u	n/a
259.551	0.105	519102	keystroke_Key.space	Key.space	n/a
259.761	0.075	519522	keystroke_b	b	n/a
259.971	0.09	519942	keystroke_y	y	n/a
260.106	0.105	520212	keystroke_Key.enter	Key.enter	n/a
260.219	7.0435	520438	prompt	n/a	told bent break hereby\n
260.931	0.075	521862	keystroke_o	o	n/a
261.186	0.06	522372	keystroke_Key.backspace	Key.backspace	n/a
261.291	0.105	522582	keystroke_t	t	n/a
261.381	0.09	522762	keystroke_o	o	n/a
261.561	0.1045	523122	keystroke_l	l	n/a
261.6205	0.15	523241	keystroke_d	d	n/a
261.7855	0.09	523571	keystroke_Key.space	Key.space	n/a
261.8905	0.09	523781	keystroke_b	b	n/a
262.2055	0.105	524411	keystroke_e	e	n/a
262.2805	0.09	524561	keystroke_n	n	n/a
262.4005	0.12	524801	keystroke_t	t	n/a
262.5355	0.09	525071	keystroke_Key.space	Key.space	n/a
262.7305	0.075	525461	keystroke_b	b	n/a
262.9105	0.09	525821	keystroke_r	r	n/a
262.9855	0.18	525971	keystroke_e	e	n/a
263.1505	0.15	526301	keystroke_a	a	n/a
263.3455	0.12	526691	keystroke_k	k	n/a
263.5855	0.0755	527171	keystroke_Key.space	Key.space	n/a
263.811	0.075	527622	keystroke_b	b	n/a
263.961	0.15	527922	keystroke_e	e	n/a
264.201	0.075	528402	keystroke_r	r	n/a
264.366	0.105	528732	keystroke_e	e	n/a
264.531	0.12	529062	keystroke_l	l	n/a
264.831	0.09	529662	keystroke_Key.backspace	Key.backspace	n/a
265.026	0.0595	530052	keystroke_Key.backspace	Key.backspace	n/a
265.1605	0.075	530321	keystroke_Key.backspace	Key.backspace	n/a
265.2955	0.09	530591	keystroke_Key.backspace	Key.backspace	n/a
265.4305	0.09	530861	keystroke_Key.backspace	Key.backspace	n/a
265.6565	0.105	531313	keystroke_h	h	n/a
265.7455	0.135	531491	keystroke_e	e	n/a
265.8955	0.12	531791	keystroke_r	r	n/a
266.1055	0.105	532211	keystroke_e	e	n/a
266.2405	0.106	532481	keystroke_l	l	n/a
266.4355	0.0905	532871	keystroke_b	b	n/a
266.645	0.075	533290	keystroke_Key.backspace	Key.backspace	n/a
266.78	0.09	533560	keystroke_Key.backspace	Key.backspace	n/a
266.856	0.075	533712	keystroke_b	b	n/a
267.036	0.09	534072	keystroke_y	y	n/a
267.155	0.105	534310	keystroke_Key.enter	Key.enter	n/a
267.2675	6.266	534535	prompt	n/a	jack rome gamma merely\n
267.815	0.106	535630	keystroke_j	j	n/a
267.951	0.1195	535902	keystroke_a	a	n/a
268.1005	0.135	536201	keystroke_c	c	n/a
268.2205	0.12	536441	keystroke_k	k	n/a
268.3565	0.104	536713	keystroke_Key.space	Key.space	n/a
268.7455	0.105	537491	keystroke_o	o	n/a
269.0155	0.075	538031	keystroke_Key.backspace	Key.backspace	n/a
269.1205	0.12	538241	keystroke_r	r	n/a
269.2105	0.15	538421	keystroke_o	o	n/a
269.3155	0.12	538631	keystroke_m	m	n/a
269.5255	0.151	539051	keystroke_e	e	n/a
269.8555	0.12	539711	keystroke_Key.space	Key.space	n/a
270.3505	0.045	540701	keystroke_g	g	n/a
270.4405	0.15	540881	keystroke_a	a	n/a
270.5915	0.089	541183	keystroke_m	m	n/a
271.011	0.104	542022	keystroke_m	m	n/a
271.146	0.15	542292	keystroke_a	a	n/a
271.296	0.135	542592	keystroke_Key.space	Key.space	n/a
271.731	0.1045	543462	keystroke_m	m	n/a
271.8505	0.105	543701	keystroke_e	e	n/a
272.3005	0.105	544601	keystroke_r	r	n/a
272.4355	0.1355	544871	keystroke_e	e	n/a
272.5555	0.135	545111	keystroke_l	l	n/a
272.7655	0.09	545531	keystroke_y	y	n/a
273.4555	0.075	546911	keystroke_Key.enter	Key.enter	n/a
273.5385	9.085	547077	prompt	n/a	precision lime scottish clips\n
274.1905	0.0905	548381	keystroke_p	p	n/a
274.386	0.105	548772	keystroke_r	r	n/a
274.596	0.075	549192	keystroke_e	e	n/a
274.971	0.105	549942	keystroke_c	c	n/a
275.166	0.075	550332	keystroke_i	i	n/a
275.331	0.105	550662	keystroke_s	s	n/a
275.451	0.255	550902	keystroke_i	i	n/a
275.541	0.135	551082	keystroke_o	o	n/a
275.631	0.12	551262	keystroke_n	n	n/a
275.991	0.09	551982	keystroke_Key.space	Key.space	n/a
276.291	0.075	552582	keystroke_k	k	n/a
276.5755	0.06	553151	keystroke_Key.backspace	Key.backspace	n/a
276.7705	0.1205	553541	keystroke_l	l	n/a
276.861	0.12	553722	keystroke_i	i	n/a
277.011	0.105	554022	keystroke_m	m	n/a
277.251	0.135	554502	keystroke_e	e	n/a
277.371	0.12	554742	keystroke_Key.space	Key.space	n/a
277.656	0.09	555312	keystroke_s	s	n/a
277.866	0.1045	555732	keystroke_c	c	n/a
278.4805	0.105	556961	keystroke_o	o	n/a
278.7055	0.075	557411	keystroke_t	t	n/a
278.8705	0.0905	557741	keystroke_t	t	n/a
279.0055	0.12	558011	keystroke_i	i	n/a
279.1405	0.105	558281	keystroke_s	s	n/a
279.2605	0.09	558521	keystroke_h	h	n/a
279.3505	0.105	558701	keystroke_Key.space	Key.space	n/a
279.5755	0.12	559151	keystroke_c	c	n/a
279.8155	0.075	559631	keystroke_i	i	n/a
280.1305	0.045	560261	keystroke_Key.backspace	Key.backspace	n/a
280.3855	0.105	560771	keystroke_k	k	n/a
280.895	0.09	561790	keystroke_Key.backspace	Key.backspace	n/a
281.166	0.09	562332	keystroke_l	l	n/a
281.331	0.165	562662	keystroke_i	i	n/a
281.526	0.089	563052	keystroke_p	p	n/a
281.706	0.105	563412	keystroke_s	s	n/a
282.486	0.135	564972	keystroke_Key.enter	Key.enter	n/a
282.628	7.659	565256	prompt	n/a	allergy blanket hundred riders\n
283.281	0.12	566562	keystroke_a	a	n/a
283.371	0.075	566742	keystroke_l	l	n/a
283.536	0.12	567072	keystroke_l	l	n/a
283.671	0.12	567342	keystroke_e	e	n/a
283.8805	0.0905	567761	keystroke_r	r	n/a
284.136	0.06	568272	keystroke_g	g	n/a
284.361	0.09	568722	keystroke_y	y	n/a
284.511	0.105	569022	keystroke_Key.space	Key.space	n/a
284.826	0.09	569652	keystroke_b	b	n/a
284.976	0.1345	569952	keystroke_a	a	n/a
285.0955	0.135	570191	keystroke_n	n	n/a
285.1405	0.135	570281	keystroke_k	k	n/a
285.5455	0.0595	571091	keystroke_Key.backspace	Key.backspace	n/a
285.68	0.0605	571360	keystroke_Key.backspace	Key.backspace	n/a
285.7855	0.09	571571	keystroke_Key.backspace	Key.backspace	n/a
285.996	0.105	571992	keystroke_l	l	n/a
286.1605	0.105	572321	keystroke_a	a	n/a
286.2805	0.135	572561	keystroke_n	n	n/a
286.3405	0.12	572681	keystroke_k	k	n/a
287.151	0.0895	574302	keystroke_e	e	n/a
287.316	0.1205	574632	keystroke_t	t	n/a
287.6005	0.1045	575201	keystroke_Key.space	Key.space	n/a
287.9	0.0905	575800	keystroke_h	h	n/a
288.0655	0.09	576131	keystroke_u	u	n/a
288.2905	0.075	576581	keystroke_n	n	n/a
288.3955	0.105	576791	keystroke_d	d	n/a
288.6205	0.105	577241	keystroke_r	r	n/a
288.7555	0.105	577511	keystroke_e	e	n/a
288.9805	0.105	577961	keystroke_d	d	n/a
289.1155	0.135	578231	keystroke_Key.space	Key.space	n/a
289.3705	0.09	578741	keystroke_r	r	n/a
289.4905	0.12	578981	keystroke_i	i	n/a
289.5955	0.075	579191	keystroke_d	d	n/a
289.7755	0.09	579551	keystroke_e	e	n/a
289.8505	0.075	579701	keystroke_r	r	n/a
290.0605	0.09	580121	keystroke_s	s	n/a
290.1655	0.12	580331	keystroke_Key.enter	Key.enter	n/a
290.293	7.1645	580586	prompt	n/a	utils landscape pope meaning\n
290.9605	0.075	581921	keystroke_u	u	n/a
291.2005	0.105	582401	keystroke_n	n	n/a
291.5305	0.09	583061	keystroke_Key.backspace	Key.backspace	n/a
291.7255	0.105	583451	keystroke_t	t	n/a
292.1905	0.105	584381	keystroke_i	i	n/a
292.5505	0.105	585101	keystroke_l	l	n/a
292.7755	0.1205	585551	keystroke_s	s	n/a
292.941	0.105	585882	keystroke_Key.space	Key.space	n/a
293.091	0.105	586182	keystroke_l	l	n/a
293.226	0.105	586452	keystroke_a	a	n/a
293.346	0.06	586692	keystroke_n	n	n/a
293.421	0.12	586842	keystroke_d	d	n/a
293.571	0.12	587142	keystroke_s	s	n/a
293.766	0.135	587532	keystroke_c	c	n/a
293.916	0.1195	587832	keystroke_a	a	n/a
294.3205	0.09	588641	keystroke_p	p	n/a
294.4405	0.15	588881	keystroke_e	e	n/a
294.6055	0.12	589211	keystroke_Key.space	Key.space	n/a
294.8605	0.06	589721	keystroke_p	p	n/a
295.0255	0.225	590051	keystroke_o	o	n/a
295.1605	0.12	590321	keystroke_p	p	n/a
295.5205	0.15	591041	keystroke_e	e	n/a
295.7155	0.06	591431	keystroke_Key.space	Key.space	n/a
296.165	0.091	592330	keystroke_m	m	n/a
296.271	0.135	592542	keystroke_e	e	n/a
296.481	0.09	592962	keystroke_a	a	n/a
296.616	0.06	593232	keystroke_n	n	n/a
296.736	0.165	593472	keystroke_i	i	n/a
296.811	0.105	593622	keystroke_n	n	n/a
296.946	0.1195	593892	keystroke_g	g	n/a
297.3655	0.09	594731	keystroke_Key.enter	Key.enter	n/a
297.4615	6.266	594923	prompt	n/a	pressed expanded muze pill\n
298.025	0.0905	596050	keystroke_p	p	n/a
298.221	0.1055	596442	keystroke_r	r	n/a
298.3115	0.0895	596623	keystroke_e	e	n/a
298.4905	0.0605	596981	keystroke_s	s	n/a
298.655	0.061	597310	keystroke_s	s	n/a
298.776	0.0895	597552	keystroke_e	e	n/a
298.9555	0.1045	597911	keystroke_d	d	n/a
299.076	0.059	598152	keystroke_Key.space	Key.space	n/a
299.376	0.075	598752	keystroke_e	e	n/a
299.615	0.09	599230	keystroke_x	x	n/a
299.826	0.06	599652	keystroke_p	p	n/a
299.931	0.104	599862	keystroke_e	e	n/a
300.365	0.075	600730	keystroke_Key.backspace	Key.backspace	n/a
300.471	0.105	600942	keystroke_a	a	n/a
300.591	0.06	601182	keystroke_n	n	n/a
300.995	0.076	601990	keystroke_d	d	n/a
301.176	0.075	602352	keystroke_e	e	n/a
301.356	0.105	602712	keystroke_d	d	n/a
301.461	0.12	602922	keystroke_Key.space	Key.space	n/a
301.7755	0.0905	603551	keystroke_m	m	n/a
302.016	0.1045	604032	keystroke_u	u	n/a
302.1805	0.09	604361	keystroke_z	z	n/a
302.3455	0.135	604691	keystroke_e	e	n/a
302.5255	0.105	605051	keystroke_Key.space	Key.space	n/a
302.9605	0.12	605921	keystroke_p	p	n/a
303.1105	0.12	606221	keystroke_i	i	n/a
303.3055	0.06	606611	keystroke_l	l	n/a
303.4705	0.06	606941	keystroke_l	l	n/a
303.6205	0.105	607241	keystroke_Key.enter	Key.enter	n/a
303.7325	9.386	607465	prompt	n/a	liabilities stations zshops publisher\n
304.2205	0.12	608441	keystroke_l	l	n/a
304.4455	0.075	608891	keystroke_i	i	n/a
304.7305	0.105	609461	keystroke_a	a	n/a
305.0005	0.09	610001	keystroke_b	b	n/a
305.1505	0.12	610301	keystroke_i	i	n/a
305.4355	0.1205	610871	keystroke_l	l	n/a
305.825	0.121	611650	keystroke_i	i	n/a
306.006	0.12	612012	keystroke_t	t	n/a
306.141	0.105	612282	keystroke_i	i	n/a
306.216	0.09	612432	keystroke_e	e	n/a
306.396	0.135	612792	keystroke_s	s	n/a
306.56	0.106	613120	keystroke_Key.space	Key.space	n/a
306.996	0.09	613992	keystroke_s	s	n/a
307.236	0.075	614472	keystroke_t	t	n/a
307.431	0.12	614862	keystroke_a	a	n/a
307.64	0.106	615280	keystroke_t	t	n/a
307.821	0.2545	615642	keystroke_i	i	n/a
307.896	0.1945	615792	keystroke_o	o	n/a
308.031	0.1195	616062	keystroke_n	n	n/a
308.3005	0.105	616601	keystroke_s	s	n/a
308.5105	0.09	617021	keystroke_Key.space	Key.space	n/a
308.8555	0.105	617711	keystroke_z	z	n/a
309.3515	0.119	618703	keystroke_s	s	n/a
309.5005	0.1345	619001	keystroke_h	h	n/a
309.56	0.316	619120	keystroke_o	o	n/a
309.771	0.119	619542	keystroke_p	p	n/a
310.1155	0.12	620231	keystroke_s	s	n/a
310.4155	0.09	620831	keystroke_Key.space	Key.space	n/a
310.7155	0.12	621431	keystroke_p	p	n/a
311.2705	0.12	622541	keystroke_u	u	n/a
311.8255	0.09	623651	keystroke_b	b	n/a
311.9605	0.12	623921	keystroke_l	l	n/a
312.0355	0.105	624071	keystroke_i	i	n/a
312.1555	0.105	624311	keystroke_s	s	n/a
312.2755	0.12	624551	keystroke_h	h	n/a
312.726	0.12	625452	keystroke_e	e	n/a
312.906	0.09	625812	keystroke_r	r	n/a
313.026	0.089	626052	keystroke_Key.enter	Key.enter	n/a
313.1235	9.025	626247	prompt	n/a	automation sitemap which's audi\n
313.67	0.1205	627340	keystroke_a	a	n/a
313.82	0.106	627640	keystroke_u	u	n/a
314.1955	0.09	628391	keystroke_t	t	n/a
314.315	0.106	628630	keystroke_o	o	n/a
314.7815	0.075	629563	keystroke_m	m	n/a
314.8565	0.134	629713	keystroke_a	a	n/a
315.0355	0.135	630071	keystroke_i	i	n/a
315.3955	0.0745	630791	keystroke_Key.backspace	Key.backspace	n/a
315.486	0.09	630972	keystroke_t	t	n/a
315.59	0.226	631180	keystroke_i	i	n/a
315.621	0.15	631242	keystroke_o	o	n/a
315.725	0.121	631450	keystroke_n	n	n/a
316.31	0.091	632620	keystroke_Key.space	Key.space	n/a
316.565	0.091	633130	keystroke_s	s	n/a
316.701	0.12	633402	keystroke_i	i	n/a
316.836	0.09	633672	keystroke_t	t	n/a
317.031	0.119	634062	keystroke_e	e	n/a
317.211	0.15	634422	keystroke_m	m	n/a
317.5405	0.075	635081	keystroke_p	p	n/a
317.825	0.075	635650	keystroke_Key.backspace	Key.backspace	n/a
317.916	0.12	635832	keystroke_a	a	n/a
318.0805	0.0745	636161	keystroke_p	p	n/a
318.23	0.1355	636460	keystroke_Key.space	Key.space	n/a
318.351	0.104	636702	keystroke_w	w	n/a
318.47	0.106	636940	keystroke_h	h	n/a
318.5155	0.1055	637031	keystroke_i	i	n/a
318.651	0.135	637302	keystroke_c	c	n/a
318.771	0.134	637542	keystroke_h	h	n/a
319.116	0.105	638232	keystroke_'	'	n/a
319.401	0.134	638802	keystroke_d	d	n/a
320.015	0.09	640030	keystroke_Key.backspace	Key.backspace	n/a
320.121	0.105	640242	keystroke_s	s	n/a
320.451	0.119	640902	keystroke_Key.space	Key.space	n/a
320.796	0.075	641592	keystroke_s	s	n/a
321.095	0.076	642190	keystroke_Key.backspace	Key.backspace	n/a
321.201	0.12	642402	keystroke_a	a	n/a
321.305	0.091	642610	keystroke_u	u	n/a
321.41	0.136	642820	keystroke_d	d	n/a
321.56	0.1355	643120	keystroke_i	i	n/a
322.0255	0.12	644051	keystroke_Key.enter	Key.enter	n/a
322.153	10.9745	644306	prompt	n/a	powell harry tasks restaurant\n
322.7005	0.075	645401	keystroke_p	p	n/a
322.8955	0.135	645791	keystroke_o	o	n/a
322.9855	0.105	645971	keystroke_w	w	n/a
323.1055	0.195	646211	keystroke_e	e	n/a
323.27	0.0605	646540	keystroke_r	r	n/a
323.5405	0.0595	647081	keystroke_Key.backspace	Key.backspace	n/a
323.7955	0.075	647591	keystroke_l	l	n/a
323.9605	0.105	647921	keystroke_l	l	n/a
324.0805	0.1195	648161	keystroke_Key.space	Key.space	n/a
324.245	0.12	648490	keystroke_h	h	n/a
324.35	0.1055	648700	keystroke_a	a	n/a
324.62	0.075	649240	keystroke_r	r	n/a
324.785	0.075	649570	keystroke_r	r	n/a
324.995	0.12	649990	keystroke_y	y	n/a
325.1	0.135	650200	keystroke_Key.space	Key.space	n/a
325.49	0.016	650980	keystroke_t	t	n/a
325.626	0.089	651252	keystroke_a	a	n/a
325.685	0.12	651370	keystroke_k	k	n/a
325.82	0.09	651640	keystroke_e	e	n/a
326.03	0.135	652060	keystroke_s	s	n/a
326.4505	0.0595	652901	keystroke_Key.backspace	Key.backspace	n/a
326.571	0.059	653142	keystroke_Key.backspace	Key.backspace	n/a
326.721	0.074	653442	keystroke_Key.backspace	Key.backspace	n/a
326.826	0.1195	653652	keystroke_a	a	n/a
326.9755	0.09	653951	keystroke_k	k	n/a
327.0955	0.045	654191	keystroke_e	e	n/a
327.4705	0.06	654941	keystroke_Key.backspace	Key.backspace	n/a
327.6205	0.06	655241	keystroke_Key.backspace	Key.backspace	n/a
327.7405	0.09	655481	keystroke_Key.backspace	Key.backspace	n/a
327.8305	0.09	655661	keystroke_s	s	n/a
327.9655	0.075	655931	keystroke_k	k	n/a
328.2055	0.09	656411	keystroke_e	e	n/a
328.4905	0.12	656981	keystroke_Key.backspace	Key.backspace	n/a
328.5955	0.12	657191	keystroke_s	s	n/a
328.8205	0.105	657641	keystroke_Key.space	Key.space	n/a
329.3005	0.09	658601	keystroke_r	r	n/a
329.4505	0.09	658901	keystroke_e	e	n/a
329.6605	0.105	659321	keystroke_s	s	n/a
329.9155	0.105	659831	keystroke_t	t	n/a
330.561	0.09	661122	keystroke_a	a	n/a
331.07	0.091	662140	keystroke_u	u	n/a
331.206	0.105	662412	keystroke_r	r	n/a
331.596	0.12	663192	keystroke_e	e	n/a
332.016	0.1195	664032	keystroke_a	a	n/a
332.2255	0.06	664451	keystroke_Key.backspace	Key.backspace	n/a
332.3455	0.09	664691	keystroke_Key.backspace	Key.backspace	n/a
332.4965	0.104	664993	keystroke_a	a	n/a
332.5705	0.12	665141	keystroke_n	n	n/a
332.7205	0.105	665441	keystroke_t	t	n/a
333.0355	0.09	666071	keystroke_Key.enter	Key.enter	n/a
333.1325	8.155	666265	prompt	n/a	deaf reasoning petroleum elder\n
333.7405	0.075	667481	keystroke_d	d	n/a
333.9355	0.105	667871	keystroke_e	e	n/a
334.1455	0.09	668291	keystroke_a	a	n/a
334.3705	0.135	668741	keystroke_f	f	n/a
334.7305	0.075	669461	keystroke_Key.space	Key.space	n/a
334.9405	0.075	669881	keystroke_r	r	n/a
335.0905	0.105	670181	keystroke_e	e	n/a
335.3005	0.12	670601	keystroke_a	a	n/a
335.4505	0.105	670901	keystroke_s	s	n/a
335.5855	0.15	671171	keystroke_o	o	n/a
335.7205	0.075	671441	keystroke_n	n	n/a
335.8855	0.15	671771	keystroke_i	i	n/a
335.9755	0.09	671951	keystroke_n	n	n/a
336.0955	0.135	672191	keystroke_g	g	n/a
336.3355	0.075	672671	keystroke_Key.space	Key.space	n/a
336.8905	0.15	673781	keystroke_p	p	n/a
337.0855	0.09	674171	keystroke_e	e	n/a
337.416	0.09	674832	keystroke_t	t	n/a
337.805	0.106	675610	keystroke_r	r	n/a
337.926	0.075	675852	keystroke_o	o	n/a
338.106	0.09	676212	keystroke_l	l	n/a
339.336	0.135	678672	keystroke_e	e	n/a
339.6355	0.075	679271	keystroke_u	u	n/a
339.8305	0.09	679661	keystroke_m	m	n/a
339.9355	0.105	679871	keystroke_Key.space	Key.space	n/a
340.1905	0.06	680381	keystroke_l	l	n/a
340.4605	0.075	680921	keystroke_Key.backspace	Key.backspace	n/a
340.5505	0.09	681101	keystroke_e	e	n/a
340.6555	0.12	681311	keystroke_l	l	n/a
340.7305	0.12	681461	keystroke_d	d	n/a
340.9255	0.15	681851	keystroke_e	e	n/a
341.0455	0.12	682091	keystroke_r	r	n/a
341.1665	0.119	682333	keystroke_Key.enter	Key.enter	n/a
341.2925	8.275	682585	prompt	n/a	math ultimate advisor alternate\n
341.84	0.09	683680	keystroke_m	m	n/a
341.96	0.105	683920	keystroke_a	a	n/a
342.125	0.105	684250	keystroke_t	t	n/a
342.215	0.106	684430	keystroke_h	h	n/a
342.335	0.09	684670	keystroke_Key.space	Key.space	n/a
342.515	0.06	685030	keystroke_l	l	n/a
342.935	0.061	685870	keystroke_8	8	n/a
343.16	0.06	686320	keystroke_Key.backspace	Key.backspace	n/a
343.295	0.09	686590	keystroke_Key.backspace	Key.backspace	n/a
343.475	0.105	686950	keystroke_u	u	n/a
343.76	0.09	687520	keystroke_l	l	n/a
344.6	0.105	689200	keystroke_t	t	n/a
344.69	0.105	689380	keystroke_i	i	n/a
345.02	0.076	690040	keystroke_m	m	n/a
345.11	0.09	690220	keystroke_a	a	n/a
345.275	0.105	690550	keystroke_t	t	n/a
345.591	0.119	691182	keystroke_e	e	n/a
345.725	0.106	691450	keystroke_Key.space	Key.space	n/a
345.966	0.119	691932	keystroke_a	a	n/a
346.101	0.119	692202	keystroke_d	d	n/a
346.31	0.121	692620	keystroke_v	v	n/a
346.505	0.09	693010	keystroke_i	i	n/a
346.73	0.091	693460	keystroke_o	o	n/a
346.88	0.076	693760	keystroke_s	s	n/a
347.06	0.0605	694120	keystroke_Key.backspace	Key.backspace	n/a
347.1805	0.075	694361	keystroke_Key.backspace	Key.backspace	n/a
347.3005	0.09	694601	keystroke_s	s	n/a
347.3905	0.1055	694781	keystroke_o	o	n/a
347.526	0.12	695052	keystroke_r	r	n/a
347.691	0.105	695382	keystroke_Key.space	Key.space	n/a
347.931	0.12	695862	keystroke_a	a	n/a
348.066	0.105	696132	keystroke_l	l	n/a
348.276	0.06	696552	keystroke_t	t	n/a
348.426	0.195	696852	keystroke_e	e	n/a
348.561	0.075	697122	keystroke_r	r	n/a
348.726	0.09	697452	keystroke_n	n	n/a
348.786	0.12	697572	keystroke_a	a	n/a
348.966	0.075	697932	keystroke_t	t	n/a
349.131	0.135	698262	keystroke_e	e	n/a
349.461	0.104	698922	keystroke_Key.enter	Key.enter	n/a
349.5735	11.6045	699147	prompt	n/a	kent constantly remarks communicate\n
350.121	0.12	700242	keystroke_k	k	n/a
350.21	0.12	700420	keystroke_e	e	n/a
350.361	0.089	700722	keystroke_n	n	n/a
350.465	0.075	700930	keystroke_t	t	n/a
350.555	0.12	701110	keystroke_Key.space	Key.space	n/a
350.84	0.105	701680	keystroke_c	c	n/a
350.975	0.135	701950	keystroke_o	o	n/a
351.066	0.09	702132	keystroke_n	n	n/a
351.23	0.09	702460	keystroke_s	s	n/a
351.485	0.061	702970	keystroke_t	t	n/a
351.921	0.075	703842	keystroke_a	a	n/a
352.011	0.089	704022	keystroke_n	n	n/a
352.175	0.15	704350	keystroke_t	t	n/a
352.566	0.119	705132	keystroke_l	l	n/a
352.775	0.091	705550	keystroke_y	y	n/a
352.94	0.12	705880	keystroke_Key.space	Key.space	n/a
353.241	0.089	706482	keystroke_r	r	n/a
353.346	0.12	706692	keystroke_e	e	n/a
353.481	0.105	706962	keystroke_m	m	n/a
353.6	0.09	707200	keystroke_a	a	n/a
353.721	0.104	707442	keystroke_k	k	n/a
353.78	0.091	707560	keystroke_e	e	n/a
354.0805	0.09	708161	keystroke_s	s	n/a
354.2455	0.09	708491	keystroke_Key.space	Key.space	n/a
354.621	0.12	709242	keystroke_c	c	n/a
354.726	0.12	709452	keystroke_o	o	n/a
354.786	0.105	709572	keystroke_n	n	n/a
355.116	0.089	710232	keystroke_Key.backspace	Key.backspace	n/a
355.491	0.09	710982	keystroke_m	m	n/a
355.626	0.09	711252	keystroke_m	m	n/a
355.866	0.059	711732	keystroke_u	u	n/a
356.091	0.104	712182	keystroke_n	n	n/a
356.21	0.1055	712420	keystroke_i	i	n/a
356.4655	0.15	712931	keystroke_c	c	n/a
356.6305	0.075	713261	keystroke_a	a	n/a
356.8105	0.06	713621	keystroke_t	t	n/a
356.8405	0.225	713681	keystroke_i	i	n/a
356.9155	0.12	713831	keystroke_o	o	n/a
356.9755	0.135	713951	keystroke_n	n	n/a
357.6055	0.06	715211	keystroke_Key.backspace	Key.backspace	n/a
357.7555	0.075	715511	keystroke_Key.backspace	Key.backspace	n/a
358.1155	0.105	716231	keystroke_Key.backspace	Key.backspace	n/a
358.2355	0.0905	716471	keystroke_a	a	n/a
359.946	0.059	719892	keystroke_Key.backspace	Key.backspace	n/a
360.096	0.045	720192	keystroke_Key.backspace	Key.backspace	n/a
360.321	0.03	720642	keystroke_Key.backspace	Key.backspace	n/a
360.336	0.075	720672	keystroke_a	a	n/a
360.516	0.075	721032	keystroke_t	t	n/a
360.681	0.105	721362	keystroke_e	e	n/a
361.041	0.1345	722082	keystroke_Key.enter	Key.enter	n/a
361.184	7.704	722368	prompt	n/a	forms growth accident populations\n
361.91	0.09	723820	keystroke_f	f	n/a
362.031	0.075	724062	keystroke_o	o	n/a
362.135	0.106	724270	keystroke_r	r	n/a
362.225	0.09	724450	keystroke_m	m	n/a
362.346	0.1195	724692	keystroke_s	s	n/a
362.4655	0.09	724931	keystroke_Key.space	Key.space	n/a
362.631	0.0895	725262	keystroke_g	g	n/a
362.8255	0.09	725651	keystroke_r	r	n/a
362.931	0.1645	725862	keystroke_o	o	n/a
363.1405	0.09	726281	keystroke_t	t	n/a
363.9955	0.075	727991	keystroke_Key.backspace	Key.backspace	n/a
364.1005	0.09	728201	keystroke_w	w	n/a
364.2655	0.12	728531	keystroke_t	t	n/a
364.3855	0.105	728771	keystroke_h	h	n/a
364.6705	0.105	729341	keystroke_Key.space	Key.space	n/a
364.9405	0.1055	729881	keystroke_a	a	n/a
365.105	0.076	730210	keystroke_c	c	n/a
365.256	0.09	730512	keystroke_c	c	n/a
365.376	0.105	730752	keystroke_i	i	n/a
365.466	0.075	730932	keystroke_d	d	n/a
365.63	0.106	731260	keystroke_e	e	n/a
365.721	0.089	731442	keystroke_n	n	n/a
365.871	0.104	731742	keystroke_t	t	n/a
366.14	0.106	732280	keystroke_Key.space	Key.space	n/a
366.621	0.12	733242	keystroke_p	p	n/a
366.771	0.179	733542	keystroke_o	o	n/a
366.966	0.089	733932	keystroke_p	p	n/a
367.175	0.076	734350	keystroke_u	u	n/a
367.28	0.105	734560	keystroke_l	l	n/a
367.7905	0.075	735581	keystroke_a	a	n/a
367.9705	0.0895	735941	keystroke_t	t	n/a
368.03	0.24	736060	keystroke_i	i	n/a
368.09	0.135	736180	keystroke_o	o	n/a
368.18	0.12	736360	keystroke_n	n	n/a
368.63	0.091	737260	keystroke_s	s	n/a
368.78	0.105	737560	keystroke_Key.enter	Key.enter	n/a
368.893	11.1395	737786	prompt	n/a	dodge highlighted composition optimization\n
369.5305	0.1195	739061	keystroke_d	d	n/a
369.68	0.105	739360	keystroke_o	o	n/a
369.755	0.105	739510	keystroke_d	d	n/a
369.95	0.075	739900	keystroke_g	g	n/a
370.1	0.165	740200	keystroke_e	e	n/a
370.2355	0.135	740471	keystroke_Key.space	Key.space	n/a
370.445	0.12	740890	keystroke_h	h	n/a
370.5805	0.0895	741161	keystroke_i	i	n/a
370.7005	0.105	741401	keystroke_g	g	n/a
370.7905	0.12	741581	keystroke_h	h	n/a
370.9405	0.075	741881	keystroke_t	t	n/a
371.0605	0.151	742121	keystroke_l	l	n/a
371.1355	0.135	742271	keystroke_i	i	n/a
371.3455	0.0605	742691	keystroke_g	g	n/a
371.3755	0.12	742751	keystroke_h	h	n/a
371.6455	0.015	743291	keystroke_t	t	n/a
372.2905	0.09	744581	keystroke_Key.backspace	Key.backspace	n/a
372.4255	0.09	744851	keystroke_Key.backspace	Key.backspace	n/a
372.5755	0.06	745151	keystroke_Key.backspace	Key.backspace	n/a
372.7255	0.045	745451	keystroke_Key.backspace	Key.backspace	n/a
372.8455	0.0455	745691	keystroke_Key.backspace	Key.backspace	n/a
372.9955	0.045	745991	keystroke_Key.backspace	Key.backspace	n/a
373.2965	0.12	746593	keystroke_l	l	n/a
373.3705	0.105	746741	keystroke_i	i	n/a
373.5355	0.12	747071	keystroke_g	g	n/a
373.6405	0.12	747281	keystroke_h	h	n/a
373.7765	0.089	747553	keystroke_t	t	n/a
373.9705	0.12	747941	keystroke_e	e	n/a
374.3005	0.105	748601	keystroke_d	d	n/a
374.4205	0.09	748841	keystroke_Key.space	Key.space	n/a
374.6605	0.135	749321	keystroke_c	c	n/a
374.7505	0.195	749501	keystroke_o	o	n/a
374.8555	0.1495	749711	keystroke_m	m	n/a
375.0505	0.0895	750101	keystroke_p	p	n/a
375.6355	0.12	751271	keystroke_i	i	n/a
375.9655	0.045	751931	keystroke_Key.backspace	Key.backspace	n/a
376.1315	0.104	752263	keystroke_o	o	n/a
376.2805	0.105	752561	keystroke_s	s	n/a
376.4005	0.075	752801	keystroke_i	i	n/a
376.6105	0.0895	753221	keystroke_t	t	n/a
376.67	0.2405	753340	keystroke_i	i	n/a
376.745	0.135	753490	keystroke_o	o	n/a
376.82	0.121	753640	keystroke_n	n	n/a
377.5105	0.09	755021	keystroke_Key.space	Key.space	n/a
377.795	0.12	755590	keystroke_o	o	n/a
378.02	0.0905	756040	keystroke_p	p	n/a
378.245	0.091	756490	keystroke_t	t	n/a
378.3805	0.105	756761	keystroke_i	i	n/a
378.6205	0.06	757241	keystroke_m	m	n/a
378.815	0.0905	757630	keystroke_i	i	n/a
379.0255	0.075	758051	keystroke_z	z	n/a
379.19	0.0905	758380	keystroke_a	a	n/a
379.386	0.089	758772	keystroke_t	t	n/a
379.445	0.241	758890	keystroke_i	i	n/a
379.5055	0.1645	759011	keystroke_o	o	n/a
379.611	0.1195	759222	keystroke_n	n	n/a
379.9255	0.105	759851	keystroke_Key.enter	Key.enter	n/a
380.0375	6.7595	760075	prompt	n/a	sheer drivers poet cartoon\n
380.736	0.015	761472	keystroke_s	s	n/a
380.841	0.09	761682	keystroke_h	h	n/a
380.991	0.09	761982	keystroke_e	e	n/a
381.141	0.089	762282	keystroke_e	e	n/a
381.35	0.105	762700	keystroke_r	r	n/a
381.59	0.09	763180	keystroke_Key.space	Key.space	n/a
381.875	0.091	763750	keystroke_d	d	n/a
382.116	0.059	764232	keystroke_r	r	n/a
382.73	0.106	765460	keystroke_i	i	n/a
382.85	0.075	765700	keystroke_v	v	n/a
382.955	0.135	765910	keystroke_e	e	n/a
383.061	0.12	766122	keystroke_r	r	n/a
383.345	0.045	766690	keystroke_Key.space	Key.space	n/a
383.825	0.105	767650	keystroke_Key.backspace	Key.backspace	n/a
383.916	0.119	767832	keystroke_s	s	n/a
384.05	0.105	768100	keystroke_Key.space	Key.space	n/a
384.17	0.121	768340	keystroke_p	p	n/a
384.246	0.195	768492	keystroke_o	o	n/a
384.786	0.105	769572	keystroke_e	e	n/a
384.951	0.12	769902	keystroke_t	t	n/a
385.085	0.06	770170	keystroke_Key.space	Key.space	n/a
385.296	0.134	770592	keystroke_c	c	n/a
385.431	0.105	770862	keystroke_a	a	n/a
385.641	0.089	771282	keystroke_r	r	n/a
385.941	0.045	771882	keystroke_t	t	n/a
386.151	0.045	772302	keystroke_o	o	n/a
386.316	0.104	772632	keystroke_o	o	n/a
386.466	0.074	772932	keystroke_n	n	n/a
386.691	0.104	773382	keystroke_Key.enter	Key.enter	n/a
386.8035	10.419	773607	prompt	n/a	athletes giving retreat ridge\n
387.381	0.105	774762	keystroke_a	a	n/a
387.6055	0.105	775211	keystroke_t	t	n/a
387.8905	0.0905	775781	keystroke_h	h	n/a
388.0405	0.1355	776081	keystroke_e	e	n/a
388.1905	0.105	776381	keystroke_l	l	n/a
388.4305	0.1505	776861	keystroke_e	e	n/a
388.6405	0.075	777281	keystroke_t	t	n/a
388.7755	0.15	777551	keystroke_e	e	n/a
389.1355	0.12	778271	keystroke_Key.space	Key.space	n/a
389.4055	0.075	778811	keystroke_g	g	n/a
389.6905	0.09	779381	keystroke_i	i	n/a
391.416	0.059	782832	keystroke_Key.backspace	Key.backspace	n/a
391.595	0.06	783190	keystroke_Key.backspace	Key.backspace	n/a
391.686	0.044	783372	keystroke_Key.backspace	Key.backspace	n/a
391.85	0.06	783700	keystroke_Key.backspace	Key.backspace	n/a
392.076	0.104	784152	keystroke_s	s	n/a
392.21	0.09	784420	keystroke_Key.space	Key.space	n/a
392.42	0.076	784840	keystroke_g	g	n/a
392.511	0.105	785022	keystroke_i	i	n/a
392.601	0.075	785202	keystroke_v	v	n/a
392.796	0.075	785592	keystroke_e	e	n/a
393.426	0.06	786852	keystroke_Key.backspace	Key.backspace	n/a
393.741	0.134	787482	keystroke_i	i	n/a
393.816	0.089	787632	keystroke_n	n	n/a
393.921	0.165	787842	keystroke_g	g	n/a
394.265	0.12	788530	keystroke_Key.space	Key.space	n/a
394.566	0.075	789132	keystroke_r	r	n/a
394.656	0.135	789312	keystroke_e	e	n/a
394.911	0.089	789822	keystroke_t	t	n/a
395.106	0.105	790212	keystroke_r	r	n/a
395.3	0.136	790600	keystroke_e	e	n/a
395.42	0.105	790840	keystroke_a	a	n/a
395.5855	0.075	791171	keystroke_t	t	n/a
395.6905	0.075	791381	keystroke_Key.space	Key.space	n/a
395.9455	0.105	791891	keystroke_r	r	n/a
396.1105	0.12	792221	keystroke_i	i	n/a
396.2005	0.12	792401	keystroke_d	d	n/a
396.4105	0.06	792821	keystroke_g	g	n/a
396.5155	0.135	793031	keystroke_e	e	n/a
397.1155	0.105	794231	keystroke_Key.enter	Key.enter	n/a
397.2275	8.3505	794455	prompt	n/a	myself rebate subsection alcohol\n
397.7755	0.1355	795551	keystroke_m	m	n/a
397.8955	0.09	795791	keystroke_a	a	n/a
398.0905	0.075	796181	keystroke_y	y	n/a
398.435	0.045	796870	keystroke_Key.backspace	Key.backspace	n/a
398.54	0.091	797080	keystroke_Key.backspace	Key.backspace	n/a
398.646	0.045	797292	keystroke_y	y	n/a
399.126	0.09	798252	keystroke_s	s	n/a
399.261	0.105	798522	keystroke_e	e	n/a
399.336	0.105	798672	keystroke_l	l	n/a
399.711	0.12	799422	keystroke_f	f	n/a
399.996	0.09	799992	keystroke_Key.space	Key.space	n/a
400.311	0.12	800622	keystroke_r	r	n/a
400.446	0.12	800892	keystroke_e	e	n/a
400.671	0.06	801342	keystroke_b	b	n/a
400.776	0.09	801552	keystroke_a	a	n/a
400.971	0.165	801942	keystroke_e	e	n/a
401.436	0.075	802872	keystroke_Key.backspace	Key.backspace	n/a
401.511	0.075	803022	keystroke_t	t	n/a
401.706	0.15	803412	keystroke_e	e	n/a
401.901	0.12	803802	keystroke_Key.space	Key.space	n/a
402.1555	0.12	804311	keystroke_s	s	n/a
402.3955	0.105	804791	keystroke_u	u	n/a
402.4855	0.105	804971	keystroke_b	b	n/a
402.7105	0.105	805421	keystroke_s	s	n/a
402.9505	0.09	805901	keystroke_e	e	n/a
403.1755	0.105	806351	keystroke_c	c	n/a
403.3855	0.105	806771	keystroke_t	t	n/a
403.4605	0.24	806921	keystroke_i	i	n/a
403.5355	0.15	807071	keystroke_o	o	n/a
403.6105	0.121	807221	keystroke_n	n	n/a
403.7455	0.06	807491	keystroke_Key.space	Key.space	n/a
403.9105	0.12	807821	keystroke_a	a	n/a
404.1655	0.12	808331	keystroke_l	l	n/a
404.2555	0.12	808511	keystroke_c	c	n/a
404.6755	0.105	809351	keystroke_o	o	n/a
404.9755	0.12	809951	keystroke_h	h	n/a
405.1405	0.105	810281	keystroke_o	o	n/a
405.3205	0.09	810641	keystroke_l	l	n/a
405.5005	0.075	811001	keystroke_Key.enter	Key.enter	n/a
405.583	7.1645	811166	prompt	n/a	democrat field ballot beam\n
407.091	0.15	814182	keystroke_d	d	n/a
407.331	0.09	814662	keystroke_e	e	n/a
407.736	0.135	815472	keystroke_m	m	n/a
407.871	0.105	815742	keystroke_o	o	n/a
408.171	0.014	816342	keystroke_c	c	n/a
408.5165	0.0895	817033	keystroke_r	r	n/a
408.785	0.121	817570	keystroke_a	a	n/a
409.0705	0.105	818141	keystroke_t	t	n/a
409.535	0.12	819070	keystroke_Key.space	Key.space	n/a
409.76	0.09	819520	keystroke_f	f	n/a
409.955	0.09	819910	keystroke_i	i	n/a
410.1055	0.1045	820211	keystroke_e	e	n/a
410.225	0.1065	820450	keystroke_l	l	n/a
410.3455	0.1045	820691	keystroke_d	d	n/a
410.435	0.135	820870	keystroke_Key.space	Key.space	n/a
410.736	0.044	821472	keystroke_b	b	n/a
410.9	0.1365	821800	keystroke_a	a	n/a
411.0505	0.0605	822101	keystroke_l	l	n/a
411.185	0.106	822370	keystroke_l	l	n/a
411.4705	0.1205	822941	keystroke_o	o	n/a
411.635	0.1205	823270	keystroke_t	t	n/a
411.7255	0.1195	823451	keystroke_Key.space	Key.space	n/a
411.9955	0.075	823991	keystroke_b	b	n/a
412.175	0.091	824350	keystroke_e	e	n/a
412.341	0.12	824682	keystroke_a	a	n/a
412.476	0.0895	824952	keystroke_m	m	n/a
412.6405	0.105	825281	keystroke_Key.enter	Key.enter	n/a
412.753	5.844	825506	prompt	n/a	right bare shoulder workplace\n
413.301	0.0895	826602	keystroke_r	r	n/a
413.4055	0.075	826811	keystroke_i	i	n/a
413.5105	0.0755	827021	keystroke_g	g	n/a
413.6	0.106	827200	keystroke_h	h	n/a
413.721	0.104	827442	keystroke_t	t	n/a
413.796	0.135	827592	keystroke_Key.space	Key.space	n/a
413.946	0.09	827892	keystroke_t	t	n/a
414.261	0.015	828522	keystroke_Key.backspace	Key.backspace	n/a
414.336	0.059	828672	keystroke_b	b	n/a
414.426	0.12	828852	keystroke_a	a	n/a
414.636	0.12	829272	keystroke_r	r	n/a
414.786	0.135	829572	keystroke_e	e	n/a
414.936	0.1045	829872	keystroke_Key.space	Key.space	n/a
415.1305	0.105	830261	keystroke_s	s	n/a
415.2655	0.135	830531	keystroke_h	h	n/a
415.3555	0.12	830711	keystroke_o	o	n/a
415.7305	0.09	831461	keystroke_u	u	n/a
415.9105	0.12	831821	keystroke_l	l	n/a
416.0905	0.09	832181	keystroke_d	d	n/a
416.2705	0.15	832541	keystroke_e	e	n/a
416.3755	0.135	832751	keystroke_r	r	n/a
416.5255	0.09	833051	keystroke_Key.space	Key.space	n/a
416.7955	0.09	833591	keystroke_w	w	n/a
416.8705	0.09	833741	keystroke_o	o	n/a
416.9905	0.09	833981	keystroke_r	r	n/a
417.0655	0.09	834131	keystroke_k	k	n/a
417.2305	0.135	834461	keystroke_s	s	n/a
417.5905	0.0595	835181	keystroke_Key.backspace	Key.backspace	n/a
417.786	0.12	835572	keystroke_p	p	n/a
418.01	0.121	836020	keystroke_l	l	n/a
418.116	0.135	836232	keystroke_a	a	n/a
418.221	0.0745	836442	keystroke_c	c	n/a
418.4005	0.09	836801	keystroke_e	e	n/a
418.4915	0.104	836983	keystroke_Key.enter	Key.enter	n/a
418.6015	12.086	837203	prompt	n/a	aaron trains characterized talking\n
419.121	0.135	838242	keystroke_a	a	n/a
419.286	0.105	838572	keystroke_s	s	n/a
419.586	0.075	839172	keystroke_Key.backspace	Key.backspace	n/a
419.706	0.09	839412	keystroke_a	a	n/a
419.901	0.075	839802	keystroke_r	r	n/a
419.991	0.135	839982	keystroke_o	o	n/a
420.096	0.09	840192	keystroke_n	n	n/a
420.291	0.105	840582	keystroke_Key.space	Key.space	n/a
420.516	0.075	841032	keystroke_t	t	n/a
420.681	0.075	841362	keystroke_r	r	n/a
420.876	0.135	841752	keystroke_a	a	n/a
421.011	0.21	842022	keystroke_i	i	n/a
421.131	0.105	842262	keystroke_n	n	n/a
421.461	0.12	842922	keystroke_s	s	n/a
422.676	0.12	845352	keystroke_Key.space	Key.space	n/a
422.916	0.135	845832	keystroke_c	c	n/a
423.141	0.135	846282	keystroke_a	a	n/a
423.411	0.075	846822	keystroke_Key.backspace	Key.backspace	n/a
423.591	0.105	847182	keystroke_h	h	n/a
423.756	0.12	847512	keystroke_a	a	n/a
424.011	0.1195	848022	keystroke_r	r	n/a
424.2505	0.12	848501	keystroke_a	a	n/a
424.4755	0.105	848951	keystroke_c	c	n/a
424.731	0.105	849462	keystroke_t	t	n/a
424.956	0.12	849912	keystroke_e	e	n/a
425.106	0.105	850212	keystroke_r	r	n/a
425.226	0.09	850452	keystroke_i	i	n/a
425.616	0.075	851232	keystroke_e	e	n/a
425.811	0.1345	851622	keystroke_d	d	n/a
425.9905	0.105	851981	keystroke_Key.space	Key.space	n/a
426.246	0.075	852492	keystroke_Key.backspace	Key.backspace	n/a
426.3805	0.075	852761	keystroke_Key.backspace	Key.backspace	n/a
426.4855	0.0905	852971	keystroke_Key.backspace	Key.backspace	n/a
426.6355	0.0895	853271	keystroke_Key.backspace	Key.backspace	n/a
426.846	0.09	853692	keystroke_z	z	n/a
426.981	0.105	853962	keystroke_i	i	n/a
427.101	0.075	854202	keystroke_e	e	n/a
427.296	0.12	854592	keystroke_d	d	n/a
428.286	0.0745	856572	keystroke_Key.backspace	Key.backspace	n/a
428.4655	0.0595	856931	keystroke_Key.backspace	Key.backspace	n/a
428.5855	0.0605	857171	keystroke_Key.backspace	Key.backspace	n/a
428.7205	0.06	857441	keystroke_Key.backspace	Key.backspace	n/a
428.9155	0.075	857831	keystroke_i	i	n/a
428.9605	0.105	857921	keystroke_z	z	n/a
429.126	0.105	858252	keystroke_e	e	n/a
429.32	0.12	858640	keystroke_d	d	n/a
429.441	0.12	858882	keystroke_Key.space	Key.space	n/a
429.785	0.076	859570	keystroke_t	t	n/a
429.936	0.134	859872	keystroke_a	a	n/a
429.965	0.166	859930	keystroke_l	l	n/a
430.041	0.12	860082	keystroke_k	k	n/a
430.221	0.179	860442	keystroke_i	i	n/a
430.311	0.12	860622	keystroke_n	n	n/a
430.386	0.105	860772	keystroke_g	g	n/a
430.551	0.134	861102	keystroke_Key.enter	Key.enter	n/a
430.6925	6.79	861385	prompt	n/a	articles animated pills prisoner\n
431.226	0.135	862452	keystroke_a	a	n/a
431.495	0.121	862990	keystroke_t	t	n/a
431.856	0.0895	863712	keystroke_Key.backspace	Key.backspace	n/a
432.035	0.12	864070	keystroke_r	r	n/a
432.305	0.12	864610	keystroke_t	t	n/a
432.455	0.0905	864910	keystroke_i	i	n/a
432.5905	0.135	865181	keystroke_c	c	n/a
432.756	0.135	865512	keystroke_l	l	n/a
432.846	0.075	865692	keystroke_e	e	n/a
433.026	0.1345	866052	keystroke_s	s	n/a
433.1455	0.1045	866291	keystroke_Key.space	Key.space	n/a
433.4905	0.12	866981	keystroke_a	a	n/a
433.6405	0.104	867281	keystroke_n	n	n/a
433.8055	0.105	867611	keystroke_i	i	n/a
434.001	0.09	868002	keystroke_m	m	n/a
434.121	0.105	868242	keystroke_a	a	n/a
434.2855	0.09	868571	keystroke_t	t	n/a
434.4205	0.105	868841	keystroke_e	e	n/a
434.6455	0.075	869291	keystroke_d	d	n/a
434.69	0.1205	869380	keystroke_Key.space	Key.space	n/a
434.915	0.105	869830	keystroke_p	p	n/a
435.065	0.12	870130	keystroke_i	i	n/a
435.2455	0.0595	870491	keystroke_l	l	n/a
435.41	0.075	870820	keystroke_l	l	n/a
435.5155	0.1195	871031	keystroke_s	s	n/a
435.6505	0.105	871301	keystroke_Key.space	Key.space	n/a
436.01	0.0905	872020	keystroke_p	p	n/a
436.2505	0.105	872501	keystroke_r	r	n/a
436.4605	0.105	872921	keystroke_i	i	n/a
436.6705	0.06	873341	keystroke_s	s	n/a
436.7455	0.105	873491	keystroke_o	o	n/a
436.8355	0.075	873671	keystroke_n	n	n/a
437.0755	0.135	874151	keystroke_e	e	n/a
437.2115	0.104	874423	keystroke_r	r	n/a
437.4055	0.075	874811	keystroke_Key.enter	Key.enter	n/a
437.487	9.73	874974	prompt	n/a	departments palace newspaper premium\n
438.02	0.09	876040	keystroke_d	d	n/a
438.186	0.134	876372	keystroke_e	e	n/a
438.336	0.12	876672	keystroke_p	p	n/a
438.44	0.075	876880	keystroke_a	a	n/a
438.575	0.12	877150	keystroke_r	r	n/a
438.77	0.105	877540	keystroke_t	t	n/a
438.98	0.075	877960	keystroke_m	m	n/a
439.085	0.105	878170	keystroke_e	e	n/a
439.235	0.105	878470	keystroke_n	n	n/a
439.356	0.089	878712	keystroke_t	t	n/a
439.536	0.105	879072	keystroke_s	s	n/a
439.6555	0.0595	879311	keystroke_Key.space	Key.space	n/a
439.865	0.106	879730	keystroke_p	p	n/a
440.015	0.105	880030	keystroke_a	a	n/a
440.091	0.149	880182	keystroke_l	l	n/a
440.256	0.059	880512	keystroke_c	c	n/a
440.436	0.089	880872	keystroke_e	e	n/a
440.63	0.09	881260	keystroke_Key.space	Key.space	n/a
441.125	0.06	882250	keystroke_Key.backspace	Key.backspace	n/a
441.26	0.06	882520	keystroke_Key.backspace	Key.backspace	n/a
441.395	0.075	882790	keystroke_Key.backspace	Key.backspace	n/a
441.95	0.106	883900	keystroke_a	a	n/a
442.056	0.105	884112	keystroke_c	c	n/a
442.311	0.12	884622	keystroke_e	e	n/a
442.94	0.105	885880	keystroke_Key.space	Key.space	n/a
443.2555	0.105	886511	keystroke_w	w	n/a
443.5405	0.06	887081	keystroke_Key.backspace	Key.backspace	n/a
443.6905	0.09	887381	keystroke_n	n	n/a
443.7655	0.075	887531	keystroke_e	e	n/a
443.8555	0.09	887711	keystroke_w	w	n/a
444.0505	0.075	888101	keystroke_s	s	n/a
444.1555	0.105	888311	keystroke_p	p	n/a
444.3055	0.1055	888611	keystroke_a	a	n/a
444.515	0.135	889030	keystroke_p	p	n/a
444.666	0.135	889332	keystroke_e	e	n/a
444.815	0.135	889630	keystroke_r	r	n/a
445.055	0.105	890110	keystroke_Key.space	Key.space	n/a
445.461	0.105	890922	keystroke_p	p	n/a
445.64	0.135	891280	keystroke_r	r	n/a
445.76	0.121	891520	keystroke_e	e	n/a
446.135	0.075	892270	keystroke_m	m	n/a
446.391	0.09	892782	keystroke_i	i	n/a
446.601	0.09	893202	keystroke_u	u	n/a
446.87	0.105	893740	keystroke_m	m	n/a
447.111	0.104	894222	keystroke_Key.enter	Key.enter	n/a
447.225	9.907	894450	prompt	n/a	print tribes growing israel\n
447.891	0.074	895782	keystroke_p	p	n/a
448.01	0.21	896020	keystroke_i	i	n/a
448.175	0.09	896350	keystroke_r	r	n/a
448.205	0.061	896410	keystroke_n	n	n/a
448.535	0.045	897070	keystroke_Key.backspace	Key.backspace	n/a
448.67	0.06	897340	keystroke_Key.backspace	Key.backspace	n/a
448.88	0.09	897760	keystroke_Key.backspace	Key.backspace	n/a
449.076	0.074	898152	keystroke_r	r	n/a
449.12	0.12	898240	keystroke_i	i	n/a
449.195	0.12	898390	keystroke_n	n	n/a
449.33	0.105	898660	keystroke_t	t	n/a
449.645	0.09	899290	keystroke_Key.space	Key.space	n/a
449.975	0.075	899950	keystroke_t	t	n/a
450.095	0.105	900190	keystroke_i	i	n/a
450.216	0.059	900432	keystroke_b	b	n/a
450.5	0.105	901000	keystroke_e	e	n/a
450.8	0.06	901600	keystroke_Key.backspace	Key.backspace	n/a
450.935	0.075	901870	keystroke_Key.backspace	Key.backspace	n/a
451.52	0.105	903040	keystroke_Key.backspace	Key.backspace	n/a
451.7	0.105	903400	keystroke_r	r	n/a
451.82	0.09	903640	keystroke_i	i	n/a
451.97	0.075	903940	keystroke_b	b	n/a
452.751	0.09	905502	keystroke_e	e	n/a
452.916	0.135	905832	keystroke_s	s	n/a
453.051	0.075	906102	keystroke_Key.space	Key.space	n/a
453.246	0.105	906492	keystroke_g	g	n/a
453.651	0.06	907302	keystroke_r	r	n/a
453.771	0.09	907542	keystroke_o	o	n/a
453.831	0.135	907662	keystroke_w	w	n/a
453.981	0.165	907962	keystroke_i	i	n/a
454.101	0.09	908202	keystroke_n	n	n/a
454.206	0.15	908412	keystroke_g	g	n/a
454.341	0.0735	908682	keystroke_Key.space	Key.space	n/a
454.551	0.1045	909102	keystroke_i	i	n/a
454.6705	0.135	909341	keystroke_s	s	n/a
454.94	0.045	909880	keystroke_r	r	n/a
455.03	0.135	910060	keystroke_e	e	n/a
455.195	0.1205	910390	keystroke_a	a	n/a
455.7055	0.06	911411	keystroke_Key.backspace	Key.backspace	n/a
455.8405	0.105	911681	keystroke_Key.backspace	Key.backspace	n/a
456.0055	0.12	912011	keystroke_a	a	n/a
456.1405	0.09	912281	keystroke_l	l	n/a
456.2755	0.03	912551	keystroke_e	e	n/a
456.5005	0.045	913001	keystroke_Key.backspace	Key.backspace	n/a
456.6505	0.06	913301	keystroke_Key.backspace	Key.backspace	n/a
456.7555	0.135	913511	keystroke_e	e	n/a
456.8305	0.105	913661	keystroke_l	l	n/a
457.0255	0.105	914051	keystroke_Key.enter	Key.enter	n/a
457.137	6.22	914274	prompt	n/a	allows deleted habitat apply\n
457.8055	0.12	915611	keystroke_a	a	n/a
458.0905	0.105	916181	keystroke_l	l	n/a
458.2555	0.075	916511	keystroke_l	l	n/a
458.4205	0.105	916841	keystroke_o	o	n/a
458.5105	0.12	917021	keystroke_w	w	n/a
458.7655	0.105	917531	keystroke_s	s	n/a
458.9005	0.09	917801	keystroke_Key.space	Key.space	n/a
459.3955	0.045	918791	keystroke_d	d	n/a
459.5305	0.105	919061	keystroke_e	e	n/a
459.6505	0.12	919301	keystroke_l	l	n/a
459.7405	0.105	919481	keystroke_e	e	n/a
459.9205	0.09	919841	keystroke_t	t	n/a
460.1455	0.09	920291	keystroke_e	e	n/a
460.3405	0.105	920681	keystroke_d	d	n/a
460.4755	0.09	920951	keystroke_Key.space	Key.space	n/a
460.7605	0.105	921521	keystroke_h	h	n/a
460.8505	0.12	921701	keystroke_a	a	n/a
461.2255	0.075	922451	keystroke_b	b	n/a
461.3455	0.15	922691	keystroke_i	i	n/a
461.4805	0.09	922961	keystroke_t	t	n/a
461.9155	0.09	923831	keystroke_a	a	n/a
462.0805	0.135	924161	keystroke_t	t	n/a
462.3355	0.105	924671	keystroke_Key.space	Key.space	n/a
462.7105	0.134	925421	keystroke_a	a	n/a
462.8005	0.06	925601	keystroke_p	p	n/a
462.981	0.06	925962	keystroke_p	p	n/a
463.086	0.09	926172	keystroke_y	y	n/a
463.265	0.09	926530	keystroke_Key.enter	Key.enter	n/a
463.3615	6.341	926723	prompt	n/a	premium works equation football\n
464.3455	0.09	928691	keystroke_p	p	n/a
464.4505	0.12	928901	keystroke_r	r	n/a
464.5405	0.135	929081	keystroke_e	e	n/a
464.6905	0.105	929381	keystroke_m	m	n/a
464.9005	0.105	929801	keystroke_i	i	n/a
465.2005	0.076	930401	keystroke_u	u	n/a
465.3955	0.105	930791	keystroke_m	m	n/a
465.5905	0.105	931181	keystroke_Key.space	Key.space	n/a
465.8455	0.09	931691	keystroke_w	w	n/a
465.9205	0.075	931841	keystroke_o	o	n/a
466.0405	0.105	932081	keystroke_r	r	n/a
466.1155	0.09	932231	keystroke_k	k	n/a
466.2655	0.105	932531	keystroke_s	s	n/a
466.3855	0.075	932771	keystroke_Key.space	Key.space	n/a
466.5205	0.09	933041	keystroke_e	e	n/a
466.7305	0.105	933461	keystroke_q	q	n/a
466.9255	0.105	933851	keystroke_u	u	n/a
467.1205	0.105	934241	keystroke_a	a	n/a
467.4055	0.045	934811	keystroke_t	t	n/a
467.4355	0.225	934871	keystroke_i	i	n/a
467.4955	0.135	934991	keystroke_o	o	n/a
467.5855	0.105	935171	keystroke_n	n	n/a
468.2005	0.089	936401	keystroke_Key.space	Key.space	n/a
468.4405	0.09	936881	keystroke_f	f	n/a
468.5605	0.075	937121	keystroke_o	o	n/a
468.7105	0.105	937421	keystroke_o	o	n/a
468.8005	0.06	937601	keystroke_t	t	n/a
468.95	0.09	937900	keystroke_b	b	n/a
469.115	0.106	938230	keystroke_a	a	n/a
469.265	0.046	938530	keystroke_l	l	n/a
469.415	0.091	938830	keystroke_l	l	n/a
469.64	0.06	939280	keystroke_Key.enter	Key.enter	n/a
469.706	8.561	939412	prompt	n/a	suppose normal angry improvement\n
470.27	0.09	940540	keystroke_s	s	n/a
470.51	0.105	941020	keystroke_u	u	n/a
470.645	0.075	941290	keystroke_p	p	n/a
470.81	0.12	941620	keystroke_p	p	n/a
470.87	0.165	941740	keystroke_o	o	n/a
470.99	0.105	941980	keystroke_s	s	n/a
471.185	0.12	942370	keystroke_e	e	n/a
471.32	0.09	942640	keystroke_Key.space	Key.space	n/a
471.605	0.105	943210	keystroke_n	n	n/a
471.786	0.1045	943572	keystroke_o	o	n/a
471.9055	0.105	943811	keystroke_r	r	n/a
472.0255	0.075	944051	keystroke_m	m	n/a
472.1605	0.105	944321	keystroke_a	a	n/a
472.2955	0.105	944591	keystroke_l	l	n/a
472.7905	0.09	945581	keystroke_Key.space	Key.space	n/a
473.0305	0.09	946061	keystroke_a	a	n/a
473.3005	0.09	946601	keystroke_n	n	n/a
473.4955	0.09	946991	keystroke_g	g	n/a
473.6905	0.105	947381	keystroke_r	r	n/a
473.9305	0.075	947861	keystroke_y	y	n/a
474.0355	0.12	948071	keystroke_Key.space	Key.space	n/a
474.2605	0.075	948521	keystroke_r	r	n/a
474.5155	0.06	949031	keystroke_Key.backspace	Key.backspace	n/a
474.7255	0.105	949451	keystroke_i	i	n/a
474.7855	0.165	949571	keystroke_m	m	n/a
474.9805	0.12	949961	keystroke_p	p	n/a
475.61	0.105	951220	keystroke_r	r	n/a
475.73	0.09	951460	keystroke_o	o	n/a
475.97	0.091	951940	keystroke_m	m	n/a
476.27	0.075	952540	keystroke_Key.backspace	Key.backspace	n/a
476.466	0.074	952932	keystroke_v	v	n/a
476.69	0.105	953380	keystroke_e	e	n/a
476.855	0.076	953710	keystroke_m	m	n/a
477.095	0.09	954190	keystroke_e	e	n/a
477.155	0.121	954310	keystroke_n	n	n/a
477.335	0.076	954670	keystroke_t	t	n/a
477.591	0.12	955182	keystroke_s	s	n/a
477.965	0.06	955930	keystroke_Key.backspace	Key.backspace	n/a
478.175	0.09	956350	keystroke_Key.enter	Key.enter	n/a
478.272	7.0015	956544	prompt	n/a	discount steam together kernel\n
478.8355	0.105	957671	keystroke_d	d	n/a
478.9255	0.12	957851	keystroke_i	i	n/a
479.0305	0.06	958061	keystroke_s	s	n/a
479.1955	0.09	958391	keystroke_c	c	n/a
479.5255	0.09	959051	keystroke_o	o	n/a
479.6305	0.105	959261	keystroke_u	u	n/a
479.8555	0.045	959711	keystroke_d	d	n/a
480.0205	0.045	960041	keystroke_n	n	n/a
480.1855	0.06	960371	keystroke_Key.backspace	Key.backspace	n/a
480.3355	0.045	960671	keystroke_Key.backspace	Key.backspace	n/a
480.5005	0.09	961001	keystroke_n	n	n/a
480.6205	0.09	961241	keystroke_t	t	n/a
480.8605	0.075	961721	keystroke_Key.space	Key.space	n/a
481.1005	0.135	962201	keystroke_s	s	n/a
481.3105	0.09	962621	keystroke_t	t	n/a
481.4755	0.135	962951	keystroke_e	e	n/a
481.685	0.106	963370	keystroke_a	a	n/a
481.806	0.119	963612	keystroke_m	m	n/a
481.985	0.105	963970	keystroke_Key.space	Key.space	n/a
482.585	0.075	965170	keystroke_t	t	n/a
482.675	0.09	965350	keystroke_o	o	n/a
482.78	0.0605	965560	keystroke_g	g	n/a
482.9005	0.165	965801	keystroke_e	e	n/a
483.0205	0.105	966041	keystroke_t	t	n/a
483.2005	0.12	966401	keystroke_h	h	n/a
483.29	0.1805	966580	keystroke_e	e	n/a
483.5155	0.105	967031	keystroke_r	r	n/a
483.8305	0.075	967661	keystroke_Key.space	Key.space	n/a
484.0255	0.1805	968051	keystroke_k	k	n/a
484.175	0.105	968350	keystroke_e	e	n/a
484.52	0.075	969040	keystroke_r	r	n/a
484.745	0.09	969490	keystroke_n	n	n/a
484.865	0.121	969730	keystroke_e	e	n/a
484.955	0.1055	969910	keystroke_l	l	n/a
485.1655	0.105	970331	keystroke_Key.enter	Key.enter	n/a
485.2795	9.878	970559	prompt	n/a	dividend impossible cabinets proposal\n
485.7655	0.105	971531	keystroke_d	d	n/a
485.9605	0.105	971921	keystroke_i	i	n/a
486.1105	0.09	972221	keystroke_v	v	n/a
486.2155	0.09	972431	keystroke_i	i	n/a
486.3505	0.105	972701	keystroke_d	d	n/a
487.4155	0.09	974831	keystroke_e	e	n/a
487.5205	0.09	975041	keystroke_n	n	n/a
487.6555	0.12	975311	keystroke_d	d	n/a
487.8505	0.105	975701	keystroke_Key.space	Key.space	n/a
487.9855	0.165	975971	keystroke_i	i	n/a
488.601	0.089	977202	keystroke_m	m	n/a
488.736	0.119	977472	keystroke_p	p	n/a
488.991	0.074	977982	keystroke_o	o	n/a
489.29	0.075	978580	keystroke_s	s	n/a
490.07	0.09	980140	keystroke_s	s	n/a
490.161	0.104	980322	keystroke_i	i	n/a
490.325	0.075	980650	keystroke_b	b	n/a
490.46	0.135	980920	keystroke_l	l	n/a
490.7	0.15	981400	keystroke_e	e	n/a
490.88	0.12	981760	keystroke_Key.space	Key.space	n/a
491.15	0.135	982300	keystroke_c	c	n/a
491.301	0.119	982602	keystroke_a	a	n/a
491.555	0.076	983110	keystroke_b	b	n/a
491.855	0.091	983710	keystroke_i	i	n/a
491.9905	0.1195	983981	keystroke_n	n	n/a
492.126	0.135	984252	keystroke_e	e	n/a
492.276	0.075	984552	keystroke_t	t	n/a
492.531	0.1345	985062	keystroke_s	s	n/a
492.8005	0.105	985601	keystroke_Key.space	Key.space	n/a
493.1455	0.105	986291	keystroke_p	p	n/a
493.2955	0.09	986591	keystroke_r	r	n/a
493.3865	0.089	986773	keystroke_o	o	n/a
493.7455	0.075	987491	keystroke_p	p	n/a
493.9255	0.12	987851	keystroke_o	o	n/a
494.0605	0.06	988121	keystroke_s	s	n/a
494.4655	0.105	988931	keystroke_a	a	n/a
494.5855	0.105	989171	keystroke_l	l	n/a
495.0505	0.105	990101	keystroke_Key.enter	Key.enter	n/a
495.162	10.8405	990324	prompt	n/a	relevant generators exhibitions kitty\n
495.7855	0.105	991571	keystroke_r	r	n/a
495.8755	0.135	991751	keystroke_e	e	n/a
496.1305	0.15	992261	keystroke_l	l	n/a
496.2955	0.09	992591	keystroke_e	e	n/a
496.4455	0.105	992891	keystroke_t	t	n/a
497.09	0.091	994180	keystroke_Key.backspace	Key.backspace	n/a
497.661	0.075	995322	keystroke_v	v	n/a
497.976	0.089	995952	keystroke_a	a	n/a
498.11	0.105	996220	keystroke_n	n	n/a
498.546	0.089	997092	keystroke_t	t	n/a
498.695	0.12	997390	keystroke_Key.space	Key.space	n/a
498.891	0.075	997782	keystroke_g	g	n/a
499.071	0.165	998142	keystroke_e	e	n/a
499.371	0.1195	998742	keystroke_r	r	n/a
499.7755	0.075	999551	keystroke_Key.backspace	Key.backspace	n/a
499.9855	0.09	999971	keystroke_n	n	n/a
500.1505	0.12	1000301	keystroke_e	e	n/a
500.4055	0.09	1000811	keystroke_r	r	n/a
500.6605	0.09	1001321	keystroke_a	a	n/a
500.8405	0.09	1001681	keystroke_t	t	n/a
500.9905	0.12	1001981	keystroke_o	o	n/a
501.1255	0.12	1002251	keystroke_r	r	n/a
501.3505	0.12	1002701	keystroke_s	s	n/a
501.5605	0.12	1003121	keystroke_Key.space	Key.space	n/a
501.9205	0.09	1003841	keystroke_e	e	n/a
502.1305	0.12	1004261	keystroke_x	x	n/a
502.3855	0.105	1004771	keystroke_h	h	n/a
502.5055	0.09	1005011	keystroke_i	i	n/a
502.9555	0.09	1005911	keystroke_b	b	n/a
503.0755	0.105	1006151	keystroke_i	i	n/a
503.2255	0.12	1006451	keystroke_t	t	n/a
503.4205	0.135	1006841	keystroke_i	i	n/a
503.6605	0.06	1007321	keystroke_i	i	n/a
504.0055	0.075	1008011	keystroke_Key.backspace	Key.backspace	n/a
504.2005	0.105	1008401	keystroke_o	o	n/a
504.2755	0.12	1008551	keystroke_n	n	n/a
504.7555	0.135	1009511	keystroke_s	s	n/a
504.9355	0.09	1009871	keystroke_Key.space	Key.space	n/a
505.0405	0.09	1010081	keystroke_k	k	n/a
505.2505	0.135	1010501	keystroke_i	i	n/a
505.4005	0.045	1010801	keystroke_t	t	n/a
505.5355	0.075	1011071	keystroke_t	t	n/a
505.7155	0.12	1011431	keystroke_y	y	n/a
505.8805	0.12	1011761	keystroke_Key.enter	Key.enter	n/a
506.007	8.876	1012014	prompt	n/a	pills usda sound scientist\n
506.72	0.105	1013440	keystroke_p	p	n/a
506.945	0.0905	1013890	keystroke_i	i	n/a
507.1405	0.045	1014281	keystroke_l	l	n/a
507.276	0.104	1014552	keystroke_l	l	n/a
507.411	0.089	1014822	keystroke_s	s	n/a
507.545	0.06	1015090	keystroke_Key.space	Key.space	n/a
507.696	0.075	1015392	keystroke_u	u	n/a
507.831	0.105	1015662	keystroke_s	s	n/a
508.296	0.075	1016592	keystroke_a	a	n/a
508.475	0.046	1016950	keystroke_d	d	n/a
508.7	0.015	1017400	keystroke_Key.backspace	Key.backspace	n/a
508.82	0.061	1017640	keystroke_Key.backspace	Key.backspace	n/a
508.882	0.148	1017764	keystroke_d	d	n/a
508.971	0.15	1017942	keystroke_a	a	n/a
509.18	0.135	1018360	keystroke_Key.space	Key.space	n/a
509.855	0.075	1019710	keystroke_s	s	n/a
509.945	0.105	1019890	keystroke_o	o	n/a
510.051	0.074	1020102	keystroke_u	u	n/a
510.26	0.06	1020520	keystroke_n	n	n/a
510.83	0.09	1021660	keystroke_d	d	n/a
511.04	0.105	1022080	keystroke_Key.space	Key.space	n/a
511.477	0.073	1022954	keystroke_s	s	n/a
511.61	0.106	1023220	keystroke_c	c	n/a
511.82	0.135	1023640	keystroke_i	i	n/a
512.3	0.105	1024600	keystroke_e	e	n/a
512.435	0.12	1024870	keystroke_n	n	n/a
512.54	0.12	1025080	keystroke_c	c	n/a
512.871	0.089	1025742	keystroke_Key.backspace	Key.backspace	n/a
513.021	0.075	1026042	keystroke_t	t	n/a
513.245	0.106	1026490	keystroke_i	i	n/a
513.426	0.09	1026852	keystroke_s	s	n/a
513.65	0.09	1027300	keystroke_t	t	n/a
514.79	0.09	1029580	keystroke_Key.enter	Key.enter	n/a
514.8985	8.2195	1029797	prompt	n/a	influence sauce obtaining swimming\n
515.435	0.15	1030870	keystroke_i	i	n/a
515.54	0.09	1031080	keystroke_n	n	n/a
516.35	0.135	1032700	keystroke_f	f	n/a
516.5	0.105	1033000	keystroke_l	l	n/a
516.695	0.12	1033390	keystroke_u	u	n/a
517.1	0.106	1034200	keystroke_e	e	n/a
517.235	0.121	1034470	keystroke_n	n	n/a
517.371	0.0595	1034742	keystroke_c	c	n/a
517.5505	0.075	1035101	keystroke_e	e	n/a
517.6705	0.105	1035341	keystroke_Key.space	Key.space	n/a
517.8505	0.0745	1035701	keystroke_s	s	n/a
518.091	0.119	1036182	keystroke_a	a	n/a
518.24	0.09	1036480	keystroke_u	u	n/a
518.84	0.105	1037680	keystroke_c	c	n/a
519.065	0.12	1038130	keystroke_e	e	n/a
519.245	0.09	1038490	keystroke_Key.space	Key.space	n/a
519.545	0.12	1039090	keystroke_o	o	n/a
519.651	0.089	1039302	keystroke_b	b	n/a
519.98	0.09	1039960	keystroke_t	t	n/a
520.16	0.12	1040320	keystroke_a	a	n/a
520.4455	0.12	1040891	keystroke_i	i	n/a
520.5955	0.09	1041191	keystroke_n	n	n/a
520.7455	0.18	1041491	keystroke_i	i	n/a
520.8355	0.12	1041671	keystroke_n	n	n/a
520.9855	0.12	1041971	keystroke_g	g	n/a
521.1205	0.12	1042241	keystroke_Key.space	Key.space	n/a
521.3155	0.075	1042631	keystroke_s	s	n/a
521.5105	0.09	1043021	keystroke_w	w	n/a
521.9305	0.165	1043861	keystroke_i	i	n/a
522.2305	0.075	1044461	keystroke_m	m	n/a
522.3655	0.09	1044731	keystroke_m	m	n/a
522.5155	0.18	1045031	keystroke_i	i	n/a
522.6055	0.105	1045211	keystroke_n	n	n/a
522.7555	0.12	1045511	keystroke_g	g	n/a
523.0255	0.09	1046051	keystroke_Key.enter	Key.enter	n/a
523.123	10.5395	1046246	prompt	n/a	australian wool yield wish\n
523.6405	0.135	1047281	keystroke_a	a	n/a
523.925	0.121	1047850	keystroke_u	u	n/a
524.06	0.075	1048120	keystroke_s	s	n/a
524.27	0.075	1048540	keystroke_t	t	n/a
524.51	0.075	1049020	keystroke_r	r	n/a
525.696	0.1195	1051392	keystroke_a	a	n/a
525.8455	0.105	1051691	keystroke_l	l	n/a
526.0105	0.09	1052021	keystroke_i	i	n/a
526.2055	0.12	1052411	keystroke_a	a	n/a
526.3405	0.105	1052681	keystroke_m	m	n/a
526.7605	0.09	1053521	keystroke_Key.backspace	Key.backspace	n/a
526.9405	0.075	1053881	keystroke_n	n	n/a
527.0755	0.15	1054151	keystroke_Key.space	Key.space	n/a
527.3305	0.105	1054661	keystroke_w	w	n/a
527.3905	0.12	1054781	keystroke_h	h	n/a
527.4655	0.075	1054931	keystroke_o	o	n/a
527.6455	0.0595	1055291	keystroke_o	o	n/a
527.945	0.061	1055890	keystroke_Key.backspace	Key.backspace	n/a
528.065	0.061	1056130	keystroke_Key.backspace	Key.backspace	n/a
