onset	duration	sample	value	key	prompt_text
10.3675	5.945	20735	prompt	n/a	the quick brown fox jumps over a lazy dog\n
11.3925	0.0425	22785	keystroke	t	n/a
11.449	0.0605	22898	keystroke	h	n/a
11.5255	0.1055	23051	keystroke	e	n/a
11.616	0.105	23232	keystroke	Key.space	n/a
11.766	0.1045	23532	keystroke	q	n/a
11.9005	0.089	23801	keystroke	u	n/a
12.006	0.09	24012	keystroke	i	n/a
12.186	0.0745	24372	keystroke	c	n/a
12.41	0.0895	24820	keystroke	k	n/a
12.606	0.09	25212	keystroke	Key.space	n/a
12.7855	0.0595	25571	keystroke	b	n/a
12.875	0.09	25750	keystroke	r	n/a
12.9795	0.06	25959	keystroke	o	n/a
13.071	0.105	26142	keystroke	w	n/a
13.191	0.0595	26382	keystroke	n	n/a
13.28	0.105	26560	keystroke	Key.space	n/a
13.3695	0.09	26739	keystroke	f	n/a
13.4895	0.0595	26979	keystroke	o	n/a
13.5655	0.09	27131	keystroke	x	n/a
13.656	0.0735	27312	keystroke	Key.space	n/a
13.7755	0.0745	27551	keystroke	j	n/a
13.925	0.0595	27850	keystroke	u	n/a
14.1065	0.059	28213	keystroke	m	n/a
14.255	0.06	28510	keystroke	p	n/a
14.3455	0.075	28691	keystroke	s	n/a
14.4045	0.0595	28809	keystroke	Key.space	n/a
14.495	0.0595	28990	keystroke	o	n/a
14.5695	0.076	29139	keystroke	v	n/a
14.735	0.0745	29470	keystroke	e	n/a
14.8245	0.0895	29649	keystroke	r	n/a
14.914	0.075	29828	keystroke	Key.space	n/a
15.1555	0.089	30311	keystroke	a	n/a
15.2895	0.06	30579	keystroke	Key.space	n/a
15.4245	0.0745	30849	keystroke	l	n/a
15.484	0.0745	30968	keystroke	a	n/a
15.68	0.0905	31360	keystroke	z	n/a
15.7405	0.06	31481	keystroke	y	n/a
15.86	0.0745	31720	keystroke	Key.space	n/a
15.92	0.075	31840	keystroke	d	n/a
16.0395	0.059	32079	keystroke	o	n/a
16.1755	0.0445	32351	keystroke	g	n/a
16.234	0.075	32468	keystroke	Key.enter	n/a
16.318	4.913	32636	prompt	n/a	luis leslie electron deadline\n
17.21	0.06	34420	keystroke	l	n/a
17.434	0.0455	34868	keystroke	u	n/a
17.6	0.0605	35200	keystroke	i	n/a
17.6755	0.0595	35351	keystroke	s	n/a
17.7495	0.0745	35499	keystroke	Key.space	n/a
18.1105	0.06	36221	keystroke	l	n/a
18.1995	0.0755	36399	keystroke	e	n/a
18.3795	0.0895	36759	keystroke	s	n/a
18.4385	0.0595	36877	keystroke	l	n/a
18.6045	0.061	37209	keystroke	i	n/a
18.68	0.06	37360	keystroke	e	n/a
18.7545	0.0745	37509	keystroke	Key.space	n/a
18.8595	0.0745	37719	keystroke	e	n/a
18.964	0.059	37928	keystroke	l	n/a
19.0535	0.0605	38107	keystroke	e	n/a
19.294	0.0605	38588	keystroke	c	n/a
19.489	0.06	38978	keystroke	t	n/a
19.6545	0.06	39309	keystroke	r	n/a
19.684	0.045	39368	keystroke	o	n/a
19.849	0.09	39698	keystroke	n	n/a
19.983	0.075	39966	keystroke	Key.space	n/a
20.043	0.0925	40086	keystroke	d	n/a
20.195	0.0595	40390	keystroke	e	n/a
20.2695	0.105	40539	keystroke	a	n/a
20.419	0.105	40838	keystroke	d	n/a
20.5535	0.0745	41107	keystroke	l	n/a
20.749	0.0455	41498	keystroke	i	n/a
20.899	0.075	41798	keystroke	n	n/a
20.9885	0.075	41977	keystroke	e	n/a
21.169	0.0605	42338	keystroke	Key.enter	n/a
21.2345	6.8055	42469	prompt	n/a	invision evolution criminal aggregate\n
23.7065	0	47413	keystroke	i	n/a
23.779	0.075	47558	keystroke	n	n/a
23.854	0.0595	47708	keystroke	v	n/a
23.9735	0.0445	47947	keystroke	i	n/a
24.048	0.0755	48096	keystroke	s	n/a
24.124	0.0755	48248	keystroke	i	n/a
24.169	0.105	48338	keystroke	o	n/a
24.378	0.0905	48756	keystroke	n	n/a
24.513	0.0745	49026	keystroke	Key.space	n/a
24.603	0.0765	49206	keystroke	e	n/a
24.814	0.09	49628	keystroke	v	n/a
24.8295	0.0595	49659	keystroke	o	n/a
24.9635	0.075	49927	keystroke	l	n/a
25.145	0.044	50290	keystroke	u	n/a
25.2035	0.0905	50407	keystroke	t	n/a
25.309	0.0895	50618	keystroke	i	n/a
25.3685	0.0745	50737	keystroke	o	n/a
25.5485	0.074	51097	keystroke	n	n/a
25.6545	0.0895	51309	keystroke	Key.space	n/a
25.759	0.06	51518	keystroke	c	n/a
25.968	0.0605	51936	keystroke	r	n/a
25.9985	0.0595	51997	keystroke	i	n/a
26.1645	0.075	52329	keystroke	m	n/a
26.329	0.059	52658	keystroke	i	n/a
26.463	0.0745	52926	keystroke	n	n/a
26.583	0.076	53166	keystroke	a	n/a
26.6435	0.0755	53287	keystroke	l	n/a
26.7635	0.0745	53527	keystroke	Key.space	n/a
26.928	0.0595	53856	keystroke	a	n/a
27.0325	0.0455	54065	keystroke	g	n/a
27.1395	0.0595	54279	keystroke	g	n/a
27.229	0.0595	54458	keystroke	r	n/a
27.3185	0.0595	54637	keystroke	e	n/a
27.4235	0.0595	54847	keystroke	g	n/a
27.513	0.121	55026	keystroke	a	n/a
27.694	0.09	55388	keystroke	t	n/a
27.828	0.0745	55656	keystroke	e	n/a
27.948	0.09	55896	keystroke	Key.enter	n/a
28.045	5.3505	56090	prompt	n/a	techniques modelling gras mpegs\n
28.654	0.06	57308	keystroke	t	n/a
28.7435	0.09	57487	keystroke	e	n/a
28.953	0.0745	57906	keystroke	c	n/a
28.998	0.0605	57996	keystroke	h	n/a
29.148	0.09	58296	keystroke	n	n/a
29.4475	0.0755	58895	keystroke	i	n/a
29.5995	0.0895	59199	keystroke	q	n/a
29.7785	0.06	59557	keystroke	u	n/a
29.8685	0.0895	59737	keystroke	e	n/a
30.048	0.0905	60096	keystroke	s	n/a
30.1535	0.0605	60307	keystroke	Key.space	n/a
30.3035	0.0605	60607	keystroke	m	n/a
30.4535	0.059	60907	keystroke	o	n/a
30.5135	0.076	61027	keystroke	d	n/a
30.7085	0.075	61417	keystroke	e	n/a
30.9475	0.06	61895	keystroke	l	n/a
31.069	0.075	62138	keystroke	l	n/a
31.2935	0.0455	62587	keystroke	i	n/a
31.443	0.09	62886	keystroke	n	n/a
31.488	0.076	62976	keystroke	g	n/a
31.579	0.074	63158	keystroke	Key.space	n/a
31.6695	0.074	63339	keystroke	g	n/a
31.818	0.09	63636	keystroke	r	n/a
31.9675	0.136	63935	keystroke	a	n/a
32.044	0.1205	64088	keystroke	s	n/a
32.223	0.0155	64446	keystroke	Key.space	n/a
32.4925	0.076	64985	keystroke	m	n/a
32.7185	0.0445	65437	keystroke	p	n/a
32.838	0.105	65676	keystroke	e	n/a
33.0635	0.0605	66127	keystroke	g	n/a
33.1975	0.076	66395	keystroke	s	n/a
33.318	0.075	66636	keystroke	Key.enter	n/a
33.4	5.1705	66800	prompt	n/a	significant suffer serial patio\n
34.0225	0.076	68045	keystroke	s	n/a
34.158	0.06	68316	keystroke	i	n/a
34.3235	0.0595	68647	keystroke	g	n/a
34.3975	0.075	68795	keystroke	n	n/a
34.5785	0.06	69157	keystroke	i	n/a
34.6985	0.074	69397	keystroke	f	n/a
34.788	0.06	69576	keystroke	i	n/a
34.938	0.059	69876	keystroke	c	n/a
35.0585	0.1055	70117	keystroke	a	n/a
35.1785	0.06	70357	keystroke	n	n/a
35.2985	0.0745	70597	keystroke	t	n/a
35.417	0.09	70834	keystroke	Key.space	n/a
35.6585	0.075	71317	keystroke	s	n/a
35.7485	0.045	71497	keystroke	u	n/a
35.8235	0.2235	71647	keystroke	f	n/a
36.5595	0.0885	73119	keystroke	f	n/a
36.7535	0.09	73507	keystroke	e	n/a
36.8585	0.09	73717	keystroke	r	n/a
36.9625	0.1065	73925	keystroke	Key.space	n/a
37.114	0.074	74228	keystroke	s	n/a
37.233	0.1055	74466	keystroke	e	n/a
37.3225	0.1055	74645	keystroke	r	n/a
37.443	0.0605	74886	keystroke	i	n/a
37.549	0.0895	75098	keystroke	a	n/a
37.653	0.0605	75306	keystroke	l	n/a
37.758	0.075	75516	keystroke	Key.space	n/a
37.878	0.06	75756	keystroke	p	n/a
37.923	0.06	75846	keystroke	a	n/a
38.088	0.0745	76176	keystroke	t	n/a
38.1475	0.12	76295	keystroke	i	n/a
38.223	0.089	76446	keystroke	o	n/a
38.4915	0.0765	76983	keystroke	Key.enter	n/a
38.5755	6.0855	77151	prompt	n/a	laden continuously full relationship\n
39.183	0.09	78366	keystroke	l	n/a
39.2585	0.089	78517	keystroke	a	n/a
39.4225	0.09	78845	keystroke	d	n/a
39.6185	0.0745	79237	keystroke	e	n/a
39.693	0.0605	79386	keystroke	n	n/a
39.828	0.075	79656	keystroke	Key.space	n/a
40.008	0.06	80016	keystroke	c	n/a
40.0835	0.0595	80167	keystroke	o	n/a
40.2475	0.0605	80495	keystroke	n	n/a
40.323	0.075	80646	keystroke	t	n/a
40.413	0.06	80826	keystroke	i	n/a
40.548	0.0745	81096	keystroke	n	n/a
40.9975	0.0905	81995	keystroke	u	n/a
41.178	0.1045	82356	keystroke	o	n/a
41.3425	0.06	82685	keystroke	u	n/a
41.4765	0.075	82953	keystroke	s	n/a
41.567	0.0755	83134	keystroke	l	n/a
41.7325	0.046	83465	keystroke	y	n/a
41.7785	0.0735	83557	keystroke	Key.space	n/a
41.942	0.076	83884	keystroke	f	n/a
41.988	0.0595	83976	keystroke	u	n/a
42.1835	0.0595	84367	keystroke	l	n/a
42.3025	0.0905	84605	keystroke	l	n/a
42.438	0.075	84876	keystroke	Key.space	n/a
42.5735	0.0895	85147	keystroke	r	n/a
42.648	0.0905	85296	keystroke	e	n/a
42.753	0.0755	85506	keystroke	l	n/a
42.8135	0.0895	85627	keystroke	a	n/a
42.992	0.076	85984	keystroke	t	n/a
43.052	0.106	86104	keystroke	i	n/a
43.113	0.09	86226	keystroke	o	n/a
43.2475	0.045	86495	keystroke	n	n/a
43.4275	0.0595	86855	keystroke	s	n/a
43.608	0.0605	87216	keystroke	h	n/a
43.9675	0.061	87935	keystroke	i	n/a
44.2075	0.06	88415	keystroke	p	n/a
44.5835	0.074	89167	keystroke	Key.enter	n/a
44.6685	5.945	89337	prompt	n/a	determination illustrated declare modes\n
45.333	0.0595	90666	keystroke	d	n/a
45.4525	0.0905	90905	keystroke	e	n/a
45.6025	0.0755	91205	keystroke	t	n/a
45.7075	0.09	91415	keystroke	e	n/a
45.7825	0.09	91565	keystroke	r	n/a
45.8875	0.0605	91775	keystroke	m	n/a
46.0535	0.03	92107	keystroke	i	n/a
46.188	0.0745	92376	keystroke	n	n/a
46.233	0.0745	92466	keystroke	a	n/a
46.3975	0.076	92795	keystroke	t	n/a
46.4585	0.1045	92917	keystroke	i	n/a
46.5335	0.0745	93067	keystroke	o	n/a
46.7275	0.045	93455	keystroke	n	n/a
46.832	0.0755	93664	keystroke	Key.space	n/a
46.953	0.06	93906	keystroke	i	n/a
47.1175	0.06	94235	keystroke	l	n/a
47.208	0.105	94416	keystroke	l	n/a
47.7175	0.0605	95435	keystroke	u	n/a
47.793	0.09	95586	keystroke	s	n/a
47.9725	0.0605	95945	keystroke	t	n/a
48.123	0.089	96246	keystroke	r	n/a
48.213	0.089	96426	keystroke	a	n/a
48.377	0.076	96754	keystroke	t	n/a
48.5125	0.09	97025	keystroke	e	n/a
48.767	0.0155	97534	keystroke	d	n/a
48.7975	0.06	97595	keystroke	Key.space	n/a
48.8725	0.046	97745	keystroke	d	n/a
49.0675	0.075	98135	keystroke	e	n/a
49.307	0.06	98614	keystroke	c	n/a
49.382	0.061	98764	keystroke	l	n/a
49.518	0.0745	99036	keystroke	a	n/a
49.623	0.0745	99246	keystroke	r	n/a
49.7125	0.0895	99425	keystroke	e	n/a
49.8175	0.0745	99635	keystroke	Key.space	n/a
49.9375	0.0755	99875	keystroke	m	n/a
50.117	0.045	100234	keystroke	o	n/a
50.1325	0.075	100265	keystroke	d	n/a
50.312	0.06	100624	keystroke	e	n/a
50.4475	0.0745	100895	keystroke	s	n/a
50.5525	0.0595	101105	keystroke	Key.enter	n/a
50.6205	4.2685	101241	prompt	n/a	insects disposal notes cruises\n
51.272	0.045	102544	keystroke	i	n/a
51.392	0.091	102784	keystroke	n	n/a
51.437	0.0755	102874	keystroke	s	n/a
51.557	0.09	103114	keystroke	e	n/a
51.797	0.09	103594	keystroke	c	n/a
51.872	0.076	103744	keystroke	t	n/a
52.008	0.075	104016	keystroke	s	n/a
52.0975	0.06	104195	keystroke	Key.space	n/a
52.247	0.0905	104494	keystroke	d	n/a
52.352	0.061	104704	keystroke	i	n/a
52.4435	0.0895	104887	keystroke	s	n/a
52.563	0.15	105126	keystroke	p	n/a
52.638	0.09	105276	keystroke	o	n/a
52.818	0.09	105636	keystroke	s	n/a
52.968	0.0895	105936	keystroke	a	n/a
53.0425	0.075	106085	keystroke	l	n/a
53.1475	0.075	106295	keystroke	Key.space	n/a
53.2675	0.06	106535	keystroke	n	n/a
53.433	0.06	106866	keystroke	o	n/a
53.478	0.0745	106956	keystroke	t	n/a
53.5975	0.09	107195	keystroke	e	n/a
53.7475	0.09	107495	keystroke	s	n/a
53.852	0.06	107704	keystroke	Key.space	n/a
53.9575	0.0905	107915	keystroke	c	n/a
54.1825	0.059	108365	keystroke	r	n/a
54.227	0.0895	108454	keystroke	u	n/a
54.287	0.106	108574	keystroke	i	n/a
54.377	0.09	108754	keystroke	s	n/a
54.513	0.075	109026	keystroke	e	n/a
54.708	0.059	109416	keystroke	s	n/a
54.8265	0.06	109653	keystroke	Key.enter	n/a
54.894	5.051	109788	prompt	n/a	phrase merely cindy rwanda\n
55.488	0.075	110976	keystroke	p	n/a
55.698	0.0595	111396	keystroke	h	n/a
55.7275	0.09	111455	keystroke	r	n/a
55.8325	0.15	111665	keystroke	a	n/a
55.8925	0.15	111785	keystroke	s	n/a
56.0875	0.0745	112175	keystroke	e	n/a
56.2075	0.0595	112415	keystroke	Key.space	n/a
56.3575	0.06	112715	keystroke	m	n/a
56.387	0.0905	112774	keystroke	e	n/a
56.4925	0.1195	112985	keystroke	r	n/a
56.597	0.09	113194	keystroke	e	n/a
56.717	0.075	113434	keystroke	l	n/a
56.822	0.075	113644	keystroke	y	n/a
56.9425	0.0895	113885	keystroke	Key.space	n/a
57.4375	0.0595	114875	keystroke	c	n/a
57.4815	0.0465	114963	keystroke	i	n/a
57.6325	0.09	115265	keystroke	n	n/a
57.6925	0.09	115385	keystroke	d	n/a
57.8425	0.0605	115685	keystroke	y	n/a
57.962	0.075	115924	keystroke	Key.space	n/a
58.2475	0.0745	116495	keystroke	r	n/a
58.3825	0.0895	116765	keystroke	w	n/a
58.593	0.089	117186	keystroke	a	n/a
58.697	0.075	117394	keystroke	n	n/a
58.952	0.0905	117904	keystroke	d	n/a
59.1025	0.09	118205	keystroke	a	n/a
59.8375	0.105	119675	keystroke	Key.enter	n/a
59.9485	6.2505	119897	prompt	n/a	emissions regulated indicate pumps\n
60.708	0.105	121416	keystroke	e	n/a
60.888	0.104	121776	keystroke	m	n/a
61.142	0.06	122284	keystroke	i	n/a
61.3075	0.06	122615	keystroke	s	n/a
61.4575	0.03	122915	keystroke	s	n/a
61.4725	0.09	122945	keystroke	i	n/a
61.5325	0.09	123065	keystroke	o	n/a
61.742	0.0755	123484	keystroke	n	n/a
61.8325	0.09	123665	keystroke	s	n/a
61.9375	0.06	123875	keystroke	Key.space	n/a
62.0125	0.075	124025	keystroke	r	n/a
62.088	0.0745	124176	keystroke	e	n/a
62.2675	0.09	124535	keystroke	g	n/a
62.3725	0.0755	124745	keystroke	u	n/a
62.5825	0.09	125165	keystroke	l	n/a
62.6575	0.075	125315	keystroke	a	n/a
62.807	0.091	125614	keystroke	t	n/a
62.943	0.074	125886	keystroke	e	n/a
63.108	0.0745	126216	keystroke	d	n/a
63.1675	0.09	126335	keystroke	Key.space	n/a
63.302	0.06	126604	keystroke	i	n/a
63.4525	0.0755	126905	keystroke	n	n/a
63.4975	0.09	126995	keystroke	d	n/a
63.617	0.06	127234	keystroke	i	n/a
63.678	0.0745	127356	keystroke	c	n/a
63.812	0.0905	127624	keystroke	a	n/a
63.948	0.0895	127896	keystroke	t	n/a
64.0675	0.0905	128135	keystroke	e	n/a
64.1275	0.075	128255	keystroke	Key.space	n/a
64.248	0.0595	128496	keystroke	p	n/a
64.4275	0.045	128855	keystroke	u	n/a
64.847	0.061	129694	keystroke	m	n/a
65.0275	0.0595	130055	keystroke	p	n/a
65.148	0.0745	130296	keystroke	s	n/a
66.1075	0.0895	132215	keystroke	Key.enter	n/a
66.203	5.5155	132406	prompt	n/a	wider integrated regular alphabetical\n
66.873	0.09	133746	keystroke	w	n/a
66.9775	0.0455	133955	keystroke	i	n/a
67.0675	0.075	134135	keystroke	d	n/a
67.1875	0.1205	134375	keystroke	e	n/a
67.323	0.06	134646	keystroke	r	n/a
67.413	0.0745	134826	keystroke	Key.space	n/a
67.562	0.061	135124	keystroke	i	n/a
67.728	0.075	135456	keystroke	n	n/a
67.7575	0.0755	135515	keystroke	t	n/a
67.878	0.1055	135756	keystroke	e	n/a
68.0275	0.06	136055	keystroke	g	n/a
68.043	0.0595	136086	keystroke	r	n/a
68.538	0.105	137076	keystroke	a	n/a
68.687	0.0905	137374	keystroke	t	n/a
68.8225	0.076	137645	keystroke	e	n/a
69.003	0.074	138006	keystroke	d	n/a
69.063	0.089	138126	keystroke	Key.space	n/a
69.182	0.0755	138364	keystroke	r	n/a
69.2735	0.0895	138547	keystroke	e	n/a
69.453	0.075	138906	keystroke	g	n/a
69.543	0.0595	139086	keystroke	u	n/a
69.7235	0.0895	139447	keystroke	l	n/a
69.768	0.1045	139536	keystroke	a	n/a
69.9025	0.0905	139805	keystroke	r	n/a
69.9625	0.075	139925	keystroke	Key.space	n/a
70.083	0.09	140166	keystroke	a	n/a
70.143	0.0745	140286	keystroke	l	n/a
70.293	0.075	140586	keystroke	p	n/a
70.488	0.06	140976	keystroke	h	n/a
70.532	0.076	141064	keystroke	a	n/a
70.712	0.075	141424	keystroke	b	n/a
70.773	0.074	141546	keystroke	e	n/a
70.953	0.0745	141906	keystroke	t	n/a
71.0725	0.06	142145	keystroke	i	n/a
71.192	0.0755	142384	keystroke	c	n/a
71.3425	0.105	142685	keystroke	a	n/a
71.4325	0.03	142865	keystroke	l	n/a
71.6575	0.059	143315	keystroke	Key.enter	n/a
71.722	4.8575	143444	prompt	n/a	assignments telling ruling livecam\n
72.287	0.1055	144574	keystroke	a	n/a
72.437	0.106	144874	keystroke	s	n/a
72.602	0.105	145204	keystroke	s	n/a
72.692	0.0605	145384	keystroke	i	n/a
72.813	0.074	145626	keystroke	g	n/a
72.872	0.076	145744	keystroke	n	n/a
73.038	0.075	146076	keystroke	m	n/a
73.083	0.105	146166	keystroke	e	n/a
73.203	0.075	146406	keystroke	n	n/a
73.293	0.0595	146586	keystroke	t	n/a
73.428	0.075	146856	keystroke	s	n/a
73.473	0.1045	146946	keystroke	Key.space	n/a
73.6075	0.0755	147215	keystroke	t	n/a
73.7275	0.0905	147455	keystroke	e	n/a
73.833	0.045	147666	keystroke	l	n/a
73.9235	0.0745	147847	keystroke	l	n/a
74.118	0.045	148236	keystroke	i	n/a
74.268	0.09	148536	keystroke	n	n/a
74.3435	0.0595	148687	keystroke	g	n/a
74.418	0.075	148836	keystroke	Key.space	n/a
74.538	0.0745	149076	keystroke	r	n/a
74.5975	0.06	149195	keystroke	u	n/a
74.808	0.0595	149616	keystroke	l	n/a
74.988	0.045	149976	keystroke	i	n/a
75.153	0.059	150306	keystroke	n	n/a
75.183	0.09	150366	keystroke	g	n/a
75.2575	0.0605	150515	keystroke	Key.space	n/a
75.378	0.075	150756	keystroke	l	n/a
75.542	0.0755	151084	keystroke	i	n/a
75.603	0.0745	151206	keystroke	v	n/a
75.7825	0.0755	151565	keystroke	e	n/a
76.0675	0.075	152135	keystroke	c	n/a
76.2325	0.09	152465	keystroke	a	n/a
76.2785	0.0895	152557	keystroke	m	n/a
76.5325	0.045	153065	keystroke	Key.enter	n/a
76.585	5.4845	153170	prompt	n/a	captain perfect monetary leone\n
77.4475	0.061	154895	keystroke	c	n/a
77.568	0.1045	155136	keystroke	a	n/a
77.688	0.0595	155376	keystroke	p	n/a
77.808	0.0895	155616	keystroke	t	n/a
78.0325	0.0905	156065	keystroke	a	n/a
78.1075	0.09	156215	keystroke	i	n/a
78.333	0.059	156666	keystroke	n	n/a
78.708	0.075	157416	keystroke	Key.space	n/a
78.903	0.075	157806	keystroke	p	n/a
78.9635	0.1045	157927	keystroke	e	n/a
79.098	0.0895	158196	keystroke	r	n/a
79.293	0.075	158586	keystroke	f	n/a
79.413	0.075	158826	keystroke	e	n/a
79.638	0.059	159276	keystroke	c	n/a
79.6685	0.0745	159337	keystroke	t	n/a
79.863	0.0745	159726	keystroke	Key.space	n/a
80.1025	0.045	160205	keystroke	m	n/a
80.252	0.0605	160504	keystroke	o	n/a
80.4025	0.0905	160805	keystroke	n	n/a
80.478	0.0895	160956	keystroke	e	n/a
80.673	0.1045	161346	keystroke	t	n/a
80.8375	0.1205	161675	keystroke	a	n/a
80.988	0.075	161976	keystroke	r	n/a
81.048	0.06	162096	keystroke	y	n/a
81.1975	0.0605	162395	keystroke	Key.space	n/a
81.3475	0.0905	162695	keystroke	l	n/a
81.423	0.09	162846	keystroke	e	n/a
81.5575	0.061	163115	keystroke	o	n/a
81.7075	0.09	163415	keystroke	n	n/a
81.8125	0.045	163625	keystroke	e	n/a
82.0225	0.045	164045	keystroke	Key.enter	n/a
82.074	5.2455	164148	prompt	n/a	threats guard wallpaper cancer\n
82.8775	0.0755	165755	keystroke	t	n/a
82.982	0.075	165964	keystroke	h	n/a
83.072	0.106	166144	keystroke	r	n/a
83.133	0.1195	166266	keystroke	e	n/a
83.283	0.09	166566	keystroke	a	n/a
83.3885	0.075	166777	keystroke	t	n/a
83.567	0.06	167134	keystroke	s	n/a
83.688	0.0745	167376	keystroke	Key.space	n/a
83.9725	0.06	167945	keystroke	b	n/a
84.318	0.06	168636	keystroke	Key.backspace	n/a
84.423	0.09	168846	keystroke	g	n/a
84.558	0.06	169116	keystroke	u	n/a
84.6035	0.089	169207	keystroke	a	n/a
84.753	0.105	169506	keystroke	r	n/a
84.978	0.075	169956	keystroke	d	n/a
85.143	0.1055	170286	keystroke	Key.space	n/a
85.324	0.074	170648	keystroke	w	n/a
85.473	0.0905	170946	keystroke	a	n/a
85.533	0.075	171066	keystroke	l	n/a
85.654	0.074	171308	keystroke	l	n/a
85.833	0.0605	171666	keystroke	p	n/a
85.9085	0.089	171817	keystroke	a	n/a
86.0125	0.0755	172025	keystroke	p	n/a
86.133	0.0445	172266	keystroke	e	n/a
86.223	0.0905	172446	keystroke	r	n/a
86.2975	0.091	172595	keystroke	Key.space	n/a
86.4935	0.075	172987	keystroke	c	n/a
86.628	0.0905	173256	keystroke	a	n/a
86.7035	0.0595	173407	keystroke	n	n/a
86.793	0.09	173586	keystroke	c	n/a
86.988	0.075	173976	keystroke	e	n/a
87.1235	0.0745	174247	keystroke	r	n/a
87.243	0.075	174486	keystroke	Key.enter	n/a
87.324	4.241	174648	prompt	n/a	secure than mitchell intel\n
87.933	0.0605	175866	keystroke	s	n/a
88.158	0.075	176316	keystroke	e	n/a
88.3835	0.0595	176767	keystroke	c	n/a
88.443	0.0755	176886	keystroke	u	n/a
88.5785	0.075	177157	keystroke	r	n/a
88.668	0.105	177336	keystroke	e	n/a
88.7885	0.0745	177577	keystroke	Key.space	n/a
88.923	0.0905	177846	keystroke	t	n/a
89.0285	0.0595	178057	keystroke	h	n/a
89.1185	0.09	178237	keystroke	a	n/a
89.2225	0.076	178445	keystroke	n	n/a
89.508	0.0755	179016	keystroke	Key.space	n/a
89.7625	0.0605	179525	keystroke	m	n/a
89.9285	0.059	179857	keystroke	i	n/a
89.9735	0.06	179947	keystroke	t	n/a
90.1835	0.074	180367	keystroke	c	n/a
90.2435	0.075	180487	keystroke	h	n/a
90.3935	0.075	180787	keystroke	e	n/a
90.4695	0.059	180939	keystroke	l	n/a
90.5885	0.075	181177	keystroke	l	n/a
90.738	0.06	181476	keystroke	Key.space	n/a
90.858	0.06	181716	keystroke	i	n/a
91.008	0.075	182016	keystroke	n	n/a
91.053	0.0745	182106	keystroke	t	n/a
91.2025	0.06	182405	keystroke	e	n/a
91.2775	0.06	182555	keystroke	l	n/a
91.503	0.0595	183006	keystroke	Key.enter	n/a
91.572	4.7625	183144	prompt	n/a	barrier myers packed starring\n
92.133	0.075	184266	keystroke	b	n/a
92.1925	0.09	184385	keystroke	a	n/a
92.343	0.0745	184686	keystroke	r	n/a
92.493	0.075	184986	keystroke	r	n/a
92.5975	0.0605	185195	keystroke	i	n/a
92.7175	0.0905	185435	keystroke	e	n/a
92.853	0.0755	185706	keystroke	r	n/a
92.9585	0.075	185917	keystroke	Key.space	n/a
93.1385	0.0595	186277	keystroke	m	n/a
93.348	0.045	186696	keystroke	y	n/a
93.378	0.105	186756	keystroke	e	n/a
93.498	0.09	186996	keystroke	r	n/a
93.633	0.09	187266	keystroke	s	n/a
93.6935	0.0895	187387	keystroke	Key.space	n/a
93.8885	0.045	187777	keystroke	p	n/a
93.9475	0.0755	187895	keystroke	a	n/a
94.128	0.0755	188256	keystroke	c	n/a
94.173	0.06	188346	keystroke	k	n/a
94.323	0.075	188646	keystroke	e	n/a
94.5025	0.0755	189005	keystroke	d	n/a
94.548	0.09	189096	keystroke	Key.space	n/a
95.1335	0.09	190267	keystroke	s	n/a
95.2835	0.075	190567	keystroke	t	n/a
95.4175	0.106	190835	keystroke	a	n/a
95.5675	0.075	191135	keystroke	r	n/a
95.718	0.0755	191436	keystroke	r	n/a
95.8085	0.045	191617	keystroke	i	n/a
95.958	0.0755	191916	keystroke	n	n/a
96.0625	0.061	192125	keystroke	g	n/a
96.2725	0.0605	192545	keystroke	Key.enter	n/a
96.339	4.106	192678	prompt	n/a	came nancy peer deutsche\n
97.008	0.075	194016	keystroke	c	n/a
97.158	0.075	194316	keystroke	a	n/a
97.2185	0.075	194437	keystroke	m	n/a
97.3235	0.06	194647	keystroke	e	n/a
97.3985	0.059	194797	keystroke	Key.space	n/a
97.5185	0.0445	195037	keystroke	n	n/a
97.578	0.075	195156	keystroke	a	n/a
97.668	0.075	195336	keystroke	n	n/a
97.833	0.0605	195666	keystroke	c	n/a
97.9085	0.0605	195817	keystroke	y	n/a
98.058	0.06	196116	keystroke	Key.space	n/a
98.2835	0.045	196567	keystroke	p	n/a
98.344	0.0895	196688	keystroke	e	n/a
98.5085	0.075	197017	keystroke	e	n/a
98.6585	0.075	197317	keystroke	r	n/a
98.7485	0.075	197497	keystroke	Key.space	n/a
99.0635	0.06	198127	keystroke	d	n/a
99.1985	0.0895	198397	keystroke	e	n/a
99.319	0.0745	198638	keystroke	u	n/a
99.498	0.0605	198996	keystroke	t	n/a
99.768	0.075	199536	keystroke	s	n/a
99.948	0.075	199896	keystroke	c	n/a
100.008	0.075	200016	keystroke	h	n/a
100.1575	0.06	200315	keystroke	e	n/a
100.3835	0.06	200767	keystroke	Key.enter	n/a
100.449	4.541	200898	prompt	n/a	abuse reduced combat eagle\n
101.0885	0.075	202177	keystroke	a	n/a
101.208	0.076	202416	keystroke	b	n/a
101.4335	0.06	202867	keystroke	u	n/a
101.5085	0.06	203017	keystroke	s	n/a
101.6135	0.09	203227	keystroke	e	n/a
101.718	0.075	203436	keystroke	Key.space	n/a
101.9885	0.0895	203977	keystroke	r	n/a
102.093	0.075	204186	keystroke	e	n/a
102.273	0.06	204546	keystroke	d	n/a
102.363	0.0755	204726	keystroke	u	n/a
102.483	0.06	204966	keystroke	c	n/a
102.7235	0.09	205447	keystroke	e	n/a
103.0085	0.0745	206017	keystroke	d	n/a
103.113	0.105	206226	keystroke	Key.space	n/a
103.458	0.075	206916	keystroke	c	n/a
103.519	0.0445	207038	keystroke	o	n/a
103.6685	0.06	207337	keystroke	m	n/a
103.834	0.074	207668	keystroke	b	n/a
103.864	0.0895	207728	keystroke	a	n/a
104.073	0.061	208146	keystroke	t	n/a
104.118	0.0605	208236	keystroke	Key.space	n/a
104.209	0.074	208418	keystroke	e	n/a
104.344	0.074	208688	keystroke	a	n/a
104.4785	0.06	208957	keystroke	g	n/a
104.5535	0.09	209107	keystroke	l	n/a
104.689	0.0595	209378	keystroke	e	n/a
104.943	0.0455	209886	keystroke	Key.enter	n/a
104.994	4.2115	209988	prompt	n/a	grove suites struggle branches\n
105.6635	0.06	211327	keystroke	g	n/a
105.843	0.06	211686	keystroke	r	n/a
105.918	0.075	211836	keystroke	o	n/a
106.068	0.0605	212136	keystroke	v	n/a
106.1885	0.09	212377	keystroke	e	n/a
106.2935	0.06	212587	keystroke	Key.space	n/a
106.399	0.0595	212798	keystroke	s	n/a
106.4735	0.12	212947	keystroke	u	n/a
106.5335	0.09	213067	keystroke	i	n/a
106.654	0.0595	213308	keystroke	t	n/a
106.7735	0.09	213547	keystroke	e	n/a
106.9675	0.0915	213935	keystroke	s	n/a
107.0435	0.075	214087	keystroke	Key.space	n/a
107.2535	0.0455	214507	keystroke	s	n/a
107.3885	0.06	214777	keystroke	t	n/a
107.553	0.06	215106	keystroke	r	n/a
107.583	0.0755	215166	keystroke	u	n/a
107.7335	0.075	215467	keystroke	g	n/a
107.8685	0.075	215737	keystroke	g	n/a
107.9445	0.0735	215889	keystroke	l	n/a
108.048	0.0755	216096	keystroke	e	n/a
108.1085	0.06	216217	keystroke	Key.space	n/a
108.2285	0.075	216457	keystroke	b	n/a
108.2885	0.06	216577	keystroke	r	n/a
108.3935	0.0605	216787	keystroke	a	n/a
108.484	0.06	216968	keystroke	n	n/a
108.604	0.074	217208	keystroke	c	n/a
108.7085	0.0595	217417	keystroke	h	n/a
108.8585	0.075	217717	keystroke	e	n/a
109.0235	0.0605	218047	keystroke	s	n/a
109.143	0.0605	218286	keystroke	Key.enter	n/a
109.2135	7.477	218427	prompt	n/a	regulated specialties both prediction\n
109.9085	0.0455	219817	keystroke	e	n/a
110.3135	0.0595	220627	keystroke	Key.backspace	n/a
110.404	0.074	220808	keystroke	r	n/a
110.493	0.09	220986	keystroke	e	n/a
110.674	0.074	221348	keystroke	g	n/a
110.734	0.059	221468	keystroke	u	n/a
110.913	0.076	221826	keystroke	l	n/a
110.973	0.061	221946	keystroke	a	n/a
111.1085	0.09	222217	keystroke	t	n/a
111.2435	0.0905	222487	keystroke	e	n/a
111.439	0.0745	222878	keystroke	d	n/a
111.499	0.0745	222998	keystroke	Key.space	n/a
111.6335	0.075	223267	keystroke	s	n/a
111.7235	0.0745	223447	keystroke	p	n/a
111.7835	0.0595	223567	keystroke	e	n/a
112.0225	0.0605	224045	keystroke	i	n/a
112.383	0.06	224766	keystroke	Key.backspace	n/a
112.4885	0.09	224977	keystroke	c	n/a
112.6385	0.075	225277	keystroke	i	n/a
112.744	0.089	225488	keystroke	a	n/a
112.8485	0.0755	225697	keystroke	l	n/a
114.1085	0.105	228217	keystroke	t	n/a
114.2285	0.075	228457	keystroke	i	n/a
114.3335	0.0755	228667	keystroke	e	n/a
114.468	0.106	228936	keystroke	s	n/a
114.559	0.09	229118	keystroke	Key.space	n/a
114.7685	0.075	229537	keystroke	b	n/a
114.8585	0.06	229717	keystroke	o	n/a
114.9785	0.075	229957	keystroke	t	n/a
115.0835	0.1205	230167	keystroke	h	n/a
115.2485	0.0745	230497	keystroke	Key.space	n/a
115.4885	0.075	230977	keystroke	p	n/a
115.549	0.09	231098	keystroke	r	n/a
115.684	0.044	231368	keystroke	e	n/a
115.833	0.0755	231666	keystroke	d	n/a
115.894	0.075	231788	keystroke	i	n/a
116.044	0.045	232088	keystroke	c	n/a
116.239	0.06	232478	keystroke	t	n/a
116.2835	0.1205	232567	keystroke	i	n/a
116.343	0.091	232686	keystroke	o	n/a
116.494	0.06	232988	keystroke	n	n/a
116.643	0.0455	233286	keystroke	Key.enter	n/a
116.6955	5.952	233391	prompt	n/a	browse pics division showcase\n
117.3635	0.0895	234727	keystroke	b	n/a
117.679	0.074	235358	keystroke	o	n/a
118.084	0.0445	236168	keystroke	Key.backspace	n/a
118.188	0.075	236376	keystroke	r	n/a
118.2785	0.0595	236557	keystroke	o	n/a
118.354	0.0595	236708	keystroke	w	n/a
118.5785	0.0755	237157	keystroke	s	n/a
118.6985	0.09	237397	keystroke	e	n/a
118.8185	0.075	237637	keystroke	Key.space	n/a
119.0285	0.0755	238057	keystroke	p	n/a
119.224	0.059	238448	keystroke	i	n/a
119.254	0.089	238508	keystroke	c	n/a
119.388	0.105	238776	keystroke	s	n/a
119.448	0.075	238896	keystroke	Key.space	n/a
119.614	0.015	239228	keystroke	p	n/a
119.9135	0.045	239827	keystroke	Key.backspace	n/a
120.064	0.0595	240128	keystroke	d	n/a
120.139	0.059	240278	keystroke	i	n/a
120.2585	0.0755	240517	keystroke	v	n/a
120.319	0.09	240638	keystroke	i	n/a
120.859	0.0745	241718	keystroke	s	n/a
120.9185	0.105	241837	keystroke	i	n/a
120.994	0.105	241988	keystroke	o	n/a
121.264	0.0745	242528	keystroke	n	n/a
121.413	0.09	242826	keystroke	Key.space	n/a
121.699	0.09	243398	keystroke	s	n/a
121.7435	0.0755	243487	keystroke	h	n/a
121.8635	0.1055	243727	keystroke	o	n/a
121.939	0.045	243878	keystroke	w	n/a
122.104	0.09	244208	keystroke	c	n/a
122.209	0.09	244418	keystroke	a	n/a
122.254	0.135	244508	keystroke	s	n/a
122.434	0.0745	244868	keystroke	e	n/a
122.5685	0.075	245137	keystroke	Key.enter	n/a
122.6505	5.26	245301	prompt	n/a	louisiana percent leon launched\n
123.3935	0.1055	246787	keystroke	l	n/a
123.633	0.0605	247266	keystroke	o	n/a
123.8135	0.045	247627	keystroke	u	n/a
123.9785	0.0445	247957	keystroke	i	n/a
124.038	0.0755	248076	keystroke	s	n/a
124.234	0.059	248468	keystroke	i	n/a
124.369	0.0895	248738	keystroke	a	n/a
124.4895	0.074	248979	keystroke	n	n/a
124.6085	0.075	249217	keystroke	a	n/a
124.7285	0.075	249457	keystroke	Key.space	n/a
125.0285	0.0305	250057	keystroke	p	n/a
125.073	0.09	250146	keystroke	e	n/a
125.178	0.076	250356	keystroke	r	n/a
125.448	0.0755	250896	keystroke	c	n/a
125.6135	0.075	251227	keystroke	e	n/a
125.7335	0.06	251467	keystroke	n	n/a
125.8685	0.0755	251737	keystroke	t	n/a
125.9735	0.0755	251947	keystroke	Key.space	n/a
126.139	0.0745	252278	keystroke	l	n/a
126.244	0.075	252488	keystroke	e	n/a
126.364	0.075	252728	keystroke	o	n/a
126.544	0.0745	253088	keystroke	n	n/a
126.649	0.074	253298	keystroke	Key.space	n/a
126.8285	0.0905	253657	keystroke	l	n/a
127.009	0.0905	254018	keystroke	a	n/a
127.1135	0.0605	254227	keystroke	u	n/a
127.2635	0.0755	254527	keystroke	n	n/a
127.353	0.091	254706	keystroke	c	n/a
127.4585	0.0605	254917	keystroke	h	n/a
127.549	0.09	255098	keystroke	e	n/a
127.758	0.046	255516	keystroke	d	n/a
127.8485	0.06	255697	keystroke	Key.enter	n/a
127.915	6.056	255830	prompt	n/a	infrared promise holder attempted\n
128.5385	0.045	257077	keystroke	i	n/a
128.6885	0.075	257377	keystroke	n	n/a
128.7185	0.075	257437	keystroke	f	n/a
128.8835	0.075	257767	keystroke	r	n/a
129.0185	0.1055	258037	keystroke	a	n/a
129.2735	0.0905	258547	keystroke	r	n/a
129.4085	0.09	258817	keystroke	e	n/a
129.6335	0.06	259267	keystroke	d	n/a
129.7235	0.075	259447	keystroke	Key.space	n/a
129.9185	0.03	259837	keystroke	p	n/a
129.9495	0.074	259899	keystroke	r	n/a
130.0385	0.0605	260077	keystroke	o	n/a
130.203	0.075	260406	keystroke	m	n/a
130.3835	0.0605	260767	keystroke	i	n/a
130.4285	0.076	260857	keystroke	s	n/a
130.5345	0.1045	261069	keystroke	e	n/a
130.623	0.09	261246	keystroke	Key.space	n/a
130.894	0.0595	261788	keystroke	o	n/a
131.344	0.06	262688	keystroke	h	n/a
131.569	0.06	263138	keystroke	Key.backspace	n/a
131.734	0.045	263468	keystroke	Key.backspace	n/a
131.884	0.06	263768	keystroke	h	n/a
131.9585	0.076	263917	keystroke	o	n/a
132.109	0.0755	264218	keystroke	l	n/a
132.185	0.0735	264370	keystroke	d	n/a
132.3485	0.09	264697	keystroke	e	n/a
132.454	0.0895	264908	keystroke	r	n/a
132.5445	0.0745	265089	keystroke	Key.space	n/a
132.679	0.09	265358	keystroke	a	n/a
132.8445	0.0745	265689	keystroke	t	n/a
132.979	0.0755	265958	keystroke	t	n/a
133.129	0.09	266258	keystroke	e	n/a
133.189	0.06	266378	keystroke	m	n/a
133.399	0.045	266798	keystroke	p	n/a
133.459	0.045	266918	keystroke	t	n/a
133.594	0.0605	267188	keystroke	e	n/a
133.774	0.06	267548	keystroke	d	n/a
133.909	0.0605	267818	keystroke	Key.enter	n/a
133.9755	5.0505	267951	prompt	n/a	decline podcast week kinase\n
134.4785	0.076	268957	keystroke	d	n/a
134.674	0.0595	269348	keystroke	e	n/a
134.884	0.0595	269768	keystroke	c	n/a
134.929	0.0755	269858	keystroke	l	n/a
135.109	0.045	270218	keystroke	i	n/a
135.2445	0.0895	270489	keystroke	n	n/a
135.289	0.0895	270578	keystroke	e	n/a
135.3935	0.0755	270787	keystroke	Key.space	n/a
135.5445	0.0595	271089	keystroke	p	n/a
135.694	0.075	271388	keystroke	o	n/a
135.784	0.045	271568	keystroke	d	n/a
135.979	0.0755	271958	keystroke	c	n/a
136.099	0.15	272198	keystroke	a	n/a
136.174	0.12	272348	keystroke	s	n/a
136.429	0.0605	272858	keystroke	t	n/a
136.5345	0.0745	273069	keystroke	Key.space	n/a
136.894	0.06	273788	keystroke	w	n/a
137.0735	0.0755	274147	keystroke	e	n/a
137.224	0.075	274448	keystroke	e	n/a
137.284	0.075	274568	keystroke	k	n/a
137.389	0.09	274778	keystroke	Key.space	n/a
137.509	0.09	275018	keystroke	k	n/a
137.7035	0.046	275407	keystroke	i	n/a
137.8545	0.0745	275709	keystroke	n	n/a
138.0645	0.0445	276129	keystroke	d	n/a
138.379	0.045	276758	keystroke	Key.backspace	n/a
138.469	0.135	276938	keystroke	a	n/a
138.6045	0.0895	277209	keystroke	s	n/a
138.7995	0.0745	277599	keystroke	e	n/a
138.964	0.06	277928	keystroke	Key.enter	n/a
139.0305	4.6305	278061	prompt	n/a	reported justice climbing chargers\n
139.5645	0.0745	279129	keystroke	r	n/a
139.6695	0.1045	279339	keystroke	e	n/a
139.789	0.105	279578	keystroke	p	n/a
139.834	0.075	279668	keystroke	o	n/a
139.924	0.0745	279848	keystroke	r	n/a
140.0885	0.0605	280177	keystroke	t	n/a
140.2095	0.0895	280419	keystroke	e	n/a
140.4035	0.075	280807	keystroke	d	n/a
140.4635	0.0755	280927	keystroke	Key.space	n/a
140.599	0.075	281198	keystroke	j	n/a
140.778	0.0605	281556	keystroke	u	n/a
140.884	0.09	281768	keystroke	s	n/a
141.0785	0.076	282157	keystroke	t	n/a
141.1835	0.075	282367	keystroke	i	n/a
141.3185	0.076	282637	keystroke	c	n/a
141.5285	0.076	283057	keystroke	e	n/a
141.6345	0.0745	283269	keystroke	Key.space	n/a
141.829	0.06	283658	keystroke	c	n/a
141.874	0.075	283748	keystroke	l	n/a
142.0535	0.046	284107	keystroke	i	n/a
142.1885	0.09	284377	keystroke	m	n/a
142.2645	0.074	284529	keystroke	b	n/a
142.3985	0.0455	284797	keystroke	i	n/a
142.5345	0.0745	285069	keystroke	n	n/a
142.5635	0.0605	285127	keystroke	g	n/a
142.6695	0.0745	285339	keystroke	Key.space	n/a
142.774	0.0905	285548	keystroke	c	n/a
142.8495	0.06	285699	keystroke	h	n/a
142.9245	0.09	285849	keystroke	a	n/a
143.059	0.0745	286118	keystroke	r	n/a
143.1345	0.075	286269	keystroke	g	n/a
143.1935	0.09	286387	keystroke	e	n/a
143.2985	0.09	286597	keystroke	r	n/a
143.479	0.06	286958	keystroke	s	n/a
143.599	0.06	287198	keystroke	Key.enter	n/a
143.665	5.021	287330	prompt	n/a	policy tribute pointing that's\n
144.139	0.0605	288278	keystroke	r	n/a
144.6195	0.0745	289239	keystroke	Key.backspace	n/a
144.874	0.1355	289748	keystroke	p	n/a
144.949	0.0755	289898	keystroke	o	n/a
145.1295	0.075	290259	keystroke	l	n/a
145.3095	0.06	290619	keystroke	i	n/a
145.4145	0.075	290829	keystroke	c	n/a
145.504	0.075	291008	keystroke	y	n/a
145.639	0.075	291278	keystroke	Key.space	n/a
145.7735	0.0605	291547	keystroke	t	n/a
145.939	0.0755	291878	keystroke	r	n/a
145.9835	0.0765	291967	keystroke	i	n/a
146.149	0.0755	292298	keystroke	b	n/a
146.2095	0.0745	292419	keystroke	u	n/a
146.344	0.06	292688	keystroke	t	n/a
146.464	0.09	292928	keystroke	e	n/a
146.569	0.0595	293138	keystroke	Key.space	n/a
146.704	0.0745	293408	keystroke	p	n/a
146.8685	0.06	293737	keystroke	o	n/a
147.049	0.06	294098	keystroke	i	n/a
147.214	0.06	294428	keystroke	n	n/a
147.334	0.075	294668	keystroke	t	n/a
147.409	0.075	294818	keystroke	i	n/a
147.544	0.075	295088	keystroke	n	n/a
147.6335	0.06	295267	keystroke	g	n/a
147.709	0.075	295418	keystroke	Key.space	n/a
147.8135	0.075	295627	keystroke	t	n/a
147.874	0.0455	295748	keystroke	h	n/a
147.934	0.105	295868	keystroke	a	n/a
148.129	0.075	296258	keystroke	t	n/a
148.2795	0.059	296559	keystroke	'	n/a
148.3995	0.0895	296799	keystroke	s	n/a
148.6235	0.0605	297247	keystroke	Key.enter	n/a
148.69	4.5855	297380	prompt	n/a	median dead federal developer\n
149.254	0.0755	298508	keystroke	m	n/a
149.3135	0.091	298627	keystroke	e	n/a
149.5095	0.0755	299019	keystroke	d	n/a
149.5995	0.045	299199	keystroke	i	n/a
149.7045	0.06	299409	keystroke	a	n/a
149.7795	0.06	299559	keystroke	n	n/a
149.8845	0.0745	299769	keystroke	Key.space	n/a
150.1395	0.075	300279	keystroke	d	n/a
150.4695	0.075	300939	keystroke	e	n/a
150.6495	0.0745	301299	keystroke	a	n/a
150.7695	0.0895	301539	keystroke	d	n/a
150.889	0.09	301778	keystroke	Key.space	n/a
151.039	0.075	302078	keystroke	f	n/a
151.1745	0.0745	302349	keystroke	e	n/a
151.369	0.045	302738	keystroke	d	n/a
151.504	0.0605	303008	keystroke	e	n/a
151.639	0.0605	303278	keystroke	r	n/a
151.7435	0.0905	303487	keystroke	a	n/a
151.8185	0.09	303637	keystroke	l	n/a
151.9535	0.091	303907	keystroke	Key.space	n/a
152.1185	0.0605	304237	keystroke	d	n/a
152.239	0.075	304478	keystroke	e	n/a
152.4195	0.06	304839	keystroke	v	n/a
152.5695	0.075	305139	keystroke	e	n/a
152.6295	0.045	305259	keystroke	l	n/a
152.765	0.1045	305530	keystroke	o	n/a
152.8395	0.0895	305679	keystroke	p	n/a
152.93	0.089	305860	keystroke	e	n/a
153.004	0.09	306008	keystroke	r	n/a
153.2295	0.0445	306459	keystroke	Key.enter	n/a
153.279	4.317	306558	prompt	n/a	martin represented case liver\n
153.8	0.0585	307600	keystroke	m	n/a
153.8745	0.09	307749	keystroke	a	n/a
153.9945	0.0905	307989	keystroke	r	n/a
154.1895	0.075	308379	keystroke	t	n/a
154.2345	0.045	308469	keystroke	i	n/a
154.384	0.06	308768	keystroke	n	n/a
154.489	0.0755	308978	keystroke	Key.space	n/a
154.5485	0.091	309097	keystroke	r	n/a
154.6245	0.075	309249	keystroke	e	n/a
154.759	0.06	309518	keystroke	p	n/a
154.8635	0.091	309727	keystroke	r	n/a
154.9845	0.09	309969	keystroke	e	n/a
155.2245	0.0745	310449	keystroke	s	n/a
155.405	0.0445	310810	keystroke	e	n/a
155.4795	0.06	310959	keystroke	n	n/a
155.5545	0.075	311109	keystroke	t	n/a
155.69	0.09	311380	keystroke	e	n/a
155.854	0.0745	311708	keystroke	d	n/a
155.959	0.0905	311918	keystroke	Key.space	n/a
156.0645	0.06	312129	keystroke	c	n/a
156.2145	0.1645	312429	keystroke	a	n/a
156.349	0.135	312698	keystroke	s	n/a
156.514	0.12	313028	keystroke	e	n/a
156.6645	0.075	313329	keystroke	Key.space	n/a
156.8145	0.0745	313629	keystroke	l	n/a
156.9945	0.074	313989	keystroke	i	n/a
157.0545	0.075	314109	keystroke	v	n/a
157.249	0.0755	314498	keystroke	e	n/a
157.339	0.1055	314678	keystroke	r	n/a
157.5195	0.075	315039	keystroke	Key.enter	n/a
157.6005	3.6255	315201	prompt	n/a	packs rows finds hawk\n
158.194	0.045	316388	keystroke	p	n/a
158.224	0.091	316448	keystroke	a	n/a
158.4045	0.09	316809	keystroke	c	n/a
158.495	0.059	316990	keystroke	k	n/a
158.569	0.075	317138	keystroke	s	n/a
158.704	0.0905	317408	keystroke	Key.space	n/a
158.929	0.0905	317858	keystroke	r	n/a
159.0345	0.0605	318069	keystroke	o	n/a
159.125	0.0745	318250	keystroke	w	n/a
159.3345	0.09	318669	keystroke	s	n/a
159.7395	0.105	319479	keystroke	Key.space	n/a
159.8745	0.0895	319749	keystroke	f	n/a
159.965	0.0595	319930	keystroke	i	n/a
160.1145	0.075	320229	keystroke	n	n/a
160.1745	0.105	320349	keystroke	d	n/a
160.2945	0.0895	320589	keystroke	s	n/a
160.369	0.0755	320738	keystroke	Key.space	n/a
160.6395	0.0605	321279	keystroke	h	n/a
160.7145	0.0905	321429	keystroke	a	n/a
160.8645	0.0895	321729	keystroke	w	n/a
160.939	0.0755	321878	keystroke	k	n/a
161.164	0.0595	322328	keystroke	Key.enter	n/a
161.2285	4.677	322457	prompt	n/a	remix ghost everything highlighted\n
161.8835	0.061	323767	keystroke	r	n/a
161.974	0.105	323948	keystroke	e	n/a
162.08	0.06	324160	keystroke	m	n/a
162.274	0.0605	324548	keystroke	i	n/a
162.3485	0.076	324697	keystroke	x	n/a
162.4535	0.075	324907	keystroke	Key.space	n/a
162.695	0.074	325390	keystroke	g	n/a
162.754	0.075	325508	keystroke	h	n/a
162.904	0.076	325808	keystroke	o	n/a
162.9945	0.0445	325989	keystroke	s	n/a
163.129	0.0605	326258	keystroke	t	n/a
163.1745	0.075	326349	keystroke	Key.space	n/a
163.3695	0.0755	326739	keystroke	e	n/a
163.4595	0.06	326919	keystroke	v	n/a
163.535	0.075	327070	keystroke	e	n/a
163.6105	0.119	327221	keystroke	r	n/a
163.7445	0.075	327489	keystroke	y	n/a
163.879	0.0755	327758	keystroke	t	n/a
163.924	0.0905	327848	keystroke	h	n/a
164.044	0.075	328088	keystroke	i	n/a
164.195	0.104	328390	keystroke	n	n/a
164.2845	0.06	328569	keystroke	g	n/a
164.359	0.075	328718	keystroke	Key.space	n/a
164.509	0.061	329018	keystroke	h	n/a
164.614	0.075	329228	keystroke	i	n/a
164.704	0.0605	329408	keystroke	g	n/a
164.779	0.0455	329558	keystroke	h	n/a
164.9445	0.075	329889	keystroke	l	n/a
165.1245	0.061	330249	keystroke	i	n/a
165.2145	0.045	330429	keystroke	g	n/a
165.2895	0.06	330579	keystroke	h	n/a
165.379	0.075	330758	keystroke	t	n/a
165.5445	0.06	331089	keystroke	e	n/a
165.724	0.0745	331448	keystroke	d	n/a
165.8445	0.0595	331689	keystroke	Key.enter	n/a
165.911	5.2305	331822	prompt	n/a	centered size volleyball jimmy\n
166.5795	0.06	333159	keystroke	c	n/a
166.744	0.075	333488	keystroke	e	n/a
166.834	0.0605	333668	keystroke	n	n/a
166.9545	0.0755	333909	keystroke	t	n/a
167.0895	0.1055	334179	keystroke	e	n/a
167.18	0.149	334360	keystroke	r	n/a
167.314	0.151	334628	keystroke	e	n/a
167.524	0.105	335048	keystroke	d	n/a
167.6595	0.0745	335319	keystroke	Key.space	n/a
167.764	0.0905	335528	keystroke	s	n/a
167.87	0.0595	335740	keystroke	i	n/a
167.9595	0.09	335919	keystroke	z	n/a
168.1545	0.0605	336309	keystroke	e	n/a
168.229	0.0755	336458	keystroke	Key.space	n/a
168.3645	0.0745	336729	keystroke	v	n/a
168.5895	0.0155	337179	keystroke	l	n/a
168.964	0.061	337928	keystroke	Key.backspace	n/a
169.16	0.06	338320	keystroke	o	n/a
169.3095	0.06	338619	keystroke	l	n/a
169.4145	0.0755	338829	keystroke	l	n/a
169.52	0.09	339040	keystroke	e	n/a
169.6395	0.0755	339279	keystroke	y	n/a
169.819	0.0605	339638	keystroke	b	n/a
169.9395	0.075	339879	keystroke	a	n/a
170.0155	0.059	340031	keystroke	l	n/a
170.135	0.09	340270	keystroke	l	n/a
170.27	0.0745	340540	keystroke	Key.space	n/a
170.3745	0.075	340749	keystroke	j	n/a
170.5245	0.075	341049	keystroke	i	n/a
170.719	0.045	341438	keystroke	m	n/a
170.8245	0.09	341649	keystroke	m	n/a
170.9295	0.075	341859	keystroke	y	n/a
171.0795	0.06	342159	keystroke	Key.enter	n/a
171.1455	3.806	342291	prompt	n/a	spas phones jewelry camp\n
171.74	0.105	343480	keystroke	s	n/a
171.83	0.06	343660	keystroke	p	n/a
171.905	0.135	343810	keystroke	a	n/a
172.055	0.12	344110	keystroke	s	n/a
172.19	0.06	344380	keystroke	Key.space	n/a
172.354	0.075	344708	keystroke	p	n/a
172.5495	0.06	345099	keystroke	h	n/a
172.7145	0.06	345429	keystroke	o	n/a
172.8645	0.075	345729	keystroke	n	n/a
172.9095	0.06	345819	keystroke	e	n/a
173.059	0.106	346118	keystroke	s	n/a
173.134	0.0755	346268	keystroke	Key.space	n/a
173.329	0.0755	346658	keystroke	j	n/a
173.389	0.0905	346778	keystroke	e	n/a
173.524	0.121	347048	keystroke	w	n/a
173.629	0.1205	347258	keystroke	e	n/a
173.7495	0.09	347499	keystroke	l	n/a
173.8695	0.074	347739	keystroke	r	n/a
173.99	0.059	347980	keystroke	y	n/a
174.124	0.075	348248	keystroke	Key.space	n/a
174.274	0.076	348548	keystroke	c	n/a
174.3945	0.0905	348789	keystroke	a	n/a
174.4695	0.06	348939	keystroke	m	n/a
174.65	0.06	349300	keystroke	p	n/a
174.89	0.06	349780	keystroke	Key.enter	n/a
174.956	5.6995	349912	prompt	n/a	clinics beginner tsunami upgrading\n
175.595	0.075	351190	keystroke	c	n/a
175.655	0.075	351310	keystroke	l	n/a
175.8195	0.06	351639	keystroke	i	n/a
175.9845	0.06	351969	keystroke	n	n/a
176.12	0.06	352240	keystroke	i	n/a
176.18	0.0745	352360	keystroke	c	n/a
176.299	0.106	352598	keystroke	s	n/a
176.3895	0.06	352779	keystroke	Key.space	n/a
176.5395	0.075	353079	keystroke	b	n/a
176.6	0.06	353200	keystroke	e	n/a
176.7795	0.075	353559	keystroke	g	n/a
176.8395	0.045	353679	keystroke	i	n/a
177.0045	0.045	354009	keystroke	n	n/a
177.125	0.075	354250	keystroke	n	n/a
177.215	0.075	354430	keystroke	e	n/a
177.275	0.119	354550	keystroke	r	n/a
177.425	0.074	354850	keystroke	Key.space	n/a
177.8	0.074	355600	keystroke	t	n/a
177.994	0.091	355988	keystroke	s	n/a
178.07	0.0595	356140	keystroke	u	n/a
178.385	0.075	356770	keystroke	n	n/a
178.505	0.075	357010	keystroke	a	n/a
178.595	0.075	357190	keystroke	m	n/a
178.79	0.044	357580	keystroke	i	n/a
178.9235	0.0765	357847	keystroke	Key.space	n/a
179.149	0.0605	358298	keystroke	u	n/a
179.315	0.075	358630	keystroke	p	n/a
179.405	0.074	358810	keystroke	g	n/a
179.585	0.0595	359170	keystroke	r	n/a
179.6895	0.1355	359379	keystroke	a	n/a
179.84	0.1055	359680	keystroke	d	n/a
180.0065	0.0595	360013	keystroke	i	n/a
180.2015	0.061	360403	keystroke	n	n/a
180.307	0.0605	360614	keystroke	g	n/a
180.5935	0.0605	361187	keystroke	Key.enter	n/a
180.6595	4.632	361319	prompt	n/a	theta satin writing survive\n
181.3165	0.059	362633	keystroke	t	n/a
181.391	0.06	362782	keystroke	h	n/a
181.466	0.1055	362932	keystroke	e	n/a
181.797	0.0755	363594	keystroke	t	n/a
182.008	0.0755	364016	keystroke	a	n/a
182.1435	0.0755	364287	keystroke	Key.space	n/a
182.2795	0.0455	364559	keystroke	s	n/a
182.384	0.105	364768	keystroke	a	n/a
182.5805	0.075	365161	keystroke	t	n/a
182.6395	0.061	365279	keystroke	i	n/a
182.806	0.0755	365612	keystroke	n	n/a
182.986	0.075	365972	keystroke	Key.space	n/a
183.4825	0.1055	366965	keystroke	w	n/a
183.6025	0.106	367205	keystroke	r	n/a
183.7235	0.076	367447	keystroke	i	n/a
183.8445	0.074	367689	keystroke	t	n/a
183.9035	0.06	367807	keystroke	i	n/a
184.054	0.091	368108	keystroke	n	n/a
184.1295	0.061	368259	keystroke	g	n/a
184.2205	0.0755	368441	keystroke	Key.space	n/a
184.4305	0.09	368861	keystroke	s	n/a
184.5055	0.0605	369011	keystroke	u	n/a
184.611	0.0755	369222	keystroke	r	n/a
184.8225	0.0605	369645	keystroke	v	n/a
184.868	0.074	369736	keystroke	i	n/a
184.9575	0.06	369915	keystroke	v	n/a
185.1235	0.0755	370247	keystroke	e	n/a
185.229	0.06	370458	keystroke	Key.enter	n/a
185.2965	4.4035	370593	prompt	n/a	excessive earl we'd voting\n
185.8755	0.0905	371751	keystroke	e	n/a
186.101	0.0755	372202	keystroke	x	n/a
186.2365	0.0755	372473	keystroke	c	n/a
186.4325	0.06	372865	keystroke	e	n/a
186.598	0.0745	373196	keystroke	s	n/a
186.733	0.076	373466	keystroke	s	n/a
186.8395	0.0745	373679	keystroke	i	n/a
186.958	0.0765	373916	keystroke	v	n/a
187.1395	0.0755	374279	keystroke	e	n/a
187.23	0.0755	374460	keystroke	Key.space	n/a
187.3065	0.104	374613	keystroke	e	n/a
187.471	0.1055	374942	keystroke	a	n/a
187.5915	0.0905	375183	keystroke	r	n/a
187.6665	0.076	375333	keystroke	l	n/a
187.8165	0.0605	375633	keystroke	Key.space	n/a
187.892	0.0905	375784	keystroke	w	n/a
187.9525	0.1055	375905	keystroke	e	n/a
188.118	0.0755	376236	keystroke	'	n/a
188.238	0.0905	376476	keystroke	d	n/a
188.419	0.0755	376838	keystroke	Key.space	n/a
188.9755	0.075	377951	keystroke	v	n/a
189.036	0.0745	378072	keystroke	o	n/a
189.187	0.09	378374	keystroke	t	n/a
189.2615	0.03	378523	keystroke	i	n/a
189.397	0.06	378794	keystroke	n	n/a
189.4865	0.061	378973	keystroke	g	n/a
189.6225	0.076	379245	keystroke	Key.enter	n/a
189.705	4.767	379410	prompt	n/a	freebsd enough forty credit\n
190.2555	0.0895	380511	keystroke	f	n/a
190.451	0.0745	380902	keystroke	r	n/a
190.5855	0.0755	381171	keystroke	e	n/a
190.843	0.0745	381686	keystroke	e	n/a
191.1585	0.0755	382317	keystroke	b	n/a
191.2785	0.136	382557	keystroke	s	n/a
191.384	0.1355	382768	keystroke	d	n/a
191.76	0.0905	383520	keystroke	Key.space	n/a
191.9565	0.089	383913	keystroke	e	n/a
192.0305	0.0605	384061	keystroke	n	n/a
192.1965	0.06	384393	keystroke	o	n/a
192.362	0.061	384724	keystroke	u	n/a
192.4385	0.059	384877	keystroke	g	n/a
192.5125	0.0755	385025	keystroke	h	n/a
192.618	0.09	385236	keystroke	Key.space	n/a
192.6935	0.0905	385387	keystroke	f	n/a
192.844	0.015	385688	keystroke	o	n/a
192.8895	0.0595	385779	keystroke	r	n/a
193.0695	0.0755	386139	keystroke	t	n/a
193.13	0.06	386260	keystroke	y	n/a
193.2655	0.0755	386531	keystroke	Key.space	n/a
193.446	0.09	386892	keystroke	c	n/a
193.672	0.044	387344	keystroke	r	n/a
193.777	0.09	387554	keystroke	e	n/a
193.9725	0.091	387945	keystroke	d	n/a
194.0475	0.075	388095	keystroke	i	n/a
194.229	0.06	388458	keystroke	t	n/a
194.409	0.0605	388818	keystroke	Key.enter	n/a
194.4765	5.1275	388953	prompt	n/a	summaries elevation prize podcast\n
195.0255	0.076	390051	keystroke	s	n/a
195.131	0.0605	390262	keystroke	u	n/a
195.3275	0.045	390655	keystroke	m	n/a
195.4325	0.0905	390865	keystroke	m	n/a
195.508	0.075	391016	keystroke	a	n/a
195.6285	0.09	391257	keystroke	r	n/a
195.734	0.0605	391468	keystroke	i	n/a
195.7945	0.105	391589	keystroke	e	n/a
196.0045	0.0755	392009	keystroke	s	n/a
196.094	0.061	392188	keystroke	Key.space	n/a
196.2445	0.061	392489	keystroke	e	n/a
196.3205	0.061	392641	keystroke	l	n/a
196.396	0.0605	392792	keystroke	e	n/a
196.5765	0.0595	393153	keystroke	v	n/a
196.6965	0.091	393393	keystroke	a	n/a
196.938	0.06	393876	keystroke	t	n/a
196.9825	0.0905	393965	keystroke	i	n/a
197.043	0.0905	394086	keystroke	o	n/a
197.269	0.0755	394538	keystroke	n	n/a
197.389	0.075	394778	keystroke	Key.space	n/a
197.555	0.0755	395110	keystroke	p	n/a
197.6	0.0905	395200	keystroke	r	n/a
197.751	0.0595	395502	keystroke	i	n/a
197.8255	0.0905	395651	keystroke	z	n/a
198.0215	0.0895	396043	keystroke	e	n/a
198.096	0.0605	396192	keystroke	Key.space	n/a
198.4425	0.0595	396885	keystroke	p	n/a
198.6075	0.061	397215	keystroke	o	n/a
198.6835	0.0755	397367	keystroke	d	n/a
198.91	0.134	397820	keystroke	c	n/a
199.059	0.106	398118	keystroke	a	n/a
199.12	0.135	398240	keystroke	s	n/a
199.3755	0.0605	398751	keystroke	t	n/a
199.526	0.076	399052	keystroke	Key.enter	n/a
199.6085	5.579	399217	prompt	n/a	constraint toolbox beautiful respondents\n
200.3095	0.06	400619	keystroke	c	n/a
200.3995	0.0455	400799	keystroke	o	n/a
200.58	0.075	401160	keystroke	n	n/a
200.6705	0.075	401341	keystroke	s	n/a
200.851	0.0455	401702	keystroke	t	n/a
201.0015	0.075	402003	keystroke	r	n/a
201.122	0.075	402244	keystroke	a	n/a
201.182	0.0605	402364	keystroke	i	n/a
201.348	0.06	402696	keystroke	n	n/a
201.4225	0.061	402845	keystroke	t	n/a
201.5125	0.0755	403025	keystroke	Key.space	n/a
201.633	0.091	403266	keystroke	t	n/a
201.709	0.06	403418	keystroke	o	n/a
201.814	0.091	403628	keystroke	o	n/a
202.0105	0.089	404021	keystroke	l	n/a
202.1595	0.076	404319	keystroke	b	n/a
202.281	0.075	404562	keystroke	o	n/a
202.416	0.0905	404832	keystroke	x	n/a
202.536	0.0605	405072	keystroke	Key.space	n/a
202.7475	0.06	405495	keystroke	b	n/a
202.793	0.075	405586	keystroke	e	n/a
202.9135	0.075	405827	keystroke	a	n/a
203.0035	0.06	406007	keystroke	u	n/a
203.0935	0.0755	406187	keystroke	t	n/a
203.184	0.075	406368	keystroke	i	n/a
203.3045	0.09	406609	keystroke	f	n/a
203.3795	0.0605	406759	keystroke	u	n/a
203.5605	0.075	407121	keystroke	l	n/a
203.6805	0.06	407361	keystroke	Key.space	n/a
203.756	0.075	407512	keystroke	r	n/a
203.846	0.1055	407692	keystroke	e	n/a
203.9965	0.0905	407993	keystroke	s	n/a
204.0265	0.135	408053	keystroke	p	n/a
204.102	0.09	408204	keystroke	o	n/a
204.328	0.059	408656	keystroke	n	n/a
204.388	0.0755	408776	keystroke	d	n/a
204.5535	0.0755	409107	keystroke	e	n/a
204.614	0.075	409228	keystroke	n	n/a
204.7495	0.06	409499	keystroke	t	n/a
204.885	0.0895	409770	keystroke	s	n/a
205.125	0.06	410250	keystroke	Key.enter	n/a
205.1925	4.465	410385	prompt	n/a	shopzilla pads sans speech\n
205.8325	0.0605	411665	keystroke	s	n/a
206.103	0.0615	412206	keystroke	h	n/a
206.149	0.1195	412298	keystroke	o	n/a
206.2245	0.09	412449	keystroke	p	n/a
206.4195	0.075	412839	keystroke	z	n/a
206.5095	0.06	413019	keystroke	i	n/a
206.706	0.0445	413412	keystroke	l	n/a
206.8105	0.0905	413621	keystroke	l	n/a
206.8865	0.0755	413773	keystroke	a	n/a
207.006	0.0305	414012	keystroke	Key.space	n/a
207.2775	0.0605	414555	keystroke	p	n/a
207.383	0.0905	414766	keystroke	a	n/a
207.534	0.105	415068	keystroke	d	n/a
207.684	0.09	415368	keystroke	s	n/a
207.88	0.0745	415760	keystroke	Key.space	n/a
208.0005	0.0895	416001	keystroke	s	n/a
208.181	0.06	416362	keystroke	a	n/a
208.256	0.0745	416512	keystroke	n	n/a
208.4065	0.0905	416813	keystroke	s	n/a
208.6625	0.0595	417325	keystroke	Key.space	n/a
208.768	0.0895	417536	keystroke	s	n/a
208.9025	0.03	417805	keystroke	p	n/a
208.9635	0.0745	417927	keystroke	e	n/a
209.099	0.0905	418198	keystroke	e	n/a
209.3095	0.06	418619	keystroke	c	n/a
209.355	0.06	418710	keystroke	h	n/a
209.595	0.0605	419190	keystroke	Key.enter	n/a
209.662	4.571	419324	prompt	n/a	models democrats related seal\n
210.258	0.06	420516	keystroke	m	n/a
210.4235	0.0595	420847	keystroke	o	n/a
210.484	0.074	420968	keystroke	d	n/a
210.649	0.075	421298	keystroke	e	n/a
210.739	0.0605	421478	keystroke	l	n/a
210.844	0.0905	421688	keystroke	s	n/a
210.9645	0.0755	421929	keystroke	Key.space	n/a
211.1905	0.06	422381	keystroke	d	n/a
211.341	0.075	422682	keystroke	e	n/a
211.3865	0.06	422773	keystroke	m	n/a
211.537	0.045	423074	keystroke	o	n/a
211.597	0.0755	423194	keystroke	c	n/a
211.792	0.061	423584	keystroke	r	n/a
211.8985	0.1045	423797	keystroke	a	n/a
212.033	0.0755	424066	keystroke	t	n/a
212.184	0.0755	424368	keystroke	s	n/a
212.3345	0.06	424669	keystroke	Key.space	n/a
212.6205	0.06	425241	keystroke	r	n/a
212.665	0.121	425330	keystroke	e	n/a
212.816	0.0605	425632	keystroke	l	n/a
212.8915	0.06	425783	keystroke	a	n/a
213.057	0.0755	426114	keystroke	t	n/a
213.1625	0.09	426325	keystroke	e	n/a
213.373	0.105	426746	keystroke	d	n/a
213.4625	0.031	426925	keystroke	Key.space	n/a
213.6135	0.075	427227	keystroke	s	n/a
213.734	0.105	427468	keystroke	e	n/a
213.8995	0.075	427799	keystroke	a	n/a
213.9595	0.076	427919	keystroke	l	n/a
214.185	0.0455	428370	keystroke	Key.enter	n/a
214.2415	4.8215	428483	prompt	n/a	projectors he neil graduation\n
214.8025	0.0605	429605	keystroke	p	n/a
214.877	0.0615	429754	keystroke	r	n/a
214.983	0.0755	429966	keystroke	o	n/a
215.149	0.075	430298	keystroke	j	n/a
215.179	0.09	430358	keystroke	e	n/a
215.4045	0.06	430809	keystroke	c	n/a
215.6155	0.0595	431231	keystroke	t	n/a
215.706	0.0745	431412	keystroke	o	n/a
215.7955	0.0905	431591	keystroke	r	n/a
215.9915	0.075	431983	keystroke	s	n/a
216.0815	0.0605	432163	keystroke	Key.space	n/a
216.262	0.06	432524	keystroke	h	n/a
216.307	0.0905	432614	keystroke	e	n/a
216.3825	0.0605	432765	keystroke	Key.space	n/a
216.5335	0.075	433067	keystroke	n	n/a
216.6235	0.06	433247	keystroke	e	n/a
216.758	0.0165	433516	keystroke	i	n/a
216.894	0.106	433788	keystroke	l	n/a
217.0445	0.0755	434089	keystroke	Key.space	n/a
217.2695	0.0755	434539	keystroke	g	n/a
217.346	0.06	434692	keystroke	r	n/a
217.737	0.0905	435474	keystroke	a	n/a
218.0085	0.0595	436017	keystroke	d	n/a
218.098	0.0755	436196	keystroke	u	n/a
218.2185	0.0755	436437	keystroke	a	n/a
218.414	0.0755	436828	keystroke	t	n/a
218.474	0.076	436948	keystroke	i	n/a
218.5195	0.09	437039	keystroke	o	n/a
218.73	0.0605	437460	keystroke	n	n/a
219.0155	0.045	438031	keystroke	Key.enter	n/a
219.068	4.238	438136	prompt	n/a	painting swap assumed analysts\n
219.814	0.0595	439628	keystroke	p	n/a
219.9035	0.0755	439807	keystroke	a	n/a
220.0245	0.06	440049	keystroke	i	n/a
220.175	0.075	440350	keystroke	n	n/a
220.265	0.075	440530	keystroke	t	n/a
220.385	0.0305	440770	keystroke	i	n/a
220.5055	0.076	441011	keystroke	n	n/a
220.5965	0.06	441193	keystroke	g	n/a
220.6715	0.075	441343	keystroke	Key.space	n/a
220.8215	0.0755	441643	keystroke	s	n/a
221.0175	0.045	442035	keystroke	w	n/a
221.1525	0.0755	442305	keystroke	a	n/a
221.198	0.045	442396	keystroke	p	n/a
221.318	0.0755	442636	keystroke	Key.space	n/a
221.4085	0.1055	442817	keystroke	a	n/a
221.499	0.1055	442998	keystroke	s	n/a
221.709	0.06	443418	keystroke	s	n/a
221.74	0.059	443480	keystroke	u	n/a
221.9205	0.059	443841	keystroke	m	n/a
221.9655	0.0755	443931	keystroke	e	n/a
222.1305	0.0905	444261	keystroke	d	n/a
222.191	0.0745	444382	keystroke	Key.space	n/a
222.2815	0.0905	444563	keystroke	a	n/a
222.356	0.0455	444712	keystroke	n	n/a
222.447	0.075	444894	keystroke	a	n/a
222.5375	0.0755	445075	keystroke	l	n/a
222.747	0.031	445494	keystroke	y	n/a
222.8225	0.06	445645	keystroke	s	n/a
222.913	0.0455	445826	keystroke	t	n/a
222.988	0.0755	445976	keystroke	s	n/a
223.259	0.0455	446518	keystroke	Key.enter	n/a
223.311	6.3285	446622	prompt	n/a	packard significantly blacks recipient\n
223.8915	0.06	447783	keystroke	p	n/a
223.9515	0.0905	447903	keystroke	a	n/a
224.1325	0.075	448265	keystroke	c	n/a
224.1925	0.06	448385	keystroke	k	n/a
224.2825	0.0905	448565	keystroke	a	n/a
224.448	0.106	448896	keystroke	r	n/a
224.7185	0.045	449437	keystroke	d	n/a
224.7785	0.0755	449557	keystroke	Key.space	n/a
224.899	0.0905	449798	keystroke	s	n/a
225.0045	0.0455	450009	keystroke	i	n/a
225.1255	0.06	450251	keystroke	g	n/a
225.17	0.06	450340	keystroke	n	n/a
225.3205	0.0605	450641	keystroke	i	n/a
225.8475	0.06	451695	keystroke	f	n/a
225.9375	0.0755	451875	keystroke	i	n/a
226.088	0.075	452176	keystroke	c	n/a
226.239	0.105	452478	keystroke	a	n/a
226.494	0.0755	452988	keystroke	n	n/a
226.6595	0.061	453319	keystroke	t	n/a
226.8255	0.075	453651	keystroke	l	n/a
227.006	0.0605	454012	keystroke	y	n/a
227.111	0.06	454222	keystroke	Key.space	n/a
227.397	0.075	454794	keystroke	b	n/a
227.457	0.0755	454914	keystroke	l	n/a
227.5775	0.0755	455155	keystroke	a	n/a
227.743	0.0905	455486	keystroke	c	n/a
227.803	0.0755	455606	keystroke	k	n/a
227.8935	0.09	455787	keystroke	s	n/a
227.9985	0.0605	455997	keystroke	Key.space	n/a
228.074	0.0755	456148	keystroke	r	n/a
228.1935	0.0765	456387	keystroke	e	n/a
228.42	0.06	456840	keystroke	c	n/a
228.495	0.0455	456990	keystroke	i	n/a
228.6605	0.0605	457321	keystroke	p	n/a
228.811	0.075	457622	keystroke	i	n/a
228.9165	0.075	457833	keystroke	e	n/a
229.0365	0.0755	458073	keystroke	n	n/a
229.172	0.06	458344	keystroke	t	n/a
229.5925	0.045	459185	keystroke	Key.enter	n/a
229.644	5.439	459288	prompt	n/a	smithsonian described voluntary shipped\n
230.313	0.0905	460626	keystroke	s	n/a
230.3885	0.0605	460777	keystroke	m	n/a
230.598	0.06	461196	keystroke	i	n/a
230.703	0.0755	461406	keystroke	t	n/a
230.8535	0.0605	461707	keystroke	h	n/a
231.108	0.0745	462216	keystroke	s	n/a
231.1685	0.059	462337	keystroke	o	n/a
231.333	0.076	462666	keystroke	n	n/a
231.498	0.046	462996	keystroke	i	n/a
231.573	0.09	463146	keystroke	a	n/a
231.6785	0.0445	463357	keystroke	n	n/a
231.768	0.075	463536	keystroke	Key.space	n/a
231.8585	0.0595	463717	keystroke	d	n/a
232.0085	0.06	464017	keystroke	e	n/a
232.1575	0.0755	464315	keystroke	s	n/a
232.3085	0.09	464617	keystroke	c	n/a
232.5335	0.0455	465067	keystroke	r	n/a
232.563	0.044	465126	keystroke	i	n/a
232.7275	0.075	465455	keystroke	b	n/a
232.7575	0.075	465515	keystroke	e	n/a
232.938	0.0595	465876	keystroke	d	n/a
233.0125	0.045	466025	keystroke	Key.space	n/a
233.117	0.06	466234	keystroke	v	n/a
233.1615	0.0455	466323	keystroke	o	n/a
233.3125	0.0595	466625	keystroke	l	n/a
233.4925	0.045	466985	keystroke	u	n/a
233.6265	0.0905	467253	keystroke	n	n/a
233.672	0.075	467344	keystroke	t	n/a
233.822	0.0905	467644	keystroke	a	n/a
233.927	0.0755	467854	keystroke	r	n/a
233.9875	0.06	467975	keystroke	y	n/a
234.1065	0.075	468213	keystroke	Key.space	n/a
234.1665	0.1055	468333	keystroke	s	n/a
234.2565	0.075	468513	keystroke	h	n/a
234.437	0.06	468874	keystroke	i	n/a
234.5855	0.06	469171	keystroke	p	n/a
234.707	0.074	469414	keystroke	p	n/a
234.766	0.075	469532	keystroke	e	n/a
234.9615	0.0455	469923	keystroke	d	n/a
235.0215	0.0595	470043	keystroke	Key.enter	n/a
235.093	3.859	470186	prompt	n/a	wilson stylus render hair\n
235.726	0.075	471452	keystroke	w	n/a
235.816	0.045	471632	keystroke	i	n/a
235.981	0.059	471962	keystroke	l	n/a
236.0705	0.0605	472141	keystroke	s	n/a
236.1455	0.045	472291	keystroke	o	n/a
236.311	0.06	472622	keystroke	n	n/a
236.4165	0.0595	472833	keystroke	Key.space	n/a
236.4315	0.0755	472863	keystroke	s	n/a
236.626	0.0595	473252	keystroke	t	n/a
236.7755	0.06	473551	keystroke	y	n/a
237.0455	0.0745	474091	keystroke	l	n/a
237.271	0.045	474542	keystroke	u	n/a
237.3615	0.089	474723	keystroke	s	n/a
237.4355	0.076	474871	keystroke	Key.space	n/a
237.631	0.0595	475262	keystroke	r	n/a
237.736	0.0755	475472	keystroke	e	n/a
237.841	0.0595	475682	keystroke	n	n/a
237.9315	0.0745	475863	keystroke	d	n/a
238.0945	0.06	476189	keystroke	e	n/a
238.1855	0.105	476371	keystroke	r	n/a
238.3195	0.076	476639	keystroke	Key.space	n/a
238.486	0.0445	476972	keystroke	h	n/a
238.5315	0.1035	477063	keystroke	a	n/a
238.65	0.0605	477300	keystroke	i	n/a
238.7555	0.0745	477511	keystroke	r	n/a
238.891	0.059	477782	keystroke	Key.enter	n/a
238.968	3.4175	477936	prompt	n/a	male camps scanned highway\n
239.55	0.0595	479100	keystroke	m	n/a
239.6245	0.0755	479249	keystroke	a	n/a
239.715	0.0895	479430	keystroke	l	n/a
239.8045	0.0605	479609	keystroke	e	n/a
239.88	0.06	479760	keystroke	Key.space	n/a
240.029	0.045	480058	keystroke	c	n/a
240.1645	0.074	480329	keystroke	a	n/a
240.209	0.0595	480418	keystroke	m	n/a
240.3595	0.075	480719	keystroke	p	n/a
240.449	0.0455	480898	keystroke	s	n/a
240.5385	0.06	481077	keystroke	Key.space	n/a
240.614	0.0445	481228	keystroke	s	n/a
240.734	0.09	481468	keystroke	c	n/a
240.8845	0.09	481769	keystroke	a	n/a
240.944	0.06	481888	keystroke	n	n/a
241.078	0.0605	482156	keystroke	n	n/a
241.108	0.076	482216	keystroke	e	n/a
241.274	0.075	482548	keystroke	d	n/a
241.334	0.06	482668	keystroke	Key.space	n/a
241.469	0.06	482938	keystroke	h	n/a
241.604	0.06	483208	keystroke	i	n/a
241.634	0.075	483268	keystroke	g	n/a
241.754	0.075	483508	keystroke	h	n/a
241.8445	0.0595	483689	keystroke	w	n/a
241.9635	0.0895	483927	keystroke	a	n/a
242.068	0.046	484136	keystroke	y	n/a
242.339	0.045	484678	keystroke	Key.enter	n/a
242.3905	3.7125	484781	prompt	n/a	cloth lips valley panama\n
242.9685	0.0745	485937	keystroke	c	n/a
243.0575	0.0605	486115	keystroke	l	n/a
243.2525	0.03	486505	keystroke	o	n/a
243.3285	0.075	486657	keystroke	t	n/a
243.4335	0.0595	486867	keystroke	h	n/a
243.5515	0.061	487103	keystroke	Key.space	n/a
243.7025	0.0595	487405	keystroke	l	n/a
243.868	0.0595	487736	keystroke	i	n/a
243.988	0.074	487976	keystroke	p	n/a
244.077	0.0605	488154	keystroke	s	n/a
244.182	0.0755	488364	keystroke	Key.space	n/a
244.348	0.0745	488696	keystroke	v	n/a
244.482	0.0755	488964	keystroke	a	n/a
244.5425	0.0595	489085	keystroke	l	n/a
244.662	0.0905	489324	keystroke	l	n/a
244.782	0.0895	489564	keystroke	e	n/a
244.932	0.045	489864	keystroke	y	n/a
245.127	0.0595	490254	keystroke	Key.space	n/a
245.3075	0.059	490615	keystroke	p	n/a
245.3825	0.075	490765	keystroke	a	n/a
245.516	0.06	491032	keystroke	n	n/a
245.591	0.061	491182	keystroke	a	n/a
245.711	0.061	491422	keystroke	m	n/a
245.801	0.0765	491602	keystroke	a	n/a
246.0405	0.0605	492081	keystroke	Key.enter	n/a
246.108	4.6725	492216	prompt	n/a	prime maintenance buttons processed\n
246.7755	0.06	493551	keystroke	p	n/a
246.8805	0.076	493761	keystroke	r	n/a
246.9715	0.059	493943	keystroke	i	n/a
247.1205	0.075	494241	keystroke	m	n/a
247.181	0.0745	494362	keystroke	e	n/a
247.2705	0.0605	494541	keystroke	Key.space	n/a
247.3755	0.09	494751	keystroke	m	n/a
247.436	0.105	494872	keystroke	a	n/a
247.5705	0.06	495141	keystroke	i	n/a
247.736	0.06	495472	keystroke	n	n/a
247.781	0.06	495562	keystroke	t	n/a
247.901	0.0595	495802	keystroke	e	n/a
247.931	0.059	495862	keystroke	n	n/a
248.0655	0.0745	496131	keystroke	a	n/a
248.125	0.06	496250	keystroke	n	n/a
248.2905	0.0595	496581	keystroke	c	n/a
248.4705	0.06	496941	keystroke	e	n/a
248.5445	0.076	497089	keystroke	Key.space	n/a
248.6805	0.09	497361	keystroke	b	n/a
248.7555	0.045	497511	keystroke	u	n/a
248.965	0.015	497930	keystroke	t	n/a
249.024	0.091	498048	keystroke	t	n/a
249.0995	0.03	498199	keystroke	o	n/a
249.235	0.075	498470	keystroke	n	n/a
249.28	0.075	498560	keystroke	s	n/a
249.37	0.06	498740	keystroke	Key.space	n/a
249.5045	0.075	499009	keystroke	p	n/a
249.5645	0.06	499129	keystroke	r	n/a
249.6695	0.06	499339	keystroke	o	n/a
249.7745	0.0595	499549	keystroke	c	n/a
249.9545	0.0595	499909	keystroke	e	n/a
250.133	0.061	500266	keystroke	s	n/a
250.2695	0.059	500539	keystroke	s	n/a
250.449	0.074	500898	keystroke	e	n/a
250.613	0.076	501226	keystroke	d	n/a
250.703	0.076	501406	keystroke	Key.enter	n/a
250.785	3.9385	501570	prompt	n/a	roughly fonts labor brochure\n
251.5275	0.091	503055	keystroke	r	n/a
251.6185	0.045	503237	keystroke	o	n/a
251.768	0.0605	503536	keystroke	u	n/a
251.8285	0.075	503657	keystroke	g	n/a
251.9185	0.0595	503837	keystroke	h	n/a
252.098	0.0895	504196	keystroke	l	n/a
252.1735	0.06	504347	keystroke	y	n/a
252.2625	0.075	504525	keystroke	Key.space	n/a
252.399	0.0735	504798	keystroke	f	n/a
252.4575	0.06	504915	keystroke	o	n/a
252.6225	0.075	505245	keystroke	n	n/a
252.6835	0.059	505367	keystroke	t	n/a
252.818	0.1055	505636	keystroke	s	n/a
252.952	0.0605	505904	keystroke	Key.space	n/a
253.133	0.074	506266	keystroke	l	n/a
253.238	0.0755	506476	keystroke	a	n/a
253.328	0.0755	506656	keystroke	b	n/a
253.4925	0.09	506985	keystroke	o	n/a
253.5975	0.03	507195	keystroke	r	n/a
253.6425	0.06	507285	keystroke	Key.space	n/a
253.793	0.059	507586	keystroke	b	n/a
253.868	0.074	507736	keystroke	r	n/a
253.9565	0.076	507913	keystroke	o	n/a
254.1215	0.075	508243	keystroke	c	n/a
254.1825	0.059	508365	keystroke	h	n/a
254.272	0.075	508544	keystroke	u	n/a
254.377	0.074	508754	keystroke	r	n/a
254.481	0.075	508962	keystroke	e	n/a
254.6915	0.03	509383	keystroke	Key.enter	n/a
254.728	5.0035	509456	prompt	n/a	instantly broadcast positions you've\n
255.367	0.044	510734	keystroke	i	n/a
255.515	0.0765	511030	keystroke	n	n/a
255.5465	0.059	511093	keystroke	s	n/a
255.681	0.06	511362	keystroke	t	n/a
255.771	0.12	511542	keystroke	a	n/a
255.8615	0.075	511723	keystroke	n	n/a
255.951	0.0895	511902	keystroke	t	n/a
256.0705	0.0605	512141	keystroke	l	n/a
256.1905	0.0305	512381	keystroke	y	n/a
256.2655	0.045	512531	keystroke	Key.space	n/a
256.386	0.059	512772	keystroke	b	n/a
256.46	0.0905	512920	keystroke	r	n/a
256.565	0.06	513130	keystroke	o	n/a
256.655	0.1655	513310	keystroke	a	n/a
256.806	0.1195	513612	keystroke	d	n/a
257.225	0.0755	514450	keystroke	c	n/a
257.33	0.135	514660	keystroke	a	n/a
257.405	0.12	514810	keystroke	s	n/a
257.6155	0.0745	515231	keystroke	t	n/a
257.72	0.075	515440	keystroke	Key.space	n/a
257.8555	0.075	515711	keystroke	p	n/a
258.005	0.0745	516010	keystroke	o	n/a
258.11	0.075	516220	keystroke	s	n/a
258.2	0.045	516400	keystroke	i	n/a
258.29	0.075	516580	keystroke	t	n/a
258.335	0.1205	516670	keystroke	i	n/a
258.41	0.0895	516820	keystroke	o	n/a
258.605	0.09	517210	keystroke	n	n/a
258.68	0.0755	517360	keystroke	s	n/a
258.77	0.0595	517540	keystroke	Key.space	n/a
258.89	0.06	517780	keystroke	y	n/a
258.9355	0.0435	517871	keystroke	o	n/a
259.069	0.0605	518138	keystroke	u	n/a
259.2795	0.075	518559	keystroke	'	n/a
259.3395	0.075	518679	keystroke	v	n/a
259.504	0.06	519008	keystroke	e	n/a
259.6695	0.0595	519339	keystroke	Key.enter	n/a
259.7365	5.167	519473	prompt	n/a	accomplished bind deutsch labor\n
260.329	0.0755	520658	keystroke	a	n/a
260.5085	0.0595	521017	keystroke	c	n/a
260.6435	0.075	521287	keystroke	c	n/a
260.7335	0.03	521467	keystroke	o	n/a
260.8685	0.06	521737	keystroke	m	n/a
261.033	0.106	522066	keystroke	p	n/a
261.1085	0.105	522217	keystroke	l	n/a
261.3335	0.0455	522667	keystroke	i	n/a
261.4085	0.0605	522817	keystroke	s	n/a
261.4975	0.0605	522995	keystroke	h	n/a
261.573	0.0605	523146	keystroke	e	n/a
261.7535	0.09	523507	keystroke	d	n/a
261.7985	0.075	523597	keystroke	Key.space	n/a
261.9335	0.074	523867	keystroke	b	n/a
261.9935	0.0445	523987	keystroke	i	n/a
262.158	0.075	524316	keystroke	n	n/a
262.248	0.045	524496	keystroke	d	n/a
262.322	0.0915	524644	keystroke	Key.space	n/a
262.5775	0.075	525155	keystroke	d	n/a
262.773	0.0745	525546	keystroke	e	n/a
263.2225	0.075	526445	keystroke	u	n/a
263.3575	0.075	526715	keystroke	t	n/a
263.6575	0.0895	527315	keystroke	s	n/a
263.8525	0.0755	527705	keystroke	c	n/a
263.912	0.061	527824	keystroke	h	n/a
264.032	0.0745	528064	keystroke	Key.space	n/a
264.1975	0.06	528395	keystroke	l	n/a
264.2725	0.089	528545	keystroke	a	n/a
264.3775	0.0755	528755	keystroke	b	n/a
264.5425	0.0595	529085	keystroke	o	n/a
264.616	0.06	529232	keystroke	r	n/a
264.8425	0.0595	529685	keystroke	Key.enter	n/a
264.909	5.317	529818	prompt	n/a	supervisor policies volunteers cuts\n
265.546	0.075	531092	keystroke	s	n/a
265.6665	0.0445	531333	keystroke	u	n/a
265.8165	0.075	531633	keystroke	p	n/a
265.9065	0.075	531813	keystroke	e	n/a
266.011	0.0745	532022	keystroke	r	n/a
266.251	0.06	532502	keystroke	v	n/a
266.296	0.06	532592	keystroke	i	n/a
266.386	0.074	532772	keystroke	s	n/a
266.491	0.059	532982	keystroke	o	n/a
266.596	0.06	533192	keystroke	r	n/a
266.6855	0.06	533371	keystroke	Key.space	n/a
266.8355	0.0305	533671	keystroke	p	n/a
266.956	0.0595	533912	keystroke	o	n/a
267.09	0.075	534180	keystroke	l	n/a
267.271	0.0445	534542	keystroke	i	n/a
267.331	0.0595	534662	keystroke	c	n/a
267.421	0.075	534842	keystroke	i	n/a
267.5255	0.0745	535051	keystroke	e	n/a
267.735	0.091	535470	keystroke	s	n/a
267.8555	0.0755	535711	keystroke	Key.space	n/a
268.021	0.045	536042	keystroke	v	n/a
268.0805	0.0445	536161	keystroke	o	n/a
268.23	0.075	536460	keystroke	l	n/a
268.44	0.0455	536880	keystroke	u	n/a
268.5905	0.074	537181	keystroke	n	n/a
268.6495	0.0605	537299	keystroke	t	n/a
268.83	0.06	537660	keystroke	e	n/a
268.98	0.0745	537960	keystroke	e	n/a
269.0855	0.089	538171	keystroke	r	n/a
269.2645	0.0745	538529	keystroke	s	n/a
269.3545	0.075	538709	keystroke	Key.space	n/a
269.49	0.0895	538980	keystroke	c	n/a
269.595	0.0445	539190	keystroke	u	n/a
269.729	0.0755	539458	keystroke	t	n/a
269.909	0.076	539818	keystroke	s	n/a
270.149	0.0745	540298	keystroke	Key.enter	n/a
270.236	5.2215	540472	prompt	n/a	crossing centers grants keyboard\n
270.824	0.06	541648	keystroke	c	n/a
271.019	0.0745	542038	keystroke	r	n/a
271.109	0.0595	542218	keystroke	o	n/a
271.199	0.089	542398	keystroke	s	n/a
271.3485	0.0745	542697	keystroke	s	n/a
271.424	0.0445	542848	keystroke	i	n/a
271.5885	0.0605	543177	keystroke	n	n/a
271.634	0.0445	543268	keystroke	g	n/a
271.7235	0.0595	543447	keystroke	Key.space	n/a
271.843	0.075	543686	keystroke	c	n/a
272.0385	0.0595	544077	keystroke	e	n/a
272.113	0.045	544226	keystroke	n	n/a
272.2175	0.0605	544435	keystroke	t	n/a
272.3375	0.1205	544675	keystroke	e	n/a
272.4275	0.1055	544855	keystroke	r	n/a
272.6825	0.0755	545365	keystroke	s	n/a
272.832	0.075	545664	keystroke	Key.space	n/a
273.103	0.06	546206	keystroke	g	n/a
273.1485	0.044	546297	keystroke	r	n/a
273.223	0.1045	546446	keystroke	a	n/a
273.3425	0.075	546685	keystroke	n	n/a
273.448	0.075	546896	keystroke	t	n/a
273.5975	0.09	547195	keystroke	s	n/a
273.762	0.09	547524	keystroke	Key.space	n/a
273.987	0.075	547974	keystroke	k	n/a
274.063	0.0745	548126	keystroke	e	n/a
274.182	0.0445	548364	keystroke	y	n/a
274.332	0.075	548664	keystroke	b	n/a
274.496	0.046	548992	keystroke	o	n/a
274.7805	0.106	549561	keystroke	a	n/a
275.0065	0.06	550013	keystroke	r	n/a
275.2015	0.0745	550403	keystroke	d	n/a
275.381	0.075	550762	keystroke	Key.enter	n/a
275.463	6.141	550926	prompt	n/a	explicitly gays maple respondent\n
276.086	0.075	552172	keystroke	e	n/a
276.2655	0.105	552531	keystroke	x	n/a
276.3255	0.075	552651	keystroke	p	n/a
276.805	0.12	553610	keystroke	l	n/a
277.075	0.0445	554150	keystroke	i	n/a
277.2245	0.074	554449	keystroke	c	n/a
277.4045	0.0595	554809	keystroke	i	n/a
277.675	0.074	555350	keystroke	t	n/a
277.839	0.09	555678	keystroke	l	n/a
277.989	0.06	555978	keystroke	y	n/a
278.094	0.09	556188	keystroke	Key.space	n/a
278.319	0.06	556638	keystroke	g	n/a
278.379	0.09	556758	keystroke	a	n/a
278.619	0.06	557238	keystroke	s	n/a
279.009	0.06	558018	keystroke	Key.backspace	n/a
279.2785	0.059	558557	keystroke	y	n/a
279.444	0.0745	558888	keystroke	s	n/a
279.6085	0.0445	559217	keystroke	Key.space	n/a
279.7435	0.075	559487	keystroke	m	n/a
279.8185	0.075	559637	keystroke	a	n/a
279.9235	0.1345	559847	keystroke	p	n/a
280.0135	0.105	560027	keystroke	l	n/a
280.133	0.075	560266	keystroke	e	n/a
280.222	0.0755	560444	keystroke	Key.space	n/a
280.327	0.09	560654	keystroke	r	n/a
280.4325	0.0595	560865	keystroke	e	n/a
280.5825	0.09	561165	keystroke	s	n/a
280.643	0.12	561286	keystroke	p	n/a
280.7175	0.0905	561435	keystroke	o	n/a
280.928	0.06	561856	keystroke	n	n/a
280.973	0.075	561946	keystroke	d	n/a
281.153	0.0745	562306	keystroke	e	n/a
281.2125	0.075	562425	keystroke	n	n/a
281.392	0.0755	562784	keystroke	t	n/a
281.5425	0.06	563085	keystroke	Key.enter	n/a
281.6095	4.9565	563219	prompt	n/a	adaptive describes adults religions\n
282.2165	0.075	564433	keystroke	a	n/a
282.381	0.1055	564762	keystroke	d	n/a
282.471	0.106	564942	keystroke	a	n/a
282.592	0.0595	565184	keystroke	p	n/a
282.741	0.0745	565482	keystroke	t	n/a
282.8455	0.0605	565691	keystroke	i	n/a
282.966	0.075	565932	keystroke	v	n/a
283.146	0.044	566292	keystroke	e	n/a
283.205	0.075	566410	keystroke	Key.space	n/a
283.34	0.046	566680	keystroke	d	n/a
283.475	0.0755	566950	keystroke	e	n/a
283.656	0.074	567312	keystroke	s	n/a
283.8655	0.075	567731	keystroke	c	n/a
284.0755	0.0445	568151	keystroke	r	n/a
284.121	0.0595	568242	keystroke	i	n/a
284.3005	0.0595	568601	keystroke	b	n/a
284.345	0.076	568690	keystroke	e	n/a
284.556	0.0595	569112	keystroke	s	n/a
284.6605	0.0895	569321	keystroke	Key.space	n/a
284.8405	0.0745	569681	keystroke	a	n/a
284.975	0.075	569950	keystroke	d	n/a
285.035	0.0605	570070	keystroke	u	n/a
285.215	0.0595	570430	keystroke	l	n/a
285.26	0.075	570520	keystroke	t	n/a
285.379	0.076	570758	keystroke	s	n/a
285.455	0.06	570910	keystroke	Key.space	n/a
285.545	0.0605	571090	keystroke	r	n/a
285.6345	0.105	571269	keystroke	e	n/a
285.724	0.0595	571448	keystroke	l	n/a
285.874	0.0595	571748	keystroke	i	n/a
285.9635	0.06	571927	keystroke	g	n/a
286.025	0.0885	572050	keystroke	i	n/a
286.0685	0.091	572137	keystroke	o	n/a
286.264	0.0455	572528	keystroke	n	n/a
286.339	0.0745	572678	keystroke	s	n/a
286.5195	0.045	573039	keystroke	Key.enter	n/a
286.5705	4.3275	573141	prompt	n/a	liable graphical seed walter\n
287.2385	0.075	574477	keystroke	l	n/a
287.4185	0.06	574837	keystroke	i	n/a
287.4635	0.0755	574927	keystroke	a	n/a
287.6435	0.0755	575287	keystroke	b	n/a
287.748	0.045	575496	keystroke	l	n/a
287.8525	0.09	575705	keystroke	e	n/a
287.9275	0.075	575855	keystroke	Key.space	n/a
288.138	0.09	576276	keystroke	g	n/a
288.213	0.03	576426	keystroke	r	n/a
288.2725	0.105	576545	keystroke	a	n/a
288.363	0.06	576726	keystroke	p	n/a
288.5275	0.06	577055	keystroke	h	n/a
288.6325	0.0605	577265	keystroke	i	n/a
288.694	0.0585	577388	keystroke	c	n/a
288.8275	0.0745	577655	keystroke	a	n/a
288.887	0.061	577774	keystroke	l	n/a
289.007	0.076	578014	keystroke	Key.space	n/a
289.0675	0.0755	578135	keystroke	s	n/a
289.248	0.0745	578496	keystroke	e	n/a
289.383	0.0895	578766	keystroke	e	n/a
289.5615	0.046	579123	keystroke	d	n/a
289.6525	0.0895	579305	keystroke	Key.space	n/a
289.997	0.06	579994	keystroke	w	n/a
290.177	0.09	580354	keystroke	a	n/a
290.252	0.06	580504	keystroke	l	n/a
290.4175	0.0295	580835	keystroke	t	n/a
290.5375	0.1045	581075	keystroke	e	n/a
290.6275	0.1045	581255	keystroke	r	n/a
290.836	0.0605	581672	keystroke	Key.enter	n/a
290.9015	3.999	581803	prompt	n/a	consisting loop fully lakes\n
291.4665	0.045	582933	keystroke	c	n/a
291.5265	0.045	583053	keystroke	o	n/a
291.7065	0.0755	583413	keystroke	n	n/a
291.797	0.0585	583594	keystroke	s	n/a
291.886	0.06	583772	keystroke	i	n/a
291.961	0.0605	583922	keystroke	s	n/a
292.1705	0.0605	584341	keystroke	t	n/a
292.261	0.0605	584522	keystroke	i	n/a
292.411	0.0905	584822	keystroke	n	n/a
292.5015	0.045	585003	keystroke	g	n/a
292.561	0.075	585122	keystroke	Key.space	n/a
292.7105	0.061	585421	keystroke	l	n/a
292.8755	0.0305	585751	keystroke	o	n/a
292.966	0.1045	585932	keystroke	o	n/a
293.0405	0.0905	586081	keystroke	p	n/a
293.19	0.075	586380	keystroke	Key.space	n/a
293.281	0.0745	586562	keystroke	f	n/a
293.3705	0.045	586741	keystroke	u	n/a
293.535	0.0605	587070	keystroke	l	n/a
293.6555	0.0745	587311	keystroke	l	n/a
293.745	0.075	587490	keystroke	y	n/a
293.821	0.029	587642	keystroke	Key.space	n/a
293.9245	0.06	587849	keystroke	l	n/a
293.9995	0.105	587999	keystroke	a	n/a
294.1195	0.06	588239	keystroke	k	n/a
294.2395	0.075	588479	keystroke	e	n/a
294.6145	0.135	589229	keystroke	s	n/a
294.855	0.0435	589710	keystroke	Key.enter	n/a
294.905	4.9435	589810	prompt	n/a	said advantage remarks accommodate\n
295.574	0.074	591148	keystroke	s	n/a
295.739	0.0895	591478	keystroke	a	n/a
295.814	0.075	591628	keystroke	i	n/a
295.9035	0.1055	591807	keystroke	d	n/a
296.024	0.075	592048	keystroke	Key.space	n/a
296.114	0.0895	592228	keystroke	a	n/a
296.264	0.09	592528	keystroke	d	n/a
296.4585	0.075	592917	keystroke	v	n/a
296.5785	0.0755	593157	keystroke	a	n/a
296.639	0.074	593278	keystroke	n	n/a
296.744	0.0595	593488	keystroke	t	n/a
296.863	0.09	593726	keystroke	a	n/a
296.998	0.015	593996	keystroke	g	n/a
297.028	0.075	594056	keystroke	e	n/a
297.118	0.0455	594236	keystroke	Key.space	n/a
297.2225	0.0755	594445	keystroke	r	n/a
297.313	0.0895	594626	keystroke	e	n/a
297.418	0.06	594836	keystroke	m	n/a
297.508	0.09	595016	keystroke	a	n/a
297.658	0.075	595316	keystroke	r	n/a
297.777	0.0755	595554	keystroke	k	n/a
297.897	0.076	595794	keystroke	s	n/a
298.003	0.0745	596006	keystroke	Key.space	n/a
298.1375	0.075	596275	keystroke	a	n/a
298.333	0.059	596666	keystroke	c	n/a
298.4675	0.06	596935	keystroke	c	n/a
298.5415	0.031	597083	keystroke	o	n/a
298.707	0.045	597414	keystroke	m	n/a
298.8275	0.089	597655	keystroke	m	n/a
299.067	0.045	598134	keystroke	o	n/a
299.187	0.06	598374	keystroke	d	n/a
299.3075	0.09	598615	keystroke	a	n/a
299.501	0.0605	599002	keystroke	t	n/a
299.6365	0.0755	599273	keystroke	e	n/a
299.771	0.0755	599542	keystroke	Key.enter	n/a
299.8525	4.8825	599705	prompt	n/a	measurement plugin internship button\n
300.401	0.06	600802	keystroke	m	n/a
300.446	0.105	600892	keystroke	e	n/a
300.611	0.1205	601222	keystroke	a	n/a
300.7015	0.1345	601403	keystroke	s	n/a
300.851	0.03	601702	keystroke	u	n/a
300.911	0.0755	601822	keystroke	r	n/a
301.0015	0.0895	602003	keystroke	e	n/a
301.1055	0.06	602211	keystroke	m	n/a
301.196	0.09	602392	keystroke	e	n/a
301.271	0.0745	602542	keystroke	n	n/a
301.3755	0.0755	602751	keystroke	t	n/a
301.4355	0.0755	602871	keystroke	Key.space	n/a
301.601	0.06	603202	keystroke	p	n/a
301.735	0.0615	603470	keystroke	l	n/a
301.9155	0.06	603831	keystroke	u	n/a
301.9595	0.0755	603919	keystroke	g	n/a
302.0795	0.0455	604159	keystroke	i	n/a
302.245	0.06	604490	keystroke	n	n/a
302.35	0.0595	604700	keystroke	Key.space	n/a
302.484	0.046	604968	keystroke	i	n/a
302.635	0.075	605270	keystroke	n	n/a
302.695	0.075	605390	keystroke	t	n/a
302.83	0.0885	605660	keystroke	e	n/a
302.8895	0.105	605779	keystroke	r	n/a
302.9645	0.059	605929	keystroke	n	n/a
303.0995	0.074	606199	keystroke	s	n/a
303.2945	0.0295	606589	keystroke	h	n/a
303.309	0.045	606618	keystroke	i	n/a
303.459	0.075	606918	keystroke	p	n/a
303.624	0.0595	607248	keystroke	Key.space	n/a
303.7145	0.074	607429	keystroke	b	n/a
303.8185	0.0605	607637	keystroke	u	n/a
303.9535	0.06	607907	keystroke	t	n/a
304.0885	0.075	608177	keystroke	t	n/a
304.118	0.061	608236	keystroke	o	n/a
304.2835	0.075	608567	keystroke	n	n/a
304.6885	0.044	609377	keystroke	Key.enter	n/a
304.7385	4.5085	609477	prompt	n/a	creature auburn smallest runs\n
305.333	0.0595	610666	keystroke	c	n/a
305.5275	0.0755	611055	keystroke	r	n/a
305.5425	0.21	611085	keystroke	e	n/a
306.1125	0.0895	612225	keystroke	a	n/a
306.352	0.075	612704	keystroke	t	n/a
306.442	0.06	612884	keystroke	u	n/a
306.5475	0.0895	613095	keystroke	r	n/a
306.622	0.1045	613244	keystroke	e	n/a
306.742	0.09	613484	keystroke	Key.space	n/a
306.892	0.0905	613784	keystroke	a	n/a
306.9965	0.046	613993	keystroke	u	n/a
307.162	0.06	614324	keystroke	b	n/a
307.327	0.045	614654	keystroke	u	n/a
307.432	0.075	614864	keystroke	r	n/a
307.492	0.0895	614984	keystroke	n	n/a
307.6265	0.0745	615253	keystroke	Key.space	n/a
307.731	0.0755	615462	keystroke	s	n/a
307.8215	0.0445	615643	keystroke	m	n/a
307.896	0.0745	615792	keystroke	a	n/a
308.0015	0.045	616003	keystroke	l	n/a
308.106	0.075	616212	keystroke	l	n/a
308.166	0.0905	616332	keystroke	e	n/a
308.3905	0.06	616781	keystroke	s	n/a
308.555	0.0755	617110	keystroke	t	n/a
308.631	0.0595	617262	keystroke	Key.space	n/a
308.7505	0.06	617501	keystroke	r	n/a
308.7955	0.06	617591	keystroke	u	n/a
308.9605	0.0755	617921	keystroke	n	n/a
309.05	0.061	618100	keystroke	s	n/a
309.171	0.0735	618342	keystroke	Key.enter	n/a
309.252	5.031	618504	prompt	n/a	ecological assets prior declare\n
309.8445	0.0605	619689	keystroke	e	n/a
310.1145	0.0595	620229	keystroke	c	n/a
310.1895	0.045	620379	keystroke	o	n/a
310.31	0.0895	620620	keystroke	l	n/a
310.4735	0.076	620947	keystroke	o	n/a
310.5645	0.0745	621129	keystroke	g	n/a
310.6695	0.0595	621339	keystroke	i	n/a
310.7745	0.075	621549	keystroke	c	n/a
310.9095	0.1045	621819	keystroke	a	n/a
310.9995	0.0595	621999	keystroke	l	n/a
311.164	0.06	622328	keystroke	Key.space	n/a
311.2995	0.0595	622599	keystroke	a	n/a
311.4185	0.105	622837	keystroke	s	n/a
311.629	0.03	623258	keystroke	s	n/a
311.8375	0.076	623675	keystroke	e	n/a
312.0335	0.0745	624067	keystroke	t	n/a
312.214	0.0745	624428	keystroke	s	n/a
312.3935	0.074	624787	keystroke	Key.space	n/a
312.573	0.06	625146	keystroke	p	n/a
312.648	0.06	625296	keystroke	r	n/a
312.7685	0.089	625537	keystroke	i	n/a
312.8425	0.105	625685	keystroke	o	n/a
312.9925	0.0605	625985	keystroke	r	n/a
313.128	0.0745	626256	keystroke	Key.space	n/a
313.3075	0.06	626615	keystroke	d	n/a
313.4425	0.0595	626885	keystroke	e	n/a
313.6525	0.06	627305	keystroke	c	n/a
313.6975	0.0735	627395	keystroke	l	n/a
313.816	0.105	627632	keystroke	a	n/a
313.922	0.119	627844	keystroke	r	n/a
314.011	0.106	628022	keystroke	e	n/a
314.2365	0.0445	628473	keystroke	Key.enter	n/a
314.2875	5.2875	628575	prompt	n/a	already kentucky silicon birth\n
315.0915	0.0745	630183	keystroke	a	n/a
315.1515	0.0595	630303	keystroke	l	n/a
315.541	0.06	631082	keystroke	r	n/a
315.661	0.075	631322	keystroke	e	n/a
315.811	0.09	631622	keystroke	a	n/a
315.916	0.12	631832	keystroke	d	n/a
316.021	0.0445	632042	keystroke	y	n/a
316.2	0.0755	632400	keystroke	Key.space	n/a
316.47	0.075	632940	keystroke	k	n/a
316.53	0.0895	633060	keystroke	e	n/a
316.68	0.09	633360	keystroke	n	n/a
316.86	0.06	633720	keystroke	t	n/a
316.95	0.06	633900	keystroke	u	n/a
317.16	0.06	634320	keystroke	c	n/a
317.1895	0.1055	634379	keystroke	k	n/a
317.4295	0.0605	634859	keystroke	y	n/a
317.64	0.0745	635280	keystroke	Key.space	n/a
317.8645	0.0745	635729	keystroke	s	n/a
317.91	0.0595	635820	keystroke	i	n/a
318.0745	0.06	636149	keystroke	l	n/a
318.3145	0.015	636629	keystroke	i	n/a
318.344	0.0755	636688	keystroke	c	n/a
318.404	0.0455	636808	keystroke	o	n/a
318.599	0.0305	637198	keystroke	n	n/a
318.674	0.06	637348	keystroke	Key.space	n/a
318.8085	0.045	637617	keystroke	b	n/a
318.9285	0.075	637857	keystroke	i	n/a
318.989	0.075	637978	keystroke	r	n/a
319.154	0.074	638308	keystroke	t	n/a
319.199	0.058	638398	keystroke	h	n/a
319.513	0.06	639026	keystroke	Key.enter	n/a
319.5795	5.137	639159	prompt	n/a	harbor passenger preferences maryland\n
320.233	0.059	640466	keystroke	h	n/a
320.263	0.105	640526	keystroke	a	n/a
320.398	0.09	640796	keystroke	r	n/a
320.4715	0.076	640943	keystroke	b	n/a
320.652	0.0605	641304	keystroke	o	n/a
320.757	0.075	641514	keystroke	r	n/a
320.817	0.075	641634	keystroke	Key.space	n/a
321.0275	0.0595	642055	keystroke	p	n/a
321.072	0.12	642144	keystroke	a	n/a
321.207	0.0745	642414	keystroke	s	n/a
321.357	0.074	642714	keystroke	s	n/a
321.4915	0.0905	642983	keystroke	e	n/a
321.552	0.0745	643104	keystroke	n	n/a
321.731	0.0455	643462	keystroke	g	n/a
321.866	0.061	643732	keystroke	e	n/a
321.941	0.0905	643882	keystroke	r	n/a
322.0465	0.0445	644093	keystroke	Key.space	n/a
322.166	0.0755	644332	keystroke	p	n/a
322.2115	0.075	644423	keystroke	r	n/a
322.3015	0.075	644603	keystroke	e	n/a
322.466	0.0905	644932	keystroke	f	n/a
322.6155	0.0905	645231	keystroke	e	n/a
322.7355	0.09	645471	keystroke	r	n/a
322.8855	0.09	645771	keystroke	e	n/a
323.006	0.0745	646012	keystroke	n	n/a
323.1555	0.06	646311	keystroke	c	n/a
323.3655	0.0605	646731	keystroke	e	n/a
323.5455	0.075	647091	keystroke	s	n/a
323.6055	0.075	647211	keystroke	Key.space	n/a
323.7405	0.075	647481	keystroke	m	n/a
323.8005	0.0745	647601	keystroke	a	n/a
323.8905	0.105	647781	keystroke	r	n/a
324.01	0.06	648020	keystroke	y	n/a
324.206	0.074	648412	keystroke	l	n/a
324.2945	0.09	648589	keystroke	a	n/a
324.4	0.06	648800	keystroke	n	n/a
324.505	0.06	649010	keystroke	d	n/a
324.67	0.045	649340	keystroke	Key.enter	n/a
324.721	5.5125	649442	prompt	n/a	seeds raises resistant melbourne\n
325.1945	0.0895	650389	keystroke	s	n/a
325.4195	0.074	650839	keystroke	e	n/a
325.5995	0.0745	651199	keystroke	e	n/a
325.779	0.06	651558	keystroke	d	n/a
325.899	0.09	651798	keystroke	s	n/a
325.9735	0.09	651947	keystroke	Key.space	n/a
326.124	0.0755	652248	keystroke	r	n/a
326.244	0.12	652488	keystroke	a	n/a
326.349	0.074	652698	keystroke	i	n/a
326.438	0.106	652876	keystroke	s	n/a
326.6035	0.09	653207	keystroke	e	n/a
326.7985	0.075	653597	keystroke	s	n/a
326.8885	0.0755	653777	keystroke	Key.space	n/a
327.039	0.0595	654078	keystroke	r	n/a
327.114	0.075	654228	keystroke	e	n/a
327.294	0.0735	654588	keystroke	s	n/a
327.3835	0.06	654767	keystroke	i	n/a
327.458	0.061	654916	keystroke	s	n/a
327.6685	0.045	655337	keystroke	t	n/a
327.7575	0.0905	655515	keystroke	a	n/a
327.863	0.0745	655726	keystroke	n	n/a
327.9675	0.075	655935	keystroke	t	n/a
328.103	0.075	656206	keystroke	Key.space	n/a
328.538	0.0595	657076	keystroke	m	n/a
328.6125	0.06	657225	keystroke	e	n/a
328.7325	0.0745	657465	keystroke	l	n/a
328.8675	0.0595	657735	keystroke	b	n/a
328.957	0.06	657914	keystroke	o	n/a
329.153	0.06	658306	keystroke	u	n/a
329.692	0.089	659384	keystroke	r	n/a
329.796	0.076	659592	keystroke	n	n/a
329.9165	0.075	659833	keystroke	e	n/a
330.1715	0.06	660343	keystroke	Key.enter	n/a
330.241	3.9045	660482	prompt	n/a	glory believed knife carb\n
330.936	0.0895	661872	keystroke	g	n/a
331.01	0.0605	662020	keystroke	l	n/a
331.16	0.061	662320	keystroke	o	n/a
331.281	0.075	662562	keystroke	r	n/a
331.401	0.06	662802	keystroke	y	n/a
331.5055	0.075	663011	keystroke	Key.space	n/a
331.6855	0.075	663371	keystroke	b	n/a
331.7755	0.09	663551	keystroke	e	n/a
331.895	0.0605	663790	keystroke	l	n/a
332.075	0.0455	664150	keystroke	i	n/a
332.09	0.06	664180	keystroke	e	n/a
332.2555	0.0745	664511	keystroke	v	n/a
332.4355	0.074	664871	keystroke	e	n/a
332.5855	0.0745	665171	keystroke	d	n/a
332.6755	0.0595	665351	keystroke	Key.space	n/a
332.78	0.0605	665560	keystroke	k	n/a
332.915	0.075	665830	keystroke	n	n/a
333.065	0.06	666130	keystroke	i	n/a
333.1405	0.0595	666281	keystroke	f	n/a
333.245	0.09	666490	keystroke	e	n/a
333.349	0.0605	666698	keystroke	Key.space	n/a
333.484	0.0455	666968	keystroke	c	n/a
333.6345	0.0745	667269	keystroke	a	n/a
333.754	0.0605	667508	keystroke	r	n/a
333.8285	0.061	667657	keystroke	b	n/a
334.084	0.06	668168	keystroke	Key.enter	n/a
334.1505	5.8715	668301	prompt	n/a	preferences mistakes subscribe facilitate\n
334.8185	0.0605	669637	keystroke	p	n/a
334.9685	0.075	669937	keystroke	r	n/a
335.089	0.074	670178	keystroke	e	n/a
335.268	0.0755	670536	keystroke	f	n/a
335.3735	0.089	670747	keystroke	e	n/a
335.4775	0.091	670955	keystroke	r	n/a
335.5685	0.09	671137	keystroke	e	n/a
335.7325	0.06	671465	keystroke	n	n/a
335.8375	0.0755	671675	keystroke	c	n/a
336.048	0.075	672096	keystroke	e	n/a
336.288	0.03	672576	keystroke	s	n/a
336.3025	0.0295	672605	keystroke	Key.space	n/a
336.4075	0.0595	672815	keystroke	m	n/a
336.5725	0.0595	673145	keystroke	i	n/a
336.5875	0.0595	673175	keystroke	s	n/a
336.7375	0.06	673475	keystroke	t	n/a
336.8425	0.104	673685	keystroke	a	n/a
336.962	0.06	673924	keystroke	k	n/a
337.097	0.0605	674194	keystroke	s	n/a
337.2175	0.074	674435	keystroke	Key.space	n/a
337.4725	0.089	674945	keystroke	s	n/a
337.5465	0.06	675093	keystroke	u	n/a
337.6965	0.06	675393	keystroke	b	n/a
337.742	0.0605	675484	keystroke	s	n/a
337.8765	0.0755	675753	keystroke	c	n/a
338.0875	0.044	676175	keystroke	r	n/a
338.117	0.06	676234	keystroke	i	n/a
338.252	0.0895	676504	keystroke	b	n/a
338.2965	0.0755	676593	keystroke	e	n/a
338.401	0.1055	676802	keystroke	Key.space	n/a
338.4765	0.06	676953	keystroke	f	n/a
338.5665	0.0755	677133	keystroke	a	n/a
338.746	0.075	677492	keystroke	c	n/a
338.806	0.045	677612	keystroke	i	n/a
338.9705	0.061	677941	keystroke	l	n/a
339.1365	0.06	678273	keystroke	i	n/a
339.2115	0.0745	678423	keystroke	t	n/a
339.406	0.074	678812	keystroke	a	n/a
339.555	0.075	679110	keystroke	t	n/a
339.6905	0.0905	679381	keystroke	e	n/a
339.96	0.06	679920	keystroke	Key.enter	n/a
340.027	4.508	680054	prompt	n/a	acute fabrics we syntax\n
340.5895	0.0905	681179	keystroke	a	n/a
340.8295	0.09	681659	keystroke	c	n/a
341.0695	0.0745	682139	keystroke	u	n/a
341.159	0.09	682318	keystroke	t	n/a
341.3095	0.09	682619	keystroke	e	n/a
341.3845	0.09	682769	keystroke	Key.space	n/a
341.5195	0.09	683039	keystroke	f	n/a
341.669	0.105	683338	keystroke	a	n/a
341.759	0.075	683518	keystroke	b	n/a
341.939	0.0605	683878	keystroke	r	n/a
342.029	0.075	684058	keystroke	i	n/a
342.314	0.09	684628	keystroke	c	n/a
342.479	0.0745	684958	keystroke	s	n/a
342.539	0.074	685078	keystroke	Key.space	n/a
342.719	0.074	685438	keystroke	w	n/a
342.778	0.105	685556	keystroke	e	n/a
342.9135	0.075	685827	keystroke	Key.space	n/a
343.213	0.075	686426	keystroke	s	n/a
343.333	0.0445	686666	keystroke	y	n/a
343.4975	0.061	686995	keystroke	n	n/a
343.5735	0.06	687147	keystroke	t	n/a
344.0085	0.09	688017	keystroke	a	n/a
344.2325	0.075	688465	keystroke	x	n/a
344.487	0.045	688974	keystroke	Key.enter	n/a
344.5385	4.898	689077	prompt	n/a	numerous unlock fortune finnish\n
345.1775	0.075	690355	keystroke	n	n/a
345.3725	0.045	690745	keystroke	u	n/a
345.5375	0.0745	691075	keystroke	m	n/a
345.9275	0.1185	691855	keystroke	e	n/a
346.061	0.0755	692122	keystroke	r	n/a
346.137	0.075	692274	keystroke	o	n/a
346.317	0.045	692634	keystroke	u	n/a
346.4065	0.0745	692813	keystroke	s	n/a
346.5115	0.0895	693023	keystroke	Key.space	n/a
346.871	0.06	693742	keystroke	u	n/a
347.0365	0.044	694073	keystroke	n	n/a
347.215	0.06	694430	keystroke	l	n/a
347.351	0.06	694702	keystroke	o	n/a
347.455	0.076	694910	keystroke	c	n/a
347.5155	0.0605	695031	keystroke	k	n/a
347.605	0.0905	695210	keystroke	Key.space	n/a
347.7105	0.06	695421	keystroke	f	n/a
347.786	0.0595	695572	keystroke	o	n/a
347.891	0.0445	695782	keystroke	r	n/a
348.0255	0.06	696051	keystroke	t	n/a
348.1005	0.045	696201	keystroke	u	n/a
348.2505	0.0895	696501	keystroke	n	n/a
348.295	0.0605	696590	keystroke	e	n/a
348.4005	0.075	696801	keystroke	Key.space	n/a
348.4905	0.075	696981	keystroke	f	n/a
348.58	0.0305	697160	keystroke	i	n/a
348.7305	0.044	697461	keystroke	n	n/a
348.8205	0.075	697641	keystroke	n	n/a
348.9855	0.06	697971	keystroke	i	n/a
349.0745	0.09	698149	keystroke	s	n/a
349.1655	0.059	698331	keystroke	h	n/a
349.39	0.045	698780	keystroke	Key.enter	n/a
349.4405	5.858	698881	prompt	n/a	associate selective mississippi staff\n
349.99	0.0745	699980	keystroke	a	n/a
350.124	0.1045	700248	keystroke	s	n/a
350.2895	0.0745	700579	keystroke	s	n/a
350.379	0.06	700758	keystroke	o	n/a
350.469	0.075	700938	keystroke	c	n/a
350.574	0.0595	701148	keystroke	i	n/a
350.619	0.09	701238	keystroke	a	n/a
350.784	0.0895	701568	keystroke	t	n/a
350.9035	0.0605	701807	keystroke	e	n/a
350.9935	0.06	701987	keystroke	Key.space	n/a
351.099	0.045	702198	keystroke	s	n/a
351.2635	0.06	702527	keystroke	e	n/a
351.3535	0.06	702707	keystroke	l	n/a
351.429	0.0745	702858	keystroke	e	n/a
351.6235	0.0895	703247	keystroke	c	n/a
351.863	0.0605	703726	keystroke	t	n/a
351.953	0.0605	703906	keystroke	i	n/a
352.0875	0.0605	704175	keystroke	v	n/a
352.253	0.06	704506	keystroke	e	n/a
352.328	0.045	704656	keystroke	Key.space	n/a
352.463	0.0605	704926	keystroke	m	n/a
352.628	0.06	705256	keystroke	i	n/a
352.718	0.045	705436	keystroke	s	n/a
352.838	0.075	705676	keystroke	s	n/a
352.928	0.059	705856	keystroke	i	n/a
353.0925	0.06	706185	keystroke	s	n/a
353.2575	0.06	706515	keystroke	s	n/a
353.378	0.0445	706756	keystroke	i	n/a
353.573	0.0595	707146	keystroke	p	n/a
353.693	0.09	707386	keystroke	p	n/a
353.9025	0.075	707805	keystroke	i	n/a
354.0975	0.075	708195	keystroke	Key.space	n/a
354.2015	0.0755	708403	keystroke	a	n/a
354.5475	0.045	709095	keystroke	Key.backspace	n/a
354.6525	0.0895	709305	keystroke	s	n/a
354.8025	0.0745	709605	keystroke	t	n/a
354.862	0.075	709724	keystroke	a	n/a
354.997	0.0905	709994	keystroke	f	n/a
355.147	0.074	710294	keystroke	f	n/a
355.251	0.045	710502	keystroke	Key.enter	n/a
355.3025	4.133	710605	prompt	n/a	cells pierce circuits dozen\n
355.881	0.0745	711762	keystroke	c	n/a
356.0765	0.074	712153	keystroke	e	n/a
356.166	0.06	712332	keystroke	l	n/a
356.2855	0.0755	712571	keystroke	l	n/a
356.331	0.0905	712662	keystroke	s	n/a
356.451	0.059	712902	keystroke	Key.space	n/a
356.616	0.0305	713232	keystroke	p	n/a
356.751	0.06	713502	keystroke	i	n/a
356.766	0.075	713532	keystroke	e	n/a
356.946	0.075	713892	keystroke	r	n/a
357.1855	0.075	714371	keystroke	c	n/a
357.381	0.0445	714762	keystroke	e	n/a
357.4555	0.0755	714911	keystroke	Key.space	n/a
357.606	0.075	715212	keystroke	c	n/a
357.6955	0.0605	715391	keystroke	i	n/a
357.8295	0.0615	715659	keystroke	r	n/a
358.0245	0.0755	716049	keystroke	c	n/a
358.0705	0.119	716141	keystroke	u	n/a
358.1445	0.0905	716289	keystroke	i	n/a
358.28	0.0455	716560	keystroke	t	n/a
358.43	0.075	716860	keystroke	s	n/a
358.5195	0.06	717039	keystroke	Key.space	n/a
358.6095	0.075	717219	keystroke	d	n/a
358.6995	0.0605	717399	keystroke	o	n/a
358.8495	0.09	717699	keystroke	z	n/a
359.074	0.076	718148	keystroke	e	n/a
359.18	0.014	718360	keystroke	n	n/a
359.3895	0.0445	718779	keystroke	Key.enter	n/a
359.4385	4.1355	718877	prompt	n/a	hour dollar frames carter\n
360.694	0.06	721388	keystroke	h	n/a
360.755	0.059	721510	keystroke	o	n/a
360.919	0.06	721838	keystroke	u	n/a
360.949	0.075	721898	keystroke	r	n/a
361.069	0.075	722138	keystroke	Key.space	n/a
361.2485	0.06	722497	keystroke	d	n/a
361.3235	0.0295	722647	keystroke	o	n/a
361.4735	0.045	722947	keystroke	l	n/a
361.5935	0.074	723187	keystroke	l	n/a
361.6385	0.0745	723277	keystroke	a	n/a
361.7735	0.074	723547	keystroke	r	n/a
361.863	0.06	723726	keystroke	Key.space	n/a
361.9685	0.074	723937	keystroke	f	n/a
362.133	0.0455	724266	keystroke	r	n/a
362.2225	0.1055	724445	keystroke	a	n/a
362.298	0.075	724596	keystroke	m	n/a
362.4025	0.076	724805	keystroke	e	n/a
362.5825	0.0605	725165	keystroke	s	n/a
362.673	0.0595	725346	keystroke	Key.space	n/a
362.7475	0.06	725495	keystroke	c	n/a
362.8825	0.105	725765	keystroke	a	n/a
363.047	0.0605	726094	keystroke	r	n/a
363.228	0.029	726456	keystroke	t	n/a
363.318	0.0895	726636	keystroke	e	n/a
363.3925	0.0605	726785	keystroke	r	n/a
363.5125	0.059	727025	keystroke	Key.enter	n/a
363.578	6.4875	727156	prompt	n/a	arts phpbb revised anaheim\n
364.1575	0.0895	728315	keystroke	a	n/a
364.3075	0.0745	728615	keystroke	r	n/a
364.472	0.0745	728944	keystroke	t	n/a
364.5915	0.091	729183	keystroke	s	n/a
364.6965	0.0755	729393	keystroke	Key.space	n/a
364.846	0.0755	729692	keystroke	p	n/a
365.9115	0.06	731823	keystroke	h	n/a
366.1815	0.0895	732363	keystroke	b	n/a
367.0355	0.09	734071	keystroke	Key.backspace	n/a
367.29	0.0605	734580	keystroke	p	n/a
367.5305	0.074	735061	keystroke	b	n/a
367.6955	0.074	735391	keystroke	b	n/a
367.95	0.045	735900	keystroke	Key.space	n/a
368.07	0.075	736140	keystroke	r	n/a
368.175	0.06	736350	keystroke	e	n/a
368.37	0.075	736740	keystroke	v	n/a
368.43	0.0595	736860	keystroke	i	n/a
368.564	0.09	737128	keystroke	s	n/a
368.7445	0.0745	737489	keystroke	e	n/a
368.9245	0.0595	737849	keystroke	d	n/a
368.9695	0.0895	737939	keystroke	Key.space	n/a
369.104	0.1055	738208	keystroke	a	n/a
369.2245	0.0755	738449	keystroke	n	n/a
369.3145	0.075	738629	keystroke	a	n/a
369.404	0.075	738808	keystroke	h	n/a
369.5095	0.06	739019	keystroke	e	n/a
369.5985	0.061	739197	keystroke	i	n/a
369.7795	0.0895	739559	keystroke	m	n/a
370.019	0.045	740038	keystroke	Key.enter	n/a
370.0695	4.4185	740139	prompt	n/a	generator young mexico conditional\n
370.693	0.061	741386	keystroke	g	n/a
370.738	0.09	741476	keystroke	e	n/a
370.8585	0.0745	741717	keystroke	n	n/a
370.918	0.076	741836	keystroke	e	n/a
371.053	0.09	742106	keystroke	r	n/a
371.1285	0.105	742257	keystroke	a	n/a
371.264	0.0745	742528	keystroke	t	n/a
371.3535	0.075	742707	keystroke	o	n/a
371.444	0.074	742888	keystroke	r	n/a
371.503	0.0905	743006	keystroke	Key.space	n/a
371.7285	0.074	743457	keystroke	y	n/a
371.8185	0.059	743637	keystroke	o	n/a
371.9525	0.0605	743905	keystroke	u	n/a
372.103	0.09	744206	keystroke	n	n/a
372.177	0.06	744354	keystroke	g	n/a
372.282	0.03	744564	keystroke	Key.space	n/a
372.4025	0.06	744805	keystroke	m	n/a
372.4635	0.0895	744927	keystroke	e	n/a
372.687	0.0755	745374	keystroke	x	n/a
372.732	0.06	745464	keystroke	i	n/a
372.8525	0.0745	745705	keystroke	c	n/a
372.942	0.0755	745884	keystroke	o	n/a
373.0925	0.075	746185	keystroke	Key.space	n/a
373.3175	0.075	746635	keystroke	c	n/a
373.347	0.06	746694	keystroke	o	n/a
373.527	0.0455	747054	keystroke	n	n/a
373.557	0.075	747114	keystroke	d	n/a
373.692	0.045	747384	keystroke	i	n/a
373.767	0.0605	747534	keystroke	t	n/a
373.842	0.06	747684	keystroke	i	n/a
373.887	0.074	747774	keystroke	o	n/a
374.037	0.06	748074	keystroke	n	n/a
374.111	0.09	748222	keystroke	a	n/a
374.217	0.06	748434	keystroke	l	n/a
374.4265	0.06	748853	keystroke	Key.enter	n/a
374.492	5.1085	748984	prompt	n/a	revolutionary semester partial examines\n
375.056	0.09	750112	keystroke	r	n/a
375.161	0.09	750322	keystroke	e	n/a
375.3265	0.09	750653	keystroke	v	n/a
375.386	0.0605	750772	keystroke	o	n/a
375.521	0.06	751042	keystroke	l	n/a
375.6865	0.045	751373	keystroke	u	n/a
375.746	0.075	751492	keystroke	t	n/a
375.8365	0.0895	751673	keystroke	i	n/a
375.896	0.09	751792	keystroke	o	n/a
376.106	0.0595	752212	keystroke	n	n/a
376.1815	0.0895	752363	keystroke	a	n/a
376.255	0.09	752510	keystroke	r	n/a
376.36	0.06	752720	keystroke	y	n/a
376.4955	0.075	752991	keystroke	Key.space	n/a
376.766	0.0745	753532	keystroke	s	n/a
376.9305	0.0595	753861	keystroke	e	n/a
376.975	0.0755	753950	keystroke	m	n/a
377.0655	0.0755	754131	keystroke	e	n/a
377.2	0.075	754400	keystroke	s	n/a
377.3205	0.06	754641	keystroke	t	n/a
377.455	0.1045	754910	keystroke	e	n/a
377.5445	0.09	755089	keystroke	r	n/a
377.6495	0.0605	755299	keystroke	Key.space	n/a
377.785	0.06	755570	keystroke	p	n/a
377.83	0.105	755660	keystroke	a	n/a
377.9495	0.09	755899	keystroke	r	n/a
378.114	0.06	756228	keystroke	t	n/a
378.189	0.045	756378	keystroke	i	n/a
378.264	0.0905	756528	keystroke	a	n/a
378.355	0.074	756710	keystroke	l	n/a
378.4595	0.075	756919	keystroke	Key.space	n/a
378.5195	0.0755	757039	keystroke	e	n/a
378.714	0.06	757428	keystroke	x	n/a
378.835	0.104	757670	keystroke	a	n/a
378.894	0.06	757788	keystroke	m	n/a
379.044	0.0605	758088	keystroke	i	n/a
379.164	0.0905	758328	keystroke	n	n/a
379.2395	0.089	758479	keystroke	e	n/a
379.419	0.09	758838	keystroke	s	n/a
379.539	0.06	759078	keystroke	Key.enter	n/a
379.605	4.673	759210	prompt	n/a	legacy gonna shell recycling\n
380.199	0.06	760398	keystroke	l	n/a
380.274	0.0895	760548	keystroke	e	n/a
380.4985	0.044	760997	keystroke	g	n/a
380.5575	0.0755	761115	keystroke	a	n/a
380.7535	0.06	761507	keystroke	c	n/a
380.828	0.06	761656	keystroke	y	n/a
380.963	0.0755	761926	keystroke	Key.space	n/a
381.398	0.06	762796	keystroke	g	n/a
381.443	0.045	762886	keystroke	o	n/a
381.6075	0.045	763215	keystroke	n	n/a
381.7425	0.045	763485	keystroke	n	n/a
381.772	0.0755	763544	keystroke	a	n/a
381.8925	0.075	763785	keystroke	Key.space	n/a
382.013	0.0755	764026	keystroke	s	n/a
382.1325	0.0605	764265	keystroke	h	n/a
382.238	0.075	764476	keystroke	e	n/a
382.3425	0.06	764685	keystroke	l	n/a
382.448	0.089	764896	keystroke	l	n/a
382.5675	0.075	765135	keystroke	Key.space	n/a
382.627	0.06	765254	keystroke	r	n/a
382.702	0.09	765404	keystroke	e	n/a
382.942	0.09	765884	keystroke	c	n/a
382.987	0.075	765974	keystroke	y	n/a
383.197	0.06	766394	keystroke	c	n/a
383.707	0.075	767414	keystroke	l	n/a
383.9005	0.0455	767801	keystroke	i	n/a
384.037	0.0745	768074	keystroke	n	n/a
384.0965	0.0605	768193	keystroke	g	n/a
384.2165	0.06	768433	keystroke	Key.enter	n/a
384.2825	3.399	768565	prompt	n/a	trust eval kurt subject\n
384.8615	0.09	769723	keystroke	t	n/a
385.0715	0.06	770143	keystroke	r	n/a
385.1465	0.06	770293	keystroke	u	n/a
385.2665	0.074	770533	keystroke	s	n/a
385.3255	0.075	770651	keystroke	t	n/a
385.4455	0.09	770891	keystroke	Key.space	n/a
385.5205	0.075	771041	keystroke	e	n/a
385.6855	0.0605	771371	keystroke	v	n/a
385.7905	0.09	771581	keystroke	a	n/a
385.8505	0.0605	771701	keystroke	l	n/a
385.955	0.0755	771910	keystroke	Key.space	n/a
386.0755	0.075	772151	keystroke	k	n/a
386.2555	0.06	772511	keystroke	u	n/a
386.3305	0.075	772661	keystroke	r	n/a
386.5105	0.06	773021	keystroke	t	n/a
386.5555	0.075	773111	keystroke	Key.space	n/a
386.661	0.0895	773322	keystroke	s	n/a
386.7355	0.045	773471	keystroke	u	n/a
386.8705	0.0595	773741	keystroke	b	n/a
387.0205	0.0595	774041	keystroke	j	n/a
387.065	0.075	774130	keystroke	e	n/a
387.275	0.0595	774550	keystroke	c	n/a
387.5005	0.044	775001	keystroke	t	n/a
387.62	0.0595	775240	keystroke	Key.enter	n/a
387.6875	4.852	775375	prompt	n/a	the quick brown fox jumps over a lazy dog\n
388.31	0.0595	776620	keystroke	t	n/a
388.3845	0.0445	776769	keystroke	h	n/a
388.4445	0.105	776889	keystroke	e	n/a
388.504	0.0745	777008	keystroke	Key.space	n/a
388.6395	0.0745	777279	keystroke	q	n/a
388.7	0.1195	777400	keystroke	u	n/a
388.774	0.0895	777548	keystroke	i	n/a
388.9085	0.0755	777817	keystroke	c	n/a
388.969	0.0745	777938	keystroke	k	n/a
389.0735	0.075	778147	keystroke	Key.space	n/a
389.1945	0.0745	778389	keystroke	b	n/a
389.284	0.075	778568	keystroke	r	n/a
389.359	0.059	778718	keystroke	o	n/a
389.464	0.075	778928	keystroke	w	n/a
389.524	0.059	779048	keystroke	n	n/a
389.6285	0.09	779257	keystroke	Key.space	n/a
389.7035	0.09	779407	keystroke	f	n/a
389.7945	0.089	779589	keystroke	o	n/a
389.9135	0.09	779827	keystroke	x	n/a
390.0185	0.075	780037	keystroke	Key.space	n/a
390.274	0.0595	780548	keystroke	j	n/a
