onset	duration	sample	value	key	prompt_text
1.2565	11.984	2513	prompt	n/a	the quick brown fox jumps over a lazy dog\n
2.7355	0.013	5471	keystroke_t	t	n/a
2.7635	0.0755	5527	keystroke_h	h	n/a
2.854	0.135	5708	keystroke_e	e	n/a
3.0335	0.1055	6067	keystroke_Key.space	Key.space	n/a
3.6035	0.105	7207	keystroke_q	q	n/a
3.7835	0.0905	7567	keystroke_u	u	n/a
3.8285	0.1055	7657	keystroke_i	i	n/a
4.0985	0.1055	8197	keystroke_c	c	n/a
4.1885	0.1055	8377	keystroke_k	k	n/a
4.3235	0.091	8647	keystroke_Key.space	Key.space	n/a
4.8195	0.06	9639	keystroke_b	b	n/a
4.9235	0.1055	9847	keystroke_r	r	n/a
5.1935	0.075	10387	keystroke_o	o	n/a
5.464	0.0745	10928	keystroke_w	w	n/a
5.5545	0.074	11109	keystroke_n	n	n/a
5.6585	0.107	11317	keystroke_Key.space	Key.space	n/a
6.2925	0.0745	12585	keystroke_f	f	n/a
6.457	0.0905	12914	keystroke_o	o	n/a
6.577	0.106	13154	keystroke_x	x	n/a
6.712	0.1055	13424	keystroke_Key.space	Key.space	n/a
7.4625	0.059	14925	keystroke_j	j	n/a
7.5065	0.0905	15013	keystroke_u	u	n/a
7.7015	0.166	15403	keystroke_m	m	n/a
7.8825	0.03	15765	keystroke_o	o	n/a
9.067	0.0905	18134	keystroke_Key.backspace	Key.backspace	n/a
9.3975	0.1045	18795	keystroke_p	p	n/a
9.487	0.1355	18974	keystroke_s	s	n/a
9.637	0.075	19274	keystroke_Key.space	Key.space	n/a
10.147	0.076	20294	keystroke_o	o	n/a
10.2385	0.088	20477	keystroke_v	v	n/a
10.387	0.1505	20774	keystroke_e	e	n/a
10.492	0.1505	20984	keystroke_r	r	n/a
10.6125	0.1195	21225	keystroke_Key.space	Key.space	n/a
10.747	0.1355	21494	keystroke_a	a	n/a
10.8965	0.0755	21793	keystroke_Key.space	Key.space	n/a
11.1515	0.105	22303	keystroke_l	l	n/a
11.2415	0.091	22483	keystroke_a	a	n/a
11.452	0.0905	22904	keystroke_z	z	n/a
11.6465	0.091	23293	keystroke_y	y	n/a
11.797	0.09	23594	keystroke_Key.space	Key.space	n/a
12.157	0.0755	24314	keystroke_d	d	n/a
12.487	0.1055	24974	keystroke_o	o	n/a
12.637	0.1055	25274	keystroke_g	g	n/a
13.1025	0.1345	26205	keystroke_Key.enter	Key.enter	n/a
13.2465	8.423	26493	prompt	n/a	woman texas interaction kinase\n
13.8675	0.0895	27735	keystroke_w	w	n/a
14.0925	0.0755	28185	keystroke_o	o	n/a
14.2875	0.0895	28575	keystroke_m	m	n/a
14.362	0.091	28724	keystroke_a	a	n/a
14.482	0.105	28964	keystroke_n	n	n/a
14.6465	0.1055	29293	keystroke_Key.space	Key.space	n/a
15.2165	0.016	30433	keystroke_t	t	n/a
15.3975	0.1205	30795	keystroke_e	e	n/a
16.027	0.1655	32054	keystroke_x	x	n/a
16.2075	0.075	32415	keystroke_a	a	n/a
16.402	0.03	32804	keystroke_s	s	n/a
16.6425	0.1045	33285	keystroke_Key.space	Key.space	n/a
17.333	0.105	34666	keystroke_i	i	n/a
17.4225	0.0755	34845	keystroke_n	n	n/a
17.707	0.1055	35414	keystroke_t	t	n/a
17.843	0.164	35686	keystroke_e	e	n/a
17.947	0.121	35894	keystroke_r	r	n/a
18.3225	0.0895	36645	keystroke_a	a	n/a
18.698	0.059	37396	keystroke_c	c	n/a
19.163	0.0895	38326	keystroke_t	t	n/a
19.223	0.105	38446	keystroke_i	i	n/a
19.267	0.12	38534	keystroke_o	o	n/a
19.3725	0.1205	38745	keystroke_n	n	n/a
19.687	0.09	39374	keystroke_Key.space	Key.space	n/a
20.3925	0.0745	40785	keystroke_k	k	n/a
20.527	0.091	41054	keystroke_i	i	n/a
20.6625	0.1205	41325	keystroke_n	n	n/a
20.767	0.091	41534	keystroke_a	a	n/a
20.992	0.2105	41984	keystroke_s	s	n/a
21.173	0.1045	42346	keystroke_e	e	n/a
21.5325	0.135	43065	keystroke_Key.enter	Key.enter	n/a
21.6745	11.036	43349	prompt	n/a	homework preparation real lucia\n
22.762	0.075	45524	keystroke_h	h	n/a
22.868	0.06	45736	keystroke_o	o	n/a
23.0175	0.105	46035	keystroke_m	m	n/a
23.138	0.0745	46276	keystroke_w	w	n/a
23.5265	0.106	47053	keystroke_w	w	n/a
23.6475	0.0745	47295	keystroke_o	o	n/a
23.7975	0.075	47595	keystroke_r	r	n/a
24.128	0.075	48256	keystroke_k	k	n/a
24.7575	0.03	49515	keystroke_Key.backspace	Key.backspace	n/a
24.8625	0.075	49725	keystroke_Key.backspace	Key.backspace	n/a
24.997	0.06	49994	keystroke_Key.backspace	Key.backspace	n/a
25.117	0.1055	50234	keystroke_Key.backspace	Key.backspace	n/a
25.7625	0.104	51525	keystroke_Key.backspace	Key.backspace	n/a
25.912	0.136	51824	keystroke_e	e	n/a
26.5425	0.0745	53085	keystroke_w	w	n/a
26.797	0.1055	53594	keystroke_o	o	n/a
26.903	0.1045	53806	keystroke_r	r	n/a
27.097	0.0905	54194	keystroke_k	k	n/a
27.6825	0.0745	55365	keystroke_Key.space	Key.space	n/a
28.2075	0.09	56415	keystroke_p	p	n/a
28.2675	0.09	56535	keystroke_r	r	n/a
28.3425	0.09	56685	keystroke_e	e	n/a
28.5525	0.1055	57105	keystroke_p	p	n/a
28.6425	0.0895	57285	keystroke_a	a	n/a
28.9875	0.12	57975	keystroke_r	r	n/a
29.1375	0.105	58275	keystroke_a	a	n/a
29.6625	0.105	59325	keystroke_t	t	n/a
29.752	0.136	59504	keystroke_i	i	n/a
29.812	0.15	59624	keystroke_o	o	n/a
29.9325	0.1355	59865	keystroke_n	n	n/a
30.2925	0.12	60585	keystroke_Key.space	Key.space	n/a
30.652	0.0905	61304	keystroke_r	r	n/a
30.6975	0.09	61395	keystroke_e	e	n/a
30.8325	0.1355	61665	keystroke_a	a	n/a
30.9975	0.104	61995	keystroke_l	l	n/a
31.147	0.0905	62294	keystroke_Key.space	Key.space	n/a
31.342	0.1055	62684	keystroke_l	l	n/a
31.9565	0.106	63913	keystroke_u	u	n/a
32.1825	0.105	64365	keystroke_c	c	n/a
32.2575	0.1055	64515	keystroke_i	i	n/a
32.3635	0.104	64727	keystroke_a	a	n/a
32.5875	0.1195	65175	keystroke_Key.enter	Key.enter	n/a
32.7155	7.0585	65431	prompt	n/a	example disabled road feel\n
33.323	0.105	66646	keystroke_e	e	n/a
33.562	0.09	67124	keystroke_x	x	n/a
33.8775	0.1045	67755	keystroke_a	a	n/a
34.522	0.12	69044	keystroke_m	m	n/a
34.732	0.12	69464	keystroke_p	p	n/a
34.897	0.1505	69794	keystroke_l	l	n/a
35.002	0.1505	70004	keystroke_e	e	n/a
35.137	0.1355	70274	keystroke_Key.space	Key.space	n/a
35.5425	0.135	71085	keystroke_d	d	n/a
35.6625	0.12	71325	keystroke_i	i	n/a
35.9025	0.1645	71805	keystroke_s	s	n/a
36.037	0.135	72074	keystroke_a	a	n/a
36.6225	0.105	73245	keystroke_b	b	n/a
36.8475	0.1055	73695	keystroke_l	l	n/a
36.9375	0.105	73875	keystroke_e	e	n/a
37.1325	0.0745	74265	keystroke_d	d	n/a
37.2375	0.119	74475	keystroke_Key.space	Key.space	n/a
38.032	0.0905	76064	keystroke_r	r	n/a
38.198	0.089	76396	keystroke_o	o	n/a
38.332	0.1055	76664	keystroke_a	a	n/a
38.4525	0.09	76905	keystroke_d	d	n/a
38.6175	0.135	77235	keystroke_Key.space	Key.space	n/a
39.0225	0.0755	78045	keystroke_f	f	n/a
39.128	0.075	78256	keystroke_e	e	n/a
39.307	0.09	78614	keystroke_e	e	n/a
39.4575	0.0895	78915	keystroke_l	l	n/a
39.652	0.12	79304	keystroke_Key.enter	Key.enter	n/a
39.778	8.684	79556	prompt	n/a	dress preference residential carl\n
40.537	0.12	81074	keystroke_d	d	n/a
40.7775	0.1045	81555	keystroke_r	r	n/a
40.8375	0.1495	81675	keystroke_e	e	n/a
41.003	0.074	82006	keystroke_s	s	n/a
41.182	0.105	82364	keystroke_s	s	n/a
41.3325	0.1045	82665	keystroke_Key.space	Key.space	n/a
41.632	0.091	83264	keystroke_p	p	n/a
41.677	0.1055	83354	keystroke_r	r	n/a
41.767	0.1055	83534	keystroke_e	e	n/a
41.977	0.09	83954	keystroke_f	f	n/a
42.0975	0.135	84195	keystroke_e	e	n/a
42.2325	0.135	84465	keystroke_r	r	n/a
42.352	0.0905	84704	keystroke_e	e	n/a
42.5925	0.09	85185	keystroke_n	n	n/a
42.6675	0.105	85335	keystroke_c	c	n/a
42.7575	0.1055	85515	keystroke_e	e	n/a
43.1325	0.119	86265	keystroke_Key.space	Key.space	n/a
43.463	0.0895	86926	keystroke_r	r	n/a
43.5225	0.105	87045	keystroke_e	e	n/a
43.657	0.136	87314	keystroke_s	s	n/a
43.8675	0.15	87735	keystroke_i	i	n/a
44.467	0.06	88934	keystroke_d	d	n/a
44.7075	0.03	89415	keystroke_e	e	n/a
44.7225	0.0745	89445	keystroke_n	n	n/a
44.9335	0.0735	89867	keystroke_t	t	n/a
45.292	0.135	90584	keystroke_i	i	n/a
45.367	0.091	90734	keystroke_a	a	n/a
45.6525	0.12	91305	keystroke_l	l	n/a
46.1025	0.075	92205	keystroke_Key.space	Key.space	n/a
46.3125	0.09	92625	keystroke_c	c	n/a
46.4175	0.12	92835	keystroke_a	a	n/a
46.6425	0.0895	93285	keystroke_r	r	n/a
46.8225	0.1205	93645	keystroke_l	l	n/a
47.107	0.075	94214	keystroke_'	'	n/a
48.067	0.1055	96134	keystroke_Key.backspace	Key.backspace	n/a
48.352	0.1055	96704	keystroke_Key.enter	Key.enter	n/a
48.4715	12.4085	96943	prompt	n/a	specializing graduates economic zones\n
49.3275	0.105	98655	keystroke_s	s	n/a
49.5375	0.075	99075	keystroke_p	p	n/a
49.6275	0.12	99255	keystroke_e	e	n/a
50.3175	0.09	100635	keystroke_c	c	n/a
50.3775	0.0895	100755	keystroke_i	i	n/a
50.482	0.106	100964	keystroke_a	a	n/a
50.647	0.12	101294	keystroke_l	l	n/a
50.9475	0.105	101895	keystroke_i	i	n/a
51.1575	0.105	102315	keystroke_z	z	n/a
51.397	0.1365	102794	keystroke_i	i	n/a
51.7275	0.12	103455	keystroke_n	n	n/a
51.8175	0.09	103635	keystroke_g	g	n/a
52.1315	0.121	104263	keystroke_Key.space	Key.space	n/a
52.7325	0.09	105465	keystroke_g	g	n/a
52.7925	0.1355	105585	keystroke_r	r	n/a
53.572	0.1205	107144	keystroke_Key.backspace	Key.backspace	n/a
53.632	0.09	107264	keystroke_a	a	n/a
54.037	0.1355	108074	keystroke_Key.backspace	Key.backspace	n/a
54.187	0.1505	108374	keystroke_r	r	n/a
54.3825	0.1045	108765	keystroke_a	a	n/a
54.952	0.1195	109904	keystroke_d	d	n/a
55.132	0.1205	110264	keystroke_u	u	n/a
55.2215	0.076	110443	keystroke_a	a	n/a
55.5675	0.06	111135	keystroke_t	t	n/a
55.6575	0.135	111315	keystroke_e	e	n/a
55.777	0.1055	111554	keystroke_s	s	n/a
56.3175	0.12	112635	keystroke_Key.space	Key.space	n/a
57.1275	0.1355	114255	keystroke_e	e	n/a
57.5175	0.09	115035	keystroke_c	c	n/a
57.727	0.1055	115454	keystroke_o	o	n/a
58.012	0.1205	116024	keystroke_n	n	n/a
58.373	0.1045	116746	keystroke_o	o	n/a
58.8825	0.12	117765	keystroke_m	m	n/a
58.987	0.165	117974	keystroke_i	i	n/a
59.2125	0.135	118425	keystroke_c	c	n/a
59.572	0.091	119144	keystroke_Key.space	Key.space	n/a
59.9025	0.1055	119805	keystroke_z	z	n/a
59.9325	0.1055	119865	keystroke_o	o	n/a
60.173	0.104	120346	keystroke_n	n	n/a
60.187	0.166	120374	keystroke_e	e	n/a
60.338	0.119	120676	keystroke_s	s	n/a
60.7575	0.1195	121515	keystroke_Key.enter	Key.enter	n/a
60.8885	6.3065	121777	prompt	n/a	leon healing victims sail\n
61.6425	0.105	123285	keystroke_l	l	n/a
61.7325	0.09	123465	keystroke_e	e	n/a
61.8675	0.105	123735	keystroke_o	o	n/a
62.1075	0.075	124215	keystroke_n	n	n/a
62.3175	0.09	124635	keystroke_Key.space	Key.space	n/a
62.812	0.12	125624	keystroke_h	h	n/a
62.872	0.1205	125744	keystroke_e	e	n/a
62.9935	0.1035	125987	keystroke_a	a	n/a
63.1725	0.12	126345	keystroke_l	l	n/a
63.4125	0.165	126825	keystroke_i	i	n/a
63.5175	0.119	127035	keystroke_n	n	n/a
63.6075	0.09	127215	keystroke_g	g	n/a
63.862	0.1055	127724	keystroke_Key.space	Key.space	n/a
64.477	0.075	128954	keystroke_v	v	n/a
64.672	0.0905	129344	keystroke_i	i	n/a
64.7775	0.09	129555	keystroke_c	c	n/a
65.0465	0.091	130093	keystroke_t	t	n/a
65.2725	0.18	130545	keystroke_i	i	n/a
65.4375	0.105	130875	keystroke_m	m	n/a
65.5575	0.105	131115	keystroke_s	s	n/a
65.7375	0.1495	131475	keystroke_Key.space	Key.space	n/a
66.427	0.1505	132854	keystroke_s	s	n/a
66.5475	0.09	133095	keystroke_a	a	n/a
66.6525	0.12	133305	keystroke_i	i	n/a
66.8475	0.105	133695	keystroke_l	l	n/a
67.057	0.1355	134114	keystroke_Key.enter	Key.enter	n/a
67.2	11.3335	134400	prompt	n/a	reflections refined tribute northeast\n
67.8675	0.12	135735	keystroke_r	r	n/a
67.9275	0.0905	135855	keystroke_e	e	n/a
68.3025	0.09	136605	keystroke_f	f	n/a
68.5575	0.105	137115	keystroke_l	l	n/a
68.6475	0.1205	137295	keystroke_e	e	n/a
68.872	0.09	137744	keystroke_c	c	n/a
69.098	0.119	138196	keystroke_t	t	n/a
69.2025	0.1195	138405	keystroke_i	i	n/a
69.277	0.165	138554	keystroke_o	o	n/a
69.412	0.105	138824	keystroke_n	n	n/a
69.532	0.105	139064	keystroke_s	s	n/a
69.712	0.12	139424	keystroke_Key.space	Key.space	n/a
70.0875	0.104	140175	keystroke_r	r	n/a
70.1775	0.09	140355	keystroke_e	e	n/a
70.3275	0.105	140655	keystroke_f	f	n/a
70.4925	0.105	140985	keystroke_i	i	n/a
70.6725	0.105	141345	keystroke_n	n	n/a
70.7625	0.06	141525	keystroke_d	d	n/a
70.9425	0.105	141885	keystroke_e	e	n/a
71.2725	0.075	142545	keystroke_Key.backspace	Key.backspace	n/a
71.4075	0.105	142815	keystroke_Key.backspace	Key.backspace	n/a
71.527	0.0905	143054	keystroke_e	e	n/a
71.6775	0.15	143355	keystroke_d	d	n/a
71.8415	0.1205	143683	keystroke_Key.space	Key.space	n/a
72.5625	0.09	145125	keystroke_t	t	n/a
72.757	0.0755	145514	keystroke_r	r	n/a
72.9525	0.09	145905	keystroke_i	i	n/a
73.223	0.074	146446	keystroke_v	v	n/a
73.642	0.1055	147284	keystroke_Key.backspace	Key.backspace	n/a
73.7625	0.0745	147525	keystroke_b	b	n/a
73.9575	0.1195	147915	keystroke_u	u	n/a
74.107	0.0905	148214	keystroke_t	t	n/a
74.2275	0.135	148455	keystroke_e	e	n/a
74.6025	0.0745	149205	keystroke_Key.space	Key.space	n/a
75.3825	0.105	150765	keystroke_n	n	n/a
75.652	0.106	151304	keystroke_o	o	n/a
75.8325	0.105	151665	keystroke_t	t	n/a
76.462	0.09	152924	keystroke_Key.backspace	Key.backspace	n/a
76.537	0.0905	153074	keystroke_r	r	n/a
76.702	0.105	153404	keystroke_t	t	n/a
77.3465	0.0455	154693	keystroke_h	h	n/a
77.4665	0.1205	154933	keystroke_e	e	n/a
77.6315	0.1505	155263	keystroke_a	a	n/a
77.767	0.12	155534	keystroke_s	s	n/a
78.0225	0.0905	156045	keystroke_t	t	n/a
78.3815	0.15	156763	keystroke_Key.enter	Key.enter	n/a
78.5385	9.2805	157077	prompt	n/a	medicare reduce checked script\n
79.4025	0.105	158805	keystroke_m	m	n/a
79.9125	0.09	159825	keystroke_e	e	n/a
80.107	0.09	160214	keystroke_d	d	n/a
80.2115	0.121	160423	keystroke_i	i	n/a
80.3925	0.0895	160785	keystroke_c	c	n/a
80.512	0.121	161024	keystroke_a	a	n/a
80.902	0.121	161804	keystroke_s	s	n/a
81.0065	0.0905	162013	keystroke_e	e	n/a
81.4115	0.046	162823	keystroke_Key.backspace	Key.backspace	n/a
81.5625	0.074	163125	keystroke_Key.backspace	Key.backspace	n/a
81.727	0.09	163454	keystroke_r	r	n/a
81.802	0.0905	163604	keystroke_e	e	n/a
82.283	0.0735	164566	keystroke_Key.space	Key.space	n/a
82.5975	0.0895	165195	keystroke_r	r	n/a
82.6725	0.105	165345	keystroke_e	e	n/a
82.8675	0.09	165735	keystroke_d	d	n/a
83.197	0.1355	166394	keystroke_u	u	n/a
83.287	0.1355	166574	keystroke_c	c	n/a
83.4075	0.1055	166815	keystroke_e	e	n/a
83.962	0.1055	167924	keystroke_Key.space	Key.space	n/a
84.262	0.0905	168524	keystroke_c	c	n/a
84.383	0.119	168766	keystroke_h	h	n/a
84.503	0.1045	169006	keystroke_e	e	n/a
84.7875	0.0895	169575	keystroke_c	c	n/a
84.907	0.12	169814	keystroke_k	k	n/a
85.147	0.0905	170294	keystroke_e	e	n/a
85.5675	0.09	171135	keystroke_d	d	n/a
85.942	0.1055	171884	keystroke_Key.space	Key.space	n/a
86.2425	0.134	172485	keystroke_s	s	n/a
86.3475	0.105	172695	keystroke_c	c	n/a
86.6325	0.075	173265	keystroke_r	r	n/a
86.8125	0.105	173625	keystroke_i	i	n/a
87.0525	0.119	174105	keystroke_p	p	n/a
87.292	0.12	174584	keystroke_t	t	n/a
87.742	0.075	175484	keystroke_Key.enter	Key.enter	n/a
87.822	7.992	175644	prompt	n/a	months rocky bridge latino\n
88.6725	0.15	177345	keystroke_m	m	n/a
88.7325	0.15	177465	keystroke_o	o	n/a
88.9725	0.105	177945	keystroke_n	n	n/a
89.1365	0.106	178273	keystroke_t	t	n/a
89.3175	0.135	178635	keystroke_h	h	n/a
89.3475	0.09	178695	keystroke_s	s	n/a
89.7075	0.1045	179415	keystroke_Key.space	Key.space	n/a
90.3375	0.1045	180675	keystroke_r	r	n/a
90.4725	0.105	180945	keystroke_o	o	n/a
90.6675	0.0745	181335	keystroke_c	c	n/a
90.757	0.1055	181514	keystroke_k	k	n/a
91.147	0.1055	182294	keystroke_y	y	n/a
91.537	0.12	183074	keystroke_Key.space	Key.space	n/a
92.0175	0.1195	184035	keystroke_b	b	n/a
92.152	0.0905	184304	keystroke_r	r	n/a
92.407	0.135	184814	keystroke_i	i	n/a
92.513	0.104	185026	keystroke_d	d	n/a
92.842	0.135	185684	keystroke_g	g	n/a
92.917	0.105	185834	keystroke_e	e	n/a
93.2925	0.12	186585	keystroke_Key.space	Key.space	n/a
93.6825	0.0905	187365	keystroke_l	l	n/a
93.7575	0.0605	187515	keystroke_a	a	n/a
94.028	0.089	188056	keystroke_t	t	n/a
94.1775	0.149	188355	keystroke_i	i	n/a
94.4015	0.091	188803	keystroke_o	o	n/a
94.837	0.1055	189674	keystroke_Key.backspace	Key.backspace	n/a
95.4075	0.12	190815	keystroke_n	n	n/a
95.4975	0.06	190995	keystroke_o	o	n/a
95.7375	0.0745	191475	keystroke_Key.enter	Key.enter	n/a
95.8185	7.0155	191637	prompt	n/a	colon penn madrid chains\n
96.5025	0.12	193005	keystroke_c	c	n/a
96.5775	0.105	193155	keystroke_o	o	n/a
96.7875	0.105	193575	keystroke_l	l	n/a
96.8625	0.18	193725	keystroke_o	o	n/a
97.7325	0.0745	195465	keystroke_n	n	n/a
97.8225	0.12	195645	keystroke_Key.space	Key.space	n/a
98.4975	0.1195	196995	keystroke_p	p	n/a
98.632	0.06	197264	keystroke_e	e	n/a
98.8275	0.075	197655	keystroke_n	n	n/a
98.977	0.12	197954	keystroke_n	n	n/a
99.112	0.12	198224	keystroke_Key.space	Key.space	n/a
99.5325	0.1045	199065	keystroke_m	m	n/a
99.622	0.0755	199244	keystroke_a	a	n/a
99.7425	0.1195	199485	keystroke_d	d	n/a
100.0425	0.105	200085	keystroke_r	r	n/a
100.2075	0.105	200415	keystroke_i	i	n/a
100.432	0.09	200864	keystroke_d	d	n/a
100.852	0.105	201704	keystroke_Key.space	Key.space	n/a
101.3475	0.105	202695	keystroke_c	c	n/a
101.497	0.12	202994	keystroke_h	h	n/a
101.5575	0.1195	203115	keystroke_a	a	n/a
101.767	0.1355	203534	keystroke_i	i	n/a
102.038	0.119	204076	keystroke_n	n	n/a
102.1425	0.09	204285	keystroke_s	s	n/a
102.6965	0.1355	205393	keystroke_Key.enter	Key.enter	n/a
102.839	9.325	205678	prompt	n/a	collaboration blade featured label\n
103.5375	0.0745	207075	keystroke_c	c	n/a
103.6275	0.1195	207255	keystroke_o	o	n/a
103.8825	0.075	207765	keystroke_l	l	n/a
104.0175	0.09	208035	keystroke_l	l	n/a
104.092	0.0905	208184	keystroke_a	a	n/a
104.407	0.105	208814	keystroke_b	b	n/a
104.527	0.1355	209054	keystroke_o	o	n/a
104.7825	0.0895	209565	keystroke_r	r	n/a
104.932	0.09	209864	keystroke_a	a	n/a
105.2175	0.105	210435	keystroke_t	t	n/a
105.307	0.1655	210614	keystroke_i	i	n/a
105.3825	0.165	210765	keystroke_o	o	n/a
105.5025	0.105	211005	keystroke_n	n	n/a
105.9525	0.1045	211905	keystroke_Key.space	Key.space	n/a
106.4625	0.105	212925	keystroke_b	b	n/a
106.732	0.075	213464	keystroke_l	l	n/a
106.822	0.091	213644	keystroke_a	a	n/a
106.927	0.106	213854	keystroke_d	d	n/a
107.1525	0.105	214305	keystroke_e	e	n/a
107.422	0.0905	214844	keystroke_Key.space	Key.space	n/a
107.9775	0.105	215955	keystroke_g	g	n/a
108.4275	0.1045	216855	keystroke_Key.backspace	Key.backspace	n/a
108.4875	0.1205	216975	keystroke_f	f	n/a
108.6225	0.1045	217245	keystroke_e	e	n/a
108.817	0.105	217634	keystroke_a	a	n/a
109.642	0.09	219284	keystroke_t	t	n/a
109.792	0.1355	219584	keystroke_u	u	n/a
109.882	0.105	219764	keystroke_r	r	n/a
109.972	0.1205	219944	keystroke_e	e	n/a
110.5275	0.09	221055	keystroke_d	d	n/a
110.7825	0.12	221565	keystroke_Key.space	Key.space	n/a
111.127	0.1055	222254	keystroke_l	l	n/a
111.2025	0.09	222405	keystroke_a	a	n/a
111.487	0.0905	222974	keystroke_b	b	n/a
111.622	0.106	223244	keystroke_e	e	n/a
111.7725	0.1195	223545	keystroke_l	l	n/a
112.027	0.1355	224054	keystroke_Key.enter	Key.enter	n/a
112.168	5.876	224336	prompt	n/a	stats cant complex slight\n
112.837	0.1055	225674	keystroke_s	s	n/a
113.092	0.0755	226184	keystroke_t	t	n/a
113.2275	0.105	226455	keystroke_a	a	n/a
113.482	0.075	226964	keystroke_t	t	n/a
113.648	0.089	227296	keystroke_s	s	n/a
114.0065	0.106	228013	keystroke_Key.space	Key.space	n/a
114.232	0.0905	228464	keystroke_c	c	n/a
114.3525	0.09	228705	keystroke_a	a	n/a
114.5175	0.12	229035	keystroke_n	n	n/a
114.6675	0.09	229335	keystroke_t	t	n/a
114.9075	0.075	229815	keystroke_Key.space	Key.space	n/a
115.2075	0.09	230415	keystroke_c	c	n/a
115.3425	0.179	230685	keystroke_o	o	n/a
115.477	0.15	230954	keystroke_m	m	n/a
115.7325	0.0895	231465	keystroke_p	p	n/a
115.8825	0.21	231765	keystroke_l	l	n/a
115.9725	0.089	231945	keystroke_e	e	n/a
116.197	0.1055	232394	keystroke_x	x	n/a
116.437	0.105	232874	keystroke_Key.space	Key.space	n/a
116.6925	0.105	233385	keystroke_s	s	n/a
116.7985	0.089	233597	keystroke_l	l	n/a
116.9775	0.135	233955	keystroke_i	i	n/a
117.2915	0.121	234583	keystroke_g	g	n/a
117.427	0.1205	234854	keystroke_h	h	n/a
117.563	0.0885	235126	keystroke_t	t	n/a
117.9075	0.1345	235815	keystroke_Key.enter	Key.enter	n/a
118.047	9.2665	236094	prompt	n/a	stuart confused kelly juice\n
118.7025	0.09	237405	keystroke_s	s	n/a
119.1375	0.105	238275	keystroke_t	t	n/a
119.2275	0.09	238455	keystroke_u	u	n/a
119.3475	0.105	238695	keystroke_r	r	n/a
119.498	0.1185	238996	keystroke_a	a	n/a
120.0525	0.075	240105	keystroke_Key.backspace	Key.backspace	n/a
120.202	0.105	240404	keystroke_Key.backspace	Key.backspace	n/a
120.292	0.1065	240584	keystroke_a	a	n/a
120.4865	0.106	240973	keystroke_r	r	n/a
120.7725	0.09	241545	keystroke_t	t	n/a
121.312	0.1205	242624	keystroke_Key.space	Key.space	n/a
121.582	0.09	243164	keystroke_c	c	n/a
121.762	0.105	243524	keystroke_o	o	n/a
121.9725	0.105	243945	keystroke_n	n	n/a
122.257	0.12	244514	keystroke_f	f	n/a
122.3465	0.121	244693	keystroke_u	u	n/a
122.7825	0.104	245565	keystroke_s	s	n/a
122.8575	0.09	245715	keystroke_e	e	n/a
123.037	0.1205	246074	keystroke_d	d	n/a
123.997	0.1345	247994	keystroke_Key.space	Key.space	n/a
124.567	0.075	249134	keystroke_k	k	n/a
124.5975	0.105	249195	keystroke_e	e	n/a
124.7925	0.06	249585	keystroke_l	l	n/a
124.9275	0.12	249855	keystroke_l	l	n/a
125.272	0.09	250544	keystroke_y	y	n/a
125.452	0.091	250904	keystroke_Key.space	Key.space	n/a
126.517	0.1505	253034	keystroke_j	j	n/a
126.6375	0.15	253275	keystroke_u	u	n/a
126.727	0.15	253454	keystroke_i	i	n/a
126.862	0.0905	253724	keystroke_c	c	n/a
126.9365	0.106	253873	keystroke_e	e	n/a
127.177	0.1355	254354	keystroke_Key.enter	Key.enter	n/a
127.3185	7.1515	254637	prompt	n/a	column meant acute consists\n
128.0175	0.0895	256035	keystroke_c	c	n/a
128.1375	0.1045	256275	keystroke_o	o	n/a
128.347	0.1055	256694	keystroke_l	l	n/a
128.587	0.1655	257174	keystroke_u	u	n/a
128.722	0.0315	257444	keystroke_n	n	n/a
128.917	0.1355	257834	keystroke_n	n	n/a
129.1575	0.105	258315	keystroke_Key.space	Key.space	n/a
129.547	0.105	259094	keystroke_m	m	n/a
129.622	0.12	259244	keystroke_e	e	n/a
129.757	0.1055	259514	keystroke_a	a	n/a
129.8025	0.12	259605	keystroke_n	n	n/a
129.9975	0.09	259995	keystroke_t	t	n/a
130.3125	0.089	260625	keystroke_Key.space	Key.space	n/a
130.642	0.09	261284	keystroke_a	a	n/a
130.792	0.1205	261584	keystroke_c	c	n/a
130.927	0.12	261854	keystroke_u	u	n/a
131.077	0.105	262154	keystroke_t	t	n/a
131.198	0.104	262396	keystroke_e	e	n/a
132.2475	0.06	264495	keystroke_Key.space	Key.space	n/a
133.0875	0.09	266175	keystroke_c	c	n/a
133.1175	0.075	266235	keystroke_o	o	n/a
133.3125	0.12	266625	keystroke_n	n	n/a
133.4475	0.09	266895	keystroke_s	s	n/a
133.613	0.1335	267226	keystroke_i	i	n/a
133.7025	0.09	267405	keystroke_s	s	n/a
133.942	0.105	267884	keystroke_t	t	n/a
134.0925	0.1195	268185	keystroke_s	s	n/a
134.3475	0.12	268695	keystroke_Key.enter	Key.enter	n/a
134.475	8.1685	268950	prompt	n/a	chip indicate compromise carb\n
135.263	0.1335	270526	keystroke_c	c	n/a
135.607	0.1345	271214	keystroke_h	h	n/a
135.7725	0.12	271545	keystroke_i	i	n/a
136.1475	0.105	272295	keystroke_p	p	n/a
136.3275	0.119	272655	keystroke_Key.space	Key.space	n/a
137.587	0.1355	275174	keystroke_i	i	n/a
137.677	0.0905	275354	keystroke_n	n	n/a
137.7975	0.105	275595	keystroke_d	d	n/a
137.9035	0.134	275807	keystroke_i	i	n/a
138.0825	0.09	276165	keystroke_c	c	n/a
138.2025	0.09	276405	keystroke_a	a	n/a
138.3965	0.091	276793	keystroke_t	t	n/a
138.4725	0.105	276945	keystroke_e	e	n/a
138.7575	0.075	277515	keystroke_Key.space	Key.space	n/a
139.0575	0.105	278115	keystroke_c	c	n/a
139.867	0.135	279734	keystroke_o	o	n/a
141.112	0.1355	282224	keystroke_m	m	n/a
141.202	0.165	282404	keystroke_p	p	n/a
141.532	0.12	283064	keystroke_r	r	n/a
141.6215	0.105	283243	keystroke_o	o	n/a
141.847	0.18	283694	keystroke_m	m	n/a
141.9825	0.135	283965	keystroke_i	i	n/a
142.192	0.135	284384	keystroke_s	s	n/a
142.2815	0.105	284563	keystroke_e	e	n/a
142.5075	0.1345	285015	keystroke_Key.enter	Key.enter	n/a
142.651	9.908	285302	prompt	n/a	nokia hose lycos eligibility\n
143.9925	0.1195	287985	keystroke_m	m	n/a
144.0525	0.12	288105	keystroke_o	o	n/a
144.457	0.0905	288914	keystroke_k	k	n/a
144.892	0.075	289784	keystroke_Key.backspace	Key.backspace	n/a
145.0575	0.0595	290115	keystroke_Key.backspace	Key.backspace	n/a
145.1475	0.1045	290295	keystroke_Key.backspace	Key.backspace	n/a
145.8525	0.1045	291705	keystroke_n	n	n/a
145.927	0.12	291854	keystroke_o	o	n/a
146.062	0.0905	292124	keystroke_k	k	n/a
146.1975	0.1795	292395	keystroke_i	i	n/a
146.317	0.15	292634	keystroke_a	a	n/a
146.468	0.1495	292936	keystroke_Key.space	Key.space	n/a
147.308	0.1345	294616	keystroke_h	h	n/a
147.412	0.12	294824	keystroke_o	o	n/a
147.5175	0.15	295035	keystroke_s	s	n/a
147.6075	0.135	295215	keystroke_e	e	n/a
147.7865	0.1355	295573	keystroke_Key.space	Key.space	n/a
148.1315	0.12	296263	keystroke_l	l	n/a
148.597	0.105	297194	keystroke_y	y	n/a
148.897	0.1055	297794	keystroke_o	o	n/a
148.988	0.149	297976	keystroke_c	c	n/a
149.123	0.104	298246	keystroke_s	s	n/a
149.347	0.12	298694	keystroke_Key.space	Key.space	n/a
149.7365	0.135	299473	keystroke_e	e	n/a
149.857	0.106	299714	keystroke_l	l	n/a
150.0675	0.105	300135	keystroke_i	i	n/a
150.307	0.1055	300614	keystroke_g	g	n/a
150.367	0.105	300734	keystroke_i	i	n/a
150.8175	0.1045	301635	keystroke_b	b	n/a
150.967	0.105	301934	keystroke_i	i	n/a
151.177	0.075	302354	keystroke_l	l	n/a
151.4775	0.089	302955	keystroke_i	i	n/a
151.9725	0.12	303945	keystroke_t	t	n/a
152.0475	0.1205	304095	keystroke_y	y	n/a
152.392	0.165	304784	keystroke_Key.enter	Key.enter	n/a
152.565	8.4385	305130	prompt	n/a	lately registration ratios prizes\n
153.3075	0.105	306615	keystroke_l	l	n/a
153.3825	0.09	306765	keystroke_a	a	n/a
153.6065	0.091	307213	keystroke_t	t	n/a
153.7275	0.1045	307455	keystroke_e	e	n/a
153.9075	0.1355	307815	keystroke_l	l	n/a
154.267	0.121	308534	keystroke_y	y	n/a
154.732	0.135	309464	keystroke_Key.space	Key.space	n/a
154.9575	0.0895	309915	keystroke_r	r	n/a
155.0175	0.135	310035	keystroke_e	e	n/a
155.3325	0.09	310665	keystroke_g	g	n/a
155.5575	0.12	311115	keystroke_i	i	n/a
155.6925	0.09	311385	keystroke_s	s	n/a
155.917	0.1055	311834	keystroke_t	t	n/a
156.1425	0.105	312285	keystroke_r	r	n/a
156.292	0.1055	312584	keystroke_a	a	n/a
156.5925	0.105	313185	keystroke_t	t	n/a
156.7125	0.135	313425	keystroke_i	i	n/a
156.7725	0.195	313545	keystroke_o	o	n/a
156.8925	0.12	313785	keystroke_n	n	n/a
157.417	0.0455	314834	keystroke_Key.space	Key.space	n/a
158.1675	0.1045	316335	keystroke_r	r	n/a
158.287	0.075	316574	keystroke_a	a	n/a
158.4525	0.1045	316905	keystroke_t	t	n/a
158.542	0.15	317084	keystroke_i	i	n/a
158.617	0.15	317234	keystroke_o	o	n/a
158.7215	0.1205	317443	keystroke_s	s	n/a
158.917	0.1355	317834	keystroke_Key.space	Key.space	n/a
159.6675	0.12	319335	keystroke_p	p	n/a
159.8025	0.1345	319605	keystroke_r	r	n/a
159.952	0.1505	319904	keystroke_i	i	n/a
160.2675	0.1205	320535	keystroke_z	z	n/a
160.4025	0.135	320805	keystroke_e	e	n/a
160.5825	0.1045	321165	keystroke_s	s	n/a
160.852	0.1505	321704	keystroke_Key.enter	Key.enter	n/a
161.0075	9.3115	322015	prompt	n/a	admin certificate nest quarterly\n
161.6165	0.091	323233	keystroke_a	a	n/a
161.8275	0.105	323655	keystroke_d	d	n/a
162.202	0.1055	324404	keystroke_m	m	n/a
162.292	0.195	324584	keystroke_i	i	n/a
162.427	0.091	324854	keystroke_n	n	n/a
162.637	0.1505	325274	keystroke_Key.space	Key.space	n/a
162.9825	0.105	325965	keystroke_c	c	n/a
163.3725	0.1495	326745	keystroke_e	e	n/a
163.477	0.105	326954	keystroke_r	r	n/a
163.7175	0.0745	327435	keystroke_f	f	n/a
164.1215	0.09	328243	keystroke_Key.backspace	Key.backspace	n/a
164.242	0.09	328484	keystroke_t	t	n/a
164.3925	0.1345	328785	keystroke_i	i	n/a
164.662	0.0905	329324	keystroke_f	f	n/a
164.7225	0.105	329445	keystroke_i	i	n/a
164.9475	0.075	329895	keystroke_c	c	n/a
165.0525	0.0895	330105	keystroke_a	a	n/a
165.262	0.1055	330524	keystroke_t	t	n/a
165.3685	0.0885	330737	keystroke_e	e	n/a
165.682	0.0905	331364	keystroke_Key.space	Key.space	n/a
166.1175	0.09	332235	keystroke_n	n	n/a
166.1475	0.135	332295	keystroke_e	e	n/a
166.2665	0.151	332533	keystroke_s	s	n/a
166.4025	0.105	332805	keystroke_t	t	n/a
166.5675	0.135	333135	keystroke_Key.space	Key.space	n/a
166.9725	0.09	333945	keystroke_q	q	n/a
167.2725	0.15	334545	keystroke_u	u	n/a
167.3925	0.075	334785	keystroke_a	a	n/a
167.8725	0.0895	335745	keystroke_r	r	n/a
168.052	0.09	336104	keystroke_t	t	n/a
168.277	0.0755	336554	keystroke_e	e	n/a
168.8025	0.09	337605	keystroke_r	r	n/a
168.8775	0.105	337755	keystroke_l	l	n/a
169.4025	0.105	338805	keystroke_y	y	n/a
170.1825	0.1345	340365	keystroke_Key.enter	Key.enter	n/a
170.3235	11.1255	340647	prompt	n/a	slides accessibility variations mileage\n
171.157	0.105	342314	keystroke_s	s	n/a
171.307	0.105	342614	keystroke_l	l	n/a
171.4875	0.134	342975	keystroke_i	i	n/a
171.6235	0.089	343247	keystroke_d	d	n/a
171.8025	0.1195	343605	keystroke_e	e	n/a
171.9375	0.15	343875	keystroke_s	s	n/a
172.1025	0.135	344205	keystroke_Key.space	Key.space	n/a
172.3275	0.12	344655	keystroke_a	a	n/a
172.5075	0.105	345015	keystroke_c	c	n/a
172.7325	0.075	345465	keystroke_c	c	n/a
172.897	0.1205	345794	keystroke_e	e	n/a
174.337	0.06	348674	keystroke_s	s	n/a
174.503	0.074	349006	keystroke_s	s	n/a
175.0575	0.119	350115	keystroke_i	i	n/a
175.6275	0.1055	351255	keystroke_b	b	n/a
175.672	0.1205	351344	keystroke_i	i	n/a
175.8825	0.0745	351765	keystroke_l	l	n/a
176.0475	0.135	352095	keystroke_i	i	n/a
176.452	0.105	352904	keystroke_t	t	n/a
176.527	0.12	353054	keystroke_y	y	n/a
177.007	0.12	354014	keystroke_Key.space	Key.space	n/a
177.367	0.1055	354734	keystroke_v	v	n/a
177.532	0.1205	355064	keystroke_a	a	n/a
177.8015	0.0905	355603	keystroke_r	r	n/a
177.9375	0.1345	355875	keystroke_i	i	n/a
178.057	0.0905	356114	keystroke_a	a	n/a
178.312	0.105	356624	keystroke_t	t	n/a
178.448	0.239	356896	keystroke_i	i	n/a
178.657	0.15	357314	keystroke_o	o	n/a
178.792	0.12	357584	keystroke_n	n	n/a
179.1225	0.1045	358245	keystroke_s	s	n/a
179.407	0.105	358814	keystroke_Key.space	Key.space	n/a
179.887	0.105	359774	keystroke_m	m	n/a
180.0975	0.075	360195	keystroke_i	i	n/a
180.2775	0.135	360555	keystroke_l	l	n/a
180.4565	0.151	360913	keystroke_e	e	n/a
180.592	0.1205	361184	keystroke_a	a	n/a
180.922	0.12	361844	keystroke_g	g	n/a
181.027	0.0755	362054	keystroke_e	e	n/a
181.342	0.1055	362684	keystroke_Key.enter	Key.enter	n/a
181.4535	9.1005	362907	prompt	n/a	politicians thou limits match\n
182.257	0.091	364514	keystroke_p	p	n/a
182.4375	0.105	364875	keystroke_o	o	n/a
182.6325	0.09	365265	keystroke_l	l	n/a
182.7975	0.15	365595	keystroke_i	i	n/a
183.052	0.1055	366104	keystroke_t	t	n/a
183.142	0.15	366284	keystroke_i	i	n/a
183.3525	0.1195	366705	keystroke_c	c	n/a
184.027	0.135	368054	keystroke_i	i	n/a
184.117	0.1055	368234	keystroke_a	a	n/a
184.2975	0.1345	368595	keystroke_n	n	n/a
184.447	0.1045	368894	keystroke_s	s	n/a
184.747	0.075	369494	keystroke_Key.space	Key.space	n/a
185.2115	0.106	370423	keystroke_t	t	n/a
185.3015	0.076	370603	keystroke_h	h	n/a
185.5565	0.106	371113	keystroke_o	o	n/a
185.8275	0.1195	371655	keystroke_u	u	n/a
186.037	0.1205	372074	keystroke_Key.space	Key.space	n/a
186.4725	0.091	372945	keystroke_l	l	n/a
186.6525	0.195	373305	keystroke_i	i	n/a
186.802	0.15	373604	keystroke_m	m	n/a
186.922	0.15	373844	keystroke_i	i	n/a
187.042	0.151	374084	keystroke_t	t	n/a
187.208	0.105	374416	keystroke_s	s	n/a
187.612	0.0905	375224	keystroke_Key.space	Key.space	n/a
187.867	0.135	375734	keystroke_m	m	n/a
187.987	0.075	375974	keystroke_a	a	n/a
188.197	0.09	376394	keystroke_t	t	n/a
188.332	0.1055	376664	keystroke_h	h	n/a
188.4525	0.09	376905	keystroke_c	c	n/a
189.3065	0.0455	378613	keystroke_Key.backspace	Key.backspace	n/a
189.412	0.135	378824	keystroke_Key.backspace	Key.backspace	n/a
190.028	0.089	380056	keystroke_c	c	n/a
190.102	0.09	380204	keystroke_h	h	n/a
190.417	0.1355	380834	keystroke_Key.enter	Key.enter	n/a
190.5585	12.79	381117	prompt	n/a	prozac create satin cute\n
191.5575	0.105	383115	keystroke_p	p	n/a
191.6775	0.105	383355	keystroke_r	r	n/a
191.7985	0.104	383597	keystroke_o	o	n/a
191.8875	0.09	383775	keystroke_z	z	n/a
192.0525	0.1205	384105	keystroke_a	a	n/a
192.2475	0.12	384495	keystroke_c	c	n/a
192.5915	0.091	385183	keystroke_Key.space	Key.space	n/a
192.9525	0.0445	385905	keystroke_c	c	n/a
193.388	0.104	386776	keystroke_r	r	n/a
193.4625	0.1495	386925	keystroke_e	e	n/a
193.687	0.09	387374	keystroke_a	a	n/a
193.852	0.12	387704	keystroke_t	t	n/a
194.603	0.104	389206	keystroke_e	e	n/a
195.9825	0.1045	391965	keystroke_Key.space	Key.space	n/a
196.207	0.136	392414	keystroke_s	s	n/a
196.537	0.0905	393074	keystroke_t	t	n/a
196.672	0.1505	393344	keystroke_i	i	n/a
196.7925	0.1345	393585	keystroke_n	n	n/a
197.0775	0.1345	394155	keystroke_Key.space	Key.space	n/a
197.782	0.0755	395564	keystroke_c	c	n/a
197.9475	0.135	395895	keystroke_u	u	n/a
198.0665	0.1055	396133	keystroke_t	t	n/a
198.187	0.1205	396374	keystroke_e	e	n/a
199.117	0.06	398234	keystroke_Key.backspace	Key.backspace	n/a
199.267	0.045	398534	keystroke_Key.backspace	Key.backspace	n/a
199.372	0.06	398744	keystroke_Key.backspace	Key.backspace	n/a
199.5225	0.0445	399045	keystroke_Key.backspace	Key.backspace	n/a
199.6415	0.045	399283	keystroke_Key.backspace	Key.backspace	n/a
199.762	0.0755	399524	keystroke_Key.backspace	Key.backspace	n/a
199.9125	0.045	399825	keystroke_Key.backspace	Key.backspace	n/a
200.3025	0.074	400605	keystroke_a	a	n/a
200.737	0.06	401474	keystroke_Key.backspace	Key.backspace	n/a
200.857	0.1055	401714	keystroke_Key.backspace	Key.backspace	n/a
200.9325	0.09	401865	keystroke_a	a	n/a
201.637	0.105	403274	keystroke_t	t	n/a
201.713	0.104	403426	keystroke_i	i	n/a
201.832	0.1055	403664	keystroke_n	n	n/a
201.9965	0.121	403993	keystroke_Key.space	Key.space	n/a
202.3275	0.09	404655	keystroke_c	c	n/a
202.7025	0.1045	405405	keystroke_u	u	n/a
202.822	0.075	405644	keystroke_t	t	n/a
202.912	0.106	405824	keystroke_e	e	n/a
203.2125	0.135	406425	keystroke_Key.enter	Key.enter	n/a
203.3525	10.1965	406705	prompt	n/a	lecture remaining standard behalf\n
204.2025	0.09	408405	keystroke_l	l	n/a
204.2765	0.1055	408553	keystroke_e	e	n/a
204.4725	0.105	408945	keystroke_c	c	n/a
204.7425	0.105	409485	keystroke_t	t	n/a
204.907	0.1205	409814	keystroke_i	i	n/a
205.042	0.1205	410084	keystroke_r	r	n/a
205.1475	0.12	410295	keystroke_e	e	n/a
205.5525	0.135	411105	keystroke_Key.space	Key.space	n/a
205.852	0.1055	411704	keystroke_r	r	n/a
205.9275	0.075	411855	keystroke_e	e	n/a
206.377	0.106	412754	keystroke_m	m	n/a
206.467	0.091	412934	keystroke_a	a	n/a
207.037	0.105	414074	keystroke_i	i	n/a
207.2775	0.1045	414555	keystroke_n	n	n/a
207.457	0.12	414914	keystroke_i	i	n/a
207.562	0.1355	415124	keystroke_n	n	n/a
207.7125	0.105	415425	keystroke_g	g	n/a
208.312	0.1045	416624	keystroke_Key.space	Key.space	n/a
208.612	0.1355	417224	keystroke_s	s	n/a
208.9265	0.106	417853	keystroke_t	t	n/a
209.0925	0.09	418185	keystroke_a	a	n/a
209.3175	0.1055	418635	keystroke_n	n	n/a
209.5125	0.1045	419025	keystroke_d	d	n/a
209.797	0.135	419594	keystroke_a	a	n/a
210.082	0.0905	420164	keystroke_r	r	n/a
210.3365	0.1055	420673	keystroke_d	d	n/a
210.682	0.09	421364	keystroke_Key.space	Key.space	n/a
211.2975	0.105	422595	keystroke_b	b	n/a
211.3725	0.105	422745	keystroke_e	e	n/a
211.5075	0.15	423015	keystroke_h	h	n/a
211.5975	0.12	423195	keystroke_a	a	n/a
212.1375	0.1055	424275	keystroke_l	l	n/a
212.977	0.12	425954	keystroke_f	f	n/a
213.412	0.135	426824	keystroke_Key.enter	Key.enter	n/a
213.5545	9.3235	427109	prompt	n/a	flood shipped concepts memory\n
214.5685	0.104	429137	keystroke_f	f	n/a
214.673	0.074	429346	keystroke_l	l	n/a
214.8075	0.1045	429615	keystroke_o	o	n/a
214.9575	0.134	429915	keystroke_o	o	n/a
215.0775	0.1495	430155	keystroke_d	d	n/a
215.212	0.12	430424	keystroke_Key.space	Key.space	n/a
215.557	0.1055	431114	keystroke_s	s	n/a
215.767	0.09	431534	keystroke_h	h	n/a
216.0225	0.09	432045	keystroke_i	i	n/a
216.247	0.0755	432494	keystroke_p	p	n/a
216.397	0.135	432794	keystroke_p	p	n/a
216.472	0.106	432944	keystroke_e	e	n/a
216.6665	0.1355	433333	keystroke_d	d	n/a
216.787	0.105	433574	keystroke_Key.space	Key.space	n/a
217.028	0.105	434056	keystroke_c	c	n/a
217.118	0.0895	434236	keystroke_o	o	n/a
217.357	0.1205	434714	keystroke_n	n	n/a
217.5225	0.12	435045	keystroke_c	c	n/a
217.6575	0.074	435315	keystroke_e	e	n/a
217.8525	0.105	435705	keystroke_p	p	n/a
218.077	0.12	436154	keystroke_t	t	n/a
218.212	0.12	436424	keystroke_s	s	n/a
218.512	0.09	437024	keystroke_Key.space	Key.space	n/a
218.752	0.105	437504	keystroke_c	c	n/a
218.872	0.12	437744	keystroke_o	o	n/a
219.127	0.12	438254	keystroke_n	n	n/a
219.292	0.1055	438584	keystroke_c	c	n/a
219.4125	0.104	438825	keystroke_e	e	n/a
220.2665	0.091	440533	keystroke_Key.backspace	Key.backspace	n/a
220.417	0.06	440834	keystroke_Key.backspace	Key.backspace	n/a
220.537	0.0755	441074	keystroke_Key.backspace	Key.backspace	n/a
220.672	0.0745	441344	keystroke_Key.backspace	Key.backspace	n/a
220.7915	0.1205	441583	keystroke_Key.backspace	Key.backspace	n/a
221.528	0.089	443056	keystroke_m	m	n/a
221.6025	0.0895	443205	keystroke_e	e	n/a
221.707	0.1205	443414	keystroke_m	m	n/a
221.8725	0.1505	443745	keystroke_o	o	n/a
222.0815	0.1055	444163	keystroke_r	r	n/a
222.3525	0.119	444705	keystroke_y	y	n/a
222.7265	0.15	445453	keystroke_Key.enter	Key.enter	n/a
222.8905	9.9035	445781	prompt	n/a	press commander satisfactory princess\n
223.7175	0.135	447435	keystroke_p	p	n/a
223.762	0.1355	447524	keystroke_r	r	n/a
223.867	0.0755	447734	keystroke_e	e	n/a
223.9265	0.091	447853	keystroke_s	s	n/a
224.1075	0.1045	448215	keystroke_s	s	n/a
224.2575	0.1045	448515	keystroke_Key.space	Key.space	n/a
224.512	0.1205	449024	keystroke_c	c	n/a
224.6025	0.105	449205	keystroke_o	o	n/a
224.8125	0.06	449625	keystroke_m	m	n/a
224.9325	0.0895	449865	keystroke_m	m	n/a
225.0365	0.076	450073	keystroke_a	a	n/a
225.142	0.1345	450284	keystroke_n	n	n/a
225.2615	0.0915	450523	keystroke_d	d	n/a
225.442	0.1055	450884	keystroke_e	e	n/a
225.607	0.105	451214	keystroke_r	r	n/a
225.817	0.09	451634	keystroke_Key.space	Key.space	n/a
226.2525	0.105	452505	keystroke_s	s	n/a
226.507	0.1205	453014	keystroke_a	a	n/a
226.8375	0.104	453675	keystroke_t	t	n/a
226.927	0.09	453854	keystroke_i	i	n/a
227.347	0.091	454694	keystroke_s	s	n/a
228.2325	0.0895	456465	keystroke_f	f	n/a
228.3515	0.076	456703	keystroke_a	a	n/a
228.487	0.0895	456974	keystroke_c	c	n/a
228.832	0.0905	457664	keystroke_t	t	n/a
228.952	0.12	457904	keystroke_o	o	n/a
229.1925	0.105	458385	keystroke_r	r	n/a
229.3265	0.121	458653	keystroke_y	y	n/a
230.062	0.1355	460124	keystroke_Key.space	Key.space	n/a
230.512	0.1045	461024	keystroke_p	p	n/a
230.602	0.135	461204	keystroke_r	r	n/a
230.7965	0.151	461593	keystroke_i	i	n/a
231.0965	0.136	462193	keystroke_n	n	n/a
231.1725	0.12	462345	keystroke_c	c	n/a
231.2775	0.0895	462555	keystroke_e	e	n/a
232.402	0.015	464804	keystroke_s	s	n/a
232.477	0.105	464954	keystroke_s	s	n/a
232.642	0.15	465284	keystroke_Key.enter	Key.enter	n/a
232.799	10.7955	465598	prompt	n/a	wired registry burning confirmation\n
233.542	0.12	467084	keystroke_w	w	n/a
233.722	0.1195	467444	keystroke_i	i	n/a
233.827	0.105	467654	keystroke_r	r	n/a
233.8875	0.1345	467775	keystroke_e	e	n/a
234.0975	0.0745	468195	keystroke_s	s	n/a
234.562	0.135	469124	keystroke_Key.backspace	Key.backspace	n/a
234.607	0.105	469214	keystroke_d	d	n/a
234.832	0.15	469664	keystroke_Key.space	Key.space	n/a
235.9265	0.0905	471853	keystroke_r	r	n/a
236.002	0.09	472004	keystroke_e	e	n/a
236.227	0.045	472454	keystroke_f	f	n/a
236.5575	0.0895	473115	keystroke_Key.backspace	Key.backspace	n/a
236.632	0.075	473264	keystroke_g	g	n/a
236.887	0.105	473774	keystroke_i	i	n/a
237.082	0.0905	474164	keystroke_s	s	n/a
237.7865	0.106	475573	keystroke_t	t	n/a
238.0425	0.09	476085	keystroke_r	r	n/a
238.2075	0.1195	476415	keystroke_y	y	n/a
238.6565	0.0905	477313	keystroke_Key.space	Key.space	n/a
239.227	0.1355	478454	keystroke_b	b	n/a
239.3315	0.1205	478663	keystroke_u	u	n/a
239.4365	0.1205	478873	keystroke_r	r	n/a
239.617	0.1345	479234	keystroke_n	n	n/a
239.887	0.1645	479774	keystroke_i	i	n/a
239.977	0.1655	479954	keystroke_n	n	n/a
240.067	0.09	480134	keystroke_g	g	n/a
240.3965	0.1355	480793	keystroke_Key.space	Key.space	n/a
240.802	0.105	481604	keystroke_c	c	n/a
240.877	0.1195	481754	keystroke_o	o	n/a
241.1465	0.105	482293	keystroke_n	n	n/a
241.492	0.105	482984	keystroke_f	f	n/a
241.567	0.1355	483134	keystroke_i	i	n/a
241.762	0.105	483524	keystroke_r	r	n/a
241.868	0.119	483736	keystroke_m	m	n/a
242.047	0.09	484094	keystroke_a	a	n/a
242.5125	0.1045	485025	keystroke_t	t	n/a
242.722	0.09	485444	keystroke_i	i	n/a
242.7375	0.164	485475	keystroke_o	o	n/a
242.8725	0.1195	485745	keystroke_n	n	n/a
243.442	0.1505	486884	keystroke_Key.enter	Key.enter	n/a
243.6035	9.65	487207	prompt	n/a	four rotation cohen triumph\n
244.4625	0.1045	488925	keystroke_f	f	n/a
244.567	0.105	489134	keystroke_o	o	n/a
244.837	0.1355	489674	keystroke_u	u	n/a
244.927	0.135	489854	keystroke_r	r	n/a
245.077	0.135	490154	keystroke_Key.space	Key.space	n/a
245.677	0.135	491354	keystroke_r	r	n/a
245.8265	0.1205	491653	keystroke_o	o	n/a
246.262	0.0895	492524	keystroke_t	t	n/a
246.397	0.0895	492794	keystroke_a	a	n/a
246.5925	0.12	493185	keystroke_t	t	n/a
246.7275	0.1645	493455	keystroke_i	i	n/a
246.8025	0.15	493605	keystroke_o	o	n/a
246.9685	0.149	493937	keystroke_n	n	n/a
247.2665	0.106	494533	keystroke_Key.space	Key.space	n/a
247.5825	0.1045	495165	keystroke_c	c	n/a
247.672	0.105	495344	keystroke_o	o	n/a
247.9425	0.0895	495885	keystroke_h	h	n/a
248.002	0.1355	496004	keystroke_e	e	n/a
248.167	0.1655	496334	keystroke_n	n	n/a
248.3765	0.1355	496753	keystroke_Key.space	Key.space	n/a
249.142	0.0745	498284	keystroke_t	t	n/a
249.322	0.105	498644	keystroke_r	r	n/a
249.832	0.165	499664	keystroke_i	i	n/a
250.0715	0.1205	500143	keystroke_u	u	n/a
250.4465	0.076	500893	keystroke_p	p	n/a
250.4615	0.046	500923	keystroke_o	o	n/a
251.3025	0.105	502605	keystroke_Key.backspace	Key.backspace	n/a
251.962	0.1045	503924	keystroke_Key.backspace	Key.backspace	n/a
252.3675	0.165	504735	keystroke_m	m	n/a
252.5175	0.15	505035	keystroke_p	p	n/a
252.817	0.1205	505634	keystroke_h	h	n/a
253.117	0.135	506234	keystroke_Key.enter	Key.enter	n/a
253.258	11.2905	506516	prompt	n/a	housing mean neighborhood deny\n
254.362	0.12	508724	keystroke_h	h	n/a
254.617	0.165	509234	keystroke_o	o	n/a
254.857	0.135	509714	keystroke_u	u	n/a
255.007	0.1355	510014	keystroke_s	s	n/a
255.127	0.1205	510254	keystroke_i	i	n/a
255.307	0.105	510614	keystroke_n	n	n/a
255.457	0.0755	510914	keystroke_g	g	n/a
255.862	0.09	511724	keystroke_Key.space	Key.space	n/a
256.222	0.1355	512444	keystroke_m	m	n/a
256.2975	0.121	512595	keystroke_e	e	n/a
256.4325	0.1345	512865	keystroke_a	a	n/a
256.5375	0.1195	513075	keystroke_n	n	n/a
256.762	0.12	513524	keystroke_Key.space	Key.space	n/a
257.497	0.09	514994	keystroke_n	n	n/a
257.6165	0.1205	515233	keystroke_e	e	n/a
257.992	0.12	515984	keystroke_i	i	n/a
258.637	0.135	517274	keystroke_g	g	n/a
258.727	0.12	517454	keystroke_h	h	n/a
259.3125	0.09	518625	keystroke_b	b	n/a
259.5075	0.119	519015	keystroke_o	o	n/a
260.9015	0.105	521803	keystroke_u	u	n/a
261.037	0.1195	522074	keystroke_r	r	n/a
261.412	0.075	522824	keystroke_Key.backspace	Key.backspace	n/a
261.5615	0.09	523123	keystroke_Key.backspace	Key.backspace	n/a
261.6665	0.1355	523333	keystroke_r	r	n/a
261.787	0.135	523574	keystroke_Key.space	Key.space	n/a
262.297	0.12	524594	keystroke_Key.backspace	Key.backspace	n/a
262.702	0.075	525404	keystroke_h	h	n/a
262.792	0.1045	525584	keystroke_o	o	n/a
262.9715	0.1205	525943	keystroke_o	o	n/a
263.137	0.15	526274	keystroke_d	d	n/a
263.257	0.15	526514	keystroke_Key.space	Key.space	n/a
263.677	0.06	527354	keystroke_d	d	n/a
263.842	0.1205	527684	keystroke_e	e	n/a
263.9465	0.1655	527893	keystroke_n	n	n/a
264.1265	0.1055	528253	keystroke_y	y	n/a
264.412	0.1345	528824	keystroke_Key.enter	Key.enter	n/a
264.553	9.791	529106	prompt	n/a	passes carol horizon weblogs\n
265.822	0.09	531644	keystroke_p	p	n/a
265.972	0.135	531944	keystroke_a	a	n/a
266.062	0.0905	532124	keystroke_s	s	n/a
266.257	0.105	532514	keystroke_s	s	n/a
267.052	0.12	534104	keystroke_s	s	n/a
267.262	0.12	534524	keystroke_Key.space	Key.space	n/a
267.7115	0.0755	535423	keystroke_Key.backspace	Key.backspace	n/a
267.8615	0.0755	535723	keystroke_Key.backspace	Key.backspace	n/a
267.967	0.1345	535934	keystroke_e	e	n/a
268.072	0.1205	536144	keystroke_s	s	n/a
268.3115	0.1355	536623	keystroke_Key.space	Key.space	n/a
268.8965	0.106	537793	keystroke_c	c	n/a
269.047	0.105	538094	keystroke_a	a	n/a
269.272	0.1055	538544	keystroke_r	r	n/a
269.3925	0.105	538785	keystroke_o	o	n/a
269.5725	0.12	539145	keystroke_l	l	n/a
269.9615	0.091	539923	keystroke_Key.space	Key.space	n/a
270.5315	0.0905	541063	keystroke_h	h	n/a
270.637	0.105	541274	keystroke_o	o	n/a
270.817	0.12	541634	keystroke_r	r	n/a
270.9215	0.121	541843	keystroke_i	i	n/a
271.0715	0.105	542143	keystroke_z	z	n/a
271.162	0.09	542324	keystroke_o	o	n/a
271.3725	0.1195	542745	keystroke_n	n	n/a
271.732	0.12	543464	keystroke_Key.space	Key.space	n/a
272.062	0.12	544124	keystroke_w	w	n/a
272.1075	0.135	544215	keystroke_e	e	n/a
272.4675	0.09	544935	keystroke_b	b	n/a
272.7365	0.106	545473	keystroke_l	l	n/a
272.8875	0.1495	545775	keystroke_o	o	n/a
273.832	0.105	547664	keystroke_g	g	n/a
273.922	0.12	547844	keystroke_s	s	n/a
274.207	0.135	548414	keystroke_Key.enter	Key.enter	n/a
274.3495	9.758	548699	prompt	n/a	resources operate eval miniature\n
275.1075	0.104	550215	keystroke_r	r	n/a
275.1815	0.106	550363	keystroke_e	e	n/a
275.4065	0.105	550813	keystroke_s	s	n/a
275.5425	0.12	551085	keystroke_o	o	n/a
275.8125	0.119	551625	keystroke_u	u	n/a
276.067	0.121	552134	keystroke_c	c	n/a
276.2925	0.089	552585	keystroke_e	e	n/a
276.726	0.091	553452	keystroke_Key.backspace	Key.backspace	n/a
276.907	0.105	553814	keystroke_Key.backspace	Key.backspace	n/a
277.357	0.1205	554714	keystroke_r	r	n/a
277.7315	0.1055	555463	keystroke_c	c	n/a
277.822	0.1195	555644	keystroke_e	e	n/a
277.972	0.15	555944	keystroke_s	s	n/a
278.347	0.12	556694	keystroke_Key.space	Key.space	n/a
278.962	0.105	557924	keystroke_o	o	n/a
279.112	0.15	558224	keystroke_p	p	n/a
279.2165	0.105	558433	keystroke_e	e	n/a
279.442	0.12	558884	keystroke_r	r	n/a
279.5765	0.075	559153	keystroke_a	a	n/a
279.757	0.12	559514	keystroke_t	t	n/a
279.878	0.133	559756	keystroke_e	e	n/a
280.267	0.1045	560534	keystroke_Key.space	Key.space	n/a
280.732	0.12	561464	keystroke_e	e	n/a
280.957	0.075	561914	keystroke_v	v	n/a
281.107	0.09	562214	keystroke_a	a	n/a
281.212	0.12	562424	keystroke_l	l	n/a
281.376	0.151	562752	keystroke_Key.space	Key.space	n/a
281.962	0.15	563924	keystroke_m	m	n/a
282.127	0.1495	564254	keystroke_i	i	n/a
282.292	0.1345	564584	keystroke_n	n	n/a
282.411	0.1665	564822	keystroke_i	i	n/a
282.5615	0.1655	565123	keystroke_a	a	n/a
283.282	0.09	566564	keystroke_t	t	n/a
283.552	0.12	567104	keystroke_u	u	n/a
283.6265	0.1205	567253	keystroke_r	r	n/a
283.7315	0.1055	567463	keystroke_e	e	n/a
283.9715	0.135	567943	keystroke_Key.enter	Key.enter	n/a
284.1105	8.803	568221	prompt	n/a	streets identified fitness meat\n
284.7965	0.121	569593	keystroke_s	s	n/a
285.0215	0.12	570043	keystroke_t	t	n/a
285.172	0.1495	570344	keystroke_r	r	n/a
285.3075	0.06	570615	keystroke_e	e	n/a
285.487	0.105	570974	keystroke_e	e	n/a
285.607	0.12	571214	keystroke_t	t	n/a
285.772	0.1645	571544	keystroke_s	s	n/a
285.997	0.135	571994	keystroke_Key.space	Key.space	n/a
286.492	0.1055	572984	keystroke_i	i	n/a
286.6115	0.0905	573223	keystroke_d	d	n/a
286.807	0.09	573614	keystroke_e	e	n/a
286.927	0.1055	573854	keystroke_n	n	n/a
287.152	0.1195	574304	keystroke_t	t	n/a
287.287	0.105	574574	keystroke_i	i	n/a
287.767	0.0295	575534	keystroke_f	f	n/a
287.8125	0.1345	575625	keystroke_i	i	n/a
288.3665	0.106	576733	keystroke_e	e	n/a
288.5615	0.1205	577123	keystroke_d	d	n/a
288.7865	0.1205	577573	keystroke_Key.space	Key.space	n/a
290.347	0.09	580694	keystroke_f	f	n/a
290.543	0.089	581086	keystroke_i	i	n/a
290.8265	0.1205	581653	keystroke_t	t	n/a
290.9915	0.1205	581983	keystroke_n	n	n/a
291.0965	0.12	582193	keystroke_e	e	n/a
291.2465	0.121	582493	keystroke_s	s	n/a
291.4715	0.105	582943	keystroke_s	s	n/a
291.622	0.1495	583244	keystroke_Key.space	Key.space	n/a
292.207	0.104	584414	keystroke_m	m	n/a
292.2665	0.1055	584533	keystroke_e	e	n/a
292.372	0.12	584744	keystroke_a	a	n/a
292.597	0.09	585194	keystroke_t	t	n/a
292.761	0.151	585522	keystroke_Key.enter	Key.enter	n/a
292.9185	9.7745	585837	prompt	n/a	electricity presently energy irish\n
294.217	0.12	588434	keystroke_e	e	n/a
294.397	0.12	588794	keystroke_l	l	n/a
294.487	0.105	588974	keystroke_e	e	n/a
294.952	0.045	589904	keystroke_c	c	n/a
295.102	0.0905	590204	keystroke_t	t	n/a
295.2665	0.1205	590533	keystroke_r	r	n/a
295.402	0.12	590804	keystroke_i	i	n/a
295.792	0.1055	591584	keystroke_c	c	n/a
296.002	0.12	592004	keystroke_i	i	n/a
296.227	0.105	592454	keystroke_t	t	n/a
296.631	0.121	593262	keystroke_y	y	n/a
297.097	0.105	594194	keystroke_Key.space	Key.space	n/a
297.457	0.105	594914	keystroke_p	p	n/a
297.532	0.12	595064	keystroke_r	r	n/a
297.6065	0.12	595213	keystroke_e	e	n/a
297.937	0.18	595874	keystroke_s	s	n/a
298.087	0.105	596174	keystroke_e	e	n/a
298.252	0.1345	596504	keystroke_n	n	n/a
298.537	0.09	597074	keystroke_t	t	n/a
298.7325	0.09	597465	keystroke_l	l	n/a
299.107	0.1045	598214	keystroke_y	y	n/a
299.377	0.1345	598754	keystroke_Key.space	Key.space	n/a
299.737	0.1355	599474	keystroke_e	e	n/a
300.0215	0.12	600043	keystroke_n	n	n/a
300.112	0.12	600224	keystroke_e	e	n/a
300.397	0.1345	600794	keystroke_r	r	n/a
300.697	0.106	601394	keystroke_g	g	n/a
300.892	0.1655	601784	keystroke_y	y	n/a
301.042	0.135	602084	keystroke_Key.space	Key.space	n/a
301.6115	0.121	603223	keystroke_i	i	n/a
301.717	0.135	603434	keystroke_r	r	n/a
301.807	0.15	603614	keystroke_i	i	n/a
302.002	0.135	604004	keystroke_s	s	n/a
302.2125	0.075	604425	keystroke_h	h	n/a
302.5565	0.1355	605113	keystroke_Key.enter	Key.enter	n/a
302.6975	11.8905	605395	prompt	n/a	feof lauderdale making commitments\n
303.562	0.09	607124	keystroke_f	f	n/a
304.1015	0.1205	608203	keystroke_e	e	n/a
304.207	0.119	608414	keystroke_o	o	n/a
304.372	0.105	608744	keystroke_f	f	n/a
304.552	0.105	609104	keystroke_Key.space	Key.space	n/a
305.031	0.1055	610062	keystroke_l	l	n/a
305.1215	0.1045	610243	keystroke_a	a	n/a
305.4365	0.1205	610873	keystroke_u	u	n/a
305.7515	0.106	611503	keystroke_f	f	n/a
305.873	0.1785	611746	keystroke_e	e	n/a
305.992	0.1345	611984	keystroke_r	r	n/a
306.367	0.12	612734	keystroke_d	d	n/a
306.697	0.075	613394	keystroke_Key.backspace	Key.backspace	n/a
306.846	0.061	613692	keystroke_Key.backspace	Key.backspace	n/a
306.997	0.06	613994	keystroke_Key.backspace	Key.backspace	n/a
307.117	0.075	614234	keystroke_Key.backspace	Key.backspace	n/a
307.762	0.1055	615524	keystroke_d	d	n/a
307.9125	0.179	615825	keystroke_e	e	n/a
308.0465	0.1355	616093	keystroke_r	r	n/a
308.2865	0.09	616573	keystroke_d	d	n/a
308.3915	0.1055	616783	keystroke_a	a	n/a
308.9615	0.105	617923	keystroke_l	l	n/a
309.022	0.135	618044	keystroke_e	e	n/a
309.172	0.15	618344	keystroke_Key.space	Key.space	n/a
309.7875	0.134	619575	keystroke_m	m	n/a
309.8915	0.12	619783	keystroke_a	a	n/a
309.997	0.105	619994	keystroke_k	k	n/a
310.177	0.105	620354	keystroke_i	i	n/a
310.2525	0.1185	620505	keystroke_n	n	n/a
310.357	0.1195	620714	keystroke_g	g	n/a
310.597	0.105	621194	keystroke_Key.space	Key.space	n/a
311.122	0.105	622244	keystroke_c	c	n/a
311.256	0.106	622512	keystroke_o	o	n/a
311.467	0.06	622934	keystroke_m	m	n/a
311.602	0.12	623204	keystroke_m	m	n/a
311.887	0.1495	623774	keystroke_i	i	n/a
312.6665	0.12	625333	keystroke_t	t	n/a
312.9365	0.0755	625873	keystroke_m	m	n/a
313.117	0.075	626234	keystroke_e	e	n/a
313.1315	0.0755	626263	keystroke_n	n	n/a
313.732	0.06	627464	keystroke_t	t	n/a
313.9865	0.12	627973	keystroke_s	s	n/a
314.452	0.1345	628904	keystroke_Key.enter	Key.enter	n/a
314.592	10.332	629184	prompt	n/a	california administered devices imagination\n
315.277	0.09	630554	keystroke_c	c	n/a
315.3965	0.106	630793	keystroke_a	a	n/a
315.547	0.0755	631094	keystroke_l	l	n/a
315.7275	0.1195	631455	keystroke_i	i	n/a
315.922	0.1045	631844	keystroke_f	f	n/a
316.0125	0.1355	632025	keystroke_o	o	n/a
316.162	0.1195	632324	keystroke_r	r	n/a
316.4175	0.134	632835	keystroke_n	n	n/a
316.582	0.15	633164	keystroke_i	i	n/a
316.747	0.165	633494	keystroke_a	a	n/a
316.927	0.135	633854	keystroke_Key.space	Key.space	n/a
317.197	0.105	634394	keystroke_a	a	n/a
317.317	0.135	634634	keystroke_d	d	n/a
317.542	0.12	635084	keystroke_m	m	n/a
317.632	0.195	635264	keystroke_i	i	n/a
317.812	0.1505	635624	keystroke_n	n	n/a
317.932	0.165	635864	keystroke_i	i	n/a
318.067	0.15	636134	keystroke_s	s	n/a
318.262	0.12	636524	keystroke_t	t	n/a
318.487	0.121	636974	keystroke_e	e	n/a
318.742	0.135	637484	keystroke_r	r	n/a
318.847	0.1355	637694	keystroke_e	e	n/a
319.0715	0.136	638143	keystroke_d	d	n/a
319.2965	0.12	638593	keystroke_Key.space	Key.space	n/a
319.5965	0.1205	639193	keystroke_d	d	n/a
319.822	0.1045	639644	keystroke_e	e	n/a
320.0625	0.089	640125	keystroke_v	v	n/a
320.1815	0.121	640363	keystroke_i	i	n/a
320.272	0.1355	640544	keystroke_e	e	n/a
320.4215	0.136	640843	keystroke_s	s	n/a
320.6615	0.121	641323	keystroke_Key.space	Key.space	n/a
321.412	0.15	642824	keystroke_i	i	n/a
321.772	0.12	643544	keystroke_m	m	n/a
321.907	0.1345	643814	keystroke_a	a	n/a
322.147	0.135	644294	keystroke_n	n	n/a
322.762	0.1045	645524	keystroke_Key.backspace	Key.backspace	n/a
323.092	0.12	646184	keystroke_g	g	n/a
323.2265	0.1215	646453	keystroke_i	i	n/a
323.4365	0.1205	646873	keystroke_n	n	n/a
323.542	0.135	647084	keystroke_a	a	n/a
323.902	0.1195	647804	keystroke_t	t	n/a
324.3365	0.135	648673	keystroke_i	i	n/a
324.3965	0.15	648793	keystroke_o	o	n/a
324.502	0.135	649004	keystroke_n	n	n/a
324.787	0.1345	649574	keystroke_Key.enter	Key.enter	n/a
324.928	10.6025	649856	prompt	n/a	terms counties american tell\n
325.822	0.18	651644	keystroke_t	t	n/a
326.137	0.1195	652274	keystroke_e	e	n/a
326.197	0.15	652394	keystroke_r	r	n/a
326.362	0.1505	652724	keystroke_m	m	n/a
326.5135	0.1335	653027	keystroke_s	s	n/a
326.707	0.12	653414	keystroke_Key.space	Key.space	n/a
327.2175	0.12	654435	keystroke_c	c	n/a
327.3515	0.12	654703	keystroke_o	o	n/a
327.712	0.18	655424	keystroke_u	u	n/a
327.8015	0.121	655603	keystroke_n	n	n/a
327.9665	0.1205	655933	keystroke_t	t	n/a
328.1175	0.1645	656235	keystroke_i	i	n/a
328.2065	0.1955	656413	keystroke_e	e	n/a
328.4165	0.151	656833	keystroke_s	s	n/a
328.5965	0.1355	657193	keystroke_Key.space	Key.space	n/a
328.7925	0.15	657585	keystroke_a	a	n/a
328.9725	0.179	657945	keystroke_m	m	n/a
329.182	0.105	658364	keystroke_e	e	n/a
329.3925	0.09	658785	keystroke_r	r	n/a
330.097	0.1205	660194	keystroke_i	i	n/a
330.2465	0.091	660493	keystroke_c	c	n/a
330.3815	0.136	660763	keystroke_a	a	n/a
330.996	0.1055	661992	keystroke_n	n	n/a
331.2815	0.1205	662563	keystroke_Key.space	Key.space	n/a
331.6425	0.119	663285	keystroke_e	e	n/a
331.957	0.076	663914	keystroke_l	l	n/a
332.092	0.1495	664184	keystroke_l	l	n/a
332.707	0.09	665414	keystroke_Key.backspace	Key.backspace	n/a
332.8715	0.06	665743	keystroke_Key.backspace	Key.backspace	n/a
332.9615	0.106	665923	keystroke_Key.backspace	Key.backspace	n/a
333.2465	0.031	666493	keystroke_Key.backspace	Key.backspace	n/a
333.832	0.1195	667664	keystroke_Key.space	Key.space	n/a
333.982	0.0895	667964	keystroke_t	t	n/a
334.057	0.135	668114	keystroke_e	e	n/a
334.6415	0.075	669283	keystroke_l	l	n/a
334.777	0.0895	669554	keystroke_l	l	n/a
335.407	0.119	670814	keystroke_Key.enter	Key.enter	n/a
335.5355	7.178	671071	prompt	n/a	capacity well heated expert\n
336.352	0.0895	672704	keystroke_c	c	n/a
336.457	0.09	672914	keystroke_a	a	n/a
336.607	0.105	673214	keystroke_p	p	n/a
336.697	0.135	673394	keystroke_a	a	n/a
337.237	0.0895	674474	keystroke_c	c	n/a
337.3115	0.0905	674623	keystroke_i	i	n/a
337.522	0.12	675044	keystroke_t	t	n/a
338.302	0.135	676604	keystroke_y	y	n/a
338.676	0.136	677352	keystroke_Key.space	Key.space	n/a
338.932	0.1195	677864	keystroke_w	w	n/a
339.007	0.1045	678014	keystroke_e	e	n/a
339.097	0.075	678194	keystroke_l	l	n/a
339.2465	0.1055	678493	keystroke_l	l	n/a
339.487	0.1195	678974	keystroke_Key.space	Key.space	n/a
339.937	0.09	679874	keystroke_h	h	n/a
339.982	0.135	679964	keystroke_e	e	n/a
340.087	0.12	680174	keystroke_a	a	n/a
340.2815	0.1205	680563	keystroke_t	t	n/a
340.387	0.1355	680774	keystroke_e	e	n/a
340.5965	0.181	681193	keystroke_d	d	n/a
340.807	0.12	681614	keystroke_Key.space	Key.space	n/a
341.077	0.1205	682154	keystroke_e	e	n/a
341.3165	0.121	682633	keystroke_x	x	n/a
341.4665	0.091	682933	keystroke_p	p	n/a
341.7525	0.1645	683505	keystroke_e	e	n/a
341.8725	0.1345	683745	keystroke_r	r	n/a
342.1265	0.105	684253	keystroke_t	t	n/a
342.6965	0.015	685393	keystroke_Key.enter	Key.enter	n/a
342.7185	15.6255	685437	prompt	n/a	showers draft physicians coordinator\n
343.432	0.12	686864	keystroke_s	s	n/a
343.627	0.105	687254	keystroke_h	h	n/a
343.882	0.1345	687764	keystroke_o	o	n/a
343.9565	0.165	687913	keystroke_w	w	n/a
344.047	0.18	688094	keystroke_e	e	n/a
344.197	0.135	688394	keystroke_r	r	n/a
345.7275	0.0885	691455	keystroke_s	s	n/a
346.761	0.076	693522	keystroke_Key.space	Key.space	n/a
347.242	0.09	694484	keystroke_d	d	n/a
347.4675	0.1485	694935	keystroke_r	r	n/a
347.677	0.1195	695354	keystroke_a	a	n/a
348.3525	0.059	696705	keystroke_f	f	n/a
348.487	0.1045	696974	keystroke_t	t	n/a
348.6965	0.0905	697393	keystroke_Key.space	Key.space	n/a
349.537	0.09	699074	keystroke_p	p	n/a
350.0925	0.134	700185	keystroke_h	h	n/a
350.3625	0.1195	700725	keystroke_y	y	n/a
350.602	0.1055	701204	keystroke_s	s	n/a
350.722	0.09	701444	keystroke_i	i	n/a
352.102	0.09	704204	keystroke_c	c	n/a
352.177	0.075	704354	keystroke_i	i	n/a
352.297	0.105	704594	keystroke_a	a	n/a
352.4165	0.1055	704833	keystroke_n	n	n/a
352.537	0.105	705074	keystroke_s	s	n/a
353.0465	0.09	706093	keystroke_Key.space	Key.space	n/a
355.2115	0.04	710423	keystroke_c	c	n/a
355.2225	0.09	710445	keystroke_o	o	n/a
355.4915	0.09	710983	keystroke_o	o	n/a
355.897	0.12	711794	keystroke_r	r	n/a
356.557	0.09	713114	keystroke_d	d	n/a
356.632	0.105	713264	keystroke_i	i	n/a
356.842	0.12	713684	keystroke_n	n	n/a
356.9315	0.1205	713863	keystroke_a	a	n/a
357.172	0.105	714344	keystroke_t	t	n/a
357.8765	0.075	715753	keystroke_o	o	n/a
357.937	0.0905	715874	keystroke_r	r	n/a
358.2065	0.135	716413	keystroke_Key.enter	Key.enter	n/a
358.3505	7.298	716701	prompt	n/a	paint adopted bingo organizer\n
359.167	0.105	718334	keystroke_p	p	n/a
359.227	0.075	718454	keystroke_a	a	n/a
359.4365	0.1355	718873	keystroke_i	i	n/a
359.5265	0.12	719053	keystroke_n	n	n/a
359.662	0.105	719324	keystroke_t	t	n/a
359.947	0.075	719894	keystroke_Key.space	Key.space	n/a
360.217	0.075	720434	keystroke_a	a	n/a
360.307	0.135	720614	keystroke_d	d	n/a
360.517	0.2095	721034	keystroke_o	o	n/a
360.682	0.1345	721364	keystroke_p	p	n/a
360.9515	0.0905	721903	keystroke_t	t	n/a
361.0875	0.1195	722175	keystroke_e	e	n/a
361.2825	0.1045	722565	keystroke_d	d	n/a
361.957	0.075	723914	keystroke_Key.space	Key.space	n/a
362.377	0.105	724754	keystroke_b	b	n/a
362.467	0.075	724934	keystroke_i	i	n/a
362.6165	0.0905	725233	keystroke_n	n	n/a
362.708	0.089	725416	keystroke_g	g	n/a
362.887	0.1355	725774	keystroke_o	o	n/a
363.442	0.119	726884	keystroke_Key.space	Key.space	n/a
363.9815	0.12	727963	keystroke_o	o	n/a
364.0865	0.12	728173	keystroke_r	r	n/a
364.357	0.0745	728714	keystroke_g	g	n/a
364.537	0.075	729074	keystroke_a	a	n/a
364.777	0.135	729554	keystroke_n	n	n/a
364.897	0.1355	729794	keystroke_i	i	n/a
365.0465	0.1055	730093	keystroke_z	z	n/a
365.212	0.165	730424	keystroke_e	e	n/a
365.3315	0.1345	730663	keystroke_r	r	n/a
365.527	0.12	731054	keystroke_Key.enter	Key.enter	n/a
365.652	10.3025	731304	prompt	n/a	assault pair bang courtesy\n
366.337	0.1205	732674	keystroke_a	a	n/a
366.4275	0.1055	732855	keystroke_s	s	n/a
366.607	0.15	733214	keystroke_s	s	n/a
366.7415	0.105	733483	keystroke_a	a	n/a
367.0115	0.09	734023	keystroke_u	u	n/a
367.2365	0.135	734473	keystroke_l	l	n/a
367.387	0.091	734774	keystroke_t	t	n/a
367.702	0.09	735404	keystroke_Key.space	Key.space	n/a
368.257	0.1195	736514	keystroke_p	p	n/a
368.362	0.0745	736724	keystroke_a	a	n/a
368.557	0.1195	737114	keystroke_i	i	n/a
368.6915	0.1055	737383	keystroke_r	r	n/a
368.8865	0.0905	737773	keystroke_Key.space	Key.space	n/a
369.6965	0.1355	739393	keystroke_b	b	n/a
369.802	0.09	739604	keystroke_a	a	n/a
369.952	0.105	739904	keystroke_n	n	n/a
370.117	0.1195	740234	keystroke_g	g	n/a
370.7165	0.1055	741433	keystroke_Key.space	Key.space	n/a
371.0315	0.121	742063	keystroke_c	c	n/a
371.1375	0.0895	742275	keystroke_o	o	n/a
371.3925	0.1345	742785	keystroke_u	u	n/a
371.917	0.09	743834	keystroke_r	r	n/a
372.082	0.105	744164	keystroke_t	t	n/a
372.217	0.15	744434	keystroke_e	e	n/a
372.742	0.0905	745484	keystroke_s	s	n/a
372.9375	0.119	745875	keystroke_y	y	n/a
373.1465	0.1055	746293	keystroke_Key.space	Key.space	n/a
373.822	0.1355	747644	keystroke_Key.backspace	Key.backspace	n/a
374.077	0.135	748154	keystroke_]	]	n/a
375.547	0.09	751094	keystroke_Key.backspace	Key.backspace	n/a
375.832	0.12	751664	keystroke_Key.enter	Key.enter	n/a
375.9585	7.8555	751917	prompt	n/a	implement pizza basket distinction\n
377.122	0.1495	754244	keystroke_i	i	n/a
377.2115	0.1205	754423	keystroke_m	m	n/a
377.452	0.09	754904	keystroke_p	p	n/a
377.6015	0.1205	755203	keystroke_l	l	n/a
377.706	0.091	755412	keystroke_e	e	n/a
377.8715	0.1355	755743	keystroke_m	m	n/a
377.9615	0.121	755923	keystroke_e	e	n/a
378.1275	0.1495	756255	keystroke_n	n	n/a
378.262	0.12	756524	keystroke_t	t	n/a
378.457	0.105	756914	keystroke_Key.space	Key.space	n/a
378.922	0.075	757844	keystroke_p	p	n/a
379.1175	0.105	758235	keystroke_i	i	n/a
379.1925	0.089	758385	keystroke_z	z	n/a
379.3715	0.061	758743	keystroke_z	z	n/a
379.5065	0.15	759013	keystroke_a	a	n/a
379.6715	0.136	759343	keystroke_Key.space	Key.space	n/a
380.122	0.0745	760244	keystroke_b	b	n/a
380.212	0.1345	760424	keystroke_a	a	n/a
380.2565	0.15	760513	keystroke_s	s	n/a
380.468	0.134	760936	keystroke_k	k	n/a
380.5875	0.1645	761175	keystroke_e	e	n/a
380.812	0.105	761624	keystroke_t	t	n/a
381.2615	0.09	762523	keystroke_Key.space	Key.space	n/a
381.5465	0.1055	763093	keystroke_d	d	n/a
381.682	0.1195	763364	keystroke_i	i	n/a
382.0575	0.104	764115	keystroke_s	s	n/a
382.402	0.1045	764804	keystroke_t	t	n/a
382.5515	0.1205	765103	keystroke_i	i	n/a
382.7465	0.1205	765493	keystroke_n	n	n/a
382.8825	0.0895	765765	keystroke_c	c	n/a
383.122	0.12	766244	keystroke_t	t	n/a
383.197	0.1805	766394	keystroke_i	i	n/a
383.2565	0.166	766513	keystroke_o	o	n/a
383.3625	0.1495	766725	keystroke_n	n	n/a
383.707	0.1045	767414	keystroke_Key.enter	Key.enter	n/a
383.818	11.9385	767636	prompt	n/a	fiji preparing nominations offshore\n
384.907	0.09	769814	keystroke_f	f	n/a
384.967	0.135	769934	keystroke_i	i	n/a
385.342	0.12	770684	keystroke_j	j	n/a
385.432	0.135	770864	keystroke_i	i	n/a
386.467	0.09	772934	keystroke_Key.space	Key.space	n/a
386.782	0.105	773564	keystroke_p	p	n/a
386.827	0.105	773654	keystroke_r	r	n/a
386.902	0.135	773804	keystroke_e	e	n/a
387.2015	0.1505	774403	keystroke_p	p	n/a
387.3215	0.105	774643	keystroke_a	a	n/a
387.997	0.09	775994	keystroke_r	r	n/a
388.117	0.135	776234	keystroke_i	i	n/a
388.237	0.105	776474	keystroke_n	n	n/a
388.372	0.09	776744	keystroke_g	g	n/a
388.5515	0.1055	777103	keystroke_Key.space	Key.space	n/a
389.107	0.1645	778214	keystroke_n	n	n/a
389.212	0.15	778424	keystroke_i	i	n/a
389.437	0.165	778874	keystroke_m	m	n/a
389.5565	0.1205	779113	keystroke_i	i	n/a
389.917	0.06	779834	keystroke_Key.backspace	Key.backspace	n/a
390.037	0.0745	780074	keystroke_Key.backspace	Key.backspace	n/a
390.157	0.09	780314	keystroke_Key.backspace	Key.backspace	n/a
390.307	0.045	780614	keystroke_Key.backspace	Key.backspace	n/a
391.2675	0.135	782535	keystroke_n	n	n/a
391.3565	0.165	782713	keystroke_o	o	n/a
391.5675	0.1495	783135	keystroke_m	m	n/a
391.688	0.149	783376	keystroke_i	i	n/a
391.8665	0.135	783733	keystroke_n	n	n/a
391.9865	0.121	783973	keystroke_a	a	n/a
392.257	0.105	784514	keystroke_t	t	n/a
392.332	0.1505	784664	keystroke_i	i	n/a
392.407	0.135	784814	keystroke_o	o	n/a
392.512	0.12	785024	keystroke_n	n	n/a
392.647	0.105	785294	keystroke_s	s	n/a
393.247	0.0145	786494	keystroke_Key.space	Key.space	n/a
393.8315	0.1055	787663	keystroke_o	o	n/a
394.102	0.06	788204	keystroke_f	f	n/a
394.267	0.0745	788534	keystroke_f	f	n/a
394.462	0.1195	788924	keystroke_s	s	n/a
394.537	0.15	789074	keystroke_h	h	n/a
395.212	0.135	790424	keystroke_o	o	n/a
395.3015	0.0905	790603	keystroke_r	r	n/a
395.362	0.135	790724	keystroke_e	e	n/a
395.617	0.135	791234	keystroke_Key.enter	Key.enter	n/a
395.7695	6.0895	791539	prompt	n/a	modules gallery swimming had\n
396.532	0.105	793064	keystroke_m	m	n/a
396.607	0.12	793214	keystroke_o	o	n/a
396.801	0.1055	793602	keystroke_d	d	n/a
396.952	0.0745	793904	keystroke_u	u	n/a
397.1315	0.1505	794263	keystroke_l	l	n/a
397.177	0.1205	794354	keystroke_e	e	n/a
397.313	0.179	794626	keystroke_s	s	n/a
397.5065	0.1205	795013	keystroke_Key.space	Key.space	n/a
397.9265	0.045	795853	keystroke_g	g	n/a
398.167	0.075	796334	keystroke_a	a	n/a
398.317	0.0895	796634	keystroke_l	l	n/a
398.4665	0.1205	796933	keystroke_l	l	n/a
398.6025	0.119	797205	keystroke_e	e	n/a
398.7815	0.135	797563	keystroke_r	r	n/a
399.037	0.1495	798074	keystroke_y	y	n/a
399.2165	0.15	798433	keystroke_Key.space	Key.space	n/a
399.682	0.0895	799364	keystroke_s	s	n/a
399.877	0.135	799754	keystroke_w	w	n/a
400.027	0.165	800054	keystroke_i	i	n/a
400.222	0.06	800444	keystroke_m	m	n/a
400.3875	0.0595	800775	keystroke_m	m	n/a
400.492	0.15	800984	keystroke_i	i	n/a
400.567	0.135	801134	keystroke_n	n	n/a
400.627	0.135	801254	keystroke_g	g	n/a
400.867	0.09	801734	keystroke_Key.space	Key.space	n/a
401.392	0.135	802784	keystroke_h	h	n/a
401.452	0.09	802904	keystroke_a	a	n/a
401.512	0.135	803024	keystroke_d	d	n/a
401.7065	0.15	803413	keystroke_Key.enter	Key.enter	n/a
401.8635	7.0595	803727	prompt	n/a	working sometimes hole oakland\n
402.4865	0.105	804973	keystroke_w	w	n/a
402.6215	0.1205	805243	keystroke_o	o	n/a
402.892	0.1195	805784	keystroke_r	r	n/a
403.027	0.1355	806054	keystroke_k	k	n/a
403.192	0.045	806384	keystroke_k	k	n/a
403.252	0.1495	806504	keystroke_i	i	n/a
403.297	0.1645	806594	keystroke_n	n	n/a
403.4625	0.1045	806925	keystroke_g	g	n/a
403.7465	0.0895	807493	keystroke_Key.space	Key.space	n/a
404.2125	0.0895	808425	keystroke_s	s	n/a
404.317	0.135	808634	keystroke_o	o	n/a
404.497	0.105	808994	keystroke_m	m	n/a
404.557	0.105	809114	keystroke_e	e	n/a
404.8265	0.0905	809653	keystroke_t	t	n/a
404.8715	0.225	809743	keystroke_i	i	n/a
405.082	0.15	810164	keystroke_m	m	n/a
405.262	0.18	810524	keystroke_e	e	n/a
405.457	0.09	810914	keystroke_s	s	n/a
405.667	0.1045	811334	keystroke_Key.space	Key.space	n/a
406.522	0.09	813044	keystroke_h	h	n/a
406.5965	0.1055	813193	keystroke_o	o	n/a
406.777	0.105	813554	keystroke_l	l	n/a
406.821	0.1355	813642	keystroke_e	e	n/a
406.9415	0.105	813883	keystroke_Key.space	Key.space	n/a
407.467	0.105	814934	keystroke_o	o	n/a
407.573	0.104	815146	keystroke_a	a	n/a
407.692	0.12	815384	keystroke_k	k	n/a
407.8865	0.1505	815773	keystroke_l	l	n/a
408.007	0.105	816014	keystroke_a	a	n/a
408.232	0.1045	816464	keystroke_n	n	n/a
408.412	0.12	816824	keystroke_d	d	n/a
408.787	0.1345	817574	keystroke_Key.enter	Key.enter	n/a
408.9265	13.767	817853	prompt	n/a	jersey sensitivity uniprotkb philosophy\n
409.867	0.105	819734	keystroke_j	j	n/a
409.9265	0.1505	819853	keystroke_e	e	n/a
410.0025	0.134	820005	keystroke_r	r	n/a
410.1975	0.135	820395	keystroke_s	s	n/a
410.467	0.075	820934	keystroke_y	y	n/a
410.9915	0.105	821983	keystroke_Key.backspace	Key.backspace	n/a
411.0815	0.1205	822163	keystroke_e	e	n/a
411.142	0.12	822284	keystroke_r	r	n/a
412.012	0.0895	824024	keystroke_Key.backspace	Key.backspace	n/a
412.117	0.105	824234	keystroke_y	y	n/a
412.371	0.1055	824742	keystroke_Key.space	Key.space	n/a
412.6265	0.18	825253	keystroke_s	s	n/a
412.7615	0.1055	825523	keystroke_e	e	n/a
413.047	0.105	826094	keystroke_n	n	n/a
413.167	0.1055	826334	keystroke_s	s	n/a
413.3315	0.12	826663	keystroke_i	i	n/a
413.6015	0.1055	827203	keystroke_t	t	n/a
413.6625	0.1045	827325	keystroke_i	i	n/a
413.977	0.06	827954	keystroke_v	v	n/a
414.052	0.06	828104	keystroke_i	i	n/a
414.276	0.106	828552	keystroke_t	t	n/a
414.366	0.121	828732	keystroke_y	y	n/a
414.8165	0.1205	829633	keystroke_Key.space	Key.space	n/a
415.597	0.12	831194	keystroke_u	u	n/a
415.672	0.2105	831344	keystroke_n	n	n/a
415.8675	0.1645	831735	keystroke_i	i	n/a
417.3075	0.1045	834615	keystroke_p	p	n/a
417.3965	0.1205	834793	keystroke_r	r	n/a
417.5015	0.12	835003	keystroke_o	o	n/a
418.7765	0.105	837553	keystroke_t	t	n/a
419.182	0.105	838364	keystroke_k	k	n/a
419.5575	0.075	839115	keystroke_b	b	n/a
419.8715	0.1055	839743	keystroke_Key.space	Key.space	n/a
420.547	0.1345	841094	keystroke_p	p	n/a
420.742	0.1195	841484	keystroke_h	h	n/a
420.8465	0.105	841693	keystroke_i	i	n/a
421.071	0.091	842142	keystroke_l	l	n/a
421.2215	0.12	842443	keystroke_o	o	n/a
421.372	0.12	842744	keystroke_s	s	n/a
421.4765	0.1355	842953	keystroke_o	o	n/a
421.762	0.105	843524	keystroke_p	p	n/a
421.9265	0.1045	843853	keystroke_h	h	n/a
422.197	0.12	844394	keystroke_y	y	n/a
422.557	0.135	845114	keystroke_Key.enter	Key.enter	n/a
422.698	5.3805	845396	prompt	n/a	sandwich rail dance nurses\n
423.412	0.1045	846824	keystroke_s	s	n/a
423.5915	0.1055	847183	keystroke_a	a	n/a
423.712	0.105	847424	keystroke_n	n	n/a
423.8025	0.135	847605	keystroke_d	d	n/a
424.1315	0.105	848263	keystroke_w	w	n/a
424.357	0.135	848714	keystroke_i	i	n/a
424.522	0.1045	849044	keystroke_c	c	n/a
424.656	0.1215	849312	keystroke_h	h	n/a
424.852	0.1345	849704	keystroke_Key.space	Key.space	n/a
425.1525	0.09	850305	keystroke_r	r	n/a
425.2565	0.151	850513	keystroke_a	a	n/a
425.4215	0.106	850843	keystroke_i	i	n/a
425.6175	0.1195	851235	keystroke_l	l	n/a
425.752	0.1045	851504	keystroke_Key.space	Key.space	n/a
425.977	0.12	851954	keystroke_d	d	n/a
426.082	0.09	852164	keystroke_a	a	n/a
426.217	0.12	852434	keystroke_n	n	n/a
426.337	0.105	852674	keystroke_c	c	n/a
426.427	0.1495	852854	keystroke_e	e	n/a
426.5615	0.151	853123	keystroke_Key.space	Key.space	n/a
427.027	0.1505	854054	keystroke_n	n	n/a
427.102	0.135	854204	keystroke_u	u	n/a
427.222	0.15	854444	keystroke_r	r	n/a
427.477	0.15	854954	keystroke_s	s	n/a
427.5815	0.1355	855163	keystroke_e	e	n/a
427.732	0.09	855464	keystroke_s	s	n/a
427.927	0.15	855854	keystroke_Key.enter	Key.enter	n/a
428.083	7.916	856166	prompt	n/a	ties intermediate acute switch\n
428.7965	0.09	857593	keystroke_t	t	n/a
428.9015	0.106	857803	keystroke_i	i	n/a
429.022	0.18	858044	keystroke_e	e	n/a
429.217	0.12	858434	keystroke_s	s	n/a
429.427	0.135	858854	keystroke_Key.space	Key.space	n/a
430.0125	0.134	860025	keystroke_i	i	n/a
430.1015	0.106	860203	keystroke_n	n	n/a
430.2525	0.1345	860505	keystroke_t	t	n/a
430.402	0.18	860804	keystroke_e	e	n/a
430.507	0.135	861014	keystroke_r	r	n/a
430.897	0.15	861794	keystroke_m	m	n/a
431.317	0.1055	862634	keystroke_e	e	n/a
431.962	0.105	863924	keystroke_d	d	n/a
432.0515	0.1205	864103	keystroke_i	i	n/a
432.142	0.1345	864284	keystroke_a	a	n/a
432.381	0.091	864762	keystroke_t	t	n/a
432.457	0.135	864914	keystroke_e	e	n/a
432.862	0.0895	865724	keystroke_Key.space	Key.space	n/a
433.237	0.105	866474	keystroke_a	a	n/a
433.388	0.1195	866776	keystroke_c	c	n/a
433.5965	0.1205	867193	keystroke_u	u	n/a
433.6715	0.0905	867343	keystroke_t	t	n/a
433.777	0.135	867554	keystroke_e	e	n/a
434.2715	0.136	868543	keystroke_Key.space	Key.space	n/a
434.542	0.075	869084	keystroke_s	s	n/a
434.7375	0.1045	869475	keystroke_w	w	n/a
434.917	0.105	869834	keystroke_i	i	n/a
435.142	0.105	870284	keystroke_t	t	n/a
435.382	0.105	870764	keystroke_c	c	n/a
435.533	0.119	871066	keystroke_h	h	n/a
435.8615	0.135	871723	keystroke_Key.enter	Key.enter	n/a
436.003	11.486	872006	prompt	n/a	supplemental troy kernel genetics\n
436.672	0.105	873344	keystroke_s	s	n/a
437.0165	0.1055	874033	keystroke_u	u	n/a
437.857	0.105	875714	keystroke_p	p	n/a
438.0375	0.1345	876075	keystroke_p	p	n/a
438.337	0.135	876674	keystroke_l	l	n/a
438.427	0.12	876854	keystroke_e	e	n/a
438.742	0.045	877484	keystroke_m	m	n/a
438.757	0.105	877514	keystroke_e	e	n/a
439.1775	0.134	878355	keystroke_n	n	n/a
439.3125	0.104	878625	keystroke_t	t	n/a
439.507	0.09	879014	keystroke_a	a	n/a
439.807	0.15	879614	keystroke_l	l	n/a
440.2415	0.15	880483	keystroke_Key.space	Key.space	n/a
440.632	0.09	881264	keystroke_t	t	n/a
440.797	0.105	881594	keystroke_r	r	n/a
440.962	0.0745	881924	keystroke_i	i	n/a
441.3215	0.105	882643	keystroke_Key.backspace	Key.backspace	n/a
441.577	0.09	883154	keystroke_o	o	n/a
441.9675	0.1345	883935	keystroke_y	y	n/a
442.147	0.1045	884294	keystroke_Key.space	Key.space	n/a
442.8225	0.134	885645	keystroke_k	k	n/a
442.9115	0.106	885823	keystroke_e	e	n/a
443.0765	0.135	886153	keystroke_r	r	n/a
443.227	0.1355	886454	keystroke_n	n	n/a
443.347	0.105	886694	keystroke_e	e	n/a
443.5115	0.151	887023	keystroke_l	l	n/a
444.082	0.09	888164	keystroke_Key.space	Key.space	n/a
444.832	0.045	889664	keystroke_g	g	n/a
444.892	0.105	889784	keystroke_e	e	n/a
445.117	0.1355	890234	keystroke_n	n	n/a
445.177	0.1505	890354	keystroke_e	e	n/a
445.402	0.119	890804	keystroke_r	r	n/a
445.9265	0.1055	891853	keystroke_Key.backspace	Key.backspace	n/a
446.017	0.12	892034	keystroke_t	t	n/a
446.272	0.1505	892544	keystroke_i	i	n/a
446.423	0.134	892846	keystroke_c	c	n/a
446.677	0.135	893354	keystroke_s	s	n/a
447.3365	0.1505	894673	keystroke_Key.enter	Key.enter	n/a
447.493	12.2055	894986	prompt	n/a	existed triumph elite bradley\n
448.312	0.12	896624	keystroke_e	e	n/a
448.507	0.15	897014	keystroke_x	x	n/a
448.642	0.12	897284	keystroke_i	i	n/a
448.822	0.15	897644	keystroke_s	s	n/a
449.122	0.09	898244	keystroke_t	t	n/a
449.227	0.12	898454	keystroke_e	e	n/a
449.4215	0.136	898843	keystroke_d	d	n/a
449.992	0.1195	899984	keystroke_Key.space	Key.space	n/a
450.4875	0.0745	900975	keystroke_t	t	n/a
450.6665	0.105	901333	keystroke_r	r	n/a
451.2215	0.12	902443	keystroke_i	i	n/a
451.4465	0.105	902893	keystroke_u	u	n/a
452.4515	0.2105	904903	keystroke_p	p	n/a
454.072	0.1345	908144	keystroke_Key.backspace	Key.backspace	n/a
454.822	0.09	909644	keystroke_m	m	n/a
454.852	0.18	909704	keystroke_p	p	n/a
455.2715	0.1045	910543	keystroke_h	h	n/a
455.947	0.0745	911894	keystroke_Key.space	Key.space	n/a
456.0975	0.119	912195	keystroke_e	e	n/a
456.2025	0.1045	912405	keystroke_l	l	n/a
456.411	0.151	912822	keystroke_i	i	n/a
456.517	0.1505	913034	keystroke_t	t	n/a
456.6815	0.135	913363	keystroke_e	e	n/a
456.922	0.12	913844	keystroke_Key.space	Key.space	n/a
457.672	0.105	915344	keystroke_b	b	n/a
457.778	0.119	915556	keystroke_r	r	n/a
457.9265	0.135	915853	keystroke_a	a	n/a
458.0765	0.1205	916153	keystroke_d	d	n/a
458.542	0.1045	917084	keystroke_l	l	n/a
458.602	0.1345	917204	keystroke_e	e	n/a
459.037	0.1045	918074	keystroke_y	y	n/a
459.5615	0.1355	919123	keystroke_Key.enter	Key.enter	n/a
459.705	12.5635	919410	prompt	n/a	numerical markers heater plumbing\n
460.7615	0.1355	921523	keystroke_n	n	n/a
460.8365	0.0755	921673	keystroke_u	u	n/a
461.017	0.135	922034	keystroke_m	m	n/a
461.062	0.105	922124	keystroke_e	e	n/a
461.2715	0.0905	922543	keystroke_r	r	n/a
461.347	0.12	922694	keystroke_i	i	n/a
461.482	0.12	922964	keystroke_a	a	n/a
461.9465	0.0755	923893	keystroke_Key.backspace	Key.backspace	n/a
462.097	0.0445	924194	keystroke_Key.backspace	Key.backspace	n/a
462.202	0.09	924404	keystroke_Key.backspace	Key.backspace	n/a
462.8325	0.0745	925665	keystroke_r	r	n/a
462.892	0.119	925784	keystroke_i	i	n/a
463.027	0.105	926054	keystroke_a	a	n/a
463.237	0.09	926474	keystroke_c	c	n/a
463.642	0.105	927284	keystroke_Key.backspace	Key.backspace	n/a
463.7915	0.1205	927583	keystroke_Key.backspace	Key.backspace	n/a
463.9135	0.073	927827	keystroke_c	c	n/a
464.017	0.1205	928034	keystroke_a	a	n/a
464.182	0.105	928364	keystroke_l	l	n/a
464.482	0.1195	928964	keystroke_Key.space	Key.space	n/a
465.1565	0.105	930313	keystroke_m	m	n/a
465.1865	0.105	930373	keystroke_a	a	n/a
465.3665	0.1205	930733	keystroke_r	r	n/a
465.4875	0.1345	930975	keystroke_k	k	n/a
466.012	0.135	932024	keystroke_e	e	n/a
466.0865	0.106	932173	keystroke_r	r	n/a
466.252	0.135	932504	keystroke_s	s	n/a
466.4615	0.105	932923	keystroke_Key.space	Key.space	n/a
467.0765	0.1055	934153	keystroke_h	h	n/a
467.092	0.1355	934184	keystroke_e	e	n/a
467.2115	0.0905	934423	keystroke_a	a	n/a
467.3765	0.09	934753	keystroke_t	t	n/a
467.4815	0.211	934963	keystroke_e	e	n/a
467.6165	0.1355	935233	keystroke_r	r	n/a
467.8565	0.105	935713	keystroke_Key.space	Key.space	n/a
468.3365	0.12	936673	keystroke_p	p	n/a
468.532	0.165	937064	keystroke_l	l	n/a
468.862	0.1495	937724	keystroke_u	u	n/a
469.0115	0.12	938023	keystroke_m	m	n/a
469.4325	0.119	938865	keystroke_b	b	n/a
469.6415	0.0905	939283	keystroke_l	l	n/a
469.836	0.2105	939672	keystroke_i	i	n/a
469.987	0.1195	939974	keystroke_n	n	n/a
470.0765	0.105	940153	keystroke_g	g	n/a
471.112	0.0595	942224	keystroke_\	\	n/a
471.937	0.0745	943874	keystroke_Key.backspace	Key.backspace	n/a
472.207	0.0595	944414	keystroke_Key.enter	Key.enter	n/a
472.271	8.9525	944542	prompt	n/a	furnished scan ecommerce comic\n
473.288	0.074	946576	keystroke_f	f	n/a
473.4065	0.12	946813	keystroke_u	u	n/a
473.481	0.0905	946962	keystroke_r	r	n/a
473.677	0.24	947354	keystroke_n	n	n/a
473.8575	0.149	947715	keystroke_i	i	n/a
473.902	0.045	947804	keystroke_o	o	n/a
473.9765	0.1205	947953	keystroke_s	s	n/a
474.1865	0.1055	948373	keystroke_h	h	n/a
474.5765	0.075	949153	keystroke_Key.backspace	Key.backspace	n/a
474.7265	0.06	949453	keystroke_Key.backspace	Key.backspace	n/a
474.8615	0.045	949723	keystroke_Key.backspace	Key.backspace	n/a
475.402	0.0895	950804	keystroke_s	s	n/a
475.4765	0.075	950953	keystroke_h	h	n/a
475.582	0.0895	951164	keystroke_e	e	n/a
475.7465	0.15	951493	keystroke_d	d	n/a
475.957	0.1195	951914	keystroke_Key.space	Key.space	n/a
476.6615	0.12	953323	keystroke_s	s	n/a
476.8115	0.0905	953623	keystroke_c	c	n/a
476.9465	0.1055	953893	keystroke_a	a	n/a
477.0815	0.1345	954163	keystroke_n	n	n/a
477.5465	0.0745	955093	keystroke_Key.space	Key.space	n/a
477.967	0.0745	955934	keystroke_e	e	n/a
478.237	0.075	956474	keystroke_c	c	n/a
478.477	0.09	956954	keystroke_o	o	n/a
478.657	0.0745	957314	keystroke_m	m	n/a
478.792	0.1345	957584	keystroke_m	m	n/a
479.1215	0.135	958243	keystroke_e	e	n/a
479.1965	0.1205	958393	keystroke_r	r	n/a
479.6165	0.1055	959233	keystroke_c	c	n/a
479.7065	0.18	959413	keystroke_e	e	n/a
479.917	0.12	959834	keystroke_Key.space	Key.space	n/a
480.307	0.135	960614	keystroke_c	c	n/a
480.457	0.089	960914	keystroke_o	o	n/a
480.6065	0.15	961213	keystroke_m	m	n/a
480.7265	0.12	961453	keystroke_i	i	n/a
480.8615	0.1195	961723	keystroke_c	c	n/a
481.0715	0.15	962143	keystroke_Key.enter	Key.enter	n/a
481.228	5.5005	962456	prompt	n/a	bent lifetime meter trends\n
482.077	0.105	964154	keystroke_b	b	n/a
482.152	0.0905	964304	keystroke_e	e	n/a
482.2865	0.135	964573	keystroke_n	n	n/a
482.4065	0.1055	964813	keystroke_t	t	n/a
482.647	0.105	965294	keystroke_Key.space	Key.space	n/a
483.007	0.075	966014	keystroke_l	l	n/a
483.1715	0.136	966343	keystroke_i	i	n/a
483.3215	0.09	966643	keystroke_f	f	n/a
483.427	0.135	966854	keystroke_e	e	n/a
483.637	0.1045	967274	keystroke_t	t	n/a
483.772	0.15	967544	keystroke_i	i	n/a
483.907	0.105	967814	keystroke_m	m	n/a
483.9815	0.1805	967963	keystroke_e	e	n/a
484.177	0.1045	968354	keystroke_Key.space	Key.space	n/a
484.4765	0.135	968953	keystroke_m	m	n/a
484.5515	0.1055	969103	keystroke_e	e	n/a
484.7615	0.06	969523	keystroke_t	t	n/a
484.7765	0.0605	969553	keystroke_r	r	n/a
484.852	0.21	969704	keystroke_e	e	n/a
484.9565	0.2255	969913	keystroke_r	r	n/a
485.242	0.1495	970484	keystroke_Key.space	Key.space	n/a
485.602	0.1045	971204	keystroke_t	t	n/a
485.7375	0.1195	971475	keystroke_e	e	n/a
485.8275	0.149	971655	keystroke_r	r	n/a
486.0965	0.1355	972193	keystroke_n	n	n/a
486.1565	0.1505	972313	keystroke_d	d	n/a
486.2765	0.1495	972553	keystroke_s	s	n/a
486.591	0.136	973182	keystroke_Key.enter	Key.enter	n/a
486.732	6.282	973464	prompt	n/a	shift counted finals affect\n
487.3415	0.1055	974683	keystroke_s	s	n/a
487.582	0.1045	975164	keystroke_h	h	n/a
487.7915	0.105	975583	keystroke_i	i	n/a
487.8665	0.0905	975733	keystroke_t	t	n/a
488.047	0.1045	976094	keystroke_Key.space	Key.space	n/a
488.497	0.0745	976994	keystroke_s	s	n/a
489.007	0.09	978014	keystroke_Key.backspace	Key.backspace	n/a
489.127	0.1045	978254	keystroke_c	c	n/a
489.247	0.1055	978494	keystroke_o	o	n/a
489.5165	0.1205	979033	keystroke_u	u	n/a
489.577	0.15	979154	keystroke_n	n	n/a
489.712	0.074	979424	keystroke_t	t	n/a
489.802	0.12	979604	keystroke_e	e	n/a
489.9815	0.135	979963	keystroke_d	d	n/a
490.1315	0.135	980263	keystroke_Key.space	Key.space	n/a
490.792	0.105	981584	keystroke_f	f	n/a
490.912	0.09	981824	keystroke_i	i	n/a
491.047	0.12	982094	keystroke_n	n	n/a
491.152	0.12	982304	keystroke_a	a	n/a
491.287	0.15	982574	keystroke_l	l	n/a
491.377	0.21	982754	keystroke_s	s	n/a
491.617	0.135	983234	keystroke_Key.space	Key.space	n/a
491.872	0.105	983744	keystroke_a	a	n/a
492.112	0.045	984224	keystroke_f	f	n/a
492.262	0.075	984524	keystroke_f	f	n/a
492.352	0.134	984704	keystroke_e	e	n/a
492.472	0.104	984944	keystroke_c	c	n/a
492.6965	0.1055	985393	keystroke_t	t	n/a
492.861	0.151	985722	keystroke_Key.enter	Key.enter	n/a
493.018	12.161	986036	prompt	n/a	alike vital tampa diesel\n
493.7315	0.0755	987463	keystroke_a	a	n/a
493.852	0.09	987704	keystroke_l	l	n/a
494.047	0.06	988094	keystroke_i	i	n/a
494.182	0.12	988364	keystroke_k	k	n/a
494.257	0.135	988514	keystroke_e	e	n/a
494.393	0.119	988786	keystroke_Key.space	Key.space	n/a
494.677	0.09	989354	keystroke_v	v	n/a
494.9765	0.1205	989953	keystroke_i	i	n/a
495.1565	0.121	990313	keystroke_t	t	n/a
495.3515	0.106	990703	keystroke_a	a	n/a
495.532	0.1505	991064	keystroke_l	l	n/a
495.8165	0.12	991633	keystroke_Key.space	Key.space	n/a
496.162	0.03	992324	keystroke_t	t	n/a
496.177	0.044	992354	keystroke_r	r	n/a
496.237	0.1505	992474	keystroke_a	a	n/a
496.417	0.21	992834	keystroke_m	m	n/a
496.582	0.12	993164	keystroke_p	p	n/a
496.732	0.12	993464	keystroke_a	a	n/a
499.3745	0.027	998749	keystroke_Key.backspace	Key.backspace	n/a
499.4465	0.075	998893	keystroke_Key.backspace	Key.backspace	n/a
499.5965	0.06	999193	keystroke_Key.backspace	Key.backspace	n/a
499.7465	0.045	999493	keystroke_Key.backspace	Key.backspace	n/a
499.852	0.06	999704	keystroke_Key.backspace	Key.backspace	n/a
500.4515	0.1205	1000903	keystroke_a	a	n/a
500.6025	0.164	1001205	keystroke_m	m	n/a
500.7065	0.1355	1001413	keystroke_p	p	n/a
500.8715	0.1205	1001743	keystroke_a	a	n/a
501.292	0.1055	1002584	keystroke_Key.space	Key.space	n/a
501.6215	0.105	1003243	keystroke_d	d	n/a
501.817	0.1045	1003634	keystroke_i	i	n/a
501.9065	0.1205	1003813	keystroke_e	e	n/a
502.043	0.269	1004086	keystroke_s	s	n/a
502.267	0.12	1004534	keystroke_e	e	n/a
503.407	0.119	1006814	keystroke_k	k	n/a
504.0815	0.0905	1008163	keystroke_Key.backspace	Key.backspace	n/a
504.4415	0.1355	1008883	keystroke_l	l	n/a
505.072	0.1045	1010144	keystroke_Key.enter	Key.enter	n/a
505.1825	10.976	1010365	prompt	n/a	threaded correspondence amanda banners\n
506.182	0.1205	1012364	keystroke_t	t	n/a
506.2865	0.12	1012573	keystroke_h	h	n/a
506.437	0.1345	1012874	keystroke_r	r	n/a
506.557	0.135	1013114	keystroke_e	e	n/a
506.797	0.105	1013594	keystroke_a	a	n/a
507.2615	0.1655	1014523	keystroke_d	d	n/a
507.411	0.136	1014822	keystroke_e	e	n/a
507.667	0.1345	1015334	keystroke_d	d	n/a
507.952	0.105	1015904	keystroke_Key.space	Key.space	n/a
508.432	0.104	1016864	keystroke_c	c	n/a
508.582	0.104	1017164	keystroke_o	o	n/a
508.7765	0.091	1017553	keystroke_e	e	n/a
509.1965	0.105	1018393	keystroke_Key.backspace	Key.backspace	n/a
509.257	0.105	1018514	keystroke_r	r	n/a
509.3315	0.1055	1018663	keystroke_e	e	n/a
509.512	0.075	1019024	keystroke_e	e	n/a
509.9765	0.0905	1019953	keystroke_Key.backspace	Key.backspace	n/a
510.157	0.06	1020314	keystroke_Key.backspace	Key.backspace	n/a
510.233	0.104	1020466	keystroke_r	r	n/a
510.322	0.1195	1020644	keystroke_e	e	n/a
510.562	0.105	1021124	keystroke_s	s	n/a
511.132	0.075	1022264	keystroke_p	p	n/a
511.3115	0.0905	1022623	keystroke_o	o	n/a
511.552	0.09	1023104	keystroke_n	n	n/a
511.762	0.074	1023524	keystroke_d	d	n/a
511.9265	0.09	1023853	keystroke_e	e	n/a
512.0465	0.1205	1024093	keystroke_n	n	n/a
512.1515	0.105	1024303	keystroke_c	c	n/a
512.242	0.135	1024484	keystroke_e	e	n/a
512.542	0.09	1025084	keystroke_Key.space	Key.space	n/a
513.472	0.09	1026944	keystroke_a	a	n/a
513.982	0.09	1027964	keystroke_m	m	n/a
514.057	0.12	1028114	keystroke_a	a	n/a
514.192	0.12	1028384	keystroke_n	n	n/a
514.313	0.119	1028626	keystroke_d	d	n/a
514.492	0.15	1028984	keystroke_a	a	n/a
514.657	0.105	1029314	keystroke_Key.space	Key.space	n/a
515.1065	0.09	1030213	keystroke_b	b	n/a
515.1825	0.104	1030365	keystroke_a	a	n/a
515.332	0.0445	1030664	keystroke_n	n	n/a
515.4515	0.12	1030903	keystroke_n	n	n/a
515.6175	0.149	1031235	keystroke_e	e	n/a
515.7225	0.104	1031445	keystroke_r	r	n/a
515.872	0.09	1031744	keystroke_s	s	n/a
516.037	0.1195	1032074	keystroke_Key.enter	Key.enter	n/a
516.163	9.9255	1032326	prompt	n/a	fears revelation envelope donated\n
517.162	0.105	1034324	keystroke_f	f	n/a
517.402	0.15	1034804	keystroke_e	e	n/a
517.567	0.12	1035134	keystroke_a	a	n/a
517.702	0.12	1035404	keystroke_r	r	n/a
517.8365	0.2105	1035673	keystroke_s	s	n/a
518.0915	0.12	1036183	keystroke_Key.space	Key.space	n/a
518.482	0.105	1036964	keystroke_r	r	n/a
518.543	0.134	1037086	keystroke_e	e	n/a
518.887	0.09	1037774	keystroke_v	v	n/a
519.1565	0.136	1038313	keystroke_e	e	n/a
520.057	0.105	1040114	keystroke_l	l	n/a
520.147	0.105	1040294	keystroke_a	a	n/a
520.6565	0.1055	1041313	keystroke_t	t	n/a
520.8065	0.135	1041613	keystroke_i	i	n/a
520.8815	0.1205	1041763	keystroke_o	o	n/a
520.9715	0.1205	1041943	keystroke_n	n	n/a
521.1665	0.1355	1042333	keystroke_Key.space	Key.space	n/a
521.572	0.135	1043144	keystroke_e	e	n/a
522.0815	0.091	1044163	keystroke_n	n	n/a
522.6515	0.091	1045303	keystroke_v	v	n/a
522.7575	0.1195	1045515	keystroke_e	e	n/a
522.892	0.135	1045784	keystroke_l	l	n/a
523.177	0.1355	1046354	keystroke_o	o	n/a
523.4315	0.1205	1046863	keystroke_p	p	n/a
523.5065	0.1655	1047013	keystroke_e	e	n/a
523.7315	0.1205	1047463	keystroke_Key.space	Key.space	n/a
524.6325	0.1045	1049265	keystroke_d	d	n/a
524.707	0.075	1049414	keystroke_o	o	n/a
524.917	0.12	1049834	keystroke_n	n	n/a
524.977	0.135	1049954	keystroke_a	a	n/a
525.217	0.105	1050434	keystroke_t	t	n/a
525.307	0.105	1050614	keystroke_e	e	n/a
525.4565	0.15	1050913	keystroke_d	d	n/a
525.967	0.12	1051934	keystroke_Key.enter	Key.enter	n/a
526.092	7.3765	1052184	prompt	n/a	games remark bottom publication\n
527.002	0.075	1054004	keystroke_g	g	n/a
527.167	0.075	1054334	keystroke_a	a	n/a
527.227	0.135	1054454	keystroke_m	m	n/a
527.347	0.119	1054694	keystroke_e	e	n/a
527.452	0.1655	1054904	keystroke_s	s	n/a
527.6315	0.0905	1055263	keystroke_Key.space	Key.space	n/a
527.8415	0.0755	1055683	keystroke_r	r	n/a
527.8865	0.1055	1055773	keystroke_e	e	n/a
528.097	0.15	1056194	keystroke_m	m	n/a
528.232	0.1195	1056464	keystroke_a	a	n/a
528.4715	0.1055	1056943	keystroke_r	r	n/a
528.6065	0.0905	1057213	keystroke_k	k	n/a
528.8165	0.122	1057633	keystroke_Key.space	Key.space	n/a
529.3865	0.061	1058773	keystroke_b	b	n/a
529.567	0.0895	1059134	keystroke_o	o	n/a
529.672	0.09	1059344	keystroke_t	t	n/a
529.852	0.0895	1059704	keystroke_t	t	n/a
530.167	0.18	1060334	keystroke_o	o	n/a
530.3475	0.1195	1060695	keystroke_m	m	n/a
530.5415	0.105	1061083	keystroke_Key.space	Key.space	n/a
531.0815	0.15	1062163	keystroke_p	p	n/a
531.4415	0.12	1062883	keystroke_u	u	n/a
531.697	0.1195	1063394	keystroke_b	b	n/a
531.8465	0.09	1063693	keystroke_l	l	n/a
532.0415	0.1345	1064083	keystroke_i	i	n/a
532.147	0.1045	1064294	keystroke_c	c	n/a
532.297	0.12	1064594	keystroke_a	a	n/a
532.522	0.105	1065044	keystroke_t	t	n/a
532.612	0.1795	1065224	keystroke_i	i	n/a
532.642	0.18	1065284	keystroke_o	o	n/a
532.776	0.166	1065552	keystroke_n	n	n/a
533.3615	0.105	1066723	keystroke_Key.enter	Key.enter	n/a
533.4785	8.4355	1066957	prompt	n/a	torture limited noted container\n
534.247	0.105	1068494	keystroke_t	t	n/a
534.502	0.0895	1069004	keystroke_o	o	n/a
535.056	0.1205	1070112	keystroke_r	r	n/a
535.2665	0.105	1070533	keystroke_t	t	n/a
535.327	0.1045	1070654	keystroke_u	u	n/a
535.4765	0.135	1070953	keystroke_r	r	n/a
535.597	0.12	1071194	keystroke_e	e	n/a
535.792	0.105	1071584	keystroke_Key.space	Key.space	n/a
536.122	0.075	1072244	keystroke_l	l	n/a
536.272	0.18	1072544	keystroke_i	i	n/a
536.437	0.2395	1072874	keystroke_m	m	n/a
536.572	0.15	1073144	keystroke_i	i	n/a
536.7965	0.1205	1073593	keystroke_t	t	n/a
536.918	0.119	1073836	keystroke_e	e	n/a
537.127	0.105	1074254	keystroke_d	d	n/a
537.261	0.121	1074522	keystroke_Key.space	Key.space	n/a
538.1615	0.135	1076323	keystroke_n	n	n/a
538.2665	0.135	1076533	keystroke_o	o	n/a
538.3865	0.1055	1076773	keystroke_t	t	n/a
538.537	0.1345	1077074	keystroke_e	e	n/a
538.777	0.0595	1077554	keystroke_d	d	n/a
538.912	0.1195	1077824	keystroke_Key.space	Key.space	n/a
539.257	0.075	1078514	keystroke_c	c	n/a
539.362	0.135	1078724	keystroke_o	o	n/a
539.617	0.105	1079234	keystroke_n	n	n/a
539.7365	0.0905	1079473	keystroke_t	t	n/a
539.932	0.09	1079864	keystroke_a	a	n/a
540.412	0.15	1080824	keystroke_i	i	n/a
540.667	0.135	1081334	keystroke_n	n	n/a
541.1015	0.1505	1082203	keystroke_e	e	n/a
541.1615	0.1505	1082323	keystroke_r	r	n/a
541.777	0.1345	1083554	keystroke_Key.enter	Key.enter	n/a
541.9185	7.6	1083837	prompt	n/a	cables britannica badly hats\n
542.542	0.0745	1085084	keystroke_c	c	n/a
542.662	0.075	1085324	keystroke_a	a	n/a
542.9015	0.0755	1085803	keystroke_b	b	n/a
543.0365	0.1355	1086073	keystroke_l	l	n/a
543.1415	0.1205	1086283	keystroke_e	e	n/a
543.277	0.165	1086554	keystroke_s	s	n/a
543.472	0.1195	1086944	keystroke_Key.space	Key.space	n/a
544.042	0.12	1088084	keystroke_b	b	n/a
544.267	0.105	1088534	keystroke_r	r	n/a
544.357	0.1045	1088714	keystroke_i	i	n/a
544.612	0.059	1089224	keystroke_n	n	n/a
545.107	0.09	1090214	keystroke_Key.backspace	Key.backspace	n/a
545.182	0.075	1090364	keystroke_t	t	n/a
545.301	0.106	1090602	keystroke_a	a	n/a
545.797	0.06	1091594	keystroke_n	n	n/a
545.9315	0.0905	1091863	keystroke_n	n	n/a
546.0515	0.1205	1092103	keystroke_i	i	n/a
546.1415	0.0905	1092283	keystroke_c	c	n/a
546.247	0.1045	1092494	keystroke_a	a	n/a
546.502	0.104	1093004	keystroke_Key.space	Key.space	n/a
546.982	0.075	1093964	keystroke_b	b	n/a
547.027	0.12	1094054	keystroke_a	a	n/a
547.117	0.135	1094234	keystroke_d	d	n/a
547.417	0.09	1094834	keystroke_l	l	n/a
547.792	0.105	1095584	keystroke_y	y	n/a
547.9865	0.1055	1095973	keystroke_Key.space	Key.space	n/a
548.707	0.0895	1097414	keystroke_h	h	n/a
548.8115	0.0905	1097623	keystroke_a	a	n/a
548.9915	0.0905	1097983	keystroke_t	t	n/a
549.1415	0.12	1098283	keystroke_s	s	n/a
549.382	0.1345	1098764	keystroke_Key.enter	Key.enter	n/a
549.524	8.275	1099048	prompt	n/a	norm betting beastality teen\n
550.5665	0.151	1101133	keystroke_n	n	n/a
550.6415	0.1505	1101283	keystroke_o	o	n/a
550.777	0.09	1101554	keystroke_r	r	n/a
551.0315	0.06	1102063	keystroke_m	m	n/a
551.0765	0.12	1102153	keystroke_Key.space	Key.space	n/a
551.617	0.105	1103234	keystroke_b	b	n/a
551.737	0.105	1103474	keystroke_e	e	n/a
552.0965	0.0295	1104193	keystroke_t	t	n/a
552.217	0.09	1104434	keystroke_t	t	n/a
552.697	0.1655	1105394	keystroke_i	i	n/a
552.8015	0.1205	1105603	keystroke_n	n	n/a
552.8315	0.165	1105663	keystroke_g	g	n/a
553.0715	0.12	1106143	keystroke_Key.space	Key.space	n/a
554.077	0.1195	1108154	keystroke_b	b	n/a
554.122	0.1045	1108244	keystroke_e	e	n/a
554.227	0.1795	1108454	keystroke_a	a	n/a
554.287	0.1795	1108574	keystroke_s	s	n/a
554.7215	0.1055	1109443	keystroke_t	t	n/a
554.902	0.1045	1109804	keystroke_a	a	n/a
555.607	0.09	1111214	keystroke_l	l	n/a
556.177	0.0895	1112354	keystroke_i	i	n/a
556.2515	0.105	1112503	keystroke_t	t	n/a
556.492	0.09	1112984	keystroke_y	y	n/a
556.792	0.09	1113584	keystroke_Key.space	Key.space	n/a
557.031	0.1055	1114062	keystroke_t	t	n/a
557.122	0.0755	1114244	keystroke_e	e	n/a
557.2725	0.1345	1114545	keystroke_e	e	n/a
557.407	0.12	1114814	keystroke_n	n	n/a
557.661	0.1355	1115322	keystroke_Key.enter	Key.enter	n/a
557.8055	9.5335	1115611	prompt	n/a	another terminal witch legends\n
558.366	0.1065	1116732	keystroke_a	a	n/a
558.532	0.1645	1117064	keystroke_n	n	n/a
558.6665	0.15	1117333	keystroke_o	o	n/a
558.7865	0.135	1117573	keystroke_t	t	n/a
558.982	0.15	1117964	keystroke_e	e	n/a
558.9965	0.1055	1117993	keystroke_h	h	n/a
559.1475	0.105	1118295	keystroke_r	r	n/a
559.821	0.061	1119642	keystroke_Key.backspace	Key.backspace	n/a
559.9565	0.0755	1119913	keystroke_Key.backspace	Key.backspace	n/a
560.212	0.105	1120424	keystroke_Key.backspace	Key.backspace	n/a
560.752	0.1055	1121504	keystroke_h	h	n/a
560.782	0.15	1121564	keystroke_e	e	n/a
560.872	0.105	1121744	keystroke_r	r	n/a
560.962	0.1195	1121924	keystroke_Key.space	Key.space	n/a
561.4865	0.09	1122973	keystroke_r	r	n/a
561.546	0.1205	1123092	keystroke_e	e	n/a
562.237	0.0895	1124474	keystroke_Key.backspace	Key.backspace	n/a
562.386	0.1205	1124772	keystroke_Key.backspace	Key.backspace	n/a
562.492	0.119	1124984	keystroke_t	t	n/a
562.6265	0.1505	1125253	keystroke_e	e	n/a
562.731	0.136	1125462	keystroke_r	r	n/a
563.257	0.104	1126514	keystroke_m	m	n/a
563.346	0.166	1126692	keystroke_i	i	n/a
563.497	0.105	1126994	keystroke_n	n	n/a
563.631	0.09	1127262	keystroke_a	a	n/a
563.7965	0.1505	1127593	keystroke_l	l	n/a
564.172	0.104	1128344	keystroke_Key.space	Key.space	n/a
564.4715	0.0895	1128943	keystroke_w	w	n/a
564.5915	0.121	1129183	keystroke_i	i	n/a
564.7725	0.1045	1129545	keystroke_t	t	n/a
564.8775	0.12	1129755	keystroke_h	h	n/a
565.0565	0.1205	1130113	keystroke_Key.space	Key.space	n/a
565.582	0.1045	1131164	keystroke_l	l	n/a
565.6425	0.0895	1131285	keystroke_e	e	n/a
565.867	0.1045	1131734	keystroke_g	g	n/a
565.9735	0.1185	1131947	keystroke_e	e	n/a
566.1375	0.104	1132275	keystroke_n	n	n/a
566.257	0.1195	1132514	keystroke_s	s	n/a
566.887	0.105	1133774	keystroke_Key.backspace	Key.backspace	n/a
566.963	0.104	1133926	keystroke_d	d	n/a
567.052	0.12	1134104	keystroke_s	s	n/a
567.202	0.135	1134404	keystroke_Key.enter	Key.enter	n/a
567.342	8.0065	1134684	prompt	n/a	compensation bulk removed colors\n
568.0565	0.105	1136113	keystroke_c	c	n/a
568.1925	0.104	1136385	keystroke_o	o	n/a
568.3575	0.119	1136715	keystroke_m	m	n/a
569.467	0.0595	1138934	keystroke_p	p	n/a
569.5115	0.0905	1139023	keystroke_e	e	n/a
569.707	0.105	1139414	keystroke_n	n	n/a
569.886	0.0755	1139772	keystroke_s	s	n/a
570.022	0.1345	1140044	keystroke_a	a	n/a
570.2465	0.09	1140493	keystroke_t	t	n/a
570.3515	0.105	1140703	keystroke_i	i	n/a
570.3815	0.15	1140763	keystroke_o	o	n/a
570.4865	0.136	1140973	keystroke_n	n	n/a
570.8615	0.1205	1141723	keystroke_Key.space	Key.space	n/a
571.477	0.09	1142954	keystroke_b	b	n/a
571.612	0.12	1143224	keystroke_u	u	n/a
571.837	0.105	1143674	keystroke_l	l	n/a
572.017	0.135	1144034	keystroke_k	k	n/a
572.1815	0.1195	1144363	keystroke_Key.space	Key.space	n/a
572.497	0.09	1144994	keystroke_r	r	n/a
572.557	0.12	1145114	keystroke_e	e	n/a
572.782	0.165	1145564	keystroke_m	m	n/a
572.887	0.18	1145774	keystroke_o	o	n/a
573.171	0.0605	1146342	keystroke_v	v	n/a
573.457	0.119	1146914	keystroke_e	e	n/a
573.682	0.1045	1147364	keystroke_d	d	n/a
573.847	0.1045	1147694	keystroke_Key.space	Key.space	n/a
574.222	0.135	1148444	keystroke_c	c	n/a
574.3115	0.1055	1148623	keystroke_o	o	n/a
574.477	0.12	1148954	keystroke_l	l	n/a
574.657	0.164	1149314	keystroke_o	o	n/a
574.702	0.1495	1149404	keystroke_r	r	n/a
574.9415	0.1055	1149883	keystroke_s	s	n/a
575.212	0.135	1150424	keystroke_Key.enter	Key.enter	n/a
575.3525	12.011	1150705	prompt	n/a	experiencing msgstr modeling choice\n
575.992	0.09	1151984	keystroke_e	e	n/a
576.262	0.1045	1152524	keystroke_x	x	n/a
576.442	0.0895	1152884	keystroke_p	p	n/a
576.892	0.15	1153784	keystroke_e	e	n/a
576.9965	0.135	1153993	keystroke_r	r	n/a
577.176	0.136	1154352	keystroke_i	i	n/a
577.687	0.1195	1155374	keystroke_e	e	n/a
577.9715	0.105	1155943	keystroke_n	n	n/a
578.0915	0.0905	1156183	keystroke_c	c	n/a
578.347	0.12	1156694	keystroke_i	i	n/a
578.572	0.105	1157144	keystroke_n	n	n/a
578.662	0.119	1157324	keystroke_g	g	n/a
578.9465	0.105	1157893	keystroke_Key.space	Key.space	n/a
581.199	0.028	1162398	keystroke_m	m	n/a
581.2	0.147	1162400	keystroke_s	s	n/a
581.377	0.12	1162754	keystroke_g	g	n/a
582.457	0.1195	1164914	keystroke_s	s	n/a
582.622	0.105	1165244	keystroke_t	t	n/a
582.8165	0.1055	1165633	keystroke_r	r	n/a
583.1915	0.09	1166383	keystroke_Key.space	Key.space	n/a
584.047	0.12	1168094	keystroke_m	m	n/a
584.2115	0.15	1168423	keystroke_o	o	n/a
584.3765	0.075	1168753	keystroke_d	d	n/a
584.5415	0.1355	1169083	keystroke_e	e	n/a
584.722	0.1495	1169444	keystroke_l	l	n/a
585.367	0.1645	1170734	keystroke_i	i	n/a
585.4565	0.1505	1170913	keystroke_n	n	n/a
585.486	0.106	1170972	keystroke_g	g	n/a
585.937	0.0895	1171874	keystroke_Key.space	Key.space	n/a
586.2065	0.1355	1172413	keystroke_c	c	n/a
586.402	0.105	1172804	keystroke_h	h	n/a
586.642	0.09	1173284	keystroke_o	o	n/a
586.807	0.104	1173614	keystroke_i	i	n/a
586.8665	0.12	1173733	keystroke_c	c	n/a
586.9715	0.12	1173943	keystroke_e	e	n/a
587.227	0.1345	1174454	keystroke_Key.enter	Key.enter	n/a
587.3675	11.441	1174735	prompt	n/a	exterior exports footwear addition\n
588.232	0.1195	1176464	keystroke_e	e	n/a
588.4865	0.106	1176973	keystroke_x	x	n/a
588.7425	0.119	1177485	keystroke_t	t	n/a
589.1315	0.1505	1178263	keystroke_e	e	n/a
589.2215	0.1355	1178443	keystroke_r	r	n/a
589.4015	0.3155	1178803	keystroke_i	i	n/a
589.612	0.12	1179224	keystroke_o	o	n/a
589.792	0.12	1179584	keystroke_r	r	n/a
590.077	0.105	1180154	keystroke_Key.space	Key.space	n/a
590.752	0.03	1181504	keystroke_e	e	n/a
591.007	0.105	1182014	keystroke_x	x	n/a
591.142	0.1195	1182284	keystroke_p	p	n/a
591.336	0.15	1182672	keystroke_o	o	n/a
591.472	0.0745	1182944	keystroke_e	e	n/a
591.666	0.105	1183332	keystroke_t	t	n/a
591.892	0.074	1183784	keystroke_t	t	n/a
592.3415	0.09	1184683	keystroke_Key.backspace	Key.backspace	n/a
592.4915	0.105	1184983	keystroke_Key.backspace	Key.backspace	n/a
592.6415	0.12	1185283	keystroke_r	r	n/a
592.9265	0.075	1185853	keystroke_Key.backspace	Key.backspace	n/a
593.0765	0.09	1186153	keystroke_Key.backspace	Key.backspace	n/a
593.1965	0.075	1186393	keystroke_r	r	n/a
593.3015	0.135	1186603	keystroke_t	t	n/a
593.4515	0.12	1186903	keystroke_s	s	n/a
593.8865	0.105	1187773	keystroke_Key.space	Key.space	n/a
594.517	0.0895	1189034	keystroke_f	f	n/a
594.6215	0.075	1189243	keystroke_o	o	n/a
594.7715	0.1055	1189543	keystroke_o	o	n/a
594.846	0.1055	1189692	keystroke_r	r	n/a
595.267	0.0745	1190534	keystroke_Key.backspace	Key.backspace	n/a
595.327	0.12	1190654	keystroke_t	t	n/a
595.552	0.105	1191104	keystroke_w	w	n/a
596.3615	0.1355	1192723	keystroke_e	e	n/a
596.4665	0.1205	1192933	keystroke_a	a	n/a
596.602	0.1045	1193204	keystroke_r	r	n/a
596.902	0.1045	1193804	keystroke_Key.space	Key.space	n/a
597.247	0.09	1194494	keystroke_a	a	n/a
597.367	0.075	1194734	keystroke_d	d	n/a
597.5315	0.1205	1195063	keystroke_d	d	n/a
597.8015	0.135	1195603	keystroke_i	i	n/a
597.9965	0.1345	1195993	keystroke_t	t	n/a
598.087	0.1495	1196174	keystroke_i	i	n/a
598.1615	0.1955	1196323	keystroke_o	o	n/a
598.2815	0.1655	1196563	keystroke_n	n	n/a
598.6865	0.12	1197373	keystroke_Key.enter	Key.enter	n/a
598.813	5.9205	1197626	prompt	n/a	demand ceremony impact based\n
599.5415	0.15	1199083	keystroke_d	d	n/a
599.6765	0.105	1199353	keystroke_e	e	n/a
599.842	0.09	1199684	keystroke_m	m	n/a
599.947	0.075	1199894	keystroke_a	a	n/a
600.052	0.12	1200104	keystroke_n	n	n/a
600.157	0.15	1200314	keystroke_d	d	n/a
600.3215	0.1195	1200643	keystroke_Key.space	Key.space	n/a
600.562	0.105	1201124	keystroke_c	c	n/a
600.682	0.1945	1201364	keystroke_e	e	n/a
600.8615	0.1505	1201723	keystroke_r	r	n/a
600.9965	0.1195	1201993	keystroke_e	e	n/a
601.162	0.119	1202324	keystroke_m	m	n/a
601.9565	0.1205	1203913	keystroke_o	o	n/a
602.242	0.194	1204484	keystroke_n	n	n/a
602.421	0.09	1204842	keystroke_y	y	n/a
602.6615	0.1205	1205323	keystroke_Key.space	Key.space	n/a
603.1565	0.1505	1206313	keystroke_i	i	n/a
603.2315	0.12	1206463	keystroke_m	m	n/a
603.487	0.15	1206974	keystroke_p	p	n/a
603.607	0.105	1207214	keystroke_a	a	n/a
603.8175	0.104	1207635	keystroke_c	c	n/a
604.071	0.1055	1208142	keystroke_t	t	n/a
604.6265	0.105	1209253	keystroke_Key.enter	Key.enter	n/a
604.738	9.94	1209476	prompt	n/a	alive immigration moderators vegas\n
605.6315	0.1205	1211263	keystroke_a	a	n/a
605.7815	0.105	1211563	keystroke_l	l	n/a
605.9765	0.12	1211953	keystroke_i	i	n/a
606.037	0.09	1212074	keystroke_v	v	n/a
606.1115	0.1205	1212223	keystroke_e	e	n/a
606.321	0.106	1212642	keystroke_Key.space	Key.space	n/a
606.8465	0.105	1213693	keystroke_i	i	n/a
607.0265	0.06	1214053	keystroke_m	m	n/a
607.1475	0.1495	1214295	keystroke_m	m	n/a
607.282	0.15	1214564	keystroke_i	i	n/a
607.762	0.0895	1215524	keystroke_g	g	n/a
608.017	0.1045	1216034	keystroke_r	r	n/a
608.1665	0.09	1216333	keystroke_a	a	n/a
608.437	0.1045	1216874	keystroke_t	t	n/a
608.5565	0.1805	1217113	keystroke_i	i	n/a
608.632	0.1645	1217264	keystroke_o	o	n/a
