onset	duration	sample	value	key	prompt_text
9.2935	10.9885	18587	prompt	n/a	the quick brown fox jumps over a lazy dog\n
10.7125	0.012	21425	keystroke_t	t	n/a
10.7545	0.09	21509	keystroke_h	h	n/a
10.8295	0.105	21659	keystroke_e	e	n/a
11.1295	0.15	22259	keystroke_Key.space	Key.space	n/a
11.1445	0.09	22289	keystroke_q	q	n/a
11.8645	0.135	23729	keystroke_u	u	n/a
12.2845	0.075	24569	keystroke_Key.backspace	Key.backspace	n/a
12.4645	0.09	24929	keystroke_Key.backspace	Key.backspace	n/a
12.6145	0.105	25229	keystroke_Key.backspace	Key.backspace	n/a
13.199	0.135	26398	keystroke_Key.space	Key.space	n/a
13.424	0.1195	26848	keystroke_q	q	n/a
13.4985	0.135	26997	keystroke_u	u	n/a
13.5885	0.105	27177	keystroke_i	i	n/a
13.7395	0.104	27479	keystroke_c	c	n/a
13.7985	0.135	27597	keystroke_k	k	n/a
13.9035	0.15	27807	keystroke_Key.space	Key.space	n/a
14.0695	0.06	28139	keystroke_b	b	n/a
14.2485	0.09	28497	keystroke_r	r	n/a
14.6685	0.136	29337	keystroke_o	o	n/a
14.9535	0.105	29907	keystroke_w	w	n/a
15.0885	0.15	30177	keystroke_n	n	n/a
15.1935	0.12	30387	keystroke_Key.space	Key.space	n/a
15.4485	0.105	30897	keystroke_f	f	n/a
15.6735	0.15	31347	keystroke_o	o	n/a
16.0335	0.105	32067	keystroke_x	x	n/a
16.2435	0.18	32487	keystroke_Key.space	Key.space	n/a
16.4535	0.105	32907	keystroke_j	j	n/a
16.6485	0.105	33297	keystroke_u	u	n/a
16.9035	0.195	33807	keystroke_m	m	n/a
17.0535	0.105	34107	keystroke_p	p	n/a
17.3085	0.106	34617	keystroke_s	s	n/a
17.3835	0.15	34767	keystroke_Key.space	Key.space	n/a
17.5485	0.091	35097	keystroke_o	o	n/a
17.6535	0.06	35307	keystroke_v	v	n/a
17.8035	0.12	35607	keystroke_e	e	n/a
17.8485	0.106	35697	keystroke_r	r	n/a
17.8935	0.12	35787	keystroke_Key.space	Key.space	n/a
18.0295	0.134	36059	keystroke_a	a	n/a
18.0885	0.12	36177	keystroke_Key.space	Key.space	n/a
18.1485	0.105	36297	keystroke_l	l	n/a
18.2835	0.076	36567	keystroke_a	a	n/a
18.5085	0.136	37017	keystroke_z	z	n/a
18.6585	0.165	37317	keystroke_y	y	n/a
18.7485	0.15	37497	keystroke_Key.space	Key.space	n/a
18.9145	0.105	37829	keystroke_d	d	n/a
19.0035	0.075	38007	keystroke_o	o	n/a
19.1535	0.075	38307	keystroke_g	g	n/a
20.1585	0.12	40317	keystroke_Key.enter	Key.enter	n/a
20.2875	9.6685	40575	prompt	n/a	lessons dropped bracelet brochures\n
21.0745	0.105	42149	keystroke_l	l	n/a
21.2095	0.06	42419	keystroke_e	e	n/a
21.3585	0.075	42717	keystroke_s	s	n/a
21.5085	0.106	43017	keystroke_s	s	n/a
21.5835	0.15	43167	keystroke_o	o	n/a
21.6735	0.196	43347	keystroke_n	n	n/a
21.7935	0.165	43587	keystroke_Key.space	Key.space	n/a
22.3485	0.09	44697	keystroke_Key.backspace	Key.backspace	n/a
22.4545	0.089	44909	keystroke_s	s	n/a
22.6635	0.151	45327	keystroke_Key.space	Key.space	n/a
22.9335	0.09	45867	keystroke_d	d	n/a
23.0995	0.104	46199	keystroke_r	r	n/a
23.1895	0.075	46379	keystroke_o	o	n/a
23.3695	0.09	46739	keystroke_p	p	n/a
23.4745	0.135	46949	keystroke_p	p	n/a
23.5945	0.09	47189	keystroke_e	e	n/a
23.9535	0.106	47907	keystroke_d	d	n/a
24.0735	0.12	48147	keystroke_Key.space	Key.space	n/a
24.4645	0.075	48929	keystroke_b	b	n/a
24.7345	0.12	49469	keystroke_r	r	n/a
24.9145	0.105	49829	keystroke_a	a	n/a
25.1995	0.075	50399	keystroke_c	c	n/a
25.4095	0.075	50819	keystroke_e	e	n/a
25.5895	0.12	51179	keystroke_l	l	n/a
25.7395	0.09	51479	keystroke_e	e	n/a
26.0245	0.075	52049	keystroke_t	t	n/a
26.5635	0.165	53127	keystroke_Key.space	Key.space	n/a
27.0295	0.075	54059	keystroke_b	b	n/a
27.2695	0.075	54539	keystroke_r	r	n/a
27.3745	0.09	54749	keystroke_o	o	n/a
27.8545	0.104	55709	keystroke_c	c	n/a
28.0035	0.105	56007	keystroke_h	h	n/a
28.2285	0.106	56457	keystroke_u	u	n/a
28.3495	0.104	56699	keystroke_r	r	n/a
28.5145	0.149	57029	keystroke_e	e	n/a
28.6785	0.091	57357	keystroke_s	s	n/a
29.8185	0.135	59637	keystroke_Key.enter	Key.enter	n/a
29.961	4.6	59922	prompt	n/a	jake just trance clean\n
30.6295	0.03	61259	keystroke_j	j	n/a
30.6435	0.091	61287	keystroke_a	a	n/a
30.7485	0.105	61497	keystroke_k	k	n/a
30.8395	0.104	61679	keystroke_e	e	n/a
30.9585	0.12	61917	keystroke_Key.space	Key.space	n/a
31.0345	0.105	62069	keystroke_j	j	n/a
31.2285	0.106	62457	keystroke_u	u	n/a
31.3195	0.134	62639	keystroke_s	s	n/a
31.4245	0.06	62849	keystroke_t	t	n/a
31.4985	0.135	62997	keystroke_Key.space	Key.space	n/a
31.7235	0.075	63447	keystroke_t	t	n/a
31.9035	0.136	63807	keystroke_r	r	n/a
31.9945	0.135	63989	keystroke_a	a	n/a
32.0995	0.12	64199	keystroke_n	n	n/a
32.2485	0.105	64497	keystroke_c	c	n/a
32.5035	0.075	65007	keystroke_e	e	n/a
33.0285	0.135	66057	keystroke_Key.space	Key.space	n/a
33.3735	0.03	66747	keystroke_c	c	n/a
33.4345	0.105	66869	keystroke_l	l	n/a
33.5535	0.121	67107	keystroke_e	e	n/a
33.6445	0.134	67289	keystroke_a	a	n/a
33.7345	0.134	67469	keystroke_n	n	n/a
34.3935	0.165	68787	keystroke_Key.enter	Key.enter	n/a
34.5655	6.88	69131	prompt	n/a	whats morris dumb techno\n
35.309	0.09	70618	keystroke_w	w	n/a
35.474	0.135	70948	keystroke_h	h	n/a
35.549	0.12	71098	keystroke_a	a	n/a
35.849	0.09	71698	keystroke_t	t	n/a
36.134	0.105	72268	keystroke_s	s	n/a
36.268	0.15	72536	keystroke_Key.space	Key.space	n/a
36.974	0.09	73948	keystroke_m	m	n/a
37.124	0.12	74248	keystroke_o	o	n/a
37.349	0.06	74698	keystroke_r	r	n/a
37.484	0.105	74968	keystroke_r	r	n/a
37.604	0.09	75208	keystroke_i	i	n/a
37.739	0.105	75478	keystroke_s	s	n/a
37.994	0.15	75988	keystroke_Key.space	Key.space	n/a
38.549	0.075	77098	keystroke_d	d	n/a
38.729	0.09	77458	keystroke_u	u	n/a
38.954	0.12	77908	keystroke_m	m	n/a
39.104	0.105	78208	keystroke_b	b	n/a
39.223	0.135	78446	keystroke_Key.space	Key.space	n/a
39.554	0.09	79108	keystroke_t	t	n/a
39.749	0.09	79498	keystroke_e	e	n/a
40.049	0.09	80098	keystroke_c	c	n/a
40.184	0.09	80368	keystroke_h	h	n/a
40.439	0.12	80878	keystroke_n	n	n/a
40.619	0.09	81238	keystroke_o	o	n/a
41.309	0.134	82618	keystroke_Key.enter	Key.enter	n/a
41.45	8.0655	82900	prompt	n/a	annoying sessions trees efficiency\n
42.254	0.105	84508	keystroke_a	a	n/a
42.389	0.075	84778	keystroke_n	n	n/a
42.554	0.12	85108	keystroke_n	n	n/a
42.749	0.135	85498	keystroke_o	o	n/a
42.974	0.12	85948	keystroke_y	y	n/a
43.139	0.18	86278	keystroke_i	i	n/a
43.259	0.21	86518	keystroke_n	n	n/a
43.379	0.075	86758	keystroke_g	g	n/a
43.439	0.134	86878	keystroke_Key.space	Key.space	n/a
43.829	0.075	87658	keystroke_s	s	n/a
44.039	0.075	88078	keystroke_e	e	n/a
44.234	0.075	88468	keystroke_s	s	n/a
44.384	0.12	88768	keystroke_s	s	n/a
44.489	0.15	88978	keystroke_i	i	n/a
44.609	0.195	89218	keystroke_o	o	n/a
44.729	0.195	89458	keystroke_n	n	n/a
44.864	0.075	89728	keystroke_s	s	n/a
45.029	0.119	90058	keystroke_Key.space	Key.space	n/a
45.494	0.06	90988	keystroke_t	t	n/a
45.704	0.09	91408	keystroke_r	r	n/a
45.899	0.06	91798	keystroke_e	e	n/a
46.034	0.09	92068	keystroke_e	e	n/a
46.379	0.06	92758	keystroke_s	s	n/a
46.484	0.135	92968	keystroke_Key.space	Key.space	n/a
47.009	0.06	94018	keystroke_e	e	n/a
47.234	0.06	94468	keystroke_f	f	n/a
47.459	0.015	94918	keystroke_f	f	n/a
47.519	0.12	95038	keystroke_i	i	n/a
47.729	0.075	95458	keystroke_c	c	n/a
47.819	0.09	95638	keystroke_i	i	n/a
47.939	0.075	95878	keystroke_e	e	n/a
48.059	0.105	96118	keystroke_n	n	n/a
48.209	0.075	96418	keystroke_c	c	n/a
48.389	0.105	96778	keystroke_y	y	n/a
49.409	0.105	98818	keystroke_Key.enter	Key.enter	n/a
49.52	5.725	99040	prompt	n/a	cloud locally weird cliff\n
50.309	0.12	100618	keystroke_c	c	n/a
50.414	0.105	100828	keystroke_l	l	n/a
50.639	0.165	101278	keystroke_o	o	n/a
50.744	0.15	101488	keystroke_u	u	n/a
50.864	0.075	101728	keystroke_d	d	n/a
50.9835	0.12	101967	keystroke_Key.space	Key.space	n/a
51.1635	0.09	102327	keystroke_l	l	n/a
51.3585	0.09	102717	keystroke_o	o	n/a
51.4335	0.06	102867	keystroke_c	c	n/a
51.5235	0.12	103047	keystroke_a	a	n/a
51.6585	0.06	103317	keystroke_l	l	n/a
51.8235	0.195	103647	keystroke_l	l	n/a
51.9435	0.135	103887	keystroke_y	y	n/a
52.0335	0.12	104067	keystroke_Key.space	Key.space	n/a
52.1685	0.075	104337	keystroke_w	w	n/a
52.3635	0.09	104727	keystroke_e	e	n/a
52.3785	0.105	104757	keystroke_i	i	n/a
52.9335	0.075	105867	keystroke_r	r	n/a
53.1435	0.09	106287	keystroke_d	d	n/a
53.9085	0.105	107817	keystroke_Key.space	Key.space	n/a
54.0735	0.09	108147	keystroke_c	c	n/a
54.1485	0.195	108297	keystroke_l	l	n/a
54.2835	0.12	108567	keystroke_i	i	n/a
54.4185	0.075	108837	keystroke_f	f	n/a
54.5535	0.09	109107	keystroke_f	f	n/a
55.1085	0.135	110217	keystroke_Key.enter	Key.enter	n/a
55.2505	14.786	110501	prompt	n/a	functionality representation controllers roman\n
59.0565	0.027	118113	keystroke_f	f	n/a
59.2185	0.09	118437	keystroke_u	u	n/a
59.7735	0.12	119547	keystroke_n	n	n/a
60.0285	0.075	120057	keystroke_c	c	n/a
60.3135	0.09	120627	keystroke_t	t	n/a
60.4185	0.15	120837	keystroke_i	i	n/a
60.5235	0.18	121047	keystroke_o	o	n/a
60.6285	0.12	121257	keystroke_n	n	n/a
61.4835	0.12	122967	keystroke_a	a	n/a
61.5885	0.165	123177	keystroke_l	l	n/a
61.6935	0.15	123387	keystroke_i	i	n/a
61.8285	0.06	123657	keystroke_t	t	n/a
61.9785	0.12	123957	keystroke_y	y	n/a
62.1135	0.165	124227	keystroke_Key.space	Key.space	n/a
62.8785	0.09	125757	keystroke_r	r	n/a
63.0435	0.105	126087	keystroke_e	e	n/a
63.2835	0.105	126567	keystroke_p	p	n/a
63.4335	0.075	126867	keystroke_r	r	n/a
63.5235	0.09	127047	keystroke_e	e	n/a
63.7035	0.075	127407	keystroke_s	s	n/a
63.8835	0.075	127767	keystroke_e	e	n/a
64.0185	0.15	128037	keystroke_n	n	n/a
64.1385	0.105	128277	keystroke_t	t	n/a
64.3485	0.135	128697	keystroke_a	a	n/a
64.4235	0.12	128847	keystroke_t	t	n/a
64.5135	0.15	129027	keystroke_i	i	n/a
64.6185	0.165	129237	keystroke_o	o	n/a
64.7385	0.15	129477	keystroke_n	n	n/a
65.8335	0.135	131667	keystroke_Key.space	Key.space	n/a
66.1335	0.09	132267	keystroke_c	c	n/a
66.2085	0.15	132417	keystroke_o	o	n/a
66.2985	0.135	132597	keystroke_n	n	n/a
66.3885	0.06	132777	keystroke_t	t	n/a
66.5535	0.075	133107	keystroke_r	r	n/a
66.6285	0.09	133257	keystroke_o	o	n/a
67.1985	0.06	134397	keystroke_l	l	n/a
67.3335	0.105	134667	keystroke_l	l	n/a
67.4085	0.195	134817	keystroke_e	e	n/a
67.4835	0.195	134967	keystroke_r	r	n/a
67.6185	0.09	135237	keystroke_s	s	n/a
68.1885	0.15	136377	keystroke_Key.space	Key.space	n/a
68.5035	0.105	137007	keystroke_r	r	n/a
68.5935	0.105	137187	keystroke_o	o	n/a
68.7135	0.135	137427	keystroke_m	m	n/a
68.8335	0.105	137667	keystroke_a	a	n/a
68.9535	0.105	137907	keystroke_n	n	n/a
69.9135	0.12	139827	keystroke_Key.enter	Key.enter	n/a
70.0455	8.2545	140091	prompt	n/a	mods combines performances motors\n
70.7235	0.12	141447	keystroke_m	m	n/a
70.9035	0.09	141807	keystroke_o	o	n/a
71.0385	0.075	142077	keystroke_d	d	n/a
71.2185	0.09	142437	keystroke_s	s	n/a
71.3235	0.135	142647	keystroke_Key.space	Key.space	n/a
71.7435	0.075	143487	keystroke_c	c	n/a
71.7885	0.15	143577	keystroke_o	o	n/a
71.8785	0.12	143757	keystroke_m	m	n/a
72.1035	0.06	144207	keystroke_b	b	n/a
72.7335	0.135	145467	keystroke_i	i	n/a
72.7935	0.18	145587	keystroke_n	n	n/a
72.9435	0.18	145887	keystroke_e	e	n/a
73.0485	0.105	146097	keystroke_s	s	n/a
73.1985	0.165	146397	keystroke_Key.space	Key.space	n/a
74.2635	0.135	148527	keystroke_p	p	n/a
74.3835	0.15	148767	keystroke_e	e	n/a
74.4885	0.06	148977	keystroke_r	r	n/a
74.6685	0.06	149337	keystroke_f	f	n/a
74.7585	0.105	149517	keystroke_o	o	n/a
74.8485	0.09	149697	keystroke_r	r	n/a
74.9685	0.105	149937	keystroke_m	m	n/a
75.0585	0.105	150117	keystroke_a	a	n/a
75.1935	0.15	150387	keystroke_n	n	n/a
75.2985	0.06	150597	keystroke_c	c	n/a
75.4935	0.15	150987	keystroke_e	e	n/a
75.5685	0.12	151137	keystroke_s	s	n/a
75.7335	0.135	151467	keystroke_Key.space	Key.space	n/a
76.3185	0.12	152637	keystroke_m	m	n/a
76.5285	0.105	153057	keystroke_o	o	n/a
76.6635	0.075	153327	keystroke_t	t	n/a
76.7535	0.105	153507	keystroke_o	o	n/a
76.8885	0.15	153777	keystroke_r	r	n/a
77.0235	0.105	154047	keystroke_s	s	n/a
78.1785	0.12	156357	keystroke_Key.enter	Key.enter	n/a
78.304	6.552	156608	prompt	n/a	engaging costs martin trick\n
78.9885	0.09	157977	keystroke_e	e	n/a
79.1085	0.135	158217	keystroke_n	n	n/a
79.2135	0.075	158427	keystroke_g	g	n/a
79.3635	0.135	158727	keystroke_a	a	n/a
79.4385	0.105	158877	keystroke_g	g	n/a
79.5885	0.135	159177	keystroke_i	i	n/a
79.6635	0.24	159327	keystroke_n	n	n/a
79.7085	0.09	159417	keystroke_g	g	n/a
79.8585	0.15	159717	keystroke_Key.space	Key.space	n/a
80.2635	0.09	160527	keystroke_c	c	n/a
80.3985	0.105	160797	keystroke_o	o	n/a
80.5935	0.135	161187	keystroke_s	s	n/a
80.8035	0.135	161607	keystroke_t	t	n/a
80.9235	0.105	161847	keystroke_s	s	n/a
81.5985	0.09	163197	keystroke_Key.space	Key.space	n/a
81.7935	0.135	163587	keystroke_m	m	n/a
81.8685	0.135	163737	keystroke_a	a	n/a
81.9585	0.09	163917	keystroke_r	r	n/a
82.1385	0.09	164277	keystroke_t	t	n/a
82.2435	0.15	164487	keystroke_i	i	n/a
82.3335	0.165	164667	keystroke_n	n	n/a
82.4385	0.15	164877	keystroke_Key.space	Key.space	n/a
82.6185	0.075	165237	keystroke_t	t	n/a
82.8135	0.075	165627	keystroke_r	r	n/a
83.3235	0.09	166647	keystroke_i	i	n/a
83.5335	0.105	167067	keystroke_c	c	n/a
83.5935	0.105	167187	keystroke_k	k	n/a
84.7185	0.135	169437	keystroke_Key.enter	Key.enter	n/a
84.861	7.329	169722	prompt	n/a	good gardening gift barcelona\n
85.6185	0.075	171237	keystroke_g	g	n/a
85.7085	0.075	171417	keystroke_o	o	n/a
85.8885	0.1345	171777	keystroke_o	o	n/a
85.963	0.09	171926	keystroke_d	d	n/a
86.038	0.165	172076	keystroke_Key.space	Key.space	n/a
86.2635	0.0895	172527	keystroke_g	g	n/a
86.458	0.105	172916	keystroke_a	a	n/a
86.503	0.135	173006	keystroke_r	r	n/a
86.638	0.1355	173276	keystroke_d	d	n/a
87.0735	0.075	174147	keystroke_e	e	n/a
87.3285	0.135	174657	keystroke_n	n	n/a
87.4785	0.165	174957	keystroke_i	i	n/a
87.5685	0.165	175137	keystroke_n	n	n/a
87.6885	0.075	175377	keystroke_g	g	n/a
88.2135	0.12	176427	keystroke_Key.space	Key.space	n/a
88.4385	0.06	176877	keystroke_g	g	n/a
88.5435	0.105	177087	keystroke_i	i	n/a
88.6185	0.09	177237	keystroke_f	f	n/a
88.8285	0.09	177657	keystroke_t	t	n/a
88.9485	0.12	177897	keystroke_Key.space	Key.space	n/a
89.3235	0.09	178647	keystroke_b	b	n/a
89.5185	0.195	179037	keystroke_a	a	n/a
89.9685	0.0895	179937	keystroke_r	r	n/a
90.223	0.105	180446	keystroke_c	c	n/a
90.464	0.089	180928	keystroke_e	e	n/a
90.718	0.135	181436	keystroke_l	l	n/a
90.988	0.15	181976	keystroke_o	o	n/a
91.108	0.135	182216	keystroke_n	n	n/a
91.273	0.105	182546	keystroke_a	a	n/a
92.053	0.135	184106	keystroke_Key.enter	Key.enter	n/a
92.195	6.88	184390	prompt	n/a	blanket awful level customize\n
93.223	0.06	186446	keystroke_b	b	n/a
93.328	0.12	186656	keystroke_l	l	n/a
93.538	0.09	187076	keystroke_a	a	n/a
93.673	0.165	187346	keystroke_n	n	n/a
93.793	0.12	187586	keystroke_k	k	n/a
93.928	0.165	187856	keystroke_e	e	n/a
94.048	0.105	188096	keystroke_t	t	n/a
94.168	0.12	188336	keystroke_Key.space	Key.space	n/a
94.378	0.12	188756	keystroke_a	a	n/a
94.603	0.09	189206	keystroke_w	w	n/a
94.813	0.09	189626	keystroke_f	f	n/a
94.948	0.195	189896	keystroke_u	u	n/a
95.083	0.15	190166	keystroke_l	l	n/a
95.203	0.12	190406	keystroke_Key.space	Key.space	n/a
95.473	0.09	190946	keystroke_l	l	n/a
95.548	0.09	191096	keystroke_e	e	n/a
95.728	0.135	191456	keystroke_v	v	n/a
95.803	0.135	191606	keystroke_e	e	n/a
95.923	0.135	191846	keystroke_l	l	n/a
96.028	0.12	192056	keystroke_Key.space	Key.space	n/a
96.478	0.09	192956	keystroke_c	c	n/a
96.583	0.15	193166	keystroke_u	u	n/a
96.763	0.165	193526	keystroke_s	s	n/a
96.883	0.105	193766	keystroke_t	t	n/a
97.018	0.15	194036	keystroke_o	o	n/a
97.108	0.15	194216	keystroke_m	m	n/a
97.363	0.105	194726	keystroke_i	i	n/a
97.513	0.105	195026	keystroke_z	z	n/a
97.738	0.075	195476	keystroke_e	e	n/a
98.953	0.12	197906	keystroke_Key.enter	Key.enter	n/a
99.0805	7.945	198161	prompt	n/a	nightlife cents generally plenty\n
99.973	0.135	199946	keystroke_n	n	n/a
100.063	0.12	200126	keystroke_i	i	n/a
100.153	0.075	200306	keystroke_g	g	n/a
100.273	0.135	200546	keystroke_h	h	n/a
100.348	0.075	200696	keystroke_t	t	n/a
100.514	0.179	201028	keystroke_l	l	n/a
100.603	0.135	201206	keystroke_i	i	n/a
100.708	0.09	201416	keystroke_f	f	n/a
100.888	0.075	201776	keystroke_e	e	n/a
101.353	0.15	202706	keystroke_Key.space	Key.space	n/a
101.713	0.06	203426	keystroke_c	c	n/a
101.923	0.09	203846	keystroke_e	e	n/a
101.998	0.135	203996	keystroke_n	n	n/a
102.088	0.135	204176	keystroke_t	t	n/a
102.238	0.105	204476	keystroke_s	s	n/a
102.373	0.135	204746	keystroke_Key.space	Key.space	n/a
102.913	0.09	205826	keystroke_g	g	n/a
103.123	0.075	206246	keystroke_e	e	n/a
103.228	0.181	206456	keystroke_n	n	n/a
103.333	0.165	206666	keystroke_e	e	n/a
103.423	0.18	206846	keystroke_r	r	n/a
103.543	0.12	207086	keystroke_a	a	n/a
103.648	0.06	207296	keystroke_l	l	n/a
103.828	0.225	207656	keystroke_l	l	n/a
103.993	0.151	207986	keystroke_y	y	n/a
104.098	0.12	208196	keystroke_Key.space	Key.space	n/a
104.368	0.18	208736	keystroke_p	p	n/a
104.413	0.105	208826	keystroke_l	l	n/a
104.983	0.075	209966	keystroke_e	e	n/a
105.103	0.135	210206	keystroke_n	n	n/a
105.223	0.075	210446	keystroke_t	t	n/a
105.358	0.135	210716	keystroke_y	y	n/a
106.903	0.12	213806	keystroke_Key.enter	Key.enter	n/a
107.0295	11.3505	214059	prompt	n/a	reliability shouldn't clinic construction\n
107.909	0.134	215818	keystroke_r	r	n/a
108.029	0.135	216058	keystroke_e	e	n/a
108.224	0.149	216448	keystroke_l	l	n/a
108.659	0.09	217318	keystroke_i	i	n/a
108.809	0.12	217618	keystroke_a	a	n/a
109.078	0.091	218156	keystroke_b	b	n/a
109.304	0.089	218608	keystroke_i	i	n/a
109.708	0.091	219416	keystroke_l	l	n/a
109.964	0.09	219928	keystroke_i	i	n/a
110.084	0.089	220168	keystroke_t	t	n/a
110.234	0.15	220468	keystroke_y	y	n/a
110.668	0.105	221336	keystroke_Key.space	Key.space	n/a
110.818	0.091	221636	keystroke_s	s	n/a
110.848	0.105	221696	keystroke_h	h	n/a
110.968	0.12	221936	keystroke_o	o	n/a
111.074	0.149	222148	keystroke_u	u	n/a
111.149	0.164	222298	keystroke_l	l	n/a
111.253	0.091	222506	keystroke_d	d	n/a
111.388	0.181	222776	keystroke_n	n	n/a
111.523	0.15	223046	keystroke_'	'	n/a
111.629	0.075	223258	keystroke_t	t	n/a
111.748	0.15	223496	keystroke_Key.space	Key.space	n/a
112.573	0.106	225146	keystroke_c	c	n/a
112.723	0.12	225446	keystroke_l	l	n/a
113.233	0.075	226466	keystroke_i	i	n/a
113.384	0.164	226768	keystroke_n	n	n/a
113.504	0.135	227008	keystroke_i	i	n/a
113.759	0.105	227518	keystroke_c	c	n/a
113.923	0.135	227846	keystroke_Key.space	Key.space	n/a
114.374	0.09	228748	keystroke_c	c	n/a
114.434	0.15	228868	keystroke_o	o	n/a
114.554	0.12	229108	keystroke_n	n	n/a
114.748	0.121	229496	keystroke_s	s	n/a
114.929	0.06	229858	keystroke_t	t	n/a
115.109	0.089	230218	keystroke_r	r	n/a
115.274	0.12	230548	keystroke_u	u	n/a
115.409	0.059	230818	keystroke_c	c	n/a
115.589	0.105	231178	keystroke_t	t	n/a
115.679	0.135	231358	keystroke_i	i	n/a
115.784	0.165	231568	keystroke_o	o	n/a
115.889	0.15	231778	keystroke_n	n	n/a
118.337	0.041	236674	keystroke_Key.enter	Key.enter	n/a
118.3845	7.196	236769	prompt	n/a	cologne he'd solutions bridges\n
119.159	0.105	238318	keystroke_c	c	n/a
119.654	0.075	239308	keystroke_o	o	n/a
119.849	0.06	239698	keystroke_l	l	n/a
120.029	0.075	240058	keystroke_o	o	n/a
120.119	0.075	240238	keystroke_g	g	n/a
120.299	0.09	240598	keystroke_n	n	n/a
120.404	0.075	240808	keystroke_e	e	n/a
120.823	0.12	241646	keystroke_Key.space	Key.space	n/a
121.079	0.075	242158	keystroke_h	h	n/a
121.094	0.075	242188	keystroke_e	e	n/a
121.319	0.12	242638	keystroke_'	'	n/a
121.394	0.09	242788	keystroke_d	d	n/a
121.528	0.136	243056	keystroke_Key.space	Key.space	n/a
121.664	0.075	243328	keystroke_s	s	n/a
121.784	0.09	243568	keystroke_o	o	n/a
121.994	0.18	243988	keystroke_l	l	n/a
122.129	0.105	244258	keystroke_u	u	n/a
122.249	0.09	244498	keystroke_t	t	n/a
122.354	0.135	244708	keystroke_i	i	n/a
122.444	0.165	244888	keystroke_o	o	n/a
122.564	0.135	245128	keystroke_n	n	n/a
122.624	0.09	245248	keystroke_s	s	n/a
122.833	0.135	245666	keystroke_Key.space	Key.space	n/a
123.134	0.09	246268	keystroke_b	b	n/a
123.374	0.075	246748	keystroke_r	r	n/a
123.644	0.105	247288	keystroke_i	i	n/a
123.854	0.09	247708	keystroke_d	d	n/a
124.154	0.06	248308	keystroke_g	g	n/a
124.334	0.09	248668	keystroke_e	e	n/a
124.469	0.105	248938	keystroke_s	s	n/a
125.489	0.09	250978	keystroke_Key.enter	Key.enter	n/a
125.585	11.95	251170	prompt	n/a	precisely none niagara participating\n
126.4785	0.105	252957	keystroke_p	p	n/a
126.5985	0.105	253197	keystroke_r	r	n/a
126.6885	0.09	253377	keystroke_e	e	n/a
126.9135	0.09	253827	keystroke_c	c	n/a
127.0335	0.09	254067	keystroke_i	i	n/a
127.2885	0.075	254577	keystroke_s	s	n/a
127.5135	0.075	255027	keystroke_e	e	n/a
127.6935	0.255	255387	keystroke_l	l	n/a
127.8285	0.135	255657	keystroke_y	y	n/a
127.9035	0.135	255807	keystroke_Key.space	Key.space	n/a
128.3385	0.105	256677	keystroke_n	n	n/a
128.4885	0.15	256977	keystroke_o	o	n/a
128.5935	0.18	257187	keystroke_n	n	n/a
128.7135	0.075	257427	keystroke_e	e	n/a
128.8335	0.09	257667	keystroke_Key.space	Key.space	n/a
128.9835	0.165	257967	keystroke_n	n	n/a
129.1185	0.12	258237	keystroke_i	i	n/a
129.2235	0.12	258447	keystroke_a	a	n/a
130.1535	0.09	260307	keystroke_g	g	n/a
130.5735	0.075	261147	keystroke_a	a	n/a
130.7985	0.15	261597	keystroke_r	r	n/a
130.9335	0.12	261867	keystroke_a	a	n/a
131.8185	0.12	263637	keystroke_Key.space	Key.space	n/a
132.1035	0.105	264207	keystroke_p	p	n/a
134.5505	0.073	269101	keystroke_a	a	n/a
134.7585	0.075	269517	keystroke_r	r	n/a
134.9535	0.075	269907	keystroke_t	t	n/a
135.1485	0.075	270297	keystroke_i	i	n/a
135.3135	0.09	270627	keystroke_c	c	n/a
135.4635	0.12	270927	keystroke_i	i	n/a
135.8835	0.135	271767	keystroke_p	p	n/a
136.0635	0.15	272127	keystroke_a	a	n/a
136.1985	0.12	272397	keystroke_t	t	n/a
136.3335	0.195	272667	keystroke_i	i	n/a
136.4535	0.165	272907	keystroke_n	n	n/a
136.5585	0.075	273117	keystroke_g	g	n/a
137.4285	0.105	274857	keystroke_Key.enter	Key.enter	n/a
137.54	8.5	275080	prompt	n/a	stores products conference married\n
138.4635	0.135	276927	keystroke_s	s	n/a
138.5385	0.075	277077	keystroke_t	t	n/a
138.6585	0.105	277317	keystroke_o	o	n/a
138.7485	0.165	277497	keystroke_r	r	n/a
138.8535	0.15	277707	keystroke_e	e	n/a
138.9435	0.12	277887	keystroke_s	s	n/a
139.0485	0.135	278097	keystroke_Key.space	Key.space	n/a
139.3935	0.09	278787	keystroke_p	p	n/a
139.4985	0.075	278997	keystroke_r	r	n/a
139.5885	0.105	279177	keystroke_o	o	n/a
139.7085	0.06	279417	keystroke_d	d	n/a
139.8885	0.135	279777	keystroke_u	u	n/a
140.4135	0.135	280827	keystroke_c	c	n/a
140.6835	0.135	281367	keystroke_t	t	n/a
140.8035	0.105	281607	keystroke_s	s	n/a
141.4635	0.135	282927	keystroke_Key.space	Key.space	n/a
141.6585	0.09	283317	keystroke_c	c	n/a
141.7635	0.165	283527	keystroke_o	o	n/a
141.9135	0.15	283827	keystroke_n	n	n/a
142.3185	0.105	284637	keystroke_f	f	n/a
142.4685	0.105	284937	keystroke_e	e	n/a
142.5885	0.135	285177	keystroke_r	r	n/a
142.6635	0.105	285327	keystroke_e	e	n/a
142.8135	0.15	285627	keystroke_n	n	n/a
142.9035	0.09	285807	keystroke_c	c	n/a
143.1435	0.075	286287	keystroke_e	e	n/a
143.3085	0.12	286617	keystroke_Key.space	Key.space	n/a
143.5185	0.135	287037	keystroke_m	m	n/a
143.6685	0.09	287337	keystroke_a	a	n/a
143.6985	0.105	287397	keystroke_r	r	n/a
143.8785	0.105	287757	keystroke_r	r	n/a
144.0285	0.12	288057	keystroke_i	i	n/a
144.1185	0.075	288237	keystroke_e	e	n/a
144.2985	0.09	288597	keystroke_d	d	n/a
145.9035	0.135	291807	keystroke_Key.enter	Key.enter	n/a
146.044	6.536	292088	prompt	n/a	adware runtime blah creation\n
146.8035	0.105	293607	keystroke_a	a	n/a
146.9835	0.075	293967	keystroke_d	d	n/a
147.1935	0.06	294387	keystroke_w	w	n/a
147.3735	0.15	294747	keystroke_a	a	n/a
147.4785	0.12	294957	keystroke_r	r	n/a
147.5385	0.105	295077	keystroke_e	e	n/a
147.7485	0.15	295497	keystroke_Key.space	Key.space	n/a
148.0335	0.09	296067	keystroke_r	r	n/a
148.1685	0.075	296337	keystroke_u	u	n/a
148.3635	0.12	296727	keystroke_n	n	n/a
148.4535	0.09	296907	keystroke_t	t	n/a
148.5585	0.165	297117	keystroke_i	i	n/a
148.6485	0.135	297297	keystroke_m	m	n/a
148.7385	0.075	297477	keystroke_e	e	n/a
149.1585	0.12	298317	keystroke_Key.space	Key.space	n/a
149.2935	0.105	298587	keystroke_b	b	n/a
149.3995	0.104	298799	keystroke_l	l	n/a
149.5485	0.075	299097	keystroke_a	a	n/a
149.6685	0.12	299337	keystroke_h	h	n/a
149.9835	0.15	299967	keystroke_Key.space	Key.space	n/a
150.2385	0.12	300477	keystroke_c	c	n/a
150.4935	0.12	300987	keystroke_r	r	n/a
150.5835	0.135	301167	keystroke_e	e	n/a
150.6885	0.165	301377	keystroke_a	a	n/a
150.7785	0.09	301557	keystroke_t	t	n/a
151.1235	0.195	302247	keystroke_i	i	n/a
151.2885	0.15	302577	keystroke_o	o	n/a
151.3935	0.135	302787	keystroke_n	n	n/a
152.4585	0.12	304917	keystroke_Key.enter	Key.enter	n/a
152.5895	10.4	305179	prompt	n/a	tomorrow gothic important visible\n
153.4485	0.09	306897	keystroke_t	t	n/a
153.5535	0.075	307107	keystroke_o	o	n/a
153.6585	0.15	307317	keystroke_m	m	n/a
153.7485	0.15	307497	keystroke_o	o	n/a
153.8535	0.06	307707	keystroke_r	r	n/a
154.0335	0.075	308067	keystroke_r	r	n/a
154.0935	0.09	308187	keystroke_o	o	n/a
154.2135	0.09	308427	keystroke_w	w	n/a
154.3185	0.105	308637	keystroke_Key.space	Key.space	n/a
154.4535	0.09	308907	keystroke_t	t	n/a
155.0835	0.06	310167	keystroke_Key.backspace	Key.backspace	n/a
155.8185	0.09	311637	keystroke_g	g	n/a
155.8935	0.12	311787	keystroke_o	o	n/a
156.1185	0.075	312237	keystroke_t	t	n/a
156.1935	0.135	312387	keystroke_h	h	n/a
156.2985	0.105	312597	keystroke_i	i	n/a
156.6135	0.075	313227	keystroke_c	c	n/a
156.9135	0.135	313827	keystroke_Key.space	Key.space	n/a
157.6785	0.165	315357	keystroke_i	i	n/a
157.7835	0.225	315567	keystroke_m	m	n/a
157.9335	0.15	315867	keystroke_p	p	n/a
158.0685	0.105	316137	keystroke_o	o	n/a
158.1585	0.09	316317	keystroke_r	r	n/a
158.3535	0.075	316707	keystroke_t	t	n/a
158.4435	0.105	316887	keystroke_a	a	n/a
158.5635	0.135	317127	keystroke_n	n	n/a
158.6385	0.09	317277	keystroke_t	t	n/a
158.7435	0.135	317487	keystroke_Key.space	Key.space	n/a
159.4635	0.09	318927	keystroke_v	v	n/a
159.5985	0.075	319197	keystroke_i	i	n/a
159.7335	0.09	319467	keystroke_s	s	n/a
159.8535	0.105	319707	keystroke_i	i	n/a
160.0185	0.105	320037	keystroke_b	b	n/a
160.2135	0.06	320427	keystroke_l	l	n/a
160.3035	0.09	320607	keystroke_e	e	n/a
162.9465	0.042	325893	keystroke_Key.enter	Key.enter	n/a
162.994	9.311	325988	prompt	n/a	indeed mirrors dawn billing\n
163.843	0.135	327686	keystroke_i	i	n/a
163.933	0.135	327866	keystroke_n	n	n/a
164.218	0.09	328436	keystroke_e	e	n/a
164.413	0.075	328826	keystroke_e	e	n/a
164.653	0.09	329306	keystroke_d	d	n/a
165.103	0.09	330206	keystroke_Key.backspace	Key.backspace	n/a
165.283	0.09	330566	keystroke_Key.backspace	Key.backspace	n/a
165.433	0.105	330866	keystroke_Key.backspace	Key.backspace	n/a
165.523	0.09	331046	keystroke_d	d	n/a
165.778	0.06	331556	keystroke_e	e	n/a
165.913	0.075	331826	keystroke_e	e	n/a
166.123	0.075	332246	keystroke_d	d	n/a
166.243	0.12	332486	keystroke_Key.space	Key.space	n/a
166.843	0.09	333686	keystroke_m	m	n/a
166.993	0.135	333986	keystroke_i	i	n/a
167.113	0.09	334226	keystroke_r	r	n/a
167.278	0.09	334556	keystroke_r	r	n/a
167.383	0.09	334766	keystroke_o	o	n/a
167.488	0.105	334976	keystroke_r	r	n/a
167.623	0.105	335246	keystroke_s	s	n/a
167.848	0.135	335696	keystroke_Key.space	Key.space	n/a
168.478	0.09	336956	keystroke_d	d	n/a
169.048	0.09	338096	keystroke_a	a	n/a
169.273	0.09	338546	keystroke_w	w	n/a
169.378	0.135	338756	keystroke_n	n	n/a
169.933	0.135	339866	keystroke_Key.space	Key.space	n/a
170.113	0.09	340226	keystroke_b	b	n/a
170.188	0.09	340376	keystroke_i	i	n/a
170.383	0.075	340766	keystroke_l	l	n/a
170.548	0.18	341096	keystroke_l	l	n/a
170.623	0.165	341246	keystroke_i	i	n/a
170.713	0.15	341426	keystroke_n	n	n/a
170.803	0.075	341606	keystroke_g	g	n/a
172.153	0.15	344306	keystroke_Key.enter	Key.enter	n/a
172.312	11.198	344624	prompt	n/a	obtained pennsylvania observed privileges\n
173.143	0.105	346286	keystroke_o	o	n/a
173.383	0.075	346766	keystroke_b	b	n/a
173.623	0.165	347246	keystroke_t	t	n/a
173.743	0.135	347486	keystroke_a	a	n/a
173.848	0.15	347696	keystroke_i	i	n/a
173.923	0.18	347846	keystroke_n	n	n/a
174.013	0.075	348026	keystroke_e	e	n/a
174.208	0.075	348416	keystroke_d	d	n/a
174.298	0.15	348596	keystroke_Key.space	Key.space	n/a
175.108	0.09	350216	keystroke_p	p	n/a
175.243	0.075	350486	keystroke_e	e	n/a
175.378	0.075	350756	keystroke_n	n	n/a
175.558	0.12	351116	keystroke_n	n	n/a
176.173	0.105	352346	keystroke_s	s	n/a
176.338	0.12	352676	keystroke_y	y	n/a
176.473	0.12	352946	keystroke_l	l	n/a
176.698	0.075	353396	keystroke_v	v	n/a
176.878	0.09	353756	keystroke_a	a	n/a
176.953	0.105	353906	keystroke_n	n	n/a
177.088	0.12	354176	keystroke_i	i	n/a
177.238	0.09	354476	keystroke_a	a	n/a
178.063	0.12	356126	keystroke_Key.space	Key.space	n/a
178.348	0.105	356696	keystroke_o	o	n/a
178.468	0.09	356936	keystroke_b	b	n/a
178.693	0.075	357386	keystroke_s	s	n/a
178.888	0.135	357776	keystroke_e	e	n/a
179.008	0.06	358016	keystroke_r	r	n/a
179.248	0.09	358496	keystroke_v	v	n/a
179.443	0.06	358886	keystroke_e	e	n/a
179.623	0.075	359246	keystroke_d	d	n/a
179.788	0.15	359576	keystroke_Key.space	Key.space	n/a
180.313	0.091	360626	keystroke_p	p	n/a
180.418	0.105	360836	keystroke_r	r	n/a
180.553	0.075	361106	keystroke_i	i	n/a
180.673	0.09	361346	keystroke_v	v	n/a
180.808	0.09	361616	keystroke_i	i	n/a
181.213	0.09	362426	keystroke_l	l	n/a
181.378	0.075	362756	keystroke_e	e	n/a
181.588	0.105	363176	keystroke_g	g	n/a
181.708	0.12	363416	keystroke_e	e	n/a
181.858	0.105	363716	keystroke_s	s	n/a
183.388	0.12	366776	keystroke_Key.enter	Key.enter	n/a
183.5145	7.1505	367029	prompt	n/a	forecasts ratio focal seats\n
184.288	0.06	368576	keystroke_f	f	n/a
184.363	0.105	368726	keystroke_o	o	n/a
184.498	0.09	368996	keystroke_r	r	n/a
184.783	0.09	369566	keystroke_e	e	n/a
185.068	0.075	370136	keystroke_c	c	n/a
185.278	0.105	370556	keystroke_a	a	n/a
185.324	0.209	370648	keystroke_s	s	n/a
185.548	0.15	371096	keystroke_t	t	n/a
185.668	0.105	371336	keystroke_s	s	n/a
186.238	0.15	372476	keystroke_Key.space	Key.space	n/a
186.463	0.105	372926	keystroke_r	r	n/a
186.628	0.165	373256	keystroke_a	a	n/a
186.718	0.12	373436	keystroke_t	t	n/a
186.823	0.165	373646	keystroke_i	i	n/a
186.943	0.12	373886	keystroke_o	o	n/a
187.528	0.12	375056	keystroke_Key.space	Key.space	n/a
187.723	0.09	375446	keystroke_f	f	n/a
187.843	0.12	375686	keystroke_o	o	n/a
187.948	0.09	375896	keystroke_c	c	n/a
188.143	0.075	376286	keystroke_a	a	n/a
188.188	0.135	376376	keystroke_l	l	n/a
188.308	0.12	376616	keystroke_Key.space	Key.space	n/a
188.488	0.09	376976	keystroke_s	s	n/a
188.698	0.09	377396	keystroke_e	e	n/a
188.848	0.12	377696	keystroke_a	a	n/a
189.088	0.09	378176	keystroke_t	t	n/a
189.253	0.12	378506	keystroke_s	s	n/a
190.528	0.135	381056	keystroke_Key.enter	Key.enter	n/a
190.669	7.7965	381338	prompt	n/a	decade horn maternity ingredients\n
191.428	0.06	382856	keystroke_d	d	n/a
191.593	0.076	383186	keystroke_e	e	n/a
191.804	0.059	383608	keystroke_c	c	n/a
191.968	0.091	383936	keystroke_a	a	n/a
192.133	0.076	384266	keystroke_d	d	n/a
192.344	0.06	384688	keystroke_e	e	n/a
192.523	0.12	385046	keystroke_Key.space	Key.space	n/a
192.853	0.09	385706	keystroke_h	h	n/a
192.988	0.09	385976	keystroke_o	o	n/a
193.108	0.091	386216	keystroke_r	r	n/a
193.258	0.165	386516	keystroke_n	n	n/a
193.393	0.12	386786	keystroke_Key.space	Key.space	n/a
193.739	0.089	387478	keystroke_m	m	n/a
193.994	0.134	387988	keystroke_a	a	n/a
194.159	0.075	388318	keystroke_t	t	n/a
194.294	0.119	388588	keystroke_e	e	n/a
194.414	0.089	388828	keystroke_r	r	n/a
194.473	0.18	388946	keystroke_n	n	n/a
194.623	0.12	389246	keystroke_i	i	n/a
194.774	0.089	389548	keystroke_t	t	n/a
194.923	0.151	389846	keystroke_y	y	n/a
194.999	0.134	389998	keystroke_Key.space	Key.space	n/a
195.838	0.136	391676	keystroke_i	i	n/a
195.913	0.15	391826	keystroke_n	n	n/a
196.153	0.061	392306	keystroke_g	g	n/a
196.348	0.106	392696	keystroke_r	r	n/a
196.439	0.074	392878	keystroke_e	e	n/a
196.619	0.075	393238	keystroke_d	d	n/a
196.724	0.089	393448	keystroke_i	i	n/a
196.889	0.089	393778	keystroke_e	e	n/a
197.024	0.135	394048	keystroke_n	n	n/a
197.129	0.12	394258	keystroke_t	t	n/a
197.204	0.12	394408	keystroke_s	s	n/a
198.343	0.12	396686	keystroke_Key.enter	Key.enter	n/a
198.47	9.2655	396940	prompt	n/a	gene trinidad convention electrical\n
199.229	0.075	398458	keystroke_g	g	n/a
199.394	0.075	398788	keystroke_e	e	n/a
199.484	0.12	398968	keystroke_n	n	n/a
199.589	0.105	399178	keystroke_e	e	n/a
199.708	0.15	399416	keystroke_Key.space	Key.space	n/a
199.889	0.06	399778	keystroke_t	t	n/a
200.069	0.075	400138	keystroke_r	r	n/a
200.204	0.12	400408	keystroke_i	i	n/a
200.609	0.105	401218	keystroke_n	n	n/a
200.864	0.105	401728	keystroke_i	i	n/a
201.059	0.09	402118	keystroke_d	d	n/a
201.299	0.105	402598	keystroke_a	a	n/a
201.494	0.09	402988	keystroke_d	d	n/a
202.393	0.135	404786	keystroke_Key.space	Key.space	n/a
202.829	0.105	405658	keystroke_c	c	n/a
202.964	0.135	405928	keystroke_o	o	n/a
203.084	0.135	406168	keystroke_n	n	n/a
203.369	0.075	406738	keystroke_v	v	n/a
203.549	0.075	407098	keystroke_e	e	n/a
203.654	0.12	407308	keystroke_n	n	n/a
203.789	0.06	407578	keystroke_t	t	n/a
203.909	0.15	407818	keystroke_i	i	n/a
204.014	0.18	408028	keystroke_o	o	n/a
204.149	0.15	408298	keystroke_n	n	n/a
204.658	0.12	409316	keystroke_Key.space	Key.space	n/a
204.944	0.075	409888	keystroke_e	e	n/a
205.034	0.12	410068	keystroke_l	l	n/a
205.169	0.075	410338	keystroke_e	e	n/a
205.379	0.075	410758	keystroke_c	c	n/a
205.589	0.045	411178	keystroke_t	t	n/a
205.754	0.09	411508	keystroke_r	r	n/a
205.889	0.075	411778	keystroke_i	i	n/a
205.979	0.09	411958	keystroke_c	c	n/a
206.129	0.12	412258	keystroke_a	a	n/a
206.234	0.12	412468	keystroke_l	l	n/a
207.629	0.105	415258	keystroke_Key.enter	Key.enter	n/a
207.74	7.5695	415480	prompt	n/a	assess member measurement presence\n
208.349	0.09	416698	keystroke_a	a	n/a
208.544	0.09	417088	keystroke_s	s	n/a
208.724	0.09	417448	keystroke_s	s	n/a
208.934	0.075	417868	keystroke_e	e	n/a
209.129	0.06	418258	keystroke_s	s	n/a
209.279	0.105	418558	keystroke_s	s	n/a
209.444	0.119	418888	keystroke_Key.space	Key.space	n/a
209.759	0.12	419518	keystroke_m	m	n/a
209.924	0.09	419848	keystroke_e	e	n/a
210.089	0.15	420178	keystroke_m	m	n/a
210.329	0.12	420658	keystroke_b	b	n/a
210.614	0.165	421228	keystroke_e	e	n/a
210.719	0.12	421438	keystroke_r	r	n/a
210.854	0.12	421708	keystroke_Key.space	Key.space	n/a
211.229	0.12	422458	keystroke_m	m	n/a
211.319	0.105	422638	keystroke_e	e	n/a
211.469	0.165	422938	keystroke_a	a	n/a
211.604	0.135	423208	keystroke_s	s	n/a
211.829	0.15	423658	keystroke_u	u	n/a
212.069	0.075	424138	keystroke_r	r	n/a
212.294	0.09	424588	keystroke_e	e	n/a
212.474	0.135	424948	keystroke_m	m	n/a
212.564	0.09	425128	keystroke_e	e	n/a
212.699	0.1645	425398	keystroke_n	n	n/a
212.8035	0.075	425607	keystroke_t	t	n/a
213.0435	0.135	426087	keystroke_Key.space	Key.space	n/a
213.5385	0.09	427077	keystroke_p	p	n/a
213.6135	0.12	427227	keystroke_r	r	n/a
213.7185	0.105	427437	keystroke_e	e	n/a
213.8385	0.075	427677	keystroke_s	s	n/a
213.9885	0.09	427977	keystroke_e	e	n/a
214.1385	0.135	428277	keystroke_n	n	n/a
214.2285	0.09	428457	keystroke_c	c	n/a
214.4535	0.075	428907	keystroke_e	e	n/a
215.1885	0.12	430377	keystroke_Key.enter	Key.enter	n/a
215.314	6.821	430628	prompt	n/a	would output mail moon\n
216.1185	0.09	432237	keystroke_o	o	n/a
216.5385	0.09	433077	keystroke_Key.backspace	Key.backspace	n/a
216.6435	0.105	433287	keystroke_w	w	n/a
216.8385	0.165	433677	keystroke_o	o	n/a
216.9735	0.195	433947	keystroke_u	u	n/a
217.0935	0.15	434187	keystroke_l	l	n/a
217.1835	0.09	434367	keystroke_d	d	n/a
217.2885	0.165	434577	keystroke_Key.space	Key.space	n/a
217.9635	0.105	435927	keystroke_o	o	n/a
218.2335	0.12	436467	keystroke_u	u	n/a
218.6835	0.06	437367	keystroke_t	t	n/a
218.8485	0.09	437697	keystroke_p	p	n/a
219.0585	0.12	438117	keystroke_u	u	n/a
219.1635	0.06	438327	keystroke_t	t	n/a
219.7485	0.09	439497	keystroke_Key.space	Key.space	n/a
219.9285	0.135	439857	keystroke_m	m	n/a
220.0635	0.09	440127	keystroke_a	a	n/a
220.1835	0.195	440367	keystroke_i	i	n/a
220.3185	0.15	440637	keystroke_l	l	n/a
220.4385	0.135	440877	keystroke_Key.space	Key.space	n/a
220.5585	0.135	441117	keystroke_m	m	n/a
220.9185	0.075	441837	keystroke_o	o	n/a
221.0835	0.15	442167	keystroke_o	o	n/a
221.2035	0.12	442407	keystroke_n	n	n/a
221.9835	0.15	443967	keystroke_Key.enter	Key.enter	n/a
222.1395	6.956	444279	prompt	n/a	logo causing highways include\n
222.8385	0.075	445677	keystroke_l	l	n/a
223.0335	0.075	446067	keystroke_o	o	n/a
223.1535	0.06	446307	keystroke_g	g	n/a
223.2585	0.135	446517	keystroke_o	o	n/a
223.4085	0.105	446817	keystroke_Key.space	Key.space	n/a
223.5585	0.09	447117	keystroke_c	c	n/a
224.0385	0.09	448077	keystroke_a	a	n/a
224.1585	0.12	448317	keystroke_u	u	n/a
224.2935	0.105	448587	keystroke_s	s	n/a
224.4435	0.18	448887	keystroke_i	i	n/a
224.5635	0.24	449127	keystroke_n	n	n/a
224.6685	0.09	449337	keystroke_g	g	n/a
224.8035	0.12	449607	keystroke_Key.space	Key.space	n/a
225.3585	0.165	450717	keystroke_h	h	n/a
225.4785	0.105	450957	keystroke_i	i	n/a
225.5685	0.09	451137	keystroke_g	g	n/a
225.6735	0.135	451347	keystroke_h	h	n/a
225.9435	0.09	451887	keystroke_w	w	n/a
226.1085	0.105	452217	keystroke_a	a	n/a
226.2285	0.12	452457	keystroke_y	y	n/a
226.3335	0.105	452667	keystroke_s	s	n/a
226.6185	0.135	453237	keystroke_Key.space	Key.space	n/a
227.0385	0.135	454077	keystroke_i	i	n/a
227.1135	0.15	454227	keystroke_n	n	n/a
227.3985	0.105	454797	keystroke_c	c	n/a
227.5935	0.21	455187	keystroke_l	l	n/a
227.6985	0.15	455397	keystroke_u	u	n/a
227.8185	0.06	455637	keystroke_d	d	n/a
228.0585	0.075	456117	keystroke_e	e	n/a
228.9735	0.12	457947	keystroke_Key.enter	Key.enter	n/a
229.0995	7.4505	458199	prompt	n/a	comp acer adults disorder\n
229.9185	0.09	459837	keystroke_c	c	n/a
230.0535	0.09	460107	keystroke_o	o	n/a
230.1285	0.15	460257	keystroke_m	m	n/a
230.2335	0.12	460467	keystroke_p	p	n/a
230.3385	0.165	460677	keystroke_Key.space	Key.space	n/a
230.4885	0.105	460977	keystroke_a	a	n/a
230.6685	0.075	461337	keystroke_c	c	n/a
230.8785	0.135	461757	keystroke_e	e	n/a
230.9535	0.135	461907	keystroke_r	r	n/a
231.0585	0.135	462117	keystroke_Key.space	Key.space	n/a
231.8835	0.075	463767	keystroke_a	a	n/a
232.0485	0.09	464097	keystroke_d	d	n/a
232.1685	0.18	464337	keystroke_u	u	n/a
232.2885	0.135	464577	keystroke_l	l	n/a
232.3935	0.135	464787	keystroke_t	t	n/a
232.4835	0.105	464967	keystroke_s	s	n/a
232.6335	0.135	465267	keystroke_Key.space	Key.space	n/a
233.2035	0.105	466407	keystroke_d	d	n/a
233.2935	0.135	466587	keystroke_i	i	n/a
233.4135	0.105	466827	keystroke_s	s	n/a
233.6235	0.105	467247	keystroke_o	o	n/a
233.8635	0.075	467727	keystroke_r	r	n/a
234.0285	0.075	468057	keystroke_d	d	n/a
234.2085	0.135	468417	keystroke_e	e	n/a
234.7635	0.105	469527	keystroke_r	r	n/a
236.4285	0.12	472857	keystroke_Key.enter	Key.enter	n/a
236.5545	10.511	473109	prompt	n/a	embassy voyeurweb cambodia ties\n
237.3285	0.09	474657	keystroke_e	e	n/a
237.4335	0.15	474867	keystroke_m	m	n/a
237.6135	0.135	475227	keystroke_b	b	n/a
237.8385	0.105	475677	keystroke_a	a	n/a
238.0485	0.075	476097	keystroke_s	s	n/a
238.1985	0.105	476397	keystroke_s	s	n/a
238.3335	0.15	476667	keystroke_y	y	n/a
238.4235	0.135	476847	keystroke_Key.space	Key.space	n/a
238.8585	0.09	477717	keystroke_v	v	n/a
239.0835	0.075	478167	keystroke_o	o	n/a
239.7285	0.12	479457	keystroke_y	y	n/a
240.3585	0.09	480717	keystroke_e	e	n/a
240.7335	0.135	481467	keystroke_u	u	n/a
241.1535	0.09	482307	keystroke_r	r	n/a
241.6185	0.09	483237	keystroke_w	w	n/a
241.7535	0.105	483507	keystroke_e	e	n/a
242.0235	0.09	484047	keystroke_b	b	n/a
242.8185	0.09	485637	keystroke_Key.space	Key.space	n/a
243.0885	0.015	486177	keystroke_c	c	n/a
243.1935	0.09	486387	keystroke_a	a	n/a
243.2985	0.09	486597	keystroke_m	m	n/a
243.4485	0.105	486897	keystroke_b	b	n/a
243.5985	0.09	487197	keystroke_o	o	n/a
243.7485	0.075	487497	keystroke_d	d	n/a
243.8385	0.09	487677	keystroke_i	i	n/a
243.9885	0.09	487977	keystroke_a	a	n/a
244.7535	0.12	489507	keystroke_Key.space	Key.space	n/a
245.2485	0.075	490497	keystroke_t	t	n/a
245.3385	0.12	490677	keystroke_i	i	n/a
245.4285	0.09	490857	keystroke_e	e	n/a
245.6385	0.09	491277	keystroke_s	s	n/a
246.9285	0.135	493857	keystroke_Key.enter	Key.enter	n/a
247.0815	7.259	494163	prompt	n/a	tracking personally assess operates\n
248.0085	0.06	496017	keystroke_t	t	n/a
248.1885	0.105	496377	keystroke_r	r	n/a
248.2635	0.09	496527	keystroke_a	a	n/a
248.4135	0.105	496827	keystroke_c	c	n/a
248.5185	0.075	497037	keystroke_k	k	n/a
248.6835	0.165	497367	keystroke_i	i	n/a
248.7735	0.195	497547	keystroke_n	n	n/a
248.8185	0.09	497637	keystroke_g	g	n/a
248.9235	0.135	497847	keystroke_Key.space	Key.space	n/a
249.1635	0.105	498327	keystroke_p	p	n/a
249.7185	0.105	499437	keystroke_e	e	n/a
249.8835	0.15	499767	keystroke_r	r	n/a
249.9735	0.135	499947	keystroke_s	s	n/a
250.0935	0.165	500187	keystroke_o	o	n/a
250.2135	0.105	500427	keystroke_n	n	n/a
250.2735	0.105	500547	keystroke_a	a	n/a
250.4385	0.075	500877	keystroke_l	l	n/a
250.6035	0.225	501207	keystroke_l	l	n/a
250.7235	0.15	501447	keystroke_y	y	n/a
250.7985	0.15	501597	keystroke_Key.space	Key.space	n/a
251.3385	0.075	502677	keystroke_a	a	n/a
251.5335	0.06	503067	keystroke_s	s	n/a
251.6835	0.09	503367	keystroke_s	s	n/a
251.8785	0.06	503757	keystroke_e	e	n/a
252.0585	0.075	504117	keystroke_s	s	n/a
252.2085	0.075	504417	keystroke_s	s	n/a
252.3135	0.12	504627	keystroke_Key.space	Key.space	n/a
252.5235	0.075	505047	keystroke_o	o	n/a
252.6885	0.105	505377	keystroke_p	p	n/a
252.7635	0.195	505527	keystroke_e	e	n/a
252.8835	0.135	505767	keystroke_r	r	n/a
253.0195	0.134	506039	keystroke_a	a	n/a
253.1235	0.15	506247	keystroke_t	t	n/a
253.1835	0.18	506367	keystroke_e	e	n/a
253.3335	0.105	506667	keystroke_s	s	n/a
254.2035	0.135	508407	keystroke_Key.enter	Key.enter	n/a
254.345	6.43	508690	prompt	n/a	prairie hasn't loose fear\n
255.1335	0.15	510267	keystroke_p	p	n/a
255.2985	0.09	510597	keystroke_r	r	n/a
255.6135	0.105	511227	keystroke_a	a	n/a
255.8985	0.09	511797	keystroke_i	i	n/a
256.4385	0.075	512877	keystroke_r	r	n/a
256.6785	0.12	513357	keystroke_i	i	n/a
256.7835	0.09	513567	keystroke_e	e	n/a
257.3235	0.12	514647	keystroke_Key.space	Key.space	n/a
257.5785	0.12	515157	keystroke_h	h	n/a
257.6535	0.15	515307	keystroke_a	a	n/a
257.7135	0.15	515427	keystroke_s	s	n/a
257.8485	0.195	515697	keystroke_n	n	n/a
257.9685	0.165	515937	keystroke_'	'	n/a
258.0735	0.09	516147	keystroke_t	t	n/a
258.2235	0.12	516447	keystroke_Key.space	Key.space	n/a
258.5685	0.12	517137	keystroke_l	l	n/a
258.7935	0.06	517587	keystroke_o	o	n/a
258.9435	0.135	517887	keystroke_o	o	n/a
259.0335	0.075	518067	keystroke_s	s	n/a
259.2285	0.075	518457	keystroke_e	e	n/a
259.3485	0.105	518697	keystroke_Key.space	Key.space	n/a
259.4545	0.074	518909	keystroke_f	f	n/a
259.6035	0.165	519207	keystroke_e	e	n/a
259.7235	0.18	519447	keystroke_a	a	n/a
259.8135	0.105	519627	keystroke_r	r	n/a
260.6385	0.135	521277	keystroke_Key.enter	Key.enter	n/a
260.782	6.2625	521564	prompt	n/a	ruling listed yukon fishing\n
261.7335	0.12	523467	keystroke_r	r	n/a
261.8835	0.09	523767	keystroke_u	u	n/a
262.0785	0.195	524157	keystroke_l	l	n/a
262.2135	0.18	524427	keystroke_i	i	n/a
262.3335	0.105	524667	keystroke_n	n	n/a
262.3485	0.075	524697	keystroke_g	g	n/a
262.4535	0.135	524907	keystroke_Key.space	Key.space	n/a
262.5585	0.18	525117	keystroke_l	l	n/a
262.6635	0.1495	525327	keystroke_i	i	n/a
262.7685	0.1645	525537	keystroke_s	s	n/a
262.858	0.165	525716	keystroke_t	t	n/a
262.978	0.09	525956	keystroke_e	e	n/a
263.173	0.09	526346	keystroke_d	d	n/a
263.2485	0.151	526497	keystroke_Key.space	Key.space	n/a
263.998	0.105	527996	keystroke_y	y	n/a
264.253	0.12	528506	keystroke_u	u	n/a
264.508	0.09	529016	keystroke_k	k	n/a
264.7475	0.15	529495	keystroke_o	o	n/a
264.8535	0.194	529707	keystroke_n	n	n/a
265.0175	0.15	530035	keystroke_Key.space	Key.space	n/a
265.3175	0.09	530635	keystroke_f	f	n/a
265.4225	0.105	530845	keystroke_i	i	n/a
265.5575	0.106	531115	keystroke_s	s	n/a
265.6775	0.135	531355	keystroke_h	h	n/a
265.7825	0.21	531565	keystroke_i	i	n/a
265.9175	0.15	531835	keystroke_n	n	n/a
266.0225	0.075	532045	keystroke_g	g	n/a
266.9225	0.12	533845	keystroke_Key.enter	Key.enter	n/a
267.049	9.9555	534098	prompt	n/a	miscellaneous existed surfing genealogy\n
267.8825	0.12	535765	keystroke_m	m	n/a
268.1375	0.12	536275	keystroke_i	i	n/a
268.3025	0.105	536605	keystroke_s	s	n/a
268.6325	0.105	537265	keystroke_c	c	n/a
268.9025	0.075	537805	keystroke_e	e	n/a
269.0675	0.075	538135	keystroke_l	l	n/a
269.2175	0.12	538435	keystroke_l	l	n/a
269.3225	0.09	538645	keystroke_a	a	n/a
269.5025	0.105	539005	keystroke_n	n	n/a
269.6385	0.074	539277	keystroke_e	e	n/a
269.8025	0.15	539605	keystroke_o	o	n/a
269.8935	0.149	539787	keystroke_u	u	n/a
270.0125	0.075	540025	keystroke_s	s	n/a
270.4325	0.12	540865	keystroke_Key.space	Key.space	n/a
270.8525	0.045	541705	keystroke_e	e	n/a
271.0325	0.09	542065	keystroke_x	x	n/a
271.1375	0.121	542275	keystroke_i	i	n/a
271.2725	0.12	542545	keystroke_s	s	n/a
271.4075	0.15	542815	keystroke_t	t	n/a
271.4825	0.105	542965	keystroke_e	e	n/a
271.6925	0.09	543385	keystroke_d	d	n/a
271.7975	0.105	543595	keystroke_Key.space	Key.space	n/a
272.3525	0.09	544705	keystroke_s	s	n/a
272.5025	0.15	545005	keystroke_u	u	n/a
272.5775	0.09	545155	keystroke_r	r	n/a
272.8175	0.075	545635	keystroke_f	f	n/a
272.9675	0.165	545935	keystroke_i	i	n/a
273.0575	0.21	546115	keystroke_n	n	n/a
273.1475	0.09	546295	keystroke_g	g	n/a
273.2525	0.12	546505	keystroke_Key.space	Key.space	n/a
273.6425	0.075	547285	keystroke_g	g	n/a
273.8525	0.076	547705	keystroke_e	e	n/a
274.0325	0.12	548065	keystroke_n	n	n/a
274.1535	0.089	548307	keystroke_e	e	n/a
274.3775	0.105	548755	keystroke_a	a	n/a
275.3375	0.075	550675	keystroke_l	l	n/a
275.5325	0.075	551065	keystroke_o	o	n/a
275.6225	0.075	551245	keystroke_g	g	n/a
275.7575	0.15	551515	keystroke_y	y	n/a
276.8675	0.135	553735	keystroke_Key.enter	Key.enter	n/a
277.009	7.2855	554018	prompt	n/a	arranged port veterans pharmacy\n
277.8135	0.105	555627	keystroke_a	a	n/a
277.9485	0.074	555897	keystroke_r	r	n/a
278.1135	0.134	556227	keystroke_r	r	n/a
278.2775	0.226	556555	keystroke_a	a	n/a
278.5185	0.165	557037	keystroke_n	n	n/a
278.6675	0.091	557335	keystroke_g	g	n/a
278.8025	0.075	557605	keystroke_e	e	n/a
278.9825	0.09	557965	keystroke_d	d	n/a
279.0575	0.15	558115	keystroke_Key.space	Key.space	n/a
279.2685	0.105	558537	keystroke_p	p	n/a
279.4485	0.104	558897	keystroke_o	o	n/a
279.5225	0.075	559045	keystroke_r	r	n/a
279.7185	0.059	559437	keystroke_t	t	n/a
279.8075	0.135	559615	keystroke_Key.space	Key.space	n/a
279.9725	0.076	559945	keystroke_v	v	n/a
280.1375	0.061	560275	keystroke_e	e	n/a
280.2435	0.089	560487	keystroke_t	t	n/a
280.3785	0.194	560757	keystroke_e	e	n/a
280.4825	0.165	560965	keystroke_r	r	n/a
280.6635	0.164	561327	keystroke_a	a	n/a
280.8575	0.166	561715	keystroke_n	n	n/a
281.0975	0.091	562195	keystroke_s	s	n/a
281.6235	0.134	563247	keystroke_Key.space	Key.space	n/a
281.9835	0.074	563967	keystroke_p	p	n/a
282.1785	0.12	564357	keystroke_h	h	n/a
282.3135	0.105	564627	keystroke_a	a	n/a
282.3435	0.135	564687	keystroke_r	r	n/a
282.5235	0.15	565047	keystroke_m	m	n/a
282.6885	0.075	565377	keystroke_a	a	n/a
282.8835	0.105	565767	keystroke_c	c	n/a
282.9735	0.09	565947	keystroke_y	y	n/a
284.1725	0.12	568345	keystroke_Key.enter	Key.enter	n/a
284.299	8.7705	568598	prompt	n/a	review essays response utilities\n
285.1635	0.075	570327	keystroke_r	r	n/a
285.4335	0.09	570867	keystroke_e	e	n/a
285.7475	0.106	571495	keystroke_v	v	n/a
285.8835	0.15	571767	keystroke_i	i	n/a
286.0185	0.195	572037	keystroke_e	e	n/a
286.1835	0.105	572367	keystroke_w	w	n/a
286.4825	0.15	572965	keystroke_Key.space	Key.space	n/a
286.7535	0.075	573507	keystroke_e	e	n/a
286.9635	0.075	573927	keystroke_s	s	n/a
287.1285	0.075	574257	keystroke_s	s	n/a
287.2785	0.105	574557	keystroke_a	a	n/a
287.4135	0.12	574827	keystroke_y	y	n/a
287.5035	0.075	575007	keystroke_s	s	n/a
288.1775	0.15	576355	keystroke_Key.space	Key.space	n/a
288.4335	0.075	576867	keystroke_r	r	n/a
288.5685	0.105	577137	keystroke_e	e	n/a
288.7935	0.09	577587	keystroke_s	s	n/a
288.8985	0.075	577797	keystroke_p	p	n/a
289.0785	0.15	578157	keystroke_o	o	n/a
289.1835	0.15	578367	keystroke_n	n	n/a
289.2885	0.135	578577	keystroke_s	s	n/a
289.3935	0.105	578787	keystroke_e	e	n/a
289.8875	0.136	579775	keystroke_Key.space	Key.space	n/a
290.1735	0.105	580347	keystroke_u	u	n/a
290.5035	0.075	581007	keystroke_t	t	n/a
290.9385	0.09	581877	keystroke_i	i	n/a
291.2235	0.105	582447	keystroke_l	l	n/a
291.4635	0.09	582927	keystroke_i	i	n/a
291.6885	0.075	583377	keystroke_t	t	n/a
291.7335	0.105	583467	keystroke_i	i	n/a
291.8535	0.15	583707	keystroke_e	e	n/a
291.9735	0.12	583947	keystroke_s	s	n/a
292.9635	0.105	585927	keystroke_Key.enter	Key.enter	n/a
293.0745	7.375	586149	prompt	n/a	differential shake core proposed\n
293.9685	0.09	587937	keystroke_d	d	n/a
294.1485	0.09	588297	keystroke_i	i	n/a
294.2085	0.06	588417	keystroke_f	f	n/a
294.3735	0.09	588747	keystroke_f	f	n/a
294.5235	0.075	589047	keystroke_e	e	n/a
294.6285	0.135	589257	keystroke_r	r	n/a
294.7335	0.09	589467	keystroke_e	e	n/a
294.8685	0.12	589737	keystroke_n	n	n/a
294.9585	0.06	589917	keystroke_t	t	n/a
295.1235	0.075	590247	keystroke_i	i	n/a
295.2735	0.09	590547	keystroke_a	a	n/a
295.4085	0.135	590817	keystroke_l	l	n/a
295.5135	0.15	591027	keystroke_Key.space	Key.space	n/a
296.1735	0.105	592347	keystroke_s	s	n/a
296.2935	0.06	592587	keystroke_h	h	n/a
296.3985	0.09	592797	keystroke_a	a	n/a
296.5035	0.105	593007	keystroke_k	k	n/a
296.5785	0.09	593157	keystroke_e	e	n/a
296.7135	0.12	593427	keystroke_Key.space	Key.space	n/a
296.8635	0.09	593727	keystroke_c	c	n/a
296.9385	0.09	593877	keystroke_o	o	n/a
297.0585	0.12	594117	keystroke_r	r	n/a
297.1635	0.105	594327	keystroke_e	e	n/a
297.8235	0.15	595647	keystroke_Key.space	Key.space	n/a
298.1835	0.135	596367	keystroke_p	p	n/a
298.3335	0.09	596667	keystroke_r	r	n/a
298.4535	0.105	596907	keystroke_o	o	n/a
298.6635	0.12	597327	keystroke_p	p	n/a
298.7985	0.12	597597	keystroke_o	o	n/a
298.9035	0.105	597807	keystroke_s	s	n/a
299.0535	0.075	598107	keystroke_e	e	n/a
299.2335	0.09	598467	keystroke_d	d	n/a
300.3135	0.135	600627	keystroke_Key.enter	Key.enter	n/a
300.4535	9.8065	600907	prompt	n/a	zoning carb yahoo cardiovascular\n
301.4535	0.12	602907	keystroke_z	z	n/a
301.6035	0.06	603207	keystroke_o	o	n/a
301.9485	0.09	603897	keystroke_n	n	n/a
302.0535	0.18	604107	keystroke_i	i	n/a
302.1735	0.15	604347	keystroke_n	n	n/a
302.2785	0.075	604557	keystroke_g	g	n/a
302.3835	0.15	604767	keystroke_Key.space	Key.space	n/a
302.8035	0.09	605607	keystroke_c	c	n/a
303.0135	0.165	606027	keystroke_a	a	n/a
303.0885	0.105	606177	keystroke_r	r	n/a
303.3885	0.12	606777	keystroke_b	b	n/a
303.5385	0.09	607077	keystroke_Key.space	Key.space	n/a
303.7635	0.105	607527	keystroke_y	y	n/a
303.8835	0.12	607767	keystroke_a	a	n/a
303.9885	0.12	607977	keystroke_h	h	n/a
304.2135	0.06	608427	keystroke_o	o	n/a
304.3635	0.105	608727	keystroke_o	o	n/a
304.9335	0.12	609867	keystroke_Key.space	Key.space	n/a
305.6985	0.075	611397	keystroke_c	c	n/a
305.9535	0.195	611907	keystroke_a	a	n/a
306.2385	0.15	612477	keystroke_r	r	n/a
306.4335	0.135	612867	keystroke_d	d	n/a
306.7935	0.165	613587	keystroke_i	i	n/a
306.9135	0.09	613827	keystroke_o	o	n/a
307.4685	0.105	614937	keystroke_v	v	n/a
307.6785	0.15	615357	keystroke_a	a	n/a
307.7685	0.12	615537	keystroke_s	s	n/a
308.0235	0.09	616047	keystroke_c	c	n/a
308.2035	0.165	616407	keystroke_u	u	n/a
308.3535	0.135	616707	keystroke_l	l	n/a
308.5035	0.15	617007	keystroke_a	a	n/a
308.5785	0.105	617157	keystroke_r	r	n/a
310.1385	0.12	620277	keystroke_Key.enter	Key.enter	n/a
310.264	14.066	620528	prompt	n/a	george multi constraints varieties\n
314.386	0.027	628772	keystroke_g	g	n/a
314.488	0.105	628976	keystroke_e	e	n/a
314.608	0.09	629216	keystroke_o	o	n/a
314.758	0.06	629516	keystroke_r	r	n/a
314.953	0.12	629906	keystroke_g	g	n/a
315.058	0.09	630116	keystroke_e	e	n/a
315.208	0.135	630416	keystroke_Key.space	Key.space	n/a
315.613	0.09	631226	keystroke_m	m	n/a
315.883	0.105	631766	keystroke_u	u	n/a
316.003	0.12	632006	keystroke_l	l	n/a
316.183	0.09	632366	keystroke_t	t	n/a
316.288	0.09	632576	keystroke_i	i	n/a
316.588	0.15	633176	keystroke_Key.space	Key.space	n/a
316.948	0.06	633896	keystroke_c	c	n/a
317.098	0.12	634196	keystroke_o	o	n/a
317.188	0.15	634376	keystroke_n	n	n/a
317.353	0.09	634706	keystroke_s	s	n/a
317.518	0.075	635036	keystroke_t	t	n/a
317.728	0.09	635456	keystroke_r	r	n/a
317.788	0.105	635576	keystroke_a	a	n/a
317.908	0.15	635816	keystroke_i	i	n/a
317.998	0.15	635996	keystroke_n	n	n/a
318.133	0.18	636266	keystroke_t	t	n/a
318.928	0.075	637856	keystroke_s	s	n/a
319.258	0.135	638516	keystroke_Key.space	Key.space	n/a
320.848	0.09	641696	keystroke_v	v	n/a
321.028	0.135	642056	keystroke_a	a	n/a
321.118	0.105	642236	keystroke_r	r	n/a
321.298	0.105	642596	keystroke_i	i	n/a
322.033	0.075	644066	keystroke_e	e	n/a
322.588	0.09	645176	keystroke_t	t	n/a
322.723	0.135	645446	keystroke_i	i	n/a
322.843	0.12	645686	keystroke_e	e	n/a
323.053	0.12	646106	keystroke_s	s	n/a
324.178	0.15	648356	keystroke_Key.enter	Key.enter	n/a
324.335	9.85	648670	prompt	n/a	directly environment relocation expanding\n
325.243	0.12	650486	keystroke_d	d	n/a
325.393	0.12	650786	keystroke_i	i	n/a
325.498	0.105	650996	keystroke_r	r	n/a
325.588	0.075	651176	keystroke_e	e	n/a
325.783	0.09	651566	keystroke_c	c	n/a
325.978	0.09	651956	keystroke_t	t	n/a
326.083	0.225	652166	keystroke_l	l	n/a
326.218	0.105	652436	keystroke_y	y	n/a
326.293	0.135	652586	keystroke_Key.space	Key.space	n/a
326.668	0.075	653336	keystroke_e	e	n/a
326.893	0.105	653786	keystroke_n	n	n/a
327.388	0.12	654776	keystroke_v	v	n/a
327.733	0.12	655466	keystroke_i	i	n/a
327.958	0.09	655916	keystroke_r	r	n/a
328.108	0.18	656216	keystroke_o	o	n/a
328.303	0.105	656606	keystroke_n	n	n/a
328.528	0.12	657056	keystroke_m	m	n/a
328.663	0.075	657326	keystroke_e	e	n/a
328.768	0.12	657536	keystroke_n	n	n/a
328.888	0.105	657776	keystroke_t	t	n/a
329.038	0.12	658076	keystroke_Key.space	Key.space	n/a
330.133	0.105	660266	keystroke_r	r	n/a
330.208	0.12	660416	keystroke_e	e	n/a
330.373	0.12	660746	keystroke_l	l	n/a
330.643	0.105	661286	keystroke_o	o	n/a
330.763	0.075	661526	keystroke_c	c	n/a
330.928	0.15	661856	keystroke_a	a	n/a
331.018	0.09	662036	keystroke_t	t	n/a
331.123	0.165	662246	keystroke_i	i	n/a
331.228	0.21	662456	keystroke_o	o	n/a
331.363	0.195	662726	keystroke_n	n	n/a
331.468	0.135	662936	keystroke_Key.space	Key.space	n/a
332.323	0.06	664646	keystroke_e	e	n/a
332.533	0.12	665066	keystroke_x	x	n/a
332.638	0.105	665276	keystroke_p	p	n/a
332.788	0.075	665576	keystroke_a	a	n/a
332.893	0.135	665786	keystroke_n	n	n/a
332.998	0.105	665996	keystroke_d	d	n/a
333.133	0.15	666266	keystroke_i	i	n/a
333.223	0.165	666446	keystroke_n	n	n/a
333.373	0.045	666746	keystroke_g	g	n/a
334.093	0.09	668186	keystroke_Key.enter	Key.enter	n/a
334.19	6.4145	668380	prompt	n/a	origin shapes paso inches\n
335.1425	0.105	670285	keystroke_o	o	n/a
335.2625	0.06	670525	keystroke_r	r	n/a
335.3675	0.09	670735	keystroke_i	i	n/a
335.4725	0.09	670945	keystroke_g	g	n/a
335.5925	0.165	671185	keystroke_i	i	n/a
335.6825	0.165	671365	keystroke_n	n	n/a
335.8175	0.105	671635	keystroke_Key.space	Key.space	n/a
335.9075	0.09	671815	keystroke_s	s	n/a
335.9825	0.075	671965	keystroke_h	h	n/a
336.1025	0.12	672205	keystroke_a	a	n/a
336.1775	0.105	672355	keystroke_p	p	n/a
336.2975	0.12	672595	keystroke_e	e	n/a
336.3725	0.12	672745	keystroke_s	s	n/a
336.9875	0.15	673975	keystroke_Key.space	Key.space	n/a
337.2875	0.105	674575	keystroke_p	p	n/a
337.3625	0.12	674725	keystroke_a	a	n/a
337.4375	0.135	674875	keystroke_s	s	n/a
337.5575	0.12	675115	keystroke_o	o	n/a
337.6785	0.104	675357	keystroke_Key.space	Key.space	n/a
337.8125	0.135	675625	keystroke_i	i	n/a
337.9025	0.135	675805	keystroke_n	n	n/a
338.0075	0.09	676015	keystroke_c	c	n/a
338.1875	0.105	676375	keystroke_h	h	n/a
338.3225	0.105	676645	keystroke_e	e	n/a
338.4425	0.105	676885	keystroke_s	s	n/a
340.4975	0.105	680995	keystroke_Key.enter	Key.enter	n/a
340.6095	8.515	681219	prompt	n/a	keeps fitness speaker currently\n
341.3825	0.15	682765	keystroke_k	k	n/a
341.4875	0.075	682975	keystroke_e	e	n/a
341.6375	0.105	683275	keystroke_e	e	n/a
341.7575	0.12	683515	keystroke_p	p	n/a
341.8475	0.105	683695	keystroke_s	s	n/a
341.9375	0.12	683875	keystroke_Key.space	Key.space	n/a
342.1475	0.075	684295	keystroke_f	f	n/a
342.2225	0.075	684445	keystroke_i	i	n/a
342.4925	0.12	684985	keystroke_n	n	n/a
342.8675	0.105	685735	keystroke_Key.backspace	Key.backspace	n/a
342.9875	0.075	685975	keystroke_t	t	n/a
343.2125	0.135	686425	keystroke_n	n	n/a
343.3025	0.105	686605	keystroke_e	e	n/a
343.5575	0.075	687115	keystroke_s	s	n/a
343.7225	0.09	687445	keystroke_s	s	n/a
344.1275	0.15	688255	keystroke_Key.space	Key.space	n/a
344.3075	0.09	688615	keystroke_s	s	n/a
344.4275	0.09	688855	keystroke_p	p	n/a
344.5025	0.12	689005	keystroke_e	e	n/a
344.5925	0.105	689185	keystroke_a	a	n/a
344.7125	0.075	689425	keystroke_k	k	n/a
344.8025	0.15	689605	keystroke_e	e	n/a
344.9075	0.09	689815	keystroke_r	r	n/a
344.9825	0.12	689965	keystroke_Key.space	Key.space	n/a
345.1325	0.105	690265	keystroke_c	c	n/a
345.2975	0.12	690595	keystroke_u	u	n/a
345.3875	0.075	690775	keystroke_r	r	n/a
345.5525	0.06	691105	keystroke_r	r	n/a
345.9725	0.075	691945	keystroke_e	e	n/a
346.1525	0.105	692305	keystroke_n	n	n/a
346.3475	0.076	692695	keystroke_t	t	n/a
346.5725	0.24	693145	keystroke_l	l	n/a
346.7375	0.09	693475	keystroke_y	y	n/a
349.0665	0.056	698133	keystroke_Key.enter	Key.enter	n/a
349.1295	7.57	698259	prompt	n/a	disease referred predictions guru\n
349.9175	0.075	699835	keystroke_d	d	n/a
350.0375	0.105	700075	keystroke_i	i	n/a
350.1575	0.075	700315	keystroke_s	s	n/a
350.3375	0.09	700675	keystroke_e	e	n/a
350.4725	0.165	700945	keystroke_a	a	n/a
350.5025	0.21	701005	keystroke_s	s	n/a
350.6525	0.135	701305	keystroke_e	e	n/a
350.8925	0.135	701785	keystroke_Key.space	Key.space	n/a
351.3875	0.075	702775	keystroke_r	r	n/a
351.5525	0.06	703105	keystroke_e	e	n/a
351.6575	0.105	703315	keystroke_f	f	n/a
351.8225	0.135	703645	keystroke_e	e	n/a
352.0175	0.075	704035	keystroke_r	r	n/a
352.1825	0.105	704365	keystroke_r	r	n/a
352.2885	0.089	704577	keystroke_e	e	n/a
352.5125	0.105	705025	keystroke_d	d	n/a
352.6625	0.105	705325	keystroke_Key.space	Key.space	n/a
353.0975	0.105	706195	keystroke_p	p	n/a
353.2175	0.105	706435	keystroke_r	r	n/a
353.2925	0.09	706585	keystroke_e	e	n/a
353.4875	0.09	706975	keystroke_d	d	n/a
353.622	0.1055	707244	keystroke_i	i	n/a
353.7125	0.09	707425	keystroke_c	c	n/a
353.9085	0.104	707817	keystroke_t	t	n/a
353.9825	0.15	707965	keystroke_i	i	n/a
354.0875	0.195	708175	keystroke_o	o	n/a
354.2225	0.165	708445	keystroke_n	n	n/a
354.3425	0.091	708685	keystroke_s	s	n/a
354.9575	0.165	709915	keystroke_Key.space	Key.space	n/a
355.2425	0.075	710485	keystroke_g	g	n/a
355.3775	0.105	710755	keystroke_u	u	n/a
355.5435	0.089	711087	keystroke_r	r	n/a
355.6475	0.105	711295	keystroke_u	u	n/a
356.5175	0.18	713035	keystroke_Key.enter	Key.enter	n/a
356.7065	8.528	713413	prompt	n/a	poker kent counsel accomplished\n
357.6125	0.09	715225	keystroke_p	p	n/a
357.8085	0.089	715617	keystroke_o	o	n/a
357.9875	0.105	715975	keystroke_k	k	n/a
358.1375	0.135	716275	keystroke_e	e	n/a
358.2275	0.105	716455	keystroke_r	r	n/a
358.3025	0.12	716605	keystroke_Key.space	Key.space	n/a
358.5725	0.09	717145	keystroke_k	k	n/a
358.6775	0.09	717355	keystroke_e	e	n/a
358.8135	0.089	717627	keystroke_n	n	n/a
358.9325	0.09	717865	keystroke_t	t	n/a
359.0835	0.119	718167	keystroke_Key.space	Key.space	n/a
359.5475	0.09	719095	keystroke_c	c	n/a
359.6675	0.165	719335	keystroke_o	o	n/a
359.7875	0.09	719575	keystroke_u	u	n/a
360.0275	0.12	720055	keystroke_n	n	n/a
360.2225	0.061	720445	keystroke_s	s	n/a
360.4185	0.075	720837	keystroke_e	e	n/a
360.5825	0.105	721165	keystroke_l	l	n/a
360.807	0.135	721614	keystroke_Key.space	Key.space	n/a
361.8275	0.0445	723655	keystroke_c	c	n/a
362.277	0.075	724554	keystroke_Key.backspace	Key.backspace	n/a
362.338	0.09	724676	keystroke_a	a	n/a
362.562	0.06	725124	keystroke_c	c	n/a
362.697	0.105	725394	keystroke_c	c	n/a
362.863	0.134	725726	keystroke_o	o	n/a
363.117	0.196	726234	keystroke_m	m	n/a
363.297	0.135	726594	keystroke_p	p	n/a
363.403	0.194	726806	keystroke_l	l	n/a
363.552	0.12	727104	keystroke_i	i	n/a
363.688	0.104	727376	keystroke_s	s	n/a
363.838	0.134	727676	keystroke_h	h	n/a
363.942	0.076	727884	keystroke_e	e	n/a
364.138	0.09	728276	keystroke_d	d	n/a
365.097	0.135	730194	keystroke_Key.enter	Key.enter	n/a
365.2385	6.386	730477	prompt	n/a	containing davis rose logical\n
365.938	0.134	731876	keystroke_c	c	n/a
366.028	0.135	732056	keystroke_o	o	n/a
366.133	0.134	732266	keystroke_n	n	n/a
366.253	0.135	732506	keystroke_t	t	n/a
366.358	0.165	732716	keystroke_a	a	n/a
366.448	0.104	732896	keystroke_i	i	n/a
366.538	0.12	733076	keystroke_n	n	n/a
366.642	0.166	733284	keystroke_i	i	n/a
366.748	0.195	733496	keystroke_n	n	n/a
366.793	0.09	733586	keystroke_g	g	n/a
366.912	0.135	733824	keystroke_Key.space	Key.space	n/a
367.273	0.09	734546	keystroke_d	d	n/a
367.483	0.105	734966	keystroke_a	a	n/a
367.648	0.09	735296	keystroke_v	v	n/a
367.753	0.105	735506	keystroke_i	i	n/a
367.858	0.09	735716	keystroke_s	s	n/a
368.502	0.12	737004	keystroke_Key.space	Key.space	n/a
368.758	0.09	737516	keystroke_r	r	n/a
368.878	0.09	737756	keystroke_o	o	n/a
368.953	0.135	737906	keystroke_s	s	n/a
369.073	0.12	738146	keystroke_e	e	n/a
369.207	0.09	738414	keystroke_Key.space	Key.space	n/a
369.373	0.075	738746	keystroke_l	l	n/a
369.568	0.09	739136	keystroke_o	o	n/a
369.673	0.06	739346	keystroke_g	g	n/a
369.838	0.09	739676	keystroke_i	i	n/a
369.958	0.09	739916	keystroke_c	c	n/a
370.138	0.105	740276	keystroke_a	a	n/a
370.228	0.105	740456	keystroke_l	l	n/a
371.443	0.18	742886	keystroke_Key.enter	Key.enter	n/a
371.63	9.8345	743260	prompt	n/a	sacrifice competitors franchise class\n
372.478	0.165	744956	keystroke_s	s	n/a
372.778	0.12	745556	keystroke_a	a	n/a
373.003	0.105	746006	keystroke_c	c	n/a
373.243	0.075	746486	keystroke_r	r	n/a
373.378	0.105	746756	keystroke_i	i	n/a
373.498	0.075	746996	keystroke_f	f	n/a
373.588	0.105	747176	keystroke_i	i	n/a
373.738	0.06	747476	keystroke_c	c	n/a
373.948	0.06	747896	keystroke_e	e	n/a
374.053	0.134	748106	keystroke_Key.space	Key.space	n/a
374.503	0.105	749006	keystroke_c	c	n/a
374.623	0.15	749246	keystroke_o	o	n/a
374.758	0.135	749516	keystroke_m	m	n/a
374.878	0.105	749756	keystroke_p	p	n/a
374.998	0.12	749996	keystroke_e	e	n/a
375.163	0.09	750326	keystroke_t	t	n/a
375.238	0.105	750476	keystroke_i	i	n/a
375.373	0.045	750746	keystroke_t	t	n/a
375.433	0.105	750866	keystroke_o	o	n/a
375.568	0.165	751136	keystroke_r	r	n/a
375.718	0.105	751436	keystroke_s	s	n/a
376.003	0.15	752006	keystroke_Key.space	Key.space	n/a
376.678	0.09	753356	keystroke_f	f	n/a
376.993	0.105	753986	keystroke_r	r	n/a
377.263	0.09	754526	keystroke_a	a	n/a
377.368	0.12	754736	keystroke_n	n	n/a
377.593	0.09	755186	keystroke_c	c	n/a
377.728	0.09	755456	keystroke_h	h	n/a
377.923	0.09	755846	keystroke_i	i	n/a
378.058	0.105	756116	keystroke_s	s	n/a
378.103	0.12	756206	keystroke_e	e	n/a
378.763	0.135	757526	keystroke_Key.space	Key.space	n/a
379.003	0.09	758006	keystroke_c	c	n/a
379.078	0.105	758156	keystroke_l	l	n/a
379.243	0.135	758486	keystroke_s	s	n/a
379.813	0.09	759626	keystroke_Key.backspace	Key.backspace	n/a
379.873	0.12	759746	keystroke_a	a	n/a
379.948	0.09	759896	keystroke_s	s	n/a
380.113	0.105	760226	keystroke_s	s	n/a
381.343	0.12	762686	keystroke_Key.enter	Key.enter	n/a
381.4695	8.2745	762939	prompt	n/a	synopsis selected steve gifts\n
382.378	0.105	764756	keystroke_s	s	n/a
382.513	0.09	765026	keystroke_y	y	n/a
382.783	0.12	765566	keystroke_n	n	n/a
382.948	0.09	765896	keystroke_o	o	n/a
383.158	0.075	766316	keystroke_p	p	n/a
383.278	0.075	766556	keystroke_s	s	n/a
383.368	0.105	766736	keystroke_i	i	n/a
383.458	0.09	766916	keystroke_s	s	n/a
383.803	0.12	767606	keystroke_Key.space	Key.space	n/a
384.133	0.075	768266	keystroke_s	s	n/a
384.493	0.075	768986	keystroke_e	e	n/a
384.628	0.105	769256	keystroke_l	l	n/a
384.718	0.075	769436	keystroke_e	e	n/a
384.943	0.09	769886	keystroke_c	c	n/a
385.153	0.12	770306	keystroke_t	t	n/a
385.213	0.09	770426	keystroke_e	e	n/a
385.453	0.075	770906	keystroke_d	d	n/a
385.813	0.105	771626	keystroke_Key.space	Key.space	n/a
385.993	0.21	771986	keystroke_s	s	n/a
386.188	0.15	772376	keystroke_t	t	n/a
386.308	0.15	772616	keystroke_e	e	n/a
386.548	0.15	773096	keystroke_v	v	n/a
386.638	0.12	773276	keystroke_e	e	n/a
387.028	0.105	774056	keystroke_Key.space	Key.space	n/a
387.253	0.06	774506	keystroke_g	g	n/a
387.388	0.135	774776	keystroke_i	i	n/a
387.493	0.105	774986	keystroke_f	f	n/a
387.958	0.09	775916	keystroke_t	t	n/a
388.153	0.09	776306	keystroke_s	s	n/a
389.578	0.165	779156	keystroke_Key.enter	Key.enter	n/a
389.7485	8.4555	779497	prompt	n/a	lewis immigrants clip escorts\n
390.523	0.105	781046	keystroke_l	l	n/a
390.688	0.105	781376	keystroke_w	w	n/a
390.808	0.105	781616	keystroke_e	e	n/a
391.018	0.09	782036	keystroke_i	i	n/a
391.123	0.09	782246	keystroke_s	s	n/a
391.5275	0.06	783055	keystroke_Key.backspace	Key.backspace	n/a
391.6925	0.075	783385	keystroke_Key.backspace	Key.backspace	n/a
391.8575	0.075	783715	keystroke_Key.backspace	Key.backspace	n/a
392.0225	0.09	784045	keystroke_Key.backspace	Key.backspace	n/a
392.1425	0.135	784285	keystroke_e	e	n/a
392.4875	0.105	784975	keystroke_w	w	n/a
392.6975	0.12	785395	keystroke_i	i	n/a
392.7875	0.09	785575	keystroke_s	s	n/a
393.1775	0.09	786355	keystroke_Key.space	Key.space	n/a
393.4325	0.075	786865	keystroke_i	i	n/a
393.6875	0.045	787375	keystroke_m	m	n/a
393.8375	0.15	787675	keystroke_m	m	n/a
394.0025	0.105	788005	keystroke_i	i	n/a
394.1375	0.06	788275	keystroke_g	g	n/a
394.3325	0.18	788665	keystroke_r	r	n/a
394.4525	0.15	788905	keystroke_a	a	n/a
394.5725	0.135	789145	keystroke_n	n	n/a
394.6625	0.135	789325	keystroke_t	t	n/a
394.7825	0.09	789565	keystroke_s	s	n/a
395.4125	0.12	790825	keystroke_Key.space	Key.space	n/a
395.5475	0.105	791095	keystroke_c	c	n/a
395.6375	0.165	791275	keystroke_l	l	n/a
395.7575	0.105	791515	keystroke_i	i	n/a
395.9375	0.15	791875	keystroke_p	p	n/a
396.0725	0.165	792145	keystroke_Key.space	Key.space	n/a
396.2225	0.075	792445	keystroke_e	e	n/a
396.3875	0.09	792775	keystroke_s	s	n/a
396.5825	0.075	793165	keystroke_c	c	n/a
396.6875	0.09	793375	keystroke_o	o	n/a
396.8375	0.09	793675	keystroke_r	r	n/a
397.0475	0.18	794095	keystroke_t	t	n/a
397.1675	0.12	794335	keystroke_s	s	n/a
398.0825	0.12	796165	keystroke_Key.enter	Key.enter	n/a
398.209	6.835	796418	prompt	n/a	plastics intended spreading play\n
399.0725	0.135	798145	keystroke_p	p	n/a
399.1625	0.195	798325	keystroke_l	l	n/a
399.2975	0.195	798595	keystroke_a	a	n/a
399.3725	0.21	798745	keystroke_s	s	n/a
399.5225	0.075	799045	keystroke_t	t	n/a
399.6425	0.105	799285	keystroke_i	i	n/a
399.7625	0.09	799525	keystroke_c	c	n/a
399.9725	0.09	799945	keystroke_s	s	n/a
400.1075	0.165	800215	keystroke_Key.space	Key.space	n/a
400.6625	0.15	801325	keystroke_i	i	n/a
400.7525	0.165	801505	keystroke_n	n	n/a
400.8875	0.12	801775	keystroke_t	t	n/a
400.9925	0.075	801985	keystroke_e	e	n/a
401.1425	0.15	802285	keystroke_n	n	n/a
401.2325	0.075	802465	keystroke_d	d	n/a
401.4125	0.075	802825	keystroke_e	e	n/a
401.5925	0.09	803185	keystroke_d	d	n/a
401.6975	0.135	803395	keystroke_Key.space	Key.space	n/a
402.3425	0.105	804685	keystroke_s	s	n/a
402.4325	0.12	804865	keystroke_p	p	n/a
402.5225	0.135	805045	keystroke_r	r	n/a
402.5975	0.12	805195	keystroke_e	e	n/a
402.6875	0.12	805375	keystroke_a	a	n/a
402.8225	0.105	805645	keystroke_d	d	n/a
402.9275	0.18	805855	keystroke_i	i	n/a
403.0325	0.225	806065	keystroke_n	n	n/a
403.1225	0.075	806245	keystroke_g	g	n/a
403.2125	0.12	806425	keystroke_Key.space	Key.space	n/a
403.3475	0.12	806695	keystroke_p	p	n/a
403.4075	0.15	806815	keystroke_l	l	n/a
403.5275	0.105	807055	keystroke_a	a	n/a
403.6775	0.12	807355	keystroke_y	y	n/a
404.9075	0.135	809815	keystroke_Key.enter	Key.enter	n/a
405.0485	8.981	810097	prompt	n/a	flood marathon sapphire mathematical\n
405.8975	0.075	811795	keystroke_f	f	n/a
405.9875	0.075	811975	keystroke_l	l	n/a
406.1825	0.045	812365	keystroke_o	o	n/a
406.3325	0.12	812665	keystroke_o	o	n/a
406.4375	0.075	812875	keystroke_d	d	n/a
406.4975	0.12	812995	keystroke_Key.space	Key.space	n/a
406.6025	0.15	813205	keystroke_m	m	n/a
406.7075	0.12	813415	keystroke_a	a	n/a
406.8125	0.18	813625	keystroke_r	r	n/a
406.9625	0.15	813925	keystroke_a	a	n/a
407.1275	0.105	814255	keystroke_t	t	n/a
407.2175	0.105	814435	keystroke_h	h	n/a
407.3375	0.15	814675	keystroke_o	o	n/a
407.4425	0.15	814885	keystroke_n	n	n/a
408.0125	0.15	816025	keystroke_Key.space	Key.space	n/a
408.2825	0.135	816565	keystroke_a	a	n/a
408.9275	0.105	817855	keystroke_Key.backspace	Key.backspace	n/a
409.0025	0.09	818005	keystroke_s	s	n/a
409.1825	0.105	818365	keystroke_a	a	n/a
409.4075	0.045	818815	keystroke_p	p	n/a
409.5425	0.09	819085	keystroke_p	p	n/a
409.7675	0.15	819535	keystroke_h	h	n/a
409.9025	0.105	819805	keystroke_i	i	n/a
410.0525	0.09	820105	keystroke_r	r	n/a
410.1875	0.09	820375	keystroke_e	e	n/a
410.3375	0.1495	820675	keystroke_Key.space	Key.space	n/a
411.087	0.15	822174	keystroke_m	m	n/a
411.207	0.165	822414	keystroke_a	a	n/a
411.297	0.12	822594	keystroke_t	t	n/a
411.402	0.12	822804	keystroke_h	h	n/a
411.537	0.09	823074	keystroke_e	e	n/a
411.717	0.105	823434	keystroke_m	m	n/a
412.302	0.165	824604	keystroke_a	a	n/a
412.422	0.0905	824844	keystroke_t	t	n/a
412.557	0.12	825114	keystroke_i	i	n/a
412.662	0.09	825324	keystroke_c	c	n/a
412.842	0.105	825684	keystroke_a	a	n/a
412.872	0.105	825744	keystroke_l	l	n/a
413.877	0.15	827754	keystroke_Key.enter	Key.enter	n/a
414.0345	6.009	828069	prompt	n/a	parents auctions task dated\n
414.807	0.12	829614	keystroke_p	p	n/a
414.972	0.12	829944	keystroke_a	a	n/a
415.062	0.15	830124	keystroke_r	r	n/a
415.197	0.12	830394	keystroke_e	e	n/a
415.287	0.135	830574	keystroke_n	n	n/a
415.392	0.135	830784	keystroke_t	t	n/a
415.467	0.135	830934	keystroke_s	s	n/a
415.602	0.135	831204	keystroke_Key.space	Key.space	n/a
415.932	0.105	831864	keystroke_a	a	n/a
416.397	0.15	832794	keystroke_u	u	n/a
416.637	0.12	833274	keystroke_c	c	n/a
416.877	0.09	833754	keystroke_t	t	n/a
416.922	0.135	833844	keystroke_i	i	n/a
417.012	0.195	834024	keystroke_o	o	n/a
417.132	0.135	834264	keystroke_n	n	n/a
417.222	0.105	834444	keystroke_s	s	n/a
417.792	0.15	835584	keystroke_Key.space	Key.space	n/a
417.972	0.105	835944	keystroke_t	t	n/a
418.122	0.15	836244	keystroke_a	a	n/a
418.182	0.165	836364	keystroke_s	s	n/a
418.302	0.15	836604	keystroke_k	k	n/a
418.407	0.135	836814	keystroke_Key.space	Key.space	n/a
418.632	0.075	837264	keystroke_d	d	n/a
418.812	0.136	837624	keystroke_a	a	n/a
418.872	0.15	837744	keystroke_t	t	n/a
418.962	0.105	837924	keystroke_e	e	n/a
419.172	0.09	838344	keystroke_d	d	n/a
419.907	0.135	839814	keystroke_Key.enter	Key.enter	n/a
420.048	6.416	840096	prompt	n/a	composition roger orders mega\n
420.912	0.105	841824	keystroke_c	c	n/a
420.987	0.12	841974	keystroke_o	o	n/a
421.062	0.195	842124	keystroke_m	m	n/a
421.227	0.105	842454	keystroke_p	p	n/a
421.452	0.105	842904	keystroke_o	o	n/a
421.707	0.075	843414	keystroke_s	s	n/a
421.827	0.06	843654	keystroke_i	i	n/a
421.932	0.105	843864	keystroke_t	t	n/a
422.022	0.15	844044	keystroke_i	i	n/a
422.127	0.18	844254	keystroke_o	o	n/a
422.247	0.195	844494	keystroke_n	n	n/a
422.367	0.135	844734	keystroke_Key.space	Key.space	n/a
422.727	0.06	845454	keystroke_r	r	n/a
422.817	0.09	845634	keystroke_o	o	n/a
422.952	0.075	845904	keystroke_g	g	n/a
423.132	0.12	846264	keystroke_e	e	n/a
423.192	0.12	846384	keystroke_r	r	n/a
423.297	0.12	846594	keystroke_Key.space	Key.space	n/a
423.537	0.105	847074	keystroke_o	o	n/a
423.612	0.09	847224	keystroke_r	r	n/a
423.747	0.06	847494	keystroke_d	d	n/a
423.927	0.165	847854	keystroke_e	e	n/a
424.002	0.135	848004	keystroke_r	r	n/a
424.077	0.135	848154	keystroke_s	s	n/a
424.227	0.12	848454	keystroke_Key.space	Key.space	n/a
424.332	0.15	848664	keystroke_m	m	n/a
424.392	0.09	848784	keystroke_e	e	n/a
424.617	0.12	849234	keystroke_g	g	n/a
424.722	0.136	849444	keystroke_a	a	n/a
426.297	0.165	852594	keystroke_Key.enter	Key.enter	n/a
426.4695	5.155	852939	prompt	n/a	graph engage norm only\n
427.152	0.045	854304	keystroke_g	g	n/a
427.317	0.135	854634	keystroke_r	r	n/a
427.392	0.135	854784	keystroke_a	a	n/a
427.498	0.089	854996	keystroke_p	p	n/a
427.677	0.165	855354	keystroke_h	h	n/a
427.767	0.135	855534	keystroke_Key.space	Key.space	n/a
428.307	0.09	856614	keystroke_e	e	n/a
428.427	0.121	856854	keystroke_n	n	n/a
428.517	0.075	857034	keystroke_g	g	n/a
428.637	0.12	857274	keystroke_a	a	n/a
428.727	0.135	857454	keystroke_g	g	n/a
428.802	0.105	857604	keystroke_e	e	n/a
429.417	0.105	858834	keystroke_Key.space	Key.space	n/a
429.598	0.149	859196	keystroke_n	n	n/a
429.717	0.105	859434	keystroke_o	o	n/a
429.823	0.089	859646	keystroke_r	r	n/a
429.927	0.165	859854	keystroke_m	m	n/a
430.062	0.135	860124	keystroke_Key.space	Key.space	n/a
430.497	0.09	860994	keystroke_o	o	n/a
430.617	0.075	861234	keystroke_n	n	n/a
430.752	0.225	861504	keystroke_l	l	n/a
430.917	0.09	861834	keystroke_y	y	n/a
431.487	0.135	862974	keystroke_Key.enter	Key.enter	n/a
431.629	7.3455	863258	prompt	n/a	solving fathers hourly javascript\n
432.357	0.135	864714	keystroke_s	s	n/a
432.477	0.045	864954	keystroke_o	o	n/a
432.657	0.091	865314	keystroke_l	l	n/a
432.762	0.075	865524	keystroke_v	v	n/a
432.882	0.12	865764	keystroke_i	i	n/a
432.942	0.255	865884	keystroke_n	n	n/a
433.047	0.075	866094	keystroke_g	g	n/a
433.167	0.15	866334	keystroke_Key.space	Key.space	n/a
433.287	0.12	866574	keystroke_f	f	n/a
433.452	0.15	866904	keystroke_a	a	n/a
433.542	0.105	867084	keystroke_t	t	n/a
433.662	0.105	867324	keystroke_h	h	n/a
433.707	0.165	867414	keystroke_e	e	n/a
433.782	0.15	867564	keystroke_r	r	n/a
433.887	0.15	867774	keystroke_s	s	n/a
434.007	0.165	868014	keystroke_Key.space	Key.space	n/a
434.923	0.09	869846	keystroke_h	h	n/a
435.072	0.165	870144	keystroke_o	o	n/a
435.147	0.136	870294	keystroke_u	u	n/a
435.238	0.104	870476	keystroke_r	r	n/a
435.417	0.21	870834	keystroke_l	l	n/a
435.507	0.135	871014	keystroke_y	y	n/a
435.597	0.135	871194	keystroke_Key.space	Key.space	n/a
435.852	0.135	871704	keystroke_j	j	n/a
436.032	0.121	872064	keystroke_a	a	n/a
436.303	0.104	872606	keystroke_v	v	n/a
436.542	0.091	873084	keystroke_a	a	n/a
437.248	0.104	874496	keystroke_s	s	n/a
437.487	0.075	874974	keystroke_c	c	n/a
437.667	0.09	875334	keystroke_r	r	n/a
437.773	0.224	875546	keystroke_i	i	n/a
437.937	0.121	875874	keystroke_p	p	n/a
438.103	0.059	876206	keystroke_t	t	n/a
438.852	0.12	877704	keystroke_Key.enter	Key.enter	n/a
438.9795	13.5695	877959	prompt	n/a	camcorders freebsd aims mechanism\n
439.827	0.09	879654	keystroke_c	c	n/a
439.962	0.165	879924	keystroke_o	o	n/a
440.427	0.09	880854	keystroke_Key.backspace	Key.backspace	n/a
440.773	0.105	881546	keystroke_m	m	n/a
441.162	0.105	882324	keystroke_Key.backspace	Key.backspace	n/a
441.282	0.091	882564	keystroke_a	a	n/a
441.448	0.12	882896	keystroke_m	m	n/a
441.853	0.089	883706	keystroke_c	c	n/a
441.973	0.089	883946	keystroke_o	o	n/a
442.108	0.104	884216	keystroke_r	r	n/a
442.227	0.09	884454	keystroke_d	d	n/a
442.437	0.18	884874	keystroke_e	e	n/a
442.498	0.179	884996	keystroke_r	r	n/a
442.797	0.106	885594	keystroke_s	s	n/a
444.978	0.069	889956	keystroke_Key.space	Key.space	n/a
445.108	0.104	890216	keystroke_f	f	n/a
445.902	0.075	891804	keystroke_r	r	n/a
446.128	0.045	892256	keystroke_e	e	n/a
446.278	0.059	892556	keystroke_e	e	n/a
447.418	0.074	894836	keystroke_b	b	n/a
448.0615	0.09	896123	keystroke_s	s	n/a
448.2425	0.074	896485	keystroke_d	d	n/a
449.3515	0.165	898703	keystroke_Key.space	Key.space	n/a
449.5775	0.09	899155	keystroke_a	a	n/a
449.6825	0.105	899365	keystroke_i	i	n/a
449.8775	0.12	899755	keystroke_m	m	n/a
449.9825	0.09	899965	keystroke_s	s	n/a
450.2365	0.136	900473	keystroke_Key.space	Key.space	n/a
450.6425	0.15	901285	keystroke_m	m	n/a
450.7475	0.075	901495	keystroke_e	e	n/a
450.9425	0.09	901885	keystroke_c	c	n/a
451.0475	0.09	902095	keystroke_h	h	n/a
451.1525	0.12	902305	keystroke_a	a	n/a
451.2875	0.12	902575	keystroke_n	n	n/a
451.5725	0.09	903145	keystroke_i	i	n/a
451.7225	0.075	903445	keystroke_s	s	n/a
451.7975	0.105	903595	keystroke_m	m	n/a
452.4125	0.134	904825	keystroke_Key.enter	Key.enter	n/a
452.558	7.431	905116	prompt	n/a	five jewelry fireplace stars\n
453.6275	0.075	907255	keystroke_f	f	n/a
453.7175	0.09	907435	keystroke_i	i	n/a
453.8375	0.12	907675	keystroke_v	v	n/a
453.9425	0.075	907885	keystroke_e	e	n/a
454.0315	0.12	908063	keystroke_Key.space	Key.space	n/a
454.1375	0.135	908275	keystroke_j	j	n/a
454.3775	0.09	908755	keystroke_e	e	n/a
454.9325	0.135	909865	keystroke_w	w	n/a
455.4275	0.075	910855	keystroke_e	e	n/a
455.8325	0.09	911665	keystroke_l	l	n/a
456.0725	0.06	912145	keystroke_r	r	n/a
456.1925	0.12	912385	keystroke_y	y	n/a
456.9265	0.136	913853	keystroke_Key.space	Key.space	n/a
457.1075	0.075	914215	keystroke_f	f	n/a
457.2425	0.135	914485	keystroke_i	i	n/a
457.3925	0.12	914785	keystroke_r	r	n/a
457.5125	0.09	915025	keystroke_e	e	n/a
457.7525	0.105	915505	keystroke_p	p	n/a
457.8125	0.135	915625	keystroke_l	l	n/a
457.9325	0.09	915865	keystroke_a	a	n/a
458.1275	0.075	916255	keystroke_c	c	n/a
458.3525	0.06	916705	keystroke_e	e	n/a
458.4565	0.12	916913	keystroke_Key.space	Key.space	n/a
458.5625	0.12	917125	keystroke_s	s	n/a
458.7125	0.09	917425	keystroke_t	t	n/a
458.8625	0.15	917725	keystroke_a	a	n/a
458.9225	0.15	917845	keystroke_r	r	n/a
459.0875	0.09	918175	keystroke_s	s	n/a
459.8675	0.12	919735	keystroke_Key.enter	Key.enter	n/a
459.9935	6.445	919987	prompt	n/a	saves apollo let's print\n
460.5875	0.09	921175	keystroke_s	s	n/a
460.7525	0.12	921505	keystroke_a	a	n/a
460.8575	0.135	921715	keystroke_v	v	n/a
460.9025	0.165	921805	keystroke_e	e	n/a
461.0375	0.105	922075	keystroke_s	s	n/a
461.0965	0.121	922193	keystroke_Key.space	Key.space	n/a
461.2625	0.135	922525	keystroke_a	a	n/a
461.3825	0.09	922765	keystroke_p	p	n/a
461.5325	0.09	923065	keystroke_o	o	n/a
461.7425	0.06	923485	keystroke_l	l	n/a
461.9075	0.09	923815	keystroke_l	l	n/a
462.1025	0.09	924205	keystroke_o	o	n/a
462.6575	0.12	925315	keystroke_Key.space	Key.space	n/a
462.9425	0.105	925885	keystroke_l	l	n/a
463.0325	0.135	926065	keystroke_e	e	n/a
463.1825	0.105	926365	keystroke_t	t	n/a
463.2725	0.135	926545	keystroke_'	'	n/a
463.4225	0.09	926845	keystroke_s	s	n/a
463.4975	0.105	926995	keystroke_Key.space	Key.space	n/a
463.6475	0.12	927295	keystroke_p	p	n/a
463.8125	0.09	927625	keystroke_r	r	n/a
463.9775	0.165	927955	keystroke_i	i	n/a
464.0825	0.15	928165	keystroke_n	n	n/a
464.1725	0.075	928345	keystroke_t	t	n/a
466.3645	0.073	932729	keystroke_Key.enter	Key.enter	n/a
466.4435	8.29	932887	prompt	n/a	johnson davis section photographers\n
467.2925	0.105	934585	keystroke_j	j	n/a
467.5025	0.105	935005	keystroke_o	o	n/a
467.5775	0.105	935155	keystroke_h	h	n/a
467.9375	0.12	935875	keystroke_n	n	n/a
468.3575	0.1495	936715	keystroke_s	s	n/a
468.4625	0.1195	936925	keystroke_o	o	n/a
468.5525	0.195	937105	keystroke_n	n	n/a
468.702	0.15	937404	keystroke_Key.space	Key.space	n/a
469.302	0.09	938604	keystroke_d	d	n/a
469.452	0.12	938904	keystroke_a	a	n/a
469.587	0.105	939174	keystroke_v	v	n/a
469.707	0.105	939414	keystroke_i	i	n/a
469.827	0.0905	939654	keystroke_s	s	n/a
469.947	0.12	939894	keystroke_Key.space	Key.space	n/a
470.052	0.09	940104	keystroke_s	s	n/a
470.217	0.075	940434	keystroke_e	e	n/a
470.427	0.075	940854	keystroke_c	c	n/a
470.607	0.105	941214	keystroke_t	t	n/a
470.697	0.135	941394	keystroke_i	i	n/a
470.802	0.165	941604	keystroke_o	o	n/a
470.9075	0.1645	941815	keystroke_n	n	n/a
471.027	0.12	942054	keystroke_Key.space	Key.space	n/a
471.357	0.135	942714	keystroke_p	p	n/a
471.597	0.105	943194	keystroke_h	h	n/a
471.837	0.09	943674	keystroke_o	o	n/a
472.152	0.09	944304	keystroke_t	t	n/a
472.272	0.09	944544	keystroke_o	o	n/a
472.647	0.06	945294	keystroke_g	g	n/a
472.842	0.15	945684	keystroke_r	r	n/a
472.932	0.135	945864	keystroke_a	a	n/a
473.052	0.105	946104	keystroke_p	p	n/a
473.262	0.12	946524	keystroke_h	h	n/a
473.307	0.24	946614	keystroke_e	e	n/a
473.427	0.15	946854	keystroke_r	r	n/a
473.787	0.09	947574	keystroke_s	s	n/a
474.597	0.135	949194	keystroke_Key.enter	Key.enter	n/a
474.7385	7.7505	949477	prompt	n/a	eliminate engagement boost bills\n
475.557	0.09	951114	keystroke_e	e	n/a
475.677	0.09	951354	keystroke_l	l	n/a
475.932	0.075	951864	keystroke_i	i	n/a
476.172	0.09	952344	keystroke_m	m	n/a
476.337	0.075	952674	keystroke_i	i	n/a
476.472	0.15	952944	keystroke_n	n	n/a
476.607	0.165	953214	keystroke_a	a	n/a
476.712	0.135	953424	keystroke_t	t	n/a
476.787	0.135	953574	keystroke_e	e	n/a
477.447	0.12	954894	keystroke_Key.space	Key.space	n/a
477.762	0.09	955524	keystroke_e	e	n/a
477.882	0.135	955764	keystroke_n	n	n/a
478.002	0.06	956004	keystroke_g	g	n/a
478.107	0.135	956214	keystroke_a	a	n/a
478.227	0.09	956454	keystroke_g	g	n/a
478.332	0.075	956664	keystroke_e	e	n/a
478.512	0.09	957024	keystroke_m	m	n/a
478.587	0.09	957174	keystroke_e	e	n/a
478.707	0.135	957414	keystroke_n	n	n/a
478.797	0.09	957594	keystroke_t	t	n/a
478.932	0.135	957864	keystroke_Key.space	Key.space	n/a
479.712	0.075	959424	keystroke_b	b	n/a
479.862	0.06	959724	keystroke_o	o	n/a
480.027	0.09	960054	keystroke_o	o	n/a
480.192	0.105	960384	keystroke_s	s	n/a
480.882	0.075	961764	keystroke_t	t	n/a
481.002	0.105	962004	keystroke_Key.space	Key.space	n/a
481.182	0.12	962364	keystroke_b	b	n/a
481.287	0.06	962574	keystroke_i	i	n/a
481.482	0.045	962964	keystroke_l	l	n/a
481.602	0.105	963204	keystroke_l	l	n/a
481.722	0.06	963444	keystroke_s	s	n/a
482.382	0.105	964764	keystroke_Key.enter	Key.enter	n/a
482.494	7.5095	964988	prompt	n/a	beings patterns suffered sierra\n
483.327	0.075	966654	keystroke_b	b	n/a
483.477	0.09	966954	keystroke_e	e	n/a
483.642	0.18	967284	keystroke_i	i	n/a
483.732	0.165	967464	keystroke_n	n	n/a
483.912	0.06	967824	keystroke_g	g	n/a
484.167	0.075	968334	keystroke_s	s	n/a
484.272	0.15	968544	keystroke_Key.space	Key.space	n/a
484.692	0.105	969384	keystroke_p	p	n/a
484.857	0.09	969714	keystroke_a	a	n/a
485.097	0.06	970194	keystroke_t	t	n/a
485.262	0.075	970524	keystroke_t	t	n/a
485.442	0.12	970884	keystroke_e	e	n/a
485.502	0.12	971004	keystroke_r	r	n/a
485.577	0.12	971154	keystroke_n	n	n/a
485.742	0.105	971484	keystroke_s	s	n/a
485.877	0.09	971754	keystroke_Key.space	Key.space	n/a
486.222	0.075	972444	keystroke_s	s	n/a
486.342	0.12	972684	keystroke_u	u	n/a
486.447	0.075	972894	keystroke_f	f	n/a
486.597	0.09	973194	keystroke_f	f	n/a
486.747	0.075	973494	keystroke_e	e	n/a
486.837	0.135	973674	keystroke_r	r	n/a
486.957	0.06	973914	keystroke_e	e	n/a
487.137	0.105	974274	keystroke_d	d	n/a
487.317	0.12	974634	keystroke_Key.space	Key.space	n/a
487.602	0.075	975204	keystroke_s	s	n/a
487.737	0.12	975474	keystroke_i	i	n/a
488.157	0.12	976314	keystroke_e	e	n/a
488.472	0.06	976944	keystroke_r	r	n/a
488.607	0.105	977214	keystroke_r	r	n/a
488.802	0.135	977604	keystroke_a	a	n/a
489.852	0.15	979704	keystroke_Key.enter	Key.enter	n/a
490.008	12.551	980016	prompt	n/a	properties nirvana samoa pharmaceuticals\n
491.127	0.12	982254	keystroke_p	p	n/a
491.307	0.06	982614	keystroke_r	r	n/a
491.457	0.075	982914	keystroke_o	o	n/a
491.652	0.12	983304	keystroke_p	p	n/a
491.787	0.09	983574	keystroke_e	e	n/a
491.862	0.06	983724	keystroke_r	r	n/a
492.057	0.075	984114	keystroke_t	t	n/a
492.117	0.12	984234	keystroke_i	i	n/a
492.222	0.135	984444	keystroke_e	e	n/a
492.312	0.12	984624	keystroke_s	s	n/a
492.387	0.135	984774	keystroke_Key.space	Key.space	n/a
492.867	0.15	985734	keystroke_n	n	n/a
492.987	0.12	985974	keystroke_i	i	n/a
493.077	0.075	986154	keystroke_r	r	n/a
493.287	0.135	986574	keystroke_v	v	n/a
493.407	0.105	986814	keystroke_a	a	n/a
493.497	0.135	986994	keystroke_n	n	n/a
493.647	0.105	987294	keystroke_a	a	n/a
493.782	0.15	987564	keystroke_Key.space	Key.space	n/a
494.502	0.09	989004	keystroke_s	s	n/a
494.712	0.105	989424	keystroke_a	a	n/a
494.922	0.09	989844	keystroke_m	m	n/a
495.087	0.075	990174	keystroke_o	o	n/a
495.252	0.09	990504	keystroke_a	a	n/a
496.167	0.135	992334	keystroke_Key.space	Key.space	n/a
496.437	0.105	992874	keystroke_p	p	n/a
496.632	0.135	993264	keystroke_h	h	n/a
496.782	0.15	993564	keystroke_a	a	n/a
496.842	0.135	993684	keystroke_r	r	n/a
496.992	0.12	993984	keystroke_m	m	n/a
497.157	0.105	994314	keystroke_a	a	n/a
497.697	0.075	995394	keystroke_c	c	n/a
498.147	0.075	996294	keystroke_e	e	n/a
498.477	0.06	996954	keystroke_u	u	n/a
499.482	0.075	998964	keystroke_t	t	n/a
499.602	0.12	999204	keystroke_i	i	n/a
499.722	0.09	999444	keystroke_c	c	n/a
499.872	0.105	999744	keystroke_a	a	n/a
499.992	0.09	999984	keystroke_l	l	n/a
500.112	0.075	1000224	keystroke_s	s	n/a
502.41	0.147	1004820	keystroke_Key.enter	Key.enter	n/a
502.5635	9.881	1005127	prompt	n/a	tale friendship moon enquiries\n
503.502	0.166	1007004	keystroke_t	t	n/a
503.607	0.12	1007214	keystroke_a	a	n/a
503.697	0.09	1007394	keystroke_l	l	n/a
503.802	0.105	1007604	keystroke_e	e	n/a
503.892	0.12	1007784	keystroke_Key.space	Key.space	n/a
504.117	0.075	1008234	keystroke_f	f	n/a
504.342	0.076	1008684	keystroke_i	i	n/a
504.897	0.09	1009794	keystroke_Key.backspace	Key.backspace	n/a
505.018	0.105	1010036	keystroke_r	r	n/a
505.182	0.06	1010364	keystroke_i	i	n/a
505.243	0.089	1010486	keystroke_e	e	n/a
505.377	0.12	1010754	keystroke_n	n	n/a
505.767	0.09	1011534	keystroke_d	d	n/a
506.052	0.09	1012104	keystroke_s	s	n/a
506.157	0.165	1012314	keystroke_h	h	n/a
506.262	0.135	1012524	keystroke_i	i	n/a
506.802	0.12	1013604	keystroke_p	p	n/a
507.9565	0.105	1015913	keystroke_Key.space	Key.space	n/a
508.3465	0.09	1016693	keystroke_m	m	n/a
508.5565	0.06	1017113	keystroke_o	o	n/a
508.7065	0.1655	1017413	keystroke_o	o	n/a
508.8265	0.1655	1017653	keystroke_n	n	n/a
508.947	0.12	1017894	keystroke_Key.space	Key.space	n/a
509.337	0.105	1018674	keystroke_e	e	n/a
509.667	0.135	1019334	keystroke_n	n	n/a
509.8615	0.105	1019723	keystroke_q	q	n/a
510.0115	0.181	1020023	keystroke_u	u	n/a
510.1615	0.105	1020323	keystroke_i	i	n/a
510.2965	0.105	1020593	keystroke_r	r	n/a
510.4165	0.12	1020833	keystroke_i	i	n/a
510.5215	0.135	1021043	keystroke_e	e	n/a
510.6415	0.12	1021283	keystroke_s	s	n/a
512.2615	0.18	1024523	keystroke_Key.enter	Key.enter	n/a
512.4485	7.525	1024897	prompt	n/a	prostate laboratory worker academic\n
513.3265	0.09	1026653	keystroke_p	p	n/a
513.6425	0.059	1027285	keystroke_r	r	n/a
513.7465	0.09	1027493	keystroke_o	o	n/a
513.8965	0.135	1027793	keystroke_s	s	n/a
514.0615	0.105	1028123	keystroke_t	t	n/a
514.2265	0.135	1028453	keystroke_a	a	n/a
514.3015	0.135	1028603	keystroke_t	t	n/a
514.4065	0.09	1028813	keystroke_e	e	n/a
514.9765	0.12	1029953	keystroke_Key.space	Key.space	n/a
515.2315	0.105	1030463	keystroke_l	l	n/a
515.3515	0.091	1030703	keystroke_a	a	n/a
515.5165	0.09	1031033	keystroke_b	b	n/a
515.6215	0.075	1031243	keystroke_o	o	n/a
515.7415	0.12	1031483	keystroke_r	r	n/a
515.8625	0.179	1031725	keystroke_a	a	n/a
515.9965	0.09	1031993	keystroke_t	t	n/a
516.1315	0.075	1032263	keystroke_o	o	n/a
516.2215	0.09	1032443	keystroke_r	r	n/a
516.3415	0.135	1032683	keystroke_y	y	n/a
516.9415	0.105	1033883	keystroke_Key.space	Key.space	n/a
517.1365	0.09	1034273	keystroke_w	w	n/a
517.2415	0.06	1034483	keystroke_o	o	n/a
517.3165	0.075	1034633	keystroke_r	r	n/a
517.4215	0.105	1034843	keystroke_k	k	n/a
517.5115	0.15	1035023	keystroke_e	e	n/a
517.6165	0.09	1035233	keystroke_r	r	n/a
517.6915	0.105	1035383	keystroke_Key.space	Key.space	n/a
517.8265	0.12	1035653	keystroke_a	a	n/a
518.1265	0.09	1036253	keystroke_c	c	n/a
518.3515	0.06	1036703	keystroke_a	a	n/a
518.5315	0.06	1037063	keystroke_d	d	n/a
518.7265	0.06	1037453	keystroke_e	e	n/a
518.8015	0.135	1037603	keystroke_m	m	n/a
518.8915	0.135	1037783	keystroke_i	i	n/a
519.0115	0.09	1038023	keystroke_c	c	n/a
519.8665	0.105	1039733	keystroke_Key.enter	Key.enter	n/a
519.9775	5.3525	1039955	prompt	n/a	saints carry gray tied\n
520.8725	0.134	1041745	keystroke_s	s	n/a
521.1115	0.105	1042223	keystroke_a	a	n/a
521.2475	0.104	1042495	keystroke_i	i	n/a
521.3065	0.15	1042613	keystroke_n	n	n/a
521.4115	0.105	1042823	keystroke_t	t	n/a
521.5015	0.09	1043003	keystroke_s	s	n/a
521.6365	0.135	1043273	keystroke_Key.space	Key.space	n/a
521.8915	0.09	1043783	keystroke_c	c	n/a
522.0865	0.15	1044173	keystroke_a	a	n/a
522.1765	0.09	1044353	keystroke_r	r	n/a
522.3425	0.105	1044685	keystroke_r	r	n/a
522.4315	0.135	1044863	keystroke_y	y	n/a
522.5215	0.105	1045043	keystroke_Key.space	Key.space	n/a
522.6275	0.074	1045255	keystroke_g	g	n/a
522.8065	0.18	1045613	keystroke_r	r	n/a
522.9115	0.12	1045823	keystroke_a	a	n/a
522.9725	0.104	1045945	keystroke_y	y	n/a
523.0465	0.105	1046093	keystroke_Key.space	Key.space	n/a
523.6465	0.075	1047293	keystroke_t	t	n/a
523.7515	0.105	1047503	keystroke_i	i	n/a
523.9165	0.06	1047833	keystroke_e	e	n/a
524.1115	0.075	1048223	keystroke_d	d	n/a
525.2065	0.12	1050413	keystroke_Key.enter	Key.enter	n/a
525.336	7.2835	1050672	prompt	n/a	camp george conflict misc\n
526.1375	0.089	1052275	keystroke_c	c	n/a
526.3025	0.135	1052605	keystroke_a	a	n/a
526.3915	0.181	1052783	keystroke_m	m	n/a
526.4975	0.165	1052995	keystroke_p	p	n/a
526.6465	0.135	1053293	keystroke_Key.space	Key.space	n/a
526.7375	0.075	1053475	keystroke_g	g	n/a
526.8865	0.091	1053773	keystroke_e	e	n/a
526.9775	0.09	1053955	keystroke_o	o	n/a
527.0815	0.061	1054163	keystroke_r	r	n/a
527.2615	0.106	1054523	keystroke_g	g	n/a
527.3515	0.091	1054703	keystroke_e	e	n/a
527.6815	0.165	1055363	keystroke_Key.space	Key.space	n/a
528.2825	0.075	1056565	keystroke_c	c	n/a
528.3425	0.135	1056685	keystroke_o	o	n/a
528.4325	0.135	1056865	keystroke_n	n	n/a
528.5225	0.075	1057045	keystroke_f	f	n/a
528.6425	0.165	1057285	keystroke_l	l	n/a
528.7475	0.104	1057495	keystroke_i	i	n/a
528.7775	0.105	1057555	keystroke_c	c	n/a
529.0175	0.059	1058035	keystroke_t	t	n/a
529.1065	0.135	1058213	keystroke_Key.space	Key.space	n/a
529.6925	0.15	1059385	keystroke_m	m	n/a
529.8125	0.12	1059625	keystroke_i	i	n/a
529.9015	0.105	1059803	keystroke_s	s	n/a
530.1425	0.089	1060285	keystroke_c	c	n/a
532.5445	0.072	1065089	keystroke_Key.enter	Key.enter	n/a
532.6255	5.6185	1065251	prompt	n/a	baker genetic draw starts\n
533.5175	0.105	1067035	keystroke_b	b	n/a
533.6675	0.104	1067335	keystroke_a	a	n/a
533.8025	0.09	1067605	keystroke_k	k	n/a
533.9225	0.165	1067845	keystroke_e	e	n/a
534.0275	0.135	1068055	keystroke_r	r	n/a
534.1465	0.135	1068293	keystroke_Key.space	Key.space	n/a
534.4925	0.075	1068985	keystroke_g	g	n/a
534.6725	0.075	1069345	keystroke_e	e	n/a
534.7775	0.165	1069555	keystroke_n	n	n/a
534.8825	0.149	1069765	keystroke_e	e	n/a
535.0175	0.09	1070035	keystroke_t	t	n/a
535.1675	0.075	1070335	keystroke_i	i	n/a
535.2575	0.105	1070515	keystroke_c	c	n/a
535.8865	0.135	1071773	keystroke_Key.space	Key.space	n/a
536.0525	0.15	1072105	keystroke_d	d	n/a
536.2175	0.18	1072435	keystroke_r	r	n/a
536.2925	0.21	1072585	keystroke_a	a	n/a
536.4425	0.12	1072885	keystroke_w	w	n/a
536.6065	0.135	1073213	keystroke_Key.space	Key.space	n/a
536.7275	0.15	1073455	keystroke_s	s	n/a
536.8475	0.09	1073695	keystroke_t	t	n/a
536.9675	0.165	1073935	keystroke_a	a	n/a
537.0575	0.105	1074115	keystroke_r	r	n/a
537.2375	0.12	1074475	keystroke_t	t	n/a
537.3425	0.12	1074685	keystroke_s	s	n/a
538.1225	0.12	1076245	keystroke_Key.enter	Key.enter	n/a
538.2495	8.034	1076499	prompt	n/a	developing phase conceptual precision\n
538.9325	0.06	1077865	keystroke_d	d	n/a
539.1125	0.09	1078225	keystroke_e	e	n/a
539.2625	0.135	1078525	keystroke_v	v	n/a
539.4125	0.12	1078825	keystroke_e	e	n/a
539.5925	0.09	1079185	keystroke_l	l	n/a
539.7875	0.09	1079575	keystroke_o	o	n/a
539.9825	0.105	1079965	keystroke_p	p	n/a
540.1775	0.135	1080355	keystroke_i	i	n/a
540.2675	0.21	1080535	keystroke_n	n	n/a
540.3425	0.075	1080685	keystroke_g	g	n/a
540.4625	0.135	1080925	keystroke_Key.space	Key.space	n/a
540.5825	0.12	1081165	keystroke_p	p	n/a
540.7625	0.135	1081525	keystroke_h	h	n/a
540.8975	0.15	1081795	keystroke_a	a	n/a
540.9575	0.21	1081915	keystroke_s	s	n/a
541.1075	0.135	1082215	keystroke_e	e	n/a
541.2715	0.121	1082543	keystroke_Key.space	Key.space	n/a
541.9475	0.09	1083895	keystroke_c	c	n/a
542.0075	0.165	1084015	keystroke_o	o	n/a
542.1125	0.18	1084225	keystroke_n	n	n/a
542.2175	0.075	1084435	keystroke_c	c	n/a
542.4275	0.075	1084855	keystroke_e	e	n/a
542.5175	0.12	1085035	keystroke_p	p	n/a
542.8175	0.09	1085635	keystroke_t	t	n/a
542.9225	0.105	1085845	keystroke_u	u	n/a
543.0575	0.105	1086115	keystroke_a	a	n/a
543.1475	0.105	1086295	keystroke_l	l	n/a
543.2525	0.09	1086505	keystroke_Key.space	Key.space	n/a
543.6875	0.09	1087375	keystroke_p	p	n/a
543.8375	0.135	1087675	keystroke_r	r	n/a
543.9575	0.075	1087915	keystroke_e	e	n/a
544.1675	0.105	1088335	keystroke_c	c	n/a
544.3475	0.075	1088695	keystroke_i	i	n/a
544.5125	0.0745	1089025	keystroke_s	s	n/a
544.6325	0.1795	1089265	keystroke_i	i	n/a
544.752	0.21	1089504	keystroke_o	o	n/a
544.902	0.15	1089804	keystroke_n	n	n/a
546.147	0.135	1092294	keystroke_Key.enter	Key.enter	n/a
546.2905	11.1085	1092581	prompt	n/a	belgium transformation correspondence kirk\n
547.107	0.075	1094214	keystroke_b	b	n/a
547.317	0.06	1094634	keystroke_e	e	n/a
547.377	0.105	1094754	keystroke_l	l	n/a
547.842	0.075	1095684	keystroke_g	g	n/a
547.977	0.135	1095954	keystroke_i	i	n/a
548.232	0.12	1096464	keystroke_u	u	n/a
548.487	0.135	1096974	keystroke_m	m	n/a
548.592	0.135	1097184	keystroke_Key.space	Key.space	n/a
549.372	0.06	1098744	keystroke_t	t	n/a
549.552	0.12	1099104	keystroke_r	r	n/a
549.657	0.12	1099314	keystroke_a	a	n/a
549.792	0.135	1099584	keystroke_n	n	n/a
549.942	0.105	1099884	keystroke_s	s	n/a
550.152	0.105	1100304	keystroke_f	f	n/a
550.287	0.075	1100574	keystroke_o	o	n/a
550.392	0.105	1100784	keystroke_r	r	n/a
550.527	0.12	1101054	keystroke_m	m	n/a
550.632	0.165	1101264	keystroke_a	a	n/a
550.722	0.12	1101444	keystroke_t	t	n/a
550.827	0.15	1101654	keystroke_i	i	n/a
550.932	0.18	1101864	keystroke_o	o	n/a
551.052	0.165	1102104	keystroke_n	n	n/a
551.157	0.135	1102314	keystroke_Key.space	Key.space	n/a
551.967	0.105	1103934	keystroke_c	c	n/a
552.117	0.075	1104234	keystroke_o	o	n/a
552.417	0.09	1104834	keystroke_r	r	n/a
552.597	0.105	1105194	keystroke_r	r	n/a
552.807	0.045	1105614	keystroke_e	e	n/a
552.972	0.105	1105944	keystroke_s	s	n/a
553.122	0.045	1106244	keystroke_p	p	n/a
553.272	0.165	1106544	keystroke_o	o	n/a
553.407	0.15	1106814	keystroke_n	n	n/a
553.527	0.06	1107054	keystroke_d	d	n/a
553.707	0.075	1107414	keystroke_e	e	n/a
553.797	0.15	1107594	keystroke_n	n	n/a
553.932	0.105	1107864	keystroke_c	c	n/a
554.172	0.09	1108344	keystroke_e	e	n/a
554.487	0.135	1108974	keystroke_Key.space	Key.space	n/a
554.772	0.06	1109544	keystroke_k	k	n/a
554.952	0.075	1109904	keystroke_i	i	n/a
555.027	0.075	1110054	keystroke_r	r	n/a
555.162	0.135	1110324	keystroke_k	k	n/a
557.202	0.195	1114404	keystroke_Key.enter	Key.enter	n/a
557.4045	9.144	1114809	prompt	n/a	ones amended philips candidates\n
558.267	0.105	1116534	keystroke_o	o	n/a
558.342	0.15	1116684	keystroke_n	n	n/a
558.432	0.135	1116864	keystroke_e	e	n/a
558.552	0.12	1117104	keystroke_s	s	n/a
558.642	0.12	1117284	keystroke_Key.space	Key.space	n/a
558.792	0.105	1117584	keystroke_a	a	n/a
558.912	0.09	1117824	keystroke_m	m	n/a
559.047	0.075	1118094	keystroke_e	e	n/a
559.167	0.165	1118334	keystroke_n	n	n/a
559.272	0.075	1118544	keystroke_d	d	n/a
559.437	0.075	1118874	keystroke_e	e	n/a
559.617	0.09	1119234	keystroke_d	d	n/a
559.737	0.18	1119474	keystroke_Key.space	Key.space	n/a
560.532	0.12	1121064	keystroke_p	p	n/a
560.802	0.09	1121604	keystroke_h	h	n/a
561.012	0.105	1122024	keystroke_i	i	n/a
561.312	0.105	1122624	keystroke_l	l	n/a
561.612	0.12	1123224	keystroke_i	i	n/a
562.182	0.09	1124364	keystroke_p	p	n/a
562.482	0.105	1124964	keystroke_s	s	n/a
563.802	0.135	1127604	keystroke_Key.space	Key.space	n/a
563.952	0.09	1127904	keystroke_c	c	n/a
564.087	0.105	1128174	keystroke_a	a	n/a
564.207	0.12	1128414	keystroke_n	n	n/a
564.312	0.075	1128624	keystroke_d	d	n/a
564.417	0.12	1128834	keystroke_i	i	n/a
564.552	0.105	1129104	keystroke_d	d	n/a
564.792	0.15	1129584	keystroke_a	a	n/a
564.927	0.195	1129854	keystroke_t	t	n/a
564.957	0.195	1129914	keystroke_e	e	n/a
565.137	0.12	1130274	keystroke_s	s	n/a
566.442	0.105	1132884	keystroke_Key.enter	Key.enter	n/a
566.554	12.8495	1133108	prompt	n/a	sophisticated offline analyzed vegetation\n
567.402	0.12	1134804	keystroke_s	s	n/a
567.507	0.09	1135014	keystroke_o	o	n/a
567.687	0.15	1135374	keystroke_p	p	n/a
567.822	0.18	1135644	keystroke_h	h	n/a
567.957	0.135	1135914	keystroke_i	i	n/a
568.092	0.135	1136184	keystroke_s	s	n/a
568.287	0.105	1136574	keystroke_t	t	n/a
568.407	0.09	1136814	keystroke_i	i	n/a
568.527	0.09	1137054	keystroke_c	c	n/a
568.692	0.135	1137384	keystroke_a	a	n/a
568.797	0.12	1137594	keystroke_t	t	n/a
568.872	0.075	1137744	keystroke_e	e	n/a
569.052	0.09	1138104	keystroke_d	d	n/a
569.127	0.15	1138254	keystroke_Key.space	Key.space	n/a
569.907	0.12	1139814	keystroke_o	o	n/a
570.027	0.06	1140054	keystroke_f	f	n/a
570.177	0.09	1140354	keystroke_f	f	n/a
570.282	0.21	1140564	keystroke_l	l	n/a
570.402	0.165	1140804	keystroke_i	i	n/a
570.477	0.225	1140954	keystroke_n	n	n/a
570.537	0.075	1141074	keystroke_e	e	n/a
570.657	0.135	1141314	keystroke_Key.space	Key.space	n/a
571.332	0.09	1142664	keystroke_a	a	n/a
571.422	0.105	1142844	keystroke_n	n	n/a
571.872	0.12	1143744	keystroke_a	a	n/a
572.037	0.105	1144074	keystroke_l	l	n/a
572.337	0.12	1144674	keystroke_y	y	n/a
572.442	0.105	1144884	keystroke_z	z	n/a
572.667	0.06	1145334	keystroke_e	e	n/a
572.862	0.075	1145724	keystroke_d	d	n/a
573.402	0.135	1146804	keystroke_Key.space	Key.space	n/a
573.687	0.06	1147374	keystroke_v	v	n/a
573.837	0.09	1147674	keystroke_e	e	n/a
574.062	0.105	1148124	keystroke_g	g	n/a
574.407	0.09	1148814	keystroke_e	e	n/a
574.752	0.075	1149504	keystroke_t	t	n/a
574.917	0.15	1149834	keystroke_a	a	n/a
575.007	0.12	1150014	keystroke_t	t	n/a
575.142	0.135	1150284	keystroke_i	i	n/a
575.247	0.165	1150494	keystroke_o	o	n/a
575.367	0.15	1150734	keystroke_n	n	n/a
579.3295	0.072	1158659	keystroke_Key.enter	Key.enter	n/a
579.409	14.0945	1158818	prompt	n/a	binding lifestyle transport czech\n
583.5295	0.042	1167059	keystroke_b	b	n/a
583.7815	0.15	1167563	keystroke_i	i	n/a
584.0815	0.135	1168163	keystroke_n	n	n/a
584.2315	0.105	1168463	keystroke_d	d	n/a
584.3665	0.195	1168733	keystroke_i	i	n/a
584.4715	0.24	1168943	keystroke_n	n	n/a
584.6065	0.075	1169213	keystroke_g	g	n/a
584.6965	0.12	1169393	keystroke_Key.space	Key.space	n/a
584.8315	0.15	1169663	keystroke_l	l	n/a
584.9665	0.12	1169933	keystroke_i	i	n/a
585.0565	0.105	1170113	keystroke_f	f	n/a
585.2065	0.12	1170413	keystroke_e	e	n/a
585.5965	0.15	1171193	keystroke_s	s	n/a
585.6565	0.105	1171313	keystroke_t	t	n/a
585.7765	0.15	1171553	keystroke_y	y	n/a
585.8815	0.135	1171763	keystroke_l	l	n/a
585.9865	0.105	1171973	keystroke_e	e	n/a
586.3615	0.135	1172723	keystroke_Key.space	Key.space	n/a
586.7665	0.075	1173533	keystroke_t	t	n/a
586.9615	0.15	1173923	keystroke_r	r	n/a
587.0365	0.15	1174073	keystroke_a	a	n/a
587.1875	0.134	1174375	keystroke_n	n	n/a
587.3515	0.09	1174703	keystroke_s	s	n/a
587.5165	0.105	1175033	keystroke_p	p	n/a
587.7265	0.09	1175453	keystroke_o	o	n/a
587.8175	0.074	1175635	keystroke_r	r	n/a
588.0115	0.075	1176023	keystroke_t	t	n/a
588.1315	0.165	1176263	keystroke_Key.space	Key.space	n/a
588.5815	0.09	1177163	keystroke_c	c	n/a
588.9265	0.105	1177853	keystroke_z	z	n/a
589.1515	0.075	1178303	keystroke_e	e	n/a
589.4665	0.09	1178933	keystroke_c	c	n/a
589.5415	0.135	1179083	keystroke_h	h	n/a
593.4435	0.058	1186887	keystroke_Key.enter	Key.enter	n/a
593.5095	6.519	1187019	prompt	n/a	mesa hong canon additions\n
594.2215	0.15	1188443	keystroke_m	m	n/a
594.4615	0.075	1188923	keystroke_e	e	n/a
594.6865	0.09	1189373	keystroke_s	s	n/a
594.9115	0.09	1189823	keystroke_a	a	n/a
595.0165	0.105	1190033	keystroke_Key.space	Key.space	n/a
595.2565	0.12	1190513	keystroke_h	h	n/a
595.4075	0.119	1190815	keystroke_o	o	n/a
595.4965	0.21	1190993	keystroke_n	n	n/a
595.6315	0.09	1191263	keystroke_g	g	n/a
595.7225	0.119	1191445	keystroke_Key.space	Key.space	n/a
595.9765	0.06	1191953	keystroke_c	c	n/a
596.1865	0.105	1192373	keystroke_a	a	n/a
596.3815	0.12	1192763	keystroke_n	n	n/a
596.5915	0.12	1193183	keystroke_o	o	n/a
596.7415	0.21	1193483	keystroke_n	n	n/a
597.0715	0.165	1194143	keystroke_Key.space	Key.space	n/a
597.5515	0.075	1195103	keystroke_a	a	n/a
597.7165	0.075	1195433	keystroke_d	d	n/a
597.8815	0.09	1195763	keystroke_d	d	n/a
598.0015	0.06	1196003	keystroke_i	i	n/a
598.1065	0.075	1196213	keystroke_t	t	n/a
598.1965	0.15	1196393	keystroke_i	i	n/a
598.2865	0.18	1196573	keystroke_o	o	n/a
598.4065	0.165	1196813	keystroke_n	n	n/a
