onset	duration	sample	value	key	prompt_text
0.0105	0.0445	21	keystroke_Key.enter	Key.enter	n/a
0.1015	9.205	203	prompt	n/a	the quick brown fox jumps over a lazy dog\n
2.2525	0.013	4505	keystroke_t	t	n/a
2.2805	0.045	4561	keystroke_h	h	n/a
2.3405	0.0905	4681	keystroke_e	e	n/a
2.475	0.0755	4950	keystroke_Key.space	Key.space	n/a
2.581	0.075	5162	keystroke_q	q	n/a
2.701	0.075	5402	keystroke_u	u	n/a
2.746	0.09	5492	keystroke_i	i	n/a
2.851	0.0745	5702	keystroke_c	c	n/a
2.9565	0.0595	5913	keystroke_k	k	n/a
3.0175	0.089	6035	keystroke_Key.space	Key.space	n/a
3.212	0.045	6424	keystroke_b	b	n/a
3.392	0.045	6784	keystroke_r	r	n/a
3.4525	0.075	6905	keystroke_o	o	n/a
3.6025	0.0305	7205	keystroke_w	w	n/a
3.6925	0.09	7385	keystroke_n	n	n/a
3.798	0.06	7596	keystroke_Key.space	Key.space	n/a
3.9035	0.0445	7807	keystroke_f	f	n/a
4.038	0.076	8076	keystroke_o	o	n/a
4.2775	0.015	8555	keystroke_x	x	n/a
4.412	0.0605	8824	keystroke_Key.space	Key.space	n/a
4.692	0.045	9384	keystroke_s	s	n/a
4.842	0.045	9684	keystroke_j	j	n/a
5.082	0.045	10164	keystroke_Key.backspace	Key.backspace	n/a
5.1875	0.075	10375	keystroke_Key.backspace	Key.backspace	n/a
5.3835	0.0445	10767	keystroke_j	j	n/a
5.5185	0.0745	11037	keystroke_u	u	n/a
5.7275	0.046	11455	keystroke_m	m	n/a
5.7735	0.075	11547	keystroke_p	p	n/a
6.029	0.09	12058	keystroke_s	s	n/a
6.134	0.09	12268	keystroke_Key.space	Key.space	n/a
6.2545	0.0595	12509	keystroke_o	o	n/a
6.45	0.12	12900	keystroke_v	v	n/a
6.585	0.075	13170	keystroke_r	r	n/a
6.87	0.0905	13740	keystroke_Key.space	Key.space	n/a
7.1405	0.015	14281	keystroke_Key.backspace	Key.backspace	n/a
7.231	0.06	14462	keystroke_Key.backspace	Key.backspace	n/a
7.336	0.06	14672	keystroke_e	e	n/a
7.3815	0.0455	14763	keystroke_r	r	n/a
7.471	0.0755	14942	keystroke_Key.space	Key.space	n/a
7.6065	0.075	15213	keystroke_a	a	n/a
7.7565	0.0755	15513	keystroke_Key.space	Key.space	n/a
7.877	0.075	15754	keystroke_l	l	n/a
8.027	0.0755	16054	keystroke_a	a	n/a
8.2075	0.0905	16415	keystroke_z	z	n/a
8.3285	0.0595	16657	keystroke_y	y	n/a
8.3725	0.0455	16745	keystroke_Key.space	Key.space	n/a
8.538	0.076	17076	keystroke_d	d	n/a
8.643	0.061	17286	keystroke_o	o	n/a
8.748	0.0455	17496	keystroke_g	g	n/a
9.288	0.016	18576	keystroke_Key.enter	Key.enter	n/a
9.3115	8.7395	18623	prompt	n/a	afternoon accommodations statistics topics\n
9.98	0.06	19960	keystroke_a	a	n/a
10.0105	0.075	20021	keystroke_f	f	n/a
10.1915	0.105	20383	keystroke_t	t	n/a
10.251	0.1205	20502	keystroke_e	e	n/a
10.312	0.089	20624	keystroke_r	r	n/a
10.491	0.0615	20982	keystroke_n	n	n/a
10.6865	0.076	21373	keystroke_o	o	n/a
10.8365	0.0905	21673	keystroke_o	o	n/a
10.882	0.075	21764	keystroke_n	n	n/a
10.942	0.03	21884	keystroke_Key.space	Key.space	n/a
11.3475	0.1205	22695	keystroke_a	a	n/a
11.483	0.06	22966	keystroke_c	c	n/a
11.604	0.0745	23208	keystroke_c	c	n/a
11.7245	0.104	23449	keystroke_o	o	n/a
11.7835	0.0905	23567	keystroke_m	m	n/a
12.76	0.06	25520	keystroke_o	o	n/a
13.06	0.046	26120	keystroke_Key.backspace	Key.backspace	n/a
13.1955	0.091	26391	keystroke_m	m	n/a
13.301	0.09	26602	keystroke_o	o	n/a
13.4215	0.1045	26843	keystroke_d	d	n/a
13.542	0.135	27084	keystroke_a	a	n/a
13.647	0.0605	27294	keystroke_t	t	n/a
13.7365	0.0905	27473	keystroke_i	i	n/a
13.7665	0.121	27533	keystroke_o	o	n/a
13.797	0.075	27594	keystroke_n	n	n/a
13.902	0.0755	27804	keystroke_s	s	n/a
14.0525	0.045	28105	keystroke_Key.space	Key.space	n/a
14.683	0.1515	29366	keystroke_s	s	n/a
14.758	0.1065	29516	keystroke_t	t	n/a
14.8795	0.165	29759	keystroke_a	a	n/a
15.014	0.045	30028	keystroke_t	t	n/a
15.1035	0.075	30207	keystroke_t	t	n/a
15.4795	0.045	30959	keystroke_Key.backspace	Key.backspace	n/a
15.751	0.0595	31502	keystroke_i	i	n/a
15.781	0.1495	31562	keystroke_s	s	n/a
15.8555	0.09	31711	keystroke_t	t	n/a
16.427	0.0595	32854	keystroke_i	i	n/a
16.592	0.09	33184	keystroke_c	c	n/a
16.683	0.029	33366	keystroke_s	s	n/a
16.8315	0.0605	33663	keystroke_Key.space	Key.space	n/a
17.2985	0.06	34597	keystroke_t	t	n/a
17.374	0.18	34748	keystroke_o	o	n/a
17.4325	0.1065	34865	keystroke_p	p	n/a
17.524	0.089	35048	keystroke_i	i	n/a
17.6735	0.1055	35347	keystroke_c	c	n/a
17.749	0.09	35498	keystroke_s	s	n/a
17.989	0.0595	35978	keystroke_Key.enter	Key.enter	n/a
18.0555	4.563	36111	prompt	n/a	maple wanted vital receiver\n
18.7255	0.045	37451	keystroke_m	m	n/a
18.861	0.105	37722	keystroke_a	a	n/a
18.9505	0.06	37901	keystroke_p	p	n/a
19.117	0.1045	38234	keystroke_l	l	n/a
19.236	0.09	38472	keystroke_e	e	n/a
19.416	0.0755	38832	keystroke_Key.space	Key.space	n/a
19.6275	0.0895	39255	keystroke_w	w	n/a
19.6865	0.1655	39373	keystroke_a	a	n/a
19.837	0.076	39674	keystroke_n	n	n/a
19.9425	0.121	39885	keystroke_t	t	n/a
20.0335	0.1945	40067	keystroke_e	e	n/a
20.1835	0.1045	40367	keystroke_d	d	n/a
20.303	0.06	40606	keystroke_Key.space	Key.space	n/a
20.424	0.0595	40848	keystroke_v	v	n/a
20.513	0.091	41026	keystroke_i	i	n/a
20.6335	0.09	41267	keystroke_t	t	n/a
20.754	0.1045	41508	keystroke_a	a	n/a
21.024	0.0595	42048	keystroke_l	l	n/a
21.129	0.075	42258	keystroke_Key.space	Key.space	n/a
21.2945	0.0755	42589	keystroke_r	r	n/a
21.355	0.0905	42710	keystroke_e	e	n/a
21.5645	0.031	43129	keystroke_c	c	n/a
21.5805	0.074	43161	keystroke_e	e	n/a
21.7445	0.0465	43489	keystroke_i	i	n/a
21.851	0.075	43702	keystroke_v	v	n/a
21.91	0.136	43820	keystroke_e	e	n/a
22.3765	0.0605	44753	keystroke_r	r	n/a
22.542	0.075	45084	keystroke_Key.enter	Key.enter	n/a
22.623	8.1085	45246	prompt	n/a	initial klein evolution casino\n
23.338	0.06	46676	keystroke_i	i	n/a
23.5785	0.0755	47157	keystroke_n	n	n/a
23.668	0.0905	47336	keystroke_i	i	n/a
23.8635	0.0455	47727	keystroke_t	t	n/a
23.879	0.0605	47758	keystroke_i	i	n/a
24.1045	0.0595	48209	keystroke_l	l	n/a
24.134	0.075	48268	keystroke_a	a	n/a
25.231	0.029	50462	keystroke_Key.backspace	Key.backspace	n/a
25.336	0.0455	50672	keystroke_Key.backspace	Key.backspace	n/a
25.4265	0.075	50853	keystroke_a	a	n/a
25.562	0.0755	51124	keystroke_l	l	n/a
25.6375	0.074	51275	keystroke_Key.space	Key.space	n/a
26.1475	0.075	52295	keystroke_k	k	n/a
26.3425	0.0905	52685	keystroke_l	l	n/a
26.4785	0.074	52957	keystroke_e	e	n/a
26.6435	0.1055	53287	keystroke_i	i	n/a
26.704	0.075	53408	keystroke_n	n	n/a
26.763	0.075	53526	keystroke_Key.space	Key.space	n/a
27.169	0.105	54338	keystroke_e	e	n/a
27.349	0.046	54698	keystroke_v	v	n/a
27.365	0.015	54730	keystroke_o	o	n/a
27.5155	0.044	55031	keystroke_o	o	n/a
28.1305	0.045	56261	keystroke_Key.backspace	Key.backspace	n/a
28.3255	0.0615	56651	keystroke_l	l	n/a
28.402	0.045	56804	keystroke_u	u	n/a
28.567	0.045	57134	keystroke_t	t	n/a
28.687	0.105	57374	keystroke_i	i	n/a
28.702	0.1195	57404	keystroke_o	o	n/a
28.746	0.061	57492	keystroke_n	n	n/a
28.8365	0.075	57673	keystroke_Key.space	Key.space	n/a
29.137	0.0755	58274	keystroke_c	c	n/a
29.197	0.1055	58394	keystroke_a	a	n/a
29.2875	0.09	58575	keystroke_s	s	n/a
29.4975	0.0455	58995	keystroke_i	i	n/a
29.5275	0.06	59055	keystroke_n	n	n/a
29.978	0.0605	59956	keystroke_o	o	n/a
30.67	0.059	61340	keystroke_Key.enter	Key.enter	n/a
30.737	6.2135	61474	prompt	n/a	packets twelve inexpensive lexmark\n
31.4505	0.031	62901	keystroke_p	p	n/a
31.556	0.12	63112	keystroke_a	a	n/a
31.646	0.0605	63292	keystroke_c	c	n/a
31.7365	0.075	63473	keystroke_k	k	n/a
32.0365	0.105	64073	keystroke_e	e	n/a
32.157	0.0455	64314	keystroke_t	t	n/a
32.262	0.1055	64524	keystroke_s	s	n/a
32.427	0.0905	64854	keystroke_Key.space	Key.space	n/a
32.788	0.075	65576	keystroke_t	t	n/a
32.863	0.09	65726	keystroke_w	w	n/a
33.0585	0.0755	66117	keystroke_e	e	n/a
33.239	0.045	66478	keystroke_l	l	n/a
33.358	0.1065	66716	keystroke_v	v	n/a
33.4195	0.105	66839	keystroke_e	e	n/a
33.5835	0.075	67167	keystroke_Key.space	Key.space	n/a
33.719	0.1045	67438	keystroke_i	i	n/a
33.809	0.046	67618	keystroke_n	n	n/a
33.915	0.075	67830	keystroke_e	e	n/a
34.14	0.0745	68280	keystroke_x	x	n/a
34.2755	0.045	68551	keystroke_p	p	n/a
34.366	0.0745	68732	keystroke_e	e	n/a
34.5605	0.045	69121	keystroke_n	n	n/a
34.681	0.09	69362	keystroke_s	s	n/a
34.846	0.045	69692	keystroke_e	e	n/a
34.9215	0.045	69843	keystroke_i	i	n/a
35.2965	0.0595	70593	keystroke_Key.backspace	Key.backspace	n/a
35.4165	0.045	70833	keystroke_Key.backspace	Key.backspace	n/a
35.568	0.0735	71136	keystroke_i	i	n/a
35.6275	0.075	71255	keystroke_v	v	n/a
35.6865	0.091	71373	keystroke_e	e	n/a
35.7915	0.061	71583	keystroke_Key.space	Key.space	n/a
35.958	0.075	71916	keystroke_l	l	n/a
36.063	0.06	72126	keystroke_e	e	n/a
36.2135	0.1045	72427	keystroke_x	x	n/a
36.3785	0.06	72757	keystroke_m	m	n/a
36.4985	0.12	72997	keystroke_a	a	n/a
36.5735	0.075	73147	keystroke_r	r	n/a
36.664	0.075	73328	keystroke_k	k	n/a
36.8895	0.0595	73779	keystroke_Key.enter	Key.enter	n/a
36.956	7.521	73912	prompt	n/a	bahamas collectables yacht lawrence\n
37.7005	0.105	75401	keystroke_b	b	n/a
37.821	0.0895	75642	keystroke_a	a	n/a
38.0005	0.046	76001	keystroke_h	h	n/a
38.211	0.09	76422	keystroke_a	a	n/a
38.346	0.075	76692	keystroke_m	m	n/a
38.5715	0.1795	77143	keystroke_s	s	n/a
38.9775	0.045	77955	keystroke_Key.backspace	Key.backspace	n/a
39.0375	0.1045	78075	keystroke_a	a	n/a
39.0825	0.074	78165	keystroke_s	s	n/a
39.2025	0.06	78405	keystroke_Key.space	Key.space	n/a
39.368	0.075	78736	keystroke_c	c	n/a
39.458	0.075	78916	keystroke_o	o	n/a
39.6525	0.015	79305	keystroke_l	l	n/a
39.803	0.075	79606	keystroke_l	l	n/a
39.998	0.105	79996	keystroke_e	e	n/a
40.043	0.0905	80086	keystroke_c	c	n/a
40.5085	0.031	81017	keystroke_t	t	n/a
40.6295	0.1355	81259	keystroke_a	a	n/a
40.72	0.075	81440	keystroke_b	b	n/a
40.8395	0.0605	81679	keystroke_l	l	n/a
40.959	0.076	81918	keystroke_e	e	n/a
41.08	0.0755	82160	keystroke_s	s	n/a
41.2445	0.046	82489	keystroke_Key.space	Key.space	n/a
41.561	0.045	83122	keystroke_y	y	n/a
41.711	0.06	83422	keystroke_a	a	n/a
41.8015	0.135	83603	keystroke_c	c	n/a
41.9665	0.045	83933	keystroke_h	h	n/a
42.2665	0.0305	84533	keystroke_t	t	n/a
42.372	0.0595	84744	keystroke_Key.space	Key.space	n/a
42.537	0.0755	85074	keystroke_l	l	n/a
42.6575	0.06	85315	keystroke_a	a	n/a
42.7315	0.1215	85463	keystroke_w	w	n/a
43.0175	0.0905	86035	keystroke_r	r	n/a
43.093	0.059	86186	keystroke_e	e	n/a
43.2425	0.046	86485	keystroke_n	n	n/a
43.3185	0.0895	86637	keystroke_c	c	n/a
43.4085	0.0745	86817	keystroke_e	e	n/a
43.5585	0.0305	87117	keystroke_;	;	n/a
44.2335	0.046	88467	keystroke_Key.backspace	Key.backspace	n/a
44.4145	0.0595	88829	keystroke_Key.enter	Key.enter	n/a
44.4835	6.294	88967	prompt	n/a	john films incurred bloomberg\n
45.15	0.0905	90300	keystroke_j	j	n/a
45.271	0.1195	90542	keystroke_o	o	n/a
45.4965	0.0595	90993	keystroke_n	n	n/a
45.9315	0.06	91863	keystroke_Key.backspace	Key.backspace	n/a
46.1125	0.0595	92225	keystroke_h	h	n/a
46.2625	0.089	92525	keystroke_n	n	n/a
46.3665	0.06	92733	keystroke_Key.space	Key.space	n/a
46.623	0.0595	93246	keystroke_f	f	n/a
46.757	0.076	93514	keystroke_i	i	n/a
46.877	0.121	93754	keystroke_l	l	n/a
46.9985	0.044	93997	keystroke_m	m	n/a
47.0875	0.0905	94175	keystroke_s	s	n/a
47.2215	0.075	94443	keystroke_Key.space	Key.space	n/a
47.4475	0.09	94895	keystroke_i	i	n/a
47.523	0.0745	95046	keystroke_n	n	n/a
47.6575	0.0595	95315	keystroke_c	c	n/a
47.8825	0.0595	95765	keystroke_r	r	n/a
48.3915	0.031	96783	keystroke_Key.backspace	Key.backspace	n/a
48.616	0.045	97232	keystroke_u	u	n/a
48.797	0.045	97594	keystroke_r	r	n/a
48.9025	0.1495	97805	keystroke_r	r	n/a
49.0375	0.089	98075	keystroke_e	e	n/a
49.2015	0.105	98403	keystroke_d	d	n/a
49.3515	0.045	98703	keystroke_Key.space	Key.space	n/a
49.4865	0.0605	98973	keystroke_b	b	n/a
49.5925	0.0585	99185	keystroke_l	l	n/a
49.7715	0.0595	99543	keystroke_o	o	n/a
49.921	0.061	99842	keystroke_o	o	n/a
49.951	0.076	99902	keystroke_m	m	n/a
50.192	0.0445	100384	keystroke_b	b	n/a
50.297	0.135	100594	keystroke_e	e	n/a
50.3865	0.0605	100773	keystroke_r	r	n/a
50.492	0.0745	100984	keystroke_g	g	n/a
50.731	0.045	101462	keystroke_Key.enter	Key.enter	n/a
50.785	4.9865	101570	prompt	n/a	worried bulgaria eugene congo\n
51.4365	0.059	102873	keystroke_w	w	n/a
51.5565	0.074	103113	keystroke_o	o	n/a
51.706	0.0595	103412	keystroke_r	r	n/a
51.8105	0.09	103621	keystroke_r	r	n/a
51.9905	0.045	103981	keystroke_i	i	n/a
52.0805	0.121	104161	keystroke_e	e	n/a
52.171	0.075	104342	keystroke_d	d	n/a
52.2605	0.0755	104521	keystroke_Key.space	Key.space	n/a
52.426	0.0445	104852	keystroke_b	b	n/a
52.576	0.0595	105152	keystroke_u	u	n/a
52.6955	0.06	105391	keystroke_l	l	n/a
52.9215	0.074	105843	keystroke_g	g	n/a
53.0255	0.12	106051	keystroke_a	a	n/a
53.1305	0.075	106261	keystroke_r	r	n/a
53.2655	0.0445	106531	keystroke_i	i	n/a
53.4905	0.075	106981	keystroke_a	a	n/a
53.6105	0.06	107221	keystroke_Key.space	Key.space	n/a
53.94	0.075	107880	keystroke_e	e	n/a
54.09	0.045	108180	keystroke_u	u	n/a
54.3005	0.0745	108601	keystroke_g	g	n/a
54.39	0.0755	108780	keystroke_e	e	n/a
54.5845	0.0615	109169	keystroke_n	n	n/a
54.675	0.09	109350	keystroke_e	e	n/a
54.855	0.06	109710	keystroke_Key.space	Key.space	n/a
55.0495	0.0305	110099	keystroke_c	c	n/a
55.14	0.105	110280	keystroke_o	o	n/a
55.2	0.06	110400	keystroke_n	n	n/a
55.35	0.0305	110700	keystroke_g	g	n/a
55.44	0.075	110880	keystroke_o	o	n/a
55.709	0.0605	111418	keystroke_Key.enter	Key.enter	n/a
55.776	6.3825	111552	prompt	n/a	remedies bleeding factors slovenia\n
56.369	0.0605	112738	keystroke_r	r	n/a
56.444	0.076	112888	keystroke_e	e	n/a
56.7445	0.1345	113489	keystroke_e	e	n/a
57.1935	0.0445	114387	keystroke_Key.backspace	Key.backspace	n/a
57.3445	0.0585	114689	keystroke_m	m	n/a
57.464	0.119	114928	keystroke_e	e	n/a
57.554	0.0905	115108	keystroke_d	d	n/a
57.674	0.0605	115348	keystroke_i	i	n/a
57.958	0.09	115916	keystroke_e	e	n/a
58.123	0.1065	116246	keystroke_s	s	n/a
58.244	0.044	116488	keystroke_Key.space	Key.space	n/a
58.6035	0.075	117207	keystroke_b	b	n/a
58.7385	0.0455	117477	keystroke_l	l	n/a
58.814	0.09	117628	keystroke_e	e	n/a
58.9785	0.105	117957	keystroke_e	e	n/a
59.1885	0.0745	118377	keystroke_d	d	n/a
59.3085	0.0895	118617	keystroke_i	i	n/a
59.368	0.076	118736	keystroke_n	n	n/a
59.458	0.0755	118916	keystroke_g	g	n/a
59.5635	0.0595	119127	keystroke_Key.space	Key.space	n/a
59.668	0.076	119336	keystroke_f	f	n/a
59.744	0.1645	119488	keystroke_a	a	n/a
59.8935	0.0595	119787	keystroke_c	c	n/a
60.073	0.075	120146	keystroke_t	t	n/a
60.238	0.0455	120476	keystroke_o	o	n/a
60.299	0.089	120598	keystroke_r	r	n/a
60.403	0.105	120806	keystroke_s	s	n/a
60.553	0.06	121106	keystroke_Key.space	Key.space	n/a
60.7475	0.076	121495	keystroke_s	s	n/a
60.884	0.0735	121768	keystroke_l	l	n/a
61.0625	0.06	122125	keystroke_o	o	n/a
61.2135	0.1045	122427	keystroke_v	v	n/a
61.2885	0.0735	122577	keystroke_e	e	n/a
61.573	0.0595	123146	keystroke_n	n	n/a
61.6475	0.075	123295	keystroke_i	i	n/a
61.872	0.076	123744	keystroke_a	a	n/a
62.082	0.075	124164	keystroke_Key.enter	Key.enter	n/a
62.163	7.9165	124326	prompt	n/a	identifier reduction continually answered\n
62.832	0.0905	125664	keystroke_i	i	n/a
63.087	0.165	126174	keystroke_d	d	n/a
63.162	0.12	126324	keystroke_e	e	n/a
63.9715	0.0155	127943	keystroke_n	n	n/a
64.0765	0.061	128153	keystroke_t	t	n/a
64.1825	0.0595	128365	keystroke_i	i	n/a
64.2725	0.1045	128545	keystroke_f	f	n/a
64.362	0.0755	128724	keystroke_i	i	n/a
64.512	0.15	129024	keystroke_e	e	n/a
64.632	0.0745	129264	keystroke_r	r	n/a
64.8265	0.0605	129653	keystroke_Key.space	Key.space	n/a
65.201	0.091	130402	keystroke_r	r	n/a
65.277	0.0895	130554	keystroke_e	e	n/a
65.457	0.089	130914	keystroke_d	d	n/a
65.5915	0.045	131183	keystroke_u	u	n/a
65.6815	0.044	131363	keystroke_c	c	n/a
65.8315	0.075	131663	keystroke_t	t	n/a
65.8765	0.135	131753	keystroke_i	i	n/a
65.9515	0.075	131903	keystroke_o	o	n/a
65.9665	0.061	131933	keystroke_n	n	n/a
66.0555	0.075	132111	keystroke_Key.space	Key.space	n/a
66.3265	0.0445	132653	keystroke_c	c	n/a
66.4015	0.075	132803	keystroke_o	o	n/a
66.4465	0.06	132893	keystroke_n	n	n/a
66.5515	0.075	133103	keystroke_t	t	n/a
66.686	0.0905	133372	keystroke_i	i	n/a
66.7615	0.075	133523	keystroke_n	n	n/a
66.9265	0.0585	133853	keystroke_u	u	n/a
67.585	0.121	135170	keystroke_a	a	n/a
67.735	0.0605	135470	keystroke_l	l	n/a
67.871	0.0895	135742	keystroke_l	l	n/a
67.9755	0.06	135951	keystroke_y	y	n/a
68.0365	0.059	136073	keystroke_Key.space	Key.space	n/a
68.186	0.0745	136372	keystroke_a	a	n/a
68.306	0.0595	136612	keystroke_n	n	n/a
68.4105	0.075	136821	keystroke_s	s	n/a
68.5905	0.1505	137181	keystroke_w	w	n/a
68.7555	0.1045	137511	keystroke_e	e	n/a
68.83	0.1355	137660	keystroke_r	r	n/a
68.9805	0.135	137961	keystroke_e	e	n/a
69.0705	0.105	138141	keystroke_d	d	n/a
70.0145	0.06	140029	keystroke_Key.enter	Key.enter	n/a
70.084	5.735	140168	prompt	n/a	panel attention trail conversation\n
70.72	0.045	141440	keystroke_p	p	n/a
70.8395	0.09	141679	keystroke_a	a	n/a
70.959	0.0745	141918	keystroke_n	n	n/a
71.0645	0.09	142129	keystroke_e	e	n/a
71.2145	0.0905	142429	keystroke_l	l	n/a
71.319	0.06	142638	keystroke_Key.space	Key.space	n/a
71.65	0.1485	143300	keystroke_a	a	n/a
71.829	0.0605	143658	keystroke_t	t	n/a
71.9945	0.105	143989	keystroke_t	t	n/a
72.0695	0.1195	144139	keystroke_e	e	n/a
72.2045	0.0595	144409	keystroke_n	n	n/a
72.399	0.045	144798	keystroke_s	s	n/a
72.759	0.045	145518	keystroke_Key.backspace	Key.backspace	n/a
72.865	0.0735	145730	keystroke_t	t	n/a
72.9985	0.135	145997	keystroke_i	i	n/a
73.0285	0.12	146057	keystroke_o	o	n/a
73.0885	0.09	146177	keystroke_n	n	n/a
73.1785	0.075	146357	keystroke_Key.space	Key.space	n/a
73.524	0.0745	147048	keystroke_t	t	n/a
73.629	0.1495	147258	keystroke_r	r	n/a
73.7335	0.105	147467	keystroke_a	a	n/a
73.884	0.089	147768	keystroke_i	i	n/a
74.018	0.105	148036	keystroke_l	l	n/a
74.138	0.09	148276	keystroke_Key.space	Key.space	n/a
74.333	0.091	148666	keystroke_c	c	n/a
74.439	0.074	148878	keystroke_o	o	n/a
74.483	0.0605	148966	keystroke_n	n	n/a
74.603	0.1645	149206	keystroke_v	v	n/a
74.708	0.18	149416	keystroke_e	e	n/a
74.828	0.0895	149656	keystroke_r	r	n/a
74.993	0.1495	149986	keystroke_s	s	n/a
75.0985	0.134	150197	keystroke_a	a	n/a
75.2035	0.0745	150407	keystroke_t	t	n/a
75.3385	0.104	150677	keystroke_i	i	n/a
75.3685	0.12	150737	keystroke_o	o	n/a
75.4135	0.06	150827	keystroke_n	n	n/a
75.773	0.044	151546	keystroke_Key.enter	Key.enter	n/a
75.8255	6.1125	151651	prompt	n/a	mountains tender silver wizard\n
76.6125	0.09	153225	keystroke_m	m	n/a
76.7925	0.0895	153585	keystroke_o	o	n/a
76.883	0.059	153766	keystroke_u	u	n/a
77.0325	0.0745	154065	keystroke_n	n	n/a
77.1525	0.0905	154305	keystroke_t	t	n/a
77.258	0.059	154516	keystroke_a	a	n/a
77.3625	0.089	154725	keystroke_i	i	n/a
77.4075	0.06	154815	keystroke_n	n	n/a
77.542	0.076	155084	keystroke_s	s	n/a
77.662	0.06	155324	keystroke_Key.space	Key.space	n/a
77.887	0.075	155774	keystroke_t	t	n/a
77.977	0.09	155954	keystroke_e	e	n/a
78.096	0.061	156192	keystroke_n	n	n/a
78.217	0.075	156434	keystroke_d	d	n/a
78.322	0.12	156644	keystroke_e	e	n/a
78.412	0.075	156824	keystroke_r	r	n/a
78.531	0.0745	157062	keystroke_Key.space	Key.space	n/a
78.682	0.1045	157364	keystroke_s	s	n/a
78.9665	0.0745	157933	keystroke_i	i	n/a
79.0865	0.135	158173	keystroke_l	l	n/a
79.2515	0.135	158503	keystroke_v	v	n/a
79.3415	0.12	158683	keystroke_e	e	n/a
79.4165	0.075	158833	keystroke_r	r	n/a
79.5065	0.075	159013	keystroke_Key.space	Key.space	n/a
79.6565	0.075	159313	keystroke_w	w	n/a
79.7915	0.045	159583	keystroke_i	i	n/a
80.0165	0.1195	160033	keystroke_a	a	n/a
80.241	0.1205	160482	keystroke_a	a	n/a
80.3315	0.06	160663	keystroke_r	r	n/a
80.4965	0.0445	160993	keystroke_d	d	n/a
80.721	0.045	161442	keystroke_Key.backspace	Key.backspace	n/a
80.841	0.06	161682	keystroke_Key.backspace	Key.backspace	n/a
80.9765	0.059	161953	keystroke_Key.backspace	Key.backspace	n/a
81.0955	0.075	162191	keystroke_Key.backspace	Key.backspace	n/a
81.2015	0.074	162403	keystroke_z	z	n/a
81.3815	0.1045	162763	keystroke_a	a	n/a
81.4555	0.06	162911	keystroke_r	r	n/a
81.6365	0.059	163273	keystroke_d	d	n/a
81.8455	0.09	163691	keystroke_Key.enter	Key.enter	n/a
81.9425	6.9665	163885	prompt	n/a	bradley consciousness textiles pope\n
82.611	0.0595	165222	keystroke_b	b	n/a
82.806	0.0745	165612	keystroke_r	r	n/a
82.865	0.045	165730	keystroke_a	a	n/a
83.031	0.0745	166062	keystroke_d	d	n/a
83.1795	0.076	166359	keystroke_l	l	n/a
83.3595	0.046	166719	keystroke_e	e	n/a
83.5105	0.03	167021	keystroke_y	y	n/a
83.5855	0.0595	167171	keystroke_Key.space	Key.space	n/a
83.855	0.06	167710	keystroke_c	c	n/a
83.945	0.089	167890	keystroke_o	o	n/a
83.974	0.09	167948	keystroke_n	n	n/a
84.29	0.1205	168580	keystroke_s	s	n/a
84.3655	0.1045	168731	keystroke_c	c	n/a
84.4995	0.165	168999	keystroke_i	i	n/a
84.5595	0.1505	169119	keystroke_o	o	n/a
84.6345	0.076	169269	keystroke_u	u	n/a
85.0695	0.0605	170139	keystroke_s	s	n/a
85.2645	0.0455	170529	keystroke_n	n	n/a
85.3695	0.075	170739	keystroke_e	e	n/a
85.5495	0.09	171099	keystroke_s	s	n/a
85.7145	0.1205	171429	keystroke_s	s	n/a
85.849	0.045	171698	keystroke_Key.space	Key.space	n/a
86	0.09	172000	keystroke_t	t	n/a
86.075	0.0895	172150	keystroke_e	e	n/a
86.554	0.165	173108	keystroke_x	x	n/a
86.674	0.09	173348	keystroke_t	t	n/a
86.809	0.06	173618	keystroke_i	i	n/a
86.9735	0.091	173947	keystroke_l	l	n/a
87.1395	0.1045	174279	keystroke_e	e	n/a
87.4685	0.1345	174937	keystroke_Key.space	Key.space	n/a
87.9325	0.03	175865	keystroke_Key.backspace	Key.backspace	n/a
87.978	0.0895	175956	keystroke_s	s	n/a
88.0975	0.091	176195	keystroke_Key.space	Key.space	n/a
88.203	0.0905	176406	keystroke_p	p	n/a
88.4435	0.104	176887	keystroke_o	o	n/a
88.5035	0.074	177007	keystroke_p	p	n/a
88.6375	0.061	177275	keystroke_e	e	n/a
88.8625	0.0455	177725	keystroke_Key.enter	Key.enter	n/a
88.9135	5.694	177827	prompt	n/a	media bacterial asian painted\n
89.5985	0.0295	179197	keystroke_m	m	n/a
89.658	0.12	179316	keystroke_e	e	n/a
89.763	0.0895	179526	keystroke_d	d	n/a
89.898	0.0595	179796	keystroke_i	i	n/a
90.0025	0.075	180005	keystroke_a	a	n/a
90.3025	0.015	180605	keystroke_l	l	n/a
90.7375	0.0745	181475	keystroke_Key.space	Key.space	n/a
91.0825	0.0745	182165	keystroke_Key.backspace	Key.backspace	n/a
91.187	0.09	182374	keystroke_Key.backspace	Key.backspace	n/a
91.292	0.045	182584	keystroke_Key.space	Key.space	n/a
91.412	0.0755	182824	keystroke_b	b	n/a
91.502	0.09	183004	keystroke_a	a	n/a
91.8465	0.091	183693	keystroke_c	c	n/a
92.1165	0.076	184233	keystroke_t	t	n/a
92.222	0.1195	184444	keystroke_e	e	n/a
92.2965	0.09	184593	keystroke_r	r	n/a
92.4315	0.0605	184863	keystroke_i	i	n/a
92.5515	0.0895	185103	keystroke_a	a	n/a
92.687	0.06	185374	keystroke_Key.space	Key.space	n/a
92.987	0.09	185974	keystroke_a	a	n/a
93.002	0.15	186004	keystroke_s	s	n/a
93.182	0.0605	186364	keystroke_i	i	n/a
93.302	0.1045	186604	keystroke_a	a	n/a
93.4365	0.09	186873	keystroke_n	n	n/a
93.542	0.0145	187084	keystroke_Key.space	Key.space	n/a
93.7365	0.075	187473	keystroke_p	p	n/a
93.8265	0.09	187653	keystroke_a	a	n/a
94.021	0.09	188042	keystroke_i	i	n/a
94.052	0.074	188104	keystroke_n	n	n/a
94.1715	0.0905	188343	keystroke_t	t	n/a
94.2765	0.1495	188553	keystroke_e	e	n/a
94.3805	0.1055	188761	keystroke_d	d	n/a
94.5305	0.075	189061	keystroke_Key.enter	Key.enter	n/a
94.613	6.2625	189226	prompt	n/a	parade suggested velvet strange\n
95.3555	0.06	190711	keystroke_p	p	n/a
95.461	0.09	190922	keystroke_a	a	n/a
95.536	0.105	191072	keystroke_r	r	n/a
95.626	0.12	191252	keystroke_e	e	n/a
96.136	0.044	192272	keystroke_Key.backspace	Key.backspace	n/a
96.182	0.104	192364	keystroke_a	a	n/a
96.27	0.211	192540	keystroke_d	d	n/a
96.406	0.1045	192812	keystroke_e	e	n/a
96.6155	0.06	193231	keystroke_Key.space	Key.space	n/a
97.125	0.0905	194250	keystroke_s	s	n/a
97.23	0.046	194460	keystroke_u	u	n/a
97.3505	0.0745	194701	keystroke_g	g	n/a
97.485	0.09	194970	keystroke_g	g	n/a
97.5605	0.0905	195121	keystroke_e	e	n/a
97.785	0.0905	195570	keystroke_s	s	n/a
97.86	0.0895	195720	keystroke_t	t	n/a
97.981	0.149	195962	keystroke_e	e	n/a
98.115	0.075	196230	keystroke_d	d	n/a
98.31	0.075	196620	keystroke_Key.space	Key.space	n/a
98.475	0.09	196950	keystroke_v	v	n/a
98.55	0.09	197100	keystroke_e	e	n/a
98.685	0.074	197370	keystroke_l	l	n/a
98.895	0.09	197790	keystroke_v	v	n/a
98.97	0.075	197940	keystroke_e	e	n/a
99.4795	0.015	198959	keystroke_t	t	n/a
99.8995	0.03	199799	keystroke_Key.space	Key.space	n/a
100.08	0.1035	200160	keystroke_s	s	n/a
100.1395	0.09	200279	keystroke_t	t	n/a
100.274	0.105	200548	keystroke_r	r	n/a
100.334	0.1055	200668	keystroke_a	a	n/a
100.484	0.06	200968	keystroke_n	n	n/a
100.589	0.0755	201178	keystroke_g	g	n/a
100.649	0.0755	201298	keystroke_e	e	n/a
100.8135	0.0605	201627	keystroke_Key.enter	Key.enter	n/a
100.8845	4.6845	201769	prompt	n/a	islam develop loops posters\n
101.5195	0.075	203039	keystroke_i	i	n/a
101.609	0.12	203218	keystroke_s	s	n/a
101.759	0.0755	203518	keystroke_l	l	n/a
101.909	0.06	203818	keystroke_a	a	n/a
102.029	0.075	204058	keystroke_m	m	n/a
102.089	0.045	204178	keystroke_Key.space	Key.space	n/a
102.313	0.045	204626	keystroke_d	d	n/a
102.433	0.1055	204866	keystroke_e	e	n/a
102.553	0.0605	205106	keystroke_v	v	n/a
102.644	0.075	205288	keystroke_e	e	n/a
102.659	0.045	205318	keystroke_l	l	n/a
102.8385	0.075	205677	keystroke_o	o	n/a
102.8985	0.06	205797	keystroke_p	p	n/a
103.543	0.15	207086	keystroke_Key.space	Key.space	n/a
103.768	0.0455	207536	keystroke_l	l	n/a
103.9475	0.045	207895	keystroke_o	o	n/a
104.0835	0.0895	208167	keystroke_o	o	n/a
104.1285	0.119	208257	keystroke_p	p	n/a
104.338	0.0445	208676	keystroke_s	s	n/a
104.4275	0.045	208855	keystroke_Key.space	Key.space	n/a
104.6385	0.074	209277	keystroke_p	p	n/a
104.7875	0.0745	209575	keystroke_o	o	n/a
104.893	0.1645	209786	keystroke_s	s	n/a
105.0125	0.06	210025	keystroke_t	t	n/a
105.1025	0.165	210205	keystroke_e	e	n/a
105.2225	0.21	210445	keystroke_r	r	n/a
105.3575	0.12	210715	keystroke_s	s	n/a
105.5075	0.059	211015	keystroke_Key.enter	Key.enter	n/a
105.574	4.2235	211148	prompt	n/a	saying diversity training powers\n
106.1675	0.1345	212335	keystroke_s	s	n/a
106.272	0.09	212544	keystroke_a	a	n/a
106.392	0.075	212784	keystroke_y	y	n/a
106.452	0.0455	212904	keystroke_i	i	n/a
106.5875	0.075	213175	keystroke_n	n	n/a
106.722	0.0605	213444	keystroke_g	g	n/a
106.7965	0.061	213593	keystroke_Key.space	Key.space	n/a
107.0215	0.061	214043	keystroke_d	d	n/a
107.1275	0.0445	214255	keystroke_i	i	n/a
107.2015	0.1355	214403	keystroke_v	v	n/a
107.291	0.106	214582	keystroke_e	e	n/a
107.351	0.105	214702	keystroke_r	r	n/a
107.531	0.121	215062	keystroke_s	s	n/a
107.6665	0.076	215333	keystroke_i	i	n/a
107.847	0.045	215694	keystroke_t	t	n/a
107.9075	0.029	215815	keystroke_y	y	n/a
108.1315	0.06	216263	keystroke_Key.space	Key.space	n/a
108.2665	0.09	216533	keystroke_t	t	n/a
108.372	0.1195	216744	keystroke_r	r	n/a
108.4615	0.0895	216923	keystroke_a	a	n/a
108.536	0.06	217072	keystroke_i	i	n/a
108.596	0.0755	217192	keystroke_n	n	n/a
108.731	0.046	217462	keystroke_i	i	n/a
108.7465	0.06	217493	keystroke_n	n	n/a
108.881	0.0605	217762	keystroke_g	g	n/a
108.9715	0.06	217943	keystroke_Key.space	Key.space	n/a
109.047	0.09	218094	keystroke_p	p	n/a
109.197	0.074	218394	keystroke_o	o	n/a
109.256	0.09	218512	keystroke_w	w	n/a
109.407	0.105	218814	keystroke_e	e	n/a
109.481	0.165	218962	keystroke_r	r	n/a
109.601	0.135	219202	keystroke_s	s	n/a
109.721	0.075	219442	keystroke_Key.enter	Key.enter	n/a
109.8025	7.3275	219605	prompt	n/a	cement outlook flux connecting\n
110.5305	0.075	221061	keystroke_c	c	n/a
110.635	0.1055	221270	keystroke_e	e	n/a
110.741	0.074	221482	keystroke_m	m	n/a
110.8455	0.09	221691	keystroke_e	e	n/a
110.9055	0.045	221811	keystroke_m	m	n/a
111.3105	0.03	222621	keystroke_Key.backspace	Key.backspace	n/a
111.46	0.0455	222920	keystroke_n	n	n/a
111.5355	0.0605	223071	keystroke_t	t	n/a
111.64	0.06	223280	keystroke_Key.space	Key.space	n/a
111.866	0.0445	223732	keystroke_l	l	n/a
112.2405	0.03	224481	keystroke_o	o	n/a
112.4655	0.06	224931	keystroke_Key.backspace	Key.backspace	n/a
112.5995	0.0605	225199	keystroke_Key.backspace	Key.backspace	n/a
112.8105	0.0895	225621	keystroke_o	o	n/a
113.095	0.03	226190	keystroke_u	u	n/a
113.23	0.045	226460	keystroke_t	t	n/a
113.35	0.06	226700	keystroke_l	l	n/a
113.5595	0.0455	227119	keystroke_o	o	n/a
113.6945	0.105	227389	keystroke_o	o	n/a
113.7545	0.09	227509	keystroke_k	k	n/a
113.9045	0.075	227809	keystroke_Key.space	Key.space	n/a
114.145	0.0445	228290	keystroke_f	f	n/a
114.3245	0.046	228649	keystroke_l	l	n/a
114.4155	0.0595	228831	keystroke_u	u	n/a
114.534	0.091	229068	keystroke_x	x	n/a
114.7445	0.045	229489	keystroke_Key.space	Key.space	n/a
115.09	0.105	230180	keystroke_c	c	n/a
115.2095	0.075	230419	keystroke_o	o	n/a
115.255	0.0895	230510	keystroke_n	n	n/a
115.4335	0.1965	230867	keystroke_e	e	n/a
115.45	0.045	230900	keystroke_n	n	n/a
115.6305	0.059	231261	keystroke_c	c	n/a
115.9285	0.0305	231857	keystroke_Key.backspace	Key.backspace	n/a
116.0335	0.06	232067	keystroke_Key.backspace	Key.backspace	n/a
116.1985	0.075	232397	keystroke_Key.backspace	Key.backspace	n/a
116.3795	0.0445	232759	keystroke_n	n	n/a
116.4545	0.105	232909	keystroke_e	e	n/a
116.5145	0.059	233029	keystroke_c	c	n/a
116.7085	0.03	233417	keystroke_t	t	n/a
116.754	0.075	233508	keystroke_i	i	n/a
116.7845	0.059	233569	keystroke_n	n	n/a
116.8595	0.06	233719	keystroke_g	g	n/a
117.068	0.06	234136	keystroke_Key.enter	Key.enter	n/a
117.1375	4.746	234275	prompt	n/a	claims diet accepted rendering\n
117.6985	0.0745	235397	keystroke_c	c	n/a
117.819	0.06	235638	keystroke_l	l	n/a
117.954	0.0745	235908	keystroke_a	a	n/a
118.074	0.074	236148	keystroke_i	i	n/a
118.134	0.0295	236268	keystroke_m	m	n/a
118.223	0.076	236446	keystroke_s	s	n/a
118.343	0.061	236686	keystroke_Key.space	Key.space	n/a
118.4935	0.06	236987	keystroke_d	d	n/a
118.5835	0.06	237167	keystroke_i	i	n/a
118.6585	0.0745	237317	keystroke_e	e	n/a
118.8375	0.0605	237675	keystroke_t	t	n/a
118.9575	0.0455	237915	keystroke_Key.space	Key.space	n/a
119.3335	0.09	238667	keystroke_a	a	n/a
119.6035	0.06	239207	keystroke_c	c	n/a
119.723	0.12	239446	keystroke_c	c	n/a
119.8575	0.06	239715	keystroke_e	e	n/a
119.9625	0.075	239925	keystroke_p	p	n/a
120.0825	0.0605	240165	keystroke_t	t	n/a
120.1575	0.195	240315	keystroke_e	e	n/a
120.3075	0.061	240615	keystroke_d	d	n/a
120.3825	0.0755	240765	keystroke_Key.space	Key.space	n/a
120.5775	0.0605	241155	keystroke_r	r	n/a
120.6225	0.0605	241245	keystroke_e	e	n/a
120.7875	0.0455	241575	keystroke_n	n	n/a
120.937	0.1045	241874	keystroke_d	d	n/a
121.027	0.1345	242054	keystroke_e	e	n/a
121.117	0.151	242234	keystroke_r	r	n/a
121.2525	0.09	242505	keystroke_i	i	n/a
121.2825	0.074	242565	keystroke_n	n	n/a
121.327	0.1055	242654	keystroke_g	g	n/a
121.8215	0.06	243643	keystroke_Key.enter	Key.enter	n/a
121.888	6.849	243776	prompt	n/a	locate heather emperor seeker\n
122.497	0.0595	244994	keystroke_l	l	n/a
122.676	0.061	245352	keystroke_o	o	n/a
122.7965	0.075	245593	keystroke_c	c	n/a
122.8575	0.104	245715	keystroke_a	a	n/a
122.9765	0.075	245953	keystroke_t	t	n/a
123.202	0.0895	246404	keystroke_e	e	n/a
123.3065	0.06	246613	keystroke_Key.space	Key.space	n/a
123.4865	0.045	246973	keystroke_h	h	n/a
123.5915	0.105	247183	keystroke_e	e	n/a
124.1615	0.15	248323	keystroke_a	a	n/a
124.3565	0.045	248713	keystroke_t	t	n/a
124.4465	0.045	248893	keystroke_h	h	n/a
124.5815	0.0895	249163	keystroke_e	e	n/a
124.6415	0.0745	249283	keystroke_r	r	n/a
124.7315	0.0445	249463	keystroke_Key.space	Key.space	n/a
125.2865	0.18	250573	keystroke_e	e	n/a
125.4815	0.03	250963	keystroke_m	m	n/a
125.4965	0.045	250993	keystroke_p	p	n/a
125.5865	0.1055	251173	keystroke_o	o	n/a
125.7665	0.0745	251533	keystroke_r	r	n/a
126.0215	0.075	252043	keystroke_e	e	n/a
126.1115	0.045	252223	keystroke_r	r	n/a
126.5455	0.045	253091	keystroke_Key.backspace	Key.backspace	n/a
126.65	0.06	253300	keystroke_Key.backspace	Key.backspace	n/a
126.876	0.015	253752	keystroke_o	o	n/a
126.9505	0.0595	253901	keystroke_r	r	n/a
127.0555	0.0745	254111	keystroke_Key.space	Key.space	n/a
127.1905	0.0745	254381	keystroke_s	s	n/a
127.37	0.076	254740	keystroke_e	e	n/a
127.5055	0.0745	255011	keystroke_e	e	n/a
127.611	0.059	255222	keystroke_k	k	n/a
127.8055	0.0445	255611	keystroke_r	r	n/a
128.3905	0.075	256781	keystroke_Key.backspace	Key.backspace	n/a
128.4805	0.06	256961	keystroke_e	e	n/a
128.51	0.0755	257020	keystroke_r	r	n/a
128.675	0.06	257350	keystroke_Key.enter	Key.enter	n/a
128.7435	6.636	257487	prompt	n/a	provider watts violent measurements\n
129.305	0.06	258610	keystroke_p	p	n/a
129.4695	0.075	258939	keystroke_r	r	n/a
129.4995	0.075	258999	keystroke_o	o	n/a
129.6355	0.135	259271	keystroke_v	v	n/a
129.6805	0.06	259361	keystroke_i	i	n/a
129.8145	0.09	259629	keystroke_d	d	n/a
129.9055	0.1345	259811	keystroke_e	e	n/a
130.0095	0.0605	260019	keystroke_r	r	n/a
130.159	0.075	260318	keystroke_Key.space	Key.space	n/a
130.445	0.105	260890	keystroke_w	w	n/a
130.91	0.1045	261820	keystroke_a	a	n/a
131.075	0.2095	262150	keystroke_t	t	n/a
131.689	0.12	263378	keystroke_t	t	n/a
131.7935	0.076	263587	keystroke_s	s	n/a
131.959	0.045	263918	keystroke_Key.space	Key.space	n/a
132.844	0.1195	265688	keystroke_v	v	n/a
132.9785	0.075	265957	keystroke_i	i	n/a
133.0235	0.075	266047	keystroke_o	o	n/a
133.2035	0.076	266407	keystroke_l	l	n/a
133.3245	0.09	266649	keystroke_e	e	n/a
133.4885	0.046	266977	keystroke_n	n	n/a
133.5785	0.06	267157	keystroke_t	t	n/a
133.6835	0.0455	267367	keystroke_Key.space	Key.space	n/a
133.863	0.06	267726	keystroke_m	m	n/a
133.9685	0.1645	267937	keystroke_e	e	n/a
134.058	0.225	268116	keystroke_a	a	n/a
134.238	0.12	268476	keystroke_s	s	n/a
134.374	0.045	268748	keystroke_u	u	n/a
134.508	0.0745	269016	keystroke_r	r	n/a
134.5385	0.09	269077	keystroke_e	e	n/a
134.6885	0.075	269377	keystroke_m	m	n/a
134.7935	0.104	269587	keystroke_e	e	n/a
134.9135	0.044	269827	keystroke_n	n	n/a
134.9875	0.106	269975	keystroke_t	t	n/a
135.1075	0.106	270215	keystroke_s	s	n/a
135.2875	0.09	270575	keystroke_Key.enter	Key.enter	n/a
135.384	5.799	270768	prompt	n/a	nikon officer jeremy visibility\n
136.0075	0.105	272015	keystroke_n	n	n/a
136.0975	0.0905	272195	keystroke_i	i	n/a
136.308	0.09	272616	keystroke_k	k	n/a
136.367	0.121	272734	keystroke_o	o	n/a
136.517	0.091	273034	keystroke_n	n	n/a
136.7125	0.06	273425	keystroke_Key.space	Key.space	n/a
136.8635	0.074	273727	keystroke_o	o	n/a
137.133	0.0145	274266	keystroke_f	f	n/a
137.2825	0.03	274565	keystroke_i	i	n/a
137.747	0.0455	275494	keystroke_Key.backspace	Key.backspace	n/a
137.852	0.046	275704	keystroke_f	f	n/a
137.928	0.06	275856	keystroke_i	i	n/a
138.003	0.105	276006	keystroke_c	c	n/a
138.093	0.074	276186	keystroke_e	e	n/a
138.138	0.06	276276	keystroke_r	r	n/a
138.2565	0.046	276513	keystroke_Key.space	Key.space	n/a
138.4675	0.06	276935	keystroke_j	j	n/a
138.6025	0.0905	277205	keystroke_e	e	n/a
138.6475	0.1345	277295	keystroke_r	r	n/a
138.812	0.075	277624	keystroke_e	e	n/a
139.277	0.045	278554	keystroke_m	m	n/a
139.5025	0.044	279005	keystroke_y	y	n/a
139.5765	0.045	279153	keystroke_Key.space	Key.space	n/a
139.8315	0.075	279663	keystroke_v	v	n/a
139.9675	0.06	279935	keystroke_i	i	n/a
140.0575	0.1345	280115	keystroke_s	s	n/a
140.207	0.045	280414	keystroke_i	i	n/a
140.311	0.105	280622	keystroke_b	b	n/a
140.3715	0.1045	280743	keystroke_i	i	n/a
140.446	0.135	280892	keystroke_l	l	n/a
140.5515	0.0905	281103	keystroke_i	i	n/a
140.6865	0.0595	281373	keystroke_t	t	n/a
141.1065	0.074	282213	keystroke_Key.enter	Key.enter	n/a
141.1875	9.3975	282375	prompt	n/a	photographer consoles bald qualifications\n
141.7955	0.061	283591	keystroke_p	p	n/a
141.9765	0.075	283953	keystroke_h	h	n/a
142.0665	0.09	284133	keystroke_o	o	n/a
142.2755	0.06	284551	keystroke_o	o	n/a
142.696	0.045	285392	keystroke_Key.backspace	Key.backspace	n/a
142.801	0.0455	285602	keystroke_t	t	n/a
142.8765	0.0595	285753	keystroke_o	o	n/a
143.026	0.0605	286052	keystroke_g	g	n/a
143.1755	0.105	286351	keystroke_r	r	n/a
143.2955	0.0305	286591	keystroke_a	a	n/a
143.385	0.075	286770	keystroke_p	p	n/a
143.461	0.045	286922	keystroke_h	h	n/a
143.611	0.06	287222	keystroke_e	e	n/a
143.656	0.059	287312	keystroke_r	r	n/a
143.835	0.0455	287670	keystroke_Key.space	Key.space	n/a
144.3455	0.06	288691	keystroke_c	c	n/a
144.375	0.1055	288750	keystroke_o	o	n/a
144.4505	0.06	288901	keystroke_n	n	n/a
144.6155	0.0895	289231	keystroke_s	s	n/a
144.781	0.045	289562	keystroke_o	o	n/a
144.931	0.059	289862	keystroke_l	l	n/a
145.0205	0.105	290041	keystroke_e	e	n/a
145.2155	0.09	290431	keystroke_s	s	n/a
145.3205	0.045	290641	keystroke_Key.space	Key.space	n/a
145.5455	0.06	291091	keystroke_b	b	n/a
145.8305	0.0745	291661	keystroke_l	l	n/a
146.175	0.015	292350	keystroke_Key.backspace	Key.backspace	n/a
146.2355	0.0595	292471	keystroke_a	a	n/a
146.355	0.0755	292710	keystroke_l	l	n/a
146.61	0.06	293220	keystroke_d	d	n/a
146.7595	0.015	293519	keystroke_Key.space	Key.space	n/a
146.985	0.12	293970	keystroke_q	q	n/a
147.12	0.0455	294240	keystroke_u	u	n/a
147.2255	0.1495	294451	keystroke_a	a	n/a
147.3605	0.104	294721	keystroke_l	l	n/a
147.45	0.074	294900	keystroke_i	i	n/a
147.795	0.075	295590	keystroke_f	f	n/a
147.9	0.06	295800	keystroke_i	i	n/a
148.08	0.0145	296160	keystroke_i	i	n/a
148.1545	0.105	296309	keystroke_a	a	n/a
148.2445	0.045	296489	keystroke_t	t	n/a
148.4835	0.03	296967	keystroke_Key.backspace	Key.backspace	n/a
148.5745	0.0745	297149	keystroke_Key.backspace	Key.backspace	n/a
148.709	0.09	297418	keystroke_Key.backspace	Key.backspace	n/a
148.815	0.06	297630	keystroke_c	c	n/a
148.89	0.1195	297780	keystroke_a	a	n/a
148.994	0.06	297988	keystroke_t	t	n/a
149.264	0.045	298528	keystroke_Key.backspace	Key.backspace	n/a
149.369	0.075	298738	keystroke_Key.backspace	Key.backspace	n/a
149.519	0.0895	299038	keystroke_Key.backspace	Key.backspace	n/a
149.7295	0.0445	299459	keystroke_i	i	n/a
149.8185	0.076	299637	keystroke_c	c	n/a
149.8795	0.1505	299759	keystroke_a	a	n/a
149.984	0.0895	299968	keystroke_t	t	n/a
150.089	0.075	300178	keystroke_i	i	n/a
150.1035	0.0755	300207	keystroke_o	o	n/a
150.1335	0.06	300267	keystroke_n	n	n/a
150.2545	0.089	300509	keystroke_s	s	n/a
150.5385	0.0445	301077	keystroke_Key.enter	Key.enter	n/a
150.5895	4.825	301179	prompt	n/a	legend ways newark listings\n
151.199	0.0595	302398	keystroke_l	l	n/a
151.288	0.09	302576	keystroke_e	e	n/a
151.423	0.075	302846	keystroke_g	g	n/a
151.513	0.091	303026	keystroke_e	e	n/a
151.7085	0.06	303417	keystroke_n	n	n/a
151.8285	0.09	303657	keystroke_d	d	n/a
152.0385	0.075	304077	keystroke_Key.space	Key.space	n/a
152.2185	0.105	304437	keystroke_w	w	n/a
152.2935	0.09	304587	keystroke_a	a	n/a
152.4285	0.045	304857	keystroke_y	y	n/a
152.5325	0.121	305065	keystroke_s	s	n/a
152.6385	0.045	305277	keystroke_Key.space	Key.space	n/a
152.8035	0.075	305607	keystroke_n	n	n/a
152.9085	0.135	305817	keystroke_e	e	n/a
153.1035	0.165	306207	keystroke_w	w	n/a
153.1925	0.151	306385	keystroke_a	a	n/a
153.2985	0.075	306597	keystroke_r	r	n/a
153.509	0.059	307018	keystroke_d	d	n/a
153.613	0.059	307226	keystroke_Key.space	Key.space	n/a
154.018	0.044	308036	keystroke_Key.backspace	Key.backspace	n/a
154.108	0.0895	308216	keystroke_Key.backspace	Key.backspace	n/a
154.2885	0.074	308577	keystroke_k	k	n/a
154.3775	0.075	308755	keystroke_Key.space	Key.space	n/a
154.5875	0.1055	309175	keystroke_l	l	n/a
154.6475	0.075	309295	keystroke_i	i	n/a
154.7525	0.1505	309505	keystroke_s	s	n/a
154.843	0.061	309686	keystroke_t	t	n/a
154.948	0.09	309896	keystroke_i	i	n/a
154.993	0.075	309986	keystroke_n	n	n/a
155.083	0.105	310166	keystroke_g	g	n/a
155.158	0.09	310316	keystroke_s	s	n/a
155.337	0.075	310674	keystroke_Key.enter	Key.enter	n/a
155.424	8.043	310848	prompt	n/a	considers theater caused signed\n
156.133	0.0445	312266	keystroke_c	c	n/a
156.1925	0.075	312385	keystroke_o	o	n/a
156.2525	0.061	312505	keystroke_n	n	n/a
156.3275	0.105	312655	keystroke_s	s	n/a
156.4475	0.045	312895	keystroke_i	i	n/a
156.5525	0.105	313105	keystroke_d	d	n/a
156.6275	0.105	313255	keystroke_e	e	n/a
156.7175	0.135	313435	keystroke_r	r	n/a
156.8375	0.12	313675	keystroke_e	e	n/a
156.9275	0.105	313855	keystroke_d	d	n/a
157.302	0.045	314604	keystroke_Key.backspace	Key.backspace	n/a
157.3915	0.09	314783	keystroke_s	s	n/a
157.527	0.0445	315054	keystroke_Key.space	Key.space	n/a
157.9165	0.045	315833	keystroke_Key.backspace	Key.backspace	n/a
158.0365	0.0605	316073	keystroke_Key.backspace	Key.backspace	n/a
158.1715	0.06	316343	keystroke_Key.backspace	Key.backspace	n/a
158.2775	0.075	316555	keystroke_s	s	n/a
158.4265	0.09	316853	keystroke_Key.space	Key.space	n/a
158.922	0.06	317844	keystroke_t	t	n/a
159.0865	0.225	318173	keystroke_e	e	n/a
159.2215	0.18	318443	keystroke_a	a	n/a
159.3565	0.1055	318713	keystroke_t	t	n/a
159.641	0.0755	319282	keystroke_Key.backspace	Key.backspace	n/a
159.761	0.06	319522	keystroke_Key.backspace	Key.backspace	n/a
159.8815	0.09	319763	keystroke_Key.backspace	Key.backspace	n/a
160.107	0.03	320214	keystroke_h	h	n/a
160.152	0.165	320304	keystroke_e	e	n/a
160.241	0.166	320482	keystroke_a	a	n/a
160.376	0.09	320752	keystroke_t	t	n/a
160.7065	0.1205	321413	keystroke_r	r	n/a
160.8115	0.0745	321623	keystroke_e	e	n/a
161.2605	0.06	322521	keystroke_Key.backspace	Key.backspace	n/a
161.366	0.0895	322732	keystroke_Key.backspace	Key.backspace	n/a
161.4415	0.09	322883	keystroke_e	e	n/a
161.5015	0.059	323003	keystroke_r	r	n/a
161.577	0.059	323154	keystroke_Key.space	Key.space	n/a
161.7115	0.09	323423	keystroke_c	c	n/a
161.8465	0.1195	323693	keystroke_a	a	n/a
162.026	0.045	324052	keystroke_u	u	n/a
162.146	0.0295	324292	keystroke_s	s	n/a
162.236	0.1355	324472	keystroke_e	e	n/a
162.3405	0.09	324681	keystroke_d	d	n/a
162.4455	0.03	324891	keystroke_Key.space	Key.space	n/a
162.7155	0.06	325431	keystroke_s	s	n/a
162.8355	0.045	325671	keystroke_i	i	n/a
162.9705	0.045	325941	keystroke_g	g	n/a
163.0605	0.0295	326121	keystroke_n	n	n/a
163.151	0.105	326302	keystroke_e	e	n/a
163.24	0.06	326480	keystroke_d	d	n/a
163.4045	0.06	326809	keystroke_Key.enter	Key.enter	n/a
163.4705	6.88	326941	prompt	n/a	compare twin indigenous accessible\n
164.0355	0.075	328071	keystroke_c	c	n/a
164.1405	0.0895	328281	keystroke_o	o	n/a
164.1705	0.105	328341	keystroke_m	m	n/a
164.2915	0.074	328583	keystroke_p	p	n/a
164.4255	0.135	328851	keystroke_a	a	n/a
164.5155	0.09	329031	keystroke_r	r	n/a
164.5755	0.075	329151	keystroke_e	e	n/a
164.7705	0.0745	329541	keystroke_Key.space	Key.space	n/a
165.1155	0.105	330231	keystroke_t	t	n/a
165.2355	0.0745	330471	keystroke_w	w	n/a
165.4	0.075	330800	keystroke_i	i	n/a
165.52	0.06	331040	keystroke_n	n	n/a
165.6995	0.0455	331399	keystroke_Key.space	Key.space	n/a
165.91	0.105	331820	keystroke_i	i	n/a
166.645	0.06	333290	keystroke_n	n	n/a
166.8095	0.045	333619	keystroke_d	d	n/a
167.2455	0.044	334491	keystroke_i	i	n/a
167.455	0.075	334910	keystroke_g	g	n/a
167.755	0.045	335510	keystroke_e	e	n/a
168.054	0.061	336108	keystroke_n	n	n/a
168.1595	0.044	336319	keystroke_o	o	n/a
168.2195	0.06	336439	keystroke_u	u	n/a
168.3245	0.0755	336649	keystroke_s	s	n/a
168.5645	0.0755	337129	keystroke_Key.space	Key.space	n/a
168.7895	0.1045	337579	keystroke_a	a	n/a
168.8955	0.0885	337791	keystroke_c	c	n/a
169.029	0.135	338058	keystroke_c	c	n/a
169.134	0.0905	338268	keystroke_e	e	n/a
169.3295	0.0595	338659	keystroke_s	s	n/a
169.704	0.075	339408	keystroke_s	s	n/a
169.855	0.044	339710	keystroke_i	i	n/a
169.9735	0.06	339947	keystroke_b	b	n/a
170.0485	0.06	340097	keystroke_l	l	n/a
170.1385	0.0745	340277	keystroke_e	e	n/a
170.3035	0.045	340607	keystroke_Key.enter	Key.enter	n/a
170.355	10.463	340710	prompt	n/a	supporting particularly conference hugo\n
171.0085	0.0755	342017	keystroke_s	s	n/a
171.1735	0.03	342347	keystroke_s	s	n/a
171.2495	0.074	342499	keystroke_u	u	n/a
171.3685	0.09	342737	keystroke_p	p	n/a
171.668	0.031	343336	keystroke_Key.backspace	Key.backspace	n/a
171.773	0.075	343546	keystroke_Key.backspace	Key.backspace	n/a
171.923	0.09	343846	keystroke_Key.backspace	Key.backspace	n/a
172.178	0.0745	344356	keystroke_u	u	n/a
172.3135	0.0895	344627	keystroke_p	p	n/a
172.508	0.031	345016	keystroke_o	o	n/a
172.898	0.03	345796	keystroke_Key.backspace	Key.backspace	n/a
173.0625	0.136	346125	keystroke_p	p	n/a
173.123	0.09	346246	keystroke_o	o	n/a
173.3485	0.0445	346697	keystroke_r	r	n/a
173.513	0.0305	347026	keystroke_t	t	n/a
173.558	0.09	347116	keystroke_i	i	n/a
173.602	0.061	347204	keystroke_n	n	n/a
173.7985	0.075	347597	keystroke_g	g	n/a
173.9775	0.0295	347955	keystroke_Key.space	Key.space	n/a
174.608	0.06	349216	keystroke_p	p	n/a
174.728	0.1045	349456	keystroke_a	a	n/a
174.788	0.0595	349576	keystroke_r	r	n/a
174.953	0.045	349906	keystroke_t	t	n/a
175.013	0.0595	350026	keystroke_i	i	n/a
175.223	0.075	350446	keystroke_c	c	n/a
175.4175	0.06	350835	keystroke_u	u	n/a
175.6425	0.075	351285	keystroke_l	l	n/a
175.837	0.045	351674	keystroke_a	a	n/a
175.8525	0.0295	351705	keystroke_r	r	n/a
175.9115	0.121	351823	keystroke_l	l	n/a
176.0475	0.045	352095	keystroke_y	y	n/a
176.632	0.0605	353264	keystroke_Key.space	Key.space	n/a
176.767	0.09	353534	keystroke_c	c	n/a
176.857	0.09	353714	keystroke_o	o	n/a
176.917	0.06	353834	keystroke_n	n	n/a
177.0215	0.1805	354043	keystroke_f	f	n/a
177.0675	0.045	354135	keystroke_e	e	n/a
177.203	0.074	354406	keystroke_e	e	n/a
177.203	0.089	354406	keystroke_r	r	n/a
177.367	0.0895	354734	keystroke_e	e	n/a
177.5165	0.06	355033	keystroke_n	n	n/a
177.607	0.09	355214	keystroke_c	c	n/a
177.681	0.0755	355362	keystroke_e	e	n/a
178.087	0.044	356174	keystroke_Key.backspace	Key.backspace	n/a
178.207	0.044	356414	keystroke_Key.backspace	Key.backspace	n/a
178.341	0.03	356682	keystroke_Key.backspace	Key.backspace	n/a
178.446	0.0605	356892	keystroke_Key.backspace	Key.backspace	n/a
178.5665	0.075	357133	keystroke_Key.backspace	Key.backspace	n/a
178.687	0.0895	357374	keystroke_Key.backspace	Key.backspace	n/a
178.837	0.09	357674	keystroke_r	r	n/a
178.8975	0.0745	357795	keystroke_e	e	n/a
179.166	0.0455	358332	keystroke_n	n	n/a
179.466	0.076	358932	keystroke_c	c	n/a
179.512	0.075	359024	keystroke_e	e	n/a
179.9465	0.075	359893	keystroke_Key.space	Key.space	n/a
180.1265	0.06	360253	keystroke_h	h	n/a
180.2315	0.09	360463	keystroke_u	u	n/a
180.3675	0.059	360735	keystroke_g	g	n/a
180.4715	0.06	360943	keystroke_o	o	n/a
180.7555	0.06	361511	keystroke_Key.enter	Key.enter	n/a
180.824	6.3075	361648	prompt	n/a	involves wisdom space trusts\n
181.416	0.105	362832	keystroke_i	i	n/a
181.506	0.06	363012	keystroke_n	n	n/a
181.596	0.06	363192	keystroke_v	v	n/a
181.701	0.09	363402	keystroke_o	o	n/a
181.866	0.1045	363732	keystroke_l	l	n/a
182.0005	0.0905	364001	keystroke_v	v	n/a
182.0605	0.0755	364121	keystroke_e	e	n/a
182.2115	0.0895	364423	keystroke_s	s	n/a
182.3755	0.06	364751	keystroke_Key.space	Key.space	n/a
182.646	0.075	365292	keystroke_w	w	n/a
182.916	0.045	365832	keystroke_i	i	n/a
183.0505	0.1205	366101	keystroke_s	s	n/a
183.351	0.0445	366702	keystroke_o	o	n/a
183.4405	0.045	366881	keystroke_d	d	n/a
183.636	0.045	367272	keystroke_Key.backspace	Key.backspace	n/a
183.726	0.0745	367452	keystroke_Key.backspace	Key.backspace	n/a
183.8155	0.06	367631	keystroke_d	d	n/a
183.921	0.0755	367842	keystroke_o	o	n/a
183.965	0.0605	367930	keystroke_m	m	n/a
184.0705	0.0595	368141	keystroke_w	w	n/a
184.16	0.06	368320	keystroke_Key.space	Key.space	n/a
184.266	0.0745	368532	keystroke_s	s	n/a
184.401	0.0745	368802	keystroke_p	p	n/a
184.476	0.149	368952	keystroke_a	a	n/a
184.595	0.1205	369190	keystroke_c	c	n/a
184.8355	0.06	369671	keystroke_Key.backspace	Key.backspace	n/a
184.9555	0.075	369911	keystroke_Key.backspace	Key.backspace	n/a
185.1055	0.06	370211	keystroke_Key.backspace	Key.backspace	n/a
185.2255	0.06	370451	keystroke_Key.backspace	Key.backspace	n/a
185.3605	0.0745	370721	keystroke_Key.backspace	Key.backspace	n/a
185.4955	0.09	370991	keystroke_Key.backspace	Key.backspace	n/a
185.5705	0.06	371141	keystroke_Key.space	Key.space	n/a
185.6605	0.1055	371321	keystroke_s	s	n/a
185.8095	0.0465	371619	keystroke_p	p	n/a
185.8855	0.135	371771	keystroke_a	a	n/a
185.99	0.1045	371980	keystroke_c	c	n/a
186.08	0.0595	372160	keystroke_e	e	n/a
186.1845	0.06	372369	keystroke_Key.space	Key.space	n/a
186.3345	0.061	372669	keystroke_t	t	n/a
186.4695	0.0755	372939	keystroke_r	r	n/a
186.59	0.045	373180	keystroke_u	u	n/a
186.651	0.1195	373302	keystroke_s	s	n/a
186.7255	0.075	373451	keystroke_t	t	n/a
186.845	0.12	373690	keystroke_s	s	n/a
187.07	0.059	374140	keystroke_Key.enter	Key.enter	n/a
187.1375	5.438	374275	prompt	n/a	bias any experimental wallpapers\n
187.805	0.06	375610	keystroke_b	b	n/a
187.895	0.06	375790	keystroke_i	i	n/a
187.985	0.12	375970	keystroke_a	a	n/a
188.0755	0.1045	376151	keystroke_s	s	n/a
188.285	0.059	376570	keystroke_Key.space	Key.space	n/a
188.525	0.06	377050	keystroke_a	a	n/a
188.63	0.06	377260	keystroke_n	n	n/a
188.765	0.075	377530	keystroke_y	y	n/a
188.84	0.074	377680	keystroke_Key.space	Key.space	n/a
189.0495	0.12	378099	keystroke_a	a	n/a
189.1245	0.06	378249	keystroke_s	s	n/a
189.3645	0.0445	378729	keystroke_Key.backspace	Key.backspace	n/a
189.484	0.0605	378968	keystroke_Key.backspace	Key.backspace	n/a
189.589	0.075	379178	keystroke_e	e	n/a
189.754	0.105	379508	keystroke_x	x	n/a
189.859	0.06	379718	keystroke_p	p	n/a
190.0395	0.0745	380079	keystroke_e	e	n/a
190.084	0.09	380168	keystroke_r	r	n/a
190.159	0.09	380318	keystroke_i	i	n/a
190.235	0.059	380470	keystroke_m	m	n/a
190.339	0.09	380678	keystroke_e	e	n/a
190.534	0.03	381068	keystroke_n	n	n/a
190.6085	0.06	381217	keystroke_t	t	n/a
190.759	0.061	381518	keystroke_a	a	n/a
190.864	0.075	381728	keystroke_l	l	n/a
190.9245	0.0895	381849	keystroke_Key.space	Key.space	n/a
191.1195	0.045	382239	keystroke_w	w	n/a
191.2545	0.105	382509	keystroke_a	a	n/a
191.4635	0.045	382927	keystroke_l	l	n/a
191.6135	0.075	383227	keystroke_l	l	n/a
191.8235	0.06	383647	keystroke_p	p	n/a
191.9895	0.074	383979	keystroke_a	a	n/a
192.0495	0.0745	384099	keystroke_p	p	n/a
192.199	0.105	384398	keystroke_e	e	n/a
192.244	0.21	384488	keystroke_r	r	n/a
192.409	0.105	384818	keystroke_s	s	n/a
192.529	0.044	385058	keystroke_Key.enter	Key.enter	n/a
192.5825	4.117	385165	prompt	n/a	he've listing why's extras\n
193.2785	0.045	386557	keystroke_h	h	n/a
193.3535	0.09	386707	keystroke_e	e	n/a
193.549	0.0445	387098	keystroke_'	'	n/a
193.6395	0.0745	387279	keystroke_v	v	n/a
193.7285	0.0605	387457	keystroke_e	e	n/a
193.8185	0.06	387637	keystroke_Key.space	Key.space	n/a
194.1185	0.105	388237	keystroke_l	l	n/a
194.2085	0.075	388417	keystroke_i	i	n/a
194.284	0.1195	388568	keystroke_s	s	n/a
194.3735	0.0745	388747	keystroke_t	t	n/a
194.5535	0.0745	389107	keystroke_i	i	n/a
194.583	0.0605	389166	keystroke_n	n	n/a
194.718	0.0455	389436	keystroke_g	g	n/a
194.8235	0.044	389647	keystroke_Key.space	Key.space	n/a
194.9885	0.06	389977	keystroke_w	w	n/a
195.1235	0.03	390247	keystroke_h	h	n/a
195.2435	0.045	390487	keystroke_y	y	n/a
195.4985	0.0595	390997	keystroke_'	'	n/a
195.618	0.0765	391236	keystroke_s	s	n/a
195.708	0.075	391416	keystroke_Key.space	Key.space	n/a
195.8735	0.0595	391747	keystroke_e	e	n/a
196.023	0.12	392046	keystroke_x	x	n/a
196.1135	0.0745	392227	keystroke_t	t	n/a
196.249	0.1045	392498	keystroke_r	r	n/a
196.323	0.1045	392646	keystroke_a	a	n/a
196.4575	0.091	392915	keystroke_s	s	n/a
196.6375	0.0605	393275	keystroke_Key.enter	Key.enter	n/a
196.708	6.7105	393416	prompt	n/a	infectious possibilities fibre thumb\n
197.343	0.0445	394686	keystroke_i	i	n/a
197.373	0.0745	394746	keystroke_n	n	n/a
197.478	0.06	394956	keystroke_f	f	n/a
197.568	0.1055	395136	keystroke_e	e	n/a
197.7025	0.09	395405	keystroke_c	c	n/a
197.943	0.0295	395886	keystroke_t	t	n/a
198.033	0.15	396066	keystroke_i	i	n/a
198.0775	0.135	396155	keystroke_o	o	n/a
198.1375	0.09	396275	keystroke_u	u	n/a
198.3175	0.075	396635	keystroke_s	s	n/a
198.4075	0.06	396815	keystroke_Key.space	Key.space	n/a
198.5125	0.09	397025	keystroke_p	p	n/a
198.6625	0.1055	397325	keystroke_o	o	n/a
198.8275	0.0595	397655	keystroke_s	s	n/a
198.9475	0.09	397895	keystroke_s	s	n/a
199.1125	0.06	398225	keystroke_i	i	n/a
199.2025	0.0905	398405	keystroke_b	b	n/a
199.3075	0.075	398615	keystroke_i	i	n/a
199.3375	0.1805	398675	keystroke_l	l	n/a
200.0285	0.044	400057	keystroke_i	i	n/a
200.1325	0.06	400265	keystroke_t	t	n/a
200.2365	0.06	400473	keystroke_i	i	n/a
200.3265	0.091	400653	keystroke_e	e	n/a
200.5815	0.015	401163	keystroke_s	s	n/a
200.6415	0.06	401283	keystroke_Key.space	Key.space	n/a
201.032	0.0455	402064	keystroke_f	f	n/a
201.1375	0.03	402275	keystroke_i	i	n/a
201.2565	0.06	402513	keystroke_b	b	n/a
201.497	0.09	402994	keystroke_r	r	n/a
201.5575	0.0745	403115	keystroke_e	e	n/a
201.767	0.0295	403534	keystroke_Key.space	Key.space	n/a
201.9915	0.045	403983	keystroke_t	t	n/a
202.097	0.0605	404194	keystroke_h	h	n/a
202.412	0.075	404824	keystroke_m	m	n/a
202.667	0.0595	405334	keystroke_Key.backspace	Key.backspace	n/a
202.8475	0.0595	405695	keystroke_u	u	n/a
203.0125	0.09	406025	keystroke_m	m	n/a
203.1325	0.059	406265	keystroke_b	b	n/a
203.341	0.076	406682	keystroke_Key.enter	Key.enter	n/a
203.423	7.044	406846	prompt	n/a	occurs xanax tight rational\n
204.0765	0.06	408153	keystroke_o	o	n/a
204.1815	0.0905	408363	keystroke_c	c	n/a
204.347	0.104	408694	keystroke_c	c	n/a
204.4525	0.0595	408905	keystroke_u	u	n/a
204.617	0.045	409234	keystroke_r	r	n/a
204.752	0.105	409504	keystroke_s	s	n/a
204.9165	0.0595	409833	keystroke_Key.space	Key.space	n/a
205.2615	0.179	410523	keystroke_x	x	n/a
205.3965	0.12	410793	keystroke_a	a	n/a
205.6065	0.045	411213	keystroke_n	n	n/a
205.8015	0.09	411603	keystroke_a	a	n/a
206.236	0.0455	412472	keystroke_s	s	n/a
206.566	0.045	413132	keystroke_Key.backspace	Key.backspace	n/a
206.686	0.0905	413372	keystroke_x	x	n/a
206.8215	0.0445	413643	keystroke_Key.space	Key.space	n/a
207.0015	0.075	414003	keystroke_t	t	n/a
207.1665	0.075	414333	keystroke_a	a	n/a
207.2865	0.0445	414573	keystroke_i	i	n/a
207.555	0.06	415110	keystroke_Key.backspace	Key.backspace	n/a
207.676	0.075	415352	keystroke_Key.backspace	Key.backspace	n/a
207.8555	0.0755	415711	keystroke_i	i	n/a
207.9465	0.1045	415893	keystroke_g	g	n/a
208.066	0.06	416132	keystroke_h	h	n/a
208.1705	0.0605	416341	keystroke_t	t	n/a
208.246	0.075	416492	keystroke_Key.space	Key.space	n/a
208.366	0.09	416732	keystroke_r	r	n/a
208.8615	0.0895	417723	keystroke_o	o	n/a
209.0115	0.0745	418023	keystroke_t	t	n/a
209.145	0.091	418290	keystroke_a	a	n/a
209.205	0.0905	418410	keystroke_t	t	n/a
209.371	0.09	418742	keystroke_i	i	n/a
209.386	0.105	418772	keystroke_o	o	n/a
209.432	0.0745	418864	keystroke_n	n	n/a
209.521	0.089	419042	keystroke_s	s	n/a
209.91	0.0305	419820	keystroke_Key.backspace	Key.backspace	n/a
209.9855	0.06	419971	keystroke_a	a	n/a
210.0755	0.06	420151	keystroke_l	l	n/a
210.3895	0.0755	420779	keystroke_Key.enter	Key.enter	n/a
210.472	8.4995	420944	prompt	n/a	agreements attacked survey methodology\n
211.23	0.15	422460	keystroke_a	a	n/a
211.35	0.075	422700	keystroke_g	g	n/a
211.5305	0.105	423061	keystroke_r	r	n/a
211.621	0.0745	423242	keystroke_e	e	n/a
211.7255	0.075	423451	keystroke_e	e	n/a
211.9055	0.045	423811	keystroke_e	e	n/a
212.2805	0.0595	424561	keystroke_Key.backspace	Key.backspace	n/a
212.475	0.045	424950	keystroke_m	m	n/a
212.5655	0.0595	425131	keystroke_e	e	n/a
212.67	0.06	425340	keystroke_n	n	n/a
212.745	0.075	425490	keystroke_t	t	n/a
212.835	0.105	425670	keystroke_s	s	n/a
212.955	0.045	425910	keystroke_Key.space	Key.space	n/a
213.105	0.12	426210	keystroke_a	a	n/a
213.42	0.075	426840	keystroke_t	t	n/a
213.54	0.12	427080	keystroke_t	t	n/a
213.675	0.1795	427350	keystroke_a	a	n/a
213.81	0.1195	427620	keystroke_c	c	n/a
213.93	0.104	427860	keystroke_k	k	n/a
214.5	0.1345	429000	keystroke_e	e	n/a
214.575	0.0895	429150	keystroke_d	d	n/a
214.6795	0.045	429359	keystroke_Key.space	Key.space	n/a
215.3095	0.106	430619	keystroke_s	s	n/a
215.6395	0.045	431279	keystroke_u	u	n/a
215.7745	0.075	431549	keystroke_r	r	n/a
215.9395	0.0745	431879	keystroke_v	v	n/a
215.984	0.105	431968	keystroke_e	e	n/a
216.209	0.045	432418	keystroke_y	y	n/a
216.329	0.075	432658	keystroke_Key.space	Key.space	n/a
216.555	0.0455	433110	keystroke_m	m	n/a
216.675	0.09	433350	keystroke_e	e	n/a
216.78	0.074	433560	keystroke_t	t	n/a
216.885	0.059	433770	keystroke_h	h	n/a
216.945	0.044	433890	keystroke_o	o	n/a
217.094	0.045	434188	keystroke_o	o	n/a
217.2895	0.06	434579	keystroke_d	d	n/a
217.829	0.0305	435658	keystroke_Key.backspace	Key.backspace	n/a
217.9645	0.0295	435929	keystroke_Key.backspace	Key.backspace	n/a
218.0685	0.076	436137	keystroke_d	d	n/a
218.1455	0.029	436291	keystroke_o	o	n/a
218.2795	0.075	436559	keystroke_l	l	n/a
218.4585	0.1045	436917	keystroke_o	o	n/a
218.594	0.0445	437188	keystroke_g	g	n/a
218.6685	0.061	437337	keystroke_y	y	n/a
218.893	0.074	437786	keystroke_Key.enter	Key.enter	n/a
218.9755	6.985	437951	prompt	n/a	essay honor courts southampton\n
219.552	0.0445	439104	keystroke_a	a	n/a
219.8805	0.0595	439761	keystroke_Key.backspace	Key.backspace	n/a
219.9565	0.0595	439913	keystroke_e	e	n/a
220.136	0.0895	440272	keystroke_s	s	n/a
220.2855	0.1335	440571	keystroke_s	s	n/a
220.375	0.12	440750	keystroke_a	a	n/a
220.5555	0.0445	441111	keystroke_y	y	n/a
220.6595	0.075	441319	keystroke_Key.space	Key.space	n/a
221.0635	0.075	442127	keystroke_h	h	n/a
221.1535	0.0455	442307	keystroke_o	o	n/a
221.2435	0.0745	442487	keystroke_n	n	n/a
221.348	0.075	442696	keystroke_o	o	n/a
221.498	0.0445	442996	keystroke_r	r	n/a
221.5875	0.0595	443175	keystroke_Key.space	Key.space	n/a
221.752	0.0755	443504	keystroke_c	c	n/a
221.8725	0.0745	443745	keystroke_o	o	n/a
221.9325	0.0435	443865	keystroke_u	u	n/a
222.725	0.0455	445450	keystroke_r	r	n/a
223.145	0.06	446290	keystroke_t	t	n/a
223.279	0.06	446558	keystroke_s	s	n/a
223.4585	0.06	446917	keystroke_Key.space	Key.space	n/a
223.834	0.1045	447668	keystroke_s	s	n/a
224.0725	0.0905	448145	keystroke_o	o	n/a
224.132	0.0455	448264	keystroke_u	u	n/a
224.282	0.045	448564	keystroke_t	t	n/a
224.4325	0.045	448865	keystroke_h	h	n/a
224.5965	0.075	449193	keystroke_a	a	n/a
224.7775	0.0585	449555	keystroke_m	m	n/a
225.0165	0.089	450033	keystroke_p	p	n/a
225.271	0.0305	450542	keystroke_t	t	n/a
225.375	0.061	450750	keystroke_o	o	n/a
225.5695	0.046	451139	keystroke_n	n	n/a
225.899	0.0595	451798	keystroke_Key.enter	Key.enter	n/a
225.969	5.9995	451938	prompt	n/a	semester been prevention valentine\n
226.6175	0.075	453235	keystroke_s	s	n/a
226.7675	0.09	453535	keystroke_e	e	n/a
226.8875	0.06	453775	keystroke_m	m	n/a
226.963	0.089	453926	keystroke_e	e	n/a
227.142	0.135	454284	keystroke_s	s	n/a
227.2325	0.09	454465	keystroke_t	t	n/a
227.352	0.134	454704	keystroke_e	e	n/a
227.442	0.119	454884	keystroke_r	r	n/a
227.591	0.0745	455182	keystroke_Key.space	Key.space	n/a
228.1005	0.1195	456201	keystroke_b	b	n/a
228.3545	0.045	456709	keystroke_b	b	n/a
228.729	0.0445	457458	keystroke_Key.backspace	Key.backspace	n/a
228.7885	0.0455	457577	keystroke_e	e	n/a
228.9245	0.074	457849	keystroke_e	e	n/a
229.0435	0.0605	458087	keystroke_n	n	n/a
229.089	0.059	458178	keystroke_Key.space	Key.space	n/a
229.1785	0.0905	458357	keystroke_p	p	n/a
229.3435	0.075	458687	keystroke_r	r	n/a
229.4335	0.06	458867	keystroke_e	e	n/a
229.583	0.105	459166	keystroke_v	v	n/a
229.703	0.0605	459406	keystroke_e	e	n/a
229.837	0.075	459674	keystroke_n	n	n/a
230.002	0.046	460004	keystroke_t	t	n/a
230.092	0.09	460184	keystroke_i	i	n/a
230.1365	0.1215	460273	keystroke_o	o	n/a
230.183	0.06	460366	keystroke_n	n	n/a
230.3625	0.045	460725	keystroke_Key.space	Key.space	n/a
230.588	0.0745	461176	keystroke_v	v	n/a
230.6475	0.1045	461295	keystroke_a	a	n/a
230.797	0.06	461594	keystroke_l	l	n/a
231.008	0.0595	462016	keystroke_e	e	n/a
231.322	0.0455	462644	keystroke_n	n	n/a
231.503	0.03	463006	keystroke_t	t	n/a
231.5775	0.0755	463155	keystroke_i	i	n/a
231.6235	0.044	463247	keystroke_n	n	n/a
231.697	0.0605	463394	keystroke_e	e	n/a
231.9075	0.0595	463815	keystroke_Key.enter	Key.enter	n/a
231.9725	4.7215	463945	prompt	n/a	feel falling assembly losses\n
232.7325	0.06	465465	keystroke_f	f	n/a
232.8375	0.1355	465675	keystroke_e	e	n/a
233.0475	0.0605	466095	keystroke_e	e	n/a
233.1525	0.091	466305	keystroke_l	l	n/a
233.3025	0.09	466605	keystroke_Key.space	Key.space	n/a
233.4825	0.045	466965	keystroke_f	f	n/a
233.5275	0.076	467055	keystroke_a	a	n/a
233.8425	0.0605	467685	keystroke_l	l	n/a
233.9775	0.0755	467955	keystroke_l	l	n/a
234.188	0.0595	468376	keystroke_i	i	n/a
234.2175	0.0455	468435	keystroke_n	n	n/a
234.397	0.03	468794	keystroke_g	g	n/a
234.4125	0.0755	468825	keystroke_Key.space	Key.space	n/a
234.563	0.119	469126	keystroke_a	a	n/a
234.697	0.076	469394	keystroke_s	s	n/a
234.8325	0.03	469665	keystroke_s	s	n/a
234.9675	0.075	469935	keystroke_e	e	n/a
235.1025	0.0445	470205	keystroke_m	m	n/a
235.223	0.06	470446	keystroke_b	b	n/a
235.313	0.0755	470626	keystroke_l	l	n/a
235.4025	0.0455	470805	keystroke_y	y	n/a
235.5075	0.075	471015	keystroke_Key.space	Key.space	n/a
235.778	0.045	471556	keystroke_l	l	n/a
235.912	0.076	471824	keystroke_o	o	n/a
236.048	0.059	472096	keystroke_s	s	n/a
236.198	0.09	472396	keystroke_s	s	n/a
236.362	0.0755	472724	keystroke_e	e	n/a
236.528	0.12	473056	keystroke_s	s	n/a
236.6325	0.06	473265	keystroke_Key.enter	Key.enter	n/a
236.702	9.6975	473404	prompt	n/a	inventory clicks trinidad sacramento\n
237.353	0.0755	474706	keystroke_i	i	n/a
237.398	0.045	474796	keystroke_n	n	n/a
237.473	0.0755	474946	keystroke_v	v	n/a
237.968	0.075	475936	keystroke_e	e	n/a
238.088	0.0745	476176	keystroke_n	n	n/a
238.253	0.0595	476506	keystroke_t	t	n/a
238.2685	0.0895	476537	keystroke_o	o	n/a
238.433	0.06	476866	keystroke_r	r	n/a
238.597	0.03	477194	keystroke_Key.space	Key.space	n/a
238.958	0.0445	477916	keystroke_Key.backspace	Key.backspace	n/a
239.1675	0.0605	478335	keystroke_y	y	n/a
239.2425	0.045	478485	keystroke_Key.space	Key.space	n/a
239.482	0.0905	478964	keystroke_c	c	n/a
239.5885	0.074	479177	keystroke_l	l	n/a
239.7075	0.09	479415	keystroke_i	i	n/a
239.873	0.0605	479746	keystroke_c	c	n/a
239.9485	0.0745	479897	keystroke_k	k	n/a
240.083	0.12	480166	keystroke_s	s	n/a
240.293	0.0745	480586	keystroke_Key.space	Key.space	n/a
240.4885	0.0595	480977	keystroke_t	t	n/a
240.9675	0.046	481935	keystroke_r	r	n/a
241.1335	0.0595	482267	keystroke_i	i	n/a
241.208	0.075	482416	keystroke_n	n	n/a
241.3285	0.0745	482657	keystroke_i	i	n/a
241.628	0.09	483256	keystroke_d	d	n/a
241.733	0.105	483466	keystroke_a	a	n/a
241.913	0.045	483826	keystroke_a	a	n/a
242.3175	0.0595	484635	keystroke_Key.backspace	Key.backspace	n/a
242.4835	0.1345	484967	keystroke_a	a	n/a
242.678	0.0445	485356	keystroke_d	d	n/a
242.889	0.059	485778	keystroke_Key.backspace	Key.backspace	n/a
243.0075	0.075	486015	keystroke_Key.backspace	Key.backspace	n/a
243.0985	0.0595	486197	keystroke_d	d	n/a
243.262	0.045	486524	keystroke_Key.space	Key.space	n/a
243.728	0.0755	487456	keystroke_s	s	n/a
244.4635	0.134	488927	keystroke_a	a	n/a
244.583	0.0455	489166	keystroke_c	c	n/a
244.7775	0.075	489555	keystroke_r	r	n/a
244.8675	0.0905	489735	keystroke_a	a	n/a
245.078	0.0595	490156	keystroke_m	m	n/a
245.2425	0.0895	490485	keystroke_e	e	n/a
245.4085	0.0595	490817	keystroke_n	n	n/a
245.5585	0.0445	491117	keystroke_t	t	n/a
245.618	0.059	491236	keystroke_o	o	n/a
245.9025	0.045	491805	keystroke_Key.space	Key.space	n/a
246.338	0.0595	492676	keystroke_Key.enter	Key.enter	n/a
246.4035	9.776	492807	prompt	n/a	exclusive france stages difficulty\n
246.9975	0.0905	493995	keystroke_e	e	n/a
247.1925	0.12	494385	keystroke_x	x	n/a
247.268	0.105	494536	keystroke_c	c	n/a
247.388	0.06	494776	keystroke_l	l	n/a
247.433	0.0605	494866	keystroke_u	u	n/a
247.5085	0.074	495017	keystroke_s	s	n/a
247.672	0.06	495344	keystroke_i	i	n/a
247.747	0.061	495494	keystroke_g	g	n/a
247.897	0.0455	495794	keystroke_e	e	n/a
248.1675	0.045	496335	keystroke_Key.backspace	Key.backspace	n/a
248.2875	0.06	496575	keystroke_Key.backspace	Key.backspace	n/a
248.3325	0.091	496665	keystroke_v	v	n/a
248.393	0.0605	496786	keystroke_e	e	n/a
248.4825	0.06	496965	keystroke_Key.space	Key.space	n/a
249.038	0.015	498076	keystroke_f	f	n/a
249.233	0.075	498466	keystroke_r	r	n/a
249.353	0.075	498706	keystroke_a	a	n/a
249.487	0.06	498974	keystroke_n	n	n/a
249.608	0.09	499216	keystroke_c	c	n/a
249.683	0.0745	499366	keystroke_e	e	n/a
249.7725	0.0755	499545	keystroke_Key.space	Key.space	n/a
249.968	0.105	499936	keystroke_s	s	n/a
250.043	0.075	500086	keystroke_t	t	n/a
250.163	0.075	500326	keystroke_r	r	n/a
250.223	0.09	500446	keystroke_a	a	n/a
250.388	0.12	500776	keystroke_g	g	n/a
250.478	0.075	500956	keystroke_e	e	n/a
250.6875	0.074	501375	keystroke_s	s	n/a
250.8825	0.0445	501765	keystroke_Key.space	Key.space	n/a
251.2875	0.0445	502575	keystroke_Key.backspace	Key.backspace	n/a
251.3925	0.0755	502785	keystroke_Key.backspace	Key.backspace	n/a
251.5275	0.0595	503055	keystroke_Key.backspace	Key.backspace	n/a
251.6775	0.045	503355	keystroke_Key.backspace	Key.backspace	n/a
251.813	0.045	503626	keystroke_Key.backspace	Key.backspace	n/a
251.918	0.075	503836	keystroke_Key.backspace	Key.backspace	n/a
252.0975	0.1355	504195	keystroke_a	a	n/a
252.2025	0.15	504405	keystroke_g	g	n/a
252.323	0.1195	504646	keystroke_e	e	n/a
252.668	0.06	505336	keystroke_Key.space	Key.space	n/a
252.923	0.0445	505846	keystroke_Key.backspace	Key.backspace	n/a
253.013	0.1045	506026	keystroke_s	s	n/a
253.133	0.0595	506266	keystroke_Key.space	Key.space	n/a
253.2975	0.0455	506595	keystroke_d	d	n/a
253.373	0.0605	506746	keystroke_i	i	n/a
253.823	0.075	507646	keystroke_f	f	n/a
254.243	0.0455	508486	keystroke_f	f	n/a
254.4825	0.06	508965	keystroke_c	c	n/a
254.6035	0.0595	509207	keystroke_i	i	n/a
254.8425	0.045	509685	keystroke_Key.backspace	Key.backspace	n/a
254.9475	0.09	509895	keystroke_Key.backspace	Key.backspace	n/a
255.1275	0.06	510255	keystroke_i	i	n/a
255.2475	0.045	510495	keystroke_c	c	n/a
255.3525	0.0605	510705	keystroke_u	u	n/a
255.4575	0.046	510915	keystroke_l	l	n/a
255.593	0.0445	511186	keystroke_t	t	n/a
255.8475	0.0445	511695	keystroke_y	y	n/a
256.1325	0.0445	512265	keystroke_Key.enter	Key.enter	n/a
256.1835	7.3905	512367	prompt	n/a	transcript advertise summary tolerance\n
256.8235	0.059	513647	keystroke_t	t	n/a
256.943	0.105	513886	keystroke_r	r	n/a
257.032	0.076	514064	keystroke_a	a	n/a
257.0935	0.075	514187	keystroke_n	n	n/a
257.2285	0.1195	514457	keystroke_s	s	n/a
257.333	0.06	514666	keystroke_c	c	n/a
257.5125	0.06	515025	keystroke_r	r	n/a
257.6785	0.089	515357	keystroke_i	i	n/a
257.7525	0.0755	515505	keystroke_p	p	n/a
257.9035	0.044	515807	keystroke_t	t	n/a
258.0675	0.06	516135	keystroke_Key.space	Key.space	n/a
258.6385	0.0445	517277	keystroke_a	a	n/a
258.6975	0.076	517395	keystroke_d	d	n/a
258.8325	0.1055	517665	keystroke_v	v	n/a
258.953	0.15	517906	keystroke_e	e	n/a
259.0425	0.151	518085	keystroke_r	r	n/a
259.1785	0.074	518357	keystroke_t	t	n/a
259.3875	0.06	518775	keystroke_i	i	n/a
259.523	0.059	519046	keystroke_s	s	n/a
259.853	0.045	519706	keystroke_Key.space	Key.space	n/a
260.138	0.0595	520276	keystroke_s	s	n/a
260.273	0.045	520546	keystroke_u	u	n/a
260.528	0.06	521056	keystroke_Key.backspace	Key.backspace	n/a
260.6775	0.045	521355	keystroke_Key.backspace	Key.backspace	n/a
260.7675	0.09	521535	keystroke_Key.backspace	Key.backspace	n/a
260.9175	0.06	521835	keystroke_e	e	n/a
261.0375	0.06	522075	keystroke_Key.space	Key.space	n/a
261.1275	0.09	522255	keystroke_s	s	n/a
261.2775	0.045	522555	keystroke_u	u	n/a
261.4425	0.06	522885	keystroke_m	m	n/a
261.592	0.0455	523184	keystroke_m	m	n/a
261.652	0.091	523304	keystroke_a	a	n/a
261.697	0.061	523394	keystroke_r	r	n/a
261.833	0.0455	523666	keystroke_y	y	n/a
262.192	0.06	524384	keystroke_Key.space	Key.space	n/a
262.3425	0.0455	524685	keystroke_t	t	n/a
262.448	0.075	524896	keystroke_o	o	n/a
262.598	0.089	525196	keystroke_l	l	n/a
262.7625	0.2405	525525	keystroke_e	e	n/a
262.823	0.165	525646	keystroke_r	r	n/a
262.958	0.0905	525916	keystroke_a	a	n/a
263.108	0.045	526216	keystroke_n	n	n/a
263.228	0.0755	526456	keystroke_c	c	n/a
263.288	0.0605	526576	keystroke_e	e	n/a
263.483	0.0895	526966	keystroke_Key.enter	Key.enter	n/a
263.5785	5.0515	527157	prompt	n/a	tent verify device portable\n
264.158	0.1055	528316	keystroke_t	t	n/a
264.308	0.0755	528616	keystroke_e	e	n/a
264.443	0.06	528886	keystroke_n	n	n/a
264.578	0.0455	529156	keystroke_t	t	n/a
264.668	0.0745	529336	keystroke_Key.space	Key.space	n/a
264.908	0.12	529816	keystroke_v	v	n/a
264.9825	0.121	529965	keystroke_e	e	n/a
265.043	0.1055	530086	keystroke_r	r	n/a
265.2235	0.0745	530447	keystroke_i	i	n/a
265.3585	0.0745	530717	keystroke_f	f	n/a
265.493	0.045	530986	keystroke_y	y	n/a
265.583	0.0595	531166	keystroke_Key.space	Key.space	n/a
266.033	0.15	532066	keystroke_d	d	n/a
266.138	0.1055	532276	keystroke_e	e	n/a
266.258	0.075	532516	keystroke_v	v	n/a
266.408	0.0595	532816	keystroke_i	i	n/a
266.543	0.09	533086	keystroke_c	c	n/a
266.618	0.06	533236	keystroke_e	e	n/a
266.813	0.03	533626	keystroke_Key.space	Key.space	n/a
267.053	0.0745	534106	keystroke_p	p	n/a
267.2025	0.1045	534405	keystroke_o	o	n/a
267.368	0.09	534736	keystroke_r	r	n/a
267.578	0.06	535156	keystroke_t	t	n/a
268.013	0.1805	536026	keystroke_a	a	n/a
268.133	0.09	536266	keystroke_b	b	n/a
268.2685	0.075	536537	keystroke_l	l	n/a
268.4035	0.0445	536807	keystroke_e	e	n/a
268.568	0.0605	537136	keystroke_Key.enter	Key.enter	n/a
268.6355	5.574	537271	prompt	n/a	faces often deutschland breach\n
269.2435	0.059	538487	keystroke_f	f	n/a
269.2885	0.0735	538577	keystroke_a	a	n/a
269.4085	0.089	538817	keystroke_c	c	n/a
269.5135	0.075	539027	keystroke_e	e	n/a
269.6785	0.06	539357	keystroke_s	s	n/a
269.798	0.06	539596	keystroke_Key.space	Key.space	n/a
269.9785	0.089	539957	keystroke_o	o	n/a
270.0985	0.06	540197	keystroke_f	f	n/a
270.2625	0.135	540525	keystroke_t	t	n/a
270.3385	0.134	540677	keystroke_e	e	n/a
270.5035	0.06	541007	keystroke_n	n	n/a
270.637	0.075	541274	keystroke_Key.space	Key.space	n/a
270.7885	0.104	541577	keystroke_d	d	n/a
270.863	0.1055	541726	keystroke_e	e	n/a
271.118	0.0455	542236	keystroke_u	u	n/a
271.6585	0.089	543317	keystroke_t	t	n/a
272.0925	0.1205	544185	keystroke_s	s	n/a
272.153	0.09	544306	keystroke_c	c	n/a
272.303	0.0595	544606	keystroke_h	h	n/a
272.633	0.061	545266	keystroke_l	l	n/a
272.753	0.075	545506	keystroke_a	a	n/a
272.888	0.06	545776	keystroke_n	n	n/a
272.9635	0.0595	545927	keystroke_d	d	n/a
273.083	0.045	546166	keystroke_Key.space	Key.space	n/a
273.278	0.075	546556	keystroke_b	b	n/a
273.473	0.09	546946	keystroke_r	r	n/a
273.5185	0.1345	547037	keystroke_e	e	n/a
273.608	0.09	547216	keystroke_a	a	n/a
273.7885	0.0735	547577	keystroke_c	c	n/a
273.8935	0.0295	547787	keystroke_h	h	n/a
274.148	0.06	548296	keystroke_Key.enter	Key.enter	n/a
274.2135	7.451	548427	prompt	n/a	specifications distant seattle more\n
274.943	0.06	549886	keystroke_s	s	n/a
275.333	0.0755	550666	keystroke_e	e	n/a
275.3785	0.1055	550757	keystroke_p	p	n/a
275.663	0.0605	551326	keystroke_Key.backspace	Key.backspace	n/a
275.768	0.075	551536	keystroke_Key.backspace	Key.backspace	n/a
275.993	0.045	551986	keystroke_p	p	n/a
276.1135	0.12	552227	keystroke_e	e	n/a
276.2035	0.0745	552407	keystroke_c	c	n/a
276.308	0.075	552616	keystroke_i	i	n/a
276.4125	0.0905	552825	keystroke_f	f	n/a
276.458	0.105	552916	keystroke_i	i	n/a
276.5785	0.105	553157	keystroke_c	c	n/a
276.698	0.12	553396	keystroke_a	a	n/a
276.788	0.075	553576	keystroke_t	t	n/a
276.893	0.0895	553786	keystroke_i	i	n/a
276.9235	0.09	553847	keystroke_o	o	n/a
276.9535	0.0745	553907	keystroke_n	n	n/a
277.044	0.104	554088	keystroke_s	s	n/a
277.178	0.06	554356	keystroke_Key.space	Key.space	n/a
277.883	0.0745	555766	keystroke_d	d	n/a
278.078	0.06	556156	keystroke_i	i	n/a
278.183	0.15	556366	keystroke_s	s	n/a
278.288	0.075	556576	keystroke_t	t	n/a
278.393	0.0595	556786	keystroke_a	a	n/a
278.4535	0.075	556907	keystroke_n	n	n/a
278.648	0.06	557296	keystroke_t	t	n/a
278.753	0.0455	557506	keystroke_Key.space	Key.space	n/a
279.023	0.0305	558046	keystroke_s	s	n/a
279.383	0.15	558766	keystroke_e	e	n/a
279.4575	0.136	558915	keystroke_a	a	n/a
279.6375	0.031	559275	keystroke_t	t	n/a
279.8485	0.044	559697	keystroke_t	t	n/a
279.9375	0.046	559875	keystroke_l	l	n/a
280.164	0.0745	560328	keystroke_e	e	n/a
280.2835	0.0445	560567	keystroke_Key.space	Key.space	n/a
280.5525	0.075	561105	keystroke_m	m	n/a
280.613	0.1055	561226	keystroke_o	o	n/a
280.7335	0.0595	561467	keystroke_r	r	n/a
280.7775	0.061	561555	keystroke_e	e	n/a
281.5875	0.075	563175	keystroke_Key.enter	Key.enter	n/a
281.668	6.5525	563336	prompt	n/a	thanksgiving mesa statement cove\n
282.549	0.06	565098	keystroke_t	t	n/a
282.653	0.045	565306	keystroke_h	h	n/a
282.728	0.06	565456	keystroke_a	a	n/a
282.8485	0.09	565697	keystroke_n	n	n/a
282.908	0.09	565816	keystroke_k	k	n/a
283.103	0.105	566206	keystroke_s	s	n/a
283.358	0.06	566716	keystroke_g	g	n/a
283.4335	0.0595	566867	keystroke_i	i	n/a
283.913	0.12	567826	keystroke_v	v	n/a
284.093	0.09	568186	keystroke_i	i	n/a
284.138	0.075	568276	keystroke_n	n	n/a
284.213	0.0605	568426	keystroke_g	g	n/a
284.378	0.045	568756	keystroke_Key.space	Key.space	n/a
285.3235	0.06	570647	keystroke_m	m	n/a
285.4285	0.059	570857	keystroke_e	e	n/a
285.609	0.1195	571218	keystroke_s	s	n/a
285.7435	0.089	571487	keystroke_a	a	n/a
285.893	0.0745	571786	keystroke_Key.space	Key.space	n/a
286.0285	0.164	572057	keystroke_s	s	n/a
286.1485	0.105	572297	keystroke_t	t	n/a
286.2385	0.104	572477	keystroke_a	a	n/a
286.328	0.0895	572656	keystroke_t	t	n/a
286.4495	0.073	572899	keystroke_e	e	n/a
286.6275	0.06	573255	keystroke_m	m	n/a
286.7635	0.06	573527	keystroke_e	e	n/a
286.8075	0.06	573615	keystroke_n	n	n/a
287.0175	0.0605	574035	keystroke_t	t	n/a
287.138	0.0445	574276	keystroke_Key.space	Key.space	n/a
287.6635	0.075	575327	keystroke_c	c	n/a
287.7685	0.075	575537	keystroke_o	o	n/a
287.8735	0.12	575747	keystroke_v	v	n/a
287.9635	0.075	575927	keystroke_e	e	n/a
288.1425	0.075	576285	keystroke_Key.enter	Key.enter	n/a
288.2245	7.93	576449	prompt	n/a	housewares respondents invitation courier\n
288.849	0.0595	577698	keystroke_h	h	n/a
288.8935	0.09	577787	keystroke_o	o	n/a
288.969	0.074	577938	keystroke_u	u	n/a
289.0575	0.076	578115	keystroke_s	s	n/a
289.2225	0.091	578445	keystroke_e	e	n/a
289.403	0.1495	578806	keystroke_w	w	n/a
289.5075	0.166	579015	keystroke_a	a	n/a
289.6275	0.1055	579255	keystroke_r	r	n/a
289.7185	0.075	579437	keystroke_e	e	n/a
289.913	0.0745	579826	keystroke_s	s	n/a
290.0625	0.0755	580125	keystroke_Key.space	Key.space	n/a
290.5885	0.0745	581177	keystroke_r	r	n/a
290.6325	0.121	581265	keystroke_e	e	n/a
290.7235	0.105	581447	keystroke_s	s	n/a
290.8285	0.0745	581657	keystroke_p	p	n/a
290.8875	0.075	581775	keystroke_o	o	n/a
290.933	0.075	581866	keystroke_n	n	n/a
291.038	0.09	582076	keystroke_d	d	n/a
291.8935	0.029	583787	keystroke_e	e	n/a
292.0275	0.031	584055	keystroke_n	n	n/a
292.1335	0.0605	584267	keystroke_t	t	n/a
292.2235	0.12	584447	keystroke_s	s	n/a
292.3735	0.0295	584747	keystroke_Key.space	Key.space	n/a
293.138	0.1055	586276	keystroke_i	i	n/a
293.1975	0.061	586395	keystroke_n	n	n/a
293.3185	0.06	586637	keystroke_v	v	n/a
293.4085	0.075	586817	keystroke_i	i	n/a
293.558	0.0605	587116	keystroke_t	t	n/a
293.6485	0.105	587297	keystroke_a	a	n/a
293.723	0.0595	587446	keystroke_t	t	n/a
293.8585	0.09	587717	keystroke_i	i	n/a
293.8885	0.075	587777	keystroke_o	o	n/a
293.9025	0.076	587805	keystroke_n	n	n/a
293.9925	0.09	587985	keystroke_Key.space	Key.space	n/a
294.2175	0.061	588435	keystroke_c	c	n/a
294.3225	0.0765	588645	keystroke_o	o	n/a
294.368	0.06	588736	keystroke_u	u	n/a
294.473	0.06	588946	keystroke_r	r	n/a
294.653	0.0455	589306	keystroke_t	t	n/a
294.728	0.0755	589456	keystroke_i	i	n/a
295.1485	0.0445	590297	keystroke_Key.backspace	Key.backspace	n/a
295.253	0.045	590506	keystroke_Key.backspace	Key.backspace	n/a
295.4035	0.0295	590807	keystroke_i	i	n/a
295.418	0.09	590836	keystroke_e	e	n/a
295.478	0.1355	590956	keystroke_r	r	n/a
296.0925	0.06	592185	keystroke_Key.enter	Key.enter	n/a
296.1585	6.566	592317	prompt	n/a	float whom andrews career\n
296.7525	0.06	593505	keystroke_f	f	n/a
296.8275	0.0615	593655	keystroke_l	l	n/a
296.9785	0.06	593957	keystroke_o	o	n/a
297.128	0.135	594256	keystroke_a	a	n/a
297.218	0.06	594436	keystroke_t	t	n/a
297.383	0.045	594766	keystroke_Key.space	Key.space	n/a
297.638	0.06	595276	keystroke_w	w	n/a
297.759	0.044	595518	keystroke_h	h	n/a
297.788	0.075	595576	keystroke_o	o	n/a
297.923	0.06	595846	keystroke_m	m	n/a
298.043	0.0605	596086	keystroke_e	e	n/a
298.118	0.045	596236	keystroke_Key.space	Key.space	n/a
298.2385	0.0755	596477	keystroke_a	a	n/a
298.3875	0.061	596775	keystroke_n	n	n/a
298.479	0.0895	596958	keystroke_d	d	n/a
298.6285	0.09	597257	keystroke_r	r	n/a
298.689	0.0745	597378	keystroke_e	e	n/a
298.913	0.0455	597826	keystroke_Key.backspace	Key.backspace	n/a
299.0335	0.0745	598067	keystroke_Key.backspace	Key.backspace	n/a
299.153	0.06	598306	keystroke_Key.backspace	Key.backspace	n/a
299.2735	0.075	598547	keystroke_Key.backspace	Key.backspace	n/a
299.4085	0.0745	598817	keystroke_Key.backspace	Key.backspace	n/a
299.558	0.0595	599116	keystroke_Key.backspace	Key.backspace	n/a
299.663	0.0605	599326	keystroke_Key.backspace	Key.backspace	n/a
299.783	0.06	599566	keystroke_Key.space	Key.space	n/a
299.9935	0.0745	599987	keystroke_a	a	n/a
300.218	0.0455	600436	keystroke_n	n	n/a
300.248	0.06	600496	keystroke_d	d	n/a
300.7125	0.135	601425	keystroke_r	r	n/a
300.803	0.1345	601606	keystroke_e	e	n/a
300.9525	0.0905	601905	keystroke_w	w	n/a
301.1635	0.089	602327	keystroke_s	s	n/a
301.358	0.045	602716	keystroke_Key.space	Key.space	n/a
301.5985	0.0755	603197	keystroke_c	c	n/a
301.6885	0.0905	603377	keystroke_a	a	n/a
301.8075	0.076	603615	keystroke_r	r	n/a
301.8975	0.075	603795	keystroke_e	e	n/a
302.0025	0.1355	604005	keystroke_e	e	n/a
302.1225	0.06	604245	keystroke_r	r	n/a
302.648	0.075	605296	keystroke_Key.enter	Key.enter	n/a
302.7305	6.6245	605461	prompt	n/a	let's country forge projection\n
303.578	0.031	607156	keystroke_l	l	n/a
303.714	0.045	607428	keystroke_t	t	n/a
303.833	0.0745	607666	keystroke_'	'	n/a
304.2525	0.0455	608505	keystroke_Key.backspace	Key.backspace	n/a
304.3575	0.075	608715	keystroke_Key.backspace	Key.backspace	n/a
304.448	0.0595	608896	keystroke_e	e	n/a
304.5375	0.06	609075	keystroke_t	t	n/a
304.568	0.0595	609136	keystroke_'	'	n/a
304.7475	0.0905	609495	keystroke_s	s	n/a
305.093	0.045	610186	keystroke_Key.space	Key.space	n/a
305.214	0.075	610428	keystroke_c	c	n/a
305.3035	0.0895	610607	keystroke_o	o	n/a
305.363	0.045	610726	keystroke_u	u	n/a
305.4985	0.0595	610997	keystroke_n	n	n/a
305.573	0.0905	611146	keystroke_t	t	n/a
305.709	0.104	611418	keystroke_r	r	n/a
305.8435	0.045	611687	keystroke_y	y	n/a
305.8885	0.0595	611777	keystroke_Key.space	Key.space	n/a
306.053	0.06	612106	keystroke_f	f	n/a
306.1285	0.0745	612257	keystroke_o	o	n/a
306.638	0.045	613276	keystroke_g	g	n/a
306.698	0.075	613396	keystroke_e	e	n/a
306.878	0.03	613756	keystroke_Key.space	Key.space	n/a
307.223	0.06	614446	keystroke_Key.backspace	Key.backspace	n/a
307.343	0.0595	614686	keystroke_Key.backspace	Key.backspace	n/a
307.4635	0.075	614927	keystroke_Key.backspace	Key.backspace	n/a
307.5535	0.045	615107	keystroke_r	r	n/a
307.6885	0.1055	615377	keystroke_g	g	n/a
307.749	0.075	615498	keystroke_e	e	n/a
307.883	0.0605	615766	keystroke_Key.space	Key.space	n/a
308.0335	0.045	616067	keystroke_p	p	n/a
308.213	0.0595	616426	keystroke_r	r	n/a
308.3175	0.0755	616635	keystroke_o	o	n/a
308.3785	0.0745	616757	keystroke_j	j	n/a
308.483	0.105	616966	keystroke_e	e	n/a
308.558	0.0605	617116	keystroke_c	c	n/a
308.7535	0.0445	617507	keystroke_t	t	n/a
308.8435	0.12	617687	keystroke_i	i	n/a
308.873	0.1055	617746	keystroke_o	o	n/a
308.9185	0.075	617837	keystroke_n	n	n/a
309.2925	0.0605	618585	keystroke_Key.enter	Key.enter	n/a
309.361	5.109	618722	prompt	n/a	synopsis shirt scared ladies\n
310.0285	0.09	620057	keystroke_s	s	n/a
310.1335	0.045	620267	keystroke_y	y	n/a
310.313	0.089	620626	keystroke_n	n	n/a
310.432	0.121	620864	keystroke_o	o	n/a
310.733	0.075	621466	keystroke_p	p	n/a
310.9735	0.09	621947	keystroke_s	s	n/a
311.1235	0.075	622247	keystroke_i	i	n/a
311.2135	0.1345	622427	keystroke_s	s	n/a
311.393	0.06	622786	keystroke_Key.space	Key.space	n/a
311.8285	0.0905	623657	keystroke_s	s	n/a
311.9335	0.075	623867	keystroke_h	h	n/a
311.9785	0.06	623957	keystroke_i	i	n/a
312.1135	0.0745	624227	keystroke_r	r	n/a
312.263	0.0605	624526	keystroke_t	t	n/a
312.353	0.0455	624706	keystroke_Key.space	Key.space	n/a
312.4735	0.164	624947	keystroke_s	s	n/a
312.593	0.1205	625186	keystroke_c	c	n/a
312.8325	0.1505	625665	keystroke_a	a	n/a
312.9375	0.106	625875	keystroke_r	r	n/a
313.0125	0.091	626025	keystroke_e	e	n/a
313.1925	0.0755	626385	keystroke_d	d	n/a
313.2975	0.06	626595	keystroke_Key.space	Key.space	n/a
313.4185	0.075	626837	keystroke_l	l	n/a
313.553	0.1805	627106	keystroke_a	a	n/a
313.7785	0.12	627557	keystroke_d	d	n/a
314.004	0.0445	628008	keystroke_i	i	n/a
314.0935	0.09	628187	keystroke_e	e	n/a
314.2275	0.136	628455	keystroke_s	s	n/a
314.3785	0.09	628757	keystroke_Key.enter	Key.enter	n/a
314.4745	6.5205	628949	prompt	n/a	branches hospitality beauty campbell\n
315.129	0.0595	630258	keystroke_b	b	n/a
315.293	0.1045	630586	keystroke_r	r	n/a
315.3075	0.0755	630615	keystroke_a	a	n/a
315.4735	0.0455	630947	keystroke_n	n	n/a
315.6375	0.0755	631275	keystroke_c	c	n/a
315.788	0.03	631576	keystroke_h	h	n/a
315.893	0.075	631786	keystroke_e	e	n/a
316.0425	0.075	632085	keystroke_s	s	n/a
316.2385	0.09	632477	keystroke_Key.space	Key.space	n/a
316.658	0.0755	633316	keystroke_h	h	n/a
316.748	0.075	633496	keystroke_o	o	n/a
317.063	0.0905	634126	keystroke_s	s	n/a
317.1985	0.075	634397	keystroke_p	p	n/a
317.3035	0.0595	634607	keystroke_i	i	n/a
317.468	0.0605	634936	keystroke_t	t	n/a
317.5435	0.0745	635087	keystroke_a	a	n/a
317.708	0.12	635416	keystroke_l	l	n/a
317.8135	0.075	635627	keystroke_i	i	n/a
317.9785	0.06	635957	keystroke_t	t	n/a
318.0535	0.03	636107	keystroke_y	y	n/a
318.7425	0.061	637485	keystroke_Key.space	Key.space	n/a
318.9385	0.089	637877	keystroke_b	b	n/a
319.0135	0.149	638027	keystroke_e	e	n/a
319.118	0.12	638236	keystroke_a	a	n/a
319.2235	0.029	638447	keystroke_u	u	n/a
319.3735	0.045	638747	keystroke_t	t	n/a
319.4485	0.045	638897	keystroke_y	y	n/a
319.553	0.09	639106	keystroke_Key.space	Key.space	n/a
319.8685	0.09	639737	keystroke_c	c	n/a
319.9285	0.0895	639857	keystroke_a	a	n/a
320.0475	0.1055	640095	keystroke_m	m	n/a
320.138	0.045	640276	keystroke_p	p	n/a
320.273	0.075	640546	keystroke_b	b	n/a
320.438	0.0755	640876	keystroke_e	e	n/a
320.633	0.03	641266	keystroke_l	l	n/a
320.723	0.09	641446	keystroke_l	l	n/a
320.888	0.105	641776	keystroke_Key.enter	Key.enter	n/a
320.9985	6.836	641997	prompt	n/a	iraq cart ordinary primarily\n
321.623	0.0755	643246	keystroke_i	i	n/a
321.789	0.1495	643578	keystroke_r	r	n/a
321.8785	0.12	643757	keystroke_e	e	n/a
321.9685	0.09	643937	keystroke_q	q	n/a
322.2985	0.045	644597	keystroke_Key.backspace	Key.backspace	n/a
322.4035	0.075	644807	keystroke_Key.backspace	Key.backspace	n/a
322.5235	0.105	645047	keystroke_a	a	n/a
322.8535	0.075	645707	keystroke_q	q	n/a
323.0325	0.045	646065	keystroke_Key.space	Key.space	n/a
323.4685	0.075	646937	keystroke_c	c	n/a
323.588	0.1205	647176	keystroke_a	a	n/a
323.693	0.075	647386	keystroke_r	r	n/a
324.2475	0.03	648495	keystroke_t	t	n/a
324.428	0.0595	648856	keystroke_Key.space	Key.space	n/a
324.6235	0.0745	649247	keystroke_o	o	n/a
324.758	0.045	649516	keystroke_r	r	n/a
324.998	0.09	649996	keystroke_d	d	n/a
325.238	0.0745	650476	keystroke_i	i	n/a
325.2675	0.061	650535	keystroke_n	n	n/a
325.3725	0.1055	650745	keystroke_a	a	n/a
325.4335	0.06	650867	keystroke_r	r	n/a
325.657	0.061	651314	keystroke_y	y	n/a
325.763	0.0595	651526	keystroke_Key.space	Key.space	n/a
326.0485	0.0445	652097	keystroke_p	p	n/a
326.1985	0.03	652397	keystroke_r	r	n/a
326.2725	0.09	652545	keystroke_i	i	n/a
326.3325	0.0755	652665	keystroke_m	m	n/a
326.4535	0.09	652907	keystroke_a	a	n/a
326.5285	0.044	653057	keystroke_r	r	n/a
326.6325	0.03	653265	keystroke_y	y	n/a
327.128	0.045	654256	keystroke_Key.backspace	Key.backspace	n/a
327.338	0.0755	654676	keystroke_i	i	n/a
327.4445	0.089	654889	keystroke_l	l	n/a
327.5345	0.0445	655069	keystroke_y	y	n/a
327.7725	0.0605	655545	keystroke_Key.enter	Key.enter	n/a
327.8625	7.127	655725	prompt	n/a	traditional intro financing prep\n
328.4635	0.075	656927	keystroke_t	t	n/a
328.5835	0.135	657167	keystroke_r	r	n/a
328.6575	0.135	657315	keystroke_a	a	n/a
328.808	0.09	657616	keystroke_d	d	n/a
328.974	0.059	657948	keystroke_i	i	n/a
329.1075	0.076	658215	keystroke_t	t	n/a
329.1985	0.12	658397	keystroke_i	i	n/a
329.2435	0.09	658487	keystroke_o	o	n/a
329.454	0.0745	658908	keystroke_a	a	n/a
329.5735	0.0455	659147	keystroke_l	l	n/a
329.813	0.045	659626	keystroke_Key.backspace	Key.backspace	n/a
329.934	0.0595	659868	keystroke_Key.backspace	Key.backspace	n/a
330.084	0.0445	660168	keystroke_n	n	n/a
330.158	0.09	660316	keystroke_a	a	n/a
330.308	0.045	660616	keystroke_l	l	n/a
330.323	0.075	660646	keystroke_Key.space	Key.space	n/a
330.759	0.0445	661518	keystroke_i	i	n/a
330.7735	0.06	661547	keystroke_n	n	n/a
331.1185	0.0445	662237	keystroke_t	t	n/a
331.2685	0.0745	662537	keystroke_r	r	n/a
331.403	0.03	662806	keystroke_o	o	n/a
332.0185	0.0295	664037	keystroke_Key.space	Key.space	n/a
332.2135	0.0595	664427	keystroke_f	f	n/a
332.3635	0.0755	664727	keystroke_i	i	n/a
332.409	0.074	664818	keystroke_n	n	n/a
332.543	0.0905	665086	keystroke_a	a	n/a
332.6485	0.075	665297	keystroke_n	n	n/a
332.7685	0.06	665537	keystroke_c	c	n/a
332.8885	0.075	665777	keystroke_i	i	n/a
332.9785	0.075	665957	keystroke_n	n	n/a
333.0385	0.045	666077	keystroke_g	g	n/a
333.2785	0.06	666557	keystroke_p	p	n/a
333.3235	0.12	666647	keystroke_Key.space	Key.space	n/a
333.6535	0.045	667307	keystroke_Key.backspace	Key.backspace	n/a
333.7735	0.06	667547	keystroke_Key.backspace	Key.backspace	n/a
333.8185	0.075	667637	keystroke_Key.space	Key.space	n/a
333.9695	0.0595	667939	keystroke_p	p	n/a
334.0885	0.09	668177	keystroke_r	r	n/a
334.1635	0.075	668327	keystroke_e	e	n/a
334.2535	0.0745	668507	keystroke_p	p	n/a
334.9125	0.0755	669825	keystroke_Key.enter	Key.enter	n/a
334.994	7.151	669988	prompt	n/a	driven myers generates clients\n
335.6185	0.09	671237	keystroke_d	d	n/a
335.7535	0.09	671507	keystroke_e	e	n/a
336.0825	0.03	672165	keystroke_Key.backspace	Key.backspace	n/a
336.2035	0.045	672407	keystroke_r	r	n/a
336.2785	0.0905	672557	keystroke_i	i	n/a
336.3835	0.12	672767	keystroke_v	v	n/a
336.4885	0.0595	672977	keystroke_e	e	n/a
336.6535	0.06	673307	keystroke_n	n	n/a
336.803	0.0595	673606	keystroke_Key.space	Key.space	n/a
337.1335	0.045	674267	keystroke_b	b	n/a
337.5525	0.0455	675105	keystroke_Key.backspace	Key.backspace	n/a
337.704	0.0595	675408	keystroke_m	m	n/a
337.9135	0.074	675827	keystroke_y	y	n/a
338.0925	0.121	676185	keystroke_e	e	n/a
338.1675	0.195	676335	keystroke_r	r	n/a
338.3335	0.164	676667	keystroke_s	s	n/a
338.4825	0.06	676965	keystroke_Key.space	Key.space	n/a
338.918	0.0605	677836	keystroke_g	g	n/a
338.9935	0.09	677987	keystroke_e	e	n/a
339.1435	0.06	678287	keystroke_n	n	n/a
339.2185	0.2105	678437	keystroke_e	e	n/a
339.309	0.1495	678618	keystroke_r	r	n/a
339.3835	0.209	678767	keystroke_a	a	n/a
339.6685	0.075	679337	keystroke_t	t	n/a
339.7435	0.104	679487	keystroke_e	e	n/a
339.9685	0.09	679937	keystroke_s	s	n/a
340.1485	0.045	680297	keystroke_Key.space	Key.space	n/a
340.3135	0.015	680627	keystroke_f	f	n/a
340.4185	0.135	680837	keystroke_l	l	n/a
340.4935	0.105	680987	keystroke_i	i	n/a
340.5085	0.105	681017	keystroke_c	c	n/a
340.778	0.045	681556	keystroke_Key.backspace	Key.backspace	n/a
340.883	0.0605	681766	keystroke_Key.backspace	Key.backspace	n/a
341.018	0.0905	682036	keystroke_Key.backspace	Key.backspace	n/a
341.1235	0.105	682247	keystroke_Key.backspace	Key.backspace	n/a
341.2745	0.074	682549	keystroke_c	c	n/a
341.4385	0.105	682877	keystroke_l	l	n/a
341.5135	0.06	683027	keystroke_i	i	n/a
341.5885	0.0905	683177	keystroke_e	e	n/a
341.7235	0.06	683447	keystroke_n	n	n/a
341.8135	0.1045	683627	keystroke_t	t	n/a
341.9035	0.0895	683807	keystroke_s	s	n/a
342.0525	0.0905	684105	keystroke_Key.enter	Key.enter	n/a
342.151	14.455	684302	prompt	n/a	brisbane succeed downloading sharon\n
342.9985	0.06	685997	keystroke_b	b	n/a
343.208	0.0605	686416	keystroke_r	r	n/a
343.3585	0.03	686717	keystroke_i	i	n/a
343.5535	0.09	687107	keystroke_s	s	n/a
343.8835	0.075	687767	keystroke_b	b	n/a
344.0035	0.1055	688007	keystroke_a	a	n/a
344.1535	0.075	688307	keystroke_n	n	n/a
344.2885	0.09	688577	keystroke_e	e	n/a
344.3935	0.0745	688787	keystroke_Key.space	Key.space	n/a
344.499	0.1195	688998	keystroke_s	s	n/a
344.664	0.0445	689328	keystroke_u	u	n/a
344.978	0.0605	689956	keystroke_c	c	n/a
345.098	0.18	690196	keystroke_c	c	n/a
345.263	0.061	690526	keystroke_e	e	n/a
345.548	0.135	691096	keystroke_e	e	n/a
345.668	0.045	691336	keystroke_d	d	n/a
345.8785	0.015	691757	keystroke_Key.space	Key.space	n/a
346.374	0.1045	692748	keystroke_s	s	n/a
346.823	0.06	693646	keystroke_Key.backspace	Key.backspace	n/a
347.0045	0.0595	694009	keystroke_d	d	n/a
347.079	0.059	694158	keystroke_o	o	n/a
347.2585	0.045	694517	keystroke_w	w	n/a
347.379	0.044	694758	keystroke_n	n	n/a
347.5285	0.0905	695057	keystroke_l	l	n/a
347.6635	0.1345	695327	keystroke_a	a	n/a
347.708	0.045	695416	keystroke_o	o	n/a
347.993	0.09	695986	keystroke_d	d	n/a
348.368	0.0605	696736	keystroke_Key.backspace	Key.backspace	n/a
348.5035	0.0745	697007	keystroke_Key.backspace	Key.backspace	n/a
348.6385	0.075	697277	keystroke_Key.backspace	Key.backspace	n/a
349.0135	0.075	698027	keystroke_a	a	n/a
349.0435	0.105	698087	keystroke_d	d	n/a
349.2085	0.075	698417	keystroke_i	i	n/a
349.2385	0.075	698477	keystroke_n	n	n/a
349.4345	0.059	698869	keystroke_g	g	n/a
349.5385	0.06	699077	keystroke_Key.space	Key.space	n/a
349.8085	0.0905	699617	keystroke_s	s	n/a
349.9135	0.06	699827	keystroke_h	h	n/a
350.003	0.0905	700006	keystroke_a	a	n/a
350.0635	0.09	700127	keystroke_r	r	n/a
350.1235	0.075	700247	keystroke_e	e	n/a
351.7275	0.406	703455	keystroke_Key.backspace	Key.backspace	n/a
352.2685	0.06	704537	keystroke_Key.backspace	Key.backspace	n/a
352.4035	0.0595	704807	keystroke_Key.backspace	Key.backspace	n/a
352.553	0.0605	705106	keystroke_Key.backspace	Key.backspace	n/a
352.6885	0.059	705377	keystroke_Key.backspace	Key.backspace	n/a
352.8235	0.0595	705647	keystroke_Key.backspace	Key.backspace	n/a
352.973	0.045	705946	keystroke_Key.backspace	Key.backspace	n/a
353.0935	0.0745	706187	keystroke_Key.backspace	Key.backspace	n/a
353.243	0.06	706486	keystroke_Key.backspace	Key.backspace	n/a
353.408	0.045	706816	keystroke_Key.backspace	Key.backspace	n/a
353.6635	0.0745	707327	keystroke_Key.backspace	Key.backspace	n/a
353.919	0.03	707838	keystroke_o	o	n/a
354.038	0.1205	708076	keystroke_a	a	n/a
354.0985	0.135	708197	keystroke_d	d	n/a
354.2635	0.09	708527	keystroke_i	i	n/a
354.293	0.0755	708586	keystroke_n	n	n/a
354.4135	0.0605	708827	keystroke_g	g	n/a
354.4885	0.075	708977	keystroke_Key.space	Key.space	n/a
354.6235	0.09	709247	keystroke_s	s	n/a
354.7285	0.06	709457	keystroke_h	h	n/a
354.8335	0.09	709667	keystroke_a	a	n/a
354.879	0.0895	709758	keystroke_r	r	n/a
354.9535	0.045	709907	keystroke_e	e	n/a
355.0285	0.105	710057	keystroke_o	o	n/a
355.1035	0.0455	710207	keystroke_n	n	n/a
355.4175	0.06	710835	keystroke_Key.backspace	Key.backspace	n/a
355.5385	0.075	711077	keystroke_Key.backspace	Key.backspace	n/a
355.6735	0.09	711347	keystroke_Key.backspace	Key.backspace	n/a
355.8675	0.121	711735	keystroke_o	o	n/a
355.9435	0.06	711887	keystroke_n	n	n/a
356.2285	0.045	712457	keystroke_Key.space	Key.space	n/a
356.5285	0.074	713057	keystroke_Key.enter	Key.enter	n/a
356.621	6.1485	713242	prompt	n/a	brunswick gilbert wilson screensavers\n
357.1435	0.09	714287	keystroke_b	b	n/a
357.3235	0.044	714647	keystroke_r	r	n/a
357.4135	0.045	714827	keystroke_u	u	n/a
357.563	0.0455	715126	keystroke_n	n	n/a
357.6535	0.075	715307	keystroke_s	s	n/a
357.8185	0.075	715637	keystroke_w	w	n/a
358.0135	0.045	716027	keystroke_i	i	n/a
358.3135	0.075	716627	keystroke_c	c	n/a
358.4335	0.0605	716867	keystroke_k	k	n/a
358.5385	0.0745	717077	keystroke_Key.space	Key.space	n/a
358.7785	0.059	717557	keystroke_g	g	n/a
358.8525	0.0905	717705	keystroke_i	i	n/a
358.9435	0.1345	717887	keystroke_l	l	n/a
359.123	0.076	718246	keystroke_b	b	n/a
359.1995	0.1195	718399	keystroke_e	e	n/a
359.2885	0.1195	718577	keystroke_r	r	n/a
359.3785	0.0745	718757	keystroke_t	t	n/a
359.498	0.06	718996	keystroke_Key.space	Key.space	n/a
359.6325	0.076	719265	keystroke_w	w	n/a
359.753	0.06	719506	keystroke_i	i	n/a
359.859	0.089	719718	keystroke_l	l	n/a
360.009	0.104	720018	keystroke_s	s	n/a
360.099	0.0895	720198	keystroke_o	o	n/a
360.159	0.075	720318	keystroke_n	n	n/a
360.234	0.03	720468	keystroke_Key.space	Key.space	n/a
360.399	0.165	720798	keystroke_s	s	n/a
360.5485	0.075	721097	keystroke_c	c	n/a
360.758	0.061	721516	keystroke_r	r	n/a
360.833	0.0155	721666	keystroke_e	e	n/a
361.028	0.031	722056	keystroke_e	e	n/a
361.3735	0.0455	722747	keystroke_n	n	n/a
361.479	0.1195	722958	keystroke_s	s	n/a
361.748	0.105	723496	keystroke_a	a	n/a
361.913	0.15	723826	keystroke_v	v	n/a
362.048	0.12	724096	keystroke_e	e	n/a
362.2585	0.0445	724517	keystroke_r	r	n/a
362.5145	0.0895	725029	keystroke_s	s	n/a
362.7085	0.059	725417	keystroke_Key.enter	Key.enter	n/a
362.7755	10.3745	725551	prompt	n/a	accurately enables matches brutal\n
364.6275	0.1055	729255	keystroke_a	a	n/a
364.779	0.12	729558	keystroke_c	c	n/a
364.959	0.1195	729918	keystroke_c	c	n/a
365.139	0.0445	730278	keystroke_u	u	n/a
365.2585	0.075	730517	keystroke_r	r	n/a
365.3785	0.105	730757	keystroke_a	a	n/a
365.4545	0.09	730909	keystroke_t	t	n/a
365.5455	0.103	731091	keystroke_e	e	n/a
365.6785	0.075	731357	keystroke_l	l	n/a
365.7535	0.0595	731507	keystroke_y	y	n/a
365.7985	0.0745	731597	keystroke_Key.space	Key.space	n/a
366.098	0.06	732196	keystroke_e	e	n/a
366.249	0.075	732498	keystroke_n	n	n/a
366.325	0.149	732650	keystroke_a	a	n/a
366.429	0.15	732858	keystroke_b	b	n/a
366.489	0.045	732978	keystroke_v	v	n/a
366.5935	0.06	733187	keystroke_e	e	n/a
366.6985	0.061	733397	keystroke_l	l	n/a
367.0435	0.06	734087	keystroke_Key.backspace	Key.backspace	n/a
367.148	0.06	734296	keystroke_Key.backspace	Key.backspace	n/a
367.509	0.015	735018	keystroke_l	l	n/a
367.704	0.059	735408	keystroke_Key.backspace	Key.backspace	n/a
367.854	0.044	735708	keystroke_Key.backspace	Key.backspace	n/a
368.2285	0.0455	736457	keystroke_l	l	n/a
368.349	0.075	736698	keystroke_e	e	n/a
368.514	0.09	737028	keystroke_s	s	n/a
368.6185	0.045	737237	keystroke_Key.space	Key.space	n/a
368.8135	0.105	737627	keystroke_a	a	n/a
368.8885	0.06	737777	keystroke_t	t	n/a
369.0835	0.06	738167	keystroke_c	c	n/a
369.4135	0.075	738827	keystroke_Key.backspace	Key.backspace	n/a
369.5785	0.06	739157	keystroke_Key.backspace	Key.backspace	n/a
369.7285	0.06	739457	keystroke_Key.backspace	Key.backspace	n/a
371.244	0.0445	742488	keystroke_m	m	n/a
371.3035	0.1645	742607	keystroke_a	a	n/a
371.378	0.046	742756	keystroke_t	t	n/a
371.559	0.09	743118	keystroke_c	c	n/a
371.6645	0.0445	743329	keystroke_h	h	n/a
371.783	0.045	743566	keystroke_e	e	n/a
371.9035	0.09	743807	keystroke_s	s	n/a
371.994	0.0445	743988	keystroke_Key.space	Key.space	n/a
372.1445	0.045	744289	keystroke_b	b	n/a
372.293	0.0605	744586	keystroke_r	r	n/a
372.3985	0.0605	744797	keystroke_u	u	n/a
372.5185	0.0605	745037	keystroke_t	t	n/a
372.6535	0.1055	745307	keystroke_a	a	n/a
372.8185	0.076	745637	keystroke_l	l	n/a
373.0885	0.059	746177	keystroke_Key.enter	Key.enter	n/a
373.1605	9.3345	746321	prompt	n/a	germany qualities mechanics carmen\n
373.8085	0.045	747617	keystroke_g	g	n/a
373.8835	0.12	747767	keystroke_e	e	n/a
373.9585	0.0905	747917	keystroke_r	r	n/a
374.2285	0.075	748457	keystroke_a	a	n/a
374.618	0.045	749236	keystroke_Key.backspace	Key.backspace	n/a
374.799	0.0595	749598	keystroke_m	m	n/a
374.963	0.0905	749926	keystroke_a	a	n/a
375.099	0.014	750198	keystroke_n	n	n/a
375.203	0.0605	750406	keystroke_y	y	n/a
375.248	0.075	750496	keystroke_Key.space	Key.space	n/a
375.5485	0.076	751097	keystroke_q	q	n/a
375.653	0.0605	751306	keystroke_u	u	n/a
375.774	0.0745	751548	keystroke_e	e	n/a
376.118	0.03	752236	keystroke_Key.backspace	Key.backspace	n/a
376.284	0.075	752568	keystroke_a	a	n/a
376.388	0.106	752776	keystroke_l	l	n/a
376.463	0.061	752926	keystroke_i	i	n/a
376.613	0.0455	753226	keystroke_i	i	n/a
376.6285	0.0605	753257	keystroke_t	t	n/a
376.764	0.0595	753528	keystroke_i	i	n/a
376.883	0.075	753766	keystroke_e	e	n/a
377.034	0.1045	754068	keystroke_s	s	n/a
377.198	0.045	754396	keystroke_Key.space	Key.space	n/a
377.5285	0.045	755057	keystroke_Key.backspace	Key.backspace	n/a
377.6635	0.045	755327	keystroke_Key.backspace	Key.backspace	n/a
377.7835	0.06	755567	keystroke_Key.backspace	Key.backspace	n/a
377.9335	0.045	755867	keystroke_Key.backspace	Key.backspace	n/a
378.0685	0.06	756137	keystroke_Key.backspace	Key.backspace	n/a
378.1885	0.075	756377	keystroke_Key.backspace	Key.backspace	n/a
378.3385	0.045	756677	keystroke_t	t	n/a
378.4135	0.06	756827	keystroke_i	i	n/a
378.5185	0.0895	757037	keystroke_e	e	n/a
378.684	0.059	757368	keystroke_s	s	n/a
378.758	0.06	757516	keystroke_Key.space	Key.space	n/a
379.494	0.059	758988	keystroke_m	m	n/a
379.628	0.1205	759256	keystroke_e	e	n/a
379.9885	0.105	759977	keystroke_c	c	n/a
380.1685	0.06	760337	keystroke_h	h	n/a
380.3335	0.045	760667	keystroke_a	a	n/a
380.4535	0.09	760907	keystroke_n	n	n/a
380.528	0.0765	761056	keystroke_i	i	n/a
380.6485	0.075	761297	keystroke_c	c	n/a
380.8735	0.0745	761747	keystroke_s	s	n/a
380.978	0.06	761956	keystroke_Key.space	Key.space	n/a
381.549	0.075	763098	keystroke_c	c	n/a
381.639	0.0745	763278	keystroke_a	a	n/a
381.7585	0.0605	763517	keystroke_r	r	n/a
381.969	0.044	763938	keystroke_m	m	n/a
382.119	0.044	764238	keystroke_e	e	n/a
382.2235	0.0605	764447	keystroke_n	n	n/a
382.433	0.06	764866	keystroke_Key.enter	Key.enter	n/a
382.5075	5.4925	765015	prompt	n/a	humanitarian around themes optics\n
383.1845	0.059	766369	keystroke_h	h	n/a
383.3335	0.075	766667	keystroke_u	u	n/a
383.514	0.0745	767028	keystroke_m	m	n/a
383.9635	0.015	767927	keystroke_a	a	n/a
383.9935	0.0155	767987	keystroke_n	n	n/a
384.024	0.0295	768048	keystroke_i	i	n/a
384.2035	0.0905	768407	keystroke_t	t	n/a
384.414	0.1645	768828	keystroke_a	a	n/a
384.5335	0.046	769067	keystroke_r	r	n/a
384.6235	0.0595	769247	keystroke_i	i	n/a
384.879	0.0595	769758	keystroke_a	a	n/a
385.0135	0.045	770027	keystroke_n	n	n/a
385.4635	0.014	770927	keystroke_Key.space	Key.space	n/a
385.5385	0.075	771077	keystroke_a	a	n/a
385.599	0.0445	771198	keystroke_r	r	n/a
385.7035	0.075	771407	keystroke_o	o	n/a
385.7335	0.06	771467	keystroke_u	u	n/a
385.8685	0.075	771737	keystroke_n	n	n/a
385.9885	0.0605	771977	keystroke_d	d	n/a
386.0785	0.045	772157	keystroke_Key.space	Key.space	n/a
386.184	0.0595	772368	keystroke_t	t	n/a
386.2585	0.06	772517	keystroke_h	h	n/a
386.3485	0.075	772697	keystroke_e	e	n/a
386.4835	0.06	772967	keystroke_m	m	n/a
386.6335	0.06	773267	keystroke_e	e	n/a
386.843	0.0605	773686	keystroke_s	s	n/a
386.993	0.0605	773986	keystroke_Key.space	Key.space	n/a
387.1885	0.06	774377	keystroke_o	o	n/a
387.309	0.0595	774618	keystroke_p	p	n/a
387.444	0.059	774888	keystroke_t	t	n/a
387.5635	0.06	775127	keystroke_i	i	n/a
387.6395	0.089	775279	keystroke_c	c	n/a
387.7285	0.075	775457	keystroke_s	s	n/a
387.9385	0.06	775877	keystroke_Key.enter	Key.enter	n/a
388.004	10.586	776008	prompt	n/a	having contributor advice norton\n
390.2065	0.001	780413	keystroke_h	h	n/a
390.2085	0.055	780417	keystroke_a	a	n/a
390.2345	0.089	780469	keystroke_v	v	n/a
390.4135	0.0905	780827	keystroke_i	i	n/a
390.4585	0.0305	780917	keystroke_n	n	n/a
390.5785	0.0605	781157	keystroke_g	g	n/a
390.684	0.0745	781368	keystroke_Key.space	Key.space	n/a
390.8485	0.0455	781697	keystroke_c	c	n/a
391.0285	0.075	782057	keystroke_o	o	n/a
391.0435	0.061	782087	keystroke_n	n	n/a
391.209	0.0895	782418	keystroke_t	t	n/a
391.3435	0.075	782687	keystroke_t	t	n/a
391.4485	0.06	782897	keystroke_i	i	n/a
391.6135	0.06	783227	keystroke_b	b	n/a
391.8085	0.0455	783617	keystroke_u	u	n/a
392.0185	0.06	784037	keystroke_Key.backspace	Key.backspace	n/a
392.1535	0.06	784307	keystroke_Key.backspace	Key.backspace	n/a
392.2885	0.06	784577	keystroke_Key.backspace	Key.backspace	n/a
392.4245	0.059	784849	keystroke_Key.backspace	Key.backspace	n/a
392.5745	0.0895	785149	keystroke_t	t	n/a
392.679	0.06	785358	keystroke_i	i	n/a
392.813	0.0445	785626	keystroke_b	b	n/a
392.8725	0.0615	785745	keystroke_u	u	n/a
392.979	0.059	785958	keystroke_t	t	n/a
392.98	0.0435	785960	keystroke_y	y	n/a
393.278	0.06	786556	keystroke_Key.backspace	Key.backspace	n/a
393.413	0.06	786826	keystroke_Key.backspace	Key.backspace	n/a
393.548	0.06	787096	keystroke_Key.backspace	Key.backspace	n/a
393.713	0.045	787426	keystroke_Key.backspace	Key.backspace	n/a
393.848	0.0605	787696	keystroke_Key.backspace	Key.backspace	n/a
393.9835	0.06	787967	keystroke_Key.backspace	Key.backspace	n/a
395.1095	0.059	790219	keystroke_r	r	n/a
395.198	0.075	790396	keystroke_i	i	n/a
