onset	duration	sample	value	key	prompt_text
1.475	9.673	2950	prompt	n/a	the quick brown fox jumps over a lazy dog\n
3.713	0.072	7426	keystroke_t	t	n/a
3.8	0.135	7600	keystroke_h	h	n/a
3.95	0.135	7900	keystroke_e	e	n/a
4.07	0.12	8140	keystroke_Key.space	Key.space	n/a
4.235	0.13	8470	keystroke_q	q	n/a
4.351	0.1335	8702	keystroke_u	u	n/a
4.4095	0.105	8819	keystroke_i	i	n/a
4.5145	0.135	9029	keystroke_c	c	n/a
4.6505	0.179	9301	keystroke_k	k	n/a
4.7695	0.105	9539	keystroke_Key.space	Key.space	n/a
5.2505	0.09	10501	keystroke_b	b	n/a
5.4605	0.12	10921	keystroke_r	r	n/a
5.5655	0.12	11131	keystroke_o	o	n/a
5.6865	0.074	11373	keystroke_w	w	n/a
5.7905	0.105	11581	keystroke_n	n	n/a
5.8505	0.135	11701	keystroke_Key.space	Key.space	n/a
6.2555	0.09	12511	keystroke_f	f	n/a
6.3605	0.1195	12721	keystroke_o	o	n/a
6.645	0.105	13290	keystroke_x	x	n/a
6.7945	0.151	13589	keystroke_Key.space	Key.space	n/a
6.9605	0.09	13921	keystroke_j	j	n/a
7.1555	0.075	14311	keystroke_u	u	n/a
7.3655	0.119	14731	keystroke_m	m	n/a
7.4395	0.12	14879	keystroke_p	p	n/a
7.5745	0.135	15149	keystroke_s	s	n/a
7.7395	0.105	15479	keystroke_o	o	n/a
7.8745	0.18	15749	keystroke_Key.space	Key.space	n/a
8.3245	0.06	16649	keystroke_Key.backspace	Key.backspace	n/a
8.4595	0.09	16919	keystroke_Key.backspace	Key.backspace	n/a
8.5795	0.135	17159	keystroke_Key.space	Key.space	n/a
8.7295	0.135	17459	keystroke_o	o	n/a
8.8795	0.105	17759	keystroke_v	v	n/a
8.9545	0.211	17909	keystroke_e	e	n/a
9.1195	0.15	18239	keystroke_r	r	n/a
9.2095	0.12	18419	keystroke_Key.space	Key.space	n/a
9.525	0.1045	19050	keystroke_a	a	n/a
9.6145	0.12	19229	keystroke_Key.space	Key.space	n/a
9.8845	0.12	19769	keystroke_l	l	n/a
9.9595	0.09	19919	keystroke_a	a	n/a
10.1995	0.12	20399	keystroke_z	z	n/a
10.3045	0.12	20609	keystroke_y	y	n/a
10.3795	0.1345	20759	keystroke_Key.space	Key.space	n/a
10.65	0.12	21300	keystroke_d	d	n/a
10.7555	0.105	21511	keystroke_o	o	n/a
10.8755	0.12	21751	keystroke_g	g	n/a
11.0405	0.104	22081	keystroke_Key.enter	Key.enter	n/a
11.1545	5.903	22309	prompt	n/a	save catch highs belle\n
11.895	0.105	23790	keystroke_e	e	n/a
12.195	0.075	24390	keystroke_Key.backspace	Key.backspace	n/a
12.285	0.075	24570	keystroke_s	s	n/a
12.345	0.18	24690	keystroke_a	a	n/a
12.51	0.12	25020	keystroke_v	v	n/a
12.57	0.135	25140	keystroke_e	e	n/a
12.72	0.12	25440	keystroke_Key.space	Key.space	n/a
13.035	0.105	26070	keystroke_c	c	n/a
13.155	0.075	26310	keystroke_h	h	n/a
13.215	0.12	26430	keystroke_a	a	n/a
13.485	0.06	26970	keystroke_Key.backspace	Key.backspace	n/a
13.62	0.09	27240	keystroke_Key.backspace	Key.backspace	n/a
13.74	0.075	27480	keystroke_t	t	n/a
13.8	0.12	27600	keystroke_a	a	n/a
14.355	0.06	28710	keystroke_Key.backspace	Key.backspace	n/a
14.49	0.09	28980	keystroke_Key.backspace	Key.backspace	n/a
14.536	0.134	29072	keystroke_a	a	n/a
14.625	0.075	29250	keystroke_t	t	n/a
14.82	0.135	29640	keystroke_c	c	n/a
14.955	0.12	29910	keystroke_h	h	n/a
15.015	0.135	30030	keystroke_Key.space	Key.space	n/a
15.27	0.12	30540	keystroke_h	h	n/a
15.33	0.1355	30660	keystroke_i	i	n/a
15.4505	0.105	30901	keystroke_g	g	n/a
15.5405	0.105	31081	keystroke_h	h	n/a
15.8405	0.09	31681	keystroke_s	s	n/a
15.9755	0.09	31951	keystroke_Key.space	Key.space	n/a
16.2755	0.09	32551	keystroke_b	b	n/a
16.3505	0.12	32701	keystroke_e	e	n/a
16.4555	0.09	32911	keystroke_l	l	n/a
16.6205	0.105	33241	keystroke_l	l	n/a
16.7705	0.105	33541	keystroke_e	e	n/a
16.9655	0.09	33931	keystroke_Key.enter	Key.enter	n/a
17.0635	15.3385	34127	prompt	n/a	associate personalized occasions shouldn't've\n
17.9105	0.075	35821	keystroke_s	s	n/a
18.4055	0.105	36811	keystroke_c	c	n/a
18.6305	0.015	37261	keystroke_c	c	n/a
18.8405	0.059	37681	keystroke_Key.backspace	Key.backspace	n/a
18.9905	0.06	37981	keystroke_Key.backspace	Key.backspace	n/a
19.1105	0.105	38221	keystroke_Key.backspace	Key.backspace	n/a
19.2455	0.12	38491	keystroke_a	a	n/a
19.4245	0.075	38849	keystroke_s	s	n/a
19.5605	0.104	39121	keystroke_s	s	n/a
19.6805	0.105	39361	keystroke_o	o	n/a
19.7995	0.121	39599	keystroke_c	c	n/a
19.9355	0.104	39871	keystroke_i	i	n/a
20.0705	0.135	40141	keystroke_a	a	n/a
20.1905	0.12	40381	keystroke_t	t	n/a
20.2955	0.074	40591	keystroke_e	e	n/a
20.4595	0.121	40919	keystroke_Key.space	Key.space	n/a
20.6255	0.12	41251	keystroke_p	p	n/a
20.7605	0.105	41521	keystroke_e	e	n/a
20.8205	0.105	41641	keystroke_r	r	n/a
21.0455	0.12	42091	keystroke_s	s	n/a
21.2105	0.1195	42421	keystroke_o	o	n/a
21.285	0.1505	42570	keystroke_n	n	n/a
21.4365	0.1335	42873	keystroke_a	a	n/a
21.54	0.15	43080	keystroke_l	l	n/a
21.645	0.15	43290	keystroke_i	i	n/a
22.02	0.105	44040	keystroke_z	z	n/a
22.3495	0.075	44699	keystroke_Key.backspace	Key.backspace	n/a
22.4255	0.06	44851	keystroke_e	e	n/a
22.605	0.09	45210	keystroke_d	d	n/a
22.755	0.135	45510	keystroke_Key.space	Key.space	n/a
23.145	0.09	46290	keystroke_o	o	n/a
24.5405	0.105	49081	keystroke_Key.backspace	Key.backspace	n/a
24.7505	0.075	49501	keystroke_Key.backspace	Key.backspace	n/a
24.9455	0.0745	49891	keystroke_Key.backspace	Key.backspace	n/a
25.68	0.105	51360	keystroke_l	l	n/a
25.9955	0.06	51991	keystroke_Key.backspace	Key.backspace	n/a
26.1155	0.135	52231	keystroke_a	a	n/a
26.2205	0.18	52441	keystroke_l	l	n/a
26.3255	0.15	52651	keystroke_i	i	n/a
26.6105	0.165	53221	keystroke_z	z	n/a
26.7605	0.09	53521	keystroke_e	e	n/a
26.9555	0.12	53911	keystroke_d	d	n/a
27.1355	0.135	54271	keystroke_Key.space	Key.space	n/a
27.5255	0.119	55051	keystroke_o	o	n/a
27.72	0.0905	55440	keystroke_a	a	n/a
28.0345	0.075	56069	keystroke_Key.backspace	Key.backspace	n/a
28.0955	0.135	56191	keystroke_c	c	n/a
28.3495	0.12	56699	keystroke_c	c	n/a
28.5895	0.135	57179	keystroke_a	a	n/a
29.0555	0.105	58111	keystroke_s	s	n/a
29.1605	0.119	58321	keystroke_i	i	n/a
29.2655	0.1945	58531	keystroke_o	o	n/a
29.3245	0.151	58649	keystroke_n	n	n/a
29.4445	0.106	58889	keystroke_s	s	n/a
29.6245	0.12	59249	keystroke_Key.space	Key.space	n/a
29.8495	0.121	59699	keystroke_s	s	n/a
29.9405	0.075	59881	keystroke_h	h	n/a
30.0005	0.15	60001	keystroke_o	o	n/a
30.1355	0.12	60271	keystroke_u	u	n/a
30.2405	0.18	60481	keystroke_l	l	n/a
30.4355	0.1195	60871	keystroke_d	d	n/a
30.69	0.165	61380	keystroke_n	n	n/a
30.825	0.15	61650	keystroke_'	'	n/a
31.11	0.075	62220	keystroke_t	t	n/a
31.7555	0.12	63511	keystroke_'	'	n/a
32.0105	0.105	64021	keystroke_v	v	n/a
32.1005	0.135	64201	keystroke_e	e	n/a
32.2955	0.105	64591	keystroke_Key.enter	Key.enter	n/a
32.407	6.895	64814	prompt	n/a	editing neck dresses humanity\n
33.1355	0.06	66271	keystroke_d	d	n/a
33.2855	0.075	66571	keystroke_e	e	n/a
33.8845	0.06	67769	keystroke_Key.backspace	Key.backspace	n/a
34.0045	0.105	68009	keystroke_Key.backspace	Key.backspace	n/a
34.0655	0.074	68131	keystroke_e	e	n/a
34.2445	0.091	68489	keystroke_d	d	n/a
34.3505	0.075	68701	keystroke_i	i	n/a
34.4555	0.074	68911	keystroke_t	t	n/a
34.5445	0.135	69089	keystroke_i	i	n/a
34.6355	0.15	69271	keystroke_n	n	n/a
34.7855	0.104	69571	keystroke_g	g	n/a
34.8445	0.12	69689	keystroke_Key.space	Key.space	n/a
34.9945	0.136	69989	keystroke_n	n	n/a
35.0855	0.09	70171	keystroke_e	e	n/a
35.3105	0.12	70621	keystroke_c	c	n/a
35.58	0.15	71160	keystroke_k	k	n/a
35.67	0.135	71340	keystroke_Key.space	Key.space	n/a
36.045	0.12	72090	keystroke_d	d	n/a
36.27	0.12	72540	keystroke_r	r	n/a
36.345	0.135	72690	keystroke_e	e	n/a
36.585	0.06	73170	keystroke_s	s	n/a
36.735	0.135	73470	keystroke_s	s	n/a
36.855	0.15	73710	keystroke_e	e	n/a
37.17	0.255	74340	keystroke_s	s	n/a
37.5	0.105	75000	keystroke_Key.space	Key.space	n/a
37.59	0.135	75180	keystroke_h	h	n/a
37.8	0.09	75600	keystroke_u	u	n/a
38.31	0.105	76620	keystroke_m	m	n/a
38.46	0.135	76920	keystroke_a	a	n/a
38.565	0.12	77130	keystroke_n	n	n/a
38.73	0.135	77460	keystroke_i	i	n/a
38.865	0.12	77730	keystroke_t	t	n/a
38.985	0.09	77970	keystroke_y	y	n/a
39.21	0.09	78420	keystroke_Key.enter	Key.enter	n/a
39.307	10.105	78614	prompt	n/a	testimony obligations corner pointer\n
40.1255	0.12	80251	keystroke_t	t	n/a
40.2005	0.149	80401	keystroke_e	e	n/a
40.2905	0.15	80581	keystroke_s	s	n/a
40.3945	0.136	80789	keystroke_t	t	n/a
40.5155	0.135	81031	keystroke_i	i	n/a
40.6055	0.165	81211	keystroke_m	m	n/a
40.7555	0.15	81511	keystroke_o	o	n/a
40.8755	0.135	81751	keystroke_n	n	n/a
41.2355	0.12	82471	keystroke_y	y	n/a
41.3255	0.12	82651	keystroke_Key.space	Key.space	n/a
41.8505	0.075	83701	keystroke_o	o	n/a
42.0005	0.135	84001	keystroke_b	b	n/a
42.1055	0.165	84211	keystroke_l	l	n/a
42.2105	0.15	84421	keystroke_i	i	n/a
42.4955	0.105	84991	keystroke_g	g	n/a
42.6305	0.105	85261	keystroke_a	a	n/a
42.7205	0.135	85441	keystroke_t	t	n/a
42.8105	0.105	85621	keystroke_i	i	n/a
42.8855	0.165	85771	keystroke_o	o	n/a
42.9305	0.165	85861	keystroke_n	n	n/a
43.0805	0.105	86161	keystroke_s	s	n/a
43.2155	0.12	86431	keystroke_Key.space	Key.space	n/a
43.4855	0.105	86971	keystroke_c	c	n/a
43.5605	0.18	87121	keystroke_o	o	n/a
43.6805	0.1045	87361	keystroke_n	n	n/a
43.77	0.135	87540	keystroke_r	r	n/a
43.996	0.104	87992	keystroke_n	n	n/a
44.955	0.165	89910	keystroke_e	e	n/a
45.0905	0.1495	90181	keystroke_r	r	n/a
46.0945	0.06	92189	keystroke_Key.backspace	Key.backspace	n/a
46.2445	0.075	92489	keystroke_Key.backspace	Key.backspace	n/a
46.4105	0.074	92821	keystroke_Key.backspace	Key.backspace	n/a
46.5905	0.045	93181	keystroke_Key.backspace	Key.backspace	n/a
46.7245	0.09	93449	keystroke_Key.backspace	Key.backspace	n/a
47.1305	0.164	94261	keystroke_r	r	n/a
47.3405	0.1645	94681	keystroke_n	n	n/a
47.61	0.135	95220	keystroke_e	e	n/a
47.685	0.15	95370	keystroke_r	r	n/a
47.925	0.135	95850	keystroke_Key.space	Key.space	n/a
48.345	0.165	96690	keystroke_p	p	n/a
48.45	0.135	96900	keystroke_o	o	n/a
48.69	0.15	97380	keystroke_i	i	n/a
48.795	0.15	97590	keystroke_n	n	n/a
48.93	0.105	97860	keystroke_t	t	n/a
49.02	0.18	98040	keystroke_e	e	n/a
49.14	0.15	98280	keystroke_r	r	n/a
49.305	0.105	98610	keystroke_Key.enter	Key.enter	n/a
49.4185	13.526	98837	prompt	n/a	weren't folder robert herein\n
50.205	0.135	100410	keystroke_w	w	n/a
50.325	0.12	100650	keystroke_e	e	n/a
50.43	0.165	100860	keystroke_r	r	n/a
50.55	0.09	101100	keystroke_e	e	n/a
50.79	0.09	101580	keystroke_n	n	n/a
50.895	0.105	101790	keystroke_'	'	n/a
50.985	0.105	101970	keystroke_t	t	n/a
51.21	0.135	102420	keystroke_Key.space	Key.space	n/a
51.615	0.12	103230	keystroke_d	d	n/a
51.75	0.105	103500	keystroke_o	o	n/a
51.945	0.105	103890	keystroke_l	l	n/a
52.065	0.12	104130	keystroke_f	f	n/a
52.365	0.06	104730	keystroke_Key.backspace	Key.backspace	n/a
52.515	0.075	105030	keystroke_Key.backspace	Key.backspace	n/a
52.665	0.06	105330	keystroke_Key.backspace	Key.backspace	n/a
52.815	0.075	105630	keystroke_Key.backspace	Key.backspace	n/a
52.891	0.134	105782	keystroke_f	f	n/a
53.04	0.075	106080	keystroke_o	o	n/a
53.205	0.105	106410	keystroke_l	l	n/a
53.265	0.075	106530	keystroke_d	d	n/a
53.46	0.1205	106920	keystroke_e	e	n/a
53.5355	0.12	107071	keystroke_r	r	n/a
53.6705	0.15	107341	keystroke_Key.space	Key.space	n/a
54.0605	0.045	108121	keystroke_r	r	n/a
54.0755	0.12	108151	keystroke_o	o	n/a
54.3755	0.03	108751	keystroke_b	b	n/a
54.4505	0.045	108901	keystroke_e	e	n/a
54.6005	0.165	109201	keystroke_e	e	n/a
54.7205	0.135	109441	keystroke_r	r	n/a
55.0505	0.09	110101	keystroke_Key.backspace	Key.backspace	n/a
55.1855	0.09	110371	keystroke_Key.backspace	Key.backspace	n/a
55.3205	0.09	110641	keystroke_r	r	n/a
55.53	0.09	111060	keystroke_t	t	n/a
55.7255	0.104	111451	keystroke_Key.space	Key.space	n/a
55.9645	0.105	111929	keystroke_h	h	n/a
56.1145	0.18	112229	keystroke_e	e	n/a
56.3405	0.164	112681	keystroke_r	r	n/a
59.2385	0.027	118477	keystroke_Key.backspace	Key.backspace	n/a
59.3405	0.075	118681	keystroke_Key.backspace	Key.backspace	n/a
59.5055	0.074	119011	keystroke_Key.backspace	Key.backspace	n/a
59.6995	0.061	119399	keystroke_Key.backspace	Key.backspace	n/a
60.63	0.135	121260	keystroke_Key.space	Key.space	n/a
61.29	0.105	122580	keystroke_h	h	n/a
61.41	0.1655	122820	keystroke_e	e	n/a
61.7555	0.15	123511	keystroke_r	r	n/a
62.0105	0.135	124021	keystroke_e	e	n/a
62.3855	0.09	124771	keystroke_i	i	n/a
62.6255	0.12	125251	keystroke_n	n	n/a
62.8655	0.075	125731	keystroke_Key.enter	Key.enter	n/a
62.9505	6.382	125901	prompt	n/a	diary qualifying holding variation\n
63.6005	0.12	127201	keystroke_d	d	n/a
63.6905	0.12	127381	keystroke_i	i	n/a
63.8405	0.105	127681	keystroke_a	a	n/a
64.0055	0.135	128011	keystroke_r	r	n/a
64.1555	0.135	128311	keystroke_y	y	n/a
64.2455	0.165	128491	keystroke_Key.space	Key.space	n/a
64.6205	0.075	129241	keystroke_q	q	n/a
64.7255	0.105	129451	keystroke_u	u	n/a
64.9055	0.15	129811	keystroke_a	a	n/a
65.2055	0.195	130411	keystroke_l	l	n/a
65.6105	0.135	131221	keystroke_i	i	n/a
65.7605	0.15	131521	keystroke_f	f	n/a
65.9705	0.045	131941	keystroke_y	y	n/a
66.1805	0.225	132361	keystroke_i	i	n/a
66.3305	0.165	132661	keystroke_n	n	n/a
66.4805	0.09	132961	keystroke_g	g	n/a
66.6155	0.12	133231	keystroke_Key.space	Key.space	n/a
66.9455	0.135	133891	keystroke_h	h	n/a
67.0055	0.105	134011	keystroke_o	o	n/a
67.1855	0.12	134371	keystroke_l	l	n/a
67.2755	0.135	134551	keystroke_d	d	n/a
67.4255	0.164	134851	keystroke_i	i	n/a
67.4855	0.179	134971	keystroke_n	n	n/a
67.6045	0.106	135209	keystroke_g	g	n/a
67.6795	0.15	135359	keystroke_Key.space	Key.space	n/a
67.9795	0.15	135959	keystroke_v	v	n/a
68.1445	0.136	136289	keystroke_a	a	n/a
68.4305	0.135	136861	keystroke_r	r	n/a
68.5665	0.119	137133	keystroke_i	i	n/a
68.6995	0.136	137399	keystroke_a	a	n/a
68.8195	0.106	137639	keystroke_t	t	n/a
68.9105	0.12	137821	keystroke_i	i	n/a
69.0005	0.104	138001	keystroke_o	o	n/a
69.0455	0.18	138091	keystroke_n	n	n/a
69.2405	0.089	138481	keystroke_Key.enter	Key.enter	n/a
69.3445	9.9475	138689	prompt	n/a	sentences alfred derek open\n
70.125	0.105	140250	keystroke_s	s	n/a
70.185	0.12	140370	keystroke_e	e	n/a
70.245	0.12	140490	keystroke_n	n	n/a
70.38	0.1355	140760	keystroke_t	t	n/a
70.5755	0.12	141151	keystroke_e	e	n/a
70.8305	0.12	141661	keystroke_n	n	n/a
70.9355	0.105	141871	keystroke_c	c	n/a
71.1605	0.12	142321	keystroke_e	e	n/a
71.595	0.1055	143190	keystroke_s	s	n/a
71.7905	0.135	143581	keystroke_Key.space	Key.space	n/a
72.0605	0.135	144121	keystroke_a	a	n/a
72.2255	0.135	144451	keystroke_f	f	n/a
72.6455	0.06	145291	keystroke_Key.backspace	Key.backspace	n/a
72.8405	0.15	145681	keystroke_l	l	n/a
73.0205	0.0895	146041	keystroke_f	f	n/a
73.2155	0.12	146431	keystroke_r	r	n/a
73.3055	0.0895	146611	keystroke_e	e	n/a
73.5155	0.09	147031	keystroke_d	d	n/a
73.6355	0.135	147271	keystroke_Key.space	Key.space	n/a
73.8905	0.105	147781	keystroke_d	d	n/a
74.1155	0.12	148231	keystroke_e	e	n/a
74.3705	0.165	148741	keystroke_r	r	n/a
74.4905	0.105	148981	keystroke_e	e	n/a
74.7455	0.15	149491	keystroke_c	c	n/a
74.9105	0.195	149821	keystroke_k	k	n/a
75.0605	0.105	150121	keystroke_Key.space	Key.space	n/a
76.1555	0.06	152311	keystroke_Key.backspace	Key.backspace	n/a
76.3055	0.06	152611	keystroke_Key.backspace	Key.backspace	n/a
76.4405	0.0745	152881	keystroke_Key.backspace	Key.backspace	n/a
76.7105	0.165	153421	keystroke_k	k	n/a
76.83	0.12	153660	keystroke_Key.space	Key.space	n/a
78.0455	0.135	156091	keystroke_o	o	n/a
78.1505	0.15	156301	keystroke_p	p	n/a
78.2855	0.12	156571	keystroke_e	e	n/a
78.4205	0.135	156841	keystroke_n	n	n/a
79.1855	0.104	158371	keystroke_Key.enter	Key.enter	n/a
79.2975	7.074	158595	prompt	n/a	breathing modems customized beth\n
80.0105	0.089	160021	keystroke_b	b	n/a
80.2355	0.134	160471	keystroke_r	r	n/a
80.3095	0.135	160619	keystroke_e	e	n/a
80.625	0.12	161250	keystroke_a	a	n/a
80.73	0.12	161460	keystroke_t	t	n/a
80.88	0.135	161760	keystroke_h	h	n/a
81.015	0.15	162030	keystroke_i	i	n/a
81.105	0.15	162210	keystroke_n	n	n/a
81.24	0.075	162480	keystroke_g	g	n/a
81.315	0.135	162630	keystroke_Key.space	Key.space	n/a
81.555	0.1205	163110	keystroke_m	m	n/a
81.6305	0.165	163261	keystroke_o	o	n/a
81.7805	0.09	163561	keystroke_d	d	n/a
82.0055	0.105	164011	keystroke_e	e	n/a
82.0655	0.15	164131	keystroke_r	r	n/a
82.5305	0.105	165061	keystroke_Key.backspace	Key.backspace	n/a
82.7555	0.12	165511	keystroke_m	m	n/a
83.0105	0.135	166021	keystroke_s	s	n/a
83.1605	0.12	166321	keystroke_Key.space	Key.space	n/a
83.715	0.135	167430	keystroke_c	c	n/a
83.835	0.105	167670	keystroke_u	u	n/a
83.955	0.105	167910	keystroke_s	s	n/a
84.09	0.12	168180	keystroke_t	t	n/a
84.18	0.135	168360	keystroke_o	o	n/a
84.255	0.15	168510	keystroke_m	m	n/a
84.48	0.135	168960	keystroke_i	i	n/a
84.87	0.12	169740	keystroke_z	z	n/a
85.005	0.105	170010	keystroke_e	e	n/a
85.23	0.075	170460	keystroke_d	d	n/a
85.32	0.12	170640	keystroke_Key.space	Key.space	n/a
85.6195	0.106	171239	keystroke_b	b	n/a
85.7405	0.12	171481	keystroke_e	e	n/a
85.9055	0.12	171811	keystroke_t	t	n/a
86.0555	0.12	172111	keystroke_h	h	n/a
86.2805	0.089	172561	keystroke_Key.enter	Key.enter	n/a
86.3835	4.3685	172767	prompt	n/a	thing inserted small singer\n
87.0905	0.09	174181	keystroke_t	t	n/a
87.1355	0.12	174271	keystroke_h	h	n/a
87.2105	0.18	174421	keystroke_i	i	n/a
87.3455	0.135	174691	keystroke_n	n	n/a
87.4505	0.09	174901	keystroke_g	g	n/a
87.5555	0.1345	175111	keystroke_Key.space	Key.space	n/a
87.69	0.18	175380	keystroke_i	i	n/a
87.765	0.15	175530	keystroke_n	n	n/a
88.065	0.135	176130	keystroke_s	s	n/a
88.185	0.15	176370	keystroke_e	e	n/a
88.305	0.105	176610	keystroke_r	r	n/a
88.545	0.12	177090	keystroke_t	t	n/a
88.68	0.09	177360	keystroke_e	e	n/a
88.89	0.105	177780	keystroke_d	d	n/a
89.04	0.105	178080	keystroke_Key.space	Key.space	n/a
89.31	0.105	178620	keystroke_s	s	n/a
89.4	0.12	178800	keystroke_m	m	n/a
89.505	0.1655	179010	keystroke_a	a	n/a
89.6555	0.0745	179311	keystroke_l	l	n/a
89.8055	0.1345	179611	keystroke_l	l	n/a
89.88	0.105	179760	keystroke_Key.space	Key.space	n/a
90.0155	0.1045	180031	keystroke_s	s	n/a
90.165	0.12	180330	keystroke_i	i	n/a
90.195	0.15	180390	keystroke_n	n	n/a
90.315	0.075	180630	keystroke_g	g	n/a
90.4205	0.1795	180841	keystroke_e	e	n/a
90.54	0.15	181080	keystroke_r	r	n/a
90.645	0.105	181290	keystroke_Key.enter	Key.enter	n/a
90.756	7.5105	181512	prompt	n/a	carolina redeem crucial vaccine\n
91.41	0.165	182820	keystroke_c	c	n/a
91.605	0.1045	183210	keystroke_a	a	n/a
91.8605	0.15	183721	keystroke_r	r	n/a
91.9945	0.091	183989	keystroke_o	o	n/a
92.2355	0.15	184471	keystroke_l	l	n/a
92.3555	0.134	184711	keystroke_i	i	n/a
92.4155	0.165	184831	keystroke_n	n	n/a
92.5655	0.105	185131	keystroke_e	e	n/a
92.9545	0.045	185909	keystroke_Key.backspace	Key.backspace	n/a
93.0445	0.166	186089	keystroke_a	a	n/a
93.2245	0.15	186449	keystroke_Key.space	Key.space	n/a
93.7655	0.12	187531	keystroke_r	r	n/a
93.8405	0.105	187681	keystroke_e	e	n/a
94.0955	0.075	188191	keystroke_d	d	n/a
94.2905	0.105	188581	keystroke_e	e	n/a
94.5005	0.105	189001	keystroke_e	e	n/a
94.6355	0.15	189271	keystroke_m	m	n/a
94.7695	0.15	189539	keystroke_Key.space	Key.space	n/a
95.2055	0.09	190411	keystroke_c	c	n/a
95.4155	0.089	190831	keystroke_r	r	n/a
95.535	0.09	191070	keystroke_u	u	n/a
95.745	0.0895	191490	keystroke_s	s	n/a
95.8795	0.075	191759	keystroke_i	i	n/a
96.1195	0.0605	192239	keystroke_Key.backspace	Key.backspace	n/a
96.2095	0.075	192419	keystroke_Key.backspace	Key.backspace	n/a
96.2545	0.12	192509	keystroke_c	c	n/a
96.6745	0.075	193349	keystroke_i	i	n/a
96.8095	0.135	193619	keystroke_a	a	n/a
96.9295	0.135	193859	keystroke_l	l	n/a
97.0045	0.135	194009	keystroke_Key.space	Key.space	n/a
97.2745	0.15	194549	keystroke_v	v	n/a
97.3795	0.075	194759	keystroke_a	a	n/a
97.5745	0.076	195149	keystroke_c	c	n/a
97.7245	0.09	195449	keystroke_c	c	n/a
97.8295	0.135	195659	keystroke_i	i	n/a
97.9055	0.149	195811	keystroke_n	n	n/a
98.0095	0.151	196019	keystroke_e	e	n/a
98.1755	0.089	196351	keystroke_Key.enter	Key.enter	n/a
98.272	7.0445	196544	prompt	n/a	fifty burns suffer recruitment\n
98.9255	0.119	197851	keystroke_f	f	n/a
99.0305	0.105	198061	keystroke_i	i	n/a
99.3145	0.015	198629	keystroke_t	t	n/a
99.8105	0.074	199621	keystroke_Key.backspace	Key.backspace	n/a
100.1105	0.105	200221	keystroke_f	f	n/a
100.3505	0.105	200701	keystroke_t	t	n/a
100.485	0.15	200970	keystroke_y	y	n/a
100.59	0.15	201180	keystroke_Key.space	Key.space	n/a
100.89	0.09	201780	keystroke_b	b	n/a
100.965	0.105	201930	keystroke_u	u	n/a
101.115	0.09	202230	keystroke_r	r	n/a
101.235	0.12	202470	keystroke_n	n	n/a
101.37	0.15	202740	keystroke_s	s	n/a
101.535	0.15	203070	keystroke_Key.space	Key.space	n/a
101.8195	0.045	203639	keystroke_d	d	n/a
101.9395	0.165	203879	keystroke_s	s	n/a
102.1795	0.075	204359	keystroke_Key.backspace	Key.backspace	n/a
102.3145	0.135	204629	keystroke_Key.backspace	Key.backspace	n/a
102.4345	0.12	204869	keystroke_s	s	n/a
102.5395	0.105	205079	keystroke_u	u	n/a
102.6295	0.09	205259	keystroke_f	f	n/a
102.8245	0.105	205649	keystroke_f	f	n/a
102.9145	0.15	205829	keystroke_e	e	n/a
103.0345	0.135	206069	keystroke_r	r	n/a
103.1845	0.15	206369	keystroke_Key.space	Key.space	n/a
103.4845	0.12	206969	keystroke_r	r	n/a
103.5595	0.12	207119	keystroke_e	e	n/a
103.815	0.09	207630	keystroke_c	c	n/a
104.01	0.12	208020	keystroke_r	r	n/a
104.145	0.105	208290	keystroke_u	u	n/a
104.175	0.15	208350	keystroke_i	i	n/a
104.28	0.09	208560	keystroke_t	t	n/a
104.715	0.105	209430	keystroke_m	m	n/a
104.805	0.12	209610	keystroke_e	e	n/a
104.955	0.105	209910	keystroke_n	n	n/a
105.045	0.12	210090	keystroke_t	t	n/a
105.255	0.06	210510	keystroke_Key.enter	Key.enter	n/a
105.3235	6.9225	210647	prompt	n/a	arabic o'er nested wifi\n
106.02	0.12	212040	keystroke_a	a	n/a
106.2	0.105	212400	keystroke_r	r	n/a
106.44	0.09	212880	keystroke_a	a	n/a
106.665	0.09	213330	keystroke_b	b	n/a
106.7845	0.12	213569	keystroke_i	i	n/a
106.9195	0.135	213839	keystroke_c	c	n/a
107.085	0.09	214170	keystroke_Key.space	Key.space	n/a
107.28	0.105	214560	keystroke_o	o	n/a
107.5795	0.135	215159	keystroke_'	'	n/a
107.805	0.1345	215610	keystroke_e	e	n/a
107.9095	0.15	215819	keystroke_r	r	n/a
108.9445	0.105	217889	keystroke_Key.space	Key.space	n/a
109.3645	0.105	218729	keystroke_n	n	n/a
109.4705	0.164	218941	keystroke_e	e	n/a
109.7995	0.135	219599	keystroke_s	s	n/a
109.8895	0.12	219779	keystroke_t	t	n/a
110.1145	0.09	220229	keystroke_e	e	n/a
110.3245	0.136	220649	keystroke_d	d	n/a
110.565	0.12	221130	keystroke_Key.space	Key.space	n/a
110.745	0.09	221490	keystroke_w	w	n/a
110.895	0.12	221790	keystroke_i	i	n/a
111.03	0.12	222060	keystroke_f	f	n/a
111.195	0.12	222390	keystroke_i	i	n/a
111.33	0.105	222660	keystroke_t	t	n/a
111.8695	0.075	223739	keystroke_Key.backspace	Key.backspace	n/a
112.1545	0.09	224309	keystroke_Key.enter	Key.enter	n/a
112.2515	9.22	224503	prompt	n/a	bracelet gabriel racing nerve\n
113.2195	0.075	226439	keystroke_v	v	n/a
113.8345	0.075	227669	keystroke_Key.backspace	Key.backspace	n/a
114.0145	0.15	228029	keystroke_c	c	n/a
114.5095	0.105	229019	keystroke_Key.backspace	Key.backspace	n/a
114.5995	0.06	229199	keystroke_b	b	n/a
114.8095	0.12	229619	keystroke_r	r	n/a
115.2895	0.105	230579	keystroke_a	a	n/a
115.53	0.1055	231060	keystroke_c	c	n/a
115.755	0.0895	231510	keystroke_e	e	n/a
116.2805	0.134	232561	keystroke_l	l	n/a
116.4295	0.165	232859	keystroke_e	e	n/a
116.5495	0.15	233099	keystroke_t	t	n/a
116.8045	0.12	233609	keystroke_Key.space	Key.space	n/a
117.3145	0.12	234629	keystroke_g	g	n/a
117.4195	0.09	234839	keystroke_a	a	n/a
117.6445	0.06	235289	keystroke_b	b	n/a
117.825	0.12	235650	keystroke_r	r	n/a
117.93	0.105	235860	keystroke_i	i	n/a
118.065	0.135	236130	keystroke_e	e	n/a
118.23	0.165	236460	keystroke_l	l	n/a
118.5	0.15	237000	keystroke_Key.space	Key.space	n/a
118.98	0.12	237960	keystroke_r	r	n/a
119.07	0.09	238140	keystroke_a	a	n/a
119.265	0.135	238530	keystroke_c	c	n/a
119.385	0.18	238770	keystroke_i	i	n/a
119.46	0.18	238920	keystroke_n	n	n/a
119.58	0.135	239160	keystroke_g	g	n/a
119.94	0.134	239880	keystroke_Key.space	Key.space	n/a
120.5845	0.015	241169	keystroke_n	n	n/a
120.7945	0.12	241589	keystroke_e	e	n/a
120.8695	0.105	241739	keystroke_r	r	n/a
121.1095	0.12	242219	keystroke_v	v	n/a
121.1995	0.21	242399	keystroke_e	e	n/a
121.3645	0.105	242729	keystroke_Key.enter	Key.enter	n/a
121.477	8.889	242954	prompt	n/a	loading expanded quarters enemy\n
122.0995	0.106	244199	keystroke_l	l	n/a
122.2945	0.135	244589	keystroke_o	o	n/a
122.3695	0.12	244739	keystroke_a	a	n/a
122.4745	0.165	244949	keystroke_d	d	n/a
122.5945	0.165	245189	keystroke_i	i	n/a
122.6695	0.135	245339	keystroke_n	n	n/a
122.8055	0.075	245611	keystroke_g	g	n/a
122.8645	0.135	245729	keystroke_Key.space	Key.space	n/a
123.0305	0.105	246061	keystroke_e	e	n/a
123.2555	0.135	246511	keystroke_x	x	n/a
123.4345	0.105	246869	keystroke_p	p	n/a
123.5245	0.12	247049	keystroke_a	a	n/a
123.6595	0.105	247319	keystroke_n	n	n/a
123.7655	0.1045	247531	keystroke_d	d	n/a
123.975	0.075	247950	keystroke_e	e	n/a
124.185	0.09	248370	keystroke_d	d	n/a
124.35	0.149	248700	keystroke_Key.space	Key.space	n/a
124.77	0.09	249540	keystroke_q	q	n/a
124.845	0.105	249690	keystroke_u	u	n/a
125.025	0.15	250050	keystroke_a	a	n/a
125.205	0.135	250410	keystroke_t	t	n/a
125.415	0.1495	250830	keystroke_e	e	n/a
125.5345	0.135	251069	keystroke_r	r	n/a
126.629	0.06	253258	keystroke_Key.backspace	Key.backspace	n/a
126.764	0.075	253528	keystroke_Key.backspace	Key.backspace	n/a
126.899	0.105	253798	keystroke_Key.backspace	Key.backspace	n/a
126.975	0.105	253950	keystroke_r	r	n/a
127.244	0.121	254488	keystroke_t	t	n/a
127.349	0.166	254698	keystroke_e	e	n/a
127.484	0.121	254968	keystroke_r	r	n/a
127.649	0.241	255298	keystroke_s	s	n/a
127.875	0.12	255750	keystroke_Key.space	Key.space	n/a
128.2045	0.135	256409	keystroke_e	e	n/a
128.3695	0.12	256739	keystroke_n	n	n/a
128.5495	0.1655	257099	keystroke_e	e	n/a
129.7645	0.1055	259529	keystroke_m	m	n/a
130.005	0.12	260010	keystroke_y	y	n/a
130.275	0.09	260550	keystroke_Key.enter	Key.enter	n/a
130.373	9.8335	260746	prompt	n/a	communication transform essence voice\n
131.1745	0.165	262349	keystroke_c	c	n/a
131.2645	0.135	262529	keystroke_o	o	n/a
131.3845	0.21	262769	keystroke_m	m	n/a
131.6845	0.045	263369	keystroke_m	m	n/a
132.1345	0.0755	264269	keystroke_u	u	n/a
132.3445	0.12	264689	keystroke_n	n	n/a
132.4345	0.12	264869	keystroke_i	i	n/a
132.5095	0.06	265019	keystroke_c	c	n/a
132.5695	0.18	265139	keystroke_a	a	n/a
132.7045	0.15	265409	keystroke_t	t	n/a
132.7945	0.135	265589	keystroke_i	i	n/a
132.8995	0.165	265799	keystroke_o	o	n/a
132.9295	0.165	265859	keystroke_n	n	n/a
133.2445	0.135	266489	keystroke_Key.space	Key.space	n/a
133.4995	0.12	266999	keystroke_f	f	n/a
133.7245	0.06	267449	keystroke_r	r	n/a
133.9195	0.075	267839	keystroke_Key.backspace	Key.backspace	n/a
134.0995	0.09	268199	keystroke_Key.backspace	Key.backspace	n/a
134.1745	0.106	268349	keystroke_t	t	n/a
134.3545	0.18	268709	keystroke_r	r	n/a
134.4745	0.15	268949	keystroke_a	a	n/a
134.6845	0.105	269369	keystroke_n	n	n/a
134.7745	0.12	269549	keystroke_s	s	n/a
135.4645	0.0905	270929	keystroke_f	f	n/a
135.585	0.12	271170	keystroke_o	o	n/a
135.69	0.105	271380	keystroke_r	r	n/a
135.81	0.1045	271620	keystroke_m	m	n/a
136.0495	0.12	272099	keystroke_Key.space	Key.space	n/a
136.3795	0.075	272759	keystroke_e	e	n/a
136.6045	0.06	273209	keystroke_s	s	n/a
136.7695	0.12	273539	keystroke_s	s	n/a
136.8595	0.12	273719	keystroke_e	e	n/a
136.9945	0.135	273989	keystroke_n	n	n/a
137.1305	0.149	274261	keystroke_s	s	n/a
137.5645	0.135	275129	keystroke_c	c	n/a
137.8345	0.0905	275669	keystroke_e	e	n/a
138.45	0.075	276900	keystroke_Key.backspace	Key.backspace	n/a
138.599	0.075	277198	keystroke_Key.backspace	Key.backspace	n/a
138.749	0.075	277498	keystroke_Key.backspace	Key.backspace	n/a
138.795	0.105	277590	keystroke_c	c	n/a
139.019	0.136	278038	keystroke_e	e	n/a
139.23	0.089	278460	keystroke_Key.space	Key.space	n/a
139.5	0.105	279000	keystroke_v	v	n/a
139.574	0.151	279148	keystroke_o	o	n/a
139.664	0.15	279328	keystroke_i	i	n/a
139.739	0.091	279478	keystroke_c	c	n/a
139.949	0.12	279898	keystroke_e	e	n/a
140.099	0.105	280198	keystroke_Key.enter	Key.enter	n/a
140.212	7.5395	280424	prompt	n/a	filename metals decrease background\n
140.835	0.135	281670	keystroke_f	f	n/a
140.94	0.12	281880	keystroke_i	i	n/a
141.165	0.135	282330	keystroke_l	l	n/a
141.33	0.15	282660	keystroke_e	e	n/a
141.585	0.075	283170	keystroke_n	n	n/a
141.81	0.12	283620	keystroke_m	m	n/a
141.974	0.15	283948	keystroke_e	e	n/a
142.244	0.075	284488	keystroke_Key.backspace	Key.backspace	n/a
142.379	0.105	284758	keystroke_Key.backspace	Key.backspace	n/a
142.485	0.09	284970	keystroke_a	a	n/a
142.59	0.12	285180	keystroke_m	m	n/a
142.724	0.091	285448	keystroke_e	e	n/a
142.844	0.12	285688	keystroke_Key.space	Key.space	n/a
143.264	0.121	286528	keystroke_m	m	n/a
143.355	0.165	286710	keystroke_e	e	n/a
143.505	0.164	287010	keystroke_t	t	n/a
143.685	0.075	287370	keystroke_a	a	n/a
143.73	0.135	287460	keystroke_l	l	n/a
143.895	0.074	287790	keystroke_s	s	n/a
144.014	0.12	288028	keystroke_Key.space	Key.space	n/a
144.18	0.119	288360	keystroke_d	d	n/a
144.389	0.09	288778	keystroke_e	e	n/a
144.644	0.105	289288	keystroke_c	c	n/a
144.884	0.121	289768	keystroke_r	r	n/a
144.96	0.225	289920	keystroke_e	e	n/a
145.349	0.105	290698	keystroke_a	a	n/a
145.515	0.165	291030	keystroke_s	s	n/a
145.665	0.165	291330	keystroke_e	e	n/a
145.979	0.12	291958	keystroke_Key.space	Key.space	n/a
146.309	0.106	292618	keystroke_b	b	n/a
146.399	0.075	292798	keystroke_a	a	n/a
146.564	0.136	293128	keystroke_c	c	n/a
146.684	0.105	293368	keystroke_k	k	n/a
146.805	0.074	293610	keystroke_g	g	n/a
146.984	0.09	293968	keystroke_r	r	n/a
147.059	0.135	294118	keystroke_o	o	n/a
147.135	0.104	294270	keystroke_u	u	n/a
147.359	0.09	294718	keystroke_n	n	n/a
147.464	0.12	294928	keystroke_d	d	n/a
147.659	0.09	295318	keystroke_Key.enter	Key.enter	n/a
147.7595	5.6015	295519	prompt	n/a	acre flyer proportion answering\n
148.409	0.09	296818	keystroke_a	a	n/a
148.589	0.12	297178	keystroke_c	c	n/a
148.844	0.12	297688	keystroke_r	r	n/a
148.919	0.135	297838	keystroke_e	e	n/a
149.249	0.09	298498	keystroke_Key.space	Key.space	n/a
149.474	0.12	298948	keystroke_f	f	n/a
149.639	0.135	299278	keystroke_l	l	n/a
149.714	0.135	299428	keystroke_y	y	n/a
149.9545	0.15	299909	keystroke_e	e	n/a
150.0895	0.1495	300179	keystroke_r	r	n/a
150.314	0.1205	300628	keystroke_Key.space	Key.space	n/a
150.63	0.104	301260	keystroke_p	p	n/a
150.735	0.12	301470	keystroke_r	r	n/a
150.84	0.09	301680	keystroke_o	o	n/a
151.05	0.164	302100	keystroke_p	p	n/a
151.17	0.149	302340	keystroke_o	o	n/a
151.305	0.089	302610	keystroke_r	r	n/a
151.5	0.12	303000	keystroke_t	t	n/a
151.605	0.105	303210	keystroke_i	i	n/a
151.695	0.149	303390	keystroke_o	o	n/a
151.785	0.164	303570	keystroke_n	n	n/a
151.904	0.135	303808	keystroke_Key.space	Key.space	n/a
152.069	0.105	304138	keystroke_a	a	n/a
152.159	0.121	304318	keystroke_n	n	n/a
152.354	0.09	304708	keystroke_s	s	n/a
152.564	0.105	305128	keystroke_w	w	n/a
152.654	0.15	305308	keystroke_e	e	n/a
152.759	0.12	305518	keystroke_r	r	n/a
152.864	0.195	305728	keystroke_i	i	n/a
152.954	0.135	305908	keystroke_n	n	n/a
153.074	0.105	306148	keystroke_g	g	n/a
153.254	0.105	306508	keystroke_Key.enter	Key.enter	n/a
153.3675	21.6685	306735	prompt	n/a	invision everyone's gear stood\n
153.9745	0.15	307949	keystroke_i	i	n/a
154.0645	0.12	308129	keystroke_n	n	n/a
154.1545	0.12	308309	keystroke_v	v	n/a
154.3045	0.075	308609	keystroke_i	i	n/a
154.4545	0.09	308909	keystroke_v	v	n/a
154.5455	0.119	309091	keystroke_i	i	n/a
154.6495	0.165	309299	keystroke_o	o	n/a
154.7695	0.15	309539	keystroke_n	n	n/a
154.9045	0.165	309809	keystroke_Key.space	Key.space	n/a
155.3245	0.075	310649	keystroke_Key.backspace	Key.backspace	n/a
155.474	0.075	310948	keystroke_Key.backspace	Key.backspace	n/a
155.624	0.09	311248	keystroke_Key.backspace	Key.backspace	n/a
155.804	0.06	311608	keystroke_Key.backspace	Key.backspace	n/a
155.939	0.0905	311878	keystroke_Key.backspace	Key.backspace	n/a
156.4645	0.045	312929	keystroke_v	v	n/a
156.7795	0.06	313559	keystroke_=	=	n/a
156.8545	0.135	313709	keystroke_s	s	n/a
157.2145	0.075	314429	keystroke_Key.backspace	Key.backspace	n/a
157.3645	0.075	314729	keystroke_Key.backspace	Key.backspace	n/a
157.4845	0.105	314969	keystroke_Key.backspace	Key.backspace	n/a
157.6045	0.12	315209	keystroke_s	s	n/a
157.7395	0.135	315479	keystroke_i	i	n/a
157.8445	0.1645	315689	keystroke_o	o	n/a
157.964	0.12	315928	keystroke_n	n	n/a
158.054	0.15	316108	keystroke_Key.space	Key.space	n/a
158.369	0.09	316738	keystroke_e	e	n/a
158.504	0.105	317008	keystroke_v	v	n/a
158.594	0.165	317188	keystroke_e	e	n/a
158.729	0.12	317458	keystroke_r	r	n/a
159.824	0.075	319648	keystroke_Key.backspace	Key.backspace	n/a
160.0045	0.09	320009	keystroke_Key.backspace	Key.backspace	n/a
160.199	0.0755	320398	keystroke_Key.backspace	Key.backspace	n/a
160.86	0.09	321720	keystroke_i	i	n/a
161.339	0.061	322678	keystroke_Key.backspace	Key.backspace	n/a
161.43	0.135	322860	keystroke_s	s	n/a
161.55	0.165	323100	keystroke_i	i	n/a
161.655	0.195	323310	keystroke_o	o	n/a
161.67	0.165	323340	keystroke_n	n	n/a
161.789	0.15	323578	keystroke_Key.space	Key.space	n/a
161.9995	0.12	323999	keystroke_e	e	n/a
162.1195	0.12	324239	keystroke_v	v	n/a
162.2255	0.134	324451	keystroke_e	e	n/a
162.3295	0.105	324659	keystroke_y	y	n/a
162.6595	0.135	325319	keystroke_o	o	n/a
162.7645	0.15	325529	keystroke_n	n	n/a
162.8995	0.1505	325799	keystroke_'	'	n/a
163.5295	0.09	327059	keystroke_Key.backspace	Key.backspace	n/a
163.649	0.0755	327298	keystroke_e	e	n/a
163.8145	0.09	327629	keystroke_'	'	n/a
163.9195	0.12	327839	keystroke_s	s	n/a
164.0695	0.12	328139	keystroke_Key.space	Key.space	n/a
164.5345	0.12	329069	keystroke_g	g	n/a
164.7295	0.135	329459	keystroke_e	e	n/a
164.8345	0.135	329669	keystroke_a	a	n/a
164.9095	0.135	329819	keystroke_r	r	n/a
165.0595	0.105	330119	keystroke_Key.space	Key.space	n/a
165.1795	0.135	330359	keystroke_s	s	n/a
165.3145	0.15	330629	keystroke_t	t	n/a
165.4495	0.075	330899	keystroke_o	o	n/a
165.6145	0.105	331229	keystroke_o	o	n/a
165.6895	0.18	331379	keystroke_k	k	n/a
169.188	0	338376	keystroke_=	=	n/a
170.7145	0.09	341429	keystroke_Key.backspace	Key.backspace	n/a
170.8945	0.105	341789	keystroke_Key.backspace	Key.backspace	n/a
171.8845	0.1655	343769	keystroke_r	r	n/a
172.035	0.09	344070	keystroke_y	y	n/a
172.17	0.18	344340	keystroke_o	o	n/a
172.289	0.151	344578	keystroke_n	n	n/a
172.5	0.09	345000	keystroke_e	e	n/a
172.635	0.135	345270	keystroke_'	'	n/a
172.92	0.15	345840	keystroke_s	s	n/a
173.099	0.12	346198	keystroke_Key.space	Key.space	n/a
173.444	0.136	346888	keystroke_g	g	n/a
173.64	0.18	347280	keystroke_e	e	n/a
173.79	0.135	347580	keystroke_a	a	n/a
173.88	0.105	347760	keystroke_r	r	n/a
174.03	0.12	348060	keystroke_Key.space	Key.space	n/a
174.134	0.15	348268	keystroke_s	s	n/a
174.299	0.135	348598	keystroke_t	t	n/a
174.435	0.09	348870	keystroke_o	o	n/a
174.599	0.12	349198	keystroke_o	o	n/a
174.689	0.12	349378	keystroke_d	d	n/a
174.944	0.09	349888	keystroke_Key.enter	Key.enter	n/a
175.0415	8.41	350083	prompt	n/a	negotiations compression novelty manner\n
175.8295	0.105	351659	keystroke_n	n	n/a
175.9195	0.09	351839	keystroke_e	e	n/a
176.114	0.09	352228	keystroke_g	g	n/a
176.205	0.089	352410	keystroke_o	o	n/a
176.339	0.09	352678	keystroke_t	t	n/a
176.444	0.09	352888	keystroke_i	i	n/a
176.58	0.135	353160	keystroke_a	a	n/a
176.699	0.165	353398	keystroke_t	t	n/a
176.909	0.121	353818	keystroke_i	i	n/a
176.984	0.195	353968	keystroke_o	o	n/a
177.089	0.15	354178	keystroke_n	n	n/a
177.254	0.121	354508	keystroke_a	a	n/a
177.509	0.135	355018	keystroke_s	s	n/a
177.9445	0.06	355889	keystroke_Key.backspace	Key.backspace	n/a
178.0645	0.09	356129	keystroke_Key.backspace	Key.backspace	n/a
178.1695	0.15	356339	keystroke_s	s	n/a
178.6645	0.12	357329	keystroke_Key.space	Key.space	n/a
179.2945	0.135	358589	keystroke_c	c	n/a
179.3695	0.12	358739	keystroke_o	o	n/a
179.4445	0.165	358889	keystroke_m	m	n/a
179.5795	0.12	359159	keystroke_p	p	n/a
179.7745	0.105	359549	keystroke_r	r	n/a
179.8495	0.105	359699	keystroke_e	e	n/a
180.0745	0.075	360149	keystroke_s	s	n/a
180.224	0.12	360448	keystroke_s	s	n/a
180.314	0.105	360628	keystroke_i	i	n/a
180.404	0.196	360808	keystroke_o	o	n/a
180.509	0.121	361018	keystroke_n	n	n/a
180.569	0.165	361138	keystroke_Key.space	Key.space	n/a
181.019	0.136	362038	keystroke_n	n	n/a
181.125	0.15	362250	keystroke_o	o	n/a
181.5	0.15	363000	keystroke_v	v	n/a
181.62	0.135	363240	keystroke_e	e	n/a
181.71	0.12	363420	keystroke_l	l	n/a
181.89	0.105	363780	keystroke_t	t	n/a
182.04	0.134	364080	keystroke_y	y	n/a
182.264	0.105	364528	keystroke_Key.space	Key.space	n/a
182.564	0.12	365128	keystroke_m	m	n/a
182.699	0.135	365398	keystroke_a	a	n/a
182.819	0.075	365638	keystroke_n	n	n/a
182.984	0.135	365968	keystroke_n	n	n/a
183.134	0.105	366268	keystroke_e	e	n/a
183.194	0.135	366388	keystroke_r	r	n/a
183.344	0.105	366688	keystroke_Key.enter	Key.enter	n/a
183.4595	12.5615	366919	prompt	n/a	cameroon recommendation lovely perry\n
184.064	0.18	368128	keystroke_c	c	n/a
184.394	0.135	368788	keystroke_a	a	n/a
184.664	0.12	369328	keystroke_e	e	n/a
185.189	0.12	370378	keystroke_r	r	n/a
185.6845	0.06	371369	keystroke_o	o	n/a
186.929	0.045	373858	keystroke_Key.backspace	Key.backspace	n/a
187.049	0.09	374098	keystroke_Key.backspace	Key.backspace	n/a
187.199	0.09	374398	keystroke_Key.backspace	Key.backspace	n/a
187.454	0.135	374908	keystroke_m	m	n/a
187.604	0.135	375208	keystroke_e	e	n/a
187.8	0.149	375600	keystroke_r	r	n/a
187.964	0.105	375928	keystroke_o	o	n/a
188.159	0.12	376318	keystroke_o	o	n/a
188.4295	0.105	376859	keystroke_n	n	n/a
188.729	0.12	377458	keystroke_Key.space	Key.space	n/a
189.164	0.12	378328	keystroke_r	r	n/a
189.239	0.15	378478	keystroke_e	e	n/a
189.629	0.165	379258	keystroke_c	c	n/a
191.009	0.15	382018	keystroke_o	o	n/a
191.114	0.165	382228	keystroke_m	m	n/a
191.489	0.105	382978	keystroke_n	n	n/a
191.745	0.059	383490	keystroke_n	n	n/a
192.029	0.06	384058	keystroke_Key.backspace	Key.backspace	n/a
192.1345	0.09	384269	keystroke_Key.backspace	Key.backspace	n/a
192.2995	0.09	384599	keystroke_m	m	n/a
192.4795	0.15	384959	keystroke_e	e	n/a
193.0645	0.105	386129	keystroke_n	n	n/a
193.2595	0.105	386519	keystroke_d	d	n/a
193.3795	0.135	386759	keystroke_a	a	n/a
193.4845	0.165	386969	keystroke_t	t	n/a
193.6645	0.09	387329	keystroke_i	i	n/a
193.7095	0.225	387419	keystroke_o	o	n/a
193.7695	0.18	387539	keystroke_n	n	n/a
193.9195	0.165	387839	keystroke_Key.space	Key.space	n/a
194.2935	0.106	388587	keystroke_l	l	n/a
194.4885	0.09	388977	keystroke_o	o	n/a
194.5635	0.106	389127	keystroke_v	v	n/a
194.6535	0.121	389307	keystroke_e	e	n/a
194.7595	0.12	389519	keystroke_l	l	n/a
194.8195	0.135	389639	keystroke_y	y	n/a
194.9085	0.1055	389817	keystroke_Key.space	Key.space	n/a
195.1335	0.121	390267	keystroke_p	p	n/a
195.2835	0.121	390567	keystroke_e	e	n/a
195.4635	0.091	390927	keystroke_r	r	n/a
195.6445	0.105	391289	keystroke_r	r	n/a
195.7345	0.105	391469	keystroke_y	y	n/a
195.9145	0.105	391829	keystroke_Key.enter	Key.enter	n/a
196.026	11.5595	392052	prompt	n/a	episodes singh logic builders\n
196.9195	0.135	393839	keystroke_e	e	n/a
197.0695	0.12	394139	keystroke_p	p	n/a
197.1595	0.135	394319	keystroke_i	i	n/a
197.6395	0.105	395279	keystroke_s	s	n/a
197.7595	0.12	395519	keystroke_o	o	n/a
197.8645	0.09	395729	keystroke_d	d	n/a
198.1045	0.09	396209	keystroke_e	e	n/a
198.3745	0.105	396749	keystroke_d	d	n/a
199.0335	0.075	398067	keystroke_Key.backspace	Key.backspace	n/a
199.1095	0.135	398219	keystroke_s	s	n/a
199.2735	0.135	398547	keystroke_Key.space	Key.space	n/a
199.5295	0.105	399059	keystroke_s	s	n/a
199.6495	0.105	399299	keystroke_i	i	n/a
199.7695	0.09	399539	keystroke_g	g	n/a
199.8745	0.135	399749	keystroke_n	n	n/a
200.3695	0.09	400739	keystroke_Key.backspace	Key.backspace	n/a
200.729	0.09	401458	keystroke_g	g	n/a
201.059	0.075	402118	keystroke_Key.backspace	Key.backspace	n/a
201.179	0.105	402358	keystroke_Key.backspace	Key.backspace	n/a
201.389	0.09	402778	keystroke_n	n	n/a
201.509	0.105	403018	keystroke_g	g	n/a
201.644	0.106	403288	keystroke_h	h	n/a
201.929	0.135	403858	keystroke_Key.space	Key.space	n/a
202.199	0.105	404398	keystroke_l	l	n/a
202.379	0.12	404758	keystroke_o	o	n/a
202.559	0.045	405118	keystroke_g	g	n/a
202.619	0.105	405238	keystroke_i	i	n/a
202.934	0.15	405868	keystroke_c	c	n/a
203.114	0.12	406228	keystroke_Key.space	Key.space	n/a
203.504	0.105	407008	keystroke_b	b	n/a
203.624	0.105	407248	keystroke_u	u	n/a
203.684	0.135	407368	keystroke_i	i	n/a
203.834	0.18	407668	keystroke_d	d	n/a
204.194	0.1505	408388	keystroke_e	e	n/a
204.314	0.12	408628	keystroke_r	r	n/a
204.7345	0.06	409469	keystroke_Key.backspace	Key.backspace	n/a
204.8545	0.105	409709	keystroke_Key.backspace	Key.backspace	n/a
205.3345	0.0745	410669	keystroke_Key.backspace	Key.backspace	n/a
205.574	0.12	411148	keystroke_l	l	n/a
205.649	0.09	411298	keystroke_d	d	n/a
205.859	0.12	411718	keystroke_e	e	n/a
205.949	0.12	411898	keystroke_r	r	n/a
206.114	0.1055	412228	keystroke_s	s	n/a
207.4345	0.149	414869	keystroke_Key.enter	Key.enter	n/a
207.5905	6.4005	415181	prompt	n/a	stadium speeches somehow peak\n
208.259	0.12	416518	keystroke_s	s	n/a
208.364	0.15	416728	keystroke_t	t	n/a
208.499	0.15	416998	keystroke_a	a	n/a
208.724	0.09	417448	keystroke_t	t	n/a
209.069	0.06	418138	keystroke_Key.backspace	Key.backspace	n/a
209.144	0.15	418288	keystroke_d	d	n/a
209.249	0.15	418498	keystroke_i	i	n/a
209.369	0.12	418738	keystroke_u	u	n/a
209.684	0.12	419368	keystroke_m	m	n/a
209.954	0.15	419908	keystroke_Key.space	Key.space	n/a
210.2695	0.12	420539	keystroke_s	s	n/a
210.4045	0.1195	420809	keystroke_p	p	n/a
210.509	0.075	421018	keystroke_e	e	n/a
210.824	0.105	421648	keystroke_e	e	n/a
211.079	0.135	422158	keystroke_c	c	n/a
211.229	0.105	422458	keystroke_h	h	n/a
211.439	0.105	422878	keystroke_e	e	n/a
211.634	0.18	423268	keystroke_s	s	n/a
211.859	0.12	423718	keystroke_Key.space	Key.space	n/a
212.069	0.12	424138	keystroke_s	s	n/a
212.174	0.1205	424348	keystroke_o	o	n/a
212.2195	0.135	424439	keystroke_m	m	n/a
212.3245	0.09	424649	keystroke_e	e	n/a
212.6095	0.12	425219	keystroke_h	h	n/a
212.6695	0.135	425339	keystroke_o	o	n/a
212.7445	0.135	425489	keystroke_w	w	n/a
212.9695	0.105	425939	keystroke_Key.space	Key.space	n/a
213.2995	0.12	426599	keystroke_p	p	n/a
213.4495	0.15	426899	keystroke_e	e	n/a
213.5395	0.15	427079	keystroke_a	a	n/a
213.6745	0.135	427349	keystroke_k	k	n/a
213.8845	0.105	427769	keystroke_Key.enter	Key.enter	n/a
213.9955	5.861	427991	prompt	n/a	computing weren't wishes drain\n
214.769	0.15	429538	keystroke_c	c	n/a
214.829	0.105	429658	keystroke_o	o	n/a
214.904	0.135	429808	keystroke_m	m	n/a
215.04	0.164	430080	keystroke_p	p	n/a
215.174	0.105	430348	keystroke_u	u	n/a
215.294	0.105	430588	keystroke_t	t	n/a
215.414	0.1645	430828	keystroke_i	i	n/a
215.505	0.119	431010	keystroke_n	n	n/a
215.639	0.09	431278	keystroke_g	g	n/a
215.714	0.135	431428	keystroke_Key.space	Key.space	n/a
215.924	0.105	431848	keystroke_w	w	n/a
215.999	0.135	431998	keystroke_e	e	n/a
216.1045	0.165	432209	keystroke_r	r	n/a
216.224	0.1505	432448	keystroke_e	e	n/a
216.3895	0.15	432779	keystroke_n	n	n/a
216.5245	0.135	433049	keystroke_'	'	n/a
216.6445	0.105	433289	keystroke_t	t	n/a
216.854	0.1205	433708	keystroke_Key.space	Key.space	n/a
217.6495	0.09	435299	keystroke_w	w	n/a
217.7245	0.12	435449	keystroke_i	i	n/a
217.8595	0.12	435719	keystroke_s	s	n/a
217.9945	0.105	435989	keystroke_h	h	n/a
218.2645	0.12	436529	keystroke_e	e	n/a
218.5045	0.135	437009	keystroke_s	s	n/a
218.8045	0.105	437609	keystroke_Key.space	Key.space	n/a
218.9845	0.09	437969	keystroke_d	d	n/a
219.1495	0.15	438299	keystroke_r	r	n/a
219.2845	0.135	438569	keystroke_a	a	n/a
219.4195	0.15	438839	keystroke_i	i	n/a
219.5245	0.15	439049	keystroke_n	n	n/a
219.7495	0.105	439499	keystroke_Key.enter	Key.enter	n/a
219.863	7.898	439726	prompt	n/a	ballet displays minolta recruitment\n
220.9195	0.09	441839	keystroke_b	b	n/a
221.0245	0.06	442049	keystroke_a	a	n/a
221.4595	0.105	442919	keystroke_l	l	n/a
221.6395	0.1195	443279	keystroke_l	l	n/a
221.7745	0.135	443549	keystroke_e	e	n/a
221.8945	0.135	443789	keystroke_t	t	n/a
222.1345	0.105	444269	keystroke_Key.space	Key.space	n/a
222.374	0.135	444748	keystroke_d	d	n/a
222.494	0.12	444988	keystroke_i	i	n/a
222.6	0.104	445200	keystroke_s	s	n/a
222.764	0.075	445528	keystroke_p	p	n/a
222.944	0.12	445888	keystroke_l	l	n/a
223.079	0.105	446158	keystroke_a	a	n/a
223.199	0.105	446398	keystroke_y	y	n/a
223.319	0.12	446638	keystroke_s	s	n/a
223.559	0.12	447118	keystroke_Key.space	Key.space	n/a
223.919	0.135	447838	keystroke_m	m	n/a
224.039	0.105	448078	keystroke_i	i	n/a
224.279	0.135	448558	keystroke_n	n	n/a
224.384	0.12	448768	keystroke_o	o	n/a
224.759	0.12	449518	keystroke_l	l	n/a
224.999	0.105	449998	keystroke_t	t	n/a
225.134	0.12	450268	keystroke_a	a	n/a
225.404	0.1355	450808	keystroke_Key.space	Key.space	n/a
225.6595	0.12	451319	keystroke_r	r	n/a
225.7345	0.105	451469	keystroke_e	e	n/a
225.9895	0.09	451979	keystroke_c	c	n/a
226.1995	0.105	452399	keystroke_r	r	n/a
226.3195	0.09	452639	keystroke_u	u	n/a
226.3495	0.15	452699	keystroke_i	i	n/a
226.4845	0.12	452969	keystroke_t	t	n/a
226.6495	0.12	453299	keystroke_m	m	n/a
226.7545	0.105	453509	keystroke_e	e	n/a
226.9045	0.105	453809	keystroke_n	n	n/a
226.9945	0.105	453989	keystroke_t	t	n/a
227.6395	0.12	455279	keystroke_Key.enter	Key.enter	n/a
227.7665	6.2945	455533	prompt	n/a	roof hungry basename habits\n
228.4795	0.105	456959	keystroke_r	r	n/a
228.5695	0.06	457139	keystroke_o	o	n/a
228.7195	0.12	457439	keystroke_o	o	n/a
228.8095	0.135	457619	keystroke_f	f	n/a
228.9295	0.12	457859	keystroke_Key.space	Key.space	n/a
229.1695	0.075	458339	keystroke_h	h	n/a
229.3495	0.075	458699	keystroke_u	u	n/a
229.5595	0.09	459119	keystroke_n	n	n/a
229.7395	0.03	459479	keystroke_g	g	n/a
229.8895	0.135	459779	keystroke_r	r	n/a
230.0545	0.135	460109	keystroke_y	y	n/a
230.1445	0.135	460289	keystroke_Key.space	Key.space	n/a
230.714	0.105	461428	keystroke_b	b	n/a
230.834	0.105	461668	keystroke_a	a	n/a
231.014	0.211	462028	keystroke_s	s	n/a
231.15	0.209	462300	keystroke_e	e	n/a
231.869	0.075	463738	keystroke_n	n	n/a
232.004	0.105	464008	keystroke_a	a	n/a
232.124	0.135	464248	keystroke_m	m	n/a
232.229	0.1205	464458	keystroke_e	e	n/a
232.4695	0.105	464939	keystroke_Key.space	Key.space	n/a
232.7095	0.09	465419	keystroke_h	h	n/a
232.8145	0.09	465629	keystroke_a	a	n/a
233.0695	0.09	466139	keystroke_b	b	n/a
233.1895	0.09	466379	keystroke_i	i	n/a
233.3545	0.09	466709	keystroke_t	t	n/a
233.6395	0.15	467279	keystroke_s	s	n/a
233.9545	0.105	467909	keystroke_Key.enter	Key.enter	n/a
234.066	9.61	468132	prompt	n/a	peers factor disabilities occurred\n
234.7195	0.105	469439	keystroke_p	p	n/a
234.8395	0.09	469679	keystroke_e	e	n/a
235.0345	0.09	470069	keystroke_e	e	n/a
235.1095	0.105	470219	keystroke_r	r	n/a
235.2595	0.105	470519	keystroke_s	s	n/a
235.4095	0.1195	470819	keystroke_Key.space	Key.space	n/a
235.649	0.12	471298	keystroke_f	f	n/a
235.754	0.06	471508	keystroke_a	a	n/a
235.919	0.0905	471838	keystroke_c	c	n/a
236.114	0.075	472228	keystroke_t	t	n/a
236.2345	0.1055	472469	keystroke_o	o	n/a
236.34	0.1195	472680	keystroke_r	r	n/a
236.4745	0.135	472949	keystroke_Key.space	Key.space	n/a
236.8345	0.135	473669	keystroke_d	d	n/a
236.9545	0.12	473909	keystroke_i	i	n/a
237.0295	0.105	474059	keystroke_s	s	n/a
237.5545	0.12	475109	keystroke_a	a	n/a
237.9895	0.135	475979	keystroke_b	b	n/a
238.3495	0.1055	476699	keystroke_i	i	n/a
238.425	0.18	476850	keystroke_l	l	n/a
238.575	0.105	477150	keystroke_i	i	n/a
238.725	0.104	477450	keystroke_t	t	n/a
238.83	0.134	477660	keystroke_i	i	n/a
238.979	0.135	477958	keystroke_e	e	n/a
239.069	0.12	478138	keystroke_s	s	n/a
239.234	0.12	478468	keystroke_Key.space	Key.space	n/a
239.489	0.105	478978	keystroke_e	e	n/a
239.624	0.075	479248	keystroke_o	o	n/a
239.879	0.06	479758	keystroke_Key.backspace	Key.backspace	n/a
239.999	0.09	479998	keystroke_Key.backspace	Key.backspace	n/a
240.209	0.105	480418	keystroke_o	o	n/a
240.299	0.0905	480598	keystroke_c	c	n/a
240.6595	0.12	481319	keystroke_r	r	n/a
240.7945	0.075	481589	keystroke_u	u	n/a
240.944	0.105	481888	keystroke_u	u	n/a
241.109	0.12	482218	keystroke_r	r	n/a
241.2145	0.105	482429	keystroke_e	e	n/a
241.5895	0.09	483179	keystroke_Key.backspace	Key.backspace	n/a
241.7545	0.09	483509	keystroke_Key.backspace	Key.backspace	n/a
241.9045	0.09	483809	keystroke_Key.backspace	Key.backspace	n/a
242.0695	0.09	484139	keystroke_Key.backspace	Key.backspace	n/a
242.2195	0.09	484439	keystroke_Key.backspace	Key.backspace	n/a
242.445	0.105	484890	keystroke_u	u	n/a
242.7	0.135	485400	keystroke_r	r	n/a
242.985	0.09	485970	keystroke_r	r	n/a
243.12	0.09	486240	keystroke_e	e	n/a
243.33	0.105	486660	keystroke_d	d	n/a
243.585	0.09	487170	keystroke_Key.enter	Key.enter	n/a
243.6805	7.766	487361	prompt	n/a	notifications humanity compute differences\n
244.3795	0.105	488759	keystroke_n	n	n/a
244.4995	0.15	488999	keystroke_a	a	n/a
244.6795	0.075	489359	keystroke_o	o	n/a
244.9345	0.075	489869	keystroke_Key.backspace	Key.backspace	n/a
245.1145	0.06	490229	keystroke_Key.backspace	Key.backspace	n/a
245.3395	0.09	490679	keystroke_o	o	n/a
245.505	0.104	491010	keystroke_t	t	n/a
245.639	0.09	491278	keystroke_i	i	n/a
245.91	0.074	491820	keystroke_f	f	n/a
246	0.075	492000	keystroke_i	i	n/a
246.12	0.134	492240	keystroke_c	c	n/a
246.209	0.121	492418	keystroke_a	a	n/a
246.3895	0.105	492779	keystroke_t	t	n/a
246.4495	0.105	492899	keystroke_i	i	n/a
246.5245	0.225	493049	keystroke_o	o	n/a
246.6145	0.165	493229	keystroke_n	n	n/a
246.7345	0.105	493469	keystroke_s	s	n/a
246.9595	0.105	493919	keystroke_Key.space	Key.space	n/a
247.2295	0.075	494459	keystroke_h	h	n/a
247.4245	0.075	494849	keystroke_u	u	n/a
247.6195	0.09	495239	keystroke_m	m	n/a
247.7395	0.135	495479	keystroke_a	a	n/a
247.8445	0.12	495689	keystroke_n	n	n/a
247.9495	0.135	495899	keystroke_i	i	n/a
248.1445	0.075	496289	keystroke_t	t	n/a
248.2345	0.135	496469	keystroke_y	y	n/a
248.3245	0.1345	496649	keystroke_Key.space	Key.space	n/a
248.775	0.165	497550	keystroke_c	c	n/a
248.88	0.134	497760	keystroke_o	o	n/a
249.03	0.12	498060	keystroke_m	m	n/a
249.135	0.18	498270	keystroke_p	p	n/a
249.285	0.105	498570	keystroke_u	u	n/a
249.42	0.12	498840	keystroke_t	t	n/a
249.51	0.15	499020	keystroke_e	e	n/a
249.689	0.12	499378	keystroke_Key.space	Key.space	n/a
249.855	0.135	499710	keystroke_d	d	n/a
249.975	0.12	499950	keystroke_i	i	n/a
250.11	0.104	500220	keystroke_f	f	n/a
250.305	0.075	500610	keystroke_f	f	n/a
250.35	0.1195	500700	keystroke_e	e	n/a
250.4995	0.09	500999	keystroke_r	r	n/a
250.5595	0.09	501119	keystroke_e	e	n/a
250.6195	0.12	501239	keystroke_n	n	n/a
250.7545	0.105	501509	keystroke_c	c	n/a
250.9645	0.105	501929	keystroke_e	e	n/a
251.0995	0.12	502199	keystroke_s	s	n/a
251.3395	0.105	502679	keystroke_Key.enter	Key.enter	n/a
251.454	8.257	502908	prompt	n/a	developed emma grammar biodiversity\n
252.0445	0.105	504089	keystroke_d	d	n/a
252.2395	0.06	504479	keystroke_e	e	n/a
252.405	0.0895	504810	keystroke_v	v	n/a
252.48	0.1495	504960	keystroke_e	e	n/a
252.5095	0.12	505019	keystroke_l	l	n/a
252.7045	0.075	505409	keystroke_o	o	n/a
252.8845	0.1055	505769	keystroke_p	p	n/a
252.9595	0.09	505919	keystroke_e	e	n/a
253.185	0.1195	506370	keystroke_d	d	n/a
253.3785	0.12	506757	keystroke_Key.space	Key.space	n/a
253.7395	0.105	507479	keystroke_e	e	n/a
253.8745	0.06	507749	keystroke_m	m	n/a
254.0245	0.09	508049	keystroke_m	m	n/a
254.1445	0.135	508289	keystroke_a	a	n/a
254.2945	0.105	508589	keystroke_Key.space	Key.space	n/a
254.534	0.075	509068	keystroke_g	g	n/a
254.714	0.12	509428	keystroke_r	r	n/a
254.789	0.12	509578	keystroke_a	a	n/a
254.924	0.06	509848	keystroke_m	m	n/a
255.06	0.089	510120	keystroke_m	m	n/a
255.329	0.105	510658	keystroke_a	a	n/a
255.389	0.1355	510778	keystroke_r	r	n/a
256.2145	0.12	512429	keystroke_Key.space	Key.space	n/a
256.7395	0.105	513479	keystroke_b	b	n/a
256.8595	0.105	513719	keystroke_i	i	n/a
257.3095	0.12	514619	keystroke_o	o	n/a
257.8495	0.12	515699	keystroke_d	d	n/a
257.9845	0.09	515969	keystroke_i	i	n/a
258.1195	0.12	516239	keystroke_v	v	n/a
258.2245	0.18	516449	keystroke_e	e	n/a
258.3895	0.0745	516779	keystroke_r	r	n/a
259.079	0.076	518158	keystroke_s	s	n/a
259.169	0.12	518338	keystroke_i	i	n/a
259.274	0.105	518548	keystroke_t	t	n/a
259.409	0.091	518818	keystroke_y	y	n/a
259.619	0.09	519238	keystroke_Key.enter	Key.enter	n/a
259.716	7.2095	519432	prompt	n/a	offense michael peaceful frames\n
260.354	0.09	520708	keystroke_o	o	n/a
260.4745	0.089	520949	keystroke_f	f	n/a
260.669	0.0755	521338	keystroke_f	f	n/a
260.7285	0.121	521457	keystroke_e	e	n/a
260.8495	0.12	521699	keystroke_n	n	n/a
261.3295	0.15	522659	keystroke_s	s	n/a
261.4345	0.135	522869	keystroke_e	e	n/a
261.6585	0.105	523317	keystroke_Key.space	Key.space	n/a
261.989	0.1205	523978	keystroke_m	m	n/a
262.0495	0.12	524099	keystroke_i	i	n/a
262.4545	0.1195	524909	keystroke_c	c	n/a
262.589	0.09	525178	keystroke_h	h	n/a
262.949	0.135	525898	keystroke_a	a	n/a
263.204	0.12	526408	keystroke_e	e	n/a
263.354	0.135	526708	keystroke_l	l	n/a
263.684	0.12	527368	keystroke_Key.space	Key.space	n/a
263.984	0.135	527968	keystroke_p	p	n/a
264.104	0.12	528208	keystroke_e	e	n/a
264.194	0.075	528388	keystroke_a	a	n/a
264.359	0.105	528718	keystroke_c	c	n/a
265.184	0.09	530368	keystroke_e	e	n/a
265.409	0.105	530818	keystroke_f	f	n/a
265.529	0.135	531058	keystroke_u	u	n/a
265.604	0.18	531208	keystroke_l	l	n/a
265.769	0.135	531538	keystroke_Key.space	Key.space	n/a
266.024	0.075	532048	keystroke_f	f	n/a
266.204	0.105	532408	keystroke_r	r	n/a
266.279	0.105	532558	keystroke_a	a	n/a
266.369	0.1505	532738	keystroke_m	m	n/a
266.5195	0.09	533039	keystroke_e	e	n/a
266.5945	0.12	533189	keystroke_s	s	n/a
266.8045	0.12	533609	keystroke_Key.enter	Key.enter	n/a
266.931	8.1545	533862	prompt	n/a	bacteria belfast nickel acids\n
267.6145	0.15	535229	keystroke_b	b	n/a
267.7495	0.09	535499	keystroke_a	a	n/a
268.0345	0.105	536069	keystroke_c	c	n/a
268.9345	0.12	537869	keystroke_t	t	n/a
269.2795	0.15	538559	keystroke_e	e	n/a
269.4145	0.09	538829	keystroke_r	r	n/a
269.5195	0.12	539039	keystroke_i	i	n/a
269.6845	0.15	539369	keystroke_a	a	n/a
269.8195	0.12	539639	keystroke_Key.space	Key.space	n/a
270.6745	0.105	541349	keystroke_b	b	n/a
270.7645	0.135	541529	keystroke_e	e	n/a
270.9895	0.15	541979	keystroke_l	l	n/a
271.6045	0.135	543209	keystroke_f	f	n/a
271.7095	0.15	543419	keystroke_a	a	n/a
271.8445	0.15	543689	keystroke_s	s	n/a
271.9645	0.12	543929	keystroke_t	t	n/a
272.1145	0.09	544229	keystroke_Key.space	Key.space	n/a
272.3245	0.135	544649	keystroke_n	n	n/a
272.4295	0.1195	544859	keystroke_i	i	n/a
272.594	0.12	545188	keystroke_c	c	n/a
272.714	0.15	545428	keystroke_k	k	n/a
272.879	0.09	545758	keystroke_e	e	n/a
273.059	0.225	546118	keystroke_l	l	n/a
273.449	0.09	546898	keystroke_Key.space	Key.space	n/a
274.019	0.12	548038	keystroke_a	a	n/a
274.259	0.15	548518	keystroke_c	c	n/a
274.424	0.105	548848	keystroke_i	i	n/a
274.544	0.075	549088	keystroke_d	d	n/a
274.769	0.09	549538	keystroke_s	s	n/a
274.994	0.09	549988	keystroke_Key.enter	Key.enter	n/a
275.09	6.2205	550180	prompt	n/a	destroy seeking vertex decimal\n
275.8485	0.045	551697	keystroke_d	d	n/a
276.0135	0.1655	552027	keystroke_e	e	n/a
276.2235	0.165	552447	keystroke_s	s	n/a
276.3585	0.1055	552717	keystroke_t	t	n/a
276.5695	0.105	553139	keystroke_r	r	n/a
276.6895	0.18	553379	keystroke_o	o	n/a
276.8245	0.15	553649	keystroke_y	y	n/a
276.9145	0.165	553829	keystroke_Key.space	Key.space	n/a
277.2445	0.135	554489	keystroke_s	s	n/a
277.3645	0.105	554729	keystroke_e	e	n/a
277.5295	0.105	555059	keystroke_e	e	n/a
277.6645	0.09	555329	keystroke_k	k	n/a
277.8895	0.165	555779	keystroke_i	i	n/a
277.9495	0.135	555899	keystroke_n	n	n/a
278.0695	0.0745	556139	keystroke_g	g	n/a
278.159	0.135	556318	keystroke_Key.space	Key.space	n/a
278.474	0.1205	556948	keystroke_v	v	n/a
278.5795	0.165	557159	keystroke_e	e	n/a
278.7445	0.09	557489	keystroke_r	r	n/a
278.9845	0.105	557969	keystroke_t	t	n/a
279.1495	0.12	558299	keystroke_e	e	n/a
279.4045	0.135	558809	keystroke_x	x	n/a
279.6595	0.12	559319	keystroke_Key.space	Key.space	n/a
279.9745	0.075	559949	keystroke_d	d	n/a
280.1545	0.06	560309	keystroke_e	e	n/a
280.3645	0.1195	560729	keystroke_c	c	n/a
280.499	0.1045	560998	keystroke_i	i	n/a
280.7685	0.135	561537	keystroke_m	m	n/a
280.8885	0.15	561777	keystroke_a	a	n/a
280.9935	0.12	561987	keystroke_l	l	n/a
281.2335	0.075	562467	keystroke_Key.enter	Key.enter	n/a
281.315	5.801	562630	prompt	n/a	partition article thanks digital\n
281.8785	0.09	563757	keystroke_p	p	n/a
281.9535	0.105	563907	keystroke_a	a	n/a
282.2385	0.09	564477	keystroke_r	r	n/a
282.4785	0.075	564957	keystroke_t	t	n/a
282.584	0.105	565168	keystroke_i	i	n/a
282.779	0.09	565558	keystroke_t	t	n/a
282.854	0.12	565708	keystroke_i	i	n/a
282.9435	0.1955	565887	keystroke_o	o	n/a
283.034	0.18	566068	keystroke_n	n	n/a
283.184	0.165	566368	keystroke_Key.space	Key.space	n/a
283.574	0.135	567148	keystroke_a	a	n/a
283.649	0.105	567298	keystroke_r	r	n/a
283.874	0.075	567748	keystroke_t	t	n/a
283.964	0.12	567928	keystroke_i	i	n/a
284.129	0.105	568258	keystroke_c	c	n/a
284.235	0.134	568470	keystroke_l	l	n/a
284.399	0.09	568798	keystroke_e	e	n/a
284.519	0.12	569038	keystroke_Key.space	Key.space	n/a
284.834	0.045	569668	keystroke_t	t	n/a
284.924	0.12	569848	keystroke_h	h	n/a
285.014	0.105	570028	keystroke_a	a	n/a
285.149	0.15	570298	keystroke_n	n	n/a
285.224	0.181	570448	keystroke_k	k	n/a
285.314	0.12	570628	keystroke_s	s	n/a
285.4935	0.135	570987	keystroke_Key.space	Key.space	n/a
285.9435	0.06	571887	keystroke_d	d	n/a
285.9885	0.09	571977	keystroke_i	i	n/a
286.0935	0.09	572187	keystroke_g	g	n/a
286.2135	0.12	572427	keystroke_i	i	n/a
286.3635	0.12	572727	keystroke_t	t	n/a
286.4985	0.1355	572997	keystroke_a	a	n/a
286.619	0.135	573238	keystroke_l	l	n/a
287.039	0.075	574078	keystroke_Key.enter	Key.enter	n/a
287.1215	8.02	574243	prompt	n/a	naughty eyed twist professionals\n
287.699	0.105	575398	keystroke_p	p	n/a
288.044	0.075	576088	keystroke_Key.backspace	Key.backspace	n/a
288.224	0.09	576448	keystroke_n	n	n/a
288.329	0.12	576658	keystroke_a	a	n/a
288.479	0.1055	576958	keystroke_u	u	n/a
288.6295	0.105	577259	keystroke_g	g	n/a
288.7645	0.119	577529	keystroke_h	h	n/a
288.9135	0.106	577827	keystroke_t	t	n/a
289.0495	0.105	578099	keystroke_y	y	n/a
289.3485	0.121	578697	keystroke_Key.space	Key.space	n/a
290.4145	0.1045	580829	keystroke_e	e	n/a
290.549	0.1045	581098	keystroke_y	y	n/a
290.6685	0.075	581337	keystroke_e	e	n/a
291.0285	0.165	582057	keystroke_d	d	n/a
291.3135	0.135	582627	keystroke_Key.space	Key.space	n/a
291.7035	0.15	583407	keystroke_t	t	n/a
291.8545	0.119	583709	keystroke_w	w	n/a
292.0635	0.12	584127	keystroke_e	e	n/a
292.4835	0.075	584967	keystroke_Key.backspace	Key.backspace	n/a
292.679	0.105	585358	keystroke_i	i	n/a
292.754	0.135	585508	keystroke_s	s	n/a
292.904	0.09	585808	keystroke_t	t	n/a
293.084	0.075	586168	keystroke_Key.space	Key.space	n/a
293.219	0.105	586438	keystroke_p	p	n/a
293.339	0.075	586678	keystroke_r	r	n/a
293.429	0.105	586858	keystroke_o	o	n/a
293.564	0.12	587128	keystroke_f	f	n/a
293.684	0.09	587368	keystroke_e	e	n/a
293.984	0.075	587968	keystroke_s	s	n/a
294.164	0.09	588328	keystroke_s	s	n/a
294.284	0.15	588568	keystroke_i	i	n/a
294.389	0.15	588778	keystroke_o	o	n/a
294.449	0.165	588898	keystroke_n	n	n/a
294.599	0.105	589198	keystroke_a	a	n/a
294.719	0.15	589438	keystroke_l	l	n/a
294.854	0.105	589708	keystroke_s	s	n/a
295.034	0.105	590068	keystroke_Key.enter	Key.enter	n/a
295.1465	16.689	590293	prompt	n/a	exchange temporarily proposals translation\n
295.8435	0.061	591687	keystroke_e	e	n/a
296.0535	0.105	592107	keystroke_x	x	n/a
296.2935	0.105	592587	keystroke_a	a	n/a
296.4135	0.09	592827	keystroke_h	h	n/a
296.5335	0.1205	593067	keystroke_c	c	n/a
296.669	0.135	593338	keystroke_n	n	n/a
296.834	0.105	593668	keystroke_g	g	n/a
296.909	0.15	593818	keystroke_e	e	n/a
297.284	0.045	594568	keystroke_Key.backspace	Key.backspace	n/a
297.434	0.075	594868	keystroke_Key.backspace	Key.backspace	n/a
297.599	0.045	595198	keystroke_Key.backspace	Key.backspace	n/a
297.734	0.075	595468	keystroke_Key.backspace	Key.backspace	n/a
297.869	0.075	595738	keystroke_Key.backspace	Key.backspace	n/a
297.929	0.105	595858	keystroke_c	c	n/a
298.079	0.09	596158	keystroke_h	h	n/a
298.424	0.015	596848	keystroke_n	n	n/a
298.799	0.09	597598	keystroke_Key.backspace	Key.backspace	n/a
298.874	0.105	597748	keystroke_a	a	n/a
299.024	0.09	598048	keystroke_n	n	n/a
299.129	0.12	598258	keystroke_g	g	n/a
299.234	0.12	598468	keystroke_e	e	n/a
299.369	0.12	598738	keystroke_Key.space	Key.space	n/a
299.609	0.12	599218	keystroke_t	t	n/a
299.699	0.18	599398	keystroke_e	e	n/a
300.434	0.075	600868	keystroke_Key.backspace	Key.backspace	n/a
300.614	0.0745	601228	keystroke_Key.backspace	Key.backspace	n/a
300.8085	0.105	601617	keystroke_Key.backspace	Key.backspace	n/a
301.0185	0.075	602037	keystroke_Key.backspace	Key.backspace	n/a
301.5885	0.075	603177	keystroke_Key.backspace	Key.backspace	n/a
301.7685	0.09	603537	keystroke_Key.backspace	Key.backspace	n/a
301.9335	0.09	603867	keystroke_Key.backspace	Key.backspace	n/a
302.0985	0.09	604197	keystroke_Key.backspace	Key.backspace	n/a
302.2785	0.09	604557	keystroke_Key.backspace	Key.backspace	n/a
302.4435	0.075	604887	keystroke_Key.backspace	Key.backspace	n/a
302.5485	0.1055	605097	keystroke_c	c	n/a
302.699	0.09	605398	keystroke_h	h	n/a
302.804	0.135	605608	keystroke_a	a	n/a
302.954	0.135	605908	keystroke_n	n	n/a
303.044	0.105	606088	keystroke_g	g	n/a
303.104	0.15	606208	keystroke_e	e	n/a
303.329	0.12	606658	keystroke_Key.space	Key.space	n/a
303.509	0.105	607018	keystroke_e	e	n/a
304.0785	0.0755	608157	keystroke_Key.backspace	Key.backspace	n/a
304.124	0.1195	608248	keystroke_t	t	n/a
304.2135	0.12	608427	keystroke_e	e	n/a
304.3185	0.15	608637	keystroke_m	m	n/a
304.4235	0.15	608847	keystroke_p	p	n/a
304.709	0.15	609418	keystroke_o	o	n/a
305.6085	0.136	611217	keystroke_r	r	n/a
305.7585	0.15	611517	keystroke_a	a	n/a
305.8785	0.15	611757	keystroke_r	r	n/a
306.0585	0.136	612117	keystroke_i	i	n/a
306.2835	0.12	612567	keystroke_l	l	n/a
306.3595	0.164	612719	keystroke_y	y	n/a
306.4785	0.15	612957	keystroke_Key.space	Key.space	n/a
307.004	0.15	614008	keystroke_p	p	n/a
307.244	0.12	614488	keystroke_r	r	n/a
307.379	0.075	614758	keystroke_o	o	n/a
307.574	0.195	615148	keystroke_p	p	n/a
307.754	0.135	615508	keystroke_o	o	n/a
307.919	0.135	615838	keystroke_s	s	n/a
308.024	0.135	616048	keystroke_a	a	n/a
308.144	0.15	616288	keystroke_l	l	n/a
308.309	0.12	616618	keystroke_s	s	n/a
308.504	0.12	617008	keystroke_Key.space	Key.space	n/a
309.134	0.105	618268	keystroke_t	t	n/a
309.344	0.12	618688	keystroke_r	r	n/a
309.419	0.12	618838	keystroke_a	a	n/a
309.974	0.105	619948	keystroke_n	n	n/a
310.124	0.105	620248	keystroke_s	s	n/a
310.274	0.15	620548	keystroke_l	l	n/a
310.5285	0.135	621057	keystroke_a	a	n/a
310.6485	0.1205	621297	keystroke_t	t	n/a
310.784	0.09	621568	keystroke_i	i	n/a
310.844	0.195	621688	keystroke_o	o	n/a
310.979	0.165	621958	keystroke_n	n	n/a
311.729	0.105	623458	keystroke_Key.enter	Key.enter	n/a
311.8405	8.98	623681	prompt	n/a	white bridge italiano castle\n
312.569	0.1055	625138	keystroke_w	w	n/a
312.614	0.1355	625228	keystroke_h	h	n/a
312.6895	0.15	625379	keystroke_i	i	n/a
312.8545	0.135	625709	keystroke_t	t	n/a
312.9595	0.149	625919	keystroke_e	e	n/a
313.0935	0.105	626187	keystroke_Key.space	Key.space	n/a
313.3495	0.075	626699	keystroke_b	b	n/a
313.5445	0.135	627089	keystroke_r	r	n/a
313.7085	0.166	627417	keystroke_i	i	n/a
314.0695	0.12	628139	keystroke_d	d	n/a
314.8035	0.136	629607	keystroke_f	f	n/a
314.9835	0.12	629967	keystroke_e	e	n/a
315.3585	0.075	630717	keystroke_Key.backspace	Key.backspace	n/a
315.479	0.105	630958	keystroke_Key.backspace	Key.backspace	n/a
315.569	0.09	631138	keystroke_g	g	n/a
315.629	0.12	631258	keystroke_e	e	n/a
315.704	0.165	631408	keystroke_Key.space	Key.space	n/a
315.914	0.165	631828	keystroke_i	i	n/a
316.124	0.135	632248	keystroke_t	t	n/a
316.259	0.12	632518	keystroke_a	a	n/a
316.544	0.1645	633088	keystroke_l	l	n/a
316.634	0.1495	633268	keystroke_i	i	n/a
316.7985	0.165	633597	keystroke_a	a	n/a
316.9185	0.135	633837	keystroke_n	n	n/a
317.2635	0.15	634527	keystroke_o	o	n/a
317.5035	0.12	635007	keystroke_Key.space	Key.space	n/a
317.7885	0.135	635577	keystroke_c	c	n/a
317.8935	0.105	635787	keystroke_a	a	n/a
318.2085	0.135	636417	keystroke_s	s	n/a
318.5535	0.12	637107	keystroke_t	t	n/a
318.914	0.18	637828	keystroke_l	l	n/a
319.664	0.195	639328	keystroke_e	e	n/a
320.6985	0.1205	641397	keystroke_Key.enter	Key.enter	n/a
320.8245	8.051	641649	prompt	n/a	anchor causes popularity judicial\n
321.734	0.12	643468	keystroke_n	n	n/a
321.899	0.105	643798	keystroke_a	a	n/a
322.094	0.075	644188	keystroke_Key.backspace	Key.backspace	n/a
322.214	0.105	644428	keystroke_Key.backspace	Key.backspace	n/a
322.304	0.09	644608	keystroke_a	a	n/a
322.409	0.09	644818	keystroke_n	n	n/a
322.529	0.135	645058	keystroke_c	c	n/a
322.649	0.105	645298	keystroke_h	h	n/a
322.694	0.165	645388	keystroke_o	o	n/a
322.844	0.09	645688	keystroke_r	r	n/a
322.994	0.12	645988	keystroke_Key.space	Key.space	n/a
323.324	0.165	646648	keystroke_c	c	n/a
323.459	0.12	646918	keystroke_a	a	n/a
323.639	0.12	647278	keystroke_u	u	n/a
323.744	0.225	647488	keystroke_s	s	n/a
324.014	0.165	648028	keystroke_e	e	n/a
324.389	0.12	648778	keystroke_s	s	n/a
324.644	0.104	649288	keystroke_Key.space	Key.space	n/a
324.853	0.106	649706	keystroke_p	p	n/a
325.064	0.09	650128	keystroke_o	o	n/a
325.259	0.075	650518	keystroke_p	p	n/a
325.634	0.06	651268	keystroke_u	u	n/a
325.754	0.15	651508	keystroke_l	l	n/a
325.919	0.12	651838	keystroke_a	a	n/a
326.009	0.105	652018	keystroke_r	r	n/a
326.159	0.105	652318	keystroke_i	i	n/a
326.294	0.15	652588	keystroke_t	t	n/a
326.459	0.12	652918	keystroke_y	y	n/a
326.549	0.135	653098	keystroke_Key.space	Key.space	n/a
326.909	0.105	653818	keystroke_j	j	n/a
327.119	0.09	654238	keystroke_u	u	n/a
327.719	0.105	655438	keystroke_d	d	n/a
327.839	0.09	655678	keystroke_i	i	n/a
328.034	0.105	656068	keystroke_c	c	n/a
328.259	0.09	656518	keystroke_i	i	n/a
328.379	0.15	656758	keystroke_a	a	n/a
328.529	0.12	657058	keystroke_l	l	n/a
328.784	0.089	657568	keystroke_Key.enter	Key.enter	n/a
328.88	9.5055	657760	prompt	n/a	calcium refurbished mars public\n
329.489	0.15	658978	keystroke_c	c	n/a
329.624	0.105	659248	keystroke_l	l	n/a
329.759	0.1505	659518	keystroke_a	a	n/a
330.208	0.106	660416	keystroke_Key.backspace	Key.backspace	n/a
330.389	0.09	660778	keystroke_Key.backspace	Key.backspace	n/a
330.524	0.135	661048	keystroke_a	a	n/a
330.644	0.105	661288	keystroke_l	l	n/a
330.974	0.135	661948	keystroke_c	c	n/a
331.094	0.09	662188	keystroke_i	i	n/a
331.454	0.09	662908	keystroke_u	u	n/a
332.159	0.105	664318	keystroke_m	m	n/a
332.459	0.12	664918	keystroke_Key.space	Key.space	n/a
332.669	0.1045	665338	keystroke_r	r	n/a
332.7595	0.12	665519	keystroke_e	e	n/a
332.9835	0.18	665967	keystroke_f	f	n/a
333.1485	0.075	666297	keystroke_u	u	n/a
333.3735	0.09	666747	keystroke_n	n	n/a
333.6585	0.09	667317	keystroke_Key.backspace	Key.backspace	n/a
333.7945	0.089	667589	keystroke_r	r	n/a
334.6935	0.105	669387	keystroke_b	b	n/a
335.0545	0.149	670109	keystroke_i	i	n/a
335.2785	0.091	670557	keystroke_s	s	n/a
335.3695	0.089	670739	keystroke_h	h	n/a
335.474	0.075	670948	keystroke_e	e	n/a
335.6685	0.105	671337	keystroke_d	d	n/a
335.8635	0.124	671727	keystroke_Key.space	Key.space	n/a
336.2235	0.105	672447	keystroke_m	m	n/a
336.2985	0.12	672597	keystroke_a	a	n/a
336.3885	0.09	672777	keystroke_r	r	n/a
336.5985	0.105	673197	keystroke_s	s	n/a
336.7485	0.12	673497	keystroke_Key.space	Key.space	n/a
337.0635	0.195	674127	keystroke_p	p	n/a
337.2285	0.106	674457	keystroke_u	u	n/a
337.6035	0.12	675207	keystroke_b	b	n/a
337.8135	0.15	675627	keystroke_l	l	n/a
337.9185	0.15	675837	keystroke_i	i	n/a
338.0695	0.12	676139	keystroke_c	c	n/a
338.2935	0.09	676587	keystroke_Key.enter	Key.enter	n/a
338.3925	10.928	676785	prompt	n/a	happened dogs genetic democracy\n
338.999	0.09	677998	keystroke_h	h	n/a
339.104	0.1495	678208	keystroke_a	a	n/a
339.2385	0.06	678477	keystroke_p	p	n/a
339.3735	0.09	678747	keystroke_p	p	n/a
339.4785	0.09	678957	keystroke_e	e	n/a
339.5535	0.12	679107	keystroke_n	n	n/a
339.7635	0.12	679527	keystroke_d	d	n/a
340.3935	0.1205	680787	keystroke_Key.space	Key.space	n/a
340.814	0.105	681628	keystroke_d	d	n/a
340.9035	0.1205	681807	keystroke_o	o	n/a
341.024	0.1645	682048	keystroke_g	g	n/a
342.5685	0.06	685137	keystroke_Key.backspace	Key.backspace	n/a
342.7035	0.1055	685407	keystroke_Key.backspace	Key.backspace	n/a
342.884	0.075	685768	keystroke_Key.backspace	Key.backspace	n/a
343.034	0.075	686068	keystroke_Key.backspace	Key.backspace	n/a
343.169	0.105	686338	keystroke_Key.backspace	Key.backspace	n/a
343.289	0.06	686578	keystroke_e	e	n/a
343.484	0.09	686968	keystroke_d	d	n/a
343.559	0.12	687118	keystroke_Key.space	Key.space	n/a
343.769	0.105	687538	keystroke_d	d	n/a
343.859	0.105	687718	keystroke_o	o	n/a
343.994	0.15	687988	keystroke_g	g	n/a
344.144	0.135	688288	keystroke_s	s	n/a
344.399	0.12	688798	keystroke_Key.space	Key.space	n/a
344.924	0.12	689848	keystroke_g	g	n/a
345.028	0.091	690056	keystroke_e	e	n/a
345.164	0.075	690328	keystroke_n	n	n/a
345.253	0.106	690506	keystroke_e	e	n/a
345.419	0.105	690838	keystroke_r	r	n/a
345.794	0.075	691588	keystroke_Key.backspace	Key.backspace	n/a
345.884	0.09	691768	keystroke_t	t	n/a
345.989	0.12	691978	keystroke_i	i	n/a
346.139	0.15	692278	keystroke_c	c	n/a
346.304	0.135	692608	keystroke_Key.space	Key.space	n/a
346.529	0.09	693058	keystroke_d	d	n/a
346.739	0.0895	693478	keystroke_e	e	n/a
346.9335	0.136	693867	keystroke_m	m	n/a
347.0235	0.151	694047	keystroke_o	o	n/a
347.5035	0.06	695007	keystroke_c	c	n/a
347.7735	0.151	695547	keystroke_r	r	n/a
347.8785	0.105	695757	keystroke_a	a	n/a
348.1635	0.151	696327	keystroke_x	x	n/a
348.3285	0.12	696657	keystroke_y	y	n/a
348.6585	0.045	697317	keystroke_Key.backspace	Key.backspace	n/a
348.7785	0.105	697557	keystroke_Key.backspace	Key.backspace	n/a
348.8385	0.15	697677	keystroke_c	c	n/a
349.0035	0.09	698007	keystroke_y	y	n/a
349.2285	0.09	698457	keystroke_Key.enter	Key.enter	n/a
349.325	9.221	698650	prompt	n/a	thou florence lanes solved\n
349.9635	0.12	699927	keystroke_t	t	n/a
350.0085	0.105	700017	keystroke_h	h	n/a
350.1285	0.15	700257	keystroke_o	o	n/a
350.2185	0.135	700437	keystroke_u	u	n/a
350.4435	0.1345	700887	keystroke_Key.space	Key.space	n/a
350.594	0.105	701188	keystroke_f	f	n/a
350.684	0.089	701368	keystroke_l	l	n/a
350.894	0.105	701788	keystroke_o	o	n/a
351.239	0.075	702478	keystroke_u	u	n/a
351.554	0.09	703108	keystroke_Key.backspace	Key.backspace	n/a
351.689	0.135	703378	keystroke_r	r	n/a
351.959	0.12	703918	keystroke_e	e	n/a
352.094	0.12	704188	keystroke_n	n	n/a
352.229	0.09	704458	keystroke_c	c	n/a
352.454	0.09	704908	keystroke_e	e	n/a
352.604	0.105	705208	keystroke_Key.space	Key.space	n/a
352.829	0.105	705658	keystroke_l	l	n/a
353.069	0.105	706138	keystroke_a	a	n/a
353.144	0.135	706288	keystroke_n	n	n/a
353.294	0.09	706588	keystroke_d	d	n/a
354.419	0.1195	708838	keystroke_e	e	n/a
354.6585	0.12	709317	keystroke_s	s	n/a
355.9335	0.06	711867	keystroke_Key.backspace	Key.backspace	n/a
356.0685	0.09	712137	keystroke_Key.backspace	Key.backspace	n/a
356.2185	0.12	712437	keystroke_Key.backspace	Key.backspace	n/a
356.6395	0.119	713279	keystroke_s	s	n/a
357.089	0.0895	714178	keystroke_Key.backspace	Key.backspace	n/a
357.164	0.1195	714328	keystroke_e	e	n/a
357.2685	0.1355	714537	keystroke_s	s	n/a
357.434	0.12	714868	keystroke_Key.space	Key.space	n/a
357.5985	0.12	715197	keystroke_s	s	n/a
357.7035	0.1055	715407	keystroke_o	o	n/a
357.884	0.1495	715768	keystroke_l	l	n/a
358.0185	0.09	716037	keystroke_v	v	n/a
358.0935	0.105	716187	keystroke_e	e	n/a
358.3185	0.1205	716637	keystroke_d	d	n/a
358.4535	0.09	716907	keystroke_Key.enter	Key.enter	n/a
358.553	6.037	717106	prompt	n/a	timely airports sail medal\n
359.309	0.12	718618	keystroke_i	i	n/a
359.414	0.075	718828	keystroke_t	t	n/a
359.639	0.044	719278	keystroke_Key.backspace	Key.backspace	n/a
359.759	0.09	719518	keystroke_Key.backspace	Key.backspace	n/a
359.864	0.15	719728	keystroke_t	t	n/a
359.984	0.15	719968	keystroke_i	i	n/a
360.059	0.135	720118	keystroke_m	m	n/a
360.149	0.15	720298	keystroke_e	e	n/a
360.344	0.1955	720688	keystroke_l	l	n/a
360.434	0.1645	720868	keystroke_y	y	n/a
360.5535	0.135	721107	keystroke_Key.space	Key.space	n/a
360.8235	0.105	721647	keystroke_a	a	n/a
360.9295	0.119	721859	keystroke_i	i	n/a
361.0945	0.074	722189	keystroke_r	r	n/a
361.1385	0.165	722277	keystroke_p	p	n/a
361.2435	0.15	722487	keystroke_o	o	n/a
361.3785	0.09	722757	keystroke_r	r	n/a
361.6035	0.075	723207	keystroke_t	t	n/a
361.7835	0.18	723567	keystroke_s	s	n/a
362.0385	0.12	724077	keystroke_Key.space	Key.space	n/a
362.3535	0.135	724707	keystroke_s	s	n/a
362.4435	0.18	724887	keystroke_a	a	n/a
362.6385	0.151	725277	keystroke_i	i	n/a
362.7285	0.2255	725457	keystroke_l	l	n/a
363.194	0.15	726388	keystroke_Key.space	Key.space	n/a
363.599	0.12	727198	keystroke_m	m	n/a
363.734	0.075	727468	keystroke_e	e	n/a
363.959	0.165	727918	keystroke_d	d	n/a
364.094	0.12	728188	keystroke_a	a	n/a
364.259	0.12	728518	keystroke_l	l	n/a
364.499	0.09	728998	keystroke_Key.enter	Key.enter	n/a
364.5945	7.766	729189	prompt	n/a	poetry areas nationwide signal\n
365.2185	0.15	730437	keystroke_p	p	n/a
365.3385	0.1505	730677	keystroke_o	o	n/a
365.729	0.135	731458	keystroke_e	e	n/a
365.984	0.09	731968	keystroke_t	t	n/a
366.179	0.12	732358	keystroke_r	r	n/a
366.314	0.15	732628	keystroke_y	y	n/a
366.389	0.15	732778	keystroke_Key.space	Key.space	n/a
366.689	0.135	733378	keystroke_a	a	n/a
366.839	0.134	733678	keystroke_r	r	n/a
366.943	0.121	733886	keystroke_e	e	n/a
367.034	0.149	734068	keystroke_a	a	n/a
367.318	0.135	734636	keystroke_s	s	n/a
367.768	0.12	735536	keystroke_Key.space	Key.space	n/a
368.039	0.119	736078	keystroke_n	n	n/a
368.128	0.136	736256	keystroke_o	o	n/a
368.204	0.119	736408	keystroke_a	a	n/a
368.608	0.09	737216	keystroke_Key.backspace	Key.backspace	n/a
368.908	0.0755	737816	keystroke_Key.backspace	Key.backspace	n/a
369.0435	0.105	738087	keystroke_a	a	n/a
369.1335	0.135	738267	keystroke_t	t	n/a
369.2535	0.105	738507	keystroke_i	i	n/a
369.3435	0.165	738687	keystroke_o	o	n/a
369.4635	0.135	738927	keystroke_n	n	n/a
370.0635	0.09	740127	keystroke_w	w	n/a
370.1835	0.105	740367	keystroke_i	i	n/a
370.5285	0.105	741057	keystroke_d	d	n/a
370.7385	0.105	741477	keystroke_e	e	n/a
370.9185	0.105	741837	keystroke_Key.space	Key.space	n/a
371.3535	0.105	742707	keystroke_s	s	n/a
371.4435	0.105	742887	keystroke_i	i	n/a
371.5635	0.105	743127	keystroke_g	g	n/a
371.6985	0.12	743397	keystroke_n	n	n/a
371.9385	0.09	743877	keystroke_a	a	n/a
372.0435	0.12	744087	keystroke_l	l	n/a
372.2685	0.09	744537	keystroke_Key.enter	Key.enter	n/a
372.366	7.345	744732	prompt	n/a	admission beginning packets radio\n
373.154	0.135	746308	keystroke_a	a	n/a
373.304	0.165	746608	keystroke_d	d	n/a
373.484	0.135	746968	keystroke_m	m	n/a
373.559	0.135	747118	keystroke_i	i	n/a
373.694	0.075	747388	keystroke_s	s	n/a
373.844	0.12	747688	keystroke_s	s	n/a
374.114	0.135	748228	keystroke_i	i	n/a
374.219	0.21	748438	keystroke_o	o	n/a
374.369	0.165	748738	keystroke_n	n	n/a
374.474	0.15	748948	keystroke_Key.space	Key.space	n/a
374.849	0.134	749698	keystroke_b	b	n/a
374.968	0.09	749936	keystroke_e	e	n/a
375.283	0.135	750566	keystroke_g	g	n/a
375.433	0.121	750866	keystroke_i	i	n/a
375.524	0.135	751048	keystroke_n	n	n/a
375.749	0.135	751498	keystroke_n	n	n/a
375.869	0.24	751738	keystroke_i	i	n/a
376.034	0.2845	752068	keystroke_n	n	n/a
376.3485	0.1205	752697	keystroke_g	g	n/a
376.859	0.105	753718	keystroke_Key.space	Key.space	n/a
377.099	0.09	754198	keystroke_p	p	n/a
377.204	0.06	754408	keystroke_a	a	n/a
377.369	0.165	754738	keystroke_c	c	n/a
377.744	0.165	755488	keystroke_k	k	n/a
377.969	0.165	755938	keystroke_e	e	n/a
378.119	0.12	756238	keystroke_t	t	n/a
378.314	0.18	756628	keystroke_s	s	n/a
378.658	0.106	757316	keystroke_Key.space	Key.space	n/a
378.839	0.134	757678	keystroke_r	r	n/a
378.944	0.134	757888	keystroke_a	a	n/a
379.153	0.18	758306	keystroke_d	d	n/a
379.273	0.12	758546	keystroke_i	i	n/a
379.363	0.12	758726	keystroke_o	o	n/a
379.588	0.12	759176	keystroke_Key.enter	Key.enter	n/a
379.716	5.62	759432	prompt	n/a	preventing community why's sending\n
380.339	0.12	760678	keystroke_p	p	n/a
380.489	0.15	760978	keystroke_r	r	n/a
380.594	0.135	761188	keystroke_e	e	n/a
380.879	0.09	761758	keystroke_v	v	n/a
380.954	0.1045	761908	keystroke_e	e	n/a
381.0735	0.12	762147	keystroke_n	n	n/a
381.2235	0.09	762447	keystroke_t	t	n/a
381.3285	0.21	762657	keystroke_i	i	n/a
381.4635	0.15	762927	keystroke_n	n	n/a
381.6285	0.09	763257	keystroke_g	g	n/a
381.7485	0.105	763497	keystroke_Key.space	Key.space	n/a
381.9885	0.165	763977	keystroke_c	c	n/a
382.1085	0.09	764217	keystroke_o	o	n/a
382.1385	0.105	764277	keystroke_m	m	n/a
382.3035	0.105	764607	keystroke_m	m	n/a
382.5285	0.06	765057	keystroke_u	u	n/a
382.7235	0.075	765447	keystroke_n	n	n/a
382.7535	0.135	765507	keystroke_i	i	n/a
382.8735	0.105	765747	keystroke_t	t	n/a
383.0385	0.135	766077	keystroke_y	y	n/a
383.1285	0.12	766257	keystroke_Key.space	Key.space	n/a
383.4135	0.105	766827	keystroke_w	w	n/a
383.4885	0.105	766977	keystroke_h	h	n/a
383.7135	0.075	767427	keystroke_y	y	n/a
383.8785	0.135	767757	keystroke_'	'	n/a
383.9985	0.12	767997	keystroke_s	s	n/a
384.1485	0.12	768297	keystroke_Key.space	Key.space	n/a
384.4485	0.135	768897	keystroke_s	s	n/a
384.5385	0.105	769077	keystroke_e	e	n/a
384.6135	0.12	769227	keystroke_n	n	n/a
384.7485	0.12	769497	keystroke_d	d	n/a
384.8695	0.1495	769739	keystroke_i	i	n/a
384.9585	0.1505	769917	keystroke_n	n	n/a
385.064	0.105	770128	keystroke_g	g	n/a
385.228	0.105	770456	keystroke_Key.enter	Key.enter	n/a
385.3435	10.687	770687	prompt	n/a	photograph phil lease church\n
385.9635	0.136	771927	keystroke_p	p	n/a
386.0685	0.135	772137	keystroke_h	h	n/a
386.2935	0.12	772587	keystroke_t	t	n/a
386.4285	0.1355	772857	keystroke_o	o	n/a
386.8785	0.045	773757	keystroke_g	g	n/a
387.044	0.15	774088	keystroke_r	r	n/a
387.179	0.149	774358	keystroke_a	a	n/a
387.208	0.136	774416	keystroke_p	p	n/a
387.314	0.12	774628	keystroke_h	h	n/a
387.748	0.09	775496	keystroke_Key.backspace	Key.backspace	n/a
387.914	0.089	775828	keystroke_Key.backspace	Key.backspace	n/a
388.078	0.076	776156	keystroke_Key.backspace	Key.backspace	n/a
388.243	0.075	776486	keystroke_Key.backspace	Key.backspace	n/a
388.393	0.09	776786	keystroke_Key.backspace	Key.backspace	n/a
388.543	0.091	777086	keystroke_Key.backspace	Key.backspace	n/a
388.994	0.06	777988	keystroke_Key.backspace	Key.backspace	n/a
389.219	0.09	778438	keystroke_o	o	n/a
389.564	0.135	779128	keystroke_t	t	n/a
389.714	0.135	779428	keystroke_o	o	n/a
389.954	0.075	779908	keystroke_g	g	n/a
390.149	0.135	780298	keystroke_r	r	n/a
390.254	0.165	780508	keystroke_a	a	n/a
390.314	0.135	780628	keystroke_p	p	n/a
390.404	0.105	780808	keystroke_h	h	n/a
390.659	0.105	781318	keystroke_y	y	n/a
391.139	0.075	782278	keystroke_Key.backspace	Key.backspace	n/a
391.319	0.135	782638	keystroke_Key.space	Key.space	n/a
391.649	0.12	783298	keystroke_p	p	n/a
391.739	0.15	783478	keystroke_h	h	n/a
391.859	0.18	783718	keystroke_i	i	n/a
391.979	0.225	783958	keystroke_l	l	n/a
392.189	0.12	784378	keystroke_Key.space	Key.space	n/a
392.354	0.15	784708	keystroke_l	l	n/a
392.489	0.105	784978	keystroke_e	e	n/a
392.564	0.15	785128	keystroke_a	a	n/a
392.699	0.195	785398	keystroke_s	s	n/a
392.864	0.21	785728	keystroke_e	e	n/a
393.493	0.105	786986	keystroke_Key.space	Key.space	n/a
393.869	0.12	787738	keystroke_d	d	n/a
394.214	0.075	788428	keystroke_Key.backspace	Key.backspace	n/a
394.304	0.105	788608	keystroke_c	c	n/a
394.394	0.09	788788	keystroke_h	h	n/a
394.559	0.09	789118	keystroke_r	r	n/a
394.694	0.09	789388	keystroke_u	u	n/a
395.008	0.061	790016	keystroke_Key.backspace	Key.backspace	n/a
395.129	0.09	790258	keystroke_Key.backspace	Key.backspace	n/a
395.309	0.0745	790618	keystroke_u	u	n/a
395.3685	0.0755	790737	keystroke_r	r	n/a
395.5935	0.165	791187	keystroke_c	c	n/a
395.7135	0.09	791427	keystroke_h	h	n/a
395.9385	0.09	791877	keystroke_Key.enter	Key.enter	n/a
396.0365	7.029	792073	prompt	n/a	rest instrumentation going lloyd\n
396.7945	0.119	793589	keystroke_r	r	n/a
396.8845	0.134	793769	keystroke_e	e	n/a
396.9735	0.1955	793947	keystroke_s	s	n/a
397.139	0.105	794278	keystroke_t	t	n/a
397.259	0.135	794518	keystroke_Key.space	Key.space	n/a
397.394	0.195	794788	keystroke_i	i	n/a
397.484	0.15	794968	keystroke_n	n	n/a
397.694	0.09	795388	keystroke_s	s	n/a
397.904	0.06	795808	keystroke_t	t	n/a
398.069	0.09	796138	keystroke_r	r	n/a
398.204	0.12	796408	keystroke_u	u	n/a
398.594	0.105	797188	keystroke_m	m	n/a
398.714	0.12	797428	keystroke_e	e	n/a
398.849	0.105	797698	keystroke_n	n	n/a
398.969	0.105	797938	keystroke_t	t	n/a
399.509	0.135	799018	keystroke_a	a	n/a
399.614	0.135	799228	keystroke_t	t	n/a
399.779	0.135	799558	keystroke_i	i	n/a
399.869	0.18	799738	keystroke_o	o	n/a
399.944	0.21	799888	keystroke_n	n	n/a
400.109	0.15	800218	keystroke_Key.space	Key.space	n/a
400.379	0.1055	800758	keystroke_g	g	n/a
400.4685	0.15	800937	keystroke_o	o	n/a
400.5735	0.18	801147	keystroke_i	i	n/a
400.6785	0.135	801357	keystroke_n	n	n/a
400.7685	0.075	801537	keystroke_g	g	n/a
400.8735	0.12	801747	keystroke_Key.space	Key.space	n/a
401.128	0.12	802256	keystroke_l	l	n/a
401.878	0.136	803756	keystroke_l	l	n/a
402.118	0.15	804236	keystroke_o	o	n/a
402.283	0.105	804566	keystroke_y	y	n/a
402.583	0.105	805166	keystroke_d	d	n/a
402.9585	0.105	805917	keystroke_Key.enter	Key.enter	n/a
403.0705	8.935	806141	prompt	n/a	graph dimension congressional seriously\n
403.739	0.075	807478	keystroke_g	g	n/a
403.919	0.135	807838	keystroke_r	r	n/a
403.994	0.225	807988	keystroke_a	a	n/a
404.249	0.1495	808498	keystroke_p	p	n/a
404.819	0.09	809638	keystroke_Key.backspace	Key.backspace	n/a
405.059	0.0895	810118	keystroke_h	h	n/a
405.3435	0.075	810687	keystroke_Key.backspace	Key.backspace	n/a
405.689	0.09	811378	keystroke_h	h	n/a
406.049	0.06	812098	keystroke_Key.backspace	Key.backspace	n/a
406.259	0.15	812518	keystroke_p	p	n/a
406.364	0.135	812728	keystroke_h	h	n/a
406.469	0.135	812938	keystroke_Key.space	Key.space	n/a
406.769	0.15	813538	keystroke_d	d	n/a
406.934	0.105	813868	keystroke_i	i	n/a
407.128	0.105	814256	keystroke_m	m	n/a
407.263	0.12	814526	keystroke_e	e	n/a
407.384	0.12	814768	keystroke_n	n	n/a
407.834	0.134	815668	keystroke_s	s	n/a
407.939	0.12	815878	keystroke_i	i	n/a
408.043	0.15	816086	keystroke_o	o	n/a
408.118	0.165	816236	keystroke_n	n	n/a
408.253	0.15	816506	keystroke_Key.space	Key.space	n/a
408.793	0.12	817586	keystroke_c	c	n/a
408.883	0.135	817766	keystroke_o	o	n/a
408.943	0.12	817886	keystroke_n	n	n/a
409.078	0.0905	818156	keystroke_g	g	n/a
409.3335	0.09	818667	keystroke_r	r	n/a
409.3935	0.105	818787	keystroke_e	e	n/a
409.6335	0.06	819267	keystroke_s	s	n/a
409.7835	0.12	819567	keystroke_s	s	n/a
409.8885	0.135	819777	keystroke_i	i	n/a
409.9635	0.195	819927	keystroke_o	o	n/a
410.0535	0.165	820107	keystroke_n	n	n/a
410.2035	0.135	820407	keystroke_a	a	n/a
410.3535	0.1655	820707	keystroke_l	l	n/a
410.4435	0.1205	820887	keystroke_Key.space	Key.space	n/a
410.744	0.165	821488	keystroke_s	s	n/a
410.894	0.15	821788	keystroke_e	e	n/a
411.059	0.104	822118	keystroke_r	r	n/a
411.164	0.179	822328	keystroke_i	i	n/a
411.239	0.15	822478	keystroke_o	o	n/a
411.358	0.106	822716	keystroke_u	u	n/a
411.448	0.136	822896	keystroke_s	s	n/a
411.553	0.181	823106	keystroke_l	l	n/a
411.673	0.12	823346	keystroke_y	y	n/a
411.914	0.089	823828	keystroke_Key.enter	Key.enter	n/a
412.0115	7.9585	824023	prompt	n/a	warner explain introduce cooler\n
412.739	0.225	825478	keystroke_w	w	n/a
412.918	0.121	825836	keystroke_a	a	n/a
412.993	0.1205	825986	keystroke_r	r	n/a
413.2035	0.105	826407	keystroke_n	n	n/a
413.2935	0.18	826587	keystroke_e	e	n/a
413.4435	0.105	826887	keystroke_r	r	n/a
413.6385	0.09	827277	keystroke_Key.space	Key.space	n/a
413.7735	0.105	827547	keystroke_e	e	n/a
414.0585	0.135	828117	keystroke_x	x	n/a
414.4785	0.12	828957	keystroke_p	p	n/a
414.7185	0.15	829437	keystroke_a	a	n/a
415.5145	0.044	831029	keystroke_Key.backspace	Key.backspace	n/a
415.7235	0.105	831447	keystroke_l	l	n/a
415.8435	0.12	831687	keystroke_a	a	n/a
415.9785	0.165	831957	keystroke_i	i	n/a
416.0385	0.165	832077	keystroke_n	n	n/a
416.3985	0.12	832797	keystroke_Key.space	Key.space	n/a
416.7735	0.135	833547	keystroke_i	i	n/a
416.8485	0.135	833697	keystroke_n	n	n/a
417.1935	0.045	834387	keystroke_r	r	n/a
417.5385	0.075	835077	keystroke_Key.backspace	Key.backspace	n/a
417.6285	0.06	835257	keystroke_t	t	n/a
417.7635	0.105	835527	keystroke_r	r	n/a
417.8835	0.105	835767	keystroke_o	o	n/a
418.0185	0.105	836037	keystroke_d	d	n/a
418.1385	0.09	836277	keystroke_u	u	n/a
418.2435	0.09	836487	keystroke_c	c	n/a
418.4385	0.09	836877	keystroke_e	e	n/a
418.5735	0.12	837147	keystroke_Key.space	Key.space	n/a
418.9335	0.135	837867	keystroke_c	c	n/a
418.9785	0.091	837957	keystroke_o	o	n/a
419.144	0.1045	838288	keystroke_o	o	n/a
419.3385	0.075	838677	keystroke_l	l	n/a
419.5935	0.135	839187	keystroke_e	e	n/a
419.7135	0.105	839427	keystroke_r	r	n/a
419.8635	0.105	839727	keystroke_Key.enter	Key.enter	n/a
419.9775	9.5775	839955	prompt	n/a	industry eden military streaming\n
420.539	0.165	841078	keystroke_i	i	n/a
420.614	0.135	841228	keystroke_n	n	n/a
420.764	0.09	841528	keystroke_d	d	n/a
420.914	0.09	841828	keystroke_u	u	n/a
420.974	0.105	841948	keystroke_s	s	n/a
421.153	0.091	842306	keystroke_t	t	n/a
421.348	0.105	842696	keystroke_r	r	n/a
421.484	0.119	842968	keystroke_y	y	n/a
421.558	0.135	843116	keystroke_Key.space	Key.space	n/a
421.918	0.09	843836	keystroke_e	e	n/a
422.128	0.076	844256	keystroke_d	d	n/a
422.338	0.09	844676	keystroke_e	e	n/a
422.548	0.195	845096	keystroke_n	n	n/a
422.728	0.12	845456	keystroke_Key.space	Key.space	n/a
423.1785	0.18	846357	keystroke_m	m	n/a
423.2985	0.135	846597	keystroke_i	i	n/a
423.4185	0.21	846837	keystroke_l	l	n/a
423.5685	0.135	847137	keystroke_i	i	n/a
423.8085	0.165	847617	keystroke_a	a	n/a
423.9135	0.15	847827	keystroke_r	r	n/a
424.4385	0.075	848877	keystroke_Key.backspace	Key.backspace	n/a
424.6785	0.135	849357	keystroke_t	t	n/a
425.2485	0.09	850497	keystroke_Key.backspace	Key.backspace	n/a
425.3835	0.12	850767	keystroke_r	r	n/a
425.518	0.135	851036	keystroke_y	y	n/a
425.608	0.135	851216	keystroke_Key.space	Key.space	n/a
426.0435	0.0595	852087	keystroke_Key.backspace	Key.backspace	n/a
426.193	0.06	852386	keystroke_Key.backspace	Key.backspace	n/a
426.343	0.09	852686	keystroke_Key.backspace	Key.backspace	n/a
426.493	0.105	852986	keystroke_Key.backspace	Key.backspace	n/a
426.703	0.12	853406	keystroke_t	t	n/a
426.809	0.164	853618	keystroke_a	a	n/a
426.943	0.12	853886	keystroke_r	r	n/a
427.123	0.105	854246	keystroke_y	y	n/a
427.1835	0.1345	854367	keystroke_Key.space	Key.space	n/a
427.7385	0.105	855477	keystroke_s	s	n/a
427.8735	0.045	855747	keystroke_t	t	n/a
428.0385	0.135	856077	keystroke_r	r	n/a
428.0835	0.225	856167	keystroke_e	e	n/a
428.3235	0.195	856647	keystroke_m	m	n/a
428.7585	0.06	857517	keystroke_Key.backspace	Key.backspace	n/a
428.8485	0.12	857697	keystroke_a	a	n/a
428.9385	0.135	857877	keystroke_m	m	n/a
429.0885	0.1505	858177	keystroke_i	i	n/a
429.194	0.135	858388	keystroke_n	n	n/a
429.314	0.09	858628	keystroke_g	g	n/a
429.464	0.09	858928	keystroke_Key.enter	Key.enter	n/a
429.56	7.4205	859120	prompt	n/a	nerve unfortunately dealing restrict\n
430.184	0.105	860368	keystroke_n	n	n/a
430.319	0.2245	860638	keystroke_e	e	n/a
430.5285	0.12	861057	keystroke_r	r	n/a
430.8735	0.15	861747	keystroke_v	v	n/a
431.0085	0.135	862017	keystroke_e	e	n/a
431.2335	0.105	862467	keystroke_Key.space	Key.space	n/a
431.489	0.075	862978	keystroke_u	u	n/a
431.699	0.075	863398	keystroke_n	n	n/a
431.804	0.105	863608	keystroke_f	f	n/a
431.939	0.09	863878	keystroke_o	o	n/a
432.014	0.105	864028	keystroke_r	r	n/a
432.299	0.09	864598	keystroke_t	t	n/a
432.329	0.075	864658	keystroke_u	u	n/a
432.584	0.12	865168	keystroke_n	n	n/a
432.7635	0.105	865527	keystroke_a	a	n/a
432.8235	0.165	865647	keystroke_t	t	n/a
432.9585	0.195	865917	keystroke_e	e	n/a
433.1835	0.1805	866367	keystroke_l	l	n/a
433.319	0.1345	866638	keystroke_y	y	n/a
433.4835	0.15	866967	keystroke_Key.space	Key.space	n/a
433.904	0.075	867808	keystroke_d	d	n/a
434.099	0.075	868198	keystroke_e	e	n/a
434.159	0.15	868318	keystroke_a	a	n/a
434.309	0.135	868618	keystroke_l	l	n/a
434.399	0.21	868798	keystroke_i	i	n/a
434.519	0.15	869038	keystroke_n	n	n/a
434.684	0.105	869368	keystroke_g	g	n/a
434.789	0.12	869578	keystroke_Key.space	Key.space	n/a
435.223	0.12	870446	keystroke_r	r	n/a
435.313	0.1955	870626	keystroke_e	e	n/a
435.4635	0.135	870927	keystroke_s	s	n/a
435.5835	0.09	871167	keystroke_t	t	n/a
435.7785	0.09	871557	keystroke_r	r	n/a
435.9285	0.075	871857	keystroke_i	i	n/a
436.0185	0.15	872037	keystroke_c	c	n/a
436.1835	0.12	872367	keystroke_k	k	n/a
436.6035	0.075	873207	keystroke_Key.backspace	Key.backspace	n/a
436.6935	0.105	873387	keystroke_t	t	n/a
436.8585	0.12	873717	keystroke_Key.enter	Key.enter	n/a
436.986	6.639	873972	prompt	n/a	strict passion argentina below\n
437.6685	0.135	875337	keystroke_s	s	n/a
437.7585	0.105	875517	keystroke_t	t	n/a
437.9835	0.105	875967	keystroke_r	r	n/a
438.1635	0.12	876327	keystroke_i	i	n/a
438.3285	0.15	876657	keystroke_c	c	n/a
439.1385	0.06	878277	keystroke_t	t	n/a
439.3185	0.12	878637	keystroke_Key.space	Key.space	n/a
439.5435	0.105	879087	keystroke_p	p	n/a
439.7085	0.09	879417	keystroke_a	a	n/a
439.8585	0.09	879717	keystroke_s	s	n/a
440.0385	0.09	880077	keystroke_s	s	n/a
440.1135	0.12	880227	keystroke_i	i	n/a
440.1885	0.15	880377	keystroke_o	o	n/a
440.2345	0.149	880469	keystroke_n	n	n/a
440.3085	0.15	880617	keystroke_Key.space	Key.space	n/a
440.818	0.135	881636	keystroke_a	a	n/a
440.893	0.105	881786	keystroke_r	r	n/a
441.134	0.1045	882268	keystroke_g	g	n/a
441.209	0.1195	882418	keystroke_e	e	n/a
441.3135	0.12	882627	keystroke_n	n	n/a
441.5235	0.075	883047	keystroke_t	t	n/a
441.6285	0.105	883257	keystroke_i	i	n/a
441.8385	0.135	883677	keystroke_n	n	n/a
441.9885	0.15	883977	keystroke_a	a	n/a
442.1235	0.12	884247	keystroke_Key.space	Key.space	n/a
442.4085	0.105	884817	keystroke_b	b	n/a
442.6635	0.135	885327	keystroke_e	e	n/a
442.8435	0.12	885687	keystroke_l	l	n/a
443.0835	0.12	886167	keystroke_o	o	n/a
443.2185	0.12	886437	keystroke_w	w	n/a
443.5335	0.09	887067	keystroke_Key.enter	Key.enter	n/a
443.63	6.775	887260	prompt	n/a	serbia dairy catholic larger\n
444.4485	0.165	888897	keystroke_s	s	n/a
444.5835	0.15	889167	keystroke_e	e	n/a
444.7035	0.105	889407	keystroke_r	r	n/a
445.0035	0.135	890007	keystroke_b	b	n/a
445.1395	0.1185	890279	keystroke_i	i	n/a
445.303	0.121	890606	keystroke_a	a	n/a
445.4685	0.12	890937	keystroke_Key.space	Key.space	n/a
445.9485	0.15	891897	keystroke_d	d	n/a
446.1285	0.12	892257	keystroke_a	a	n/a
446.5185	0.12	893037	keystroke_i	i	n/a
446.6685	0.21	893337	keystroke_l	l	n/a
447.0435	0.075	894087	keystroke_Key.backspace	Key.backspace	n/a
447.1635	0.09	894327	keystroke_r	r	n/a
447.313	0.12	894626	keystroke_y	y	n/a
447.373	0.15	894746	keystroke_Key.space	Key.space	n/a
447.853	0.105	895706	keystroke_c	c	n/a
448.078	0.09	896156	keystroke_a	a	n/a
448.333	0.075	896666	keystroke_t	t	n/a
448.438	0.135	896876	keystroke_h	h	n/a
448.543	0.12	897086	keystroke_o	o	n/a
448.783	0.106	897566	keystroke_l	l	n/a
448.948	0.105	897896	keystroke_i	i	n/a
449.068	0.135	898136	keystroke_c	c	n/a
449.218	0.135	898436	keystroke_Key.space	Key.space	n/a
449.443	0.135	898886	keystroke_l	l	n/a
449.563	0.135	899126	keystroke_a	a	n/a
449.638	0.105	899276	keystroke_r	r	n/a
449.878	0.09	899756	keystroke_g	g	n/a
449.938	0.165	899876	keystroke_e	e	n/a
450.073	0.165	900146	keystroke_r	r	n/a
450.298	0.105	900596	keystroke_Key.enter	Key.enter	n/a
450.41	8.7395	900820	prompt	n/a	bacon entirely specified civilian\n
451.063	0.121	902126	keystroke_b	b	n/a
451.168	0.075	902336	keystroke_a	a	n/a
451.408	0.181	902816	keystroke_c	c	n/a
451.543	0.18	903086	keystroke_o	o	n/a
451.633	0.165	903266	keystroke_n	n	n/a
451.753	0.15	903506	keystroke_Key.space	Key.space	n/a
452.038	0.105	904076	keystroke_e	e	n/a
452.113	0.12	904226	keystroke_n	n	n/a
452.308	0.105	904616	keystroke_t	t	n/a
452.488	0.105	904976	keystroke_i	i	n/a
452.848	0.165	905696	keystroke_r	r	n/a
452.998	0.105	905996	keystroke_e	e	n/a
453.268	0.21	906536	keystroke_l	l	n/a
453.448	0.165	906896	keystroke_y	y	n/a
453.838	0.075	907676	keystroke_Key.backspace	Key.backspace	n/a
454.468	0.12	908936	keystroke_y	y	n/a
454.603	0.15	909206	keystroke_Key.space	Key.space	n/a
454.888	0.105	909776	keystroke_s	s	n/a
455.038	0.105	910076	keystroke_p	p	n/a
455.113	0.075	910226	keystroke_e	e	n/a
455.459	0.179	910918	keystroke_c	c	n/a
455.639	0.059	911278	keystroke_i	i	n/a
455.743	0.105	911486	keystroke_f	f	n/a
455.834	0.119	911668	keystroke_i	i	n/a
455.968	0.106	911936	keystroke_e	e	n/a
456.178	0.075	912356	keystroke_d	d	n/a
456.268	0.12	912536	keystroke_Key.space	Key.space	n/a
456.673	0.105	913346	keystroke_v	v	n/a
457.063	0.105	914126	keystroke_i	i	n/a
457.333	0.06	914666	keystroke_Key.backspace	Key.backspace	n/a
457.453	0.09	914906	keystroke_Key.backspace	Key.backspace	n/a
457.559	0.089	915118	keystroke_c	c	n/a
457.678	0.06	915356	keystroke_i	i	n/a
457.798	0.105	915596	keystroke_v	v	n/a
457.888	0.09	915776	keystroke_i	i	n/a
458.308	0.165	916616	keystroke_l	l	n/a
458.428	0.15	916856	keystroke_i	i	n/a
458.683	0.165	917366	keystroke_a	a	n/a
458.818	0.135	917636	keystroke_n	n	n/a
459.043	0.105	918086	keystroke_Key.enter	Key.enter	n/a
459.155	7.2695	918310	prompt	n/a	consoles refund signals figured\n
459.7485	0.18	919497	keystroke_c	c	n/a
459.8685	0.105	919737	keystroke_o	o	n/a
459.9435	0.12	919887	keystroke_n	n	n/a
460.0935	0.12	920187	keystroke_s	s	n/a
460.2435	0.09	920487	keystroke_o	o	n/a
460.4235	0.1195	920847	keystroke_l	l	n/a
460.558	0.135	921116	keystroke_e	e	n/a
460.678	0.105	921356	keystroke_s	s	n/a
460.933	0.105	921866	keystroke_Key.space	Key.space	n/a
461.308	0.135	922616	keystroke_r	r	n/a
461.428	0.09	922856	keystroke_e	e	n/a
461.6085	0.1195	923217	keystroke_f	f	n/a
461.729	0.074	923458	keystroke_u	u	n/a
461.938	0.1345	923876	keystroke_n	n	n/a
462.164	0.134	924328	keystroke_d	d	n/a
462.388	0.1195	924776	keystroke_Key.space	Key.space	n/a
462.7475	0.1505	925495	keystroke_s	s	n/a
462.869	0.0895	925738	keystroke_i	i	n/a
463.0175	0.0765	926035	keystroke_g	g	n/a
463.1075	0.121	926215	keystroke_n	n	n/a
463.2725	0.1355	926545	keystroke_a	a	n/a
463.558	0.076	927116	keystroke_r	r	n/a
463.918	0.075	927836	keystroke_Key.backspace	Key.backspace	n/a
464.128	0.106	928256	keystroke_l	l	n/a
464.218	0.105	928436	keystroke_s	s	n/a
464.3835	0.12	928767	keystroke_Key.space	Key.space	n/a
464.8935	0.12	929787	keystroke_f	f	n/a
464.9835	0.135	929967	keystroke_i	i	n/a
465.508	0.09	931016	keystroke_g	g	n/a
465.613	0.12	931226	keystroke_u	u	n/a
465.763	0.165	931526	keystroke_r	r	n/a
465.943	0.09	931886	keystroke_e	e	n/a
466.168	0.105	932336	keystroke_d	d	n/a
466.318	0.105	932636	keystroke_Key.enter	Key.enter	n/a
466.429	6.3705	932858	prompt	n/a	logan chart thesis drums\n
466.993	0.075	933986	keystroke_l	l	n/a
467.173	0.12	934346	keystroke_o	o	n/a
467.4135	0.12	934827	keystroke_g	g	n/a
467.5035	0.165	935007	keystroke_a	a	n/a
467.6535	0.195	935307	keystroke_n	n	n/a
467.7885	0.15	935577	keystroke_Key.space	Key.space	n/a
468.2385	0.12	936477	keystroke_c	c	n/a
468.3435	0.105	936687	keystroke_h	h	n/a
468.4785	0.135	936957	keystroke_a	a	n/a
468.5385	0.105	937077	keystroke_r	r	n/a
468.7635	0.09	937527	keystroke_t	t	n/a
468.9735	0.135	937947	keystroke_Key.space	Key.space	n/a
469.5885	0.089	939177	keystroke_t	t	n/a
469.6935	0.105	939387	keystroke_h	h	n/a
469.8435	0.105	939687	keystroke_e	e	n/a
470.1585	0.135	940317	keystroke_s	s	n/a
470.3085	0.12	940617	keystroke_i	i	n/a
470.5335	0.12	941067	keystroke_s	s	n/a
471.0885	0.164	942177	keystroke_Key.space	Key.space	n/a
471.658	0.105	943316	keystroke_d	d	n/a
471.823	0.15	943646	keystroke_r	r	n/a
472.168	0.09	944336	keystroke_u	u	n/a
472.393	0.105	944786	keystroke_m	m	n/a
472.528	0.105	945056	keystroke_s	s	n/a
472.693	0.105	945386	keystroke_Key.enter	Key.enter	n/a
472.804	8.051	945608	prompt	n/a	roots submitted percentage ensures\n
473.563	0.045	947126	keystroke_s	s	n/a
473.908	0.06	947816	keystroke_Key.backspace	Key.backspace	n/a
474.028	0.076	948056	keystroke_r	r	n/a
474.133	0.0605	948266	keystroke_o	o	n/a
474.283	0.12	948566	keystroke_o	o	n/a
474.388	0.09	948776	keystroke_t	t	n/a
474.523	0.15	949046	keystroke_s	s	n/a
474.658	0.12	949316	keystroke_Key.space	Key.space	n/a
474.7935	0.1345	949587	keystroke_s	s	n/a
474.929	0.074	949858	keystroke_u	u	n/a
475.138	0.09	950276	keystroke_b	b	n/a
475.348	0.165	950696	keystroke_m	m	n/a
475.468	0.15	950936	keystroke_i	i	n/a
475.678	0.06	951356	keystroke_t	t	n/a
475.843	0.09	951686	keystroke_t	t	n/a
475.934	0.119	951868	keystroke_e	e	n/a
476.173	0.09	952346	keystroke_d	d	n/a
476.293	0.165	952586	keystroke_Key.space	Key.space	n/a
476.428	0.15	952856	keystroke_p	p	n/a
476.563	0.135	953126	keystroke_e	e	n/a
476.668	0.12	953336	keystroke_r	r	n/a
477.073	0.075	954146	keystroke_d	d	n/a
477.5085	0.089	955017	keystroke_Key.backspace	Key.backspace	n/a
477.5535	0.105	955107	keystroke_c	c	n/a
477.7635	0.12	955527	keystroke_e	e	n/a
478.0035	0.12	956007	keystroke_n	n	n/a
478.1835	0.12	956367	keystroke_t	t	n/a
478.4085	0.135	956817	keystroke_a	a	n/a
478.5285	0.105	957057	keystroke_g	g	n/a
478.6035	0.12	957207	keystroke_e	e	n/a
478.7835	0.119	957567	keystroke_Key.space	Key.space	n/a
479.1885	0.09	958377	keystroke_e	e	n/a
479.2635	0.12	958527	keystroke_n	n	n/a
479.4575	0.09	958915	keystroke_s	s	n/a
479.5925	0.075	959185	keystroke_u	u	n/a
479.6825	0.105	959365	keystroke_r	r	n/a
479.7575	0.106	959515	keystroke_e	e	n/a
480.043	0.075	960086	keystroke_e	e	n/a
480.4935	0.09	960987	keystroke_Key.backspace	Key.backspace	n/a
480.5685	0.12	961137	keystroke_s	s	n/a
480.7485	0.105	961497	keystroke_Key.enter	Key.enter	n/a
480.86	12.3995	961720	prompt	n/a	marijuana accompanying rainbow explanation\n
481.558	0.105	963116	keystroke_m	m	n/a
481.693	0.12	963386	keystroke_a	a	n/a
481.798	0.105	963596	keystroke_r	r	n/a
482.158	0.105	964316	keystroke_j	j	n/a
482.548	0.06	965096	keystroke_Key.backspace	Key.backspace	n/a
482.743	0.105	965486	keystroke_i	i	n/a
482.9985	0.1195	965997	keystroke_j	j	n/a
483.238	0.075	966476	keystroke_u	u	n/a
483.418	0.12	966836	keystroke_a	a	n/a
483.733	0.105	967466	keystroke_m	m	n/a
484.033	0.075	968066	keystroke_Key.backspace	Key.backspace	n/a
484.243	0.075	968486	keystroke_n	n	n/a
484.363	0.135	968726	keystroke_a	a	n/a
484.483	0.135	968966	keystroke_Key.space	Key.space	n/a
484.903	0.09	969806	keystroke_a	a	n/a
485.083	0.09	970166	keystroke_c	c	n/a
485.248	0.105	970496	keystroke_c	c	n/a
485.443	0.1355	970886	keystroke_o	o	n/a
485.8035	0.12	971607	keystroke_p	p	n/a
485.9985	0.165	971997	keystroke_a	a	n/a
486.4335	0.06	972867	keystroke_Key.backspace	Key.backspace	n/a
486.5685	0.09	973137	keystroke_Key.backspace	Key.backspace	n/a
486.8685	0.12	973737	keystroke_p	p	n/a
487.2135	0.09	974427	keystroke_Key.backspace	Key.backspace	n/a
487.4235	0.1345	974847	keystroke_m	m	n/a
487.529	0.134	975058	keystroke_p	p	n/a
487.709	0.119	975418	keystroke_a	a	n/a
487.798	0.09	975596	keystroke_n	n	n/a
488.113	0.121	976226	keystroke_y	y	n/a
488.413	0.165	976826	keystroke_i	i	n/a
488.488	0.15	976976	keystroke_n	n	n/a
488.593	0.09	977186	keystroke_g	g	n/a
488.728	0.135	977456	keystroke_Key.space	Key.space	n/a
489.163	0.12	978326	keystroke_r	r	n/a
489.253	0.15	978506	keystroke_a	a	n/a
489.388	0.135	978776	keystroke_i	i	n/a
489.434	0.119	978868	keystroke_n	n	n/a
489.673	0.075	979346	keystroke_b	b	n/a
489.778	0.135	979556	keystroke_o	o	n/a
489.928	0.135	979856	keystroke_w	w	n/a
490.078	0.135	980156	keystroke_Key.space	Key.space	n/a
490.438	0.0755	980876	keystroke_e	e	n/a
490.6485	0.135	981297	keystroke_x	x	n/a
490.7835	0.12	981567	keystroke_p	p	n/a
491.0385	0.105	982077	keystroke_l	l	n/a
491.1885	0.18	982377	keystroke_a	a	n/a
491.623	0.15	983246	keystroke_n	n	n/a
491.863	0.135	983726	keystroke_i	i	n/a
492.253	0.075	984506	keystroke_Key.backspace	Key.backspace	n/a
492.388	0.105	984776	keystroke_a	a	n/a
492.553	0.135	985106	keystroke_t	t	n/a
492.673	0.09	985346	keystroke_i	i	n/a
492.733	0.165	985466	keystroke_o	o	n/a
492.823	0.15	985646	keystroke_n	n	n/a
493.168	0.09	986336	keystroke_Key.enter	Key.enter	n/a
493.2635	5.201	986527	prompt	n/a	mods manual mile prices\n
493.918	0.135	987836	keystroke_m	m	n/a
494.083	0.15	988166	keystroke_o	o	n/a
494.218	0.135	988436	keystroke_d	d	n/a
494.473	0.105	988946	keystroke_s	s	n/a
494.668	0.105	989336	keystroke_Key.space	Key.space	n/a
494.968	0.105	989936	keystroke_n	n	n/a
495.283	0.06	990566	keystroke_Key.backspace	Key.backspace	n/a
495.463	0.105	990926	keystroke_m	m	n/a
