onset	duration	sample	value	key	prompt_text
5.571	15.189	11142	prompt	n/a	the quick brown fox jumps over a lazy dog\n
8.622	0.09	17244	keystroke_t	t	n/a
8.772	0.1045	17544	keystroke_h	h	n/a
9.432	0.0745	18864	keystroke_e	e	n/a
9.641	0.12	19282	keystroke_Key.space	Key.space	n/a
9.897	0.104	19794	keystroke_q	q	n/a
10.6775	0.119	21355	keystroke_u	u	n/a
10.8415	0.105	21683	keystroke_i	i	n/a
11.0075	0.089	22015	keystroke_c	c	n/a
11.1115	0.151	22223	keystroke_k	k	n/a
11.231	0.105	22462	keystroke_Key.space	Key.space	n/a
11.606	0.0755	23212	keystroke_b	b	n/a
11.8615	0.03	23723	keystroke_r	r	n/a
12.417	0.075	24834	keystroke_o	o	n/a
12.537	0.06	25074	keystroke_w	w	n/a
12.672	0.15	25344	keystroke_n	n	n/a
12.807	0.09	25614	keystroke_Key.space	Key.space	n/a
12.957	0.09	25914	keystroke_f	f	n/a
13.077	0.09	26154	keystroke_o	o	n/a
13.317	0.105	26634	keystroke_z	z	n/a
13.467	0.09	26934	keystroke_Key.space	Key.space	n/a
14.352	0.06	28704	keystroke_Key.backspace	Key.backspace	n/a
14.517	0.09	29034	keystroke_Key.backspace	Key.backspace	n/a
14.907	0.09	29814	keystroke_x	x	n/a
15.192	0.06	30384	keystroke_Key.space	Key.space	n/a
15.402	0.105	30804	keystroke_j	j	n/a
15.672	0.09	31344	keystroke_u	u	n/a
15.927	0.12	31854	keystroke_m	m	n/a
16.062	0.105	32124	keystroke_p	p	n/a
16.257	0.09	32514	keystroke_s	s	n/a
16.362	0.075	32724	keystroke_Key.space	Key.space	n/a
16.527	0.105	33054	keystroke_o	o	n/a
16.722	0.075	33444	keystroke_v	v	n/a
16.887	0.105	33774	keystroke_e	e	n/a
16.962	0.105	33924	keystroke_r	r	n/a
17.082	0.09	34164	keystroke_Key.space	Key.space	n/a
17.277	0.09	34554	keystroke_a	a	n/a
17.382	0.105	34764	keystroke_Key.space	Key.space	n/a
17.532	0.105	35064	keystroke_l	l	n/a
17.712	0.045	35424	keystroke_a	a	n/a
17.937	0.06	35874	keystroke_z	z	n/a
18.207	0.135	36414	keystroke_y	y	n/a
18.327	0.06	36654	keystroke_Key.space	Key.space	n/a
18.717	0.075	37434	keystroke_d	d	n/a
18.807	0.105	37614	keystroke_o	o	n/a
19.017	0.06	38034	keystroke_b	b	n/a
20.112	0.09	40224	keystroke_Key.backspace	Key.backspace	n/a
20.277	0.075	40554	keystroke_g	g	n/a
20.682	0.075	41364	keystroke_Key.enter	Key.enter	n/a
20.7685	7.9855	41537	prompt	n/a	news animation enters indiana\n
21.597	0.09	43194	keystroke_n	n	n/a
21.762	0.135	43524	keystroke_e	e	n/a
21.852	0.105	43704	keystroke_w	w	n/a
22.077	0.105	44154	keystroke_s	s	n/a
22.197	0.09	44394	keystroke_Key.space	Key.space	n/a
22.572	0.045	45144	keystroke_a	a	n/a
22.767	0.105	45534	keystroke_n	n	n/a
22.962	0.09	45924	keystroke_i	i	n/a
23.172	0.06	46344	keystroke_m	m	n/a
23.322	0.105	46644	keystroke_a	a	n/a
23.502	0.09	47004	keystroke_t	t	n/a
23.607	0.21	47214	keystroke_i	i	n/a
23.667	0.165	47334	keystroke_o	o	n/a
23.772	0.12	47544	keystroke_n	n	n/a
24.012	0.09	48024	keystroke_Key.space	Key.space	n/a
24.822	0.075	49644	keystroke_e	e	n/a
24.927	0.09	49854	keystroke_n	n	n/a
25.182	0.105	50364	keystroke_t	t	n/a
25.242	0.24	50484	keystroke_e	e	n/a
25.752	0.075	51504	keystroke_r	r	n/a
26.007	0.075	52014	keystroke_s	s	n/a
26.247	0.06	52494	keystroke_Key.space	Key.space	n/a
26.652	0.075	53304	keystroke_i	i	n/a
26.817	0.165	53634	keystroke_n	n	n/a
27.417	0.09	54834	keystroke_d	d	n/a
27.552	0.09	55104	keystroke_i	i	n/a
27.657	0.09	55314	keystroke_a	a	n/a
27.852	0.0755	55704	keystroke_n	n	n/a
27.9575	0.075	55915	keystroke_a	a	n/a
28.692	0.06	57384	keystroke_Key.enter	Key.enter	n/a
28.7675	10.5025	57535	prompt	n/a	physical johnston invoice fitted\n
29.5175	0.105	59035	keystroke_p	p	n/a
29.8475	0.09	59695	keystroke_h	h	n/a
30.1025	0.09	60205	keystroke_y	y	n/a
30.2675	0.06	60535	keystroke_s	s	n/a
30.3425	0.09	60685	keystroke_i	i	n/a
30.4925	0.105	60985	keystroke_c	c	n/a
30.5675	0.09	61135	keystroke_a	a	n/a
30.7175	0.12	61435	keystroke_l	l	n/a
30.8975	0.105	61795	keystroke_Key.space	Key.space	n/a
31.2275	0.12	62455	keystroke_j	j	n/a
31.4075	0.09	62815	keystroke_o	o	n/a
31.6775	0.09	63355	keystroke_h	h	n/a
32.5775	0.09	65155	keystroke_n	n	n/a
32.8175	0.105	65635	keystroke_s	s	n/a
33.0425	0.09	66085	keystroke_t	t	n/a
33.1475	0.0895	66295	keystroke_o	o	n/a
33.357	0.1505	66714	keystroke_n	n	n/a
33.4775	0.135	66955	keystroke_Key.space	Key.space	n/a
33.7175	0.1045	67435	keystroke_i	i	n/a
34.272	0.0755	68544	keystroke_n	n	n/a
34.632	0.06	69264	keystroke_v	v	n/a
34.8275	0.0895	69655	keystroke_o	o	n/a
35.052	0.06	70104	keystroke_i	i	n/a
35.607	0.06	71214	keystroke_c	c	n/a
35.817	0.06	71634	keystroke_e	e	n/a
35.922	0.09	71844	keystroke_Key.space	Key.space	n/a
36.462	0.075	72924	keystroke_f	f	n/a
36.567	0.075	73134	keystroke_i	i	n/a
36.762	0.06	73524	keystroke_t	t	n/a
36.897	0.075	73794	keystroke_t	t	n/a
37.167	0.075	74334	keystroke_e	e	n/a
37.407	0.075	74814	keystroke_d	d	n/a
39.162	0.105	78324	keystroke_Key.enter	Key.enter	n/a
39.2755	9.6385	78551	prompt	n/a	biographies replied mileage oven\n
40.752	0.06	81504	keystroke_b	b	n/a
40.947	0.09	81894	keystroke_i	i	n/a
41.562	0.09	83124	keystroke_o	o	n/a
41.772	0.075	83544	keystroke_g	g	n/a
42.162	0.09	84324	keystroke_r	r	n/a
42.762	0.045	85524	keystroke_a	a	n/a
42.987	0.09	85974	keystroke_p	p	n/a
43.197	0.105	86394	keystroke_h	h	n/a
43.392	0.075	86784	keystroke_i	i	n/a
43.452	0.09	86904	keystroke_e	e	n/a
43.662	0.105	87324	keystroke_s	s	n/a
43.797	0.09	87594	keystroke_Key.space	Key.space	n/a
44.232	0.0895	88464	keystroke_r	r	n/a
44.3365	0.12	88673	keystroke_e	e	n/a
44.5165	0.09	89033	keystroke_p	p	n/a
44.712	0.105	89424	keystroke_l	l	n/a
44.937	0.075	89874	keystroke_i	i	n/a
45.027	0.075	90054	keystroke_e	e	n/a
45.2515	0.09	90503	keystroke_d	d	n/a
45.372	0.09	90744	keystroke_Key.space	Key.space	n/a
45.567	0.1195	91134	keystroke_m	m	n/a
46.1065	0.09	92213	keystroke_i	i	n/a
46.3315	0.105	92663	keystroke_l	l	n/a
46.4215	0.09	92843	keystroke_e	e	n/a
46.5865	0.135	93173	keystroke_a	a	n/a
46.7515	0.09	93503	keystroke_g	g	n/a
46.8565	0.075	93713	keystroke_e	e	n/a
47.2765	0.12	94553	keystroke_Key.space	Key.space	n/a
47.4715	0.09	94943	keystroke_o	o	n/a
47.7265	0.06	95453	keystroke_v	v	n/a
47.8615	0.075	95723	keystroke_e	e	n/a
48.0115	0.075	96023	keystroke_n	n	n/a
48.8365	0.075	97673	keystroke_Key.enter	Key.enter	n/a
48.919	8.695	97838	prompt	n/a	integrity flat trial hearings\n
50.5465	0.075	101093	keystroke_i	i	n/a
50.7565	0.105	101513	keystroke_n	n	n/a
51.2215	0.075	102443	keystroke_t	t	n/a
51.4165	0.06	102833	keystroke_e	e	n/a
51.6265	0.09	103253	keystroke_g	g	n/a
51.8815	0.09	103763	keystroke_r	r	n/a
52.1065	0.076	104213	keystroke_i	i	n/a
52.2415	0.045	104483	keystroke_t	t	n/a
52.4965	0.135	104993	keystroke_y	y	n/a
52.9615	0.075	105923	keystroke_Key.space	Key.space	n/a
53.1115	0.091	106223	keystroke_f	f	n/a
53.2765	0.105	106553	keystroke_l	l	n/a
53.3965	0.075	106793	keystroke_a	a	n/a
53.6515	0.075	107303	keystroke_t	t	n/a
53.7715	0.09	107543	keystroke_Key.space	Key.space	n/a
54.1465	0.105	108293	keystroke_t	t	n/a
54.4465	0.06	108893	keystroke_r	r	n/a
54.7465	0.075	109493	keystroke_i	i	n/a
54.8665	0.075	109733	keystroke_a	a	n/a
55.1065	0.105	110213	keystroke_l	l	n/a
55.2265	0.12	110453	keystroke_Key.space	Key.space	n/a
55.4665	0.075	110933	keystroke_h	h	n/a
55.6025	0.119	111205	keystroke_e	e	n/a
56.1415	0.105	112283	keystroke_a	a	n/a
56.3665	0.06	112733	keystroke_r	r	n/a
56.4865	0.0745	112973	keystroke_i	i	n/a
56.6665	0.09	113333	keystroke_n	n	n/a
56.8015	0.06	113603	keystroke_g	g	n/a
57.0865	0.06	114173	keystroke_s	s	n/a
57.5365	0.075	115073	keystroke_Key.enter	Key.enter	n/a
57.62	7.719	115240	prompt	n/a	profile junction operators needed\n
58.4065	0.12	116813	keystroke_p	p	n/a
58.5575	0.104	117115	keystroke_r	r	n/a
58.6775	0.059	117355	keystroke_o	o	n/a
58.9015	0.075	117803	keystroke_f	f	n/a
58.9915	0.09	117983	keystroke_i	i	n/a
59.2315	0.09	118463	keystroke_l	l	n/a
59.2915	0.075	118583	keystroke_e	e	n/a
59.3965	0.12	118793	keystroke_Key.space	Key.space	n/a
59.7115	0.105	119423	keystroke_j	j	n/a
59.9365	0.045	119873	keystroke_u	u	n/a
60.1315	0.075	120263	keystroke_n	n	n/a
60.3115	0.09	120623	keystroke_c	c	n/a
60.5515	0.06	121103	keystroke_t	t	n/a
60.6265	0.195	121253	keystroke_i	i	n/a
60.7165	0.135	121433	keystroke_o	o	n/a
60.8365	0.12	121673	keystroke_n	n	n/a
61.0165	0.12	122033	keystroke_Key.space	Key.space	n/a
61.3165	0.09	122633	keystroke_o	o	n/a
61.5265	0.105	123053	keystroke_p	p	n/a
61.7065	0.075	123413	keystroke_e	e	n/a
61.7675	0.09	123535	keystroke_r	r	n/a
61.9925	0.12	123985	keystroke_a	a	n/a
62.0965	0.091	124193	keystroke_t	t	n/a
62.2025	0.1035	124405	keystroke_o	o	n/a
62.4875	0.0745	124975	keystroke_r	r	n/a
62.696	0.106	125392	keystroke_s	s	n/a
63.2065	0.09	126413	keystroke_Key.space	Key.space	n/a
63.4015	0.105	126803	keystroke_n	n	n/a
63.5215	0.061	127043	keystroke_e	e	n/a
63.6865	0.105	127373	keystroke_e	e	n/a
63.9415	0.076	127883	keystroke_d	d	n/a
64.1365	0.06	128273	keystroke_e	e	n/a
64.2865	0.076	128573	keystroke_d	d	n/a
65.2615	0.075	130523	keystroke_Key.enter	Key.enter	n/a
65.343	14.1115	130686	prompt	n/a	anne screenshot compatible acoustic\n
66.2825	0.059	132565	keystroke_a	a	n/a
66.4315	0.06	132863	keystroke_n	n	n/a
66.5825	0.09	133165	keystroke_n	n	n/a
66.6865	0.075	133373	keystroke_e	e	n/a
66.8365	0.09	133673	keystroke_Key.space	Key.space	n/a
67.7825	0.06	135565	keystroke_s	s	n/a
67.9765	0.106	135953	keystroke_c	c	n/a
68.381	0.091	136762	keystroke_h	h	n/a
68.5325	0.1045	137065	keystroke_r	r	n/a
68.652	0.045	137304	keystroke_e	e	n/a
68.906	0.076	137812	keystroke_e	e	n/a
70.3465	0.1195	140693	keystroke_Key.backspace	Key.backspace	n/a
70.556	0.0905	141112	keystroke_Key.backspace	Key.backspace	n/a
70.751	0.075	141502	keystroke_Key.backspace	Key.backspace	n/a
70.991	0.09	141982	keystroke_Key.backspace	Key.backspace	n/a
72.476	0.091	144952	keystroke_r	r	n/a
72.686	0.06	145372	keystroke_e	e	n/a
72.822	0.075	145644	keystroke_e	e	n/a
73.136	0.106	146272	keystroke_n	n	n/a
73.602	0.074	147204	keystroke_s	s	n/a
73.736	0.091	147472	keystroke_h	h	n/a
73.961	0.075	147922	keystroke_o	o	n/a
74.066	0.06	148132	keystroke_t	t	n/a
74.202	0.089	148404	keystroke_Key.space	Key.space	n/a
74.577	0.09	149154	keystroke_c	c	n/a
75.026	0.076	150052	keystroke_o	o	n/a
75.222	0.12	150444	keystroke_m	m	n/a
75.417	0.105	150834	keystroke_p	p	n/a
75.612	0.075	151224	keystroke_a	a	n/a
75.836	0.075	151672	keystroke_t	t	n/a
75.942	0.09	151884	keystroke_i	i	n/a
76.151	0.061	152302	keystroke_b	b	n/a
76.302	0.09	152604	keystroke_l	l	n/a
76.392	0.075	152784	keystroke_e	e	n/a
76.496	0.12	152992	keystroke_Key.space	Key.space	n/a
76.677	0.075	153354	keystroke_a	a	n/a
77.187	0.089	154374	keystroke_c	c	n/a
77.547	0.075	155094	keystroke_o	o	n/a
77.592	0.105	155184	keystroke_u	u	n/a
77.952	0.075	155904	keystroke_s	s	n/a
78.177	0.074	156354	keystroke_t	t	n/a
78.327	0.075	156654	keystroke_i	i	n/a
78.596	0.076	157192	keystroke_c	c	n/a
79.376	0.075	158752	keystroke_Key.enter	Key.enter	n/a
79.4615	6.9675	158923	prompt	n/a	both reload thru editions\n
80.802	0.075	161604	keystroke_b	b	n/a
81.086	0.061	162172	keystroke_o	o	n/a
81.522	0.075	163044	keystroke_t	t	n/a
81.672	0.15	163344	keystroke_h	h	n/a
81.836	0.09	163672	keystroke_Key.space	Key.space	n/a
82.422	0.09	164844	keystroke_r	r	n/a
82.497	0.075	164994	keystroke_e	e	n/a
82.707	0.104	165414	keystroke_l	l	n/a
82.916	0.09	165832	keystroke_o	o	n/a
82.977	0.09	165954	keystroke_a	a	n/a
83.141	0.075	166282	keystroke_d	d	n/a
83.261	0.105	166522	keystroke_Key.space	Key.space	n/a
83.457	0.09	166914	keystroke_t	t	n/a
83.666	0.106	167332	keystroke_h	h	n/a
83.787	0.074	167574	keystroke_r	r	n/a
84.162	0.09	168324	keystroke_u	u	n/a
84.357	0.089	168714	keystroke_Key.space	Key.space	n/a
84.642	0.044	169284	keystroke_e	e	n/a
84.822	0.075	169644	keystroke_d	d	n/a
84.941	0.061	169882	keystroke_i	i	n/a
85.167	0.06	170334	keystroke_t	t	n/a
85.257	0.195	170514	keystroke_i	i	n/a
85.316	0.181	170632	keystroke_o	o	n/a
85.407	0.12	170814	keystroke_n	n	n/a
85.557	0.074	171114	keystroke_s	s	n/a
86.322	0.105	172644	keystroke_Key.enter	Key.enter	n/a
86.434	11.02	172868	prompt	n/a	involves established athletics rhythm\n
87.161	0.075	174322	keystroke_i	i	n/a
87.312	0.12	174624	keystroke_n	n	n/a
87.462	0.075	174924	keystroke_v	v	n/a
87.552	0.12	175104	keystroke_o	o	n/a
87.777	0.105	175554	keystroke_l	l	n/a
87.822	0.089	175644	keystroke_v	v	n/a
88.107	0.045	176214	keystroke_e	e	n/a
88.287	0.075	176574	keystroke_s	s	n/a
88.572	0.09	177144	keystroke_Key.space	Key.space	n/a
89.022	0.06	178044	keystroke_e	e	n/a
89.217	0.105	178434	keystroke_s	s	n/a
89.397	0.09	178794	keystroke_t	t	n/a
89.562	0.12	179124	keystroke_a	a	n/a
89.757	0.09	179514	keystroke_b	b	n/a
89.892	0.135	179784	keystroke_l	l	n/a
90.147	0.105	180294	keystroke_i	i	n/a
90.237	0.045	180474	keystroke_s	s	n/a
90.927	0.06	181854	keystroke_h	h	n/a
91.002	0.06	182004	keystroke_e	e	n/a
91.197	0.075	182394	keystroke_d	d	n/a
91.392	0.09	182784	keystroke_Key.space	Key.space	n/a
91.947	0.075	183894	keystroke_a	a	n/a
92.187	0.075	184374	keystroke_t	t	n/a
92.397	0.09	184794	keystroke_h	h	n/a
92.967	0.09	185934	keystroke_l	l	n/a
93.087	0.09	186174	keystroke_e	e	n/a
93.312	0.06	186624	keystroke_t	t	n/a
93.402	0.06	186804	keystroke_i	i	n/a
93.747	0.09	187494	keystroke_c	c	n/a
94.167	0.075	188334	keystroke_s	s	n/a
94.362	0.12	188724	keystroke_Key.space	Key.space	n/a
95.052	0.075	190104	keystroke_r	r	n/a
95.382	0.105	190764	keystroke_h	h	n/a
95.667	0.075	191334	keystroke_y	y	n/a
95.877	0.075	191754	keystroke_t	t	n/a
96.162	0.075	192324	keystroke_h	h	n/a
96.432	0.06	192864	keystroke_m	m	n/a
97.347	0.105	194694	keystroke_Key.enter	Key.enter	n/a
97.4595	8.1545	194919	prompt	n/a	sends york biol bonds\n
98.442	0.06	196884	keystroke_s	s	n/a
98.697	0.06	197394	keystroke_e	e	n/a
98.787	0.105	197574	keystroke_n	n	n/a
98.892	0.075	197784	keystroke_d	d	n/a
99.057	0.075	198114	keystroke_s	s	n/a
99.207	0.12	198414	keystroke_Key.space	Key.space	n/a
99.777	0.105	199554	keystroke_y	y	n/a
100.677	0.06	201354	keystroke_o	o	n/a
101.247	0.09	202494	keystroke_r	r	n/a
101.487	0.075	202974	keystroke_k	k	n/a
101.637	0.12	203274	keystroke_Key.space	Key.space	n/a
102.342	0.09	204684	keystroke_b	b	n/a
102.537	0.09	205074	keystroke_i	i	n/a
102.672	0.135	205344	keystroke_o	o	n/a
102.942	0.12	205884	keystroke_l	l	n/a
103.122	0.105	206244	keystroke_Key.space	Key.space	n/a
104.202	0.075	208404	keystroke_b	b	n/a
104.322	0.045	208644	keystroke_o	o	n/a
104.442	0.09	208884	keystroke_n	n	n/a
104.577	0.075	209154	keystroke_d	d	n/a
104.862	0.075	209724	keystroke_s	s	n/a
105.552	0.06	211104	keystroke_Key.enter	Key.enter	n/a
105.6185	12.7895	211237	prompt	n/a	simulation research hook uploaded\n
106.362	0.06	212724	keystroke_s	s	n/a
106.527	0.105	213054	keystroke_i	i	n/a
106.737	0.09	213474	keystroke_m	m	n/a
106.992	0.09	213984	keystroke_u	u	n/a
107.172	0.09	214344	keystroke_l	l	n/a
107.442	0.075	214884	keystroke_a	a	n/a
107.682	0.075	215364	keystroke_t	t	n/a
108.702	0.105	217404	keystroke_i	i	n/a
109.287	0.075	218574	keystroke_o	o	n/a
109.482	0.09	218964	keystroke_n	n	n/a
110.037	0.09	220074	keystroke_Key.space	Key.space	n/a
110.832	0.09	221664	keystroke_r	r	n/a
111.237	0.075	222474	keystroke_e	e	n/a
111.432	0.06	222864	keystroke_s	s	n/a
112.092	0.045	224184	keystroke_e	e	n/a
112.212	0.075	224424	keystroke_a	a	n/a
112.347	0.09	224694	keystroke_r	r	n/a
112.782	0.135	225564	keystroke_h	h	n/a
113.022	0.06	226044	keystroke_Key.space	Key.space	n/a
113.832	0.075	227664	keystroke_Key.backspace	Key.backspace	n/a
114.012	0.075	228024	keystroke_Key.backspace	Key.backspace	n/a
114.807	0.075	229614	keystroke_c	c	n/a
114.927	0.09	229854	keystroke_h	h	n/a
115.092	0.09	230184	keystroke_Key.space	Key.space	n/a
115.422	0.075	230844	keystroke_h	h	n/a
115.587	0.075	231174	keystroke_o	o	n/a
115.737	0.105	231474	keystroke_o	o	n/a
115.992	0.135	231984	keystroke_k	k	n/a
116.112	0.1045	232224	keystroke_Key.space	Key.space	n/a
116.3515	0.15	232703	keystroke_u	u	n/a
116.4565	0.135	232913	keystroke_p	p	n/a
116.6965	0.105	233393	keystroke_l	l	n/a
116.9215	0.075	233843	keystroke_o	o	n/a
117.0115	0.06	234023	keystroke_a	a	n/a
117.3265	0.06	234653	keystroke_d	d	n/a
117.5065	0.045	235013	keystroke_e	e	n/a
117.6715	0.06	235343	keystroke_d	d	n/a
118.3315	0.075	236663	keystroke_Key.enter	Key.enter	n/a
118.414	9.7895	236828	prompt	n/a	invitations sign primarily movement\n
119.0665	0.075	238133	keystroke_i	i	n/a
119.2165	0.12	238433	keystroke_n	n	n/a
119.4115	0.06	238823	keystroke_v	v	n/a
119.5165	0.075	239033	keystroke_i	i	n/a
119.7265	0.075	239453	keystroke_t	t	n/a
119.9215	0.075	239843	keystroke_a	a	n/a
120.1315	0.06	240263	keystroke_t	t	n/a
120.3125	0.164	240625	keystroke_i	i	n/a
120.7015	0.09	241403	keystroke_o	o	n/a
121.1665	0.075	242333	keystroke_n	n	n/a
121.3015	0.075	242603	keystroke_s	s	n/a
121.4365	0.09	242873	keystroke_Key.space	Key.space	n/a
121.6765	0.06	243353	keystroke_s	s	n/a
121.7815	0.06	243563	keystroke_i	i	n/a
121.9765	0.06	243953	keystroke_g	g	n/a
122.1415	0.105	244283	keystroke_n	n	n/a
122.3815	0.105	244763	keystroke_Key.space	Key.space	n/a
122.7115	0.12	245423	keystroke_p	p	n/a
122.9965	0.075	245993	keystroke_r	r	n/a
124.0165	0.09	248033	keystroke_i	i	n/a
124.2415	0.09	248483	keystroke_m	m	n/a
124.3465	0.06	248693	keystroke_a	a	n/a
124.5565	0.06	249113	keystroke_r	r	n/a
125.5015	0.09	251003	keystroke_i	i	n/a
125.6665	0.135	251333	keystroke_l	l	n/a
125.9515	0.135	251903	keystroke_y	y	n/a
126.0565	0.15	252113	keystroke_Key.space	Key.space	n/a
126.3415	0.105	252683	keystroke_m	m	n/a
126.5665	0.045	253133	keystroke_o	o	n/a
126.6415	0.09	253283	keystroke_v	v	n/a
126.8065	0.09	253613	keystroke_e	e	n/a
127.1515	0.09	254303	keystroke_m	m	n/a
127.2565	0.06	254513	keystroke_e	e	n/a
127.5415	0.075	255083	keystroke_n	n	n/a
127.7815	0.06	255563	keystroke_t	t	n/a
128.1265	0.075	256253	keystroke_Key.enter	Key.enter	n/a
128.208	7.616	256416	prompt	n/a	viewer globe ventures sand\n
129.0415	0.06	258083	keystroke_v	v	n/a
129.2365	0.075	258473	keystroke_i	i	n/a
129.3415	0.12	258683	keystroke_e	e	n/a
129.4165	0.105	258833	keystroke_w	w	n/a
129.8365	0.075	259673	keystroke_e	e	n/a
129.8965	0.06	259793	keystroke_r	r	n/a
130.4665	0.09	260933	keystroke_Key.space	Key.space	n/a
130.6765	0.075	261353	keystroke_g	g	n/a
131.1265	0.09	262253	keystroke_l	l	n/a
131.3365	0.075	262673	keystroke_o	o	n/a
131.6065	0.075	263213	keystroke_b	b	n/a
131.8315	0.075	263663	keystroke_e	e	n/a
131.9365	0.105	263873	keystroke_Key.space	Key.space	n/a
132.2215	0.09	264443	keystroke_v	v	n/a
132.3865	0.06	264773	keystroke_e	e	n/a
132.4915	0.105	264983	keystroke_n	n	n/a
132.6415	0.09	265283	keystroke_t	t	n/a
133.2265	0.09	266453	keystroke_u	u	n/a
133.3315	0.075	266663	keystroke_r	r	n/a
133.3765	0.075	266753	keystroke_e	e	n/a
133.7065	0.075	267413	keystroke_s	s	n/a
134.2465	0.06	268493	keystroke_Key.space	Key.space	n/a
134.3665	0.06	268733	keystroke_s	s	n/a
134.7115	0.06	269423	keystroke_a	a	n/a
134.8915	0.075	269783	keystroke_n	n	n/a
135.0415	0.075	270083	keystroke_d	d	n/a
135.7315	0.09	271463	keystroke_Key.enter	Key.enter	n/a
135.8295	12.699	271659	prompt	n/a	beverly liverpool numeric hyundai\n
136.8865	0.09	273773	keystroke_b	b	n/a
137.0965	0.09	274193	keystroke_e	e	n/a
137.2915	0.105	274583	keystroke_v	v	n/a
137.5465	0.075	275093	keystroke_e	e	n/a
137.5915	0.075	275183	keystroke_r	r	n/a
137.7565	0.105	275513	keystroke_l	l	n/a
138.0265	0.165	276053	keystroke_y	y	n/a
138.1615	0.12	276323	keystroke_Key.space	Key.space	n/a
138.4165	0.09	276833	keystroke_l	l	n/a
138.6565	0.075	277313	keystroke_i	i	n/a
138.9115	0.06	277823	keystroke_v	v	n/a
139.0765	0.105	278153	keystroke_e	e	n/a
139.1215	0.105	278243	keystroke_r	r	n/a
139.4365	0.12	278873	keystroke_p	p	n/a
139.6915	0.045	279383	keystroke_o	o	n/a
139.8265	0.105	279653	keystroke_o	o	n/a
140.9515	0.09	281903	keystroke_l	l	n/a
141.5515	0.12	283103	keystroke_Key.space	Key.space	n/a
141.7465	0.165	283493	keystroke_n	n	n/a
142.1365	0.09	284273	keystroke_u	u	n/a
142.6765	0.075	285353	keystroke_m	m	n/a
143.1425	0.104	286285	keystroke_e	e	n/a
143.2315	0.075	286463	keystroke_r	r	n/a
143.4415	0.075	286883	keystroke_i	i	n/a
143.5315	0.105	287063	keystroke_c	c	n/a
143.7715	0.09	287543	keystroke_Key.space	Key.space	n/a
144.1165	0.105	288233	keystroke_h	h	n/a
144.4175	0.089	288835	keystroke_u	u	n/a
145.8565	0.045	291713	keystroke_Key.backspace	Key.backspace	n/a
146.3515	0.09	292703	keystroke_y	y	n/a
146.5615	0.09	293123	keystroke_u	u	n/a
146.7865	0.105	293573	keystroke_n	n	n/a
146.9215	0.075	293843	keystroke_d	d	n/a
147.1165	0.076	294233	keystroke_a	a	n/a
147.296	0.06	294592	keystroke_i	i	n/a
148.4215	0.1045	296843	keystroke_Key.enter	Key.enter	n/a
148.533	11.816	297066	prompt	n/a	lawyer away organizational ambassador\n
149.562	0.1045	299124	keystroke_l	l	n/a
149.667	0.059	299334	keystroke_a	a	n/a
149.861	0.075	299722	keystroke_w	w	n/a
150.1915	0.0755	300383	keystroke_y	y	n/a
150.3865	0.0895	300773	keystroke_e	e	n/a
150.4315	0.105	300863	keystroke_r	r	n/a
150.596	0.09	301192	keystroke_Key.space	Key.space	n/a
153.015	0.001	306030	keystroke_a	a	n/a
153.146	0.09	306292	keystroke_w	w	n/a
153.356	0.06	306712	keystroke_a	a	n/a
153.671	0.09	307342	keystroke_y	y	n/a
153.851	0.075	307702	keystroke_Key.space	Key.space	n/a
154.512	0.074	309024	keystroke_o	o	n/a
154.647	0.119	309294	keystroke_r	r	n/a
154.946	0.06	309892	keystroke_g	g	n/a
155.052	0.074	310104	keystroke_a	a	n/a
155.186	0.12	310372	keystroke_n	n	n/a
155.367	0.09	310734	keystroke_i	i	n/a
155.487	0.105	310974	keystroke_z	z	n/a
155.712	0.06	311424	keystroke_a	a	n/a
155.862	0.074	311724	keystroke_t	t	n/a
156.057	0.21	312114	keystroke_i	i	n/a
156.146	0.196	312292	keystroke_o	o	n/a
156.327	0.059	312654	keystroke_n	n	n/a
156.491	0.075	312982	keystroke_a	a	n/a
156.611	0.106	313222	keystroke_l	l	n/a
156.896	0.105	313792	keystroke_Key.space	Key.space	n/a
157.257	0.09	314514	keystroke_a	a	n/a
157.542	0.089	315084	keystroke_m	m	n/a
157.871	0.106	315742	keystroke_b	b	n/a
158.111	0.076	316222	keystroke_a	a	n/a
158.457	0.075	316914	keystroke_s	s	n/a
158.636	0.076	317272	keystroke_s	s	n/a
158.936	0.06	317872	keystroke_a	a	n/a
159.192	0.075	318384	keystroke_d	d	n/a
159.326	0.091	318652	keystroke_o	o	n/a
159.461	0.045	318922	keystroke_r	r	n/a
160.256	0.091	320512	keystroke_Key.enter	Key.enter	n/a
160.3545	7.4345	320709	prompt	n/a	applicable legend diving invoice\n
161.006	0.076	322012	keystroke_a	a	n/a
161.202	0.074	322404	keystroke_p	p	n/a
161.337	0.104	322674	keystroke_p	p	n/a
161.531	0.106	323062	keystroke_l	l	n/a
161.742	0.09	323484	keystroke_i	i	n/a
161.862	0.135	323724	keystroke_c	c	n/a
161.967	0.09	323934	keystroke_a	a	n/a
162.447	0.074	324894	keystroke_b	b	n/a
162.536	0.105	325072	keystroke_l	l	n/a
162.672	0.075	325344	keystroke_e	e	n/a
162.866	0.09	325732	keystroke_Key.space	Key.space	n/a
163.077	0.119	326154	keystroke_l	l	n/a
163.527	0.075	327054	keystroke_e	e	n/a
163.767	0.06	327534	keystroke_g	g	n/a
163.902	0.075	327804	keystroke_e	e	n/a
164.036	0.091	328072	keystroke_n	n	n/a
164.186	0.09	328372	keystroke_d	d	n/a
164.291	0.12	328582	keystroke_Key.space	Key.space	n/a
164.666	0.106	329332	keystroke_d	d	n/a
165.161	0.075	330322	keystroke_i	i	n/a
165.326	0.076	330652	keystroke_v	v	n/a
165.447	0.075	330894	keystroke_i	i	n/a
165.626	0.106	331252	keystroke_n	n	n/a
165.762	0.074	331524	keystroke_g	g	n/a
165.821	0.12	331642	keystroke_Key.space	Key.space	n/a
165.971	0.061	331942	keystroke_i	i	n/a
166.032	0.135	332064	keystroke_n	n	n/a
166.212	0.06	332424	keystroke_v	v	n/a
166.301	0.136	332602	keystroke_o	o	n/a
166.572	0.09	333144	keystroke_i	i	n/a
166.707	0.09	333414	keystroke_c	c	n/a
166.917	0.045	333834	keystroke_e	e	n/a
167.697	0.089	335394	keystroke_Key.enter	Key.enter	n/a
167.7935	7.84	335587	prompt	n/a	ghana among points couple\n
168.942	0.059	337884	keystroke_g	g	n/a
169.121	0.061	338242	keystroke_h	h	n/a
169.227	0.09	338454	keystroke_a	a	n/a
169.437	0.075	338874	keystroke_n	n	n/a
169.512	0.089	339024	keystroke_a	a	n/a
169.946	0.091	339892	keystroke_Key.space	Key.space	n/a
170.307	0.09	340614	keystroke_a	a	n/a
170.456	0.106	340912	keystroke_m	m	n/a
170.592	0.089	341184	keystroke_o	o	n/a
170.757	0.119	341514	keystroke_n	n	n/a
170.937	0.045	341874	keystroke_g	g	n/a
171.026	0.105	342052	keystroke_Key.space	Key.space	n/a
171.311	0.09	342622	keystroke_p	p	n/a
171.536	0.105	343072	keystroke_o	o	n/a
171.777	0.09	343554	keystroke_i	i	n/a
172.017	0.089	344034	keystroke_n	n	n/a
172.181	0.061	344362	keystroke_t	t	n/a
172.407	0.075	344814	keystroke_s	s	n/a
173.111	0.105	346222	keystroke_Key.space	Key.space	n/a
173.472	0.12	346944	keystroke_c	c	n/a
174.102	0.15	348204	keystroke_o	o	n/a
174.192	0.15	348384	keystroke_u	u	n/a
174.326	0.136	348652	keystroke_p	p	n/a
174.626	0.09	349252	keystroke_l	l	n/a
174.732	0.06	349464	keystroke_e	e	n/a
175.542	0.089	351084	keystroke_Key.enter	Key.enter	n/a
175.638	9.476	351276	prompt	n/a	technological dome checklist monday\n
176.472	0.104	352944	keystroke_t	t	n/a
177.222	0.075	354444	keystroke_e	e	n/a
177.492	0.075	354984	keystroke_c	c	n/a
178.031	0.091	356062	keystroke_h	h	n/a
178.227	0.105	356454	keystroke_n	n	n/a
178.422	0.09	356844	keystroke_o	o	n/a
178.631	0.106	357262	keystroke_l	l	n/a
178.842	0.135	357684	keystroke_o	o	n/a
178.962	0.09	357924	keystroke_g	g	n/a
179.112	0.075	358224	keystroke_i	i	n/a
179.231	0.106	358462	keystroke_c	c	n/a
179.412	0.075	358824	keystroke_a	a	n/a
179.532	0.12	359064	keystroke_l	l	n/a
179.712	0.119	359424	keystroke_Key.space	Key.space	n/a
179.892	0.075	359784	keystroke_d	d	n/a
179.982	0.135	359964	keystroke_o	o	n/a
180.297	0.09	360594	keystroke_m	m	n/a
180.401	0.046	360802	keystroke_e	e	n/a
180.792	0.075	361584	keystroke_Key.space	Key.space	n/a
181.001	0.076	362002	keystroke_c	c	n/a
181.137	0.09	362274	keystroke_h	h	n/a
181.257	0.075	362514	keystroke_e	e	n/a
181.467	0.075	362934	keystroke_c	c	n/a
181.557	0.105	363114	keystroke_k	k	n/a
181.767	0.09	363534	keystroke_l	l	n/a
182.037	0.075	364074	keystroke_i	i	n/a
182.157	0.165	364314	keystroke_s	s	n/a
182.292	0.075	364584	keystroke_t	t	n/a
182.847	0.075	365694	keystroke_Key.space	Key.space	n/a
183.042	0.09	366084	keystroke_m	m	n/a
183.147	0.09	366294	keystroke_o	o	n/a
183.342	0.09	366684	keystroke_n	n	n/a
183.447	0.075	366894	keystroke_d	d	n/a
183.702	0.075	367404	keystroke_a	a	n/a
183.957	0.06	367914	keystroke_y	y	n/a
185.037	0.075	370074	keystroke_Key.enter	Key.enter	n/a
185.119	9.0545	370238	prompt	n/a	good moral reduce blogger\n
185.877	0.105	371754	keystroke_g	g	n/a
185.997	0.075	371994	keystroke_o	o	n/a
186.357	0.105	372714	keystroke_o	o	n/a
186.537	0.09	373074	keystroke_d	d	n/a
186.657	0.09	373314	keystroke_Key.space	Key.space	n/a
186.867	0.09	373734	keystroke_m	m	n/a
187.0475	0.0895	374095	keystroke_o	o	n/a
187.152	0.09	374304	keystroke_r	r	n/a
187.332	0.075	374664	keystroke_a	a	n/a
187.422	0.12	374844	keystroke_l	l	n/a
187.512	0.105	375024	keystroke_Key.space	Key.space	n/a
188.082	0.105	376164	keystroke_r	r	n/a
188.172	0.075	376344	keystroke_e	e	n/a
188.382	0.075	376764	keystroke_d	d	n/a
188.922	0.09	377844	keystroke_y	y	n/a
189.132	0.09	378264	keystroke_c	c	n/a
189.372	0.03	378744	keystroke_e	e	n/a
190.407	0.105	380814	keystroke_Key.backspace	Key.backspace	n/a
190.587	0.09	381174	keystroke_Key.backspace	Key.backspace	n/a
190.767	0.135	381534	keystroke_Key.backspace	Key.backspace	n/a
191.5315	0.09	383063	keystroke_u	u	n/a
191.5915	0.12	383183	keystroke_c	c	n/a
191.8015	0.075	383603	keystroke_e	e	n/a
191.9065	0.105	383813	keystroke_Key.space	Key.space	n/a
192.3865	0.075	384773	keystroke_b	b	n/a
192.5215	0.105	385043	keystroke_l	l	n/a
192.762	0.075	385524	keystroke_o	o	n/a
192.957	0.06	385914	keystroke_g	g	n/a
193.092	0.075	386184	keystroke_g	g	n/a
193.2865	0.09	386573	keystroke_e	e	n/a
193.3465	0.075	386693	keystroke_r	r	n/a
194.0965	0.075	388193	keystroke_Key.enter	Key.enter	n/a
194.1825	8.077	388365	prompt	n/a	intake talented hills judy\n
194.8465	0.06	389693	keystroke_i	i	n/a
194.9965	0.105	389993	keystroke_n	n	n/a
195.1315	0.09	390263	keystroke_t	t	n/a
195.2365	0.09	390473	keystroke_a	a	n/a
195.4915	0.06	390983	keystroke_k	k	n/a
195.5665	0.06	391133	keystroke_e	e	n/a
195.7315	0.09	391463	keystroke_Key.space	Key.space	n/a
196.3765	0.09	392753	keystroke_t	t	n/a
196.5565	0.075	393113	keystroke_a	a	n/a
196.7215	0.1045	393443	keystroke_l	l	n/a
197.6965	0.09	395393	keystroke_e	e	n/a
197.8615	0.09	395723	keystroke_n	n	n/a
198.0865	0.075	396173	keystroke_t	t	n/a
198.3115	0.06	396623	keystroke_e	e	n/a
198.5215	0.06	397043	keystroke_d	d	n/a
198.8665	0.105	397733	keystroke_Key.space	Key.space	n/a
199.0765	0.12	398153	keystroke_h	h	n/a
199.3315	0.09	398663	keystroke_i	i	n/a
199.5415	0.09	399083	keystroke_l	l	n/a
199.7215	0.105	399443	keystroke_l	l	n/a
199.8565	0.06	399713	keystroke_s	s	n/a
199.9765	0.09	399953	keystroke_Key.space	Key.space	n/a
200.1715	0.09	400343	keystroke_j	j	n/a
200.4115	0.09	400823	keystroke_u	u	n/a
200.6815	0.075	401363	keystroke_d	d	n/a
200.9365	0.06	401873	keystroke_y	y	n/a
202.1665	0.09	404333	keystroke_Key.enter	Key.enter	n/a
202.264	7.39	404528	prompt	n/a	nearby hidden academy money\n
203.1415	0.105	406283	keystroke_n	n	n/a
203.3515	0.105	406703	keystroke_e	e	n/a
203.5315	0.09	407063	keystroke_a	a	n/a
203.5915	0.12	407183	keystroke_r	r	n/a
204.3415	0.06	408683	keystroke_b	b	n/a
204.5665	0.12	409133	keystroke_y	y	n/a
204.7615	0.105	409523	keystroke_Key.space	Key.space	n/a
204.9115	0.135	409823	keystroke_h	h	n/a
205.0915	0.105	410183	keystroke_i	i	n/a
205.2115	0.06	410423	keystroke_d	d	n/a
205.3465	0.075	410693	keystroke_d	d	n/a
205.5565	0.09	411113	keystroke_e	e	n/a
205.6915	0.15	411383	keystroke_n	n	n/a
205.7965	0.12	411593	keystroke_Key.space	Key.space	n/a
206.3215	0.075	412643	keystroke_a	a	n/a
206.5165	0.105	413033	keystroke_c	c	n/a
206.7265	0.075	413453	keystroke_a	a	n/a
206.9065	0.075	413813	keystroke_d	d	n/a
207.0565	0.06	414113	keystroke_e	e	n/a
207.1925	0.104	414385	keystroke_m	m	n/a
207.4915	0.15	414983	keystroke_y	y	n/a
207.6265	0.075	415253	keystroke_Key.space	Key.space	n/a
207.8365	0.075	415673	keystroke_m	m	n/a
207.9415	0.105	415883	keystroke_o	o	n/a
208.1515	0.09	416303	keystroke_n	n	n/a
208.2115	0.075	416423	keystroke_e	e	n/a
208.4665	0.06	416933	keystroke_y	y	n/a
209.5765	0.075	419153	keystroke_Key.enter	Key.enter	n/a
209.659	10.5395	419318	prompt	n/a	services latin architects humanitarian\n
210.4165	0.075	420833	keystroke_s	s	n/a
210.5815	0.135	421163	keystroke_e	e	n/a
210.7015	0.135	421403	keystroke_r	r	n/a
210.9715	0.105	421943	keystroke_v	v	n/a
211.1065	0.09	422213	keystroke_i	i	n/a
211.2115	0.075	422423	keystroke_c	c	n/a
211.3915	0.06	422783	keystroke_e	e	n/a
211.5415	0.075	423083	keystroke_s	s	n/a
211.646	0.09	423292	keystroke_Key.space	Key.space	n/a
211.7815	0.165	423563	keystroke_l	l	n/a
211.8565	0.12	423713	keystroke_a	a	n/a
212.0365	0.075	424073	keystroke_t	t	n/a
212.1715	0.03	424343	keystroke_i	i	n/a
212.3815	0.12	424763	keystroke_n	n	n/a
212.636	0.105	425272	keystroke_Key.space	Key.space	n/a
213.6265	0.06	427253	keystroke_a	a	n/a
214.091	0.06	428182	keystroke_r	r	n/a
214.361	0.075	428722	keystroke_c	c	n/a
214.991	0.0905	429982	keystroke_h	h	n/a
215.141	0.12	430282	keystroke_i	i	n/a
215.396	0.12	430792	keystroke_t	t	n/a
215.5765	0.075	431153	keystroke_e	e	n/a
215.831	0.12	431662	keystroke_c	c	n/a
215.936	0.0905	431872	keystroke_t	t	n/a
216.146	0.09	432292	keystroke_s	s	n/a
216.551	0.09	433102	keystroke_Key.space	Key.space	n/a
216.956	0.105	433912	keystroke_h	h	n/a
217.166	0.075	434332	keystroke_u	u	n/a
217.421	0.09	434842	keystroke_m	m	n/a
217.571	0.09	435142	keystroke_a	a	n/a
217.6765	0.0895	435353	keystroke_n	n	n/a
217.8565	0.075	435713	keystroke_i	i	n/a
218.2765	0.0895	436553	keystroke_t	t	n/a
218.486	0.106	436972	keystroke_a	a	n/a
218.711	0.075	437422	keystroke_r	r	n/a
218.9065	0.0745	437813	keystroke_i	i	n/a
219.026	0.09	438052	keystroke_a	a	n/a
219.161	0.0905	438322	keystroke_n	n	n/a
220.121	0.075	440242	keystroke_Key.enter	Key.enter	n/a
220.205	8.0935	440410	prompt	n/a	hairy addressing sunday biblical\n
220.946	0.12	441892	keystroke_h	h	n/a
221.021	0.09	442042	keystroke_a	a	n/a
221.216	0.075	442432	keystroke_i	i	n/a
221.306	0.0755	442612	keystroke_r	r	n/a
221.651	0.075	443302	keystroke_y	y	n/a
221.846	0.09	443692	keystroke_Key.space	Key.space	n/a
222.071	0.075	444142	keystroke_a	a	n/a
222.341	0.09	444682	keystroke_d	d	n/a
222.596	0.06	445192	keystroke_d	d	n/a
222.806	0.075	445612	keystroke_r	r	n/a
222.851	0.075	445702	keystroke_e	e	n/a
223.046	0.06	446092	keystroke_s	s	n/a
223.181	0.09	446362	keystroke_s	s	n/a
223.256	0.075	446512	keystroke_i	i	n/a
223.421	0.12	446842	keystroke_n	n	n/a
223.526	0.075	447052	keystroke_g	g	n/a
223.631	0.105	447262	keystroke_Key.space	Key.space	n/a
223.841	0.09	447682	keystroke_s	s	n/a
223.991	0.075	447982	keystroke_u	u	n/a
224.201	0.105	448402	keystroke_n	n	n/a
224.261	0.105	448522	keystroke_d	d	n/a
224.367	0.089	448734	keystroke_a	a	n/a
224.606	0.12	449212	keystroke_y	y	n/a
224.771	0.105	449542	keystroke_Key.space	Key.space	n/a
225.836	0.075	451672	keystroke_b	b	n/a
226.256	0.09	452512	keystroke_i	i	n/a
226.361	0.075	452722	keystroke_b	b	n/a
226.631	0.106	453262	keystroke_l	l	n/a
226.856	0.075	453712	keystroke_i	i	n/a
226.976	0.075	453952	keystroke_c	c	n/a
227.111	0.075	454222	keystroke_a	a	n/a
227.291	0.09	454582	keystroke_l	l	n/a
228.206	0.09	456412	keystroke_Key.enter	Key.enter	n/a
228.303	11.8155	456606	prompt	n/a	electro penetration photographers right\n
229.242	0.074	458484	keystroke_e	e	n/a
229.451	0.105	458902	keystroke_l	l	n/a
229.526	0.06	459052	keystroke_e	e	n/a
229.751	0.165	459502	keystroke_c	c	n/a
229.961	0.09	459922	keystroke_t	t	n/a
230.156	0.045	460312	keystroke_r	r	n/a
230.306	0.09	460612	keystroke_o	o	n/a
230.471	0.105	460942	keystroke_Key.space	Key.space	n/a
230.726	0.09	461452	keystroke_p	p	n/a
230.831	0.09	461662	keystroke_e	e	n/a
230.981	0.075	461962	keystroke_n	n	n/a
231.057	0.104	462114	keystroke_e	e	n/a
231.311	0.075	462622	keystroke_t	t	n/a
231.506	0.09	463012	keystroke_r	r	n/a
231.656	0.075	463312	keystroke_a	a	n/a
231.806	0.075	463612	keystroke_t	t	n/a
231.941	0.195	463882	keystroke_i	i	n/a
232.031	0.195	464062	keystroke_o	o	n/a
232.166	0.12	464332	keystroke_n	n	n/a
232.316	0.075	464632	keystroke_s	s	n/a
233.366	0.075	466732	keystroke_Key.backspace	Key.backspace	n/a
233.951	0.075	467902	keystroke_Key.space	Key.space	n/a
234.897	0.134	469794	keystroke_p	p	n/a
235.136	0.09	470272	keystroke_h	h	n/a
235.346	0.075	470692	keystroke_o	o	n/a
235.466	0.09	470932	keystroke_t	t	n/a
235.601	0.09	471202	keystroke_o	o	n/a
235.871	0.09	471742	keystroke_g	g	n/a
236.067	0.059	472134	keystroke_r	r	n/a
236.231	0.06	472462	keystroke_a	a	n/a
236.426	0.091	472852	keystroke_p	p	n/a
236.936	0.075	473872	keystroke_h	h	n/a
237.161	0.105	474322	keystroke_e	e	n/a
237.221	0.105	474442	keystroke_r	r	n/a
237.476	0.075	474952	keystroke_s	s	n/a
237.941	0.12	475882	keystroke_Key.space	Key.space	n/a
238.226	0.06	476452	keystroke_r	r	n/a
238.287	0.134	476574	keystroke_i	i	n/a
238.436	0.075	476872	keystroke_g	g	n/a
238.571	0.075	477142	keystroke_h	h	n/a
238.631	0.06	477262	keystroke_t	t	n/a
240.011	0.105	480022	keystroke_Key.enter	Key.enter	n/a
240.123	11.11	480246	prompt	n/a	bikes restaurants contributed founder\n
241.077	0.089	482154	keystroke_b	b	n/a
241.181	0.075	482362	keystroke_i	i	n/a
241.437	0.089	482874	keystroke_k	k	n/a
241.482	0.075	482964	keystroke_e	e	n/a
241.691	0.09	483382	keystroke_s	s	n/a
241.766	0.09	483532	keystroke_Key.space	Key.space	n/a
242.096	0.105	484192	keystroke_r	r	n/a
242.186	0.121	484372	keystroke_e	e	n/a
242.4265	0.135	484853	keystroke_s	s	n/a
242.6365	0.075	485273	keystroke_t	t	n/a
243.0415	0.06	486083	keystroke_a	a	n/a
243.5065	0.075	487013	keystroke_u	u	n/a
243.6115	0.09	487223	keystroke_r	r	n/a
243.8815	0.06	487763	keystroke_a	a	n/a
244.0315	0.09	488063	keystroke_n	n	n/a
244.1815	0.075	488363	keystroke_t	t	n/a
244.3015	0.09	488603	keystroke_s	s	n/a
244.4815	0.12	488963	keystroke_Key.space	Key.space	n/a
244.8115	0.105	489623	keystroke_c	c	n/a
244.9315	0.06	489863	keystroke_o	o	n/a
245.0515	0.12	490103	keystroke_n	n	n/a
245.2315	0.105	490463	keystroke_t	t	n/a
245.6515	0.06	491303	keystroke_r	r	n/a
245.9065	0.09	491813	keystroke_i	i	n/a
246.1015	0.075	492203	keystroke_b	b	n/a
246.1915	0.09	492383	keystroke_u	u	n/a
246.3565	0.09	492713	keystroke_t	t	n/a
246.5365	0.105	493073	keystroke_e	e	n/a
246.7315	0.09	493463	keystroke_d	d	n/a
246.8365	0.105	493673	keystroke_Key.space	Key.space	n/a
247.0465	0.09	494093	keystroke_f	f	n/a
247.6015	0.075	495203	keystroke_o	o	n/a
247.6315	0.12	495263	keystroke_u	u	n/a
247.8715	0.09	495743	keystroke_n	n	n/a
247.9915	0.12	495983	keystroke_f	f	n/a
249.3715	0.09	498743	keystroke_Key.backspace	Key.backspace	n/a
249.4765	0.105	498953	keystroke_d	d	n/a
249.6865	0.09	499373	keystroke_e	e	n/a
249.7465	0.075	499493	keystroke_r	r	n/a
251.1415	0.09	502283	keystroke_Key.enter	Key.enter	n/a
251.237	7.556	502474	prompt	n/a	spears confident paso route\n
252.1915	0.075	504383	keystroke_s	s	n/a
252.3415	0.09	504683	keystroke_p	p	n/a
252.4465	0.045	504893	keystroke_e	e	n/a
252.5815	0.12	505163	keystroke_a	a	n/a
252.7165	0.075	505433	keystroke_r	r	n/a
253.0315	0.09	506063	keystroke_s	s	n/a
253.2265	0.105	506453	keystroke_Key.space	Key.space	n/a
253.6915	0.105	507383	keystroke_c	c	n/a
253.8865	0.09	507773	keystroke_o	o	n/a
254.0965	0.09	508193	keystroke_n	n	n/a
254.2315	0.045	508463	keystroke_f	f	n/a
254.5765	0.075	509153	keystroke_i	i	n/a
254.7265	0.06	509453	keystroke_d	d	n/a
254.8615	0.06	509723	keystroke_e	e	n/a
254.9515	0.105	509903	keystroke_n	n	n/a
255.1165	0.09	510233	keystroke_t	t	n/a
255.2215	0.09	510443	keystroke_Key.space	Key.space	n/a
255.4315	0.09	510863	keystroke_p	p	n/a
255.5215	0.075	511043	keystroke_a	a	n/a
255.7315	0.075	511463	keystroke_s	s	n/a
255.8215	0.09	511643	keystroke_o	o	n/a
255.9715	0.105	511943	keystroke_Key.space	Key.space	n/a
256.3165	0.09	512633	keystroke_r	r	n/a
256.9165	0.09	513833	keystroke_o	o	n/a
257.1115	0.075	514223	keystroke_u	u	n/a
257.2915	0.075	514583	keystroke_t	t	n/a
257.5015	0.075	515003	keystroke_e	e	n/a
258.7015	0.09	517403	keystroke_Key.enter	Key.enter	n/a
258.798	13.9	517596	prompt	n/a	count camera undergraduate qualifications\n
259.7965	0.09	519593	keystroke_c	c	n/a
259.9165	0.165	519833	keystroke_o	o	n/a
260.0965	0.105	520193	keystroke_u	u	n/a
260.4265	0.09	520853	keystroke_n	n	n/a
260.5315	0.075	521063	keystroke_t	t	n/a
261.1165	0.09	522233	keystroke_Key.space	Key.space	n/a
261.4765	0.09	522953	keystroke_c	c	n/a
261.5815	0.105	523163	keystroke_a	a	n/a
261.7315	0.09	523463	keystroke_m	m	n/a
261.9265	0.09	523853	keystroke_e	e	n/a
261.9865	0.105	523973	keystroke_r	r	n/a
262.2115	0.075	524423	keystroke_a	a	n/a
262.3765	0.105	524753	keystroke_Key.space	Key.space	n/a
262.6915	0.09	525383	keystroke_u	u	n/a
262.9465	0.09	525893	keystroke_n	n	n/a
263.1565	0.09	526313	keystroke_d	d	n/a
263.3665	0.135	526733	keystroke_e	e	n/a
263.4265	0.135	526853	keystroke_r	r	n/a
263.7865	0.075	527573	keystroke_g	g	n/a
263.9965	0.075	527993	keystroke_r	r	n/a
264.5815	0.06	529163	keystroke_a	a	n/a
264.8965	0.075	529793	keystroke_d	d	n/a
265.1515	0.075	530303	keystroke_u	u	n/a
265.2865	0.105	530573	keystroke_a	a	n/a
266.4865	0.075	532973	keystroke_t	t	n/a
266.6665	0.06	533333	keystroke_e	e	n/a
267.1315	0.075	534263	keystroke_Key.space	Key.space	n/a
267.7615	0.0895	535523	keystroke_q	q	n/a
267.971	0.09	535942	keystroke_u	u	n/a
268.1215	0.075	536243	keystroke_a	a	n/a
268.2715	0.12	536543	keystroke_l	l	n/a
268.5115	0.06	537023	keystroke_i	i	n/a
268.6765	0.075	537353	keystroke_f	f	n/a
268.8415	0.075	537683	keystroke_i	i	n/a
269.0665	0.12	538133	keystroke_c	c	n/a
269.6515	0.09	539303	keystroke_a	a	n/a
271.301	0.09	542602	keystroke_t	t	n/a
271.406	0.15	542812	keystroke_i	i	n/a
271.511	0.195	543022	keystroke_o	o	n/a
271.676	0.0905	543352	keystroke_n	n	n/a
271.811	0.075	543622	keystroke_s	s	n/a
272.621	0.0755	545242	keystroke_Key.enter	Key.enter	n/a
272.703	12.3115	545406	prompt	n/a	specified amended tripadvisor requires\n
273.641	0.12	547282	keystroke_c	c	n/a
274.586	0.075	549172	keystroke_Key.backspace	Key.backspace	n/a
275.261	0.09	550522	keystroke_s	s	n/a
275.546	0.075	551092	keystroke_p	p	n/a
275.696	0.06	551392	keystroke_e	e	n/a
275.921	0.075	551842	keystroke_c	c	n/a
276.041	0.075	552082	keystroke_i	i	n/a
276.176	0.06	552352	keystroke_f	f	n/a
276.281	0.09	552562	keystroke_i	i	n/a
276.356	0.06	552712	keystroke_e	e	n/a
276.521	0.075	553042	keystroke_d	d	n/a
276.656	0.075	553312	keystroke_Key.space	Key.space	n/a
277.076	0.06	554152	keystroke_a	a	n/a
277.226	0.15	554452	keystroke_m	m	n/a
277.391	0.045	554782	keystroke_e	e	n/a
277.571	0.09	555142	keystroke_n	n	n/a
277.691	0.09	555382	keystroke_d	d	n/a
277.871	0.075	555742	keystroke_e	e	n/a
278.051	0.075	556102	keystroke_d	d	n/a
278.171	0.105	556342	keystroke_Key.space	Key.space	n/a
278.711	0.105	557422	keystroke_t	t	n/a
278.936	0.12	557872	keystroke_r	r	n/a
279.311	0.075	558622	keystroke_i	i	n/a
279.491	0.09	558982	keystroke_p	p	n/a
279.686	0.09	559372	keystroke_a	a	n/a
279.881	0.105	559762	keystroke_d	d	n/a
280.151	0.075	560302	keystroke_v	v	n/a
280.286	0.09	560572	keystroke_i	i	n/a
280.451	0.075	560902	keystroke_s	s	n/a
280.556	0.105	561112	keystroke_o	o	n/a
280.691	0.06	561382	keystroke_r	r	n/a
281.216	0.09	562432	keystroke_Key.space	Key.space	n/a
281.591	0.135	563182	keystroke_r	r	n/a
282.281	0.075	564562	keystroke_e	e	n/a
282.656	0.06	565312	keystroke_q	q	n/a
282.836	0.09	565672	keystroke_u	u	n/a
283.061	0.075	566122	keystroke_i	i	n/a
283.196	0.075	566392	keystroke_r	r	n/a
283.241	0.075	566482	keystroke_e	e	n/a
283.511	0.06	567022	keystroke_s	s	n/a
284.906	0.105	569812	keystroke_Key.enter	Key.enter	n/a
285.0225	13.79	570045	prompt	n/a	lopez carol protected destroy\n
285.836	0.09	571672	keystroke_l	l	n/a
286.016	0.105	572032	keystroke_o	o	n/a
286.226	0.105	572452	keystroke_p	p	n/a
286.316	0.075	572632	keystroke_e	e	n/a
286.511	0.06	573022	keystroke_s	s	n/a
287.381	0.09	574762	keystroke_Key.backspace	Key.backspace	n/a
287.861	0.105	575722	keystroke_z	z	n/a
288.416	0.075	576832	keystroke_Key.space	Key.space	n/a
288.911	0.09	577822	keystroke_c	c	n/a
289.061	0.105	578122	keystroke_a	a	n/a
289.286	0.06	578572	keystroke_r	r	n/a
289.436	0.075	578872	keystroke_o	o	n/a
289.661	0.105	579322	keystroke_l	l	n/a
289.856	0.105	579712	keystroke_Key.space	Key.space	n/a
290.171	0.12	580342	keystroke_p	p	n/a
290.276	0.105	580552	keystroke_r	r	n/a
290.441	0.075	580882	keystroke_o	o	n/a
290.636	0.0745	581272	keystroke_t	t	n/a
290.7705	0.0905	581541	keystroke_e	e	n/a
291.2955	0.15	582591	keystroke_t	t	n/a
291.7155	0.06	583431	keystroke_e	e	n/a
291.8955	0.075	583791	keystroke_d	d	n/a
292.0305	0.105	584061	keystroke_Key.space	Key.space	n/a
293.3655	0.09	586731	keystroke_Key.backspace	Key.backspace	n/a
293.5755	0.09	587151	keystroke_Key.backspace	Key.backspace	n/a
293.7555	0.09	587511	keystroke_Key.backspace	Key.backspace	n/a
294.0105	0.0755	588021	keystroke_Key.backspace	Key.backspace	n/a
294.206	0.075	588412	keystroke_c	c	n/a
294.611	0.075	589222	keystroke_t	t	n/a
294.746	0.075	589492	keystroke_e	e	n/a
294.971	0.075	589942	keystroke_d	d	n/a
295.106	0.105	590212	keystroke_Key.space	Key.space	n/a
295.361	0.06	590722	keystroke_d	d	n/a
295.526	0.06	591052	keystroke_e	e	n/a
295.691	0.12	591382	keystroke_s	s	n/a
295.796	0.09	591592	keystroke_t	t	n/a
295.976	0.06	591952	keystroke_r	r	n/a
297.266	0.09	594532	keystroke_o	o	n/a
297.536	0.075	595072	keystroke_y	y	n/a
298.676	0.135	597352	keystroke_Key.enter	Key.enter	n/a
298.818	7.7805	597636	prompt	n/a	lets cleanup cause thailand\n
299.906	0.105	599812	keystroke_l	l	n/a
300.1765	0.12	600353	keystroke_e	e	n/a
300.2665	0.12	600533	keystroke_t	t	n/a
300.4915	0.105	600983	keystroke_s	s	n/a
300.6415	0.1045	601283	keystroke_Key.space	Key.space	n/a
301.016	0.105	602032	keystroke_c	c	n/a
301.1515	0.105	602303	keystroke_l	l	n/a
301.5865	0.06	603173	keystroke_e	e	n/a
301.7065	0.09	603413	keystroke_a	a	n/a
301.8865	0.09	603773	keystroke_n	n	n/a
302.1715	0.135	604343	keystroke_u	u	n/a
302.2915	0.12	604583	keystroke_p	p	n/a
302.5165	0.09	605033	keystroke_Key.space	Key.space	n/a
302.9365	0.15	605873	keystroke_c	c	n/a
303.0565	0.105	606113	keystroke_a	a	n/a
303.4165	0.075	606833	keystroke_u	u	n/a
303.7765	0.09	607553	keystroke_s	s	n/a
303.9415	0.075	607883	keystroke_e	e	n/a
304.1365	0.09	608273	keystroke_Key.space	Key.space	n/a
304.6315	0.09	609263	keystroke_t	t	n/a
304.7515	0.12	609503	keystroke_h	h	n/a
304.9465	0.075	609893	keystroke_a	a	n/a
305.0965	0.06	610193	keystroke_i	i	n/a
305.2915	0.09	610583	keystroke_l	l	n/a
305.4265	0.06	610853	keystroke_a	a	n/a
305.5615	0.075	611123	keystroke_n	n	n/a
305.6665	0.075	611333	keystroke_d	d	n/a
306.5065	0.09	613013	keystroke_Key.enter	Key.enter	n/a
306.605	7.014	613210	prompt	n/a	remedies imperial on fashion\n
307.4365	0.135	614873	keystroke_r	r	n/a
307.5265	0.09	615053	keystroke_e	e	n/a
307.6915	0.09	615383	keystroke_m	m	n/a
307.7515	0.075	615503	keystroke_e	e	n/a
307.9915	0.075	615983	keystroke_d	d	n/a
308.2165	0.015	616433	keystroke_i	i	n/a
308.2465	0.045	616493	keystroke_e	e	n/a
308.4265	0.075	616853	keystroke_s	s	n/a
308.5165	0.105	617033	keystroke_Key.space	Key.space	n/a
308.7265	0.105	617453	keystroke_i	i	n/a
309.1165	0.045	618233	keystroke_m	m	n/a
309.5365	0.09	619073	keystroke_p	p	n/a
309.7765	0.075	619553	keystroke_e	e	n/a
309.9565	0.075	619913	keystroke_r	r	n/a
310.1065	0.0745	620213	keystroke_i	i	n/a
310.2415	0.075	620483	keystroke_a	a	n/a
310.3615	0.135	620723	keystroke_l	l	n/a
310.6165	0.09	621233	keystroke_Key.space	Key.space	n/a
310.931	0.105	621862	keystroke_o	o	n/a
311.0965	0.12	622193	keystroke_n	n	n/a
311.1715	0.1345	622343	keystroke_Key.space	Key.space	n/a
311.381	0.105	622762	keystroke_f	f	n/a
311.531	0.0755	623062	keystroke_a	a	n/a
311.8615	0.0595	623723	keystroke_s	s	n/a
312.0415	0.0895	624083	keystroke_h	h	n/a
312.311	0.0755	624622	keystroke_i	i	n/a
312.4915	0.09	624983	keystroke_o	o	n/a
312.6865	0.075	625373	keystroke_n	n	n/a
313.4815	0.135	626963	keystroke_Key.enter	Key.enter	n/a
313.6235	16.2395	627247	prompt	n/a	taxation sexuality curriculum aerial\n
314.651	0.12	629302	keystroke_t	t	n/a
314.891	0.075	629782	keystroke_a	a	n/a
315.3565	0.075	630713	keystroke_a	a	n/a
316.3765	0.075	632753	keystroke_Key.backspace	Key.backspace	n/a
316.6465	0.105	633293	keystroke_x	x	n/a
316.9165	0.06	633833	keystroke_a	a	n/a
317.1415	0.06	634283	keystroke_t	t	n/a
317.4265	0.12	634853	keystroke_i	i	n/a
317.6665	0.09	635333	keystroke_o	o	n/a
317.8765	0.105	635753	keystroke_n	n	n/a
318.0865	0.075	636173	keystroke_Key.space	Key.space	n/a
318.4915	0.09	636983	keystroke_s	s	n/a
318.7015	0.03	637403	keystroke_e	e	n/a
318.9115	0.105	637823	keystroke_c	c	n/a
319.1065	0.09	638213	keystroke_u	u	n/a
319.2565	0.06	638513	keystroke_a	a	n/a
319.4065	0.105	638813	keystroke_l	l	n/a
319.6315	0.075	639263	keystroke_i	i	n/a
319.9015	0.075	639803	keystroke_t	t	n/a
320.7565	0.09	641513	keystroke_Key.backspace	Key.backspace	n/a
320.9515	0.105	641903	keystroke_Key.backspace	Key.backspace	n/a
321.1315	0.105	642263	keystroke_Key.backspace	Key.backspace	n/a
321.3115	0.105	642623	keystroke_Key.backspace	Key.backspace	n/a
321.5065	0.105	643013	keystroke_Key.backspace	Key.backspace	n/a
321.7015	0.09	643403	keystroke_Key.backspace	Key.backspace	n/a
322.0165	0.09	644033	keystroke_x	x	n/a
322.4665	0.075	644933	keystroke_u	u	n/a
322.6315	0.06	645263	keystroke_a	a	n/a
322.7215	0.12	645443	keystroke_l	l	n/a
322.9465	0.075	645893	keystroke_i	i	n/a
323.0815	0.075	646163	keystroke_t	t	n/a
323.2915	0.06	646583	keystroke_y	y	n/a
323.9365	0.09	647873	keystroke_Key.space	Key.space	n/a
324.2365	0.09	648473	keystroke_c	c	n/a
324.5065	0.075	649013	keystroke_u	u	n/a
324.6865	0.06	649373	keystroke_r	r	n/a
324.8065	0.075	649613	keystroke_r	r	n/a
324.9415	0.075	649883	keystroke_i	i	n/a
325.1515	0.075	650303	keystroke_c	c	n/a
325.2865	0.09	650573	keystroke_u	u	n/a
325.8415	0.105	651683	keystroke_l	l	n/a
326.0365	0.09	652073	keystroke_u	u	n/a
326.3215	0.12	652643	keystroke_m	m	n/a
326.6065	0.15	653213	keystroke_Key.space	Key.space	n/a
327.3415	0.105	654683	keystroke_a	a	n/a
327.7615	0.075	655523	keystroke_e	e	n/a
327.9565	0.06	655913	keystroke_r	r	n/a
328.1815	0.09	656363	keystroke_i	i	n/a
328.3165	0.06	656633	keystroke_a	a	n/a
328.4515	0.09	656903	keystroke_l	l	n/a
329.7715	0.09	659543	keystroke_Key.enter	Key.enter	n/a
329.8675	7.961	659735	prompt	n/a	laughing respondents leeds sheet\n
330.716	0.09	661432	keystroke_l	l	n/a
330.7915	0.105	661583	keystroke_a	a	n/a
331.376	0.075	662752	keystroke_u	u	n/a
331.526	0.06	663052	keystroke_g	g	n/a
331.6165	0.0895	663233	keystroke_h	h	n/a
331.8115	0.06	663623	keystroke_i	i	n/a
331.976	0.105	663952	keystroke_n	n	n/a
332.096	0.06	664192	keystroke_g	g	n/a
332.156	0.12	664312	keystroke_Key.space	Key.space	n/a
332.471	0.0755	664942	keystroke_r	r	n/a
332.5165	0.0895	665033	keystroke_e	e	n/a
332.726	0.09	665452	keystroke_s	s	n/a
332.831	0.06	665662	keystroke_p	p	n/a
333.0115	0.06	666023	keystroke_o	o	n/a
333.776	0.09	667552	keystroke_n	n	n/a
333.881	0.09	667762	keystroke_d	d	n/a
334.151	0.03	668302	keystroke_e	e	n/a
334.196	0.12	668392	keystroke_n	n	n/a
334.391	0.09	668782	keystroke_t	t	n/a
334.586	0.075	669172	keystroke_s	s	n/a
334.691	0.09	669382	keystroke_Key.space	Key.space	n/a
334.901	0.105	669802	keystroke_l	l	n/a
334.991	0.06	669982	keystroke_e	e	n/a
335.126	0.075	670252	keystroke_e	e	n/a
335.321	0.09	670642	keystroke_d	d	n/a
335.456	0.09	670912	keystroke_s	s	n/a
335.606	0.105	671212	keystroke_Key.space	Key.space	n/a
335.846	0.09	671692	keystroke_s	s	n/a
335.996	0.075	671992	keystroke_h	h	n/a
336.251	0.06	672502	keystroke_e	e	n/a
336.371	0.09	672742	keystroke_e	e	n/a
336.581	0.06	673162	keystroke_t	t	n/a
337.736	0.09	675472	keystroke_Key.enter	Key.enter	n/a
337.833	9.1755	675666	prompt	n/a	previously appears outlined companion\n
338.696	0.09	677392	keystroke_p	p	n/a
338.921	0.075	677842	keystroke_r	r	n/a
338.981	0.075	677962	keystroke_e	e	n/a
339.266	0.06	678532	keystroke_v	v	n/a
339.536	0.09	679072	keystroke_i	i	n/a
339.761	0.105	679522	keystroke_o	o	n/a
339.956	0.09	679912	keystroke_u	u	n/a
340.166	0.075	680332	keystroke_s	s	n/a
340.286	0.105	680572	keystroke_l	l	n/a
340.556	0.105	681112	keystroke_y	y	n/a
340.736	0.09	681472	keystroke_Key.space	Key.space	n/a
340.946	0.06	681892	keystroke_a	a	n/a
341.021	0.09	682042	keystroke_p	p	n/a
341.186	0.105	682372	keystroke_p	p	n/a
341.276	0.135	682552	keystroke_e	e	n/a
341.381	0.12	682762	keystroke_a	a	n/a
341.486	0.09	682972	keystroke_r	r	n/a
341.771	0.075	683542	keystroke_s	s	n/a
341.951	0.075	683902	keystroke_Key.space	Key.space	n/a
342.521	0.105	685042	keystroke_o	o	n/a
342.611	0.15	685222	keystroke_u	u	n/a
342.776	0.075	685552	keystroke_t	t	n/a
342.896	0.09	685792	keystroke_l	l	n/a
343.091	0.075	686182	keystroke_i	i	n/a
343.2715	0.104	686543	keystroke_n	n	n/a
343.3765	0.059	686753	keystroke_e	e	n/a
343.5555	0.075	687111	keystroke_d	d	n/a
343.6615	0.089	687323	keystroke_Key.space	Key.space	n/a
344.6965	0.075	689393	keystroke_c	c	n/a
344.7855	0.075	689571	keystroke_o	o	n/a
344.9365	0.134	689873	keystroke_m	m	n/a
345.0865	0.105	690173	keystroke_p	p	n/a
345.2065	0.105	690413	keystroke_a	a	n/a
345.3405	0.105	690681	keystroke_n	n	n/a
345.5515	0.09	691103	keystroke_i	i	n/a
345.7305	0.09	691461	keystroke_o	o	n/a
345.9115	0.074	691823	keystroke_n	n	n/a
346.9155	0.09	693831	keystroke_Key.enter	Key.enter	n/a
347.013	11.0355	694026	prompt	n/a	loans decided guinea regard\n
347.6515	0.09	695303	keystroke_l	l	n/a
347.8605	0.031	695721	keystroke_o	o	n/a
348.4465	0.045	696893	keystroke_a	a	n/a
348.5965	0.075	697193	keystroke_n	n	n/a
348.7465	0.075	697493	keystroke_s	s	n/a
348.8655	0.091	697731	keystroke_Key.space	Key.space	n/a
349.2865	0.09	698573	keystroke_d	d	n/a
349.6155	0.061	699231	keystroke_e	e	n/a
349.8405	0.106	699681	keystroke_c	c	n/a
349.9615	0.06	699923	keystroke_i	i	n/a
350.1415	0.074	700283	keystroke_d	d	n/a
350.3215	0.059	700643	keystroke_e	e	n/a
350.4855	0.076	700971	keystroke_d	d	n/a
350.5905	0.121	701181	keystroke_Key.space	Key.space	n/a
350.9515	0.075	701903	keystroke_g	g	n/a
351.1465	0.075	702293	keystroke_u	u	n/a
351.4015	0.09	702803	keystroke_i	i	n/a
351.6255	0.09	703251	keystroke_n	n	n/a
351.8215	0.059	703643	keystroke_e	e	n/a
351.9865	0.06	703973	keystroke_a	a	n/a
352.3305	0.09	704661	keystroke_Key.space	Key.space	n/a
352.6905	0.106	705381	keystroke_r	r	n/a
352.7965	0.075	705593	keystroke_e	e	n/a
353.0355	0.075	706071	keystroke_g	g	n/a
353.3655	0.075	706731	keystroke_u	u	n/a
353.5765	0.105	707153	keystroke_a	a	n/a
353.7265	0.105	707453	keystroke_r	r	n/a
354.9405	0.06	709881	keystroke_Key.backspace	Key.backspace	n/a
355.1055	0.09	710211	keystroke_Key.backspace	Key.backspace	n/a
355.5555	0.076	711111	keystroke_Key.backspace	Key.backspace	n/a
355.6765	0.075	711353	keystroke_a	a	n/a
356.0065	0.06	712013	keystroke_r	r	n/a
356.6215	0.075	713243	keystroke_d	d	n/a
357.9565	0.09	715913	keystroke_Key.enter	Key.enter	n/a
358.0545	10.1495	716109	prompt	n/a	accident precision somebody's highly\n
358.8265	0.075	717653	keystroke_a	a	n/a
359.0215	0.06	718043	keystroke_c	c	n/a
359.1565	0.06	718313	keystroke_c	c	n/a
359.2615	0.075	718523	keystroke_i	i	n/a
359.3665	0.075	718733	keystroke_d	d	n/a
359.5155	0.046	719031	keystroke_e	e	n/a
359.6355	0.106	719271	keystroke_n	n	n/a
359.7715	0.075	719543	keystroke_t	t	n/a
359.9355	0.121	719871	keystroke_Key.space	Key.space	n/a
360.2965	0.075	720593	keystroke_p	p	n/a
360.5665	0.105	721133	keystroke_r	r	n/a
360.6415	0.075	721283	keystroke_e	e	n/a
360.9565	0.105	721913	keystroke_c	c	n/a
361.0915	0.09	722183	keystroke_i	i	n/a
361.3155	0.076	722631	keystroke_s	s	n/a
361.4665	0.089	722933	keystroke_i	i	n/a
361.6465	0.089	723293	keystroke_o	o	n/a
361.7965	0.164	723593	keystroke_n	n	n/a
361.9465	0.104	723893	keystroke_Key.space	Key.space	n/a
362.2765	0.059	724553	keystroke_s	s	n/a
362.3665	0.105	724733	keystroke_o	o	n/a
362.6215	0.089	725243	keystroke_m	m	n/a
362.6665	0.06	725333	keystroke_e	e	n/a
363.1615	0.075	726323	keystroke_b	b	n/a
363.2815	0.105	726563	keystroke_o	o	n/a
363.5065	0.045	727013	keystroke_d	d	n/a
363.8065	0.06	727613	keystroke_y	y	n/a
364.6015	0.075	729203	keystroke_'	'	n/a
364.9915	0.075	729983	keystroke_s	s	n/a
365.455	0.0765	730910	keystroke_Key.space	Key.space	n/a
365.801	0.075	731602	keystroke_h	h	n/a
365.9965	0.059	731993	keystroke_i	i	n/a
366.1305	0.075	732261	keystroke_g	g	n/a
366.5065	0.09	733013	keystroke_h	h	n/a
366.7005	0.091	733401	keystroke_l	l	n/a
366.9705	0.075	733941	keystroke_y	y	n/a
368.1105	0.091	736221	keystroke_Key.enter	Key.enter	n/a
368.21	9.5035	736420	prompt	n/a	barrier lions outlets catalogue\n
369.1465	0.104	738293	keystroke_b	b	n/a
369.4915	0.09	738983	keystroke_a	a	n/a
369.7155	0.061	739431	keystroke_r	r	n/a
369.8355	0.091	739671	keystroke_r	r	n/a
370.0015	0.059	740003	keystroke_i	i	n/a
370.1215	0.075	740243	keystroke_e	e	n/a
370.3315	0.03	740663	keystroke_r	r	n/a
370.6605	0.105	741321	keystroke_Key.space	Key.space	n/a
370.8715	0.12	741743	keystroke_l	l	n/a
371.1115	0.075	742223	keystroke_i	i	n/a
371.2465	0.089	742493	keystroke_o	o	n/a
371.4265	0.119	742853	keystroke_n	n	n/a
371.5315	0.074	743063	keystroke_s	s	n/a
371.6505	0.12	743301	keystroke_Key.space	Key.space	n/a
371.8915	0.074	743783	keystroke_o	o	n/a
371.9355	0.106	743871	keystroke_u	u	n/a
372.1315	0.074	744263	keystroke_t	t	n/a
372.2965	0.09	744593	keystroke_l	l	n/a
372.7765	0.09	745553	keystroke_e	e	n/a
372.8805	0.121	745761	keystroke_t	t	n/a
373.0755	0.075	746151	keystroke_s	s	n/a
373.2855	0.105	746571	keystroke_Key.space	Key.space	n/a
373.5565	0.09	747113	keystroke_c	c	n/a
373.6755	0.031	747351	keystroke_o	o	n/a
374.6955	0.075	749391	keystroke_Key.backspace	Key.backspace	n/a
374.8155	0.091	749631	keystroke_a	a	n/a
374.9515	0.09	749903	keystroke_t	t	n/a
375.4015	0.074	750803	keystroke_a	a	n/a
375.6105	0.1205	751221	keystroke_l	l	n/a
375.8515	0.089	751703	keystroke_o	o	n/a
375.9265	0.059	751853	keystroke_g	g	n/a
376.1665	0.06	752333	keystroke_u	u	n/a
376.2105	0.075	752421	keystroke_e	e	n/a
377.6205	0.09	755241	keystroke_Key.enter	Key.enter	n/a
377.719	16.1045	755438	prompt	n/a	offer screensavers meaning limousines\n
378.4905	0.091	756981	keystroke_o	o	n/a
378.6255	0.061	757251	keystroke_f	f	n/a
378.7615	0.09	757523	keystroke_f	f	n/a
379.6155	0.1055	759231	keystroke_e	e	n/a
379.675	0.0915	759350	keystroke_r	r	n/a
379.871	0.089	759742	keystroke_Key.space	Key.space	n/a
380.021	0.105	760042	keystroke_s	s	n/a
380.23	0.135	760460	keystroke_c	c	n/a
381.146	0.075	762292	keystroke_r	r	n/a
381.251	0.06	762502	keystroke_e	e	n/a
381.3865	0.0895	762773	keystroke_e	e	n/a
381.506	0.075	763012	keystroke_n	n	n/a
381.701	0.075	763402	keystroke_s	s	n/a
381.896	0.059	763792	keystroke_a	a	n/a
382.121	0.075	764242	keystroke_v	v	n/a
382.361	0.06	764722	keystroke_e	e	n/a
382.39	0.091	764780	keystroke_r	r	n/a
382.585	0.061	765170	keystroke_s	s	n/a
383.275	0.091	766550	keystroke_Key.space	Key.space	n/a
383.651	0.12	767302	keystroke_m	m	n/a
383.756	0.06	767512	keystroke_e	e	n/a
384.191	0.06	768382	keystroke_a	a	n/a
384.311	0.074	768622	keystroke_n	n	n/a
384.491	0.06	768982	keystroke_i	i	n/a
384.716	0.075	769432	keystroke_n	n	n/a
384.836	0.045	769672	keystroke_g	g	n/a
385.946	0.089	771892	keystroke_Key.space	Key.space	n/a
386.171	0.105	772342	keystroke_l	l	n/a
386.426	0.075	772852	keystroke_i	i	n/a
386.771	0.09	773542	keystroke_m	m	n/a
387.011	0.09	774022	keystroke_o	o	n/a
387.161	0.105	774322	keystroke_u	u	n/a
387.371	0.06	774742	keystroke_s	s	n/a
387.461	0.075	774922	keystroke_i	i	n/a
387.671	0.09	775342	keystroke_n	n	n/a
388.421	0.06	776842	keystroke_e	e	n/a
388.901	0.09	777802	keystroke_s	s	n/a
393.809	0.012	787618	keystroke_Key.enter	Key.enter	n/a
393.8295	13.2235	787659	prompt	n/a	invited jewelry quantum namespace\n
394.781	0.09	789562	keystroke_i	i	n/a
394.961	0.09	789922	keystroke_n	n	n/a
395.276	0.075	790552	keystroke_i	i	n/a
395.381	0.075	790762	keystroke_v	v	n/a
395.636	0.075	791272	keystroke_e	e	n/a
397.001	0.09	794002	keystroke_Key.backspace	Key.backspace	n/a
397.196	0.09	794392	keystroke_Key.backspace	Key.backspace	n/a
397.616	0.075	795232	keystroke_Key.backspace	Key.backspace	n/a
398.351	0.075	796702	keystroke_v	v	n/a
398.516	0.075	797032	keystroke_i	i	n/a
398.786	0.075	797572	keystroke_t	t	n/a
398.966	0.045	797932	keystroke_e	e	n/a
399.131	0.06	798262	keystroke_d	d	n/a
399.341	0.09	798682	keystroke_Key.space	Key.space	n/a
399.986	0.075	799972	keystroke_j	j	n/a
400.151	0.06	800302	keystroke_e	e	n/a
400.436	0.06	800872	keystroke_w	w	n/a
400.601	0.045	801202	keystroke_e	e	n/a
400.691	0.09	801382	keystroke_l	l	n/a
401.351	0.075	802702	keystroke_r	r	n/a
401.606	0.09	803212	keystroke_y	y	n/a
401.831	0.105	803662	keystroke_Key.space	Key.space	n/a
402.311	0.09	804622	keystroke_q	q	n/a
402.641	0.075	805282	keystroke_u	u	n/a
402.791	0.075	805582	keystroke_a	a	n/a
402.911	0.12	805822	keystroke_n	n	n/a
403.076	0.06	806152	keystroke_t	t	n/a
403.271	0.06	806542	keystroke_u	u	n/a
403.496	0.18	806992	keystroke_m	m	n/a
403.646	0.12	807292	keystroke_Key.space	Key.space	n/a
403.886	0.09	807772	keystroke_n	n	n/a
404.006	0.06	808012	keystroke_a	a	n/a
404.501	0.105	809002	keystroke_m	m	n/a
405.086	0.075	810172	keystroke_e	e	n/a
405.311	0.06	810622	keystroke_s	s	n/a
405.446	0.09	810892	keystroke_p	p	n/a
405.581	0.06	811162	keystroke_a	a	n/a
405.791	0.09	811582	keystroke_c	c	n/a
406.001	0.045	812002	keystroke_e	e	n/a
406.961	0.09	813922	keystroke_Key.enter	Key.enter	n/a
407.0585	9.699	814117	prompt	n/a	residents sticks continually nose\n
407.996	0.105	815992	keystroke_r	r	n/a
408.131	0.09	816262	keystroke_e	e	n/a
408.341	0.075	816682	keystroke_s	s	n/a
408.461	0.075	816922	keystroke_i	i	n/a
408.566	0.075	817132	keystroke_d	d	n/a
408.716	0.06	817432	keystroke_e	e	n/a
408.806	0.12	817612	keystroke_n	n	n/a
408.956	0.09	817912	keystroke_t	t	n/a
409.106	0.075	818212	keystroke_s	s	n/a
409.256	0.105	818512	keystroke_Key.space	Key.space	n/a
409.556	0.15	819112	keystroke_s	s	n/a
409.736	0.075	819472	keystroke_t	t	n/a
409.916	0.06	819832	keystroke_i	i	n/a
410.141	0.06	820282	keystroke_c	c	n/a
410.246	0.09	820492	keystroke_k	k	n/a
410.426	0.075	820852	keystroke_s	s	n/a
410.561	0.105	821122	keystroke_Key.space	Key.space	n/a
410.876	0.105	821752	keystroke_c	c	n/a
411.086	0.06	822172	keystroke_o	o	n/a
411.251	0.135	822502	keystroke_n	n	n/a
411.506	0.06	823012	keystroke_t	t	n/a
411.8655	0.075	823731	keystroke_u	u	n/a
412.0905	0.105	824181	keystroke_n	n	n/a
413.3505	0.09	826701	keystroke_Key.backspace	Key.backspace	n/a
413.5155	0.105	827031	keystroke_Key.backspace	Key.backspace	n/a
413.8155	0.06	827631	keystroke_i	i	n/a
414.0105	0.12	828021	keystroke_n	n	n/a
414.2805	0.075	828561	keystroke_u	u	n/a
414.3705	0.075	828741	keystroke_a	a	n/a
414.4905	0.075	828981	keystroke_l	l	n/a
414.6555	0.09	829311	keystroke_l	l	n/a
414.9405	0.135	829881	keystroke_y	y	n/a
415.0605	0.105	830121	keystroke_Key.space	Key.space	n/a
415.2705	0.105	830541	keystroke_n	n	n/a
415.4505	0.105	830901	keystroke_o	o	n/a
415.6605	0.09	831321	keystroke_s	s	n/a
415.8405	0.06	831681	keystroke_e	e	n/a
416.6655	0.09	833331	keystroke_Key.enter	Key.enter	n/a
416.7655	8.422	833531	prompt	n/a	reseller bidding opening commonly\n
417.7305	0.075	835461	keystroke_r	r	n/a
417.8655	0.075	835731	keystroke_e	e	n/a
418.0755	0.075	836151	keystroke_s	s	n/a
418.2555	0.06	836511	keystroke_e	e	n/a
418.4655	0.075	836931	keystroke_l	l	n/a
418.6305	0.105	837261	keystroke_l	l	n/a
418.7955	0.09	837591	keystroke_e	e	n/a
418.8705	0.075	837741	keystroke_r	r	n/a
419.0055	0.09	838011	keystroke_Key.space	Key.space	n/a
420.085	0.075	840170	keystroke_b	b	n/a
420.235	0.091	840470	keystroke_i	i	n/a
420.37	0.076	840740	keystroke_d	d	n/a
420.506	0.089	841012	keystroke_d	d	n/a
420.626	0.074	841252	keystroke_i	i	n/a
420.805	0.091	841610	keystroke_n	n	n/a
420.926	0.059	841852	keystroke_g	g	n/a
421	0.12	842000	keystroke_Key.space	Key.space	n/a
421.166	0.119	842332	keystroke_o	o	n/a
421.661	0.074	843322	keystroke_p	p	n/a
421.781	0.06	843562	keystroke_e	e	n/a
421.93	0.09	843860	keystroke_n	n	n/a
422.11	0.075	844220	keystroke_i	i	n/a
422.275	0.136	844550	keystroke_n	n	n/a
422.426	0.059	844852	keystroke_g	g	n/a
422.501	0.134	845002	keystroke_Key.space	Key.space	n/a
422.801	0.104	845602	keystroke_c	c	n/a
422.89	0.105	845780	keystroke_o	o	n/a
423.146	0.075	846292	keystroke_m	m	n/a
423.296	0.09	846592	keystroke_m	m	n/a
423.491	0.089	846982	keystroke_o	o	n/a
423.656	0.104	847312	keystroke_n	n	n/a
423.836	0.105	847672	keystroke_l	l	n/a
424.121	0.075	848242	keystroke_y	y	n/a
425.096	0.089	850192	keystroke_Key.enter	Key.enter	n/a
425.192	10.4805	850384	prompt	n/a	patio bond outdoor distinct\n
426.161	0.075	852322	keystroke_p	p	n/a
426.311	0.074	852622	keystroke_a	a	n/a
426.73	0.075	853460	keystroke_t	t	n/a
426.866	0.09	853732	keystroke_i	i	n/a
427.076	0.09	854152	keystroke_o	o	n/a
427.84	0.09	855680	keystroke_Key.space	Key.space	n/a
428.366	0.075	856732	keystroke_o	o	n/a
428.606	0.075	857212	keystroke_n	n	n/a
429.385	0.031	858770	keystroke_Key.backspace	Key.backspace	n/a
429.535	0.091	859070	keystroke_Key.backspace	Key.backspace	n/a
429.851	0.059	859702	keystroke_b	b	n/a
430.016	0.09	860032	keystroke_o	o	n/a
430.226	0.075	860452	keystroke_n	n	n/a
430.316	0.075	860632	keystroke_d	d	n/a
430.826	0.104	861652	keystroke_Key.space	Key.space	n/a
431.141	0.075	862282	keystroke_o	o	n/a
431.456	0.075	862912	keystroke_u	u	n/a
431.651	0.06	863302	keystroke_t	t	n/a
431.905	0.075	863810	keystroke_d	d	n/a
432.026	0.075	864052	keystroke_o	o	n/a
432.176	0.105	864352	keystroke_o	o	n/a
432.31	0.06	864620	keystroke_r	r	n/a
432.476	0.074	864952	keystroke_Key.space	Key.space	n/a
432.971	0.075	865942	keystroke_d	d	n/a
433.091	0.075	866182	keystroke_i	i	n/a
433.211	0.135	866422	keystroke_s	s	n/a
433.421	0.0735	866842	keystroke_t	t	n/a
433.555	0.061	867110	keystroke_i	i	n/a
433.6905	0.0895	867381	keystroke_n	n	n/a
434.411	0.0895	868822	keystroke_c	c	n/a
434.6805	0.06	869361	keystroke_t	t	n/a
435.5655	0.105	871131	keystroke_Key.enter	Key.enter	n/a
435.6775	8.92	871355	prompt	n/a	poor bike ranking dimensions\n
436.3905	0.105	872781	keystroke_p	p	n/a
436.6155	0.06	873231	keystroke_o	o	n/a
436.7655	0.105	873531	keystroke_o	o	n/a
437.0205	0.045	874041	keystroke_p	p	n/a
437.9205	0.075	875841	keystroke_Key.backspace	Key.backspace	n/a
438.0105	0.06	876021	keystroke_r	r	n/a
438.2355	0.075	876471	keystroke_Key.space	Key.space	n/a
438.82	0.075	877640	keystroke_b	b	n/a
439.0155	0.075	878031	keystroke_i	i	n/a
439.21	0.0905	878420	keystroke_k	k	n/a
439.301	0.074	878602	keystroke_e	e	n/a
439.4055	0.1045	878811	keystroke_Key.space	Key.space	n/a
439.6605	0.105	879321	keystroke_r	r	n/a
439.8555	0.0445	879711	keystroke_a	a	n/a
440.185	0.075	880370	keystroke_n	n	n/a
440.38	0.1055	880760	keystroke_k	k	n/a
440.5905	0.0595	881181	keystroke_i	i	n/a
440.77	0.1055	881540	keystroke_n	n	n/a
440.8905	0.09	881781	keystroke_g	g	n/a
440.995	0.105	881990	keystroke_Key.space	Key.space	n/a
441.2355	0.0745	882471	keystroke_d	d	n/a
441.37	0.0905	882740	keystroke_i	i	n/a
441.7	0.1055	883400	keystroke_m	m	n/a
442.0905	0.06	884181	keystroke_e	e	n/a
442.195	0.1055	884390	keystroke_n	n	n/a
442.6905	0.075	885381	keystroke_s	s	n/a
442.795	0.0905	885590	keystroke_i	i	n/a
443.0055	0.075	886011	keystroke_o	o	n/a
443.2005	0.0595	886401	keystroke_n	n	n/a
443.305	0.045	886610	keystroke_s	s	n/a
444.52	0.075	889040	keystroke_Key.enter	Key.enter	n/a
444.6025	7.015	889205	prompt	n/a	supply usual zope pillow\n
445.39	0.09	890780	keystroke_s	s	n/a
445.555	0.09	891110	keystroke_u	u	n/a
445.765	0.06	891530	keystroke_p	p	n/a
445.9	0.09	891800	keystroke_p	p	n/a
446.125	0.09	892250	keystroke_l	l	n/a
446.38	0.12	892760	keystroke_y	y	n/a
446.5	0.135	893000	keystroke_Key.space	Key.space	n/a
446.785	0.105	893570	keystroke_u	u	n/a
446.905	0.075	893810	keystroke_s	s	n/a
447.04	0.09	894080	keystroke_u	u	n/a
447.115	0.09	894230	keystroke_a	a	n/a
447.265	0.09	894530	keystroke_l	l	n/a
447.46	0.09	894920	keystroke_Key.space	Key.space	n/a
447.745	0.105	895490	keystroke_z	z	n/a
447.97	0.09	895940	keystroke_o	o	n/a
448.15	0.105	896300	keystroke_p	p	n/a
448.315	0.06	896630	keystroke_e	e	n/a
448.45	0.09	896900	keystroke_Key.space	Key.space	n/a
449.2755	0.0895	898551	keystroke_p	p	n/a
449.485	0.105	898970	keystroke_i	i	n/a
449.71	0.075	899420	keystroke_l	l	n/a
449.875	0.105	899750	keystroke_l	l	n/a
450.07	0.09	900140	keystroke_o	o	n/a
450.13	0.105	900260	keystroke_w	w	n/a
451.48	0.135	902960	keystroke_Key.enter	Key.enter	n/a
451.6225	9.235	903245	prompt	n/a	scsi improving signs automation\n
452.38	0.075	904760	keystroke_s	s	n/a
452.62	0.09	905240	keystroke_c	c	n/a
452.86	0.075	905720	keystroke_s	s	n/a
453.1	0.075	906200	keystroke_i	i	n/a
453.385	0.075	906770	keystroke_Key.space	Key.space	n/a
453.775	0.06	907550	keystroke_i	i	n/a
453.97	0.105	907940	keystroke_m	m	n/a
454.195	0.09	908390	keystroke_p	p	n/a
454.345	0.09	908690	keystroke_r	r	n/a
454.525	0.105	909050	keystroke_o	o	n/a
454.675	0.06	909350	keystroke_v	v	n/a
454.795	0.075	909590	keystroke_i	i	n/a
455.02	0.09	910040	keystroke_n	n	n/a
455.125	0.075	910250	keystroke_g	g	n/a
455.215	0.09	910430	keystroke_Key.space	Key.space	n/a
455.35	0.105	910700	keystroke_s	s	n/a
456.025	0.045	912050	keystroke_g	g	n/a
456.536	0.074	913072	keystroke_n	n	n/a
457.12	0.09	914240	keystroke_s	s	n/a
457.285	0.12	914570	keystroke_Key.space	Key.space	n/a
457.705	0.061	915410	keystroke_a	a	n/a
457.84	0.075	915680	keystroke_u	u	n/a
458.816	0.075	917632	keystroke_t	t	n/a
459.07	0.045	918140	keystroke_o	o	n/a
459.205	0.09	918410	keystroke_m	m	n/a
459.31	0.09	918620	keystroke_a	a	n/a
459.505	0.06	919010	keystroke_t	t	n/a
459.64	0.18	919280	keystroke_i	i	n/a
459.7	0.165	919400	keystroke_o	o	n/a
459.805	0.09	919610	keystroke_n	n	n/a
460.751	0.104	921502	keystroke_Key.enter	Key.enter	n/a
460.862	9.0855	921724	prompt	n/a	support indication sierra expectations\n
461.665	0.09	923330	keystroke_s	s	n/a
461.845	0.091	923690	keystroke_u	u	n/a
462.041	0.074	924082	keystroke_p	p	n/a
462.205	0.105	924410	keystroke_p	p	n/a
462.445	0.075	924890	keystroke_o	o	n/a
462.535	0.091	925070	keystroke_r	r	n/a
462.731	0.059	925462	keystroke_t	t	n/a
462.835	0.105	925670	keystroke_Key.space	Key.space	n/a
463.3755	0.075	926751	keystroke_i	i	n/a
463.5855	0.09	927171	keystroke_n	n	n/a
463.7955	0.09	927591	keystroke_d	d	n/a
463.9455	0.075	927891	keystroke_i	i	n/a
464.1255	0.105	928251	keystroke_c	c	n/a
464.3955	0.06	928791	keystroke_a	a	n/a
464.5455	0.075	929091	keystroke_t	t	n/a
464.6655	0.09	929331	keystroke_i	i	n/a
464.8755	0.075	929751	keystroke_o	o	n/a
465.0555	0.12	930111	keystroke_n	n	n/a
465.1905	0.12	930381	keystroke_Key.space	Key.space	n/a
465.4155	0.075	930831	keystroke_s	s	n/a
465.5205	0.075	931041	keystroke_i	i	n/a
465.7005	0.09	931401	keystroke_e	e	n/a
465.9705	0.06	931941	keystroke_r	r	n/a
466.1055	0.075	932211	keystroke_r	r	n/a
466.2855	0.09	932571	keystroke_a	a	n/a
466.4505	0.075	932901	keystroke_Key.space	Key.space	n/a
466.7055	0.06	933411	keystroke_e	e	n/a
466.9005	0.105	933801	keystroke_x	x	n/a
467.0065	0.074	934013	keystroke_p	p	n/a
467.1705	0.06	934341	keystroke_e	e	n/a
467.3805	0.12	934761	keystroke_c	c	n/a
467.5905	0.075	935181	keystroke_t	t	n/a
467.7705	0.09	935541	keystroke_a	a	n/a
468.0105	0.045	936021	keystroke_t	t	n/a
468.1905	0.12	936381	keystroke_i	i	n/a
468.2955	0.12	936591	keystroke_o	o	n/a
468.4005	0.09	936801	keystroke_n	n	n/a
469.0455	0.075	938091	keystroke_s	s	n/a
469.8555	0.09	939711	keystroke_Key.enter	Key.enter	n/a
469.9535	17.244	939907	prompt	n/a	pads remarks olympic tramadol\n
470.7405	0.105	941481	keystroke_p	p	n/a
470.8755	0.105	941751	keystroke_a	a	n/a
471.0855	0.06	942171	keystroke_d	d	n/a
471.2355	0.075	942471	keystroke_s	s	n/a
471.3705	0.09	942741	keystroke_Key.space	Key.space	n/a
471.5805	0.09	943161	keystroke_r	r	n/a
471.6255	0.06	943251	keystroke_e	e	n/a
471.7905	0.075	943581	keystroke_m	m	n/a
471.8955	0.06	943791	keystroke_a	a	n/a
472.1655	0.06	944331	keystroke_k	k	n/a
472.3755	0.06	944751	keystroke_r	r	n/a
473.4855	0.06	946971	keystroke_Key.backspace	Key.backspace	n/a
473.6205	0.09	947241	keystroke_Key.backspace	Key.backspace	n/a
474.7615	0.074	949523	keystroke_r	r	n/a
474.9255	0.075	949851	keystroke_k	k	n/a
475.0455	0.075	950091	keystroke_s	s	n/a
475.8855	0.075	951771	keystroke_Key.space	Key.space	n/a
476.3805	0.105	952761	keystroke_o	o	n/a
477.2205	0.105	954441	keystroke_l	l	n/a
478.3005	0.075	956601	keystroke_y	y	n/a
478.9905	0.09	957981	keystroke_m	m	n/a
479.3205	0.09	958641	keystroke_p	p	n/a
479.5755	0.075	959151	keystroke_i	i	n/a
479.8455	0.09	959691	keystroke_c	c	n/a
479.9805	0.09	959961	keystroke_Key.space	Key.space	n/a
480.4605	0.09	960921	keystroke_t	t	n/a
480.6555	0.105	961311	keystroke_r	r	n/a
480.8655	0.06	961731	keystroke_a	a	n/a
483.763	0.0425	967526	keystroke_m	m	n/a
483.9105	0.09	967821	keystroke_a	a	n/a
484.105	0.0755	968210	keystroke_d	d	n/a
484.226	0.0595	968452	keystroke_o	o	n/a
484.4505	0.075	968901	keystroke_l	l	n/a
487.153	0.042	974306	keystroke_Key.enter	Key.enter	n/a
487.2025	7.376	974405	prompt	n/a	installation stronger bang meanwhile\n
488.036	0.074	976072	keystroke_i	i	n/a
488.23	0.09	976460	keystroke_n	n	n/a
488.29	0.12	976580	keystroke_s	s	n/a
488.47	0.105	976940	keystroke_t	t	n/a
488.605	0.09	977210	keystroke_a	a	n/a
488.755	0.075	977510	keystroke_l	l	n/a
488.92	0.09	977840	keystroke_l	l	n/a
489.04	0.15	978080	keystroke_a	a	n/a
489.16	0.075	978320	keystroke_t	t	n/a
489.28	0.195	978560	keystroke_i	i	n/a
489.355	0.165	978710	keystroke_o	o	n/a
489.445	0.15	978890	keystroke_n	n	n/a
489.7	0.075	979400	keystroke_Key.space	Key.space	n/a
490.015	0.09	980030	keystroke_s	s	n/a
490.165	0.075	980330	keystroke_t	t	n/a
490.345	0.06	980690	keystroke_r	r	n/a
490.45	0.09	980900	keystroke_o	o	n/a
490.645	0.075	981290	keystroke_n	n	n/a
490.735	0.09	981470	keystroke_g	g	n/a
490.945	0.06	981890	keystroke_e	e	n/a
490.96	0.105	981920	keystroke_r	r	n/a
491.095	0.135	982190	keystroke_Key.space	Key.space	n/a
491.395	0.06	982790	keystroke_b	b	n/a
491.47	0.105	982940	keystroke_a	a	n/a
491.665	0.075	983330	keystroke_n	n	n/a
491.936	0.059	983872	keystroke_g	g	n/a
492.025	0.105	984050	keystroke_Key.space	Key.space	n/a
492.28	0.09	984560	keystroke_m	m	n/a
492.46	0.06	984920	keystroke_e	e	n/a
492.61	0.075	985220	keystroke_a	a	n/a
492.715	0.075	985430	keystroke_n	n	n/a
493.045	0.075	986090	keystroke_w	w	n/a
493.18	0.09	986360	keystroke_h	h	n/a
493.345	0.09	986690	keystroke_i	i	n/a
493.54	0.09	987080	keystroke_l	l	n/a
493.645	0.046	987290	keystroke_e	e	n/a
494.485	0.09	988970	keystroke_Key.enter	Key.enter	n/a
494.584	10.013	989168	prompt	n/a	conjunction marvel untitled is\n
495.581	0.104	991162	keystroke_c	c	n/a
495.7	0.045	991400	keystroke_o	o	n/a
495.865	0.12	991730	keystroke_n	n	n/a
496.12	0.06	992240	keystroke_j	j	n/a
496.96	0.076	993920	keystroke_u	u	n/a
497.185	0.09	994370	keystroke_n	n	n/a
497.335	0.09	994670	keystroke_c	c	n/a
498.085	0.105	996170	keystroke_t	t	n/a
498.295	0.075	996590	keystroke_i	i	n/a
498.49	0.075	996980	keystroke_o	o	n/a
498.701	0.119	997402	keystroke_n	n	n/a
498.925	0.09	997850	keystroke_Key.space	Key.space	n/a
499.27	0.12	998540	keystroke_m	m	n/a
499.375	0.105	998750	keystroke_a	a	n/a
499.51	0.075	999020	keystroke_r	r	n/a
499.885	0.075	999770	keystroke_v	v	n/a
500.005	0.09	1000010	keystroke_e	e	n/a
500.215	0.075	1000430	keystroke_l	l	n/a
500.395	0.09	1000790	keystroke_Key.space	Key.space	n/a
501.01	0.076	1002020	keystroke_u	u	n/a
501.221	0.104	1002442	keystroke_n	n	n/a
501.386	0.074	1002772	keystroke_t	t	n/a
501.52	0.075	1003040	keystroke_i	i	n/a
501.79	0.075	1003580	keystroke_t	t	n/a
501.895	0.12	1003790	keystroke_l	l	n/a
502.03	0.09	1004060	keystroke_e	e	n/a
503.185	0.075	1006370	keystroke_d	d	n/a
503.335	0.09	1006670	keystroke_Key.space	Key.space	n/a
503.68	0.09	1007360	keystroke_i	i	n/a
503.755	0.075	1007510	keystroke_s	s	n/a
504.52	0.075	1009040	keystroke_Key.enter	Key.enter	n/a
504.6015	10.9905	1009203	prompt	n/a	respectively arthritis intense andy\n
505.331	0.089	1010662	keystroke_r	r	n/a
505.406	0.059	1010812	keystroke_e	e	n/a
505.6	0.075	1011200	keystroke_s	s	n/a
505.69	0.09	1011380	keystroke_p	p	n/a
505.81	0.075	1011620	keystroke_e	e	n/a
506.05	0.181	1012100	keystroke_c	c	n/a
506.201	0.09	1012402	keystroke_t	t	n/a
506.365	0.046	1012730	keystroke_i	i	n/a
506.53	0.076	1013060	keystroke_v	v	n/a
506.62	0.03	1013240	keystroke_e	e	n/a
506.756	0.119	1013512	keystroke_l	l	n/a
506.936	0.12	1013872	keystroke_y	y	n/a
507.115	0.075	1014230	keystroke_Key.space	Key.space	n/a
507.52	0.12	1015040	keystroke_a	a	n/a
507.685	0.106	1015370	keystroke_r	r	n/a
507.925	0.045	1015850	keystroke_t	t	n/a
508.66	0.076	1017320	keystroke_h	h	n/a
508.871	0.074	1017742	keystroke_r	r	n/a
509.005	0.076	1018010	keystroke_i	i	n/a
509.185	0.06	1018370	keystroke_t	t	n/a
509.291	0.059	1018582	keystroke_i	i	n/a
509.41	0.091	1018820	keystroke_s	s	n/a
509.56	0.075	1019120	keystroke_Key.space	Key.space	n/a
509.875	0.075	1019750	keystroke_i	i	n/a
510.055	0.091	1020110	keystroke_n	n	n/a
510.205	0.091	1020410	keystroke_t	t	n/a
510.521	0.045	1021042	keystroke_e	e	n/a
510.656	0.09	1021312	keystroke_n	n	n/a
510.88	0.075	1021760	keystroke_s	s	n/a
511.031	0.075	1022062	keystroke_e	e	n/a
511.135	0.09	1022270	keystroke_Key.space	Key.space	n/a
511.781	0.074	1023562	keystroke_s	s	n/a
512.53	0.105	1025060	keystroke_Key.backspace	Key.backspace	n/a
513.566	0.075	1027132	keystroke_a	a	n/a
513.866	0.09	1027732	keystroke_n	n	n/a
514.211	0.06	1028422	keystroke_d	d	n/a
514.48	0.076	1028960	keystroke_y	y	n/a
515.5	0.0895	1031000	keystroke_Key.enter	Key.enter	n/a
515.597	6.5955	1031194	prompt	n/a	move execute bali visits\n
516.28	0.0895	1032560	keystroke_m	m	n/a
516.4	0.1195	1032800	keystroke_o	o	n/a
516.536	0.0895	1033072	keystroke_v	v	n/a
516.581	0.0885	1033162	keystroke_e	e	n/a
516.7005	0.1045	1033401	keystroke_Key.space	Key.space	n/a
516.8645	0.075	1033729	keystroke_e	e	n/a
517.4195	0.091	1034839	keystroke_x	x	n/a
518.095	0.06	1036190	keystroke_e	e	n/a
518.3795	0.076	1036759	keystroke_c	c	n/a
518.5305	0.0895	1037061	keystroke_u	u	n/a
518.6805	0.104	1037361	keystroke_t	t	n/a
518.8155	0.09	1037631	keystroke_e	e	n/a
518.9945	0.091	1037989	keystroke_Key.space	Key.space	n/a
519.5055	0.09	1039011	keystroke_b	b	n/a
519.6555	0.09	1039311	keystroke_a	a	n/a
519.8645	0.09	1039729	keystroke_l	l	n/a
520.0745	0.136	1040149	keystroke_i	i	n/a
520.1945	0.136	1040389	keystroke_Key.space	Key.space	n/a
520.4945	0.061	1040989	keystroke_v	v	n/a
520.6305	0.089	1041261	keystroke_i	i	n/a
520.7355	0.105	1041471	keystroke_s	s	n/a
520.9155	0.09	1041831	keystroke_i	i	n/a
521.0195	0.076	1042039	keystroke_t	t	n/a
521.1705	0.074	1042341	keystroke_s	s	n/a
522.1005	0.089	1044201	keystroke_Key.enter	Key.enter	n/a
522.198	8.364	1044396	prompt	n/a	appendix chambers addresses planners\n
522.9405	0.075	1045881	keystroke_a	a	n/a
523.1955	0.09	1046391	keystroke_p	p	n/a
523.3455	0.12	1046691	keystroke_p	p	n/a
523.4805	0.075	1046961	keystroke_e	e	n/a
523.6005	0.09	1047201	keystroke_n	n	n/a
523.6905	0.09	1047381	keystroke_d	d	n/a
523.8405	0.059	1047681	keystroke_i	i	n/a
524.0055	0.09	1048011	keystroke_x	x	n/a
524.1255	0.074	1048251	keystroke_Key.space	Key.space	n/a
524.4405	0.075	1048881	keystroke_c	c	n/a
524.5905	0.075	1049181	keystroke_h	h	n/a
524.8155	0.06	1049631	keystroke_a	a	n/a
524.9805	0.09	1049961	keystroke_m	m	n/a
525.2805	0.075	1050561	keystroke_b	b	n/a
525.5355	0.06	1051071	keystroke_e	e	n/a
525.5655	0.09	1051131	keystroke_r	r	n/a
525.8195	0.016	1051639	keystroke_s	s	n/a
525.8655	0.12	1051731	keystroke_Key.space	Key.space	n/a
526.0605	0.09	1052121	keystroke_a	a	n/a
526.2555	0.06	1052511	keystroke_d	d	n/a
526.3905	0.075	1052781	keystroke_d	d	n/a
526.5855	0.105	1053171	keystroke_r	r	n/a
526.7055	0.075	1053411	keystroke_e	e	n/a
527.2305	0.0745	1054461	keystroke_s	s	n/a
527.38	0.09	1054760	keystroke_s	s	n/a
527.62	0.045	1055240	keystroke_e	e	n/a
527.83	0.09	1055660	keystroke_s	s	n/a
527.995	0.12	1055990	keystroke_Key.space	Key.space	n/a
528.25	0.075	1056500	keystroke_p	p	n/a
528.415	0.12	1056830	keystroke_l	l	n/a
528.52	0.075	1057040	keystroke_a	a	n/a
528.685	0.06	1057370	keystroke_n	n	n/a
528.85	0.075	1057700	keystroke_n	n	n/a
529.03	0.12	1058060	keystroke_e	e	n/a
529.105	0.09	1058210	keystroke_r	r	n/a
529.45	0.09	1058900	keystroke_s	s	n/a
530.47	0.09	1060940	keystroke_Key.enter	Key.enter	n/a
530.5705	8.226	1061141	prompt	n/a	plus clicking affiliate thomson\n
531.266	0.119	1062532	keystroke_p	p	n/a
531.475	0.135	1062950	keystroke_l	l	n/a
531.685	0.105	1063370	keystroke_u	u	n/a
531.82	0.09	1063640	keystroke_s	s	n/a
531.955	0.105	1063910	keystroke_Key.space	Key.space	n/a
532.165	0.09	1064330	keystroke_c	c	n/a
532.27	0.105	1064540	keystroke_l	l	n/a
532.48	0.075	1064960	keystroke_i	i	n/a
532.78	0.075	1065560	keystroke_c	c	n/a
532.9	0.075	1065800	keystroke_k	k	n/a
533.095	0.06	1066190	keystroke_i	i	n/a
533.29	0.135	1066580	keystroke_n	n	n/a
533.38	0.075	1066760	keystroke_g	g	n/a
533.501	0.104	1067002	keystroke_Key.space	Key.space	n/a
533.65	0.09	1067300	keystroke_a	a	n/a
533.845	0.06	1067690	keystroke_f	f	n/a
533.995	0.03	1067990	keystroke_f	f	n/a
534.655	0.075	1069310	keystroke_i	i	n/a
534.836	0.119	1069672	keystroke_l	l	n/a
535.12	0.075	1070240	keystroke_i	i	n/a
535.405	0.09	1070810	keystroke_a	a	n/a
535.585	0.075	1071170	keystroke_t	t	n/a
535.735	0.09	1071470	keystroke_e	e	n/a
535.96	0.105	1071920	keystroke_Key.space	Key.space	n/a
536.53	0.075	1073060	keystroke_t	t	n/a
536.665	0.09	1073330	keystroke_h	h	n/a
536.86	0.075	1073720	keystroke_o	o	n/a
537.07	0.075	1074140	keystroke_m	m	n/a
537.235	0.075	1074470	keystroke_s	s	n/a
537.355	0.09	1074710	keystroke_o	o	n/a
537.58	0.06	1075160	keystroke_n	n	n/a
538.705	0.09	1077410	keystroke_Key.enter	Key.enter	n/a
538.801	7.916	1077602	prompt	n/a	press objects cape democracy\n
539.426	0.074	1078852	keystroke_p	p	n/a
539.635	0.076	1079270	keystroke_r	r	n/a
539.695	0.075	1079390	keystroke_e	e	n/a
539.905	0.06	1079810	keystroke_s	s	n/a
540.04	0.0895	1080080	keystroke_s	s	n/a
540.1305	0.1045	1080261	keystroke_Key.space	Key.space	n/a
540.325	0.105	1080650	keystroke_o	o	n/a
540.94	0.0595	1081880	keystroke_b	b	n/a
541.225	0.075	1082450	keystroke_j	j	n/a
541.3295	0.075	1082659	keystroke_e	e	n/a
541.555	0.1195	1083110	keystroke_c	c	n/a
541.6595	0.0905	1083319	keystroke_t	t	n/a
541.9145	0.075	1083829	keystroke_s	s	n/a
542.0345	0.09	1084069	keystroke_Key.space	Key.space	n/a
542.245	0.0745	1084490	keystroke_c	c	n/a
542.3345	0.09	1084669	keystroke_a	a	n/a
542.5145	0.0905	1085029	keystroke_p	p	n/a
542.6495	0.06	1085299	keystroke_e	e	n/a
542.7845	0.09	1085569	keystroke_Key.space	Key.space	n/a
542.9945	0.076	1085989	keystroke_d	d	n/a
543.2045	0.0455	1086409	keystroke_e	e	n/a
543.3545	0.09	1086709	keystroke_m	m	n/a
543.6245	0.015	1087249	keystroke_o	o	n/a
543.7595	0.075	1087519	keystroke_c	c	n/a
543.9545	0.06	1087909	keystroke_r	r	n/a
544.1195	0.06	1088239	keystroke_a	a	n/a
544.5395	0.075	1089079	keystroke_c	c	n/a
544.7945	0.046	1089589	keystroke_y	y	n/a
546.6395	0.075	1093279	keystroke_Key.enter	Key.enter	n/a
546.722	8.02	1093444	prompt	n/a	mattress infrared oils alumni\n
547.5395	0.075	1095079	keystroke_m	m	n/a
547.8245	0.075	1095649	keystroke_a	a	n/a
548.0195	0.061	1096039	keystroke_t	t	n/a
548.1395	0.075	1096279	keystroke_t	t	n/a
548.3195	0.075	1096639	keystroke_r	r	n/a
548.3795	0.076	1096759	keystroke_e	e	n/a
548.6195	0.06	1097239	keystroke_s	s	n/a
548.7545	0.105	1097509	keystroke_s	s	n/a
548.9195	0.06	1097839	keystroke_Key.space	Key.space	n/a
549.4445	0.09	1098889	keystroke_i	i	n/a
549.6695	0.09	1099339	keystroke_n	n	n/a
549.8045	0.105	1099609	keystroke_f	f	n/a
550.0295	0.06	1100059	keystroke_r	r	n/a
550.2545	0.046	1100509	keystroke_a	a	n/a
550.4495	0.091	1100899	keystroke_r	r	n/a
550.5695	0.075	1101139	keystroke_e	e	n/a
550.7645	0.075	1101529	keystroke_d	d	n/a
550.8995	0.135	1101799	keystroke_Key.space	Key.space	n/a
551.4995	0.105	1102999	keystroke_o	o	n/a
551.6955	0.074	1103391	keystroke_i	i	n/a
551.9045	0.105	1103809	keystroke_l	l	n/a
552.0105	0.089	1104021	keystroke_s	s	n/a
552.1295	0.105	1104259	keystroke_Key.space	Key.space	n/a
552.4305	0.059	1104861	keystroke_a	a	n/a
552.5655	0.134	1105131	keystroke_l	l	n/a
552.8195	0.09	1105639	keystroke_u	u	n/a
553.0595	0.091	1106119	keystroke_m	m	n/a
553.2695	0.09	1106539	keystroke_n	n	n/a
553.5095	0.075	1107019	keystroke_i	i	n/a
554.6495	0.09	1109299	keystroke_Key.enter	Key.enter	n/a
554.748	7.3735	1109496	prompt	n/a	crimes statement lobby monaco\n
555.5205	0.074	1111041	keystroke_c	c	n/a
555.7455	0.06	1111491	keystroke_r	r	n/a
555.9695	0.06	1111939	keystroke_i	i	n/a
556.1195	0.105	1112239	keystroke_m	m	n/a
556.1945	0.075	1112389	keystroke_e	e	n/a
556.3895	0.075	1112779	keystroke_s	s	n/a
556.4655	0.149	1112931	keystroke_Key.space	Key.space	n/a
556.8245	0.12	1113649	keystroke_s	s	n/a
557.3805	0.044	1114761	keystroke_t	t	n/a
557.6205	0.089	1115241	keystroke_a	a	n/a
557.7995	0.075	1115599	keystroke_t	t	n/a
557.9505	0.09	1115901	keystroke_e	e	n/a
558.0995	0.105	1116199	keystroke_m	m	n/a
558.1745	0.076	1116349	keystroke_e	e	n/a
558.3245	0.12	1116649	keystroke_n	n	n/a
558.3995	0.075	1116799	keystroke_t	t	n/a
558.5345	0.09	1117069	keystroke_Key.space	Key.space	n/a
558.7745	0.106	1117549	keystroke_l	l	n/a
559.0155	0.075	1118031	keystroke_o	o	n/a
559.1795	0.06	1118359	keystroke_b	b	n/a
559.2995	0.075	1118599	keystroke_b	b	n/a
559.5095	0.15	1119019	keystroke_y	y	n/a
559.6295	0.12	1119259	keystroke_Key.space	Key.space	n/a
560.0645	0.105	1120129	keystroke_m	m	n/a
560.2445	0.105	1120489	keystroke_o	o	n/a
560.4245	0.105	1120849	keystroke_n	n	n/a
560.6055	0.059	1121211	keystroke_a	a	n/a
560.7995	0.075	1121599	keystroke_c	c	n/a
560.9045	0.09	1121809	keystroke_o	o	n/a
562.0295	0.09	1124059	keystroke_Key.enter	Key.enter	n/a
562.1265	9.1605	1124253	prompt	n/a	carlos smile float corp\n
562.8995	0.12	1125799	keystroke_c	c	n/a
563.0505	0.105	1126101	keystroke_a	a	n/a
563.2595	0.12	1126519	keystroke_l	l	n/a
563.3495	0.075	1126699	keystroke_r	r	n/a
563.5295	0.09	1127059	keystroke_o	o	n/a
563.7855	0.06	1127571	keystroke_s	s	n/a
563.9045	0.09	1127809	keystroke_Key.space	Key.space	n/a
565.1645	0.09	1130329	keystroke_Key.backspace	Key.backspace	n/a
565.3745	0.075	1130749	keystroke_Key.backspace	Key.backspace	n/a
565.5555	0.089	1131111	keystroke_Key.backspace	Key.backspace	n/a
565.7495	0.09	1131499	keystroke_Key.backspace	Key.backspace	n/a
566.1695	0.06	1132339	keystroke_Key.backspace	Key.backspace	n/a
566.4395	0.046	1132879	keystroke_r	r	n/a
566.7105	0.104	1133421	keystroke_l	l	n/a
566.9045	0.121	1133809	keystroke_o	o	n/a
566.9795	0.09	1133959	keystroke_s	s	n/a
567.1295	0.09	1134259	keystroke_Key.space	Key.space	n/a
567.3395	0.061	1134679	keystroke_s	s	n/a
567.5355	0.09	1135071	keystroke_m	m	n/a
567.7295	0.06	1135459	keystroke_i	i	n/a
567.9105	0.089	1135821	keystroke_l	l	n/a
568.0295	0.076	1136059	keystroke_e	e	n/a
568.1345	0.105	1136269	keystroke_Key.space	Key.space	n/a
568.5555	0.06	1137111	keystroke_f	f	n/a
568.6305	0.105	1137261	keystroke_l	l	n/a
568.8255	0.105	1137651	keystroke_o	o	n/a
568.9455	0.09	1137891	keystroke_a	a	n/a
569.1255	0.074	1138251	keystroke_t	t	n/a
569.2145	0.12	1138429	keystroke_Key.space	Key.space	n/a
569.5155	0.09	1139031	keystroke_c	c	n/a
569.6195	0.091	1139239	keystroke_o	o	n/a
569.7855	0.06	1139571	keystroke_r	r	n/a
570.0695	0.076	1140139	keystroke_p	p	n/a
571.1945	0.09	1142389	keystroke_Key.enter	Key.enter	n/a
571.2915	6.025	1142583	prompt	n/a	reef golden beans courage\n
572.2895	0.091	1144579	keystroke_r	r	n/a
572.5005	0.045	1145001	keystroke_e	e	n/a
572.6355	0.059	1145271	keystroke_e	e	n/a
572.8305	0.044	1145661	keystroke_f	f	n/a
572.9195	0.091	1145839	keystroke_Key.space	Key.space	n/a
573.1145	0.076	1146229	keystroke_g	g	n/a
573.2055	0.074	1146411	keystroke_o	o	n/a
573.4145	0.105	1146829	keystroke_l	l	n/a
573.4755	0.09	1146951	keystroke_d	d	n/a
573.6555	0.059	1147311	keystroke_e	e	n/a
573.7745	0.15	1147549	keystroke_n	n	n/a
573.8805	0.119	1147761	keystroke_Key.space	Key.space	n/a
574.0745	0.09	1148149	keystroke_b	b	n/a
574.2405	0.075	1148481	keystroke_e	e	n/a
574.3895	0.091	1148779	keystroke_a	a	n/a
574.5255	0.12	1149051	keystroke_n	n	n/a
574.6595	0.076	1149319	keystroke_s	s	n/a
574.7805	0.105	1149561	keystroke_Key.space	Key.space	n/a
575.0355	0.09	1150071	keystroke_c	c	n/a
575.2445	0.12	1150489	keystroke_o	o	n/a
575.3505	0.105	1150701	keystroke_u	u	n/a
575.8905	0.09	1151781	keystroke_r	r	n/a
576.1305	0.075	1152261	keystroke_a	a	n/a
576.2795	0.076	1152559	keystroke_g	g	n/a
576.3855	0.06	1152771	keystroke_e	e	n/a
577.2105	0.104	1154421	keystroke_Key.enter	Key.enter	n/a
577.3215	10.3755	1154643	prompt	n/a	clearly hostel foundations doesn't\n
578.3505	0.075	1156701	keystroke_c	c	n/a
578.4705	0.105	1156941	keystroke_l	l	n/a
578.8305	0.03	1157661	keystroke_e	e	n/a
579.1145	0.076	1158229	keystroke_a	a	n/a
579.1755	0.0895	1158351	keystroke_r	r	n/a
579.444	0.1065	1158888	keystroke_l	l	n/a
579.76	0.105	1159520	keystroke_y	y	n/a
579.879	0.1215	1159758	keystroke_Key.space	Key.space	n/a
581.035	0.0905	1162070	keystroke_h	h	n/a
581.2005	0.1045	1162401	keystroke_o	o	n/a
581.275	0.135	1162550	keystroke_s	s	n/a
581.455	0.105	1162910	keystroke_t	t	n/a
581.59	0.0755	1163180	keystroke_e	e	n/a
581.74	0.12	1163480	keystroke_l	l	n/a
581.905	0.12	1163810	keystroke_Key.space	Key.space	n/a
582.835	0.0605	1165670	keystroke_f	f	n/a
583.045	0.03	1166090	keystroke_o	o	n/a
583.615	0.075	1167230	keystroke_u	u	n/a
583.84	0.09	1167680	keystroke_n	n	n/a
583.975	0.105	1167950	keystroke_d	d	n/a
584.185	0.105	1168370	keystroke_a	a	n/a
584.335	0.075	1168670	keystroke_t	t	n/a
584.44	0.195	1168880	keystroke_i	i	n/a
584.545	0.15	1169090	keystroke_o	o	n/a
584.62	0.12	1169240	keystroke_n	n	n/a
584.8	0.09	1169600	keystroke_s	s	n/a
584.905	0.12	1169810	keystroke_Key.space	Key.space	n/a
585.1	0.09	1170200	keystroke_d	d	n/a
585.205	0.105	1170410	keystroke_o	o	n/a
585.505	0.075	1171010	keystroke_e	e	n/a
585.715	0.075	1171430	keystroke_s	s	n/a
585.88	0.075	1171760	keystroke_n	n	n/a
586.75	0.105	1173500	keystroke_'	'	n/a
586.87	0.075	1173740	keystroke_t	t	n/a
587.62	0.075	1175240	keystroke_Key.enter	Key.enter	n/a
587.707	6.2145	1175414	prompt	n/a	scout modelling am eight\n
588.37	0.075	1176740	keystroke_s	s	n/a
588.58	0.09	1177160	keystroke_c	c	n/a
588.805	0.03	1177610	keystroke_o	o	n/a
589.3	0.06	1178600	keystroke_u	u	n/a
589.525	0.06	1179050	keystroke_t	t	n/a
589.66	0.075	1179320	keystroke_Key.space	Key.space	n/a
589.87	0.075	1179740	keystroke_m	m	n/a
590.47	0.09	1180940	keystroke_o	o	n/a
590.68	0.075	1181360	keystroke_d	d	n/a
590.815	0.075	1181630	keystroke_e	e	n/a
590.95	0.09	1181900	keystroke_l	l	n/a
591.13	0.09	1182260	keystroke_l	l	n/a
591.355	0.06	1182710	keystroke_i	i	n/a
591.535	0.165	1183070	keystroke_n	n	n/a
591.655	0.06	1183310	keystroke_g	g	n/a
591.76	0.09	1183520	keystroke_Key.space	Key.space	n/a
591.895	0.06	1183790	keystroke_a	a	n/a
592	0.12	1184000	keystroke_m	m	n/a
592.15	0.15	1184300	keystroke_Key.space	Key.space	n/a
592.315	0.045	1184630	keystroke_e	e	n/a
592.435	0.075	1184870	keystroke_i	i	n/a
592.57	0.075	1185140	keystroke_g	g	n/a
592.705	0.09	1185410	keystroke_h	h	n/a
592.78	0.06	1185560	keystroke_t	t	n/a
593.815	0.105	1187630	keystroke_Key.enter	Key.enter	n/a
593.926	9.7455	1187852	prompt	n/a	lexmark contracts ctrl emerging\n
594.655	0.135	1189310	keystroke_l	l	n/a
594.791	0.059	1189582	keystroke_e	e	n/a
595.03	0.09	1190060	keystroke_x	x	n/a
595.225	0.075	1190450	keystroke_m	m	n/a
595.345	0.09	1190690	keystroke_a	a	n/a
595.63	0.06	1191260	keystroke_r	r	n/a
595.765	0.09	1191530	keystroke_k	k	n/a
596.26	0.105	1192520	keystroke_Key.space	Key.space	n/a
596.455	0.105	1192910	keystroke_c	c	n/a
596.575	0.09	1193150	keystroke_o	o	n/a
596.785	0.105	1193570	keystroke_n	n	n/a
597.58	0.09	1195160	keystroke_t	t	n/a
597.76	0.105	1195520	keystroke_r	r	n/a
597.895	0.105	1195790	keystroke_a	a	n/a
598.105	0.12	1196210	keystroke_c	c	n/a
598.27	0.09	1196540	keystroke_t	t	n/a
598.48	0.075	1196960	keystroke_s	s	n/a
599.05	0.09	1198100	keystroke_Key.space	Key.space	n/a
599.725	0.12	1199450	keystroke_c	c	n/a
599.95	0.045	1199900	keystroke_t	t	n/a
600.16	0.045	1200320	keystroke_r	r	n/a
600.355	0.09	1200710	keystroke_l	l	n/a
600.73	0.105	1201460	keystroke_Key.space	Key.space	n/a
601	0.075	1202000	keystroke_e	e	n/a
601.135	0.09	1202270	keystroke_m	m	n/a
601.39	0.105	1202780	keystroke_e	e	n/a
601.54	0.09	1203080	keystroke_r	r	n/a
601.795	0.075	1203590	keystroke_g	g	n/a
601.915	0.075	1203830	keystroke_i	i	n/a
602.095	0.09	1204190	keystroke_n	n	n/a
602.215	0.045	1204430	keystroke_g	g	n/a
603.595	0.075	1207190	keystroke_Key.enter	Key.enter	n/a
603.677	7.165	1207354	prompt	n/a	bang matters indiana routes\n
604.795	0.075	1209590	keystroke_b	b	n/a
605.005	0.075	1210010	keystroke_a	a	n/a
605.155	0.105	1210310	keystroke_n	n	n/a
605.275	0.075	1210550	keystroke_d	d	n/a
605.38	0.105	1210760	keystroke_Key.space	Key.space	n/a
605.56	0.105	1211120	keystroke_m	m	n/a
605.65	0.075	1211300	keystroke_a	a	n/a
605.86	0.06	1211720	keystroke_t	t	n/a
605.98	0.075	1211960	keystroke_t	t	n/a
606.145	0.075	1212290	keystroke_e	e	n/a
606.19	0.105	1212380	keystroke_r	r	n/a
606.415	0.075	1212830	keystroke_s	s	n/a
606.535	0.12	1213070	keystroke_Key.space	Key.space	n/a
606.88	0.075	1213760	keystroke_i	i	n/a
607.06	0.12	1214120	keystroke_n	n	n/a
607.39	0.09	1214780	keystroke_d	d	n/a
607.57	0.06	1215140	keystroke_i	i	n/a
607.69	0.09	1215380	keystroke_a	a	n/a
607.885	0.045	1215770	keystroke_n	n	n/a
607.96	0.105	1215920	keystroke_a	a	n/a
608.17	0.06	1216340	keystroke_Key.space	Key.space	n/a
608.47	0.06	1216940	keystroke_r	r	n/a
608.59	0.075	1217180	keystroke_o	o	n/a
608.635	0.09	1217270	keystroke_u	u	n/a
608.95	0.045	1217900	keystroke_t	t	n/a
609.04	0.09	1218080	keystroke_e	e	n/a
609.28	0.075	1218560	keystroke_s	s	n/a
610.765	0.075	1221530	keystroke_Key.enter	Key.enter	n/a
610.8485	10.0135	1221697	prompt	n/a	ministry namespace wheels carmen\n
612.01	0.12	1224020	keystroke_h	h	n/a
613.5395	0.075	1227079	keystroke_Key.backspace	Key.backspace	n/a
614.4695	0.091	1228939	keystroke_m	m	n/a
614.5895	0.091	1229179	keystroke_i	i	n/a
614.7705	0.089	1229541	keystroke_n	n	n/a
614.8905	0.104	1229781	keystroke_i	i	n/a
615.0255	0.179	1230051	keystroke_s	s	n/a
615.2495	0.031	1230499	keystroke_t	t	n/a
615.4005	0.059	1230801	keystroke_r	r	n/a
615.6695	0.105	1231339	keystroke_y	y	n/a
615.8195	0.105	1231639	keystroke_Key.space	Key.space	n/a
616.2245	0.091	1232449	keystroke_n	n	n/a
616.3445	0.075	1232689	keystroke_a	a	n/a
616.4645	0.106	1232929	keystroke_m	m	n/a
616.5705	0.074	1233141	keystroke_e	e	n/a
616.8395	0.091	1233679	keystroke_s	s	n/a
617.0195	0.09	1234039	keystroke_p	p	n/a
617.1255	0.075	1234251	keystroke_a	a	n/a
617.3195	0.091	1234639	keystroke_c	c	n/a
617.5005	0.06	1235001	keystroke_e	e	n/a
617.6195	0.09	1235239	keystroke_Key.space	Key.space	n/a
617.8905	0.075	1235781	keystroke_w	w	n/a
618.0405	0.074	1236081	keystroke_h	h	n/a
618.1605	0.06	1236321	keystroke_e	e	n/a
618.3105	0.075	1236621	keystroke_e	e	n/a
618.4305	0.104	1236861	keystroke_l	l	n/a
618.5505	0.075	1237101	keystroke_s	s	n/a
618.6545	0.09	1237309	keystroke_Key.space	Key.space	n/a
619.2095	0.091	1238419	keystroke_c	c	n/a
619.3755	0.134	1238751	keystroke_a	a	n/a
619.4955	0.074	1238991	keystroke_r	r	n/a
619.6905	0.09	1239381	keystroke_m	m	n/a
619.7945	0.076	1239589	keystroke_e	e	n/a
620.0655	0.015	1240131	keystroke_n	n	n/a
620.7695	0.091	1241539	keystroke_Key.enter	Key.enter	n/a
620.87	13.3875	1241740	prompt	n/a	agents demo determination copies\n
621.7895	0.075	1243579	keystroke_a	a	n/a
621.9555	0.075	1243911	keystroke_g	g	n/a
622.0755	0.089	1244151	keystroke_e	e	n/a
622.2105	0.105	1244421	keystroke_n	n	n/a
622.3305	0.075	1244661	keystroke_t	t	n/a
622.4355	0.075	1244871	keystroke_s	s	n/a
623.0945	0.091	1246189	keystroke_Key.space	Key.space	n/a
623.3355	0.09	1246671	keystroke_d	d	n/a
623.4855	0.059	1246971	keystroke_e	e	n/a
623.7105	0.105	1247421	keystroke_m	m	n/a
624.8505	0.134	1249701	keystroke_o	o	n/a
625.7805	0.075	1251561	keystroke_Key.space	Key.space	n/a
626.89	0.0745	1253780	keystroke_Key.backspace	Key.backspace	n/a
627.4905	0.074	1254981	keystroke_Key.space	Key.space	n/a
627.7605	0.075	1255521	keystroke_d	d	n/a
627.9105	0.059	1255821	keystroke_e	e	n/a
628.2105	0.075	1256421	keystroke_t	t	n/a
628.3445	0.075	1256689	keystroke_e	e	n/a
628.4055	0.075	1256811	keystroke_r	r	n/a
628.7355	0.105	1257471	keystroke_m	m	n/a
628.8705	0.09	1257741	keystroke_i	i	n/a
629.0055	0.12	1258011	keystroke_n	n	n/a
629.59	0.09	1259180	keystroke_a	a	n/a
629.785	0.074	1259570	keystroke_t	t	n/a
629.92	0.1205	1259840	keystroke_i	i	n/a
630.1605	0.0745	1260321	keystroke_o	o	n/a
630.369	0.091	1260738	keystroke_n	n	n/a
630.55	0.0905	1261100	keystroke_Key.space	Key.space	n/a
631.36	0.075	1262720	keystroke_c	c	n/a
631.48	0.0905	1262960	keystroke_o	o	n/a
631.765	0.09	1263530	keystroke_p	p	n/a
632.335	0.06	1264670	keystroke_i	i	n/a
632.53	0.0605	1265060	keystroke_e	e	n/a
632.995	0.075	1265990	keystroke_s	s	n/a
634.18	0.075	1268360	keystroke_Key.enter	Key.enter	n/a
634.262	17.41	1268524	prompt	n/a	contract flashing bell therapy\n
635.44	0.09	1270880	keystroke_c	c	n/a
635.59	0.09	1271180	keystroke_o	o	n/a
635.77	0.105	1271540	keystroke_n	n	n/a
635.89	0.105	1271780	keystroke_t	t	n/a
636.085	0.075	1272170	keystroke_r	r	n/a
636.19	0.075	1272380	keystroke_a	a	n/a
636.37	0.09	1272740	keystroke_c	c	n/a
636.55	0.09	1273100	keystroke_t	t	n/a
636.685	0.075	1273370	keystroke_Key.space	Key.space	n/a
636.865	0.075	1273730	keystroke_f	f	n/a
636.88	0.03	1273760	keystroke_g	g	n/a
636.955	0.12	1273910	keystroke_l	l	n/a
637.075	0.06	1274150	keystroke_a	a	n/a
637.27	0.075	1274540	keystroke_s	s	n/a
637.405	0.06	1274810	keystroke_i	i	n/a
638.395	0.09	1276790	keystroke_Key.backspace	Key.backspace	n/a
638.575	0.09	1277150	keystroke_Key.backspace	Key.backspace	n/a
638.785	0.075	1277570	keystroke_Key.backspace	Key.backspace	n/a
638.965	0.075	1277930	keystroke_Key.backspace	Key.backspace	n/a
639.16	0.075	1278320	keystroke_Key.backspace	Key.backspace	n/a
639.655	0.195	1279310	keystroke_l	l	n/a
639.76	0.06	1279520	keystroke_a	a	n/a
640.015	0.075	1280030	keystroke_s	s	n/a
640.165	0.075	1280330	keystroke_h	h	n/a
640.345	0.06	1280690	keystroke_i	i	n/a
640.51	0.075	1281020	keystroke_n	n	n/a
640.615	0.06	1281230	keystroke_g	g	n/a
642.235	0.09	1284470	keystroke_Key.space	Key.space	n/a
642.76	0.09	1285520	keystroke_b	b	n/a
642.985	0.06	1285970	keystroke_e	e	n/a
643.12	0.075	1286240	keystroke_l	l	n/a
643.27	0.12	1286540	keystroke_l	l	n/a
643.465	0.12	1286930	keystroke_Key.space	Key.space	n/a
643.945	0.075	1287890	keystroke_t	t	n/a
644.05	0.09	1288100	keystroke_h	h	n/a
644.245	0.105	1288490	keystroke_e	e	n/a
644.44	0.075	1288880	keystroke_r	r	n/a
644.59	0.075	1289180	keystroke_a	a	n/a
644.74	0.09	1289480	keystroke_p	p	n/a
645.055	0.06	1290110	keystroke_y	y	n/a
651.658	0.012	1303316	keystroke_Key.enter	Key.enter	n/a
651.678	7.7635	1303356	prompt	n/a	teeth january updated cheat\n
652.465	0.135	1304930	keystroke_t	t	n/a
652.75	0.03	1305500	keystroke_e	e	n/a
652.855	0.075	1305710	keystroke_e	e	n/a
653.2	0.06	1306400	keystroke_t	t	n/a
653.29	0.12	1306580	keystroke_h	h	n/a
653.44	0.105	1306880	keystroke_Key.space	Key.space	n/a
653.71	0.09	1307420	keystroke_j	j	n/a
653.815	0.075	1307630	keystroke_a	a	n/a
653.92	0.09	1307840	keystroke_n	n	n/a
654.145	0.06	1308290	keystroke_u	u	n/a
654.22	0.075	1308440	keystroke_a	a	n/a
654.37	0.06	1308740	keystroke_r	r	n/a
654.61	0.09	1309220	keystroke_y	y	n/a
654.67	0.12	1309340	keystroke_Key.space	Key.space	n/a
654.91	0.105	1309820	keystroke_u	u	n/a
656.44	0.075	1312880	keystroke_p	p	n/a
656.71	0.075	1313420	keystroke_d	d	n/a
656.95	0.105	1313900	keystroke_a	a	n/a
657.04	0.075	1314080	keystroke_t	t	n/a
657.13	0.06	1314260	keystroke_e	e	n/a
657.31	0.075	1314620	keystroke_d	d	n/a
657.415	0.09	1314830	keystroke_Key.space	Key.space	n/a
657.76	0.12	1315520	keystroke_c	c	n/a
657.925	0.09	1315850	keystroke_h	h	n/a
658.06	0.12	1316120	keystroke_e	e	n/a
658.45	0.12	1316900	keystroke_a	a	n/a
658.615	0.09	1317230	keystroke_t	t	n/a
659.35	0.09	1318700	keystroke_Key.enter	Key.enter	n/a
659.4475	9.204	1318895	prompt	n/a	sticks skills quarter auburn\n
660.04	0.075	1320080	keystroke_s	s	n/a
660.22	0.075	1320440	keystroke_t	t	n/a
660.355	0.075	1320710	keystroke_i	i	n/a
660.475	0.09	1320950	keystroke_c	c	n/a
660.58	0.09	1321160	keystroke_k	k	n/a
660.73	0.1045	1321460	keystroke_s	s	n/a
660.9095	0.06	1321819	keystroke_Key.space	Key.space	n/a
661.1795	0.075	1322359	keystroke_s	s	n/a
661.3445	0.09	1322689	keystroke_k	k	n/a
661.5395	0.075	1323079	keystroke_i	i	n/a
661.7495	0.075	1323499	keystroke_l	l	n/a
661.8995	0.12	1323799	keystroke_l	l	n/a
662.0045	0.075	1324009	keystroke_s	s	n/a
662.1245	0.105	1324249	keystroke_Key.space	Key.space	n/a
662.5595	0.06	1325119	keystroke_q	q	n/a
662.7095	0.075	1325419	keystroke_u	u	n/a
662.9045	0.135	1325809	keystroke_a	a	n/a
663.0245	0.09	1326049	keystroke_r	r	n/a
663.3095	0.06	1326619	keystroke_t	t	n/a
663.4595	0.075	1326919	keystroke_e	e	n/a
663.5045	0.09	1327009	keystroke_r	r	n/a
663.9695	0.09	1327939	keystroke_Key.space	Key.space	n/a
664.5245	0.09	1329049	keystroke_a	a	n/a
664.7195	0.09	1329439	keystroke_u	u	n/a
664.9295	0.06	1329859	keystroke_v	v	n/a
664.9445	0.046	1329889	keystroke_b	b	n/a
665.1095	0.075	1330219	keystroke_u	u	n/a
665.2295	0.03	1330459	keystroke_r	r	n/a
665.9945	0.09	1331989	keystroke_Key.backspace	Key.backspace	n/a
666.1895	0.075	1332379	keystroke_Key.backspace	Key.backspace	n/a
666.3695	0.075	1332739	keystroke_Key.backspace	Key.backspace	n/a
666.5495	0.09	1333099	keystroke_Key.backspace	Key.backspace	n/a
666.9545	0.075	1333909	keystroke_b	b	n/a
667.4195	0.09	1334839	keystroke_u	u	n/a
667.4945	0.075	1334989	keystroke_r	r	n/a
667.7345	0.075	1335469	keystroke_n	n	n/a
668.5595	0.09	1337119	keystroke_Key.enter	Key.enter	n/a
668.656	12.191	1337312	prompt	n/a	bernard integration casio argument\n
669.7445	0.09	1339489	keystroke_b	b	n/a
669.9995	0.09	1339999	keystroke_e	e	n/a
670.0595	0.06	1340119	keystroke_r	r	n/a
670.3745	0.09	1340749	keystroke_n	n	n/a
670.4495	0.075	1340899	keystroke_a	a	n/a
670.7195	0.075	1341439	keystroke_r	r	n/a
670.9295	0.075	1341859	keystroke_d	d	n/a
671.0345	0.09	1342069	keystroke_Key.space	Key.space	n/a
673.6925	0.001	1347385	keystroke_i	i	n/a
673.8095	0.09	1347619	keystroke_n	n	n/a
674.0945	0.075	1348189	keystroke_t	t	n/a
674.3195	0.105	1348639	keystroke_e	e	n/a
674.6645	0.075	1349329	keystroke_g	g	n/a
674.8895	0.075	1349779	keystroke_r	r	n/a
675.0395	0.12	1350079	keystroke_a	a	n/a
675.2195	0.075	1350439	keystroke_t	t	n/a
675.4145	0.105	1350829	keystroke_i	i	n/a
675.6395	0.12	1351279	keystroke_o	o	n/a
675.8495	0.135	1351699	keystroke_n	n	n/a
675.9395	0.12	1351879	keystroke_Key.space	Key.space	n/a
