onset	duration	sample	value	key	prompt_text
3.0955	9.114	6191	prompt	n/a	the quick brown fox jumps over a lazy dog\n
4.259	0.057	8518	keystroke_t	t	n/a
4.286	0.0755	8572	keystroke_h	h	n/a
4.3465	0.225	8693	keystroke_e	e	n/a
4.5265	0.164	9053	keystroke_Key.space	Key.space	n/a
4.7365	0.15	9473	keystroke_q	q	n/a
4.9315	0.105	9863	keystroke_u	u	n/a
5.0815	0.09	10163	keystroke_i	i	n/a
5.2765	0.12	10553	keystroke_c	c	n/a
5.3965	0.075	10793	keystroke_k	k	n/a
5.5165	0.1045	11033	keystroke_Key.space	Key.space	n/a
5.7105	0.075	11421	keystroke_b	b	n/a
5.9055	0.12	11811	keystroke_r	r	n/a
5.9955	0.075	11991	keystroke_o	o	n/a
6.1445	0.09	12289	keystroke_w	w	n/a
6.2645	0.045	12529	keystroke_n	n	n/a
6.3395	0.1045	12679	keystroke_Key.space	Key.space	n/a
6.474	0.136	12948	keystroke_f	f	n/a
6.594	0.092	13188	keystroke_o	o	n/a
6.731	0.12	13462	keystroke_x	x	n/a
6.866	0.12	13732	keystroke_Key.space	Key.space	n/a
7.1365	0.1055	14273	keystroke_j	j	n/a
8.2165	0.06	16433	keystroke_u	u	n/a
8.442	0.09	16884	keystroke_m	m	n/a
8.712	0.105	17424	keystroke_p	p	n/a
8.832	0.1045	17664	keystroke_s	s	n/a
8.922	0.12	17844	keystroke_Key.space	Key.space	n/a
9.072	0.06	18144	keystroke_o	o	n/a
9.147	0.09	18294	keystroke_v	v	n/a
9.3565	0.135	18713	keystroke_e	e	n/a
9.4465	0.135	18893	keystroke_r	r	n/a
9.5965	0.12	19193	keystroke_Key.space	Key.space	n/a
9.6865	0.1355	19373	keystroke_a	a	n/a
9.807	0.1195	19614	keystroke_Key.space	Key.space	n/a
9.9415	0.0905	19883	keystroke_l	l	n/a
10.3915	0.105	20783	keystroke_a	a	n/a
10.6015	0.105	21203	keystroke_z	z	n/a
10.7665	0.075	21533	keystroke_y	y	n/a
11.5025	0.0745	23005	keystroke_Key.space	Key.space	n/a
11.712	0.0905	23424	keystroke_d	d	n/a
11.8175	0.105	23635	keystroke_o	o	n/a
11.9375	0.089	23875	keystroke_g	g	n/a
12.1625	0.044	24325	keystroke_Key.enter	Key.enter	n/a
12.2135	8.9655	24427	prompt	n/a	saudi pretty degree artwork\n
12.9115	0.105	25823	keystroke_s	s	n/a
13.0465	0.09	26093	keystroke_a	a	n/a
13.2715	0.045	26543	keystroke_u	u	n/a
13.6165	0.0755	27233	keystroke_s	s	n/a
13.782	0.045	27564	keystroke_i	i	n/a
14.2465	0.06	28493	keystroke_Key.backspace	Key.backspace	n/a
14.6375	0.06	29275	keystroke_Key.backspace	Key.backspace	n/a
14.8025	0.075	29605	keystroke_d	d	n/a
14.9525	0.075	29905	keystroke_i	i	n/a
15.1915	0.045	30383	keystroke_Key.space	Key.space	n/a
15.432	0.09	30864	keystroke_p	p	n/a
15.5825	0.1045	31165	keystroke_r	r	n/a
15.6725	0.1045	31345	keystroke_e	e	n/a
16.0465	0.031	32093	keystroke_t	t	n/a
16.2575	0.09	32515	keystroke_t	t	n/a
16.737	0.075	33474	keystroke_y	y	n/a
16.887	0.09	33774	keystroke_Key.space	Key.space	n/a
17.022	0.0755	34044	keystroke_d	d	n/a
17.2325	0.075	34465	keystroke_e	e	n/a
18.147	0.0605	36294	keystroke_g	g	n/a
18.3865	0.151	36773	keystroke_r	r	n/a
18.5525	0.089	37105	keystroke_e	e	n/a
18.7175	0.105	37435	keystroke_e	e	n/a
19.0015	0.09	38003	keystroke_Key.space	Key.space	n/a
19.4375	0.134	38875	keystroke_a	a	n/a
19.6175	0.09	39235	keystroke_r	r	n/a
19.842	0.075	39684	keystroke_t	t	n/a
20.0375	0.09	40075	keystroke_w	w	n/a
20.1575	0.105	40315	keystroke_o	o	n/a
20.277	0.09	40554	keystroke_r	r	n/a
20.382	0.075	40764	keystroke_k	k	n/a
21.1175	0.06	42235	keystroke_Key.enter	Key.enter	n/a
21.1825	8.3515	42365	prompt	n/a	mounts harvey toys graphical\n
21.8225	0.075	43645	keystroke_m	m	n/a
21.9125	0.12	43825	keystroke_o	o	n/a
22.0175	0.0595	44035	keystroke_u	u	n/a
22.197	0.075	44394	keystroke_n	n	n/a
22.332	0.09	44664	keystroke_t	t	n/a
22.557	0.12	45114	keystroke_s	s	n/a
22.692	0.12	45384	keystroke_Key.space	Key.space	n/a
23.022	0.06	46044	keystroke_h	h	n/a
23.172	0.165	46344	keystroke_a	a	n/a
23.338	0.089	46676	keystroke_r	r	n/a
23.5925	0.075	47185	keystroke_v	v	n/a
23.7875	0.195	47575	keystroke_e	e	n/a
24.2525	0.045	48505	keystroke_y	y	n/a
24.8065	0.15	49613	keystroke_Key.space	Key.space	n/a
25.0765	0.091	50153	keystroke_t	t	n/a
25.182	0.0895	50364	keystroke_o	o	n/a
25.392	0.0755	50784	keystroke_y	y	n/a
26.307	0.0455	52614	keystroke_s	s	n/a
27.1025	0.105	54205	keystroke_Key.space	Key.space	n/a
27.4625	0.074	54925	keystroke_g	g	n/a
27.6865	0.15	55373	keystroke_r	r	n/a
27.8375	0.164	55675	keystroke_a	a	n/a
28.4525	0.089	56905	keystroke_p	p	n/a
28.6475	0.059	57295	keystroke_h	h	n/a
28.7815	0.075	57563	keystroke_i	i	n/a
28.992	0.15	57984	keystroke_c	c	n/a
29.127	0.15	58254	keystroke_a	a	n/a
29.232	0.09	58464	keystroke_l	l	n/a
29.4715	0.06	58943	keystroke_Key.enter	Key.enter	n/a
29.537	6.222	59074	prompt	n/a	seats beef incomplete employ\n
30.2225	0.045	60445	keystroke_s	s	n/a
30.3575	0.165	60715	keystroke_e	e	n/a
30.4465	0.165	60893	keystroke_a	a	n/a
30.6275	0.105	61255	keystroke_t	t	n/a
30.8525	0.12	61705	keystroke_s	s	n/a
30.9415	0.151	61883	keystroke_Key.space	Key.space	n/a
31.1975	0.119	62395	keystroke_b	b	n/a
31.4525	0.089	62905	keystroke_e	e	n/a
31.617	0.12	63234	keystroke_e	e	n/a
31.812	0.15	63624	keystroke_f	f	n/a
31.977	0.12	63954	keystroke_Key.space	Key.space	n/a
32.127	0.075	64254	keystroke_i	i	n/a
32.607	0.06	65214	keystroke_n	n	n/a
32.952	0.165	65904	keystroke_c	c	n/a
33.042	0.195	66084	keystroke_o	o	n/a
33.207	0.09	66414	keystroke_m	m	n/a
33.372	0.105	66744	keystroke_p	p	n/a
33.5525	0.1195	67105	keystroke_l	l	n/a
33.657	0.12	67314	keystroke_e	e	n/a
33.807	0.15	67614	keystroke_t	t	n/a
33.927	0.195	67854	keystroke_e	e	n/a
34.107	0.12	68214	keystroke_Key.space	Key.space	n/a
34.257	0.12	68514	keystroke_e	e	n/a
34.407	0.105	68814	keystroke_m	m	n/a
34.632	0.06	69264	keystroke_p	p	n/a
34.962	0.105	69924	keystroke_l	l	n/a
35.2925	0.09	70585	keystroke_o	o	n/a
35.4275	0.075	70855	keystroke_y	y	n/a
35.727	0.03	71454	keystroke_Key.enter	Key.enter	n/a
35.763	16.286	71526	prompt	n/a	lounge updated sage shelf\n
36.372	0.135	72744	keystroke_o	o	n/a
36.552	0.075	73104	keystroke_u	u	n/a
36.792	0.06	73584	keystroke_n	n	n/a
36.972	0.165	73944	keystroke_a	a	n/a
37.152	0.045	74304	keystroke_g	g	n/a
37.977	0.0605	75954	keystroke_Key.backspace	Key.backspace	n/a
38.3375	0.045	76675	keystroke_Key.backspace	Key.backspace	n/a
38.7725	0.045	77545	keystroke_Key.backspace	Key.backspace	n/a
39.2675	0.045	78535	keystroke_Key.backspace	Key.backspace	n/a
39.6275	0.045	79255	keystroke_Key.backspace	Key.backspace	n/a
40.3625	0.045	80725	keystroke_l	l	n/a
40.5725	0.075	81145	keystroke_o	o	n/a
40.7825	0.045	81565	keystroke_u	u	n/a
40.9625	0.06	81925	keystroke_n	n	n/a
41.0825	0.165	82165	keystroke_a	a	n/a
41.2325	0.135	82465	keystroke_g	g	n/a
41.3825	0.15	82765	keystroke_e	e	n/a
41.5625	0.135	83125	keystroke_Key.space	Key.space	n/a
42.1325	0.015	84265	keystroke_u	u	n/a
42.1625	0.075	84325	keystroke_n	n	n/a
45.5245	0	91049	keystroke_Key.backspace	Key.backspace	n/a
45.942	0.075	91884	keystroke_Key.backspace	Key.backspace	n/a
46.362	0.075	92724	keystroke_Key.backspace	Key.backspace	n/a
46.797	0.06	93594	keystroke_Key.backspace	Key.backspace	n/a
47.277	0.075	94554	keystroke_Key.backspace	Key.backspace	n/a
47.6075	0.06	95215	keystroke_Key.backspace	Key.backspace	n/a
47.7275	0.09	95455	keystroke_g	g	n/a
47.8925	0.1645	95785	keystroke_e	e	n/a
48.042	0.135	96084	keystroke_Key.space	Key.space	n/a
48.387	0.06	96774	keystroke_u	u	n/a
48.552	0.06	97104	keystroke_n	n	n/a
48.897	0.1355	97794	keystroke_d	d	n/a
49.0475	0.105	98095	keystroke_a	a	n/a
49.1675	0.15	98335	keystroke_t	t	n/a
49.2725	0.1195	98545	keystroke_e	e	n/a
49.512	0.15	99024	keystroke_d	d	n/a
49.632	0.135	99264	keystroke_Key.space	Key.space	n/a
49.797	0.135	99594	keystroke_s	s	n/a
49.933	0.119	99866	keystroke_a	a	n/a
50.172	0.075	100344	keystroke_g	g	n/a
50.367	0.12	100734	keystroke_e	e	n/a
50.502	0.135	101004	keystroke_Key.space	Key.space	n/a
50.697	0.1055	101394	keystroke_s	s	n/a
50.847	0.06	101694	keystroke_h	h	n/a
50.9525	0.0895	101905	keystroke_e	e	n/a
51.0575	0.1195	102115	keystroke_l	l	n/a
51.537	0.09	103074	keystroke_f	f	n/a
51.987	0.0605	103974	keystroke_Key.enter	Key.enter	n/a
52.054	6.055	104108	prompt	n/a	tied rest locking creek\n
52.722	0.075	105444	keystroke_t	t	n/a
52.842	0.09	105684	keystroke_i	i	n/a
52.917	0.105	105834	keystroke_e	e	n/a
53.142	0.135	106284	keystroke_d	d	n/a
53.262	0.135	106524	keystroke_Key.space	Key.space	n/a
53.712	0.135	107424	keystroke_r	r	n/a
53.802	0.195	107604	keystroke_e	e	n/a
53.967	0.165	107934	keystroke_s	s	n/a
54.102	0.165	108204	keystroke_t	t	n/a
54.237	0.18	108474	keystroke_Key.space	Key.space	n/a
54.357	0.12	108714	keystroke_l	l	n/a
54.462	0.15	108924	keystroke_a	a	n/a
54.747	0.075	109494	keystroke_k	k	n/a
55.362	0.1955	110724	keystroke_Key.backspace	Key.backspace	n/a
55.7525	0.0595	111505	keystroke_Key.backspace	Key.backspace	n/a
56.0525	0.09	112105	keystroke_o	o	n/a
56.2475	0.105	112495	keystroke_c	c	n/a
56.4275	0.075	112855	keystroke_k	k	n/a
56.5925	0.06	113185	keystroke_i	i	n/a
56.7725	0.075	113545	keystroke_n	n	n/a
56.8025	0.12	113605	keystroke_g	g	n/a
56.9225	0.135	113845	keystroke_Key.space	Key.space	n/a
57.1175	0.135	114235	keystroke_c	c	n/a
57.4025	0.12	114805	keystroke_r	r	n/a
57.4925	0.09	114985	keystroke_e	e	n/a
57.6425	0.075	115285	keystroke_e	e	n/a
57.7925	0.105	115585	keystroke_k	k	n/a
58.0475	0.06	116095	keystroke_Key.enter	Key.enter	n/a
58.1125	5.5615	116225	prompt	n/a	mailto doesn't limit can\n
58.722	0.105	117444	keystroke_m	m	n/a
58.857	0.105	117714	keystroke_a	a	n/a
59.5775	0.075	119155	keystroke_i	i	n/a
59.7575	0.09	119515	keystroke_l	l	n/a
59.9675	0.075	119935	keystroke_t	t	n/a
60.0725	0.075	120145	keystroke_o	o	n/a
60.2225	0.1495	120445	keystroke_Key.space	Key.space	n/a
60.417	0.09	120834	keystroke_d	d	n/a
60.597	0.09	121194	keystroke_o	o	n/a
60.672	0.15	121344	keystroke_e	e	n/a
60.837	0.1055	121674	keystroke_s	s	n/a
61.0475	0.06	122095	keystroke_n	n	n/a
61.6775	0.03	123355	keystroke_'	'	n/a
61.6925	0.105	123385	keystroke_t	t	n/a
61.7675	0.15	123535	keystroke_Key.space	Key.space	n/a
61.9325	0.075	123865	keystroke_l	l	n/a
62.0975	0.045	124195	keystroke_i	i	n/a
62.3525	0.06	124705	keystroke_m	m	n/a
62.4875	0.075	124975	keystroke_i	i	n/a
62.6225	0.15	125245	keystroke_t	t	n/a
62.7575	0.135	125515	keystroke_Key.space	Key.space	n/a
62.967	0.15	125934	keystroke_c	c	n/a
63.102	0.12	126204	keystroke_a	a	n/a
63.192	0.075	126384	keystroke_n	n	n/a
63.627	0.045	127254	keystroke_Key.enter	Key.enter	n/a
63.679	19.6305	127358	prompt	n/a	nevertheless true kinds sticky\n
64.377	0.06	128754	keystroke_n	n	n/a
64.603	0.059	129206	keystroke_e	e	n/a
64.858	0.105	129716	keystroke_v	v	n/a
65.007	0.151	130014	keystroke_e	e	n/a
65.098	0.135	130196	keystroke_r	r	n/a
66.7025	0.06	133405	keystroke_t	t	n/a
66.8225	0.075	133645	keystroke_h	h	n/a
66.9875	0.12	133975	keystroke_l	l	n/a
67.0925	0.165	134185	keystroke_e	e	n/a
67.2275	0.12	134455	keystroke_s	s	n/a
67.5425	0.015	135085	keystroke_s	s	n/a
67.5725	0.165	135145	keystroke_Key.space	Key.space	n/a
67.7225	0.105	135445	keystroke_t	t	n/a
67.9475	0.075	135895	keystroke_r	r	n/a
68.2025	0.06	136405	keystroke_u	u	n/a
68.3975	0.1045	136795	keystroke_e	e	n/a
74.9845	0.013	149969	keystroke_Key.backspace	Key.backspace	n/a
75.312	0.0755	150624	keystroke_Key.backspace	Key.backspace	n/a
75.853	0.06	151706	keystroke_Key.backspace	Key.backspace	n/a
76.258	0.045	152516	keystroke_Key.backspace	Key.backspace	n/a
76.617	0.061	153234	keystroke_Key.backspace	Key.backspace	n/a
76.978	0.059	153956	keystroke_Key.backspace	Key.backspace	n/a
77.277	0.06	154554	keystroke_Key.backspace	Key.backspace	n/a
77.487	0.06	154974	keystroke_Key.backspace	Key.backspace	n/a
77.847	0.06	155694	keystroke_Key.backspace	Key.backspace	n/a
78.028	0.105	156056	keystroke_e	e	n/a
78.147	0.121	156294	keystroke_l	l	n/a
78.297	0.136	156594	keystroke_e	e	n/a
78.463	0.105	156926	keystroke_s	s	n/a
78.657	0.091	157314	keystroke_s	s	n/a
78.808	0.134	157616	keystroke_Key.space	Key.space	n/a
79.092	0.091	158184	keystroke_t	t	n/a
79.302	0.0905	158604	keystroke_r	r	n/a
79.4525	0.075	158905	keystroke_u	u	n/a
79.5875	0.135	159175	keystroke_e	e	n/a
79.767	0.1355	159534	keystroke_Key.space	Key.space	n/a
80.0075	0.06	160015	keystroke_k	k	n/a
80.1425	0.075	160285	keystroke_i	i	n/a
80.3075	0.06	160615	keystroke_n	n	n/a
80.4425	0.09	160885	keystroke_d	d	n/a
80.7725	0.105	161545	keystroke_s	s	n/a
80.9225	0.135	161845	keystroke_Key.space	Key.space	n/a
81.7775	0.0755	163555	keystroke_s	s	n/a
81.883	0.09	163766	keystroke_t	t	n/a
81.988	0.09	163976	keystroke_i	i	n/a
82.198	0.135	164396	keystroke_c	c	n/a
82.318	0.075	164636	keystroke_k	k	n/a
82.963	0.06	165926	keystroke_y	y	n/a
83.233	0.075	166466	keystroke_Key.enter	Key.enter	n/a
83.313	16.961	166626	prompt	n/a	herbal programme maria microphone\n
84.118	0.075	168236	keystroke_h	h	n/a
84.268	0.15	168536	keystroke_e	e	n/a
84.388	0.06	168776	keystroke_r	r	n/a
84.598	0.075	169196	keystroke_b	b	n/a
84.718	0.135	169436	keystroke_a	a	n/a
84.868	0.075	169736	keystroke_l	l	n/a
84.958	0.12	169916	keystroke_Key.space	Key.space	n/a
85.3325	0.06	170665	keystroke_g	g	n/a
85.7375	0.075	171475	keystroke_Key.backspace	Key.backspace	n/a
86.2025	0.105	172405	keystroke_p	p	n/a
86.3225	0.105	172645	keystroke_r	r	n/a
86.4725	0.105	172945	keystroke_o	o	n/a
86.7425	0.0755	173485	keystroke_g	g	n/a
87.3275	0.015	174655	keystroke_r	r	n/a
87.358	0.0745	174716	keystroke_a	a	n/a
87.478	0.0595	174956	keystroke_m	m	n/a
87.6425	0.06	175285	keystroke_m	m	n/a
87.7475	0.12	175495	keystroke_e	e	n/a
87.898	0.135	175796	keystroke_Key.space	Key.space	n/a
88.363	0.0895	176726	keystroke_m	m	n/a
88.6175	0.15	177235	keystroke_a	a	n/a
89.3825	0.075	178765	keystroke_Key.backspace	Key.backspace	n/a
90.7775	0.045	181555	keystroke_Key.backspace	Key.backspace	n/a
95.7	0.028	191400	keystroke_m	m	n/a
95.788	0.165	191576	keystroke_a	a	n/a
95.983	0.075	191966	keystroke_r	r	n/a
96.4625	0.075	192925	keystroke_i	i	n/a
96.5975	0.135	193195	keystroke_a	a	n/a
96.7175	0.135	193435	keystroke_Key.space	Key.space	n/a
97.2425	0.09	194485	keystroke_m	m	n/a
98.233	0.06	196466	keystroke_i	i	n/a
98.668	0.12	197336	keystroke_c	c	n/a
99.073	0.105	198146	keystroke_r	r	n/a
99.223	0.105	198446	keystroke_o	o	n/a
99.433	0.075	198866	keystroke_p	p	n/a
99.583	0.075	199166	keystroke_h	h	n/a
99.733	0.1795	199466	keystroke_o	o	n/a
99.8975	0.09	199795	keystroke_n	n	n/a
100.0175	0.105	200035	keystroke_e	e	n/a
100.1825	0.09	200365	keystroke_Key.enter	Key.enter	n/a
100.277	7.5425	200554	prompt	n/a	controversial dreams installed select\n
100.917	0.121	201834	keystroke_c	c	n/a
101.038	0.12	202076	keystroke_o	o	n/a
101.203	0.09	202406	keystroke_n	n	n/a
101.278	0.09	202556	keystroke_t	t	n/a
101.488	0.0895	202976	keystroke_r	r	n/a
101.9825	0.105	203965	keystroke_o	o	n/a
102.5375	0.075	205075	keystroke_v	v	n/a
102.7325	0.21	205465	keystroke_e	e	n/a
102.8975	0.105	205795	keystroke_r	r	n/a
103.1825	0.075	206365	keystroke_s	s	n/a
103.3775	0.06	206755	keystroke_i	i	n/a
103.5125	0.105	207025	keystroke_a	a	n/a
103.6325	0.1055	207265	keystroke_l	l	n/a
103.723	0.12	207446	keystroke_Key.space	Key.space	n/a
104.053	0.075	208106	keystroke_d	d	n/a
104.248	0.135	208496	keystroke_r	r	n/a
104.323	0.18	208646	keystroke_e	e	n/a
104.473	0.105	208946	keystroke_a	a	n/a
104.608	0.075	209216	keystroke_m	m	n/a
104.743	0.12	209486	keystroke_s	s	n/a
104.878	0.105	209756	keystroke_Key.space	Key.space	n/a
105.133	0.06	210266	keystroke_i	i	n/a
105.2825	0.075	210565	keystroke_n	n	n/a
105.3725	0.135	210745	keystroke_s	s	n/a
105.5225	0.12	211045	keystroke_t	t	n/a
105.6275	0.15	211255	keystroke_a	a	n/a
106.1975	0.045	212395	keystroke_l	l	n/a
106.2725	0.09	212545	keystroke_l	l	n/a
106.3475	0.09	212695	keystroke_e	e	n/a
106.5425	0.1055	213085	keystroke_d	d	n/a
106.633	0.105	213266	keystroke_Key.space	Key.space	n/a
106.783	0.12	213566	keystroke_s	s	n/a
106.918	0.075	213836	keystroke_e	e	n/a
107.053	0.105	214106	keystroke_l	l	n/a
107.173	0.12	214346	keystroke_e	e	n/a
107.338	0.12	214676	keystroke_c	c	n/a
107.5625	0.1055	215125	keystroke_t	t	n/a
107.758	0.06	215516	keystroke_Key.enter	Key.enter	n/a
107.8235	11.666	215647	prompt	n/a	connectors cement communist outdoor\n
108.463	0.135	216926	keystroke_c	c	n/a
108.598	0.09	217196	keystroke_o	o	n/a
108.778	0.045	217556	keystroke_n	n	n/a
108.898	0.03	217796	keystroke_n	n	n/a
108.973	0.09	217946	keystroke_e	e	n/a
109.138	0.12	218276	keystroke_c	c	n/a
109.378	0.12	218756	keystroke_t	t	n/a
109.543	0.12	219086	keystroke_o	o	n/a
109.648	0.12	219296	keystroke_r	r	n/a
109.783	0.105	219566	keystroke_Key.space	Key.space	n/a
110.098	0.12	220196	keystroke_c	c	n/a
110.398	0.09	220796	keystroke_e	e	n/a
110.623	0.075	221246	keystroke_m	m	n/a
110.713	0.105	221426	keystroke_e	e	n/a
110.833	0.06	221666	keystroke_n	n	n/a
110.923	0.135	221846	keystroke_t	t	n/a
111.073	0.15	222146	keystroke_Key.space	Key.space	n/a
111.313	0.135	222626	keystroke_c	c	n/a
111.373	0.09	222746	keystroke_o	o	n/a
111.823	0.045	223646	keystroke_m	m	n/a
111.973	0.06	223946	keystroke_m	m	n/a
112.153	0.045	224306	keystroke_u	u	n/a
112.317	0.106	224634	keystroke_n	n	n/a
112.468	0.09	224936	keystroke_i	i	n/a
112.603	0.105	225206	keystroke_t	t	n/a
112.753	0.195	225506	keystroke_s	s	n/a
112.903	0.15	225806	keystroke_t	t	n/a
113.293	0.105	226586	keystroke_Key.space	Key.space	n/a
113.833	0.075	227666	keystroke_Key.backspace	Key.backspace	n/a
114.193	0.06	228386	keystroke_Key.backspace	Key.backspace	n/a
114.598	0.075	229196	keystroke_Key.backspace	Key.backspace	n/a
115.048	0.06	230096	keystroke_Key.backspace	Key.backspace	n/a
115.6475	0.075	231295	keystroke_Key.backspace	Key.backspace	n/a
115.8425	0.15	231685	keystroke_s	s	n/a
116.1275	0.045	232255	keystroke_t	t	n/a
116.6375	0.075	233275	keystroke_Key.backspace	Key.backspace	n/a
117.0875	0.06	234175	keystroke_Key.backspace	Key.backspace	n/a
117.4025	0.06	234805	keystroke_i	i	n/a
117.5975	0.1655	235195	keystroke_s	s	n/a
117.8225	0.09	235645	keystroke_t	t	n/a
118.0475	0.1055	236095	keystroke_Key.space	Key.space	n/a
118.4225	0.0905	236845	keystroke_o	o	n/a
118.513	0.0895	237026	keystroke_u	u	n/a
118.6925	0.06	237385	keystroke_t	t	n/a
118.873	0.105	237746	keystroke_d	d	n/a
118.993	0.075	237986	keystroke_o	o	n/a
119.143	0.105	238286	keystroke_o	o	n/a
119.248	0.09	238496	keystroke_r	r	n/a
119.413	0.075	238826	keystroke_Key.enter	Key.enter	n/a
119.4925	5.9665	238985	prompt	n/a	senior franklin armenia tests\n
120.088	0.105	240176	keystroke_s	s	n/a
120.2675	0.075	240535	keystroke_e	e	n/a
120.4025	0.06	240805	keystroke_n	n	n/a
120.7325	0.075	241465	keystroke_i	i	n/a
120.8825	0.12	241765	keystroke_o	o	n/a
120.9875	0.15	241975	keystroke_r	r	n/a
121.1525	0.15	242305	keystroke_Key.space	Key.space	n/a
121.4375	0.075	242875	keystroke_f	f	n/a
121.693	0.12	243386	keystroke_r	r	n/a
121.828	0.165	243656	keystroke_a	a	n/a
121.963	0.06	243926	keystroke_n	n	n/a
122.113	0.045	244226	keystroke_k	k	n/a
122.278	0.12	244556	keystroke_l	l	n/a
122.458	0.075	244916	keystroke_i	i	n/a
122.6825	0.045	245365	keystroke_n	n	n/a
122.773	0.105	245546	keystroke_Key.space	Key.space	n/a
122.968	0.15	245936	keystroke_a	a	n/a
123.148	0.09	246296	keystroke_r	r	n/a
123.328	0.09	246656	keystroke_m	m	n/a
123.703	0.12	247406	keystroke_e	e	n/a
123.838	0.06	247676	keystroke_n	n	n/a
124.003	0.06	248006	keystroke_i	i	n/a
124.108	0.12	248216	keystroke_a	a	n/a
124.213	0.12	248426	keystroke_Key.space	Key.space	n/a
124.438	0.12	248876	keystroke_t	t	n/a
124.559	0.164	249118	keystroke_e	e	n/a
124.678	0.165	249356	keystroke_s	s	n/a
124.843	0.105	249686	keystroke_t	t	n/a
125.143	0.12	250286	keystroke_s	s	n/a
125.383	0.075	250766	keystroke_Key.enter	Key.enter	n/a
125.462	5.593	250924	prompt	n/a	truly entering argument rules\n
126.133	0.075	252266	keystroke_t	t	n/a
126.328	0.105	252656	keystroke_r	r	n/a
126.463	0.075	252926	keystroke_u	u	n/a
127.018	0.0895	254036	keystroke_l	l	n/a
127.2275	0.075	254455	keystroke_y	y	n/a
127.3475	0.1355	254695	keystroke_Key.space	Key.space	n/a
127.588	0.12	255176	keystroke_e	e	n/a
127.663	0.075	255326	keystroke_n	n	n/a
127.8275	0.1055	255655	keystroke_t	t	n/a
127.9175	0.165	255835	keystroke_e	e	n/a
128.0375	0.135	256075	keystroke_r	r	n/a
128.2025	0.075	256405	keystroke_i	i	n/a
128.3975	0.075	256795	keystroke_n	n	n/a
128.4575	0.09	256915	keystroke_g	g	n/a
128.5325	0.135	257065	keystroke_Key.space	Key.space	n/a
128.6975	0.15	257395	keystroke_a	a	n/a
128.8775	0.09	257755	keystroke_r	r	n/a
129.0875	0.075	258175	keystroke_g	g	n/a
129.2225	0.06	258445	keystroke_u	u	n/a
129.4475	0.075	258895	keystroke_m	m	n/a
129.5075	0.1205	259015	keystroke_e	e	n/a
129.643	0.06	259286	keystroke_n	n	n/a
129.718	0.165	259436	keystroke_t	t	n/a
129.868	0.135	259736	keystroke_Key.space	Key.space	n/a
130.258	0.015	260516	keystroke_r	r	n/a
130.363	0.06	260726	keystroke_u	u	n/a
130.558	0.09	261116	keystroke_l	l	n/a
130.633	0.105	261266	keystroke_e	e	n/a
130.783	0.135	261566	keystroke_s	s	n/a
130.978	0.075	261956	keystroke_Key.enter	Key.enter	n/a
131.058	12.6865	262116	prompt	n/a	crimes starsmerchant teeth coupon\n
131.757	0.121	263514	keystroke_c	c	n/a
132.013	0.09	264026	keystroke_r	r	n/a
132.058	0.075	264116	keystroke_i	i	n/a
132.2235	0.089	264447	keystroke_m	m	n/a
132.2975	0.136	264595	keystroke_e	e	n/a
132.4025	0.151	264805	keystroke_s	s	n/a
132.5535	0.104	265107	keystroke_Key.space	Key.space	n/a
132.6725	0.12	265345	keystroke_s	s	n/a
132.8225	0.075	265645	keystroke_h	h	n/a
134.1125	0.075	268225	keystroke_Key.backspace	Key.backspace	n/a
134.5625	0.075	269125	keystroke_t	t	n/a
134.7425	0.135	269485	keystroke_a	a	n/a
134.8625	0.09	269725	keystroke_r	r	n/a
135.3125	0.105	270625	keystroke_s	s	n/a
135.5975	0.0905	271195	keystroke_m	m	n/a
135.808	0.105	271616	keystroke_a	a	n/a
136.483	0.06	272966	keystroke_Key.backspace	Key.backspace	n/a
136.9025	0.165	273805	keystroke_e	e	n/a
137.0225	0.075	274045	keystroke_r	r	n/a
137.2625	0.1055	274525	keystroke_c	c	n/a
137.398	0.075	274796	keystroke_h	h	n/a
137.518	0.12	275036	keystroke_a	a	n/a
137.623	0.06	275246	keystroke_n	n	n/a
137.713	0.12	275426	keystroke_t	t	n/a
137.848	0.15	275696	keystroke_Key.space	Key.space	n/a
138.043	0.09	276086	keystroke_t	t	n/a
138.223	0.09	276446	keystroke_e	e	n/a
138.388	0.105	276776	keystroke_e	e	n/a
139.603	0.09	279206	keystroke_t	t	n/a
140.2925	0.06	280585	keystroke_h	h	n/a
140.4575	0.075	280915	keystroke_Key.space	Key.space	n/a
140.8935	0.149	281787	keystroke_c	c	n/a
141.0275	0.15	282055	keystroke_o	o	n/a
141.1335	0.12	282267	keystroke_u	u	n/a
141.2985	0.105	282597	keystroke_p	p	n/a
141.4775	0.121	282955	keystroke_l	l	n/a
141.6435	0.089	283287	keystroke_e	e	n/a
142.318	0.075	284636	keystroke_Key.backspace	Key.backspace	n/a
142.693	0.06	285386	keystroke_Key.backspace	Key.backspace	n/a
143.2635	0.105	286527	keystroke_o	o	n/a
143.458	0.075	286916	keystroke_n	n	n/a
143.6975	0.045	287395	keystroke_Key.enter	Key.enter	n/a
143.7475	6.7765	287495	prompt	n/a	frozen nuke titten completing\n
144.3435	0.104	288687	keystroke_f	f	n/a
144.5375	0.105	289075	keystroke_r	r	n/a
144.6575	0.09	289315	keystroke_o	o	n/a
145.0625	0.105	290125	keystroke_z	z	n/a
145.2125	0.105	290425	keystroke_e	e	n/a
145.3475	0.06	290695	keystroke_n	n	n/a
145.4375	0.105	290875	keystroke_Key.space	Key.space	n/a
145.6625	0.06	291325	keystroke_n	n	n/a
145.828	0.045	291656	keystroke_u	u	n/a
146.038	0.06	292076	keystroke_k	k	n/a
146.2025	0.105	292405	keystroke_e	e	n/a
146.3525	0.105	292705	keystroke_Key.space	Key.space	n/a
146.8025	0.09	293605	keystroke_t	t	n/a
146.9375	0.075	293875	keystroke_i	i	n/a
147.0425	0.075	294085	keystroke_t	t	n/a
147.1775	0.105	294355	keystroke_t	t	n/a
147.2835	0.134	294567	keystroke_e	e	n/a
147.4325	0.061	294865	keystroke_n	n	n/a
147.5825	0.075	295165	keystroke_Key.space	Key.space	n/a
147.7935	0.1195	295587	keystroke_c	c	n/a
147.898	0.09	295796	keystroke_o	o	n/a
148.078	0.09	296156	keystroke_m	m	n/a
148.318	0.06	296636	keystroke_p	p	n/a
148.978	0.09	297956	keystroke_l	l	n/a
149.218	0.12	298436	keystroke_e	e	n/a
149.878	0.075	299756	keystroke_t	t	n/a
150.013	0.075	300026	keystroke_i	i	n/a
150.193	0.0745	300386	keystroke_n	n	n/a
150.2685	0.075	300537	keystroke_g	g	n/a
150.4785	0.044	300957	keystroke_Key.enter	Key.enter	n/a
150.527	7.0325	301054	prompt	n/a	contacted greetings legend awesome\n
151.1685	0.134	302337	keystroke_c	c	n/a
151.3625	0.075	302725	keystroke_o	o	n/a
151.5425	0.0755	303085	keystroke_n	n	n/a
152.188	0.105	304376	keystroke_t	t	n/a
152.353	0.135	304706	keystroke_a	a	n/a
152.503	0.12	305006	keystroke_c	c	n/a
152.743	0.135	305486	keystroke_t	t	n/a
152.863	0.09	305726	keystroke_e	e	n/a
153.088	0.12	306176	keystroke_d	d	n/a
153.193	0.135	306386	keystroke_Key.space	Key.space	n/a
153.403	0.09	306806	keystroke_g	g	n/a
153.628	0.135	307256	keystroke_r	r	n/a
153.733	0.105	307466	keystroke_e	e	n/a
153.913	0.09	307826	keystroke_e	e	n/a
154.123	0.09	308246	keystroke_t	t	n/a
154.243	0.075	308486	keystroke_i	i	n/a
154.423	0.075	308846	keystroke_n	n	n/a
154.453	0.105	308906	keystroke_g	g	n/a
154.648	0.12	309296	keystroke_s	s	n/a
154.783	0.09	309566	keystroke_Key.space	Key.space	n/a
154.963	0.09	309926	keystroke_l	l	n/a
155.038	0.09	310076	keystroke_e	e	n/a
155.233	0.0595	310466	keystroke_g	g	n/a
155.4125	0.151	310825	keystroke_e	e	n/a
155.6225	0.075	311245	keystroke_n	n	n/a
155.7425	0.15	311485	keystroke_d	d	n/a
155.8625	0.18	311725	keystroke_Key.space	Key.space	n/a
156.2375	0.135	312475	keystroke_a	a	n/a
156.4925	0.105	312985	keystroke_w	w	n/a
156.6125	0.12	313225	keystroke_e	e	n/a
156.8675	0.135	313735	keystroke_s	s	n/a
157.0175	0.105	314035	keystroke_o	o	n/a
157.2275	0.06	314455	keystroke_m	m	n/a
157.3025	0.09	314605	keystroke_e	e	n/a
157.4975	0.06	314995	keystroke_Key.enter	Key.enter	n/a
157.564	9.2355	315128	prompt	n/a	buy chance warcraft nebraska\n
158.248	0.09	316496	keystroke_b	b	n/a
158.398	0.075	316796	keystroke_u	u	n/a
158.578	0.045	317156	keystroke_y	y	n/a
158.638	0.105	317276	keystroke_Key.space	Key.space	n/a
158.818	0.1345	317636	keystroke_c	c	n/a
158.9675	0.06	317935	keystroke_h	h	n/a
159.0575	0.135	318115	keystroke_a	a	n/a
159.1775	0.06	318355	keystroke_n	n	n/a
159.5675	0.1055	319135	keystroke_c	c	n/a
160.003	0.1205	320006	keystroke_e	e	n/a
160.183	0.135	320366	keystroke_Key.space	Key.space	n/a
160.483	0.1045	320966	keystroke_w	w	n/a
160.6475	0.165	321295	keystroke_a	a	n/a
160.783	0.0895	321566	keystroke_r	r	n/a
161.053	0.1195	322106	keystroke_c	c	n/a
161.278	0.105	322556	keystroke_r	r	n/a
161.3835	0.1495	322767	keystroke_a	a	n/a
161.5475	0.1205	323095	keystroke_f	f	n/a
161.773	0.12	323546	keystroke_t	t	n/a
161.923	0.15	323846	keystroke_Key.space	Key.space	n/a
162.1935	0.06	324387	keystroke_n	n	n/a
164.445	0.028	328890	keystroke_e	e	n/a
164.773	0.105	329546	keystroke_b	b	n/a
165.043	0.105	330086	keystroke_r	r	n/a
165.283	0.1205	330566	keystroke_a	a	n/a
165.7335	0.059	331467	keystroke_s	s	n/a
165.9725	0.075	331945	keystroke_k	k	n/a
166.4225	0.09	332845	keystroke_a	a	n/a
166.7375	0.06	333475	keystroke_Key.enter	Key.enter	n/a
166.8025	6.867	333605	prompt	n/a	thickness lighting homes precisely\n
167.788	0.045	335576	keystroke_t	t	n/a
167.863	0.0755	335726	keystroke_h	h	n/a
168.0135	0.09	336027	keystroke_i	i	n/a
168.2235	0.105	336447	keystroke_c	c	n/a
168.3435	0.075	336687	keystroke_k	k	n/a
168.6875	0.061	337375	keystroke_n	n	n/a
168.8085	0.09	337617	keystroke_e	e	n/a
169.0035	0.089	338007	keystroke_s	s	n/a
169.1685	0.1195	338337	keystroke_s	s	n/a
169.3775	0.135	338755	keystroke_Key.space	Key.space	n/a
169.5725	0.105	339145	keystroke_l	l	n/a
169.7525	0.075	339505	keystroke_i	i	n/a
169.8735	0.09	339747	keystroke_g	g	n/a
170.0085	0.059	340017	keystroke_h	h	n/a
170.1125	0.075	340225	keystroke_t	t	n/a
170.668	0.1045	341336	keystroke_i	i	n/a
170.8475	0.06	341695	keystroke_n	n	n/a
170.9375	0.135	341875	keystroke_g	g	n/a
171.0575	0.135	342115	keystroke_Key.space	Key.space	n/a
171.3125	0.075	342625	keystroke_h	h	n/a
171.4785	0.105	342957	keystroke_o	o	n/a
171.6585	0.075	343317	keystroke_m	m	n/a
171.7475	0.09	343495	keystroke_e	e	n/a
171.8975	0.1205	343795	keystroke_s	s	n/a
172.018	0.135	344036	keystroke_Key.space	Key.space	n/a
172.228	0.09	344456	keystroke_p	p	n/a
172.333	0.105	344666	keystroke_r	r	n/a
172.393	0.135	344786	keystroke_e	e	n/a
172.738	0.06	345476	keystroke_i	i	n/a
172.888	0.18	345776	keystroke_s	s	n/a
173.008	0.12	346016	keystroke_e	e	n/a
173.158	0.105	346316	keystroke_l	l	n/a
173.353	0.06	346706	keystroke_y	y	n/a
173.608	0.06	347216	keystroke_Key.enter	Key.enter	n/a
173.6755	8.184	347351	prompt	n/a	briefing conditioning economy policy\n
174.433	0.105	348866	keystroke_b	b	n/a
174.658	0.09	349316	keystroke_e	e	n/a
175.453	0.06	350906	keystroke_Key.backspace	Key.backspace	n/a
175.648	0.06	351296	keystroke_r	r	n/a
175.768	0.06	351536	keystroke_i	i	n/a
175.963	0.12	351926	keystroke_e	e	n/a
176.218	0.045	352436	keystroke_f	f	n/a
176.653	0.045	353306	keystroke_i	i	n/a
176.833	0.06	353666	keystroke_n	n	n/a
176.878	0.135	353756	keystroke_g	g	n/a
176.998	0.12	353996	keystroke_Key.space	Key.space	n/a
177.193	0.135	354386	keystroke_c	c	n/a
177.283	0.09	354566	keystroke_o	o	n/a
177.448	0.0895	354896	keystroke_n	n	n/a
177.5385	0.105	355077	keystroke_d	d	n/a
177.6725	0.061	355345	keystroke_i	i	n/a
177.943	0.12	355886	keystroke_t	t	n/a
178.048	0.24	356096	keystroke_i	i	n/a
178.168	0.18	356336	keystroke_o	o	n/a
178.318	0.105	356636	keystroke_n	n	n/a
178.543	0.06	357086	keystroke_i	i	n/a
178.708	0.105	357416	keystroke_n	n	n/a
178.798	0.12	357596	keystroke_g	g	n/a
178.903	0.12	357806	keystroke_Key.space	Key.space	n/a
179.053	0.105	358106	keystroke_e	e	n/a
179.608	0.12	359216	keystroke_c	c	n/a
179.743	0.135	359486	keystroke_o	o	n/a
179.908	0.075	359816	keystroke_n	n	n/a
180.2525	0.09	360505	keystroke_o	o	n/a
180.4025	0.09	360805	keystroke_m	m	n/a
180.6125	0.075	361225	keystroke_y	y	n/a
180.7475	0.15	361495	keystroke_Key.space	Key.space	n/a
180.8675	0.09	361735	keystroke_p	p	n/a
181.0025	0.075	362005	keystroke_o	o	n/a
181.1675	0.105	362335	keystroke_l	l	n/a
181.3025	0.075	362605	keystroke_i	i	n/a
181.4375	0.1205	362875	keystroke_c	c	n/a
181.5725	0.06	363145	keystroke_y	y	n/a
181.7975	0.06	363595	keystroke_Key.enter	Key.enter	n/a
181.8625	4.812	363725	prompt	n/a	teacher placement their seeing\n
182.4575	0.09	364915	keystroke_t	t	n/a
182.6075	0.09	365215	keystroke_e	e	n/a
182.6675	0.135	365335	keystroke_a	a	n/a
182.8925	0.0905	365785	keystroke_c	c	n/a
183.013	0.075	366026	keystroke_h	h	n/a
183.103	0.15	366206	keystroke_e	e	n/a
183.193	0.165	366386	keystroke_r	r	n/a
183.3725	0.1805	366745	keystroke_Key.space	Key.space	n/a
183.628	0.075	367256	keystroke_p	p	n/a
183.778	0.135	367556	keystroke_l	l	n/a
183.853	0.135	367706	keystroke_a	a	n/a
184.018	0.165	368036	keystroke_c	c	n/a
184.168	0.09	368336	keystroke_e	e	n/a
184.3035	0.06	368607	keystroke_m	m	n/a
184.3785	0.12	368757	keystroke_e	e	n/a
184.5135	0.06	369027	keystroke_n	n	n/a
184.6335	0.12	369267	keystroke_t	t	n/a
184.7535	0.1495	369507	keystroke_Key.space	Key.space	n/a
184.918	0.1195	369836	keystroke_t	t	n/a
185.023	0.06	370046	keystroke_h	h	n/a
185.113	0.09	370226	keystroke_e	e	n/a
185.218	0.06	370436	keystroke_i	i	n/a
185.308	0.165	370616	keystroke_r	r	n/a
185.473	0.1505	370946	keystroke_Key.space	Key.space	n/a
185.6835	0.165	371367	keystroke_s	s	n/a
185.8035	0.1195	371607	keystroke_e	e	n/a
185.9985	0.12	371997	keystroke_e	e	n/a
186.1485	0.075	372297	keystroke_i	i	n/a
186.3435	0.075	372687	keystroke_n	n	n/a
186.4335	0.075	372867	keystroke_g	g	n/a
186.6285	0.045	373257	keystroke_Key.enter	Key.enter	n/a
186.678	8.5315	373356	prompt	n/a	toronto greece analyzes disclosure\n
187.4985	0.06	374997	keystroke_t	t	n/a
187.6335	0.105	375267	keystroke_o	o	n/a
188.3535	0.09	376707	keystroke_r	r	n/a
188.6825	0.09	377365	keystroke_o	o	n/a
188.8475	0.09	377695	keystroke_n	n	n/a
189.0575	0.09	378115	keystroke_t	t	n/a
189.2075	0.105	378415	keystroke_o	o	n/a
189.3275	0.135	378655	keystroke_Key.space	Key.space	n/a
190.1535	0.104	380307	keystroke_g	g	n/a
190.4525	0.135	380905	keystroke_r	r	n/a
190.6475	0.12	381295	keystroke_e	e	n/a
190.843	0.105	381686	keystroke_e	e	n/a
191.083	0.195	382166	keystroke_c	c	n/a
191.233	0.15	382466	keystroke_e	e	n/a
191.398	0.105	382796	keystroke_Key.space	Key.space	n/a
191.6685	0.119	383337	keystroke_a	a	n/a
191.8325	0.075	383665	keystroke_n	n	n/a
191.9375	0.135	383875	keystroke_a	a	n/a
192.1175	0.105	384235	keystroke_l	l	n/a
192.3425	0.06	384685	keystroke_y	y	n/a
192.598	0.15	385196	keystroke_z	z	n/a
192.763	0.105	385526	keystroke_e	e	n/a
192.973	0.12	385946	keystroke_s	s	n/a
193.153	0.135	386306	keystroke_Key.space	Key.space	n/a
193.558	0.105	387116	keystroke_d	d	n/a
193.6935	0.0895	387387	keystroke_i	i	n/a
193.828	0.09	387656	keystroke_s	s	n/a
193.978	0.12	387956	keystroke_c	c	n/a
194.173	0.09	388346	keystroke_l	l	n/a
194.3985	0.0745	388797	keystroke_o	o	n/a
194.5785	0.09	389157	keystroke_s	s	n/a
194.7135	0.09	389427	keystroke_u	u	n/a
194.833	0.1355	389666	keystroke_r	r	n/a
194.9385	0.1045	389877	keystroke_e	e	n/a
195.1485	0.06	390297	keystroke_Key.enter	Key.enter	n/a
195.2125	12.2225	390425	prompt	n/a	fold powerseller direction basics\n
195.8385	0.12	391677	keystroke_f	f	n/a
195.9735	0.075	391947	keystroke_o	o	n/a
196.1535	0.105	392307	keystroke_l	l	n/a
196.2135	0.149	392427	keystroke_d	d	n/a
196.3475	0.1655	392695	keystroke_Key.space	Key.space	n/a
197.2335	0.09	394467	keystroke_p	p	n/a
197.8185	0.0895	395637	keystroke_o	o	n/a
198.148	0.15	396296	keystroke_e	e	n/a
198.508	0.075	397016	keystroke_Key.backspace	Key.backspace	n/a
198.628	0.135	397256	keystroke_w	w	n/a
198.748	0.18	397496	keystroke_e	e	n/a
198.868	0.135	397736	keystroke_r	r	n/a
199.378	0.165	398756	keystroke_s	s	n/a
199.498	0.12	398996	keystroke_e	e	n/a
199.663	0.09	399326	keystroke_l	l	n/a
199.828	0.09	399656	keystroke_l	l	n/a
199.903	0.135	399806	keystroke_e	e	n/a
200.023	0.1505	400046	keystroke_r	r	n/a
200.158	0.1505	400316	keystroke_Key.space	Key.space	n/a
200.4885	0.09	400977	keystroke_d	d	n/a
200.6085	0.0895	401217	keystroke_i	i	n/a
200.728	0.091	401456	keystroke_r	r	n/a
200.968	0.136	401936	keystroke_e	e	n/a
201.268	0.1205	402536	keystroke_c	c	n/a
201.5385	0.09	403077	keystroke_t	t	n/a
204.721	0.177	409442	keystroke_i	i	n/a
204.793	0.165	409586	keystroke_o	o	n/a
204.973	0.105	409946	keystroke_n	n	n/a
205.093	0.105	410186	keystroke_Key.space	Key.space	n/a
205.258	0.105	410516	keystroke_b	b	n/a
205.423	0.12	410846	keystroke_a	a	n/a
205.738	0.09	411476	keystroke_s	s	n/a
205.888	0.06	411776	keystroke_i	i	n/a
206.0535	0.075	412107	keystroke_c	c	n/a
206.2035	0.075	412407	keystroke_a	a	n/a
206.8635	0.075	413727	keystroke_Key.backspace	Key.backspace	n/a
207.0585	0.135	414117	keystroke_s	s	n/a
207.3735	0.06	414747	keystroke_Key.enter	Key.enter	n/a
207.4375	8.9825	414875	prompt	n/a	skiing filled marine middle\n
208.1235	0.105	416247	keystroke_a	a	n/a
208.2585	0.12	416517	keystroke_s	s	n/a
208.5285	0.09	417057	keystroke_k	k	n/a
209.083	0.075	418166	keystroke_Key.backspace	Key.backspace	n/a
209.458	0.06	418916	keystroke_Key.backspace	Key.backspace	n/a
209.8185	0.06	419637	keystroke_Key.backspace	Key.backspace	n/a
209.8935	0.165	419787	keystroke_s	s	n/a
210.0435	0.1345	420087	keystroke_a	a	n/a
210.1485	0.075	420297	keystroke_k	k	n/a
211.3335	0.075	422667	keystroke_Key.backspace	Key.backspace	n/a
211.6485	0.075	423297	keystroke_Key.backspace	Key.backspace	n/a
211.9635	0.09	423927	keystroke_k	k	n/a
212.2185	0.06	424437	keystroke_i	i	n/a
212.6685	0.045	425337	keystroke_i	i	n/a
212.8335	0.0745	425667	keystroke_n	n	n/a
212.9535	0.15	425907	keystroke_g	g	n/a
213.1185	0.15	426237	keystroke_Key.space	Key.space	n/a
213.3285	0.135	426657	keystroke_f	f	n/a
213.5535	0.045	427107	keystroke_i	i	n/a
213.7185	0.075	427437	keystroke_l	l	n/a
213.8835	0.09	427767	keystroke_l	l	n/a
214.0035	0.075	428007	keystroke_e	e	n/a
214.1835	0.1345	428367	keystroke_d	d	n/a
214.303	0.12	428606	keystroke_Key.space	Key.space	n/a
214.468	0.09	428936	keystroke_m	m	n/a
214.513	0.165	429026	keystroke_a	a	n/a
214.663	0.12	429326	keystroke_r	r	n/a
214.828	0.075	429656	keystroke_i	i	n/a
214.9785	0.1045	429957	keystroke_n	n	n/a
215.0685	0.15	430137	keystroke_e	e	n/a
215.2035	0.15	430407	keystroke_Key.space	Key.space	n/a
215.563	0.075	431126	keystroke_m	m	n/a
215.698	0.075	431396	keystroke_i	i	n/a
215.788	0.09	431576	keystroke_d	d	n/a
215.938	0.09	431876	keystroke_d	d	n/a
216.088	0.105	432176	keystroke_l	l	n/a
216.178	0.09	432356	keystroke_e	e	n/a
216.358	0.06	432716	keystroke_Key.enter	Key.enter	n/a
216.4235	6.401	432847	prompt	n/a	toddler founder location ages\n
217.003	0.1205	434006	keystroke_t	t	n/a
217.1685	0.09	434337	keystroke_o	o	n/a
217.3485	0.09	434697	keystroke_l	l	n/a
217.813	0.075	435626	keystroke_Key.backspace	Key.backspace	n/a
217.933	0.09	435866	keystroke_d	d	n/a
218.098	0.09	436196	keystroke_d	d	n/a
218.233	0.105	436466	keystroke_l	l	n/a
218.398	0.1805	436796	keystroke_e	e	n/a
218.5635	0.12	437127	keystroke_r	r	n/a
218.7585	0.165	437517	keystroke_Key.space	Key.space	n/a
218.9985	0.15	437997	keystroke_f	f	n/a
219.238	0.1355	438476	keystroke_o	o	n/a
219.358	0.075	438716	keystroke_u	u	n/a
219.5685	0.06	439137	keystroke_n	n	n/a
219.6135	0.105	439227	keystroke_d	d	n/a
219.8085	0.12	439617	keystroke_e	e	n/a
219.8985	0.135	439797	keystroke_r	r	n/a
220.1385	0.105	440277	keystroke_Key.space	Key.space	n/a
220.6935	0.015	441387	keystroke_l	l	n/a
220.7835	0.105	441567	keystroke_o	o	n/a
220.9185	0.15	441837	keystroke_c	c	n/a
221.0385	0.15	442077	keystroke_a	a	n/a
221.2335	0.105	442467	keystroke_t	t	n/a
221.3085	0.15	442617	keystroke_i	i	n/a
221.4285	0.165	442857	keystroke_o	o	n/a
221.5635	0.105	443127	keystroke_n	n	n/a
221.6985	0.09	443397	keystroke_Key.space	Key.space	n/a
221.7435	0.15	443487	keystroke_a	a	n/a
222.2385	0.09	444477	keystroke_g	g	n/a
222.3885	0.165	444777	keystroke_e	e	n/a
222.5385	0.12	445077	keystroke_s	s	n/a
222.7635	0.059	445527	keystroke_Key.enter	Key.enter	n/a
222.8275	8.4725	445655	prompt	n/a	frozen laboratories cleanup israel\n
223.4235	0.105	446847	keystroke_f	f	n/a
223.6335	0.12	447267	keystroke_r	r	n/a
223.7535	0.09	447507	keystroke_o	o	n/a
223.9035	0.1495	447807	keystroke_z	z	n/a
224.083	0.12	448166	keystroke_e	e	n/a
224.2185	0.06	448437	keystroke_n	n	n/a
224.3235	0.119	448647	keystroke_Key.space	Key.space	n/a
224.5935	0.105	449187	keystroke_l	l	n/a
224.818	0.135	449636	keystroke_a	a	n/a
225.0435	0.075	450087	keystroke_b	b	n/a
225.554	0.0445	451108	keystroke_o	o	n/a
225.6135	0.09	451227	keystroke_r	r	n/a
225.7485	0.21	451497	keystroke_a	a	n/a
225.9435	0.105	451887	keystroke_t	t	n/a
226.5285	0.09	453057	keystroke_o	o	n/a
226.6635	0.09	453327	keystroke_r	r	n/a
226.8285	0.075	453657	keystroke_i	i	n/a
226.9335	0.18	453867	keystroke_e	e	n/a
227.053	0.165	454106	keystroke_s	s	n/a
227.233	0.135	454466	keystroke_Key.space	Key.space	n/a
227.773	0.12	455546	keystroke_c	c	n/a
228.073	0.09	456146	keystroke_l	l	n/a
228.178	0.105	456356	keystroke_e	e	n/a
228.298	0.135	456596	keystroke_a	a	n/a
228.478	0.045	456956	keystroke_n	n	n/a
228.718	0.135	457436	keystroke_u	u	n/a
228.868	0.105	457736	keystroke_p	p	n/a
229.093	0.135	458186	keystroke_Key.space	Key.space	n/a
229.663	0.06	459326	keystroke_i	i	n/a
229.858	0.1355	459716	keystroke_s	s	n/a
230.143	0.105	460286	keystroke_r	r	n/a
230.608	0.0755	461216	keystroke_a	a	n/a
230.8335	0.075	461667	keystroke_e	e	n/a
230.9685	0.105	461937	keystroke_l	l	n/a
231.239	0.0595	462478	keystroke_Key.enter	Key.enter	n/a
231.303	9.552	462606	prompt	n/a	province organizing themes rating\n
232.034	0.09	464068	keystroke_p	p	n/a
232.139	0.135	464278	keystroke_r	r	n/a
232.259	0.09	464518	keystroke_o	o	n/a
232.484	0.135	464968	keystroke_v	v	n/a
232.604	0.075	465208	keystroke_i	i	n/a
232.784	0.074	465568	keystroke_n	n	n/a
232.843	0.195	465686	keystroke_c	c	n/a
233.023	0.165	466046	keystroke_e	e	n/a
233.173	0.135	466346	keystroke_Key.space	Key.space	n/a
233.413	0.105	466826	keystroke_o	o	n/a
233.533	0.0905	467066	keystroke_r	r	n/a
233.7735	0.12	467547	keystroke_g	g	n/a
233.9085	0.18	467817	keystroke_a	a	n/a
234.0435	0.06	468087	keystroke_n	n	n/a
234.5385	0.105	469077	keystroke_z	z	n/a
234.6585	0.0755	469317	keystroke_i	i	n/a
234.853	0.09	469706	keystroke_n	n	n/a
235.004	0.134	470008	keystroke_g	g	n/a
235.483	0.045	470966	keystroke_Key.backspace	Key.backspace	n/a
235.7235	0.075	471447	keystroke_Key.backspace	Key.backspace	n/a
236.4285	0.045	472857	keystroke_Key.backspace	Key.backspace	n/a
236.9685	0.0595	473937	keystroke_Key.backspace	Key.backspace	n/a
237.4935	0.045	474987	keystroke_i	i	n/a
237.598	0.135	475196	keystroke_z	z	n/a
237.688	0.091	475376	keystroke_i	i	n/a
237.868	0.09	475736	keystroke_n	n	n/a
237.988	0.12	475976	keystroke_g	g	n/a
238.093	0.135	476186	keystroke_Key.space	Key.space	n/a
238.408	0.105	476816	keystroke_t	t	n/a
238.528	0.06	477056	keystroke_h	h	n/a
238.618	0.135	477236	keystroke_e	e	n/a
238.768	0.075	477536	keystroke_m	m	n/a
238.858	0.105	477716	keystroke_e	e	n/a
239.068	0.12	478136	keystroke_s	s	n/a
239.233	0.1355	478466	keystroke_Key.space	Key.space	n/a
239.6835	0.105	479367	keystroke_r	r	n/a
239.8335	0.18	479667	keystroke_a	a	n/a
240.0285	0.105	480057	keystroke_t	t	n/a
240.178	0.075	480356	keystroke_i	i	n/a
240.343	0.105	480686	keystroke_n	n	n/a
240.433	0.075	480866	keystroke_g	g	n/a
240.7935	0.06	481587	keystroke_Key.enter	Key.enter	n/a
240.858	8.472	481716	prompt	n/a	june marathon slovakia diego\n
241.4535	0.0905	482907	keystroke_j	j	n/a
241.633	0.061	483266	keystroke_u	u	n/a
241.813	0.061	483626	keystroke_n	n	n/a
241.918	0.136	483836	keystroke_e	e	n/a
242.068	0.1655	484136	keystroke_Key.space	Key.space	n/a
242.878	0.12	485756	keystroke_m	m	n/a
242.983	0.1955	485966	keystroke_a	a	n/a
243.163	0.1055	486326	keystroke_r	r	n/a
243.3735	0.135	486747	keystroke_a	a	n/a
243.6285	0.105	487257	keystroke_t	t	n/a
243.7485	0.06	487497	keystroke_h	h	n/a
243.8985	0.12	487797	keystroke_o	o	n/a
244.1085	0.075	488217	keystroke_n	n	n/a
244.1985	0.135	488397	keystroke_Key.space	Key.space	n/a
244.5135	0.105	489027	keystroke_s	s	n/a
244.8585	0.075	489717	keystroke_l	l	n/a
245.0385	0.105	490077	keystroke_o	o	n/a
245.5185	0.12	491037	keystroke_v	v	n/a
246.3285	0.105	492657	keystroke_a	a	n/a
246.7185	0.06	493437	keystroke_k	k	n/a
246.9435	0.06	493887	keystroke_i	i	n/a
247.3935	0.135	494787	keystroke_a	a	n/a
247.5435	0.1495	495087	keystroke_Key.space	Key.space	n/a
248.143	0.09	496286	keystroke_d	d	n/a
248.413	0.075	496826	keystroke_i	i	n/a
248.653	0.105	497306	keystroke_e	e	n/a
248.893	0.09	497786	keystroke_g	g	n/a
249.0285	0.0895	498057	keystroke_o	o	n/a
249.2685	0.06	498537	keystroke_Key.enter	Key.enter	n/a
249.3325	7.1375	498665	prompt	n/a	brook hyundai songs activation\n
249.9735	0.12	499947	keystroke_b	b	n/a
250.1985	0.12	500397	keystroke_r	r	n/a
250.3035	0.06	500607	keystroke_o	o	n/a
250.4535	0.09	500907	keystroke_o	o	n/a
250.5885	0.12	501177	keystroke_k	k	n/a
250.7835	0.135	501567	keystroke_Key.space	Key.space	n/a
251.1885	0.075	502377	keystroke_h	h	n/a
251.5185	0.06	503037	keystroke_y	y	n/a
251.9685	0.06	503937	keystroke_u	u	n/a
252.1785	0.045	504357	keystroke_n	n	n/a
252.4635	0.03	504927	keystroke_d	d	n/a
252.4785	0.105	504957	keystroke_a	a	n/a
252.6285	0.0605	505257	keystroke_i	i	n/a
252.824	0.134	505648	keystroke_Key.space	Key.space	n/a
253.424	0.119	506848	keystroke_s	s	n/a
253.528	0.135	507056	keystroke_o	o	n/a
253.678	0.105	507356	keystroke_n	n	n/a
253.768	0.075	507536	keystroke_g	g	n/a
253.978	0.12	507956	keystroke_s	s	n/a
254.173	0.15	508346	keystroke_Key.space	Key.space	n/a
254.533	0.12	509066	keystroke_a	a	n/a
254.728	0.12	509456	keystroke_c	c	n/a
255.1335	0.09	510267	keystroke_t	t	n/a
255.3285	0.075	510657	keystroke_i	i	n/a
255.5235	0.12	511047	keystroke_v	v	n/a
255.6735	0.165	511347	keystroke_a	a	n/a
255.8235	0.12	511647	keystroke_t	t	n/a
255.8985	0.225	511797	keystroke_i	i	n/a
256.0185	0.21	512037	keystroke_o	o	n/a
256.1685	0.09	512337	keystroke_n	n	n/a
256.4235	0.045	512847	keystroke_Key.enter	Key.enter	n/a
256.478	7.417	512956	prompt	n/a	beats employed homework plastic\n
257.2185	0.12	514437	keystroke_b	b	n/a
257.4435	0.2105	514887	keystroke_e	e	n/a
257.938	0.18	515876	keystroke_a	a	n/a
258.073	0.12	516146	keystroke_t	t	n/a
258.329	0.149	516658	keystroke_s	s	n/a
258.463	0.135	516926	keystroke_Key.space	Key.space	n/a
258.823	0.09	517646	keystroke_e	e	n/a
258.9735	0.1195	517947	keystroke_m	m	n/a
259.1685	0.09	518337	keystroke_p	p	n/a
259.3785	0.12	518757	keystroke_l	l	n/a
259.7385	0.09	519477	keystroke_o	o	n/a
259.9635	0.06	519927	keystroke_y	y	n/a
260.1585	0.09	520317	keystroke_e	e	n/a
260.3535	0.15	520707	keystroke_d	d	n/a
260.4885	0.135	520977	keystroke_Key.space	Key.space	n/a
260.759	0.075	521518	keystroke_h	h	n/a
260.908	0.12	521816	keystroke_o	o	n/a
261.103	0.09	522206	keystroke_m	m	n/a
261.208	0.045	522416	keystroke_e	e	n/a
261.358	0.15	522716	keystroke_w	w	n/a
261.463	0.12	522926	keystroke_o	o	n/a
261.658	0.106	523316	keystroke_r	r	n/a
261.808	0.075	523616	keystroke_k	k	n/a
262.003	0.12	524006	keystroke_Key.space	Key.space	n/a
262.498	0.075	524996	keystroke_p	p	n/a
262.633	0.15	525266	keystroke_l	l	n/a
262.768	0.225	525536	keystroke_a	a	n/a
262.963	0.18	525926	keystroke_s	s	n/a
263.203	0.075	526406	keystroke_t	t	n/a
263.338	0.106	526676	keystroke_i	i	n/a
263.548	0.105	527096	keystroke_c	c	n/a
263.833	0.06	527666	keystroke_Key.enter	Key.enter	n/a
263.8975	14.5175	527795	prompt	n/a	chargers websites guitars specify\n
264.643	0.136	529286	keystroke_c	c	n/a
264.854	0.059	529708	keystroke_h	h	n/a
264.929	0.134	529858	keystroke_a	a	n/a
265.064	0.119	530128	keystroke_r	r	n/a
265.319	0.09	530638	keystroke_g	g	n/a
265.483	0.1805	530966	keystroke_e	e	n/a
265.6035	0.105	531207	keystroke_r	r	n/a
265.8735	0.135	531747	keystroke_s	s	n/a
266.0385	0.135	532077	keystroke_Key.space	Key.space	n/a
266.4585	0.12	532917	keystroke_w	w	n/a
266.5635	0.15	533127	keystroke_e	e	n/a
266.8635	0.15	533727	keystroke_s	s	n/a
266.9985	0.075	533997	keystroke_i	i	n/a
267.1635	0.105	534327	keystroke_b	b	n/a
267.464	0.135	534928	keystroke_t	t	n/a
267.568	0.166	535136	keystroke_e	e	n/a
267.778	0.135	535556	keystroke_s	s	n/a
267.914	0.134	535828	keystroke_Key.space	Key.space	n/a
268.123	0.1055	536246	keystroke_g	g	n/a
268.8135	0.09	537627	keystroke_Key.backspace	Key.backspace	n/a
268.8585	0.03	537717	keystroke_=	=	n/a
269.7885	0.075	539577	keystroke_Key.backspace	Key.backspace	n/a
270.1485	0.06	540297	keystroke_Key.backspace	Key.backspace	n/a
270.4785	0.06	540957	keystroke_Key.backspace	Key.backspace	n/a
271.2885	0.03	542577	keystroke_Key.backspace	Key.backspace	n/a
271.6785	0.06	543357	keystroke_Key.backspace	Key.backspace	n/a
272.2335	0.105	544467	keystroke_Key.backspace	Key.backspace	n/a
272.7435	0.015	545487	keystroke_Key.backspace	Key.backspace	n/a
273.1785	0.075	546357	keystroke_Key.backspace	Key.backspace	n/a
273.568	0.046	547136	keystroke_b	b	n/a
273.974	0.12	547948	keystroke_s	s	n/a
274.6485	0.06	549297	keystroke_i	i	n/a
274.7535	0.1955	549507	keystroke_t	t	n/a
274.919	0.15	549838	keystroke_e	e	n/a
275.129	0.135	550258	keystroke_s	s	n/a
275.279	0.135	550558	keystroke_Key.space	Key.space	n/a
275.639	0.105	551278	keystroke_g	g	n/a
275.804	0.09	551608	keystroke_u	u	n/a
276.014	0.075	552028	keystroke_i	i	n/a
276.239	0.06	552478	keystroke_t	t	n/a
276.359	0.195	552718	keystroke_a	a	n/a
276.508	0.121	553016	keystroke_r	r	n/a
276.718	0.121	553436	keystroke_s	s	n/a
276.839	0.134	553678	keystroke_Key.space	Key.space	n/a
277.004	0.104	554008	keystroke_s	s	n/a
277.274	0.09	554548	keystroke_p	p	n/a
277.378	0.1055	554756	keystroke_e	e	n/a
277.603	0.12	555206	keystroke_c	c	n/a
277.738	0.045	555476	keystroke_i	i	n/a
277.963	0.12	555926	keystroke_f	f	n/a
278.129	0.059	556258	keystroke_y	y	n/a
278.353	0.06	556706	keystroke_Key.enter	Key.enter	n/a
278.4175	7.0025	556835	prompt	n/a	direction symbol founder cookie\n
279.0585	0.12	558117	keystroke_d	d	n/a
279.2085	0.09	558417	keystroke_i	i	n/a
279.3135	0.15	558627	keystroke_r	r	n/a
279.4635	0.12	558927	keystroke_e	e	n/a
279.6885	0.105	559377	keystroke_c	c	n/a
280.034	0.105	560068	keystroke_t	t	n/a
280.154	0.21	560308	keystroke_i	i	n/a
280.274	0.165	560548	keystroke_o	o	n/a
280.424	0.105	560848	keystroke_n	n	n/a
280.513	0.136	561026	keystroke_Key.space	Key.space	n/a
280.664	0.1195	561328	keystroke_s	s	n/a
280.8135	0.075	561627	keystroke_y	y	n/a
281.0535	0.09	562107	keystroke_m	m	n/a
281.863	0.165	563726	keystroke_b	b	n/a
282.013	0.075	564026	keystroke_o	o	n/a
282.193	0.075	564386	keystroke_l	l	n/a
282.223	0.12	564446	keystroke_Key.space	Key.space	n/a
282.388	0.1355	564776	keystroke_f	f	n/a
282.4635	0.165	564927	keystroke_o	o	n/a
282.5835	0.075	565167	keystroke_u	u	n/a
282.7785	0.09	565557	keystroke_n	n	n/a
282.8085	0.09	565617	keystroke_d	d	n/a
283.0185	0.12	566037	keystroke_e	e	n/a
283.0785	0.165	566157	keystroke_r	r	n/a
283.2285	0.135	566457	keystroke_Key.space	Key.space	n/a
283.4985	0.135	566997	keystroke_c	c	n/a
283.6035	0.06	567207	keystroke_o	o	n/a
283.7385	0.0895	567477	keystroke_o	o	n/a
283.859	0.104	567718	keystroke_k	k	n/a
284.1435	0.09	568287	keystroke_i	i	n/a
284.2485	0.165	568497	keystroke_e	e	n/a
284.3985	0.1355	568797	keystroke_s	s	n/a
284.939	0.06	569878	keystroke_Key.backspace	Key.backspace	n/a
285.3435	0.075	570687	keystroke_Key.enter	Key.enter	n/a
285.423	5.1575	570846	prompt	n/a	bunch foster menu must\n
286.0635	0.12	572127	keystroke_b	b	n/a
286.2435	0.075	572487	keystroke_u	u	n/a
286.4535	0.0755	572907	keystroke_n	n	n/a
286.574	0.12	573148	keystroke_c	c	n/a
286.709	0.06	573418	keystroke_h	h	n/a
286.784	0.12	573568	keystroke_Key.space	Key.space	n/a
286.949	0.12	573898	keystroke_f	f	n/a
287.099	0.12	574198	keystroke_o	o	n/a
287.219	0.15	574438	keystroke_s	s	n/a
287.369	0.135	574738	keystroke_t	t	n/a
287.519	0.1645	575038	keystroke_e	e	n/a
287.6385	0.135	575277	keystroke_r	r	n/a
287.7285	0.135	575457	keystroke_Key.space	Key.space	n/a
288.224	0.06	576448	keystroke_m	m	n/a
288.359	0.12	576718	keystroke_e	e	n/a
288.884	0.06	577768	keystroke_n	n	n/a
289.244	0.0445	578488	keystroke_u	u	n/a
289.5285	0.135	579057	keystroke_Key.space	Key.space	n/a
289.8585	0.075	579717	keystroke_m	m	n/a
290.0835	0.045	580167	keystroke_u	u	n/a
290.1435	0.225	580287	keystroke_s	s	n/a
290.3235	0.12	580647	keystroke_t	t	n/a
290.5035	0.075	581007	keystroke_Key.enter	Key.enter	n/a
290.583	9.237	581166	prompt	n/a	belarus antonio keith daughters\n
291.659	0.059	583318	keystroke_b	b	n/a
291.853	0.09	583706	keystroke_e	e	n/a
293.0985	0.075	586197	keystroke_l	l	n/a
293.2485	0.1805	586497	keystroke_a	a	n/a
293.444	0.09	586888	keystroke_r	r	n/a
293.684	0.075	587368	keystroke_u	u	n/a
293.789	0.135	587578	keystroke_s	s	n/a
293.938	0.12	587876	keystroke_Key.space	Key.space	n/a
294.134	0.165	588268	keystroke_a	a	n/a
294.269	0.074	588538	keystroke_n	n	n/a
294.689	0.089	589378	keystroke_t	t	n/a
294.898	0.09	589796	keystroke_o	o	n/a
295.093	0.06	590186	keystroke_n	n	n/a
295.258	0.06	590516	keystroke_i	i	n/a
295.468	0.12	590936	keystroke_o	o	n/a
295.708	0.12	591416	keystroke_Key.space	Key.space	n/a
296.338	0.09	592676	keystroke_k	k	n/a
297.118	0.12	594236	keystroke_e	e	n/a
297.253	0.075	594506	keystroke_i	i	n/a
297.4185	0.0895	594837	keystroke_t	t	n/a
297.569	0.06	595138	keystroke_h	h	n/a
297.719	0.12	595438	keystroke_Key.space	Key.space	n/a
298.559	0.09	597118	keystroke_d	d	n/a
298.694	0.1495	597388	keystroke_a	a	n/a
298.8735	0.075	597747	keystroke_u	u	n/a
299.0085	0.09	598017	keystroke_g	g	n/a
299.0985	0.06	598197	keystroke_h	h	n/a
299.2035	0.12	598407	keystroke_t	t	n/a
299.3085	0.18	598617	keystroke_e	e	n/a
299.4135	0.105	598827	keystroke_r	r	n/a
299.6235	0.105	599247	keystroke_s	s	n/a
299.7585	0.06	599517	keystroke_Key.enter	Key.enter	n/a
299.823	7.557	599646	prompt	n/a	sales gravity preference comment\n
300.538	0.12	601076	keystroke_s	s	n/a
300.718	0.105	601436	keystroke_a	a	n/a
300.809	0.12	601618	keystroke_l	l	n/a
300.944	0.18	601888	keystroke_e	e	n/a
301.109	0.179	602218	keystroke_s	s	n/a
301.333	0.135	602666	keystroke_Key.space	Key.space	n/a
301.783	0.075	603566	keystroke_g	g	n/a
301.993	0.12	603986	keystroke_r	r	n/a
302.128	0.18	604256	keystroke_a	a	n/a
302.383	0.135	604766	keystroke_v	v	n/a
302.578	0.075	605156	keystroke_i	i	n/a
302.698	0.12	605396	keystroke_t	t	n/a
302.863	0.06	605726	keystroke_y	y	n/a
303.028	0.1205	606056	keystroke_Key.space	Key.space	n/a
303.4335	0.1045	606867	keystroke_p	p	n/a
303.553	0.33	607106	keystroke_e	e	n/a
304.2885	0.06	608577	keystroke_Key.backspace	Key.backspace	n/a
304.5735	0.135	609147	keystroke_r	r	n/a
304.6785	0.105	609357	keystroke_e	e	n/a
304.934	0.09	609868	keystroke_f	f	n/a
305.098	0.195	610196	keystroke_e	e	n/a
305.233	0.105	610466	keystroke_r	r	n/a
305.443	0.1805	610886	keystroke_e	e	n/a
305.579	0.06	611158	keystroke_n	n	n/a
305.759	0.1495	611518	keystroke_c	c	n/a
305.8635	0.18	611727	keystroke_e	e	n/a
306.0585	0.105	612117	keystroke_Key.space	Key.space	n/a
306.2835	0.12	612567	keystroke_c	c	n/a
306.3885	0.09	612777	keystroke_o	o	n/a
306.5835	0.06	613167	keystroke_m	m	n/a
306.7485	0.045	613497	keystroke_m	m	n/a
306.8835	0.135	613767	keystroke_e	e	n/a
306.9885	0.06	613977	keystroke_n	n	n/a
307.1385	0.09	614277	keystroke_t	t	n/a
307.3185	0.06	614637	keystroke_Key.enter	Key.enter	n/a
307.383	9.177	614766	prompt	n/a	actors tomatoes scotland yeah\n
307.9935	0.12	615987	keystroke_a	a	n/a
308.2035	0.12	616407	keystroke_c	c	n/a
308.4435	0.12	616887	keystroke_t	t	n/a
308.5785	0.105	617157	keystroke_o	o	n/a
308.6985	0.12	617397	keystroke_r	r	n/a
308.8635	0.195	617727	keystroke_Key.space	Key.space	n/a
309.4635	0.1355	618927	keystroke_t	t	n/a
309.614	0.105	619228	keystroke_o	o	n/a
309.809	0.075	619618	keystroke_m	m	n/a
309.899	0.135	619798	keystroke_a	a	n/a
310.064	0.09	620128	keystroke_t	t	n/a
310.589	0.105	621178	keystroke_o	o	n/a
310.724	0.165	621448	keystroke_e	e	n/a
310.874	0.135	621748	keystroke_s	s	n/a
311.158	0.135	622316	keystroke_Key.space	Key.space	n/a
311.533	0.18	623066	keystroke_s	s	n/a
311.743	0.12	623486	keystroke_c	c	n/a
312.358	0.1055	624716	keystroke_t	t	n/a
313.0785	0.06	626157	keystroke_Key.backspace	Key.backspace	n/a
313.3935	0.075	626787	keystroke_o	o	n/a
313.619	0.075	627238	keystroke_t	t	n/a
313.739	0.09	627478	keystroke_l	l	n/a
313.844	0.135	627688	keystroke_a	a	n/a
314.008	0.075	628016	keystroke_n	n	n/a
314.114	0.15	628228	keystroke_d	d	n/a
314.248	0.15	628496	keystroke_Key.space	Key.space	n/a
314.579	0.074	629158	keystroke_y	y	n/a
314.788	0.09	629576	keystroke_a	a	n/a
315.568	0.06	631136	keystroke_Key.backspace	Key.backspace	n/a
315.733	0.075	631466	keystroke_e	e	n/a
315.973	0.105	631946	keystroke_a	a	n/a
316.138	0.06	632276	keystroke_h	h	n/a
316.483	0.075	632966	keystroke_Key.enter	Key.enter	n/a
316.5635	9.1915	633127	prompt	n/a	advantages digit goods caribbean\n
317.233	0.135	634466	keystroke_a	a	n/a
317.413	0.075	634826	keystroke_d	d	n/a
317.6235	0.135	635247	keystroke_v	v	n/a
317.8035	0.1355	635607	keystroke_a	a	n/a
318.074	0.09	636148	keystroke_t	t	n/a
318.704	0.06	637408	keystroke_Key.backspace	Key.backspace	n/a
318.989	0.06	637978	keystroke_n	n	n/a
319.469	0.105	638938	keystroke_t	t	n/a
319.664	0.135	639328	keystroke_a	a	n/a
319.8135	0.1355	639627	keystroke_g	g	n/a
319.934	0.12	639868	keystroke_e	e	n/a
320.3385	0.0455	640677	keystroke_s	s	n/a
320.399	0.03	640798	keystroke_Key.space	Key.space	n/a
321.148	0.12	642296	keystroke_d	d	n/a
321.388	0.075	642776	keystroke_i	i	n/a
321.5685	0.075	643137	keystroke_g	g	n/a
321.7935	0.06	643587	keystroke_i	i	n/a
321.9435	0.1045	643887	keystroke_t	t	n/a
322.213	0.12	644426	keystroke_Key.space	Key.space	n/a
322.438	0.0755	644876	keystroke_g	g	n/a
322.543	0.06	645086	keystroke_o	o	n/a
322.6935	0.0905	645387	keystroke_o	o	n/a
322.7685	0.1355	645537	keystroke_d	d	n/a
323.008	0.1355	646016	keystroke_s	s	n/a
323.188	0.1505	646376	keystroke_Key.space	Key.space	n/a
323.7885	0.105	647577	keystroke_c	c	n/a
324.1935	0.135	648387	keystroke_a	a	n/a
324.3435	0.06	648687	keystroke_r	r	n/a
324.5235	0.075	649047	keystroke_i	i	n/a
324.7635	0.09	649527	keystroke_b	b	n/a
324.9435	0.045	649887	keystroke_b	b	n/a
325.1085	0.1655	650217	keystroke_e	e	n/a
325.289	0.12	650578	keystroke_a	a	n/a
325.454	0.059	650908	keystroke_n	n	n/a
325.694	0.06	651388	keystroke_Key.enter	Key.enter	n/a
325.758	9.7175	651516	prompt	n/a	complete needs inappropriate happy\n
326.384	0.135	652768	keystroke_c	c	n/a
326.564	0.105	653128	keystroke_o	o	n/a
326.744	0.09	653488	keystroke_m	m	n/a
326.894	0.09	653788	keystroke_p	p	n/a
327.059	0.105	654118	keystroke_l	l	n/a
327.194	0.1345	654388	keystroke_e	e	n/a
327.3885	0.1355	654777	keystroke_t	t	n/a
327.494	0.135	654988	keystroke_e	e	n/a
328.199	0.135	656398	keystroke_Key.space	Key.space	n/a
328.9485	0.0595	657897	keystroke_n	n	n/a
329.0385	0.075	658077	keystroke_e	e	n/a
329.2035	0.0605	658407	keystroke_e	e	n/a
329.368	0.091	658736	keystroke_d	d	n/a
329.503	0.12	659006	keystroke_s	s	n/a
329.638	0.1955	659276	keystroke_Key.space	Key.space	n/a
330.2385	0.06	660477	keystroke_i	i	n/a
330.4335	0.06	660867	keystroke_n	n	n/a
330.5535	0.135	661107	keystroke_a	a	n/a
330.7485	0.06	661497	keystroke_p	p	n/a
330.9285	0.105	661857	keystroke_p	p	n/a
331.1985	0.09	662397	keystroke_r	r	n/a
331.4235	0.105	662847	keystroke_o	o	n/a
333.0285	0.105	666057	keystroke_p	p	n/a
333.5985	0.105	667197	keystroke_r	r	n/a
333.7185	0.045	667437	keystroke_i	i	n/a
333.8535	0.135	667707	keystroke_a	a	n/a
334.0035	0.09	668007	keystroke_t	t	n/a
334.0785	0.18	668157	keystroke_e	e	n/a
334.2585	0.135	668517	keystroke_Key.space	Key.space	n/a
334.5585	0.09	669117	keystroke_h	h	n/a
334.6785	0.12	669357	keystroke_a	a	n/a
334.8135	0.045	669627	keystroke_p	p	n/a
334.9485	0.09	669897	keystroke_p	p	n/a
335.1135	0.075	670227	keystroke_y	y	n/a
335.399	0.075	670798	keystroke_Key.enter	Key.enter	n/a
335.478	7.3475	670956	prompt	n/a	locations registry bell edge\n
336.224	0.045	672448	keystroke_;	;	n/a
336.809	0.06	673618	keystroke_Key.backspace	Key.backspace	n/a
337.439	0.045	674878	keystroke_l	l	n/a
337.784	0.06	675568	keystroke_o	o	n/a
338.069	0.15	676138	keystroke_c	c	n/a
338.204	0.165	676408	keystroke_a	a	n/a
338.414	0.105	676828	keystroke_t	t	n/a
338.474	0.225	676948	keystroke_i	i	n/a
338.609	0.165	677218	keystroke_o	o	n/a
338.729	0.12	677458	keystroke_n	n	n/a
338.833	0.1205	677666	keystroke_s	s	n/a
338.9545	0.149	677909	keystroke_Key.space	Key.space	n/a
339.1335	0.135	678267	keystroke_r	r	n/a
339.2535	0.091	678507	keystroke_e	e	n/a
339.5385	0.015	679077	keystroke_g	g	n/a
339.5685	0.075	679137	keystroke_i	i	n/a
339.689	0.2095	679378	keystroke_s	s	n/a
339.8835	0.076	679767	keystroke_t	t	n/a
340.1235	0.0905	680247	keystroke_r	r	n/a
340.319	0.06	680638	keystroke_y	y	n/a
340.483	0.106	680966	keystroke_Key.space	Key.space	n/a
340.9935	0.1205	681987	keystroke_b	b	n/a
341.234	0.105	682468	keystroke_e	e	n/a
341.414	0.075	682828	keystroke_l	l	n/a
341.564	0.09	683128	keystroke_l	l	n/a
341.684	0.105	683368	keystroke_Key.space	Key.space	n/a
341.969	0.09	683938	keystroke_e	e	n/a
342.224	0.09	684448	keystroke_d	d	n/a
342.404	0.105	684808	keystroke_g	g	n/a
342.554	0.09	685108	keystroke_e	e	n/a
342.779	0.045	685558	keystroke_Key.enter	Key.enter	n/a
342.8295	9.296	685659	prompt	n/a	poultry cottage folks walks\n
343.513	0.076	687026	keystroke_p	p	n/a
343.979	0.12	687958	keystroke_o	o	n/a
344.189	0.0895	688378	keystroke_u	u	n/a
344.7885	0.09	689577	keystroke_l	l	n/a
345.1485	0.075	690297	keystroke_t	t	n/a
345.3435	0.06	690687	keystroke_y	y	n/a
346.1235	0.015	692247	keystroke_Key.backspace	Key.backspace	n/a
346.1545	0.014	692309	keystroke_r	r	n/a
346.4085	0.06	692817	keystroke_Key.backspace	Key.backspace	n/a
347.084	0.09	694168	keystroke_r	r	n/a
347.264	0.075	694528	keystroke_y	y	n/a
347.594	0.12	695188	keystroke_Key.space	Key.space	n/a
348.089	0.12	696178	keystroke_c	c	n/a
348.239	0.09	696478	keystroke_o	o	n/a
348.4495	0.06	696899	keystroke_t	t	n/a
348.6135	0.0605	697227	keystroke_t	t	n/a
348.7345	0.164	697469	keystroke_a	a	n/a
348.9135	0.105	697827	keystroke_g	g	n/a
349.0635	0.15	698127	keystroke_e	e	n/a
349.2285	0.105	698457	keystroke_Key.space	Key.space	n/a
349.4985	0.1655	698997	keystroke_f	f	n/a
349.649	0.075	699298	keystroke_o	o	n/a
349.844	0.105	699688	keystroke_l	l	n/a
350.009	0.09	700018	keystroke_k	k	n/a
350.4295	0.1195	700859	keystroke_s	s	n/a
350.594	0.135	701188	keystroke_Key.space	Key.space	n/a
350.864	0.105	701728	keystroke_w	w	n/a
350.999	0.15	701998	keystroke_a	a	n/a
351.134	0.24	702268	keystroke_l	l	n/a
351.644	0.075	703288	keystroke_k	k	n/a
351.794	0.105	703588	keystroke_s	s	n/a
352.064	0.06	704128	keystroke_Key.enter	Key.enter	n/a
352.128	9.5525	704256	prompt	n/a	nasdaq isolation quick homework\n
353.069	0.075	706138	keystroke_n	n	n/a
353.3385	0.136	706677	keystroke_a	a	n/a
353.9985	0.105	707997	keystroke_s	s	n/a
354.3145	0.09	708629	keystroke_d	d	n/a
354.8685	0.075	709737	keystroke_a	a	n/a
355.1535	0.1055	710307	keystroke_q	q	n/a
355.4385	0.12	710877	keystroke_Key.space	Key.space	n/a
355.9935	0.015	711987	keystroke_i	i	n/a
356.9985	0.1055	713997	keystroke_s	s	n/a
357.5085	0.105	715017	keystroke_o	o	n/a
357.8085	0.105	715617	keystroke_l	l	n/a
357.9735	0.165	715947	keystroke_a	a	n/a
358.1685	0.105	716337	keystroke_t	t	n/a
358.3035	0.24	716607	keystroke_i	i	n/a
358.4385	0.18	716877	keystroke_o	o	n/a
358.6035	0.105	717207	keystroke_n	n	n/a
358.814	0.12	717628	keystroke_Key.space	Key.space	n/a
359.039	0.12	718078	keystroke_q	q	n/a
359.16	0.104	718320	keystroke_u	u	n/a
359.309	0.105	718618	keystroke_i	i	n/a
359.474	0.12	718948	keystroke_c	c	n/a
359.639	0.075	719278	keystroke_k	k	n/a
359.729	0.12	719458	keystroke_Key.space	Key.space	n/a
359.909	0.105	719818	keystroke_h	h	n/a
360.059	0.1345	720118	keystroke_o	o	n/a
360.2685	0.0905	720537	keystroke_m	m	n/a
360.764	0.015	721528	keystroke_e	e	n/a
360.899	0.09	721798	keystroke_w	w	n/a
361.109	0.09	722218	keystroke_o	o	n/a
361.214	0.09	722428	keystroke_r	r	n/a
361.349	0.075	722698	keystroke_k	k	n/a
361.634	0.045	723268	keystroke_Key.enter	Key.enter	n/a
361.6835	6.207	723367	prompt	n/a	biol hostels cups storm\n
362.339	0.105	724678	keystroke_b	b	n/a
362.639	0.075	725278	keystroke_i	i	n/a
362.8935	0.09	725787	keystroke_o	o	n/a
363.0885	0.09	726177	keystroke_l	l	n/a
363.2385	0.12	726477	keystroke_Key.space	Key.space	n/a
363.8385	0.06	727677	keystroke_h	h	n/a
364.2435	0.105	728487	keystroke_o	o	n/a
364.4535	0.12	728907	keystroke_s	s	n/a
364.6785	0.045	729357	keystroke_t	t	n/a
364.8135	0.105	729627	keystroke_e	e	n/a
364.9335	0.12	729867	keystroke_l	l	n/a
365.0685	0.15	730137	keystroke_s	s	n/a
365.2335	0.105	730467	keystroke_Key.space	Key.space	n/a
365.4285	0.151	730857	keystroke_c	c	n/a
365.9845	0.06	731969	keystroke_u	u	n/a
366.2095	0.105	732419	keystroke_p	p	n/a
366.5845	0.135	733169	keystroke_s	s	n/a
366.8545	0.0895	733709	keystroke_Key.space	Key.space	n/a
367.064	0.15	734128	keystroke_s	s	n/a
367.229	0.105	734458	keystroke_t	t	n/a
367.3635	0.105	734727	keystroke_o	o	n/a
367.4835	0.105	734967	keystroke_r	r	n/a
367.6185	0.075	735237	keystroke_m	m	n/a
367.8285	0.06	735657	keystroke_Key.enter	Key.enter	n/a
367.893	6.3575	735786	prompt	n/a	pubmed smile tiffany samuel\n
368.6385	0.03	737277	keystroke_p	p	n/a
368.7435	0.06	737487	keystroke_u	u	n/a
368.969	0.075	737938	keystroke_m	m	n/a
369.224	0.105	738448	keystroke_b	b	n/a
369.554	0.1345	739108	keystroke_e	e	n/a
369.8685	0.12	739737	keystroke_d	d	n/a
370.0035	0.1355	740007	keystroke_Key.space	Key.space	n/a
370.319	0.12	740638	keystroke_s	s	n/a
370.484	0.09	740968	keystroke_m	m	n/a
370.664	0.06	741328	keystroke_i	i	n/a
370.814	0.105	741628	keystroke_l	l	n/a
370.994	0.135	741988	keystroke_e	e	n/a
371.4285	0.1055	742857	keystroke_Key.space	Key.space	n/a
371.639	0.105	743278	keystroke_t	t	n/a
371.789	0.06	743578	keystroke_i	i	n/a
371.924	0.06	743848	keystroke_f	f	n/a
372.074	0.075	744148	keystroke_f	f	n/a
372.269	0.12	744538	keystroke_a	a	n/a
372.374	0.06	744748	keystroke_n	n	n/a
372.584	0.06	745168	keystroke_y	y	n/a
372.704	0.12	745408	keystroke_Key.space	Key.space	n/a
372.989	0.105	745978	keystroke_s	s	n/a
373.124	0.135	746248	keystroke_a	a	n/a
373.304	0.075	746608	keystroke_m	m	n/a
373.604	0.075	747208	keystroke_u	u	n/a
373.814	0.09	747628	keystroke_e	e	n/a
373.949	0.075	747898	keystroke_l	l	n/a
374.174	0.075	748348	keystroke_Key.enter	Key.enter	n/a
374.253	8.592	748506	prompt	n/a	elect folding broadcasting metadata\n
374.999	0.12	749998	keystroke_e	e	n/a
375.164	0.105	750328	keystroke_l	l	n/a
375.284	0.105	750568	keystroke_e	e	n/a
375.5085	0.1055	751017	keystroke_c	c	n/a
375.749	0.135	751498	keystroke_t	t	n/a
375.869	0.15	751738	keystroke_Key.space	Key.space	n/a
376.139	0.15	752278	keystroke_f	f	n/a
376.274	0.075	752548	keystroke_o	o	n/a
376.454	0.09	752908	keystroke_l	l	n/a
376.529	0.12	753058	keystroke_d	d	n/a
376.694	0.06	753388	keystroke_i	i	n/a
376.904	0.045	753808	keystroke_n	n	n/a
376.964	0.15	753928	keystroke_g	g	n/a
377.129	0.15	754258	keystroke_Key.space	Key.space	n/a
377.474	0.105	754948	keystroke_b	b	n/a
377.8785	0.105	755757	keystroke_r	r	n/a
378.0585	0.105	756117	keystroke_o	o	n/a
378.2085	0.135	756417	keystroke_a	a	n/a
378.3285	0.12	756657	keystroke_d	d	n/a
378.7335	0.15	757467	keystroke_c	c	n/a
378.8685	0.225	757737	keystroke_a	a	n/a
379.1085	0.15	758217	keystroke_s	s	n/a
379.3785	0.075	758757	keystroke_t	t	n/a
379.5135	0.075	759027	keystroke_i	i	n/a
379.7085	0.075	759417	keystroke_n	n	n/a
379.7685	0.12	759537	keystroke_g	g	n/a
379.8885	0.105	759777	keystroke_Key.space	Key.space	n/a
380.0535	0.075	760107	keystroke_m	m	n/a
380.2335	0.12	760467	keystroke_e	e	n/a
380.7885	0.06	761577	keystroke_t	t	n/a
380.9835	0.15	761967	keystroke_a	a	n/a
381.4935	0.09	762987	keystroke_d	d	n/a
381.6585	0.12	763317	keystroke_a	a	n/a
382.3935	0.075	764787	keystroke_t	t	n/a
382.5435	0.105	765087	keystroke_a	a	n/a
382.7835	0.06	765567	keystroke_Key.enter	Key.enter	n/a
382.8485	10.227	765697	prompt	n/a	colleague factor crossing proposals\n
383.5485	0.1205	767097	keystroke_c	c	n/a
383.714	0.06	767428	keystroke_o	o	n/a
383.909	0.06	767818	keystroke_l	l	n/a
384.044	0.075	768088	keystroke_l	l	n/a
384.164	0.12	768328	keystroke_e	e	n/a
385.424	0.12	770848	keystroke_a	a	n/a
386.129	0.015	772258	keystroke_g	g	n/a
386.159	0.015	772318	keystroke_u	u	n/a
386.279	0.12	772558	keystroke_e	e	n/a
386.474	0.135	772948	keystroke_Key.space	Key.space	n/a
387.014	0.12	774028	keystroke_f	f	n/a
387.299	0.135	774598	keystroke_a	a	n/a
387.479	0.12	774958	keystroke_c	c	n/a
387.734	0.075	775468	keystroke_t	t	n/a
387.839	0.09	775678	keystroke_o	o	n/a
387.944	0.12	775888	keystroke_r	r	n/a
388.049	0.12	776098	keystroke_Key.space	Key.space	n/a
388.229	0.105	776458	keystroke_c	c	n/a
388.454	0.09	776908	keystroke_r	r	n/a
388.589	0.09	777178	keystroke_o	o	n/a
388.724	0.12	777448	keystroke_s	s	n/a
388.844	0.09	777688	keystroke_i	i	n/a
389.534	0.0595	779068	keystroke_Key.backspace	Key.backspace	n/a
389.9835	0.09	779967	keystroke_s	s	n/a
390.0885	0.075	780177	keystroke_i	i	n/a
390.299	0.0745	780598	keystroke_n	n	n/a
390.4035	0.135	780807	keystroke_g	g	n/a
390.5085	0.1355	781017	keystroke_Key.space	Key.space	n/a
390.749	0.1045	781498	keystroke_p	p	n/a
391.0335	0.075	782067	keystroke_r	r	n/a
391.1535	0.0905	782307	keystroke_o	o	n/a
391.379	0.09	782758	keystroke_p	p	n/a
391.559	0.09	783118	keystroke_o	o	n/a
391.739	0.135	783478	keystroke_s	s	n/a
391.889	0.1195	783778	keystroke_a	a	n/a
392.2335	0.09	784467	keystroke_l	l	n/a
392.819	0.09	785638	keystroke_s	s	n/a
392.999	0.075	785998	keystroke_Key.enter	Key.enter	n/a
393.0805	5.695	786161	prompt	n/a	blacks kill collect decor\n
393.808	0.106	787616	keystroke_b	b	n/a
394.034	0.12	788068	keystroke_l	l	n/a
394.139	0.1355	788278	keystroke_a	a	n/a
394.2895	0.135	788579	keystroke_c	c	n/a
394.4385	0.075	788877	keystroke_k	k	n/a
394.5595	0.12	789119	keystroke_s	s	n/a
394.6935	0.15	789387	keystroke_Key.space	Key.space	n/a
395.0395	0.059	790079	keystroke_k	k	n/a
395.2035	0.061	790407	keystroke_i	i	n/a
395.4135	0.075	790827	keystroke_l	l	n/a
395.594	0.09	791188	keystroke_l	l	n/a
395.7885	0.12	791577	keystroke_Key.space	Key.space	n/a
396.0735	0.12	792147	keystroke_c	c	n/a
396.2235	0.075	792447	keystroke_o	o	n/a
396.419	0.06	792838	keystroke_l	l	n/a
396.569	0.0895	793138	keystroke_l	l	n/a
396.689	0.1045	793378	keystroke_e	e	n/a
396.8685	0.1205	793737	keystroke_c	c	n/a
397.154	0.12	794308	keystroke_t	t	n/a
397.2885	0.15	794577	keystroke_Key.space	Key.space	n/a
397.4685	0.0905	794937	keystroke_d	d	n/a
397.754	0.015	795508	keystroke_e	e	n/a
397.844	0.12	795688	keystroke_c	c	n/a
398.009	0.09	796018	keystroke_o	o	n/a
398.474	0.0895	796948	keystroke_r	r	n/a
398.6835	0.09	797367	keystroke_Key.enter	Key.enter	n/a
398.7785	5.952	797557	prompt	n/a	paid propose gaps respect\n
399.5385	0.105	799077	keystroke_p	p	n/a
399.7185	0.135	799437	keystroke_a	a	n/a
399.8385	0.075	799677	keystroke_i	i	n/a
399.9585	0.15	799917	keystroke_d	d	n/a
400.0785	0.135	800157	keystroke_Key.space	Key.space	n/a
400.3035	0.105	800607	keystroke_p	p	n/a
400.5285	0.105	801057	keystroke_r	r	n/a
400.6935	0.105	801387	keystroke_o	o	n/a
401.1585	0.045	802317	keystroke_p	p	n/a
401.6235	0.045	803247	keystroke_o	o	n/a
401.6985	0.165	803397	keystroke_s	s	n/a
401.8335	0.135	803667	keystroke_e	e	n/a
402.0585	0.12	804117	keystroke_Key.space	Key.space	n/a
402.4635	0.09	804927	keystroke_g	g	n/a
402.5835	0.121	805167	keystroke_a	a	n/a
402.7185	0.106	805437	keystroke_p	p	n/a
402.8835	0.12	805767	keystroke_s	s	n/a
403.0195	0.149	806039	keystroke_Key.space	Key.space	n/a
403.4995	0.149	806999	keystroke_r	r	n/a
403.6045	0.105	807209	keystroke_e	e	n/a
403.7835	0.225	807567	keystroke_s	s	n/a
403.9035	0.09	807807	keystroke_p	p	n/a
404.0235	0.135	808047	keystroke_e	e	n/a
404.2335	0.105	808467	keystroke_c	c	n/a
404.4885	0.09	808977	keystroke_t	t	n/a
404.6685	0.06	809337	keystroke_Key.enter	Key.enter	n/a
404.7335	11.067	809467	prompt	n/a	meals kazakhstan implementing wrap\n
405.4935	0.09	810987	keystroke_m	m	n/a
405.5845	0.134	811169	keystroke_e	e	n/a
405.7335	0.12	811467	keystroke_a	a	n/a
405.8235	0.12	811647	keystroke_l	l	n/a
405.9735	0.12	811947	keystroke_s	s	n/a
406.1235	0.18	812247	keystroke_Key.space	Key.space	n/a
407.369	0.09	814738	keystroke_k	k	n/a
407.6085	0.135	815217	keystroke_a	a	n/a
408.2385	0.0455	816477	keystroke_z	z	n/a
408.329	0.09	816658	keystroke_a	a	n/a
409.9035	0.12	819807	keystroke_k	k	n/a
410.4735	0.105	820947	keystroke_h	h	n/a
410.9835	0.105	821967	keystroke_s	s	n/a
411.2085	0.075	822417	keystroke_t	t	n/a
411.3285	0.135	822657	keystroke_a	a	n/a
411.4935	0.06	822987	keystroke_n	n	n/a
411.584	0.135	823168	keystroke_Key.space	Key.space	n/a
412.019	0.06	824038	keystroke_i	i	n/a
412.199	0.09	824398	keystroke_m	m	n/a
412.409	0.09	824818	keystroke_p	p	n/a
412.619	0.09	825238	keystroke_l	l	n/a
413.549	0.09	827098	keystroke_e	e	n/a
413.954	0.075	827908	keystroke_m	m	n/a
414.044	0.165	828088	keystroke_e	e	n/a
414.164	0.06	828328	keystroke_n	n	n/a
414.299	0.105	828598	keystroke_t	t	n/a
414.419	0.075	828838	keystroke_i	i	n/a
414.599	0.0755	829198	keystroke_n	n	n/a
414.644	0.1055	829288	keystroke_g	g	n/a
414.7195	0.134	829439	keystroke_Key.space	Key.space	n/a
414.8835	0.121	829767	keystroke_w	w	n/a
415.0645	0.104	830129	keystroke_r	r	n/a
415.3495	0.135	830699	keystroke_a	a	n/a
415.499	0.0755	830998	keystroke_p	p	n/a
415.7395	0.059	831479	keystroke_Key.enter	Key.enter	n/a
415.803	16.8275	831606	prompt	n/a	robinson thorough we'd've a\n
416.459	0.135	832918	keystroke_r	r	n/a
416.834	0.105	833668	keystroke_o	o	n/a
417.014	0.135	834028	keystroke_b	b	n/a
417.224	0.045	834448	keystroke_i	i	n/a
417.389	0.075	834778	keystroke_n	n	n/a
417.494	0.12	834988	keystroke_s	s	n/a
417.599	0.12	835198	keystroke_o	o	n/a
417.779	0.09	835558	keystroke_n	n	n/a
417.854	0.165	835708	keystroke_Key.space	Key.space	n/a
418.094	0.075	836188	keystroke_t	t	n/a
418.244	0.105	836488	keystroke_h	h	n/a
418.814	0.06	837628	keystroke_r	r	n/a
421.6515	0.027	843303	keystroke_Key.backspace	Key.backspace	n/a
422.1295	0.1045	844259	keystroke_o	o	n/a
422.609	0.075	845218	keystroke_r	r	n/a
423.014	0.105	846028	keystroke_o	o	n/a
423.389	0.075	846778	keystroke_g	g	n/a
423.509	0.09	847018	keystroke_h	h	n/a
423.689	0.105	847378	keystroke_t	t	n/a
424.259	0.045	848518	keystroke_Key.backspace	Key.backspace	n/a
424.349	0.1345	848698	keystroke_Key.space	Key.space	n/a
425.249	0.09	850498	keystroke_Key.backspace	Key.backspace	n/a
426.044	0.105	852088	keystroke_Key.backspace	Key.backspace	n/a
426.899	0.06	853798	keystroke_Key.backspace	Key.backspace	n/a
427.409	0.075	854818	keystroke_u	u	n/a
427.5895	0.09	855179	keystroke_g	g	n/a
427.6945	0.075	855389	keystroke_h	h	n/a
427.8435	0.165	855687	keystroke_Key.space	Key.space	n/a
428.5495	0.119	857099	keystroke_w	w	n/a
428.6545	0.119	857309	keystroke_e	e	n/a
429.4935	0.06	858987	keystroke_'	'	n/a
429.9435	0.09	859887	keystroke_d	d	n/a
431.144	0.0745	862288	keystroke_'	'	n/a
431.4735	0.09	862947	keystroke_v	v	n/a
431.6685	0.15	863337	keystroke_e	e	n/a
431.8335	0.12	863667	keystroke_Key.space	Key.space	n/a
431.9985	0.12	863997	keystroke_a	a	n/a
432.5535	0.075	865107	keystroke_Key.enter	Key.enter	n/a
432.635	8.0655	865270	prompt	n/a	camcorder attempted receiver sponsor\n
433.3635	0.121	866727	keystroke_c	c	n/a
433.6795	0.105	867359	keystroke_a	a	n/a
433.7995	0.09	867599	keystroke_m	m	n/a
434.0695	0.12	868139	keystroke_c	c	n/a
434.2345	0.09	868469	keystroke_o	o	n/a
434.3695	0.075	868739	keystroke_r	r	n/a
434.5345	0.06	869069	keystroke_d	d	n/a
434.6845	0.12	869369	keystroke_e	e	n/a
434.7895	0.12	869579	keystroke_r	r	n/a
434.8795	0.165	869759	keystroke_Key.space	Key.space	n/a
435.0285	0.2105	870057	keystroke_a	a	n/a
435.224	0.06	870448	keystroke_t	t	n/a
435.359	0.12	870718	keystroke_t	t	n/a
435.494	0.1045	870988	keystroke_e	e	n/a
435.5835	0.09	871167	keystroke_m	m	n/a
435.7485	0.091	871497	keystroke_p	p	n/a
435.8535	0.09	871707	keystroke_e	e	n/a
436.1385	0.0755	872277	keystroke_t	t	n/a
436.4085	0.0605	872817	keystroke_Key.backspace	Key.backspace	n/a
436.8285	0.0755	873657	keystroke_Key.backspace	Key.backspace	n/a
436.949	0.1495	873898	keystroke_t	t	n/a
437.0995	0.0895	874199	keystroke_e	e	n/a
437.3085	0.135	874617	keystroke_d	d	n/a
437.4285	0.1355	874857	keystroke_Key.space	Key.space	n/a
437.789	0.1195	875578	keystroke_r	r	n/a
437.8785	0.18	875757	keystroke_e	e	n/a
438.1335	0.15	876267	keystroke_c	c	n/a
438.4185	0.09	876837	keystroke_e	e	n/a
438.5685	0.075	877137	keystroke_i	i	n/a
438.7635	0.105	877527	keystroke_v	v	n/a
438.9735	0.1505	877947	keystroke_e	e	n/a
439.079	0.1505	878158	keystroke_r	r	n/a
439.214	0.1505	878428	keystroke_Key.space	Key.space	n/a
439.409	0.12	878818	keystroke_s	s	n/a
439.574	0.09	879148	keystroke_p	p	n/a
439.769	0.075	879538	keystroke_o	o	n/a
439.949	0.06	879898	keystroke_n	n	n/a
440.114	0.12	880228	keystroke_s	s	n/a
440.279	0.12	880558	keystroke_o	o	n/a
440.384	0.105	880768	keystroke_r	r	n/a
440.6235	0.075	881247	keystroke_Key.enter	Key.enter	n/a
440.7035	7.917	881407	prompt	n/a	cash gordon contest commissions\n
441.359	0.0605	882718	keystroke_c	c	n/a
441.404	0.1655	882808	keystroke_a	a	n/a
441.539	0.1055	883078	keystroke_s	s	n/a
442.004	0.09	884008	keystroke_h	h	n/a
442.184	0.135	884368	keystroke_Key.space	Key.space	n/a
442.7395	0.105	885479	keystroke_g	g	n/a
442.9185	0.1205	885837	keystroke_o	o	n/a
443.054	0.075	886108	keystroke_r	r	n/a
443.294	0.075	886588	keystroke_d	d	n/a
443.429	0.18	886858	keystroke_o	o	n/a
443.594	0.105	887188	keystroke_n	n	n/a
443.774	0.12	887548	keystroke_Key.space	Key.space	n/a
445.0795	0.105	890159	keystroke_c	c	n/a
445.2145	0.12	890429	keystroke_o	o	n/a
445.3645	0.09	890729	keystroke_n	n	n/a
445.4395	0.104	890879	keystroke_t	t	n/a
445.5445	0.134	891089	keystroke_e	e	n/a
445.7235	0.225	891447	keystroke_s	s	n/a
445.9185	0.121	891837	keystroke_t	t	n/a
446.0545	0.15	892109	keystroke_Key.space	Key.space	n/a
446.3245	0.15	892649	keystroke_c	c	n/a
446.5345	0.09	893069	keystroke_o	o	n/a
446.7295	0.045	893459	keystroke_m	m	n/a
446.8645	0.06	893729	keystroke_m	m	n/a
447.0445	0.06	894089	keystroke_i	i	n/a
447.2095	0.105	894419	keystroke_s	s	n/a
447.5995	0.09	895199	keystroke_s	s	n/a
447.7345	0.21	895469	keystroke_i	i	n/a
447.8545	0.18	895709	keystroke_o	o	n/a
448.0495	0.104	896099	keystroke_n	n	n/a
448.1845	0.12	896369	keystroke_s	s	n/a
448.5445	0.075	897089	keystroke_Key.enter	Key.enter	n/a
448.624	7.8565	897248	prompt	n/a	build track welcome stockholm\n
449.3845	0.119	898769	keystroke_b	b	n/a
449.5945	0.074	899189	keystroke_u	u	n/a
449.9695	0.06	899939	keystroke_i	i	n/a
450.119	0.105	900238	keystroke_l	l	n/a
450.269	0.135	900538	keystroke_d	d	n/a
450.434	0.15	900868	keystroke_Key.space	Key.space	n/a
450.824	0.075	901648	keystroke_t	t	n/a
451.019	0.09	902038	keystroke_r	r	n/a
451.094	0.1655	902188	keystroke_a	a	n/a
451.2745	0.12	902549	keystroke_c	c	n/a
451.4535	0.091	902907	keystroke_k	k	n/a
451.5735	0.12	903147	keystroke_Key.space	Key.space	n/a
451.9035	0.136	903807	keystroke_w	w	n/a
452.0245	0.12	904049	keystroke_e	e	n/a
452.1745	0.12	904349	keystroke_l	l	n/a
452.3535	0.136	904707	keystroke_c	c	n/a
452.4745	0.105	904949	keystroke_o	o	n/a
452.954	0.06	905908	keystroke_m	m	n/a
453.059	0.135	906118	keystroke_e	e	n/a
453.209	0.165	906418	keystroke_Key.space	Key.space	n/a
453.419	0.09	906838	keystroke_s	s	n/a
453.869	0.075	907738	keystroke_t	t	n/a
454.604	0.075	909208	keystroke_o	o	n/a
454.874	0.135	909748	keystroke_c	c	n/a
455.024	0.075	910048	keystroke_k	k	n/a
455.384	0.075	910768	keystroke_h	h	n/a
455.624	0.075	911248	keystroke_o	o	n/a
455.834	0.09	911668	keystroke_l	l	n/a
456.179	0.06	912358	keystroke_m	m	n/a
456.4495	0.0295	912899	keystroke_Key.enter	Key.enter	n/a
456.4845	7.1815	912969	prompt	n/a	fight retained porcelain remind\n
457.0945	0.135	914189	keystroke_f	f	n/a
457.2445	0.075	914489	keystroke_i	i	n/a
457.3645	0.09	914729	keystroke_g	g	n/a
457.4695	0.075	914939	keystroke_h	h	n/a
457.5745	0.105	915149	keystroke_t	t	n/a
457.7545	0.15	915509	keystroke_Key.space	Key.space	n/a
458.3995	0.12	916799	keystroke_r	r	n/a
458.4745	0.135	916949	keystroke_e	e	n/a
458.6845	0.12	917369	keystroke_t	t	n/a
458.7895	0.15	917579	keystroke_a	a	n/a
458.8795	0.075	917759	keystroke_i	i	n/a
459.0595	0.075	918119	keystroke_n	n	n/a
459.1045	0.09	918209	keystroke_e	e	n/a
459.3295	0.135	918659	keystroke_d	d	n/a
459.4495	0.15	918899	keystroke_Key.space	Key.space	n/a
459.7645	0.075	919529	keystroke_p	p	n/a
460.3045	0.195	920609	keystroke_o	o	n/a
460.5135	0.016	921027	keystroke_r	r	n/a
460.7095	0.195	921419	keystroke_c	c	n/a
460.8745	0.105	921749	keystroke_e	e	n/a
461.039	0.09	922078	keystroke_l	l	n/a
461.669	0.09	923338	keystroke_a	a	n/a
461.774	0.075	923548	keystroke_i	i	n/a
461.984	0.06	923968	keystroke_n	n	n/a
462.104	0.15	924208	keystroke_Key.space	Key.space	n/a
462.584	0.121	925168	keystroke_r	r	n/a
462.674	0.12	925348	keystroke_e	e	n/a
462.869	0.075	925738	keystroke_m	m	n/a
462.974	0.075	925948	keystroke_i	i	n/a
463.274	0.075	926548	keystroke_n	n	n/a
463.394	0.09	926788	keystroke_d	d	n/a
463.589	0.075	927178	keystroke_Key.enter	Key.enter	n/a
463.6695	7.391	927339	prompt	n/a	ready relations reef cheapest\n
464.339	0.135	928678	keystroke_r	r	n/a
464.444	0.135	928888	keystroke_e	e	n/a
464.549	0.12	929098	keystroke_a	a	n/a
464.699	0.12	929398	keystroke_d	d	n/a
464.909	0.06	929818	keystroke_y	y	n/a
464.984	0.135	929968	keystroke_Key.space	Key.space	n/a
465.149	0.105	930298	keystroke_r	r	n/a
465.239	0.09	930478	keystroke_e	e	n/a
465.344	0.1355	930688	keystroke_l	l	n/a
465.51	0.1795	931020	keystroke_a	a	n/a
465.6735	0.0765	931347	keystroke_t	t	n/a
465.7935	0.2415	931587	keystroke_i	i	n/a
465.914	0.196	931828	keystroke_o	o	n/a
466.094	0.105	932188	keystroke_n	n	n/a
466.274	0.1055	932548	keystroke_s	s	n/a
466.5595	0.12	933119	keystroke_Key.space	Key.space	n/a
467.0845	0.12	934169	keystroke_r	r	n/a
467.2045	0.1355	934409	keystroke_e	e	n/a
467.609	0.09	935218	keystroke_e	e	n/a
467.999	0.1805	935998	keystroke_f	f	n/a
468.3585	0.106	936717	keystroke_Key.space	Key.space	n/a
468.6145	0.12	937229	keystroke_c	c	n/a
468.7345	0.06	937469	keystroke_h	h	n/a
468.8245	0.105	937649	keystroke_e	e	n/a
469.829	0.12	939658	keystroke_a	a	n/a
469.979	0.09	939958	keystroke_p	p	n/a
470.219	0.105	940438	keystroke_e	e	n/a
470.399	0.285	940798	keystroke_s	s	n/a
470.669	0.09	941338	keystroke_t	t	n/a
470.999	0.06	941998	keystroke_Key.enter	Key.enter	n/a
471.064	8.877	942128	prompt	n/a	rugby sector telecommunications flex\n
472.064	0.12	944128	keystroke_r	r	n/a
472.244	0.075	944488	keystroke_u	u	n/a
472.829	0.09	945658	keystroke_g	g	n/a
473.129	0.045	946258	keystroke_b	b	n/a
473.384	0.06	946768	keystroke_y	y	n/a
473.579	0.135	947158	keystroke_Key.space	Key.space	n/a
474.254	0.135	948508	keystroke_s	s	n/a
474.404	0.075	948808	keystroke_e	e	n/a
474.584	0.1055	949168	keystroke_c	c	n/a
474.8095	0.12	949619	keystroke_t	t	n/a
474.9745	0.105	949949	keystroke_o	o	n/a
475.0945	0.09	950189	keystroke_r	r	n/a
475.2295	0.18	950459	keystroke_Key.space	Key.space	n/a
475.8145	0.135	951629	keystroke_t	t	n/a
475.9345	0.12	951869	keystroke_e	e	n/a
476.0995	0.135	952199	keystroke_l	l	n/a
476.2195	0.135	952439	keystroke_e	e	n/a
476.4745	0.09	952949	keystroke_c	c	n/a
476.5795	0.135	953159	keystroke_o	o	n/a
476.7595	0.09	953519	keystroke_m	m	n/a
476.9995	0.09	953999	keystroke_m	m	n/a
477.2095	0.06	954419	keystroke_u	u	n/a
477.4045	0.06	954809	keystroke_n	n	n/a
477.5545	0.075	955109	keystroke_i	i	n/a
477.6595	0.165	955319	keystroke_c	c	n/a
477.7945	0.18	955589	keystroke_a	a	n/a
478.0195	0.12	956039	keystroke_t	t	n/a
478.0945	0.225	956189	keystroke_i	i	n/a
478.1995	0.165	956399	keystroke_o	o	n/a
478.3495	0.12	956699	keystroke_n	n	n/a
478.4545	0.135	956909	keystroke_s	s	n/a
478.6045	0.105	957209	keystroke_Key.space	Key.space	n/a
479.234	0.105	958468	keystroke_f	f	n/a
479.384	0.121	958768	keystroke_l	l	n/a
479.474	0.09	958948	keystroke_e	e	n/a
479.714	0.075	959428	keystroke_x	x	n/a
479.909	0.03	959818	keystroke_Key.enter	Key.enter	n/a
479.944	9.192	959888	prompt	n/a	myspace trackbacks financing tank\n
480.704	0.075	961408	keystroke_m	m	n/a
480.914	0.075	961828	keystroke_y	y	n/a
481.094	0.09	962188	keystroke_s	s	n/a
481.199	0.075	962398	keystroke_p	p	n/a
481.319	0.1805	962638	keystroke_a	a	n/a
481.5145	0.165	963029	keystroke_c	c	n/a
481.6945	0.135	963389	keystroke_e	e	n/a
482.5645	0.135	965129	keystroke_Key.space	Key.space	n/a
482.9095	0.105	965819	keystroke_t	t	n/a
483.1495	0.135	966299	keystroke_r	r	n/a
483.2695	0.165	966539	keystroke_a	a	n/a
483.8245	0.12	967649	keystroke_c	c	n/a
483.9745	0.06	967949	keystroke_k	k	n/a
484.26	0.12	968520	keystroke_b	b	n/a
484.4845	0.1505	968969	keystroke_a	a	n/a
484.62	0.12	969240	keystroke_c	c	n/a
484.755	0.09	969510	keystroke_k	k	n/a
484.92	0.105	969840	keystroke_s	s	n/a
485.19	0.1045	970380	keystroke_Key.space	Key.space	n/a
485.4895	0.1345	970979	keystroke_f	f	n/a
485.699	0.075	971398	keystroke_i	i	n/a
485.939	0.06	971878	keystroke_n	n	n/a
486.8545	0.1195	973709	keystroke_a	a	n/a
487.394	0.06	974788	keystroke_n	n	n/a
487.499	0.1205	974998	keystroke_c	c	n/a
487.6345	0.075	975269	keystroke_i	i	n/a
487.829	0.0755	975658	keystroke_n	n	n/a
487.9055	0.149	975811	keystroke_g	g	n/a
488.0395	0.135	976079	keystroke_Key.space	Key.space	n/a
488.3695	0.105	976739	keystroke_t	t	n/a
488.5045	0.135	977009	keystroke_a	a	n/a
488.6695	0.15	977339	keystroke_n	n	n/a
488.8345	0.09	977669	keystroke_k	k	n/a
489.0895	0.045	978179	keystroke_Key.enter	Key.enter	n/a
489.1385	9.4025	978277	prompt	n/a	transport dental someone's completion\n
489.7795	0.09	979559	keystroke_t	t	n/a
489.9895	0.12	979979	keystroke_r	r	n/a
490.6645	0.12	981329	keystroke_a	a	n/a
490.9195	0.045	981839	keystroke_n	n	n/a
491.3995	0.03	982799	keystroke_s	s	n/a
491.5495	0.0755	983099	keystroke_p	p	n/a
491.7145	0.1055	983429	keystroke_o	o	n/a
491.805	0.0895	983610	keystroke_r	r	n/a
492.015	0.09	984030	keystroke_t	t	n/a
492.269	0.15	984538	keystroke_Key.space	Key.space	n/a
492.96	0.059	985920	keystroke_d	d	n/a
493.109	0.105	986218	keystroke_e	e	n/a
493.259	0.09	986518	keystroke_n	n	n/a
493.364	0.075	986728	keystroke_t	t	n/a
493.484	0.1505	986968	keystroke_a	a	n/a
493.5895	0.105	987179	keystroke_l	l	n/a
493.9345	0.12	987869	keystroke_Key.space	Key.space	n/a
494.1145	0.105	988229	keystroke_s	s	n/a
494.2345	0.09	988469	keystroke_o	o	n/a
494.3995	0.075	988799	keystroke_m	m	n/a
494.8495	0.075	989699	keystroke_e	e	n/a
495.195	0.12	990390	keystroke_o	o	n/a
495.33	0.1045	990660	keystroke_n	n	n/a
495.4495	0.1205	990899	keystroke_e	e	n/a
496.095	0.075	992190	keystroke_'	'	n/a
496.184	0.031	992368	keystroke_s	s	n/a
496.229	0.121	992458	keystroke_Key.space	Key.space	n/a
496.6945	0.06	993389	keystroke_c	c	n/a
496.7395	0.12	993479	keystroke_o	o	n/a
496.9045	0.105	993809	keystroke_m	m	n/a
497.0995	0.075	994199	keystroke_p	p	n/a
497.2945	0.12	994589	keystroke_l	l	n/a
497.4595	0.105	994919	keystroke_e	e	n/a
497.7145	0.045	995429	keystroke_t	t	n/a
497.9245	0.285	995849	keystroke_i	i	n/a
498.0745	0.18	996149	keystroke_o	o	n/a
498.2395	0.075	996479	keystroke_n	n	n/a
498.4795	0.06	996959	keystroke_Key.enter	Key.enter	n/a
498.5445	11.0065	997089	prompt	n/a	trail zambia russell attacks\n
499.439	0.091	998878	keystroke_t	t	n/a
499.649	0.105	999298	keystroke_r	r	n/a
499.769	0.18	999538	keystroke_a	a	n/a
499.964	0.06	999928	keystroke_i	i	n/a
500.114	0.105	1000228	keystroke_l	l	n/a
500.234	0.15	1000468	keystroke_Key.space	Key.space	n/a
501.104	0.12	1002208	keystroke_z	z	n/a
501.299	0.1205	1002598	keystroke_a	a	n/a
501.4645	0.075	1002929	keystroke_m	m	n/a
501.75	0.105	1003500	keystroke_b	b	n/a
501.885	0.074	1003770	keystroke_i	i	n/a
502.199	0.105	1004398	keystroke_a	a	n/a
502.364	0.165	1004728	keystroke_Key.space	Key.space	n/a
503.039	0.06	1006078	keystroke_u	u	n/a
503.4145	0.09	1006829	keystroke_r	r	n/a
503.6695	0.09	1007339	keystroke_s	s	n/a
503.8495	0.075	1007699	keystroke_s	s	n/a
504.4195	0.075	1008839	keystroke_Key.backspace	Key.backspace	n/a
504.8845	0.06	1009769	keystroke_Key.backspace	Key.backspace	n/a
505.3195	0.075	1010639	keystroke_Key.backspace	Key.backspace	n/a
505.6645	0.06	1011329	keystroke_Key.backspace	Key.backspace	n/a
505.7995	0.09	1011599	keystroke_r	r	n/a
506.0095	0.06	1012019	keystroke_u	u	n/a
506.61	0.12	1013220	keystroke_s	s	n/a
506.849	0.105	1013698	keystroke_s	s	n/a
506.999	0.09	1013998	keystroke_e	e	n/a
507.239	0.045	1014478	keystroke_l	l	n/a
507.39	0.09	1014780	keystroke_l	l	n/a
507.494	0.12	1014988	keystroke_Key.space	Key.space	n/a
507.75	0.194	1015500	keystroke_a	a	n/a
508.004	0.09	1016008	keystroke_t	t	n/a
508.425	0.074	1016850	keystroke_t	t	n/a
508.679	0.1655	1017358	keystroke_a	a	n/a
508.8895	0.105	1017779	keystroke_c	c	n/a
509.0545	0.105	1018109	keystroke_k	k	n/a
509.2645	0.09	1018529	keystroke_s	s	n/a
509.4895	0.06	1018979	keystroke_Key.enter	Key.enter	n/a
509.5535	14.3075	1019107	prompt	n/a	recognized pepper acquisitions trackback\n
510.345	0.135	1020690	keystroke_r	r	n/a
510.465	0.105	1020930	keystroke_e	e	n/a
510.795	0.105	1021590	keystroke_o	o	n/a
510.81	0.015	1021620	keystroke_c	c	n/a
511.065	0.075	1022130	keystroke_n	n	n/a
511.305	0.105	1022610	keystroke_g	g	n/a
512.024	0.075	1024048	keystroke_Key.backspace	Key.backspace	n/a
512.474	0.075	1024948	keystroke_Key.backspace	Key.backspace	n/a
512.969	0.075	1025938	keystroke_Key.backspace	Key.backspace	n/a
513.3295	0.0595	1026659	keystroke_Key.backspace	Key.backspace	n/a
513.479	0.1205	1026958	keystroke_c	c	n/a
513.6295	0.105	1027259	keystroke_o	o	n/a
514.844	0.09	1029688	keystroke_g	g	n/a
515.069	0.06	1030138	keystroke_n	n	n/a
515.204	0.075	1030408	keystroke_i	i	n/a
515.369	0.15	1030738	keystroke_z	z	n/a
515.58	0.0895	1031160	keystroke_e	e	n/a
515.79	0.15	1031580	keystroke_d	d	n/a
515.9245	0.1355	1031849	keystroke_Key.space	Key.space	n/a
516.165	0.09	1032330	keystroke_p	p	n/a
516.285	0.105	1032570	keystroke_e	e	n/a
516.6595	0.075	1033319	keystroke_p	p	n/a
516.8095	0.09	1033619	keystroke_p	p	n/a
516.9145	0.21	1033829	keystroke_e	e	n/a
517.1095	0.12	1034219	keystroke_r	r	n/a
517.3045	0.15	1034609	keystroke_Key.space	Key.space	n/a
517.4845	0.165	1034969	keystroke_a	a	n/a
518.459	0.151	1036918	keystroke_c	c	n/a
518.729	0.121	1037458	keystroke_q	q	n/a
519.164	0.09	1038328	keystroke_u	u	n/a
519.389	0.075	1038778	keystroke_i	i	n/a
519.674	0.121	1039348	keystroke_s	s	n/a
520.019	0.075	1040038	keystroke_i	i	n/a
521.1745	0.015	1042349	keystroke_t	t	n/a
521.2045	0.21	1042409	keystroke_i	i	n/a
521.2945	0.225	1042589	keystroke_o	o	n/a
521.5045	0.09	1043009	keystroke_n	n	n/a
521.6095	0.135	1043219	keystroke_s	s	n/a
521.7295	0.15	1043459	keystroke_Key.space	Key.space	n/a
522.0145	0.09	1044029	keystroke_t	t	n/a
522.2545	0.1355	1044509	keystroke_r	r	n/a
522.375	0.18	1044750	keystroke_a	a	n/a
522.6	0.12	1045200	keystroke_c	c	n/a
522.78	0.06	1045560	keystroke_k	k	n/a
523.065	0.105	1046130	keystroke_b	b	n/a
523.2	0.15	1046400	keystroke_a	a	n/a
523.335	0.134	1046670	keystroke_c	c	n/a
523.454	0.075	1046908	keystroke_k	k	n/a
523.7845	0.075	1047569	keystroke_Key.enter	Key.enter	n/a
523.8655	8.006	1047731	prompt	n/a	remain introduced foreign maintains\n
524.4145	0.135	1048829	keystroke_r	r	n/a
524.5345	0.12	1049069	keystroke_e	e	n/a
524.73	0.06	1049460	keystroke_m	m	n/a
524.91	0.135	1049820	keystroke_a	a	n/a
525	0.074	1050000	keystroke_i	i	n/a
525.209	0.061	1050418	keystroke_n	n	n/a
525.284	0.15	1050568	keystroke_Key.space	Key.space	n/a
525.794	0.06	1051588	keystroke_i	i	n/a
525.974	0.09	1051948	keystroke_n	n	n/a
526.079	0.045	1052158	keystroke_t	t	n/a
526.229	0.105	1052458	keystroke_r	r	n/a
526.319	0.075	1052638	keystroke_o	o	n/a
526.469	0.121	1052938	keystroke_d	d	n/a
526.619	0.091	1053238	keystroke_u	u	n/a
526.724	0.196	1053448	keystroke_c	c	n/a
526.905	0.105	1053810	keystroke_e	e	n/a
527.13	0.119	1054260	keystroke_d	d	n/a
527.264	0.15	1054528	keystroke_Key.space	Key.space	n/a
527.624	0.121	1055248	keystroke_f	f	n/a
527.789	0.1205	1055578	keystroke_o	o	n/a
527.8795	0.075	1055759	keystroke_r	r	n/a
528.0595	0.1205	1056119	keystroke_e	e	n/a
528.2545	0.105	1056509	keystroke_i	i	n/a
528.39	0.105	1056780	keystroke_g	g	n/a
529.095	0.1045	1058190	keystroke_n	n	n/a
529.4245	0.12	1058849	keystroke_Key.space	Key.space	n/a
529.9345	0.105	1059869	keystroke_m	m	n/a
530.2945	0.12	1060589	keystroke_a	a	n/a
530.4895	0.09	1060979	keystroke_i	i	n/a
530.6545	0.09	1061309	keystroke_n	n	n/a
530.8645	0.09	1061729	keystroke_t	t	n/a
530.9845	0.135	1061969	keystroke_a	a	n/a
531.0595	0.075	1062119	keystroke_i	i	n/a
531.2395	0.075	1062479	keystroke_n	n	n/a
531.6445	0.105	1063289	keystroke_s	s	n/a
531.8095	0.06	1063619	keystroke_Key.enter	Key.enter	n/a
531.874	7.947	1063748	prompt	n/a	atomic publications estimation athens\n
532.6045	0.105	1065209	keystroke_a	a	n/a
532.8595	0.09	1065719	keystroke_t	t	n/a
533.0095	0.105	1066019	keystroke_o	o	n/a
533.1745	0.06	1066349	keystroke_m	m	n/a
533.3395	0.06	1066679	keystroke_i	i	n/a
533.4595	0.135	1066919	keystroke_c	c	n/a
533.6395	0.135	1067279	keystroke_Key.space	Key.space	n/a
533.9995	0.09	1067999	keystroke_p	p	n/a
534.1795	0.075	1068359	keystroke_u	u	n/a
534.3445	0.105	1068689	keystroke_b	b	n/a
534.4645	0.09	1068929	keystroke_l	l	n/a
534.629	0.075	1069258	keystroke_i	i	n/a
534.734	0.165	1069468	keystroke_c	c	n/a
534.914	0.15	1069828	keystroke_a	a	n/a
535.109	0.105	1070218	keystroke_t	t	n/a
535.184	0.195	1070368	keystroke_i	i	n/a
535.319	0.165	1070638	keystroke_o	o	n/a
535.454	0.1205	1070908	keystroke_n	n	n/a
535.5595	0.135	1071119	keystroke_s	s	n/a
535.6945	0.12	1071389	keystroke_Key.space	Key.space	n/a
536.1295	0.075	1072259	keystroke_e	e	n/a
536.2945	0.15	1072589	keystroke_s	s	n/a
536.5045	0.075	1073009	keystroke_t	t	n/a
536.6995	0.075	1073399	keystroke_i	i	n/a
536.9845	0.06	1073969	keystroke_m	m	n/a
537.0745	0.165	1074149	keystroke_a	a	n/a
537.2545	0.075	1074509	keystroke_t	t	n/a
537.3445	0.27	1074689	keystroke_i	i	n/a
537.5095	0.18	1075019	keystroke_o	o	n/a
537.6745	0.135	1075349	keystroke_n	n	n/a
537.7945	0.135	1075589	keystroke_Key.space	Key.space	n/a
538.3795	0.135	1076759	keystroke_a	a	n/a
538.9195	0.09	1077839	keystroke_t	t	n/a
539.0845	0.075	1078169	keystroke_h	h	n/a
539.2495	0.12	1078499	keystroke_e	e	n/a
539.4145	0.09	1078829	keystroke_n	n	n/a
539.6095	0.09	1079219	keystroke_s	s	n/a
539.7895	0.03	1079579	keystroke_Key.enter	Key.enter	n/a
539.824	8.922	1079648	prompt	n/a	withdrawal enjoyed demands determined\n
540.5095	0.105	1081019	keystroke_w	w	n/a
540.8845	0.09	1081769	keystroke_i	i	n/a
541.0495	0.12	1082099	keystroke_t	t	n/a
541.1845	0.075	1082369	keystroke_h	h	n/a
541.4245	0.105	1082849	keystroke_d	d	n/a
541.6795	0.105	1083359	keystroke_r	r	n/a
541.8145	0.135	1083629	keystroke_a	a	n/a
542.1595	0.09	1084319	keystroke_w	w	n/a
542.3695	0.135	1084739	keystroke_a	a	n/a
542.4895	0.09	1084979	keystroke_l	l	n/a
542.6395	0.15	1085279	keystroke_Key.space	Key.space	n/a
543.3145	0.09	1086629	keystroke_e	e	n/a
543.4345	0.075	1086869	keystroke_n	n	n/a
543.615	0.09	1087230	keystroke_j	j	n/a
543.75	0.135	1087500	keystroke_o	o	n/a
543.93	0.075	1087860	keystroke_y	y	n/a
544.11	0.0745	1088220	keystroke_e	e	n/a
544.3495	0.09	1088699	keystroke_d	d	n/a
544.4245	0.105	1088849	keystroke_Key.space	Key.space	n/a
544.6345	0.075	1089269	keystroke_d	d	n/a
544.7995	0.09	1089599	keystroke_e	e	n/a
545.0095	0.075	1090019	keystroke_m	m	n/a
545.1145	0.1345	1090229	keystroke_a	a	n/a
545.219	0.09	1090438	keystroke_n	n	n/a
545.324	0.075	1090648	keystroke_d	d	n/a
545.714	0.12	1091428	keystroke_s	s	n/a
545.909	0.135	1091818	keystroke_Key.space	Key.space	n/a
546.644	0.075	1093288	keystroke_d	d	n/a
546.8995	0.075	1093799	keystroke_e	e	n/a
547.0945	0.12	1094189	keystroke_t	t	n/a
547.2295	0.195	1094459	keystroke_e	e	n/a
547.3945	0.09	1094789	keystroke_r	r	n/a
547.5595	0.06	1095119	keystroke_m	m	n/a
547.6645	0.09	1095329	keystroke_i	i	n/a
548.1295	0.075	1096259	keystroke_n	n	n/a
548.2795	0.075	1096559	keystroke_e	e	n/a
548.4745	0.075	1096949	keystroke_d	d	n/a
548.7145	0.03	1097429	keystroke_Key.enter	Key.enter	n/a
548.749	19.092	1097498	prompt	n/a	simpson establish ensures enormous\n
549.3895	0.09	1098779	keystroke_s	s	n/a
549.5695	0.075	1099139	keystroke_i	i	n/a
549.7495	0.135	1099499	keystroke_m	m	n/a
549.9445	0.075	1099889	keystroke_p	p	n/a
550.5595	0.12	1101119	keystroke_s	s	n/a
550.7845	0.075	1101569	keystroke_o	o	n/a
551.0245	0.06	1102049	keystroke_n	n	n/a
551.429	0.1505	1102858	keystroke_Key.space	Key.space	n/a
552.3295	0.075	1104659	keystroke_e	e	n/a
552.6145	0.09	1105229	keystroke_x	x	n/a
553.3495	0.015	1106699	keystroke_Key.backspace	Key.backspace	n/a
553.665	0.119	1107330	keystroke_a	a	n/a
553.859	0.151	1107718	keystroke_s	s	n/a
554.114	0.075	1108228	keystroke_t	t	n/a
554.5345	0.12	1109069	keystroke_a	a	n/a
554.6995	0.09	1109399	keystroke_b	b	n/a
554.8045	0.105	1109609	keystroke_l	l	n/a
554.969	0.06	1109938	keystroke_i	i	n/a
555.4645	0.09	1110929	keystroke_c	c	n/a
555.5995	0.06	1111199	keystroke_h	h	n/a
555.7495	0.1205	1111499	keystroke_Key.space	Key.space	n/a
556.515	0.06	1113030	keystroke_Key.backspace	Key.backspace	n/a
556.964	0.075	1113928	keystroke_Key.backspace	Key.backspace	n/a
558.0445	0.075	1116089	keystroke_Key.backspace	Key.backspace	n/a
558.5245	0.075	1117049	keystroke_Key.backspace	Key.backspace	n/a
558.9745	0.075	1117949	keystroke_Key.backspace	Key.backspace	n/a
559.4245	0.06	1118849	keystroke_Key.backspace	Key.backspace	n/a
560.009	0.061	1120018	keystroke_Key.backspace	Key.backspace	n/a
560.49	0.06	1120980	keystroke_Key.backspace	Key.backspace	n/a
561.015	0.09	1122030	keystroke_Key.backspace	Key.backspace	n/a
561.45	0.045	1122900	keystroke_Key.backspace	Key.backspace	n/a
561.615	0.105	1123230	keystroke_s	s	n/a
561.795	0.09	1123590	keystroke_t	t	n/a
562.079	0.1205	1124158	keystroke_a	a	n/a
562.2745	0.09	1124549	keystroke_b	b	n/a
563.1745	0.105	1126349	keystroke_l	l	n/a
563.3545	0.075	1126709	keystroke_i	i	n/a
563.4895	0.1055	1126979	keystroke_s	s	n/a
563.64	0.075	1127280	keystroke_h	h	n/a
563.76	0.15	1127520	keystroke_Key.space	Key.space	n/a
564.1045	0.09	1128209	keystroke_e	e	n/a
564.2845	0.075	1128569	keystroke_n	n	n/a
564.6445	0.105	1129289	keystroke_s	s	n/a
564.7645	0.06	1129529	keystroke_u	u	n/a
564.8995	0.12	1129799	keystroke_r	r	n/a
564.9895	0.12	1129979	keystroke_e	e	n/a
565.1995	0.135	1130399	keystroke_s	s	n/a
565.3495	0.15	1130699	keystroke_Key.space	Key.space	n/a
565.8445	0.09	1131689	keystroke_e	e	n/a
566.0395	0.075	1132079	keystroke_n	n	n/a
566.2645	0.105	1132529	keystroke_o	o	n/a
566.5345	0.06	1133069	keystroke_r	r	n/a
567.0445	0.075	1134089	keystroke_m	m	n/a
567.1945	0.12	1134389	keystroke_o	o	n/a
567.33	0.075	1134660	keystroke_u	u	n/a
567.555	0.1045	1135110	keystroke_s	s	n/a
567.7645	0.075	1135529	keystroke_Key.enter	Key.enter	n/a
567.8445	8.0215	1135689	prompt	n/a	deleted expects cabinet species\n
568.5295	0.015	1137059	keystroke_d	d	n/a
568.754	0.09	1137508	keystroke_e	e	n/a
568.98	0.104	1137960	keystroke_l	l	n/a
569.415	0.105	1138830	keystroke_e	e	n/a
569.6545	0.075	1139309	keystroke_t	t	n/a
569.7445	0.09	1139489	keystroke_e	e	n/a
569.9555	0.1195	1139911	keystroke_d	d	n/a
570.059	0.106	1140118	keystroke_Key.space	Key.space	n/a
570.314	0.06	1140628	keystroke_e	e	n/a
570.555	0.09	1141110	keystroke_x	x	n/a
570.795	0.105	1141590	keystroke_p	p	n/a
570.959	0.136	1141918	keystroke_e	e	n/a
571.199	0.091	1142398	keystroke_c	c	n/a
571.425	0.104	1142850	keystroke_t	t	n/a
571.7995	0.09	1143599	keystroke_s	s	n/a
571.9495	0.165	1143899	keystroke_Key.space	Key.space	n/a
572.475	0.15	1144950	keystroke_c	c	n/a
572.61	0.135	1145220	keystroke_a	a	n/a
573.12	0.09	1146240	keystroke_b	b	n/a
573.255	0.075	1146510	keystroke_i	i	n/a
573.45	0.06	1146900	keystroke_n	n	n/a
573.585	0.135	1147170	keystroke_e	e	n/a
573.765	0.105	1147530	keystroke_t	t	n/a
573.96	0.15	1147920	keystroke_Key.space	Key.space	n/a
574.275	0.105	1148550	keystroke_s	s	n/a
574.425	0.105	1148850	keystroke_p	p	n/a
574.86	0.12	1149720	keystroke_e	e	n/a
575.115	0.105	1150230	keystroke_c	c	n/a
575.28	0.09	1150560	keystroke_i	i	n/a
575.4	0.164	1150800	keystroke_e	e	n/a
575.549	0.136	1151098	keystroke_s	s	n/a
575.805	0.059	1151610	keystroke_Key.enter	Key.enter	n/a
575.8695	6.2965	1151739	prompt	n/a	formula shirt shorter ellis\n
576.48	0.104	1152960	keystroke_f	f	n/a
576.6895	0.105	1153379	keystroke_o	o	n/a
576.7645	0.075	1153529	keystroke_r	r	n/a
576.9295	0.06	1153859	keystroke_m	m	n/a
577.1695	0.075	1154339	keystroke_u	u	n/a
577.44	0.075	1154880	keystroke_l	l	n/a
577.605	0.09	1155210	keystroke_a	a	n/a
577.7695	0.135	1155539	keystroke_Key.space	Key.space	n/a
578.34	0.12	1156680	keystroke_s	s	n/a
578.49	0.06	1156980	keystroke_h	h	n/a
578.61	0.105	1157220	keystroke_i	i	n/a
578.73	0.075	1157460	keystroke_r	r	n/a
578.925	0.105	1157850	keystroke_t	t	n/a
579.06	0.15	1158120	keystroke_Key.space	Key.space	n/a
579.39	0.105	1158780	keystroke_s	s	n/a
579.48	0.06	1158960	keystroke_h	h	n/a
579.645	0.135	1159290	keystroke_o	o	n/a
579.795	0.105	1159590	keystroke_r	r	n/a
580.035	0.075	1160070	keystroke_t	t	n/a
580.215	0.165	1160430	keystroke_e	e	n/a
580.41	0.1195	1160820	keystroke_r	r	n/a
581.025	0.09	1162050	keystroke_Key.space	Key.space	n/a
581.22	0.09	1162440	keystroke_e	e	n/a
581.46	0.06	1162920	keystroke_l	l	n/a
581.625	0.09	1163250	keystroke_l	l	n/a
581.82	0.06	1163640	keystroke_i	i	n/a
581.91	0.105	1163820	keystroke_s	s	n/a
582.105	0.06	1164210	keystroke_Key.enter	Key.enter	n/a
582.1695	7.422	1164339	prompt	n/a	information wondering while flights\n
582.795	0.0595	1165590	keystroke_i	i	n/a
583.0645	0.075	1166129	keystroke_n	n	n/a
583.2445	0.09	1166489	keystroke_f	f	n/a
583.3495	0.09	1166699	keystroke_o	o	n/a
583.4695	0.06	1166939	keystroke_r	r	n/a
583.605	0.075	1167210	keystroke_m	m	n/a
583.665	0.1345	1167330	keystroke_a	a	n/a
583.8155	0.089	1167631	keystroke_t	t	n/a
583.8605	0.209	1167721	keystroke_i	i	n/a
583.9945	0.165	1167989	keystroke_o	o	n/a
584.1295	0.135	1168259	keystroke_n	n	n/a
584.3095	0.12	1168619	keystroke_Key.space	Key.space	n/a
585.1345	0.045	1170269	keystroke_w	w	n/a
585.2845	0.12	1170569	keystroke_o	o	n/a
585.4345	0.09	1170869	keystroke_n	n	n/a
585.5095	0.091	1171019	keystroke_d	d	n/a
585.6905	0.12	1171381	keystroke_e	e	n/a
585.7795	0.121	1171559	keystroke_r	r	n/a
585.9145	0.091	1171829	keystroke_i	i	n/a
586.11	0.09	1172220	keystroke_n	n	n/a
586.17	0.12	1172340	keystroke_g	g	n/a
586.305	0.105	1172610	keystroke_Key.space	Key.space	n/a
586.5455	0.134	1173091	keystroke_w	w	n/a
586.6645	0.075	1173329	keystroke_h	h	n/a
586.7695	0.135	1173539	keystroke_i	i	n/a
586.9055	0.134	1173811	keystroke_l	l	n/a
587.0245	0.12	1174049	keystroke_e	e	n/a
587.1295	0.12	1174259	keystroke_Key.space	Key.space	n/a
587.3245	0.105	1174649	keystroke_f	f	n/a
587.4755	0.0895	1174951	keystroke_i	i	n/a
588.2395	0.075	1176479	keystroke_Key.backspace	Key.backspace	n/a
588.555	0.105	1177110	keystroke_l	l	n/a
588.78	0.06	1177560	keystroke_i	i	n/a
588.93	0.075	1177860	keystroke_g	g	n/a
589.05	0.06	1178100	keystroke_h	h	n/a
589.14	0.0745	1178280	keystroke_t	t	n/a
589.3045	0.135	1178609	keystroke_s	s	n/a
589.5445	0.045	1179089	keystroke_Key.enter	Key.enter	n/a
589.594	6.9575	1179188	prompt	n/a	deliver exchanges twisted arbor\n
