onset	duration	sample	value	key	prompt_text
7.272	7.2785	14544	prompt	n/a	the quick brown fox jumps over a lazy dog\n
8.49	0.0575	16980	keystroke_t	t	n/a
8.5325	0.0905	17065	keystroke_h	h	n/a
8.638	0.1195	17276	keystroke_e	e	n/a
8.7875	0.135	17575	keystroke_Key.space	Key.space	n/a
8.8775	0.105	17755	keystroke_q	q	n/a
9.0275	0.105	18055	keystroke_u	u	n/a
9.0875	0.105	18175	keystroke_i	i	n/a
9.1775	0.1055	18355	keystroke_c	c	n/a
9.298	0.1195	18596	keystroke_k	k	n/a
9.3875	0.09	18775	keystroke_Key.space	Key.space	n/a
9.5075	0.105	19015	keystroke_b	b	n/a
9.6275	0.105	19255	keystroke_r	r	n/a
9.7475	0.105	19495	keystroke_o	o	n/a
9.9125	0.15	19825	keystroke_w	w	n/a
10.1375	0.1505	20275	keystroke_n	n	n/a
10.243	0.12	20486	keystroke_Key.space	Key.space	n/a
10.438	0.09	20876	keystroke_f	f	n/a
10.543	0.105	21086	keystroke_o	o	n/a
10.678	0.105	21356	keystroke_x	x	n/a
10.753	0.105	21506	keystroke_Key.space	Key.space	n/a
10.873	0.09	21746	keystroke_j	j	n/a
11.023	0.075	22046	keystroke_u	u	n/a
11.218	0.135	22436	keystroke_m	m	n/a
11.308	0.15	22616	keystroke_p	p	n/a
11.488	0.105	22976	keystroke_s	s	n/a
11.623	0.105	23246	keystroke_Key.space	Key.space	n/a
11.7875	0.105	23575	keystroke_o	o	n/a
11.8775	0.06	23755	keystroke_v	v	n/a
12.0875	0.12	24175	keystroke_e	e	n/a
12.1475	0.15	24295	keystroke_r	r	n/a
12.2525	0.075	24505	keystroke_Key.space	Key.space	n/a
12.3875	0.0755	24775	keystroke_a	a	n/a
12.4775	0.045	24955	keystroke_Key.space	Key.space	n/a
12.598	0.12	25196	keystroke_l	l	n/a
12.673	0.075	25346	keystroke_a	a	n/a
12.898	0.105	25796	keystroke_z	z	n/a
13.033	0.12	26066	keystroke_y	y	n/a
13.108	0.12	26216	keystroke_Key.space	Key.space	n/a
13.993	0.075	27986	keystroke_d	d	n/a
14.1285	0.105	28257	keystroke_o	o	n/a
14.2785	0.06	28557	keystroke_g	g	n/a
14.4885	0.06	28977	keystroke_Key.enter	Key.enter	n/a
14.555	7.03	29110	prompt	n/a	newport damage florence adjusted\n
15.3285	0.105	30657	keystroke_n	n	n/a
15.5085	0.06	31017	keystroke_e	e	n/a
15.7485	0.12	31497	keystroke_w	w	n/a
15.8835	0.1645	31767	keystroke_p	p	n/a
16.0035	0.15	32007	keystroke_o	o	n/a
16.1685	0.1645	32337	keystroke_r	r	n/a
16.273	0.12	32546	keystroke_t	t	n/a
16.408	0.09	32816	keystroke_Key.space	Key.space	n/a
16.603	0.195	33206	keystroke_d	d	n/a
16.693	0.15	33386	keystroke_a	a	n/a
17.428	0.12	34856	keystroke_m	m	n/a
17.563	0.075	35126	keystroke_a	a	n/a
17.773	0.15	35546	keystroke_g	g	n/a
17.848	0.15	35696	keystroke_e	e	n/a
18.058	0.1055	36116	keystroke_Key.space	Key.space	n/a
18.3435	0.12	36687	keystroke_f	f	n/a
18.4485	0.0745	36897	keystroke_l	l	n/a
18.6125	0.091	37225	keystroke_o	o	n/a
18.6885	0.15	37377	keystroke_r	r	n/a
18.7775	0.135	37555	keystroke_e	e	n/a
18.9575	0.091	37915	keystroke_n	n	n/a
19.0485	0.149	38097	keystroke_c	c	n/a
19.1375	0.15	38275	keystroke_e	e	n/a
19.3025	0.0905	38605	keystroke_Key.space	Key.space	n/a
19.603	0.09	39206	keystroke_a	a	n/a
20.368	0.09	40736	keystroke_d	d	n/a
20.459	0.059	40918	keystroke_j	j	n/a
20.578	0.12	41156	keystroke_u	u	n/a
20.683	0.135	41366	keystroke_s	s	n/a
20.833	0.135	41666	keystroke_t	t	n/a
20.923	0.105	41846	keystroke_e	e	n/a
21.133	0.075	42266	keystroke_d	d	n/a
21.4925	0.09	42985	keystroke_Key.enter	Key.enter	n/a
21.5875	6.0425	43175	prompt	n/a	reduces racks highlights burton\n
22.4235	0.135	44847	keystroke_r	r	n/a
22.4985	0.105	44997	keystroke_e	e	n/a
22.7235	0.09	45447	keystroke_d	d	n/a
22.8285	0.105	45657	keystroke_u	u	n/a
22.9035	0.18	45807	keystroke_c	c	n/a
23.0685	0.2395	46137	keystroke_e	e	n/a
23.1885	0.1805	46377	keystroke_s	s	n/a
23.338	0.09	46676	keystroke_Key.space	Key.space	n/a
23.503	0.165	47006	keystroke_r	r	n/a
23.623	0.135	47246	keystroke_a	a	n/a
23.833	0.12	47666	keystroke_c	c	n/a
23.968	0.1055	47936	keystroke_k	k	n/a
24.0585	0.12	48117	keystroke_s	s	n/a
24.1635	0.075	48327	keystroke_Key.space	Key.space	n/a
24.2985	0.105	48597	keystroke_h	h	n/a
24.3735	0.12	48747	keystroke_i	i	n/a
24.5085	0.09	49017	keystroke_g	g	n/a
24.5985	0.06	49197	keystroke_h	h	n/a
24.7785	0.075	49557	keystroke_l	l	n/a
24.9135	0.105	49827	keystroke_i	i	n/a
25.0335	0.06	50067	keystroke_s	s	n/a
25.3335	0.0745	50667	keystroke_Key.backspace	Key.backspace	n/a
25.468	0.075	50936	keystroke_g	g	n/a
25.603	0.105	51206	keystroke_h	h	n/a
25.723	0.18	51446	keystroke_t	t	n/a
25.843	0.135	51686	keystroke_s	s	n/a
26.2035	0.105	52407	keystroke_Key.space	Key.space	n/a
26.4135	0.09	52827	keystroke_b	b	n/a
26.5635	0.12	53127	keystroke_u	u	n/a
26.6985	0.165	53397	keystroke_r	r	n/a
26.8035	0.135	53607	keystroke_t	t	n/a
26.9535	0.209	53907	keystroke_o	o	n/a
27.0735	0.105	54147	keystroke_n	n	n/a
27.538	0.0905	55076	keystroke_Key.enter	Key.enter	n/a
27.6395	5.24	55279	prompt	n/a	babes smilies hunt barry\n
28.4385	0.09	56877	keystroke_b	b	n/a
28.5135	0.09	57027	keystroke_a	a	n/a
28.6485	0.0595	57297	keystroke_b	b	n/a
28.7235	0.225	57447	keystroke_e	e	n/a
28.8885	0.119	57777	keystroke_s	s	n/a
29.0525	0.1055	58105	keystroke_Key.space	Key.space	n/a
29.143	0.09	58286	keystroke_s	s	n/a
29.218	0.15	58436	keystroke_m	m	n/a
29.323	0.105	58646	keystroke_i	i	n/a
29.533	0.106	59066	keystroke_l	l	n/a
29.729	0.089	59458	keystroke_i	i	n/a
29.833	0.18	59666	keystroke_e	e	n/a
29.953	0.105	59906	keystroke_s	s	n/a
31.078	0.015	62156	keystroke_Key.space	Key.space	n/a
31.108	0.135	62216	keystroke_h	h	n/a
31.198	0.135	62396	keystroke_u	u	n/a
31.423	0.106	62846	keystroke_n	n	n/a
31.543	0.12	63086	keystroke_t	t	n/a
31.678	0.105	63356	keystroke_Key.space	Key.space	n/a
31.948	0.075	63896	keystroke_b	b	n/a
31.993	0.105	63986	keystroke_a	a	n/a
32.158	0.075	64316	keystroke_r	r	n/a
32.293	0.105	64586	keystroke_r	r	n/a
32.458	0.06	64916	keystroke_y	y	n/a
32.803	0.075	65606	keystroke_Key.enter	Key.enter	n/a
32.883	6.3115	65766	prompt	n/a	observer feel digital exams\n
34.648	0.225	69296	keystroke_o	o	n/a
34.783	0.12	69566	keystroke_b	b	n/a
34.918	0.225	69836	keystroke_s	s	n/a
35.053	0.18	70106	keystroke_e	e	n/a
35.158	0.15	70316	keystroke_r	r	n/a
35.383	0.105	70766	keystroke_v	v	n/a
35.503	0.18	71006	keystroke_e	e	n/a
35.623	0.135	71246	keystroke_r	r	n/a
35.788	0.105	71576	keystroke_Key.space	Key.space	n/a
36.013	0.18	72026	keystroke_f	f	n/a
36.118	0.12	72236	keystroke_e	e	n/a
36.313	0.105	72626	keystroke_e	e	n/a
36.419	0.1495	72838	keystroke_l	l	n/a
36.508	0.1205	73016	keystroke_Key.space	Key.space	n/a
37.108	0.075	74216	keystroke_d	d	n/a
37.2135	0.075	74427	keystroke_i	i	n/a
37.3335	0.12	74667	keystroke_g	g	n/a
37.4385	0.09	74877	keystroke_i	i	n/a
37.5435	0.09	75087	keystroke_t	t	n/a
37.7835	0.12	75567	keystroke_a	a	n/a
37.8885	0.135	75777	keystroke_l	l	n/a
37.9635	0.12	75927	keystroke_Key.space	Key.space	n/a
38.0985	0.075	76197	keystroke_e	e	n/a
38.3085	0.135	76617	keystroke_x	x	n/a
38.5035	0.105	77007	keystroke_a	a	n/a
38.5935	0.105	77187	keystroke_m	m	n/a
38.8035	0.105	77607	keystroke_s	s	n/a
39.1185	0.075	78237	keystroke_Key.enter	Key.enter	n/a
39.198	9.7535	78396	prompt	n/a	bahamas square sixth commented\n
39.8685	0.03	79737	keystroke_b	b	n/a
39.8835	0.09	79767	keystroke_a	a	n/a
40.0035	0.12	80007	keystroke_h	h	n/a
40.1535	0.105	80307	keystroke_a	a	n/a
40.3635	0.06	80727	keystroke_m	m	n/a
40.4835	0.105	80967	keystroke_a	a	n/a
40.9335	0.09	81867	keystroke_s	s	n/a
41.0535	0.09	82107	keystroke_Key.space	Key.space	n/a
41.3085	0.075	82617	keystroke_s	s	n/a
42.208	0.12	84416	keystroke_q	q	n/a
42.808	0.105	85616	keystroke_u	u	n/a
43.168	0.105	86336	keystroke_a	a	n/a
43.438	0.165	86876	keystroke_r	r	n/a
43.528	0.121	87056	keystroke_e	e	n/a
44.338	0.135	88676	keystroke_Key.space	Key.space	n/a
44.474	0.089	88948	keystroke_s	s	n/a
44.578	0.12	89156	keystroke_i	i	n/a
45.478	0.045	90956	keystroke_x	x	n/a
45.718	0.075	91436	keystroke_t	t	n/a
45.853	0.1355	91706	keystroke_h	h	n/a
45.9285	0.15	91857	keystroke_Key.space	Key.space	n/a
46.4235	0.105	92847	keystroke_c	c	n/a
46.5285	0.075	93057	keystroke_o	o	n/a
46.6935	0.06	93387	keystroke_m	m	n/a
46.8135	0.075	93627	keystroke_m	m	n/a
46.8585	0.09	93717	keystroke_e	e	n/a
47.0235	0.09	94047	keystroke_n	n	n/a
47.2335	0.1795	94467	keystroke_t	t	n/a
47.338	0.12	94676	keystroke_e	e	n/a
47.578	0.09	95156	keystroke_d	d	n/a
48.7935	0.15	97587	keystroke_Key.enter	Key.enter	n/a
48.955	5.4955	97910	prompt	n/a	anime fair towns hurricane\n
49.618	0.135	99236	keystroke_a	a	n/a
49.753	0.135	99506	keystroke_n	n	n/a
49.828	0.15	99656	keystroke_i	i	n/a
50.053	0.12	100106	keystroke_m	m	n/a
50.233	0.136	100466	keystroke_e	e	n/a
50.383	0.105	100766	keystroke_Key.space	Key.space	n/a
50.6685	0.18	101337	keystroke_f	f	n/a
50.7885	0.105	101577	keystroke_a	a	n/a
50.9085	0.12	101817	keystroke_i	i	n/a
51.0135	0.1045	102027	keystroke_r	r	n/a
51.133	0.075	102266	keystroke_Key.space	Key.space	n/a
51.283	0.135	102566	keystroke_t	t	n/a
51.403	0.105	102806	keystroke_o	o	n/a
51.493	0.105	102986	keystroke_w	w	n/a
51.778	0.106	103556	keystroke_n	n	n/a
51.868	0.106	103736	keystroke_s	s	n/a
52.0185	0.105	104037	keystroke_Key.space	Key.space	n/a
52.2885	0.105	104577	keystroke_h	h	n/a
52.3785	0.135	104757	keystroke_u	u	n/a
52.5435	0.09	105087	keystroke_r	r	n/a
52.7085	0.165	105417	keystroke_r	r	n/a
52.8135	0.135	105627	keystroke_t	t	n/a
53.3235	0.0745	106647	keystroke_Key.backspace	Key.backspace	n/a
53.548	0.105	107096	keystroke_i	i	n/a
53.638	0.165	107276	keystroke_c	c	n/a
53.758	0.135	107516	keystroke_a	a	n/a
53.939	0.075	107878	keystroke_n	n	n/a
54.028	0.091	108056	keystroke_e	e	n/a
54.373	0.0755	108746	keystroke_Key.enter	Key.enter	n/a
54.455	6.58	108910	prompt	n/a	bikini seasons systematic ctrl\n
55.0785	0.09	110157	keystroke_b	b	n/a
55.1235	0.12	110247	keystroke_i	i	n/a
55.3635	0.075	110727	keystroke_k	k	n/a
55.5435	0.09	111087	keystroke_i	i	n/a
55.8435	0.12	111687	keystroke_n	n	n/a
55.9335	0.135	111867	keystroke_i	i	n/a
56.1885	0.105	112377	keystroke_Key.space	Key.space	n/a
56.3385	0.12	112677	keystroke_s	s	n/a
56.5785	0.12	113157	keystroke_e	e	n/a
56.6535	0.24	113307	keystroke_a	a	n/a
56.8635	0.135	113727	keystroke_s	s	n/a
56.9835	0.165	113967	keystroke_o	o	n/a
57.1035	0.1205	114207	keystroke_n	n	n/a
57.238	0.121	114476	keystroke_s	s	n/a
57.373	0.09	114746	keystroke_Key.space	Key.space	n/a
57.4935	0.09	114987	keystroke_s	s	n/a
57.718	0.106	115436	keystroke_y	y	n/a
57.808	0.061	115616	keystroke_s	s	n/a
58.018	0.15	116036	keystroke_t	t	n/a
58.093	0.135	116186	keystroke_e	e	n/a
58.213	0.09	116426	keystroke_m	m	n/a
58.363	0.105	116726	keystroke_a	a	n/a
58.573	0.075	117146	keystroke_t	t	n/a
58.738	0.105	117476	keystroke_i	i	n/a
58.948	0.15	117896	keystroke_c	c	n/a
59.308	0.105	118616	keystroke_Key.space	Key.space	n/a
59.818	0.12	119636	keystroke_c	c	n/a
60.118	0.165	120236	keystroke_t	t	n/a
60.223	0.105	120446	keystroke_r	r	n/a
60.463	0.06	120926	keystroke_l	l	n/a
60.973	0.06	121946	keystroke_Key.enter	Key.enter	n/a
61.044	5.451	122088	prompt	n/a	dial defend tattoo conditions\n
61.663	0.105	123326	keystroke_d	d	n/a
61.754	0.089	123508	keystroke_i	i	n/a
61.874	0.135	123748	keystroke_a	a	n/a
61.9935	0.1205	123987	keystroke_l	l	n/a
62.069	0.12	124138	keystroke_Key.space	Key.space	n/a
62.324	0.105	124648	keystroke_d	d	n/a
62.504	0.089	125008	keystroke_e	e	n/a
62.669	0.1495	125338	keystroke_f	f	n/a
62.774	0.1045	125548	keystroke_e	e	n/a
62.8935	0.105	125787	keystroke_n	n	n/a
63.0135	0.12	126027	keystroke_d	d	n/a
63.2685	0.105	126537	keystroke_Key.space	Key.space	n/a
63.6885	0.15	127377	keystroke_t	t	n/a
63.8235	0.105	127647	keystroke_a	a	n/a
64.0185	0.06	128037	keystroke_t	t	n/a
64.1535	0.09	128307	keystroke_t	t	n/a
64.4835	0.045	128967	keystroke_o	o	n/a
64.6635	0.09	129327	keystroke_o	o	n/a
64.9035	0.12	129807	keystroke_Key.space	Key.space	n/a
65.1735	0.105	130347	keystroke_c	c	n/a
65.2335	0.165	130467	keystroke_o	o	n/a
65.3235	0.105	130647	keystroke_n	n	n/a
65.4435	0.105	130887	keystroke_d	d	n/a
65.5485	0.09	131097	keystroke_i	i	n/a
65.6985	0.105	131397	keystroke_t	t	n/a
65.7435	0.165	131487	keystroke_i	i	n/a
65.8635	0.195	131727	keystroke_o	o	n/a
65.9985	0.15	131997	keystroke_n	n	n/a
66.1635	0.1045	132327	keystroke_s	s	n/a
66.388	0.105	132776	keystroke_Key.enter	Key.enter	n/a
66.497	5.248	132994	prompt	n/a	staffing campus lion ellen\n
67.063	0.075	134126	keystroke_s	s	n/a
67.258	0.075	134516	keystroke_t	t	n/a
67.378	0.105	134756	keystroke_a	a	n/a
68.263	0.075	136526	keystroke_f	f	n/a
68.398	0.105	136796	keystroke_f	f	n/a
68.518	0.195	137036	keystroke_i	i	n/a
68.638	0.18	137276	keystroke_n	n	n/a
68.803	0.075	137606	keystroke_g	g	n/a
68.938	0.105	137876	keystroke_Key.space	Key.space	n/a
69.268	0.21	138536	keystroke_c	c	n/a
69.403	0.15	138806	keystroke_a	a	n/a
69.523	0.12	139046	keystroke_m	m	n/a
69.583	0.105	139166	keystroke_p	p	n/a
69.809	0.104	139618	keystroke_u	u	n/a
69.883	0.106	139766	keystroke_s	s	n/a
70.004	0.075	140008	keystroke_Key.space	Key.space	n/a
70.109	0.105	140218	keystroke_l	l	n/a
70.304	0.105	140608	keystroke_i	i	n/a
70.454	0.165	140908	keystroke_o	o	n/a
70.559	0.18	141118	keystroke_n	n	n/a
70.678	0.121	141356	keystroke_Key.space	Key.space	n/a
70.964	0.09	141928	keystroke_e	e	n/a
71.083	0.045	142166	keystroke_l	l	n/a
71.204	0.075	142408	keystroke_l	l	n/a
71.309	0.09	142618	keystroke_e	e	n/a
71.428	0.091	142856	keystroke_n	n	n/a
71.669	0.075	143338	keystroke_Key.enter	Key.enter	n/a
71.7535	6.246	143507	prompt	n/a	holy range shoe when's\n
72.344	0.134	144688	keystroke_h	h	n/a
72.433	0.09	144866	keystroke_o	o	n/a
72.629	0.074	145258	keystroke_l	l	n/a
73.0035	0.12	146007	keystroke_y	y	n/a
73.0935	0.12	146187	keystroke_Key.space	Key.space	n/a
73.2435	0.165	146487	keystroke_r	r	n/a
73.3485	0.12	146697	keystroke_a	a	n/a
73.4835	0.09	146967	keystroke_n	n	n/a
73.5885	0.165	147177	keystroke_g	g	n/a
73.6935	0.135	147387	keystroke_e	e	n/a
73.8435	0.09	147687	keystroke_Key.space	Key.space	n/a
74.0685	0.12	148137	keystroke_s	s	n/a
74.2035	0.105	148407	keystroke_h	h	n/a
74.2785	0.12	148557	keystroke_o	o	n/a
74.4435	0.12	148887	keystroke_w	w	n/a
74.6385	0.12	149277	keystroke_Key.space	Key.space	n/a
74.8335	0.075	149667	keystroke_w	w	n/a
74.9535	0.105	149907	keystroke_h	h	n/a
75.5685	0.075	151137	keystroke_Key.backspace	Key.backspace	n/a
75.7335	0.06	151467	keystroke_Key.backspace	Key.backspace	n/a
75.9125	0.076	151825	keystroke_Key.backspace	Key.backspace	n/a
76.154	0.06	152308	keystroke_Key.backspace	Key.backspace	n/a
76.289	0.104	152578	keystroke_e	e	n/a
76.543	0.105	153086	keystroke_Key.space	Key.space	n/a
76.949	0.12	153898	keystroke_w	w	n/a
77.053	0.075	154106	keystroke_h	h	n/a
77.173	0.12	154346	keystroke_e	e	n/a
77.338	0.12	154676	keystroke_n	n	n/a
77.533	0.075	155066	keystroke_'	'	n/a
77.653	0.105	155306	keystroke_s	s	n/a
77.938	0.06	155876	keystroke_Key.enter	Key.enter	n/a
78.002	6.298	156004	prompt	n/a	tears varieties subscriber arrives\n
78.703	0.165	157406	keystroke_t	t	n/a
78.823	0.165	157646	keystroke_e	e	n/a
78.989	0.164	157978	keystroke_a	a	n/a
79.108	0.21	158216	keystroke_r	r	n/a
79.258	0.1355	158516	keystroke_s	s	n/a
79.3935	0.105	158787	keystroke_Key.space	Key.space	n/a
79.6185	0.15	159237	keystroke_v	v	n/a
79.7085	0.12	159417	keystroke_a	a	n/a
79.933	0.1055	159866	keystroke_r	r	n/a
80.0685	0.12	160137	keystroke_i	i	n/a
80.2185	0.12	160437	keystroke_e	e	n/a
80.3835	0.105	160767	keystroke_t	t	n/a
80.5185	0.105	161037	keystroke_i	i	n/a
80.7285	0.15	161457	keystroke_e	e	n/a
80.8795	0.119	161759	keystroke_s	s	n/a
81.1185	0.105	162237	keystroke_Key.space	Key.space	n/a
81.3285	0.09	162657	keystroke_s	s	n/a
81.4035	0.18	162807	keystroke_u	u	n/a
81.5235	0.12	163047	keystroke_b	b	n/a
81.7035	0.09	163407	keystroke_s	s	n/a
81.9285	0.0895	163857	keystroke_c	c	n/a
82.138	0.1055	164276	keystroke_r	r	n/a
82.2585	0.135	164517	keystroke_i	i	n/a
82.3635	0.135	164727	keystroke_b	b	n/a
82.4835	0.15	164967	keystroke_e	e	n/a
82.5735	0.165	165147	keystroke_r	r	n/a
82.7835	0.105	165567	keystroke_Key.space	Key.space	n/a
82.9335	0.105	165867	keystroke_a	a	n/a
83.2785	0.075	166557	keystroke_r	r	n/a
83.413	0.105	166826	keystroke_r	r	n/a
83.548	0.15	167096	keystroke_i	i	n/a
83.653	0.135	167306	keystroke_v	v	n/a
83.803	0.1955	167606	keystroke_e	e	n/a
83.9385	0.12	167877	keystroke_s	s	n/a
84.1935	0.105	168387	keystroke_Key.enter	Key.enter	n/a
84.3025	6.8375	168605	prompt	n/a	created skirts replied several\n
84.943	0.105	169886	keystroke_c	c	n/a
85.228	0.195	170456	keystroke_r	r	n/a
85.288	0.27	170576	keystroke_e	e	n/a
85.498	0.135	170996	keystroke_a	a	n/a
85.678	0.165	171356	keystroke_t	t	n/a
85.768	0.12	171536	keystroke_e	e	n/a
86.008	0.09	172016	keystroke_d	d	n/a
86.158	0.12	172316	keystroke_Key.space	Key.space	n/a
86.878	0.15	173756	keystroke_s	s	n/a
87.013	0.12	174026	keystroke_k	k	n/a
87.4485	0.12	174897	keystroke_i	i	n/a
87.5535	0.18	175107	keystroke_r	r	n/a
87.6885	0.135	175377	keystroke_t	t	n/a
87.9435	0.1195	175887	keystroke_s	s	n/a
88.123	0.105	176246	keystroke_Key.space	Key.space	n/a
88.288	0.18	176576	keystroke_r	r	n/a
88.408	0.135	176816	keystroke_e	e	n/a
88.618	0.105	177236	keystroke_p	p	n/a
88.753	0.12	177506	keystroke_l	l	n/a
88.993	0.09	177986	keystroke_i	i	n/a
89.084	0.119	178168	keystroke_e	e	n/a
89.278	0.09	178556	keystroke_d	d	n/a
89.383	0.09	178766	keystroke_Key.space	Key.space	n/a
89.818	0.105	179636	keystroke_s	s	n/a
89.998	0.105	179996	keystroke_e	e	n/a
90.193	0.105	180386	keystroke_v	v	n/a
90.299	0.179	180598	keystroke_e	e	n/a
90.418	0.12	180836	keystroke_r	r	n/a
90.658	0.105	181316	keystroke_a	a	n/a
90.793	0.09	181586	keystroke_l	l	n/a
91.063	0.075	182126	keystroke_Key.enter	Key.enter	n/a
91.1425	6.949	182285	prompt	n/a	accountability humidity miracle radiation\n
91.723	0.06	183446	keystroke_a	a	n/a
91.918	0.075	183836	keystroke_c	c	n/a
92.053	0.12	184106	keystroke_c	c	n/a
92.158	0.15	184316	keystroke_o	o	n/a
92.248	0.165	184496	keystroke_u	u	n/a
92.338	0.165	184676	keystroke_n	n	n/a
92.443	0.09	184886	keystroke_t	t	n/a
92.593	0.135	185186	keystroke_a	a	n/a
92.698	0.105	185396	keystroke_b	b	n/a
92.773	0.105	185546	keystroke_i	i	n/a
92.968	0.105	185936	keystroke_l	l	n/a
93.148	0.09	186296	keystroke_i	i	n/a
93.298	0.06	186596	keystroke_t	t	n/a
93.403	0.12	186806	keystroke_y	y	n/a
93.493	0.09	186986	keystroke_Key.space	Key.space	n/a
93.973	0.1355	187946	keystroke_h	h	n/a
94.048	0.1055	188096	keystroke_u	u	n/a
94.2585	0.135	188517	keystroke_m	m	n/a
94.4085	0.135	188817	keystroke_i	i	n/a
94.5885	0.135	189177	keystroke_d	d	n/a
94.7085	0.09	189417	keystroke_i	i	n/a
94.8885	0.105	189777	keystroke_t	t	n/a
95.0535	0.105	190107	keystroke_y	y	n/a
95.1285	0.104	190257	keystroke_Key.space	Key.space	n/a
95.3535	0.09	190707	keystroke_m	m	n/a
95.5035	0.12	191007	keystroke_i	i	n/a
95.5935	0.165	191187	keystroke_r	r	n/a
95.7135	0.135	191427	keystroke_a	a	n/a
95.9535	0.09	191907	keystroke_c	c	n/a
96.1035	0.09	192207	keystroke_l	l	n/a
96.2535	0.075	192507	keystroke_e	e	n/a
96.3435	0.074	192687	keystroke_Key.space	Key.space	n/a
96.4635	0.135	192927	keystroke_r	r	n/a
96.5535	0.135	193107	keystroke_a	a	n/a
96.7485	0.12	193497	keystroke_d	d	n/a
96.8835	0.105	193767	keystroke_i	i	n/a
96.9735	0.075	193947	keystroke_a	a	n/a
97.1985	0.105	194397	keystroke_t	t	n/a
97.2885	0.21	194577	keystroke_i	i	n/a
97.4085	0.195	194817	keystroke_o	o	n/a
97.5285	0.12	195057	keystroke_n	n	n/a
98.008	0.075	196016	keystroke_Key.enter	Key.enter	n/a
98.095	5.39	196190	prompt	n/a	floyd no jack indices\n
98.7885	0.105	197577	keystroke_f	f	n/a
98.9085	0.075	197817	keystroke_l	l	n/a
99.0885	0.06	198177	keystroke_o	o	n/a
99.2985	0.12	198597	keystroke_y	y	n/a
99.6735	0.135	199347	keystroke_d	d	n/a
99.7935	0.06	199587	keystroke_Key.space	Key.space	n/a
99.9285	0.135	199857	keystroke_n	n	n/a
100.0185	0.12	200037	keystroke_o	o	n/a
100.1235	0.075	200247	keystroke_Key.space	Key.space	n/a
100.3485	0.12	200697	keystroke_a	a	n/a
100.4535	0.075	200907	keystroke_j	j	n/a
100.7085	0.06	201417	keystroke_Key.backspace	Key.backspace	n/a
100.8285	0.075	201657	keystroke_Key.backspace	Key.backspace	n/a
101.0535	0.09	202107	keystroke_j	j	n/a
101.1435	0.21	202287	keystroke_a	a	n/a
101.3235	0.12	202647	keystroke_c	c	n/a
101.5185	0.18	203037	keystroke_k	k	n/a
101.6535	0.12	203307	keystroke_Key.space	Key.space	n/a
102.1185	0.15	204237	keystroke_i	i	n/a
102.2385	0.105	204477	keystroke_n	n	n/a
102.6735	0.075	205347	keystroke_d	d	n/a
102.7785	0.09	205557	keystroke_i	i	n/a
102.9135	0.075	205827	keystroke_c	c	n/a
103.1085	0.195	206217	keystroke_e	e	n/a
103.2435	0.105	206487	keystroke_s	s	n/a
103.3935	0.09	206787	keystroke_Key.enter	Key.enter	n/a
103.488	7.234	206976	prompt	n/a	customs trend floyd index\n
104.1735	0.09	208347	keystroke_c	c	n/a
104.2645	0.134	208529	keystroke_u	u	n/a
104.3685	0.105	208737	keystroke_s	s	n/a
104.5485	0.12	209097	keystroke_t	t	n/a
104.6235	0.165	209247	keystroke_o	o	n/a
104.7435	0.12	209487	keystroke_m	m	n/a
104.9085	0.105	209817	keystroke_s	s	n/a
105.0585	0.105	210117	keystroke_Key.space	Key.space	n/a
105.2085	0.165	210417	keystroke_t	t	n/a
105.2985	0.105	210597	keystroke_r	r	n/a
105.5235	0.12	211047	keystroke_e	e	n/a
105.6735	0.105	211347	keystroke_n	n	n/a
105.8235	0.105	211647	keystroke_d	d	n/a
106.0035	0.09	212007	keystroke_Key.space	Key.space	n/a
106.7685	0.105	213537	keystroke_f	f	n/a
107.0085	0.15	214017	keystroke_l	l	n/a
107.2785	0.1045	214557	keystroke_o	o	n/a
107.608	0.12	215216	keystroke_y	y	n/a
107.773	0.09	215546	keystroke_d	d	n/a
107.908	0.105	215816	keystroke_Key.space	Key.space	n/a
108.208	0.18	216416	keystroke_i	i	n/a
108.313	0.12	216626	keystroke_n	n	n/a
109.498	0.136	218996	keystroke_d	d	n/a
109.558	0.12	219116	keystroke_e	e	n/a
109.8735	0.0745	219747	keystroke_x	x	n/a
110.6085	0.105	221217	keystroke_Key.enter	Key.enter	n/a
110.7255	6.7245	221451	prompt	n/a	attract mime adjust filme\n
111.2835	0.0895	222567	keystroke_a	a	n/a
111.658	0.075	223316	keystroke_t	t	n/a
111.748	0.1355	223496	keystroke_t	t	n/a
111.838	0.1205	223676	keystroke_r	r	n/a
112.0485	0.225	224097	keystroke_a	a	n/a
112.2285	0.135	224457	keystroke_c	c	n/a
112.3785	0.12	224757	keystroke_t	t	n/a
112.4535	0.105	224907	keystroke_Key.space	Key.space	n/a
112.6935	0.105	225387	keystroke_m	m	n/a
112.9935	0.105	225987	keystroke_i	i	n/a
113.2485	0.105	226497	keystroke_m	m	n/a
113.3685	0.1055	226737	keystroke_e	e	n/a
113.504	0.105	227008	keystroke_Key.space	Key.space	n/a
113.654	0.075	227308	keystroke_a	a	n/a
113.954	0.09	227908	keystroke_d	d	n/a
114.149	0.075	228298	keystroke_j	j	n/a
114.329	0.12	228658	keystroke_u	u	n/a
114.389	0.2095	228778	keystroke_s	s	n/a
114.539	0.1345	229078	keystroke_t	t	n/a
114.6885	0.0895	229377	keystroke_Key.space	Key.space	n/a
115.708	0.075	231416	keystroke_f	f	n/a
116.503	0.06	233006	keystroke_i	i	n/a
116.698	0.135	233396	keystroke_l	l	n/a
116.803	0.15	233606	keystroke_m	m	n/a
116.938	0.105	233876	keystroke_e	e	n/a
117.434	0.015	234868	keystroke_Key.enter	Key.enter	n/a
117.4525	5.6375	234905	prompt	n/a	boston fairly accessory wrote\n
118.124	0.105	236248	keystroke_b	b	n/a
118.184	0.21	236368	keystroke_o	o	n/a
118.349	0.09	236698	keystroke_s	s	n/a
118.544	0.12	237088	keystroke_t	t	n/a
118.649	0.1645	237298	keystroke_o	o	n/a
118.7385	0.15	237477	keystroke_n	n	n/a
118.8435	0.12	237687	keystroke_Key.space	Key.space	n/a
118.9785	0.18	237957	keystroke_f	f	n/a
119.0685	0.1795	238137	keystroke_a	a	n/a
119.1735	0.1345	238347	keystroke_i	i	n/a
119.323	0.12	238646	keystroke_r	r	n/a
119.833	0.105	239666	keystroke_l	l	n/a
119.968	0.1055	239936	keystroke_y	y	n/a
120.0885	0.12	240177	keystroke_Key.space	Key.space	n/a
120.2535	0.09	240507	keystroke_a	a	n/a
120.478	0.061	240956	keystroke_c	c	n/a
120.629	0.014	241258	keystroke_c	c	n/a
121.063	0.135	242126	keystroke_e	e	n/a
121.153	0.121	242306	keystroke_s	s	n/a
121.378	0.106	242756	keystroke_s	s	n/a
121.499	0.149	242998	keystroke_o	o	n/a
121.603	0.15	243206	keystroke_r	r	n/a
121.768	0.135	243536	keystroke_y	y	n/a
121.843	0.15	243686	keystroke_Key.space	Key.space	n/a
122.0535	0.21	244107	keystroke_w	w	n/a
122.2185	0.15	244437	keystroke_r	r	n/a
122.473	0.12	244946	keystroke_o	o	n/a
122.578	0.1505	245156	keystroke_t	t	n/a
122.683	0.1055	245366	keystroke_e	e	n/a
122.9835	0.105	245967	keystroke_Key.enter	Key.enter	n/a
123.094	8.1025	246188	prompt	n/a	soldiers suffered develops provision\n
123.8235	0.105	247647	keystroke_s	s	n/a
123.9135	0.06	247827	keystroke_o	o	n/a
124.0785	0.1505	248157	keystroke_l	l	n/a
124.183	0.09	248366	keystroke_d	d	n/a
124.318	0.09	248636	keystroke_i	i	n/a
124.423	0.27	248846	keystroke_e	e	n/a
124.514	0.224	249028	keystroke_r	r	n/a
124.649	0.134	249298	keystroke_s	s	n/a
124.828	0.06	249656	keystroke_Key.space	Key.space	n/a
124.918	0.09	249836	keystroke_s	s	n/a
125.023	0.15	250046	keystroke_u	u	n/a
125.893	0.06	251786	keystroke_f	f	n/a
126.013	0.105	252026	keystroke_f	f	n/a
126.208	0.165	252416	keystroke_e	e	n/a
126.313	0.195	252626	keystroke_r	r	n/a
126.463	0.105	252926	keystroke_e	e	n/a
126.688	0.09	253376	keystroke_d	d	n/a
126.823	0.12	253646	keystroke_Key.space	Key.space	n/a
127.123	0.12	254246	keystroke_d	d	n/a
127.183	0.12	254366	keystroke_e	e	n/a
127.423	0.165	254846	keystroke_v	v	n/a
127.513	0.135	255026	keystroke_e	e	n/a
127.798	0.135	255596	keystroke_l	l	n/a
128.128	0.165	256256	keystroke_o	o	n/a
128.263	0.15	256526	keystroke_p	p	n/a
128.578	0.135	257156	keystroke_s	s	n/a
128.743	0.105	257486	keystroke_Key.space	Key.space	n/a
129.043	0.105	258086	keystroke_p	p	n/a
129.163	0.12	258326	keystroke_r	r	n/a
129.343	0.135	258686	keystroke_o	o	n/a
130.168	0.105	260336	keystroke_v	v	n/a
130.318	0.09	260636	keystroke_i	i	n/a
130.393	0.105	260786	keystroke_s	s	n/a
130.499	0.2695	260998	keystroke_i	i	n/a
130.603	0.2105	261206	keystroke_o	o	n/a
130.7695	0.134	261539	keystroke_n	n	n/a
131.0685	0.12	262137	keystroke_Key.enter	Key.enter	n/a
131.203	7.808	262406	prompt	n/a	operating treasure diego pledge\n
131.9835	0.21	263967	keystroke_o	o	n/a
132.1035	0.21	264207	keystroke_p	p	n/a
132.2085	0.15	264417	keystroke_e	e	n/a
132.3285	0.135	264657	keystroke_r	r	n/a
132.4485	0.105	264897	keystroke_a	a	n/a
132.6735	0.105	265347	keystroke_t	t	n/a
132.7485	0.165	265497	keystroke_i	i	n/a
132.8535	0.165	265707	keystroke_n	n	n/a
132.9735	0.09	265947	keystroke_g	g	n/a
133.1085	0.09	266217	keystroke_Key.space	Key.space	n/a
133.2885	0.18	266577	keystroke_t	t	n/a
133.4085	0.12	266817	keystroke_r	r	n/a
133.6335	0.21	267267	keystroke_e	e	n/a
133.7835	0.15	267567	keystroke_a	a	n/a
134.1435	0.075	268287	keystroke_s	s	n/a
134.2635	0.1495	268527	keystroke_u	u	n/a
134.384	0.134	268768	keystroke_r	r	n/a
134.458	0.12	268916	keystroke_e	e	n/a
134.593	0.105	269186	keystroke_Key.space	Key.space	n/a
134.788	0.1055	269576	keystroke_d	d	n/a
134.8785	0.135	269757	keystroke_i	i	n/a
135.0435	0.105	270087	keystroke_e	e	n/a
135.3435	0.105	270687	keystroke_f	f	n/a
135.4635	0.1655	270927	keystroke_o	o	n/a
135.6135	0.105	271227	keystroke_Key.space	Key.space	n/a
135.8385	0.09	271677	keystroke_p	p	n/a
136.1985	0.06	272397	keystroke_Key.backspace	Key.backspace	n/a
136.3485	0.06	272697	keystroke_Key.backspace	Key.backspace	n/a
136.4985	0.075	272997	keystroke_Key.backspace	Key.backspace	n/a
136.6935	0.075	273387	keystroke_Key.backspace	Key.backspace	n/a
137.3385	0.075	274677	keystroke_g	g	n/a
137.4135	0.12	274827	keystroke_o	o	n/a
137.5035	0.105	275007	keystroke_Key.space	Key.space	n/a
137.6535	0.18	275307	keystroke_p	p	n/a
137.8185	0.165	275637	keystroke_l	l	n/a
137.9535	0.09	275907	keystroke_e	e	n/a
138.1635	0.075	276327	keystroke_d	d	n/a
138.3885	0.195	276777	keystroke_g	g	n/a
138.5085	0.12	277017	keystroke_e	e	n/a
138.9285	0.075	277857	keystroke_Key.enter	Key.enter	n/a
139.015	5.6	278030	prompt	n/a	lives induction diane detection\n
139.828	0.09	279656	keystroke_l	l	n/a
140.0085	0.09	280017	keystroke_i	i	n/a
140.2785	0.135	280557	keystroke_v	v	n/a
140.5335	0.21	281067	keystroke_e	e	n/a
140.6535	0.165	281307	keystroke_s	s	n/a
140.7735	0.105	281547	keystroke_Key.space	Key.space	n/a
140.8935	0.21	281787	keystroke_i	i	n/a
140.9685	0.15	281937	keystroke_n	n	n/a
141.1195	0.059	282239	keystroke_d	d	n/a
141.2385	0.1205	282477	keystroke_u	u	n/a
141.344	0.105	282688	keystroke_c	c	n/a
141.643	0.076	283286	keystroke_t	t	n/a
141.734	0.18	283468	keystroke_i	i	n/a
141.869	0.21	283738	keystroke_o	o	n/a
141.974	0.165	283948	keystroke_n	n	n/a
142.124	0.12	284248	keystroke_Key.space	Key.space	n/a
142.199	0.12	284398	keystroke_d	d	n/a
142.304	0.105	284608	keystroke_i	i	n/a
142.394	0.105	284788	keystroke_a	a	n/a
142.514	0.12	285028	keystroke_n	n	n/a
142.634	0.105	285268	keystroke_e	e	n/a
142.723	0.106	285446	keystroke_Key.space	Key.space	n/a
142.903	0.106	285806	keystroke_d	d	n/a
143.054	0.09	286108	keystroke_e	e	n/a
143.249	0.1345	286498	keystroke_t	t	n/a
143.3535	0.12	286707	keystroke_e	e	n/a
143.6385	0.105	287277	keystroke_c	c	n/a
143.9385	0.0745	287877	keystroke_t	t	n/a
144.058	0.181	288116	keystroke_i	i	n/a
144.179	0.15	288358	keystroke_o	o	n/a
144.284	0.119	288568	keystroke_n	n	n/a
144.553	0.06	289106	keystroke_Key.enter	Key.enter	n/a
144.617	6.3575	289234	prompt	n/a	disorder authorities shift values\n
145.318	0.0905	290636	keystroke_d	d	n/a
145.4235	0.09	290847	keystroke_i	i	n/a
145.5435	0.105	291087	keystroke_s	s	n/a
145.6785	0.105	291357	keystroke_o	o	n/a
145.7985	0.09	291597	keystroke_r	r	n/a
145.993	0.075	291986	keystroke_d	d	n/a
146.188	0.165	292376	keystroke_e	e	n/a
146.278	0.135	292556	keystroke_r	r	n/a
146.383	0.105	292766	keystroke_Key.space	Key.space	n/a
146.548	0.09	293096	keystroke_a	a	n/a
146.593	0.09	293186	keystroke_u	u	n/a
146.773	0.06	293546	keystroke_t	t	n/a
146.818	0.135	293636	keystroke_h	h	n/a
146.938	0.12	293876	keystroke_o	o	n/a
147.208	0.0905	294416	keystroke_r	r	n/a
147.2985	0.105	294597	keystroke_i	i	n/a
147.4635	0.105	294927	keystroke_t	t	n/a
147.6285	0.134	295257	keystroke_i	i	n/a
147.778	0.2255	295556	keystroke_e	e	n/a
147.9135	0.165	295827	keystroke_s	s	n/a
148.0635	0.135	296127	keystroke_Key.space	Key.space	n/a
148.3035	0.09	296607	keystroke_s	s	n/a
148.4235	0.105	296847	keystroke_h	h	n/a
148.4985	0.135	296997	keystroke_i	i	n/a
148.6185	0.12	297237	keystroke_f	f	n/a
148.8585	0.15	297717	keystroke_t	t	n/a
148.9485	0.12	297897	keystroke_Key.space	Key.space	n/a
149.2785	0.195	298557	keystroke_c	c	n/a
149.8035	0.09	299607	keystroke_Key.backspace	Key.backspace	n/a
149.9685	0.15	299937	keystroke_v	v	n/a
150.0735	0.135	300147	keystroke_a	a	n/a
150.1935	0.09	300387	keystroke_l	l	n/a
150.3885	0.09	300777	keystroke_u	u	n/a
150.4935	0.195	300987	keystroke_e	e	n/a
150.6585	0.15	301317	keystroke_s	s	n/a
150.9435	0.03	301887	keystroke_Key.enter	Key.enter	n/a
150.977	10.2495	301954	prompt	n/a	bibliographic exhibit dies civilization\n
151.7535	0.12	303507	keystroke_b	b	n/a
151.8285	0.105	303657	keystroke_i	i	n/a
152.2185	0.06	304437	keystroke_b	b	n/a
152.9535	0.18	305907	keystroke_l	l	n/a
153.1035	0.3	306207	keystroke_i	i	n/a
153.2835	0.165	306567	keystroke_o	o	n/a
154.0335	0.135	308067	keystroke_g	g	n/a
154.0935	0.135	308187	keystroke_r	r	n/a
154.2885	0.135	308577	keystroke_a	a	n/a
154.3035	0.225	308607	keystroke_p	p	n/a
154.4535	0.18	308907	keystroke_h	h	n/a
154.5435	0.195	309087	keystroke_i	i	n/a
154.7085	0.135	309417	keystroke_c	c	n/a
154.8285	0.105	309657	keystroke_Key.space	Key.space	n/a
155.0535	0.075	310107	keystroke_e	e	n/a
155.3235	0.105	310647	keystroke_x	x	n/a
155.6535	0.15	311307	keystroke_h	h	n/a
155.7885	0.165	311577	keystroke_i	i	n/a
156.1035	0.135	312207	keystroke_b	b	n/a
156.1785	0.15	312357	keystroke_i	i	n/a
156.4185	0.12	312837	keystroke_t	t	n/a
156.8385	0.105	313677	keystroke_Key.space	Key.space	n/a
157.0335	0.09	314067	keystroke_d	d	n/a
157.1385	0.12	314277	keystroke_i	i	n/a
157.2135	0.105	314427	keystroke_e	e	n/a
157.5135	0.135	315027	keystroke_s	s	n/a
157.6635	0.075	315327	keystroke_Key.space	Key.space	n/a
157.8735	0.09	315747	keystroke_c	c	n/a
158.0085	0.105	316017	keystroke_i	i	n/a
158.4735	0.09	316947	keystroke_v	v	n/a
158.5785	0.135	317157	keystroke_i	i	n/a
159.5685	0.135	319137	keystroke_l	l	n/a
159.9285	0.09	319857	keystroke_i	i	n/a
160.0635	0.09	320127	keystroke_z	z	n/a
160.2585	0.105	320517	keystroke_a	a	n/a
160.4985	0.105	320997	keystroke_t	t	n/a
160.5885	0.18	321177	keystroke_i	i	n/a
160.6785	0.18	321357	keystroke_o	o	n/a
160.7985	0.12	321597	keystroke_n	n	n/a
161.0985	0.12	322197	keystroke_Key.enter	Key.enter	n/a
161.2305	4.6545	322461	prompt	n/a	plot drug stands nick\n
161.8935	0.195	323787	keystroke_p	p	n/a
162.0135	0.135	324027	keystroke_l	l	n/a
162.2535	0.0895	324507	keystroke_o	o	n/a
162.328	0.105	324656	keystroke_t	t	n/a
162.463	0.105	324926	keystroke_Key.space	Key.space	n/a
162.763	0.1205	325526	keystroke_d	d	n/a
163.438	0.105	326876	keystroke_r	r	n/a
163.603	0.135	327206	keystroke_u	u	n/a
163.723	0.0905	327446	keystroke_g	g	n/a
163.828	0.15	327656	keystroke_Key.space	Key.space	n/a
164.1285	0.12	328257	keystroke_s	s	n/a
164.3535	0.09	328707	keystroke_t	t	n/a
164.5035	0.09	329007	keystroke_a	a	n/a
164.6085	0.12	329217	keystroke_n	n	n/a
164.7135	0.15	329427	keystroke_d	d	n/a
164.8035	0.12	329607	keystroke_s	s	n/a
164.9685	0.03	329937	keystroke_Key.space	Key.space	n/a
165.0735	0.105	330147	keystroke_n	n	n/a
165.1035	0.15	330207	keystroke_i	i	n/a
165.2685	0.075	330537	keystroke_c	c	n/a
165.3885	0.09	330777	keystroke_k	k	n/a
165.7785	0.105	331557	keystroke_Key.enter	Key.enter	n/a
165.8875	5.7575	331775	prompt	n/a	invision provide farms johnston\n
166.453	0.166	332906	keystroke_i	i	n/a
166.528	0.18	333056	keystroke_n	n	n/a
166.738	0.106	333476	keystroke_v	v	n/a
166.844	0.074	333688	keystroke_i	i	n/a
166.964	0.105	333928	keystroke_s	s	n/a
167.038	0.18	334076	keystroke_i	i	n/a
167.159	0.194	334318	keystroke_o	o	n/a
167.278	0.18	334556	keystroke_n	n	n/a
167.413	0.105	334826	keystroke_Key.space	Key.space	n/a
167.549	0.119	335098	keystroke_p	p	n/a
167.638	0.09	335276	keystroke_r	r	n/a
167.7435	0.0895	335487	keystroke_o	o	n/a
167.894	0.09	335788	keystroke_v	v	n/a
167.998	0.09	335996	keystroke_i	i	n/a
168.133	0.21	336266	keystroke_d	d	n/a
168.224	0.149	336448	keystroke_e	e	n/a
168.658	0.12	337316	keystroke_Key.space	Key.space	n/a
169.018	0.1805	338036	keystroke_f	f	n/a
169.2285	0.15	338457	keystroke_a	a	n/a
169.4535	0.12	338907	keystroke_r	r	n/a
169.6185	0.075	339237	keystroke_m	m	n/a
169.7235	0.09	339447	keystroke_s	s	n/a
169.8585	0.09	339717	keystroke_Key.space	Key.space	n/a
170.0685	0.12	340137	keystroke_j	j	n/a
170.1435	0.12	340287	keystroke_o	o	n/a
170.3835	0.0905	340767	keystroke_h	h	n/a
170.5785	0.09	341157	keystroke_n	n	n/a
170.7435	0.09	341487	keystroke_s	s	n/a
171.0735	0.045	342147	keystroke_t	t	n/a
171.1485	0.165	342297	keystroke_o	o	n/a
171.2535	0.09	342507	keystroke_n	n	n/a
171.5685	0.075	343137	keystroke_Key.enter	Key.enter	n/a
171.6475	5.9075	343295	prompt	n/a	faith ranks shopping assessments\n
172.4385	0.15	344877	keystroke_f	f	n/a
172.5135	0.12	345027	keystroke_a	a	n/a
172.6485	0.09	345297	keystroke_i	i	n/a
172.7835	0.105	345567	keystroke_t	t	n/a
172.9035	0.12	345807	keystroke_h	h	n/a
172.9935	0.12	345987	keystroke_Key.space	Key.space	n/a
173.0835	0.1345	346167	keystroke_r	r	n/a
173.2035	0.1195	346407	keystroke_a	a	n/a
173.338	0.196	346676	keystroke_n	n	n/a
173.474	0.15	346948	keystroke_k	k	n/a
173.609	0.09	347218	keystroke_s	s	n/a
173.714	0.105	347428	keystroke_Key.space	Key.space	n/a
173.909	0.089	347818	keystroke_s	s	n/a
173.984	0.105	347968	keystroke_h	h	n/a
174.074	0.06	348148	keystroke_o	o	n/a
174.238	0.075	348476	keystroke_p	p	n/a
174.388	0.165	348776	keystroke_p	p	n/a
174.508	0.1805	349016	keystroke_i	i	n/a
174.6285	0.135	349257	keystroke_n	n	n/a
174.7185	0.09	349437	keystroke_g	g	n/a
174.8385	0.105	349677	keystroke_Key.space	Key.space	n/a
174.9135	0.135	349827	keystroke_a	a	n/a
175.0335	0.12	350067	keystroke_s	s	n/a
175.2285	0.075	350457	keystroke_s	s	n/a
175.453	0.105	350906	keystroke_e	e	n/a
175.678	0.105	351356	keystroke_s	s	n/a
175.8885	0.0895	351777	keystroke_s	s	n/a
176.6385	0.06	353277	keystroke_m	m	n/a
176.6995	0.074	353399	keystroke_e	e	n/a
176.7885	0.105	353577	keystroke_n	n	n/a
176.9085	0.18	353817	keystroke_t	t	n/a
177.0435	0.105	354087	keystroke_s	s	n/a
177.464	0.0895	354928	keystroke_Key.enter	Key.enter	n/a
177.559	4.931	355118	prompt	n/a	mambo literary wiki alex\n
178.1235	0.15	356247	keystroke_m	m	n/a
178.3485	0.15	356697	keystroke_a	a	n/a
178.4535	0.12	356907	keystroke_m	m	n/a
178.6935	0.15	357387	keystroke_b	b	n/a
178.7985	0.165	357597	keystroke_o	o	n/a
178.9335	0.12	357867	keystroke_Key.space	Key.space	n/a
179.1735	0.09	358347	keystroke_l	l	n/a
179.3985	0.09	358797	keystroke_i	i	n/a
179.5035	0.09	359007	keystroke_t	t	n/a
179.6385	0.1355	359277	keystroke_e	e	n/a
179.7435	0.1055	359487	keystroke_r	r	n/a
180.224	0.12	360448	keystroke_a	a	n/a
180.389	0.12	360778	keystroke_r	r	n/a
180.659	0.135	361318	keystroke_y	y	n/a
180.749	0.12	361498	keystroke_Key.space	Key.space	n/a
180.944	0.09	361888	keystroke_w	w	n/a
181.034	0.075	362068	keystroke_i	i	n/a
181.214	0.06	362428	keystroke_k	k	n/a
181.349	0.1045	362698	keystroke_i	i	n/a
181.544	0.09	363088	keystroke_Key.space	Key.space	n/a
181.664	0.075	363328	keystroke_a	a	n/a
181.799	0.075	363598	keystroke_l	l	n/a
181.889	0.09	363778	keystroke_e	e	n/a
182.114	0.09	364228	keystroke_x	x	n/a
182.428	0.061	364856	keystroke_Key.enter	Key.enter	n/a
182.4925	7.5045	364985	prompt	n/a	anatomy looksmart asus vision\n
183.044	0.075	366088	keystroke_a	a	n/a
183.134	0.09	366268	keystroke_n	n	n/a
183.239	0.105	366478	keystroke_a	a	n/a
183.554	0.105	367108	keystroke_t	t	n/a
183.644	0.179	367288	keystroke_o	o	n/a
183.809	0.134	367618	keystroke_m	m	n/a
183.958	0.09	367916	keystroke_y	y	n/a
184.049	0.089	368098	keystroke_Key.space	Key.space	n/a
184.213	0.105	368426	keystroke_l	l	n/a
184.409	0.06	368818	keystroke_o	o	n/a
184.544	0.149	369088	keystroke_o	o	n/a
184.678	0.12	369356	keystroke_k	k	n/a
185.234	0.075	370468	keystroke_s	s	n/a
185.5185	0.09	371037	keystroke_m	m	n/a
185.5935	0.075	371187	keystroke_a	a	n/a
185.7735	0.06	371547	keystroke_r	r	n/a
185.9685	0.06	371937	keystroke_t	t	n/a
186.3135	0.0905	372627	keystroke_Key.space	Key.space	n/a
186.6735	0.15	373347	keystroke_a	a	n/a
186.7635	0.1355	373527	keystroke_s	s	n/a
186.914	0.135	373828	keystroke_u	u	n/a
187.034	0.09	374068	keystroke_s	s	n/a
187.124	0.09	374248	keystroke_Key.space	Key.space	n/a
187.379	0.075	374758	keystroke_v	v	n/a
187.604	0.12	375208	keystroke_i	i	n/a
187.799	0.12	375598	keystroke_s	s	n/a
188.054	0.18	376108	keystroke_i	i	n/a
188.174	0.21	376348	keystroke_o	o	n/a
188.339	0.12	376678	keystroke_n	n	n/a
189.868	0.12	379736	keystroke_Key.enter	Key.enter	n/a
190.002	7.915	380004	prompt	n/a	shortly dash see characterized\n
190.724	0.105	381448	keystroke_s	s	n/a
190.873	0.1055	381746	keystroke_h	h	n/a
190.9635	0.1505	381927	keystroke_o	o	n/a
191.098	0.1355	382196	keystroke_r	r	n/a
191.189	0.1195	382378	keystroke_t	t	n/a
191.294	0.119	382588	keystroke_l	l	n/a
191.399	0.104	382798	keystroke_y	y	n/a
191.518	0.0755	383036	keystroke_Key.space	Key.space	n/a
191.8335	0.181	383667	keystroke_f	f	n/a
191.9535	0.255	383907	keystroke_a	a	n/a
192.1335	0.12	384267	keystroke_s	s	n/a
192.4635	0.06	384927	keystroke_Key.backspace	Key.backspace	n/a
192.6285	0.045	385257	keystroke_Key.backspace	Key.backspace	n/a
192.7485	0.075	385497	keystroke_Key.backspace	Key.backspace	n/a
193.319	0.15	386638	keystroke_d	d	n/a
193.424	0.225	386848	keystroke_a	a	n/a
193.559	0.18	387118	keystroke_s	s	n/a
193.724	0.165	387448	keystroke_h	h	n/a
193.813	0.151	387626	keystroke_Key.space	Key.space	n/a
193.979	0.09	387958	keystroke_s	s	n/a
194.204	0.06	388408	keystroke_e	e	n/a
194.384	0.045	388768	keystroke_e	e	n/a
194.459	0.105	388918	keystroke_Key.space	Key.space	n/a
194.579	0.105	389158	keystroke_c	c	n/a
194.684	0.09	389368	keystroke_h	h	n/a
194.789	0.105	389578	keystroke_a	a	n/a
194.984	0.1045	389968	keystroke_r	r	n/a
195.0735	0.135	390147	keystroke_a	a	n/a
195.3435	0.105	390687	keystroke_c	c	n/a
195.6435	0.09	391287	keystroke_t	t	n/a
195.7785	0.15	391557	keystroke_e	e	n/a
195.8685	0.1205	391737	keystroke_r	r	n/a
196.0185	0.12	392037	keystroke_i	i	n/a
196.2135	0.105	392427	keystroke_z	z	n/a
196.3035	0.135	392607	keystroke_i	i	n/a
196.4685	0.0905	392937	keystroke_e	e	n/a
196.8135	0.0755	393627	keystroke_Key.backspace	Key.backspace	n/a
196.964	0.075	393928	keystroke_Key.backspace	Key.backspace	n/a
197.069	0.09	394138	keystroke_e	e	n/a
197.249	0.09	394498	keystroke_d	d	n/a
197.833	0.075	395666	keystroke_Key.enter	Key.enter	n/a
197.9205	7.0845	395841	prompt	n/a	activities reflection environment conditional\n
198.4935	0.105	396987	keystroke_a	a	n/a
198.6735	0.0905	397347	keystroke_c	c	n/a
198.899	0.075	397798	keystroke_t	t	n/a
198.989	0.09	397978	keystroke_i	i	n/a
199.139	0.089	398278	keystroke_v	v	n/a
199.214	0.0895	398428	keystroke_i	i	n/a
199.379	0.06	398758	keystroke_t	t	n/a
199.454	0.09	398908	keystroke_i	i	n/a
199.619	0.195	399238	keystroke_e	e	n/a
199.754	0.135	399508	keystroke_s	s	n/a
199.874	0.09	399748	keystroke_Key.space	Key.space	n/a
200.054	0.15	400108	keystroke_r	r	n/a
200.174	0.09	400348	keystroke_e	e	n/a
200.3235	0.1055	400647	keystroke_f	f	n/a
200.444	0.09	400888	keystroke_l	l	n/a
200.519	0.075	401038	keystroke_e	e	n/a
200.684	0.09	401368	keystroke_c	c	n/a
200.924	0.075	401848	keystroke_t	t	n/a
201.014	0.195	402028	keystroke_i	i	n/a
201.149	0.18	402298	keystroke_o	o	n/a
201.254	0.1495	402508	keystroke_n	n	n/a
201.344	0.1045	402688	keystroke_Key.space	Key.space	n/a
201.4635	0.09	402927	keystroke_e	e	n/a
201.5985	0.105	403197	keystroke_n	n	n/a
201.9435	0.09	403887	keystroke_v	v	n/a
202.1385	0.045	404277	keystroke_i	i	n/a
202.2885	0.06	404577	keystroke_r	r	n/a
202.3635	0.18	404727	keystroke_o	o	n/a
202.4535	0.135	404907	keystroke_n	n	n/a
202.7085	0.06	405417	keystroke_m	m	n/a
202.7535	0.09	405507	keystroke_e	e	n/a
202.8585	0.105	405717	keystroke_n	n	n/a
202.9785	0.12	405957	keystroke_t	t	n/a
203.1135	0.12	406227	keystroke_Key.space	Key.space	n/a
203.473	0.075	406946	keystroke_c	c	n/a
203.579	0.164	407158	keystroke_o	o	n/a
203.669	0.104	407338	keystroke_n	n	n/a
203.834	0.09	407668	keystroke_d	d	n/a
203.938	0.076	407876	keystroke_i	i	n/a
204.088	0.091	408176	keystroke_t	t	n/a
204.164	0.165	408328	keystroke_i	i	n/a
204.269	0.18	408538	keystroke_o	o	n/a
204.388	0.135	408776	keystroke_n	n	n/a
204.508	0.105	409016	keystroke_a	a	n/a
204.629	0.074	409258	keystroke_l	l	n/a
204.943	0.06	409886	keystroke_Key.enter	Key.enter	n/a
205.014	4.911	410028	prompt	n/a	seas robin darwin voters\n
205.634	0.089	411268	keystroke_s	s	n/a
205.844	0.104	411688	keystroke_e	e	n/a
205.949	0.194	411898	keystroke_a	a	n/a
206.083	0.12	412166	keystroke_s	s	n/a
206.248	0.06	412496	keystroke_Key.space	Key.space	n/a
206.6985	0.15	413397	keystroke_r	r	n/a
206.7885	0.18	413577	keystroke_o	o	n/a
206.9235	0.09	413847	keystroke_b	b	n/a
206.9835	0.21	413967	keystroke_i	i	n/a
207.1485	0.165	414297	keystroke_n	n	n/a
207.2985	0.105	414597	keystroke_Key.space	Key.space	n/a
207.4635	0.15	414927	keystroke_d	d	n/a
207.5385	0.135	415077	keystroke_a	a	n/a
207.8385	0.09	415677	keystroke_r	r	n/a
208.0785	0.12	416157	keystroke_w	w	n/a
208.2135	0.165	416427	keystroke_i	i	n/a
208.3185	0.18	416637	keystroke_n	n	n/a
208.4835	0.075	416967	keystroke_Key.space	Key.space	n/a
208.7235	0.105	417447	keystroke_v	v	n/a
208.8585	0.075	417717	keystroke_o	o	n/a
209.0835	0.075	418167	keystroke_t	t	n/a
209.2335	0.135	418467	keystroke_e	e	n/a
209.3385	0.15	418677	keystroke_r	r	n/a
209.5935	0.12	419187	keystroke_s	s	n/a
209.8335	0.09	419667	keystroke_Key.enter	Key.enter	n/a
209.928	4.152	419856	prompt	n/a	of rover group lord\n
210.5385	0.135	421077	keystroke_o	o	n/a
210.6585	0.105	421317	keystroke_f	f	n/a
210.7785	0.09	421557	keystroke_Key.space	Key.space	n/a
210.9435	0.105	421887	keystroke_r	r	n/a
211.0185	0.12	422037	keystroke_o	o	n/a
211.1835	0.12	422367	keystroke_v	v	n/a
211.469	0.134	422938	keystroke_e	e	n/a
211.559	0.089	423118	keystroke_r	r	n/a
211.663	0.09	423326	keystroke_Key.space	Key.space	n/a
211.768	0.151	423536	keystroke_g	g	n/a
211.843	0.151	423686	keystroke_r	r	n/a
211.933	0.195	423866	keystroke_o	o	n/a
212.038	0.181	424076	keystroke_u	u	n/a
212.173	0.18	424346	keystroke_p	p	n/a
212.428	0.105	424856	keystroke_Key.space	Key.space	n/a
212.698	0.135	425396	keystroke_l	l	n/a
212.998	0.12	425996	keystroke_o	o	n/a
213.088	0.091	426176	keystroke_r	r	n/a
213.329	0.089	426658	keystroke_d	d	n/a
213.973	0.1055	427946	keystroke_Key.enter	Key.enter	n/a
214.088	6.914	428176	prompt	n/a	concentrations examinations tone locking\n
214.7535	0.09	429507	keystroke_c	c	n/a
214.8285	0.18	429657	keystroke_o	o	n/a
214.9635	0.15	429927	keystroke_n	n	n/a
215.1435	0.165	430287	keystroke_c	c	n/a
215.2335	0.135	430467	keystroke_e	e	n/a
215.4135	0.0905	430827	keystroke_n	n	n/a
215.549	0.105	431098	keystroke_t	t	n/a
215.609	0.09	431218	keystroke_r	r	n/a
215.8035	0.09	431607	keystroke_a	a	n/a
215.984	0.105	431968	keystroke_t	t	n/a
216.059	0.18	432118	keystroke_i	i	n/a
216.164	0.195	432328	keystroke_o	o	n/a
216.2835	0.1355	432567	keystroke_n	n	n/a
216.434	0.075	432868	keystroke_s	s	n/a
216.524	0.1045	433048	keystroke_Key.space	Key.space	n/a
216.659	0.09	433318	keystroke_e	e	n/a
216.929	0.18	433858	keystroke_x	x	n/a
217.049	0.135	434098	keystroke_a	a	n/a
217.154	0.135	434308	keystroke_m	m	n/a
217.274	0.165	434548	keystroke_i	i	n/a
217.394	0.165	434788	keystroke_n	n	n/a
217.544	0.12	435088	keystroke_i	i	n/a
218.234	0.075	436468	keystroke_Key.backspace	Key.backspace	n/a
218.324	0.075	436648	keystroke_a	a	n/a
218.519	0.12	437038	keystroke_t	t	n/a
218.594	0.18	437188	keystroke_i	i	n/a
218.714	0.18	437428	keystroke_o	o	n/a
218.819	0.105	437638	keystroke_n	n	n/a
218.909	0.075	437818	keystroke_s	s	n/a
219.029	0.09	438058	keystroke_Key.space	Key.space	n/a
219.164	0.105	438328	keystroke_t	t	n/a
219.239	0.12	438478	keystroke_o	o	n/a
219.314	0.105	438628	keystroke_n	n	n/a
219.404	0.12	438808	keystroke_e	e	n/a
219.509	0.075	439018	keystroke_Key.space	Key.space	n/a
219.764	0.09	439528	keystroke_l	l	n/a
219.944	0.075	439888	keystroke_o	o	n/a
220.079	0.075	440158	keystroke_c	c	n/a
220.169	0.075	440338	keystroke_k	k	n/a
220.364	0.15	440728	keystroke_i	i	n/a
220.439	0.12	440878	keystroke_n	n	n/a
220.544	0.09	441088	keystroke_g	g	n/a
220.919	0.075	441838	keystroke_Key.enter	Key.enter	n/a
221.005	5.18	442010	prompt	n/a	implement maps sources depth\n
221.594	0.12	443188	keystroke_i	i	n/a
221.834	0.12	443668	keystroke_m	m	n/a
221.909	0.2395	443818	keystroke_p	p	n/a
222.0585	0.165	444117	keystroke_l	l	n/a
222.2085	0.09	444417	keystroke_e	e	n/a
222.3585	0.09	444717	keystroke_m	m	n/a
222.4335	0.075	444867	keystroke_e	e	n/a
222.5835	0.12	445167	keystroke_n	n	n/a
222.6885	0.12	445377	keystroke_t	t	n/a
222.8385	0.09	445677	keystroke_Key.space	Key.space	n/a
223.1985	0.09	446397	keystroke_m	m	n/a
223.2895	0.104	446579	keystroke_a	a	n/a
223.4085	0.09	446817	keystroke_p	p	n/a
223.5435	0.06	447087	keystroke_s	s	n/a
223.6185	0.09	447237	keystroke_Key.space	Key.space	n/a
223.7235	0.09	447447	keystroke_s	s	n/a
223.7985	0.1945	447597	keystroke_o	o	n/a
223.9185	0.195	447837	keystroke_u	u	n/a
224.0685	0.12	448137	keystroke_r	r	n/a
224.4885	0.1195	448977	keystroke_c	c	n/a
224.7735	0.195	449547	keystroke_e	e	n/a
224.8935	0.12	449787	keystroke_s	s	n/a
224.999	0.1195	449998	keystroke_Key.space	Key.space	n/a
225.104	0.1945	450208	keystroke_d	d	n/a
225.2235	0.165	450447	keystroke_e	e	n/a
225.4035	0.1205	450807	keystroke_p	p	n/a
225.569	0.1045	451138	keystroke_t	t	n/a
225.7335	0.105	451467	keystroke_h	h	n/a
226.0935	0.09	452187	keystroke_Key.enter	Key.enter	n/a
226.1895	6.7825	452379	prompt	n/a	faster reuters rights calculator\n
226.7835	0.1505	453567	keystroke_f	f	n/a
226.889	0.165	453778	keystroke_a	a	n/a
226.964	0.15	453928	keystroke_s	s	n/a
227.324	0.1195	454648	keystroke_t	t	n/a
227.5035	0.165	455007	keystroke_e	e	n/a
227.5935	0.1355	455187	keystroke_r	r	n/a
227.774	0.135	455548	keystroke_Key.space	Key.space	n/a
227.939	0.165	455878	keystroke_r	r	n/a
228.044	0.135	456088	keystroke_e	e	n/a
228.524	0.135	457048	keystroke_u	u	n/a
228.704	0.12	457408	keystroke_t	t	n/a
228.9885	0.1805	457977	keystroke_e	e	n/a
229.124	0.165	458248	keystroke_r	r	n/a
229.7235	0.045	459447	keystroke_s	s	n/a
229.7835	0.105	459567	keystroke_Key.space	Key.space	n/a
230.0085	0.09	460017	keystroke_r	r	n/a
230.0835	0.09	460167	keystroke_i	i	n/a
230.2185	0.075	460437	keystroke_g	g	n/a
230.3235	0.075	460647	keystroke_h	h	n/a
230.4735	0.195	460947	keystroke_t	t	n/a
230.5785	0.135	461157	keystroke_s	s	n/a
231.3285	0.0755	462657	keystroke_Key.space	Key.space	n/a
231.494	0.165	462988	keystroke_c	c	n/a
231.569	0.165	463138	keystroke_a	a	n/a
231.749	0.075	463498	keystroke_l	l	n/a
231.869	0.075	463738	keystroke_c	c	n/a
231.959	0.059	463918	keystroke_u	u	n/a
232.154	0.1045	464308	keystroke_l	l	n/a
232.2135	0.0895	464427	keystroke_a	a	n/a
232.408	0.075	464816	keystroke_t	t	n/a
232.498	0.105	464996	keystroke_o	o	n/a
232.619	0.074	465238	keystroke_r	r	n/a
232.888	0.075	465776	keystroke_Key.enter	Key.enter	n/a
232.9755	5.87	465951	prompt	n/a	public pond hudson sauce\n
233.5335	0.21	467067	keystroke_p	p	n/a
233.6835	0.135	467367	keystroke_u	u	n/a
233.8635	0.09	467727	keystroke_b	b	n/a
233.9985	0.09	467997	keystroke_l	l	n/a
234.1485	0.105	468297	keystroke_i	i	n/a
234.2685	0.105	468537	keystroke_c	c	n/a
234.3885	0.06	468777	keystroke_Key.space	Key.space	n/a
234.5535	0.15	469107	keystroke_p	p	n/a
234.6585	0.135	469317	keystroke_o	o	n/a
234.9735	0.135	469947	keystroke_n	n	n/a
235.423	0.106	470846	keystroke_d	d	n/a
235.543	0.105	471086	keystroke_Key.space	Key.space	n/a
235.723	0.106	471446	keystroke_h	h	n/a
235.799	0.15	471598	keystroke_u	u	n/a
236.338	0.106	472676	keystroke_d	d	n/a
236.548	0.091	473096	keystroke_s	s	n/a
236.593	0.21	473186	keystroke_o	o	n/a
236.743	0.151	473486	keystroke_n	n	n/a
236.848	0.12	473696	keystroke_Key.space	Key.space	n/a
237.028	0.076	474056	keystroke_s	s	n/a
237.118	0.105	474236	keystroke_u	u	n/a
237.8385	0.09	475677	keystroke_Key.backspace	Key.backspace	n/a
237.9435	0.09	475887	keystroke_a	a	n/a
238.0935	0.12	476187	keystroke_u	u	n/a
238.2285	0.075	476457	keystroke_c	c	n/a
238.4535	0.06	476907	keystroke_e	e	n/a
238.8135	0.03	477627	keystroke_Key.enter	Key.enter	n/a
238.8555	5.5245	477711	prompt	n/a	flavor if prerequisite kids\n
239.6685	0.12	479337	keystroke_f	f	n/a
239.7895	0.149	479579	keystroke_l	l	n/a
239.9235	0.075	479847	keystroke_a	a	n/a
240.0885	0.105	480177	keystroke_v	v	n/a
240.2085	0.09	480417	keystroke_o	o	n/a
240.3285	0.105	480657	keystroke_r	r	n/a
240.4485	0.075	480897	keystroke_Key.space	Key.space	n/a
240.6585	0.09	481317	keystroke_i	i	n/a
240.8535	0.12	481707	keystroke_f	f	n/a
240.9585	0.09	481917	keystroke_Key.space	Key.space	n/a
241.1085	0.105	482217	keystroke_p	p	n/a
241.2585	0.135	482517	keystroke_r	r	n/a
241.3185	0.135	482637	keystroke_e	e	n/a
241.9335	0.165	483867	keystroke_r	r	n/a
242.0235	0.135	484047	keystroke_e	e	n/a
242.2485	0.135	484497	keystroke_q	q	n/a
242.3985	0.15	484797	keystroke_u	u	n/a
242.4885	0.15	484977	keystroke_i	i	n/a
242.8485	0.105	485697	keystroke_s	s	n/a
242.9685	0.09	485937	keystroke_i	i	n/a
243.1635	0.15	486327	keystroke_t	t	n/a
243.2835	0.12	486567	keystroke_e	e	n/a
243.4485	0.09	486897	keystroke_Key.space	Key.space	n/a
243.6135	0.105	487227	keystroke_k	k	n/a
243.7785	0.135	487557	keystroke_i	i	n/a
243.8985	0.165	487797	keystroke_d	d	n/a
244.0185	0.135	488037	keystroke_s	s	n/a
244.3035	0.075	488607	keystroke_Key.enter	Key.enter	n/a
244.3825	5.2925	488765	prompt	n/a	only electricity titans ballot\n
244.949	0.0895	489898	keystroke_o	o	n/a
245.0535	0.165	490107	keystroke_n	n	n/a
245.1885	0.105	490377	keystroke_l	l	n/a
245.3085	0.09	490617	keystroke_y	y	n/a
245.4285	0.09	490857	keystroke_Key.space	Key.space	n/a
245.5195	0.074	491039	keystroke_e	e	n/a
245.6385	0.12	491277	keystroke_l	l	n/a
245.7135	0.09	491427	keystroke_e	e	n/a
245.9535	0.045	491907	keystroke_c	c	n/a
246.1935	0.135	492387	keystroke_t	t	n/a
246.2685	0.135	492537	keystroke_r	r	n/a
246.4335	0.105	492867	keystroke_i	i	n/a
246.7485	0.135	493497	keystroke_c	c	n/a
246.8985	0.09	493797	keystroke_i	i	n/a
247.0785	0.12	494157	keystroke_t	t	n/a
247.2435	0.135	494487	keystroke_y	y	n/a
247.3035	0.135	494607	keystroke_Key.space	Key.space	n/a
247.7085	0.09	495417	keystroke_t	t	n/a
247.8135	0.09	495627	keystroke_i	i	n/a
247.8885	0.09	495777	keystroke_t	t	n/a
248.1135	0.06	496227	keystroke_a	a	n/a
248.3535	0.09	496707	keystroke_n	n	n/a
248.4435	0.075	496887	keystroke_s	s	n/a
248.5485	0.09	497097	keystroke_Key.space	Key.space	n/a
248.7285	0.075	497457	keystroke_b	b	n/a
248.8185	0.075	497637	keystroke_a	a	n/a
248.9535	0.06	497907	keystroke_l	l	n/a
249.0735	0.075	498147	keystroke_l	l	n/a
249.2835	0.075	498567	keystroke_o	o	n/a
249.4035	0.1195	498807	keystroke_t	t	n/a
249.5835	0.09	499167	keystroke_Key.enter	Key.enter	n/a
249.679	6.7375	499358	prompt	n/a	operating blessed famous alexander\n
250.303	0.196	500606	keystroke_o	o	n/a
250.424	0.15	500848	keystroke_p	p	n/a
250.484	0.15	500968	keystroke_e	e	n/a
250.589	0.135	501178	keystroke_r	r	n/a
250.739	0.1045	501478	keystroke_a	a	n/a
250.9335	0.075	501867	keystroke_t	t	n/a
251.0235	0.15	502047	keystroke_i	i	n/a
251.1285	0.165	502257	keystroke_n	n	n/a
251.2485	0.09	502497	keystroke_g	g	n/a
251.3535	0.06	502707	keystroke_Key.space	Key.space	n/a
251.5185	0.075	503037	keystroke_b	b	n/a
251.7285	0.09	503457	keystroke_l	l	n/a
251.7885	0.15	503577	keystroke_e	e	n/a
251.9085	0.105	503817	keystroke_s	s	n/a
252.1185	0.165	504237	keystroke_s	s	n/a
252.2535	0.09	504507	keystroke_e	e	n/a
252.4785	0.09	504957	keystroke_d	d	n/a
252.5835	0.105	505167	keystroke_Key.space	Key.space	n/a
252.9435	0.165	505887	keystroke_d	d	n/a
253.0785	0.12	506157	keystroke_a	a	n/a
253.4685	0.075	506937	keystroke_Key.backspace	Key.backspace	n/a
253.5885	0.09	507177	keystroke_Key.backspace	Key.backspace	n/a
253.6335	0.15	507267	keystroke_f	f	n/a
253.7385	0.12	507477	keystroke_a	a	n/a
253.7845	0.194	507569	keystroke_m	m	n/a
253.9335	0.27	507867	keystroke_o	o	n/a
254.1135	0.21	508227	keystroke_u	u	n/a
254.2485	0.165	508497	keystroke_s	s	n/a
254.4285	0.135	508857	keystroke_Key.space	Key.space	n/a
254.6385	0.09	509277	keystroke_a	a	n/a
254.7735	0.105	509547	keystroke_l	l	n/a
254.8635	0.09	509727	keystroke_e	e	n/a
255.1785	0.165	510357	keystroke_x	x	n/a
255.3735	0.135	510747	keystroke_a	a	n/a
255.5235	0.12	511047	keystroke_n	n	n/a
255.6885	0.06	511377	keystroke_d	d	n/a
255.9135	0.18	511827	keystroke_e	e	n/a
256.0335	0.12	512067	keystroke_r	r	n/a
256.3035	0.1045	512607	keystroke_Key.enter	Key.enter	n/a
256.42	8.457	512840	prompt	n/a	killing wiring conclusion transcripts\n
257.023	0.061	514046	keystroke_k	k	n/a
257.2185	0.045	514437	keystroke_i	i	n/a
257.399	0.075	514798	keystroke_l	l	n/a
257.534	0.075	515068	keystroke_l	l	n/a
257.744	0.165	515488	keystroke_i	i	n/a
257.864	0.18	515728	keystroke_n	n	n/a
258.209	0.135	516418	keystroke_g	g	n/a
259.019	0.09	518038	keystroke_Key.space	Key.space	n/a
260.233	0.136	520466	keystroke_w	w	n/a
260.369	0.089	520738	keystroke_i	i	n/a
260.473	0.105	520946	keystroke_r	r	n/a
260.563	0.195	521126	keystroke_i	i	n/a
260.668	0.15	521336	keystroke_n	n	n/a
260.819	0.089	521638	keystroke_g	g	n/a
260.938	0.09	521876	keystroke_Key.space	Key.space	n/a
261.418	0.09	522836	keystroke_c	c	n/a
261.4635	0.1495	522927	keystroke_o	o	n/a
261.568	0.09	523136	keystroke_n	n	n/a
261.703	0.09	523406	keystroke_c	c	n/a
261.778	0.0755	523556	keystroke_l	l	n/a
261.958	0.0905	523916	keystroke_u	u	n/a
262.0785	0.12	524157	keystroke_s	s	n/a
262.1835	0.12	524367	keystroke_i	i	n/a
262.3045	0.209	524609	keystroke_o	o	n/a
262.4085	0.195	524817	keystroke_n	n	n/a
262.5735	0.105	525147	keystroke_Key.space	Key.space	n/a
262.7985	0.12	525597	keystroke_t	t	n/a
262.8735	0.09	525747	keystroke_r	r	n/a
263.0685	0.105	526137	keystroke_a	a	n/a
263.1885	0.12	526377	keystroke_n	n	n/a
263.3095	0.074	526619	keystroke_s	s	n/a
263.5785	0.09	527157	keystroke_c	c	n/a
263.8635	0.09	527727	keystroke_r	r	n/a
263.9685	0.12	527937	keystroke_i	i	n/a
264.0285	0.135	528057	keystroke_p	p	n/a
264.1485	0.18	528297	keystroke_t	t	n/a
264.2835	0.12	528567	keystroke_s	s	n/a
264.7485	0.12	529497	keystroke_Key.enter	Key.enter	n/a
264.8815	7.0085	529763	prompt	n/a	archived exciting mark methods\n
265.514	0.135	531028	keystroke_a	a	n/a
265.769	0.06	531538	keystroke_r	r	n/a
266.024	0.09	532048	keystroke_c	c	n/a
266.099	0.105	532198	keystroke_h	h	n/a
266.174	0.135	532348	keystroke_i	i	n/a
266.654	0.06	533308	keystroke_e	e	n/a
267.044	0.09	534088	keystroke_Key.backspace	Key.backspace	n/a
267.119	0.15	534238	keystroke_v	v	n/a
267.209	0.105	534418	keystroke_e	e	n/a
267.449	0.075	534898	keystroke_d	d	n/a
267.538	0.091	535076	keystroke_Key.space	Key.space	n/a
267.928	0.015	535856	keystroke_e	e	n/a
268.093	0.09	536186	keystroke_x	x	n/a
268.348	0.075	536696	keystroke_c	c	n/a
268.483	0.121	536966	keystroke_i	i	n/a
268.6185	0.1055	537237	keystroke_t	t	n/a
268.738	0.166	537476	keystroke_i	i	n/a
268.843	0.18	537686	keystroke_n	n	n/a
269.008	0.105	538016	keystroke_g	g	n/a
269.114	0.074	538228	keystroke_Key.space	Key.space	n/a
269.234	0.09	538468	keystroke_m	m	n/a
269.294	0.135	538588	keystroke_a	a	n/a
269.443	0.135	538886	keystroke_r	r	n/a
269.549	0.12	539098	keystroke_k	k	n/a
269.638	0.09	539276	keystroke_Key.space	Key.space	n/a
269.803	0.12	539606	keystroke_m	m	n/a
269.939	0.059	539878	keystroke_a	a	n/a
270.373	0.075	540746	keystroke_Key.backspace	Key.backspace	n/a
270.494	0.12	540988	keystroke_e	e	n/a
270.658	0.105	541316	keystroke_t	t	n/a
270.748	0.15	541496	keystroke_h	h	n/a
270.838	0.135	541676	keystroke_o	o	n/a
271.064	0.194	542128	keystroke_d	d	n/a
271.153	0.15	542306	keystroke_s	s	n/a
271.783	0.1055	543566	keystroke_Key.enter	Key.enter	n/a
271.8925	8.4345	543785	prompt	n/a	archived commercial rivers recipient\n
272.7285	0.105	545457	keystroke_a	a	n/a
272.9685	0.075	545937	keystroke_r	r	n/a
273.2385	0.105	546477	keystroke_c	c	n/a
273.3285	0.135	546657	keystroke_h	h	n/a
273.4335	0.135	546867	keystroke_i	i	n/a
273.5235	0.105	547047	keystroke_v	v	n/a
273.7635	0.09	547527	keystroke_e	e	n/a
273.9585	0.0905	547917	keystroke_d	d	n/a
274.064	0.075	548128	keystroke_Key.space	Key.space	n/a
274.199	0.075	548398	keystroke_c	c	n/a
274.274	0.075	548548	keystroke_o	o	n/a
274.424	0.075	548848	keystroke_m	m	n/a
274.574	0.09	549148	keystroke_m	m	n/a
274.634	0.15	549268	keystroke_e	e	n/a
274.739	0.09	549478	keystroke_r	r	n/a
274.889	0.105	549778	keystroke_i	i	n/a
275.039	0.105	550078	keystroke_c	c	n/a
275.279	0.075	550558	keystroke_Key.backspace	Key.backspace	n/a
275.414	0.075	550828	keystroke_Key.backspace	Key.backspace	n/a
275.519	0.12	551038	keystroke_c	c	n/a
275.624	0.09	551248	keystroke_i	i	n/a
275.744	0.135	551488	keystroke_a	a	n/a
275.864	0.12	551728	keystroke_l	l	n/a
275.969	0.105	551938	keystroke_Key.space	Key.space	n/a
276.179	0.105	552358	keystroke_r	r	n/a
276.314	0.12	552628	keystroke_i	i	n/a
276.449	0.0895	552898	keystroke_v	v	n/a
276.689	0.135	553378	keystroke_e	e	n/a
276.749	0.24	553498	keystroke_r	r	n/a
276.898	0.136	553796	keystroke_s	s	n/a
277.064	0.09	554128	keystroke_Key.space	Key.space	n/a
277.139	0.15	554278	keystroke_r	r	n/a
277.229	0.12	554458	keystroke_e	e	n/a
278.159	0.089	556318	keystroke_c	c	n/a
278.278	0.195	556556	keystroke_i	i	n/a
278.443	0.241	556886	keystroke_p	p	n/a
278.638	0.136	557276	keystroke_i	i	n/a
278.758	0.105	557516	keystroke_e	e	n/a
278.908	0.106	557816	keystroke_n	n	n/a
279.028	0.06	558056	keystroke_t	t	n/a
280.198	0.12	560396	keystroke_Key.enter	Key.enter	n/a
280.331	9.7765	560662	prompt	n/a	commit projection reviewer classification\n
281.008	0.105	562016	keystroke_c	c	n/a
281.128	0.075	562256	keystroke_o	o	n/a
281.293	0.075	562586	keystroke_m	m	n/a
281.443	0.09	562886	keystroke_m	m	n/a
281.593	0.12	563186	keystroke_i	i	n/a
281.728	0.075	563456	keystroke_t	t	n/a
282.118	0.105	564236	keystroke_Key.space	Key.space	n/a
282.343	0.09	564686	keystroke_p	p	n/a
282.4485	0.075	564897	keystroke_r	r	n/a
282.5385	0.105	565077	keystroke_o	o	n/a
282.7035	0.195	565407	keystroke_f	f	n/a
282.7485	0.046	565497	keystroke_e	e	n/a
282.8535	0.105	565707	keystroke_e	e	n/a
283.2135	0.06	566427	keystroke_Key.backspace	Key.backspace	n/a
283.3785	0.045	566757	keystroke_Key.backspace	Key.backspace	n/a
283.4835	0.09	566967	keystroke_Key.backspace	Key.backspace	n/a
284.1585	0.075	568317	keystroke_j	j	n/a
284.2035	0.15	568407	keystroke_e	e	n/a
284.5335	0.135	569067	keystroke_c	c	n/a
284.9535	0.09	569907	keystroke_t	t	n/a
285.1485	0.15	570297	keystroke_i	i	n/a
285.2535	0.24	570507	keystroke_o	o	n/a
285.3885	0.195	570777	keystroke_n	n	n/a
285.5535	0.105	571107	keystroke_Key.space	Key.space	n/a
286.0785	0.15	572157	keystroke_r	r	n/a
286.1985	0.09	572397	keystroke_e	e	n/a
286.4685	0.09	572937	keystroke_v	v	n/a
286.6485	0.09	573297	keystroke_i	i	n/a
286.7985	0.165	573597	keystroke_e	e	n/a
286.8885	0.165	573777	keystroke_w	w	n/a
287.1285	0.105	574257	keystroke_e	e	n/a
287.3235	0.105	574647	keystroke_r	r	n/a
287.4435	0.09	574887	keystroke_Key.space	Key.space	n/a
287.6085	0.135	575217	keystroke_c	c	n/a
287.8485	0.075	575697	keystroke_l	l	n/a
287.9085	0.1205	575817	keystroke_a	a	n/a
287.999	0.105	575998	keystroke_s	s	n/a
288.2085	0.0605	576417	keystroke_s	s	n/a
288.419	0.09	576838	keystroke_i	i	n/a
288.539	0.075	577078	keystroke_f	f	n/a
288.704	0.075	577408	keystroke_i	i	n/a
288.794	0.15	577588	keystroke_c	c	n/a
288.929	0.09	577858	keystroke_a	a	n/a
289.1835	0.105	578367	keystroke_t	t	n/a
289.2435	0.24	578487	keystroke_i	i	n/a
289.3635	0.135	578727	keystroke_o	o	n/a
289.4385	0.105	578877	keystroke_n	n	n/a
290.0085	0.09	580017	keystroke_Key.enter	Key.enter	n/a
290.1115	9.13	580223	prompt	n/a	sussex indicated certified visitors\n
290.6835	0.075	581367	keystroke_s	s	n/a
290.7735	0.09	581547	keystroke_u	u	n/a
291.0585	0.09	582117	keystroke_s	s	n/a
291.2235	0.075	582447	keystroke_s	s	n/a
291.4485	0.075	582897	keystroke_e	e	n/a
291.6885	0.12	583377	keystroke_x	x	n/a
291.8235	0.09	583647	keystroke_Key.space	Key.space	n/a
291.9585	0.135	583917	keystroke_i	i	n/a
292.0185	0.165	584037	keystroke_n	n	n/a
292.2435	0.12	584487	keystroke_f	f	n/a
292.3935	0.12	584787	keystroke_i	i	n/a
293.0835	0.06	586167	keystroke_Key.backspace	Key.backspace	n/a
293.2185	0.09	586437	keystroke_Key.backspace	Key.backspace	n/a
293.473	0.09	586946	keystroke_d	d	n/a
293.578	0.0755	587156	keystroke_i	i	n/a
293.698	0.165	587396	keystroke_c	c	n/a
293.788	0.15	587576	keystroke_a	a	n/a
294.074	0.1345	588148	keystroke_t	t	n/a
294.1485	0.105	588297	keystroke_e	e	n/a
294.3585	0.1045	588717	keystroke_d	d	n/a
294.4935	0.105	588987	keystroke_Key.space	Key.space	n/a
294.7785	0.06	589557	keystroke_c	c	n/a
295.0035	0.135	590007	keystroke_e	e	n/a
295.0785	0.135	590157	keystroke_r	r	n/a
295.3035	0.06	590607	keystroke_t	t	n/a
295.438	0.03	590876	keystroke_i	i	n/a
295.528	0.075	591056	keystroke_f	f	n/a
295.618	0.105	591236	keystroke_i	i	n/a
296.053	0.075	592106	keystroke_e	e	n/a
296.278	0.105	592556	keystroke_d	d	n/a
296.398	0.12	592796	keystroke_Key.space	Key.space	n/a
296.624	0.104	593248	keystroke_c	c	n/a
297.133	0.075	594266	keystroke_Key.backspace	Key.backspace	n/a
297.374	0.059	594748	keystroke_v	v	n/a
297.508	0.075	595016	keystroke_i	i	n/a
297.598	0.075	595196	keystroke_s	s	n/a
297.703	0.075	595406	keystroke_i	i	n/a
297.883	0.09	595766	keystroke_t	t	n/a
298.003	0.09	596006	keystroke_o	o	n/a
298.108	0.105	596216	keystroke_r	r	n/a
298.303	0.09	596606	keystroke_s	s	n/a
299.128	0.105	598256	keystroke_Key.enter	Key.enter	n/a
299.2455	8.906	598491	prompt	n/a	secured durable brunei generated\n
299.9235	0.0895	599847	keystroke_s	s	n/a
300.089	0.06	600178	keystroke_e	e	n/a
300.329	0.06	600658	keystroke_c	c	n/a
300.448	0.09	600896	keystroke_u	u	n/a
300.598	0.165	601196	keystroke_r	r	n/a
300.704	0.149	601408	keystroke_e	e	n/a
302.5635	0.1205	605127	keystroke_d	d	n/a
302.6685	0.0895	605337	keystroke_Key.space	Key.space	n/a
302.818	0.075	605636	keystroke_d	d	n/a
302.908	0.12	605816	keystroke_u	u	n/a
303.058	0.18	606116	keystroke_r	r	n/a
303.148	0.15	606296	keystroke_a	a	n/a
303.343	0.12	606686	keystroke_b	b	n/a
303.418	0.12	606836	keystroke_l	l	n/a
303.493	0.09	606986	keystroke_e	e	n/a
303.643	0.075	607286	keystroke_Key.space	Key.space	n/a
303.808	0.105	607616	keystroke_b	b	n/a
303.898	0.06	607796	keystroke_u	u	n/a
304.2585	0.09	608517	keystroke_Key.backspace	Key.backspace	n/a
304.3935	0.09	608787	keystroke_r	r	n/a
304.5435	0.105	609087	keystroke_u	u	n/a
304.9635	0.105	609927	keystroke_n	n	n/a
305.0535	0.105	610107	keystroke_e	e	n/a
305.1885	0.105	610377	keystroke_i	i	n/a
305.3985	0.09	610797	keystroke_Key.space	Key.space	n/a
305.5935	0.12	611187	keystroke_g	g	n/a
306.1635	0.075	612327	keystroke_e	e	n/a
306.2835	0.09	612567	keystroke_n	n	n/a
306.3885	0.135	612777	keystroke_e	e	n/a
306.4485	0.15	612897	keystroke_r	r	n/a
306.6135	0.09	613227	keystroke_a	a	n/a
306.7785	0.135	613557	keystroke_t	t	n/a
306.8385	0.12	613677	keystroke_e	e	n/a
307.0635	0.09	614127	keystroke_d	d	n/a
308.0385	0.105	616077	keystroke_Key.enter	Key.enter	n/a
308.1555	7.016	616311	prompt	n/a	hypothesis 'twas collar herb\n
309.1935	0.18	618387	keystroke_h	h	n/a
309.3585	0.03	618717	keystroke_y	y	n/a
309.553	0.1205	619106	keystroke_p	p	n/a
309.748	0.1055	619496	keystroke_o	o	n/a
310.0335	0.09	620067	keystroke_t	t	n/a
310.1685	0.09	620337	keystroke_h	h	n/a
310.2595	0.104	620519	keystroke_e	e	n/a
311.0235	0.105	622047	keystroke_s	s	n/a
311.1435	0.12	622287	keystroke_i	i	n/a
311.2785	0.09	622557	keystroke_s	s	n/a
311.5935	0.06	623187	keystroke_Key.space	Key.space	n/a
311.8935	0.09	623787	keystroke_'	'	n/a
312.2085	0.135	624417	keystroke_t	t	n/a
312.3285	0.195	624657	keystroke_w	w	n/a
312.4485	0.27	624897	keystroke_a	a	n/a
312.6585	0.15	625317	keystroke_s	s	n/a
312.9135	0.09	625827	keystroke_Key.space	Key.space	n/a
313.2135	0.105	626427	keystroke_c	c	n/a
313.3035	0.06	626607	keystroke_o	o	n/a
313.4685	0.06	626937	keystroke_l	l	n/a
313.589	0.1045	627178	keystroke_l	l	n/a
313.6035	0.24	627207	keystroke_a	a	n/a
313.7835	0.135	627567	keystroke_r	r	n/a
313.9485	0.09	627897	keystroke_Key.space	Key.space	n/a
314.2035	0.135	628407	keystroke_h	h	n/a
314.4435	0.165	628887	keystroke_e	e	n/a
314.5635	0.12	629127	keystroke_r	r	n/a
314.6685	0.105	629337	keystroke_b	b	n/a
315.0435	0.12	630087	keystroke_Key.enter	Key.enter	n/a
315.18	5.52	630360	prompt	n/a	colon immediate insertion random\n
315.8085	0.12	631617	keystroke_c	c	n/a
315.8685	0.075	631737	keystroke_o	o	n/a
316.0485	0.06	632097	keystroke_l	l	n/a
316.1835	0.15	632367	keystroke_o	o	n/a
316.3035	0.18	632607	keystroke_n	n	n/a
316.4835	0.09	632967	keystroke_Key.space	Key.space	n/a
316.6185	0.135	633237	keystroke_i	i	n/a
316.7235	0.12	633447	keystroke_m	m	n/a
316.9035	0.12	633807	keystroke_m	m	n/a
317.0835	0.09	634167	keystroke_e	e	n/a
317.2635	0.0905	634527	keystroke_d	d	n/a
317.3685	0.09	634737	keystroke_i	i	n/a
317.4735	0.09	634947	keystroke_a	a	n/a
317.6985	0.15	635397	keystroke_t	t	n/a
317.7735	0.12	635547	keystroke_e	e	n/a
317.8785	0.075	635757	keystroke_Key.space	Key.space	n/a
317.9835	0.165	635967	keystroke_i	i	n/a
318.0585	0.12	636117	keystroke_n	n	n/a
318.434	0.2245	636868	keystroke_s	s	n/a
318.5985	0.165	637197	keystroke_e	e	n/a
318.6885	0.165	637377	keystroke_r	r	n/a
318.8985	0.12	637797	keystroke_t	t	n/a
319.0035	0.1955	638007	keystroke_i	i	n/a
319.139	0.1795	638278	keystroke_o	o	n/a
319.229	0.18	638458	keystroke_n	n	n/a
319.379	0.09	638758	keystroke_Key.space	Key.space	n/a
319.574	0.165	639148	keystroke_r	r	n/a
319.694	0.12	639388	keystroke_a	a	n/a
319.799	0.105	639598	keystroke_n	n	n/a
319.934	0.09	639868	keystroke_d	d	n/a
320.054	0.09	640108	keystroke_o	o	n/a
320.234	0.075	640468	keystroke_m	m	n/a
320.609	0.09	641218	keystroke_Key.enter	Key.enter	n/a
320.7025	8.209	641405	prompt	n/a	differently oxide chip temporarily\n
321.434	0.075	642868	keystroke_d	d	n/a
321.524	0.09	643048	keystroke_i	i	n/a
321.629	0.06	643258	keystroke_f	f	n/a
321.764	0.105	643528	keystroke_f	f	n/a
321.914	0.15	643828	keystroke_e	e	n/a
322.019	0.135	644038	keystroke_r	r	n/a
322.139	0.075	644278	keystroke_e	e	n/a
322.199	0.09	644398	keystroke_n	n	n/a
322.29	0.104	644580	keystroke_t	t	n/a
322.409	0.09	644818	keystroke_l	l	n/a
322.499	0.09	644998	keystroke_y	y	n/a
322.603	0.105	645206	keystroke_Key.space	Key.space	n/a
323.4885	0.105	646977	keystroke_o	o	n/a
323.6835	0.105	647367	keystroke_x	x	n/a
323.8185	0.12	647637	keystroke_i	i	n/a
323.9235	0.18	647847	keystroke_d	d	n/a
324.0435	0.15	648087	keystroke_e	e	n/a
324.2085	0.105	648417	keystroke_Key.space	Key.space	n/a
324.3735	0.105	648747	keystroke_c	c	n/a
324.4335	0.135	648867	keystroke_h	h	n/a
324.5235	0.12	649047	keystroke_i	i	n/a
324.6135	0.135	649227	keystroke_p	p	n/a
324.7035	0.12	649407	keystroke_Key.space	Key.space	n/a
325.0485	0.195	650097	keystroke_t	t	n/a
325.1535	0.15	650307	keystroke_e	e	n/a
325.573	0.105	651146	keystroke_m	m	n/a
325.694	0.194	651388	keystroke_p	p	n/a
325.828	0.15	651656	keystroke_o	o	n/a
326.098	0.1505	652196	keystroke_r	r	n/a
326.9235	0.09	653847	keystroke_a	a	n/a
327.1185	0.105	654237	keystroke_r	r	n/a
327.7935	0.075	655587	keystroke_i	i	n/a
327.9585	0.135	655917	keystroke_l	l	n/a
328.1085	0.045	656217	keystroke_y	y	n/a
328.768	0.135	657536	keystroke_Key.enter	Key.enter	n/a
328.9165	7.1285	657833	prompt	n/a	regard claire presented supplies\n
329.624	0.134	659248	keystroke_r	r	n/a
329.698	0.105	659396	keystroke_e	e	n/a
329.983	0.06	659966	keystroke_a	a	n/a
330.463	0.09	660926	keystroke_Key.backspace	Key.backspace	n/a
330.689	0.165	661378	keystroke_g	g	n/a
330.793	0.135	661586	keystroke_a	a	n/a
330.988	0.09	661976	keystroke_r	r	n/a
331.213	0.09	662426	keystroke_d	d	n/a
331.363	0.105	662726	keystroke_Key.space	Key.space	n/a
331.813	0.105	663626	keystroke_c	c	n/a
331.948	0.06	663896	keystroke_l	l	n/a
332.053	0.075	664106	keystroke_a	a	n/a
332.159	0.134	664318	keystroke_i	i	n/a
332.278	0.18	664556	keystroke_r	r	n/a
332.383	0.135	664766	keystroke_e	e	n/a
332.519	0.119	665038	keystroke_Key.space	Key.space	n/a
332.668	0.12	665336	keystroke_r	r	n/a
332.968	0.06	665936	keystroke_Key.backspace	Key.backspace	n/a
333.223	0.105	666446	keystroke_p	p	n/a
333.343	0.15	666686	keystroke_r	r	n/a
333.418	0.15	666836	keystroke_e	e	n/a
333.658	0.1655	667316	keystroke_s	s	n/a
333.763	0.1205	667526	keystroke_e	e	n/a
333.913	0.0755	667826	keystroke_n	n	n/a
334.003	0.12	668006	keystroke_t	t	n/a
334.168	0.075	668336	keystroke_e	e	n/a
334.3785	0.0745	668757	keystroke_d	d	n/a
334.468	0.105	668936	keystroke_Key.space	Key.space	n/a
334.738	0.12	669476	keystroke_s	s	n/a
334.873	0.06	669746	keystroke_u	u	n/a
335.053	0.045	670106	keystroke_p	p	n/a
335.158	0.105	670316	keystroke_p	p	n/a
335.308	0.105	670616	keystroke_l	l	n/a
335.4885	0.0895	670977	keystroke_i	i	n/a
335.623	0.195	671246	keystroke_e	e	n/a
335.758	0.135	671516	keystroke_s	s	n/a
335.953	0.0905	671906	keystroke_Key.enter	Key.enter	n/a
336.0475	6.7395	672095	prompt	n/a	damaged fibre principal checks\n
336.8685	0.03	673737	keystroke_d	d	n/a
336.8835	0.045	673767	keystroke_a	a	n/a
336.9885	0.105	673977	keystroke_m	m	n/a
337.0785	0.12	674157	keystroke_a	a	n/a
337.5585	0.06	675117	keystroke_g	g	n/a
337.5735	0.105	675147	keystroke_e	e	n/a
337.7985	0.105	675597	keystroke_d	d	n/a
337.9185	0.105	675837	keystroke_Key.space	Key.space	n/a
338.7435	0.105	677487	keystroke_f	f	n/a
338.8335	0.21	677667	keystroke_i	i	n/a
338.9685	0.18	677937	keystroke_b	b	n/a
339.1035	0.195	678207	keystroke_r	r	n/a
339.2085	0.15	678417	keystroke_e	e	n/a
339.4035	0.075	678807	keystroke_Key.space	Key.space	n/a
339.9285	0.105	679857	keystroke_p	p	n/a
340.0785	0.12	680157	keystroke_r	r	n/a
340.1995	0.194	680399	keystroke_i	i	n/a
340.3785	0.12	680757	keystroke_n	n	n/a
340.8885	0.12	681777	keystroke_c	c	n/a
340.9635	0.135	681927	keystroke_i	i	n/a
341.0685	0.135	682137	keystroke_p	p	n/a
341.2185	0.105	682437	keystroke_a	a	n/a
341.3535	0.135	682707	keystroke_l	l	n/a
341.4585	0.12	682917	keystroke_Key.space	Key.space	n/a
341.6385	0.12	683277	keystroke_c	c	n/a
341.7435	0.105	683487	keystroke_h	h	n/a
341.8635	0.15	683727	keystroke_e	e	n/a
342.0285	0.2105	684057	keystroke_c	c	n/a
342.284	0.09	684568	keystroke_k	k	n/a
342.434	0.075	684868	keystroke_s	s	n/a
342.689	0.09	685378	keystroke_Key.enter	Key.enter	n/a
342.791	8.2155	685582	prompt	n/a	communication assessment reproduced math\n
343.484	0.15	686968	keystroke_c	c	n/a
343.559	0.12	687118	keystroke_o	o	n/a
343.709	0.09	687418	keystroke_m	m	n/a
343.874	0.09	687748	keystroke_m	m	n/a
344.069	0.09	688138	keystroke_u	u	n/a
344.114	0.195	688228	keystroke_n	n	n/a
344.264	0.15	688528	keystroke_i	i	n/a
344.369	0.1645	688738	keystroke_c	c	n/a
344.459	0.1345	688918	keystroke_a	a	n/a
344.7435	0.105	689487	keystroke_t	t	n/a
344.8335	0.165	689667	keystroke_i	i	n/a
344.9385	0.165	689877	keystroke_o	o	n/a
345.0135	0.165	690027	keystroke_n	n	n/a
345.1045	0.134	690209	keystroke_Key.space	Key.space	n/a
345.1935	0.135	690387	keystroke_a	a	n/a
345.2985	0.105	690597	keystroke_s	s	n/a
345.5835	0.12	691167	keystroke_s	s	n/a
345.8535	0.09	691707	keystroke_e	e	n/a
346.0035	0.105	692007	keystroke_s	s	n/a
346.2135	0.06	692427	keystroke_s	s	n/a
346.3035	0.075	692607	keystroke_m	m	n/a
346.4235	0.075	692847	keystroke_e	e	n/a
346.5135	0.105	693027	keystroke_n	n	n/a
346.6195	0.134	693239	keystroke_t	t	n/a
346.7385	0.105	693477	keystroke_Key.space	Key.space	n/a
346.9185	0.165	693837	keystroke_r	r	n/a
347.0085	0.12	694017	keystroke_e	e	n/a
347.1435	0.135	694287	keystroke_p	p	n/a
347.3085	0.135	694617	keystroke_r	r	n/a
347.4585	0.135	694917	keystroke_o	o	n/a
347.6085	0.15	695217	keystroke_f	f	n/a
347.8635	0.15	695727	keystroke_u	u	n/a
348.0135	0.09	696027	keystroke_c	c	n/a
348.2985	0.06	696597	keystroke_Key.backspace	Key.backspace	n/a
348.4635	0.03	696927	keystroke_Key.backspace	Key.backspace	n/a
348.5835	0.06	697167	keystroke_Key.backspace	Key.backspace	n/a
349.2735	0.0755	698547	keystroke_d	d	n/a
349.409	0.09	698818	keystroke_u	u	n/a
349.484	0.105	698968	keystroke_c	c	n/a
349.694	0.06	699388	keystroke_e	e	n/a
349.844	0.09	699688	keystroke_d	d	n/a
349.949	0.0745	699898	keystroke_Key.space	Key.space	n/a
350.0535	0.105	700107	keystroke_m	m	n/a
350.1285	0.09	700257	keystroke_a	a	n/a
350.3835	0.0745	700767	keystroke_t	t	n/a
350.593	0.165	701186	keystroke_h	h	n/a
350.908	0.09	701816	keystroke_Key.enter	Key.enter	n/a
351.01	5.255	702020	prompt	n/a	logged why'd nintendo stable\n
351.7035	0.06	703407	keystroke_l	l	n/a
351.854	0.12	703708	keystroke_o	o	n/a
352.049	0.06	704098	keystroke_g	g	n/a
352.198	0.12	704396	keystroke_g	g	n/a
352.274	0.135	704548	keystroke_e	e	n/a
352.514	0.12	705028	keystroke_d	d	n/a
352.649	0.12	705298	keystroke_Key.space	Key.space	n/a
352.784	0.165	705568	keystroke_w	w	n/a
353.009	0.09	706018	keystroke_h	h	n/a
353.1885	0.105	706377	keystroke_y	y	n/a
353.399	0.1195	706798	keystroke_'	'	n/a
353.5485	0.12	707097	keystroke_d	d	n/a
353.6535	0.105	707307	keystroke_Key.space	Key.space	n/a
353.8935	0.06	707787	keystroke_n	n	n/a
354.0285	0.135	708057	keystroke_i	i	n/a
354.1335	0.135	708267	keystroke_n	n	n/a
354.3585	0.1655	708717	keystroke_t	t	n/a
354.4485	0.1355	708897	keystroke_e	e	n/a
354.569	0.105	709138	keystroke_n	n	n/a
354.779	0.075	709558	keystroke_d	d	n/a
354.869	0.165	709738	keystroke_o	o	n/a
354.959	0.12	709918	keystroke_Key.space	Key.space	n/a
355.079	0.105	710158	keystroke_s	s	n/a
355.289	0.09	710578	keystroke_t	t	n/a
355.394	0.165	710788	keystroke_a	a	n/a
355.544	0.15	711088	keystroke_b	b	n/a
355.649	0.15	711298	keystroke_l	l	n/a
355.784	0.09	711568	keystroke_e	e	n/a
356.189	0.075	712378	keystroke_Key.enter	Key.enter	n/a
356.269	8.5835	712538	prompt	n/a	information downtown correspondence spectacular\n
356.924	0.195	713848	keystroke_i	i	n/a
357.044	0.105	714088	keystroke_n	n	n/a
357.134	0.12	714268	keystroke_f	f	n/a
357.269	0.06	714538	keystroke_o	o	n/a
357.299	0.0895	714598	keystroke_r	r	n/a
357.4335	0.075	714867	keystroke_m	m	n/a
357.4935	0.105	714987	keystroke_a	a	n/a
357.6735	0.105	715347	keystroke_t	t	n/a
357.7335	0.15	715467	keystroke_i	i	n/a
357.8235	0.165	715647	keystroke_o	o	n/a
357.8985	0.165	715797	keystroke_n	n	n/a
358.0035	0.135	716007	keystroke_Key.space	Key.space	n/a
358.1085	0.105	716217	keystroke_d	d	n/a
358.2145	0.104	716429	keystroke_o	o	n/a
358.3035	0.105	716607	keystroke_w	w	n/a
358.3935	0.105	716787	keystroke_n	n	n/a
359.3085	0.12	718617	keystroke_t	t	n/a
359.4435	0.075	718887	keystroke_o	o	n/a
359.5335	0.12	719067	keystroke_w	w	n/a
359.6545	0.134	719309	keystroke_n	n	n/a
359.7285	0.12	719457	keystroke_Key.space	Key.space	n/a
359.9685	0.12	719937	keystroke_c	c	n/a
360.0585	0.09	720117	keystroke_o	o	n/a
360.2535	0.075	720507	keystroke_r	r	n/a
360.4035	0.195	720807	keystroke_r	r	n/a
360.5235	0.225	721047	keystroke_e	e	n/a
360.6585	0.165	721317	keystroke_s	s	n/a
360.9285	0.18	721857	keystroke_p	p	n/a
361.0485	0.225	722097	keystroke_o	o	n/a
361.1685	0.18	722337	keystroke_n	n	n/a
361.4085	0.195	722817	keystroke_d	d	n/a
361.6635	0.105	723327	keystroke_e	e	n/a
361.8135	0.09	723627	keystroke_n	n	n/a
361.9185	0.1505	723837	keystroke_c	c	n/a
362.024	0.135	724048	keystroke_e	e	n/a
362.204	0.075	724408	keystroke_Key.space	Key.space	n/a
362.4735	0.09	724947	keystroke_s	s	n/a
362.714	0.105	725428	keystroke_p	p	n/a
362.804	0.06	725608	keystroke_e	e	n/a
363.029	0.075	726058	keystroke_c	c	n/a
363.284	0.165	726568	keystroke_t	t	n/a
363.419	0.15	726838	keystroke_a	a	n/a
363.674	0.12	727348	keystroke_c	c	n/a
363.779	0.075	727558	keystroke_u	u	n/a
363.974	0.075	727948	keystroke_l	l	n/a
364.019	0.18	728038	keystroke_a	a	n/a
364.169	0.105	728338	keystroke_r	r	n/a
364.754	0.09	729508	keystroke_Key.enter	Key.enter	n/a
364.8565	5.2985	729713	prompt	n/a	secure telephony residents sellers\n
365.414	0.12	730828	keystroke_s	s	n/a
365.639	0.075	731278	keystroke_e	e	n/a
365.849	0.09	731698	keystroke_c	c	n/a
365.9995	0.1045	731999	keystroke_u	u	n/a
366.119	0.135	732238	keystroke_r	r	n/a
366.179	0.12	732358	keystroke_e	e	n/a
366.314	0.105	732628	keystroke_Key.space	Key.space	n/a
366.434	0.1345	732868	keystroke_t	t	n/a
366.5235	0.12	733047	keystroke_e	e	n/a
366.7635	0.09	733527	keystroke_l	l	n/a
366.8685	0.09	733737	keystroke_e	e	n/a
367.0035	0.135	734007	keystroke_p	p	n/a
367.1395	0.134	734279	keystroke_h	h	n/a
367.2435	0.18	734487	keystroke_o	o	n/a
367.3935	0.15	734787	keystroke_n	n	n/a
367.6645	0.105	735329	keystroke_y	y	n/a
367.7835	0.105	735567	keystroke_Key.space	Key.space	n/a
367.9035	0.225	735807	keystroke_r	r	n/a
368.0535	0.165	736107	keystroke_e	e	n/a
368.1735	0.121	736347	keystroke_s	s	n/a
368.2785	0.12	736557	keystroke_i	i	n/a
368.4435	0.12	736887	keystroke_d	d	n/a
368.4885	0.135	736977	keystroke_e	e	n/a
368.6385	0.105	737277	keystroke_n	n	n/a
368.7585	0.195	737517	keystroke_t	t	n/a
368.8785	0.15	737757	keystroke_s	s	n/a
369.0135	0.075	738027	keystroke_Key.space	Key.space	n/a
369.1185	0.15	738237	keystroke_s	s	n/a
369.2835	0.105	738567	keystroke_e	e	n/a
369.4485	0.045	738897	keystroke_l	l	n/a
369.5685	0.105	739137	keystroke_l	l	n/a
369.6585	0.165	739317	keystroke_e	e	n/a
369.7635	0.21	739527	keystroke_r	r	n/a
369.8835	0.165	739767	keystroke_s	s	n/a
370.0635	0.09	740127	keystroke_Key.enter	Key.enter	n/a
370.159	11.283	740318	prompt	n/a	alien ambient observer handbook\n
370.7085	0.12	741417	keystroke_a	a	n/a
370.844	0.0445	741688	keystroke_l	l	n/a
370.9935	0.105	741987	keystroke_i	i	n/a
371.1285	0.12	742257	keystroke_e	e	n/a
371.2635	0.12	742527	keystroke_n	n	n/a
371.3985	0.105	742797	keystroke_Key.space	Key.space	n/a
371.7435	0.12	743487	keystroke_a	a	n/a
371.9835	0.075	743967	keystroke_m	m	n/a
372.224	0.105	744448	keystroke_b	b	n/a
372.299	0.15	744598	keystroke_i	i	n/a
372.434	0.105	744868	keystroke_e	e	n/a
372.554	0.135	745108	keystroke_n	n	n/a
372.704	0.09	745408	keystroke_t	t	n/a
372.809	0.09	745618	keystroke_Key.space	Key.space	n/a
372.974	0.105	745948	keystroke_o	o	n/a
373.304	0.105	746608	keystroke_v	v	n/a
373.559	0.225	747118	keystroke_s	s	n/a
373.664	0.195	747328	keystroke_e	e	n/a
373.769	0.165	747538	keystroke_r	r	n/a
373.979	0.105	747958	keystroke_v	v	n/a
374.069	0.165	748138	keystroke_e	e	n/a
374.174	0.135	748348	keystroke_r	r	n/a
374.294	0.089	748588	keystroke_Key.space	Key.space	n/a
374.414	0.12	748828	keystroke_h	h	n/a
374.489	0.104	748978	keystroke_a	a	n/a
374.624	0.104	749248	keystroke_n	n	n/a
374.714	0.09	749428	keystroke_d	d	n/a
375.463	0.061	750926	keystroke_Key.backspace	Key.backspace	n/a
375.644	0.044	751288	keystroke_Key.backspace	Key.backspace	n/a
375.809	0.045	751618	keystroke_Key.backspace	Key.backspace	n/a
375.959	0.044	751918	keystroke_Key.backspace	Key.backspace	n/a
376.108	0.046	752216	keystroke_Key.backspace	Key.backspace	n/a
376.2735	0.0295	752547	keystroke_Key.backspace	Key.backspace	n/a
376.423	0.06	752846	keystroke_Key.backspace	Key.backspace	n/a
376.5585	0.0745	753117	keystroke_Key.backspace	Key.backspace	n/a
376.723	0.075	753446	keystroke_Key.backspace	Key.backspace	n/a
376.8735	0.075	753747	keystroke_Key.backspace	Key.backspace	n/a
377.0385	0.045	754077	keystroke_Key.backspace	Key.backspace	n/a
377.2185	0.06	754437	keystroke_Key.backspace	Key.backspace	n/a
377.8935	0.075	755787	keystroke_b	b	n/a
378.1035	0.18	756207	keystroke_s	s	n/a
378.2235	0.1655	756447	keystroke_e	e	n/a
378.3285	0.135	756657	keystroke_r	r	n/a
378.5085	0.09	757017	keystroke_v	v	n/a
378.5835	0.165	757167	keystroke_e	e	n/a
378.6735	0.15	757347	keystroke_r	r	n/a
378.8535	0.075	757707	keystroke_Key.space	Key.space	n/a
379.289	0.12	758578	keystroke_h	h	n/a
379.379	0.12	758758	keystroke_a	a	n/a
379.514	0.09	759028	keystroke_n	n	n/a
379.589	0.105	759178	keystroke_d	d	n/a
380.039	0.03	760078	keystroke_d	d	n/a
380.384	0.09	760768	keystroke_Key.backspace	Key.backspace	n/a
380.504	0.09	761008	keystroke_b	b	n/a
380.609	0.075	761218	keystroke_o	o	n/a
380.744	0.12	761488	keystroke_o	o	n/a
380.834	0.12	761668	keystroke_k	k	n/a
381.329	0.1045	762658	keystroke_Key.enter	Key.enter	n/a
381.445	4.865	762890	prompt	n/a	intensity domain online florists\n
382.0935	0.12	764187	keystroke_i	i	n/a
382.1835	0.12	764367	keystroke_n	n	n/a
382.2735	0.165	764547	keystroke_t	t	n/a
382.3635	0.165	764727	keystroke_e	e	n/a
382.5135	0.075	765027	keystroke_n	n	n/a
382.6035	0.09	765207	keystroke_s	s	n/a
382.7085	0.105	765417	keystroke_i	i	n/a
382.8285	0.105	765657	keystroke_t	t	n/a
382.9635	0.105	765927	keystroke_y	y	n/a
383.0235	0.12	766047	keystroke_Key.space	Key.space	n/a
383.2035	0.12	766407	keystroke_d	d	n/a
383.3085	0.135	766617	keystroke_o	o	n/a
383.369	0.1345	766738	keystroke_m	m	n/a
383.5185	0.105	767037	keystroke_a	a	n/a
383.6085	0.135	767217	keystroke_i	i	n/a
383.6835	0.18	767367	keystroke_n	n	n/a
383.8335	0.075	767667	keystroke_Key.space	Key.space	n/a
383.9385	0.1055	767877	keystroke_o	o	n/a
384.029	0.15	768058	keystroke_n	n	n/a
384.194	0.09	768388	keystroke_l	l	n/a
384.3885	0.105	768777	keystroke_i	i	n/a
384.4785	0.15	768957	keystroke_n	n	n/a
384.6435	0.09	769287	keystroke_e	e	n/a
384.7785	0.075	769557	keystroke_Key.space	Key.space	n/a
384.9135	0.135	769827	keystroke_f	f	n/a
385.0335	0.045	770067	keystroke_l	l	n/a
385.1985	0.09	770397	keystroke_o	o	n/a
385.3035	0.105	770607	keystroke_r	r	n/a
385.4235	0.106	770847	keystroke_i	i	n/a
385.5445	0.089	771089	keystroke_s	s	n/a
385.7385	0.195	771477	keystroke_t	t	n/a
385.8435	0.135	771687	keystroke_s	s	n/a
386.2485	0.06	772497	keystroke_Key.enter	Key.enter	n/a
386.3125	3.944	772625	prompt	n/a	epic bean summer parties\n
386.8785	0.15	773757	keystroke_e	e	n/a
387.0135	0.135	774027	keystroke_p	p	n/a
387.0885	0.1655	774177	keystroke_i	i	n/a
387.224	0.105	774448	keystroke_c	c	n/a
387.359	0.0745	774718	keystroke_Key.space	Key.space	n/a
387.5085	0.12	775017	keystroke_b	b	n/a
387.6135	0.225	775227	keystroke_e	e	n/a
387.7485	0.18	775497	keystroke_a	a	n/a
387.9135	0.1495	775827	keystroke_n	n	n/a
388.019	0.12	776038	keystroke_Key.space	Key.space	n/a
388.154	0.12	776308	keystroke_s	s	n/a
388.229	0.075	776458	keystroke_u	u	n/a
388.439	0.06	776878	keystroke_m	m	n/a
388.559	0.09	777118	keystroke_m	m	n/a
388.649	0.164	777298	keystroke_e	e	n/a
388.754	0.15	777508	keystroke_r	r	n/a
388.889	0.1045	777778	keystroke_Key.space	Key.space	n/a
389.0835	0.1355	778167	keystroke_p	p	n/a
389.234	0.135	778468	keystroke_a	a	n/a
389.354	0.105	778708	keystroke_r	r	n/a
389.564	0.09	779128	keystroke_t	t	n/a
389.639	0.105	779278	keystroke_i	i	n/a
389.789	0.18	779578	keystroke_e	e	n/a
389.879	0.165	779758	keystroke_s	s	n/a
390.179	0.075	780358	keystroke_Key.enter	Key.enter	n/a
390.259	6.1015	780518	prompt	n/a	there'll hopes console controversial\n
390.929	0.09	781858	keystroke_t	t	n/a
391.004	0.1195	782008	keystroke_h	h	n/a
391.078	0.136	782156	keystroke_e	e	n/a
391.169	0.165	782338	keystroke_r	r	n/a
391.274	0.12	782548	keystroke_e	e	n/a
391.424	0.105	782848	keystroke_'	'	n/a
391.9635	0.0605	783927	keystroke_l	l	n/a
392.114	0.12	784228	keystroke_l	l	n/a
392.204	0.105	784408	keystroke_Key.space	Key.space	n/a
392.3985	0.135	784797	keystroke_h	h	n/a
392.4885	0.105	784977	keystroke_o	o	n/a
392.6985	0.09	785397	keystroke_p	p	n/a
392.7895	0.179	785579	keystroke_e	e	n/a
392.9235	0.12	785847	keystroke_s	s	n/a
393.0285	0.12	786057	keystroke_Key.space	Key.space	n/a
393.1935	0.09	786387	keystroke_c	c	n/a
393.2685	0.18	786537	keystroke_o	o	n/a
393.3885	0.09	786777	keystroke_n	n	n/a
393.4935	0.105	786987	keystroke_s	s	n/a
393.5995	0.059	787199	keystroke_o	o	n/a
393.7635	0.075	787527	keystroke_l	l	n/a
393.8235	0.09	787647	keystroke_e	e	n/a
393.9585	0.075	787917	keystroke_Key.space	Key.space	n/a
394.0785	0.15	788157	keystroke_c	c	n/a
394.1835	0.15	788367	keystroke_o	o	n/a
394.2435	0.105	788487	keystroke_n	n	n/a
394.3935	0.15	788787	keystroke_t	t	n/a
394.4835	0.135	788967	keystroke_r	r	n/a
394.5885	0.09	789177	keystroke_o	o	n/a
394.8285	0.105	789657	keystroke_v	v	n/a
395.0685	0.195	790137	keystroke_e	e	n/a
395.1735	0.12	790347	keystroke_r	r	n/a
395.5335	0.105	791067	keystroke_s	s	n/a
395.6985	0.06	791397	keystroke_i	i	n/a
395.8035	0.09	791607	keystroke_a	a	n/a
395.9385	0.0455	791877	keystroke_l	l	n/a
396.3135	0.045	792627	keystroke_Key.enter	Key.enter	n/a
396.366	11.986	792732	prompt	n/a	match represents refined probability\n
396.9585	0.105	793917	keystroke_m	m	n/a
397.0035	0.12	794007	keystroke_a	a	n/a
397.1385	0.105	794277	keystroke_r	r	n/a
397.4385	0.075	794877	keystroke_c	c	n/a
397.5285	0.18	795057	keystroke_h	h	n/a
397.6785	0.09	795357	keystroke_Key.space	Key.space	n/a
397.9485	0.075	795897	keystroke_Key.backspace	Key.backspace	n/a
398.1135	0.06	796227	keystroke_Key.backspace	Key.backspace	n/a
398.2635	0.06	796527	keystroke_Key.backspace	Key.backspace	n/a
398.3985	0.075	796797	keystroke_Key.backspace	Key.backspace	n/a
398.9985	0.075	797997	keystroke_t	t	n/a
399.1185	0.09	798237	keystroke_c	c	n/a
399.2535	0.105	798507	keystroke_h	h	n/a
399.3435	0.09	798687	keystroke_Key.space	Key.space	n/a
399.5985	0.165	799197	keystroke_r	r	n/a
399.7185	0.12	799437	keystroke_e	e	n/a
399.8835	0.105	799767	keystroke_p	p	n/a
400.0035	0.165	800007	keystroke_r	r	n/a
400.0785	0.195	800157	keystroke_e	e	n/a
400.1985	0.27	800397	keystroke_s	s	n/a
400.3785	0.1655	800757	keystroke_e	e	n/a
400.5285	0.1055	801057	keystroke_n	n	n/a
400.604	0.225	801208	keystroke_t	t	n/a
400.754	0.1495	801508	keystroke_s	s	n/a
400.9185	0.12	801837	keystroke_Key.space	Key.space	n/a
401.0835	0.18	802167	keystroke_r	r	n/a
401.2035	0.15	802407	keystroke_e	e	n/a
401.4735	0.09	802947	keystroke_d	d	n/a
401.9085	0.06	803817	keystroke_Key.backspace	Key.backspace	n/a
401.9835	0.105	803967	keystroke_f	f	n/a
402.1485	0.18	804297	keystroke_i	i	n/a
402.2235	0.21	804447	keystroke_n	n	n/a
402.5985	0.09	805197	keystroke_e	e	n/a
402.8235	0.075	805647	keystroke_d	d	n/a
402.9435	0.105	805887	keystroke_Key.space	Key.space	n/a
403.1685	0.1055	806337	keystroke_p	p	n/a
403.274	0.105	806548	keystroke_r	r	n/a
403.363	0.09	806726	keystroke_o	o	n/a
403.5585	0.075	807117	keystroke_b	b	n/a
403.664	0.1195	807328	keystroke_a	a	n/a
403.7235	0.121	807447	keystroke_b	b	n/a
403.8885	0.091	807777	keystroke_l	l	n/a
404.234	0.06	808468	keystroke_Key.backspace	Key.backspace	n/a
404.534	0.09	809068	keystroke_i	i	n/a
404.759	0.12	809518	keystroke_l	l	n/a
404.969	0.075	809938	keystroke_i	i	n/a
405.224	0.105	810448	keystroke_y	y	n/a
406.184	0.075	812368	keystroke_Key.backspace	Key.backspace	n/a
407.009	0.06	814018	keystroke_t	t	n/a
407.144	0.06	814288	keystroke_y	y	n/a
407.3085	0.06	814617	keystroke_Key.space	Key.space	n/a
407.7135	0.105	815427	keystroke_Key.backspace	Key.backspace	n/a
408.2085	0.1355	816417	keystroke_Key.enter	Key.enter	n/a
408.3555	8.6365	816711	prompt	n/a	stars suburban flour script\n
411.2565	0.042	822513	keystroke_s	s	n/a
411.359	0.06	822718	keystroke_t	t	n/a
411.434	0.135	822868	keystroke_a	a	n/a
411.524	0.12	823048	keystroke_r	r	n/a
411.629	0.15	823258	keystroke_s	s	n/a
411.734	0.12	823468	keystroke_Key.space	Key.space	n/a
411.959	0.135	823918	keystroke_s	s	n/a
412.094	0.165	824188	keystroke_u	u	n/a
412.199	0.1645	824398	keystroke_b	b	n/a
413.459	0.15	826918	keystroke_u	u	n/a
413.564	0.135	827128	keystroke_r	r	n/a
413.729	0.09	827458	keystroke_b	b	n/a
413.82	0.104	827640	keystroke_a	a	n/a
413.954	0.165	827908	keystroke_n	n	n/a
414.089	0.12	828178	keystroke_Key.space	Key.space	n/a
414.299	0.1045	828598	keystroke_f	f	n/a
414.4185	0.045	828837	keystroke_l	l	n/a
414.5695	0.225	829139	keystroke_o	o	n/a
414.7185	0.18	829437	keystroke_u	u	n/a
414.8535	0.15	829707	keystroke_r	r	n/a
415.0635	0.09	830127	keystroke_Key.space	Key.space	n/a
415.3485	0.12	830697	keystroke_s	s	n/a
415.6035	0.09	831207	keystroke_c	c	n/a
415.8435	0.075	831687	keystroke_r	r	n/a
415.9195	0.224	831839	keystroke_i	i	n/a
416.0835	0.165	832167	keystroke_p	p	n/a
416.2635	0.105	832527	keystroke_t	t	n/a
416.9085	0.075	833817	keystroke_Key.enter	Key.enter	n/a
416.996	5.7645	833992	prompt	n/a	visa wallace boxed steady\n
417.7635	0.121	835527	keystroke_v	v	n/a
417.8995	0.149	835799	keystroke_i	i	n/a
418.0335	0.18	836067	keystroke_s	s	n/a
418.1695	0.134	836339	keystroke_a	a	n/a
418.3185	0.105	836637	keystroke_Key.space	Key.space	n/a
418.5445	0.18	837089	keystroke_w	w	n/a
418.6345	0.164	837269	keystroke_a	a	n/a
418.7845	0.059	837569	keystroke_l	l	n/a
418.9185	0.076	837837	keystroke_l	l	n/a
419.0085	0.105	838017	keystroke_a	a	n/a
419.2635	0.12	838527	keystroke_c	c	n/a
419.4885	0.105	838977	keystroke_e	e	n/a
419.5635	0.075	839127	keystroke_Key.space	Key.space	n/a
419.8185	0.045	839637	keystroke_b	b	n/a
419.8335	0.121	839667	keystroke_o	o	n/a
420.1935	0.105	840387	keystroke_x	x	n/a
420.9745	0.09	841949	keystroke_e	e	n/a
421.274	0.0745	842548	keystroke_d	d	n/a
421.3635	0.105	842727	keystroke_Key.space	Key.space	n/a
421.7685	0.06	843537	keystroke_s	s	n/a
421.9635	0.12	843927	keystroke_t	t	n/a
422.0235	0.18	844047	keystroke_e	e	n/a
422.2485	0.136	844497	keystroke_a	a	n/a
422.3385	0.106	844677	keystroke_d	d	n/a
422.5035	0.075	845007	keystroke_y	y	n/a
422.6685	0.09	845337	keystroke_Key.enter	Key.enter	n/a
422.765	6.1605	845530	prompt	n/a	disturbed sake para marked\n
423.3735	0.105	846747	keystroke_d	d	n/a
423.4945	0.119	846989	keystroke_i	i	n/a
423.5845	0.089	847169	keystroke_s	s	n/a
424.9045	0.105	849809	keystroke_t	t	n/a
424.9945	0.119	849989	keystroke_u	u	n/a
425.0995	0.089	850199	keystroke_r	r	n/a
425.2185	0.09	850437	keystroke_b	b	n/a
425.3235	0.09	850647	keystroke_e	e	n/a
425.6085	0.016	851217	keystroke_d	d	n/a
425.6545	0.074	851309	keystroke_Key.space	Key.space	n/a
425.8945	0.135	851789	keystroke_s	s	n/a
425.9995	0.12	851999	keystroke_a	a	n/a
426.1345	0.119	852269	keystroke_k	k	n/a
426.2385	0.106	852477	keystroke_e	e	n/a
426.3585	0.03	852717	keystroke_Key.space	Key.space	n/a
426.4635	0.136	852927	keystroke_p	p	n/a
426.5385	0.105	853077	keystroke_a	a	n/a
426.7035	0.195	853407	keystroke_r	r	n/a
426.8085	0.15	853617	keystroke_a	a	n/a
427.1395	0.089	854279	keystroke_Key.space	Key.space	n/a
427.3045	0.105	854609	keystroke_m	m	n/a
427.3935	0.045	854787	keystroke_e	e	n/a
427.6935	0.091	855387	keystroke_Key.backspace	Key.backspace	n/a
427.8435	0.136	855687	keystroke_a	a	n/a
427.9485	0.121	855897	keystroke_r	r	n/a
428.1435	0.121	856287	keystroke_k	k	n/a
428.2335	0.106	856467	keystroke_e	e	n/a
428.684	0.105	857368	keystroke_d	d	n/a
428.834	0.09	857668	keystroke_Key.enter	Key.enter	n/a
428.928	8.4645	857856	prompt	n/a	supplied gary already memphis\n
429.569	0.135	859138	keystroke_s	s	n/a
429.719	0.105	859438	keystroke_u	u	n/a
429.839	0.045	859678	keystroke_[	[	n/a
430.3185	0.075	860637	keystroke_Key.backspace	Key.backspace	n/a
430.5585	0.06	861117	keystroke_p	p	n/a
430.6935	0.105	861387	keystroke_p	p	n/a
430.9185	0.1505	861837	keystroke_l	l	n/a
431.174	0.105	862348	keystroke_i	i	n/a
431.264	0.09	862528	keystroke_e	e	n/a
431.474	0.09	862948	keystroke_d	d	n/a
431.534	0.12	863068	keystroke_Key.space	Key.space	n/a
431.744	0.285	863488	keystroke_f	f	n/a
432.269	0.09	864538	keystroke_Key.backspace	Key.backspace	n/a
432.569	0.12	865138	keystroke_g	g	n/a
432.659	0.225	865318	keystroke_a	a	n/a
432.809	0.135	865618	keystroke_r	r	n/a
432.944	0.12	865888	keystroke_y	y	n/a
433.004	0.105	866008	keystroke_Key.space	Key.space	n/a
433.349	0.105	866698	keystroke_a	a	n/a
433.469	0.12	866938	keystroke_l	l	n/a
433.604	0.15	867208	keystroke_r	r	n/a
433.694	0.135	867388	keystroke_e	e	n/a
433.844	0.21	867688	keystroke_a	a	n/a
433.994	0.105	867988	keystroke_d	d	n/a
434.084	0.105	868168	keystroke_y	y	n/a
434.159	0.0745	868318	keystroke_Key.space	Key.space	n/a
434.3835	0.06	868767	keystroke_m	m	n/a
434.3985	0.09	868797	keystroke_e	e	n/a
434.5335	0.135	869067	keystroke_m	m	n/a
434.6535	0.12	869307	keystroke_p	p	n/a
434.909	0.1495	869818	keystroke_h	h	n/a
434.9835	0.195	869967	keystroke_i	i	n/a
435.2535	0.09	870507	keystroke_s	s	n/a
437.264	0.1205	874528	keystroke_Key.enter	Key.enter	n/a
437.396	7.541	874792	prompt	n/a	superintendent editing awful justify\n
438.059	0.105	876118	keystroke_s	s	n/a
438.209	0.12	876418	keystroke_u	u	n/a
438.299	0.15	876598	keystroke_p	p	n/a
438.374	0.135	876748	keystroke_e	e	n/a
438.449	0.15	876898	keystroke_r	r	n/a
438.674	0.18	877348	keystroke_i	i	n/a
438.794	0.135	877588	keystroke_n	n	n/a
439.304	0.1495	878608	keystroke_t	t	n/a
439.3935	0.135	878787	keystroke_e	e	n/a
439.5435	0.09	879087	keystroke_n	n	n/a
439.6785	0.15	879357	keystroke_d	d	n/a
439.784	0.105	879568	keystroke_e	e	n/a
439.9185	0.1205	879837	keystroke_n	n	n/a
440.024	0.12	880048	keystroke_t	t	n/a
440.159	0.105	880318	keystroke_Key.space	Key.space	n/a
440.534	0.09	881068	keystroke_e	e	n/a
440.729	0.075	881458	keystroke_d	d	n/a
440.864	0.075	881728	keystroke_i	i	n/a
440.9845	0.12	881969	keystroke_t	t	n/a
441.0895	0.195	882179	keystroke_i	i	n/a
441.2395	0.15	882479	keystroke_n	n	n/a
441.4045	0.149	882809	keystroke_g	g	n/a
441.5085	0.09	883017	keystroke_Key.space	Key.space	n/a
441.7045	0.089	883409	keystroke_a	a	n/a
441.9585	0.0905	883917	keystroke_w	w	n/a
442.859	0.105	885718	keystroke_f	f	n/a
442.994	0.075	885988	keystroke_u	u	n/a
443.204	0.15	886408	keystroke_l	l	n/a
443.339	0.09	886678	keystroke_Key.space	Key.space	n/a
443.489	0.075	886978	keystroke_j	j	n/a
443.639	0.105	887278	keystroke_u	u	n/a
443.729	0.2555	887458	keystroke_s	s	n/a
443.894	0.135	887788	keystroke_t	t	n/a
444.014	0.18	888028	keystroke_i	i	n/a
444.389	0.105	888778	keystroke_f	f	n/a
444.539	0.09	889078	keystroke_y	y	n/a
444.839	0.09	889678	keystroke_Key.enter	Key.enter	n/a
444.9405	6.395	889881	prompt	n/a	lens districts anytime compressed\n
445.709	0.105	891418	keystroke_l	l	n/a
445.829	0.09	891658	keystroke_e	e	n/a
445.934	0.12	891868	keystroke_n	n	n/a
446.024	0.105	892048	keystroke_s	s	n/a
446.174	0.045	892348	keystroke_Key.space	Key.space	n/a
446.279	0.105	892558	keystroke_d	d	n/a
446.414	0.09	892828	keystroke_i	i	n/a
446.534	0.06	893068	keystroke_s	s	n/a
446.879	0.1045	893758	keystroke_t	t	n/a
446.9235	0.105	893847	keystroke_r	r	n/a
447.209	0.12	894418	keystroke_i	i	n/a
447.344	0.1655	894688	keystroke_c	c	n/a
447.7195	0.09	895439	keystroke_t	t	n/a
447.9295	0.104	895859	keystroke_s	s	n/a
448.0485	0.09	896097	keystroke_Key.space	Key.space	n/a
448.1535	0.106	896307	keystroke_a	a	n/a
448.4085	0.0755	896817	keystroke_n	n	n/a
448.559	0.105	897118	keystroke_y	y	n/a
448.709	0.12	897418	keystroke_t	t	n/a
448.784	0.09	897568	keystroke_h	h	n/a
449.084	0.075	898168	keystroke_Key.backspace	Key.backspace	n/a
449.3235	0.195	898647	keystroke_i	i	n/a
449.3985	0.195	898797	keystroke_m	m	n/a
449.5635	0.09	899127	keystroke_e	e	n/a
449.6835	0.09	899367	keystroke_Key.space	Key.space	n/a
449.8635	0.106	899727	keystroke_c	c	n/a
449.9545	0.15	899909	keystroke_o	o	n/a
450.0295	0.15	900059	keystroke_m	m	n/a
450.1195	0.21	900239	keystroke_p	p	n/a
450.3145	0.15	900629	keystroke_r	r	n/a
450.4045	0.135	900809	keystroke_e	e	n/a
450.5095	0.12	901019	keystroke_s	s	n/a
450.7195	0.15	901439	keystroke_s	s	n/a
450.8835	0.09	901767	keystroke_e	e	n/a
451.0935	0.075	902187	keystroke_d	d	n/a
451.2435	0.09	902487	keystroke_Key.enter	Key.enter	n/a
451.339	5.6515	902678	prompt	n/a	dental fred regarded summary\n
451.9945	0.119	903989	keystroke_d	d	n/a
452.0685	0.075	904137	keystroke_e	e	n/a
452.1285	0.09	904257	keystroke_n	n	n/a
452.2035	0.09	904407	keystroke_t	t	n/a
452.4585	0.12	904917	keystroke_a	a	n/a
452.6385	0.135	905277	keystroke_l	l	n/a
452.7435	0.105	905487	keystroke_Key.space	Key.space	n/a
453.0735	0.12	906147	keystroke_f	f	n/a
453.3285	0.1505	906657	keystroke_r	r	n/a
453.4195	0.1195	906839	keystroke_e	e	n/a
453.674	0.12	907348	keystroke_d	d	n/a
453.809	0.12	907618	keystroke_Key.space	Key.space	n/a
454.019	0.165	908038	keystroke_r	r	n/a
454.109	0.15	908218	keystroke_e	e	n/a
454.6485	0.165	909297	keystroke_g	g	n/a
454.7535	0.15	909507	keystroke_a	a	n/a
455.1585	0.105	910317	keystroke_r	r	n/a
455.3835	0.195	910767	keystroke_d	d	n/a
455.5035	0.195	911007	keystroke_e	e	n/a
455.6535	0.135	911307	keystroke_d	d	n/a
455.8035	0.105	911607	keystroke_Key.space	Key.space	n/a
455.9385	0.12	911877	keystroke_s	s	n/a
456.0285	0.075	912057	keystroke_u	u	n/a
456.2235	0.06	912447	keystroke_m	m	n/a
456.3285	0.091	912657	keystroke_m	m	n/a
456.4035	0.1955	912807	keystroke_a	a	n/a
456.554	0.165	913108	keystroke_r	r	n/a
456.674	0.09	913348	keystroke_y	y	n/a
456.884	0.105	913768	keystroke_Key.enter	Key.enter	n/a
456.9985	4.072	913997	prompt	n/a	ranks carried muscles such\n
457.709	0.165	915418	keystroke_r	r	n/a
457.799	0.105	915598	keystroke_a	a	n/a
457.889	0.105	915778	keystroke_n	n	n/a
457.979	0.105	915958	keystroke_k	k	n/a
458.054	0.105	916108	keystroke_s	s	n/a
458.189	0.075	916378	keystroke_Key.space	Key.space	n/a
458.384	0.09	916768	keystroke_c	c	n/a
458.639	0.12	917278	keystroke_a	a	n/a
458.864	0.06	917728	keystroke_r	r	n/a
458.999	0.09	917998	keystroke_r	r	n/a
459.119	0.12	918238	keystroke_i	i	n/a
459.179	0.12	918358	keystroke_e	e	n/a
459.404	0.09	918808	keystroke_d	d	n/a
459.464	0.075	918928	keystroke_Key.space	Key.space	n/a
459.569	0.105	919138	keystroke_m	m	n/a
459.749	0.135	919498	keystroke_u	u	n/a
459.794	0.18	919588	keystroke_s	s	n/a
459.929	0.12	919858	keystroke_c	c	n/a
460.064	0.09	920128	keystroke_l	l	n/a
460.184	0.195	920368	keystroke_e	e	n/a
460.304	0.12	920608	keystroke_s	s	n/a
460.409	0.09	920818	keystroke_Key.space	Key.space	n/a
460.514	0.12	921028	keystroke_s	s	n/a
460.589	0.12	921178	keystroke_u	u	n/a
460.739	0.0895	921478	keystroke_c	c	n/a
460.8435	0.076	921687	keystroke_h	h	n/a
460.9935	0.075	921987	keystroke_Key.enter	Key.enter	n/a
461.074	6.9485	922148	prompt	n/a	behalf carrying blake stroke\n
461.6385	0.09	923277	keystroke_b	b	n/a
461.7435	0.105	923487	keystroke_e	e	n/a
461.8785	0.1055	923757	keystroke_h	h	n/a
461.9985	0.105	923997	keystroke_a	a	n/a
462.1485	0.12	924297	keystroke_l	l	n/a
462.2535	0.105	924507	keystroke_f	f	n/a
462.4035	0.09	924807	keystroke_Key.space	Key.space	n/a
462.7935	0.12	925587	keystroke_c	c	n/a
462.8535	0.12	925707	keystroke_a	a	n/a
463.0935	0.0605	926187	keystroke_r	r	n/a
463.2135	0.105	926427	keystroke_r	r	n/a
463.3035	0.09	926607	keystroke_y	y	n/a
463.4535	0.135	926907	keystroke_i	i	n/a
463.5735	0.12	927147	keystroke_n	n	n/a
463.6485	0.09	927297	keystroke_g	g	n/a
463.7985	0.12	927597	keystroke_Key.space	Key.space	n/a
464.0535	0.135	928107	keystroke_b	b	n/a
464.174	0.1495	928348	keystroke_l	l	n/a
464.3085	0.12	928617	keystroke_a	a	n/a
464.594	0.15	929188	keystroke_k	k	n/a
464.789	0.1045	929578	keystroke_e	e	n/a
464.9235	0.12	929847	keystroke_Key.space	Key.space	n/a
465.1935	0.075	930387	keystroke_s	s	n/a
465.4185	0.09	930837	keystroke_t	t	n/a
465.5535	0.105	931107	keystroke_o	o	n/a
465.6435	0.165	931287	keystroke_r	r	n/a
465.7335	0.12	931467	keystroke_e	e	n/a
466.1995	0.06	932399	keystroke_Key.backspace	Key.backspace	n/a
466.4685	0.106	932937	keystroke_Key.backspace	Key.backspace	n/a
466.8135	0.075	933627	keystroke_Key.backspace	Key.backspace	n/a
467.0385	0.09	934077	keystroke_r	r	n/a
467.1295	0.2245	934259	keystroke_o	o	n/a
467.2485	0.1505	934497	keystroke_k	k	n/a
467.669	0.09	935338	keystroke_e	e	n/a
