onset	duration	sample	value	key	prompt_text
10.566	17.15	21132	prompt	n/a	the quick brown fox jumps over a lazy dog\n
16.508	0.135	33016	keystroke_t	t	n/a
17.333	0.074	34666	keystroke_h	h	n/a
17.468	0.119	34936	keystroke_e	e	n/a
17.632	0.12	35264	keystroke_Key.space	Key.space	n/a
17.902	0.105	35804	keystroke_q	q	n/a
18.023	0.1345	36046	keystroke_u	u	n/a
18.097	0.151	36194	keystroke_i	i	n/a
18.278	0.165	36556	keystroke_c	c	n/a
18.533	0.12	37066	keystroke_k	k	n/a
18.742	0.106	37484	keystroke_Key.space	Key.space	n/a
19.118	0.105	38236	keystroke_b	b	n/a
19.313	0.105	38626	keystroke_r	r	n/a
19.657	0.12	39314	keystroke_o	o	n/a
19.882	0.06	39764	keystroke_w	w	n/a
20.093	0.075	40186	keystroke_n	n	n/a
20.228	0.149	40456	keystroke_Key.space	Key.space	n/a
20.468	0.105	40936	keystroke_f	f	n/a
20.618	0.105	41236	keystroke_o	o	n/a
20.843	0.06	41686	keystroke_x	x	n/a
21.112	0.105	42224	keystroke_Key.space	Key.space	n/a
21.683	0.135	43366	keystroke_j	j	n/a
21.833	0.12	43666	keystroke_u	u	n/a
22.103	0.09	44206	keystroke_m	m	n/a
22.313	0.105	44626	keystroke_p	p	n/a
22.508	0.135	45016	keystroke_s	s	n/a
22.688	0.135	45376	keystroke_Key.space	Key.space	n/a
22.898	0.105	45796	keystroke_o	o	n/a
23.153	0.12	46306	keystroke_v	v	n/a
23.348	0.12	46696	keystroke_e	e	n/a
23.453	0.15	46906	keystroke_r	r	n/a
23.858	0.074	47716	keystroke_Key.space	Key.space	n/a
24.173	0.135	48346	keystroke_a	a	n/a
24.443	0.104	48886	keystroke_Key.space	Key.space	n/a
24.623	0.135	49246	keystroke_l	l	n/a
24.743	0.104	49486	keystroke_a	a	n/a
25.013	0.15	50026	keystroke_z	z	n/a
25.328	0.105	50656	keystroke_y	y	n/a
25.673	0.119	51346	keystroke_Key.space	Key.space	n/a
25.883	0.12	51766	keystroke_d	d	n/a
26.032	0.105	52064	keystroke_o	o	n/a
26.303	0.06	52606	keystroke_g	g	n/a
27.6675	0.045	55335	keystroke_Key.enter	Key.enter	n/a
27.723	11.0025	55446	prompt	n/a	locale attempts acer turns\n
28.808	0.09	57616	keystroke_l	l	n/a
29.018	0.075	58036	keystroke_o	o	n/a
29.213	0.134	58426	keystroke_c	c	n/a
29.438	0.12	58876	keystroke_a	a	n/a
29.692	0.136	59384	keystroke_t	t	n/a
29.903	0.09	59806	keystroke_e	e	n/a
30.143	0.1345	60286	keystroke_Key.space	Key.space	n/a
30.4425	0.12	60885	keystroke_a	a	n/a
30.7125	0.06	61425	keystroke_t	t	n/a
30.8925	0.075	61785	keystroke_t	t	n/a
31.0875	0.09	62175	keystroke_e	e	n/a
31.2375	0.105	62475	keystroke_m	m	n/a
31.4625	0.1045	62925	keystroke_p	p	n/a
31.7775	0.06	63555	keystroke_t	t	n/a
32.0025	0.105	64005	keystroke_s	s	n/a
32.6775	0.165	65355	keystroke_Key.space	Key.space	n/a
33.8175	0.135	67635	keystroke_a	a	n/a
35.5425	0.075	71085	keystroke_c	c	n/a
35.8575	0.09	71715	keystroke_e	e	n/a
36.0525	0.09	72105	keystroke_r	r	n/a
36.5925	0.105	73185	keystroke_Key.space	Key.space	n/a
36.9675	0.09	73935	keystroke_t	t	n/a
37.2075	0.09	74415	keystroke_u	u	n/a
37.3275	0.105	74655	keystroke_r	r	n/a
37.5225	0.06	75045	keystroke_n	n	n/a
37.9875	0.09	75975	keystroke_s	s	n/a
38.6625	0.06	77325	keystroke_Key.enter	Key.enter	n/a
38.731	12.879	77462	prompt	n/a	decrease princess charitable warranties\n
39.4875	0.0755	78975	keystroke_d	d	n/a
39.923	0.075	79846	keystroke_e	e	n/a
40.193	0.09	80386	keystroke_c	c	n/a
40.553	0.09	81106	keystroke_r	r	n/a
40.733	0.09	81466	keystroke_e	e	n/a
40.943	0.075	81886	keystroke_a	a	n/a
41.168	0.12	82336	keystroke_s	s	n/a
41.423	0.09	82846	keystroke_e	e	n/a
41.617	0.075	83234	keystroke_Key.space	Key.space	n/a
42.427	0.106	84854	keystroke_p	p	n/a
42.802	0.136	85604	keystroke_r	r	n/a
43.252	0.106	86504	keystroke_i	i	n/a
43.493	0.1195	86986	keystroke_n	n	n/a
43.7625	0.09	87525	keystroke_c	c	n/a
43.9875	0.075	87975	keystroke_e	e	n/a
44.1225	0.09	88245	keystroke_s	s	n/a
44.3175	0.09	88635	keystroke_s	s	n/a
44.5275	0.09	89055	keystroke_Key.space	Key.space	n/a
45.0075	0.105	90015	keystroke_c	c	n/a
45.1875	0.12	90375	keystroke_h	h	n/a
45.4425	0.15	90885	keystroke_a	a	n/a
45.9525	0.12	91905	keystroke_r	r	n/a
46.1175	0.105	92235	keystroke_i	i	n/a
46.3575	0.075	92715	keystroke_t	t	n/a
46.5375	0.105	93075	keystroke_a	a	n/a
46.6575	0.075	93315	keystroke_b	b	n/a
46.8225	0.135	93645	keystroke_l	l	n/a
47.0325	0.09	94065	keystroke_e	e	n/a
47.2575	0.105	94515	keystroke_Key.space	Key.space	n/a
47.708	0.12	95416	keystroke_w	w	n/a
47.993	0.105	95986	keystroke_a	a	n/a
48.338	0.06	96676	keystroke_r	r	n/a
48.518	0.12	97036	keystroke_r	r	n/a
48.773	0.105	97546	keystroke_a	a	n/a
48.968	0.09	97936	keystroke_n	n	n/a
49.268	0.045	98536	keystroke_t	t	n/a
49.493	0.075	98986	keystroke_i	i	n/a
49.6725	0.075	99345	keystroke_e	e	n/a
49.8675	0.09	99735	keystroke_s	s	n/a
51.518	0.0885	103036	keystroke_Key.enter	Key.enter	n/a
51.615	7.5695	103230	prompt	n/a	in ranch thehun younger\n
52.402	0.075	104804	keystroke_i	i	n/a
52.627	0.061	105254	keystroke_n	n	n/a
52.792	0.12	105584	keystroke_Key.space	Key.space	n/a
52.988	0.089	105976	keystroke_r	r	n/a
53.167	0.121	106334	keystroke_a	a	n/a
53.542	0.12	107084	keystroke_n	n	n/a
53.782	0.075	107564	keystroke_c	c	n/a
53.963	0.089	107926	keystroke_h	h	n/a
54.277	0.12	108554	keystroke_Key.space	Key.space	n/a
54.727	0.105	109454	keystroke_t	t	n/a
54.982	0.091	109964	keystroke_h	h	n/a
55.163	0.089	110326	keystroke_e	e	n/a
55.522	0.076	111044	keystroke_h	h	n/a
55.763	0.104	111526	keystroke_u	u	n/a
56.138	0.089	112276	keystroke_n	n	n/a
56.632	0.075	113264	keystroke_Key.space	Key.space	n/a
57.007	0.106	114014	keystroke_y	y	n/a
57.293	0.135	114586	keystroke_o	o	n/a
57.547	0.045	115094	keystroke_u	u	n/a
57.953	0.09	115906	keystroke_n	n	n/a
58.148	0.075	116296	keystroke_g	g	n/a
58.358	0.18	116716	keystroke_e	e	n/a
58.553	0.104	117106	keystroke_r	r	n/a
59.093	0.089	118186	keystroke_Key.enter	Key.enter	n/a
59.1905	14.5745	118381	prompt	n/a	royalty disco rolling crystal\n
60.727	0.091	121454	keystroke_r	r	n/a
60.848	0.12	121696	keystroke_o	o	n/a
61.088	0.105	122176	keystroke_y	y	n/a
61.778	0.135	123556	keystroke_a	a	n/a
61.943	0.119	123886	keystroke_l	l	n/a
62.243	0.09	124486	keystroke_t	t	n/a
62.378	0.105	124756	keystroke_y	y	n/a
62.768	0.134	125536	keystroke_Key.space	Key.space	n/a
63.053	0.09	126106	keystroke_d	d	n/a
63.203	0.105	126406	keystroke_i	i	n/a
63.323	0.165	126646	keystroke_s	s	n/a
63.863	0.075	127726	keystroke_c	c	n/a
64.193	0.09	128386	keystroke_o	o	n/a
64.507	0.121	129014	keystroke_Key.space	Key.space	n/a
64.883	0.12	129766	keystroke_r	r	n/a
65.048	0.12	130096	keystroke_o	o	n/a
65.303	0.06	130606	keystroke_l	l	n/a
65.453	0.075	130906	keystroke_l	l	n/a
65.663	0.09	131326	keystroke_i	i	n/a
65.888	0.075	131776	keystroke_n	n	n/a
66.083	0.09	132166	keystroke_g	g	n/a
66.503	0.045	133006	keystroke_Key.space	Key.space	n/a
66.833	0.09	133666	keystroke_c	c	n/a
67.088	0.105	134176	keystroke_r	r	n/a
67.208	0.12	134416	keystroke_y	y	n/a
67.433	0.105	134866	keystroke_a	a	n/a
67.748	0.06	135496	keystroke_t	t	n/a
68.153	0.09	136306	keystroke_a	a	n/a
68.318	0.075	136636	keystroke_l	l	n/a
69.697	0.06	139394	keystroke_Key.backspace	Key.backspace	n/a
69.922	0.046	139844	keystroke_Key.backspace	Key.backspace	n/a
70.177	0.046	140354	keystroke_Key.backspace	Key.backspace	n/a
70.387	0.075	140774	keystroke_Key.backspace	Key.backspace	n/a
70.597	0.09	141194	keystroke_Key.backspace	Key.backspace	n/a
72.0825	0.12	144165	keystroke_y	y	n/a
72.3225	0.15	144645	keystroke_s	s	n/a
72.5925	0.075	145185	keystroke_t	t	n/a
72.8175	0.09	145635	keystroke_a	a	n/a
72.9525	0.075	145905	keystroke_l	l	n/a
73.7025	0.06	147405	keystroke_Key.enter	Key.enter	n/a
73.7685	10.6165	147537	prompt	n/a	protest timothy latitude hands\n
74.4525	0.105	148905	keystroke_p	p	n/a
74.6925	0.165	149385	keystroke_r	r	n/a
74.7825	0.135	149565	keystroke_e	e	n/a
75.1425	0.12	150285	keystroke_t	t	n/a
75.3525	0.09	150705	keystroke_e	e	n/a
75.563	0.12	151126	keystroke_s	s	n/a
75.758	0.075	151516	keystroke_t	t	n/a
75.998	0.105	151996	keystroke_Key.space	Key.space	n/a
76.808	0.075	153616	keystroke_t	t	n/a
76.958	0.135	153916	keystroke_i	i	n/a
77.348	0.12	154696	keystroke_m	m	n/a
77.6925	0.015	155385	keystroke_o	o	n/a
78.9675	0.09	157935	keystroke_t	t	n/a
79.0875	0.075	158175	keystroke_h	h	n/a
79.2975	0.075	158595	keystroke_y	y	n/a
80.348	0.12	160696	keystroke_Key.space	Key.space	n/a
80.603	0.105	161206	keystroke_l	l	n/a
80.753	0.105	161506	keystroke_a	a	n/a
81.203	0.06	162406	keystroke_t	t	n/a
81.323	0.105	162646	keystroke_i	i	n/a
81.998	0.06	163996	keystroke_t	t	n/a
82.133	0.12	164266	keystroke_u	u	n/a
82.268	0.12	164536	keystroke_d	d	n/a
82.538	0.105	165076	keystroke_e	e	n/a
82.793	0.105	165586	keystroke_Key.space	Key.space	n/a
82.973	0.12	165946	keystroke_h	h	n/a
83.153	0.105	166306	keystroke_a	a	n/a
83.303	0.105	166606	keystroke_n	n	n/a
83.423	0.105	166846	keystroke_d	d	n/a
83.648	0.075	167296	keystroke_s	s	n/a
84.323	0.06	168646	keystroke_Key.enter	Key.enter	n/a
84.392	21.069	168784	prompt	n/a	minneapolis link organic automatically\n
85.523	0.105	171046	keystroke_m	m	n/a
85.988	0.12	171976	keystroke_i	i	n/a
86.528	0.105	173056	keystroke_n	n	n/a
86.738	0.135	173476	keystroke_n	n	n/a
87.038	0.135	174076	keystroke_e	e	n/a
87.278	0.12	174556	keystroke_a	a	n/a
88.2525	0.166	176505	keystroke_p	p	n/a
88.6125	0.105	177225	keystroke_o	o	n/a
88.8375	0.105	177675	keystroke_l	l	n/a
89.0325	0.135	178065	keystroke_i	i	n/a
89.2275	0.105	178455	keystroke_s	s	n/a
89.4675	0.09	178935	keystroke_Key.space	Key.space	n/a
89.6175	0.105	179235	keystroke_l	l	n/a
89.7675	0.135	179535	keystroke_i	i	n/a
90.0525	0.121	180105	keystroke_n	n	n/a
91.6725	0.09	183345	keystroke_Key.backspace	Key.backspace	n/a
93.1275	0.075	186255	keystroke_Key.backspace	Key.backspace	n/a
97.692	0.0405	195384	keystroke_i	i	n/a
97.8385	0.074	195677	keystroke_n	n	n/a
98.033	0.09	196066	keystroke_k	k	n/a
98.573	0.105	197146	keystroke_Key.space	Key.space	n/a
98.828	0.105	197656	keystroke_o	o	n/a
98.963	0.106	197926	keystroke_r	r	n/a
99.263	0.15	198526	keystroke_g	g	n/a
99.608	0.15	199216	keystroke_a	a	n/a
99.893	0.06	199786	keystroke_n	n	n/a
100.073	0.135	200146	keystroke_i	i	n/a
100.268	0.12	200536	keystroke_c	c	n/a
100.778	0.105	201556	keystroke_Key.space	Key.space	n/a
101.363	0.1655	202726	keystroke_a	a	n/a
101.8135	0.12	203627	keystroke_u	u	n/a
102.0685	0.105	204137	keystroke_t	t	n/a
102.2635	0.12	204527	keystroke_o	o	n/a
102.5335	0.12	205067	keystroke_m	m	n/a
102.6835	0.12	205367	keystroke_a	a	n/a
102.9385	0.075	205877	keystroke_t	t	n/a
103.0885	0.135	206177	keystroke_i	i	n/a
103.3735	0.15	206747	keystroke_c	c	n/a
103.6585	0.15	207317	keystroke_a	a	n/a
103.9585	0.09	207917	keystroke_l	l	n/a
104.1385	0.09	208277	keystroke_l	l	n/a
104.3785	0.12	208757	keystroke_y	y	n/a
105.3835	0.0745	210767	keystroke_Key.enter	Key.enter	n/a
105.466	11.47	210932	prompt	n/a	foto admin collections pendant\n
106.253	0.12	212506	keystroke_f	f	n/a
106.478	0.105	212956	keystroke_o	o	n/a
106.808	0.075	213616	keystroke_t	t	n/a
106.988	0.06	213976	keystroke_o	o	n/a
107.6635	0.09	215327	keystroke_Key.space	Key.space	n/a
107.9635	0.105	215927	keystroke_a	a	n/a
108.1735	0.12	216347	keystroke_d	d	n/a
108.4135	0.075	216827	keystroke_m	m	n/a
108.6085	0.105	217217	keystroke_i	i	n/a
108.8635	0.075	217727	keystroke_n	n	n/a
109.3435	0.12	218687	keystroke_Key.space	Key.space	n/a
109.703	0.09	219406	keystroke_c	c	n/a
109.868	0.12	219736	keystroke_o	o	n/a
110.288	0.075	220576	keystroke_l	l	n/a
110.633	0.105	221266	keystroke_l	l	n/a
110.858	0.075	221716	keystroke_e	e	n/a
111.083	0.09	222166	keystroke_c	c	n/a
111.383	0.075	222766	keystroke_t	t	n/a
111.534	0.104	223068	keystroke_i	i	n/a
113.123	0.105	226246	keystroke_o	o	n/a
113.243	0.105	226486	keystroke_n	n	n/a
113.484	0.089	226968	keystroke_s	s	n/a
115.073	0.075	230146	keystroke_Key.space	Key.space	n/a
115.373	0.091	230746	keystroke_p	p	n/a
115.568	0.12	231136	keystroke_e	e	n/a
115.718	0.105	231436	keystroke_n	n	n/a
115.838	0.12	231676	keystroke_d	d	n/a
116.093	0.106	232186	keystroke_a	a	n/a
116.273	0.12	232546	keystroke_n	n	n/a
116.468	0.06	232936	keystroke_t	t	n/a
116.8585	0.075	233717	keystroke_Key.enter	Key.enter	n/a
116.9415	10.6285	233883	prompt	n/a	ruled gale stylish consists\n
118.2835	0.09	236567	keystroke_r	r	n/a
118.3885	0.105	236777	keystroke_u	u	n/a
118.6285	0.09	237257	keystroke_l	l	n/a
118.9585	0.075	237917	keystroke_e	e	n/a
119.1535	0.075	238307	keystroke_d	d	n/a
119.6635	0.075	239327	keystroke_Key.space	Key.space	n/a
120.0385	0.06	240077	keystroke_g	g	n/a
120.2785	0.105	240557	keystroke_a	a	n/a
120.5185	0.105	241037	keystroke_l	l	n/a
120.7135	0.075	241427	keystroke_e	e	n/a
121.1035	0.12	242207	keystroke_Key.space	Key.space	n/a
121.3285	0.12	242657	keystroke_s	s	n/a
121.6285	0.075	243257	keystroke_t	t	n/a
121.7635	0.105	243527	keystroke_y	y	n/a
122.9785	0.12	245957	keystroke_l	l	n/a
123.2335	0.1345	246467	keystroke_i	i	n/a
123.488	0.09	246976	keystroke_s	s	n/a
123.593	0.075	247186	keystroke_h	h	n/a
124.4185	0.12	248837	keystroke_Key.space	Key.space	n/a
124.763	0.09	249526	keystroke_c	c	n/a
124.913	0.18	249826	keystroke_o	o	n/a
124.988	0.12	249976	keystroke_n	n	n/a
125.198	0.09	250396	keystroke_s	s	n/a
125.333	0.12	250666	keystroke_i	i	n/a
125.468	0.105	250936	keystroke_s	s	n/a
125.708	0.09	251416	keystroke_t	t	n/a
125.918	0.076	251836	keystroke_s	s	n/a
127.493	0.075	254986	keystroke_Key.enter	Key.enter	n/a
127.576	12.024	255152	prompt	n/a	scsi members during thats\n
128.439	0.15	256878	keystroke_s	s	n/a
128.994	0.12	257988	keystroke_c	c	n/a
129.309	0.104	258618	keystroke_s	s	n/a
129.533	0.076	259066	keystroke_i	i	n/a
130.7795	0.136	261559	keystroke_Key.space	Key.space	n/a
130.9745	0.1065	261949	keystroke_m	m	n/a
131.291	0.045	262582	keystroke_e	e	n/a
131.8765	0.0905	263753	keystroke_m	m	n/a
132.3425	0.09	264685	keystroke_b	b	n/a
132.5225	0.1355	265045	keystroke_e	e	n/a
132.748	0.135	265496	keystroke_r	r	n/a
132.9735	0.12	265947	keystroke_s	s	n/a
134.4455	0.12	268891	keystroke_Key.space	Key.space	n/a
134.716	0.105	269432	keystroke_d	d	n/a
134.971	0.1205	269942	keystroke_u	u	n/a
135.452	0.1195	270904	keystroke_r	r	n/a
135.6775	0.1195	271355	keystroke_i	i	n/a
135.828	0.105	271656	keystroke_n	n	n/a
135.977	0.1055	271954	keystroke_g	g	n/a
136.2175	0.09	272435	keystroke_Key.space	Key.space	n/a
136.549	0.104	273098	keystroke_t	t	n/a
136.699	0.1205	273398	keystroke_h	h	n/a
136.8345	0.12	273669	keystroke_a	a	n/a
137.0445	0.074	274089	keystroke_t	t	n/a
137.705	0.06	275410	keystroke_s	s	n/a
139.508	0.09	279016	keystroke_Key.enter	Key.enter	n/a
139.6045	9.083	279209	prompt	n/a	commitment spain cradle inform\n
140.4395	0.09	280879	keystroke_c	c	n/a
140.6495	0.1055	281299	keystroke_o	o	n/a
140.92	0.09	281840	keystroke_m	m	n/a
141.1005	0.135	282201	keystroke_m	m	n/a
141.3855	0.1355	282771	keystroke_i	i	n/a
141.641	0.09	283282	keystroke_t	t	n/a
141.8215	0.12	283643	keystroke_m	m	n/a
141.9265	0.15	283853	keystroke_e	e	n/a
142.0915	0.1055	284183	keystroke_n	n	n/a
142.212	0.09	284424	keystroke_t	t	n/a
142.8275	0.1355	285655	keystroke_Key.space	Key.space	n/a
143.053	0.12	286106	keystroke_s	s	n/a
143.2335	0.15	286467	keystroke_p	p	n/a
143.4435	0.075	286887	keystroke_a	a	n/a
143.609	0.075	287218	keystroke_i	i	n/a
143.849	0.06	287698	keystroke_n	n	n/a
144.555	0.1055	289110	keystroke_Key.space	Key.space	n/a
144.9605	0.104	289921	keystroke_c	c	n/a
145.231	0.09	290462	keystroke_r	r	n/a
145.381	0.1055	290762	keystroke_a	a	n/a
145.6065	0.12	291213	keystroke_d	d	n/a
145.952	0.06	291904	keystroke_l	l	n/a
146.072	0.1055	292144	keystroke_e	e	n/a
146.688	0.165	293376	keystroke_Key.space	Key.space	n/a
147.0185	0.105	294037	keystroke_i	i	n/a
147.259	0.105	294518	keystroke_n	n	n/a
147.544	0.0905	295088	keystroke_f	f	n/a
147.7245	0.105	295449	keystroke_o	o	n/a
147.8595	0.105	295719	keystroke_r	r	n/a
148.0395	0.1355	296079	keystroke_m	m	n/a
148.6255	0.0605	297251	keystroke_Key.enter	Key.enter	n/a
148.6935	10.914	297387	prompt	n/a	forge dietary hardcover installed\n
149.752	0.0905	299504	keystroke_f	f	n/a
149.9475	0.09	299895	keystroke_o	o	n/a
150.1125	0.0905	300225	keystroke_r	r	n/a
150.338	0.09	300676	keystroke_g	g	n/a
150.548	0.09	301096	keystroke_e	e	n/a
151.209	0.105	302418	keystroke_Key.space	Key.space	n/a
151.5995	0.1205	303199	keystroke_d	d	n/a
151.825	0.105	303650	keystroke_i	i	n/a
152.035	0.135	304070	keystroke_e	e	n/a
152.4255	0.075	304851	keystroke_t	t	n/a
152.636	0.135	305272	keystroke_a	a	n/a
152.9515	0.12	305903	keystroke_r	r	n/a
153.1465	0.1055	306293	keystroke_y	y	n/a
153.597	0.1205	307194	keystroke_Key.space	Key.space	n/a
153.8225	0.09	307645	keystroke_h	h	n/a
153.9725	0.135	307945	keystroke_a	a	n/a
154.1825	0.1055	308365	keystroke_r	r	n/a
154.438	0.09	308876	keystroke_d	d	n/a
154.7535	0.09	309507	keystroke_c	c	n/a
154.9485	0.1205	309897	keystroke_o	o	n/a
155.264	0.1205	310528	keystroke_v	v	n/a
155.4745	0.12	310949	keystroke_e	e	n/a
155.6095	0.12	311219	keystroke_r	r	n/a
156.571	0.105	313142	keystroke_Key.space	Key.space	n/a
156.871	0.1055	313742	keystroke_i	i	n/a
157.1115	0.09	314223	keystroke_n	n	n/a
157.2615	0.1355	314523	keystroke_s	s	n/a
157.502	0.09	315004	keystroke_t	t	n/a
157.742	0.0905	315484	keystroke_a	a	n/a
157.9975	0.105	315995	keystroke_l	l	n/a
158.178	0.135	316356	keystroke_l	l	n/a
158.404	0.089	316808	keystroke_e	e	n/a
158.6135	0.09	317227	keystroke_d	d	n/a
159.5295	0.075	319059	keystroke_Key.enter	Key.enter	n/a
159.6135	12.0665	319227	prompt	n/a	hourly fighting decline intel\n
161.1065	0.09	322213	keystroke_h	h	n/a
161.3315	0.1055	322663	keystroke_o	o	n/a
161.512	0.1355	323024	keystroke_u	u	n/a
161.7075	0.12	323415	keystroke_r	r	n/a
162.068	0.06	324136	keystroke_l	l	n/a
162.248	0.12	324496	keystroke_y	y	n/a
164.3495	0.1205	328699	keystroke_Key.space	Key.space	n/a
164.575	0.121	329150	keystroke_f	f	n/a
164.711	0.105	329422	keystroke_i	i	n/a
165.162	0.075	330324	keystroke_h	h	n/a
165.657	0.015	331314	keystroke_Key.backspace	Key.backspace	n/a
165.882	0.105	331764	keystroke_g	g	n/a
166.047	0.1055	332094	keystroke_h	h	n/a
166.2425	0.105	332485	keystroke_t	t	n/a
167.038	0.1205	334076	keystroke_i	i	n/a
167.2935	0.09	334587	keystroke_n	n	n/a
167.4135	0.09	334827	keystroke_g	g	n/a
168.3	0.105	336600	keystroke_Key.space	Key.space	n/a
168.48	0.075	336960	keystroke_d	d	n/a
168.6905	0.09	337381	keystroke_e	e	n/a
169.0655	0.0905	338131	keystroke_c	c	n/a
169.246	0.12	338492	keystroke_l	l	n/a
169.441	0.105	338882	keystroke_i	i	n/a
169.696	0.105	339392	keystroke_n	n	n/a
169.9815	0.12	339963	keystroke_e	e	n/a
170.2215	0.12	340443	keystroke_Key.space	Key.space	n/a
170.507	0.105	341014	keystroke_i	i	n/a
170.762	0.09	341524	keystroke_n	n	n/a
170.9725	0.09	341945	keystroke_t	t	n/a
171.1825	0.1055	342365	keystroke_e	e	n/a
171.378	0.105	342756	keystroke_l	l	n/a
171.618	0.0605	343236	keystroke_Key.enter	Key.enter	n/a
171.6855	15.3165	343371	prompt	n/a	served attempts match architect\n
172.519	0.12	345038	keystroke_s	s	n/a
172.8945	0.15	345789	keystroke_e	e	n/a
174.276	0.045	348552	keystroke_r	r	n/a
174.516	0.105	349032	keystroke_v	v	n/a
174.771	0.0905	349542	keystroke_e	e	n/a
174.9815	0.09	349963	keystroke_d	d	n/a
176.873	0.0905	353746	keystroke_Key.space	Key.space	n/a
177.2195	0.089	354439	keystroke_a	a	n/a
177.444	0.075	354888	keystroke_t	t	n/a
177.639	0.15	355278	keystroke_t	t	n/a
178.1345	0.075	356269	keystroke_e	e	n/a
178.3145	0.0905	356629	keystroke_m	m	n/a
178.54	0.12	357080	keystroke_p	p	n/a
178.84	0.0755	357680	keystroke_t	t	n/a
179.0655	0.12	358131	keystroke_s	s	n/a
179.5455	0.09	359091	keystroke_Key.space	Key.space	n/a
179.7705	0.105	359541	keystroke_m	m	n/a
179.9955	0.105	359991	keystroke_a	a	n/a
180.2805	0.076	360561	keystroke_t	t	n/a
180.7005	0.0755	361401	keystroke_c	c	n/a
181.2855	0.075	362571	keystroke_h	h	n/a
181.5705	0.09	363141	keystroke_Key.space	Key.space	n/a
181.8105	0.1495	363621	keystroke_a	a	n/a
181.99	0.105	363980	keystroke_r	r	n/a
182.2905	0.1195	364581	keystroke_t	t	n/a
183.745	0.12	367490	keystroke_Key.backspace	Key.backspace	n/a
183.9995	0.075	367999	keystroke_c	c	n/a
184.256	0.09	368512	keystroke_h	h	n/a
184.944	0.1205	369888	keystroke_i	i	n/a
185.1845	0.091	370369	keystroke_t	t	n/a
185.3945	0.0755	370789	keystroke_e	e	n/a
185.6205	0.089	371241	keystroke_c	c	n/a
185.9045	0.09	371809	keystroke_t	t	n/a
186.9395	0.0595	373879	keystroke_Key.enter	Key.enter	n/a
187.0075	9.6965	374015	prompt	n/a	suggestion launches kept ripe\n
187.7195	0.134	375439	keystroke_s	s	n/a
188.0035	0.091	376007	keystroke_u	u	n/a
188.1685	0.12	376337	keystroke_s	s	n/a
188.5585	0.015	377117	keystroke_s	s	n/a
188.9485	0.105	377897	keystroke_Key.backspace	Key.backspace	n/a
189.1885	0.105	378377	keystroke_Key.backspace	Key.backspace	n/a
189.609	0.06	379218	keystroke_g	g	n/a
189.774	0.1055	379548	keystroke_g	g	n/a
190.0145	0.1645	380029	keystroke_e	e	n/a
190.194	0.165	380388	keystroke_s	s	n/a
190.509	0.105	381018	keystroke_t	t	n/a
190.644	0.105	381288	keystroke_i	i	n/a
190.854	0.105	381708	keystroke_o	o	n/a
191.094	0.06	382188	keystroke_n	n	n/a
191.439	0.1055	382878	keystroke_Key.space	Key.space	n/a
191.664	0.075	383328	keystroke_l	l	n/a
191.859	0.12	383718	keystroke_a	a	n/a
192.038	0.1055	384076	keystroke_u	u	n/a
192.309	0.105	384618	keystroke_n	n	n/a
192.474	0.105	384948	keystroke_c	c	n/a
192.6685	0.12	385337	keystroke_h	h	n/a
192.8635	0.105	385727	keystroke_e	e	n/a
193.0585	0.105	386117	keystroke_s	s	n/a
193.598	0.12	387196	keystroke_Key.space	Key.space	n/a
193.853	0.12	387706	keystroke_k	k	n/a
194.033	0.1645	388066	keystroke_e	e	n/a
194.2425	0.06	388485	keystroke_p	p	n/a
194.4825	0.06	388965	keystroke_t	t	n/a
194.9925	0.105	389985	keystroke_Key.space	Key.space	n/a
195.3825	0.09	390765	keystroke_r	r	n/a
195.5175	0.0905	391035	keystroke_i	i	n/a
195.7275	0.09	391455	keystroke_p	p	n/a
195.8925	0.0755	391785	keystroke_e	e	n/a
196.6425	0.06	393285	keystroke_Key.enter	Key.enter	n/a
196.708	10.8825	393416	prompt	n/a	demonstrated syndrome nose nintendo\n
197.4975	0.09	394995	keystroke_d	d	n/a
197.7815	0.12	395563	keystroke_e	e	n/a
198.0065	0.09	396013	keystroke_m	m	n/a
198.2325	0.134	396465	keystroke_o	o	n/a
198.4875	0.119	396975	keystroke_n	n	n/a
198.7265	0.1195	397453	keystroke_s	s	n/a
198.966	0.075	397932	keystroke_t	t	n/a
199.221	0.075	398442	keystroke_r	r	n/a
199.417	0.089	398834	keystroke_a	a	n/a
199.6415	0.105	399283	keystroke_t	t	n/a
199.8515	0.105	399703	keystroke_e	e	n/a
200.0765	0.105	400153	keystroke_d	d	n/a
200.2715	0.135	400543	keystroke_Key.space	Key.space	n/a
200.6615	0.12	401323	keystroke_s	s	n/a
200.8865	0.12	401773	keystroke_y	y	n/a
201.1865	0.105	402373	keystroke_n	n	n/a
201.426	0.12	402852	keystroke_d	d	n/a
201.696	0.105	403392	keystroke_r	r	n/a
201.816	0.135	403632	keystroke_o	o	n/a
202.071	0.12	404142	keystroke_m	m	n/a
202.251	0.0895	404502	keystroke_e	e	n/a
203.6005	0.105	407201	keystroke_Key.space	Key.space	n/a
203.84	0.09	407680	keystroke_n	n	n/a
204.05	0.165	408100	keystroke_o	o	n/a
204.245	0.12	408490	keystroke_s	s	n/a
204.485	0.12	408970	keystroke_e	e	n/a
204.98	0.135	409960	keystroke_Key.space	Key.space	n/a
205.34	0.135	410680	keystroke_n	n	n/a
205.595	0.15	411190	keystroke_i	i	n/a
205.9695	0.15	411939	keystroke_n	n	n/a
206.2995	0.12	412599	keystroke_t	t	n/a
206.5545	0.135	413109	keystroke_e	e	n/a
206.7795	0.09	413559	keystroke_n	n	n/a
207.0195	0.09	414039	keystroke_d	d	n/a
207.2445	0.105	414489	keystroke_o	o	n/a
207.484	0.105	414968	keystroke_Key.enter	Key.enter	n/a
207.596	11.827	415192	prompt	n/a	undergraduate country palm ringtones\n
208.609	0.105	417218	keystroke_u	u	n/a
208.909	0.1045	417818	keystroke_n	n	n/a
209.1335	0.09	418267	keystroke_d	d	n/a
209.3735	0.105	418747	keystroke_e	e	n/a
209.6285	0.075	419257	keystroke_r	r	n/a
209.8535	0.1055	419707	keystroke_g	g	n/a
210.0935	0.135	420187	keystroke_r	r	n/a
210.2885	0.135	420577	keystroke_a	a	n/a
210.543	0.15	421086	keystroke_d	d	n/a
210.768	0.135	421536	keystroke_u	u	n/a
210.963	0.1355	421926	keystroke_a	a	n/a
211.3235	0.12	422647	keystroke_t	t	n/a
212.598	0.135	425196	keystroke_e	e	n/a
213.408	0.105	426816	keystroke_Key.space	Key.space	n/a
213.6775	0.105	427355	keystroke_c	c	n/a
213.8725	0.12	427745	keystroke_o	o	n/a
214.0675	0.1045	428135	keystroke_u	u	n/a
214.352	0.12	428704	keystroke_n	n	n/a
214.532	0.105	429064	keystroke_t	t	n/a
214.7575	0.15	429515	keystroke_r	r	n/a
215.0125	0.12	430025	keystroke_y	y	n/a
215.447	0.105	430894	keystroke_Key.space	Key.space	n/a
215.657	0.1345	431314	keystroke_p	p	n/a
216.0015	0.09	432003	keystroke_a	a	n/a
216.197	0.105	432394	keystroke_l	l	n/a
216.452	0.12	432904	keystroke_m	m	n/a
216.7815	0.09	433563	keystroke_Key.space	Key.space	n/a
217.2765	0.135	434553	keystroke_r	r	n/a
217.5315	0.12	435063	keystroke_i	i	n/a
217.7415	0.121	435483	keystroke_n	n	n/a
217.9365	0.09	435873	keystroke_g	g	n/a
218.1615	0.12	436323	keystroke_t	t	n/a
218.401	0.15	436802	keystroke_o	o	n/a
218.656	0.105	437312	keystroke_n	n	n/a
218.881	0.135	437762	keystroke_s	s	n/a
219.316	0.105	438632	keystroke_Key.enter	Key.enter	n/a
219.428	10.208	438856	prompt	n/a	architectural storm omaha acres\n
220.186	0.105	440372	keystroke_a	a	n/a
220.486	0.135	440972	keystroke_r	r	n/a
220.891	0.12	441782	keystroke_c	c	n/a
221.086	0.12	442172	keystroke_h	h	n/a
221.296	0.12	442592	keystroke_i	i	n/a
221.536	0.105	443072	keystroke_t	t	n/a
221.746	0.075	443492	keystroke_e	e	n/a
222.0155	0.105	444031	keystroke_c	c	n/a
222.4195	0.151	444839	keystroke_t	t	n/a
222.7495	0.151	445499	keystroke_u	u	n/a
222.9455	0.12	445891	keystroke_r	r	n/a
223.2455	0.105	446491	keystroke_a	a	n/a
223.5005	0.105	447001	keystroke_l	l	n/a
223.7095	0.12	447419	keystroke_Key.space	Key.space	n/a
224.1905	0.119	448381	keystroke_s	s	n/a
224.4445	0.1055	448889	keystroke_t	t	n/a
224.744	0.12	449488	keystroke_o	o	n/a
224.924	0.1205	449848	keystroke_r	r	n/a
225.1635	0.105	450327	keystroke_m	m	n/a
225.3885	0.105	450777	keystroke_Key.space	Key.space	n/a
225.644	0.15	451288	keystroke_o	o	n/a
225.914	0.12	451828	keystroke_m	m	n/a
226.289	0.15	452578	keystroke_a	a	n/a
226.589	0.09	453178	keystroke_h	h	n/a
226.799	0.12	453598	keystroke_a	a	n/a
227.054	0.15	454108	keystroke_Key.space	Key.space	n/a
227.309	0.105	454618	keystroke_a	a	n/a
227.654	0.12	455308	keystroke_c	c	n/a
228.0435	0.12	456087	keystroke_r	r	n/a
228.2235	0.1505	456447	keystroke_e	e	n/a
228.4485	0.1055	456897	keystroke_s	s	n/a
229.5285	0.105	459057	keystroke_Key.enter	Key.enter	n/a
229.642	11.66	459284	prompt	n/a	whatever sandwich latex interpretation\n
230.548	0.135	461096	keystroke_w	w	n/a
230.728	0.12	461456	keystroke_h	h	n/a
230.923	0.135	461846	keystroke_a	a	n/a
231.343	0.105	462686	keystroke_t	t	n/a
231.613	0.105	463226	keystroke_e	e	n/a
231.868	0.09	463736	keystroke_v	v	n/a
232.063	0.15	464126	keystroke_e	e	n/a
232.303	0.12	464606	keystroke_r	r	n/a
232.5125	0.12	465025	keystroke_Key.space	Key.space	n/a
232.7675	0.09	465535	keystroke_s	s	n/a
232.9925	0.105	465985	keystroke_a	a	n/a
233.1575	0.12	466315	keystroke_n	n	n/a
233.3825	0.09	466765	keystroke_d	d	n/a
233.592	0.12	467184	keystroke_w	w	n/a
233.772	0.1495	467544	keystroke_h	h	n/a
233.9665	0.12	467933	keystroke_i	i	n/a
234.2065	0.105	468413	keystroke_c	c	n/a
234.5665	0.075	469133	keystroke_h	h	n/a
235.0765	0.105	470153	keystroke_Key.space	Key.space	n/a
235.3015	0.105	470603	keystroke_l	l	n/a
235.631	0.12	471262	keystroke_a	a	n/a
235.946	0.09	471892	keystroke_t	t	n/a
236.126	0.135	472252	keystroke_e	e	n/a
236.426	0.1495	472852	keystroke_x	x	n/a
237.2055	0.12	474411	keystroke_Key.space	Key.space	n/a
237.7155	0.135	475431	keystroke_i	i	n/a
237.9405	0.135	475881	keystroke_n	n	n/a
238.1505	0.06	476301	keystroke_t	t	n/a
238.3455	0.12	476691	keystroke_e	e	n/a
238.5855	0.105	477171	keystroke_r	r	n/a
238.7655	0.136	477531	keystroke_p	p	n/a
238.9905	0.15	477981	keystroke_r	r	n/a
239.2155	0.165	478431	keystroke_e	e	n/a
239.4705	0.09	478941	keystroke_t	t	n/a
239.68	0.105	479360	keystroke_a	a	n/a
239.995	0.015	479990	keystroke_t	t	n/a
240.026	0.119	480052	keystroke_i	i	n/a
240.205	0.12	480410	keystroke_o	o	n/a
240.4	0.105	480800	keystroke_n	n	n/a
241.2095	0.09	482419	keystroke_Key.enter	Key.enter	n/a
241.3075	11.1665	482615	prompt	n/a	ebooks round blonde quotations\n
242.4545	0.105	484909	keystroke_e	e	n/a
242.6955	0.089	485391	keystroke_b	b	n/a
242.9205	0.06	485841	keystroke_o	o	n/a
243.1	0.134	486200	keystroke_o	o	n/a
243.325	0.134	486650	keystroke_k	k	n/a
243.564	0.105	487128	keystroke_s	s	n/a
243.819	0.09	487638	keystroke_Key.space	Key.space	n/a
244.1045	0.029	488209	keystroke_r	r	n/a
244.1935	0.075	488387	keystroke_o	o	n/a
245.5745	0.089	491149	keystroke_u	u	n/a
245.8445	0.074	491689	keystroke_n	n	n/a
245.9935	0.075	491987	keystroke_d	d	n/a
246.683	0.105	493366	keystroke_Key.space	Key.space	n/a
246.954	0.105	493908	keystroke_b	b	n/a
247.163	0.09	494326	keystroke_l	l	n/a
247.359	0.104	494718	keystroke_o	o	n/a
247.568	0.1045	495136	keystroke_n	n	n/a
247.7785	0.075	495557	keystroke_d	d	n/a
248.0325	0.12	496065	keystroke_e	e	n/a
248.273	0.075	496546	keystroke_Key.space	Key.space	n/a
248.543	0.135	497086	keystroke_q	q	n/a
248.828	0.12	497656	keystroke_u	u	n/a
249.893	0.134	499786	keystroke_o	o	n/a
250.2065	0.09	500413	keystroke_t	t	n/a
250.4025	0.149	500805	keystroke_a	a	n/a
250.6265	0.105	501253	keystroke_t	t	n/a
250.9415	0.136	501883	keystroke_i	i	n/a
251.1225	0.135	502245	keystroke_o	o	n/a
251.3325	0.104	502665	keystroke_n	n	n/a
251.527	0.165	503054	keystroke_s	s	n/a
252.397	0.075	504794	keystroke_Key.enter	Key.enter	n/a
252.4785	10.5675	504957	prompt	n/a	gross mandatory door postposted\n
253.2515	0.09	506503	keystroke_g	g	n/a
253.4765	0.1655	506953	keystroke_r	r	n/a
253.7315	0.105	507463	keystroke_o	o	n/a
253.8665	0.135	507733	keystroke_s	s	n/a
254.1215	0.135	508243	keystroke_s	s	n/a
254.3765	0.105	508753	keystroke_Key.space	Key.space	n/a
254.6015	0.105	509203	keystroke_m	m	n/a
254.8265	0.135	509653	keystroke_a	a	n/a
255.1415	0.105	510283	keystroke_n	n	n/a
255.3965	0.1195	510793	keystroke_d	d	n/a
255.666	0.15	511332	keystroke_a	a	n/a
255.951	0.075	511902	keystroke_t	t	n/a
256.116	0.12	512232	keystroke_o	o	n/a
256.326	0.12	512652	keystroke_r	r	n/a
256.491	0.105	512982	keystroke_y	y	n/a
257.1355	0.135	514271	keystroke_Key.space	Key.space	n/a
257.4055	0.075	514811	keystroke_d	d	n/a
257.5705	0.105	515141	keystroke_o	o	n/a
257.7955	0.09	515591	keystroke_o	o	n/a
258.1255	0.09	516251	keystroke_r	r	n/a
258.4095	0.12	516819	keystroke_Key.space	Key.space	n/a
258.8745	0.121	517749	keystroke_p	p	n/a
259.3405	0.15	518681	keystroke_o	o	n/a
259.985	0.12	519970	keystroke_s	s	n/a
260.39	0.135	520780	keystroke_t	t	n/a
260.63	0.105	521260	keystroke_p	p	n/a
260.84	0.1345	521680	keystroke_o	o	n/a
261.1245	0.09	522249	keystroke_s	s	n/a
261.3795	0.12	522759	keystroke_t	t	n/a
261.6195	0.105	523239	keystroke_e	e	n/a
261.8595	0.09	523719	keystroke_d	d	n/a
262.939	0.105	525878	keystroke_Key.enter	Key.enter	n/a
263.052	10.6605	526104	prompt	n/a	everyone's birthday myself solely\n
263.809	0.12	527618	keystroke_e	e	n/a
264.034	0.12	528068	keystroke_v	v	n/a
264.214	0.18	528428	keystroke_e	e	n/a
264.469	0.12	528938	keystroke_r	r	n/a
264.619	0.12	529238	keystroke_y	y	n/a
264.8885	0.135	529777	keystroke_o	o	n/a
265.1435	0.12	530287	keystroke_n	n	n/a
265.3535	0.105	530707	keystroke_e	e	n/a
265.5935	0.075	531187	keystroke_'	'	n/a
265.8335	0.105	531667	keystroke_s	s	n/a
266.1185	0.105	532237	keystroke_Key.space	Key.space	n/a
266.3285	0.0745	532657	keystroke_b	b	n/a
266.523	0.15	533046	keystroke_i	i	n/a
266.703	0.09	533406	keystroke_r	r	n/a
266.943	0.075	533886	keystroke_t	t	n/a
267.213	0.015	534426	keystroke_h	h	n/a
267.288	0.09	534576	keystroke_d	d	n/a
267.543	0.09	535086	keystroke_a	a	n/a
267.723	0.12	535446	keystroke_y	y	n/a
267.978	0.12	535956	keystroke_Key.space	Key.space	n/a
268.173	0.09	536346	keystroke_m	m	n/a
268.473	0.12	536946	keystroke_y	y	n/a
268.7125	0.105	537425	keystroke_s	s	n/a
268.9225	0.12	537845	keystroke_e	e	n/a
269.0875	0.105	538175	keystroke_l	l	n/a
269.3275	0.12	538655	keystroke_f	f	n/a
269.5225	0.105	539045	keystroke_Key.space	Key.space	n/a
269.8525	0.09	539705	keystroke_s	s	n/a
270.092	0.09	540184	keystroke_o	o	n/a
270.332	0.105	540664	keystroke_l	l	n/a
270.512	0.135	541024	keystroke_e	e	n/a
271.142	0.18	542284	keystroke_l	l	n/a
271.442	0.1195	542884	keystroke_y	y	n/a
273.709	0.001	547418	keystroke_Key.enter	Key.enter	n/a
273.7165	10.714	547433	prompt	n/a	diary alcohol tissue medal\n
274.456	0.12	548912	keystroke_d	d	n/a
274.951	0.09	549902	keystroke_i	i	n/a
275.2955	0.12	550591	keystroke_a	a	n/a
275.5355	0.0905	551071	keystroke_r	r	n/a
275.746	0.1195	551492	keystroke_y	y	n/a
276.0755	0.105	552151	keystroke_Key.space	Key.space	n/a
276.4355	0.135	552871	keystroke_a	a	n/a
276.6155	0.135	553231	keystroke_l	l	n/a
278.31	0.12	556620	keystroke_c	c	n/a
278.565	0.135	557130	keystroke_o	o	n/a
278.88	0.105	557760	keystroke_h	h	n/a
279.076	0.0885	558152	keystroke_o	o	n/a
279.2845	0.105	558569	keystroke_l	l	n/a
280.1845	0.09	560369	keystroke_Key.space	Key.space	n/a
280.5445	0.105	561089	keystroke_i	i	n/a
280.979	0.12	561958	keystroke_Key.backspace	Key.backspace	n/a
281.234	0.105	562468	keystroke_t	t	n/a
281.414	0.121	562828	keystroke_i	i	n/a
281.595	0.134	563190	keystroke_s	s	n/a
281.835	0.135	563670	keystroke_s	s	n/a
282.0745	0.1045	564149	keystroke_u	u	n/a
282.375	0.06	564750	keystroke_e	e	n/a
282.9585	0.075	565917	keystroke_Key.space	Key.space	n/a
283.1385	0.136	566277	keystroke_m	m	n/a
283.3345	0.074	566669	keystroke_e	e	n/a
283.559	0.075	567118	keystroke_d	d	n/a
283.7985	0.075	567597	keystroke_a	a	n/a
283.9635	0.135	567927	keystroke_l	l	n/a
284.3535	0.075	568707	keystroke_Key.enter	Key.enter	n/a
284.435	9.6925	568870	prompt	n/a	charlie naughty extent giant\n
285.223	0.1355	570446	keystroke_c	c	n/a
285.448	0.1055	570896	keystroke_h	h	n/a
285.6885	0.075	571377	keystroke_a	a	n/a
285.958	0.065	571916	keystroke_r	r	n/a
286.0595	0.1175	572119	keystroke_l	l	n/a
286.2975	0.0895	572595	keystroke_i	i	n/a
286.552	0.105	573104	keystroke_e	e	n/a
286.822	0.105	573644	keystroke_Key.space	Key.space	n/a
287.152	0.0895	574304	keystroke_n	n	n/a
287.437	0.105	574874	keystroke_a	a	n/a
287.647	0.105	575294	keystroke_u	u	n/a
287.917	0.135	575834	keystroke_g	g	n/a
288.217	0.135	576434	keystroke_h	h	n/a
289.0265	0.09	578053	keystroke_t	t	n/a
289.2365	0.09	578473	keystroke_y	y	n/a
290.091	0.09	580182	keystroke_Key.space	Key.space	n/a
290.316	0.09	580632	keystroke_e	e	n/a
290.526	0.135	581052	keystroke_x	x	n/a
290.826	0.121	581652	keystroke_t	t	n/a
291.066	0.121	582132	keystroke_e	e	n/a
291.262	0.15	582524	keystroke_n	n	n/a
291.487	0.074	582974	keystroke_t	t	n/a
291.966	0.105	583932	keystroke_Key.space	Key.space	n/a
292.282	0.09	584564	keystroke_g	g	n/a
292.432	0.089	584864	keystroke_i	i	n/a
292.611	0.105	585222	keystroke_a	a	n/a
292.851	0.105	585702	keystroke_n	n	n/a
293.0605	0.06	586121	keystroke_t	t	n/a
294.0205	0.105	588041	keystroke_Key.enter	Key.enter	n/a
294.1335	9.6375	588267	prompt	n/a	very shark special cleaners\n
294.906	0.074	589812	keystroke_e	e	n/a
295.461	0.074	590922	keystroke_Key.backspace	Key.backspace	n/a
295.791	0.12	591582	keystroke_v	v	n/a
296.031	0.179	592062	keystroke_e	e	n/a
296.256	0.105	592512	keystroke_r	r	n/a
296.466	0.119	592932	keystroke_y	y	n/a
296.69	0.105	593380	keystroke_Key.space	Key.space	n/a
296.946	0.104	593892	keystroke_s	s	n/a
297.126	0.105	594252	keystroke_h	h	n/a
297.306	0.15	594612	keystroke_a	a	n/a
297.576	0.1195	595152	keystroke_r	r	n/a
297.8455	0.089	595691	keystroke_k	k	n/a
298.2645	0.075	596529	keystroke_Key.space	Key.space	n/a
298.4905	0.075	596981	keystroke_s	s	n/a
298.6695	0.12	597339	keystroke_p	p	n/a
298.864	0.121	597728	keystroke_e	e	n/a
299.285	0.15	598570	keystroke_c	c	n/a
299.615	0.104	599230	keystroke_i	i	n/a
299.824	0.061	599648	keystroke_a	a	n/a
300.004	0.105	600008	keystroke_l	l	n/a
300.319	0.09	600638	keystroke_Key.space	Key.space	n/a
300.739	0.136	601478	keystroke_c	c	n/a
300.89	0.1485	601780	keystroke_l	l	n/a
301.1735	0.1365	602347	keystroke_e	e	n/a
301.415	0.134	602830	keystroke_a	a	n/a
302.044	0.18	604088	keystroke_n	n	n/a
302.6895	0.135	605379	keystroke_e	e	n/a
302.8995	0.105	605799	keystroke_r	r	n/a
303.0795	0.104	606159	keystroke_s	s	n/a
303.6795	0.089	607359	keystroke_Key.enter	Key.enter	n/a
303.7775	12.0965	607555	prompt	n/a	prot picture calculated transmitted\n
304.639	0.12	609278	keystroke_p	p	n/a
304.834	0.135	609668	keystroke_r	r	n/a
305.089	0.15	610178	keystroke_o	o	n/a
305.298	0.075	610596	keystroke_t	t	n/a
306.259	0.104	612518	keystroke_Key.space	Key.space	n/a
306.439	0.105	612878	keystroke_p	p	n/a
306.6485	0.12	613297	keystroke_i	i	n/a
306.7985	0.105	613597	keystroke_c	c	n/a
307.1135	0.09	614227	keystroke_t	t	n/a
307.2935	0.12	614587	keystroke_u	u	n/a
307.548	0.12	615096	keystroke_r	r	n/a
307.743	0.1355	615486	keystroke_e	e	n/a
308.058	0.09	616116	keystroke_Key.space	Key.space	n/a
308.988	0.105	617976	keystroke_c	c	n/a
309.213	0.12	618426	keystroke_a	a	n/a
309.948	0.09	619896	keystroke_l	l	n/a
310.2775	0.105	620555	keystroke_c	c	n/a
310.5025	0.135	621005	keystroke_u	u	n/a
310.9375	0.12	621875	keystroke_l	l	n/a
311.1025	0.105	622205	keystroke_a	a	n/a
311.3875	0.09	622775	keystroke_t	t	n/a
311.5975	0.104	623195	keystroke_e	e	n/a
311.8375	0.105	623675	keystroke_d	d	n/a
312.4965	0.135	624993	keystroke_Key.space	Key.space	n/a
312.9175	0.059	625835	keystroke_t	t	n/a
313.1115	0.106	626223	keystroke_r	r	n/a
313.3225	0.119	626645	keystroke_a	a	n/a
313.6515	0.135	627303	keystroke_n	n	n/a
313.8765	0.105	627753	keystroke_s	s	n/a
314.1765	0.105	628353	keystroke_m	m	n/a
314.4165	0.12	628833	keystroke_i	i	n/a
314.5965	0.06	629193	keystroke_t	t	n/a
314.776	0.105	629552	keystroke_t	t	n/a
314.9865	0.091	629973	keystroke_e	e	n/a
315.2265	0.075	630453	keystroke_d	d	n/a
315.767	0.104	631534	keystroke_Key.enter	Key.enter	n/a
315.882	14.4045	631764	prompt	n/a	expense address vancouver aqua\n
316.622	0.105	633244	keystroke_e	e	n/a
316.847	0.135	633694	keystroke_x	x	n/a
317.056	0.1205	634112	keystroke_p	p	n/a
317.2365	0.15	634473	keystroke_e	e	n/a
317.4315	0.135	634863	keystroke_n	n	n/a
317.7015	0.12	635403	keystroke_s	s	n/a
317.9865	0.12	635973	keystroke_e	e	n/a
318.3165	0.105	636633	keystroke_Key.space	Key.space	n/a
318.5565	0.075	637113	keystroke_a	a	n/a
318.7365	0.075	637473	keystroke_d	d	n/a
318.9315	0.105	637863	keystroke_d	d	n/a
319.291	0.1345	638582	keystroke_r	r	n/a
319.5305	0.1955	639061	keystroke_e	e	n/a
319.891	0.09	639782	keystroke_s	s	n/a
320.116	0.105	640232	keystroke_s	s	n/a
320.446	0.135	640892	keystroke_Key.space	Key.space	n/a
321.345	0.091	642690	keystroke_v	v	n/a
321.601	0.135	643202	keystroke_a	a	n/a
321.796	0.15	643592	keystroke_n	n	n/a
322.186	0.135	644372	keystroke_c	c	n/a
322.426	0.12	644852	keystroke_o	o	n/a
322.6205	0.105	645241	keystroke_u	u	n/a
322.9655	0.105	645931	keystroke_v	v	n/a
323.1455	0.15	646291	keystroke_e	e	n/a
323.4005	0.135	646801	keystroke_r	r	n/a
323.5955	0.12	647191	keystroke_Key.space	Key.space	n/a
323.88	0.135	647760	keystroke_a	a	n/a
324.645	0.15	649290	keystroke_q	q	n/a
325.05	0.015	650100	keystroke_u	u	n/a
326.505	0.12	653010	keystroke_a	a	n/a
330.242	0.042	660484	keystroke_Key.enter	Key.enter	n/a
330.292	7.478	660584	prompt	n/a	apps determine judge arabia\n
331.094	0.15	662188	keystroke_a	a	n/a
331.259	0.105	662518	keystroke_p	p	n/a
331.454	0.12	662908	keystroke_p	p	n/a
331.679	0.1495	663358	keystroke_s	s	n/a
331.9635	0.09	663927	keystroke_Key.space	Key.space	n/a
332.1585	0.075	664317	keystroke_d	d	n/a
332.3685	0.105	664737	keystroke_e	e	n/a
332.5635	0.105	665127	keystroke_t	t	n/a
332.7885	0.195	665577	keystroke_e	e	n/a
332.9685	0.165	665937	keystroke_r	r	n/a
333.2085	0.105	666417	keystroke_m	m	n/a
333.5235	0.15	667047	keystroke_i	i	n/a
333.8985	0.12	667797	keystroke_n	n	n/a
334.1685	0.105	668337	keystroke_e	e	n/a
334.633	0.09	669266	keystroke_Key.space	Key.space	n/a
334.798	0.105	669596	keystroke_j	j	n/a
335.053	0.15	670106	keystroke_u	u	n/a
335.218	0.12	670436	keystroke_d	d	n/a
335.4425	0.09	670885	keystroke_g	g	n/a
335.6825	0.135	671365	keystroke_e	e	n/a
335.9375	0.105	671875	keystroke_Key.space	Key.space	n/a
336.2375	0.135	672475	keystroke_a	a	n/a
336.493	0.1195	672986	keystroke_r	r	n/a
336.7025	0.135	673405	keystroke_a	a	n/a
336.9425	0.09	673885	keystroke_b	b	n/a
337.1675	0.135	674335	keystroke_i	i	n/a
337.3175	0.12	674635	keystroke_a	a	n/a
337.6775	0.09	675355	keystroke_Key.enter	Key.enter	n/a
337.7755	12.038	675551	prompt	n/a	active civil electoral registry\n
338.5475	0.135	677095	keystroke_a	a	n/a
338.9075	0.15	677815	keystroke_c	c	n/a
339.2225	0.09	678445	keystroke_t	t	n/a
339.3275	0.135	678655	keystroke_i	i	n/a
339.612	0.135	679224	keystroke_v	v	n/a
339.822	0.12	679644	keystroke_e	e	n/a
340.047	0.075	680094	keystroke_Key.space	Key.space	n/a
340.512	0.12	681024	keystroke_v	v	n/a
341.322	0.12	682644	keystroke_Key.backspace	Key.backspace	n/a
341.772	0.0745	683544	keystroke_c	c	n/a
341.9965	0.0755	683993	keystroke_i	i	n/a
342.3265	0.105	684653	keystroke_v	v	n/a
342.5065	0.105	685013	keystroke_i	i	n/a
342.7315	0.09	685463	keystroke_l	l	n/a
343.392	0.059	686784	keystroke_Key.space	Key.space	n/a
343.631	0.091	687262	keystroke_e	e	n/a
343.782	0.135	687564	keystroke_l	l	n/a
343.961	0.106	687922	keystroke_e	e	n/a
344.217	0.089	688434	keystroke_c	c	n/a
344.5005	0.091	689001	keystroke_t	t	n/a
344.6665	0.15	689333	keystroke_o	o	n/a
344.8755	0.105	689751	keystroke_r	r	n/a
345.0715	0.105	690143	keystroke_a	a	n/a
345.2665	0.1345	690533	keystroke_l	l	n/a
345.551	0.075	691102	keystroke_Key.space	Key.space	n/a
345.806	0.12	691612	keystroke_r	r	n/a
346.031	0.12	692062	keystroke_e	e	n/a
346.256	0.105	692512	keystroke_g	g	n/a
346.421	0.15	692842	keystroke_i	i	n/a
346.586	0.135	693172	keystroke_e	e	n/a
347.681	0.105	695362	keystroke_Key.backspace	Key.backspace	n/a
348.296	0.1195	696592	keystroke_s	s	n/a
348.5505	0.075	697101	keystroke_t	t	n/a
348.7755	0.105	697551	keystroke_r	r	n/a
348.9705	0.105	697941	keystroke_y	y	n/a
349.721	0.09	699442	keystroke_Key.enter	Key.enter	n/a
349.818	14.1385	699636	prompt	n/a	celebration philip vegetable valve\n
350.696	0.135	701392	keystroke_c	c	n/a
350.951	0.09	701902	keystroke_e	e	n/a
351.146	0.12	702292	keystroke_l	l	n/a
351.3405	0.09	702681	keystroke_e	e	n/a
351.5505	0.104	703101	keystroke_b	b	n/a
351.791	0.105	703582	keystroke_r	r	n/a
351.9705	0.12	703941	keystroke_a	a	n/a
352.2555	0.075	704511	keystroke_t	t	n/a
352.5405	0.105	705081	keystroke_i	i	n/a
352.7205	0.105	705441	keystroke_o	o	n/a
352.9605	0.09	705921	keystroke_n	n	n/a
353.1555	0.135	706311	keystroke_Key.space	Key.space	n/a
353.4405	0.12	706881	keystroke_p	p	n/a
353.725	0.1205	707450	keystroke_h	h	n/a
353.98	0.074	707960	keystroke_i	i	n/a
354.19	0.15	708380	keystroke_l	l	n/a
354.355	0.15	708710	keystroke_i	i	n/a
354.61	0.105	709220	keystroke_p	p	n/a
355.63	0.135	711260	keystroke_Key.space	Key.space	n/a
356.425	0.1195	712850	keystroke_v	v	n/a
356.6945	0.12	713389	keystroke_e	e	n/a
357.0695	0.135	714139	keystroke_g	g	n/a
357.4445	0.12	714889	keystroke_e	e	n/a
357.9695	0.075	715939	keystroke_t	t	n/a
358.1495	0.15	716299	keystroke_a	a	n/a
358.4045	0.09	716809	keystroke_b	b	n/a
358.5995	0.12	717199	keystroke_l	l	n/a
358.8545	0.15	717709	keystroke_e	e	n/a
359.0945	0.12	718189	keystroke_Key.space	Key.space	n/a
359.6195	0.12	719239	keystroke_v	v	n/a
359.9195	0.12	719839	keystroke_a	a	n/a
360.3245	0.1645	720649	keystroke_l	l	n/a
360.534	0.1055	721068	keystroke_v	v	n/a
360.7895	0.1045	721579	keystroke_e	e	n/a
363.897	0.057	727794	keystroke_Key.enter	Key.enter	n/a
363.961	8.9335	727922	prompt	n/a	standard hdtv postal cookies\n
364.809	0.135	729618	keystroke_s	s	n/a
365.139	0.0745	730278	keystroke_t	t	n/a
365.3335	0.09	730667	keystroke_a	a	n/a
365.4985	0.135	730997	keystroke_n	n	n/a
365.6935	0.075	731387	keystroke_d	d	n/a
365.9485	0.225	731897	keystroke_a	a	n/a
366.0985	0.12	732197	keystroke_r	r	n/a
366.3835	0.105	732767	keystroke_d	d	n/a
366.7285	0.105	733457	keystroke_Key.space	Key.space	n/a
367.2235	0.135	734447	keystroke_h	h	n/a
367.553	0.165	735106	keystroke_d	d	n/a
367.988	0.09	735976	keystroke_t	t	n/a
368.738	0.135	737476	keystroke_v	v	n/a
369.278	0.1345	738556	keystroke_Key.space	Key.space	n/a
369.4725	0.12	738945	keystroke_p	p	n/a
369.6685	0.135	739337	keystroke_o	o	n/a
369.817	0.121	739634	keystroke_s	s	n/a
370.027	0.105	740054	keystroke_t	t	n/a
370.282	0.091	740564	keystroke_a	a	n/a
370.478	0.09	740956	keystroke_l	l	n/a
370.702	0.09	741404	keystroke_Key.space	Key.space	n/a
370.973	0.09	741946	keystroke_c	c	n/a
371.138	0.089	742276	keystroke_o	o	n/a
371.333	0.164	742666	keystroke_o	o	n/a
371.572	0.12	743144	keystroke_k	k	n/a
371.7975	0.135	743595	keystroke_i	i	n/a
371.9775	0.15	743955	keystroke_e	e	n/a
372.1725	0.12	744345	keystroke_s	s	n/a
372.8025	0.09	745605	keystroke_Key.enter	Key.enter	n/a
372.8985	14.8595	745797	prompt	n/a	undefined transparent statistics official\n
373.987	0.135	747974	keystroke_u	u	n/a
374.271	0.12	748542	keystroke_n	n	n/a
374.482	0.075	748964	keystroke_d	d	n/a
374.707	0.09	749414	keystroke_e	e	n/a
374.916	0.121	749832	keystroke_f	f	n/a
375.037	0.135	750074	keystroke_i	i	n/a
375.306	0.1205	750612	keystroke_n	n	n/a
375.5165	0.105	751033	keystroke_e	e	n/a
375.7565	0.09	751513	keystroke_d	d	n/a
376.0115	0.12	752023	keystroke_Key.space	Key.space	n/a
376.311	0.09	752622	keystroke_t	t	n/a
376.5815	0.135	753163	keystroke_r	r	n/a
376.9115	0.15	753823	keystroke_a	a	n/a
377.1215	0.135	754243	keystroke_n	n	n/a
377.3015	0.1195	754603	keystroke_s	s	n/a
377.526	0.166	755052	keystroke_p	p	n/a
377.872	0.149	755744	keystroke_a	a	n/a
378.516	0.135	757032	keystroke_r	r	n/a
378.681	0.165	757362	keystroke_e	e	n/a
378.906	0.105	757812	keystroke_n	n	n/a
379.071	0.09	758142	keystroke_t	t	n/a
379.9415	0.12	759883	keystroke_Key.space	Key.space	n/a
380.1815	0.09	760363	keystroke_s	s	n/a
380.5715	0.105	761143	keystroke_t	t	n/a
380.8415	0.15	761683	keystroke_a	a	n/a
381.2315	0.09	762463	keystroke_t	t	n/a
381.3665	0.135	762733	keystroke_i	i	n/a
381.5465	0.165	763093	keystroke_s	s	n/a
381.8615	0.09	763723	keystroke_t	t	n/a
382.0415	0.135	764083	keystroke_i	i	n/a
382.446	0.105	764892	keystroke_c	c	n/a
382.686	0.135	765372	keystroke_s	s	n/a
383.151	0.12	766302	keystroke_Key.space	Key.space	n/a
383.391	0.135	766782	keystroke_o	o	n/a
383.556	0.075	767112	keystroke_f	f	n/a
383.736	0.105	767472	keystroke_f	f	n/a
383.961	0.12	767922	keystroke_i	i	n/a
384.1405	0.165	768281	keystroke_c	c	n/a
384.4255	0.09	768851	keystroke_a	a	n/a
384.6205	0.15	769241	keystroke_l	l	n/a
386.0455	0.09	772091	keystroke_Key.backspace	Key.backspace	n/a
386.4355	0.105	772871	keystroke_Key.backspace	Key.backspace	n/a
386.7355	0.09	773471	keystroke_i	i	n/a
386.9755	0.09	773951	keystroke_a	a	n/a
387.1105	0.105	774221	keystroke_l	l	n/a
387.68	0.075	775360	keystroke_Key.enter	Key.enter	n/a
387.7645	12.6215	775529	prompt	n/a	cheapest byte duncan tender\n
388.715	0.165	777430	keystroke_c	c	n/a
388.91	0.105	777820	keystroke_h	h	n/a
389.975	0.105	779950	keystroke_a	a	n/a
390.335	0.1195	780670	keystroke_Key.backspace	Key.backspace	n/a
390.5445	0.121	781089	keystroke_e	e	n/a
390.7695	0.09	781539	keystroke_a	a	n/a
390.936	0.089	781872	keystroke_p	p	n/a
391.13	0.105	782260	keystroke_e	e	n/a
391.3545	0.0905	782709	keystroke_s	s	n/a
391.566	0.0585	783132	keystroke_t	t	n/a
391.7745	0.12	783549	keystroke_Key.space	Key.space	n/a
392.285	0.0595	784570	keystroke_b	b	n/a
392.5245	0.135	785049	keystroke_y	y	n/a
392.8245	0.105	785649	keystroke_e	e	n/a
393.4095	0.12	786819	keystroke_Key.backspace	Key.backspace	n/a
393.6505	0.074	787301	keystroke_t	t	n/a
393.8445	0.075	787689	keystroke_e	e	n/a
394.6095	0.105	789219	keystroke_Key.space	Key.space	n/a
394.8645	0.12	789729	keystroke_d	d	n/a
395.1345	0.105	790269	keystroke_u	u	n/a
395.4195	0.1045	790839	keystroke_n	n	n/a
395.659	0.105	791318	keystroke_c	c	n/a
395.929	0.105	791858	keystroke_a	a	n/a
396.139	0.09	792278	keystroke_n	n	n/a
397.054	0.12	794108	keystroke_Key.space	Key.space	n/a
397.309	0.061	794618	keystroke_t	t	n/a
397.489	0.121	794978	keystroke_e	e	n/a
398.239	0.152	796478	keystroke_n	n	n/a
398.464	0.105	796928	keystroke_d	d	n/a
398.764	0.165	797528	keystroke_e	e	n/a
399.094	0.106	798188	keystroke_r	r	n/a
400.279	0.105	800558	keystroke_Key.enter	Key.enter	n/a
400.3895	14.8895	800779	prompt	n/a	katie analog medicaid confidence\n
401.224	0.135	802448	keystroke_k	k	n/a
401.374	0.105	802748	keystroke_a	a	n/a
401.629	0.09	803258	keystroke_t	t	n/a
401.809	0.135	803618	keystroke_i	i	n/a
402.0785	0.09	804157	keystroke_e	e	n/a
402.3335	0.09	804667	keystroke_Key.space	Key.space	n/a
403.954	0.1345	807908	keystroke_a	a	n/a
404.1785	0.135	808357	keystroke_n	n	n/a
404.388	0.09	808776	keystroke_a	a	n/a
404.598	0.106	809196	keystroke_l	l	n/a
404.838	0.18	809676	keystroke_o	o	n/a
405.078	0.09	810156	keystroke_g	g	n/a
406.608	0.135	813216	keystroke_Key.space	Key.space	n/a
406.848	0.135	813696	keystroke_m	m	n/a
407.013	0.121	814026	keystroke_e	e	n/a
407.5235	0.135	815047	keystroke_d	d	n/a
407.748	0.15	815496	keystroke_i	i	n/a
407.913	0.09	815826	keystroke_c	c	n/a
408.333	0.15	816666	keystroke_a	a	n/a
408.528	0.135	817056	keystroke_i	i	n/a
408.723	0.075	817446	keystroke_d	d	n/a
409.8775	0.15	819755	keystroke_Key.space	Key.space	n/a
412.206	0.072	824412	keystroke_c	c	n/a
412.368	0.2545	824736	keystroke_o	o	n/a
412.5025	0.15	825005	keystroke_n	n	n/a
412.7425	0.105	825485	keystroke_f	f	n/a
412.8785	0.119	825757	keystroke_i	i	n/a
413.0425	0.09	826085	keystroke_d	d	n/a
413.2675	0.09	826535	keystroke_e	e	n/a
413.4025	0.15	826805	keystroke_n	n	n/a
414.0485	0.164	828097	keystroke_s	s	n/a
414.482	0.165	828964	keystroke_Key.backspace	Key.backspace	n/a
414.662	0.075	829324	keystroke_c	c	n/a
414.917	0.091	829834	keystroke_e	e	n/a
415.187	0.09	830374	keystroke_Key.enter	Key.enter	n/a
415.283	12.4455	830566	prompt	n/a	reply uniprotkb bless powerseller\n
416.117	0.15	832234	keystroke_r	r	n/a
416.237	0.136	832474	keystroke_e	e	n/a
416.462	0.06	832924	keystroke_p	p	n/a
416.642	0.09	833284	keystroke_l	l	n/a
416.927	0.106	833854	keystroke_y	y	n/a
417.287	0.105	834574	keystroke_Key.space	Key.space	n/a
418.1715	0.12	836343	keystroke_u	u	n/a
418.4715	0.105	836943	keystroke_n	n	n/a
418.7275	0.105	837455	keystroke_i	i	n/a
418.9525	0.134	837905	keystroke_p	p	n/a
419.882	0.15	839764	keystroke_r	r	n/a
420.467	0.135	840934	keystroke_o	o	n/a
420.977	0.1045	841954	keystroke_t	t	n/a
421.3815	0.15	842763	keystroke_k	k	n/a
421.7715	0.075	843543	keystroke_b	b	n/a
422.9415	0.12	845883	keystroke_Key.space	Key.space	n/a
423.3015	0.12	846603	keystroke_b	b	n/a
423.5715	0.12	847143	keystroke_l	l	n/a
423.7515	0.105	847503	keystroke_e	e	n/a
423.9465	0.105	847893	keystroke_s	s	n/a
424.1565	0.135	848313	keystroke_s	s	n/a
424.4115	0.135	848823	keystroke_Key.space	Key.space	n/a
424.7415	0.105	849483	keystroke_p	p	n/a
424.9665	0.105	849933	keystroke_o	o	n/a
425.1465	0.135	850293	keystroke_w	w	n/a
425.401	0.15	850802	keystroke_e	e	n/a
425.671	0.12	851342	keystroke_r	r	n/a
425.956	0.105	851912	keystroke_s	s	n/a
426.2115	0.12	852423	keystroke_e	e	n/a
426.4215	0.09	852843	keystroke_l	l	n/a
426.616	0.165	853232	keystroke_l	l	n/a
426.811	0.165	853622	keystroke_e	e	n/a
427.066	0.135	854132	keystroke_r	r	n/a
427.681	0.045	855362	keystroke_Key.enter	Key.enter	n/a
427.7325	13.6745	855465	prompt	n/a	ambien barry banned organizational\n
428.851	0.12	857702	keystroke_a	a	n/a
429.091	0.105	858182	keystroke_m	m	n/a
429.391	0.105	858782	keystroke_b	b	n/a
429.871	0.1195	859742	keystroke_i	i	n/a
430.245	0.09	860490	keystroke_e	e	n/a
430.485	0.0895	860970	keystroke_n	n	n/a
431.4135	0.0895	862827	keystroke_Key.space	Key.space	n/a
431.8775	0.105	863755	keystroke_b	b	n/a
432.117	0.165	864234	keystroke_a	a	n/a
432.342	0.105	864684	keystroke_r	r	n/a
432.5665	0.135	865133	keystroke_r	r	n/a
432.7765	0.1195	865553	keystroke_y	y	n/a
433.076	0.1345	866152	keystroke_Key.space	Key.space	n/a
433.4355	0.12	866871	keystroke_n	n	n/a
433.9	0.1195	867800	keystroke_Key.backspace	Key.backspace	n/a
434.1995	0.1045	868399	keystroke_b	b	n/a
434.439	0.12	868878	keystroke_a	a	n/a
434.634	0.0745	869268	keystroke_n	n	n/a
434.8135	0.135	869627	keystroke_n	n	n/a
435.068	0.075	870136	keystroke_e	e	n/a
435.293	0.089	870586	keystroke_d	d	n/a
435.5915	0.12	871183	keystroke_Key.space	Key.space	n/a
436.056	0.1355	872112	keystroke_o	o	n/a
436.3105	0.1355	872621	keystroke_r	r	n/a
436.685	0.0895	873370	keystroke_g	g	n/a
436.9405	0.104	873881	keystroke_a	a	n/a
437.149	0.151	874298	keystroke_n	n	n/a
437.344	0.15	874688	keystroke_i	i	n/a
437.6435	0.3295	875287	keystroke_z	z	n/a
438.707	0.105	877414	keystroke_a	a	n/a
439.0665	0.06	878133	keystroke_t	t	n/a
439.2615	0.1655	878523	keystroke_i	i	n/a
439.487	0.104	878974	keystroke_o	o	n/a
439.7115	0.12	879423	keystroke_n	n	n/a
439.9065	0.089	879813	keystroke_a	a	n/a
440.0865	0.1195	880173	keystroke_l	l	n/a
441.3155	0.0895	882631	keystroke_Key.enter	Key.enter	n/a
441.4145	11.107	882829	prompt	n/a	programmer ended perfume creator\n
442.155	0.09	884310	keystroke_p	p	n/a
442.3645	0.12	884729	keystroke_r	r	n/a
442.56	0.18	885120	keystroke_o	o	n/a
443.1895	0.09	886379	keystroke_g	g	n/a
443.4445	0.1655	886889	keystroke_r	r	n/a
443.8345	0.12	887669	keystroke_a	a	n/a
444.1045	0.105	888209	keystroke_m	m	n/a
444.3145	0.105	888629	keystroke_m	m	n/a
444.524	0.1055	889048	keystroke_e	e	n/a
444.7345	0.12	889469	keystroke_r	r	n/a
445.845	0.1045	891690	keystroke_Key.space	Key.space	n/a
446.19	0.075	892380	keystroke_e	e	n/a
446.43	0.1345	892860	keystroke_n	n	n/a
446.6095	0.0905	893219	keystroke_d	d	n/a
446.85	0.09	893700	keystroke_e	e	n/a
447.06	0.105	894120	keystroke_d	d	n/a
447.6145	0.1055	895229	keystroke_Key.space	Key.space	n/a
447.84	0.12	895680	keystroke_p	p	n/a
448.17	0.135	896340	keystroke_e	e	n/a
448.44	0.06	896880	keystroke_r	r	n/a
448.6495	0.1205	897299	keystroke_f	f	n/a
448.815	0.12	897630	keystroke_u	u	n/a
449.145	0.1205	898290	keystroke_m	m	n/a
449.445	0.135	898890	keystroke_e	e	n/a
449.7905	0.12	899581	keystroke_Key.space	Key.space	n/a
450.195	0.09	900390	keystroke_c	c	n/a
450.495	0.15	900990	keystroke_r	r	n/a
450.78	0.135	901560	keystroke_e	e	n/a
450.99	0.105	901980	keystroke_a	a	n/a
451.29	0.075	902580	keystroke_t	t	n/a
451.41	0.18	902820	keystroke_o	o	n/a
451.56	0.1195	903120	keystroke_r	r	n/a
452.43	0.0895	904860	keystroke_Key.enter	Key.enter	n/a
452.526	14.276	905052	prompt	n/a	pairs congratulations incidents towards\n
453.3	0.1195	906600	keystroke_p	p	n/a
453.5395	0.195	907079	keystroke_a	a	n/a
454.1395	0.105	908279	keystroke_i	i	n/a
454.365	0.09	908730	keystroke_r	r	n/a
454.695	0.1355	909390	keystroke_s	s	n/a
455.13	0.15	910260	keystroke_Key.space	Key.space	n/a
455.58	0.1045	911160	keystroke_c	c	n/a
455.805	0.135	911610	keystroke_o	o	n/a
456.045	0.1495	912090	keystroke_n	n	n/a
456.36	0.06	912720	keystroke_g	g	n/a
456.9	0.18	913800	keystroke_r	r	n/a
457.185	0.1195	914370	keystroke_a	a	n/a
457.6045	0.12	915209	keystroke_t	t	n/a
457.7995	0.1355	915599	keystroke_u	u	n/a
458.0695	0.12	916139	keystroke_l	l	n/a
458.2495	0.12	916499	keystroke_a	a	n/a
458.5195	0.075	917039	keystroke_t	t	n/a
458.6695	0.105	917339	keystroke_i	i	n/a
458.8945	0.1355	917789	keystroke_o	o	n/a
459.12	0.12	918240	keystroke_n	n	n/a
459.2995	0.1055	918599	keystroke_s	s	n/a
460.1395	0.12	920279	keystroke_Key.space	Key.space	n/a
460.4255	0.105	920851	keystroke_i	i	n/a
460.6505	0.12	921301	keystroke_n	n	n/a
460.9055	0.075	921811	keystroke_c	c	n/a
461.0405	0.1035	922081	keystroke_i	i	n/a
461.189	0.12	922378	keystroke_d	d	n/a
461.4445	0.136	922889	keystroke_e	e	n/a
461.5945	0.195	923189	keystroke_n	n	n/a
461.8645	0.06	923729	keystroke_t	t	n/a
462.1945	0.09	924389	keystroke_s	s	n/a
462.824	0.135	925648	keystroke_Key.space	Key.space	n/a
463.4245	0.075	926849	keystroke_t	t	n/a
463.56	0.1495	927120	keystroke_o	o	n/a
463.7545	0.12	927509	keystroke_w	w	n/a
464.1745	0.165	928349	keystroke_a	a	n/a
464.3545	0.09	928709	keystroke_r	r	n/a
464.5795	0.105	929159	keystroke_d	d	n/a
464.8195	0.06	929639	keystroke_s	s	n/a
466.6945	0.105	933389	keystroke_Key.enter	Key.enter	n/a
466.8065	8.5755	933613	prompt	n/a	croatia to fact balloon\n
467.8945	0.12	935789	keystroke_c	c	n/a
468.225	0.1045	936450	keystroke_r	r	n/a
468.4195	0.15	936839	keystroke_o	o	n/a
468.645	0.15	937290	keystroke_a	a	n/a
468.9445	0.105	937889	keystroke_t	t	n/a
469.08	0.1495	938160	keystroke_i	i	n/a
469.2895	0.105	938579	keystroke_a	a	n/a
469.559	0.1055	939118	keystroke_Key.space	Key.space	n/a
470.8055	0.015	941611	keystroke_t	t	n/a
470.955	0.1345	941910	keystroke_o	o	n/a
471.1495	0.105	942299	keystroke_Key.space	Key.space	n/a
471.3455	0.089	942691	keystroke_f	f	n/a
471.57	0.1055	943140	keystroke_a	a	n/a
471.8405	0.1195	943681	keystroke_c	c	n/a
472.1705	0.119	944341	keystroke_t	t	n/a
472.5295	0.12	945059	keystroke_Key.space	Key.space	n/a
472.844	0.121	945688	keystroke_b	b	n/a
473.01	0.105	946020	keystroke_a	a	n/a
473.1895	0.09	946379	keystroke_l	l	n/a
473.384	0.121	946768	keystroke_l	l	n/a
473.594	0.1515	947188	keystroke_o	o	n/a
474.074	0.136	948148	keystroke_o	o	n/a
474.344	0.15	948688	keystroke_n	n	n/a
475.3045	0.075	950609	keystroke_Key.enter	Key.enter	n/a
475.386	7.7955	950772	prompt	n/a	lost says hong harm\n
476.04	0.09	952080	keystroke_l	l	n/a
476.235	0.1055	952470	keystroke_o	o	n/a
476.3845	0.1355	952769	keystroke_s	s	n/a
476.639	0.1065	953278	keystroke_t	t	n/a
476.8495	0.15	953699	keystroke_Key.space	Key.space	n/a
477.1055	0.12	954211	keystroke_s	s	n/a
477.3445	0.136	954689	keystroke_a	a	n/a
477.5105	0.1045	955021	keystroke_y	y	n/a
477.72	0.105	955440	keystroke_s	s	n/a
478.47	0.135	956940	keystroke_Key.space	Key.space	n/a
478.98	0.03	957960	keystroke_h	h	n/a
479.13	0.135	958260	keystroke_i	i	n/a
479.43	0.105	958860	keystroke_n	n	n/a
479.895	0.105	959790	keystroke_Key.backspace	Key.backspace	n/a
480.165	0.09	960330	keystroke_Key.backspace	Key.backspace	n/a
480.48	0.135	960960	keystroke_o	o	n/a
480.75	0.09	961500	keystroke_n	n	n/a
481.02	0.09	962040	keystroke_g	g	n/a
481.53	0.09	963060	keystroke_Key.space	Key.space	n/a
481.74	0.135	963480	keystroke_h	h	n/a
481.89	0.105	963780	keystroke_a	a	n/a
482.13	0.12	964260	keystroke_r	r	n/a
482.34	0.105	964680	keystroke_m	m	n/a
483.09	0.09	966180	keystroke_Key.enter	Key.enter	n/a
483.1865	11.0355	966373	prompt	n/a	tucson farming decreased arrives\n
484.725	0.1055	969450	keystroke_t	t	n/a
485.235	0.12	970470	keystroke_u	u	n/a
485.955	0.15	971910	keystroke_c	c	n/a
486.33	0.105	972660	keystroke_s	s	n/a
486.555	0.12	973110	keystroke_o	o	n/a
486.825	0.09	973650	keystroke_n	n	n/a
487.05	0.105	974100	keystroke_Key.space	Key.space	n/a
487.2745	0.0905	974549	keystroke_f	f	n/a
487.53	0.15	975060	keystroke_a	a	n/a
488.3695	0.136	976739	keystroke_r	r	n/a
488.6705	0.075	977341	keystroke_m	m	n/a
488.9255	0.105	977851	keystroke_i	i	n/a
489.1205	0.1495	978241	keystroke_n	n	n/a
489.3305	0.119	978661	keystroke_g	g	n/a
489.5395	0.12	979079	keystroke_Key.space	Key.space	n/a
489.7505	0.089	979501	keystroke_d	d	n/a
489.9745	0.105	979949	keystroke_e	e	n/a
490.2145	0.105	980429	keystroke_c	c	n/a
490.4845	0.15	980969	keystroke_r	r	n/a
490.7255	0.134	981451	keystroke_e	e	n/a
490.9195	0.0915	981839	keystroke_a	a	n/a
491.1445	0.091	982289	keystroke_s	s	n/a
491.34	0.105	982680	keystroke_e	e	n/a
491.565	0.12	983130	keystroke_d	d	n/a
491.82	0.12	983640	keystroke_Key.space	Key.space	n/a
492.0145	0.1505	984029	keystroke_a	a	n/a
492.315	0.091	984630	keystroke_r	r	n/a
492.525	0.12	985050	keystroke_r	r	n/a
492.735	0.12	985470	keystroke_i	i	n/a
493.036	0.134	986072	keystroke_v	v	n/a
493.215	0.135	986430	keystroke_e	e	n/a
493.4695	0.105	986939	keystroke_s	s	n/a
494.13	0.09	988260	keystroke_Key.enter	Key.enter	n/a
494.2265	10.691	988453	prompt	n/a	deputy claims finnish cooling\n
495.5255	0.135	991051	keystroke_d	d	n/a
496.4095	0.121	992819	keystroke_e	e	n/a
496.7395	0.105	993479	keystroke_p	p	n/a
497.656	0.137	995312	keystroke_u	u	n/a
497.971	0.105	995942	keystroke_t	t	n/a
498.181	0.075	996362	keystroke_y	y	n/a
498.736	0.12	997472	keystroke_Key.space	Key.space	n/a
499.096	0.15	998192	keystroke_c	c	n/a
499.306	0.105	998612	keystroke_l	l	n/a
499.471	0.1495	998942	keystroke_a	a	n/a
499.6655	0.1055	999331	keystroke_i	i	n/a
499.9355	0.135	999871	keystroke_m	m	n/a
500.1455	0.1205	1000291	keystroke_s	s	n/a
500.416	0.075	1000832	keystroke_Key.space	Key.space	n/a
500.791	0.165	1001582	keystroke_f	f	n/a
501.046	0.1195	1002092	keystroke_i	i	n/a
501.286	0.09	1002572	keystroke_n	n	n/a
501.496	0.075	1002992	keystroke_n	n	n/a
501.661	0.12	1003322	keystroke_i	i	n/a
501.886	0.1645	1003772	keystroke_s	s	n/a
502.1105	0.0905	1004221	keystroke_h	h	n/a
502.4105	0.12	1004821	keystroke_Key.space	Key.space	n/a
502.7555	0.09	1005511	keystroke_c	c	n/a
502.9055	0.12	1005811	keystroke_o	o	n/a
503.1305	0.09	1006261	keystroke_o	o	n/a
503.3255	0.105	1006651	keystroke_l	l	n/a
503.5805	0.09	1007161	keystroke_i	i	n/a
503.8205	0.105	1007641	keystroke_n	n	n/a
504.0155	0.15	1008031	keystroke_g	g	n/a
504.8255	0.0905	1009651	keystroke_Key.enter	Key.enter	n/a
504.922	12.5055	1009844	prompt	n/a	regulations clusters simpson lecture\n
505.801	0.165	1011602	keystroke_r	r	n/a
505.981	0.12	1011962	keystroke_e	e	n/a
506.326	0.15	1012652	keystroke_g	g	n/a
506.611	0.105	1013222	keystroke_u	u	n/a
506.866	0.135	1013732	keystroke_l	l	n/a
507.091	0.195	1014182	keystroke_a	a	n/a
507.4955	0.105	1014991	keystroke_t	t	n/a
507.6305	0.135	1015261	keystroke_i	i	n/a
507.8555	0.1205	1015711	keystroke_o	o	n/a
508.111	0.1045	1016222	keystroke_n	n	n/a
508.3205	0.1205	1016641	keystroke_s	s	n/a
508.801	0.105	1017602	keystroke_Key.space	Key.space	n/a
509.311	0.09	1018622	keystroke_c	c	n/a
509.491	0.105	1018982	keystroke_l	l	n/a
509.746	0.135	1019492	keystroke_u	u	n/a
509.956	0.135	1019912	keystroke_s	s	n/a
510.301	0.09	1020602	keystroke_t	t	n/a
510.541	0.15	1021082	keystroke_e	e	n/a
510.721	0.12	1021442	keystroke_r	r	n/a
510.976	0.12	1021952	keystroke_s	s	n/a
511.741	0.135	1023482	keystroke_Key.space	Key.space	n/a
512.0255	0.12	1024051	keystroke_s	s	n/a
512.2805	0.09	1024561	keystroke_i	i	n/a
512.521	0.105	1025042	keystroke_m	m	n/a
512.746	0.12	1025492	keystroke_p	p	n/a
512.971	0.135	1025942	keystroke_s	s	n/a
513.226	0.12	1026452	keystroke_o	o	n/a
513.481	0.105	1026962	keystroke_n	n	n/a
513.841	0.12	1027682	keystroke_Key.space	Key.space	n/a
514.2605	0.09	1028521	keystroke_l	l	n/a
514.5005	0.09	1029001	keystroke_e	e	n/a
514.7855	0.09	1029571	keystroke_c	c	n/a
515.0855	0.105	1030171	keystroke_t	t	n/a
515.2805	0.1355	1030561	keystroke_u	u	n/a
515.476	0.1645	1030952	keystroke_r	r	n/a
515.7005	0.105	1031401	keystroke_e	e	n/a
517.3355	0.09	1034671	keystroke_Key.enter	Key.enter	n/a
517.433	21.1905	1034866	prompt	n/a	garcia warnings monster automobiles\n
518.506	0.105	1037012	keystroke_g	g	n/a
518.8355	0.105	1037671	keystroke_a	a	n/a
519.0455	0.12	1038091	keystroke_r	r	n/a
519.42	0.136	1038840	keystroke_c	c	n/a
519.646	0.12	1039292	keystroke_i	i	n/a
519.826	0.104	1039652	keystroke_a	a	n/a
520.291	0.105	1040582	keystroke_Key.space	Key.space	n/a
520.546	0.09	1041092	keystroke_w	w	n/a
520.77	0.121	1041540	keystroke_a	a	n/a
520.996	0.12	1041992	keystroke_r	r	n/a
521.221	0.089	1042442	keystroke_n	n	n/a
521.4155	0.21	1042831	keystroke_i	i	n/a
521.5955	0.12	1043191	keystroke_n	n	n/a
521.8655	0.12	1043731	keystroke_g	g	n/a
522.0905	0.105	1044181	keystroke_s	s	n/a
522.6905	0.12	1045381	keystroke_Key.space	Key.space	n/a
522.8705	0.0905	1045741	keystroke_m	m	n/a
523.081	0.135	1046162	keystroke_o	o	n/a
523.336	0.135	1046672	keystroke_n	n	n/a
523.561	0.12	1047122	keystroke_s	s	n/a
523.831	0.105	1047662	keystroke_t	t	n/a
524.086	0.105	1048172	keystroke_e	e	n/a
524.311	0.105	1048622	keystroke_r	r	n/a
524.9255	0.135	1049851	keystroke_Key.space	Key.space	n/a
525.2855	0.12	1050571	keystroke_c	c	n/a
525.4805	0.12	1050961	keystroke_u	u	n/a
525.7205	0.105	1051441	keystroke_t	t	n/a
525.8855	0.165	1051771	keystroke_o	o	n/a
527.056	0.15	1054112	keystroke_m	m	n/a
527.911	0.12	1055822	keystroke_o	o	n/a
528.181	0.105	1056362	keystroke_b	b	n/a
528.781	0.135	1057562	keystroke_i	i	n/a
529.4105	0.105	1058821	keystroke_l	l	n/a
529.6805	0.105	1059361	keystroke_e	e	n/a
529.8915	0.135	1059783	keystroke_s	s	n/a
531.6755	0.105	1063351	keystroke_Key.left	Key.left	n/a
531.8555	0.105	1063711	keystroke_Key.left	Key.left	n/a
532.0505	0.09	1064101	keystroke_Key.left	Key.left	n/a
532.2455	0.105	1064491	keystroke_Key.left	Key.left	n/a
532.4555	0.091	1064911	keystroke_Key.left	Key.left	n/a
532.6355	0.105	1065271	keystroke_Key.left	Key.left	n/a
532.8605	0.105	1065721	keystroke_Key.left	Key.left	n/a
533.0855	0.105	1066171	keystroke_Key.left	Key.left	n/a
533.2955	0.12	1066591	keystroke_Key.left	Key.left	n/a
533.6105	0.135	1067221	keystroke_Key.left	Key.left	n/a
534.2705	0.135	1068541	keystroke_Key.backspace	Key.backspace	n/a
534.8265	0.164	1069653	keystroke_a	a	n/a
535.3355	0.135	1070671	keystroke_Key.right	Key.right	n/a
535.5605	0.12	1071121	keystroke_Key.right	Key.right	n/a
535.7565	0.12	1071513	keystroke_Key.right	Key.right	n/a
535.9655	0.12	1071931	keystroke_Key.right	Key.right	n/a
536.1755	0.12	1072351	keystroke_Key.right	Key.right	n/a
536.3855	0.12	1072771	keystroke_Key.right	Key.right	n/a
536.5815	0.12	1073163	keystroke_Key.right	Key.right	n/a
536.8055	0.105	1073611	keystroke_Key.right	Key.right	n/a
537.0005	0.12	1074001	keystroke_Key.right	Key.right	n/a
537.1955	0.151	1074391	keystroke_Key.right	Key.right	n/a
537.4655	0.166	1074931	keystroke_Key.right	Key.right	n/a
538.5315	0.089	1077063	keystroke_Key.enter	Key.enter	n/a
538.629	11.304	1077258	prompt	n/a	workforce needn't risks assessment\n
539.4015	0.12	1078803	keystroke_w	w	n/a
539.5515	0.12	1079103	keystroke_o	o	n/a
539.7905	0.121	1079581	keystroke_r	r	n/a
540.1065	0.134	1080213	keystroke_k	k	n/a
540.4055	0.121	1080811	keystroke_f	f	n/a
540.5555	0.1365	1081111	keystroke_o	o	n/a
540.752	0.089	1081504	keystroke_r	r	n/a
541.037	0.1045	1082074	keystroke_c	c	n/a
541.2915	0.195	1082583	keystroke_e	e	n/a
541.5155	0.1505	1083031	keystroke_Key.space	Key.space	n/a
541.741	0.1805	1083482	keystroke_n	n	n/a
541.9505	0.0915	1083901	keystroke_e	e	n/a
542.162	0.119	1084324	keystroke_e	e	n/a
542.432	0.104	1084864	keystroke_d	d	n/a
542.716	0.15	1085432	keystroke_n	n	n/a
543.062	0.1345	1086124	keystroke_'	'	n/a
543.2405	0.091	1086481	keystroke_t	t	n/a
543.9465	0.164	1087893	keystroke_Key.space	Key.space	n/a
544.5465	0.15	1089093	keystroke_r	r	n/a
544.7265	0.135	1089453	keystroke_i	i	n/a
544.9055	0.136	1089811	keystroke_s	s	n/a
545.1155	0.196	1090231	keystroke_k	k	n/a
545.3265	0.089	1090653	keystroke_s	s	n/a
547.1115	0.135	1094223	keystroke_Key.space	Key.space	n/a
547.3365	0.15	1094673	keystroke_a	a	n/a
547.5915	0.105	1095183	keystroke_s	s	n/a
547.7715	0.1505	1095543	keystroke_s	s	n/a
547.981	0.165	1095962	keystroke_e	e	n/a
548.191	0.105	1096382	keystroke_s	s	n/a
548.401	0.105	1096802	keystroke_s	s	n/a
548.566	0.135	1097132	keystroke_m	m	n/a
548.731	0.135	1097462	keystroke_e	e	n/a
548.896	0.15	1097792	keystroke_n	n	n/a
549.061	0.105	1098122	keystroke_t	t	n/a
549.8405	0.09	1099681	keystroke_Key.enter	Key.enter	n/a
549.9375	9.293	1099875	prompt	n/a	adware falls airplane hiring\n
550.7415	0.149	1101483	keystroke_a	a	n/a
551.0105	0.165	1102021	keystroke_d	d	n/a
551.611	0.105	1103222	keystroke_w	w	n/a
551.866	0.21	1103732	keystroke_a	a	n/a
552.031	0.15	1104062	keystroke_r	r	n/a
552.316	0.106	1104632	keystroke_e	e	n/a
553.231	0.105	1106462	keystroke_Key.space	Key.space	n/a
553.456	0.075	1106912	keystroke_f	f	n/a
553.651	0.1205	1107302	keystroke_a	a	n/a
553.8165	0.09	1107633	keystroke_l	l	n/a
553.9815	0.15	1107963	keystroke_l	l	n/a
554.1465	0.105	1108293	keystroke_s	s	n/a
554.431	0.12	1108862	keystroke_Key.space	Key.space	n/a
555.196	0.12	1110392	keystroke_a	a	n/a
555.3915	0.15	1110783	keystroke_i	i	n/a
555.6465	0.12	1111293	keystroke_r	r	n/a
555.8115	0.105	1111623	keystroke_p	p	n/a
556.0365	0.165	1112073	keystroke_l	l	n/a
556.2315	0.1495	1112463	keystroke_a	a	n/a
556.4565	0.1045	1112913	keystroke_n	n	n/a
556.6365	0.0895	1113273	keystroke_e	e	n/a
557.011	0.165	1114022	keystroke_Key.space	Key.space	n/a
557.4015	0.09	1114803	keystroke_h	h	n/a
557.5365	0.15	1115073	keystroke_i	i	n/a
557.7915	0.105	1115583	keystroke_r	r	n/a
558.0165	0.255	1116033	keystroke_i	i	n/a
558.2265	0.195	1116453	keystroke_n	n	n/a
558.4515	0.12	1116903	keystroke_g	g	n/a
559.1115	0.105	1118223	keystroke_Key.enter	Key.enter	n/a
559.2375	14.3365	1118475	prompt	n/a	maternity organizer attributes variables\n
560.026	0.196	1120052	keystroke_m	m	n/a
560.297	0.104	1120594	keystroke_a	a	n/a
560.552	0.074	1121104	keystroke_t	t	n/a
560.747	0.195	1121494	keystroke_e	e	n/a
561.107	0.165	1122214	keystroke_r	r	n/a
561.391	0.181	1122782	keystroke_n	n	n/a
561.556	0.166	1123112	keystroke_i	i	n/a
561.827	0.104	1123654	keystroke_t	t	n/a
562.051	0.106	1124102	keystroke_y	y	n/a
562.456	0.12	1124912	keystroke_Key.space	Key.space	n/a
562.697	0.105	1125394	keystroke_o	o	n/a
562.831	0.105	1125662	keystroke_r	r	n/a
563.071	0.12	1126142	keystroke_g	g	n/a
563.341	0.151	1126682	keystroke_a	a	n/a
563.597	0.164	1127194	keystroke_n	n	n/a
563.717	0.225	1127434	keystroke_i	i	n/a
563.851	0.135	1127702	keystroke_z	z	n/a
564.167	0.105	1128334	keystroke_e	e	n/a
564.392	0.12	1128784	keystroke_r	r	n/a
564.616	0.15	1129232	keystroke_Key.space	Key.space	n/a
564.962	0.135	1129924	keystroke_a	a	n/a
565.517	0.09	1131034	keystroke_t	t	n/a
565.742	0.105	1131484	keystroke_t	t	n/a
566.042	0.18	1132084	keystroke_r	r	n/a
566.312	0.12	1132624	keystroke_i	i	n/a
566.612	0.165	1133224	keystroke_b	b	n/a
568.412	0.149	1136824	keystroke_u	u	n/a
569.612	0.135	1139224	keystroke_t	t	n/a
569.867	0.105	1139734	keystroke_e	e	n/a
570.077	0.105	1140154	keystroke_s	s	n/a
570.302	0.12	1140604	keystroke_Key.space	Key.space	n/a
571.261	0.151	1142522	keystroke_v	v	n/a
571.591	0.166	1143182	keystroke_a	a	n/a
571.877	0.165	1143754	keystroke_r	r	n/a
572.012	0.12	1144024	keystroke_i	i	n/a
572.252	0.12	1144504	keystroke_a	a	n/a
572.432	0.135	1144864	keystroke_b	b	n/a
572.612	0.135	1145224	keystroke_l	l	n/a
572.777	0.1955	1145554	keystroke_e	e	n/a
572.9575	0.12	1145915	keystroke_s	s	n/a
573.4825	0.0895	1146965	keystroke_Key.enter	Key.enter	n/a
573.579	10.915	1147158	prompt	n/a	portugal mysterious grants presence\n
574.322	0.12	1148644	keystroke_p	p	n/a
574.787	0.135	1149574	keystroke_o	o	n/a
574.952	0.135	1149904	keystroke_r	r	n/a
575.552	0.09	1151104	keystroke_t	t	n/a
575.747	0.12	1151494	keystroke_u	u	n/a
575.927	0.09	1151854	keystroke_g	g	n/a
576.197	0.09	1152394	keystroke_a	a	n/a
576.377	0.135	1152754	keystroke_l	l	n/a
576.602	0.12	1153204	keystroke_Key.space	Key.space	n/a
576.827	0.105	1153654	keystroke_m	m	n/a
577.112	0.135	1154224	keystroke_y	y	n/a
577.277	0.09	1154554	keystroke_s	s	n/a
577.487	0.105	1154974	keystroke_t	t	n/a
577.712	0.135	1155424	keystroke_e	e	n/a
577.907	0.12	1155814	keystroke_r	r	n/a
578.057	0.12	1156114	keystroke_i	i	n/a
578.252	0.195	1156504	keystroke_o	o	n/a
578.402	0.165	1156804	keystroke_u	u	n/a
578.612	0.15	1157224	keystroke_s	s	n/a
578.807	0.12	1157614	keystroke_Key.space	Key.space	n/a
579.152	0.105	1158304	keystroke_g	g	n/a
579.392	0.135	1158784	keystroke_r	r	n/a
579.602	0.135	1159204	keystroke_a	a	n/a
579.797	0.18	1159594	keystroke_n	n	n/a
580.022	0.105	1160044	keystroke_t	t	n/a
580.262	0.09	1160524	keystroke_s	s	n/a
580.607	0.09	1161214	keystroke_Key.space	Key.space	n/a
580.832	0.105	1161664	keystroke_p	p	n/a
581.072	0.15	1162144	keystroke_r	r	n/a
581.177	0.1805	1162354	keystroke_e	e	n/a
581.4475	0.165	1162895	keystroke_s	s	n/a
582.7375	0.149	1165475	keystroke_e	e	n/a
582.9175	0.15	1165835	keystroke_n	n	n/a
583.3665	0.135	1166733	keystroke_c	c	n/a
583.5915	0.09	1167183	keystroke_e	e	n/a
584.3865	0.105	1168773	keystroke_Key.enter	Key.enter	n/a
584.4985	15.101	1168997	prompt	n/a	harvard pontiac graduated plate\n
585.452	0.0905	1170904	keystroke_h	h	n/a
585.7525	0.1195	1171505	keystroke_a	a	n/a
586.142	0.105	1172284	keystroke_v	v	n/a
586.3675	0.27	1172735	keystroke_a	a	n/a
586.5625	0.135	1173125	keystroke_r	r	n/a
586.8475	0.1345	1173695	keystroke_d	d	n/a
587.0575	0.1345	1174115	keystroke_Key.space	Key.space	n/a
587.3425	0.15	1174685	keystroke_p	p	n/a
587.7625	0.134	1175525	keystroke_o	o	n/a
587.9715	0.121	1175943	keystroke_n	n	n/a
588.2275	0.15	1176455	keystroke_t	t	n/a
588.4825	0.134	1176965	keystroke_i	i	n/a
588.6775	0.12	1177355	keystroke_a	a	n/a
588.9775	0.06	1177955	keystroke_c	c	n/a
589.0665	0.031	1178133	keystroke_c	c	n/a
589.9525	0.12	1179905	keystroke_Key.space	Key.space	n/a
590.5825	0.135	1181165	keystroke_Key.backspace	Key.backspace	n/a
591.0015	0.091	1182003	keystroke_Key.backspace	Key.backspace	n/a
593.6	0.087	1187200	keystroke_Key.space	Key.space	n/a
593.927	0.09	1187854	keystroke_g	g	n/a
594.167	0.105	1188334	keystroke_r	r	n/a
594.302	0.12	1188604	keystroke_a	a	n/a
594.572	0.12	1189144	keystroke_d	d	n/a
594.782	0.15	1189564	keystroke_u	u	n/a
594.887	0.12	1189774	keystroke_a	a	n/a
595.172	0.12	1190344	keystroke_t	t	n/a
595.397	0.075	1190794	keystroke_e	e	n/a
595.637	0.12	1191274	keystroke_d	d	n/a
595.922	0.105	1191844	keystroke_Key.space	Key.space	n/a
596.432	0.105	1192864	keystroke_p	p	n/a
596.657	0.135	1193314	keystroke_l	l	n/a
596.807	0.135	1193614	keystroke_a	a	n/a
597.1065	0.135	1194213	keystroke_t	t	n/a
597.287	0.12	1194574	keystroke_e	e	n/a
599.5855	0.012	1199171	keystroke_Key.enter	Key.enter	n/a
599.6055	11.717	1199211	prompt	n/a	applicable participate knowing monaco\n
600.3775	0.135	1200755	keystroke_a	a	n/a
600.5275	0.12	1201055	keystroke_p	p	n/a
600.7375	0.09	1201475	keystroke_p	p	n/a
600.9475	0.15	1201895	keystroke_l	l	n/a
601.1125	0.135	1202225	keystroke_i	i	n/a
601.3075	0.135	1202615	keystroke_c	c	n/a
601.5175	0.165	1203035	keystroke_a	a	n/a
601.7725	0.09	1203545	keystroke_b	b	n/a
601.9525	0.105	1203905	keystroke_l	l	n/a
602.1325	0.1045	1204265	keystroke_e	e	n/a
602.335	0.135	1204670	keystroke_Key.space	Key.space	n/a
602.74	0.1055	1205480	keystroke_p	p	n/a
602.9205	0.225	1205841	keystroke_a	a	n/a
603.1005	0.12	1206201	keystroke_r	r	n/a
603.3705	0.09	1206741	keystroke_t	t	n/a
603.5805	0.105	1207161	keystroke_i	i	n/a
604.105	0.18	1208210	keystroke_c	c	n/a
604.3	0.09	1208600	keystroke_i	i	n/a
604.495	0.15	1208990	keystroke_p	p	n/a
604.69	0.135	1209380	keystroke_a	a	n/a
605.0205	0.075	1210041	keystroke_t	t	n/a
605.2905	0.105	1210581	keystroke_e	e	n/a
605.5455	0.12	1211091	keystroke_Key.space	Key.space	n/a
605.7255	0.075	1211451	keystroke_k	k	n/a
605.9355	0.15	1211871	keystroke_n	n	n/a
606.0705	0.165	1212141	keystroke_o	o	n/a
606.2805	0.12	1212561	keystroke_w	w	n/a
606.5355	0.12	1213071	keystroke_i	i	n/a
606.7605	0.105	1213521	keystroke_n	n	n/a
606.9855	0.09	1213971	keystroke_g	g	n/a
607.45	0.1205	1214900	keystroke_Key.space	Key.space	n/a
607.6905	0.105	1215381	keystroke_m	m	n/a
607.9455	0.12	1215891	keystroke_o	o	n/a
608.2155	0.165	1216431	keystroke_n	n	n/a
608.5305	0.12	1217061	keystroke_a	a	n/a
608.8305	0.1195	1217661	keystroke_v	v	n/a
609.025	0.165	1218050	keystroke_o	o	n/a
610.135	0.105	1220270	keystroke_Key.backspace	Key.backspace	n/a
610.36	0.09	1220720	keystroke_Key.backspace	Key.backspace	n/a
610.616	0.104	1221232	keystroke_c	c	n/a
611.005	0.09	1222010	keystroke_o	o	n/a
611.245	0.0755	1222490	keystroke_Key.enter	Key.enter	n/a
611.327	8.4735	1222654	prompt	n/a	demand add providing alcohol\n
612.3405	0.09	1224681	keystroke_d	d	n/a
612.5655	0.09	1225131	keystroke_e	e	n/a
612.7155	0.135	1225431	keystroke_m	m	n/a
612.9705	0.135	1225941	keystroke_a	a	n/a
613.1655	0.1205	1226331	keystroke_n	n	n/a
613.376	0.1195	1226752	keystroke_d	d	n/a
613.7205	0.015	1227441	keystroke_Key.space	Key.space	n/a
613.8705	0.12	1227741	keystroke_a	a	n/a
614.0955	0.091	1228191	keystroke_d	d	n/a
614.3205	0.12	1228641	keystroke_d	d	n/a
614.7405	0.105	1229481	keystroke_Key.space	Key.space	n/a
614.9955	0.15	1229991	keystroke_p	p	n/a
615.2055	0.1195	1230411	keystroke_r	r	n/a
615.37	0.123	1230740	keystroke_o	o	n/a
615.5685	0.135	1231137	keystroke_v	v	n/a
615.7925	0.136	1231585	keystroke_i	i	n/a
616.0035	0.15	1232007	keystroke_d	d	n/a
616.2285	0.135	1232457	keystroke_i	i	n/a
616.4685	0.105	1232937	keystroke_n	n	n/a
616.6925	0.1055	1233385	keystroke_g	g	n/a
616.963	0.15	1233926	keystroke_Key.space	Key.space	n/a
617.458	0.105	1234916	keystroke_a	a	n/a
617.6235	0.1195	1235247	keystroke_l	l	n/a
618.223	0.165	1236446	keystroke_c	c	n/a
618.5835	0.105	1237167	keystroke_o	o	n/a
618.823	0.12	1237646	keystroke_h	h	n/a
618.973	0.135	1237946	keystroke_o	o	n/a
619.228	0.12	1238456	keystroke_l	l	n/a
619.709	0.089	1239418	keystroke_Key.enter	Key.enter	n/a
619.8045	17.097	1239609	prompt	n/a	butler replied forums corresponding\n
620.669	0.1045	1241338	keystroke_b	b	n/a
620.9375	0.1665	1241875	keystroke_u	u	n/a
621.254	0.119	1242508	keystroke_t	t	n/a
621.464	0.119	1242928	keystroke_l	l	n/a
621.673	0.12	1243346	keystroke_e	e	n/a
621.929	0.075	1243858	keystroke_r	r	n/a
622.3335	0.105	1244667	keystroke_Key.space	Key.space	n/a
622.6335	0.135	1245267	keystroke_r	r	n/a
622.7535	0.15	1245507	keystroke_e	e	n/a
622.9335	0.12	1245867	keystroke_p	p	n/a
623.1585	0.135	1246317	keystroke_l	l	n/a
623.3685	0.15	1246737	keystroke_i	i	n/a
623.5785	0.105	1247157	keystroke_e	e	n/a
623.8185	0.12	1247637	keystroke_d	d	n/a
624.0885	0.105	1248177	keystroke_Key.space	Key.space	n/a
624.3285	0.12	1248657	keystroke_f	f	n/a
624.6735	0.135	1249347	keystroke_o	o	n/a
625.2285	0.165	1250457	keystroke_r	r	n/a
625.5735	0.12	1251147	keystroke_u	u	n/a
625.9035	0.105	1251807	keystroke_m	m	n/a
626.1735	0.12	1252347	keystroke_s	s	n/a
626.4585	0.09	1252917	keystroke_Key.space	Key.space	n/a
626.7435	0.15	1253487	keystroke_a	a	n/a
626.9985	0.135	1253997	keystroke_o	o	n/a
627.2085	0.06	1254417	keystroke_r	r	n/a
627.3885	0.105	1254777	keystroke_r	r	n/a
627.5685	0.195	1255137	keystroke_e	e	n/a
627.8535	0.15	1255707	keystroke_s	s	n/a
628.0185	0.12	1256037	keystroke_p	p	n/a
628.2435	0.165	1256487	keystroke_o	o	n/a
628.4845	0.119	1256969	keystroke_n	n	n/a
628.769	0.105	1257538	keystroke_d	d	n/a
628.9785	0.225	1257957	keystroke_i	i	n/a
629.1135	0.18	1258227	keystroke_n	n	n/a
629.3235	0.15	1258647	keystroke_g	g	n/a
629.8485	0.06	1259697	keystroke_Key.backspace	Key.backspace	n/a
630.0435	0.09	1260087	keystroke_Key.backspace	Key.backspace	n/a
630.2685	0.09	1260537	keystroke_Key.backspace	Key.backspace	n/a
630.4785	0.09	1260957	keystroke_Key.backspace	Key.backspace	n/a
630.6735	0.09	1261347	keystroke_Key.backspace	Key.backspace	n/a
630.869	0.09	1261738	keystroke_Key.backspace	Key.backspace	n/a
631.0785	0.0905	1262157	keystroke_Key.backspace	Key.backspace	n/a
631.304	0.105	1262608	keystroke_Key.backspace	Key.backspace	n/a
631.5585	0.06	1263117	keystroke_Key.backspace	Key.backspace	n/a
631.7685	0.09	1263537	keystroke_Key.backspace	Key.backspace	n/a
632.0085	0.09	1264017	keystroke_Key.backspace	Key.backspace	n/a
632.2335	0.1055	1264467	keystroke_Key.backspace	Key.backspace	n/a
632.5035	0.105	1265007	keystroke_Key.backspace	Key.backspace	n/a
632.9385	0.21	1265877	keystroke_c	c	n/a
633.2835	0.12	1266567	keystroke_o	o	n/a
633.7035	0.09	1267407	keystroke_r	r	n/a
633.9135	0.09	1267827	keystroke_r	r	n/a
634.1235	0.135	1268247	keystroke_e	e	n/a
634.3185	0.15	1268637	keystroke_s	s	n/a
634.4985	0.105	1268997	keystroke_p	p	n/a
634.7235	0.1515	1269447	keystroke_o	o	n/a
634.9935	0.105	1269987	keystroke_n	n	n/a
635.2185	0.12	1270437	keystroke_d	d	n/a
635.4135	0.195	1270827	keystroke_i	i	n/a
635.5485	0.18	1271097	keystroke_n	n	n/a
635.9235	0.1205	1271847	keystroke_g	g	n/a
636.8235	0.075	1273647	keystroke_Key.enter	Key.enter	n/a
636.9065	12.5045	1273813	prompt	n/a	pixel constitution dynamic opens\n
637.6785	0.15	1275357	keystroke_p	p	n/a
638.0085	0.165	1276017	keystroke_i	i	n/a
638.2195	0.104	1276439	keystroke_x	x	n/a
638.4735	0.09	1276947	keystroke_e	e	n/a
638.6385	0.105	1277277	keystroke_l	l	n/a
639.0735	0.12	1278147	keystroke_Key.space	Key.space	n/a
639.644	0.12	1279288	keystroke_c	c	n/a
639.869	0.2105	1279738	keystroke_o	o	n/a
640.0045	0.1495	1280009	keystroke_n	n	n/a
640.274	0.135	1280548	keystroke_s	s	n/a
641.4145	0.075	1282829	keystroke_t	t	n/a
641.5495	0.12	1283099	keystroke_i	i	n/a
641.8795	0.015	1283759	keystroke_t	t	n/a
641.9545	0.12	1283909	keystroke_u	u	n/a
642.3145	0.12	1284629	keystroke_t	t	n/a
642.4795	0.195	1284959	keystroke_i	i	n/a
642.6145	0.27	1285229	keystroke_o	o	n/a
642.8995	0.105	1285799	keystroke_n	n	n/a
643.529	0.106	1287058	keystroke_Key.space	Key.space	n/a
643.829	0.105	1287658	keystroke_d	d	n/a
644.009	0.12	1288018	keystroke_y	y	n/a
644.28	0.1335	1288560	keystroke_m	m	n/a
644.5035	0.165	1289007	keystroke_a	a	n/a
646.034	0.09	1292068	keystroke_Key.backspace	Key.backspace	n/a
646.229	0.075	1292458	keystroke_Key.backspace	Key.backspace	n/a
646.499	0.12	1292998	keystroke_n	n	n/a
646.664	0.165	1293328	keystroke_a	a	n/a
646.8435	0.09	1293687	keystroke_m	m	n/a
647.069	0.135	1294138	keystroke_i	i	n/a
647.249	0.09	1294498	keystroke_c	c	n/a
647.834	0.12	1295668	keystroke_Key.space	Key.space	n/a
648.119	0.105	1296238	keystroke_o	o	n/a
648.329	0.12	1296658	keystroke_p	p	n/a
648.524	0.135	1297048	keystroke_e	e	n/a
648.674	0.105	1297348	keystroke_n	n	n/a
648.809	0.12	1297618	keystroke_s	s	n/a
649.319	0.0895	1298638	keystroke_Key.enter	Key.enter	n/a
649.4165	14.1395	1298833	prompt	n/a	ours enhance monday requiring\n
650.1445	0.105	1300289	keystroke_o	o	n/a
650.4145	0.134	1300829	keystroke_u	u	n/a
650.6095	0.104	1301219	keystroke_r	r	n/a
650.8335	0.12	1301667	keystroke_s	s	n/a
651.1495	0.119	1302299	keystroke_Key.space	Key.space	n/a
651.4495	0.105	1302899	keystroke_e	e	n/a
651.5835	0.06	1303167	keystroke_n	n	n/a
651.8245	0.119	1303649	keystroke_h	h	n/a
652.0185	0.12	1304037	keystroke_a	a	n/a
652.2135	0.121	1304427	keystroke_n	n	n/a
652.4385	0.121	1304877	keystroke_c	c	n/a
652.6935	0.075	1305387	keystroke_e	e	n/a
653.5185	0.105	1307037	keystroke_Key.space	Key.space	n/a
653.7435	0.076	1307487	keystroke_m	m	n/a
654.0745	0.135	1308149	keystroke_o	o	n/a
654.2685	0.135	1308537	keystroke_n	n	n/a
654.4635	0.105	1308927	keystroke_d	d	n/a
654.6885	0.135	1309377	keystroke_a	a	n/a
654.8695	0.12	1309739	keystroke_y	y	n/a
655.0785	0.135	1310157	keystroke_Key.space	Key.space	n/a
655.3795	0.165	1310759	keystroke_r	r	n/a
655.5295	0.134	1311059	keystroke_e	e	n/a
655.8295	0.12	1311659	keystroke_q	q	n/a
655.9935	0.136	1311987	keystroke_u	u	n/a
659.9125	0.027	1319825	keystroke_i	i	n/a
660.2995	0.12	1320599	keystroke_r	r	n/a
660.5535	0.226	1321107	keystroke_i	i	n/a
660.6745	0.18	1321349	keystroke_n	n	n/a
660.99	0.0895	1321980	keystroke_g	g	n/a
663.5275	0.027	1327055	keystroke_Key.enter	Key.enter	n/a
663.5605	7.481	1327121	prompt	n/a	after rarely batteries colony\n
664.3345	0.12	1328669	keystroke_a	a	n/a
664.5585	0.091	1329117	keystroke_f	f	n/a
664.7995	0.075	1329599	keystroke_t	t	n/a
664.9945	0.12	1329989	keystroke_e	e	n/a
665.0845	0.165	1330169	keystroke_r	r	n/a
665.4145	0.135	1330829	keystroke_Key.space	Key.space	n/a
665.7145	0.135	1331429	keystroke_r	r	n/a
665.9095	0.09	1331819	keystroke_a	a	n/a
666.1195	0.164	1332239	keystroke_r	r	n/a
666.2395	0.15	1332479	keystroke_e	e	n/a
666.3895	0.105	1332779	keystroke_l	l	n/a
666.63	0.1195	1333260	keystroke_y	y	n/a
666.8685	0.121	1333737	keystroke_Key.space	Key.space	n/a
667.0495	0.12	1334099	keystroke_b	b	n/a
667.1845	0.12	1334369	keystroke_a	a	n/a
667.424	0.075	1334848	keystroke_t	t	n/a
667.619	0.09	1335238	keystroke_t	t	n/a
667.859	0.15	1335718	keystroke_e	e	n/a
667.994	0.1205	1335988	keystroke_r	r	n/a
668.1895	0.1645	1336379	keystroke_i	i	n/a
668.384	0.15	1336768	keystroke_e	e	n/a
668.564	0.135	1337128	keystroke_s	s	n/a
668.759	0.135	1337518	keystroke_Key.space	Key.space	n/a
669.5095	0.18	1339019	keystroke_c	c	n/a
669.7045	0.1045	1339409	keystroke_o	o	n/a
669.914	0.09	1339828	keystroke_l	l	n/a
670.124	0.12	1340248	keystroke_o	o	n/a
670.349	0.0755	1340698	keystroke_n	n	n/a
670.5895	0.15	1341179	keystroke_y	y	n/a
670.9345	0.105	1341869	keystroke_Key.enter	Key.enter	n/a
671.046	13.196	1342092	prompt	n/a	cassette transport consequences premiere\n
672.0445	0.12	1344089	keystroke_c	c	n/a
672.2695	0.15	1344539	keystroke_a	a	n/a
672.5995	0.105	1345199	keystroke_s	s	n/a
672.7945	0.135	1345589	keystroke_s	s	n/a
673.0495	0.135	1346099	keystroke_e	e	n/a
673.335	0.09	1346670	keystroke_t	t	n/a
673.53	0.12	1347060	keystroke_t	t	n/a
673.755	0.105	1347510	keystroke_e	e	n/a
674.5495	0.09	1349099	keystroke_Key.space	Key.space	n/a
675.1945	0.0905	1350389	keystroke_t	t	n/a
675.4045	0.121	1350809	keystroke_r	r	n/a
675.5705	0.135	1351141	keystroke_a	a	n/a
675.7495	0.12	1351499	keystroke_n	n	n/a
675.8845	0.165	1351769	keystroke_s	s	n/a
676.1095	0.106	1352219	keystroke_p	p	n/a
676.3195	0.15	1352639	keystroke_o	o	n/a
676.5145	0.105	1353029	keystroke_r	r	n/a
676.7395	0.105	1353479	keystroke_t	t	n/a
677.37	0.12	1354740	keystroke_Key.space	Key.space	n/a
677.655	0.09	1355310	keystroke_c	c	n/a
677.775	0.225	1355550	keystroke_o	o	n/a
677.97	0.075	1355940	keystroke_n	n	n/a
678.24	0.135	1356480	keystroke_s	s	n/a
679.5	0.12	1359000	keystroke_e	e	n/a
679.935	0.105	1359870	keystroke_q	q	n/a
680.085	0.1495	1360170	keystroke_u	u	n/a
680.2495	0.12	1360499	keystroke_e	e	n/a
680.4145	0.15	1360829	keystroke_n	n	n/a
680.5805	0.104	1361161	keystroke_c	c	n/a
680.8045	0.136	1361609	keystroke_e	e	n/a
681.0445	0.105	1362089	keystroke_s	s	n/a
681.2095	0.12	1362419	keystroke_Key.space	Key.space	n/a
681.5695	0.105	1363139	keystroke_p	p	n/a
681.9005	0.164	1363801	keystroke_r	r	n/a
682.0495	0.12	1364099	keystroke_e	e	n/a
682.3955	0.089	1364791	keystroke_m	m	n/a
682.709	0.15	1365418	keystroke_i	i	n/a
682.9645	0.121	1365929	keystroke_e	e	n/a
683.2055	0.164	1366411	keystroke_r	r	n/a
683.3245	0.135	1366649	keystroke_e	e	n/a
684.1495	0.09	1368299	keystroke_Key.enter	Key.enter	n/a
684.2485	9.3835	1368497	prompt	n/a	temperature thrown twelve heater\n
685.1545	0.105	1370309	keystroke_t	t	n/a
685.3645	0.12	1370729	keystroke_e	e	n/a
685.5595	0.105	1371119	keystroke_m	m	n/a
686.7305	0.104	1373461	keystroke_p	p	n/a
686.9245	0.12	1373849	keystroke_e	e	n/a
687.1055	0.134	1374211	keystroke_r	r	n/a
687.2255	0.134	1374451	keystroke_a	a	n/a
687.5095	0.075	1375019	keystroke_t	t	n/a
687.6445	0.12	1375289	keystroke_u	u	n/a
687.8545	0.165	1375709	keystroke_r	r	n/a
687.9595	0.135	1375919	keystroke_e	e	n/a
688.3795	0.135	1376759	keystroke_Key.space	Key.space	n/a
688.695	0.1045	1377390	keystroke_t	t	n/a
688.8295	0.135	1377659	keystroke_h	h	n/a
689.0095	0.135	1378019	keystroke_r	r	n/a
689.1745	0.15	1378349	keystroke_o	o	n/a
689.3845	0.09	1378769	keystroke_w	w	n/a
689.5945	0.09	1379189	keystroke_n	n	n/a
689.7745	0.15	1379549	keystroke_Key.space	Key.space	n/a
690.0895	0.12	1380179	keystroke_t	t	n/a
690.285	0.105	1380570	keystroke_w	w	n/a
690.525	0.12	1381050	keystroke_e	e	n/a
690.69	0.105	1381380	keystroke_l	l	n/a
690.93	0.12	1381860	keystroke_v	v	n/a
691.245	0.15	1382490	keystroke_e	e	n/a
691.65	0.12	1383300	keystroke_Key.space	Key.space	n/a
691.905	0.12	1383810	keystroke_h	h	n/a
692.085	0.075	1384170	keystroke_e	e	n/a
692.265	0.105	1384530	keystroke_a	a	n/a
692.49	0.09	1384980	keystroke_t	t	n/a
692.7	0.15	1385400	keystroke_e	e	n/a
692.865	0.105	1385730	keystroke_r	r	n/a
693.555	0.075	1387110	keystroke_Key.enter	Key.enter	n/a
693.6365	8.9205	1387273	prompt	n/a	saver scary southeast slot\n
694.5755	0.105	1389151	keystroke_s	s	n/a
694.8005	0.105	1389601	keystroke_a	a	n/a
695.1305	0.135	1390261	keystroke_v	v	n/a
695.4455	0.105	1390891	keystroke_e	e	n/a
695.6705	0.135	1391341	keystroke_r	r	n/a
695.8505	0.1345	1391701	keystroke_Key.space	Key.space	n/a
696.075	0.09	1392150	keystroke_s	s	n/a
696.33	0.1055	1392660	keystroke_c	c	n/a
696.5555	0.15	1393111	keystroke_a	a	n/a
696.7805	0.12	1393561	keystroke_r	r	n/a
697.0505	0.105	1394101	keystroke_y	y	n/a
697.5305	0.12	1395061	keystroke_Key.space	Key.space	n/a
697.7555	0.135	1395511	keystroke_s	s	n/a
697.9955	0.12	1395991	keystroke_o	o	n/a
698.2355	0.105	1396471	keystroke_u	u	n/a
698.4155	0.12	1396831	keystroke_t	t	n/a
698.6255	0.105	1397251	keystroke_h	h	n/a
698.9105	0.12	1397821	keystroke_w	w	n/a
699.0905	0.135	1398181	keystroke_e	e	n/a
699.3155	0.15	1398631	keystroke_s	s	n/a
699.5555	0.075	1399111	keystroke_t	t	n/a
700.1105	0.135	1400221	keystroke_Key.space	Key.space	n/a
700.5755	0.09	1401151	keystroke_s	s	n/a
700.726	0.135	1401452	keystroke_l	l	n/a
701.79	0.135	1403580	keystroke_o	o	n/a
701.94	0.0605	1403880	keystroke_t	t	n/a
702.465	0.09	1404930	keystroke_Key.enter	Key.enter	n/a
702.562	8.59	1405124	prompt	n/a	signs yale dealers california\n
703.26	0.1205	1406520	keystroke_s	s	n/a
703.4405	0.135	1406881	keystroke_i	i	n/a
703.6505	0.105	1407301	keystroke_g	g	n/a
703.8755	0.105	1407751	keystroke_n	n	n/a
704.0555	0.15	1408111	keystroke_s	s	n/a
704.3105	0.12	1408621	keystroke_Key.space	Key.space	n/a
704.5055	0.135	1409011	keystroke_y	y	n/a
704.6855	0.15	1409371	keystroke_a	a	n/a
704.8805	0.09	1409761	keystroke_l	l	n/a
705.1055	0.1345	1410211	keystroke_e	e	n/a
705.3155	0.1495	1410631	keystroke_Key.space	Key.space	n/a
705.7045	0.12	1411409	keystroke_d	d	n/a
706.29	0.181	1412580	keystroke_e	e	n/a
707.07	0.135	1414140	keystroke_a	a	n/a
707.2795	0.1205	1414559	keystroke_l	l	n/a
707.446	0.104	1414892	keystroke_e	e	n/a
707.685	0.105	1415370	keystroke_r	r	n/a
707.91	0.12	1415820	keystroke_s	s	n/a
708.15	0.12	1416300	keystroke_Key.space	Key.space	n/a
708.435	0.09	1416870	keystroke_c	c	n/a
708.63	0.12	1417260	keystroke_a	a	n/a
708.795	0.12	1417590	keystroke_l	l	n/a
709.005	0.135	1418010	keystroke_i	i	n/a
709.215	0.105	1418430	keystroke_f	f	n/a
709.4395	0.12	1418879	keystroke_o	o	n/a
709.6195	0.106	1419239	keystroke_r	r	n/a
709.8145	0.135	1419629	keystroke_n	n	n/a
710.0095	0.15	1420019	keystroke_i	i	n/a
710.2505	0.104	1420501	keystroke_a	a	n/a
711.0745	0.075	1422149	keystroke_Key.enter	Key.enter	n/a
711.1575	8.1545	1422315	prompt	n/a	seekers blocked peoples adrian\n
711.87	0.135	1423740	keystroke_s	s	n/a
712.185	0.075	1424370	keystroke_e	e	n/a
712.395	0.075	1424790	keystroke_e	e	n/a
712.575	0.135	1425150	keystroke_k	k	n/a
712.725	0.12	1425450	keystroke_e	e	n/a
712.935	0.09	1425870	keystroke_r	r	n/a
713.16	0.12	1426320	keystroke_s	s	n/a
713.37	0.12	1426740	keystroke_Key.space	Key.space	n/a
713.565	0.09	1427130	keystroke_b	b	n/a
713.76	0.1055	1427520	keystroke_l	l	n/a
713.9705	0.15	1427941	keystroke_o	o	n/a
714.1505	0.09	1428301	keystroke_c	c	n/a
714.3605	0.135	1428721	keystroke_k	k	n/a
714.5255	0.09	1429051	keystroke_e	e	n/a
714.7505	0.1495	1429501	keystroke_d	d	n/a
714.945	0.0905	1429890	keystroke_Key.space	Key.space	n/a
715.0955	0.15	1430191	keystroke_p	p	n/a
715.2755	0.0895	1430551	keystroke_e	e	n/a
715.5155	0.12	1431031	keystroke_o	o	n/a
715.7705	0.0895	1431541	keystroke_p	p	n/a
715.98	0.15	1431960	keystroke_l	l	n/a
716.175	0.105	1432350	keystroke_e	e	n/a
716.34	0.12	1432680	keystroke_s	s	n/a
717.015	0.12	1434030	keystroke_Key.space	Key.space	n/a
717.5545	0.12	1435109	keystroke_a	a	n/a
717.8095	0.076	1435619	keystroke_d	d	n/a
718.0655	0.09	1436131	keystroke_r	r	n/a
718.1845	0.12	1436369	keystroke_i	i	n/a
718.3505	0.1505	1436701	keystroke_a	a	n/a
718.606	0.105	1437212	keystroke_n	n	n/a
719.2055	0.104	1438411	keystroke_Key.enter	Key.enter	n/a
719.3165	13.1955	1438633	prompt	n/a	carrier pipes temporarily partly\n
720.2255	0.12	1440451	keystroke_c	c	n/a
720.4655	0.135	1440931	keystroke_a	a	n/a
720.6595	0.105	1441319	keystroke_r	r	n/a
720.9005	0.12	1441801	keystroke_r	r	n/a
721.0645	0.135	1442129	keystroke_i	i	n/a
721.2755	0.089	1442551	keystroke_e	e	n/a
721.4845	0.106	1442969	keystroke_r	r	n/a
721.7545	0.12	1443509	keystroke_Key.space	Key.space	n/a
722.1895	0.121	1444379	keystroke_p	p	n/a
722.3555	0.134	1444711	keystroke_i	i	n/a
722.6105	0.074	1445221	keystroke_p	p	n/a
723.271	0.12	1446542	keystroke_e	e	n/a
723.526	0.0745	1447052	keystroke_s	s	n/a
724.621	0.135	1449242	keystroke_Key.space	Key.space	n/a
725.055	0.106	1450110	keystroke_t	t	n/a
725.266	0.105	1450532	keystroke_e	e	n/a
725.431	0.105	1450862	keystroke_m	m	n/a
725.656	0.134	1451312	keystroke_p	p	n/a
725.85	0.105	1451700	keystroke_o	o	n/a
726.5705	0.135	1453141	keystroke_r	r	n/a
726.7655	0.15	1453531	keystroke_a	a	n/a
727.0505	0.1655	1454101	keystroke_r	r	n/a
727.231	0.165	1454462	keystroke_i	i	n/a
727.801	0.09	1455602	keystroke_l	l	n/a
728.101	0.075	1456202	keystroke_y	y	n/a
730.6385	0.072	1461277	keystroke_Key.space	Key.space	n/a
730.8155	0.075	1461631	keystroke_p	p	n/a
730.9805	0.18	1461961	keystroke_a	a	n/a
731.1005	0.135	1462201	keystroke_r	r	n/a
731.3855	0.09	1462771	keystroke_t	t	n/a
731.5655	0.075	1463131	keystroke_l	l	n/a
731.7605	0.135	1463521	keystroke_y	y	n/a
732.4205	0.09	1464841	keystroke_Key.enter	Key.enter	n/a
732.516	16.8545	1465032	prompt	n/a	filling underground infections stick\n
733.351	0.12	1466702	keystroke_f	f	n/a
733.486	0.105	1466972	keystroke_i	i	n/a
733.711	0.12	1467422	keystroke_l	l	n/a
733.921	0.12	1467842	keystroke_i	i	n/a
734.146	0.15	1468292	keystroke_n	n	n/a
734.341	0.15	1468682	keystroke_g	g	n/a
734.581	0.15	1469162	keystroke_Key.space	Key.space	n/a
735.091	0.105	1470182	keystroke_u	u	n/a
737.3135	0.057	1474627	keystroke_Key.backspace	Key.backspace	n/a
737.6405	0.09	1475281	keystroke_Key.backspace	Key.backspace	n/a
737.8505	0.105	1475701	keystroke_Key.backspace	Key.backspace	n/a
738.0905	0.09	1476181	keystroke_Key.backspace	Key.backspace	n/a
738.3005	0.105	1476601	keystroke_Key.backspace	Key.backspace	n/a
738.5405	0.09	1477081	keystroke_Key.backspace	Key.backspace	n/a
739.2605	0.091	1478521	keystroke_i	i	n/a
739.8605	0.12	1479721	keystroke_Key.backspace	Key.backspace	n/a
740.2205	0.121	1480441	keystroke_l	l	n/a
740.4465	0.119	1480893	keystroke_l	l	n/a
740.6555	0.121	1481311	keystroke_i	i	n/a
740.8965	0.104	1481793	keystroke_n	n	n/a
741.1055	0.12	1482211	keystroke_g	g	n/a
741.3305	0.12	1482661	keystroke_Key.space	Key.space	n/a
741.5255	0.105	1483051	keystroke_u	u	n/a
741.7805	0.105	1483561	keystroke_n	n	n/a
741.9605	0.061	1483921	keystroke_d	d	n/a
742.2155	0.211	1484431	keystroke_e	e	n/a
742.3515	0.104	1484703	keystroke_r	r	n/a
742.5915	0.104	1485183	keystroke_g	g	n/a
742.8465	0.165	1485693	keystroke_r	r	n/a
743.7165	0.104	1487433	keystroke_o	o	n/a
743.9255	0.1215	1487851	keystroke_u	u	n/a
744.227	0.09	1488454	keystroke_n	n	n/a
744.361	0.12	1488722	keystroke_d	d	n/a
744.661	0.12	1489322	keystroke_Key.space	Key.space	n/a
744.842	0.105	1489684	keystroke_i	i	n/a
745.0955	0.075	1490191	keystroke_n	n	n/a
745.3035	0.0905	1490607	keystroke_f	f	n/a
745.499	0.0905	1490998	keystroke_e	e	n/a
745.7545	0.09	1491509	keystroke_c	c	n/a
746.0095	0.15	1492019	keystroke_t	t	n/a
746.2045	0.195	1492409	keystroke_i	i	n/a
746.3545	0.165	1492709	keystroke_o	o	n/a
746.6535	0.121	1493307	keystroke_n	n	n/a
746.9995	0.119	1493999	keystroke_s	s	n/a
747.2095	0.12	1494419	keystroke_Key.space	Key.space	n/a
747.4195	0.119	1494839	keystroke_s	s	n/a
747.6745	0.105	1495349	keystroke_t	t	n/a
747.8545	0.12	1495709	keystroke_i	i	n/a
748.0345	0.15	1496069	keystroke_c	c	n/a
748.9935	0.106	1497987	keystroke_k	k	n/a
749.2795	0.089	1498559	keystroke_Key.enter	Key.enter	n/a
749.375	8.531	1498750	prompt	n/a	deadly exposed loaded suite\n
750.4495	0.119	1500899	keystroke_d	d	n/a
750.6895	0.135	1501379	keystroke_e	e	n/a
750.8545	0.12	1501709	keystroke_a	a	n/a
751.0945	0.105	1502189	keystroke_d	d	n/a
751.2595	0.09	1502519	keystroke_l	l	n/a
751.4695	0.135	1502939	keystroke_y	y	n/a
751.7245	0.105	1503449	keystroke_Key.space	Key.space	n/a
752.0245	0.09	1504049	keystroke_e	e	n/a
752.2945	0.105	1504589	keystroke_x	x	n/a
752.4895	0.135	1504979	keystroke_p	p	n/a
752.6845	0.135	1505369	keystroke_o	o	n/a
752.8345	0.135	1505669	keystroke_s	s	n/a
753.3145	0.12	1506629	keystroke_e	e	n/a
753.6295	0.09	1507259	keystroke_d	d	n/a
754.2885	0.12	1508577	keystroke_Key.space	Key.space	n/a
754.4545	0.105	1508909	keystroke_l	l	n/a
754.6645	0.135	1509329	keystroke_o	o	n/a
754.9945	0.135	1509989	keystroke_a	a	n/a
755.2495	0.075	1510499	keystroke_d	d	n/a
755.4445	0.075	1510889	keystroke_e	e	n/a
755.6545	0.195	1511309	keystroke_d	d	n/a
755.8645	0.15	1511729	keystroke_Key.space	Key.space	n/a
756.0745	0.12	1512149	keystroke_s	s	n/a
756.2695	0.135	1512539	keystroke_u	u	n/a
756.5245	0.15	1513049	keystroke_i	i	n/a
756.7635	0.091	1513527	keystroke_t	t	n/a
757.0045	0.09	1514009	keystroke_e	e	n/a
757.8295	0.075	1515659	keystroke_Key.enter	Key.enter	n/a
757.9105	14.981	1515821	prompt	n/a	instances report kissing acquire\n
758.5195	0.105	1517039	keystroke_i	i	n/a
758.7295	0.135	1517459	keystroke_n	n	n/a
758.8795	0.135	1517759	keystroke_s	s	n/a
759.1195	0.135	1518239	keystroke_t	t	n/a
759.3895	0.135	1518779	keystroke_a	a	n/a
759.5695	0.135	1519139	keystroke_n	n	n/a
759.7345	0.105	1519469	keystroke_c	c	n/a
759.9445	0.12	1519889	keystroke_e	e	n/a
760.1545	0.12	1520309	keystroke_s	s	n/a
760.3345	0.105	1520669	keystroke_Key.space	Key.space	n/a
760.6495	0.12	1521299	keystroke_r	r	n/a
760.7395	0.12	1521479	keystroke_e	e	n/a
760.9345	0.12	1521869	keystroke_p	p	n/a
761.1745	0.12	1522349	keystroke_o	o	n/a
761.3545	0.09	1522709	keystroke_r	r	n/a
761.6095	0.105	1523219	keystroke_t	t	n/a
761.8195	0.12	1523639	keystroke_Key.space	Key.space	n/a
762.0145	0.06	1524029	keystroke_k	k	n/a
762.1795	0.12	1524359	keystroke_i	i	n/a
762.3895	0.09	1524779	keystroke_s	s	n/a
762.5995	0.12	1525199	keystroke_s	s	n/a
762.7495	0.21	1525499	keystroke_i	i	n/a
762.8995	0.135	1525799	keystroke_n	n	n/a
763.1095	0.135	1526219	keystroke_g	g	n/a
763.3945	0.12	1526789	keystroke_Key.space	Key.space	n/a
764.264	0.12	1528528	keystroke_a	a	n/a
765.164	0.105	1530328	keystroke_x	x	n/a
765.435	0.074	1530870	keystroke_x	x	n/a
765.659	0.105	1531318	keystroke_u	u	n/a
766.589	0.105	1533178	keystroke_Key.backspace	Key.backspace	n/a
766.814	0.105	1533628	keystroke_Key.backspace	Key.backspace	n/a
767.069	0.12	1534138	keystroke_Key.backspace	Key.backspace	n/a
767.489	0.105	1534978	keystroke_q	q	n/a
767.714	0.15	1535428	keystroke_q	q	n/a
768.254	0.12	1536508	keystroke_Key.backspace	Key.backspace	n/a
768.644	0.105	1537288	keystroke_c	c	n/a
769.019	0.135	1538038	keystroke_Key.backspace	Key.backspace	n/a
769.3185	0.136	1538637	keystroke_Key.backspace	Key.backspace	n/a
769.9195	0.12	1539839	keystroke_c	c	n/a
770.4745	0.15	1540949	keystroke_q	q	n/a
771.3295	0.135	1542659	keystroke_u	u	n/a
771.5995	0.15	1543199	keystroke_i	i	n/a
771.8245	0.1055	1543649	keystroke_r	r	n/a
772.02	0.105	1544040	keystroke_e	e	n/a
772.7995	0.09	1545599	keystroke_Key.enter	Key.enter	n/a
772.8965	6.7295	1545793	prompt	n/a	likes ruby looks cold\n
773.58	0.089	1547160	keystroke_l	l	n/a
773.7595	0.1055	1547519	keystroke_i	i	n/a
774	0.135	1548000	keystroke_k	k	n/a
774.195	0.12	1548390	keystroke_e	e	n/a
774.42	0.135	1548840	keystroke_s	s	n/a
774.615	0.12	1549230	keystroke_Key.space	Key.space	n/a
774.855	0.105	1549710	keystroke_r	r	n/a
775.02	0.12	1550040	keystroke_u	u	n/a
775.29	0.09	1550580	keystroke_b	b	n/a
775.605	0.135	1551210	keystroke_y	y	n/a
776.13	0.135	1552260	keystroke_Key.space	Key.space	n/a
776.4	0.12	1552800	keystroke_l	l	n/a
776.595	0.105	1553190	keystroke_o	o	n/a
776.79	0.15	1553580	keystroke_o	o	n/a
777.06	0.12	1554120	keystroke_k	k	n/a
777.255	0.15	1554510	keystroke_s	s	n/a
777.48	0.12	1554960	keystroke_Key.space	Key.space	n/a
778.08	0.135	1556160	keystroke_c	c	n/a
778.23	0.12	1556460	keystroke_o	o	n/a
778.47	0.12	1556940	keystroke_l	l	n/a
778.635	0.12	1557270	keystroke_d	d	n/a
779.55	0.075	1559100	keystroke_Key.enter	Key.enter	n/a
779.6315	16.346	1559263	prompt	n/a	concluded entitled kent bouquet\n
780.48	0.09	1560960	keystroke_c	c	n/a
780.615	0.27	1561230	keystroke_o	o	n/a
780.84	0.135	1561680	keystroke_n	n	n/a
781.155	0.12	1562310	keystroke_c	c	n/a
781.32	0.105	1562640	keystroke_l	l	n/a
781.5	0.15	1563000	keystroke_u	u	n/a
781.68	0.09	1563360	keystroke_d	d	n/a
781.905	0.09	1563810	keystroke_e	e	n/a
782.145	0.135	1564290	keystroke_d	d	n/a
782.34	0.12	1564680	keystroke_Key.space	Key.space	n/a
782.76	0.135	1565520	keystroke_e	e	n/a
782.985	0.105	1565970	keystroke_n	n	n/a
783.24	0.12	1566480	keystroke_t	t	n/a
783.54	0.135	1567080	keystroke_i	i	n/a
783.705	0.105	1567410	keystroke_t	t	n/a
783.84	0.18	1567680	keystroke_l	l	n/a
784.035	0.12	1568070	keystroke_e	e	n/a
784.26	0.12	1568520	keystroke_d	d	n/a
784.515	0.15	1569030	keystroke_Key.space	Key.space	n/a
784.71	0.12	1569420	keystroke_k	k	n/a
784.935	0.105	1569870	keystroke_e	e	n/a
785.43	0.12	1570860	keystroke_n	n	n/a
785.595	0.075	1571190	keystroke_t	t	n/a
786.015	0.135	1572030	keystroke_Key.space	Key.space	n/a
786.3	0.135	1572600	keystroke_b	b	n/a
786.555	0.135	1573110	keystroke_o	o	n/a
786.735	0.15	1573470	keystroke_u	u	n/a
787.515	0.1205	1575030	keystroke_q	q	n/a
787.7705	0.12	1575541	keystroke_u	u	n/a
787.9505	0.1195	1575901	keystroke_e	e	n/a
788.145	0.15	1576290	keystroke_n	n	n/a
788.295	0.105	1576590	keystroke_t	t	n/a
793.338	0.027	1586676	keystroke_Key.backspace	Key.backspace	n/a
793.5	0.135	1587000	keystroke_Key.backspace	Key.backspace	n/a
794.835	0.12	1589670	keystroke_t	t	n/a
795.9	0.075	1591800	keystroke_Key.enter	Key.enter	n/a
