onset	duration	sample	value	key	prompt_text
19.6195	0.224	39239	keystroke_s	s	n/a
21.2165	0.101	42433	keystroke_a	a	n/a
21.486	0.102	42972	keystroke_a	a	n/a
21.8465	0.1575	43693	keystroke_j	j	n/a
22.2415	0.1335	44483	keystroke_k	k	n/a
22.6115	0.101	45223	keystroke_j	j	n/a
22.836	0.135	45672	keystroke_k	k	n/a
23.052	0.1	46104	keystroke_j	j	n/a
23.286	0.124	46572	keystroke_k	k	n/a
23.6245	0.1455	47249	keystroke_j	j	n/a
24.648	0.101	49296	keystroke_j	j	n/a
25.1985	0.079	50397	keystroke_j	j	n/a
25.4125	0.101	50825	keystroke_j	j	n/a
25.9185	0.0795	51837	keystroke_j	j	n/a
27.055	0.4165	54110	keystroke_k	k	n/a
28.36	0.2585	56720	keystroke_l	l	n/a
28.7765	0.1795	57553	keystroke_l	l	n/a
29.013	0.1455	58026	keystroke_;	;	n/a
29.3955	0.1905	58791	keystroke_Key.enter	Key.enter	n/a
29.721	0.114	59442	keystroke_Key.enter	Key.enter	n/a
30.194	0.202	60388	keystroke_Key.enter	Key.enter	n/a
30.61	0.181	61220	keystroke_Key.backspace	Key.backspace	n/a
31.1955	0.0785	62391	keystroke_Key.backspace	Key.backspace	n/a
31.364	0.067	62728	keystroke_Key.backspace	Key.backspace	n/a
31.51	0.059	63020	keystroke_Key.backspace	Key.backspace	n/a
31.6355	0.0665	63271	keystroke_Key.backspace	Key.backspace	n/a
31.769	0.067	63538	keystroke_Key.backspace	Key.backspace	n/a
31.9265	0.045	63853	keystroke_Key.backspace	Key.backspace	n/a
32.0835	0.0455	64167	keystroke_Key.backspace	Key.backspace	n/a
32.2185	0.068	64437	keystroke_Key.backspace	Key.backspace	n/a
32.354	0.101	64708	keystroke_Key.backspace	Key.backspace	n/a
35.909	0.2695	71818	keystroke_Key.backspace	Key.backspace	n/a
38.3615	0.0675	76723	keystroke_Key.backspace	Key.backspace	n/a
38.9245	0.1005	77849	keystroke_Key.backspace	Key.backspace	n/a
39.453	0.146	78906	keystroke_Key.backspace	Key.backspace	n/a
39.9365	0.135	79873	keystroke_Key.backspace	Key.backspace	n/a
40.376	0.112	80752	keystroke_Key.enter	Key.enter	n/a
40.7015	0.1355	81403	keystroke_Key.enter	Key.enter	n/a
40.9605	0.0785	81921	keystroke_Key.enter	Key.enter	n/a
41.1415	0.0775	82283	keystroke_Key.enter	Key.enter	n/a
41.309	0.079	82618	keystroke_Key.enter	Key.enter	n/a
41.692	0.056	83384	keystroke_j	j	n/a
41.8715	0.158	83743	keystroke_k	k	n/a
41.9955	0.18	83991	keystroke_l	l	n/a
42.1755	0.135	84351	keystroke_;	;	n/a
42.389	0.169	84778	keystroke_j	j	n/a
42.6705	0.147	85341	keystroke_u	u	n/a
42.7605	0.181	85521	keystroke_i	i	n/a
42.8395	0.169	85679	keystroke_o	o	n/a
42.9185	0.123	85837	keystroke_p	p	n/a
43.413	0.1125	86826	keystroke_m	m	n/a
43.4585	0.112	86917	keystroke_,	,	n/a
43.503	0.1015	87006	keystroke_.	.	n/a
43.548	0.09	87096	keystroke_/	/	n/a
44.718	0.0785	89436	keystroke_Key.tab	Key.tab	n/a
45.0775	0.0805	90155	keystroke_Key.tab	Key.tab	n/a
45.5395	0.102	91079	keystroke_Key.tab	Key.tab	n/a
46.0115	0.101	92023	keystroke_j	j	n/a
46.058	0.1	92116	keystroke_o	o	n/a
46.169	0.101	92338	keystroke_s	s	n/a
46.2025	0.09	92405	keystroke_e	e	n/a
46.2815	0.09	92563	keystroke_p	p	n/a
46.3375	0.09	92675	keystroke_h	h	n/a
46.394	0.09	92788	keystroke_z	z	n/a
46.608	0.0675	93216	keystroke_Key.tab	Key.tab	n/a
47.058	0.056	94116	keystroke_Key.space	Key.space	n/a
47.373	0.0785	94746	keystroke_Key.down	Key.down	n/a
47.519	0.09	95038	keystroke_Key.down	Key.down	n/a
47.7445	0.0555	95489	keystroke_Key.space	Key.space	n/a
47.9255	0.077	95851	keystroke_Key.tab	Key.tab	n/a
48.61	0.1125	97220	keystroke_v	v	n/a
49.0715	0.09	98143	keystroke_a	a	n/a
51.468	0.169	102936	keystroke_Key.ctrl	Key.ctrl	n/a
51.4795	0.2585	102959	keystroke_Key.shift	Key.shift	n/a
51.5585	0.112	103117	keystroke_Key.tab	Key.tab	n/a
54.618	0.2025	109236	keystroke_Key.cmd	Key.cmd	n/a
54.6855	0.101	109371	keystroke_c	c	n/a
54.933	0.191	109866	keystroke_Key.ctrl	Key.ctrl	n/a
55.023	0.135	110046	keystroke_Key.tab	Key.tab	n/a
55.642	0.191	111284	keystroke_Key.cmd	Key.cmd	n/a
55.732	0.0785	111464	keystroke_v	v	n/a
56.384	0.0675	112768	keystroke_Key.tab	Key.tab	n/a
56.8795	0.0895	113759	keystroke_Key.tab	Key.tab	n/a
57.082	0.078	114164	keystroke_Key.space	Key.space	n/a
62.7945	6.923	125589	prompt	n/a	the quick brown fox jumps over a lazy dog\n
64.6195	0.0895	129239	keystroke_t	t	n/a
64.7655	0.0785	129531	keystroke_h	h	n/a
64.8555	0.09	129711	keystroke_e	e	n/a
64.979	0.0905	129958	keystroke_Key.space	Key.space	n/a
65.058	0.09	130116	keystroke_q	q	n/a
65.238	0.1235	130476	keystroke_u	u	n/a
65.328	0.09	130656	keystroke_i	i	n/a
65.429	0.0675	130858	keystroke_c	c	n/a
65.553	0.09	131106	keystroke_k	k	n/a
65.6205	0.1125	131241	keystroke_Key.space	Key.space	n/a
65.744	0.0675	131488	keystroke_b	b	n/a
65.9805	0.011	131961	keystroke_r	r	n/a
66.0365	0.09	132073	keystroke_o	o	n/a
66.183	0.0785	132366	keystroke_w	w	n/a
66.3515	0.079	132703	keystroke_n	n	n/a
66.4415	0.0675	132883	keystroke_Key.space	Key.space	n/a
66.554	0.0675	133108	keystroke_f	f	n/a
66.6775	0.091	133355	keystroke_o	o	n/a
66.7575	0.067	133515	keystroke_x	x	n/a
66.858	0.067	133716	keystroke_Key.space	Key.space	n/a
66.959	0.09	133918	keystroke_j	j	n/a
67.1165	0.079	134233	keystroke_u	u	n/a
67.319	0.1015	134638	keystroke_m	m	n/a
67.375	0.1015	134750	keystroke_p	p	n/a
67.488	0.068	134976	keystroke_s	s	n/a
67.6005	0.091	135201	keystroke_Key.space	Key.space	n/a
67.7245	0.056	135449	keystroke_o	o	n/a
67.7915	0.1015	135583	keystroke_v	v	n/a
67.9505	0.1	135901	keystroke_e	e	n/a
68.0055	0.1125	136011	keystroke_r	r	n/a
68.0955	0.09	136191	keystroke_Key.space	Key.space	n/a
68.1745	0.1125	136349	keystroke_a	a	n/a
68.309	0.0785	136618	keystroke_Key.space	Key.space	n/a
68.5	0.1015	137000	keystroke_l	l	n/a
68.591	0.089	137182	keystroke_a	a	n/a
68.759	0.09	137518	keystroke_z	z	n/a
68.894	0.079	137788	keystroke_y	y	n/a
68.995	0.0675	137990	keystroke_Key.space	Key.space	n/a
69.13	0.079	138260	keystroke_d	d	n/a
69.1975	0.079	138395	keystroke_o	o	n/a
69.333	0.0785	138666	keystroke_g	g	n/a
69.6705	0.045	139341	keystroke_Key.enter	Key.enter	n/a
69.723	7.058	139446	prompt	n/a	subscribers constructed consist vegas\n
70.312	0.067	140624	keystroke_s	s	n/a
70.5035	0.0555	141007	keystroke_u	u	n/a
70.5815	0.0675	141163	keystroke_b	b	n/a
70.739	0.0685	141478	keystroke_s	s	n/a
70.8965	0.0675	141793	keystroke_c	c	n/a
71.054	0.0565	142108	keystroke_r	r	n/a
71.1775	0.0565	142355	keystroke_i	i	n/a
71.245	0.101	142490	keystroke_b	b	n/a
71.425	0.1015	142850	keystroke_e	e	n/a
71.47	0.09	142940	keystroke_r	r	n/a
71.639	0.09	143278	keystroke_s	s	n/a
71.7175	0.079	143435	keystroke_Key.space	Key.space	n/a
71.8415	0.0675	143683	keystroke_s	s	n/a
72.134	0.0675	144268	keystroke_Key.backspace	Key.backspace	n/a
72.269	0.079	144538	keystroke_c	c	n/a
72.3815	0.1235	144763	keystroke_o	o	n/a
72.4825	0.125	144965	keystroke_n	n	n/a
72.5505	0.1345	145101	keystroke_s	s	n/a
72.6745	0.0785	145349	keystroke_t	t	n/a
72.8205	0.09	145641	keystroke_r	r	n/a
72.9555	0.078	145911	keystroke_u	u	n/a
73.0575	0.0665	146115	keystroke_c	c	n/a
73.225	0.1015	146450	keystroke_t	t	n/a
73.338	0.056	146676	keystroke_e	e	n/a
73.474	0.089	146948	keystroke_d	d	n/a
73.653	0.101	147306	keystroke_Key.space	Key.space	n/a
73.9225	0.0115	147845	keystroke_c	c	n/a
73.945	0.08	147890	keystroke_o	o	n/a
74.002	0.101	148004	keystroke_n	n	n/a
74.1145	0.067	148229	keystroke_s	s	n/a
74.215	0.0675	148430	keystroke_i	i	n/a
74.3055	0.1235	148611	keystroke_s	s	n/a
74.395	0.135	148790	keystroke_t	t	n/a
74.508	0.0905	149016	keystroke_e	e	n/a
75.003	0.056	150006	keystroke_Key.backspace	Key.backspace	n/a
75.464	0.09	150928	keystroke_Key.space	Key.space	n/a
75.925	0.0785	151850	keystroke_v	v	n/a
76.0715	0.0675	152143	keystroke_e	e	n/a
76.195	0.079	152390	keystroke_g	g	n/a
76.2965	0.1015	152593	keystroke_a	a	n/a
76.443	0.09	152886	keystroke_s	s	n/a
76.7015	0.0785	153403	keystroke_Key.enter	Key.enter	n/a
76.7865	4.512	153573	prompt	n/a	organizer theft mongolia north\n
77.489	0.0115	154978	keystroke_o	o	n/a
77.5115	0.0455	155023	keystroke_r	r	n/a
77.669	0.0785	155338	keystroke_g	g	n/a
77.7365	0.09	155473	keystroke_a	a	n/a
77.849	0.112	155698	keystroke_n	n	n/a
77.9165	0.0905	155833	keystroke_i	i	n/a
78.007	0.078	156014	keystroke_z	z	n/a
78.209	0.1125	156418	keystroke_e	e	n/a
78.2765	0.0905	156553	keystroke_r	r	n/a
78.3775	0.1015	156755	keystroke_Key.space	Key.space	n/a
78.4905	0.0785	156981	keystroke_t	t	n/a
78.6255	0.1005	157251	keystroke_h	h	n/a
78.749	0.135	157498	keystroke_e	e	n/a
78.895	0.09	157790	keystroke_f	f	n/a
79.064	0.08	158128	keystroke_t	t	n/a
79.176	0.068	158352	keystroke_Key.space	Key.space	n/a
79.3245	0.15	158649	keystroke_m	m	n/a
79.4245	0.1165	158849	keystroke_o	o	n/a
79.618	0.1095	159236	keystroke_n	n	n/a
79.764	0.0775	159528	keystroke_g	g	n/a
79.888	0.078	159776	keystroke_o	o	n/a
80.0655	0.1235	160131	keystroke_l	l	n/a
80.158	0.077	160316	keystroke_i	i	n/a
80.2815	0.0775	160563	keystroke_a	a	n/a
80.4425	0.072	160885	keystroke_Key.space	Key.space	n/a
80.5855	0.1195	161171	keystroke_n	n	n/a
80.6625	0.08	161325	keystroke_o	o	n/a
80.7515	0.089	161503	keystroke_r	r	n/a
80.91	0.066	161820	keystroke_t	t	n/a
81.0675	0.1125	162135	keystroke_h	h	n/a
81.2125	0.085	162425	keystroke_Key.enter	Key.enter	n/a
81.3055	6.0665	162611	prompt	n/a	tribute developing biology karaoke\n
81.9715	0.0785	163943	keystroke_t	t	n/a
82.117	0.079	164234	keystroke_r	r	n/a
82.2185	0.079	164437	keystroke_i	i	n/a
82.3205	0.0895	164641	keystroke_b	b	n/a
82.725	0.0905	165450	keystroke_u	u	n/a
82.8825	0.09	165765	keystroke_t	t	n/a
83.074	0.1235	166148	keystroke_e	e	n/a
83.1645	0.078	166329	keystroke_Key.space	Key.space	n/a
83.3555	0.0555	166711	keystroke_d	d	n/a
83.5125	0.0785	167025	keystroke_e	e	n/a
83.625	0.124	167250	keystroke_v	v	n/a
83.7375	0.1015	167475	keystroke_e	e	n/a
83.839	0.067	167678	keystroke_l	l	n/a
84.0185	0.1235	168037	keystroke_o	o	n/a
84.097	0.135	168194	keystroke_p	p	n/a
84.2885	0.1355	168577	keystroke_i	i	n/a
84.367	0.1245	168734	keystroke_n	n	n/a
84.4355	0.0895	168871	keystroke_g	g	n/a
84.502	0.09	169004	keystroke_Key.space	Key.space	n/a
84.6485	0.102	169297	keystroke_b	b	n/a
84.761	0.124	169522	keystroke_i	i	n/a
84.817	0.0905	169634	keystroke_o	o	n/a
85.009	0.0565	170018	keystroke_l	l	n/a
85.1435	0.0565	170287	keystroke_o	o	n/a
85.245	0.079	170490	keystroke_g	g	n/a
85.346	0.1015	170692	keystroke_y	y	n/a
85.4585	0.068	170917	keystroke_Key.space	Key.space	n/a
85.5825	0.0895	171165	keystroke_k	k	n/a
85.661	0.1235	171322	keystroke_a	a	n/a
85.7735	0.101	171547	keystroke_r	r	n/a
86.167	0.079	172334	keystroke_a	a	n/a
86.5385	0.146	173077	keystroke_o	o	n/a
86.674	0.1345	173348	keystroke_k	k	n/a
86.932	0.0675	173864	keystroke_e	e	n/a
87.3035	0.0675	174607	keystroke_Key.enter	Key.enter	n/a
87.3775	7.5095	174755	prompt	n/a	epinions highlights title corrections\n
87.9335	0.068	175867	keystroke_e	e	n/a
88.114	0.112	176228	keystroke_p	p	n/a
88.4845	0.09	176969	keystroke_i	i	n/a
88.766	0.1355	177532	keystroke_o	o	n/a
89.6885	0.0785	179377	keystroke_Key.backspace	Key.backspace	n/a
89.9025	0.09	179805	keystroke_n	n	n/a
90.1275	0.1345	180255	keystroke_i	i	n/a
90.2075	0.167	180415	keystroke_o	o	n/a
90.352	0.124	180704	keystroke_n	n	n/a
90.4985	0.0675	180997	keystroke_s	s	n/a
90.6	0.079	181200	keystroke_Key.space	Key.space	n/a
90.814	0.1235	181628	keystroke_h	h	n/a
90.892	0.1015	181784	keystroke_i	i	n/a
91.0045	0.0795	182009	keystroke_g	g	n/a
91.1075	0.089	182215	keystroke_h	h	n/a
91.2865	0.09	182573	keystroke_l	l	n/a
91.3425	0.101	182685	keystroke_i	i	n/a
91.4545	0.0905	182909	keystroke_g	g	n/a
91.5675	0.0785	183135	keystroke_h	h	n/a
91.6685	0.0785	183337	keystroke_t	t	n/a
91.8035	0.113	183607	keystroke_s	s	n/a
91.9055	0.056	183811	keystroke_Key.space	Key.space	n/a
91.995	0.079	183990	keystroke_t	t	n/a
92.1075	0.079	184215	keystroke_i	i	n/a
92.209	0.067	184418	keystroke_t	t	n/a
92.332	0.0905	184664	keystroke_l	l	n/a
92.4335	0.0785	184867	keystroke_e	e	n/a
92.591	0.09	185182	keystroke_Key.space	Key.space	n/a
92.7375	0.079	185475	keystroke_e	e	n/a
93.052	0.057	186104	keystroke_Key.backspace	Key.backspace	n/a
93.176	0.09	186352	keystroke_c	c	n/a
93.2885	0.0685	186577	keystroke_o	o	n/a
93.4235	0.0675	186847	keystroke_r	r	n/a
93.603	0.1465	187206	keystroke_r	r	n/a
93.6935	0.114	187387	keystroke_e	e	n/a
93.919	0.0785	187838	keystroke_c	c	n/a
94.11	0.056	188220	keystroke_t	t	n/a
94.211	0.1805	188422	keystroke_i	i	n/a
94.2905	0.1455	188581	keystroke_o	o	n/a
94.4025	0.112	188805	keystroke_n	n	n/a
94.5035	0.079	189007	keystroke_s	s	n/a
94.807	0.079	189614	keystroke_Key.enter	Key.enter	n/a
94.8925	5.9685	189785	prompt	n/a	gale kissing tissue pediatric\n
95.6285	0.079	191257	keystroke_g	g	n/a
95.719	0.101	191438	keystroke_a	a	n/a
95.8425	0.0785	191685	keystroke_l	l	n/a
95.9435	0.102	191887	keystroke_e	e	n/a
96.0455	0.089	192091	keystroke_Key.space	Key.space	n/a
96.2025	0.079	192405	keystroke_k	k	n/a
96.36	0.0785	192720	keystroke_i	i	n/a
96.495	0.056	192990	keystroke_s	s	n/a
96.619	0.0895	193238	keystroke_s	s	n/a
96.7195	0.1015	193439	keystroke_i	i	n/a
96.8095	0.1125	193619	keystroke_n	n	n/a
96.866	0.1015	193732	keystroke_g	g	n/a
96.9445	0.113	193889	keystroke_Key.space	Key.space	n/a
97.0685	0.09	194137	keystroke_t	t	n/a
97.2035	0.079	194407	keystroke_i	i	n/a
97.316	0.045	194632	keystroke_s	s	n/a
97.462	0.09	194924	keystroke_s	s	n/a
97.586	0.079	195172	keystroke_u	u	n/a
97.687	0.1015	195374	keystroke_e	e	n/a
97.777	0.068	195554	keystroke_Key.space	Key.space	n/a
97.9795	0.1015	195959	keystroke_p	p	n/a
98.0695	0.079	196139	keystroke_e	e	n/a
98.2835	0.0785	196567	keystroke_d	d	n/a
98.666	0.0675	197332	keystroke_i	i	n/a
98.7675	0.1125	197535	keystroke_a	a	n/a
99.071	0.0565	198142	keystroke_t	t	n/a
99.207	0.0775	198414	keystroke_r	r	n/a
99.4765	0.1005	198953	keystroke_i	i	n/a
99.6335	0.0675	199267	keystroke_c	c	n/a
100.792	0.0685	201584	keystroke_Key.enter	Key.enter	n/a
100.8685	6.236	201737	prompt	n/a	choosing mixed justin aquatic\n
101.7265	0.079	203453	keystroke_c	c	n/a
101.8165	0.112	203633	keystroke_h	h	n/a
101.895	0.0675	203790	keystroke_o	o	n/a
102.03	0.034	204060	keystroke_s	s	n/a
102.0975	0.09	204195	keystroke_o	o	n/a
102.4245	0.055	204849	keystroke_Key.backspace	Key.backspace	n/a
102.6715	0.0675	205343	keystroke_Key.backspace	Key.backspace	n/a
102.8855	0.067	205771	keystroke_o	o	n/a
103.009	0.0785	206018	keystroke_s	s	n/a
103.121	0.136	206242	keystroke_i	i	n/a
103.211	0.09	206422	keystroke_n	n	n/a
103.2675	0.09	206535	keystroke_g	g	n/a
103.3465	0.0785	206693	keystroke_Key.space	Key.space	n/a
103.5375	0.124	207075	keystroke_m	m	n/a
103.6275	0.09	207255	keystroke_i	i	n/a
103.7625	0.0785	207525	keystroke_x	x	n/a
103.9535	0.056	207907	keystroke_e	e	n/a
104.0995	0.102	208199	keystroke_d	d	n/a
104.179	0.0785	208358	keystroke_Key.space	Key.space	n/a
104.325	0.0785	208650	keystroke_j	j	n/a
104.482	0.0905	208964	keystroke_u	u	n/a
104.607	0.0895	209214	keystroke_s	s	n/a
104.651	0.101	209302	keystroke_t	t	n/a
104.7975	0.1345	209595	keystroke_i	i	n/a
104.876	0.146	209752	keystroke_n	n	n/a
105.011	0.09	210022	keystroke_Key.space	Key.space	n/a
105.1575	0.0895	210315	keystroke_a	a	n/a
105.3605	0.0785	210721	keystroke_c	c	n/a
105.608	0.078	211216	keystroke_Key.backspace	Key.backspace	n/a
105.821	0.0905	211642	keystroke_q	q	n/a
106.08	0.09	212160	keystroke_u	u	n/a
106.2155	0.089	212431	keystroke_a	a	n/a
106.451	0.068	212902	keystroke_t	t	n/a
106.564	0.0785	213128	keystroke_i	i	n/a
106.688	0.079	213376	keystroke_c	c	n/a
107.036	0.0675	214072	keystroke_Key.enter	Key.enter	n/a
107.1105	4.9565	214221	prompt	n/a	concerning accounting quick clocks\n
107.5765	0.101	215153	keystroke_c	c	n/a
107.8465	0.1235	215693	keystroke_o	o	n/a
107.981	0.113	215962	keystroke_n	n	n/a
108.1055	0.0685	216211	keystroke_c	c	n/a
108.251	0.135	216502	keystroke_e	e	n/a
108.33	0.1125	216660	keystroke_r	r	n/a
108.5885	0.1355	217177	keystroke_n	n	n/a
108.7355	0.1345	217471	keystroke_i	i	n/a
108.8475	0.1235	217695	keystroke_n	n	n/a
108.96	0.09	217920	keystroke_g	g	n/a
109.039	0.079	218078	keystroke_Key.space	Key.space	n/a
109.1285	0.0795	218257	keystroke_a	a	n/a
109.298	0.045	218596	keystroke_c	c	n/a
109.444	0.047	218888	keystroke_c	c	n/a
109.5335	0.113	219067	keystroke_o	o	n/a
109.613	0.09	219226	keystroke_u	u	n/a
109.827	0.101	219654	keystroke_n	n	n/a
109.9615	0.0675	219923	keystroke_t	t	n/a
110.085	0.1015	220170	keystroke_i	i	n/a
110.1415	0.112	220283	keystroke_n	n	n/a
110.22	0.1125	220440	keystroke_g	g	n/a
110.2995	0.078	220599	keystroke_Key.space	Key.space	n/a
110.491	0.078	220982	keystroke_q	q	n/a
110.6475	0.124	221295	keystroke_u	u	n/a
110.738	0.0785	221476	keystroke_i	i	n/a
110.805	0.09	221610	keystroke_c	c	n/a
110.941	0.0895	221882	keystroke_k	k	n/a
111.019	0.0675	222038	keystroke_Key.space	Key.space	n/a
111.132	0.0895	222264	keystroke_c	c	n/a
111.2445	0.067	222489	keystroke_l	l	n/a
111.402	0.078	222804	keystroke_o	o	n/a
111.525	0.091	223050	keystroke_c	c	n/a
111.604	0.0905	223208	keystroke_k	k	n/a
111.784	0.045	223568	keystroke_s	s	n/a
112.0085	0.0575	224017	keystroke_Key.enter	Key.enter	n/a
112.072	4.854	224144	prompt	n/a	serial noon recording reynolds\n
112.684	0.067	225368	keystroke_s	s	n/a
112.8635	0.1125	225727	keystroke_e	e	n/a
112.988	0.078	225976	keystroke_r	r	n/a
113.124	0.089	226248	keystroke_i	i	n/a
113.2355	0.0785	226471	keystroke_a	a	n/a
113.3585	0.079	226717	keystroke_l	l	n/a
113.483	0.0785	226966	keystroke_Key.space	Key.space	n/a
113.629	0.124	227258	keystroke_n	n	n/a
113.73	0.068	227460	keystroke_o	o	n/a
113.8875	0.1125	227775	keystroke_o	o	n/a
113.989	0.112	227978	keystroke_n	n	n/a
114.0785	0.113	228157	keystroke_Key.space	Key.space	n/a
114.2255	0.135	228451	keystroke_r	r	n/a
114.3155	0.09	228631	keystroke_e	e	n/a
114.507	0.078	229014	keystroke_c	c	n/a
114.608	0.067	229216	keystroke_o	o	n/a
114.7085	0.0675	229417	keystroke_r	r	n/a
114.8325	0.079	229665	keystroke_d	d	n/a
114.968	0.113	229936	keystroke_i	i	n/a
115.0465	0.101	230093	keystroke_n	n	n/a
115.103	0.0895	230206	keystroke_g	g	n/a
115.1585	0.0905	230317	keystroke_Key.space	Key.space	n/a
115.3385	0.124	230677	keystroke_r	r	n/a
115.4285	0.102	230857	keystroke_e	e	n/a
115.5985	0.101	231197	keystroke_y	y	n/a
116.0815	0.09	232163	keystroke_n	n	n/a
116.228	0.0795	232456	keystroke_o	o	n/a
116.408	0.0675	232816	keystroke_l	l	n/a
116.5095	0.123	233019	keystroke_d	d	n/a
116.5875	0.1015	233175	keystroke_s	s	n/a
116.869	0.056	233738	keystroke_Key.enter	Key.enter	n/a
116.931	5.0805	233862	prompt	n/a	switches albert wagon vids\n
117.3975	0.056	234795	keystroke_s	s	n/a
117.5775	0.068	235155	keystroke_w	w	n/a
117.7465	0.0675	235493	keystroke_i	i	n/a
117.825	0.079	235650	keystroke_t	t	n/a
118.005	0.1025	236010	keystroke_c	c	n/a
118.0955	0.0895	236191	keystroke_h	h	n/a
118.219	0.135	236438	keystroke_e	e	n/a
118.298	0.1125	236596	keystroke_s	s	n/a
118.4105	0.0785	236821	keystroke_Key.space	Key.space	n/a
118.5115	0.1125	237023	keystroke_a	a	n/a
118.635	0.135	237270	keystroke_b	b	n/a
118.815	0.0785	237630	keystroke_l	l	n/a
119.1525	0.0225	238305	keystroke_Key.backspace	Key.backspace	n/a
119.2655	0.067	238531	keystroke_Key.backspace	Key.backspace	n/a
119.479	0.0565	238958	keystroke_l	l	n/a
119.569	0.09	239138	keystroke_b	b	n/a
119.7715	0.136	239543	keystroke_e	e	n/a
119.85	0.091	239700	keystroke_r	r	n/a
120.019	0.101	240038	keystroke_t	t	n/a
120.1655	0.0895	240331	keystroke_Key.space	Key.space	n/a
120.469	0.0785	240938	keystroke_w	w	n/a
120.559	0.09	241118	keystroke_a	a	n/a
120.717	0.0905	241434	keystroke_g	g	n/a
120.8405	0.1015	241681	keystroke_o	o	n/a
120.9305	0.1235	241861	keystroke_n	n	n/a
121.099	0.0675	242198	keystroke_Key.space	Key.space	n/a
121.2905	0.0785	242581	keystroke_v	v	n/a
121.4025	0.0675	242805	keystroke_i	i	n/a
121.5155	0.056	243031	keystroke_d	d	n/a
121.674	0.0775	243348	keystroke_s	s	n/a
121.943	0.0675	243886	keystroke_Key.enter	Key.enter	n/a
122.0175	5.045	244035	prompt	n/a	maui selection delta charms\n
122.641	0.078	245282	keystroke_m	m	n/a
122.73	0.079	245460	keystroke_a	a	n/a
122.8545	0.0895	245709	keystroke_u	u	n/a
123.0235	0.0895	246047	keystroke_i	i	n/a
123.1815	0.0775	246363	keystroke_Key.space	Key.space	n/a
123.3265	0.101	246653	keystroke_s	s	n/a
123.518	0.0785	247036	keystroke_e	e	n/a
123.619	0.079	247238	keystroke_l	l	n/a
123.7205	0.056	247441	keystroke_e	e	n/a
123.9005	0.0905	247801	keystroke_c	c	n/a
124.0915	0.056	248183	keystroke_t	t	n/a
124.159	0.1575	248318	keystroke_i	i	n/a
124.2265	0.124	248453	keystroke_o	o	n/a
124.305	0.102	248610	keystroke_n	n	n/a
124.351	0.0895	248702	keystroke_Key.space	Key.space	n/a
124.5415	0.0455	249083	keystroke_d	d	n/a
124.6655	0.0895	249331	keystroke_e	e	n/a
125.0365	0.0785	250073	keystroke_l	l	n/a
125.172	0.0785	250344	keystroke_t	t	n/a
125.3405	0.079	250681	keystroke_a	a	n/a
125.565	0.0675	251130	keystroke_Key.space	Key.space	n/a
126.1615	0.0805	252323	keystroke_c	c	n/a
126.285	0.0905	252570	keystroke_h	h	n/a
126.387	0.101	252774	keystroke_a	a	n/a
126.4545	0.0785	252909	keystroke_r	r	n/a
126.612	0.09	253224	keystroke_m	m	n/a
126.724	0.0675	253448	keystroke_s	s	n/a
126.994	0.0675	253988	keystroke_Key.enter	Key.enter	n/a
127.068	6.9935	254136	prompt	n/a	issued manufacturing students crest\n
127.613	0.0565	255226	keystroke_i	i	n/a
127.7035	0.0665	255407	keystroke_s	s	n/a
127.838	0.09	255676	keystroke_s	s	n/a
127.974	0.0885	255948	keystroke_u	u	n/a
128.074	0.0785	256148	keystroke_e	e	n/a
128.2765	0.09	256553	keystroke_d	d	n/a
128.3775	0.08	256755	keystroke_Key.space	Key.space	n/a
128.513	0.079	257026	keystroke_m	m	n/a
128.5805	0.0785	257161	keystroke_a	a	n/a
128.7155	0.0785	257431	keystroke_n	n	n/a
128.9085	0.054	257817	keystroke_u	u	n/a
129.0305	0.1015	258061	keystroke_f	f	n/a
129.1545	0.067	258309	keystroke_a	a	n/a
129.301	0.0665	258602	keystroke_c	c	n/a
129.48	0.068	258960	keystroke_t	t	n/a
129.5705	0.079	259141	keystroke_u	u	n/a
129.66	0.0805	259320	keystroke_r	r	n/a
129.8075	0.1345	259615	keystroke_i	i	n/a
129.8965	0.1685	259793	keystroke_n	n	n/a
130.009	0.1015	260018	keystroke_g	g	n/a
130.0765	0.09	260153	keystroke_Key.space	Key.space	n/a
130.347	0.067	260694	keystroke_s	s	n/a
130.617	0.022	261234	keystroke_t	t	n/a
130.6615	0.09	261323	keystroke_t	t	n/a
130.853	0.09	261706	keystroke_u	u	n/a
131.022	0.0695	262044	keystroke_d	d	n/a
131.214	0.023	262428	keystroke_e	e	n/a
131.4045	0.0565	262809	keystroke_Key.backspace	Key.backspace	n/a
131.5515	0.046	263103	keystroke_Key.backspace	Key.backspace	n/a
131.675	0.0675	263350	keystroke_Key.backspace	Key.backspace	n/a
131.832	0.079	263664	keystroke_Key.backspace	Key.backspace	n/a
132.0805	0.079	264161	keystroke_u	u	n/a
132.2035	0.079	264407	keystroke_d	d	n/a
132.385	0.066	264770	keystroke_e	e	n/a
132.486	0.0905	264972	keystroke_n	n	n/a
132.586	0.0565	265172	keystroke_t	t	n/a
132.7435	0.0945	265487	keystroke_s	s	n/a
132.8	0.093	265600	keystroke_Key.space	Key.space	n/a
133.0025	0.068	266005	keystroke_c	c	n/a
133.184	0.125	266368	keystroke_r	r	n/a
133.2615	0.0805	266523	keystroke_e	e	n/a
133.429	0.14	266858	keystroke_s	s	n/a
133.5435	0.093	267087	keystroke_t	t	n/a
133.9925	0.067	267985	keystroke_Key.enter	Key.enter	n/a
134.0735	9.313	268147	prompt	n/a	evaluation latest shakespeare entered\n
134.622	0.079	269244	keystroke_i	i	n/a
134.9145	0.056	269829	keystroke_Key.backspace	Key.backspace	n/a
135.0915	0.059	270183	keystroke_e	e	n/a
135.2515	0.079	270503	keystroke_v	v	n/a
135.3415	0.102	270683	keystroke_a	a	n/a
135.4545	0.0785	270909	keystroke_l	l	n/a
135.893	0.045	271786	keystroke_Key.backspace	Key.backspace	n/a
137.029	0.045	274058	keystroke_Key.backspace	Key.backspace	n/a
137.221	0.011	274442	keystroke_Key.backspace	Key.backspace	n/a
137.277	0.056	274554	keystroke_Key.backspace	Key.backspace	n/a
137.4005	0.057	274801	keystroke_Key.backspace	Key.backspace	n/a
137.513	0.0905	275026	keystroke_e	e	n/a
137.682	0.101	275364	keystroke_v	v	n/a
137.929	0.0675	275858	keystroke_a	a	n/a
138.0415	0.1125	276083	keystroke_l	l	n/a
138.2105	0.09	276421	keystroke_u	u	n/a
138.324	0.1115	276648	keystroke_a	a	n/a
138.4015	0.068	276803	keystroke_t	t	n/a
138.5035	0.157	277007	keystroke_i	i	n/a
138.559	0.1355	277118	keystroke_o	o	n/a
138.672	0.102	277344	keystroke_n	n	n/a
138.762	0.0895	277524	keystroke_Key.space	Key.space	n/a
139.0205	0.101	278041	keystroke_l	l	n/a
139.291	0.1125	278582	keystroke_a	a	n/a
139.527	0.101	279054	keystroke_t	t	n/a
139.6745	0.134	279349	keystroke_e	e	n/a
139.741	0.1465	279482	keystroke_s	s	n/a
139.8645	0.135	279729	keystroke_t	t	n/a
139.9545	0.0895	279909	keystroke_Key.space	Key.space	n/a
140.0905	0.0895	280181	keystroke_s	s	n/a
140.2025	0.1005	280405	keystroke_h	h	n/a
140.3145	0.0895	280629	keystroke_a	a	n/a
140.438	0.0905	280876	keystroke_k	k	n/a
140.562	0.113	281124	keystroke_e	e	n/a
140.663	0.136	281326	keystroke_s	s	n/a
140.8995	0.112	281799	keystroke_p	p	n/a
141.068	0.1145	282136	keystroke_e	e	n/a
141.1805	0.1355	282361	keystroke_a	a	n/a
141.5745	0.09	283149	keystroke_r	r	n/a
141.7655	0.079	283531	keystroke_e	e	n/a
142.0135	0.0675	284027	keystroke_Key.space	Key.space	n/a
142.1705	0.0785	284341	keystroke_e	e	n/a
142.2605	0.1015	284521	keystroke_n	n	n/a
142.396	0.078	284792	keystroke_t	t	n/a
142.5305	0.1015	285061	keystroke_e	e	n/a
142.6095	0.146	285219	keystroke_r	r	n/a
142.7105	0.09	285421	keystroke_e	e	n/a
142.9015	0.068	285803	keystroke_d	d	n/a
143.3185	0.067	286637	keystroke_Key.enter	Key.enter	n/a
143.392	5.8785	286784	prompt	n/a	caribbean watt determining acquired\n
143.9935	0.056	287987	keystroke_c	c	n/a
144.1615	0.079	288323	keystroke_a	a	n/a
144.331	0.0785	288662	keystroke_r	r	n/a
144.477	0.0785	288954	keystroke_i	i	n/a
144.6575	0.056	289315	keystroke_b	b	n/a
144.803	0.0785	289606	keystroke_b	b	n/a
145.0075	0.088	290015	keystroke_e	e	n/a
145.0845	0.101	290169	keystroke_a	a	n/a
145.231	0.101	290462	keystroke_n	n	n/a
145.3325	0.078	290665	keystroke_Key.space	Key.space	n/a
145.478	0.09	290956	keystroke_w	w	n/a
145.6015	0.0795	291203	keystroke_a	a	n/a
145.7705	0.068	291541	keystroke_t	t	n/a
145.9055	0.0785	291811	keystroke_t	t	n/a
146.018	0.056	292036	keystroke_Key.space	Key.space	n/a
146.1645	0.079	292329	keystroke_d	d	n/a
146.3555	0.124	292711	keystroke_e	e	n/a
146.457	0.101	292914	keystroke_t	t	n/a
146.6365	0.1125	293273	keystroke_e	e	n/a
146.716	0.078	293432	keystroke_r	r	n/a
146.874	0.1115	293748	keystroke_m	m	n/a
147.031	0.1235	294062	keystroke_i	i	n/a
147.1435	0.147	294287	keystroke_n	n	n/a
147.3005	0.1235	294601	keystroke_i	i	n/a
147.3795	0.1345	294759	keystroke_n	n	n/a
147.5035	0.1125	295007	keystroke_g	g	n/a
147.604	0.0795	295208	keystroke_Key.space	Key.space	n/a
147.762	0.101	295524	keystroke_a	a	n/a
147.965	0.0785	295930	keystroke_c	c	n/a
148.1555	0.069	296311	keystroke_q	q	n/a
148.415	0.033	296830	keystroke_u	u	n/a
148.4255	0.09	296851	keystroke_i	i	n/a
148.5945	0.1575	297189	keystroke_r	r	n/a
148.7075	0.101	297415	keystroke_e	e	n/a
148.8755	0.1015	297751	keystroke_d	d	n/a
149.213	0.0565	298426	keystroke_Key.enter	Key.enter	n/a
149.277	4.437	298554	prompt	n/a	funny customs athletics older\n
149.843	0.0785	299686	keystroke_f	f	n/a
149.978	0.0565	299956	keystroke_u	u	n/a
150.1695	0.056	300339	keystroke_n	n	n/a
150.3045	0.079	300609	keystroke_n	n	n/a
150.4955	0.056	300991	keystroke_y	y	n/a
150.597	0.0675	301194	keystroke_Key.space	Key.space	n/a
150.732	0.079	301464	keystroke_c	c	n/a
150.8215	0.0905	301643	keystroke_u	u	n/a
150.946	0.0785	301892	keystroke_s	s	n/a
150.991	0.0785	301982	keystroke_t	t	n/a
151.1255	0.1015	302251	keystroke_o	o	n/a
151.193	0.1125	302386	keystroke_m	m	n/a
151.3165	0.102	302633	keystroke_s	s	n/a
151.3845	0.101	302769	keystroke_Key.space	Key.space	n/a
151.5535	0.09	303107	keystroke_a	a	n/a
151.711	0.0795	303422	keystroke_t	t	n/a
151.834	0.0675	303668	keystroke_h	h	n/a
152.0145	0.067	304029	keystroke_l	l	n/a
152.116	0.1125	304232	keystroke_e	e	n/a
152.1835	0.0905	304367	keystroke_t	t	n/a
152.363	0.0675	304726	keystroke_i	i	n/a
152.4415	0.113	304883	keystroke_c	c	n/a
152.5315	0.113	305063	keystroke_s	s	n/a
152.6665	0.0905	305333	keystroke_Key.space	Key.space	n/a
152.8015	0.0795	305603	keystroke_o	o	n/a
152.9705	0.0675	305941	keystroke_l	l	n/a
153.094	0.0795	306188	keystroke_d	d	n/a
153.274	0.1355	306548	keystroke_e	e	n/a
153.342	0.09	306684	keystroke_r	r	n/a
153.646	0.067	307292	keystroke_Key.enter	Key.enter	n/a
153.719	4.1915	307438	prompt	n/a	babe pencil vegas poor\n
154.343	0.09	308686	keystroke_b	b	n/a
154.4215	0.124	308843	keystroke_a	a	n/a
154.5345	0.1015	309069	keystroke_b	b	n/a
154.703	0.1125	309406	keystroke_e	e	n/a
154.793	0.079	309586	keystroke_Key.space	Key.space	n/a
154.9405	0.1225	309881	keystroke_p	p	n/a
155.097	0.0785	310194	keystroke_e	e	n/a
155.165	0.101	310330	keystroke_n	n	n/a
155.2995	0.0905	310599	keystroke_c	c	n/a
155.4235	0.135	310847	keystroke_i	i	n/a
155.525	0.123	311050	keystroke_l	l	n/a
155.659	0.068	311318	keystroke_Key.space	Key.space	n/a
155.8165	0.135	311633	keystroke_v	v	n/a
155.963	0.0115	311926	keystroke_a	a	n/a
156.0415	0.1125	312083	keystroke_e	e	n/a
156.3005	0.045	312601	keystroke_Key.backspace	Key.backspace	n/a
156.424	0.057	312848	keystroke_Key.backspace	Key.backspace	n/a
156.537	0.09	313074	keystroke_e	e	n/a
156.6385	0.102	313277	keystroke_g	g	n/a
156.7615	0.1015	313523	keystroke_a	a	n/a
156.9415	0.09	313883	keystroke_s	s	n/a
157.066	0.0895	314132	keystroke_Key.space	Key.space	n/a
157.268	0.101	314536	keystroke_p	p	n/a
157.3245	0.079	314649	keystroke_o	o	n/a
157.493	0.0675	314986	keystroke_o	o	n/a
157.6285	0.0785	315257	keystroke_r	r	n/a
157.8535	0.056	315707	keystroke_Key.enter	Key.enter	n/a
157.916	5.9345	315832	prompt	n/a	specifies concern minneapolis chief\n
158.5285	0.0675	317057	keystroke_s	s	n/a
158.663	0.0905	317326	keystroke_p	p	n/a
158.7425	0.056	317485	keystroke_e	e	n/a
158.9105	0.08	317821	keystroke_c	c	n/a
158.978	0.068	317956	keystroke_i	i	n/a
159.102	0.0675	318204	keystroke_f	f	n/a
159.215	0.0785	318430	keystroke_i	i	n/a
159.316	0.0675	318632	keystroke_e	e	n/a
159.5515	0.0115	319103	keystroke_s	s	n/a
159.6985	0.09	319397	keystroke_Key.space	Key.space	n/a
160.2835	0.078	320567	keystroke_c	c	n/a
160.3845	0.169	320769	keystroke_o	o	n/a
160.52	0.101	321040	keystroke_n	n	n/a
160.5985	0.0785	321197	keystroke_c	c	n/a
160.778	0.09	321556	keystroke_e	e	n/a
160.8345	0.0785	321669	keystroke_r	r	n/a
160.981	0.112	321962	keystroke_n	n	n/a
161.0705	0.0795	322141	keystroke_Key.space	Key.space	n/a
161.251	0.112	322502	keystroke_m	m	n/a
161.3855	0.1125	322771	keystroke_i	i	n/a
161.521	0.079	323042	keystroke_n	n	n/a
161.691	0.077	323382	keystroke_n	n	n/a
161.791	0.079	323582	keystroke_e	e	n/a
161.881	0.112	323762	keystroke_a	a	n/a
162.027	0.1475	324054	keystroke_p	p	n/a
162.1075	0.111	324215	keystroke_o	o	n/a
162.331	0.135	324662	keystroke_l	l	n/a
162.4325	0.067	324865	keystroke_i	i	n/a
162.567	0.101	325134	keystroke_s	s	n/a
162.6575	0.0675	325315	keystroke_Key.space	Key.space	n/a
162.803	0.079	325606	keystroke_c	c	n/a
162.9385	0.124	325877	keystroke_h	h	n/a
163.0285	0.101	326057	keystroke_i	i	n/a
163.141	0.0905	326282	keystroke_e	e	n/a
163.3325	0.0895	326665	keystroke_f	f	n/a
163.7595	0.09	327519	keystroke_Key.enter	Key.enter	n/a
163.8595	4.513	327719	prompt	n/a	mobiles strips priced durable\n
164.5695	0.1465	329139	keystroke_m	m	n/a
164.705	0.0785	329410	keystroke_o	o	n/a
164.841	0.0885	329682	keystroke_b	b	n/a
164.9415	0.124	329883	keystroke_i	i	n/a
165.02	0.09	330040	keystroke_l	l	n/a
165.11	0.1005	330220	keystroke_e	e	n/a
165.1665	0.1005	330333	keystroke_s	s	n/a
165.2905	0.0895	330581	keystroke_Key.space	Key.space	n/a
165.4025	0.079	330805	keystroke_s	s	n/a
165.515	0.067	331030	keystroke_t	t	n/a
165.6835	0.068	331367	keystroke_r	r	n/a
165.7965	0.1345	331593	keystroke_i	i	n/a
165.8855	0.113	331771	keystroke_p	p	n/a
166.01	0.0785	332020	keystroke_s	s	n/a
166.1	0.0905	332200	keystroke_Key.space	Key.space	n/a
166.2915	0.0895	332583	keystroke_p	p	n/a
166.3925	0.0785	332785	keystroke_r	r	n/a
166.5045	0.0795	333009	keystroke_i	i	n/a
166.6175	0.09	333235	keystroke_c	c	n/a
166.8195	0.0565	333639	keystroke_e	e	n/a
166.9775	0.0895	333955	keystroke_d	d	n/a
167.057	0.0885	334114	keystroke_Key.space	Key.space	n/a
167.191	0.0785	334382	keystroke_d	d	n/a
167.315	0.09	334630	keystroke_u	u	n/a
167.4165	0.0785	334833	keystroke_r	r	n/a
167.585	0.0895	335170	keystroke_a	a	n/a
167.686	0.1125	335372	keystroke_b	b	n/a
167.832	0.09	335664	keystroke_l	l	n/a
167.9785	0.079	335957	keystroke_e	e	n/a
168.3275	0.0445	336655	keystroke_Key.enter	Key.enter	n/a
168.378	5.036	336756	prompt	n/a	consulting previews greek accidents\n
168.946	0.101	337892	keystroke_c	c	n/a
169.0925	0.0895	338185	keystroke_o	o	n/a
169.1595	0.1015	338319	keystroke_n	n	n/a
169.25	0.0675	338500	keystroke_s	s	n/a
169.419	0.1345	338838	keystroke_u	u	n/a
169.52	0.101	339040	keystroke_l	l	n/a
169.6435	0.0895	339287	keystroke_t	t	n/a
169.7575	0.1225	339515	keystroke_i	i	n/a
169.8245	0.123	339649	keystroke_n	n	n/a
169.9025	0.0905	339805	keystroke_g	g	n/a
169.959	0.1005	339918	keystroke_Key.space	Key.space	n/a
170.0935	0.1355	340187	keystroke_p	p	n/a
170.2075	0.111	340415	keystroke_r	r	n/a
170.2745	0.089	340549	keystroke_e	e	n/a
170.4535	0.0905	340907	keystroke_v	v	n/a
170.566	0.0785	341132	keystroke_i	i	n/a
170.6575	0.111	341315	keystroke_e	e	n/a
170.7245	0.089	341449	keystroke_w	w	n/a
170.8925	0.101	341785	keystroke_s	s	n/a
171.0385	0.0905	342077	keystroke_Key.space	Key.space	n/a
171.1415	0.088	342283	keystroke_g	g	n/a
171.32	0.1235	342640	keystroke_r	r	n/a
171.3985	0.09	342797	keystroke_e	e	n/a
171.5905	0.078	343181	keystroke_e	e	n/a
171.7135	0.09	343427	keystroke_k	k	n/a
171.8705	0.0675	343741	keystroke_Key.space	Key.space	n/a
172.041	0.0665	344082	keystroke_a	a	n/a
172.2195	0.056	344439	keystroke_c	c	n/a
172.366	0.0785	344732	keystroke_c	c	n/a
172.4575	0.1	344915	keystroke_i	i	n/a
172.5795	0.0565	345159	keystroke_d	d	n/a
172.805	0.0105	345610	keystroke_e	e	n/a
172.8275	0.1005	345655	keystroke_n	n	n/a
172.9285	0.056	345857	keystroke_t	t	n/a
173.0745	0.0905	346149	keystroke_s	s	n/a
173.3445	0.068	346689	keystroke_Key.enter	Key.enter	n/a
173.4195	13.606	346839	prompt	n/a	legend connecticut entrepreneurs achieve\n
173.9635	0.0785	347927	keystroke_l	l	n/a
174.076	0.067	348152	keystroke_e	e	n/a
174.1995	0.1245	348399	keystroke_g	g	n/a
174.301	0.113	348602	keystroke_e	e	n/a
174.448	0.1	348896	keystroke_n	n	n/a
174.5595	0.115	349119	keystroke_d	d	n/a
174.6495	0.091	349299	keystroke_Key.space	Key.space	n/a
174.818	0.0795	349636	keystroke_c	c	n/a
175.1225	0.078	350245	keystroke_o	o	n/a
175.257	0.1015	350514	keystroke_n	n	n/a
175.4255	0.0905	350851	keystroke_n	n	n/a
175.561	0.067	351122	keystroke_e	e	n/a
175.752	0.101	351504	keystroke_c	c	n/a
177.4965	0.0555	354993	keystroke_t	t	n/a
177.62	0.101	355240	keystroke_i	i	n/a
177.811	0.09	355622	keystroke_c	c	n/a
177.9455	0.1125	355891	keystroke_u	u	n/a
178.103	0.09	356206	keystroke_t	t	n/a
178.2275	0.0895	356455	keystroke_Key.space	Key.space	n/a
178.936	0.09	357872	keystroke_e	e	n/a
179.1045	0.103	358209	keystroke_n	n	n/a
179.2175	0.078	358435	keystroke_t	t	n/a
179.398	0.078	358796	keystroke_r	r	n/a
179.5885	0.0685	359177	keystroke_p	p	n/a
179.7685	0.1345	359537	keystroke_r	r	n/a
179.8585	0.101	359717	keystroke_e	e	n/a
180.072	0.09	360144	keystroke_n	n	n/a
180.185	0.1005	360370	keystroke_e	e	n/a
180.3535	0.09	360707	keystroke_u	u	n/a
180.4885	0.0895	360977	keystroke_r	r	n/a
180.6795	0.079	361359	keystroke_s	s	n/a
180.86	0.0815	361720	keystroke_Key.space	Key.space	n/a
180.995	0.079	361990	keystroke_a	a	n/a
181.208	0.09	362416	keystroke_c	c	n/a
181.6925	0.0565	363385	keystroke_Key.backspace	Key.backspace	n/a
181.85	0.0335	363700	keystroke_Key.backspace	Key.backspace	n/a
181.9965	0.045	363993	keystroke_Key.backspace	Key.backspace	n/a
182.132	0.056	364264	keystroke_Key.backspace	Key.backspace	n/a
182.292	0.0535	364584	keystroke_Key.backspace	Key.backspace	n/a
182.4925	0.01	364985	keystroke_Key.backspace	Key.backspace	n/a
182.5815	0.0465	365163	keystroke_Key.backspace	Key.backspace	n/a
182.7285	0.067	365457	keystroke_Key.backspace	Key.backspace	n/a
182.885	0.057	365770	keystroke_Key.backspace	Key.backspace	n/a
183.054	0.056	366108	keystroke_Key.backspace	Key.backspace	n/a
183.245	0.046	366490	keystroke_Key.backspace	Key.backspace	n/a
183.594	0.09	367188	keystroke_e	e	n/a
183.9985	0.1125	367997	keystroke_p	p	n/a
184.122	0.1585	368244	keystroke_r	r	n/a
184.2245	0.112	368449	keystroke_e	e	n/a
184.4485	0.09	368897	keystroke_n	n	n/a
184.685	0.0895	369370	keystroke_e	e	n/a
184.82	0.0895	369640	keystroke_u	u	n/a
184.9435	0.0785	369887	keystroke_r	r	n/a
185.112	0.079	370224	keystroke_s	s	n/a
185.4275	0.09	370855	keystroke_Key.space	Key.space	n/a
185.776	0.0905	371552	keystroke_a	a	n/a
185.9335	0.1015	371867	keystroke_c	c	n/a
186.125	0.1345	372250	keystroke_h	h	n/a
186.2155	0.1115	372431	keystroke_i	i	n/a
186.3385	0.102	372677	keystroke_e	e	n/a
186.4965	0.1235	372993	keystroke_v	v	n/a
186.609	0.112	373218	keystroke_e	e	n/a
186.9575	0.067	373915	keystroke_Key.enter	Key.enter	n/a
187.031	9.2875	374062	prompt	n/a	discounts techrepublic permits coupled\n
187.633	0.0785	375266	keystroke_d	d	n/a
187.757	0.067	375514	keystroke_i	i	n/a
187.8345	0.057	375669	keystroke_s	s	n/a
188.071	0.011	376142	keystroke_c	c	n/a
188.105	0.1235	376210	keystroke_o	o	n/a
188.1945	0.09	376389	keystroke_u	u	n/a
188.386	0.1015	376772	keystroke_n	n	n/a
188.488	0.067	376976	keystroke_t	t	n/a
188.6335	0.068	377267	keystroke_s	s	n/a
188.735	0.0675	377470	keystroke_Key.space	Key.space	n/a
188.87	0.1235	377740	keystroke_t	t	n/a
189.0045	0.079	378009	keystroke_e	e	n/a
189.196	0.0795	378392	keystroke_c	c	n/a
189.286	0.1015	378572	keystroke_h	h	n/a
189.4215	0.112	378843	keystroke_Key.space	Key.space	n/a
189.68	0.0675	379360	keystroke_r	r	n/a
189.9275	0.0465	379855	keystroke_Key.backspace	Key.backspace	n/a
190.0515	0.0895	380103	keystroke_Key.backspace	Key.backspace	n/a
190.2535	0.135	380507	keystroke_r	r	n/a
190.3665	0.091	380733	keystroke_e	e	n/a
190.794	0.1345	381588	keystroke_p	p	n/a
190.8945	0.102	381789	keystroke_u	u	n/a
191.0295	0.09	382059	keystroke_b	b	n/a
191.154	0.1125	382308	keystroke_l	l	n/a
191.2215	0.112	382443	keystroke_i	i	n/a
191.3225	0.1015	382645	keystroke_c	c	n/a
191.4575	0.1015	382915	keystroke_Key.space	Key.space	n/a
191.6825	0.125	383365	keystroke_p	p	n/a
191.863	0.146	383726	keystroke_e	e	n/a
191.943	0.099	383886	keystroke_r	r	n/a
192.38	0.146	384760	keystroke_m	m	n/a
192.515	0.09	385030	keystroke_i	i	n/a
192.674	0.0885	385348	keystroke_t	t	n/a
192.886	0.079	385772	keystroke_s	s	n/a
193.1675	0.09	386335	keystroke_Key.space	Key.space	n/a
194.9115	0.1125	389823	keystroke_c	c	n/a
195.069	0.1465	390138	keystroke_o	o	n/a
195.1815	0.1235	390363	keystroke_u	u	n/a
195.35	0.146	390700	keystroke_p	p	n/a
195.4515	0.1125	390903	keystroke_l	l	n/a
195.6205	0.079	391241	keystroke_e	e	n/a
195.8005	0.067	391601	keystroke_d	d	n/a
196.25	0.0675	392500	keystroke_Key.enter	Key.enter	n/a
196.324	5.396	392648	prompt	n/a	hairy membership senator retired\n
196.9925	0.1015	393985	keystroke_h	h	n/a
197.0825	0.0785	394165	keystroke_a	a	n/a
197.207	0.089	394414	keystroke_i	i	n/a
197.3075	0.09	394615	keystroke_r	r	n/a
197.443	0.0785	394886	keystroke_y	y	n/a
197.5325	0.09	395065	keystroke_Key.space	Key.space	n/a
197.702	0.0895	395404	keystroke_m	m	n/a
197.803	0.078	395606	keystroke_e	e	n/a
197.926	0.0905	395852	keystroke_m	m	n/a
198.039	0.1015	396078	keystroke_b	b	n/a
198.241	0.102	396482	keystroke_e	e	n/a
198.298	0.0675	396596	keystroke_r	r	n/a
198.433	0.078	396866	keystroke_s	s	n/a
198.6125	0.1465	397225	keystroke_h	h	n/a
198.6915	0.1685	397383	keystroke_i	i	n/a
198.8155	0.1265	397631	keystroke_p	p	n/a
198.9505	0.0785	397901	keystroke_Key.space	Key.space	n/a
199.075	0.0885	398150	keystroke_s	s	n/a
199.1525	0.101	398305	keystroke_e	e	n/a
199.3445	0.1005	398689	keystroke_n	n	n/a
199.4245	0.0885	398849	keystroke_a	a	n/a
199.6145	0.09	399229	keystroke_t	t	n/a
199.7375	0.079	399475	keystroke_o	o	n/a
199.839	0.09	399678	keystroke_r	r	n/a
199.9075	0.0895	399815	keystroke_Key.space	Key.space	n/a
200.0865	0.124	400173	keystroke_r	r	n/a
200.1655	0.0895	400331	keystroke_e	e	n/a
200.3675	0.0675	400735	keystroke_i	i	n/a
200.829	0.0525	401658	keystroke_Key.backspace	Key.backspace	n/a
200.9415	0.0925	401883	keystroke_t	t	n/a
201.0425	0.091	402085	keystroke_i	i	n/a
201.144	0.176	402288	keystroke_r	r	n/a
201.245	0.101	402490	keystroke_e	e	n/a
201.4285	0.065	402857	keystroke_d	d	n/a
201.631	0.088	403262	keystroke_Key.enter	Key.enter	n/a
201.7275	11.187	403455	prompt	n/a	employment condition do mild\n
208.1995	0.091	416399	keystroke_e	e	n/a
208.3575	0.157	416715	keystroke_m	m	n/a
208.515	0.1125	417030	keystroke_p	p	n/a
208.5935	0.101	417187	keystroke_l	l	n/a
208.796	0.1015	417592	keystroke_o	o	n/a
208.8635	0.101	417727	keystroke_y	y	n/a
209.0095	0.09	418019	keystroke_e	e	n/a
209.111	0.113	418222	keystroke_m	m	n/a
209.426	0.0565	418852	keystroke_Key.backspace	Key.backspace	n/a
209.561	0.067	419122	keystroke_Key.backspace	Key.backspace	n/a
209.786	0.0905	419572	keystroke_m	m	n/a
209.9095	0.101	419819	keystroke_e	e	n/a
210.0335	0.0905	420067	keystroke_n	n	n/a
210.146	0.09	420292	keystroke_t	t	n/a
210.2135	0.0795	420427	keystroke_Key.space	Key.space	n/a
210.3935	0.09	420787	keystroke_c	c	n/a
210.5175	0.1005	421035	keystroke_o	o	n/a
210.5845	0.113	421169	keystroke_n	n	n/a
210.7425	0.0785	421485	keystroke_d	d	n/a
210.8545	0.09	421709	keystroke_i	i	n/a
210.9785	0.09	421957	keystroke_t	t	n/a
211.0795	0.1685	422159	keystroke_i	i	n/a
211.1475	0.168	422295	keystroke_o	o	n/a
211.2825	0.112	422565	keystroke_n	n	n/a
211.361	0.1235	422722	keystroke_Key.space	Key.space	n/a
211.4625	0.0785	422925	keystroke_t	t	n/a
211.7545	0.0565	423509	keystroke_Key.backspace	Key.backspace	n/a
211.8905	0.067	423781	keystroke_d	d	n/a
212.0025	0.09	424005	keystroke_o	o	n/a
212.103	0.068	424206	keystroke_Key.space	Key.space	n/a
212.2155	0.135	424431	keystroke_m	m	n/a
212.3285	0.158	424657	keystroke_i	i	n/a
212.43	0.1345	424860	keystroke_l	l	n/a
212.6325	0.067	425265	keystroke_d	d	n/a
212.846	0.0675	425692	keystroke_Key.enter	Key.enter	n/a
212.9195	5.5295	425839	prompt	n/a	previews miscellaneous hall amino\n
213.5775	0.09	427155	keystroke_p	p	n/a
213.713	0.1225	427426	keystroke_r	r	n/a
213.78	0.101	427560	keystroke_e	e	n/a
213.971	0.09	427942	keystroke_v	v	n/a
214.0735	0.077	428147	keystroke_i	i	n/a
214.174	0.134	428348	keystroke_e	e	n/a
214.2635	0.101	428527	keystroke_w	w	n/a
214.4545	0.113	428909	keystroke_s	s	n/a
214.533	0.0905	429066	keystroke_Key.space	Key.space	n/a
214.7025	0.135	429405	keystroke_m	m	n/a
214.8035	0.101	429607	keystroke_i	i	n/a
214.927	0.0785	429854	keystroke_s	s	n/a
215.1075	0.078	430215	keystroke_c	c	n/a
215.321	0.067	430642	keystroke_e	e	n/a
215.467	0.0675	430934	keystroke_l	l	n/a
215.6135	0.0895	431227	keystroke_l	l	n/a
215.748	0.079	431496	keystroke_a	a	n/a
215.8605	0.102	431721	keystroke_n	n	n/a
216.007	0.0675	432014	keystroke_e	e	n/a
216.165	0.1345	432330	keystroke_o	o	n/a
216.2775	0.101	432555	keystroke_u	u	n/a
216.39	0.1125	432780	keystroke_s	s	n/a
216.468	0.1015	432936	keystroke_Key.space	Key.space	n/a
216.7275	0.1005	433455	keystroke_h	h	n/a
216.874	0.067	433748	keystroke_a	a	n/a
216.975	0.0555	433950	keystroke_l	l	n/a
217.121	0.067	434242	keystroke_l	l	n/a
217.222	0.0785	434444	keystroke_Key.space	Key.space	n/a
217.38	0.112	434760	keystroke_a	a	n/a
217.5145	0.1575	435029	keystroke_m	m	n/a
217.707	0.1565	435414	keystroke_i	i	n/a
217.8745	0.113	435749	keystroke_n	n	n/a
218.0435	0.09	436087	keystroke_o	o	n/a
218.381	0.067	436762	keystroke_Key.enter	Key.enter	n/a
218.4545	5.699	436909	prompt	n/a	taught landscape expertise correction\n
219.1575	0.078	438315	keystroke_t	t	n/a
219.247	0.0905	438494	keystroke_a	a	n/a
219.3935	0.079	438787	keystroke_u	u	n/a
219.4945	0.079	438989	keystroke_g	g	n/a
219.6185	0.09	439237	keystroke_h	h	n/a
219.7195	0.1015	439439	keystroke_t	t	n/a
219.798	0.079	439596	keystroke_Key.space	Key.space	n/a
219.9445	0.09	439889	keystroke_l	l	n/a
220.0455	0.09	440091	keystroke_a	a	n/a
220.181	0.09	440362	keystroke_n	n	n/a
220.271	0.101	440542	keystroke_d	d	n/a
220.417	0.0785	440834	keystroke_s	s	n/a
220.575	0.0785	441150	keystroke_c	c	n/a
220.676	0.0895	441352	keystroke_a	a	n/a
220.8335	0.1015	441667	keystroke_p	p	n/a
220.9345	0.09	441869	keystroke_e	e	n/a
221.002	0.09	442004	keystroke_Key.space	Key.space	n/a
221.1485	0.0795	442297	keystroke_e	e	n/a
221.3285	0.0895	442657	keystroke_x	x	n/a
221.486	0.1125	442972	keystroke_p	p	n/a
221.598	0.124	443196	keystroke_e	e	n/a
221.6545	0.1125	443309	keystroke_r	r	n/a
221.868	0.0905	443736	keystroke_t	t	n/a
222.037	0.0675	444074	keystroke_i	i	n/a
222.138	0.1125	444276	keystroke_s	s	n/a
222.2285	0.1575	444457	keystroke_e	e	n/a
222.3865	0.0555	444773	keystroke_Key.space	Key.space	n/a
222.521	0.0785	445042	keystroke_c	c	n/a
222.645	0.056	445290	keystroke_o	o	n/a
222.78	0.0555	445560	keystroke_r	r	n/a
222.9485	0.0895	445897	keystroke_r	r	n/a
223.1285	0.0895	446257	keystroke_e	e	n/a
223.342	0.068	446684	keystroke_c	c	n/a
223.522	0.0685	447044	keystroke_t	t	n/a
223.5785	0.191	447157	keystroke_i	i	n/a
223.702	0.1465	447404	keystroke_o	o	n/a
223.826	0.112	447652	keystroke_n	n	n/a
224.074	0.0785	448148	keystroke_Key.enter	Key.enter	n/a
224.1595	5.0115	448319	prompt	n/a	testing reserves housing lessons\n
224.682	0.0885	449364	keystroke_t	t	n/a
224.8495	0.158	449699	keystroke_e	e	n/a
224.951	0.135	449902	keystroke_s	s	n/a
225.0525	0.101	450105	keystroke_t	t	n/a
225.2095	0.124	450419	keystroke_i	i	n/a
225.2885	0.112	450577	keystroke_n	n	n/a
225.378	0.1015	450756	keystroke_g	g	n/a
225.457	0.1125	450914	keystroke_Key.space	Key.space	n/a
225.66	0.1345	451320	keystroke_r	r	n/a
225.75	0.1125	451500	keystroke_e	e	n/a
225.93	0.157	451860	keystroke_s	s	n/a
226.0985	0.1585	452197	keystroke_e	e	n/a
226.2335	0.079	452467	keystroke_r	r	n/a
226.4135	0.113	452827	keystroke_v	v	n/a
226.5715	0.1355	453143	keystroke_e	e	n/a
226.7405	0.112	453481	keystroke_s	s	n/a
226.8975	0.1005	453795	keystroke_Key.space	Key.space	n/a
227.179	0.1005	454358	keystroke_h	h	n/a
227.381	0.101	454762	keystroke_o	o	n/a
227.4595	0.09	454919	keystroke_u	u	n/a
227.5835	0.0675	455167	keystroke_s	s	n/a
227.7075	0.124	455415	keystroke_i	i	n/a
227.786	0.135	455572	keystroke_n	n	n/a
227.865	0.0895	455730	keystroke_g	g	n/a
227.9435	0.0785	455887	keystroke_Key.space	Key.space	n/a
228.0675	0.101	456135	keystroke_l	l	n/a
228.157	0.0675	456314	keystroke_e	e	n/a
228.3375	0.0675	456675	keystroke_s	s	n/a
228.4845	0.0775	456969	keystroke_s	s	n/a
228.5845	0.1015	457169	keystroke_o	o	n/a
228.6635	0.1125	457327	keystroke_n	n	n/a
228.787	0.0905	457574	keystroke_s	s	n/a
229.102	0.068	458204	keystroke_Key.enter	Key.enter	n/a
229.1765	10.7265	458353	prompt	n/a	chorus cemetery workflow parallel\n
229.732	0.0795	459464	keystroke_c	c	n/a
229.834	0.09	459668	keystroke_h	h	n/a
229.9795	0.09	459959	keystroke_o	o	n/a
230.0925	0.09	460185	keystroke_r	r	n/a
230.2835	0.101	460567	keystroke_o	o	n/a
230.362	0.102	460724	keystroke_u	u	n/a
230.52	0.0785	461040	keystroke_s	s	n/a
230.8015	0.045	461603	keystroke_Key.backspace	Key.backspace	n/a
230.947	0.0455	461894	keystroke_Key.backspace	Key.backspace	n/a
231.0605	0.078	462121	keystroke_Key.backspace	Key.backspace	n/a
231.285	0.09	462570	keystroke_u	u	n/a
231.42	0.0895	462840	keystroke_s	s	n/a
231.667	0.0795	463334	keystroke_Key.space	Key.space	n/a
231.8695	0.057	463739	keystroke_c	c	n/a
232.027	0.0675	464054	keystroke_e	e	n/a
232.107	0.089	464214	keystroke_m	m	n/a
232.23	0.079	464460	keystroke_e	e	n/a
232.4095	0.1015	464819	keystroke_n	n	n/a
232.601	0.0785	465202	keystroke_t	t	n/a
232.8375	0.124	465675	keystroke_a	a	n/a
232.928	0.1005	465856	keystroke_r	r	n/a
233.0845	0.1015	466169	keystroke_y	y	n/a
233.4225	0.0565	466845	keystroke_Key.backspace	Key.backspace	n/a
233.569	0.045	467138	keystroke_Key.backspace	Key.backspace	n/a
233.681	0.0675	467362	keystroke_Key.backspace	Key.backspace	n/a
233.8045	0.124	467609	keystroke_e	e	n/a
233.917	0.0905	467834	keystroke_r	r	n/a
234.0525	0.1015	468105	keystroke_y	y	n/a
234.187	0.102	468374	keystroke_Key.space	Key.space	n/a
234.3785	0.079	468757	keystroke_w	w	n/a
234.48	0.1125	468960	keystroke_o	o	n/a
234.8745	0.0445	469749	keystroke_Key.backspace	Key.backspace	n/a
235.0085	0.0565	470017	keystroke_Key.backspace	Key.backspace	n/a
235.166	0.034	470332	keystroke_Key.backspace	Key.backspace	n/a
235.324	0.067	470648	keystroke_Key.backspace	Key.backspace	n/a
235.516	0.044	471032	keystroke_Key.backspace	Key.backspace	n/a
235.6945	0.0795	471389	keystroke_Key.backspace	Key.backspace	n/a
235.909	0.0675	471818	keystroke_Key.backspace	Key.backspace	n/a
236.3025	0.067	472605	keystroke_Key.backspace	Key.backspace	n/a
236.517	0.09	473034	keystroke_t	t	n/a
236.73	0.101	473460	keystroke_e	e	n/a
236.8085	0.068	473617	keystroke_r	r	n/a
236.977	0.09	473954	keystroke_y	y	n/a
237.057	0.1005	474114	keystroke_Key.space	Key.space	n/a
237.18	0.1015	474360	keystroke_w	w	n/a
237.315	0.1015	474630	keystroke_o	o	n/a
237.439	0.078	474878	keystroke_r	r	n/a
237.5405	0.078	475081	keystroke_k	k	n/a
237.6525	0.079	475305	keystroke_f	f	n/a
237.8095	0.0565	475619	keystroke_l	l	n/a
238.012	0.079	476024	keystroke_o	o	n/a
238.215	0.0675	476430	keystroke_w	w	n/a
238.4175	0.0675	476835	keystroke_Key.space	Key.space	n/a
238.6315	0.1005	477263	keystroke_p	p	n/a
238.8	0.101	477600	keystroke_a	a	n/a
238.935	0.0785	477870	keystroke_r	r	n/a
239.036	0.068	478072	keystroke_a	a	n/a
239.2165	0.045	478433	keystroke_l	l	n/a
239.3625	0.0565	478725	keystroke_l	l	n/a
239.475	0.056	478950	keystroke_e	e	n/a
239.576	0.09	479152	keystroke_l	l	n/a
239.846	0.0565	479692	keystroke_Key.enter	Key.enter	n/a
239.9085	4.586	479817	prompt	n/a	minerals mali performer views\n
240.544	0.1015	481088	keystroke_m	m	n/a
240.6455	0.157	481291	keystroke_i	i	n/a
240.78	0.112	481560	keystroke_n	n	n/a
241.061	0.034	482122	keystroke_e	e	n/a
241.074	0.077	482148	keystroke_r	r	n/a
241.185	0.1125	482370	keystroke_a	a	n/a
241.3315	0.09	482663	keystroke_l	l	n/a
241.444	0.1135	482888	keystroke_s	s	n/a
241.545	0.079	483090	keystroke_Key.space	Key.space	n/a
241.7025	0.102	483405	keystroke_m	m	n/a
241.8045	0.09	483609	keystroke_a	a	n/a
241.9505	0.1455	483901	keystroke_l	l	n/a
242.051	0.113	484102	keystroke_i	i	n/a
242.22	0.1015	484440	keystroke_Key.space	Key.space	n/a
242.4115	0.1125	484823	keystroke_p	p	n/a
242.5355	0.0895	485071	keystroke_e	e	n/a
242.569	0.0895	485138	keystroke_r	r	n/a
242.76	0.056	485520	keystroke_f	f	n/a
242.85	0.0905	485700	keystroke_o	o	n/a
242.951	0.1015	485902	keystroke_r	r	n/a
243.0865	0.112	486173	keystroke_m	m	n/a
243.244	0.1345	486488	keystroke_e	e	n/a
243.324	0.156	486648	keystroke_r	r	n/a
243.491	0.0675	486982	keystroke_Key.space	Key.space	n/a
243.6605	0.09	487321	keystroke_v	v	n/a
243.784	0.0785	487568	keystroke_i	i	n/a
243.896	0.1465	487792	keystroke_e	e	n/a
243.9975	0.1125	487995	keystroke_w	w	n/a
244.1775	0.1015	488355	keystroke_s	s	n/a
244.425	0.068	488850	keystroke_Key.enter	Key.enter	n/a
244.502	4.3455	489004	prompt	n/a	night pens function projector\n
245.1115	0.1125	490223	keystroke_n	n	n/a
245.235	0.09	490470	keystroke_i	i	n/a
245.37	0.079	490740	keystroke_g	g	n/a
245.46	0.1015	490920	keystroke_h	h	n/a
245.5505	0.09	491101	keystroke_t	t	n/a
245.6285	0.068	491257	keystroke_Key.space	Key.space	n/a
245.7985	0.1005	491597	keystroke_p	p	n/a
245.899	0.0785	491798	keystroke_e	e	n/a
246.034	0.1015	492068	keystroke_n	n	n/a
246.1245	0.1005	492249	keystroke_s	s	n/a
246.2135	0.0905	492427	keystroke_Key.space	Key.space	n/a
246.3715	0.0695	492743	keystroke_f	f	n/a
246.484	0.0785	492968	keystroke_u	u	n/a
246.6635	0.1125	493327	keystroke_n	n	n/a
246.7875	0.056	493575	keystroke_c	c	n/a
246.958	0.0665	493916	keystroke_t	t	n/a
247.0245	0.1455	494049	keystroke_i	i	n/a
247.0915	0.146	494183	keystroke_o	o	n/a
247.204	0.1125	494408	keystroke_n	n	n/a
247.305	0.09	494610	keystroke_Key.space	Key.space	n/a
247.474	0.1015	494948	keystroke_p	p	n/a
247.598	0.1005	495196	keystroke_r	r	n/a
247.71	0.101	495420	keystroke_o	o	n/a
247.7885	0.1015	495577	keystroke_j	j	n/a
247.924	0.067	495848	keystroke_e	e	n/a
248.1035	0.0685	496207	keystroke_c	c	n/a
248.274	0.0775	496548	keystroke_t	t	n/a
248.4075	0.09	496815	keystroke_o	o	n/a
248.5205	0.0895	497041	keystroke_r	r	n/a
248.7905	0.056	497581	keystroke_Key.enter	Key.enter	n/a
248.853	5.781	497706	prompt	n/a	railroad apnic ghana trails\n
249.4875	0.113	498975	keystroke_r	r	n/a
249.5905	0.101	499181	keystroke_a	a	n/a
249.769	0.0785	499538	keystroke_i	i	n/a
249.8025	0.135	499605	keystroke_l	l	n/a
249.9605	0.1145	499921	keystroke_r	r	n/a
250.108	0.1	500216	keystroke_o	o	n/a
250.219	0.09	500438	keystroke_a	a	n/a
250.41	0.079	500820	keystroke_d	d	n/a
250.524	0.09	501048	keystroke_Key.space	Key.space	n/a
250.669	0.0905	501338	keystroke_a	a	n/a
250.8715	0.136	501743	keystroke_p	p	n/a
251.164	0.1125	502328	keystroke_n	n	n/a
251.2655	0.09	502531	keystroke_i	i	n/a
251.424	0.0665	502848	keystroke_c	c	n/a
251.591	0.09	503182	keystroke_Key.space	Key.space	n/a
251.7035	0.045	503407	keystroke_a	a	n/a
251.9745	0.067	503949	keystroke_Key.backspace	Key.backspace	n/a
252.131	0.0905	504262	keystroke_g	g	n/a
252.2885	0.0905	504577	keystroke_h	h	n/a
252.3905	0.09	504781	keystroke_a	a	n/a
252.593	0.101	505186	keystroke_n	n	n/a
252.7405	0.0885	505481	keystroke_a	a	n/a
252.919	0.0785	505838	keystroke_Key.space	Key.space	n/a
253.1215	0.0785	506243	keystroke_r	r	n/a
253.425	0.068	506850	keystroke_Key.backspace	Key.backspace	n/a
253.5935	0.034	507187	keystroke_t	t	n/a
253.729	0.079	507458	keystroke_r	r	n/a
253.853	0.1125	507706	keystroke_a	a	n/a
253.999	0.0915	507998	keystroke_i	i	n/a
254.1675	0.101	508335	keystroke_l	l	n/a
254.314	0.067	508628	keystroke_s	s	n/a
254.574	0.0545	509148	keystroke_Key.enter	Key.enter	n/a
254.642	5.7935	509284	prompt	n/a	louis comparing futures desirable\n
255.1925	0.078	510385	keystroke_l	l	n/a
255.384	0.1005	510768	keystroke_o	o	n/a
255.462	0.09	510924	keystroke_u	u	n/a
255.676	0.0675	511352	keystroke_i	i	n/a
255.788	0.079	511576	keystroke_s	s	n/a
255.912	0.0895	511824	keystroke_Key.space	Key.space	n/a
256.1255	0.0895	512251	keystroke_c	c	n/a
256.26	0.147	512520	keystroke_o	o	n/a
256.3505	0.2025	512701	keystroke_m	m	n/a
256.508	0.1015	513016	keystroke_p	p	n/a
256.6545	0.123	513309	keystroke_a	a	n/a
256.733	0.101	513466	keystroke_r	r	n/a
256.8905	0.157	513781	keystroke_i	i	n/a
257.025	0.102	514050	keystroke_n	n	n/a
257.138	0.1125	514276	keystroke_g	g	n/a
257.2275	0.0795	514455	keystroke_Key.space	Key.space	n/a
257.4075	0.0795	514815	keystroke_f	f	n/a
257.5205	0.0785	515041	keystroke_u	u	n/a
257.644	0.0905	515288	keystroke_t	t	n/a
257.768	0.101	515536	keystroke_u	u	n/a
257.8805	0.1125	515761	keystroke_r	r	n/a
257.9585	0.1015	515917	keystroke_e	e	n/a
258.128	0.101	516256	keystroke_s	s	n/a
258.274	0.0675	516548	keystroke_Key.space	Key.space	n/a
258.4205	0.067	516841	keystroke_d	d	n/a
258.601	0.067	517202	keystroke_e	e	n/a
258.7125	0.079	517425	keystroke_s	s	n/a
258.9155	0.079	517831	keystroke_i	i	n/a
259.1405	0.079	518281	keystroke_r	r	n/a
259.343	0.09	518686	keystroke_a	a	n/a
259.534	0.1015	519068	keystroke_b	b	n/a
259.669	0.1015	519338	keystroke_l	l	n/a
259.804	0.0905	519608	keystroke_e	e	n/a
260.367	0.0675	520734	keystroke_Key.enter	Key.enter	n/a
260.4425	5.753	520885	prompt	n/a	bracket demonstrated favorite bleeding\n
261.0985	0.067	522197	keystroke_b	b	n/a
261.289	0.0905	522578	keystroke_r	r	n/a
261.391	0.0675	522782	keystroke_a	a	n/a
261.5595	0.0785	523119	keystroke_c	c	n/a
261.672	0.0785	523344	keystroke_k	k	n/a
261.774	0.1	523548	keystroke_e	e	n/a
261.8305	0.111	523661	keystroke_t	t	n/a
261.9305	0.0675	523861	keystroke_Key.space	Key.space	n/a
262.077	0.0555	524154	keystroke_d	d	n/a
262.224	0.078	524448	keystroke_e	e	n/a
262.347	0.1345	524694	keystroke_m	m	n/a
262.504	0.124	525008	keystroke_o	o	n/a
262.6165	0.1125	525233	keystroke_n	n	n/a
262.763	0.1345	525526	keystroke_s	s	n/a
262.8755	0.09	525751	keystroke_t	t	n/a
263.044	0.101	526088	keystroke_r	r	n/a
263.134	0.1125	526268	keystroke_a	a	n/a
263.2575	0.1465	526515	keystroke_t	t	n/a
263.359	0.101	526718	keystroke_e	e	n/a
263.5405	0.1	527081	keystroke_d	d	n/a
263.675	0.1115	527350	keystroke_Key.space	Key.space	n/a
263.8875	0.113	527775	keystroke_f	f	n/a
264.012	0.09	528024	keystroke_a	a	n/a
264.1245	0.112	528249	keystroke_v	v	n/a
264.2475	0.0905	528495	keystroke_o	o	n/a
264.36	0.081	528720	keystroke_r	r	n/a
264.4735	0.078	528947	keystroke_i	i	n/a
264.5745	0.101	529149	keystroke_t	t	n/a
264.698	0.1235	529396	keystroke_e	e	n/a
264.81	0.068	529620	keystroke_Key.space	Key.space	n/a
264.9345	0.09	529869	keystroke_b	b	n/a
265.0805	0.0895	530161	keystroke_l	l	n/a
265.1925	0.068	530385	keystroke_e	e	n/a
265.3405	0.077	530681	keystroke_e	e	n/a
265.4855	0.09	530971	keystroke_d	d	n/a
265.6205	0.146	531241	keystroke_i	i	n/a
265.733	0.112	531466	keystroke_n	n	n/a
265.8345	0.0785	531669	keystroke_g	g	n/a
266.127	0.0675	532254	keystroke_Key.enter	Key.enter	n/a
266.201	6.238	532402	prompt	n/a	horizon confused respiratory kind\n
266.746	0.078	533492	keystroke_b	b	n/a
267.0265	0.0455	534053	keystroke_Key.backspace	Key.backspace	n/a
267.2515	0.0675	534503	keystroke_h	h	n/a
267.432	0.056	534864	keystroke_o	o	n/a
267.533	0.0785	535066	keystroke_r	r	n/a
267.668	0.079	535336	keystroke_i	i	n/a
267.7915	0.1015	535583	keystroke_z	z	n/a
267.9495	0.112	535899	keystroke_o	o	n/a
268.028	0.1125	536056	keystroke_n	n	n/a
268.1515	0.1015	536303	keystroke_Key.space	Key.space	n/a
268.354	0.0565	536708	keystroke_h	h	n/a
268.624	0.0675	537248	keystroke_Key.backspace	Key.backspace	n/a
268.782	0.0675	537564	keystroke_c	c	n/a
268.8605	0.101	537721	keystroke_o	o	n/a
268.9505	0.101	537901	keystroke_n	n	n/a
269.0405	0.0785	538081	keystroke_f	f	n/a
269.198	0.0895	538396	keystroke_u	u	n/a
269.3215	0.136	538643	keystroke_s	s	n/a
269.468	0.0675	538936	keystroke_e	e	n/a
269.6475	0.0905	539295	keystroke_d	d	n/a
269.7385	0.0895	539477	keystroke_Key.space	Key.space	n/a
269.874	0.1345	539748	keystroke_r	r	n/a
269.963	0.1015	539926	keystroke_e	e	n/a
270.324	0.0665	540648	keystroke_s	s	n/a
270.4695	0.135	540939	keystroke_p	p	n/a
270.6495	0.091	541299	keystroke_i	i	n/a
270.818	0.09	541636	keystroke_r	r	n/a
270.919	0.0905	541838	keystroke_a	a	n/a
271.077	0.0895	542154	keystroke_t	t	n/a
271.212	0.0785	542424	keystroke_o	o	n/a
271.302	0.079	542604	keystroke_r	r	n/a
271.414	0.09	542828	keystroke_y	y	n/a
271.493	0.0785	542986	keystroke_Key.space	Key.space	n/a
271.6505	0.0785	543301	keystroke_k	k	n/a
271.831	0.168	543662	keystroke_i	i	n/a
271.966	0.123	543932	keystroke_n	n	n/a
272.124	0.0665	544248	keystroke_d	d	n/a
272.348	0.09	544696	keystroke_Key.enter	Key.enter	n/a
272.4445	6.039	544889	prompt	n/a	initial injection optimal checkout\n
273.383	0.1125	546766	keystroke_i	i	n/a
273.597	0.09	547194	keystroke_n	n	n/a
273.799	0.068	547598	keystroke_i	i	n/a
273.9345	0.0565	547869	keystroke_t	t	n/a
274.0355	0.0785	548071	keystroke_i	i	n/a
274.148	0.0905	548296	keystroke_a	a	n/a
274.2495	0.079	548499	keystroke_l	l	n/a
274.351	0.067	548702	keystroke_Key.space	Key.space	n/a
274.486	0.1005	548972	keystroke_i	i	n/a
274.621	0.1005	549242	keystroke_n	n	n/a
274.824	0.0675	549648	keystroke_j	j	n/a
274.936	0.0555	549872	keystroke_e	e	n/a
275.116	0.0675	550232	keystroke_c	c	n/a
275.284	0.0675	550568	keystroke_t	t	n/a
275.3855	0.158	550771	keystroke_i	i	n/a
275.487	0.1345	550974	keystroke_o	o	n/a
275.577	0.1135	551154	keystroke_n	n	n/a
275.712	0.079	551424	keystroke_Key.space	Key.space	n/a
275.8695	0.1685	551739	keystroke_o	o	n/a
275.9705	0.1125	551941	keystroke_p	p	n/a
276.094	0.08	552188	keystroke_t	t	n/a
276.229	0.1355	552458	keystroke_i	i	n/a
276.331	0.168	552662	keystroke_m	m	n/a
276.544	0.1015	553088	keystroke_a	a	n/a
276.769	0.09	553538	keystroke_l	l	n/a
277.017	0.0785	554034	keystroke_Key.space	Key.space	n/a
277.208	0.079	554416	keystroke_c	c	n/a
277.321	0.101	554642	keystroke_h	h	n/a
277.4215	0.057	554843	keystroke_e	e	n/a
277.602	0.0675	555204	keystroke_c	c	n/a
277.6815	0.089	555363	keystroke_k	k	n/a
277.9055	0.1125	555811	keystroke_o	o	n/a
277.9955	0.101	555991	keystroke_u	u	n/a
278.142	0.079	556284	keystroke_t	t	n/a
278.424	0.058	556848	keystroke_Key.enter	Key.enter	n/a
278.4895	5.2225	556979	prompt	n/a	reaches compounds phases george\n
279.143	0.124	558286	keystroke_r	r	n/a
279.233	0.113	558466	keystroke_e	e	n/a
279.358	0.089	558716	keystroke_a	a	n/a
279.514	0.09	559028	keystroke_c	c	n/a
279.6275	0.101	559255	keystroke_h	h	n/a
279.751	0.1345	559502	keystroke_e	e	n/a
279.8405	0.113	559681	keystroke_s	s	n/a
279.942	0.09	559884	keystroke_Key.space	Key.space	n/a
280.1105	0.1135	560221	keystroke_c	c	n/a
280.2465	0.112	560493	keystroke_o	o	n/a
280.347	0.169	560694	keystroke_m	m	n/a
280.527	0.1475	561054	keystroke_p	p	n/a
280.6405	0.123	561281	keystroke_o	o	n/a
280.752	0.1015	561504	keystroke_u	u	n/a
280.966	0.091	561932	keystroke_n	n	n/a
281.0555	0.1465	562111	keystroke_d	d	n/a
281.146	0.1125	562292	keystroke_s	s	n/a
281.236	0.0895	562472	keystroke_Key.space	Key.space	n/a
281.4495	0.113	562899	keystroke_p	p	n/a
281.574	0.1005	563148	keystroke_h	h	n/a
281.7195	0.1125	563439	keystroke_a	a	n/a
281.9905	0.1005	563981	keystroke_s	s	n/a
282.17	0.1005	564340	keystroke_e	e	n/a
282.305	0.0895	564610	keystroke_s	s	n/a
282.4405	0.0775	564881	keystroke_Key.space	Key.space	n/a
282.574	0.1355	565148	keystroke_g	g	n/a
282.732	0.056	565464	keystroke_e	e	n/a
282.8555	0.0455	565711	keystroke_o	o	n/a
283.0355	0.0785	566071	keystroke_r	r	n/a
283.227	0.09	566454	keystroke_g	g	n/a
283.351	0.0895	566702	keystroke_e	e	n/a
283.6545	0.056	567309	keystroke_Key.enter	Key.enter	n/a
283.717	4.8545	567434	prompt	n/a	applicant verbal green highlights\n
284.217	0.0785	568434	keystroke_a	a	n/a
284.3745	0.079	568749	keystroke_p	p	n/a
284.566	0.135	569132	keystroke_p	p	n/a
284.633	0.1355	569266	keystroke_l	l	n/a
284.7345	0.1125	569469	keystroke_i	i	n/a
284.8135	0.101	569627	keystroke_c	c	n/a
284.9255	0.079	569851	keystroke_a	a	n/a
285.0605	0.102	570121	keystroke_n	n	n/a
285.1625	0.1125	570325	keystroke_t	t	n/a
285.263	0.0565	570526	keystroke_Key.space	Key.space	n/a
285.398	0.1015	570796	keystroke_v	v	n/a
285.612	0.1125	571224	keystroke_e	e	n/a
285.668	0.079	571336	keystroke_r	r	n/a
285.8485	0.09	571697	keystroke_b	b	n/a
285.938	0.091	571876	keystroke_a	a	n/a
286.0625	0.1005	572125	keystroke_l	l	n/a
286.1635	0.0895	572327	keystroke_Key.space	Key.space	n/a
286.276	0.09	572552	keystroke_g	g	n/a
286.4675	0.112	572935	keystroke_r	r	n/a
286.535	0.0785	573070	keystroke_e	e	n/a
286.7145	0.045	573429	keystroke_e	e	n/a
286.838	0.1025	573676	keystroke_n	n	n/a
286.951	0.0785	573902	keystroke_Key.space	Key.space	n/a
287.131	0.1235	574262	keystroke_h	h	n/a
287.21	0.078	574420	keystroke_i	i	n/a
287.322	0.0785	574644	keystroke_g	g	n/a
287.4235	0.0895	574847	keystroke_h	h	n/a
287.6255	0.1015	575251	keystroke_l	l	n/a
287.6935	0.1015	575387	keystroke_i	i	n/a
287.8405	0.0775	575681	keystroke_g	g	n/a
287.952	0.0905	575904	keystroke_h	h	n/a
288.0425	0.078	576085	keystroke_t	t	n/a
288.233	0.079	576466	keystroke_s	s	n/a
288.492	0.0785	576984	keystroke_Key.enter	Key.enter	n/a
288.577	14.755	577154	prompt	n/a	institution sharp philippines catalogue\n
289.1445	0.1015	578289	keystroke_i	i	n/a
289.212	0.113	578424	keystroke_n	n	n/a
289.3475	0.112	578695	keystroke_s	s	n/a
289.437	0.101	578874	keystroke_t	t	n/a
289.752	0.1015	579504	keystroke_i	i	n/a
289.966	0.0785	579932	keystroke_t	t	n/a
290.3485	0.0905	580697	keystroke_u	u	n/a
290.541	0.0885	581082	keystroke_t	t	n/a
290.6635	0.1575	581327	keystroke_i	i	n/a
290.7765	0.168	581553	keystroke_o	o	n/a
290.911	0.113	581822	keystroke_n	n	n/a
291.226	0.0895	582452	keystroke_Key.space	Key.space	n/a
291.3835	0.0785	582767	keystroke_s	s	n/a
291.5075	0.1005	583015	keystroke_h	h	n/a
291.6195	0.0905	583239	keystroke_a	a	n/a
291.833	0.091	583666	keystroke_r	r	n/a
291.968	0.1015	583936	keystroke_p	p	n/a
292.1255	0.0795	584251	keystroke_Key.space	Key.space	n/a
292.317	0.1355	584634	keystroke_p	p	n/a
292.475	0.18	584950	keystroke_h	h	n/a
292.6325	0.123	585265	keystroke_i	i	n/a
292.711	0.135	585422	keystroke_l	l	n/a
293.082	0.0915	586164	keystroke_i	i	n/a
293.3745	0.0785	586749	keystroke_p	p	n/a
293.566	0.101	587132	keystroke_p	p	n/a
293.769	0.123	587538	keystroke_i	i	n/a
293.847	0.1125	587694	keystroke_n	n	n/a
293.9705	0.09	587941	keystroke_e	e	n/a
294.107	0.1	588214	keystroke_s	s	n/a
294.252	0.079	588504	keystroke_Key.space	Key.space	n/a
294.41	0.0895	588820	keystroke_c	c	n/a
294.533	0.113	589066	keystroke_a	a	n/a
294.657	0.09	589314	keystroke_t	t	n/a
294.8145	0.101	589629	keystroke_a	a	n/a
295.152	0.0455	590304	keystroke_Key.backspace	Key.backspace	n/a
295.299	0.044	590598	keystroke_Key.backspace	Key.backspace	n/a
295.4445	0.0565	590889	keystroke_Key.backspace	Key.backspace	n/a
295.6025	0.056	591205	keystroke_Key.backspace	Key.backspace	n/a
295.76	0.067	591520	keystroke_Key.backspace	Key.backspace	n/a
295.951	0.067	591902	keystroke_Key.backspace	Key.backspace	n/a
296.165	0.0675	592330	keystroke_Key.backspace	Key.backspace	n/a
296.4685	0.0895	592937	keystroke_Key.backspace	Key.backspace	n/a
296.727	0.0675	593454	keystroke_Key.backspace	Key.backspace	n/a
296.9295	0.0565	593859	keystroke_Key.backspace	Key.backspace	n/a
297.087	0.068	594174	keystroke_Key.backspace	Key.backspace	n/a
297.257	0.055	594514	keystroke_Key.backspace	Key.backspace	n/a
297.425	0.067	594850	keystroke_Key.backspace	Key.backspace	n/a
297.605	0.0675	595210	keystroke_Key.backspace	Key.backspace	n/a
297.796	0.067	595592	keystroke_Key.backspace	Key.backspace	n/a
298.0665	0.067	596133	keystroke_Key.backspace	Key.backspace	n/a
298.5945	0.0905	597189	keystroke_p	p	n/a
299.1345	0.0675	598269	keystroke_h	h	n/a
299.3485	0.0675	598697	keystroke_i	i	n/a
299.5625	0.067	599125	keystroke_l	l	n/a
299.922	0.0685	599844	keystroke_i	i	n/a
300.226	0.056	600452	keystroke_p	p	n/a
300.4505	0.09	600901	keystroke_p	p	n/a
300.6875	0.112	601375	keystroke_i	i	n/a
300.867	0.0905	601734	keystroke_n	n	n/a
301.047	0.0675	602094	keystroke_e	e	n/a
301.25	0.0785	602500	keystroke_s	s	n/a
301.396	0.0785	602792	keystroke_Key.space	Key.space	n/a
301.542	0.09	603084	keystroke_c	c	n/a
301.677	0.09	603354	keystroke_a	a	n/a
301.8235	0.112	603647	keystroke_t	t	n/a
301.9585	0.0895	603917	keystroke_a	a	n/a
302.172	0.0565	604344	keystroke_l	l	n/a
302.352	0.079	604704	keystroke_o	o	n/a
302.521	0.0785	605042	keystroke_g	g	n/a
302.657	0.0895	605314	keystroke_u	u	n/a
302.836	0.0785	605672	keystroke_e	e	n/a
303.2635	0.0675	606527	keystroke_Key.enter	Key.enter	n/a
303.3375	5.4395	606675	prompt	n/a	healthcare potato genes plans\n
304.0485	0.0925	608097	keystroke_h	h	n/a
304.1415	0.09	608283	keystroke_e	e	n/a
304.208	0.08	608416	keystroke_a	a	n/a
304.322	0.067	608644	keystroke_l	l	n/a
304.4455	0.0675	608891	keystroke_t	t	n/a
304.569	0.0785	609138	keystroke_h	h	n/a
304.9625	0.0895	609925	keystroke_c	c	n/a
305.132	0.1225	610264	keystroke_a	a	n/a
305.2995	0.1575	610599	keystroke_r	r	n/a
305.478	0.069	610956	keystroke_e	e	n/a
305.581	0.0785	611162	keystroke_Key.space	Key.space	n/a
305.727	0.158	611454	keystroke_p	p	n/a
305.93	0.0895	611860	keystroke_o	o	n/a
306.066	0.0885	612132	keystroke_t	t	n/a
306.166	0.114	612332	keystroke_a	a	n/a
306.267	0.0785	612534	keystroke_t	t	n/a
306.4025	0.0895	612805	keystroke_o	o	n/a
306.5595	0.09	613119	keystroke_Key.space	Key.space	n/a
306.7285	0.09	613457	keystroke_g	g	n/a
306.841	0.1015	613682	keystroke_e	e	n/a
306.987	0.1015	613974	keystroke_n	n	n/a
307.1445	0.1215	614289	keystroke_e	e	n/a
307.347	0.079	614694	keystroke_s	s	n/a
307.5505	0.0785	615101	keystroke_Key.space	Key.space	n/a
307.798	0.112	615596	keystroke_p	p	n/a
308	0.0805	616000	keystroke_l	l	n/a
308.146	0.1235	616292	keystroke_a	a	n/a
308.281	0.09	616562	keystroke_n	n	n/a
308.461	0.101	616922	keystroke_s	s	n/a
308.697	0.079	617394	keystroke_Key.enter	Key.enter	n/a
308.783	5.563	617566	prompt	n/a	atomic reports smoke determine\n
309.2935	0.0785	618587	keystroke_a	a	n/a
309.485	0.067	618970	keystroke_t	t	n/a
309.6315	0.123	619263	keystroke_o	o	n/a
309.7775	0.147	619555	keystroke_m	m	n/a
309.9125	0.0785	619825	keystroke_i	i	n/a
310.0135	0.0795	620027	keystroke_c	c	n/a
310.115	0.1015	620230	keystroke_Key.space	Key.space	n/a
310.274	0.122	620548	keystroke_r	r	n/a
310.341	0.1	620682	keystroke_e	e	n/a
310.52	0.101	621040	keystroke_p	p	n/a
310.6325	0.101	621265	keystroke_e	e	n/a
310.791	0.078	621582	keystroke_a	a	n/a
311.0485	0.0675	622097	keystroke_Key.backspace	Key.backspace	n/a
311.2285	0.079	622457	keystroke_Key.backspace	Key.backspace	n/a
311.465	0.0675	622930	keystroke_o	o	n/a
311.5775	0.0895	623155	keystroke_r	r	n/a
311.7685	0.0675	623537	keystroke_t	t	n/a
311.915	0.0895	623830	keystroke_s	s	n/a
311.994	0.067	623988	keystroke_Key.space	Key.space	n/a
312.1405	0.089	624281	keystroke_s	s	n/a
312.2635	0.135	624527	keystroke_m	m	n/a
312.41	0.0895	624820	keystroke_o	o	n/a
312.545	0.09	625090	keystroke_k	k	n/a
312.6465	0.101	625293	keystroke_e	e	n/a
312.725	0.067	625450	keystroke_Key.space	Key.space	n/a
312.8715	0.0785	625743	keystroke_d	d	n/a
313.051	0.1125	626102	keystroke_e	e	n/a
313.141	0.113	626282	keystroke_t	t	n/a
313.3215	0.101	626643	keystroke_e	e	n/a
313.3885	0.079	626777	keystroke_r	r	n/a
313.535	0.135	627070	keystroke_m	m	n/a
313.692	0.158	627384	keystroke_i	i	n/a
313.85	0.1345	627700	keystroke_n	n	n/a
314.041	0.068	628082	keystroke_e	e	n/a
314.277	0.068	628554	keystroke_Key.enter	Key.enter	n/a
314.3515	6.0355	628703	prompt	n/a	allergy european thereof savings\n
314.8625	0.0895	629725	keystroke_a	a	n/a
314.986	0.045	629972	keystroke_l	l	n/a
315.11	0.068	630220	keystroke_l	l	n/a
315.257	0.1005	630514	keystroke_e	e	n/a
315.3125	0.0675	630625	keystroke_r	r	n/a
315.5485	0.0115	631097	keystroke_g	g	n/a
315.6275	0.1015	631255	keystroke_y	y	n/a
315.841	0.079	631682	keystroke_Key.space	Key.space	n/a
316.3025	0.011	632605	keystroke_a	a	n/a
316.5505	0.0785	633101	keystroke_Key.backspace	Key.backspace	n/a
316.741	0.0785	633482	keystroke_e	e	n/a
316.831	0.102	633662	keystroke_u	u	n/a
316.977	0.08	633954	keystroke_r	r	n/a
317.08	0.1565	634160	keystroke_o	o	n/a
317.1915	0.1345	634383	keystroke_p	p	n/a
317.394	0.079	634788	keystroke_e	e	n/a
317.507	0.1	635014	keystroke_a	a	n/a
317.652	0.102	635304	keystroke_n	n	n/a
317.7765	0.101	635553	keystroke_Key.space	Key.space	n/a
317.9335	0.1015	635867	keystroke_t	t	n/a
318.0915	0.0895	636183	keystroke_h	h	n/a
318.192	0.0905	636384	keystroke_e	e	n/a
318.3385	0.1355	636677	keystroke_r	r	n/a
318.4515	0.1125	636903	keystroke_e	e	n/a
318.699	0.0895	637398	keystroke_o	o	n/a
318.8675	0.09	637735	keystroke_f	f	n/a
319.137	0.1035	638274	keystroke_Key.space	Key.space	n/a
319.341	0.089	638682	keystroke_s	s	n/a
319.4415	0.1015	638883	keystroke_a	a	n/a
319.599	0.112	639198	keystroke_v	v	n/a
319.7335	0.1355	639467	keystroke_i	i	n/a
319.8355	0.1345	639671	keystroke_n	n	n/a
319.959	0.101	639918	keystroke_g	g	n/a
320.105	0.09	640210	keystroke_s	s	n/a
320.3075	0.0785	640615	keystroke_Key.enter	Key.enter	n/a
320.393	10.053	640786	prompt	n/a	hostels belfast template involves\n
324.7285	0.068	649457	keystroke_h	h	n/a
324.9085	0.079	649817	keystroke_o	o	n/a
325.0325	0.0675	650065	keystroke_s	s	n/a
325.2125	0.0785	650425	keystroke_t	t	n/a
325.505	0.0905	651010	keystroke_e	e	n/a
325.73	0.057	651460	keystroke_l	l	n/a
325.876	0.0565	651752	keystroke_s	s	n/a
325.966	0.079	651932	keystroke_Key.space	Key.space	n/a
326.1235	0.079	652247	keystroke_b	b	n/a
326.2815	0.0895	652563	keystroke_e	e	n/a
326.4165	0.067	652833	keystroke_l	l	n/a
326.507	0.1005	653014	keystroke_f	f	n/a
326.641	0.1015	653282	keystroke_a	a	n/a
326.7535	0.1465	653507	keystroke_s	s	n/a
326.8885	0.1125	653777	keystroke_t	t	n/a
326.9785	0.0795	653957	keystroke_Key.space	Key.space	n/a
327.125	0.1125	654250	keystroke_t	t	n/a
327.2035	0.09	654407	keystroke_e	e	n/a
327.362	0.213	654724	keystroke_m	m	n/a
327.53	0.135	655060	keystroke_p	p	n/a
327.5975	0.101	655195	keystroke_l	l	n/a
327.7325	0.1125	655465	keystroke_a	a	n/a
327.857	0.1455	655714	keystroke_t	t	n/a
327.991	0.124	655982	keystroke_e	e	n/a
328.081	0.09	656162	keystroke_Key.space	Key.space	n/a
328.351	0.135	656702	keystroke_i	i	n/a
328.4635	0.1355	656927	keystroke_n	n	n/a
328.6795	0.0775	657359	keystroke_o	o	n/a
328.8125	0.102	657625	keystroke_v	v	n/a
329.105	0.045	658210	keystroke_Key.backspace	Key.backspace	n/a
329.229	0.0675	658458	keystroke_Key.backspace	Key.backspace	n/a
329.3755	0.101	658751	keystroke_v	v	n/a
329.488	0.0785	658976	keystroke_o	o	n/a
329.6675	0.0675	659335	keystroke_l	l	n/a
329.769	0.1015	659538	keystroke_v	v	n/a
329.8925	0.1695	659785	keystroke_e	e	n/a
329.9945	0.1235	659989	keystroke_s	s	n/a
330.3765	0.068	660753	keystroke_Key.enter	Key.enter	n/a
330.4545	5.165	660909	prompt	n/a	constant taylor classifieds kong\n
331.13	0.0225	662260	keystroke_c	c	n/a
331.141	0.079	662282	keystroke_o	o	n/a
331.1875	0.1115	662375	keystroke_n	n	n/a
331.3105	0.1135	662621	keystroke_s	s	n/a
331.4115	0.1015	662823	keystroke_t	t	n/a
331.524	0.0895	663048	keystroke_a	a	n/a
331.67	0.1015	663340	keystroke_n	n	n/a
331.7825	0.0915	663565	keystroke_t	t	n/a
331.8615	0.079	663723	keystroke_Key.space	Key.space	n/a
332.0525	0.079	664105	keystroke_t	t	n/a
332.154	0.101	664308	keystroke_a	a	n/a
332.244	0.113	664488	keystroke_y	y	n/a
332.469	0.0785	664938	keystroke_l	l	n/a
332.626	0.068	665252	keystroke_o	o	n/a
332.7505	0.1005	665501	keystroke_r	r	n/a
332.8295	0.0665	665659	keystroke_Key.space	Key.space	n/a
332.9975	0.079	665995	keystroke_c	c	n/a
333.1555	0.0895	666311	keystroke_l	l	n/a
333.2905	0.0675	666581	keystroke_a	a	n/a
333.459	0.0785	666918	keystroke_s	s	n/a
333.605	0.0785	667210	keystroke_s	s	n/a
333.7295	0.1005	667459	keystroke_i	i	n/a
333.8865	0.09	667773	keystroke_f	f	n/a
334.022	0.0895	668044	keystroke_i	i	n/a
334.157	0.078	668314	keystroke_e	e	n/a
334.348	0.101	668696	keystroke_d	d	n/a
334.46	0.102	668920	keystroke_s	s	n/a
334.584	0.09	669168	keystroke_Key.space	Key.space	n/a
334.764	0.0785	669528	keystroke_k	k	n/a
334.9665	0.169	669933	keystroke_o	o	n/a
335.124	0.1015	670248	keystroke_n	n	n/a
335.281	0.0905	670562	keystroke_g	g	n/a
335.5515	0.0675	671103	keystroke_Key.enter	Key.enter	n/a
335.625	5.553	671250	prompt	n/a	subdivision glad recommended beast\n
336.26	0.0675	672520	keystroke_s	s	n/a
336.395	0.079	672790	keystroke_u	u	n/a
336.485	0.1015	672970	keystroke_b	b	n/a
336.755	0.079	673510	keystroke_d	d	n/a
336.935	0.068	673870	keystroke_i	i	n/a
337.059	0.0785	674118	keystroke_v	v	n/a
337.1945	0.0785	674389	keystroke_i	i	n/a
337.3405	0.0785	674681	keystroke_s	s	n/a
337.464	0.1465	674928	keystroke_i	i	n/a
337.5995	0.1575	675199	keystroke_o	o	n/a
337.7455	0.1125	675491	keystroke_n	n	n/a
337.847	0.1235	675694	keystroke_Key.space	Key.space	n/a
338.049	0.101	676098	keystroke_g	g	n/a
338.195	0.1015	676390	keystroke_l	l	n/a
338.319	0.0565	676638	keystroke_a	a	n/a
338.488	0.101	676976	keystroke_d	d	n/a
338.6005	0.067	677201	keystroke_Key.space	Key.space	n/a
338.7015	0.1575	677403	keystroke_r	r	n/a
338.7915	0.101	677583	keystroke_e	e	n/a
338.994	0.09	677988	keystroke_c	c	n/a
339.107	0.101	678214	keystroke_o	o	n/a
339.1855	0.056	678371	keystroke_m	m	n/a
339.3425	0.079	678685	keystroke_m	m	n/a
339.4795	0.0775	678959	keystroke_e	e	n/a
339.591	0.0895	679182	keystroke_n	n	n/a
339.692	0.0785	679384	keystroke_d	d	n/a
339.8605	0.067	679721	keystroke_e	e	n/a
340.029	0.0675	680058	keystroke_d	d	n/a
340.119	0.079	680238	keystroke_Key.space	Key.space	n/a
340.2315	0.0905	680463	keystroke_b	b	n/a
340.4115	0.1015	680823	keystroke_e	e	n/a
340.524	0.135	681048	keystroke_a	a	n/a
340.67	0.1465	681340	keystroke_s	s	n/a
340.805	0.09	681610	keystroke_t	t	n/a
341.1095	0.0675	682219	keystroke_Key.enter	Key.enter	n/a
341.1835	5.068	682367	prompt	n/a	mature sleeping programs repository\n
341.8405	0.0895	683681	keystroke_m	m	n/a
341.919	0.101	683838	keystroke_a	a	n/a
342.0425	0.102	684085	keystroke_t	t	n/a
342.189	0.0905	684378	keystroke_u	u	n/a
342.302	0.135	684604	keystroke_r	r	n/a
342.392	0.1345	684784	keystroke_e	e	n/a
342.504	0.09	685008	keystroke_Key.space	Key.space	n/a
342.662	0.09	685324	keystroke_s	s	n/a
342.7855	0.067	685571	keystroke_l	l	n/a
342.9095	0.0675	685819	keystroke_e	e	n/a
343.067	0.067	686134	keystroke_e	e	n/a
343.1905	0.1345	686381	keystroke_p	p	n/a
343.37	0.1355	686740	keystroke_i	i	n/a
343.46	0.114	686920	keystroke_n	n	n/a
343.5505	0.079	687101	keystroke_g	g	n/a
343.596	0.0895	687192	keystroke_Key.space	Key.space	n/a
343.753	0.1125	687506	keystroke_p	p	n/a
343.888	0.079	687776	keystroke_r	r	n/a
343.9905	0.0775	687981	keystroke_o	o	n/a
344.091	0.0555	688182	keystroke_g	g	n/a
344.271	0.0895	688542	keystroke_r	r	n/a
344.338	0.09	688676	keystroke_a	a	n/a
344.462	0.0895	688924	keystroke_m	m	n/a
344.5745	0.09	689149	keystroke_s	s	n/a
344.653	0.079	689306	keystroke_Key.space	Key.space	n/a
344.811	0.113	689622	keystroke_r	r	n/a
344.88	0.099	689760	keystroke_e	e	n/a
345.036	0.146	690072	keystroke_p	p	n/a
345.137	0.124	690274	keystroke_o	o	n/a
345.2835	0.0785	690567	keystroke_s	s	n/a
345.396	0.0785	690792	keystroke_i	i	n/a
345.519	0.0795	691038	keystroke_t	t	n/a
345.609	0.09	691218	keystroke_o	o	n/a
345.7665	0.0675	691533	keystroke_r	r	n/a
345.845	0.102	691690	keystroke_y	y	n/a
346.172	0.0785	692344	keystroke_Key.enter	Key.enter	n/a
346.2565	5.3615	692513	prompt	n/a	political ending utilization exemption\n
346.8915	0.1125	693783	keystroke_p	p	n/a
346.9815	0.09	693963	keystroke_o	o	n/a
347.2075	0.1115	694415	keystroke_l	l	n/a
347.286	0.0895	694572	keystroke_i	i	n/a
347.4545	0.067	694909	keystroke_t	t	n/a
347.5445	0.079	695089	keystroke_i	i	n/a
347.634	0.1125	695268	keystroke_c	c	n/a
347.724	0.0905	695448	keystroke_a	a	n/a
347.8485	0.0895	695697	keystroke_l	l	n/a
347.9155	0.0915	695831	keystroke_Key.space	Key.space	n/a
348.0845	0.0785	696169	keystroke_e	e	n/a
348.1965	0.1125	696393	keystroke_n	n	n/a
348.298	0.0895	696596	keystroke_d	d	n/a
348.4555	0.124	696911	keystroke_i	i	n/a
348.534	0.113	697068	keystroke_n	n	n/a
348.591	0.0895	697182	keystroke_g	g	n/a
348.658	0.0675	697316	keystroke_Key.space	Key.space	n/a
348.8155	0.101	697631	keystroke_u	u	n/a
348.9505	0.079	697901	keystroke_t	t	n/a
349.0855	0.135	698171	keystroke_i	i	n/a
349.1875	0.17	698375	keystroke_l	l	n/a
349.2995	0.112	698599	keystroke_i	i	n/a
349.4245	0.089	698849	keystroke_z	z	n/a
349.592	0.1235	699184	keystroke_a	a	n/a
349.682	0.067	699364	keystroke_t	t	n/a
349.7605	0.214	699521	keystroke_i	i	n/a
349.841	0.145	699682	keystroke_o	o	n/a
349.952	0.112	699904	keystroke_n	n	n/a
350.0415	0.0905	700083	keystroke_Key.space	Key.space	n/a
350.177	0.0785	700354	keystroke_e	e	n/a
350.413	0.0675	700826	keystroke_x	x	n/a
350.593	0.0785	701186	keystroke_e	e	n/a
350.7505	0.1125	701501	keystroke_m	m	n/a
350.8295	0.101	701659	keystroke_p	p	n/a
350.953	0.09	701906	keystroke_t	t	n/a
351.0765	0.135	702153	keystroke_i	i	n/a
351.1575	0.1895	702315	keystroke_o	o	n/a
351.3135	0.1235	702627	keystroke_n	n	n/a
351.538	0.079	703076	keystroke_Key.enter	Key.enter	n/a
351.6245	4.6845	703249	prompt	n/a	safely touched segments wants\n
352.134	0.079	704268	keystroke_s	s	n/a
352.258	0.1235	704516	keystroke_a	a	n/a
352.371	0.1005	704742	keystroke_f	f	n/a
352.54	0.0895	705080	keystroke_e	e	n/a
352.809	0.09	705618	keystroke_l	l	n/a
353.0115	0.09	706023	keystroke_y	y	n/a
353.1355	0.09	706271	keystroke_Key.space	Key.space	n/a
353.3265	0.068	706653	keystroke_t	t	n/a
353.4505	0.1125	706901	keystroke_o	o	n/a
353.529	0.1015	707058	keystroke_u	u	n/a
353.6415	0.0905	707283	keystroke_c	c	n/a
353.766	0.101	707532	keystroke_h	h	n/a
353.857	0.0885	707714	keystroke_e	e	n/a
354.058	0.09	708116	keystroke_d	d	n/a
354.182	0.079	708364	keystroke_Key.space	Key.space	n/a
354.261	0.101	708522	keystroke_s	s	n/a
354.407	0.079	708814	keystroke_e	e	n/a
354.5645	0.09	709129	keystroke_g	g	n/a
354.699	0.0915	709398	keystroke_m	m	n/a
354.879	0.0905	709758	keystroke_e	e	n/a
354.9355	0.1015	709871	keystroke_n	n	n/a
355.071	0.078	710142	keystroke_t	t	n/a
355.217	0.09	710434	keystroke_s	s	n/a
355.318	0.101	710636	keystroke_Key.space	Key.space	n/a
355.453	0.124	710906	keystroke_w	w	n/a
355.566	0.091	711132	keystroke_a	a	n/a
355.7235	0.113	711447	keystroke_n	n	n/a
355.847	0.0565	711694	keystroke_t	t	n/a
355.9815	0.09	711963	keystroke_s	s	n/a
356.2635	0.0445	712527	keystroke_Key.enter	Key.enter	n/a
356.314	5.1945	712628	prompt	n/a	mathematical anybody issued grill\n
356.8825	0.101	713765	keystroke_m	m	n/a
356.983	0.1355	713966	keystroke_a	a	n/a
357.0845	0.1015	714169	keystroke_t	t	n/a
357.2415	0.079	714483	keystroke_h	h	n/a
357.354	0.068	714708	keystroke_e	e	n/a
357.479	0.112	714958	keystroke_m	m	n/a
357.636	0.09	715272	keystroke_a	a	n/a
357.692	0.0905	715384	keystroke_t	t	n/a
357.838	0.079	715676	keystroke_i	i	n/a
357.9055	0.1235	715811	keystroke_c	c	n/a
357.9875	0.087	715975	keystroke_a	a	n/a
358.1305	0.09	716261	keystroke_l	l	n/a
358.2315	0.079	716463	keystroke_Key.space	Key.space	n/a
358.3215	0.0795	716643	keystroke_a	a	n/a
358.434	0.1075	716868	keystroke_n	n	n/a
358.749	0.091	717498	keystroke_y	y	n/a
358.9635	0.067	717927	keystroke_b	b	n/a
359.1095	0.0895	718219	keystroke_o	o	n/a
359.2415	0.059	718483	keystroke_d	d	n/a
359.3575	0.089	718715	keystroke_y	y	n/a
359.458	0.0905	718916	keystroke_Key.space	Key.space	n/a
359.6435	0.0735	719287	keystroke_i	i	n/a
359.7615	0.0565	719523	keystroke_s	s	n/a
359.919	0.0795	719838	keystroke_s	s	n/a
360.088	0.0905	720176	keystroke_u	u	n/a
360.224	0.067	720448	keystroke_e	e	n/a
360.4145	0.0675	720829	keystroke_d	d	n/a
360.493	0.09	720986	keystroke_Key.space	Key.space	n/a
360.6625	0.0785	721325	keystroke_g	g	n/a
360.8195	0.0905	721639	keystroke_r	r	n/a
360.8985	0.146	721797	keystroke_i	i	n/a
361.0115	0.1005	722023	keystroke_l	l	n/a
361.213	0.068	722426	keystroke_l	l	n/a
361.438	0.069	722876	keystroke_Key.enter	Key.enter	n/a
361.515	5.6165	723030	prompt	n/a	coleman significantly promote otherwise\n
362.0795	0.1015	724159	keystroke_c	c	n/a
362.1915	0.068	724383	keystroke_o	o	n/a
362.349	0.0915	724698	keystroke_l	l	n/a
362.4505	0.079	724901	keystroke_e	e	n/a
362.5745	0.09	725149	keystroke_m	m	n/a
362.766	0.091	725532	keystroke_a	a	n/a
362.9005	0.09	725801	keystroke_n	n	n/a
363.0135	0.09	726027	keystroke_Key.space	Key.space	n/a
363.1375	0.0555	726275	keystroke_s	s	n/a
363.238	0.079	726476	keystroke_i	i	n/a
363.3405	0.0775	726681	keystroke_g	g	n/a
363.4745	0.1235	726949	keystroke_n	n	n/a
363.553	0.09	727106	keystroke_i	i	n/a
363.677	0.0675	727354	keystroke_f	f	n/a
363.778	0.1125	727556	keystroke_i	i	n/a
363.9135	0.0785	727827	keystroke_c	c	n/a
363.981	0.101	727962	keystroke_a	a	n/a
364.093	0.1015	728186	keystroke_n	n	n/a
364.2175	0.078	728435	keystroke_t	t	n/a
364.3635	0.1235	728727	keystroke_l	l	n/a
364.476	0.101	728952	keystroke_y	y	n/a
364.5545	0.0905	729109	keystroke_Key.space	Key.space	n/a
364.712	0.1015	729424	keystroke_p	p	n/a
364.8245	0.09	729649	keystroke_r	r	n/a
364.948	0.1355	729896	keystroke_o	o	n/a
365.095	0.1455	730190	keystroke_m	m	n/a
365.229	0.079	730458	keystroke_o	o	n/a
365.376	0.09	730752	keystroke_t	t	n/a
365.567	0.09	731134	keystroke_e	e	n/a
365.668	0.0905	731336	keystroke_Key.space	Key.space	n/a
365.8595	0.0785	731719	keystroke_o	o	n/a
365.9835	0.079	731967	keystroke_t	t	n/a
366.0735	0.101	732147	keystroke_h	h	n/a
366.197	0.09	732394	keystroke_e	e	n/a
366.2305	0.09	732461	keystroke_r	r	n/a
366.3885	0.09	732777	keystroke_w	w	n/a
366.557	0.068	733114	keystroke_i	i	n/a
366.6925	0.1345	733385	keystroke_s	s	n/a
366.793	0.1015	733586	keystroke_e	e	n/a
367.0635	0.067	734127	keystroke_Key.enter	Key.enter	n/a
367.1365	4.529	734273	prompt	n/a	serve fantasy another fair\n
367.75	0.0905	735500	keystroke_s	s	n/a
367.8285	0.146	735657	keystroke_e	e	n/a
367.93	0.0895	735860	keystroke_r	r	n/a
368.1205	0.147	736241	keystroke_v	v	n/a
368.257	0.1	736514	keystroke_e	e	n/a
368.391	0.0675	736782	keystroke_Key.space	Key.space	n/a
368.4925	0.112	736985	keystroke_f	f	n/a
368.593	0.0905	737186	keystroke_a	a	n/a
368.74	0.101	737480	keystroke_n	n	n/a
368.8415	0.078	737683	keystroke_t	t	n/a
368.953	0.0795	737906	keystroke_a	a	n/a
369.111	0.0895	738222	keystroke_s	s	n/a
369.302	0.101	738604	keystroke_y	y	n/a
369.4255	0.0675	738851	keystroke_Key.space	Key.space	n/a
369.5155	0.079	739031	keystroke_s	s	n/a
369.5945	0.135	739189	keystroke_a	a	n/a
369.797	0.0565	739594	keystroke_Key.backspace	Key.backspace	n/a
369.9435	0.0785	739887	keystroke_Key.backspace	Key.backspace	n/a
370.09	0.1125	740180	keystroke_a	a	n/a
370.236	0.1015	740472	keystroke_n	n	n/a
370.4155	0.068	740831	keystroke_o	o	n/a
370.5405	0.0895	741081	keystroke_t	t	n/a
370.663	0.0905	741326	keystroke_h	h	n/a
370.753	0.1125	741506	keystroke_e	e	n/a
370.7985	0.112	741597	keystroke_r	r	n/a
370.8995	0.068	741799	keystroke_Key.space	Key.space	n/a
371.0005	0.1125	742001	keystroke_f	f	n/a
371.125	0.0785	742250	keystroke_a	a	n/a
371.2485	0.0895	742497	keystroke_i	i	n/a
371.407	0.0665	742814	keystroke_r	r	n/a
371.597	0.0675	743194	keystroke_Key.enter	Key.enter	n/a
371.6705	8.067	743341	prompt	n/a	pharmaceutical promise greeting permalink\n
372.3735	0.1125	744747	keystroke_p	p	n/a
372.5305	0.09	745061	keystroke_h	h	n/a
372.6995	0.135	745399	keystroke_a	a	n/a
372.8005	0.1015	745601	keystroke_r	r	n/a
372.9695	0.1015	745939	keystroke_m	m	n/a
373.1155	0.0795	746231	keystroke_a	a	n/a
373.768	0.079	747536	keystroke_c	c	n/a
373.9705	0.0675	747941	keystroke_e	e	n/a
374.1405	0.089	748281	keystroke_u	u	n/a
374.2635	0.0895	748527	keystroke_t	t	n/a
374.3985	0.0895	748797	keystroke_i	i	n/a
374.522	0.1015	749044	keystroke_c	c	n/a
374.6345	0.101	749269	keystroke_a	a	n/a
374.7695	0.079	749539	keystroke_l	l	n/a
374.871	0.09	749742	keystroke_Key.space	Key.space	n/a
375.007	0.1005	750014	keystroke_p	p	n/a
375.1295	0.0785	750259	keystroke_r	r	n/a
375.253	0.1015	750506	keystroke_o	o	n/a
375.3435	0.157	750687	keystroke_m	m	n/a
375.49	0.09	750980	keystroke_i	i	n/a
375.625	0.1005	751250	keystroke_s	s	n/a
375.7485	0.0895	751497	keystroke_Key.space	Key.space	n/a
376.28	0.067	752560	keystroke_Key.backspace	Key.backspace	n/a
376.458	0.0785	752916	keystroke_e	e	n/a
376.5705	0.068	753141	keystroke_Key.space	Key.space	n/a
376.705	0.0905	753410	keystroke_c	c	n/a
376.9415	0.0445	753883	keystroke_r	r	n/a
377.0875	0.0555	754175	keystroke_Key.backspace	Key.backspace	n/a
377.234	0.0665	754468	keystroke_Key.backspace	Key.backspace	n/a
377.3695	0.056	754739	keystroke_g	g	n/a
377.572	0.112	755144	keystroke_r	r	n/a
377.651	0.089	755302	keystroke_e	e	n/a
377.808	0.0785	755616	keystroke_e	e	n/a
377.9765	0.0905	755953	keystroke_t	t	n/a
378.135	0.111	756270	keystroke_i	i	n/a
378.213	0.113	756426	keystroke_n	n	n/a
378.311	0.0825	756622	keystroke_g	g	n/a
378.3715	0.0785	756743	keystroke_Key.space	Key.space	n/a
378.51	0.115	757020	keystroke_p	p	n/a
378.6295	0.083	757259	keystroke_e	e	n/a
378.665	0.0895	757330	keystroke_r	r	n/a
378.809	0.102	757618	keystroke_m	m	n/a
378.933	0.0785	757866	keystroke_a	a	n/a
379.0585	0.165	758117	keystroke_l	l	n/a
379.18	0.1355	758360	keystroke_i	i	n/a
379.2935	0.1565	758587	keystroke_n	n	n/a
379.4165	0.1255	758833	keystroke_k	k	n/a
379.664	0.0675	759328	keystroke_Key.enter	Key.enter	n/a
379.748	5.8905	759496	prompt	n/a	occupational procedure provision dana\n
380.372	0.079	760744	keystroke_o	o	n/a
380.496	0.0565	760992	keystroke_c	c	n/a
380.6195	0.079	761239	keystroke_c	c	n/a
380.744	0.09	761488	keystroke_u	u	n/a
380.924	0.1005	761848	keystroke_p	p	n/a
381.0585	0.09	762117	keystroke_a	a	n/a
381.1145	0.079	762229	keystroke_t	t	n/a
381.216	0.169	762432	keystroke_i	i	n/a
381.2835	0.158	762567	keystroke_o	o	n/a
381.43	0.101	762860	keystroke_n	n	n/a
381.5645	0.079	763129	keystroke_a	a	n/a
381.679	0.078	763358	keystroke_l	l	n/a
381.8005	0.1015	763601	keystroke_Key.space	Key.space	n/a
381.948	0.1005	763896	keystroke_p	p	n/a
382.0605	0.134	764121	keystroke_r	r	n/a
382.161	0.0895	764322	keystroke_e	e	n/a
382.5095	0.045	765019	keystroke_Key.backspace	Key.backspace	n/a
382.7005	0.068	765401	keystroke_o	o	n/a
382.8245	0.09	765649	keystroke_c	c	n/a
383.0495	0.068	766099	keystroke_e	e	n/a
383.241	0.0785	766482	keystroke_d	d	n/a
383.3645	0.0785	766729	keystroke_u	u	n/a
383.4795	0.121	766959	keystroke_r	r	n/a
383.5905	0.1005	767181	keystroke_e	e	n/a
383.725	0.09	767450	keystroke_Key.space	Key.space	n/a
383.893	0.114	767786	keystroke_p	p	n/a
384.017	0.0675	768034	keystroke_r	r	n/a
384.118	0.079	768236	keystroke_o	o	n/a
384.2195	0.09	768439	keystroke_v	v	n/a
384.343	0.057	768686	keystroke_i	i	n/a
384.445	0.079	768890	keystroke_s	s	n/a
384.5345	0.1465	769069	keystroke_i	i	n/a
384.625	0.1345	769250	keystroke_o	o	n/a
384.748	0.1015	769496	keystroke_n	n	n/a
384.8155	0.0915	769631	keystroke_Key.space	Key.space	n/a
384.962	0.102	769924	keystroke_d	d	n/a
385.0525	0.0785	770105	keystroke_a	a	n/a
385.1765	0.135	770353	keystroke_n	n	n/a
385.311	0.0675	770622	keystroke_a	a	n/a
385.592	0.0455	771184	keystroke_Key.enter	Key.enter	n/a
385.6435	5.8005	771287	prompt	n/a	emperor unless charlie lingerie\n
386.2785	0.056	772557	keystroke_e	e	n/a
386.368	0.1575	772736	keystroke_m	m	n/a
386.526	0.101	773052	keystroke_p	p	n/a
386.707	0.111	773414	keystroke_e	e	n/a
386.807	0.101	773614	keystroke_r	r	n/a
386.976	0.068	773952	keystroke_o	o	n/a
387.078	0.079	774156	keystroke_r	r	n/a
387.257	0.0675	774514	keystroke_Key.space	Key.space	n/a
387.527	0.068	775054	keystroke_u	u	n/a
387.674	0.112	775348	keystroke_n	n	n/a
387.8875	0.056	775775	keystroke_l	l	n/a
387.9885	0.056	775977	keystroke_e	e	n/a
388.1575	0.0555	776315	keystroke_s	s	n/a
388.2925	0.1005	776585	keystroke_s	s	n/a
388.371	0.0785	776742	keystroke_Key.space	Key.space	n/a
388.54	0.067	777080	keystroke_c	c	n/a
388.6075	0.157	777215	keystroke_h	h	n/a
388.787	0.124	777574	keystroke_a	a	n/a
388.866	0.0915	777732	keystroke_r	r	n/a
389.046	0.135	778092	keystroke_l	l	n/a
389.136	0.101	778272	keystroke_i	i	n/a
389.282	0.1125	778564	keystroke_e	e	n/a
389.3835	0.0675	778767	keystroke_Key.space	Key.space	n/a
389.5185	0.146	779037	keystroke_l	l	n/a
389.631	0.158	779262	keystroke_i	i	n/a
389.7665	0.1245	779533	keystroke_n	n	n/a
389.901	0.09	779802	keystroke_g	g	n/a
390.081	0.09	780162	keystroke_e	e	n/a
390.295	0.0675	780590	keystroke_r	r	n/a
390.43	0.0785	780860	keystroke_i	i	n/a
390.5645	0.0675	781129	keystroke_e	e	n/a
391.364	0.078	782728	keystroke_Key.enter	Key.enter	n/a
391.449	6.2715	782898	prompt	n/a	honor airports today driving\n
392.219	0.0895	784438	keystroke_h	h	n/a
392.4095	0.1145	784819	keystroke_o	o	n/a
392.512	0.102	785024	keystroke_n	n	n/a
392.725	0.0675	785450	keystroke_o	o	n/a
392.8485	0.101	785697	keystroke_r	r	n/a
392.9735	0.1	785947	keystroke_Key.space	Key.space	n/a
393.546	0.068	787092	keystroke_a	a	n/a
393.6695	0.079	787339	keystroke_i	i	n/a
393.782	0.0675	787564	keystroke_r	r	n/a
393.929	0.123	787858	keystroke_p	p	n/a
394.0295	0.0675	788059	keystroke_o	o	n/a
394.154	0.056	788308	keystroke_r	r	n/a
394.3005	0.078	788601	keystroke_t	t	n/a
394.457	0.0905	788914	keystroke_s	s	n/a
394.5815	0.09	789163	keystroke_Key.space	Key.space	n/a
395.6045	0.079	791209	keystroke_t	t	n/a
395.751	0.09	791502	keystroke_o	o	n/a
395.8865	0.101	791773	keystroke_d	d	n/a
395.954	0.101	791908	keystroke_a	a	n/a
396.201	0.0675	792402	keystroke_y	y	n/a
396.291	0.09	792582	keystroke_Key.space	Key.space	n/a
396.482	0.0565	792964	keystroke_d	d	n/a
396.607	0.089	793214	keystroke_r	r	n/a
396.752	0.079	793504	keystroke_i	i	n/a
396.8535	0.09	793707	keystroke_v	v	n/a
396.9775	0.1345	793955	keystroke_i	i	n/a
397.079	0.135	794158	keystroke_n	n	n/a
397.2475	0.045	794495	keystroke_g	g	n/a
397.6415	0.078	795283	keystroke_Key.enter	Key.enter	n/a
397.7275	5.1135	795455	prompt	n/a	finals lets sacramento alloy\n
398.642	0.0795	797284	keystroke_f	f	n/a
398.777	0.113	797554	keystroke_i	i	n/a
398.8445	0.113	797689	keystroke_n	n	n/a
398.9795	0.0905	797959	keystroke_a	a	n/a
399.115	0.0785	798230	keystroke_l	l	n/a
399.216	0.068	798432	keystroke_s	s	n/a
399.3175	0.0675	798635	keystroke_Key.space	Key.space	n/a
399.486	0.0785	798972	keystroke_l	l	n/a
399.576	0.1125	799152	keystroke_e	e	n/a
399.6325	0.092	799265	keystroke_t	t	n/a
399.8345	0.068	799669	keystroke_s	s	n/a
399.959	0.0785	799918	keystroke_Key.space	Key.space	n/a
400.1945	0.079	800389	keystroke_s	s	n/a
400.3185	0.09	800637	keystroke_a	a	n/a
400.4875	0.0795	800975	keystroke_c	c	n/a
400.6905	0.112	801381	keystroke_r	r	n/a
400.802	0.0795	801604	keystroke_a	a	n/a
401.016	0.113	802032	keystroke_m	m	n/a
401.1625	0.079	802325	keystroke_e	e	n/a
401.2865	0.1005	802573	keystroke_n	n	n/a
401.365	0.0895	802730	keystroke_t	t	n/a
401.5675	0.067	803135	keystroke_o	o	n/a
401.657	0.079	803314	keystroke_Key.space	Key.space	n/a
401.77	0.0905	803540	keystroke_a	a	n/a
401.882	0.0565	803764	keystroke_l	l	n/a
402.0285	0.068	804057	keystroke_l	l	n/a
402.1975	0.135	804395	keystroke_o	o	n/a
402.344	0.0895	804688	keystroke_y	y	n/a
402.771	0.0675	805542	keystroke_Key.enter	Key.enter	n/a
402.846	6.2375	805692	prompt	n/a	faqs budapest kinds consolidation\n
403.5025	0.1015	807005	keystroke_f	f	n/a
403.885	0.101	807770	keystroke_a	a	n/a
404.121	0.0905	808242	keystroke_q	q	n/a
404.3915	0.0785	808783	keystroke_s	s	n/a
404.605	0.09	809210	keystroke_Key.space	Key.space	n/a
404.864	0.0895	809728	keystroke_b	b	n/a
405.0665	0.091	810133	keystroke_u	u	n/a
405.2125	0.0785	810425	keystroke_d	d	n/a
405.302	0.1015	810604	keystroke_a	a	n/a
405.4935	0.113	810987	keystroke_p	p	n/a
405.719	0.067	811438	keystroke_e	e	n/a
405.8875	0.1135	811775	keystroke_s	s	n/a
405.9775	0.1625	811955	keystroke_t	t	n/a
406.201	0.0615	812402	keystroke_Key.space	Key.space	n/a
406.3485	0.07	812697	keystroke_k	k	n/a
406.52	0.1325	813040	keystroke_i	i	n/a
406.621	0.11	813242	keystroke_n	n	n/a
406.745	0.1555	813490	keystroke_d	d	n/a
406.8565	0.104	813713	keystroke_s	s	n/a
406.9905	0.078	813981	keystroke_Key.space	Key.space	n/a
407.1375	0.066	814275	keystroke_c	c	n/a
407.264	0.091	814528	keystroke_o	o	n/a
407.519	0.1125	815038	keystroke_n	n	n/a
407.7	0.07	815400	keystroke_s	s	n/a
407.8465	0.09	815693	keystroke_o	o	n/a
408.0375	0.1115	816075	keystroke_l	l	n/a
408.1065	0.0885	816213	keystroke_i	i	n/a
408.25	0.069	816500	keystroke_d	d	n/a
408.365	0.125	816730	keystroke_a	a	n/a
408.475	0.084	816950	keystroke_t	t	n/a
408.5665	0.1935	817133	keystroke_i	i	n/a
408.659	0.145	817318	keystroke_o	o	n/a
408.786	0.109	817572	keystroke_n	n	n/a
409.004	0.079	818008	keystroke_Key.enter	Key.enter	n/a
409.089	5.4435	818178	prompt	n/a	conversation abortion refers criticism\n
409.649	0.0915	819298	keystroke_c	c	n/a
409.7475	0.124	819495	keystroke_o	o	n/a
409.833	0.1035	819666	keystroke_n	n	n/a
409.938	0.0785	819876	keystroke_v	v	n/a
410.133	0.1015	820266	keystroke_e	e	n/a
410.2015	0.0775	820403	keystroke_r	r	n/a
410.358	0.0905	820716	keystroke_s	s	n/a
410.4815	0.113	820963	keystroke_a	a	n/a
410.583	0.091	821166	keystroke_t	t	n/a
410.6845	0.1685	821369	keystroke_i	i	n/a
410.774	0.124	821548	keystroke_o	o	n/a
410.8645	0.135	821729	keystroke_n	n	n/a
410.9435	0.0895	821887	keystroke_Key.space	Key.space	n/a
411.1005	0.1125	822201	keystroke_a	a	n/a
411.1905	0.101	822381	keystroke_b	b	n/a
411.4155	0.0915	822831	keystroke_o	o	n/a
411.5405	0.067	823081	keystroke_r	r	n/a
411.708	0.0675	823416	keystroke_t	t	n/a
411.809	0.1575	823618	keystroke_i	i	n/a
411.899	0.135	823798	keystroke_o	o	n/a
411.99	0.1115	823980	keystroke_n	n	n/a
412.068	0.101	824136	keystroke_Key.space	Key.space	n/a
412.214	0.1465	824428	keystroke_r	r	n/a
412.3155	0.1125	824631	keystroke_e	e	n/a
412.484	0.1125	824968	keystroke_f	f	n/a
412.653	0.124	825306	keystroke_e	e	n/a
412.7315	0.09	825463	keystroke_r	r	n/a
412.912	0.0785	825824	keystroke_s	s	n/a
413.0135	0.09	826027	keystroke_Key.space	Key.space	n/a
413.1815	0.1015	826363	keystroke_c	c	n/a
413.3955	0.0675	826791	keystroke_r	r	n/a
413.486	0.067	826972	keystroke_i	i	n/a
413.598	0.0675	827196	keystroke_t	t	n/a
413.7105	0.0795	827421	keystroke_i	i	n/a
413.8005	0.09	827601	keystroke_c	c	n/a
413.9465	0.0785	827893	keystroke_i	i	n/a
414.048	0.0675	828096	keystroke_s	s	n/a
414.183	0.1125	828366	keystroke_m	m	n/a
414.4755	0.056	828951	keystroke_Key.enter	Key.enter	n/a
414.5375	4.0675	829075	prompt	n/a	schema she's boxed replace\n
415.14	0.0665	830280	keystroke_s	s	n/a
415.2965	0.079	830593	keystroke_c	c	n/a
415.409	0.079	830818	keystroke_h	h	n/a
415.5215	0.0565	831043	keystroke_e	e	n/a
415.6455	0.0905	831291	keystroke_m	m	n/a
415.736	0.09	831472	keystroke_a	a	n/a
415.871	0.078	831742	keystroke_Key.space	Key.space	n/a
416.0065	0.0895	832013	keystroke_s	s	n/a
416.129	0.0795	832258	keystroke_h	h	n/a
416.2305	0.0675	832461	keystroke_e	e	n/a
416.3655	0.09	832731	keystroke_'	'	n/a
416.49	0.078	832980	keystroke_s	s	n/a
416.6015	0.079	833203	keystroke_Key.space	Key.space	n/a
416.7365	0.0905	833473	keystroke_b	b	n/a
416.838	0.0685	833676	keystroke_o	o	n/a
416.9505	0.0785	833901	keystroke_x	x	n/a
417.1415	0.0565	834283	keystroke_e	e	n/a
417.299	0.091	834598	keystroke_d	d	n/a
417.4005	0.0785	834801	keystroke_Key.space	Key.space	n/a
417.558	0.135	835116	keystroke_r	r	n/a
417.659	0.113	835318	keystroke_e	e	n/a
417.817	0.101	835634	keystroke_p	p	n/a
417.884	0.1015	835768	keystroke_l	l	n/a
417.9965	0.1125	835993	keystroke_a	a	n/a
418.1205	0.101	836241	keystroke_c	c	n/a
418.3235	0.067	836647	keystroke_e	e	n/a
418.548	0.056	837096	keystroke_Key.enter	Key.enter	n/a
418.61	19.21	837220	prompt	n/a	discipline carries basin emails\n
419.2235	0.078	838447	keystroke_d	d	n/a
419.336	0.0555	838672	keystroke_i	i	n/a
419.4145	0.067	838829	keystroke_s	s	n/a
419.5605	0.0675	839121	keystroke_i	i	n/a
419.6165	0.102	839233	keystroke_c	c	n/a
419.8305	0.146	839661	keystroke_p	p	n/a
419.999	0.1255	839998	keystroke_l	l	n/a
420.101	0.1795	840202	keystroke_i	i	n/a
420.236	0.123	840472	keystroke_n	n	n/a
420.3935	0.113	840787	keystroke_e	e	n/a
420.5615	0.09	841123	keystroke_Key.space	Key.space	n/a
422.0015	0.034	844003	keystroke_Key.backspace	Key.backspace	n/a
422.148	0.056	844296	keystroke_Key.backspace	Key.backspace	n/a
422.3505	0.0115	844701	keystroke_Key.backspace	Key.backspace	n/a
422.4515	0.057	844903	keystroke_Key.backspace	Key.backspace	n/a
422.598	0.068	845196	keystroke_Key.backspace	Key.backspace	n/a
422.744	0.0565	845488	keystroke_Key.backspace	Key.backspace	n/a
422.8905	0.056	845781	keystroke_Key.backspace	Key.backspace	n/a
423.048	0.0455	846096	keystroke_Key.backspace	Key.backspace	n/a
423.194	0.057	846388	keystroke_Key.backspace	Key.backspace	n/a
423.4085	0.0555	846817	keystroke_Key.backspace	Key.backspace	n/a
423.9815	0.0565	847963	keystroke_Key.backspace	Key.backspace	n/a
424.297	0.056	848594	keystroke_d	d	n/a
424.398	0.0795	848796	keystroke_i	i	n/a
424.533	0.0675	849066	keystroke_s	s	n/a
424.769	0.079	849538	keystroke_c	c	n/a
424.938	0.0785	849876	keystroke_i	i	n/a
425.1635	0.112	850327	keystroke_p	p	n/a
425.391	0.076	850782	keystroke_l	l	n/a
425.6025	0.135	851205	keystroke_i	i	n/a
425.7195	0.119	851439	keystroke_n	n	n/a
425.8835	0.079	851767	keystroke_e	e	n/a
425.977	0.0755	851954	keystroke_Key.space	Key.space	n/a
426.176	0.079	852352	keystroke_c	c	n/a
426.3255	0.1	852651	keystroke_h	h	n/a
426.446	0.1235	852892	keystroke_a	a	n/a
426.5355	0.09	853071	keystroke_r	r	n/a
426.7265	0.09	853453	keystroke_i	i	n/a
426.8735	0.123	853747	keystroke_e	e	n/a
426.9515	0.135	853903	keystroke_s	s	n/a
427.143	0.0785	854286	keystroke_Key.space	Key.space	n/a
427.3455	0.0785	854691	keystroke_b	b	n/a
427.503	0.068	855006	keystroke_a	a	n/a
427.548	0.09	855096	keystroke_s	s	n/a
427.7615	0.147	855523	keystroke_i	i	n/a
427.8515	0.124	855703	keystroke_n	n	n/a
427.998	0.09	855996	keystroke_Key.space	Key.space	n/a
428.1215	0.09	856243	keystroke_e	e	n/a
428.2575	0.1115	856515	keystroke_m	m	n/a
428.3585	0.0895	856717	keystroke_a	a	n/a
428.527	0.135	857054	keystroke_l	l	n/a
428.9655	0.045	857931	keystroke_Key.backspace	Key.backspace	n/a
429.1685	0.123	858337	keystroke_i	i	n/a
429.281	0.112	858562	keystroke_l	l	n/a
429.4605	0.0795	858921	keystroke_s	s	n/a
430.4505	0.0335	860901	keystroke_Key.backspace	Key.backspace	n/a
430.608	0.045	861216	keystroke_Key.backspace	Key.backspace	n/a
430.754	0.045	861508	keystroke_Key.backspace	Key.backspace	n/a
430.9125	0.045	861825	keystroke_Key.backspace	Key.backspace	n/a
431.058	0.056	862116	keystroke_Key.backspace	Key.backspace	n/a
431.204	0.0675	862408	keystroke_Key.backspace	Key.backspace	n/a
431.3735	0.067	862747	keystroke_Key.backspace	Key.backspace	n/a
431.542	0.056	863084	keystroke_Key.backspace	Key.backspace	n/a
431.7105	0.0675	863421	keystroke_Key.backspace	Key.backspace	n/a
431.868	0.0675	863736	keystroke_Key.backspace	Key.backspace	n/a
432.0255	0.0675	864051	keystroke_Key.backspace	Key.backspace	n/a
432.194	0.0565	864388	keystroke_Key.backspace	Key.backspace	n/a
432.352	0.056	864704	keystroke_Key.backspace	Key.backspace	n/a
432.5205	0.045	865041	keystroke_Key.backspace	Key.backspace	n/a
432.69	0.0335	865380	keystroke_Key.backspace	Key.backspace	n/a
