onset	duration	sample	value	key	prompt_text
0.2285	0.438	457	keystroke_Key.cmd_r	Key.cmd_r	n/a
0.5075	0.1275	1015	keystroke_2	2	n/a
27.925	0.0905	55850	keystroke_a	a	n/a
28.255	0.105	56510	keystroke_d	d	n/a
28.5555	0.015	57111	keystroke_a	a	n/a
28.6915	0.1055	57383	keystroke_m	m	n/a
29.11	0.0905	58220	keystroke_b	b	n/a
35.125	0.135	70250	keystroke_Key.cmd	Key.cmd	n/a
35.2	0.09	70400	keystroke_1	1	n/a
39.46	0.4205	78920	keystroke_Key.cmd	Key.cmd	n/a
39.8055	0.1195	79611	keystroke_c	c	n/a
40.1505	0.135	80301	keystroke_Key.cmd	Key.cmd	n/a
40.225	0.09	80450	keystroke_2	2	n/a
41.5605	0.18	83121	keystroke_Key.cmd	Key.cmd	n/a
41.665	0.0905	83330	keystroke_v	v	n/a
44.5755	0.346	89151	keystroke_Key.cmd	Key.cmd	n/a
44.65	0.108	89300	keystroke_1	1	n/a
45.8355	0.45	91671	keystroke_Key.cmd	Key.cmd	n/a
46.1655	0.076	92331	keystroke_2	2	n/a
65.235	9.4175	130470	prompt	n/a	the quick brown fox jumps over a lazy dog\n
67.1055	0.076	134211	keystroke_t	t	n/a
67.2405	0.075	134481	keystroke_h	h	n/a
67.3455	0.075	134691	keystroke_e	e	n/a
67.4955	0.1205	134991	keystroke_Key.space	Key.space	n/a
67.8105	0.105	135621	keystroke_q	q	n/a
67.9755	0.1195	135951	keystroke_u	u	n/a
68.0805	0.075	136161	keystroke_i	i	n/a
68.351	0.1195	136702	keystroke_c	c	n/a
68.5455	0.105	137091	keystroke_k	k	n/a
68.6055	0.15	137211	keystroke_Key.space	Key.space	n/a
68.8455	0.09	137691	keystroke_b	b	n/a
69.0705	0.075	138141	keystroke_r	r	n/a
69.206	0.0895	138412	keystroke_o	o	n/a
69.446	0.0895	138892	keystroke_w	w	n/a
69.6405	0.105	139281	keystroke_n	n	n/a
69.731	0.12	139462	keystroke_Key.space	Key.space	n/a
69.956	0.075	139912	keystroke_f	f	n/a
70.061	0.075	140122	keystroke_o	o	n/a
70.1955	0.1205	140391	keystroke_x	x	n/a
70.392	0.1185	140784	keystroke_Key.space	Key.space	n/a
70.6605	0.061	141321	keystroke_l	l	n/a
70.991	0.06	141982	keystroke_Key.backspace	Key.backspace	n/a
71.216	0.075	142432	keystroke_j	j	n/a
71.3955	0.046	142791	keystroke_u	u	n/a
71.666	0.0595	143332	keystroke_m	m	n/a
71.861	0.0745	143722	keystroke_p	p	n/a
72.0255	0.075	144051	keystroke_s	s	n/a
72.161	0.09	144322	keystroke_Key.space	Key.space	n/a
72.3255	0.0905	144651	keystroke_o	o	n/a
72.431	0.12	144862	keystroke_v	v	n/a
72.656	0.1505	145312	keystroke_e	e	n/a
72.791	0.1045	145582	keystroke_r	r	n/a
72.986	0.1045	145972	keystroke_Key.space	Key.space	n/a
73.106	0.075	146212	keystroke_a	a	n/a
73.1955	0.1205	146391	keystroke_Key.space	Key.space	n/a
73.3905	0.0905	146781	keystroke_l	l	n/a
73.466	0.105	146932	keystroke_a	a	n/a
73.766	0.105	147532	keystroke_z	z	n/a
73.931	0.121	147862	keystroke_y	y	n/a
74.052	0.104	148104	keystroke_Key.space	Key.space	n/a
74.186	0.105	148372	keystroke_d	d	n/a
74.306	0.0895	148612	keystroke_o	o	n/a
74.441	0.075	148882	keystroke_g	g	n/a
74.561	0.09	149122	keystroke_Key.enter	Key.enter	n/a
74.656	7.496	149312	prompt	n/a	detroit lottery exchange introduces\n
75.251	0.0445	150502	keystroke_d	d	n/a
75.386	0.075	150772	keystroke_e	e	n/a
75.521	0.0745	151042	keystroke_t	t	n/a
75.701	0.09	151402	keystroke_r	r	n/a
75.881	0.12	151762	keystroke_o	o	n/a
75.9555	0.0905	151911	keystroke_i	i	n/a
76.181	0.0605	152362	keystroke_t	t	n/a
76.3155	0.1055	152631	keystroke_Key.space	Key.space	n/a
76.5255	0.06	153051	keystroke_l	l	n/a
76.706	0.075	153412	keystroke_o	o	n/a
76.8265	0.0445	153653	keystroke_t	t	n/a
76.946	0.075	153892	keystroke_t	t	n/a
77.186	0.105	154372	keystroke_e	e	n/a
77.276	0.09	154552	keystroke_r	r	n/a
77.426	0.09	154852	keystroke_y	y	n/a
77.531	0.09	155062	keystroke_Key.space	Key.space	n/a
77.636	0.0595	155272	keystroke_e	e	n/a
77.8605	0.135	155721	keystroke_x	x	n/a
78.161	0.12	156322	keystroke_c	c	n/a
78.341	0.12	156682	keystroke_a	a	n/a
78.476	0.075	156952	keystroke_h	h	n/a
78.656	0.09	157312	keystroke_n	n	n/a
79.061	0.06	158122	keystroke_Key.backspace	Key.backspace	n/a
79.1655	0.06	158331	keystroke_Key.backspace	Key.backspace	n/a
79.316	0.015	158632	keystroke_Key.backspace	Key.backspace	n/a
79.6905	0.0605	159381	keystroke_h	h	n/a
79.7955	0.1205	159591	keystroke_a	a	n/a
79.901	0.0605	159802	keystroke_n	n	n/a
80.0955	0.1505	160191	keystroke_g	g	n/a
80.201	0.09	160402	keystroke_e	e	n/a
80.366	0.12	160732	keystroke_Key.space	Key.space	n/a
80.846	0.1195	161692	keystroke_i	i	n/a
80.951	0.105	161902	keystroke_n	n	n/a
81.0105	0.06	162021	keystroke_t	t	n/a
81.161	0.075	162322	keystroke_r	r	n/a
81.221	0.0895	162442	keystroke_o	o	n/a
81.356	0.105	162712	keystroke_d	d	n/a
81.491	0.075	162982	keystroke_u	u	n/a
81.581	0.18	163162	keystroke_c	c	n/a
81.7005	0.1055	163401	keystroke_e	e	n/a
81.9255	0.0905	163851	keystroke_s	s	n/a
82.076	0.075	164152	keystroke_Key.enter	Key.enter	n/a
82.1565	5.6805	164313	prompt	n/a	birthday arrange slightly norton\n
82.9005	0.0755	165801	keystroke_b	b	n/a
83.0055	0.0755	166011	keystroke_i	i	n/a
83.1105	0.0605	166221	keystroke_r	r	n/a
83.261	0.075	166522	keystroke_t	t	n/a
83.351	0.09	166702	keystroke_h	h	n/a
83.531	0.0895	167062	keystroke_d	d	n/a
83.6955	0.1205	167391	keystroke_a	a	n/a
83.846	0.135	167692	keystroke_y	y	n/a
83.9955	0.1655	167991	keystroke_Key.space	Key.space	n/a
84.3255	0.0605	168651	keystroke_a	a	n/a
84.476	0.075	168952	keystroke_r	r	n/a
84.641	0.09	169282	keystroke_r	r	n/a
84.716	0.105	169432	keystroke_a	a	n/a
84.851	0.12	169702	keystroke_n	n	n/a
84.986	0.12	169972	keystroke_g	g	n/a
85.076	0.075	170152	keystroke_e	e	n/a
85.2105	0.1355	170421	keystroke_Key.space	Key.space	n/a
85.376	0.105	170752	keystroke_s	s	n/a
85.5255	0.0755	171051	keystroke_l	l	n/a
85.571	0.09	171142	keystroke_i	i	n/a
85.676	0.0905	171352	keystroke_g	g	n/a
85.8255	0.0455	171651	keystroke_h	h	n/a
85.931	0.09	171862	keystroke_t	t	n/a
86.051	0.195	172102	keystroke_l	l	n/a
86.1855	0.1055	172371	keystroke_y	y	n/a
86.306	0.1195	172612	keystroke_Key.space	Key.space	n/a
86.876	0.1345	173752	keystroke_n	n	n/a
87.056	0.12	174112	keystroke_o	o	n/a
87.191	0.06	174382	keystroke_r	r	n/a
87.356	0.1045	174712	keystroke_t	t	n/a
87.506	0.1045	175012	keystroke_o	o	n/a
87.581	0.09	175162	keystroke_n	n	n/a
87.746	0.09	175492	keystroke_Key.enter	Key.enter	n/a
87.8415	6.085	175683	prompt	n/a	thailand separate bernard winner\n
88.5255	0.0905	177051	keystroke_t	t	n/a
88.6015	0.1045	177203	keystroke_h	h	n/a
88.721	0.0895	177442	keystroke_a	a	n/a
88.826	0.09	177652	keystroke_i	i	n/a
89.1255	0.0905	178251	keystroke_l	l	n/a
89.2465	0.1195	178493	keystroke_a	a	n/a
89.3805	0.1055	178761	keystroke_n	n	n/a
89.471	0.09	178942	keystroke_d	d	n/a
89.576	0.105	179152	keystroke_Key.space	Key.space	n/a
89.816	0.045	179632	keystroke_s	s	n/a
89.906	0.0895	179812	keystroke_e	e	n/a
90.252	0.119	180504	keystroke_p	p	n/a
90.401	0.12	180802	keystroke_a	a	n/a
90.5065	0.089	181013	keystroke_r	r	n/a
90.6105	0.2255	181221	keystroke_a	a	n/a
90.731	0.1645	181462	keystroke_t	t	n/a
90.851	0.09	181702	keystroke_e	e	n/a
91.061	0.12	182122	keystroke_Key.space	Key.space	n/a
91.436	0.075	182872	keystroke_b	b	n/a
91.571	0.105	183142	keystroke_e	e	n/a
91.751	0.105	183502	keystroke_r	r	n/a
92.0955	0.1055	184191	keystroke_n	n	n/a
92.1865	0.149	184373	keystroke_a	a	n/a
92.246	0.105	184492	keystroke_r	r	n/a
92.471	0.09	184942	keystroke_d	d	n/a
92.636	0.135	185272	keystroke_Key.space	Key.space	n/a
92.786	0.12	185572	keystroke_w	w	n/a
92.861	0.09	185722	keystroke_i	i	n/a
93.071	0.045	186142	keystroke_n	n	n/a
93.176	0.075	186352	keystroke_n	n	n/a
93.401	0.165	186802	keystroke_e	e	n/a
93.5955	0.1205	187191	keystroke_r	r	n/a
93.821	0.1045	187642	keystroke_Key.enter	Key.enter	n/a
93.9305	4.092	187861	prompt	n/a	dvds ranch apps else\n
94.601	0.075	189202	keystroke_d	d	n/a
94.781	0.09	189562	keystroke_v	v	n/a
94.901	0.135	189802	keystroke_d	d	n/a
95.1105	0.1055	190221	keystroke_s	s	n/a
95.336	0.0895	190672	keystroke_Key.space	Key.space	n/a
95.456	0.075	190912	keystroke_r	r	n/a
95.576	0.09	191152	keystroke_a	a	n/a
95.6955	0.0755	191391	keystroke_n	n	n/a
95.831	0.1205	191662	keystroke_c	c	n/a
95.921	0.12	191842	keystroke_h	h	n/a
96.0255	0.1355	192051	keystroke_Key.space	Key.space	n/a
96.191	0.09	192382	keystroke_a	a	n/a
96.3255	0.0455	192651	keystroke_p	p	n/a
96.476	0.031	192952	keystroke_p	p	n/a
96.6255	0.0905	193251	keystroke_s	s	n/a
97.017	0.135	194034	keystroke_Key.space	Key.space	n/a
97.226	0.075	194452	keystroke_e	e	n/a
97.4215	0.06	194843	keystroke_l	l	n/a
97.661	0.1055	195322	keystroke_s	s	n/a
97.736	0.09	195472	keystroke_e	e	n/a
97.916	0.105	195832	keystroke_Key.enter	Key.enter	n/a
98.026	5.666	196052	prompt	n/a	radiation echo setting whereas\n
98.6955	0.0755	197391	keystroke_r	r	n/a
98.846	0.1345	197692	keystroke_a	a	n/a
99.086	0.06	198172	keystroke_d	d	n/a
99.431	0.09	198862	keystroke_i	i	n/a
99.551	0.12	199102	keystroke_a	a	n/a
99.6555	0.0905	199311	keystroke_t	t	n/a
99.866	0.075	199732	keystroke_i	i	n/a
100.106	0.1505	200212	keystroke_o	o	n/a
100.241	0.1355	200482	keystroke_n	n	n/a
100.3465	0.1495	200693	keystroke_Key.space	Key.space	n/a
100.4815	0.09	200963	keystroke_e	e	n/a
100.7065	0.1345	201413	keystroke_c	c	n/a
100.871	0.1505	201742	keystroke_h	h	n/a
100.9915	0.09	201983	keystroke_o	o	n/a
101.066	0.12	202132	keystroke_Key.space	Key.space	n/a
101.2465	0.09	202493	keystroke_s	s	n/a
101.426	0.075	202852	keystroke_e	e	n/a
101.561	0.0755	203122	keystroke_t	t	n/a
101.7565	0.075	203513	keystroke_t	t	n/a
101.936	0.12	203872	keystroke_i	i	n/a
102.086	0.135	204172	keystroke_n	n	n/a
102.236	0.045	204472	keystroke_g	g	n/a
102.311	0.12	204622	keystroke_Key.space	Key.space	n/a
102.491	0.105	204982	keystroke_w	w	n/a
102.671	0.105	205342	keystroke_h	h	n/a
102.791	0.0905	205582	keystroke_e	e	n/a
102.9105	0.1355	205821	keystroke_r	r	n/a
102.986	0.09	205972	keystroke_e	e	n/a
103.166	0.075	206332	keystroke_a	a	n/a
103.362	0.104	206724	keystroke_s	s	n/a
103.601	0.09	207202	keystroke_Key.enter	Key.enter	n/a
103.6975	6.9855	207395	prompt	n/a	probability reaching appreciated pool\n
104.411	0.1205	208822	keystroke_p	p	n/a
104.576	0.075	209152	keystroke_r	r	n/a
104.6815	0.1045	209363	keystroke_o	o	n/a
104.831	0.105	209662	keystroke_b	b	n/a
104.951	0.15	209902	keystroke_a	a	n/a
105.056	0.135	210112	keystroke_b	b	n/a
105.296	0.0755	210592	keystroke_i	i	n/a
105.4615	0.1345	210923	keystroke_l	l	n/a
106.2415	0.0745	212483	keystroke_i	i	n/a
106.3915	0.09	212783	keystroke_t	t	n/a
106.496	0.1205	212992	keystroke_y	y	n/a
106.646	0.1355	213292	keystroke_Key.space	Key.space	n/a
106.8715	0.1645	213743	keystroke_r	r	n/a
107.082	0.119	214164	keystroke_e	e	n/a
107.306	0.12	214612	keystroke_a	a	n/a
107.411	0.1355	214822	keystroke_c	c	n/a
107.561	0.09	215122	keystroke_h	h	n/a
107.682	0.1645	215364	keystroke_i	i	n/a
107.771	0.1205	215542	keystroke_n	n	n/a
107.8465	0.09	215693	keystroke_g	g	n/a
107.951	0.1205	215902	keystroke_Key.space	Key.space	n/a
108.0865	0.1045	216173	keystroke_a	a	n/a
108.2365	0.045	216473	keystroke_p	p	n/a
108.3565	0.06	216713	keystroke_p	p	n/a
108.4915	0.1195	216983	keystroke_r	r	n/a
108.581	0.0905	217162	keystroke_e	e	n/a
108.7765	0.09	217553	keystroke_c	c	n/a
108.8815	0.09	217763	keystroke_i	i	n/a
108.9865	0.12	217973	keystroke_a	a	n/a
109.1365	0.1345	218273	keystroke_t	t	n/a
109.256	0.0905	218512	keystroke_e	e	n/a
109.4515	0.0745	218903	keystroke_d	d	n/a
109.496	0.121	218992	keystroke_Key.space	Key.space	n/a
109.6615	0.105	219323	keystroke_p	p	n/a
109.8565	0.0895	219713	keystroke_o	o	n/a
110.0215	0.06	220043	keystroke_o	o	n/a
110.2615	0.12	220523	keystroke_l	l	n/a
110.5915	0.09	221183	keystroke_Key.enter	Key.enter	n/a
110.687	7.21	221374	prompt	n/a	coin peas distributors exciting\n
111.3415	0.105	222683	keystroke_c	c	n/a
111.4615	0.105	222923	keystroke_o	o	n/a
111.6415	0.1495	223283	keystroke_i	i	n/a
111.806	0.105	223612	keystroke_n	n	n/a
111.8815	0.12	223763	keystroke_Key.space	Key.space	n/a
112.0615	0.105	224123	keystroke_p	p	n/a
112.211	0.0905	224422	keystroke_e	e	n/a
112.3915	0.1195	224783	keystroke_a	a	n/a
112.6015	0.09	225203	keystroke_s	s	n/a
112.7515	0.09	225503	keystroke_Key.space	Key.space	n/a
112.8865	0.075	225773	keystroke_d	d	n/a
112.9915	0.06	225983	keystroke_i	i	n/a
113.1415	0.06	226283	keystroke_s	s	n/a
113.2615	0.075	226523	keystroke_t	t	n/a
113.396	0.1055	226792	keystroke_r	r	n/a
113.5165	0.105	227033	keystroke_i	i	n/a
113.6365	0.0745	227273	keystroke_b	b	n/a
113.756	0.0755	227512	keystroke_u	u	n/a
113.8915	0.075	227783	keystroke_t	t	n/a
114.8515	0.105	229703	keystroke_o	o	n/a
114.9415	0.075	229883	keystroke_r	r	n/a
115.1215	0.0895	230243	keystroke_s	s	n/a
115.4065	0.1195	230813	keystroke_Key.space	Key.space	n/a
115.5865	0.0595	231173	keystroke_e	e	n/a
115.8865	0.075	231773	keystroke_x	x	n/a
116.396	0.1205	232792	keystroke_c	c	n/a
116.5465	0.09	233093	keystroke_i	i	n/a
116.7865	0.03	233573	keystroke_t	t	n/a
117.4915	0.1345	234983	keystroke_i	i	n/a
117.566	0.1055	235132	keystroke_n	n	n/a
117.626	0.0755	235252	keystroke_g	g	n/a
117.8065	0.0895	235613	keystroke_Key.enter	Key.enter	n/a
117.9	6.702	235800	prompt	n/a	lucy elegant recognized enabled\n
118.557	0.1645	237114	keystroke_l	l	n/a
118.6615	0.09	237323	keystroke_u	u	n/a
118.7815	0.12	237563	keystroke_c	c	n/a
118.9165	0.09	237833	keystroke_y	y	n/a
119.0365	0.12	238073	keystroke_Key.space	Key.space	n/a
119.2315	0.09	238463	keystroke_e	e	n/a
119.3515	0.09	238703	keystroke_l	l	n/a
119.426	0.0755	238852	keystroke_e	e	n/a
119.5915	0.09	239183	keystroke_g	g	n/a
119.8165	0.105	239633	keystroke_a	a	n/a
120.0865	0.12	240173	keystroke_n	n	n/a
120.311	0.0905	240622	keystroke_t	t	n/a
120.4765	0.105	240953	keystroke_Key.space	Key.space	n/a
120.7315	0.09	241463	keystroke_r	r	n/a
120.8065	0.0895	241613	keystroke_e	e	n/a
121.0015	0.075	242003	keystroke_c	c	n/a
121.0765	0.1055	242153	keystroke_o	o	n/a
121.196	0.0765	242392	keystroke_g	g	n/a
121.2725	0.1185	242545	keystroke_n	n	n/a
121.3615	0.105	242723	keystroke_i	i	n/a
121.6465	0.06	243293	keystroke_z	z	n/a
122.2015	0.06	244403	keystroke_e	e	n/a
122.3665	0.09	244733	keystroke_d	d	n/a
122.5165	0.12	245033	keystroke_Key.space	Key.space	n/a
122.8315	0.075	245663	keystroke_a	a	n/a
122.996	0.0455	245992	keystroke_n	n	n/a
123.2065	0.06	246413	keystroke_Key.backspace	Key.backspace	n/a
123.311	0.0755	246622	keystroke_Key.backspace	Key.backspace	n/a
123.5365	0.0745	247073	keystroke_e	e	n/a
123.6265	0.105	247253	keystroke_n	n	n/a
123.7465	0.105	247493	keystroke_a	a	n/a
124.0315	0.015	248063	keystroke_b	b	n/a
124.1665	0.0595	248333	keystroke_l	l	n/a
124.2415	0.06	248483	keystroke_e	e	n/a
124.3915	0.09	248783	keystroke_d	d	n/a
124.526	0.075	249052	keystroke_Key.enter	Key.enter	n/a
124.606	4.3315	249212	prompt	n/a	miss reservoir appears hole\n
125.2015	0.12	250403	keystroke_m	m	n/a
125.2915	0.1045	250583	keystroke_i	i	n/a
125.3815	0.075	250763	keystroke_s	s	n/a
125.5465	0.105	251093	keystroke_s	s	n/a
125.6665	0.12	251333	keystroke_Key.space	Key.space	n/a
125.7715	0.12	251543	keystroke_r	r	n/a
125.861	0.0455	251722	keystroke_e	e	n/a
126.011	0.1655	252022	keystroke_s	s	n/a
126.1465	0.12	252293	keystroke_e	e	n/a
126.2215	0.0895	252443	keystroke_r	r	n/a
126.4315	0.105	252863	keystroke_v	v	n/a
126.6415	0.09	253283	keystroke_o	o	n/a
126.6865	0.105	253373	keystroke_i	i	n/a
126.8065	0.06	253613	keystroke_r	r	n/a
126.911	0.1355	253822	keystroke_Key.space	Key.space	n/a
127.1965	0.075	254393	keystroke_a	a	n/a
127.3315	0.075	254663	keystroke_p	p	n/a
127.4665	0.12	254933	keystroke_p	p	n/a
127.5715	0.135	255143	keystroke_e	e	n/a
127.6765	0.18	255353	keystroke_a	a	n/a
127.811	0.1055	255622	keystroke_r	r	n/a
128.0215	0.12	256043	keystroke_s	s	n/a
128.1565	0.091	256313	keystroke_Key.space	Key.space	n/a
128.2475	0.1035	256495	keystroke_h	h	n/a
128.3365	0.0745	256673	keystroke_o	o	n/a
128.5315	0.075	257063	keystroke_l	l	n/a
128.6515	0.09	257303	keystroke_e	e	n/a
128.8465	0.09	257693	keystroke_Key.enter	Key.enter	n/a
128.9405	5.982	257881	prompt	n/a	ties there'll picked massage\n
129.582	0.0745	259164	keystroke_t	t	n/a
129.701	0.1055	259402	keystroke_i	i	n/a
129.7915	0.0755	259583	keystroke_e	e	n/a
129.9565	0.09	259913	keystroke_s	s	n/a
130.092	0.1045	260184	keystroke_Key.space	Key.space	n/a
130.2115	0.105	260423	keystroke_t	t	n/a
130.302	0.1195	260604	keystroke_h	h	n/a
130.482	0.1045	260964	keystroke_e	e	n/a
130.6165	0.1355	261233	keystroke_r	r	n/a
130.7065	0.105	261413	keystroke_e	e	n/a
130.947	0.12	261894	keystroke_'	'	n/a
131.2015	0.0455	262403	keystroke_l	l	n/a
131.352	0.1195	262704	keystroke_l	l	n/a
131.457	0.1045	262914	keystroke_Key.space	Key.space	n/a
131.667	0.12	263334	keystroke_p	p	n/a
131.802	0.1195	263604	keystroke_i	i	n/a
131.9515	0.1355	263903	keystroke_c	c	n/a
132.0415	0.09	264083	keystroke_k	k	n/a
132.177	0.075	264354	keystroke_e	e	n/a
132.342	0.105	264684	keystroke_d	d	n/a
132.477	0.1195	264954	keystroke_Key.space	Key.space	n/a
132.642	0.12	265284	keystroke_m	m	n/a
133.032	0.0895	266064	keystroke_a	a	n/a
133.196	0.0755	266392	keystroke_a	a	n/a
133.2565	0.045	266513	keystroke_s	s	n/a
133.6165	0.06	267233	keystroke_Key.backspace	Key.backspace	n/a
133.7365	0.075	267473	keystroke_Key.backspace	Key.backspace	n/a
133.811	0.0605	267622	keystroke_s	s	n/a
133.9915	0.1945	267983	keystroke_s	s	n/a
134.3815	0.135	268763	keystroke_a	a	n/a
134.5465	0.135	269093	keystroke_g	g	n/a
134.6515	0.09	269303	keystroke_e	e	n/a
134.8165	0.105	269633	keystroke_Key.enter	Key.enter	n/a
134.9265	5.726	269853	prompt	n/a	blogging session barely quotes\n
135.5965	0.0755	271193	keystroke_b	b	n/a
135.7315	0.045	271463	keystroke_l	l	n/a
135.8665	0.075	271733	keystroke_o	o	n/a
135.987	0.0595	271974	keystroke_g	g	n/a
136.1665	0.075	272333	keystroke_g	g	n/a
136.5565	0.12	273113	keystroke_i	i	n/a
136.6465	0.105	273293	keystroke_n	n	n/a
136.8115	0.1055	273623	keystroke_g	g	n/a
136.932	0.135	273864	keystroke_Key.space	Key.space	n/a
137.142	0.06	274284	keystroke_s	s	n/a
137.2615	0.076	274523	keystroke_e	e	n/a
137.4265	0.09	274853	keystroke_s	s	n/a
137.592	0.1195	275184	keystroke_s	s	n/a
137.7265	0.135	275453	keystroke_i	i	n/a
137.8465	0.12	275693	keystroke_o	o	n/a
137.9215	0.135	275843	keystroke_n	n	n/a
138.0415	0.12	276083	keystroke_Key.space	Key.space	n/a
138.1765	0.0905	276353	keystroke_b	b	n/a
138.3715	0.1055	276743	keystroke_a	a	n/a
138.5665	0.135	277133	keystroke_r	r	n/a
138.672	0.0745	277344	keystroke_e	e	n/a
138.987	0.195	277974	keystroke_l	l	n/a
139.1225	0.089	278245	keystroke_y	y	n/a
139.257	0.1045	278514	keystroke_Key.space	Key.space	n/a
139.7065	0.105	279413	keystroke_q	q	n/a
139.857	0.15	279714	keystroke_u	u	n/a
139.992	0.1045	279984	keystroke_o	o	n/a
140.1115	0.1355	280223	keystroke_t	t	n/a
140.202	0.075	280404	keystroke_e	e	n/a
140.382	0.09	280764	keystroke_s	s	n/a
140.562	0.09	281124	keystroke_Key.enter	Key.enter	n/a
140.6555	8.4125	281311	prompt	n/a	bears pendant soundtrack subscribers\n
141.477	0.105	282954	keystroke_b	b	n/a
141.6575	0.1195	283315	keystroke_e	e	n/a
141.792	0.1495	283584	keystroke_a	a	n/a
141.8665	0.1205	283733	keystroke_r	r	n/a
142.062	0.105	284124	keystroke_s	s	n/a
142.2265	0.1205	284453	keystroke_Key.space	Key.space	n/a
142.707	0.075	285414	keystroke_e	e	n/a
143.082	0.06	286164	keystroke_Key.backspace	Key.backspace	n/a
143.547	0.09	287094	keystroke_p	p	n/a
143.697	0.075	287394	keystroke_e	e	n/a
143.862	0.075	287724	keystroke_n	n	n/a
143.922	0.12	287844	keystroke_d	d	n/a
144.222	0.1205	288444	keystroke_a	a	n/a
144.417	0.105	288834	keystroke_n	n	n/a
144.552	0.09	289104	keystroke_t	t	n/a
145.602	0.135	291204	keystroke_Key.space	Key.space	n/a
145.902	0.075	291804	keystroke_s	s	n/a
145.962	0.12	291924	keystroke_o	o	n/a
146.022	0.0445	292044	keystroke_u	u	n/a
146.172	0.09	292344	keystroke_n	n	n/a
146.217	0.105	292434	keystroke_d	d	n/a
146.442	0.09	292884	keystroke_t	t	n/a
146.607	0.1195	293214	keystroke_r	r	n/a
146.802	0.135	293604	keystroke_a	a	n/a
146.892	0.1345	293784	keystroke_c	c	n/a
147.0415	0.1505	294083	keystroke_k	k	n/a
147.162	0.1345	294324	keystroke_Key.space	Key.space	n/a
147.432	0.09	294864	keystroke_s	s	n/a
147.537	0.075	295074	keystroke_u	u	n/a
147.6415	0.0905	295283	keystroke_b	b	n/a
147.867	0.09	295734	keystroke_s	s	n/a
147.972	0.045	295944	keystroke_c	c	n/a
148.122	0.09	296244	keystroke_r	r	n/a
148.242	0.075	296484	keystroke_i	i	n/a
148.332	0.12	296664	keystroke_b	b	n/a
148.587	0.12	297174	keystroke_e	e	n/a
148.722	0.1045	297444	keystroke_r	r	n/a
148.872	0.09	297744	keystroke_s	s	n/a
148.992	0.075	297984	keystroke_Key.enter	Key.enter	n/a
149.0715	8.2465	298143	prompt	n/a	surfing younger written dozen\n
151.932	0.075	303864	keystroke_s	s	n/a
152.052	0.0745	304104	keystroke_u	u	n/a
152.1415	0.0605	304283	keystroke_r	r	n/a
152.307	0.075	304614	keystroke_f	f	n/a
152.487	0.105	304974	keystroke_i	i	n/a
152.547	0.105	305094	keystroke_n	n	n/a
152.682	0.09	305364	keystroke_g	g	n/a
152.772	0.12	305544	keystroke_Key.space	Key.space	n/a
153.087	0.06	306174	keystroke_y	y	n/a
153.222	0.135	306444	keystroke_o	o	n/a
153.3115	0.075	306623	keystroke_u	u	n/a
153.5665	0.0755	307133	keystroke_n	n	n/a
153.717	0.105	307434	keystroke_g	g	n/a
153.9265	0.105	307853	keystroke_e	e	n/a
154.017	0.09	308034	keystroke_r	r	n/a
154.152	0.105	308304	keystroke_Key.space	Key.space	n/a
154.542	0.045	309084	keystroke_w	w	n/a
154.647	0.06	309294	keystroke_r	r	n/a
154.8115	0.0755	309623	keystroke_i	i	n/a
155.4265	0.0605	310853	keystroke_t	t	n/a
155.577	0.0755	311154	keystroke_t	t	n/a
155.7265	0.0755	311453	keystroke_e	e	n/a
155.847	0.135	311694	keystroke_n	n	n/a
155.982	0.12	311964	keystroke_Key.space	Key.space	n/a
156.3265	0.0605	312653	keystroke_d	d	n/a
156.5365	0.105	313073	keystroke_o	o	n/a
156.702	0.12	313404	keystroke_z	z	n/a
156.9265	0.0755	313853	keystroke_e	e	n/a
157.047	0.075	314094	keystroke_n	n	n/a
157.2565	0.0605	314513	keystroke_Key.enter	Key.enter	n/a
157.321	7.542	314642	prompt	n/a	subsidiaries home occasionally cotton\n
158.0525	0.0895	316105	keystroke_s	s	n/a
158.187	0.045	316374	keystroke_u	u	n/a
158.247	0.09	316494	keystroke_b	b	n/a
158.4265	0.09	316853	keystroke_s	s	n/a
158.562	0.075	317124	keystroke_i	i	n/a
158.6965	0.0755	317393	keystroke_d	d	n/a
158.832	0.075	317664	keystroke_i	i	n/a
159.3115	0.1055	318623	keystroke_a	a	n/a
159.402	0.105	318804	keystroke_r	r	n/a
159.8965	0.09	319793	keystroke_i	i	n/a
159.9575	0.0745	319915	keystroke_e	e	n/a
160.122	0.09	320244	keystroke_s	s	n/a
160.2265	0.136	320453	keystroke_Key.space	Key.space	n/a
160.588	0.089	321176	keystroke_h	h	n/a
160.767	0.135	321534	keystroke_o	o	n/a
160.8725	0.135	321745	keystroke_m	m	n/a
161.038	0.089	322076	keystroke_e	e	n/a
161.1115	0.1205	322223	keystroke_Key.space	Key.space	n/a
161.352	0.09	322704	keystroke_o	o	n/a
161.472	0.09	322944	keystroke_c	c	n/a
161.637	0.09	323274	keystroke_c	c	n/a
161.697	0.136	323394	keystroke_a	a	n/a
161.847	0.105	323694	keystroke_s	s	n/a
162.267	0.0895	324534	keystroke_i	i	n/a
162.387	0.165	324774	keystroke_o	o	n/a
162.507	0.15	325014	keystroke_n	n	n/a
162.672	0.105	325344	keystroke_a	a	n/a
162.8075	0.06	325615	keystroke_l	l	n/a
162.942	0.165	325884	keystroke_l	l	n/a
163.047	0.105	326094	keystroke_y	y	n/a
163.1675	0.1045	326335	keystroke_Key.space	Key.space	n/a
163.902	0.09	327804	keystroke_c	c	n/a
163.9925	0.075	327985	keystroke_o	o	n/a
164.127	0.075	328254	keystroke_t	t	n/a
164.262	0.075	328524	keystroke_t	t	n/a
164.3965	0.1355	328793	keystroke_o	o	n/a
164.5775	0.0895	329155	keystroke_n	n	n/a
164.787	0.075	329574	keystroke_Key.enter	Key.enter	n/a
164.8665	7.6915	329733	prompt	n/a	blah searching acknowledge institutes\n
165.627	0.09	331254	keystroke_b	b	n/a
165.7475	0.0895	331495	keystroke_l	l	n/a
165.852	0.075	331704	keystroke_a	a	n/a
165.9585	0.1035	331917	keystroke_h	h	n/a
166.047	0.12	332094	keystroke_Key.space	Key.space	n/a
166.3175	0.0595	332635	keystroke_s	s	n/a
166.422	0.165	332844	keystroke_e	e	n/a
166.602	0.076	333204	keystroke_a	a	n/a
166.617	0.105	333234	keystroke_r	r	n/a
166.8425	0.1045	333685	keystroke_c	c	n/a
167.127	0.0605	334254	keystroke_h	h	n/a
167.293	0.074	334586	keystroke_i	i	n/a
167.457	0.09	334914	keystroke_n	n	n/a
167.592	0.1195	335184	keystroke_g	g	n/a
167.6965	0.1355	335393	keystroke_Key.space	Key.space	n/a
167.952	0.105	335904	keystroke_a	a	n/a
168.102	0.1205	336204	keystroke_c	c	n/a
168.237	0.0745	336474	keystroke_k	k	n/a
168.492	0.09	336984	keystroke_n	n	n/a
168.567	0.0905	337134	keystroke_o	o	n/a
168.732	0.075	337464	keystroke_w	w	n/a
169.0775	0.0895	338155	keystroke_l	l	n/a
169.1825	0.0595	338365	keystroke_e	e	n/a
169.347	0.105	338694	keystroke_d	d	n/a
169.512	0.12	339024	keystroke_g	g	n/a
169.647	0.075	339294	keystroke_e	e	n/a
169.857	0.12	339714	keystroke_Key.space	Key.space	n/a
170.022	0.12	340044	keystroke_i	i	n/a
170.097	0.105	340194	keystroke_n	n	n/a
170.217	0.09	340434	keystroke_s	s	n/a
170.3825	0.0745	340765	keystroke_t	t	n/a
170.487	0.09	340974	keystroke_i	i	n/a
170.8475	0.015	341695	keystroke_t	t	n/a
170.9825	0.0745	341965	keystroke_u	u	n/a
171.7925	0.1345	343585	keystroke_t	t	n/a
171.897	0.0755	343794	keystroke_e	e	n/a
172.047	0.0755	344094	keystroke_s	s	n/a
172.4525	0.105	344905	keystroke_Key.enter	Key.enter	n/a
172.562	5.561	345124	prompt	n/a	noble smoking arrive delays\n
173.712	0.09	347424	keystroke_n	n	n/a
173.817	0.0905	347634	keystroke_o	o	n/a
173.9675	0.0745	347935	keystroke_b	b	n/a
174.1775	0.06	348355	keystroke_l	l	n/a
174.2525	0.0745	348505	keystroke_e	e	n/a
174.3875	0.105	348775	keystroke_Key.space	Key.space	n/a
174.6425	0.09	349285	keystroke_s	s	n/a
174.7175	0.12	349435	keystroke_m	m	n/a
174.7775	0.1345	349555	keystroke_o	o	n/a
175.1225	0.0745	350245	keystroke_k	k	n/a
175.3025	0.09	350605	keystroke_i	i	n/a
175.4835	0.134	350967	keystroke_n	n	n/a
175.6025	0.06	351205	keystroke_g	g	n/a
175.6775	0.09	351355	keystroke_Key.space	Key.space	n/a
175.782	0.1205	351564	keystroke_a	a	n/a
175.962	0.0755	351924	keystroke_r	r	n/a
176.112	0.0755	352224	keystroke_r	r	n/a
176.2175	0.105	352435	keystroke_i	i	n/a
176.3375	0.0895	352675	keystroke_v	v	n/a
176.5025	0.105	353005	keystroke_e	e	n/a
176.6375	0.12	353275	keystroke_Key.space	Key.space	n/a
176.8625	0.09	353725	keystroke_d	d	n/a
177.0425	0.075	354085	keystroke_e	e	n/a
177.2525	0.0595	354505	keystroke_l	l	n/a
177.342	0.1055	354684	keystroke_a	a	n/a
177.5525	0.0445	355105	keystroke_y	y	n/a
177.8075	0.075	355615	keystroke_s	s	n/a
178.0475	0.075	356095	keystroke_Key.enter	Key.enter	n/a
178.126	9.1175	356252	prompt	n/a	defendant announces approximately household\n
178.7825	0.06	357565	keystroke_d	d	n/a
178.9325	0.0595	357865	keystroke_e	e	n/a
179.0525	0.0745	358105	keystroke_f	f	n/a
179.2325	0.045	358465	keystroke_e	e	n/a
179.3375	0.12	358675	keystroke_n	n	n/a
179.442	0.0605	358884	keystroke_d	d	n/a
179.6075	0.075	359215	keystroke_a	a	n/a
179.8325	0.075	359665	keystroke_n	n	n/a
179.953	0.074	359906	keystroke_t	t	n/a
180.0575	0.12	360115	keystroke_Key.space	Key.space	n/a
180.2075	0.0745	360415	keystroke_a	a	n/a
180.3575	0.06	360715	keystroke_n	n	n/a
180.5225	0.06	361045	keystroke_n	n	n/a
180.6725	0.106	361345	keystroke_o	o	n/a
180.7175	0.061	361435	keystroke_u	u	n/a
180.912	0.0905	361824	keystroke_n	n	n/a
181.2425	0.0745	362485	keystroke_e	e	n/a
181.6925	0.075	363385	keystroke_d	d	n/a
182.0075	0.0745	364015	keystroke_Key.backspace	Key.backspace	n/a
182.2175	0.09	364435	keystroke_Key.backspace	Key.backspace	n/a
182.3675	0.105	364735	keystroke_c	c	n/a
182.5775	0.045	365155	keystroke_e	e	n/a
182.727	0.0605	365454	keystroke_s	s	n/a
182.847	0.1205	365694	keystroke_Key.space	Key.space	n/a
182.9825	0.06	365965	keystroke_a	a	n/a
183.612	0.0605	367224	keystroke_p	p	n/a
183.7625	0.09	367525	keystroke_p	p	n/a
183.912	0.0755	367824	keystroke_r	r	n/a
184.0025	0.1045	368005	keystroke_o	o	n/a
184.212	0.0755	368424	keystroke_x	x	n/a
184.3325	0.135	368665	keystroke_i	i	n/a
184.4675	0.135	368935	keystroke_m	m	n/a
184.6175	0.1345	369235	keystroke_a	a	n/a
184.797	0.0905	369594	keystroke_t	t	n/a
184.9625	0.09	369925	keystroke_e	e	n/a
185.397	0.1505	370794	keystroke_l	l	n/a
185.5025	0.09	371005	keystroke_y	y	n/a
185.6525	0.12	371305	keystroke_Key.space	Key.space	n/a
185.9075	0.075	371815	keystroke_h	h	n/a
186.027	0.1505	372054	keystroke_o	o	n/a
186.1325	0.075	372265	keystroke_u	u	n/a
186.2675	0.0595	372535	keystroke_s	s	n/a
186.312	0.1055	372624	keystroke_e	e	n/a
186.5675	0.1045	373135	keystroke_h	h	n/a
186.7925	0.06	373585	keystroke_l	l	n/a
186.958	0.0745	373916	keystroke_d	d	n/a
187.1525	0.09	374305	keystroke_Key.enter	Key.enter	n/a
187.2485	6.5795	374497	prompt	n/a	companion fever irrigation shine\n
188.127	0.0905	376254	keystroke_c	c	n/a
188.2475	0.135	376495	keystroke_o	o	n/a
188.397	0.1505	376794	keystroke_m	m	n/a
188.5925	0.165	377185	keystroke_p	p	n/a
188.817	0.1055	377634	keystroke_a	a	n/a
189.1025	0.091	378205	keystroke_n	n	n/a
189.2675	0.15	378535	keystroke_i	i	n/a
189.4025	0.165	378805	keystroke_o	o	n/a
189.5375	0.135	379075	keystroke_n	n	n/a
189.687	0.0905	379374	keystroke_Key.space	Key.space	n/a
189.867	0.045	379734	keystroke_f	f	n/a
189.9725	0.0895	379945	keystroke_e	e	n/a
190.1825	0.12	380365	keystroke_v	v	n/a
190.437	0.1505	380874	keystroke_e	e	n/a
190.678	0.0745	381356	keystroke_r	r	n/a
190.8725	0.09	381745	keystroke_Key.space	Key.space	n/a
191.0525	0.075	382105	keystroke_i	i	n/a
191.1425	0.06	382285	keystroke_r	r	n/a
191.2925	0.09	382585	keystroke_r	r	n/a
191.5325	0.075	383065	keystroke_i	i	n/a
191.8025	0.06	383605	keystroke_g	g	n/a
191.997	0.1205	383994	keystroke_a	a	n/a
192.1025	0.09	384205	keystroke_t	t	n/a
192.2675	0.1355	384535	keystroke_i	i	n/a
192.4625	0.1645	384925	keystroke_o	o	n/a
192.583	0.1495	385166	keystroke_n	n	n/a
192.7175	0.12	385435	keystroke_Key.space	Key.space	n/a
192.8825	0.09	385765	keystroke_s	s	n/a
192.9875	0.0755	385975	keystroke_h	h	n/a
193.1375	0.12	386275	keystroke_i	i	n/a
193.3175	0.1195	386635	keystroke_n	n	n/a
193.5125	0.075	387025	keystroke_e	e	n/a
193.722	0.105	387444	keystroke_Key.enter	Key.enter	n/a
193.831	5.6375	387662	prompt	n/a	button modifications legs suitable\n
194.412	0.0755	388824	keystroke_b	b	n/a
194.5175	0.06	389035	keystroke_u	u	n/a
194.6375	0.0595	389275	keystroke_t	t	n/a
194.8175	0.06	389635	keystroke_t	t	n/a
195.0575	0.105	390115	keystroke_o	o	n/a
195.2675	0.09	390535	keystroke_n	n	n/a
195.327	0.121	390654	keystroke_Key.space	Key.space	n/a
195.4625	0.1355	390925	keystroke_m	m	n/a
195.5375	0.1045	391075	keystroke_o	o	n/a
195.627	0.0755	391254	keystroke_d	d	n/a
195.7625	0.0745	391525	keystroke_i	i	n/a
195.8525	0.0745	391705	keystroke_f	f	n/a
195.9725	0.06	391945	keystroke_i	i	n/a
196.0775	0.1205	392155	keystroke_c	c	n/a
196.1975	0.15	392395	keystroke_a	a	n/a
196.3325	0.075	392665	keystroke_t	t	n/a
196.4675	0.15	392935	keystroke_i	i	n/a
196.6625	0.09	393325	keystroke_o	o	n/a
196.902	0.1205	393804	keystroke_n	n	n/a
197.083	0.0745	394166	keystroke_s	s	n/a
197.2025	0.105	394405	keystroke_Key.space	Key.space	n/a
197.367	0.1055	394734	keystroke_l	l	n/a
197.4425	0.075	394885	keystroke_e	e	n/a
197.6075	0.0895	395215	keystroke_g	g	n/a
197.7875	0.09	395575	keystroke_s	s	n/a
197.9225	0.1045	395845	keystroke_Key.space	Key.space	n/a
198.0575	0.105	396115	keystroke_s	s	n/a
198.192	0.135	396384	keystroke_u	u	n/a
198.2835	0.074	396567	keystroke_i	i	n/a
198.4175	0.075	396835	keystroke_t	t	n/a
198.5675	0.1195	397135	keystroke_a	a	n/a
198.7775	0.075	397555	keystroke_b	b	n/a
198.9725	0.075	397945	keystroke_l	l	n/a
199.1525	0.0445	398305	keystroke_e	e	n/a
199.3775	0.0895	398755	keystroke_Key.enter	Key.enter	n/a
199.473	7.6455	398946	prompt	n/a	increasing apache holland secure\n
200.1125	0.0445	400225	keystroke_i	i	n/a
200.2625	0.09	400525	keystroke_n	n	n/a
200.3675	0.09	400735	keystroke_c	c	n/a
200.5625	0.12	401125	keystroke_r	r	n/a
200.668	0.1195	401336	keystroke_e	e	n/a
200.8925	0.1345	401785	keystroke_a	a	n/a
201.0875	0.075	402175	keystroke_s	s	n/a
201.2525	0.105	402505	keystroke_i	i	n/a
201.5225	0.0895	403045	keystroke_n	n	n/a
201.6725	0.09	403345	keystroke_g	g	n/a
201.7775	0.1195	403555	keystroke_Key.space	Key.space	n/a
201.9575	0.06	403915	keystroke_a	a	n/a
202.1075	0.0895	404215	keystroke_p	p	n/a
202.2125	0.105	404425	keystroke_a	a	n/a
202.4075	0.1045	404815	keystroke_c	c	n/a
202.5425	0.105	405085	keystroke_h	h	n/a
202.677	0.0755	405354	keystroke_e	e	n/a
202.7825	0.12	405565	keystroke_Key.space	Key.space	n/a
203.0675	0.0595	406135	keystroke_b	b	n/a
203.1425	0.075	406285	keystroke_o	o	n/a
203.412	0.0755	406824	keystroke_l	l	n/a
203.5925	0.03	407185	keystroke_l	l	n/a
203.8175	0.06	407635	keystroke_Key.backspace	Key.backspace	n/a
203.9225	0.0745	407845	keystroke_Key.backspace	Key.backspace	n/a
204.0725	0.0605	408145	keystroke_Key.backspace	Key.backspace	n/a
204.2375	0.03	408475	keystroke_Key.backspace	Key.backspace	n/a
204.4175	0.075	408835	keystroke_h	h	n/a
204.612	0.0755	409224	keystroke_o	o	n/a
204.8675	0.0595	409735	keystroke_l	l	n/a
205.0175	0.075	410035	keystroke_l	l	n/a
205.2725	0.135	410545	keystroke_a	a	n/a
205.5125	0.09	411025	keystroke_n	n	n/a
205.6325	0.075	411265	keystroke_d	d	n/a
205.738	0.134	411476	keystroke_Key.space	Key.space	n/a
205.963	0.0755	411926	keystroke_s	s	n/a
206.158	0.0445	412316	keystroke_e	e	n/a
206.2925	0.1045	412585	keystroke_c	c	n/a
206.4575	0.0755	412915	keystroke_u	u	n/a
206.5775	0.09	413155	keystroke_r	r	n/a
206.7875	0.06	413575	keystroke_e	e	n/a
207.027	0.0905	414054	keystroke_Key.enter	Key.enter	n/a
207.1215	6.6425	414243	prompt	n/a	martha push composed online\n
207.7175	0.105	415435	keystroke_m	m	n/a
207.8375	0.105	415675	keystroke_a	a	n/a
207.9875	0.075	415975	keystroke_r	r	n/a
208.1525	0.0745	416305	keystroke_t	t	n/a
208.288	0.0895	416576	keystroke_h	h	n/a
208.4075	0.075	416815	keystroke_a	a	n/a
208.512	0.1205	417024	keystroke_Key.space	Key.space	n/a
208.7075	0.12	417415	keystroke_p	p	n/a
208.9325	0.075	417865	keystroke_u	u	n/a
209.0675	0.0755	418135	keystroke_s	s	n/a
209.173	0.105	418346	keystroke_h	h	n/a
209.338	0.1205	418676	keystroke_Key.space	Key.space	n/a
209.5625	0.1205	419125	keystroke_c	c	n/a
209.683	0.1195	419366	keystroke_o	o	n/a
209.878	0.105	419756	keystroke_m	m	n/a
210.043	0.15	420086	keystroke_p	p	n/a
210.2975	0.06	420595	keystroke_o	o	n/a
210.538	0.1795	421076	keystroke_s	s	n/a
210.7325	0.045	421465	keystroke_e	e	n/a
211.0175	0.06	422035	keystroke_d	d	n/a
211.1525	0.09	422305	keystroke_Key.space	Key.space	n/a
211.3475	0.0905	422695	keystroke_o	o	n/a
211.573	0.1045	423146	keystroke_n	n	n/a
211.903	0.105	423806	keystroke_o	o	n/a
212.548	0.0745	425096	keystroke_Key.backspace	Key.backspace	n/a
212.818	0.15	425636	keystroke_l	l	n/a
213.088	0.09	426176	keystroke_i	i	n/a
213.193	0.1195	426386	keystroke_n	n	n/a
213.463	0.0895	426926	keystroke_e	e	n/a
213.673	0.09	427346	keystroke_Key.enter	Key.enter	n/a
213.767	6.7615	427534	prompt	n/a	searching partners monitored nowhere\n
214.5275	0.045	429055	keystroke_s	s	n/a
214.648	0.135	429296	keystroke_e	e	n/a
214.7975	0.1355	429595	keystroke_a	a	n/a
214.8575	0.1055	429715	keystroke_r	r	n/a
215.083	0.105	430166	keystroke_c	c	n/a
215.158	0.105	430316	keystroke_h	h	n/a
215.323	0.12	430646	keystroke_i	i	n/a
215.3975	0.1205	430795	keystroke_n	n	n/a
215.458	0.09	430916	keystroke_g	g	n/a
215.5635	0.1045	431127	keystroke_Key.space	Key.space	n/a
215.7275	0.1205	431455	keystroke_p	p	n/a
215.818	0.105	431636	keystroke_a	a	n/a
215.893	0.06	431786	keystroke_r	r	n/a
216.0275	0.1055	432055	keystroke_t	t	n/a
216.3275	0.0905	432655	keystroke_n	n	n/a
216.433	0.075	432866	keystroke_e	e	n/a
216.6275	0.0605	433255	keystroke_r	r	n/a
217.123	0.06	434246	keystroke_s	s	n/a
217.303	0.135	434606	keystroke_Key.space	Key.space	n/a
217.603	0.09	435206	keystroke_m	m	n/a
218.143	0.105	436286	keystroke_o	o	n/a
218.233	0.135	436466	keystroke_n	n	n/a
218.338	0.105	436676	keystroke_i	i	n/a
218.458	0.075	436916	keystroke_t	t	n/a
218.6675	0.1055	437335	keystroke_o	o	n/a
218.818	0.09	437636	keystroke_r	r	n/a
218.983	0.1045	437966	keystroke_e	e	n/a
219.178	0.075	438356	keystroke_d	d	n/a
219.3125	0.1055	438625	keystroke_Key.space	Key.space	n/a
219.4485	0.1195	438897	keystroke_n	n	n/a
219.538	0.105	439076	keystroke_o	o	n/a
219.658	0.075	439316	keystroke_w	w	n/a
219.838	0.0895	439676	keystroke_h	h	n/a
219.9425	0.0905	439885	keystroke_e	e	n/a
220.063	0.1345	440126	keystroke_r	r	n/a
220.138	0.105	440276	keystroke_e	e	n/a
220.453	0.0745	440906	keystroke_Key.enter	Key.enter	n/a
220.532	8.217	441064	prompt	n/a	aluminium containers careful conspiracy\n
221.1275	0.0605	442255	keystroke_a	a	n/a
221.218	0.1655	442436	keystroke_l	l	n/a
221.353	0.0445	442706	keystroke_u	u	n/a
221.5335	0.0745	443067	keystroke_m	m	n/a
221.668	0.12	443336	keystroke_i	i	n/a
222.043	0.105	444086	keystroke_n	n	n/a
222.373	0.1345	444746	keystroke_i	i	n/a
222.478	0.1045	444956	keystroke_u	u	n/a
222.703	0.105	445406	keystroke_m	m	n/a
222.823	0.135	445646	keystroke_Key.space	Key.space	n/a
223.108	0.06	446216	keystroke_c	c	n/a
223.1525	0.1055	446305	keystroke_o	o	n/a
223.2275	0.091	446455	keystroke_n	n	n/a
223.333	0.09	446666	keystroke_t	t	n/a
223.4975	0.0755	446995	keystroke_a	a	n/a
223.648	0.1345	447296	keystroke_i	i	n/a
223.738	0.1045	447476	keystroke_n	n	n/a
223.918	0.165	447836	keystroke_e	e	n/a
224.068	0.105	448136	keystroke_r	r	n/a
224.248	0.1205	448496	keystroke_s	s	n/a
224.4125	0.1355	448825	keystroke_Key.space	Key.space	n/a
224.653	0.12	449306	keystroke_c	c	n/a
224.908	0.1045	449816	keystroke_a	a	n/a
225.103	0.09	450206	keystroke_r	r	n/a
225.1635	0.0745	450327	keystroke_e	e	n/a
225.3275	0.0905	450655	keystroke_f	f	n/a
225.448	0.105	450896	keystroke_u	u	n/a
225.6275	0.09	451255	keystroke_l	l	n/a
225.8845	0.0885	451769	keystroke_Key.space	Key.space	n/a
226.5275	0.1205	453055	keystroke_c	c	n/a
226.663	0.12	453326	keystroke_o	o	n/a
226.753	0.12	453506	keystroke_n	n	n/a
226.873	0.09	453746	keystroke_s	s	n/a
227.068	0.0595	454136	keystroke_p	p	n/a
227.263	0.06	454526	keystroke_i	i	n/a
227.3975	0.1055	454795	keystroke_r	r	n/a
228.058	0.06	456116	keystroke_a	a	n/a
228.103	0.1195	456206	keystroke_c	c	n/a
228.253	0.0745	456506	keystroke_y	y	n/a
228.658	0.09	457316	keystroke_Key.enter	Key.enter	n/a
228.753	7.2105	457506	prompt	n/a	camp following personnel messages\n
229.603	0.09	459206	keystroke_c	c	n/a
229.708	0.1045	459416	keystroke_a	a	n/a
229.858	0.15	459716	keystroke_m	m	n/a
229.978	0.1345	459956	keystroke_p	p	n/a
230.083	0.135	460166	keystroke_Key.space	Key.space	n/a
230.248	0.09	460496	keystroke_f	f	n/a
230.353	0.0445	460706	keystroke_o	o	n/a
230.563	0.0605	461126	keystroke_l	l	n/a
230.743	0.03	461486	keystroke_l	l	n/a
230.878	0.075	461756	keystroke_o	o	n/a
231.0735	0.0895	462147	keystroke_w	w	n/a
231.208	0.135	462416	keystroke_i	i	n/a
231.283	0.165	462566	keystroke_n	n	n/a
231.388	0.0745	462776	keystroke_g	g	n/a
231.493	0.1345	462986	keystroke_Key.space	Key.space	n/a
231.718	0.105	463436	keystroke_p	p	n/a
231.868	0.1045	463736	keystroke_e	e	n/a
231.9585	0.0745	463917	keystroke_r	r	n/a
232.723	0.0745	465446	keystroke_s	s	n/a
232.8275	0.1055	465655	keystroke_o	o	n/a
232.888	0.12	465776	keystroke_n	n	n/a
233.293	0.075	466586	keystroke_n	n	n/a
233.578	0.06	467156	keystroke_e	e	n/a
233.743	0.045	467486	keystroke_l	l	n/a
234.253	0.135	468506	keystroke_Key.space	Key.space	n/a
234.493	0.1045	468986	keystroke_m	m	n/a
234.5975	0.0605	469195	keystroke_e	e	n/a
234.778	0.045	469556	keystroke_s	s	n/a
234.9275	0.1055	469855	keystroke_s	s	n/a
235.048	0.1495	470096	keystroke_a	a	n/a
235.153	0.12	470306	keystroke_g	g	n/a
235.3175	0.0905	470635	keystroke_e	e	n/a
235.4835	0.1045	470967	keystroke_s	s	n/a
235.873	0.0895	471746	keystroke_Key.enter	Key.enter	n/a
235.968	6.101	471936	prompt	n/a	coach kansas boots exports\n
236.758	0.09	473516	keystroke_c	c	n/a
237.2225	0.1355	474445	keystroke_o	o	n/a
237.343	0.09	474686	keystroke_a	a	n/a
237.403	0.105	474806	keystroke_c	c	n/a
237.568	0.105	475136	keystroke_h	h	n/a
237.7785	0.119	475557	keystroke_Key.space	Key.space	n/a
238.603	0.12	477206	keystroke_k	k	n/a
238.738	0.105	477476	keystroke_a	a	n/a
238.828	0.0905	477656	keystroke_n	n	n/a
238.9335	0.105	477867	keystroke_s	s	n/a
239.143	0.165	478286	keystroke_a	a	n/a
239.293	0.1195	478586	keystroke_s	s	n/a
239.488	0.12	478976	keystroke_Key.space	Key.space	n/a
239.788	0.0755	479576	keystroke_b	b	n/a
239.893	0.0605	479786	keystroke_o	o	n/a
240.028	0.09	480056	keystroke_o	o	n/a
240.088	0.09	480176	keystroke_t	t	n/a
240.2835	0.0895	480567	keystroke_s	s	n/a
240.418	0.09	480836	keystroke_Key.space	Key.space	n/a
241.033	0.03	482066	keystroke_e	e	n/a
241.1835	0.0895	482367	keystroke_x	x	n/a
241.288	0.105	482576	keystroke_p	p	n/a
241.408	0.1045	482816	keystroke_o	o	n/a
241.498	0.06	482996	keystroke_r	r	n/a
241.633	0.0895	483266	keystroke_t	t	n/a
241.783	0.09	483566	keystroke_s	s	n/a
241.978	0.09	483956	keystroke_Key.enter	Key.enter	n/a
242.072	5.787	484144	prompt	n/a	merchant below assumed purposes\n
242.863	0.09	485726	keystroke_m	m	n/a
243.088	0.105	486176	keystroke_e	e	n/a
243.148	0.075	486296	keystroke_r	r	n/a
243.3125	0.0905	486625	keystroke_c	c	n/a
243.388	0.075	486776	keystroke_h	h	n/a
243.568	0.15	487136	keystroke_a	a	n/a
243.763	0.075	487526	keystroke_n	n	n/a
243.9275	0.0905	487855	keystroke_t	t	n/a
244.0335	0.1345	488067	keystroke_Key.space	Key.space	n/a
244.1975	0.0605	488395	keystroke_b	b	n/a
244.363	0.0745	488726	keystroke_e	e	n/a
244.498	0.06	488996	keystroke_l	l	n/a
244.648	0.09	489296	keystroke_o	o	n/a
244.7085	0.089	489417	keystroke_w	w	n/a
244.8125	0.1205	489625	keystroke_Key.space	Key.space	n/a
244.9935	0.1045	489987	keystroke_a	a	n/a
245.1885	0.0745	490377	keystroke_s	s	n/a
245.3385	0.1045	490677	keystroke_s	s	n/a
245.428	0.0915	490856	keystroke_u	u	n/a
245.6385	0.0895	491277	keystroke_m	m	n/a
245.698	0.0605	491396	keystroke_e	e	n/a
245.8785	0.045	491757	keystroke_d	d	n/a
245.9235	0.15	491847	keystroke_Key.space	Key.space	n/a
246.3125	0.1205	492625	keystroke_p	p	n/a
246.388	0.105	492776	keystroke_u	u	n/a
246.523	0.0745	493046	keystroke_r	r	n/a
246.7485	0.074	493497	keystroke_p	p	n/a
246.838	0.135	493676	keystroke_o	o	n/a
247.0035	0.1195	494007	keystroke_s	s	n/a
247.108	0.105	494216	keystroke_e	e	n/a
247.3185	0.0895	494637	keystroke_s	s	n/a
247.7685	0.0895	495537	keystroke_Key.enter	Key.enter	n/a
247.863	6.491	495726	prompt	n/a	secrets nose barbados studies\n
248.578	0.076	497156	keystroke_s	s	n/a
248.654	0.074	497308	keystroke_e	e	n/a
248.849	0.0745	497698	keystroke_c	c	n/a
249.0125	0.106	498025	keystroke_r	r	n/a
249.1185	0.1195	498237	keystroke_e	e	n/a
249.254	0.104	498508	keystroke_t	t	n/a
249.553	0.105	499106	keystroke_s	s	n/a
249.808	0.105	499616	keystroke_Key.space	Key.space	n/a
250.243	0.0905	500486	keystroke_n	n	n/a
250.3635	0.1345	500727	keystroke_o	o	n/a
250.513	0.1205	501026	keystroke_s	s	n/a
250.6035	0.09	501207	keystroke_e	e	n/a
250.7235	0.12	501447	keystroke_Key.space	Key.space	n/a
251.323	0.09	502646	keystroke_b	b	n/a
251.4885	0.1045	502977	keystroke_a	a	n/a
251.5485	0.09	503097	keystroke_r	r	n/a
251.7885	0.0745	503577	keystroke_b	b	n/a
251.968	0.0595	503936	keystroke_a	a	n/a
252.1485	0.0745	504297	keystroke_d	d	n/a
252.328	0.0905	504656	keystroke_o	o	n/a
252.5685	0.0595	505137	keystroke_s	s	n/a
252.703	0.135	505406	keystroke_Key.space	Key.space	n/a
253.2885	0.105	506577	keystroke_s	s	n/a
253.3935	0.09	506787	keystroke_t	t	n/a
253.498	0.105	506996	keystroke_u	u	n/a
253.6185	0.0895	507237	keystroke_d	d	n/a
253.948	0.09	507896	keystroke_i	i	n/a
254.023	0.045	508046	keystroke_e	e	n/a
254.1435	0.09	508287	keystroke_s	s	n/a
254.2935	0.06	508587	keystroke_Key.enter	Key.enter	n/a
254.3575	6.7765	508715	prompt	n/a	polymer stranger dining accent\n
255.1335	0.12	510267	keystroke_p	p	n/a
255.3435	0.225	510687	keystroke_l	l	n/a
255.5385	0.105	511077	keystroke_u	u	n/a
256.063	0.045	512126	keystroke_Key.backspace	Key.backspace	n/a
256.1835	0.0755	512367	keystroke_Key.backspace	Key.backspace	n/a
256.498	0.06	512996	keystroke_o	o	n/a
256.6635	0.1795	513327	keystroke_l	l	n/a
257.188	0.075	514376	keystroke_y	y	n/a
257.488	0.09	514976	keystroke_m	m	n/a
257.638	0.12	515276	keystroke_e	e	n/a
257.7425	0.0905	515485	keystroke_r	r	n/a
257.878	0.135	515756	keystroke_Key.space	Key.space	n/a
258.028	0.06	516056	keystroke_s	s	n/a
258.118	0.03	516236	keystroke_t	t	n/a
258.2535	0.104	516507	keystroke_r	r	n/a
258.373	0.105	516746	keystroke_a	a	n/a
258.493	0.1045	516986	keystroke_n	n	n/a
258.643	0.045	517286	keystroke_g	g	n/a
258.7935	0.104	517587	keystroke_e	e	n/a
258.868	0.09	517736	keystroke_r	r	n/a
259.0025	0.1205	518005	keystroke_Key.space	Key.space	n/a
259.138	0.06	518276	keystroke_d	d	n/a
259.2285	0.0895	518457	keystroke_i	i	n/a
259.408	0.105	518816	keystroke_n	n	n/a
259.558	0.15	519116	keystroke_i	i	n/a
259.663	0.105	519326	keystroke_n	n	n/a
259.7835	0.0895	519567	keystroke_g	g	n/a
259.888	0.15	519776	keystroke_Key.space	Key.space	n/a
260.128	0.105	520256	keystroke_a	a	n/a
260.308	0.0755	520616	keystroke_c	c	n/a
260.458	0.15	520916	keystroke_c	c	n/a
260.579	0.119	521158	keystroke_e	e	n/a
260.743	0.105	521486	keystroke_n	n	n/a
260.8935	0.0895	521787	keystroke_t	t	n/a
261.043	0.09	522086	keystroke_Key.enter	Key.enter	n/a
261.138	5.216	522276	prompt	n/a	situations wearing cold chinese\n
261.7785	0.105	523557	keystroke_s	s	n/a
261.913	0.075	523826	keystroke_i	i	n/a
262.0035	0.075	524007	keystroke_t	t	n/a
262.0935	0.1045	524187	keystroke_u	u	n/a
262.273	0.135	524546	keystroke_a	a	n/a
262.3785	0.105	524757	keystroke_t	t	n/a
262.603	0.135	525206	keystroke_i	i	n/a
262.7235	0.1495	525447	keystroke_o	o	n/a
262.828	0.136	525656	keystroke_n	n	n/a
262.993	0.06	525986	keystroke_s	s	n/a
263.068	0.135	526136	keystroke_Key.space	Key.space	n/a
263.323	0.075	526646	keystroke_w	w	n/a
263.4585	0.1345	526917	keystroke_e	e	n/a
263.6385	0.1195	527277	keystroke_a	a	n/a
263.6985	0.1195	527397	keystroke_r	r	n/a
263.923	0.135	527846	keystroke_i	i	n/a
264.028	0.135	528056	keystroke_n	n	n/a
264.103	0.09	528206	keystroke_g	g	n/a
264.238	0.12	528476	keystroke_Key.space	Key.space	n/a
264.388	0.135	528776	keystroke_c	c	n/a
264.4785	0.0745	528957	keystroke_o	o	n/a
264.6435	0.1045	529287	keystroke_l	l	n/a
264.7335	0.075	529467	keystroke_d	d	n/a
264.7935	0.1345	529587	keystroke_Key.space	Key.space	n/a
264.9435	0.15	529887	keystroke_c	c	n/a
265.0345	0.089	530069	keystroke_h	h	n/a
265.2435	0.105	530487	keystroke_i	i	n/a
265.393	0.105	530786	keystroke_n	n	n/a
265.513	0.0905	531026	keystroke_e	e	n/a
265.7085	0.1195	531417	keystroke_s	s	n/a
266.038	0.1055	532076	keystroke_e	e	n/a
266.2635	0.09	532527	keystroke_Key.enter	Key.enter	n/a
266.3575	6.627	532715	prompt	n/a	grammar reprints weekly largely\n
267.013	0.1055	534026	keystroke_g	g	n/a
267.208	0.105	534416	keystroke_r	r	n/a
267.2685	0.0895	534537	keystroke_a	a	n/a
267.4635	0.045	534927	keystroke_m	m	n/a
267.598	0.1055	535196	keystroke_m	m	n/a
267.8835	0.105	535767	keystroke_a	a	n/a
267.958	0.0905	535916	keystroke_r	r	n/a
268.0935	0.1195	536187	keystroke_Key.space	Key.space	n/a
268.3785	0.105	536757	keystroke_r	r	n/a
268.4535	0.105	536907	keystroke_e	e	n/a
268.5735	0.105	537147	keystroke_p	p	n/a
268.769	0.1195	537538	keystroke_r	r	n/a
268.8585	0.06	537717	keystroke_e	e	n/a
269.2635	0.06	538527	keystroke_Key.backspace	Key.backspace	n/a
269.6835	0.105	539367	keystroke_i	i	n/a
269.7435	0.1195	539487	keystroke_n	n	n/a
269.8335	0.075	539667	keystroke_t	t	n/a
270.028	0.0755	540056	keystroke_s	s	n/a
270.1485	0.12	540297	keystroke_Key.space	Key.space	n/a
270.313	0.0905	540626	keystroke_w	w	n/a
270.5535	0.09	541107	keystroke_e	e	n/a
270.7485	0.06	541497	keystroke_e	e	n/a
270.9285	0.09	541857	keystroke_k	k	n/a
271.1235	0.165	542247	keystroke_l	l	n/a
271.198	0.106	542396	keystroke_y	y	n/a
271.3185	0.12	542637	keystroke_Key.space	Key.space	n/a
271.6035	0.075	543207	keystroke_l	l	n/a
271.7235	0.0895	543447	keystroke_a	a	n/a
271.8735	0.075	543747	keystroke_r	r	n/a
272.0685	0.075	544137	keystroke_g	g	n/a
272.2485	0.06	544497	keystroke_e	e	n/a
272.4735	0.09	544947	keystroke_l	l	n/a
272.6535	0.075	545307	keystroke_y	y	n/a
272.9085	0.075	545817	keystroke_Key.enter	Key.enter	n/a
272.989	6.3405	545978	prompt	n/a	burton encouraging latest indicating\n
273.613	0.09	547226	keystroke_b	b	n/a
273.7935	0.06	547587	keystroke_u	u	n/a
273.8685	0.06	547737	keystroke_r	r	n/a
274.0185	0.09	548037	keystroke_t	t	n/a
274.1235	0.045	548247	keystroke_o	o	n/a
274.2885	0.105	548577	keystroke_n	n	n/a
274.3785	0.1345	548757	keystroke_Key.space	Key.space	n/a
274.6785	0.045	549357	keystroke_e	e	n/a
274.7685	0.075	549537	keystroke_n	n	n/a
275.008	0.105	550016	keystroke_c	c	n/a
275.098	0.1355	550196	keystroke_o	o	n/a
275.1885	0.06	550377	keystroke_u	u	n/a
275.2935	0.075	550587	keystroke_r	r	n/a
275.4435	0.105	550887	keystroke_a	a	n/a
275.8185	0.075	551637	keystroke_g	g	n/a
275.998	0.1055	551996	keystroke_i	i	n/a
276.0585	0.105	552117	keystroke_n	n	n/a
276.1485	0.06	552297	keystroke_g	g	n/a
276.2535	0.105	552507	keystroke_Key.space	Key.space	n/a
276.4485	0.09	552897	keystroke_l	l	n/a
276.4935	0.1045	552987	keystroke_a	a	n/a
276.6585	0.075	553317	keystroke_t	t	n/a
276.8385	0.195	553677	keystroke_e	e	n/a
277.1085	0.0895	554217	keystroke_s	s	n/a
277.213	0.0605	554426	keystroke_t	t	n/a
277.3335	0.12	554667	keystroke_Key.space	Key.space	n/a
277.7235	0.0745	555447	keystroke_i	i	n/a
277.9035	0.135	555807	keystroke_n	n	n/a
278.0535	0.0745	556107	keystroke_d	d	n/a
278.1735	0.06	556347	keystroke_i	i	n/a
278.2485	0.1495	556497	keystroke_c	c	n/a
278.4285	0.165	556857	keystroke_a	a	n/a
278.5635	0.09	557127	keystroke_t	t	n/a
278.7735	0.12	557547	keystroke_i	i	n/a
278.9235	0.1045	557847	keystroke_n	n	n/a
279.0435	0.075	558087	keystroke_g	g	n/a
279.2385	0.09	558477	keystroke_Key.enter	Key.enter	n/a
279.332	6.7175	558664	prompt	n/a	prefers incorporated depot strip\n
279.9735	0.09	559947	keystroke_p	p	n/a
280.094	0.119	560188	keystroke_r	r	n/a
280.2435	0.09	560487	keystroke_e	e	n/a
280.3785	0.105	560757	keystroke_f	f	n/a
280.5585	0.09	561117	keystroke_e	e	n/a
280.6335	0.1045	561267	keystroke_r	r	n/a
280.8435	0.075	561687	keystroke_s	s	n/a
280.9335	0.135	561867	keystroke_Key.space	Key.space	n/a
281.1585	0.136	562317	keystroke_i	i	n/a
281.2485	0.12	562497	keystroke_n	n	n/a
281.398	0.1055	562796	keystroke_c	c	n/a
281.5335	0.045	563067	keystroke_o	o	n/a
281.9685	0.0745	563937	keystroke_r	r	n/a
282.0885	0.12	564177	keystroke_p	p	n/a
282.2235	0.135	564447	keystroke_o	o	n/a
282.3585	0.09	564717	keystroke_r	r	n/a
282.5085	0.1645	565017	keystroke_a	a	n/a
282.628	0.151	565256	keystroke_t	t	n/a
282.7335	0.09	565467	keystroke_e	e	n/a
283.0335	0.09	566067	keystroke_s	s	n/a
283.4685	0.0605	566937	keystroke_Key.backspace	Key.backspace	n/a
283.5435	0.075	567087	keystroke_d	d	n/a
283.6935	0.135	567387	keystroke_Key.space	Key.space	n/a
284.0685	0.0445	568137	keystroke_d	d	n/a
284.2035	0.06	568407	keystroke_e	e	n/a
284.3535	0.0745	568707	keystroke_p	p	n/a
284.4735	0.1195	568947	keystroke_o	o	n/a
284.6235	0.09	569247	keystroke_t	t	n/a
284.7585	0.105	569517	keystroke_Key.space	Key.space	n/a
285.0285	0.075	570057	keystroke_s	s	n/a
285.178	0.0755	570356	keystroke_t	t	n/a
285.3285	0.09	570657	keystroke_r	r	n/a
285.4785	0.18	570957	keystroke_i	i	n/a
285.6285	0.12	571257	keystroke_p	p	n/a
285.9585	0.09	571917	keystroke_Key.enter	Key.enter	n/a
286.052	8.098	572104	prompt	n/a	reject ratio west finishing\n
289.5735	0.09	579147	keystroke_r	r	n/a
289.6485	0.0745	579297	keystroke_e	e	n/a
289.813	0.0755	579626	keystroke_j	j	n/a
289.9035	0.06	579807	keystroke_e	e	n/a
290.084	0.029	580168	keystroke_c	c	n/a
290.2035	0.075	580407	keystroke_t	t	n/a
290.2935	0.1195	580587	keystroke_Key.space	Key.space	n/a
290.4885	0.105	580977	keystroke_r	r	n/a
290.6235	0.105	581247	keystroke_a	a	n/a
290.7585	0.09	581517	keystroke_t	t	n/a
290.8935	0.1495	581787	keystroke_i	i	n/a
290.998	0.1355	581996	keystroke_o	o	n/a
291.0885	0.105	582177	keystroke_n	n	n/a
291.1635	0.105	582327	keystroke_Key.space	Key.space	n/a
291.613	0.045	583226	keystroke_Key.backspace	Key.backspace	n/a
291.719	0.0745	583438	keystroke_Key.backspace	Key.backspace	n/a
291.8085	0.1045	583617	keystroke_Key.space	Key.space	n/a
292.0035	0.075	584007	keystroke_w	w	n/a
292.1835	0.06	584367	keystroke_e	e	n/a
292.453	0.1205	584906	keystroke_s	s	n/a
292.5585	0.075	585117	keystroke_t	t	n/a
292.6935	0.09	585387	keystroke_Key.space	Key.space	n/a
292.8285	0.0895	585657	keystroke_f	f	n/a
292.9185	0.09	585837	keystroke_i	i	n/a
293.0535	0.12	586107	keystroke_n	n	n/a
293.1435	0.09	586287	keystroke_i	i	n/a
293.2485	0.09	586497	keystroke_s	s	n/a
293.4585	0.1045	586917	keystroke_h	h	n/a
293.5935	0.165	587187	keystroke_i	i	n/a
293.713	0.1205	587426	keystroke_n	n	n/a
293.893	0.0905	587786	keystroke_g	g	n/a
294.0435	0.105	588087	keystroke_Key.enter	Key.enter	n/a
294.1525	7.437	588305	prompt	n/a	occurrence buyers export midwest\n
294.913	0.0755	589826	keystroke_o	o	n/a
295.0335	0.075	590067	keystroke_c	c	n/a
295.184	0.0745	590368	keystroke_c	c	n/a
295.2885	0.06	590577	keystroke_u	u	n/a
295.379	0.06	590758	keystroke_r	r	n/a
295.5135	0.076	591027	keystroke_r	r	n/a
295.679	0.075	591358	keystroke_e	e	n/a
295.8285	0.105	591657	keystroke_n	n	n/a
296.069	0.137	592138	keystroke_c	c	n/a
296.1625	0.0715	592325	keystroke_e	e	n/a
296.264	0.1495	592528	keystroke_Key.space	Key.space	n/a
296.459	0.075	592918	keystroke_b	b	n/a
297.779	0.075	595558	keystroke_u	u	n/a
298.049	0.06	596098	keystroke_y	y	n/a
298.259	0.1195	596518	keystroke_e	e	n/a
298.349	0.105	596698	keystroke_r	r	n/a
298.5285	0.0905	597057	keystroke_s	s	n/a
298.8435	0.135	597687	keystroke_Key.space	Key.space	n/a
299.2635	0.045	598527	keystroke_e	e	n/a
299.444	0.0745	598888	keystroke_x	x	n/a
299.489	0.1195	598978	keystroke_p	p	n/a
299.669	0.1045	599338	keystroke_o	o	n/a
299.8185	0.075	599637	keystroke_r	r	n/a
299.9685	0.0905	599937	keystroke_t	t	n/a
300.1935	0.1045	600387	keystroke_Key.space	Key.space	n/a
300.3885	0.1355	600777	keystroke_m	m	n/a
300.4785	0.105	600957	keystroke_i	i	n/a
300.613	0.0755	601226	keystroke_d	d	n/a
300.8685	0.075	601737	keystroke_w	w	n/a
300.9585	0.075	601917	keystroke_e	e	n/a
301.1235	0.105	602247	keystroke_s	s	n/a
301.2435	0.09	602487	keystroke_t	t	n/a
301.4835	0.105	602967	keystroke_Key.enter	Key.enter	n/a
301.593	3.8815	603186	prompt	n/a	lyric finite in voices\n
302.2635	0.1655	604527	keystroke_l	l	n/a
302.4435	0.0455	604887	keystroke_y	y	n/a
302.6085	0.0755	605217	keystroke_r	r	n/a
302.698	0.0905	605396	keystroke_i	i	n/a
302.8185	0.12	605637	keystroke_c	c	n/a
302.9535	0.135	605907	keystroke_Key.space	Key.space	n/a
303.2535	0.0905	606507	keystroke_f	f	n/a
303.3285	0.12	606657	keystroke_i	i	n/a
303.4335	0.12	606867	keystroke_n	n	n/a
303.5385	0.075	607077	keystroke_i	i	n/a
303.7035	0.075	607407	keystroke_t	t	n/a
303.8535	0.09	607707	keystroke_e	e	n/a
304.0485	0.09	608097	keystroke_Key.space	Key.space	n/a
304.1985	0.15	608397	keystroke_i	i	n/a
304.3335	0.105	608667	keystroke_n	n	n/a
304.3785	0.1345	608757	keystroke_Key.space	Key.space	n/a
304.5435	0.09	609087	keystroke_v	v	n/a
304.649	0.135	609298	keystroke_o	o	n/a
304.7685	0.075	609537	keystroke_i	i	n/a
304.9185	0.1355	609837	keystroke_c	c	n/a
305.068	0.0905	610136	keystroke_e	e	n/a
305.2485	0.105	610497	keystroke_s	s	n/a
305.384	0.0895	610768	keystroke_Key.enter	Key.enter	n/a
305.4775	7.0175	610955	prompt	n/a	adds competitions ne'er disappointed\n
306.224	0.0895	612448	keystroke_a	a	n/a
306.374	0.09	612748	keystroke_d	d	n/a
306.5385	0.1055	613077	keystroke_d	d	n/a
306.6585	0.09	613317	keystroke_s	s	n/a
306.8535	0.09	613707	keystroke_Key.space	Key.space	n/a
306.9885	0.1055	613977	keystroke_c	c	n/a
307.1085	0.105	614217	keystroke_o	o	n/a
307.184	0.1195	614368	keystroke_m	m	n/a
307.2735	0.135	614547	keystroke_p	p	n/a
307.394	0.09	614788	keystroke_e	e	n/a
307.589	0.075	615178	keystroke_t	t	n/a
307.694	0.06	615388	keystroke_i	i	n/a
307.784	0.075	615568	keystroke_t	t	n/a
307.889	0.15	615778	keystroke_i	i	n/a
308.084	0.165	616168	keystroke_o	o	n/a
308.189	0.12	616378	keystroke_n	n	n/a
308.294	0.09	616588	keystroke_s	s	n/a
308.654	0.105	617308	keystroke_Key.space	Key.space	n/a
308.9085	0.105	617817	keystroke_n	n	n/a
309.0285	0.0605	618057	keystroke_e	e	n/a
309.254	0.0745	618508	keystroke_'	'	n/a
309.599	0.09	619198	keystroke_e	e	n/a
309.779	0.045	619558	keystroke_r	r	n/a
309.9135	0.1055	619827	keystroke_Key.space	Key.space	n/a
310.1835	0.06	620367	keystroke_d	d	n/a
310.274	0.0755	620548	keystroke_i	i	n/a
310.3495	0.1345	620699	keystroke_s	s	n/a
310.724	0.0895	621448	keystroke_a	a	n/a
310.994	0.03	621988	keystroke_p	p	n/a
311.0985	0.0905	622197	keystroke_p	p	n/a
311.279	0.2105	622558	keystroke_o	o	n/a
311.444	0.15	622888	keystroke_i	i	n/a
311.519	0.15	623038	keystroke_n	n	n/a
311.729	0.105	623458	keystroke_t	t	n/a
311.789	0.0745	623578	keystroke_e	e	n/a
311.954	0.105	623908	keystroke_d	d	n/a
312.419	0.075	624838	keystroke_Key.enter	Key.enter	n/a
312.498	7.3315	624996	prompt	n/a	certainly combining colonial struct\n
313.289	0.0895	626578	keystroke_c	c	n/a
313.454	0.0745	626908	keystroke_e	e	n/a
313.4985	0.0755	626997	keystroke_r	r	n/a
313.649	0.09	627298	keystroke_t	t	n/a
313.8135	0.0905	627627	keystroke_a	a	n/a
313.949	0.1495	627898	keystroke_i	i	n/a
314.054	0.105	628108	keystroke_n	n	n/a
314.339	0.18	628678	keystroke_l	l	n/a
314.444	0.12	628888	keystroke_y	y	n/a
314.594	0.1345	629188	keystroke_Key.space	Key.space	n/a
315.179	0.105	630358	keystroke_c	c	n/a
315.269	0.135	630538	keystroke_o	o	n/a
315.374	0.105	630748	keystroke_m	m	n/a
315.464	0.09	630928	keystroke_b	b	n/a
315.629	0.105	631258	keystroke_i	i	n/a
315.869	0.0895	631738	keystroke_n	n	n/a
316.0045	0.1645	632009	keystroke_i	i	n/a
316.109	0.15	632218	keystroke_n	n	n/a
316.274	0.075	632548	keystroke_g	g	n/a
316.379	0.1345	632758	keystroke_Key.space	Key.space	n/a
316.859	0.075	633718	keystroke_c	c	n/a
316.919	0.06	633838	keystroke_o	o	n/a
317.0985	0.0455	634197	keystroke_l	l	n/a
317.2335	0.0905	634467	keystroke_o	o	n/a
317.6985	0.0905	635397	keystroke_n	n	n/a
317.834	0.12	635668	keystroke_i	i	n/a
317.954	0.135	635908	keystroke_a	a	n/a
318.089	0.135	636178	keystroke_l	l	n/a
318.194	0.1195	636388	keystroke_Key.space	Key.space	n/a
318.734	0.045	637468	keystroke_s	s	n/a
318.824	0.0895	637648	keystroke_t	t	n/a
318.974	0.09	637948	keystroke_r	r	n/a
319.109	0.075	638218	keystroke_u	u	n/a
319.1985	0.0905	638397	keystroke_c	c	n/a
319.394	0.1045	638788	keystroke_t	t	n/a
319.7235	0.105	639447	keystroke_Key.enter	Key.enter	n/a
319.8345	6.0855	639669	prompt	n/a	nails talked forgotten utilize\n
320.519	0.105	641038	keystroke_n	n	n/a
320.639	0.105	641278	keystroke_a	a	n/a
320.7135	0.1805	641427	keystroke_i	i	n/a
320.834	0.12	641668	keystroke_l	l	n/a
320.969	0.0895	641938	keystroke_s	s	n/a
321.0735	0.1205	642147	keystroke_Key.space	Key.space	n/a
321.284	0.075	642568	keystroke_t	t	n/a
321.434	0.075	642868	keystroke_a	a	n/a
321.524	0.135	643048	keystroke_l	l	n/a
321.6135	0.1055	643227	keystroke_k	k	n/a
321.734	0.075	643468	keystroke_e	e	n/a
321.9135	0.0755	643827	keystroke_d	d	n/a
322.034	0.105	644068	keystroke_Key.space	Key.space	n/a
322.304	0.075	644608	keystroke_f	f	n/a
322.394	0.1045	644788	keystroke_o	o	n/a
322.544	0.075	645088	keystroke_r	r	n/a
322.754	0.0595	645508	keystroke_g	g	n/a
322.844	0.09	645688	keystroke_o	o	n/a
322.949	0.075	645898	keystroke_t	t	n/a
323.0985	0.1205	646197	keystroke_t	t	n/a
323.234	0.075	646468	keystroke_e	e	n/a
323.3985	0.1205	646797	keystroke_n	n	n/a
323.549	0.105	647098	keystroke_Key.space	Key.space	n/a
323.744	0.075	647488	keystroke_u	u	n/a
323.864	0.09	647728	keystroke_t	t	n/a
324.2835	0.0905	648567	keystroke_i	i	n/a
324.464	0.1495	648928	keystroke_l	l	n/a
324.554	0.12	649108	keystroke_i	i	n/a
324.9285	0.1355	649857	keystroke_z	z	n/a
325.364	0.075	650728	keystroke_e	e	n/a
325.8445	0.0745	651689	keystroke_Key.enter	Key.enter	n/a
325.923	6.8375	651846	prompt	n/a	handles presented smallest accurately\n
326.594	0.075	653188	keystroke_h	h	n/a
326.684	0.075	653368	keystroke_a	a	n/a
326.774	0.09	653548	keystroke_n	n	n/a
326.849	0.075	653698	keystroke_d	d	n/a
326.969	0.09	653938	keystroke_l	l	n/a
327.074	0.045	654148	keystroke_e	e	n/a
327.254	0.09	654508	keystroke_s	s	n/a
327.569	0.135	655138	keystroke_Key.space	Key.space	n/a
327.9135	0.0755	655827	keystroke_p	p	n/a
328.019	0.1045	656038	keystroke_r	r	n/a
328.1085	0.0605	656217	keystroke_e	e	n/a
328.349	0.09	656698	keystroke_s	s	n/a
328.424	0.0895	656848	keystroke_e	e	n/a
328.589	0.09	657178	keystroke_n	n	n/a
328.7535	0.1055	657507	keystroke_t	t	n/a
328.844	0.06	657688	keystroke_e	e	n/a
328.994	0.09	657988	keystroke_d	d	n/a
329.174	0.12	658348	keystroke_Key.space	Key.space	n/a
329.414	0.06	658828	keystroke_s	s	n/a
329.519	0.0905	659038	keystroke_m	m	n/a
329.624	0.0895	659248	keystroke_a	a	n/a
329.744	0.045	659488	keystroke_l	l	n/a
329.879	0.09	659758	keystroke_l	l	n/a
329.9985	0.0755	659997	keystroke_e	e	n/a
330.224	0.105	660448	keystroke_s	s	n/a
330.3445	0.0745	660689	keystroke_t	t	n/a
330.554	0.1195	661108	keystroke_Key.space	Key.space	n/a
330.884	0.075	661768	keystroke_a	a	n/a
331.004	0.105	662008	keystroke_c	c	n/a
331.139	0.135	662278	keystroke_c	c	n/a
331.3185	0.1055	662637	keystroke_u	u	n/a
331.7985	0.0775	663597	keystroke_r	r	n/a
331.934	0.12	663868	keystroke_a	a	n/a
332.1135	0.1205	664227	keystroke_t	t	n/a
332.204	0.09	664408	keystroke_e	e	n/a
332.3985	0.1655	664797	keystroke_l	l	n/a
332.504	0.06	665008	keystroke_y	y	n/a
332.684	0.075	665368	keystroke_Key.enter	Key.enter	n/a
332.7635	7.467	665527	prompt	n/a	academy mariah awards enjoy\n
333.329	0.09	666658	keystroke_a	a	n/a
333.479	0.1195	666958	keystroke_c	c	n/a
333.584	0.09	667168	keystroke_a	a	n/a
334.004	0.06	668008	keystroke_d	d	n/a
334.169	0.075	668338	keystroke_e	e	n/a
334.274	0.09	668548	keystroke_m	m	n/a
334.5435	0.0605	669087	keystroke_y	y	n/a
335.069	0.135	670138	keystroke_Key.space	Key.space	n/a
335.669	0.105	671338	keystroke_m	m	n/a
335.7885	0.1205	671577	keystroke_a	a	n/a
335.879	0.105	671758	keystroke_r	r	n/a
336.2985	0.1055	672597	keystroke_i	i	n/a
336.389	0.09	672778	keystroke_a	a	n/a
336.509	0.1045	673018	keystroke_h	h	n/a
336.584	0.135	673168	keystroke_Key.space	Key.space	n/a
337.409	0.135	674818	keystroke_a	a	n/a
337.664	0.105	675328	keystroke_w	w	n/a
337.859	0.09	675718	keystroke_a	a	n/a
338.039	0.0745	676078	keystroke_r	r	n/a
338.234	0.1045	676468	keystroke_d	d	n/a
338.324	0.105	676648	keystroke_s	s	n/a
338.669	0.1355	677338	keystroke_Key.space	Key.space	n/a
339.164	0.06	678328	keystroke_e	e	n/a
339.2245	0.0595	678449	keystroke_n	n	n/a
339.4045	0.0895	678809	keystroke_j	j	n/a
339.539	0.18	679078	keystroke_o	o	n/a
339.6585	0.0755	679317	keystroke_y	y	n/a
340.154	0.075	680308	keystroke_Key.enter	Key.enter	n/a
340.2345	6.7605	680469	prompt	n/a	metric gentle decorative infants\n
340.904	0.105	681808	keystroke_m	m	n/a
340.9945	0.0595	681989	keystroke_e	e	n/a
341.0845	0.0595	682169	keystroke_t	t	n/a
341.2495	0.0745	682499	keystroke_r	r	n/a
341.3845	0.09	682769	keystroke_i	i	n/a
341.4895	0.09	682979	keystroke_c	c	n/a
341.5795	0.105	683159	keystroke_Key.space	Key.space	n/a
341.714	0.076	683428	keystroke_e	e	n/a
342.1045	0.074	684209	keystroke_Key.backspace	Key.backspace	n/a
342.164	0.06	684328	keystroke_g	g	n/a
342.299	0.091	684598	keystroke_e	e	n/a
342.3745	0.1045	684749	keystroke_n	n	n/a
342.539	0.075	685078	keystroke_t	t	n/a
342.8095	0.089	685619	keystroke_l	l	n/a
342.914	0.075	685828	keystroke_e	e	n/a
343.034	0.12	686068	keystroke_Key.space	Key.space	n/a
343.289	0.06	686578	keystroke_d	d	n/a
343.409	0.0595	686818	keystroke_e	e	n/a
343.544	0.09	687088	keystroke_c	c	n/a
343.649	0.105	687298	keystroke_o	o	n/a
343.754	0.09	687508	keystroke_r	r	n/a
343.874	0.135	687748	keystroke_a	a	n/a
343.964	0.09	687928	keystroke_t	t	n/a
344.069	0.1055	688138	keystroke_i	i	n/a
344.309	0.06	688618	keystroke_e	e	n/a
344.7295	0.0595	689459	keystroke_Key.backspace	Key.backspace	n/a
344.834	0.075	689668	keystroke_Key.backspace	Key.backspace	n/a
344.864	0.09	689728	keystroke_v	v	n/a
345.239	0.075	690478	keystroke_Key.backspace	Key.backspace	n/a
345.434	0.09	690868	keystroke_i	i	n/a
345.4945	0.104	690989	keystroke_v	v	n/a
345.704	0.045	691408	keystroke_e	e	n/a
345.854	0.105	691708	keystroke_Key.space	Key.space	n/a
346.004	0.1205	692008	keystroke_i	i	n/a
346.079	0.105	692158	keystroke_n	n	n/a
346.1695	0.0745	692339	keystroke_f	f	n/a
346.304	0.09	692608	keystroke_a	a	n/a
346.454	0.09	692908	keystroke_n	n	n/a
346.56	0.089	693120	keystroke_t	t	n/a
346.694	0.09	693388	keystroke_s	s	n/a
346.919	0.075	693838	keystroke_Key.enter	Key.enter	n/a
346.998	6.013	693996	prompt	n/a	progressive mariah vitamins clara\n
347.7135	0.0905	695427	keystroke_p	p	n/a
347.834	0.0605	695668	keystroke_r	r	n/a
347.924	0.0745	695848	keystroke_o	o	n/a
348.0285	0.0605	696057	keystroke_g	g	n/a
348.209	0.1045	696418	keystroke_r	r	n/a
348.269	0.09	696538	keystroke_e	e	n/a
348.464	0.06	696928	keystroke_s	s	n/a
348.629	0.075	697258	keystroke_s	s	n/a
348.749	0.09	697498	keystroke_i	i	n/a
348.854	0.075	697708	keystroke_v	v	n/a
348.9735	0.0905	697947	keystroke_e	e	n/a
349.079	0.105	698158	keystroke_Key.space	Key.space	n/a
349.229	0.105	698458	keystroke_m	m	n/a
349.304	0.105	698608	keystroke_a	a	n/a
349.394	0.075	698788	keystroke_r	r	n/a
349.6195	0.1045	699239	keystroke_i	i	n/a
349.739	0.105	699478	keystroke_a	a	n/a
349.949	0.105	699898	keystroke_h	h	n/a
350.069	0.105	700138	keystroke_Key.space	Key.space	n/a
350.474	0.09	700948	keystroke_v	v	n/a
350.58	0.074	701160	keystroke_i	i	n/a
350.6845	0.0745	701369	keystroke_t	t	n/a
350.834	0.0605	701668	keystroke_a	a	n/a
350.939	0.105	701878	keystroke_m	m	n/a
351.104	0.15	702208	keystroke_i	i	n/a
351.194	0.1045	702388	keystroke_n	n	n/a
351.479	0.075	702958	keystroke_s	s	n/a
351.809	0.0895	703618	keystroke_Key.space	Key.space	n/a
352.154	0.09	704308	keystroke_c	c	n/a
352.2745	0.09	704549	keystroke_l	l	n/a
352.349	0.1355	704698	keystroke_a	a	n/a
352.499	0.135	704998	keystroke_r	r	n/a
352.649	0.12	705298	keystroke_a	a	n/a
352.904	0.1055	705808	keystroke_Key.enter	Key.enter	n/a
353.016	7.464	706032	prompt	n/a	conceptual recognized payday participate\n
353.654	0.105	707308	keystroke_c	c	n/a
353.729	0.135	707458	keystroke_o	o	n/a
353.834	0.075	707668	keystroke_n	n	n/a
354.029	0.1055	708058	keystroke_c	c	n/a
354.194	0.0905	708388	keystroke_e	e	n/a
354.329	0.0905	708658	keystroke_p	p	n/a
354.5095	0.075	709019	keystroke_t	t	n/a
354.8695	0.075	709739	keystroke_u	u	n/a
354.9745	0.09	709949	keystroke_a	a	n/a
355.1095	0.135	710219	keystroke_l	l	n/a
355.229	0.1355	710458	keystroke_Key.space	Key.space	n/a
355.6345	0.075	711269	keystroke_r	r	n/a
355.6945	0.0905	711389	keystroke_e	e	n/a
355.8895	0.09	711779	keystroke_c	c	n/a
356.0095	0.0895	712019	keystroke_o	o	n/a
356.0845	0.075	712169	keystroke_g	g	n/a
356.1895	0.1345	712379	keystroke_n	n	n/a
356.2945	0.0595	712589	keystroke_i	i	n/a
356.414	0.1205	712828	keystroke_z	z	n/a
356.924	0.0455	713848	keystroke_e	e	n/a
357.089	0.09	714178	keystroke_d	d	n/a
357.239	0.135	714478	keystroke_Key.space	Key.space	n/a
357.4645	0.134	714929	keystroke_p	p	n/a
357.5845	0.075	715169	keystroke_a	a	n/a
357.7195	0.0745	715439	keystroke_y	y	n/a
358.199	0.06	716398	keystroke_d	d	n/a
358.304	0.09	716608	keystroke_a	a	n/a
358.424	0.075	716848	keystroke_y	y	n/a
358.829	0.105	717658	keystroke_Key.space	Key.space	n/a
359.009	0.075	718018	keystroke_p	p	n/a
359.0985	0.1055	718197	keystroke_a	a	n/a
359.189	0.06	718378	keystroke_r	r	n/a
359.3095	0.089	718619	keystroke_t	t	n/a
359.414	0.075	718828	keystroke_i	i	n/a
359.549	0.1205	719098	keystroke_c	c	n/a
359.6545	0.0895	719309	keystroke_i	i	n/a
359.8045	0.1195	719609	keystroke_p	p	n/a
359.9095	0.1495	719819	keystroke_a	a	n/a
360.029	0.1205	720058	keystroke_t	t	n/a
360.119	0.06	720238	keystroke_e	e	n/a
360.404	0.075	720808	keystroke_Key.enter	Key.enter	n/a
360.483	7.362	720966	prompt	n/a	delete treatments module copied\n
361.049	0.06	722098	keystroke_d	d	n/a
361.1845	0.0745	722369	keystroke_e	e	n/a
361.304	0.0745	722608	keystroke_l	l	n/a
361.4395	0.1045	722879	keystroke_e	e	n/a
361.604	0.12	723208	keystroke_t	t	n/a
361.679	0.09	723358	keystroke_e	e	n/a
361.8285	0.1055	723657	keystroke_Key.space	Key.space	n/a
361.964	0.0745	723928	keystroke_t	t	n/a
362.144	0.12	724288	keystroke_r	r	n/a
362.369	0.09	724738	keystroke_e	e	n/a
362.549	0.09	725098	keystroke_a	a	n/a
362.6395	0.059	725279	keystroke_t	t	n/a
362.7135	0.0755	725427	keystroke_t	t	n/a
363.0285	0.0905	726057	keystroke_m	m	n/a
363.284	0.0445	726568	keystroke_Key.backspace	Key.backspace	n/a
363.3895	0.0595	726779	keystroke_Key.backspace	Key.backspace	n/a
363.584	0.06	727168	keystroke_m	m	n/a
363.749	0.06	727498	keystroke_e	e	n/a
363.9435	0.0605	727887	keystroke_n	n	n/a
364.064	0.0905	728128	keystroke_t	t	n/a
364.289	0.105	728578	keystroke_s	s	n/a
364.514	0.105	729028	keystroke_Key.space	Key.space	n/a
364.8135	0.1055	729627	keystroke_m	m	n/a
364.89	0.089	729780	keystroke_o	o	n/a
364.994	0.075	729988	keystroke_d	d	n/a
365.2945	0.1195	730589	keystroke_u	u	n/a
365.444	0.0905	730888	keystroke_l	l	n/a
365.5945	0.075	731189	keystroke_e	e	n/a
365.729	0.12	731458	keystroke_Key.space	Key.space	n/a
365.879	0.105	731758	keystroke_c	c	n/a
366.194	0.135	732388	keystroke_o	o	n/a
366.464	0.09	732928	keystroke_p	p	n/a
366.6745	0.0595	733349	keystroke_o	o	n/a
367.154	0.045	734308	keystroke_Key.backspace	Key.backspace	n/a
367.3345	0.0905	734669	keystroke_i	i	n/a
367.469	0.06	734938	keystroke_e	e	n/a
367.634	0.0905	735268	keystroke_d	d	n/a
367.754	0.09	735508	keystroke_Key.enter	Key.enter	n/a
367.8475	6.5675	735695	prompt	n/a	beautifully beans lack diabetes\n
368.6095	0.0595	737219	keystroke_b	b	n/a
368.789	0.06	737578	keystroke_e	e	n/a
368.969	0.0905	737938	keystroke_a	a	n/a
369.194	0.06	738388	keystroke_a	a	n/a
369.6745	0.0595	739349	keystroke_Key.backspace	Key.backspace	n/a
369.8545	0.0595	739709	keystroke_u	u	n/a
370.139	0.06	740278	keystroke_t	t	n/a
370.2295	0.06	740459	keystroke_i	i	n/a
370.349	0.09	740698	keystroke_f	f	n/a
370.514	0.0605	741028	keystroke_u	u	n/a
370.7095	0.045	741419	keystroke_l	l	n/a
370.8595	0.225	741719	keystroke_l	l	n/a
370.979	0.12	741958	keystroke_y	y	n/a
371.1455	0.119	742291	keystroke_Key.space	Key.space	n/a
371.5195	0.075	743039	keystroke_b	b	n/a
371.699	0.0605	743398	keystroke_e	e	n/a
371.8195	0.09	743639	keystroke_a	a	n/a
371.9395	0.12	743879	keystroke_n	n	n/a
372.074	0.075	744148	keystroke_s	s	n/a
372.179	0.0755	744358	keystroke_Key.space	Key.space	n/a
372.284	0.135	744568	keystroke_l	l	n/a
372.359	0.135	744718	keystroke_a	a	n/a
372.5095	0.1045	745019	keystroke_c	c	n/a
372.6895	0.135	745379	keystroke_k	k	n/a
372.8095	0.104	745619	keystroke_Key.space	Key.space	n/a
372.959	0.0455	745918	keystroke_d	d	n/a
373.0495	0.075	746099	keystroke_i	i	n/a
373.1245	0.12	746249	keystroke_a	a	n/a
373.304	0.0905	746608	keystroke_b	b	n/a
373.529	0.0905	747058	keystroke_e	e	n/a
373.844	0.09	747688	keystroke_t	t	n/a
374.0395	0.0595	748079	keystroke_e	e	n/a
374.189	0.0755	748378	keystroke_s	s	n/a
374.324	0.09	748648	keystroke_Key.enter	Key.enter	n/a
374.4185	6.9565	748837	prompt	n/a	wins scanner concentrate collectible\n
375.2545	0.105	750509	keystroke_w	w	n/a
375.374	0.045	750748	keystroke_i	i	n/a
375.494	0.12	750988	keystroke_n	n	n/a
375.5845	0.0745	751169	keystroke_s	s	n/a
375.719	0.105	751438	keystroke_Key.space	Key.space	n/a
375.839	0.135	751678	keystroke_s	s	n/a
375.9895	0.1345	751979	keystroke_c	c	n/a
376.0945	0.1195	752189	keystroke_a	a	n/a
376.3945	0.075	752789	keystroke_n	n	n/a
376.5445	0.105	753089	keystroke_n	n	n/a
376.694	0.135	753388	keystroke_e	e	n/a
376.8595	0.09	753719	keystroke_r	r	n/a
377.024	0.1055	754048	keystroke_Key.space	Key.space	n/a
377.1445	0.0895	754289	keystroke_c	c	n/a
377.2495	0.12	754499	keystroke_o	o	n/a
377.3245	0.0895	754649	keystroke_n	n	n/a
377.5045	0.135	755009	keystroke_c	c	n/a
377.6695	0.12	755339	keystroke_e	e	n/a
378.044	0.0905	756088	keystroke_n	n	n/a
378.2245	0.0895	756449	keystroke_t	t	n/a
378.4195	0.09	756839	keystroke_r	r	n/a
378.5395	0.195	757079	keystroke_a	a	n/a
378.6445	0.18	757289	keystroke_t	t	n/a
378.8395	0.09	757679	keystroke_e	e	n/a
379.0345	0.105	758069	keystroke_Key.space	Key.space	n/a
379.1545	0.105	758309	keystroke_c	c	n/a
379.2895	0.0745	758579	keystroke_o	o	n/a
379.485	0.044	758970	keystroke_l	l	n/a
379.6195	0.105	759239	keystroke_l	l	n/a
379.664	0.06	759328	keystroke_e	e	n/a
379.7845	0.1045	759569	keystroke_c	c	n/a
379.9945	0.06	759989	keystroke_t	t	n/a
380.085	0.104	760170	keystroke_i	i	n/a
380.2045	0.12	760409	keystroke_b	b	n/a
380.7295	0.105	761459	keystroke_l	l	n/a
380.8495	0.09	761699	keystroke_e	e	n/a
381.2695	0.1045	762539	keystroke_Key.enter	Key.enter	n/a
381.3775	6.2835	762755	prompt	n/a	shipping cardiac quebec merry\n
382.1545	0.075	764309	keystroke_s	s	n/a
382.2445	0.0755	764489	keystroke_h	h	n/a
382.4395	0.0895	764879	keystroke_i	i	n/a
382.5595	0.09	765119	keystroke_p	p	n/a
382.7545	0.09	765509	keystroke_p	p	n/a
382.92	0.1345	765840	keystroke_i	i	n/a
383.0095	0.1045	766019	keystroke_n	n	n/a
383.1295	0.12	766259	keystroke_g	g	n/a
383.2345	0.135	766469	keystroke_Key.space	Key.space	n/a
383.5045	0.075	767009	keystroke_c	c	n/a
383.6395	0.12	767279	keystroke_a	a	n/a
383.714	0.0605	767428	keystroke_r	r	n/a
383.8945	0.09	767789	keystroke_d	d	n/a
384.029	0.1205	768058	keystroke_i	i	n/a
384.1345	0.09	768269	keystroke_a	a	n/a
384.3745	0.12	768749	keystroke_c	c	n/a
384.5095	0.0895	769019	keystroke_Key.space	Key.space	n/a
384.705	0.0895	769410	keystroke_q	q	n/a
384.8245	0.105	769649	keystroke_u	u	n/a
384.9745	0.1045	769949	keystroke_e	e	n/a
385.3495	0.06	770699	keystroke_b	b	n/a
385.5445	0.06	771089	keystroke_e	e	n/a
385.7395	0.105	771479	keystroke_c	c	n/a
386.1295	0.105	772259	keystroke_Key.space	Key.space	n/a
386.714	0.0905	773428	keystroke_m	m	n/a
386.8945	0.0895	773789	keystroke_e	e	n/a
386.9545	0.09	773909	keystroke_r	r	n/a
387.1645	0.0755	774329	keystroke_r	r	n/a
387.299	0.061	774598	keystroke_y	y	n/a
387.5545	0.1045	775109	keystroke_Key.enter	Key.enter	n/a
387.665	7.0155	775330	prompt	n/a	judicial mask publicly floors\n
388.2745	0.06	776549	keystroke_j	j	n/a
388.4095	0.0895	776819	keystroke_u	u	n/a
388.499	0.0905	776998	keystroke_d	d	n/a
388.6045	0.105	777209	keystroke_i	i	n/a
388.7245	0.135	777449	keystroke_c	c	n/a
388.844	0.1055	777688	keystroke_i	i	n/a
388.9345	0.105	777869	keystroke_a	a	n/a
389.0845	0.135	778169	keystroke_l	l	n/a
389.2045	0.12	778409	keystroke_Key.space	Key.space	n/a
389.399	0.1205	778798	keystroke_m	m	n/a
389.5045	0.135	779009	keystroke_a	a	n/a
389.8495	0.135	779699	keystroke_k	k	n/a
390.2845	0.0745	780569	keystroke_Key.backspace	Key.backspace	n/a
390.3745	0.075	780749	keystroke_s	s	n/a
390.5095	0.15	781019	keystroke_k	k	n/a
390.614	0.1205	781228	keystroke_Key.space	Key.space	n/a
390.8545	0.105	781709	keystroke_p	p	n/a
390.914	0.0755	781828	keystroke_u	u	n/a
391.0195	0.075	782039	keystroke_b	b	n/a
391.2745	0.15	782549	keystroke_l	l	n/a
391.3345	0.1495	782669	keystroke_i	i	n/a
391.6195	0.105	783239	keystroke_c	c	n/a
391.7695	0.21	783539	keystroke_l	l	n/a
391.8745	0.075	783749	keystroke_y	y	n/a
392.2045	0.12	784409	keystroke_Key.space	Key.space	n/a
392.6245	0.045	785249	keystroke_l	l	n/a
392.9245	0.06	785849	keystroke_Key.backspace	Key.backspace	n/a
393.0745	0.075	786149	keystroke_f	f	n/a
393.1645	0.075	786329	keystroke_l	l	n/a
393.3295	0.03	786659	keystroke_l	l	n/a
393.749	0.0305	787498	keystroke_Key.backspace	Key.backspace	n/a
393.945	0.0595	787890	keystroke_o	o	n/a
394.1095	0.075	788219	keystroke_o	o	n/a
394.245	0.0745	788490	keystroke_r	r	n/a
394.4545	0.075	788909	keystroke_s	s	n/a
394.5895	0.09	789179	keystroke_Key.enter	Key.enter	n/a
394.6835	4.827	789367	prompt	n/a	pride sugar social ceremony\n
395.399	0.0605	790798	keystroke_p	p	n/a
395.4745	0.09	790949	keystroke_r	r	n/a
395.7895	0.0905	791579	keystroke_i	i	n/a
395.9245	0.0745	791849	keystroke_d	d	n/a
396.1045	0.06	792209	keystroke_e	e	n/a
396.21	0.104	792420	keystroke_Key.space	Key.space	n/a
396.3445	0.075	792689	keystroke_s	s	n/a
396.4495	0.06	792899	keystroke_u	u	n/a
396.5395	0.1045	793079	keystroke_g	g	n/a
396.7495	0.105	793499	keystroke_a	a	n/a
396.809	0.0755	793618	keystroke_r	r	n/a
396.929	0.1355	793858	keystroke_Key.space	Key.space	n/a
397.08	0.0895	794160	keystroke_s	s	n/a
397.1695	0.12	794339	keystroke_o	o	n/a
397.3045	0.105	794609	keystroke_c	c	n/a
397.3945	0.1195	794789	keystroke_i	i	n/a
397.514	0.1205	795028	keystroke_a	a	n/a
397.6495	0.1495	795299	keystroke_l	l	n/a
397.7545	0.135	795509	keystroke_Key.space	Key.space	n/a
397.9345	0.105	795869	keystroke_c	c	n/a
398.1595	0.09	796319	keystroke_e	e	n/a
398.2945	0.1345	796589	keystroke_r	r	n/a
398.399	0.105	796798	keystroke_e	e	n/a
398.5795	0.1195	797159	keystroke_m	m	n/a
398.8045	0.105	797609	keystroke_o	o	n/a
398.9545	0.105	797909	keystroke_n	n	n/a
399.2095	0.075	798419	keystroke_y	y	n/a
399.4195	0.09	798839	keystroke_Key.enter	Key.enter	n/a
399.5135	5.758	799027	prompt	n/a	enabled challenging clark protection\n
400.1545	0.0455	800309	keystroke_e	e	n/a
400.2295	0.09	800459	keystroke_n	n	n/a
400.3345	0.1045	800669	keystroke_a	a	n/a
400.4695	0.09	800939	keystroke_b	b	n/a
400.5895	0.09	801179	keystroke_l	l	n/a
400.7245	0.045	801449	keystroke_e	e	n/a
400.8745	0.06	801749	keystroke_d	d	n/a
400.935	0.134	801870	keystroke_Key.space	Key.space	n/a
401.0845	0.105	802169	keystroke_c	c	n/a
401.3695	0.06	802739	keystroke_h	h	n/a
401.4745	0.0905	802949	keystroke_a	a	n/a
401.6095	0.045	803219	keystroke_l	l	n/a
401.7595	0.075	803519	keystroke_l	l	n/a
401.8795	0.06	803759	keystroke_e	e	n/a
401.9695	0.09	803939	keystroke_n	n	n/a
402.1195	0.075	804239	keystroke_g	g	n/a
402.2845	0.105	804569	keystroke_i	i	n/a
402.4645	0.09	804929	keystroke_n	n	n/a
402.5695	0.06	805139	keystroke_g	g	n/a
402.6595	0.135	805319	keystroke_Key.space	Key.space	n/a
402.8695	0.1195	805739	keystroke_c	c	n/a
403.0495	0.09	806099	keystroke_l	l	n/a
403.1545	0.09	806309	keystroke_a	a	n/a
403.2745	0.09	806549	keystroke_r	r	n/a
403.4245	0.135	806849	keystroke_k	k	n/a
403.5295	0.1045	807059	keystroke_Key.space	Key.space	n/a
403.6645	0.09	807329	keystroke_p	p	n/a
403.785	0.0595	807570	keystroke_r	r	n/a
403.9045	0.105	807809	keystroke_o	o	n/a
404.0245	0.105	808049	keystroke_t	t	n/a
404.2195	0.09	808439	keystroke_e	e	n/a
404.3845	0.0745	808769	keystroke_c	c	n/a
404.5645	0.075	809129	keystroke_t	t	n/a
404.6545	0.105	809309	keystroke_i	i	n/a
404.8045	0.165	809609	keystroke_o	o	n/a
404.924	0.1205	809848	keystroke_n	n	n/a
405.1795	0.09	810359	keystroke_Key.enter	Key.enter	n/a
405.276	4.5695	810552	prompt	n/a	rankings closes helmet winning\n
405.8695	0.0445	811739	keystroke_r	r	n/a
405.9595	0.105	811919	keystroke_a	a	n/a
406.0795	0.09	812159	keystroke_n	n	n/a
406.244	0.0605	812488	keystroke_k	k	n/a
406.4095	0.12	812819	keystroke_i	i	n/a
406.4695	0.12	812939	keystroke_n	n	n/a
406.5745	0.075	813149	keystroke_g	g	n/a
406.7545	0.075	813509	keystroke_s	s	n/a
406.859	0.1205	813718	keystroke_Key.space	Key.space	n/a
406.9945	0.105	813989	keystroke_c	c	n/a
407.114	0.0605	814228	keystroke_l	l	n/a
407.2645	0.091	814529	keystroke_o	o	n/a
407.3695	0.0895	814739	keystroke_s	s	n/a
407.4445	0.09	814889	keystroke_e	e	n/a
407.6245	0.0745	815249	keystroke_s	s	n/a
407.7595	0.09	815519	keystroke_Key.space	Key.space	n/a
407.9695	0.105	815939	keystroke_h	h	n/a
408.119	0.0605	816238	keystroke_e	e	n/a
408.1945	0.075	816389	keystroke_l	l	n/a
408.3745	0.075	816749	keystroke_m	m	n/a
408.4795	0.06	816959	keystroke_e	e	n/a
408.599	0.0905	817198	keystroke_t	t	n/a
408.7045	0.12	817409	keystroke_Key.space	Key.space	n/a
408.8095	0.0895	817619	keystroke_w	w	n/a
408.914	0.076	817828	keystroke_i	i	n/a
409.0795	0.0605	818159	keystroke_n	n	n/a
409.199	0.091	818398	keystroke_n	n	n/a
409.3195	0.135	818639	keystroke_i	i	n/a
409.41	0.1195	818820	keystroke_n	n	n/a
409.5595	0.105	819119	keystroke_g	g	n/a
409.7545	0.09	819509	keystroke_Key.enter	Key.enter	n/a
409.849	6.2095	819698	prompt	n/a	accepting folks object attended\n
410.5045	0.1195	821009	keystroke_a	a	n/a
410.714	0.061	821428	keystroke_c	c	n/a
410.8495	0.12	821699	keystroke_c	c	n/a
410.925	0.1195	821850	keystroke_e	e	n/a
411.1045	0.135	822209	keystroke_p	p	n/a
411.2545	0.0595	822509	keystroke_t	t	n/a
411.3595	0.15	822719	keystroke_i	i	n/a
411.4795	0.1205	822959	keystroke_n	n	n/a
411.6	0.0595	823200	keystroke_g	g	n/a
411.6895	0.12	823379	keystroke_Key.space	Key.space	n/a
412.0345	0.075	824069	keystroke_f	f	n/a
412.0945	0.06	824189	keystroke_o	o	n/a
412.26	0.1045	824520	keystroke_l	l	n/a
412.425	0.15	824850	keystroke_k	k	n/a
412.575	0.1045	825150	keystroke_s	s	n/a
412.7245	0.0895	825449	keystroke_Key.space	Key.space	n/a
413.1595	0.0745	826319	keystroke_o	o	n/a
413.2645	0.09	826529	keystroke_b	b	n/a
413.3845	0.09	826769	keystroke_j	j	n/a
413.5795	0.075	827159	keystroke_e	e	n/a
413.7295	0.075	827459	keystroke_c	c	n/a
413.91	0.06	827820	keystroke_t	t	n/a
413.999	0.1205	827998	keystroke_Key.space	Key.space	n/a
414.765	0.0895	829530	keystroke_a	a	n/a
415.0045	0.015	830009	keystroke_t	t	n/a
415.0795	0.1055	830159	keystroke_t	t	n/a
415.199	0.0755	830398	keystroke_e	e	n/a
415.3045	0.105	830609	keystroke_n	n	n/a
415.395	0.0745	830790	keystroke_d	d	n/a
415.5745	0.06	831149	keystroke_e	e	n/a
415.7395	0.0745	831479	keystroke_d	d	n/a
415.9645	0.09	831929	keystroke_Key.enter	Key.enter	n/a
416.0585	8.562	832117	prompt	n/a	housing publication diagnostic contrast\n
416.699	0.0755	833398	keystroke_h	h	n/a
416.8195	0.1945	833639	keystroke_o	o	n/a
416.9845	0.12	833969	keystroke_u	u	n/a
417.1345	0.0815	834269	keystroke_s	s	n/a
417.435	0.135	834870	keystroke_i	i	n/a
417.51	0.135	835020	keystroke_n	n	n/a
417.6145	0.09	835229	keystroke_g	g	n/a
417.69	0.12	835380	keystroke_Key.space	Key.space	n/a
417.855	0.1195	835710	keystroke_p	p	n/a
417.9445	0.075	835889	keystroke_u	u	n/a
418.0045	0.075	836009	keystroke_b	b	n/a
418.1695	0.135	836339	keystroke_l	l	n/a
418.2445	0.1355	836489	keystroke_i	i	n/a
418.3195	0.135	836639	keystroke_c	c	n/a
418.4545	0.135	836909	keystroke_a	a	n/a
418.5745	0.105	837149	keystroke_t	t	n/a
418.6945	0.165	837389	keystroke_i	i	n/a
418.7395	0.135	837479	keystroke_o	o	n/a
418.8145	0.12	837629	keystroke_n	n	n/a
418.9195	0.135	837839	keystroke_Key.space	Key.space	n/a
419.0695	0.075	838139	keystroke_d	d	n/a
419.1745	0.106	838349	keystroke_i	i	n/a
419.2645	0.075	838529	keystroke_a	a	n/a
419.9545	0.06	839909	keystroke_g	g	n/a
420.1645	0.135	840329	keystroke_n	n	n/a
420.2395	0.12	840479	keystroke_o	o	n/a
420.3295	0.12	840659	keystroke_s	s	n/a
420.465	0.06	840930	keystroke_t	t	n/a
420.5095	0.12	841019	keystroke_i	i	n/a
420.6745	0.105	841349	keystroke_c	c	n/a
420.8245	0.15	841649	keystroke_Key.space	Key.space	n/a
421.0195	0.09	842039	keystroke_c	c	n/a
421.2595	0.12	842519	keystroke_o	o	n/a
421.335	0.1195	842670	keystroke_n	n	n/a
421.6045	0.09	843209	keystroke_r	r	n/a
421.7995	0.165	843599	keystroke_a	a	n/a
421.965	0.12	843930	keystroke_s	s	n/a
422.25	0.045	844500	keystroke_Key.backspace	Key.backspace	n/a
422.3545	0.0755	844709	keystroke_Key.backspace	Key.backspace	n/a
422.5195	0.0455	845039	keystroke_Key.backspace	Key.backspace	n/a
422.6545	0.0305	845309	keystroke_Key.backspace	Key.backspace	n/a
423.1945	0.06	846389	keystroke_n	n	n/a
423.72	0.0745	847440	keystroke_t	t	n/a
423.8695	0.105	847739	keystroke_r	r	n/a
423.9895	0.15	847979	keystroke_a	a	n/a
424.1095	0.1355	848219	keystroke_s	s	n/a
424.2295	0.105	848459	keystroke_t	t	n/a
424.53	0.0895	849060	keystroke_Key.enter	Key.enter	n/a
424.6235	5.307	849247	prompt	n/a	rider enters fiscal classified\n
425.4445	0.06	850889	keystroke_r	r	n/a
425.535	0.0745	851070	keystroke_i	i	n/a
425.6245	0.075	851249	keystroke_d	d	n/a
425.79	0.075	851580	keystroke_e	e	n/a
425.85	0.0895	851700	keystroke_r	r	n/a
425.955	0.1045	851910	keystroke_Key.space	Key.space	n/a
426.0445	0.091	852089	keystroke_e	e	n/a
426.12	0.1045	852240	keystroke_n	n	n/a
426.24	0.0595	852480	keystroke_t	t	n/a
426.36	0.105	852720	keystroke_e	e	n/a
426.435	0.0895	852870	keystroke_r	r	n/a
426.57	0.1045	853140	keystroke_s	s	n/a
426.72	0.0895	853440	keystroke_Key.space	Key.space	n/a
426.8395	0.09	853679	keystroke_f	f	n/a
426.9445	0.106	853889	keystroke_i	i	n/a
427.0505	0.164	854101	keystroke_s	s	n/a
427.17	0.165	854340	keystroke_c	c	n/a
427.35	0.12	854700	keystroke_a	a	n/a
427.56	0.105	855120	keystroke_l	l	n/a
427.8145	0.1205	855629	keystroke_Key.space	Key.space	n/a
428.025	0.105	856050	keystroke_c	c	n/a
428.1145	0.0755	856229	keystroke_l	l	n/a
428.205	0.1045	856410	keystroke_a	a	n/a
428.265	0.2555	856530	keystroke_s	s	n/a
428.805	0.105	857610	keystroke_s	s	n/a
428.97	0.075	857940	keystroke_i	i	n/a
429.06	0.06	858120	keystroke_f	f	n/a
429.165	0.0895	858330	keystroke_i	i	n/a
429.345	0.075	858690	keystroke_e	e	n/a
429.51	0.1045	859020	keystroke_d	d	n/a
429.84	0.0895	859680	keystroke_Key.enter	Key.enter	n/a
429.934	6.102	859868	prompt	n/a	william libs mothers relatives\n
430.56	0.075	861120	keystroke_w	w	n/a
430.62	0.075	861240	keystroke_i	i	n/a
430.77	0.06	861540	keystroke_l	l	n/a
430.905	0.105	861810	keystroke_l	l	n/a
430.965	0.1345	861930	keystroke_i	i	n/a
431.1145	0.1205	862229	keystroke_a	a	n/a
431.205	0.135	862410	keystroke_m	m	n/a
431.34	0.1195	862680	keystroke_Key.space	Key.space	n/a
431.97	0.12	863940	keystroke_l	l	n/a
432.06	0.105	864120	keystroke_i	i	n/a
432.195	0.09	864390	keystroke_b	b	n/a
432.3905	0.0895	864781	keystroke_s	s	n/a
432.555	0.12	865110	keystroke_Key.space	Key.space	n/a
433.335	0.075	866670	keystroke_m	m	n/a
433.395	0.1345	866790	keystroke_o	o	n/a
433.545	0.15	867090	keystroke_t	t	n/a
433.7995	0.1055	867599	keystroke_h	h	n/a
434.04	0.105	868080	keystroke_e	e	n/a
434.0995	0.105	868199	keystroke_r	r	n/a
434.235	0.1045	868470	keystroke_s	s	n/a
434.385	0.105	868770	keystroke_Key.space	Key.space	n/a
434.79	0.09	869580	keystroke_r	r	n/a
434.85	0.09	869700	keystroke_e	e	n/a
434.94	0.0895	869880	keystroke_l	l	n/a
435.09	0.12	870180	keystroke_a	a	n/a
435.18	0.09	870360	keystroke_t	t	n/a
435.3145	0.1205	870629	keystroke_i	i	n/a
435.42	0.12	870840	keystroke_v	v	n/a
435.555	0.0895	871110	keystroke_e	e	n/a
435.735	0.09	871470	keystroke_s	s	n/a
435.945	0.09	871890	keystroke_Key.enter	Key.enter	n/a
436.0395	6.881	872079	prompt	n/a	stores vbulletin intend graphics\n
436.725	0.06	873450	keystroke_s	s	n/a
436.845	0.09	873690	keystroke_t	t	n/a
436.98	0.09	873960	keystroke_o	o	n/a
437.235	0.0755	874470	keystroke_r	r	n/a
437.25	0.045	874500	keystroke_e	e	n/a
437.76	0.09	875520	keystroke_s	s	n/a
437.91	0.1195	875820	keystroke_Key.space	Key.space	n/a
438.39	0.09	876780	keystroke_v	v	n/a
439.02	0.0755	878040	keystroke_b	b	n/a
439.125	0.06	878250	keystroke_u	u	n/a
439.8145	0.0605	879629	keystroke_l	l	n/a
439.95	0.12	879900	keystroke_l	l	n/a
439.995	0.09	879990	keystroke_e	e	n/a
440.1445	0.0905	880289	keystroke_t	t	n/a
440.28	0.18	880560	keystroke_i	i	n/a
440.37	0.12	880740	keystroke_n	n	n/a
440.565	0.12	881130	keystroke_Key.space	Key.space	n/a
440.82	0.12	881640	keystroke_i	i	n/a
440.895	0.1045	881790	keystroke_n	n	n/a
440.97	0.105	881940	keystroke_t	t	n/a
441.09	0.075	882180	keystroke_e	e	n/a
441.195	0.1195	882390	keystroke_n	n	n/a
441.33	0.0745	882660	keystroke_d	d	n/a
441.45	0.105	882900	keystroke_Key.space	Key.space	n/a
441.81	0.075	883620	keystroke_g	g	n/a
441.945	0.105	883890	keystroke_r	r	n/a
442.0345	0.1055	884069	keystroke_a	a	n/a
442.125	0.105	884250	keystroke_p	p	n/a
442.275	0.135	884550	keystroke_h	h	n/a
442.38	0.1345	884760	keystroke_i	i	n/a
442.5295	0.1355	885059	keystroke_c	c	n/a
442.635	0.09	885270	keystroke_s	s	n/a
442.83	0.09	885660	keystroke_Key.enter	Key.enter	n/a
442.9235	6.807	885847	prompt	n/a	monitoring copyrights disappointed an\n
443.745	0.09	887490	keystroke_m	m	n/a
443.835	0.1195	887670	keystroke_o	o	n/a
443.97	0.12	887940	keystroke_n	n	n/a
444.045	0.1205	888090	keystroke_i	i	n/a
444.18	0.075	888360	keystroke_t	t	n/a
444.27	0.105	888540	keystroke_o	o	n/a
444.39	0.075	888780	keystroke_r	r	n/a
444.48	0.1645	888960	keystroke_i	i	n/a
444.555	0.105	889110	keystroke_n	n	n/a
444.5995	0.0905	889199	keystroke_g	g	n/a
444.675	0.135	889350	keystroke_Key.space	Key.space	n/a
444.84	0.12	889680	keystroke_c	c	n/a
445.5145	0.0905	891029	keystroke_o	o	n/a
445.635	0.195	891270	keystroke_p	p	n/a
445.8145	0.0755	891629	keystroke_y	y	n/a
446.16	0.075	892320	keystroke_r	r	n/a
446.251	0.089	892502	keystroke_i	i	n/a
446.355	0.075	892710	keystroke_g	g	n/a
446.475	0.105	892950	keystroke_h	h	n/a
446.5505	0.0745	893101	keystroke_t	t	n/a
446.7145	0.0755	893429	keystroke_s	s	n/a
446.865	0.1495	893730	keystroke_Key.space	Key.space	n/a
447.075	0.0745	894150	keystroke_d	d	n/a
447.18	0.09	894360	keystroke_i	i	n/a
447.255	0.0745	894510	keystroke_s	s	n/a
447.39	0.09	894780	keystroke_a	a	n/a
447.54	0.0595	895080	keystroke_p	p	n/a
447.66	0.15	895320	keystroke_p	p	n/a
447.825	0.18	895650	keystroke_o	o	n/a
447.945	0.165	895890	keystroke_i	i	n/a
448.02	0.1795	896040	keystroke_n	n	n/a
448.155	0.12	896310	keystroke_t	t	n/a
448.2145	0.0905	896429	keystroke_e	e	n/a
448.395	0.1045	896790	keystroke_d	d	n/a
449.01	0.0895	898020	keystroke_Key.space	Key.space	n/a
449.235	0.075	898470	keystroke_a	a	n/a
449.325	0.1045	898650	keystroke_n	n	n/a
449.64	0.0895	899280	keystroke_Key.enter	Key.enter	n/a
449.734	5.6075	899468	prompt	n/a	valentine istanbul concern highlights\n
450.405	0.105	900810	keystroke_v	v	n/a
450.525	0.12	901050	keystroke_a	a	n/a
450.66	0.09	901320	keystroke_l	l	n/a
450.765	0.09	901530	keystroke_e	e	n/a
450.87	0.075	901740	keystroke_n	n	n/a
450.975	0.06	901950	keystroke_t	t	n/a
451.035	0.15	902070	keystroke_i	i	n/a
451.125	0.105	902250	keystroke_n	n	n/a
451.2145	0.0755	902429	keystroke_e	e	n/a
451.335	0.105	902670	keystroke_Key.space	Key.space	n/a
451.5295	0.0755	903059	keystroke_i	i	n/a
451.6195	0.0605	903239	keystroke_s	s	n/a
451.725	0.0745	903450	keystroke_t	t	n/a
451.845	0.09	903690	keystroke_a	a	n/a
451.995	0.09	903990	keystroke_n	n	n/a
452.295	0.045	904590	keystroke_b	b	n/a
452.3995	0.1205	904799	keystroke_u	u	n/a
452.505	0.12	905010	keystroke_l	l	n/a
452.595	0.1195	905190	keystroke_Key.space	Key.space	n/a
452.73	0.0755	905460	keystroke_c	c	n/a
452.79	0.1195	905580	keystroke_o	o	n/a
452.88	0.105	905760	keystroke_n	n	n/a
452.94	0.12	905880	keystroke_c	c	n/a
453.075	0.105	906150	keystroke_e	e	n/a
453.48	0.0745	906960	keystroke_r	r	n/a
453.57	0.135	907140	keystroke_n	n	n/a
453.69	0.12	907380	keystroke_Key.space	Key.space	n/a
454.005	0.075	908010	keystroke_h	h	n/a
454.11	0.1195	908220	keystroke_i	i	n/a
454.2145	0.076	908429	keystroke_g	g	n/a
454.305	0.075	908610	keystroke_h	h	n/a
454.4845	0.1055	908969	keystroke_l	l	n/a
454.56	0.09	909120	keystroke_i	i	n/a
454.77	0.0745	909540	keystroke_g	g	n/a
454.89	0.075	909780	keystroke_h	h	n/a
454.965	0.09	909930	keystroke_t	t	n/a
455.145	0.075	910290	keystroke_s	s	n/a
455.265	0.075	910530	keystroke_Key.enter	Key.enter	n/a
455.3445	6.7315	910689	prompt	n/a	was impression corn appreciation\n
455.955	0.0595	911910	keystroke_w	w	n/a
456.1195	0.1355	912239	keystroke_a	a	n/a
456.27	0.09	912540	keystroke_s	s	n/a
456.42	0.105	912840	keystroke_Key.space	Key.space	n/a
456.675	0.105	913350	keystroke_i	i	n/a
456.81	0.12	913620	keystroke_m	m	n/a
456.8995	0.0905	913799	keystroke_p	p	n/a
457.23	0.09	914460	keystroke_o	o	n/a
457.8145	0.0455	915629	keystroke_Key.backspace	Key.backspace	n/a
458.0395	0.1055	916079	keystroke_r	r	n/a
458.13	0.09	916260	keystroke_e	e	n/a
458.31	0.075	916620	keystroke_s	s	n/a
458.49	0.105	916980	keystroke_s	s	n/a
458.625	0.1355	917250	keystroke_i	i	n/a
458.7295	0.1355	917459	keystroke_o	o	n/a
458.805	0.135	917610	keystroke_n	n	n/a
458.925	0.0895	917850	keystroke_Key.space	Key.space	n/a
458.985	0.12	917970	keystroke_c	c	n/a
459.18	0.09	918360	keystroke_o	o	n/a
459.3145	0.0755	918629	keystroke_r	r	n/a
459.42	0.135	918840	keystroke_n	n	n/a
459.54	0.1205	919080	keystroke_Key.space	Key.space	n/a
459.675	0.075	919350	keystroke_a	a	n/a
459.795	0.06	919590	keystroke_p	p	n/a
459.8995	0.1205	919799	keystroke_p	p	n/a
460.005	0.09	920010	keystroke_r	r	n/a
460.2455	0.0895	920491	keystroke_e	e	n/a
460.41	0.1045	920820	keystroke_c	c	n/a
460.696	0.1185	921392	keystroke_i	i	n/a
461.2345	0.1055	922469	keystroke_a	a	n/a
461.4145	0.0905	922829	keystroke_t	t	n/a
461.52	0.24	923040	keystroke_i	i	n/a
461.596	0.179	923192	keystroke_o	o	n/a
461.715	0.12	923430	keystroke_n	n	n/a
461.985	0.09	923970	keystroke_Key.enter	Key.enter	n/a
462.0795	4.6765	924159	prompt	n/a	consecutive cord walt header\n
462.72	0.09	925440	keystroke_c	c	n/a
462.78	0.105	925560	keystroke_o	o	n/a
462.84	0.0905	925680	keystroke_n	n	n/a
462.8995	0.0605	925799	keystroke_s	s	n/a
463.05	0.075	926100	keystroke_e	e	n/a
463.23	0.09	926460	keystroke_c	c	n/a
463.335	0.09	926670	keystroke_u	u	n/a
463.455	0.105	926910	keystroke_t	t	n/a
463.575	0.1055	927150	keystroke_i	i	n/a
463.725	0.1055	927450	keystroke_v	v	n/a
463.8	0.105	927600	keystroke_e	e	n/a
463.935	0.135	927870	keystroke_Key.space	Key.space	n/a
464.085	0.075	928170	keystroke_c	c	n/a
464.175	0.075	928350	keystroke_o	o	n/a
464.265	0.075	928530	keystroke_r	r	n/a
464.445	0.075	928890	keystroke_d	d	n/a
464.535	0.12	929070	keystroke_Key.space	Key.space	n/a
464.6405	0.059	929281	keystroke_w	w	n/a
464.775	0.105	929550	keystroke_a	a	n/a
464.925	0.03	929850	keystroke_l	l	n/a
465.24	0.09	930480	keystroke_t	t	n/a
465.51	0.0895	931020	keystroke_Key.space	Key.space	n/a
465.855	0.075	931710	keystroke_h	h	n/a
465.93	0.075	931860	keystroke_e	e	n/a
466.065	0.105	932130	keystroke_a	a	n/a
466.185	0.105	932370	keystroke_d	d	n/a
466.3645	0.1205	932729	keystroke_e	e	n/a
466.47	0.12	932940	keystroke_r	r	n/a
466.68	0.075	933360	keystroke_Key.enter	Key.enter	n/a
466.759	5.8625	933518	prompt	n/a	enabling producing sequence israeli\n
467.58	0.0595	935160	keystroke_e	e	n/a
467.64	0.105	935280	keystroke_n	n	n/a
467.73	0.12	935460	keystroke_a	a	n/a
467.88	0.09	935760	keystroke_b	b	n/a
467.985	0.135	935970	keystroke_l	l	n/a
468.105	0.1645	936210	keystroke_i	i	n/a
468.225	0.1045	936450	keystroke_n	n	n/a
468.2845	0.0605	936569	keystroke_g	g	n/a
468.3595	0.1205	936719	keystroke_Key.space	Key.space	n/a
468.54	0.09	937080	keystroke_p	p	n/a
468.645	0.06	937290	keystroke_r	r	n/a
468.72	0.105	937440	keystroke_o	o	n/a
468.84	0.0745	937680	keystroke_d	d	n/a
468.975	0.06	937950	keystroke_u	u	n/a
469.095	0.1195	938190	keystroke_c	c	n/a
469.32	0.15	938640	keystroke_i	i	n/a
469.41	0.1345	938820	keystroke_n	n	n/a
469.53	0.06	939060	keystroke_g	g	n/a
469.62	0.135	939240	keystroke_Key.space	Key.space	n/a
469.8895	0.0305	939779	keystroke_s	s	n/a
469.98	0.09	939960	keystroke_e	e	n/a
470.0855	0.119	940171	keystroke_q	q	n/a
470.22	0.09	940440	keystroke_u	u	n/a
470.325	0.0895	940650	keystroke_e	e	n/a
470.46	0.09	940920	keystroke_n	n	n/a
470.58	0.1345	941160	keystroke_c	c	n/a
470.685	0.075	941370	keystroke_e	e	n/a
470.805	0.105	941610	keystroke_Key.space	Key.space	n/a
470.97	0.09	941940	keystroke_i	i	n/a
471.03	0.09	942060	keystroke_s	s	n/a
471.24	0.105	942480	keystroke_r	r	n/a
471.375	0.075	942750	keystroke_a	a	n/a
471.96	0.075	943920	keystroke_e	e	n/a
472.1995	0.1655	944399	keystroke_l	l	n/a
472.335	0.09	944670	keystroke_i	i	n/a
472.5305	0.0895	945061	keystroke_Key.enter	Key.enter	n/a
472.624	4.482	945248	prompt	n/a	plain three stunning farm\n
473.3105	0.104	946621	keystroke_p	p	n/a
473.475	0.135	946950	keystroke_l	l	n/a
473.595	0.0905	947190	keystroke_a	a	n/a
473.715	0.12	947430	keystroke_i	i	n/a
473.79	0.12	947580	keystroke_n	n	n/a
473.865	0.12	947730	keystroke_Key.space	Key.space	n/a
474.0295	0.0455	948059	keystroke_t	t	n/a
474.09	0.0605	948180	keystroke_h	h	n/a
474.21	0.0895	948420	keystroke_r	r	n/a
474.2555	0.0745	948511	keystroke_e	e	n/a
474.435	0.0595	948870	keystroke_e	e	n/a
474.5995	0.0905	949199	keystroke_Key.space	Key.space	n/a
474.795	0.0605	949590	keystroke_s	s	n/a
474.8995	0.0905	949799	keystroke_t	t	n/a
475.006	0.059	950012	keystroke_u	u	n/a
475.1995	0.0455	950399	keystroke_n	n	n/a
475.3195	0.0755	950639	keystroke_n	n	n/a
475.41	0.135	950820	keystroke_i	i	n/a
475.4995	0.1055	950999	keystroke_n	n	n/a
475.59	0.09	951180	keystroke_g	g	n/a
475.665	0.1345	951330	keystroke_Key.space	Key.space	n/a
475.995	0.075	951990	keystroke_f	f	n/a
476.355	0.135	952710	keystroke_a	a	n/a
476.46	0.1345	952920	keystroke_r	r	n/a
476.805	0.1055	953610	keystroke_m	m	n/a
477.0145	0.0905	954029	keystroke_Key.enter	Key.enter	n/a
477.1105	9.1155	954221	prompt	n/a	ongoing medical institute improvements\n
477.9605	0.0595	955921	keystroke_o	o	n/a
478.35	0.105	956700	keystroke_n	n	n/a
478.635	0.09	957270	keystroke_g	g	n/a
478.71	0.15	957420	keystroke_o	o	n/a
478.8145	0.1205	957629	keystroke_i	i	n/a
478.89	0.12	957780	keystroke_n	n	n/a
478.92	0.075	957840	keystroke_g	g	n/a
479.0555	0.089	958111	keystroke_Key.space	Key.space	n/a
479.2055	0.1195	958411	keystroke_m	m	n/a
479.265	0.075	958530	keystroke_e	e	n/a
479.4305	0.0745	958861	keystroke_d	d	n/a
479.49	0.1055	958980	keystroke_i	i	n/a
479.595	0.1195	959190	keystroke_c	c	n/a
479.67	0.09	959340	keystroke_a	a	n/a
479.775	0.1505	959550	keystroke_l	l	n/a
479.88	0.1195	959760	keystroke_Key.space	Key.space	n/a
480.255	0.12	960510	keystroke_i	i	n/a
480.3145	0.1355	960629	keystroke_n	n	n/a
480.36	0.0595	960720	keystroke_s	s	n/a
480.4345	0.076	960869	keystroke_t	t	n/a
480.555	0.105	961110	keystroke_i	i	n/a
480.675	0.075	961350	keystroke_t	t	n/a
480.78	0.075	961560	keystroke_u	u	n/a
480.8995	0.1055	961799	keystroke_t	t	n/a
480.99	0.0745	961980	keystroke_u	u	n/a
481.1105	0.075	962221	keystroke_e	e	n/a
482.13	0.075	964260	keystroke_Key.backspace	Key.backspace	n/a
482.385	0.0755	964770	keystroke_Key.backspace	Key.backspace	n/a
482.49	0.075	964980	keystroke_e	e	n/a
482.595	0.1045	965190	keystroke_Key.space	Key.space	n/a
483.525	0.1045	967050	keystroke_i	i	n/a
483.675	0.135	967350	keystroke_m	m	n/a
483.81	0.12	967620	keystroke_p	p	n/a
484.035	0.03	968070	keystroke_o	o	n/a
484.635	0.0605	969270	keystroke_Key.backspace	Key.backspace	n/a
484.755	0.09	969510	keystroke_r	r	n/a
484.875	0.09	969750	keystroke_o	o	n/a
484.98	0.105	969960	keystroke_v	v	n/a
485.145	0.0905	970290	keystroke_e	e	n/a
485.25	0.09	970500	keystroke_m	m	n/a
485.325	0.0895	970650	keystroke_e	e	n/a
485.43	0.09	970860	keystroke_n	n	n/a
485.505	0.0755	971010	keystroke_t	t	n/a
485.64	0.09	971280	keystroke_s	s	n/a
486.135	0.09	972270	keystroke_Key.enter	Key.enter	n/a
486.23	5.2315	972460	prompt	n/a	proxy kate documentation stability\n
486.975	0.09	973950	keystroke_p	p	n/a
487.11	0.075	974220	keystroke_r	r	n/a
487.1705	0.1195	974341	keystroke_o	o	n/a
487.32	0.09	974640	keystroke_x	x	n/a
487.44	0.076	974880	keystroke_y	y	n/a
487.53	0.09	975060	keystroke_Key.space	Key.space	n/a
487.68	0.075	975360	keystroke_k	k	n/a
487.77	0.135	975540	keystroke_a	a	n/a
487.92	0.12	975840	keystroke_t	t	n/a
488.01	0.06	976020	keystroke_e	e	n/a
488.1295	0.1205	976259	keystroke_Key.space	Key.space	n/a
488.5655	0.0595	977131	keystroke_d	d	n/a
488.6105	0.0895	977221	keystroke_o	o	n/a
488.73	0.12	977460	keystroke_c	c	n/a
488.79	0.045	977580	keystroke_u	u	n/a
488.955	0.0595	977910	keystroke_m	m	n/a
489.045	0.105	978090	keystroke_e	e	n/a
489.12	0.075	978240	keystroke_n	n	n/a
489.255	0.105	978510	keystroke_t	t	n/a
489.375	0.135	978750	keystroke_a	a	n/a
489.48	0.1055	978960	keystroke_t	t	n/a
489.615	0.195	979230	keystroke_i	i	n/a
489.6905	0.1345	979381	keystroke_o	o	n/a
489.765	0.1205	979530	keystroke_n	n	n/a
489.87	0.15	979740	keystroke_Key.space	Key.space	n/a
490.1255	0.0295	980251	keystroke_s	s	n/a
490.3055	0.09	980611	keystroke_t	t	n/a
490.4405	0.105	980881	keystroke_a	a	n/a
490.5605	0.075	981121	keystroke_b	b	n/a
490.68	0.075	981360	keystroke_i	i	n/a
490.815	0.0905	981630	keystroke_l	l	n/a
490.876	0.1345	981752	keystroke_i	i	n/a
491.0405	0.105	982081	keystroke_t	t	n/a
491.1	0.09	982200	keystroke_y	y	n/a
491.3705	0.09	982741	keystroke_Key.enter	Key.enter	n/a
491.465	5.2465	982930	prompt	n/a	ma'am evans merge montgomery\n
492.1655	0.0895	984331	keystroke_m	m	n/a
492.2405	0.074	984481	keystroke_a	a	n/a
492.4205	0.075	984841	keystroke_'	'	n/a
492.645	0.09	985290	keystroke_a	a	n/a
492.78	0.135	985560	keystroke_m	m	n/a
493.0805	0.1055	986161	keystroke_Key.space	Key.space	n/a
493.4105	0.0755	986821	keystroke_e	e	n/a
493.5755	0.105	987151	keystroke_v	v	n/a
493.6955	0.1045	987391	keystroke_a	a	n/a
493.8455	0.1045	987691	keystroke_n	n	n/a
493.965	0.0755	987930	keystroke_s	s	n/a
494.025	0.09	988050	keystroke_Key.space	Key.space	n/a
494.1905	0.0895	988381	keystroke_m	m	n/a
494.2655	0.105	988531	keystroke_e	e	n/a
494.325	0.09	988650	keystroke_r	r	n/a
494.4905	0.1045	988981	keystroke_g	g	n/a
494.6105	0.1045	989221	keystroke_e	e	n/a
494.7455	0.09	989491	keystroke_Key.space	Key.space	n/a
495.0605	0.12	990121	keystroke_m	m	n/a
495.1955	0.1195	990391	keystroke_o	o	n/a
495.2705	0.105	990541	keystroke_n	n	n/a
495.39	0.0755	990780	keystroke_t	t	n/a
495.6605	0.075	991321	keystroke_g	g	n/a
495.7505	0.1495	991501	keystroke_o	o	n/a
495.8855	0.12	991771	keystroke_m	m	n/a
496.021	0.1345	992042	keystroke_e	e	n/a
496.2	0.12	992400	keystroke_r	r	n/a
496.425	0.0605	992850	keystroke_y	y	n/a
496.6355	0.075	993271	keystroke_Key.enter	Key.enter	n/a
496.714	6.2375	993428	prompt	n/a	installations shell post 'twas\n
