onset	duration	sample	value	key	prompt_text
4.473	10.7325	8946	prompt	n/a	the quick brown fox jumps over a lazy dog\n
6.024	0.072	12048	keystroke_t	t	n/a
6.141	0.09	12282	keystroke_h	h	n/a
6.246	0.195	12492	keystroke_e	e	n/a
6.411	0.1365	12822	keystroke_Key.space	Key.space	n/a
6.5775	0.18	13155	keystroke_q	q	n/a
6.7125	0.075	13425	keystroke_u	u	n/a
6.9385	0.0445	13877	keystroke_i	i	n/a
7.043	0.165	14086	keystroke_c	c	n/a
7.283	0.105	14566	keystroke_k	k	n/a
7.448	0.15	14896	keystroke_Key.space	Key.space	n/a
7.748	0.09	15496	keystroke_b	b	n/a
7.928	0.105	15856	keystroke_r	r	n/a
8.093	0.0895	16186	keystroke_o	o	n/a
8.2275	0.1055	16455	keystroke_w	w	n/a
8.378	0.12	16756	keystroke_n	n	n/a
8.573	0.105	17146	keystroke_Key.space	Key.space	n/a
8.858	0.12	17716	keystroke_f	f	n/a
9.008	0.1045	18016	keystroke_o	o	n/a
9.2025	0.135	18405	keystroke_x	x	n/a
9.3525	0.105	18705	keystroke_Key.space	Key.space	n/a
9.983	0.135	19966	keystroke_j	j	n/a
10.328	0.075	20656	keystroke_m	m	n/a
10.808	0.09	21616	keystroke_Key.backspace	Key.backspace	n/a
11.423	0.09	22846	keystroke_u	u	n/a
11.663	0.15	23326	keystroke_m	m	n/a
11.843	0.09	23686	keystroke_p	p	n/a
12.0975	0.1505	24195	keystroke_s	s	n/a
12.233	0.1345	24466	keystroke_Key.space	Key.space	n/a
12.3825	0.135	24765	keystroke_o	o	n/a
12.5025	0.166	25005	keystroke_v	v	n/a
12.6385	0.24	25277	keystroke_e	e	n/a
12.7585	0.21	25517	keystroke_r	r	n/a
12.9825	0.1355	25965	keystroke_Key.space	Key.space	n/a
13.193	0.1355	26386	keystroke_a	a	n/a
13.3135	0.165	26627	keystroke_Key.space	Key.space	n/a
13.733	0.1055	27466	keystroke_l	l	n/a
13.8535	0.09	27707	keystroke_a	a	n/a
14.0935	0.15	28187	keystroke_z	z	n/a
14.2285	0.105	28457	keystroke_y	y	n/a
14.3635	0.105	28727	keystroke_Key.space	Key.space	n/a
14.5885	0.135	29177	keystroke_d	d	n/a
14.7085	0.12	29417	keystroke_o	o	n/a
14.8885	0.135	29777	keystroke_g	g	n/a
15.1275	0.075	30255	keystroke_Key.enter	Key.enter	n/a
15.2095	13.5855	30419	prompt	n/a	attended durham creation photography\n
15.9385	0.104	31877	keystroke_a	a	n/a
16.1335	0.0895	32267	keystroke_t	t	n/a
16.343	0.15	32686	keystroke_t	t	n/a
16.538	0.075	33076	keystroke_e	e	n/a
16.643	0.12	33286	keystroke_n	n	n/a
16.778	0.12	33556	keystroke_e	e	n/a
17.093	0.1345	34186	keystroke_d	d	n/a
17.6175	0.0755	35235	keystroke_Key.backspace	Key.backspace	n/a
17.7675	0.075	35535	keystroke_Key.backspace	Key.backspace	n/a
17.9175	0.135	35835	keystroke_d	d	n/a
18.1275	0.09	36255	keystroke_e	e	n/a
18.3375	0.15	36675	keystroke_d	d	n/a
18.5325	0.135	37065	keystroke_Key.space	Key.space	n/a
19.0575	0.151	38115	keystroke_d	d	n/a
19.4935	0.135	38987	keystroke_u	u	n/a
19.6435	0.12	39287	keystroke_r	r	n/a
19.8835	0.09	39767	keystroke_h	h	n/a
20.0185	0.1195	40037	keystroke_a	a	n/a
20.153	0.12	40306	keystroke_n	n	n/a
21.203	0.075	42406	keystroke_Key.backspace	Key.backspace	n/a
21.4885	0.09	42977	keystroke_m	m	n/a
21.6085	0.1195	43217	keystroke_Key.space	Key.space	n/a
21.968	0.0905	43936	keystroke_c	c	n/a
22.2385	0.12	44477	keystroke_r	r	n/a
22.3285	0.15	44657	keystroke_e	e	n/a
22.4635	0.15	44927	keystroke_a	a	n/a
22.6285	0.15	45257	keystroke_t	t	n/a
22.7635	0.255	45527	keystroke_i	i	n/a
22.8535	0.15	45707	keystroke_o	o	n/a
22.9285	0.165	45857	keystroke_n	n	n/a
23.1085	0.1345	46217	keystroke_Key.space	Key.space	n/a
24.0375	0.075	48075	keystroke_p	p	n/a
24.2175	0.105	48435	keystroke_h	h	n/a
24.3375	0.105	48675	keystroke_o	o	n/a
24.4735	0.135	48947	keystroke_t	t	n/a
24.6235	0.075	49247	keystroke_o	o	n/a
25.373	0.15	50746	keystroke_g	g	n/a
25.538	0.15	51076	keystroke_r	r	n/a
25.7635	0.1195	51527	keystroke_a	a	n/a
26.228	0.06	52456	keystroke_Key.backspace	Key.backspace	n/a
26.843	0.06	53686	keystroke_Key.backspace	Key.backspace	n/a
27.9085	0.0595	55817	keystroke_p	p	n/a
28.1935	0.075	56387	keystroke_h	h	n/a
28.433	0.0905	56866	keystroke_y	y	n/a
28.7185	0.075	57437	keystroke_Key.enter	Key.enter	n/a
28.798	11.382	57596	prompt	n/a	dynamics country defining merge\n
29.6635	0.1945	59327	keystroke_d	d	n/a
29.843	0.09	59686	keystroke_y	y	n/a
30.1885	0.105	60377	keystroke_n	n	n/a
30.3535	0.105	60707	keystroke_a	a	n/a
30.8935	0.105	61787	keystroke_m	m	n/a
31.208	0.03	62416	keystroke_i	i	n/a
31.313	0.135	62626	keystroke_c	c	n/a
31.538	0.12	63076	keystroke_s	s	n/a
31.778	0.12	63556	keystroke_Key.space	Key.space	n/a
32.213	0.15	64426	keystroke_c	c	n/a
32.333	0.165	64666	keystroke_o	o	n/a
32.393	0.165	64786	keystroke_u	u	n/a
32.499	0.134	64998	keystroke_n	n	n/a
32.648	0.105	65296	keystroke_t	t	n/a
32.798	0.165	65596	keystroke_r	r	n/a
32.903	0.1205	65806	keystroke_y	y	n/a
33.0685	0.105	66137	keystroke_Key.space	Key.space	n/a
33.2185	0.09	66437	keystroke_d	d	n/a
33.3985	0.06	66797	keystroke_e	e	n/a
33.5635	0.12	67127	keystroke_f	f	n/a
33.6985	0.18	67397	keystroke_i	i	n/a
33.7585	0.15	67517	keystroke_n	n	n/a
33.9235	0.1795	67847	keystroke_g	g	n/a
34.133	0.135	68266	keystroke_Key.space	Key.space	n/a
34.5235	0.075	69047	keystroke_m	m	n/a
35.2585	0.0595	70517	keystroke_Key.backspace	Key.backspace	n/a
35.438	0.045	70876	keystroke_Key.backspace	Key.backspace	n/a
35.603	0.15	71206	keystroke_Key.backspace	Key.backspace	n/a
35.993	0.06	71986	keystroke_Key.backspace	Key.backspace	n/a
36.893	0.12	73786	keystroke_n	n	n/a
37.0735	0.195	74147	keystroke_i	i	n/a
37.1935	0.135	74387	keystroke_n	n	n/a
37.2985	0.135	74597	keystroke_g	g	n/a
37.4935	0.06	74987	keystroke_Key.space	Key.space	n/a
38.063	0.1805	76126	keystroke_f	f	n/a
38.588	0.06	77176	keystroke_Key.backspace	Key.backspace	n/a
38.858	0.12	77716	keystroke_m	m	n/a
38.979	0.2085	77958	keystroke_e	e	n/a
39.1285	0.075	78257	keystroke_r	r	n/a
39.698	0.18	79396	keystroke_g	g	n/a
39.818	0.18	79636	keystroke_e	e	n/a
40.103	0.075	80206	keystroke_Key.enter	Key.enter	n/a
40.183	16.077	80366	prompt	n/a	swap outsourcing norton annoying\n
40.9435	0.105	81887	keystroke_a	a	n/a
41.2735	0.0895	82547	keystroke_w	w	n/a
41.4535	0.12	82907	keystroke_a	a	n/a
41.6635	0.075	83327	keystroke_p	p	n/a
41.8585	0.12	83717	keystroke_Key.space	Key.space	n/a
42.158	0.2255	84316	keystroke_o	o	n/a
42.323	0.0605	84646	keystroke_u	u	n/a
42.6385	0.06	85277	keystroke_Key.backspace	Key.backspace	n/a
42.7885	0.06	85577	keystroke_Key.backspace	Key.backspace	n/a
42.9535	0.045	85907	keystroke_Key.backspace	Key.backspace	n/a
43.088	0.06	86176	keystroke_Key.backspace	Key.backspace	n/a
43.253	0.045	86506	keystroke_Key.backspace	Key.backspace	n/a
43.478	0.06	86956	keystroke_Key.backspace	Key.backspace	n/a
43.6885	0.06	87377	keystroke_Key.backspace	Key.backspace	n/a
44.0035	0.12	88007	keystroke_s	s	n/a
44.3485	0.105	88697	keystroke_w	w	n/a
44.5735	0.135	89147	keystroke_a	a	n/a
44.8135	0.0595	89627	keystroke_p	p	n/a
45.0385	0.12	90077	keystroke_Key.space	Key.space	n/a
45.2635	0.105	90527	keystroke_s	s	n/a
45.4435	0.195	90887	keystroke_o	o	n/a
45.5185	0.15	91037	keystroke_u	u	n/a
45.7135	0.075	91427	keystroke_t	t	n/a
46.838	0.075	93676	keystroke_Key.backspace	Key.backspace	n/a
48.008	0.135	96016	keystroke_Key.backspace	Key.backspace	n/a
48.233	0.075	96466	keystroke_Key.backspace	Key.backspace	n/a
48.488	0.06	96976	keystroke_Key.backspace	Key.backspace	n/a
48.968	0.3155	97936	keystroke_o	o	n/a
49.118	0.1805	98236	keystroke_u	u	n/a
49.6285	0.135	99257	keystroke_t	t	n/a
49.9885	0.1195	99977	keystroke_s	s	n/a
50.213	0.3155	100426	keystroke_o	o	n/a
50.3935	0.12	100787	keystroke_u	u	n/a
51.2785	0.15	102557	keystroke_r	r	n/a
51.908	0.135	103816	keystroke_c	c	n/a
52.163	0.225	104326	keystroke_i	i	n/a
52.253	0.165	104506	keystroke_n	n	n/a
52.358	0.165	104716	keystroke_g	g	n/a
52.493	0.135	104986	keystroke_Key.space	Key.space	n/a
52.778	0.105	105556	keystroke_n	n	n/a
52.958	0.1205	105916	keystroke_o	o	n/a
53.3635	0.09	106727	keystroke_r	r	n/a
53.5585	0.12	107117	keystroke_t	t	n/a
53.7685	0.165	107537	keystroke_o	o	n/a
53.9185	0.1355	107837	keystroke_n	n	n/a
54.114	0.135	108228	keystroke_Key.space	Key.space	n/a
54.384	0.1045	108768	keystroke_a	a	n/a
54.5335	0.06	109067	keystroke_n	n	n/a
54.6685	0.09	109337	keystroke_n	n	n/a
55.043	0.06	110086	keystroke_o	o	n/a
55.313	0.06	110626	keystroke_y	y	n/a
55.583	0.165	111166	keystroke_i	i	n/a
55.658	0.195	111316	keystroke_n	n	n/a
55.838	0.165	111676	keystroke_g	g	n/a
56.1985	0.06	112397	keystroke_Key.enter	Key.enter	n/a
56.2635	11.1265	112527	prompt	n/a	comment acceptance sample pretty\n
57.0235	0.105	114047	keystroke_c	c	n/a
57.1435	0.075	114287	keystroke_o	o	n/a
57.3685	0.06	114737	keystroke_m	m	n/a
57.518	0.0605	115036	keystroke_m	m	n/a
57.6385	0.18	115277	keystroke_e	e	n/a
57.8335	0.135	115667	keystroke_n	n	n/a
58.013	0.135	116026	keystroke_t	t	n/a
58.898	0.135	117796	keystroke_Key.space	Key.space	n/a
59.348	0.105	118696	keystroke_a	a	n/a
59.588	0.09	119176	keystroke_c	c	n/a
60.0535	0.1345	120107	keystroke_c	c	n/a
60.353	0.135	120706	keystroke_e	e	n/a
60.563	0.06	121126	keystroke_p	p	n/a
60.743	0.1205	121486	keystroke_t	t	n/a
61.449	0.105	122898	keystroke_a	a	n/a
62.244	0.135	124488	keystroke_n	n	n/a
62.529	0.15	125058	keystroke_c	c	n/a
62.649	0.165	125298	keystroke_e	e	n/a
62.8585	0.105	125717	keystroke_Key.space	Key.space	n/a
63.084	0.09	126168	keystroke_a	a	n/a
63.7585	0.045	127517	keystroke_s	s	n/a
64.403	0.075	128806	keystroke_Key.backspace	Key.backspace	n/a
64.613	0.06	129226	keystroke_Key.backspace	Key.backspace	n/a
64.808	0.166	129616	keystroke_s	s	n/a
64.989	0.104	129978	keystroke_a	a	n/a
65.213	0.09	130426	keystroke_m	m	n/a
65.423	0.06	130846	keystroke_p	p	n/a
65.633	0.09	131266	keystroke_l	l	n/a
65.753	0.135	131506	keystroke_e	e	n/a
65.858	0.165	131716	keystroke_Key.space	Key.space	n/a
66.3535	0.1195	132707	keystroke_r	r	n/a
66.4285	0.1495	132857	keystroke_e	e	n/a
66.683	0.075	133366	keystroke_t	t	n/a
66.834	0.119	133668	keystroke_t	t	n/a
66.968	0.0755	133936	keystroke_y	y	n/a
67.3435	0.0445	134687	keystroke_Key.enter	Key.enter	n/a
67.393	8.1275	134786	prompt	n/a	approve entities conventional fonts\n
68.483	0.09	136966	keystroke_a	a	n/a
68.663	0.045	137326	keystroke_p	p	n/a
68.798	0.075	137596	keystroke_p	p	n/a
68.948	0.1205	137896	keystroke_r	r	n/a
69.0835	0.09	138167	keystroke_o	o	n/a
69.2785	0.135	138557	keystroke_v	v	n/a
69.3685	0.165	138737	keystroke_e	e	n/a
69.6085	0.135	139217	keystroke_Key.space	Key.space	n/a
70.4335	0.12	140867	keystroke_e	e	n/a
70.9135	0.135	141827	keystroke_n	n	n/a
71.1985	0.09	142397	keystroke_t	t	n/a
71.2735	0.09	142547	keystroke_i	i	n/a
71.4985	0.135	142997	keystroke_t	t	n/a
71.6935	0.075	143387	keystroke_i	i	n/a
71.9185	0.165	143837	keystroke_e	e	n/a
72.0535	0.195	144107	keystroke_s	s	n/a
72.2185	0.18	144437	keystroke_Key.space	Key.space	n/a
72.5785	0.12	145157	keystroke_c	c	n/a
72.6835	0.09	145367	keystroke_o	o	n/a
72.9235	0.135	145847	keystroke_v	v	n/a
73.0735	0.135	146147	keystroke_e	e	n/a
73.238	0.135	146476	keystroke_n	n	n/a
73.403	0.12	146806	keystroke_t	t	n/a
73.583	0.18	147166	keystroke_i	i	n/a
73.703	0.165	147406	keystroke_o	o	n/a
73.838	0.135	147676	keystroke_n	n	n/a
74.003	0.12	148006	keystroke_a	a	n/a
74.138	0.12	148276	keystroke_l	l	n/a
74.348	0.09	148696	keystroke_Key.space	Key.space	n/a
74.588	0.09	149176	keystroke_f	f	n/a
74.693	0.12	149386	keystroke_o	o	n/a
74.8585	0.12	149717	keystroke_n	n	n/a
75.023	0.105	150046	keystroke_t	t	n/a
75.248	0.135	150496	keystroke_s	s	n/a
75.443	0.075	150886	keystroke_Key.enter	Key.enter	n/a
75.524	12.2965	151048	prompt	n/a	upgrades everywhere refined office\n
76.2535	0.105	152507	keystroke_u	u	n/a
76.5385	0.045	153077	keystroke_p	p	n/a
77.3785	0.225	154757	keystroke_g	g	n/a
77.5885	0.165	155177	keystroke_r	r	n/a
77.7535	0.12	155507	keystroke_a	a	n/a
77.9935	0.09	155987	keystroke_d	d	n/a
78.1885	0.075	156377	keystroke_e	e	n/a
78.3085	0.18	156617	keystroke_s	s	n/a
78.5035	0.15	157007	keystroke_Key.space	Key.space	n/a
78.8785	0.09	157757	keystroke_e	e	n/a
79.0885	0.135	158177	keystroke_v	v	n/a
79.2085	0.105	158417	keystroke_e	e	n/a
79.2535	0.165	158507	keystroke_r	r	n/a
79.4485	0.105	158897	keystroke_y	y	n/a
80.1235	0.09	160247	keystroke_e	e	n/a
80.2285	0.03	160457	keystroke_h	h	n/a
80.333	0.135	160666	keystroke_r	r	n/a
80.423	0.18	160846	keystroke_e	e	n/a
80.948	0.06	161896	keystroke_Key.backspace	Key.backspace	n/a
81.098	0.06	162196	keystroke_Key.backspace	Key.backspace	n/a
81.233	0.075	162466	keystroke_Key.backspace	Key.backspace	n/a
81.638	0.0605	163276	keystroke_Key.backspace	Key.backspace	n/a
81.9085	0.12	163817	keystroke_e	e	n/a
82.0585	0.06	164117	keystroke_h	h	n/a
82.5535	0.06	165107	keystroke_Key.backspace	Key.backspace	n/a
82.6885	0.09	165377	keystroke_Key.backspace	Key.backspace	n/a
82.8235	0.12	165647	keystroke_w	w	n/a
83.0335	0.09	166067	keystroke_h	h	n/a
83.2885	0.12	166577	keystroke_e	e	n/a
83.3935	0.15	166787	keystroke_r	r	n/a
83.4985	0.15	166997	keystroke_e	e	n/a
83.888	0.105	167776	keystroke_Key.space	Key.space	n/a
84.398	0.135	168796	keystroke_r	r	n/a
84.458	0.165	168916	keystroke_e	e	n/a
84.743	0.12	169486	keystroke_f	f	n/a
84.908	0.06	169816	keystroke_i	i	n/a
84.923	0.345	169846	keystroke_n	n	n/a
85.673	0.075	171346	keystroke_e	e	n/a
85.884	0.165	171768	keystroke_d	d	n/a
86.1985	0.105	172397	keystroke_Key.space	Key.space	n/a
86.6635	0.135	173327	keystroke_o	o	n/a
86.9785	0.075	173957	keystroke_f	f	n/a
87.1135	0.12	174227	keystroke_f	f	n/a
87.2635	0.105	174527	keystroke_i	i	n/a
87.3985	0.1655	174797	keystroke_c	c	n/a
87.534	0.12	175068	keystroke_e	e	n/a
87.759	0.06	175518	keystroke_Key.enter	Key.enter	n/a
87.825	6.655	175650	prompt	n/a	warrior exploring use operation\n
88.6585	0.12	177317	keystroke_w	w	n/a
88.8535	0.12	177707	keystroke_a	a	n/a
89.078	0.09	178156	keystroke_r	r	n/a
89.288	0.12	178576	keystroke_r	r	n/a
89.5585	0.135	179117	keystroke_i	i	n/a
89.8285	0.12	179657	keystroke_o	o	n/a
89.9935	0.1495	179987	keystroke_r	r	n/a
90.263	0.15	180526	keystroke_Key.space	Key.space	n/a
90.518	0.105	181036	keystroke_e	e	n/a
90.773	0.12	181546	keystroke_x	x	n/a
90.908	0.06	181816	keystroke_p	p	n/a
91.0885	0.09	182177	keystroke_l	l	n/a
91.2835	0.075	182567	keystroke_o	o	n/a
91.5085	0.105	183017	keystroke_r	r	n/a
91.6735	0.2245	183347	keystroke_i	i	n/a
91.7785	0.1805	183557	keystroke_n	n	n/a
91.914	0.21	183828	keystroke_g	g	n/a
92.108	0.12	184216	keystroke_Key.space	Key.space	n/a
92.454	0.105	184908	keystroke_u	u	n/a
92.574	0.179	185148	keystroke_s	s	n/a
92.738	0.15	185476	keystroke_e	e	n/a
92.843	0.15	185686	keystroke_Key.space	Key.space	n/a
93.1435	0.105	186287	keystroke_o	o	n/a
93.2935	0.135	186587	keystroke_p	p	n/a
93.4585	0.2095	186917	keystroke_e	e	n/a
93.5935	0.1195	187187	keystroke_r	r	n/a
93.728	0.135	187456	keystroke_a	a	n/a
93.908	0.12	187816	keystroke_t	t	n/a
93.998	0.21	187996	keystroke_i	i	n/a
94.088	0.105	188176	keystroke_o	o	n/a
94.133	0.135	188266	keystroke_n	n	n/a
94.403	0.075	188806	keystroke_Key.enter	Key.enter	n/a
94.483	19.662	188966	prompt	n/a	merry boot observation beautifully\n
95.3335	0.12	190667	keystroke_e	e	n/a
95.7685	0.06	191537	keystroke_Key.backspace	Key.backspace	n/a
96.0235	0.105	192047	keystroke_m	m	n/a
96.1885	0.15	192377	keystroke_e	e	n/a
96.5035	0.1345	193007	keystroke_r	r	n/a
96.683	0.165	193366	keystroke_r	r	n/a
96.833	0.09	193666	keystroke_y	y	n/a
97.058	0.1205	194116	keystroke_Key.space	Key.space	n/a
97.448	0.09	194896	keystroke_b	b	n/a
97.748	0.06	195496	keystroke_o	o	n/a
97.883	0.075	195766	keystroke_o	o	n/a
98.018	0.165	196036	keystroke_t	t	n/a
98.198	0.135	196396	keystroke_Key.space	Key.space	n/a
98.528	0.1055	197056	keystroke_o	o	n/a
99.2035	0.165	198407	keystroke_e	e	n/a
99.8335	0.06	199667	keystroke_Key.backspace	Key.backspace	n/a
99.9685	0.06	199937	keystroke_Key.backspace	Key.backspace	n/a
100.268	0.09	200536	keystroke_o	o	n/a
100.418	0.09	200836	keystroke_b	b	n/a
100.8535	0.2245	201707	keystroke_e	e	n/a
101.138	0.09	202276	keystroke_r	r	n/a
101.393	0.12	202786	keystroke_s	s	n/a
102.308	0.09	204616	keystroke_Key.backspace	Key.backspace	n/a
103.314	0.075	206628	keystroke_Key.backspace	Key.backspace	n/a
103.464	0.0895	206928	keystroke_Key.backspace	Key.backspace	n/a
103.5835	0.15	207167	keystroke_s	s	n/a
103.7485	0.195	207497	keystroke_e	e	n/a
103.8685	0.105	207737	keystroke_r	r	n/a
104.1985	0.135	208397	keystroke_v	v	n/a
104.3785	0.105	208757	keystroke_a	a	n/a
104.6185	0.15	209237	keystroke_t	t	n/a
104.8435	0.12	209687	keystroke_o	o	n/a
104.9035	0.165	209807	keystroke_n	n	n/a
105.1135	0.12	210227	keystroke_Key.space	Key.space	n/a
105.5785	0.12	211157	keystroke_b	b	n/a
105.7135	0.09	211427	keystroke_e	e	n/a
105.9085	0.15	211817	keystroke_a	a	n/a
106.0885	0.1505	212177	keystroke_u	u	n/a
106.463	0.136	212926	keystroke_f	f	n/a
106.914	0.089	213828	keystroke_u	u	n/a
107.4685	0.0895	214937	keystroke_Key.backspace	Key.backspace	n/a
110.9805	0.058	221961	keystroke_Key.backspace	Key.backspace	n/a
112.4035	0.105	224807	keystroke_t	t	n/a
112.6585	0.12	225317	keystroke_i	i	n/a
112.9435	0.09	225887	keystroke_f	f	n/a
113.1385	0.06	226277	keystroke_u	u	n/a
113.3485	0.045	226697	keystroke_l	l	n/a
113.4835	0.105	226967	keystroke_l	l	n/a
113.648	0.165	227296	keystroke_y	y	n/a
114.069	0.075	228138	keystroke_Key.enter	Key.enter	n/a
114.1485	8.367	228297	prompt	n/a	slots alphabetical liked when\n
114.954	0.135	229908	keystroke_s	s	n/a
115.059	0.105	230118	keystroke_l	l	n/a
115.254	0.075	230508	keystroke_o	o	n/a
115.404	0.165	230808	keystroke_t	t	n/a
115.584	0.1945	231168	keystroke_s	s	n/a
115.719	0.1345	231438	keystroke_Key.space	Key.space	n/a
115.9435	0.12	231887	keystroke_a	a	n/a
116.3935	0.105	232787	keystroke_p	p	n/a
116.9485	0.075	233897	keystroke_Key.backspace	Key.backspace	n/a
117.2185	0.105	234437	keystroke_l	l	n/a
117.4585	0.075	234917	keystroke_p	p	n/a
117.6685	0.105	235337	keystroke_h	h	n/a
117.8935	0.1045	235787	keystroke_a	a	n/a
118.404	0.1045	236808	keystroke_b	b	n/a
118.5535	0.1045	237107	keystroke_e	e	n/a
118.808	0.06	237616	keystroke_t	t	n/a
118.884	0.104	237768	keystroke_i	i	n/a
119.213	0.12	238426	keystroke_c	c	n/a
119.379	0.089	238758	keystroke_a	a	n/a
119.514	0.105	239028	keystroke_l	l	n/a
119.783	0.1055	239566	keystroke_Key.space	Key.space	n/a
120.1885	0.1045	240377	keystroke_l	l	n/a
120.3835	0.0745	240767	keystroke_i	i	n/a
120.548	0.12	241096	keystroke_k	k	n/a
120.953	0.0905	241906	keystroke_e	e	n/a
121.2085	0.1345	242417	keystroke_d	d	n/a
121.539	0.104	243078	keystroke_Key.space	Key.space	n/a
121.778	0.06	243556	keystroke_w	w	n/a
121.854	0.105	243708	keystroke_h	h	n/a
122.004	0.135	244008	keystroke_e	e	n/a
122.154	0.089	244308	keystroke_n	n	n/a
122.4685	0.045	244937	keystroke_Key.enter	Key.enter	n/a
122.5185	8.2615	245037	prompt	n/a	mesa floor question mask\n
123.2635	0.075	246527	keystroke_m	m	n/a
123.3535	0.135	246707	keystroke_e	e	n/a
123.6085	0.135	247217	keystroke_s	s	n/a
123.7885	0.15	247577	keystroke_a	a	n/a
123.9835	0.15	247967	keystroke_Key.space	Key.space	n/a
124.1935	0.105	248387	keystroke_f	f	n/a
124.2685	0.105	248537	keystroke_l	l	n/a
124.4785	0.075	248957	keystroke_o	o	n/a
124.6285	0.075	249257	keystroke_o	o	n/a
124.7635	0.15	249527	keystroke_r	r	n/a
124.8835	0.165	249767	keystroke_Key.space	Key.space	n/a
125.3335	0.135	250667	keystroke_w	w	n/a
125.7685	0.075	251537	keystroke_Key.backspace	Key.backspace	n/a
125.9035	0.12	251807	keystroke_q	q	n/a
126.0535	0.105	252107	keystroke_u	u	n/a
126.1885	0.315	252377	keystroke_e	e	n/a
126.3685	0.135	252737	keystroke_s	s	n/a
126.4585	0.18	252917	keystroke_t	t	n/a
126.6235	0.255	253247	keystroke_i	i	n/a
126.6985	0.1945	253397	keystroke_o	o	n/a
126.8035	0.1195	253607	keystroke_n	n	n/a
126.924	0.134	253848	keystroke_Key.space	Key.space	n/a
127.118	0.09	254236	keystroke_m	m	n/a
127.253	0.09	254506	keystroke_a	a	n/a
127.344	0.12	254688	keystroke_r	r	n/a
127.553	0.015	255106	keystroke_k	k	n/a
127.719	0.104	255438	keystroke_s	s	n/a
128.0935	0.075	256187	keystroke_Key.backspace	Key.backspace	n/a
128.2435	0.09	256487	keystroke_Key.backspace	Key.backspace	n/a
128.3485	0.165	256697	keystroke_s	s	n/a
128.738	0.06	257476	keystroke_Key.backspace	Key.backspace	n/a
128.888	0.06	257776	keystroke_Key.backspace	Key.backspace	n/a
128.993	0.06	257986	keystroke_s	s	n/a
129.6835	0.09	259367	keystroke_Key.backspace	Key.backspace	n/a
130.1935	0.15	260387	keystroke_s	s	n/a
130.3885	0.105	260777	keystroke_k	k	n/a
130.7185	0.0595	261437	keystroke_Key.enter	Key.enter	n/a
130.7835	6.5515	261567	prompt	n/a	inns lucas docs careers\n
131.4535	0.12	262907	keystroke_i	i	n/a
131.7085	0.075	263417	keystroke_n	n	n/a
131.8435	0.09	263687	keystroke_n	n	n/a
131.9785	0.1355	263957	keystroke_s	s	n/a
132.0835	0.1355	264167	keystroke_Key.space	Key.space	n/a
132.369	0.075	264738	keystroke_l	l	n/a
132.579	0.09	265158	keystroke_u	u	n/a
132.729	0.12	265458	keystroke_c	c	n/a
132.879	0.135	265758	keystroke_a	a	n/a
133.0735	0.1955	266147	keystroke_s	s	n/a
133.2535	0.1505	266507	keystroke_Key.space	Key.space	n/a
134.0485	0.105	268097	keystroke_d	d	n/a
134.1985	0.09	268397	keystroke_o	o	n/a
134.7235	0.1355	269447	keystroke_c	c	n/a
134.933	0.1205	269866	keystroke_s	s	n/a
135.1135	0.105	270227	keystroke_Key.space	Key.space	n/a
135.5935	0.105	271187	keystroke_c	c	n/a
135.7885	0.135	271577	keystroke_a	a	n/a
136.1035	0.1345	272207	keystroke_r	r	n/a
136.493	0.09	272986	keystroke_e	e	n/a
136.674	0.254	273348	keystroke_e	e	n/a
136.868	0.135	273736	keystroke_r	r	n/a
136.988	0.1505	273976	keystroke_s	s	n/a
137.2735	0.06	274547	keystroke_Key.enter	Key.enter	n/a
137.338	9.732	274676	prompt	n/a	basement summer affiliation stephanie\n
138.0985	0.12	276197	keystroke_b	b	n/a
138.4885	0.135	276977	keystroke_a	a	n/a
138.6535	0.165	277307	keystroke_s	s	n/a
138.7585	0.1945	277517	keystroke_e	e	n/a
139.1635	0.09	278327	keystroke_m	m	n/a
139.2985	0.15	278597	keystroke_e	e	n/a
139.4335	0.105	278867	keystroke_n	n	n/a
139.5835	0.105	279167	keystroke_t	t	n/a
139.7185	0.135	279437	keystroke_Key.space	Key.space	n/a
139.8835	0.135	279767	keystroke_s	s	n/a
139.9885	0.09	279977	keystroke_u	u	n/a
140.2585	0.06	280517	keystroke_m	m	n/a
140.3935	0.075	280787	keystroke_m	m	n/a
140.5285	0.18	281057	keystroke_e	e	n/a
140.6335	0.135	281267	keystroke_r	r	n/a
140.7235	0.135	281447	keystroke_Key.space	Key.space	n/a
141.188	0.121	282376	keystroke_a	a	n/a
141.369	0.045	282738	keystroke_f	f	n/a
141.519	0.104	283038	keystroke_f	f	n/a
141.698	0.105	283396	keystroke_i	i	n/a
142.644	0.03	285288	keystroke_l	l	n/a
143.288	0.135	286576	keystroke_a	a	n/a
143.693	0.03	287386	keystroke_Key.backspace	Key.backspace	n/a
143.919	0.089	287838	keystroke_i	i	n/a
144.023	0.121	288046	keystroke_a	a	n/a
144.233	0.105	288466	keystroke_t	t	n/a
144.369	0.24	288738	keystroke_i	i	n/a
144.429	0.135	288858	keystroke_o	o	n/a
144.489	0.18	288978	keystroke_n	n	n/a
144.654	0.075	289308	keystroke_Key.space	Key.space	n/a
144.789	0.105	289578	keystroke_s	s	n/a
145.0435	0.135	290087	keystroke_t	t	n/a
145.1335	0.165	290267	keystroke_e	e	n/a
145.5985	0.105	291197	keystroke_p	p	n/a
145.9585	0.1355	291917	keystroke_h	h	n/a
146.3335	0.12	292667	keystroke_a	a	n/a
146.4985	0.09	292997	keystroke_n	n	n/a
146.6335	0.135	293267	keystroke_i	i	n/a
146.8135	0.09	293627	keystroke_e	e	n/a
147.0085	0.06	294017	keystroke_Key.enter	Key.enter	n/a
147.0735	7.6015	294147	prompt	n/a	loop thriller will offering\n
147.953	0.09	295906	keystroke_l	l	n/a
148.5385	0.075	297077	keystroke_o	o	n/a
148.7035	0.06	297407	keystroke_o	o	n/a
148.8685	0.09	297737	keystroke_p	p	n/a
149.2285	0.135	298457	keystroke_Key.space	Key.space	n/a
149.4985	0.12	298997	keystroke_t	t	n/a
149.6035	0.09	299207	keystroke_h	h	n/a
149.7835	0.1355	299567	keystroke_r	r	n/a
149.949	0.09	299898	keystroke_i	i	n/a
150.2335	0.06	300467	keystroke_l	l	n/a
150.4585	0.015	300917	keystroke_l	l	n/a
150.5635	0.21	301127	keystroke_e	e	n/a
150.6685	0.165	301337	keystroke_r	r	n/a
150.7885	0.105	301577	keystroke_Key.space	Key.space	n/a
150.9535	0.12	301907	keystroke_w	w	n/a
151.0135	0.12	302027	keystroke_h	h	n/a
151.343	0.046	302686	keystroke_l	l	n/a
151.493	0.075	302986	keystroke_l	l	n/a
151.868	0.06	303736	keystroke_Key.backspace	Key.backspace	n/a
152.003	0.06	304006	keystroke_Key.backspace	Key.backspace	n/a
152.139	0.075	304278	keystroke_Key.backspace	Key.backspace	n/a
152.4385	0.045	304877	keystroke_i	i	n/a
152.6335	0.075	305267	keystroke_l	l	n/a
152.7685	0.09	305537	keystroke_l	l	n/a
152.9485	0.1205	305897	keystroke_Key.space	Key.space	n/a
153.024	0.075	306048	keystroke_o	o	n/a
153.174	0.105	306348	keystroke_f	f	n/a
153.354	0.12	306708	keystroke_f	f	n/a
153.8185	0.1955	307637	keystroke_e	e	n/a
153.999	0.105	307998	keystroke_r	r	n/a
154.194	0.195	308388	keystroke_i	i	n/a
154.299	0.135	308598	keystroke_n	n	n/a
154.419	0.105	308838	keystroke_g	g	n/a
154.629	0.045	309258	keystroke_Key.enter	Key.enter	n/a
154.6795	7.2705	309359	prompt	n/a	importance relaxation how's asia\n
155.4235	0.09	310847	keystroke_i	i	n/a
155.6185	0.105	311237	keystroke_m	m	n/a
155.8435	0.03	311687	keystroke_p	p	n/a
156.5035	0.09	313007	keystroke_o	o	n/a
156.7135	0.225	313427	keystroke_r	r	n/a
156.9085	0.1795	313817	keystroke_t	t	n/a
157.238	0.151	314476	keystroke_a	a	n/a
157.434	0.12	314868	keystroke_n	n	n/a
157.584	0.149	315168	keystroke_c	c	n/a
157.673	0.181	315346	keystroke_e	e	n/a
157.914	0.1195	315828	keystroke_Key.space	Key.space	n/a
158.3335	0.135	316667	keystroke_r	r	n/a
158.4085	0.135	316817	keystroke_e	e	n/a
158.6335	0.12	317267	keystroke_l	l	n/a
158.8285	0.105	317657	keystroke_a	a	n/a
159.129	0.105	318258	keystroke_x	x	n/a
159.4135	0.105	318827	keystroke_a	a	n/a
159.6835	0.06	319367	keystroke_t	t	n/a
159.8185	0.21	319637	keystroke_i	i	n/a
159.8785	0.12	319757	keystroke_o	o	n/a
159.9535	0.12	319907	keystroke_n	n	n/a
160.0585	0.105	320117	keystroke_Key.space	Key.space	n/a
160.2685	0.09	320537	keystroke_h	h	n/a
160.3435	0.1355	320687	keystroke_o	o	n/a
160.464	0.09	320928	keystroke_w	w	n/a
160.7335	0.075	321467	keystroke_'	'	n/a
160.8985	0.09	321797	keystroke_s	s	n/a
161.0335	0.045	322067	keystroke_Key.space	Key.space	n/a
161.1535	0.075	322307	keystroke_a	a	n/a
161.3185	0.12	322637	keystroke_s	s	n/a
161.5435	0.09	323087	keystroke_o	o	n/a
161.6935	0.09	323387	keystroke_a	a	n/a
161.9035	0.045	323807	keystroke_Key.enter	Key.enter	n/a
161.9535	12.132	323907	prompt	n/a	wishing similarly worship blond\n
162.848	0.09	325696	keystroke_w	w	n/a
162.968	0.09	325936	keystroke_h	h	n/a
163.043	0.12	326086	keystroke_i	i	n/a
163.148	0.12	326296	keystroke_s	s	n/a
163.313	0.06	326626	keystroke_h	h	n/a
163.4635	0.165	326927	keystroke_i	i	n/a
163.5685	0.165	327137	keystroke_n	n	n/a
163.6735	0.15	327347	keystroke_g	g	n/a
163.7635	0.12	327527	keystroke_Key.space	Key.space	n/a
163.943	0.1205	327886	keystroke_s	s	n/a
164.0035	0.0905	328007	keystroke_i	i	n/a
164.229	0.09	328458	keystroke_m	m	n/a
164.439	0.09	328878	keystroke_i	i	n/a
164.769	0.0745	329538	keystroke_l	l	n/a
164.8735	0.105	329747	keystroke_a	a	n/a
164.9935	0.1205	329987	keystroke_r	r	n/a
165.219	0.09	330438	keystroke_y	y	n/a
165.534	0.09	331068	keystroke_l	l	n/a
165.804	0.09	331608	keystroke_y	y	n/a
166.179	0.15	332358	keystroke_Key.space	Key.space	n/a
167.1835	0.0455	334367	keystroke_Key.backspace	Key.backspace	n/a
167.3035	0.09	334607	keystroke_Key.backspace	Key.backspace	n/a
167.4535	0.0905	334907	keystroke_Key.backspace	Key.backspace	n/a
167.799	0.06	335598	keystroke_Key.backspace	Key.backspace	n/a
168.189	0.09	336378	keystroke_l	l	n/a
168.489	0.09	336978	keystroke_y	y	n/a
169.104	0.105	338208	keystroke_Key.space	Key.space	n/a
169.509	0.15	339018	keystroke_w	w	n/a
169.613	0.106	339226	keystroke_o	o	n/a
169.733	0.1055	339466	keystroke_r	r	n/a
169.9885	0.0755	339977	keystroke_h	h	n/a
170.034	0.135	340068	keystroke_s	s	n/a
170.5285	0.06	341057	keystroke_Key.backspace	Key.backspace	n/a
170.6635	0.075	341327	keystroke_Key.backspace	Key.backspace	n/a
170.8435	0.12	341687	keystroke_s	s	n/a
171.0385	0.105	342077	keystroke_h	h	n/a
171.2185	0.135	342437	keystroke_i	i	n/a
171.5485	0.105	343097	keystroke_p	p	n/a
172.043	0.12	344086	keystroke_Key.space	Key.space	n/a
172.538	0.09	345076	keystroke_b	b	n/a
172.778	0.075	345556	keystroke_l	l	n/a
172.988	0.091	345976	keystroke_o	o	n/a
173.318	0.105	346636	keystroke_n	n	n/a
173.573	0.12	347146	keystroke_d	d	n/a
174.009	0.0745	348018	keystroke_Key.enter	Key.enter	n/a
174.096	6.2745	348192	prompt	n/a	oclc nato fans dimensions\n
174.7585	0.12	349517	keystroke_o	o	n/a
175.044	0.105	350088	keystroke_c	c	n/a
175.449	0.105	350898	keystroke_l	l	n/a
175.614	0.1645	351228	keystroke_c	c	n/a
175.8235	0.12	351647	keystroke_Key.space	Key.space	n/a
176.048	0.1055	352096	keystroke_n	n	n/a
176.1985	0.105	352397	keystroke_a	a	n/a
176.3935	0.06	352787	keystroke_t	t	n/a
176.5135	0.12	353027	keystroke_o	o	n/a
176.7085	0.09	353417	keystroke_Key.space	Key.space	n/a
176.9185	0.12	353837	keystroke_f	f	n/a
177.0535	0.135	354107	keystroke_a	a	n/a
177.2035	0.15	354407	keystroke_n	n	n/a
177.5785	0.18	355157	keystroke_s	s	n/a
177.7735	0.1055	355547	keystroke_Key.space	Key.space	n/a
178.3435	0.12	356687	keystroke_d	d	n/a
178.6135	0.075	357227	keystroke_e	e	n/a
178.929	0.075	357858	keystroke_m	m	n/a
179.138	0.091	358276	keystroke_e	e	n/a
179.289	0.089	358578	keystroke_n	n	n/a
179.5585	0.105	359117	keystroke_s	s	n/a
179.8135	0.225	359627	keystroke_i	i	n/a
179.9185	0.12	359837	keystroke_o	o	n/a
179.9785	0.1195	359957	keystroke_n	n	n/a
180.113	0.106	360226	keystroke_s	s	n/a
180.323	0.045	360646	keystroke_Key.enter	Key.enter	n/a
180.3735	8.007	360747	prompt	n/a	foul charleston safer converted\n
181.044	0.149	362088	keystroke_f	f	n/a
181.223	0.21	362446	keystroke_o	o	n/a
181.313	0.135	362626	keystroke_u	u	n/a
182.183	0.09	364366	keystroke_l	l	n/a
182.468	0.105	364936	keystroke_Key.space	Key.space	n/a
182.873	0.135	365746	keystroke_c	c	n/a
183.009	0.119	366018	keystroke_h	h	n/a
183.218	0.105	366436	keystroke_a	a	n/a
183.443	0.1055	366886	keystroke_r	r	n/a
183.6835	0.0905	367367	keystroke_l	l	n/a
183.879	0.0895	367758	keystroke_e	e	n/a
184.0885	0.09	368177	keystroke_s	s	n/a
184.3285	0.06	368657	keystroke_t	t	n/a
184.4035	0.165	368807	keystroke_o	o	n/a
184.4935	0.15	368987	keystroke_n	n	n/a
184.674	0.105	369348	keystroke_Key.space	Key.space	n/a
184.914	0.1195	369828	keystroke_s	s	n/a
185.1085	0.135	370217	keystroke_a	a	n/a
185.3485	0.12	370697	keystroke_f	f	n/a
185.6035	0.18	371207	keystroke_e	e	n/a
185.7385	0.135	371477	keystroke_r	r	n/a
185.8435	0.135	371687	keystroke_Key.space	Key.space	n/a
186.399	0.135	372798	keystroke_c	c	n/a
186.519	0.1195	373038	keystroke_o	o	n/a
186.594	0.1195	373188	keystroke_n	n	n/a
187.134	0.089	374268	keystroke_v	v	n/a
187.374	0.164	374748	keystroke_e	e	n/a
187.524	0.12	375048	keystroke_r	r	n/a
187.749	0.104	375498	keystroke_t	t	n/a
187.898	0.105	375796	keystroke_e	e	n/a
188.213	0.015	376426	keystroke_d	d	n/a
188.288	0.09	376576	keystroke_Key.enter	Key.enter	n/a
188.385	11.365	376770	prompt	n/a	proudly missouri applied becomes\n
189.099	0.09	378198	keystroke_p	p	n/a
189.204	0.12	378408	keystroke_r	r	n/a
189.354	0.09	378708	keystroke_o	o	n/a
189.549	0.09	379098	keystroke_d	d	n/a
189.744	0.09	379488	keystroke_u	u	n/a
190.149	0.09	380298	keystroke_l	l	n/a
190.6285	0.06	381257	keystroke_Key.backspace	Key.backspace	n/a
190.7635	0.09	381527	keystroke_Key.backspace	Key.backspace	n/a
190.8985	0.09	381797	keystroke_Key.backspace	Key.backspace	n/a
191.2885	0.09	382577	keystroke_u	u	n/a
192.0235	0.1195	384047	keystroke_d	d	n/a
192.368	0.06	384736	keystroke_l	l	n/a
192.548	0.135	385096	keystroke_y	y	n/a
192.8635	0.135	385727	keystroke_Key.space	Key.space	n/a
193.448	0.045	386896	keystroke_m	m	n/a
193.583	0.09	387166	keystroke_i	i	n/a
193.809	0.09	387618	keystroke_s	s	n/a
193.974	0.135	387948	keystroke_s	s	n/a
194.274	0.135	388548	keystroke_o	o	n/a
194.439	0.1045	388878	keystroke_u	u	n/a
194.6935	0.1195	389387	keystroke_r	r	n/a
195.023	0.105	390046	keystroke_i	i	n/a
195.293	0.1055	390586	keystroke_Key.space	Key.space	n/a
195.518	0.12	391036	keystroke_a	a	n/a
195.683	0.075	391366	keystroke_p	p	n/a
195.863	0.03	391726	keystroke_p	p	n/a
195.998	0.105	391996	keystroke_l	l	n/a
196.1785	0.105	392357	keystroke_i	i	n/a
196.3735	0.09	392747	keystroke_e	e	n/a
196.5685	0.135	393137	keystroke_d	d	n/a
196.6885	0.135	393377	keystroke_Key.space	Key.space	n/a
196.9585	0.09	393917	keystroke_b	b	n/a
197.079	0.12	394158	keystroke_e	e	n/a
197.5285	0.135	395057	keystroke_c	c	n/a
197.9035	0.105	395807	keystroke_a	a	n/a
198.7885	0.075	397577	keystroke_Key.backspace	Key.backspace	n/a
199.0285	0.105	398057	keystroke_o	o	n/a
199.1635	0.12	398327	keystroke_m	m	n/a
199.3135	0.15	398627	keystroke_e	e	n/a
199.4485	0.165	398897	keystroke_s	s	n/a
199.6735	0.075	399347	keystroke_Key.enter	Key.enter	n/a
199.7525	12.643	399505	prompt	n/a	refined access celebrities autos\n
200.5435	0.1355	401087	keystroke_r	r	n/a
200.619	0.12	401238	keystroke_e	e	n/a
200.844	0.12	401688	keystroke_f	f	n/a
200.964	0.165	401928	keystroke_i	i	n/a
201.039	0.21	402078	keystroke_n	n	n/a
201.8185	0.075	403637	keystroke_e	e	n/a
201.9985	0.1495	403997	keystroke_d	d	n/a
202.133	0.135	404266	keystroke_Key.space	Key.space	n/a
202.358	0.15	404716	keystroke_a	a	n/a
202.988	0.12	405976	keystroke_c	c	n/a
203.213	0.12	406426	keystroke_c	c	n/a
203.498	0.075	406996	keystroke_e	e	n/a
203.723	0.06	407446	keystroke_s	s	n/a
203.874	0.105	407748	keystroke_s	s	n/a
204.024	0.135	408048	keystroke_Key.space	Key.space	n/a
204.4735	0.105	408947	keystroke_c	c	n/a
204.7135	0.075	409427	keystroke_e	e	n/a
204.9235	0.1055	409847	keystroke_l	l	n/a
205.074	0.075	410148	keystroke_e	e	n/a
205.344	0.12	410688	keystroke_c	c	n/a
205.7635	0.09	411527	keystroke_i	i	n/a
206.394	0.06	412788	keystroke_Key.backspace	Key.backspace	n/a
206.529	0.06	413058	keystroke_Key.backspace	Key.backspace	n/a
207.099	0.06	414198	keystroke_b	b	n/a
207.369	0.06	414738	keystroke_i	i	n/a
207.744	0.045	415488	keystroke_Key.backspace	Key.backspace	n/a
207.834	0.1045	415668	keystroke_r	r	n/a
207.9985	0.1055	415997	keystroke_i	i	n/a
208.164	0.105	416328	keystroke_t	t	n/a
208.554	0.06	417108	keystroke_i	i	n/a
208.644	0.195	417288	keystroke_e	e	n/a
208.794	0.18	417588	keystroke_s	s	n/a
208.989	0.119	417978	keystroke_Key.space	Key.space	n/a
209.274	0.15	418548	keystroke_a	a	n/a
209.454	0.21	418908	keystroke_t	t	n/a
209.634	0.135	419268	keystroke_u	u	n/a
210.6085	0.075	421217	keystroke_Key.backspace	Key.backspace	n/a
210.7585	0.06	421517	keystroke_Key.backspace	Key.backspace	n/a
211.0135	0.0745	422027	keystroke_u	u	n/a
211.538	0.135	423076	keystroke_t	t	n/a
211.718	0.12	423436	keystroke_o	o	n/a
211.913	0.151	423826	keystroke_s	s	n/a
212.319	0.075	424638	keystroke_Key.enter	Key.enter	n/a
212.4015	6.3235	424803	prompt	n/a	afford elevation various wines\n
213.534	0.1195	427068	keystroke_a	a	n/a
213.788	0.06	427576	keystroke_f	f	n/a
213.9235	0.135	427847	keystroke_f	f	n/a
214.0735	0.12	428147	keystroke_o	o	n/a
214.1785	0.1195	428357	keystroke_r	r	n/a
214.434	0.1945	428868	keystroke_d	d	n/a
214.6135	0.105	429227	keystroke_Key.space	Key.space	n/a
214.8235	0.12	429647	keystroke_e	e	n/a
215.0785	0.075	430157	keystroke_l	l	n/a
215.1985	0.105	430397	keystroke_e	e	n/a
215.4835	0.09	430967	keystroke_v	v	n/a
215.6935	0.105	431387	keystroke_a	a	n/a
215.8885	0.09	431777	keystroke_t	t	n/a
216.0535	0.195	432107	keystroke_i	i	n/a
216.0985	0.165	432197	keystroke_o	o	n/a
216.1735	0.135	432347	keystroke_n	n	n/a
216.2785	0.12	432557	keystroke_Key.space	Key.space	n/a
216.533	0.165	433066	keystroke_v	v	n/a
216.668	0.135	433336	keystroke_a	a	n/a
216.818	0.135	433636	keystroke_r	r	n/a
217.059	0.1495	434118	keystroke_i	i	n/a
217.2095	0.299	434419	keystroke_o	o	n/a
217.3585	0.151	434717	keystroke_u	u	n/a
217.5235	0.195	435047	keystroke_s	s	n/a
217.6735	0.15	435347	keystroke_Key.space	Key.space	n/a
217.8685	0.12	435737	keystroke_w	w	n/a
217.9585	0.195	435917	keystroke_i	i	n/a
218.0335	0.165	436067	keystroke_n	n	n/a
218.2135	0.105	436427	keystroke_e	e	n/a
218.4085	0.105	436817	keystroke_s	s	n/a
218.6485	0.075	437297	keystroke_Key.enter	Key.enter	n/a
218.7285	11.4415	437457	prompt	n/a	mobility synopsis lauren chile\n
219.4585	0.105	438917	keystroke_m	m	n/a
219.5785	0.09	439157	keystroke_o	o	n/a
219.7885	0.075	439577	keystroke_n	n	n/a
219.8785	0.12	439757	keystroke_i	i	n/a
220.1335	0.075	440267	keystroke_l	l	n/a
220.2985	0.075	440597	keystroke_i	i	n/a
220.4935	0.06	440987	keystroke_t	t	n/a
220.7635	0.045	441527	keystroke_Key.backspace	Key.backspace	n/a
220.8985	0.06	441797	keystroke_Key.backspace	Key.backspace	n/a
221.0485	0.0605	442097	keystroke_Key.backspace	Key.backspace	n/a
221.184	0.09	442368	keystroke_Key.backspace	Key.backspace	n/a
221.334	0.075	442668	keystroke_Key.backspace	Key.backspace	n/a
221.604	0.075	443208	keystroke_b	b	n/a
221.829	0.06	443658	keystroke_i	i	n/a
222.039	0.0895	444078	keystroke_l	l	n/a
222.1885	0.09	444377	keystroke_i	i	n/a
222.3685	0.09	444737	keystroke_t	t	n/a
222.5185	0.09	445037	keystroke_y	y	n/a
223.3285	0.105	446657	keystroke_Key.space	Key.space	n/a
223.5235	0.12	447047	keystroke_s	s	n/a
223.6885	0.09	447377	keystroke_y	y	n/a
224.6185	0.15	449237	keystroke_n	n	n/a
224.7235	0.105	449447	keystroke_o	o	n/a
225.654	0.105	451308	keystroke_p	p	n/a
225.954	0.104	451908	keystroke_s	s	n/a
226.044	0.089	452088	keystroke_i	i	n/a
226.149	0.135	452298	keystroke_s	s	n/a
226.538	0.105	453076	keystroke_Key.space	Key.space	n/a
226.9885	0.105	453977	keystroke_l	l	n/a
227.138	0.15	454276	keystroke_a	a	n/a
227.348	0.12	454696	keystroke_u	u	n/a
227.8135	0.09	455627	keystroke_r	r	n/a
228.0235	0.105	456047	keystroke_e	e	n/a
228.1435	0.135	456287	keystroke_n	n	n/a
228.3685	0.09	456737	keystroke_Key.space	Key.space	n/a
228.6085	0.12	457217	keystroke_c	c	n/a
228.7435	0.135	457487	keystroke_h	h	n/a
228.8335	0.12	457667	keystroke_i	i	n/a
229.1635	0.075	458327	keystroke_l	l	n/a
229.3435	0.1045	458687	keystroke_e	e	n/a
230.079	0.09	460158	keystroke_Key.enter	Key.enter	n/a
230.1735	12.6865	460347	prompt	n/a	keen neighbor institutional suffered\n
231.1435	0.105	462287	keystroke_k	k	n/a
231.3685	0.06	462737	keystroke_e	e	n/a
231.5185	0.1195	463037	keystroke_e	e	n/a
231.939	0.105	463878	keystroke_n	n	n/a
232.209	0.1195	464418	keystroke_Key.space	Key.space	n/a
232.5835	0.09	465167	keystroke_n	n	n/a
232.944	0.15	465888	keystroke_e	e	n/a
233.244	0.12	466488	keystroke_i	i	n/a
233.6635	0.105	467327	keystroke_g	g	n/a
233.8285	0.105	467657	keystroke_h	h	n/a
234.084	0.06	468168	keystroke_p	p	n/a
235.163	0.12	470326	keystroke_Key.backspace	Key.backspace	n/a
235.329	0.135	470658	keystroke_b	b	n/a
235.479	0.03	470958	keystroke_p	p	n/a
236.1085	0.045	472217	keystroke_Key.backspace	Key.backspace	n/a
236.3485	0.09	472697	keystroke_o	o	n/a
236.4535	0.165	472907	keystroke_r	r	n/a
236.6485	0.105	473297	keystroke_Key.space	Key.space	n/a
236.7985	0.195	473597	keystroke_i	i	n/a
236.9035	0.105	473807	keystroke_n	n	n/a
237.0385	0.1205	474077	keystroke_s	s	n/a
237.264	0.105	474528	keystroke_i	i	n/a
237.699	0.075	475398	keystroke_Key.backspace	Key.backspace	n/a
237.984	0.09	475968	keystroke_t	t	n/a
238.0745	0.089	476149	keystroke_i	i	n/a
239.3785	0.045	478757	keystroke_t	t	n/a
239.4685	0.09	478937	keystroke_u	u	n/a
240.4135	0.165	480827	keystroke_t	t	n/a
240.5035	0.2255	481007	keystroke_i	i	n/a
240.6235	0.1505	481247	keystroke_o	o	n/a
240.639	0.149	481278	keystroke_n	n	n/a
240.804	0.12	481608	keystroke_a	a	n/a
240.908	0.105	481816	keystroke_l	l	n/a
241.073	0.135	482146	keystroke_Key.space	Key.space	n/a
241.4785	0.12	482957	keystroke_s	s	n/a
241.6135	0.105	483227	keystroke_u	u	n/a
241.8085	0.075	483617	keystroke_f	f	n/a
241.9735	0.09	483947	keystroke_f	f	n/a
242.1385	0.15	484277	keystroke_e	e	n/a
242.2285	0.135	484457	keystroke_r	r	n/a
242.3785	0.12	484757	keystroke_e	e	n/a
242.5585	0.15	485117	keystroke_d	d	n/a
242.7985	0.06	485597	keystroke_Key.enter	Key.enter	n/a
242.863	8.217	485726	prompt	n/a	potentially fraser exists overhead\n
243.5335	0.105	487067	keystroke_p	p	n/a
244.2385	0.12	488477	keystroke_o	o	n/a
244.794	0.1495	489588	keystroke_t	t	n/a
244.9135	0.15	489827	keystroke_e	e	n/a
245.0785	0.135	490157	keystroke_n	n	n/a
245.529	0.12	491058	keystroke_t	t	n/a
245.754	0.09	491508	keystroke_i	i	n/a
246.009	0.12	492018	keystroke_a	a	n/a
246.219	0.06	492438	keystroke_l	l	n/a
246.354	0.075	492708	keystroke_l	l	n/a
246.474	0.1345	492948	keystroke_y	y	n/a
246.5935	0.165	493187	keystroke_Key.space	Key.space	n/a
247.0435	0.09	494087	keystroke_g	g	n/a
247.2685	0.12	494537	keystroke_r	r	n/a
247.4485	0.12	494897	keystroke_a	a	n/a
247.7035	0.105	495407	keystroke_s	s	n/a
247.8835	0.18	495767	keystroke_e	e	n/a
248.0185	0.165	496037	keystroke_r	r	n/a
248.2285	0.15	496457	keystroke_Key.space	Key.space	n/a
248.3935	0.09	496787	keystroke_e	e	n/a
248.6185	0.12	497237	keystroke_x	x	n/a
248.7985	0.015	497597	keystroke_i	i	n/a
248.9485	0.1045	497897	keystroke_s	s	n/a
249.098	0.12	498196	keystroke_t	t	n/a
249.354	0.12	498708	keystroke_s	s	n/a
249.519	0.135	499038	keystroke_Key.space	Key.space	n/a
249.6985	0.1055	499397	keystroke_o	o	n/a
249.804	0.12	499608	keystroke_v	v	n/a
249.8935	0.1655	499787	keystroke_e	e	n/a
249.9835	0.1655	499967	keystroke_r	r	n/a
250.194	0.0895	500388	keystroke_h	h	n/a
250.3285	0.105	500657	keystroke_e	e	n/a
250.4785	0.105	500957	keystroke_a	a	n/a
250.7185	0.12	501437	keystroke_d	d	n/a
251.0035	0.075	502007	keystroke_Key.enter	Key.enter	n/a
251.0915	14.2835	502183	prompt	n/a	destinations reach wagner flag\n
252.009	0.0895	504018	keystroke_d	d	n/a
252.1885	0.09	504377	keystroke_e	e	n/a
252.4135	0.105	504827	keystroke_s	s	n/a
252.6535	0.105	505307	keystroke_t	t	n/a
253.0285	0.075	506057	keystroke_i	i	n/a
253.4035	0.045	506807	keystroke_n	n	n/a
253.5235	0.105	507047	keystroke_a	a	n/a
253.6585	0.105	507317	keystroke_t	t	n/a
253.8235	0.225	507647	keystroke_i	i	n/a
253.8835	0.15	507767	keystroke_o	o	n/a
253.9735	0.12	507947	keystroke_n	n	n/a
254.1385	0.09	508277	keystroke_s	s	n/a
254.2435	0.135	508487	keystroke_Key.space	Key.space	n/a
254.6035	0.165	509207	keystroke_r	r	n/a
254.7085	0.225	509417	keystroke_e	e	n/a
255.023	0.105	510046	keystroke_a	a	n/a
255.278	0.195	510556	keystroke_c	c	n/a
255.413	0.105	510826	keystroke_h	h	n/a
255.578	0.12	511156	keystroke_Key.space	Key.space	n/a
255.803	0.165	511606	keystroke_w	w	n/a
255.983	0.15	511966	keystroke_a	a	n/a
256.283	0.12	512566	keystroke_g	g	n/a
256.793	0.105	513586	keystroke_n	n	n/a
257.063	0.21	514126	keystroke_e	e	n/a
257.138	0.165	514276	keystroke_r	r	n/a
258.7585	0.105	517517	keystroke_Key.space	Key.space	n/a
258.9835	0.03	517967	keystroke_l	l	n/a
259.6435	0.06	519287	keystroke_Key.backspace	Key.backspace	n/a
259.7635	0.12	519527	keystroke_Key.backspace	Key.backspace	n/a
259.9285	0.15	519857	keystroke_f	f	n/a
260.0635	0.105	520127	keystroke_l	l	n/a
260.7685	0.045	521537	keystroke_Key.backspace	Key.backspace	n/a
260.8885	0.075	521777	keystroke_Key.backspace	Key.backspace	n/a
260.9935	0.12	521987	keystroke_Key.space	Key.space	n/a
261.2185	0.105	522437	keystroke_l	l	n/a
261.4135	0.12	522827	keystroke_a	a	n/a
261.909	0.12	523818	keystroke_f	f	n/a
262.4035	0.09	524807	keystroke_Key.backspace	Key.backspace	n/a
262.5835	0.03	525167	keystroke_Key.backspace	Key.backspace	n/a
262.6885	0.075	525377	keystroke_Key.backspace	Key.backspace	n/a
263.273	0.0905	526546	keystroke_g	g	n/a
263.708	0.075	527416	keystroke_Key.backspace	Key.backspace	n/a
263.888	0.105	527776	keystroke_f	f	n/a
264.054	0.075	528108	keystroke_l	l	n/a
264.249	0.0895	528498	keystroke_a	a	n/a
264.518	0.075	529036	keystroke_g	g	n/a
265.2985	0.075	530597	keystroke_Key.enter	Key.enter	n/a
265.378	11.967	530756	prompt	n/a	injuries kenny if resistant\n
266.049	0.135	532098	keystroke_i	i	n/a
266.139	0.15	532278	keystroke_n	n	n/a
266.634	0.12	533268	keystroke_u	u	n/a
267.4735	0.075	534947	keystroke_Key.backspace	Key.backspace	n/a
267.9385	0.09	535877	keystroke_j	j	n/a
268.1185	0.075	536237	keystroke_u	u	n/a
268.524	0.12	537048	keystroke_r	r	n/a
268.794	0.165	537588	keystroke_i	i	n/a
269.169	0.15	538338	keystroke_e	e	n/a
269.364	0.165	538728	keystroke_s	s	n/a
269.514	0.15	539028	keystroke_Key.space	Key.space	n/a
269.9185	0.105	539837	keystroke_k	k	n/a
270.114	0.09	540228	keystroke_e	e	n/a
270.278	0.076	540556	keystroke_n	n	n/a
270.414	0.09	540828	keystroke_n	n	n/a
270.639	0.06	541278	keystroke_u	u	n/a
270.654	0.03	541308	keystroke_y	y	n/a
270.759	0.119	541518	keystroke_Key.space	Key.space	n/a
270.969	0.105	541938	keystroke_i	i	n/a
271.104	0.1345	542208	keystroke_f	f	n/a
271.2235	0.12	542447	keystroke_Key.space	Key.space	n/a
271.8535	0.045	543707	keystroke_Key.backspace	Key.backspace	n/a
271.9885	0.06	543977	keystroke_Key.backspace	Key.backspace	n/a
272.1685	0.03	544337	keystroke_Key.backspace	Key.backspace	n/a
272.3485	0.075	544697	keystroke_Key.backspace	Key.backspace	n/a
272.6635	0.06	545327	keystroke_Key.backspace	Key.backspace	n/a
272.9635	0.045	545927	keystroke_Key.backspace	Key.backspace	n/a
273.458	0.09	546916	keystroke_y	y	n/a
273.593	0.135	547186	keystroke_Key.space	Key.space	n/a
273.849	0.105	547698	keystroke_i	i	n/a
273.984	0.135	547968	keystroke_f	f	n/a
274.104	0.15	548208	keystroke_Key.space	Key.space	n/a
274.659	0.15	549318	keystroke_r	r	n/a
274.734	0.135	549468	keystroke_e	e	n/a
275.004	0.0905	550008	keystroke_s	s	n/a
275.109	0.075	550218	keystroke_i	i	n/a
275.214	0.105	550428	keystroke_s	s	n/a
275.409	0.105	550818	keystroke_t	t	n/a
275.9185	0.045	551837	keystroke_n	n	n/a
276.5635	0.075	553127	keystroke_Key.backspace	Key.backspace	n/a
276.6685	0.105	553337	keystroke_a	a	n/a
276.8335	0.09	553667	keystroke_n	n	n/a
276.9835	0.105	553967	keystroke_t	t	n/a
277.2835	0.06	554567	keystroke_Key.enter	Key.enter	n/a
277.348	7.6325	554696	prompt	n/a	heading painting desirable picnic\n
278.229	0.12	556458	keystroke_h	h	n/a
278.364	0.105	556728	keystroke_e	e	n/a
278.469	0.165	556938	keystroke_a	a	n/a
278.619	0.15	557238	keystroke_d	d	n/a
278.799	0.195	557598	keystroke_i	i	n/a
278.874	0.18	557748	keystroke_n	n	n/a
279.009	0.165	558018	keystroke_g	g	n/a
279.114	0.135	558228	keystroke_Key.space	Key.space	n/a
279.3985	0.12	558797	keystroke_p	p	n/a
279.8785	0.12	559757	keystroke_a	a	n/a
280.1635	0.165	560327	keystroke_i	i	n/a
280.2685	0.135	560537	keystroke_n	n	n/a
280.4335	0.105	560867	keystroke_t	t	n/a
280.5685	0.225	561137	keystroke_i	i	n/a
280.6585	0.165	561317	keystroke_n	n	n/a
280.8085	0.105	561617	keystroke_g	g	n/a
280.8985	0.105	561797	keystroke_Key.space	Key.space	n/a
281.0785	0.105	562157	keystroke_d	d	n/a
281.2735	0.09	562547	keystroke_e	e	n/a
281.5135	0.12	563027	keystroke_s	s	n/a
281.6635	0.12	563327	keystroke_i	i	n/a
282.1135	0.105	564227	keystroke_r	r	n/a
282.3535	0.075	564707	keystroke_a	a	n/a
282.6535	0.12	565307	keystroke_b	b	n/a
282.8935	0.105	565787	keystroke_l	l	n/a
283.0285	0.12	566057	keystroke_e	e	n/a
283.1335	0.135	566267	keystroke_Key.space	Key.space	n/a
283.464	0.06	566928	keystroke_p	p	n/a
283.644	0.105	567288	keystroke_i	i	n/a
283.839	0.12	567678	keystroke_c	c	n/a
284.184	0.075	568368	keystroke_n	n	n/a
284.349	0.09	568698	keystroke_i	i	n/a
284.544	0.135	569088	keystroke_c	c	n/a
284.904	0.075	569808	keystroke_Key.enter	Key.enter	n/a
284.9835	8.2615	569967	prompt	n/a	smart indians smoke links\n
285.7885	0.0305	571577	keystroke_s	s	n/a
286.134	0.105	572268	keystroke_m	m	n/a
286.299	0.12	572598	keystroke_a	a	n/a
286.464	0.12	572928	keystroke_r	r	n/a
286.689	0.12	573378	keystroke_t	t	n/a
286.854	0.135	573708	keystroke_Key.space	Key.space	n/a
287.034	0.15	574068	keystroke_i	i	n/a
287.139	0.18	574278	keystroke_n	n	n/a
287.439	0.105	574878	keystroke_d	d	n/a
287.604	0.09	575208	keystroke_i	i	n/a
287.919	0.09	575838	keystroke_a	a	n/a
288.159	0.105	576318	keystroke_n	n	n/a
288.354	0.12	576708	keystroke_s	s	n/a
288.564	0.105	577128	keystroke_Key.space	Key.space	n/a
288.789	0.12	577578	keystroke_s	s	n/a
289.164	0.075	578328	keystroke_n	n	n/a
289.359	0.0895	578718	keystroke_o	o	n/a
289.9735	0.0905	579947	keystroke_Key.backspace	Key.backspace	n/a
290.138	0.076	580276	keystroke_Key.backspace	Key.backspace	n/a
290.394	0.09	580788	keystroke_m	m	n/a
290.574	0.09	581148	keystroke_o	o	n/a
290.829	0.075	581658	keystroke_k	k	n/a
291.0535	0.135	582107	keystroke_e	e	n/a
291.3685	0.12	582737	keystroke_Key.space	Key.space	n/a
291.594	0.12	583188	keystroke_i	i	n/a
292.0435	0.06	584087	keystroke_Key.backspace	Key.backspace	n/a
292.2835	0.18	584567	keystroke_l	l	n/a
292.4485	0.09	584897	keystroke_i	i	n/a
292.5835	0.18	585167	keystroke_n	n	n/a
292.7335	0.105	585467	keystroke_k	k	n/a
292.8535	0.12	585707	keystroke_s	s	n/a
293.1685	0.075	586337	keystroke_Key.enter	Key.enter	n/a
293.251	11.259	586502	prompt	n/a	ceremony chip compound discover\n
294.009	0.0895	588018	keystroke_e	e	n/a
294.5935	0.135	589187	keystroke_v	v	n/a
295.238	0.06	590476	keystroke_Key.backspace	Key.backspace	n/a
295.388	0.12	590776	keystroke_Key.backspace	Key.backspace	n/a
295.434	0.149	590868	keystroke_c	c	n/a
295.568	0.15	591136	keystroke_e	e	n/a
295.854	0.12	591708	keystroke_r	r	n/a
295.959	0.1345	591918	keystroke_e	e	n/a
296.5285	0.12	593057	keystroke_m	m	n/a
296.6935	0.075	593387	keystroke_o	o	n/a
296.8285	0.12	593657	keystroke_n	n	n/a
297.0835	0.09	594167	keystroke_y	y	n/a
297.2185	0.12	594437	keystroke_Key.space	Key.space	n/a
297.4435	0.105	594887	keystroke_c	c	n/a
297.5035	0.09	595007	keystroke_h	h	n/a
297.7585	0.09	595517	keystroke_o	o	n/a
298.0135	0.0755	596027	keystroke_p	p	n/a
298.644	0.075	597288	keystroke_Key.backspace	Key.backspace	n/a
298.734	0.075	597468	keystroke_Key.backspace	Key.backspace	n/a
299.469	0.045	598938	keystroke_i	i	n/a
299.619	0.105	599238	keystroke_p	p	n/a
299.784	0.135	599568	keystroke_Key.space	Key.space	n/a
300.0985	0.12	600197	keystroke_c	c	n/a
300.1885	0.105	600377	keystroke_o	o	n/a
300.3985	0.105	600797	keystroke_m	m	n/a
300.5935	0.2995	601187	keystroke_p	p	n/a
300.803	0.075	601606	keystroke_i	i	n/a
301.388	0.06	602776	keystroke_Key.backspace	Key.backspace	n/a
301.763	0.09	603526	keystroke_o	o	n/a
301.958	0.09	603916	keystroke_u	u	n/a
302.213	0.09	604426	keystroke_n	n	n/a
302.559	0.18	605118	keystroke_d	d	n/a
302.769	0.18	605538	keystroke_Key.space	Key.space	n/a
303.114	0.135	606228	keystroke_d	d	n/a
303.294	0.045	606588	keystroke_i	i	n/a
303.399	0.105	606798	keystroke_s	s	n/a
303.609	0.15	607218	keystroke_c	c	n/a
303.819	0.105	607638	keystroke_o	o	n/a
303.954	0.165	607908	keystroke_v	v	n/a
304.089	0.18	608178	keystroke_e	e	n/a
304.179	0.15	608358	keystroke_r	r	n/a
304.434	0.075	608868	keystroke_Key.enter	Key.enter	n/a
304.513	6.1775	609026	prompt	n/a	diving refer board housewares\n
305.1535	0.12	610307	keystroke_d	d	n/a
305.3335	0.105	610667	keystroke_i	i	n/a
305.5135	0.135	611027	keystroke_v	v	n/a
305.6785	0.165	611357	keystroke_i	i	n/a
305.7685	0.15	611537	keystroke_n	n	n/a
305.8445	0.179	611689	keystroke_g	g	n/a
306.0385	0.105	612077	keystroke_Key.space	Key.space	n/a
306.2485	0.135	612497	keystroke_r	r	n/a
306.3385	0.1055	612677	keystroke_e	e	n/a
306.519	0.1345	613038	keystroke_f	f	n/a
306.6685	0.195	613337	keystroke_e	e	n/a
306.8185	0.09	613637	keystroke_r	r	n/a
306.8935	0.1505	613787	keystroke_Key.space	Key.space	n/a
307.149	0.12	614298	keystroke_b	b	n/a
307.254	0.075	614508	keystroke_o	o	n/a
307.644	0.135	615288	keystroke_a	a	n/a
307.824	0.09	615648	keystroke_r	r	n/a
308.049	0.135	616098	keystroke_d	d	n/a
308.168	0.135	616336	keystroke_Key.space	Key.space	n/a
308.424	0.105	616848	keystroke_h	h	n/a
308.529	0.2395	617058	keystroke_o	o	n/a
308.618	0.1205	617236	keystroke_u	u	n/a
308.7535	0.15	617507	keystroke_s	s	n/a
308.8735	0.12	617747	keystroke_e	e	n/a
309.414	0.15	618828	keystroke_w	w	n/a
309.564	0.21	619128	keystroke_a	a	n/a
309.939	0.135	619878	keystroke_r	r	n/a
310.044	0.165	620088	keystroke_e	e	n/a
310.224	0.225	620448	keystroke_s	s	n/a
310.614	0.075	621228	keystroke_Key.enter	Key.enter	n/a
310.6935	6.8365	621387	prompt	n/a	upgrade argue varied prot\n
311.499	0.06	622998	keystroke_u	u	n/a
311.709	0.075	623418	keystroke_p	p	n/a
312.204	0.105	624408	keystroke_g	g	n/a
312.384	0.12	624768	keystroke_r	r	n/a
312.564	0.105	625128	keystroke_a	a	n/a
312.759	0.12	625518	keystroke_d	d	n/a
312.984	0.09	625968	keystroke_e	e	n/a
313.119	0.1645	626238	keystroke_s	s	n/a
313.2685	0.1355	626537	keystroke_Key.space	Key.space	n/a
313.479	0.135	626958	keystroke_a	a	n/a
313.674	0.12	627348	keystroke_r	r	n/a
313.914	0.09	627828	keystroke_g	g	n/a
314.154	0.075	628308	keystroke_u	u	n/a
314.469	0.135	628938	keystroke_e	e	n/a
314.679	0.135	629358	keystroke_Key.space	Key.space	n/a
315.009	0.1645	630018	keystroke_v	v	n/a
315.1585	0.09	630317	keystroke_a	a	n/a
315.2785	0.15	630557	keystroke_r	r	n/a
315.5035	0.075	631007	keystroke_i	i	n/a
316.044	0.06	632088	keystroke_e	e	n/a
316.2235	0.15	632447	keystroke_d	d	n/a
316.3885	0.135	632777	keystroke_Key.space	Key.space	n/a
316.6735	0.105	633347	keystroke_p	p	n/a
316.8685	0.135	633737	keystroke_r	r	n/a
317.019	0.09	634038	keystroke_o	o	n/a
317.214	0.09	634428	keystroke_t	t	n/a
317.4685	0.06	634937	keystroke_Key.enter	Key.enter	n/a
317.533	5.592	635066	prompt	n/a	rule aids timer mapping\n
318.324	0.12	636648	keystroke_r	r	n/a
318.564	0.06	637128	keystroke_u	u	n/a
318.804	0.0895	637608	keystroke_l	l	n/a
319.0135	0.1655	638027	keystroke_e	e	n/a
319.164	0.165	638328	keystroke_Key.space	Key.space	n/a
319.794	0.09	639588	keystroke_a	a	n/a
320.1685	0.0905	640337	keystroke_i	i	n/a
320.439	0.09	640878	keystroke_d	d	n/a
320.649	0.09	641298	keystroke_s	s	n/a
320.844	0.12	641688	keystroke_Key.space	Key.space	n/a
321.099	0.105	642198	keystroke_t	t	n/a
321.218	0.076	642436	keystroke_i	i	n/a
321.413	0.091	642826	keystroke_m	m	n/a
321.549	0.195	643098	keystroke_e	e	n/a
321.669	0.1495	643338	keystroke_r	r	n/a
321.804	0.12	643608	keystroke_Key.space	Key.space	n/a
322.044	0.075	644088	keystroke_m	m	n/a
322.179	0.105	644358	keystroke_a	a	n/a
322.329	0.06	644658	keystroke_p	p	n/a
322.479	0.075	644958	keystroke_p	p	n/a
322.674	0.195	645348	keystroke_i	i	n/a
322.779	0.135	645558	keystroke_n	n	n/a
322.899	0.0895	645798	keystroke_g	g	n/a
323.079	0.045	646158	keystroke_Key.enter	Key.enter	n/a
323.129	18.4915	646258	prompt	n/a	possibilities occurrence repair rely\n
323.8735	0.075	647747	keystroke_p	p	n/a
324.069	0.104	648138	keystroke_o	o	n/a
324.354	0.06	648708	keystroke_s	s	n/a
324.474	0.12	648948	keystroke_s	s	n/a
324.623	0.0905	649246	keystroke_i	i	n/a
324.924	0.09	649848	keystroke_b	b	n/a
325.029	0.09	650058	keystroke_i	i	n/a
325.239	0.09	650478	keystroke_l	l	n/a
325.419	0.075	650838	keystroke_i	i	n/a
325.569	0.135	651138	keystroke_t	t	n/a
325.764	0.06	651528	keystroke_u	u	n/a
326.2735	0.075	652547	keystroke_Key.backspace	Key.backspace	n/a
326.5135	0.09	653027	keystroke_i	i	n/a
326.6485	0.18	653297	keystroke_e	e	n/a
326.7385	0.21	653477	keystroke_s	s	n/a
326.9635	0.165	653927	keystroke_Key.space	Key.space	n/a
327.4135	0.1345	654827	keystroke_c	c	n/a
327.608	0.045	655216	keystroke_o	o	n/a
328.2985	0.03	656597	keystroke_Key.backspace	Key.backspace	n/a
328.419	0.075	656838	keystroke_Key.backspace	Key.backspace	n/a
328.779	0.075	657558	keystroke_o	o	n/a
328.959	0.075	657918	keystroke_c	c	n/a
329.109	0.12	658218	keystroke_c	c	n/a
329.289	0.12	658578	keystroke_u	u	n/a
329.484	0.135	658968	keystroke_r	r	n/a
330.189	0.06	660378	keystroke_r	r	n/a
331.0435	0.0755	662087	keystroke_Key.backspace	Key.backspace	n/a
331.179	0.12	662358	keystroke_e	e	n/a
331.329	0.135	662658	keystroke_n	n	n/a
331.944	0.21	663888	keystroke_c	c	n/a
332.064	0.1945	664128	keystroke_e	e	n/a
332.214	0.1495	664428	keystroke_Key.space	Key.space	n/a
333.6085	0.09	667217	keystroke_Key.backspace	Key.backspace	n/a
333.7885	0.06	667577	keystroke_Key.backspace	Key.backspace	n/a
333.9385	0.06	667877	keystroke_Key.backspace	Key.backspace	n/a
334.2685	0.06	668537	keystroke_Key.backspace	Key.backspace	n/a
334.5685	0.075	669137	keystroke_Key.backspace	Key.backspace	n/a
336.189	0.06	672378	keystroke_r	r	n/a
336.519	0.105	673038	keystroke_e	e	n/a
336.639	0.1045	673278	keystroke_n	n	n/a
336.9685	0.1505	673937	keystroke_e	e	n/a
337.1035	0.165	674207	keystroke_Key.space	Key.space	n/a
337.8535	0.15	675707	keystroke_r	r	n/a
337.9435	0.136	675887	keystroke_e	e	n/a
338.1535	0.105	676307	keystroke_p	p	n/a
338.3185	0.12	676637	keystroke_a	a	n/a
338.4685	0.225	676937	keystroke_i	i	n/a
338.9495	0.164	677899	keystroke_r	r	n/a
340.299	0.165	680598	keystroke_Key.space	Key.space	n/a
340.704	0.135	681408	keystroke_r	r	n/a
340.794	0.15	681588	keystroke_e	e	n/a
341.004	0.09	682008	keystroke_l	l	n/a
341.244	0.12	682488	keystroke_y	y	n/a
341.544	0.075	683088	keystroke_Key.enter	Key.enter	n/a
341.6245	7.7955	683249	prompt	n/a	tend damaged cope substance\n
342.309	0.15	684618	keystroke_t	t	n/a
342.474	0.105	684948	keystroke_e	e	n/a
342.5935	0.12	685187	keystroke_n	n	n/a
342.7585	0.15	685517	keystroke_d	d	n/a
342.8785	0.135	685757	keystroke_Key.space	Key.space	n/a
343.1185	0.135	686237	keystroke_d	d	n/a
343.3135	0.165	686627	keystroke_a	a	n/a
343.6585	0.105	687317	keystroke_a	a	n/a
343.8985	0.12	687797	keystroke_g	g	n/a
344.3185	0.06	688637	keystroke_Key.backspace	Key.backspace	n/a
344.4535	0.09	688907	keystroke_Key.backspace	Key.backspace	n/a
344.754	0.0895	689508	keystroke_m	m	n/a
344.889	0.105	689778	keystroke_a	a	n/a
345.099	0.15	690198	keystroke_g	g	n/a
345.279	0.105	690558	keystroke_e	e	n/a
345.504	0.165	691008	keystroke_d	d	n/a
345.9535	0.12	691907	keystroke_Key.space	Key.space	n/a
346.1485	0.135	692297	keystroke_c	c	n/a
346.2685	0.105	692537	keystroke_o	o	n/a
346.4485	0.12	692897	keystroke_p	p	n/a
346.5985	0.135	693197	keystroke_e	e	n/a
346.6885	0.15	693377	keystroke_Key.space	Key.space	n/a
346.8835	0.135	693767	keystroke_s	s	n/a
346.9735	0.105	693947	keystroke_u	u	n/a
347.2135	0.075	694427	keystroke_b	b	n/a
348.1435	0.12	696287	keystroke_s	s	n/a
348.5185	0.135	697037	keystroke_t	t	n/a
348.6985	0.135	697397	keystroke_a	a	n/a
348.8635	0.105	697727	keystroke_n	n	n/a
349.0585	0.12	698117	keystroke_c	c	n/a
349.1485	0.135	698297	keystroke_e	e	n/a
349.3885	0.03	698777	keystroke_Key.enter	Key.enter	n/a
349.423	10.5875	698846	prompt	n/a	peterson safer transferred hobby\n
350.154	0.1195	700308	keystroke_p	p	n/a
350.3035	0.15	700607	keystroke_e	e	n/a
350.5595	0.15	701119	keystroke_t	t	n/a
350.6935	0.166	701387	keystroke_e	e	n/a
350.7995	0.12	701599	keystroke_r	r	n/a
351.0385	0.135	702077	keystroke_s	s	n/a
351.1285	0.21	702257	keystroke_o	o	n/a
351.2495	0.135	702499	keystroke_n	n	n/a
351.3985	0.105	702797	keystroke_Key.space	Key.space	n/a
351.624	0.105	703248	keystroke_a	a	n/a
352.074	0.045	704148	keystroke_Key.backspace	Key.backspace	n/a
352.134	0.105	704268	keystroke_s	s	n/a
352.479	0.195	704958	keystroke_a	a	n/a
352.779	0.12	705558	keystroke_f	f	n/a
353.139	0.195	706278	keystroke_e	e	n/a
353.274	0.165	706548	keystroke_r	r	n/a
353.409	0.165	706818	keystroke_Key.space	Key.space	n/a
354.3385	0.105	708677	keystroke_t	t	n/a
354.4885	0.195	708977	keystroke_r	r	n/a
354.954	0.1345	709908	keystroke_a	a	n/a
355.1185	0.12	710237	keystroke_n	n	n/a
355.3285	0.12	710657	keystroke_s	s	n/a
355.5985	0.12	711197	keystroke_f	f	n/a
356.439	0.165	712878	keystroke_e	e	n/a
356.619	0.15	713238	keystroke_r	r	n/a
356.889	0.12	713778	keystroke_r	r	n/a
357.084	0.105	714168	keystroke_e	e	n/a
357.279	0.15	714558	keystroke_d	d	n/a
357.444	0.15	714888	keystroke_Key.space	Key.space	n/a
357.819	0.105	715638	keystroke_h	h	n/a
357.969	0.105	715938	keystroke_o	o	n/a
358.239	0.06	716478	keystroke_l	l	n/a
358.599	0.06	717198	keystroke_Key.backspace	Key.backspace	n/a
358.809	0.165	717618	keystroke_b	b	n/a
359.124	0.045	718248	keystroke_b	b	n/a
359.469	0.075	718938	keystroke_y	y	n/a
359.934	0.075	719868	keystroke_Key.enter	Key.enter	n/a
360.014	13.2865	720028	prompt	n/a	probability ipod trace consultants\n
360.624	0.12	721248	keystroke_p	p	n/a
360.999	0.105	721998	keystroke_r	r	n/a
361.149	0.12	722298	keystroke_o	o	n/a
361.4795	0.09	722959	keystroke_b	b	n/a
361.6445	0.134	723289	keystroke_a	a	n/a
362.0495	0.09	724099	keystroke_l	l	n/a
362.2445	0.09	724489	keystroke_i	i	n/a
362.4845	0.105	724969	keystroke_t	t	n/a
362.6345	0.06	725269	keystroke_u	u	n/a
363.1885	0.06	726377	keystroke_Key.backspace	Key.backspace	n/a
363.3235	0.075	726647	keystroke_Key.backspace	Key.backspace	n/a
364.944	0.105	729888	keystroke_Key.backspace	Key.backspace	n/a
365.484	0.075	730968	keystroke_Key.backspace	Key.backspace	n/a
366.084	0.105	732168	keystroke_b	b	n/a
366.249	0.045	732498	keystroke_i	i	n/a
366.399	0.09	732798	keystroke_l	l	n/a
366.594	0.075	733188	keystroke_i	i	n/a
366.744	0.0895	733488	keystroke_t	t	n/a
366.9235	0.09	733847	keystroke_y	y	n/a
367.4185	0.12	734837	keystroke_Key.space	Key.space	n/a
367.6585	0.06	735317	keystroke_i	i	n/a
367.8385	0.0905	735677	keystroke_p	p	n/a
368.079	0.075	736158	keystroke_o	o	n/a
368.304	0.165	736608	keystroke_d	d	n/a
368.514	0.135	737028	keystroke_Key.space	Key.space	n/a
368.9485	0.105	737897	keystroke_t	t	n/a
369.0985	0.15	738197	keystroke_r	r	n/a
369.2335	0.1505	738467	keystroke_a	a	n/a
369.429	0.12	738858	keystroke_c	c	n/a
369.504	0.18	739008	keystroke_e	e	n/a
369.654	0.15	739308	keystroke_Key.space	Key.space	n/a
370.089	0.12	740178	keystroke_c	c	n/a
370.194	0.18	740388	keystroke_o	o	n/a
370.284	0.135	740568	keystroke_n	n	n/a
370.509	0.135	741018	keystroke_s	s	n/a
370.659	0.09	741318	keystroke_u	u	n/a
370.899	0.105	741798	keystroke_l	l	n/a
372.339	0.135	744678	keystroke_t	t	n/a
372.489	0.135	744978	keystroke_a	a	n/a
372.639	0.15	745278	keystroke_n	n	n/a
372.774	0.12	745548	keystroke_t	t	n/a
372.939	0.1655	745878	keystroke_s	s	n/a
373.2545	0.045	746509	keystroke_Key.enter	Key.enter	n/a
373.3035	10.152	746607	prompt	n/a	necessarily percent involves adsl\n
374.019	0.105	748038	keystroke_n	n	n/a
374.139	0.105	748278	keystroke_e	e	n/a
374.3945	0.105	748789	keystroke_c	c	n/a
374.619	0.12	749238	keystroke_e	e	n/a
374.859	0.075	749718	keystroke_s	s	n/a
375.054	0.06	750108	keystroke_s	s	n/a
375.174	0.105	750348	keystroke_a	a	n/a
375.369	0.105	750738	keystroke_r	r	n/a
375.684	0.075	751368	keystroke_u	u	n/a
376.284	0.075	752568	keystroke_Key.backspace	Key.backspace	n/a
376.704	0.06	753408	keystroke_i	i	n/a
376.884	0.075	753768	keystroke_l	l	n/a
377.154	0.075	754308	keystroke_y	y	n/a
377.5435	0.15	755087	keystroke_Key.space	Key.space	n/a
377.8885	0.09	755777	keystroke_p	p	n/a
378.1435	0.195	756287	keystroke_e	e	n/a
378.2935	0.12	756587	keystroke_r	r	n/a
378.6685	0.151	757337	keystroke_c	c	n/a
378.8195	0.1345	757639	keystroke_e	e	n/a
378.924	0.15	757848	keystroke_n	n	n/a
379.059	0.135	758118	keystroke_t	t	n/a
379.179	0.12	758358	keystroke_Key.space	Key.space	n/a
379.359	0.165	758718	keystroke_i	i	n/a
379.434	0.135	758868	keystroke_n	n	n/a
380.4245	0.105	760849	keystroke_v	v	n/a
380.5595	0.075	761119	keystroke_o	o	n/a
380.7995	0.089	761599	keystroke_l	l	n/a
381.1295	0.12	762259	keystroke_v	v	n/a
381.3245	0.075	762649	keystroke_e	e	n/a
381.5345	0.135	763069	keystroke_d	d	n/a
381.6845	0.134	763369	keystroke_Key.space	Key.space	n/a
381.9395	0.09	763879	keystroke_a	a	n/a
382.1045	0.135	764209	keystroke_d	d	n/a
382.884	0.12	765768	keystroke_s	s	n/a
383.0495	0.09	766099	keystroke_l	l	n/a
383.4095	0.044	766819	keystroke_Key.enter	Key.enter	n/a
383.4585	12.882	766917	prompt	n/a	frequent additional photos exhibition\n
384.204	0.135	768408	keystroke_f	f	n/a
384.414	0.12	768828	keystroke_r	r	n/a
384.684	0.12	769368	keystroke_e	e	n/a
385.104	0.105	770208	keystroke_q	q	n/a
385.239	0.105	770478	keystroke_u	u	n/a
385.419	0.3295	770838	keystroke_e	e	n/a
385.569	0.1805	771138	keystroke_s	s	n/a
385.7185	0.18	771437	keystroke_t	t	n/a
386.2585	0.15	772517	keystroke_Key.space	Key.space	n/a
386.7685	0.105	773537	keystroke_a	a	n/a
386.9935	0.06	773987	keystroke_d	d	n/a
387.1435	0.105	774287	keystroke_d	d	n/a
387.6085	0.045	775217	keystroke_Key.backspace	Key.backspace	n/a
387.7435	0.075	775487	keystroke_Key.backspace	Key.backspace	n/a
387.9085	0.045	775817	keystroke_Key.backspace	Key.backspace	n/a
388.0585	0.045	776117	keystroke_Key.backspace	Key.backspace	n/a
388.1935	0.075	776387	keystroke_Key.backspace	Key.backspace	n/a
388.869	0.105	777738	keystroke_Key.backspace	Key.backspace	n/a
389.199	0.09	778398	keystroke_n	n	n/a
389.439	0.165	778878	keystroke_t	t	n/a
389.619	0.165	779238	keystroke_Key.space	Key.space	n/a
390.189	0.105	780378	keystroke_a	a	n/a
390.399	0.09	780798	keystroke_d	d	n/a
390.564	0.105	781128	keystroke_d	d	n/a
390.684	0.075	781368	keystroke_i	i	n/a
391.134	0.1195	782268	keystroke_t	t	n/a
391.3435	0.255	782687	keystroke_i	i	n/a
391.4335	0.15	782867	keystroke_o	o	n/a
391.6285	0.12	783257	keystroke_a	a	n/a
392.1685	0.075	784337	keystroke_Key.backspace	Key.backspace	n/a
392.469	0.03	784938	keystroke_n	n	n/a
392.574	0.12	785148	keystroke_a	a	n/a
392.769	0.09	785538	keystroke_l	l	n/a
393.054	0.15	786108	keystroke_Key.space	Key.space	n/a
393.459	0.075	786918	keystroke_p	p	n/a
393.654	0.09	787308	keystroke_h	h	n/a
393.759	0.105	787518	keystroke_o	o	n/a
393.939	0.105	787878	keystroke_t	t	n/a
394.119	0.09	788238	keystroke_o	o	n/a
394.359	0.15	788718	keystroke_s	s	n/a
394.554	0.12	789108	keystroke_Key.space	Key.space	n/a
394.794	0.105	789588	keystroke_e	e	n/a
395.0335	0.121	790067	keystroke_x	x	n/a
395.1835	0.105	790367	keystroke_h	h	n/a
395.3035	0.09	790607	keystroke_i	i	n/a
395.4235	0.12	790847	keystroke_b	b	n/a
395.5735	0.09	791147	keystroke_i	i	n/a
395.7535	0.106	791507	keystroke_t	t	n/a
395.8745	0.209	791749	keystroke_i	i	n/a
395.9795	0.105	791959	keystroke_o	o	n/a
396.0235	0.135	792047	keystroke_n	n	n/a
396.2635	0.075	792527	keystroke_Key.enter	Key.enter	n/a
396.345	11.996	792690	prompt	n/a	meditation systematic wish inbox\n
397.044	0.075	794088	keystroke_m	m	n/a
397.209	0.0755	794418	keystroke_e	e	n/a
397.4195	0.105	794839	keystroke_d	d	n/a
397.5695	0.075	795139	keystroke_i	i	n/a
397.8395	0.1045	795679	keystroke_a	a	n/a
398.649	0.06	797298	keystroke_Key.backspace	Key.backspace	n/a
398.934	0.06	797868	keystroke_i	i	n/a
399.3835	0.091	798767	keystroke_Key.backspace	Key.backspace	n/a
399.6395	0.15	799279	keystroke_t	t	n/a
399.7745	0.135	799549	keystroke_a	a	n/a
399.9095	0.104	799819	keystroke_t	t	n/a
400.0595	0.255	800119	keystroke_i	i	n/a
400.1645	0.135	800329	keystroke_o	o	n/a
400.2095	0.18	800419	keystroke_n	n	n/a
400.4495	0.149	800899	keystroke_Key.space	Key.space	n/a
400.959	0.105	801918	keystroke_s	s	n/a
401.184	0.12	802368	keystroke_s	s	n/a
401.679	0.105	803358	keystroke_Key.backspace	Key.backspace	n/a
401.994	0.105	803988	keystroke_y	y	n/a
402.084	0.12	804168	keystroke_s	s	n/a
402.354	0.135	804708	keystroke_t	t	n/a
402.444	0.18	804888	keystroke_e	e	n/a
402.564	0.1045	805128	keystroke_m	m	n/a
402.954	0.1045	805908	keystroke_a	a	n/a
403.1935	0.105	806387	keystroke_t	t	n/a
403.314	0.1045	806628	keystroke_i	i	n/a
403.4935	0.15	806987	keystroke_c	c	n/a
403.674	0.1195	807348	keystroke_Key.space	Key.space	n/a
403.9585	0.12	807917	keystroke_w	w	n/a
404.1085	0.135	808217	keystroke_h	h	n/a
404.1985	0.12	808397	keystroke_i	i	n/a
404.9635	0.0755	809927	keystroke_Key.backspace	Key.backspace	n/a
405.3545	0.075	810709	keystroke_Key.backspace	Key.backspace	n/a
405.6545	0.0895	811309	keystroke_i	i	n/a
405.7895	0.1345	811579	keystroke_s	s	n/a
406.029	0.075	812058	keystroke_h	h	n/a
406.269	0.135	812538	keystroke_Key.space	Key.space	n/a
406.779	0.1205	813558	keystroke_i	i	n/a
406.809	0.1955	813618	keystroke_n	n	n/a
407.5885	0.075	815177	keystroke_b	b	n/a
407.7085	0.075	815417	keystroke_o	o	n/a
407.9935	0.105	815987	keystroke_x	x	n/a
408.2785	0.06	816557	keystroke_Key.enter	Key.enter	n/a
408.3445	9.611	816689	prompt	n/a	dryer prison clarity strictly\n
409.1035	0.09	818207	keystroke_d	d	n/a
409.3135	0.09	818627	keystroke_r	r	n/a
409.8085	0.06	819617	keystroke_y	y	n/a
410.0185	0.2555	820037	keystroke_e	e	n/a
410.184	0.135	820368	keystroke_r	r	n/a
410.334	0.12	820668	keystroke_Key.space	Key.space	n/a
410.499	0.12	820998	keystroke_p	p	n/a
410.634	0.165	821268	keystroke_r	r	n/a
410.904	0.06	821808	keystroke_o	o	n/a
411.129	0.12	822258	keystroke_s	s	n/a
411.714	0.045	823428	keystroke_Key.backspace	Key.backspace	n/a
411.834	0.09	823668	keystroke_Key.backspace	Key.backspace	n/a
412.0895	0.09	824179	keystroke_i	i	n/a
412.2995	0.12	824599	keystroke_s	s	n/a
412.4645	0.165	824929	keystroke_o	o	n/a
412.5695	0.165	825139	keystroke_n	n	n/a
412.7645	0.12	825529	keystroke_Key.space	Key.space	n/a
413.2145	0.12	826429	keystroke_c	c	n/a
413.3045	0.1045	826609	keystroke_h	h	n/a
413.874	0.135	827748	keystroke_a	a	n/a
414.024	0.15	828048	keystroke_r	r	n/a
414.234	0.1195	828468	keystroke_u	u	n/a
414.7585	0.075	829517	keystroke_Key.backspace	Key.backspace	n/a
415.029	0.1205	830058	keystroke_i	i	n/a
415.434	0.1505	830868	keystroke_t	t	n/a
415.614	0.105	831228	keystroke_y	y	n/a
415.869	0.105	831738	keystroke_Key.space	Key.space	n/a
416.0785	0.105	832157	keystroke_s	s	n/a
416.2885	0.09	832577	keystroke_t	t	n/a
416.4385	0.18	832877	keystroke_r	r	n/a
416.6035	0.12	833207	keystroke_u	u	n/a
416.8735	0.135	833747	keystroke_c	c	n/a
417.1885	0.0905	834377	keystroke_t	t	n/a
417.459	0.075	834918	keystroke_l	l	n/a
417.579	0.09	835158	keystroke_y	y	n/a
417.894	0.06	835788	keystroke_Key.enter	Key.enter	n/a
417.959	9.1015	835918	prompt	n/a	wicked vast arrive terrorists\n
418.6895	0.1195	837379	keystroke_w	w	n/a
418.8245	0.1045	837649	keystroke_i	i	n/a
418.989	0.135	837978	keystroke_c	c	n/a
419.4395	0.105	838879	keystroke_k	k	n/a
419.814	0.09	839628	keystroke_e	e	n/a
420.039	0.1805	840078	keystroke_d	d	n/a
420.2045	0.12	840409	keystroke_Key.space	Key.space	n/a
420.4895	0.15	840979	keystroke_v	v	n/a
420.6245	0.105	841249	keystroke_a	a	n/a
420.7445	0.21	841489	keystroke_s	s	n/a
420.9095	0.18	841819	keystroke_e	e	n/a
421.0295	0.1345	842059	keystroke_Key.space	Key.space	n/a
421.209	0.1355	842418	keystroke_a	a	n/a
421.434	0.0605	842868	keystroke_r	r	n/a
421.584	0.09	843168	keystroke_r	r	n/a
421.809	0.09	843618	keystroke_i	i	n/a
421.929	0.165	843858	keystroke_v	v	n/a
422.064	0.165	844128	keystroke_e	e	n/a
422.229	0.135	844458	keystroke_Key.space	Key.space	n/a
422.4845	0.1205	844969	keystroke_t	t	n/a
422.634	0.165	845268	keystroke_e	e	n/a
422.859	0.105	845718	keystroke_r	r	n/a
423.054	0.1355	846108	keystroke_r	r	n/a
423.3245	0.045	846649	keystroke_i	i	n/a
424.1495	0.075	848299	keystroke_Key.backspace	Key.backspace	n/a
424.4045	0.105	848809	keystroke_o	o	n/a
424.6445	0.1195	849289	keystroke_r	r	n/a
424.8095	0.105	849619	keystroke_i	i	n/a
425.0045	0.12	850009	keystroke_e	e	n/a
425.1245	0.1195	850249	keystroke_s	s	n/a
425.304	0.15	850608	keystroke_t	t	n/a
425.6795	0.045	851359	keystroke_Key.backspace	Key.backspace	n/a
425.8145	0.075	851629	keystroke_Key.backspace	Key.backspace	n/a
425.9495	0.1195	851899	keystroke_Key.backspace	Key.backspace	n/a
426.024	0.105	852048	keystroke_s	s	n/a
426.084	0.12	852168	keystroke_t	t	n/a
426.759	0.105	853518	keystroke_s	s	n/a
426.999	0.06	853998	keystroke_Key.enter	Key.enter	n/a
427.0635	11.772	854127	prompt	n/a	attempts planets focusing species\n
427.7045	0.12	855409	keystroke_a	a	n/a
427.9145	0.09	855829	keystroke_t	t	n/a
428.0795	0.12	856159	keystroke_t	t	n/a
428.2895	0.1195	856579	keystroke_e	e	n/a
428.484	0.09	856968	keystroke_m	m	n/a
428.679	0.09	857358	keystroke_p	p	n/a
428.949	0.12	857898	keystroke_t	t	n/a
429.189	0.12	858378	keystroke_s	s	n/a
429.4435	0.135	858887	keystroke_Key.space	Key.space	n/a
429.7585	0.09	859517	keystroke_p	p	n/a
429.9545	0.105	859909	keystroke_l	l	n/a
430.1045	0.105	860209	keystroke_a	a	n/a
430.2395	0.1045	860479	keystroke_n	n	n/a
430.6595	0.12	861319	keystroke_a	a	n/a
431.094	0.0605	862188	keystroke_Key.backspace	Key.backspace	n/a
434.3365	0.058	868673	keystroke_e	e	n/a
434.4535	0.12	868907	keystroke_t	t	n/a
434.6635	0.135	869327	keystroke_s	s	n/a
434.8735	0.135	869747	keystroke_Key.space	Key.space	n/a
435.339	0.135	870678	keystroke_f	f	n/a
435.444	0.105	870888	keystroke_o	o	n/a
435.669	0.12	871338	keystroke_c	c	n/a
435.834	0.075	871668	keystroke_u	u	n/a
436.194	0.105	872388	keystroke_s	s	n/a
436.3295	0.2095	872659	keystroke_i	i	n/a
436.434	0.1495	872868	keystroke_n	n	n/a
436.554	0.1645	873108	keystroke_g	g	n/a
436.6735	0.135	873347	keystroke_Key.space	Key.space	n/a
437.079	0.12	874158	keystroke_s	s	n/a
437.214	0.105	874428	keystroke_p	p	n/a
437.349	0.09	874698	keystroke_e	e	n/a
437.994	0.135	875988	keystroke_c	c	n/a
438.099	0.075	876198	keystroke_i	i	n/a
438.324	0.09	876648	keystroke_e	e	n/a
438.504	0.09	877008	keystroke_s	s	n/a
438.774	0.0605	877548	keystroke_Key.enter	Key.enter	n/a
438.839	9.0115	877678	prompt	n/a	scared charging testament jimmy\n
439.659	0.09	879318	keystroke_s	s	n/a
439.884	0.105	879768	keystroke_c	c	n/a
440.1695	0.15	880339	keystroke_a	a	n/a
440.4545	0.105	880909	keystroke_r	r	n/a
440.7095	0.15	881419	keystroke_d	d	n/a
441.2645	0.09	882529	keystroke_Key.backspace	Key.backspace	n/a
441.3695	0.135	882739	keystroke_e	e	n/a
441.5645	0.21	883129	keystroke_d	d	n/a
441.6995	0.18	883399	keystroke_Key.space	Key.space	n/a
441.9845	0.089	883969	keystroke_s	s	n/a
442.3445	0.09	884689	keystroke_Key.backspace	Key.backspace	n/a
442.4495	0.1645	884899	keystroke_c	c	n/a
442.6595	0.06	885319	keystroke_h	h	n/a
442.7645	0.15	885529	keystroke_a	a	n/a
442.9895	0.15	885979	keystroke_r	r	n/a
443.424	0.105	886848	keystroke_g	g	n/a
443.604	0.225	887208	keystroke_i	i	n/a
443.694	0.21	887388	keystroke_n	n	n/a
443.859	0.15	887718	keystroke_g	g	n/a
443.994	0.12	887988	keystroke_Key.space	Key.space	n/a
444.264	0.18	888528	keystroke_t	t	n/a
444.415	0.179	888830	keystroke_e	e	n/a
444.579	0.195	889158	keystroke_s	s	n/a
444.789	0.165	889578	keystroke_t	t	n/a
445.239	0.075	890478	keystroke_m	m	n/a
445.374	0.12	890748	keystroke_e	e	n/a
445.479	0.105	890958	keystroke_n	n	n/a
445.6295	0.12	891259	keystroke_t	t	n/a
446.199	0.165	892398	keystroke_Key.space	Key.space	n/a
446.6185	0.06	893237	keystroke_j	j	n/a
446.889	0.0745	893778	keystroke_i	i	n/a
447.114	0.075	894228	keystroke_m	m	n/a
447.264	0.075	894528	keystroke_m	m	n/a
447.504	0.06	895008	keystroke_y	y	n/a
447.789	0.06	895578	keystroke_Key.enter	Key.enter	n/a
447.854	7.6315	895708	prompt	n/a	albania spin hide scuba\n
448.9285	0.135	897857	keystroke_a	a	n/a
449.1095	0.104	898219	keystroke_l	l	n/a
449.5295	0.09	899059	keystroke_b	b	n/a
449.694	0.135	899388	keystroke_a	a	n/a
449.919	0.09	899838	keystroke_n	n	n/a
450.099	0.105	900198	keystroke_i	i	n/a
450.294	0.135	900588	keystroke_a	a	n/a
450.474	0.15	900948	keystroke_Key.space	Key.space	n/a
451.4945	0.105	902989	keystroke_s	s	n/a
451.9145	0.09	903829	keystroke_p	p	n/a
452.1695	0.075	904339	keystroke_i	i	n/a
452.6945	0.075	905389	keystroke_n	n	n/a
453.0845	0.1345	906169	keystroke_Key.space	Key.space	n/a
453.294	0.075	906588	keystroke_h	h	n/a
453.429	0.12	906858	keystroke_i	i	n/a
453.579	0.105	907158	keystroke_d	d	n/a
453.774	0.165	907548	keystroke_e	e	n/a
453.954	0.105	907908	keystroke_Key.space	Key.space	n/a
454.119	0.12	908238	keystroke_s	s	n/a
454.419	0.165	908838	keystroke_c	c	n/a
454.644	0.09	909288	keystroke_u	u	n/a
455.079	0.06	910158	keystroke_b	b	n/a
455.199	0.12	910398	keystroke_a	a	n/a
455.424	0.06	910848	keystroke_Key.enter	Key.enter	n/a
455.489	16.002	910978	prompt	n/a	flows starter expenditures attitudes\n
456.639	0.015	913278	keystroke_d	d	n/a
457.2095	0.075	914419	keystroke_Key.backspace	Key.backspace	n/a
457.3295	0.15	914659	keystroke_f	f	n/a
457.4795	0.09	914959	keystroke_l	l	n/a
457.6595	0.105	915319	keystroke_o	o	n/a
457.7945	0.1045	915589	keystroke_w	w	n/a
458.004	0.135	916008	keystroke_s	s	n/a
458.184	0.15	916368	keystroke_Key.space	Key.space	n/a
458.409	0.12	916818	keystroke_s	s	n/a
458.679	0.15	917358	keystroke_t	t	n/a
459.4895	0.18	918979	keystroke_a	a	n/a
459.6845	0.135	919369	keystroke_r	r	n/a
460.509	0.15	921018	keystroke_t	t	n/a
460.749	0.195	921498	keystroke_e	e	n/a
460.8845	0.18	921769	keystroke_r	r	n/a
461.1095	0.15	922219	keystroke_Key.space	Key.space	n/a
461.3045	0.105	922609	keystroke_e	e	n/a
461.5745	0.12	923149	keystroke_x	x	n/a
461.859	0.06	923718	keystroke_e	e	n/a
462.474	0.105	924948	keystroke_Key.backspace	Key.backspace	n/a
462.8195	0.09	925639	keystroke_p	p	n/a
463.029	0.1205	926058	keystroke_e	e	n/a
463.1945	0.12	926389	keystroke_n	n	n/a
465.2195	0.12	930439	keystroke_d	d	n/a
465.3995	0.105	930799	keystroke_i	i	n/a
467.1545	0.12	934309	keystroke_t	t	n/a
467.3345	0.105	934669	keystroke_u	u	n/a
467.6045	0.195	935209	keystroke_r	r	n/a
467.7095	0.225	935419	keystroke_e	e	n/a
467.9045	0.165	935809	keystroke_Key.space	Key.space	n/a
468.2645	0.135	936529	keystroke_a	a	n/a
468.5345	0.06	937069	keystroke_t	t	n/a
468.6995	0.12	937399	keystroke_t	t	n/a
468.9695	0.045	937939	keystroke_u	u	n/a
470.0645	0.06	940129	keystroke_Key.backspace	Key.backspace	n/a
470.3045	0.09	940609	keystroke_i	i	n/a
470.5145	0.09	941029	keystroke_t	t	n/a
470.6495	0.075	941299	keystroke_u	u	n/a
470.829	0.075	941658	keystroke_d	d	n/a
471.024	0.0755	942048	keystroke_e	e	n/a
471.1895	0.105	942379	keystroke_s	s	n/a
471.4145	0.074	942829	keystroke_Key.enter	Key.enter	n/a
471.494	11.772	942988	prompt	n/a	architecture sizes acquired replaced\n
472.33	0.149	944660	keystroke_a	a	n/a
472.659	0.09	945318	keystroke_r	r	n/a
472.914	0.165	945828	keystroke_c	c	n/a
473.094	0.105	946188	keystroke_h	h	n/a
473.514	0.075	947028	keystroke_i	i	n/a
473.919	0.105	947838	keystroke_t	t	n/a
474.129	0.135	948258	keystroke_e	e	n/a
474.459	0.135	948918	keystroke_c	c	n/a
474.834	0.105	949668	keystroke_t	t	n/a
475.119	0.12	950238	keystroke_u	u	n/a
475.344	0.12	950688	keystroke_r	r	n/a
475.404	0.195	950808	keystroke_e	e	n/a
475.584	0.12	951168	keystroke_Key.space	Key.space	n/a
475.824	0.1355	951648	keystroke_s	s	n/a
475.989	0.105	951978	keystroke_i	i	n/a
476.109	0.135	952218	keystroke_z	z	n/a
476.259	0.165	952518	keystroke_e	e	n/a
476.529	0.135	953058	keystroke_s	s	n/a
476.739	0.135	953478	keystroke_Key.space	Key.space	n/a
476.979	0.12	953958	keystroke_a	a	n/a
477.3095	0.09	954619	keystroke_s	s	n/a
478.0895	0.089	956179	keystroke_Key.backspace	Key.backspace	n/a
478.1945	0.1505	956389	keystroke_c	c	n/a
478.69	0.119	957380	keystroke_q	q	n/a
478.884	0.1655	957768	keystroke_u	u	n/a
479.6045	0.15	959209	keystroke_i	i	n/a
480.609	0.12	961218	keystroke_r	r	n/a
480.864	0.105	961728	keystroke_e	e	n/a
481.089	0.195	962178	keystroke_d	d	n/a
481.269	0.165	962538	keystroke_Key.space	Key.space	n/a
481.764	0.165	963528	keystroke_r	r	n/a
481.869	0.195	963738	keystroke_e	e	n/a
482.109	0.105	964218	keystroke_p	p	n/a
482.349	0.12	964698	keystroke_l	l	n/a
482.484	0.18	964968	keystroke_a	a	n/a
482.6795	0.135	965359	keystroke_c	c	n/a
482.7545	0.135	965509	keystroke_e	e	n/a
483.0245	0.1045	966049	keystroke_d	d	n/a
483.204	0.06	966408	keystroke_Key.enter	Key.enter	n/a
483.27	10.0005	966540	prompt	n/a	departure adults qualities nursing\n
483.969	0.105	967938	keystroke_d	d	n/a
484.179	0.0605	968358	keystroke_e	e	n/a
484.4195	0.12	968839	keystroke_p	p	n/a
484.5995	0.09	969199	keystroke_a	a	n/a
484.6745	0.105	969349	keystroke_r	r	n/a
484.8995	0.105	969799	keystroke_t	t	n/a
485.0195	0.1195	970039	keystroke_u	u	n/a
485.184	0.165	970368	keystroke_r	r	n/a
485.289	0.18	970578	keystroke_e	e	n/a
485.454	0.12	970908	keystroke_Key.space	Key.space	n/a
485.619	0.12	971238	keystroke_a	a	n/a
485.829	0.15	971658	keystroke_d	d	n/a
486.054	0.0905	972108	keystroke_u	u	n/a
486.3095	0.09	972619	keystroke_l	l	n/a
486.4745	0.12	972949	keystroke_t	t	n/a
486.639	0.195	973278	keystroke_s	s	n/a
486.819	0.15	973638	keystroke_Key.space	Key.space	n/a
487.5095	0.12	975019	keystroke_q	q	n/a
487.7045	0.09	975409	keystroke_u	u	n/a
488.1995	0.135	976399	keystroke_a	a	n/a
488.3945	0.105	976789	keystroke_l	l	n/a
488.6345	0.075	977269	keystroke_i	i	n/a
488.8745	0.105	977749	keystroke_t	t	n/a
489.039	0.091	978078	keystroke_i	i	n/a
489.175	0.12	978350	keystroke_e	e	n/a
489.264	0.181	978528	keystroke_s	s	n/a
489.429	0.165	978858	keystroke_Key.space	Key.space	n/a
490.075	0.119	980150	keystroke_n	n	n/a
490.3295	0.075	980659	keystroke_r	r	n/a
490.7345	0.0445	981469	keystroke_Key.backspace	Key.backspace	n/a
490.974	0.06	981948	keystroke_i	i	n/a
491.1845	0.075	982369	keystroke_r	r	n/a
491.5895	0.06	983179	keystroke_Key.backspace	Key.backspace	n/a
491.724	0.075	983448	keystroke_Key.backspace	Key.backspace	n/a
492.2195	0.075	984439	keystroke_u	u	n/a
492.3545	0.0895	984709	keystroke_r	r	n/a
492.564	0.12	985128	keystroke_s	s	n/a
492.759	0.195	985518	keystroke_i	i	n/a
492.8345	0.15	985669	keystroke_n	n	n/a
492.969	0.1205	985938	keystroke_g	g	n/a
493.2085	0.0605	986417	keystroke_Key.enter	Key.enter	n/a
493.274	11.547	986548	prompt	n/a	battery nowhere wave senate\n
494.17	0.089	988340	keystroke_b	b	n/a
494.29	0.119	988580	keystroke_a	a	n/a
494.499	0.105	988998	keystroke_t	t	n/a
494.6785	0.106	989357	keystroke_t	t	n/a
494.8445	0.149	989689	keystroke_e	e	n/a
494.949	0.1805	989898	keystroke_r	r	n/a
495.1445	0.09	990289	keystroke_y	y	n/a
495.3095	0.12	990619	keystroke_Key.space	Key.space	n/a
495.8645	0.18	991729	keystroke_n	n	n/a
495.9695	0.135	991939	keystroke_o	o	n/a
496.254	0.12	992508	keystroke_w	w	n/a
496.449	0.18	992898	keystroke_e	e	n/a
496.464	0.12	992928	keystroke_h	h	n/a
496.569	0.165	993138	keystroke_r	r	n/a
496.659	0.195	993318	keystroke_e	e	n/a
497.469	0.0605	994938	keystroke_Key.backspace	Key.backspace	n/a
497.6045	0.105	995209	keystroke_Key.backspace	Key.backspace	n/a
497.979	0.09	995958	keystroke_Key.backspace	Key.backspace	n/a
498.249	0.075	996498	keystroke_h	h	n/a
498.594	0.06	997188	keystroke_Key.backspace	Key.backspace	n/a
498.729	0.075	997458	keystroke_Key.backspace	Key.backspace	n/a
499.029	0.045	998058	keystroke_h	h	n/a
499.284	0.105	998568	keystroke_e	e	n/a
499.419	0.105	998838	keystroke_r	r	n/a
499.494	0.195	998988	keystroke_e	e	n/a
499.764	0.15	999528	keystroke_Key.space	Key.space	n/a
500.139	0.12	1000278	keystroke_e	e	n/a
500.394	0.12	1000788	keystroke_a	a	n/a
500.829	0.06	1001658	keystroke_Key.backspace	Key.backspace	n/a
500.979	0.075	1001958	keystroke_Key.backspace	Key.backspace	n/a
501.069	0.1205	1002138	keystroke_w	w	n/a
501.1445	0.18	1002289	keystroke_a	a	n/a
501.4145	0.18	1002829	keystroke_v	v	n/a
501.6245	0.12	1003249	keystroke_w	w	n/a
501.6545	0.075	1003309	keystroke_e	e	n/a
502.269	0.075	1004538	keystroke_Key.backspace	Key.backspace	n/a
502.419	0.075	1004838	keystroke_Key.backspace	Key.backspace	n/a
502.734	0.12	1005468	keystroke_e	e	n/a
502.989	0.1805	1005978	keystroke_Key.space	Key.space	n/a
503.5295	0.105	1007059	keystroke_s	s	n/a
503.6945	0.135	1007389	keystroke_e	e	n/a
503.9195	0.12	1007839	keystroke_n	n	n/a
504.1145	0.105	1008229	keystroke_a	a	n/a
504.3095	0.105	1008619	keystroke_t	t	n/a
504.4745	0.135	1008949	keystroke_e	e	n/a
504.7745	0.045	1009549	keystroke_Key.enter	Key.enter	n/a
504.824	9.4315	1009648	prompt	n/a	nodes stomach waters commodity\n
505.5245	0.0895	1011049	keystroke_n	n	n/a
505.704	0.09	1011408	keystroke_o	o	n/a
505.824	0.105	1011648	keystroke_d	d	n/a
506.049	0.0755	1012098	keystroke_e	e	n/a
506.1845	0.15	1012369	keystroke_s	s	n/a
506.3495	0.135	1012699	keystroke_Key.space	Key.space	n/a
506.7545	0.15	1013509	keystroke_t	t	n/a
507.204	0.09	1014408	keystroke_Key.backspace	Key.backspace	n/a
507.549	0.105	1015098	keystroke_s	s	n/a
507.669	0.15	1015338	keystroke_t	t	n/a
507.849	0.15	1015698	keystroke_o	o	n/a
508.209	0.09	1016418	keystroke_m	m	n/a
508.329	0.105	1016658	keystroke_a	a	n/a
508.524	0.18	1017048	keystroke_c	c	n/a
508.659	0.105	1017318	keystroke_h	h	n/a
508.824	0.135	1017648	keystroke_Key.space	Key.space	n/a
509.064	0.12	1018128	keystroke_a	a	n/a
509.484	0.105	1018968	keystroke_Key.backspace	Key.backspace	n/a
509.604	0.18	1019208	keystroke_w	w	n/a
509.724	0.165	1019448	keystroke_a	a	n/a
509.949	0.1505	1019898	keystroke_t	t	n/a
510.069	0.2555	1020138	keystroke_e	e	n/a
510.2345	0.1495	1020469	keystroke_r	r	n/a
510.3695	0.1345	1020739	keystroke_s	s	n/a
510.5485	0.15	1021097	keystroke_Key.space	Key.space	n/a
510.8635	0.121	1021727	keystroke_c	c	n/a
510.8945	0.075	1021789	keystroke_o	o	n/a
511.2695	0.0445	1022539	keystroke_m	m	n/a
511.404	0.06	1022808	keystroke_m	m	n/a
511.614	0.075	1023228	keystroke_u	u	n/a
512.529	0.045	1025058	keystroke_Key.backspace	Key.backspace	n/a
512.77	0.089	1025540	keystroke_o	o	n/a
513.369	0.12	1026738	keystroke_d	d	n/a
513.504	0.075	1027008	keystroke_i	i	n/a
513.7	0.104	1027400	keystroke_t	t	n/a
513.864	0.0745	1027728	keystroke_y	y	n/a
514.194	0.06	1028388	keystroke_Key.enter	Key.enter	n/a
514.2605	12.355	1028521	prompt	n/a	coding abraham lexmark engaging\n
514.9445	0.105	1029889	keystroke_c	c	n/a
515.0345	0.09	1030069	keystroke_o	o	n/a
515.1995	0.135	1030399	keystroke_d	d	n/a
515.3795	0.21	1030759	keystroke_i	i	n/a
515.4845	0.18	1030969	keystroke_n	n	n/a
515.5595	0.18	1031119	keystroke_g	g	n/a
515.7095	0.12	1031419	keystroke_Key.space	Key.space	n/a
516.3095	0.105	1032619	keystroke_a	a	n/a
517.1195	0.18	1034239	keystroke_b	b	n/a
517.629	0.135	1035258	keystroke_r	r	n/a
517.809	0.1355	1035618	keystroke_a	a	n/a
518.4545	0.135	1036909	keystroke_h	h	n/a
519.159	0.105	1038318	keystroke_a	a	n/a
520.0145	0.105	1040029	keystroke_m	m	n/a
520.1645	0.165	1040329	keystroke_Key.space	Key.space	n/a
520.9745	0.105	1041949	keystroke_l	l	n/a
521.1095	0.12	1042219	keystroke_e	e	n/a
521.4545	0.12	1042909	keystroke_x	x	n/a
521.8145	0.09	1043629	keystroke_m	m	n/a
521.9195	0.135	1043839	keystroke_a	a	n/a
522.0695	0.1645	1044139	keystroke_r	r	n/a
522.249	0.105	1044498	keystroke_k	k	n/a
522.444	0.12	1044888	keystroke_Key.space	Key.space	n/a
522.669	0.135	1045338	keystroke_d	d	n/a
523.824	0.09	1047648	keystroke_Key.backspace	Key.backspace	n/a
523.96	0.1195	1047920	keystroke_e	e	n/a
524.3045	0.075	1048609	keystroke_n	n	n/a
525.1895	0.12	1050379	keystroke_g	g	n/a
525.3695	0.15	1050739	keystroke_a	a	n/a
525.9395	0.09	1051879	keystroke_g	g	n/a
526.0445	0.225	1052089	keystroke_i	i	n/a
526.1345	0.1645	1052269	keystroke_n	n	n/a
526.2845	0.1045	1052569	keystroke_g	g	n/a
526.539	0.075	1053078	keystroke_Key.enter	Key.enter	n/a
526.619	11.562	1053238	prompt	n/a	clicking browsers cheque joseph\n
527.3195	0.165	1054639	keystroke_c	c	n/a
527.5595	0.105	1055119	keystroke_l	l	n/a
527.8295	0.075	1055659	keystroke_i	i	n/a
528.0845	0.12	1056169	keystroke_c	c	n/a
528.2795	0.105	1056559	keystroke_k	k	n/a
528.5345	0.225	1057069	keystroke_i	i	n/a
528.6395	0.195	1057279	keystroke_n	n	n/a
528.7145	0.18	1057429	keystroke_g	g	n/a
528.8795	0.135	1057759	keystroke_Key.space	Key.space	n/a
529.1795	0.1345	1058359	keystroke_b	b	n/a
529.419	0.165	1058838	keystroke_r	r	n/a
529.629	0.09	1059258	keystroke_o	o	n/a
529.839	0.09	1059678	keystroke_w	w	n/a
530.1245	0.1045	1060249	keystroke_s	s	n/a
530.3945	0.24	1060789	keystroke_e	e	n/a
530.5145	0.135	1061029	keystroke_r	r	n/a
531.294	0.18	1062588	keystroke_s	s	n/a
531.489	0.135	1062978	keystroke_Key.space	Key.space	n/a
531.999	0.1355	1063998	keystroke_c	c	n/a
532.1045	0.1195	1064209	keystroke_h	h	n/a
532.344	0.105	1064688	keystroke_e	e	n/a
532.644	0.12	1065288	keystroke_q	q	n/a
532.824	0.0905	1065648	keystroke_u	u	n/a
533.0345	0.135	1066069	keystroke_e	e	n/a
533.2745	0.12	1066549	keystroke_Key.space	Key.space	n/a
533.5295	0.15	1067059	keystroke_j	j	n/a
534.2495	0.165	1068499	keystroke_o	o	n/a
536.2145	0.195	1072429	keystroke_e	e	n/a
536.9345	0.1045	1073869	keystroke_Key.backspace	Key.backspace	n/a
537.025	0.134	1074050	keystroke_s	s	n/a
537.13	0.149	1074260	keystroke_e	e	n/a
537.579	0.12	1075158	keystroke_p	p	n/a
537.819	0.075	1075638	keystroke_h	h	n/a
538.1045	0.075	1076209	keystroke_Key.enter	Key.enter	n/a
538.1845	14.9665	1076369	prompt	n/a	specialized decade signature privilege\n
539.049	0.121	1078098	keystroke_s	s	n/a
539.199	0.12	1078398	keystroke_p	p	n/a
539.334	0.075	1078668	keystroke_e	e	n/a
539.544	0.135	1079088	keystroke_c	c	n/a
539.6645	0.0895	1079329	keystroke_i	i	n/a
539.799	0.1055	1079598	keystroke_a	a	n/a
539.9495	0.09	1079899	keystroke_l	l	n/a
541.074	0.09	1082148	keystroke_i	i	n/a
541.2695	0.12	1082539	keystroke_z	z	n/a
541.4045	0.09	1082809	keystroke_e	e	n/a
541.6295	0.195	1083259	keystroke_d	d	n/a
541.8545	0.135	1083709	keystroke_Key.space	Key.space	n/a
542.2295	0.12	1084459	keystroke_c	c	n/a
542.634	0.09	1085268	keystroke_Key.backspace	Key.backspace	n/a
542.709	0.12	1085418	keystroke_d	d	n/a
542.904	0.075	1085808	keystroke_e	e	n/a
543.129	0.135	1086258	keystroke_c	c	n/a
543.309	0.12	1086618	keystroke_a	a	n/a
543.8645	0.105	1087729	keystroke_d	d	n/a
544.0745	0.105	1088149	keystroke_e	e	n/a
544.2095	0.135	1088419	keystroke_Key.space	Key.space	n/a
544.4795	0.12	1088959	keystroke_s	s	n/a
544.6295	0.105	1089259	keystroke_i	i	n/a
545.0945	0.12	1090189	keystroke_g	g	n/a
545.5295	0.105	1091059	keystroke_n	n	n/a
546.745	0.165	1093490	keystroke_a	a	n/a
547.36	0.135	1094720	keystroke_t	t	n/a
548.4245	0.105	1096849	keystroke_u	u	n/a
548.5445	0.195	1097089	keystroke_r	r	n/a
548.6045	0.225	1097209	keystroke_e	e	n/a
548.7695	0.18	1097539	keystroke_Key.space	Key.space	n/a
549.204	0.106	1098408	keystroke_p	p	n/a
549.355	0.149	1098710	keystroke_r	r	n/a
549.519	0.1355	1099038	keystroke_i	i	n/a
550.2695	0.105	1100539	keystroke_v	v	n/a
550.4045	0.105	1100809	keystroke_i	i	n/a
550.779	0.105	1101558	keystroke_l	l	n/a
551.1845	0.1655	1102369	keystroke_e	e	n/a
552.5795	0.15	1105159	keystroke_g	g	n/a
552.7745	0.135	1105549	keystroke_e	e	n/a
553.1045	0.045	1106209	keystroke_Key.enter	Key.enter	n/a
553.1545	12.8065	1106309	prompt	n/a	halifax sleeps discussing relief\n
554.17	0.195	1108340	keystroke_h	h	n/a
554.905	0.1045	1109810	keystroke_a	a	n/a
556.014	0.0905	1112028	keystroke_l	l	n/a
556.2095	0.09	1112419	keystroke_i	i	n/a
556.4945	0.135	1112989	keystroke_f	f	n/a
556.6145	0.165	1113229	keystroke_a	a	n/a
556.8245	0.15	1113649	keystroke_c	c	n/a
557.5745	0.075	1115149	keystroke_Key.backspace	Key.backspace	n/a
557.6645	0.135	1115329	keystroke_x	x	n/a
557.8145	0.12	1115629	keystroke_Key.space	Key.space	n/a
558.5345	0.15	1117069	keystroke_s	s	n/a
558.6395	0.09	1117279	keystroke_l	l	n/a
558.8345	0.075	1117669	keystroke_e	e	n/a
559.1495	0.12	1118299	keystroke_e	e	n/a
559.4345	0.105	1118869	keystroke_p	p	n/a
559.6895	0.15	1119379	keystroke_s	s	n/a
559.8245	0.135	1119649	keystroke_Key.space	Key.space	n/a
560.17	0.104	1120340	keystroke_f	f	n/a
560.349	0.076	1120698	keystroke_i	i	n/a
560.754	0.06	1121508	keystroke_Key.backspace	Key.backspace	n/a
560.904	0.075	1121808	keystroke_Key.backspace	Key.backspace	n/a
561.0995	0.135	1122199	keystroke_d	d	n/a
561.2195	0.09	1122439	keystroke_i	i	n/a
561.324	0.105	1122648	keystroke_s	s	n/a
561.639	0.075	1123278	keystroke_c	c	n/a
562.525	0.105	1125050	keystroke_u	u	n/a
562.8695	0.075	1125739	keystroke_s	s	n/a
563.035	0.105	1126070	keystroke_s	s	n/a
563.214	0.24	1126428	keystroke_i	i	n/a
563.35	0.149	1126700	keystroke_n	n	n/a
563.439	0.15	1126878	keystroke_g	g	n/a
563.544	0.135	1127088	keystroke_Key.space	Key.space	n/a
564.2945	0.12	1128589	keystroke_r	r	n/a
564.3845	0.165	1128769	keystroke_e	e	n/a
564.9095	0.105	1129819	keystroke_l	l	n/a
565.1045	0.09	1130209	keystroke_i	i	n/a
565.2395	0.105	1130479	keystroke_f	f	n/a
565.5545	0.12	1131109	keystroke_t	t	n/a
565.884	0.075	1131768	keystroke_Key.enter	Key.enter	n/a
565.9645	11.486	1131929	prompt	n/a	reward casino dishes keyboard\n
567.1595	0.15	1134319	keystroke_r	r	n/a
567.2345	0.2255	1134469	keystroke_e	e	n/a
567.625	0.1045	1135250	keystroke_q	q	n/a
568.104	0.091	1136208	keystroke_Key.backspace	Key.backspace	n/a
568.21	0.225	1136420	keystroke_w	w	n/a
568.375	0.165	1136750	keystroke_a	a	n/a
568.57	0.09	1137140	keystroke_r	r	n/a
568.93	0.2095	1137860	keystroke_d	d	n/a
569.1245	0.135	1138249	keystroke_Key.space	Key.space	n/a
569.4995	0.1795	1138999	keystroke_c	c	n/a
569.664	0.061	1139328	keystroke_h	h	n/a
569.935	0.2245	1139870	keystroke_s	s	n/a
570.1745	0.105	1140349	keystroke_i	i	n/a
571.809	0.06	1143618	keystroke_Key.backspace	Key.backspace	n/a
571.974	0.045	1143948	keystroke_Key.backspace	Key.backspace	n/a
572.094	0.09	1144188	keystroke_Key.backspace	Key.backspace	n/a
572.409	0.105	1144818	keystroke_a	a	n/a
573.579	0.1055	1147158	keystroke_s	s	n/a
573.729	0.091	1147458	keystroke_i	i	n/a
573.97	0.21	1147940	keystroke_n	n	n/a
574.075	0.165	1148150	keystroke_o	o	n/a
574.27	0.135	1148540	keystroke_Key.space	Key.space	n/a
574.705	0.105	1149410	keystroke_d	d	n/a
574.825	0.06	1149650	keystroke_i	i	n/a
574.93	0.09	1149860	keystroke_s	s	n/a
575.11	0.09	1150220	keystroke_h	h	n/a
575.23	0.105	1150460	keystroke_e	e	n/a
575.4395	0.12	1150879	keystroke_s	s	n/a
575.6045	0.15	1151209	keystroke_Key.space	Key.space	n/a
575.8895	0.105	1151779	keystroke_k	k	n/a
576.0545	0.135	1152109	keystroke_e	e	n/a
576.28	0.075	1152560	keystroke_y	y	n/a
576.55	0.06	1153100	keystroke_b	b	n/a
576.76	0.075	1153520	keystroke_o	o	n/a
576.895	0.105	1153790	keystroke_a	a	n/a
577.03	0.09	1154060	keystroke_r	r	n/a
577.21	0.165	1154420	keystroke_d	d	n/a
577.39	0.059	1154780	keystroke_Key.enter	Key.enter	n/a
577.4545	7.4215	1154909	prompt	n/a	perfect noticed feedback rescue\n
578.214	0.105	1156428	keystroke_p	p	n/a
578.334	0.18	1156668	keystroke_e	e	n/a
578.454	0.09	1156908	keystroke_r	r	n/a
578.709	0.105	1157418	keystroke_f	f	n/a
578.859	0.09	1157718	keystroke_e	e	n/a
579.069	0.09	1158138	keystroke_c	c	n/a
579.2795	0.15	1158559	keystroke_t	t	n/a
579.4595	0.135	1158919	keystroke_Key.space	Key.space	n/a
579.6995	0.165	1159399	keystroke_n	n	n/a
579.8345	0.105	1159669	keystroke_o	o	n/a
579.9845	0.105	1159969	keystroke_t	t	n/a
580.1045	0.09	1160209	keystroke_i	i	n/a
580.2995	0.105	1160599	keystroke_c	c	n/a
580.3895	0.12	1160779	keystroke_e	e	n/a
580.6295	0.165	1161259	keystroke_d	d	n/a
580.7945	0.12	1161589	keystroke_Key.space	Key.space	n/a
581.0495	0.105	1162099	keystroke_f	f	n/a
581.2445	0.0905	1162489	keystroke_e	e	n/a
581.365	0.105	1162730	keystroke_e	e	n/a
581.575	0.12	1163150	keystroke_d	d	n/a
581.92	0.075	1163840	keystroke_b	b	n/a
582.085	0.12	1164170	keystroke_a	a	n/a
582.4	0.165	1164800	keystroke_c	c	n/a
582.64	0.105	1165280	keystroke_k	k	n/a
582.91	0.075	1165820	keystroke_Key.space	Key.space	n/a
583.105	0.135	1166210	keystroke_r	r	n/a
583.21	0.0895	1166420	keystroke_e	e	n/a
583.4495	0.15	1166899	keystroke_s	s	n/a
583.9145	0.12	1167829	keystroke_c	c	n/a
584.0945	0.105	1168189	keystroke_u	u	n/a
584.4245	0.12	1168849	keystroke_r	r	n/a
584.4845	0.21	1168969	keystroke_e	e	n/a
584.7995	0.075	1169599	keystroke_Key.enter	Key.enter	n/a
584.879	12.252	1169758	prompt	n/a	israeli societies bunny logic\n
585.8945	0.15	1171789	keystroke_i	i	n/a
586.1045	0.12	1172209	keystroke_r	r	n/a
587.679	0.045	1175358	keystroke_Key.backspace	Key.backspace	n/a
587.769	0.135	1175538	keystroke_s	s	n/a
588.009	0.18	1176018	keystroke_r	r	n/a
589.2695	0.18	1178539	keystroke_a	a	n/a
589.915	0.149	1179830	keystroke_e	e	n/a
590.1245	0.045	1180249	keystroke_l	l	n/a
590.3495	0.075	1180699	keystroke_i	i	n/a
590.3645	0.015	1180729	keystroke_u	u	n/a
590.9195	0.075	1181839	keystroke_Key.backspace	Key.backspace	n/a
591.1445	0.15	1182289	keystroke_Key.space	Key.space	n/a
591.6995	0.12	1183399	keystroke_s	s	n/a
591.8495	0.06	1183699	keystroke_o	o	n/a
592.0445	0.135	1184089	keystroke_c	c	n/a
592.1805	0.074	1184361	keystroke_i	i	n/a
592.869	0.105	1185738	keystroke_e	e	n/a
593.1395	0.12	1186279	keystroke_t	t	n/a
593.3645	0.105	1186729	keystroke_i	i	n/a
593.4995	0.15	1186999	keystroke_e	e	n/a
593.5895	0.195	1187179	keystroke_s	s	n/a
593.7695	0.15	1187539	keystroke_Key.space	Key.space	n/a
594.145	0.1195	1188290	keystroke_b	b	n/a
594.2655	0.089	1188531	keystroke_u	u	n/a
594.6545	0.045	1189309	keystroke_n	n	n/a
594.7895	0.06	1189579	keystroke_n	n	n/a
595.0745	0.06	1190149	keystroke_y	y	n/a
595.3145	0.135	1190629	keystroke_Key.space	Key.space	n/a
595.914	0.09	1191828	keystroke_l	l	n/a
596.124	0.075	1192248	keystroke_o	o	n/a
596.349	0.12	1192698	keystroke_g	g	n/a
596.5745	0.075	1193149	keystroke_i	i	n/a
596.7845	0.105	1193569	keystroke_c	c	n/a
597.0695	0.06	1194139	keystroke_Key.enter	Key.enter	n/a
597.134	11.517	1194268	prompt	n/a	accept passwords stats dramatic\n
597.8495	0.105	1195699	keystroke_a	a	n/a
598.074	0.0755	1196148	keystroke_c	c	n/a
598.2395	0.09	1196479	keystroke_c	c	n/a
598.4645	0.105	1196929	keystroke_e	e	n/a
598.7345	0.09	1197469	keystroke_p	p	n/a
598.9445	0.1195	1197889	keystroke_t	t	n/a
599.079	0.135	1198158	keystroke_Key.space	Key.space	n/a
599.319	0.09	1198638	keystroke_p	p	n/a
599.454	0.105	1198908	keystroke_a	a	n/a
599.6795	0.06	1199359	keystroke_s	s	n/a
599.83	0.1045	1199660	keystroke_s	s	n/a
600.0695	0.09	1200139	keystroke_o	o	n/a
600.2945	0.06	1200589	keystroke_w	w	n/a
601.509	0.075	1203018	keystroke_Key.backspace	Key.backspace	n/a
601.644	0.09	1203288	keystroke_Key.backspace	Key.backspace	n/a
601.794	0.12	1203588	keystroke_w	w	n/a
602.199	0.015	1204398	keystroke_r	r	n/a
602.304	0.1205	1204608	keystroke_o	o	n/a
602.739	0.06	1205478	keystroke_Key.backspace	Key.backspace	n/a
602.874	0.075	1205748	keystroke_Key.backspace	Key.backspace	n/a
603.099	0.12	1206198	keystroke_o	o	n/a
603.249	0.09	1206498	keystroke_r	r	n/a
603.5045	0.12	1207009	keystroke_d	d	n/a
603.849	0.15	1207698	keystroke_s	s	n/a
604.104	0.135	1208208	keystroke_Key.space	Key.space	n/a
604.434	0.105	1208868	keystroke_s	s	n/a
604.659	0.12	1209318	keystroke_t	t	n/a
604.854	0.105	1209708	keystroke_a	a	n/a
604.989	0.211	1209978	keystroke_t	t	n/a
605.215	0.165	1210430	keystroke_e	e	n/a
605.95	0.09	1211900	keystroke_Key.backspace	Key.backspace	n/a
606.055	0.21	1212110	keystroke_s	s	n/a
606.25	0.1345	1212500	keystroke_Key.space	Key.space	n/a
606.5345	0.075	1213069	keystroke_d	d	n/a
606.7145	0.09	1213429	keystroke_r	r	n/a
606.8495	0.135	1213699	keystroke_a	a	n/a
607.3145	0.09	1214629	keystroke_m	m	n/a
607.7795	0.105	1215559	keystroke_a	a	n/a
607.9895	0.075	1215979	keystroke_t	t	n/a
608.1095	0.105	1216219	keystroke_i	i	n/a
608.2895	0.15	1216579	keystroke_c	c	n/a
608.56	0.09	1217120	keystroke_Key.enter	Key.enter	n/a
608.654	5.637	1217308	prompt	n/a	wooden whale lands fight\n
609.4295	0.105	1218859	keystroke_w	w	n/a
609.6995	0.075	1219399	keystroke_o	o	n/a
609.8645	0.09	1219729	keystroke_o	o	n/a
609.9245	0.105	1219849	keystroke_d	d	n/a
610.1495	0.105	1220299	keystroke_e	e	n/a
610.4945	0.12	1220989	keystroke_n	n	n/a
610.8695	0.135	1221739	keystroke_Key.space	Key.space	n/a
611.3495	0.12	1222699	keystroke_w	w	n/a
611.4995	0.15	1222999	keystroke_h	h	n/a
611.8145	0.18	1223629	keystroke_a	a	n/a
612.0245	0.09	1224049	keystroke_l	l	n/a
612.1595	0.18	1224319	keystroke_e	e	n/a
612.3245	0.12	1224649	keystroke_Key.space	Key.space	n/a
612.5645	0.09	1225129	keystroke_l	l	n/a
612.6995	0.105	1225399	keystroke_a	a	n/a
612.8195	0.165	1225639	keystroke_n	n	n/a
612.9695	0.135	1225939	keystroke_d	d	n/a
613.0895	0.165	1226179	keystroke_s	s	n/a
613.2695	0.12	1226539	keystroke_Key.space	Key.space	n/a
613.494	0.09	1226988	keystroke_f	f	n/a
613.569	0.09	1227138	keystroke_i	i	n/a
613.749	0.105	1227498	keystroke_g	g	n/a
613.899	0.06	1227798	keystroke_h	h	n/a
614.004	0.105	1228008	keystroke_t	t	n/a
614.244	0.045	1228488	keystroke_Key.enter	Key.enter	n/a
614.294	4.962	1228588	prompt	n/a	suit come above hosting\n
614.9645	0.1205	1229929	keystroke_s	s	n/a
615.07	0.09	1230140	keystroke_u	u	n/a
615.295	0.09	1230590	keystroke_i	i	n/a
615.445	0.12	1230890	keystroke_t	t	n/a
615.595	0.135	1231190	keystroke_Key.space	Key.space	n/a
615.865	0.1495	1231730	keystroke_c	c	n/a
616.0295	0.27	1232059	keystroke_o	o	n/a
616.1795	0.18	1232359	keystroke_m	m	n/a
616.2845	0.15	1232569	keystroke_e	e	n/a
616.3745	0.165	1232749	keystroke_Key.space	Key.space	n/a
616.5995	0.105	1233199	keystroke_a	a	n/a
616.8245	0.12	1233649	keystroke_b	b	n/a
617.364	0.105	1234728	keystroke_o	o	n/a
617.514	0.21	1235028	keystroke_v	v	n/a
617.649	0.165	1235298	keystroke_e	e	n/a
617.799	0.15	1235598	keystroke_Key.space	Key.space	n/a
618.324	0.105	1236648	keystroke_h	h	n/a
618.414	0.12	1236828	keystroke_o	o	n/a
618.535	0.119	1237070	keystroke_s	s	n/a
618.744	0.061	1237488	keystroke_t	t	n/a
618.834	0.166	1237668	keystroke_i	i	n/a
618.894	0.1355	1237788	keystroke_n	n	n/a
619.0445	0.12	1238089	keystroke_g	g	n/a
619.2095	0.045	1238419	keystroke_Key.enter	Key.enter	n/a
619.2605	8.5155	1238521	prompt	n/a	drugs woods julia procurement\n
620.019	0.091	1240038	keystroke_d	d	n/a
620.215	0.105	1240430	keystroke_r	r	n/a
620.394	0.121	1240788	keystroke_u	u	n/a
620.86	0.09	1241720	keystroke_g	g	n/a
621.3995	0.135	1242799	keystroke_s	s	n/a
621.5945	0.15	1243189	keystroke_Key.space	Key.space	n/a
621.9095	0.105	1243819	keystroke_w	w	n/a
622.0745	0.045	1244149	keystroke_o	o	n/a
622.1945	0.09	1244389	keystroke_o	o	n/a
622.3145	0.165	1244629	keystroke_d	d	n/a
622.4945	0.165	1244989	keystroke_s	s	n/a
622.6745	0.12	1245349	keystroke_Key.space	Key.space	n/a
622.93	0.105	1245860	keystroke_j	j	n/a
623.125	0.075	1246250	keystroke_u	u	n/a
623.365	0.09	1246730	keystroke_l	l	n/a
623.56	0.0895	1247120	keystroke_i	i	n/a
623.7395	0.135	1247479	keystroke_a	a	n/a
623.8895	0.165	1247779	keystroke_Key.space	Key.space	n/a
624.6245	0.09	1249249	keystroke_p	p	n/a
624.8345	0.135	1249669	keystroke_r	r	n/a
624.9845	0.075	1249969	keystroke_o	o	n/a
625.2695	0.12	1250539	keystroke_c	c	n/a
625.4045	0.075	1250809	keystroke_u	u	n/a
