onset	duration	sample	value	key	prompt_text
3.34	8.1715	6680	prompt	n/a	the quick brown fox jumps over a lazy dog\n
4.292	0.0555	8584	keystroke	t	n/a
4.3925	0.135	8785	keystroke	h	n/a
4.5425	0.135	9085	keystroke	e	n/a
4.6925	0.105	9385	keystroke	Key.space	n/a
4.887	0.15	9774	keystroke	q	n/a
5.052	0.24	10104	keystroke	u	n/a
5.202	0.15	10404	keystroke	i	n/a
5.472	0.15	10944	keystroke	c	n/a
5.607	0.135	11214	keystroke	k	n/a
5.8355	0.105	11671	keystroke	Key.space	n/a
6.0605	0.165	12121	keystroke	b	n/a
6.2105	0.12	12421	keystroke	r	n/a
6.3615	0.12	12723	keystroke	o	n/a
6.4965	0.12	12993	keystroke	w	n/a
6.6315	0.09	13263	keystroke	n	n/a
6.7365	0.166	13473	keystroke	Key.space	n/a
6.8725	0.135	13745	keystroke	f	n/a
6.9925	0.15	13985	keystroke	o	n/a
7.1725	0.18	14345	keystroke	x	n/a
7.3825	0.15	14765	keystroke	Key.space	n/a
7.6225	0.09	15245	keystroke	j	n/a
7.8475	0.105	15695	keystroke	u	n/a
8.0875	0.135	16175	keystroke	m	n/a
8.1925	0.18	16385	keystroke	p	n/a
8.3875	0.12	16775	keystroke	s	n/a
8.5525	0.15	17105	keystroke	Key.space	n/a
8.7325	0.195	17465	keystroke	o	n/a
8.9125	0.165	17825	keystroke	v	n/a
9.1225	0.165	18245	keystroke	e	n/a
9.2425	0.15	18485	keystroke	r	n/a
9.3625	0.165	18725	keystroke	Key.space	n/a
9.5125	0.18	19025	keystroke	a	n/a
9.6935	0.133	19387	keystroke	Key.space	n/a
9.9015	0.165	19803	keystroke	l	n/a
9.9915	0.12	19983	keystroke	a	n/a
10.2615	0.15	20523	keystroke	z	n/a
10.3965	0.09	20793	keystroke	y	n/a
10.5315	0.18	21063	keystroke	Key.space	n/a
10.8765	0.165	21753	keystroke	d	n/a
11.0565	0.135	22113	keystroke	o	n/a
11.2215	0.12	22443	keystroke	g	n/a
11.3565	0.15	22713	keystroke	Key.enter	n/a
11.5185	7.041	23037	prompt	n/a	creation tonight fundamental doctors\n
12.2125	0.119	24425	keystroke	c	n/a
12.6165	0.18	25233	keystroke	r	n/a
12.7515	0.195	25503	keystroke	e	n/a
12.8715	0.21	25743	keystroke	a	n/a
13.0665	0.12	26133	keystroke	t	n/a
13.2165	0.12	26433	keystroke	i	n/a
13.2915	0.21	26583	keystroke	o	n/a
13.4575	0.119	26915	keystroke	n	n/a
13.8315	0.135	27663	keystroke	Key.space	n/a
14.0575	0.149	28115	keystroke	t	n/a
14.1325	0.165	28265	keystroke	o	n/a
14.2525	0.254	28505	keystroke	n	n/a
14.4165	0.18	28833	keystroke	i	n/a
14.5665	0.135	29133	keystroke	g	n/a
14.7465	0.091	29493	keystroke	h	n/a
14.8215	0.136	29643	keystroke	t	n/a
14.9715	0.165	29943	keystroke	Key.space	n/a
15.1665	0.18	30333	keystroke	f	n/a
15.3615	0.105	30723	keystroke	u	n/a
15.6015	0.136	31203	keystroke	n	n/a
15.7065	0.165	31413	keystroke	d	n/a
15.8575	0.134	31715	keystroke	a	n/a
16.0665	0.12	32133	keystroke	m	n/a
16.2165	0.12	32433	keystroke	e	n/a
16.3515	0.15	32703	keystroke	n	n/a
16.5165	0.18	33033	keystroke	t	n/a
16.6665	0.135	33333	keystroke	a	n/a
16.8315	0.135	33663	keystroke	l	n/a
17.0115	0.18	34023	keystroke	Key.space	n/a
17.2075	0.119	34415	keystroke	d	n/a
17.3415	0.165	34683	keystroke	o	n/a
17.4615	0.18	34923	keystroke	c	n/a
17.7615	0.135	35523	keystroke	t	n/a
17.8815	0.181	35763	keystroke	o	n/a
18.0465	0.225	36093	keystroke	r	n/a
18.2265	0.15	36453	keystroke	s	n/a
18.4215	0.135	36843	keystroke	Key.enter	n/a
18.565	9.879	37130	prompt	n/a	tasks wisconsin reductions foundations\n
19.2015	0.181	38403	keystroke	t	n/a
19.3665	0.24	38733	keystroke	a	n/a
19.5475	0.15	39095	keystroke	s	n/a
19.8015	0.165	39603	keystroke	k	n/a
19.9215	0.105	39843	keystroke	s	n/a
20.2065	0.15	40413	keystroke	Key.space	n/a
20.4015	0.15	40803	keystroke	w	n/a
20.5065	0.165	41013	keystroke	i	n/a
20.8065	0.151	41613	keystroke	s	n/a
21.1365	0.151	42273	keystroke	c	n/a
21.3015	0.151	42603	keystroke	o	n/a
21.4215	0.121	42843	keystroke	n	n/a
21.6765	0.106	43353	keystroke	s	n/a
21.8725	0.254	43745	keystroke	i	n/a
22.0665	0.151	44133	keystroke	n	n/a
22.3065	0.135	44613	keystroke	Key.space	n/a
22.5165	0.135	45033	keystroke	d	n/a
22.9965	0.075	45993	keystroke	Key.backspace	n/a
23.1765	0.09	46353	keystroke	Key.backspace	n/a
23.7165	0.12	47433	keystroke	Key.space	n/a
24.0175	0.135	48035	keystroke	r	n/a
24.1075	0.105	48215	keystroke	e	n/a
24.3465	0.136	48693	keystroke	d	n/a
24.5415	0.135	49083	keystroke	u	n/a
24.6465	0.195	49293	keystroke	c	n/a
24.9925	0.134	49985	keystroke	t	n/a
25.0975	0.165	50195	keystroke	i	n/a
25.2025	0.21	50405	keystroke	o	n/a
25.3225	0.12	50645	keystroke	n	n/a
25.4275	0.135	50855	keystroke	s	n/a
25.5915	0.18	51183	keystroke	Key.space	n/a
25.7575	0.135	51515	keystroke	f	n/a
25.9225	0.165	51845	keystroke	o	n/a
26.0125	0.104	52025	keystroke	u	n/a
26.2525	0.149	52505	keystroke	n	n/a
26.3575	0.12	52715	keystroke	d	n/a
26.6725	0.06	53345	keystroke	t	n/a
27.0615	0.12	54123	keystroke	Key.backspace	n/a
27.2275	0.225	54455	keystroke	a	n/a
27.4225	0.12	54845	keystroke	t	n/a
27.5275	0.21	55055	keystroke	i	n/a
27.6015	0.301	55203	keystroke	o	n/a
27.8425	0.179	55685	keystroke	n	n/a
28.0225	0.149	56045	keystroke	s	n/a
28.2915	0.15	56583	keystroke	Key.enter	n/a
28.4495	16.4205	56899	prompt	n/a	breathing respiratory phillips concerned\n
29.0725	0.15	58145	keystroke	b	n/a
29.2075	0.15	58415	keystroke	r	n/a
29.2675	0.18	58535	keystroke	e	n/a
29.3875	0.225	58775	keystroke	a	n/a
29.5665	0.151	59133	keystroke	t	n/a
29.7025	0.15	59405	keystroke	h	n/a
29.8375	0.195	59675	keystroke	i	n/a
29.9575	0.105	59915	keystroke	n	n/a
30.0465	0.121	60093	keystroke	g	n/a
30.1825	0.134	60365	keystroke	Key.space	n/a
30.3915	0.136	60783	keystroke	r	n/a
30.4965	0.136	60993	keystroke	e	n/a
30.8725	0.18	61745	keystroke	p	n/a
31.0975	0.165	62195	keystroke	i	n/a
31.2325	0.165	62465	keystroke	r	n/a
31.3675	0.225	62735	keystroke	a	n/a
31.5625	0.135	63125	keystroke	t	n/a
31.7575	0.18	63515	keystroke	o	n/a
31.9675	0.135	63935	keystroke	r	n/a
32.1765	0.076	64353	keystroke	y	n/a
32.3715	0.136	64743	keystroke	Key.space	n/a
32.5225	0.165	65045	keystroke	p	n/a
32.7175	0.15	65435	keystroke	h	n/a
33.2875	0.075	66575	keystroke	Key.backspace	n/a
33.4375	0.104	66875	keystroke	Key.backspace	n/a
33.6165	0.136	67233	keystroke	Key.backspace	n/a
33.7825	0.075	67565	keystroke	Key.backspace	n/a
33.9625	0.06	67925	keystroke	Key.backspace	n/a
34.1575	0.06	68315	keystroke	Key.backspace	n/a
34.3365	0.076	68673	keystroke	Key.backspace	n/a
34.5465	0.121	69093	keystroke	Key.backspace	n/a
35.7775	0.165	71555	keystroke	a	n/a
36.2725	0.12	72545	keystroke	t	n/a
36.3775	0.165	72755	keystroke	o	n/a
36.5425	0.15	73085	keystroke	r	n/a
36.8725	0.075	73745	keystroke	Key.backspace	n/a
37.0225	0.06	74045	keystroke	Key.backspace	n/a
37.1725	0.06	74345	keystroke	Key.backspace	n/a
37.3075	0.06	74615	keystroke	Key.backspace	n/a
37.4575	0.045	74915	keystroke	Key.backspace	n/a
37.6675	0.105	75335	keystroke	Key.backspace	n/a
37.9825	0.09	75965	keystroke	Key.backspace	n/a
38.1775	0.12	76355	keystroke	s	n/a
38.6875	0.255	77375	keystroke	p	n/a
39.0925	0.105	78185	keystroke	i	n/a
39.2575	0.165	78515	keystroke	r	n/a
39.4825	0.165	78965	keystroke	a	n/a
39.7825	0.12	79565	keystroke	t	n/a
39.9625	0.15	79925	keystroke	o	n/a
40.1125	0.12	80225	keystroke	r	n/a
40.2475	0.105	80495	keystroke	y	n/a
40.6825	0.12	81365	keystroke	Key.space	n/a
40.9525	0.135	81905	keystroke	p	n/a
41.1175	0.225	82235	keystroke	h	n/a
41.2825	0.21	82565	keystroke	i	n/a
41.5225	0.015	83045	keystroke	l	n/a
41.6275	0.12	83255	keystroke	l	n/a
42.1375	0.165	84275	keystroke	i	n/a
42.4675	0.135	84935	keystroke	p	n/a
42.6325	0.105	85265	keystroke	s	n/a
42.8125	0.135	85625	keystroke	Key.space	n/a
42.9775	0.105	85955	keystroke	c	n/a
43.1125	0.21	86225	keystroke	o	n/a
43.2625	0.135	86525	keystroke	n	n/a
43.4125	0.165	86825	keystroke	c	n/a
43.5625	0.15	87125	keystroke	e	n/a
43.6975	0.165	87395	keystroke	r	n/a
44.0125	0.09	88025	keystroke	n	n/a
44.1925	0.105	88385	keystroke	e	n/a
44.4475	0.12	88895	keystroke	d	n/a
44.7175	0.15	89435	keystroke	Key.enter	n/a
44.8755	14.065	89751	prompt	n/a	maximize proportion orders cure\n
45.5725	0.12	91145	keystroke	m	n/a
45.6775	0.12	91355	keystroke	a	n/a
46.0675	0.015	92135	keystroke	Key.cmd	n/a
46.3075	0.165	92615	keystroke	x	n/a
47.207	0.06	94414	keystroke	Key.space	n/a
50.105	0.072	100210	keystroke	x	n/a
51.047	0.09	102094	keystroke	i	n/a
51.437	0.12	102874	keystroke	m	n/a
51.632	0.15	103264	keystroke	i	n/a
51.962	0.165	103924	keystroke	z	n/a
52.202	0.18	104404	keystroke	e	n/a
52.622	0.135	105244	keystroke	Key.space	n/a
53.567	0.135	107134	keystroke	p	n/a
53.732	0.12	107464	keystroke	r	n/a
53.837	0.15	107674	keystroke	o	n/a
53.988	0.299	107976	keystroke	p	n/a
54.167	0.075	108334	keystroke	o	n/a
54.302	0.09	108604	keystroke	o	n/a
54.737	0.075	109474	keystroke	Key.backspace	n/a
54.962	0.135	109924	keystroke	r	n/a
55.397	0.12	110794	keystroke	t	n/a
55.532	0.12	111064	keystroke	i	n/a
55.592	0.21	111184	keystroke	o	n/a
55.742	0.105	111484	keystroke	n	n/a
56.222	0.12	112444	keystroke	Key.space	n/a
56.417	0.15	112834	keystroke	o	n/a
56.492	0.12	112984	keystroke	r	n/a
56.732	0.135	113464	keystroke	d	n/a
56.957	0.21	113914	keystroke	e	n/a
57.137	0.225	114274	keystroke	r	n/a
57.317	0.165	114634	keystroke	s	n/a
57.722	0.15	115444	keystroke	Key.space	n/a
58.098	0.119	116196	keystroke	c	n/a
58.337	0.165	116674	keystroke	u	n/a
58.487	0.136	116974	keystroke	r	n/a
58.577	0.135	117154	keystroke	e	n/a
58.787	0.15	117574	keystroke	Key.enter	n/a
58.9455	7.509	117891	prompt	n/a	trash federation channels attempts\n
59.612	0.135	119224	keystroke	t	n/a
59.853	0.134	119706	keystroke	r	n/a
59.913	0.224	119826	keystroke	a	n/a
60.108	0.164	120216	keystroke	s	n/a
60.287	0.165	120574	keystroke	h	n/a
60.437	0.15	120874	keystroke	Key.space	n/a
60.543	0.194	121086	keystroke	f	n/a
60.693	0.164	121386	keystroke	e	n/a
60.993	0.18	121986	keystroke	d	n/a
61.262	0.195	122524	keystroke	e	n/a
61.397	0.211	122794	keystroke	r	n/a
61.592	0.24	123184	keystroke	a	n/a
61.802	0.181	123604	keystroke	t	n/a
61.952	0.15	123904	keystroke	i	n/a
62.057	0.18	124114	keystroke	o	n/a
62.192	0.151	124384	keystroke	n	n/a
62.567	0.135	125134	keystroke	Key.space	n/a
63.198	0.164	126396	keystroke	c	n/a
63.377	0.12	126754	keystroke	h	n/a
63.498	0.164	126996	keystroke	a	n/a
63.677	0.06	127354	keystroke	n	n/a
63.828	0.119	127656	keystroke	n	n/a
63.932	0.166	127864	keystroke	e	n/a
64.113	0.15	128226	keystroke	l	n/a
64.278	0.105	128556	keystroke	s	n/a
64.412	0.165	128824	keystroke	Key.space	n/a
64.562	0.165	129124	keystroke	a	n/a
64.698	0.164	129396	keystroke	t	n/a
64.938	0.089	129876	keystroke	t	n/a
65.237	0.165	130474	keystroke	e	n/a
65.417	0.151	130834	keystroke	m	n/a
65.583	0.134	131166	keystroke	p	n/a
65.928	0.165	131856	keystroke	t	n/a
65.988	0.194	131976	keystroke	s	n/a
66.302	0.15	132604	keystroke	Key.enter	n/a
66.4635	7.446	132927	prompt	n/a	archive municipal hottest understand\n
67.008	0.224	134016	keystroke	a	n/a
67.218	0.135	134436	keystroke	r	n/a
67.5175	0.135	135035	keystroke	c	n/a
67.7125	0.15	135425	keystroke	h	n/a
67.7875	0.195	135575	keystroke	i	n/a
67.9675	0.18	135935	keystroke	v	n/a
68.0875	0.15	136175	keystroke	e	n/a
68.2225	0.135	136445	keystroke	Key.space	n/a
68.4025	0.105	136805	keystroke	m	n/a
68.6725	0.09	137345	keystroke	u	n/a
68.8975	0.225	137795	keystroke	n	n/a
69.0775	0.135	138155	keystroke	i	n/a
69.2275	0.105	138455	keystroke	c	n/a
69.5125	0.15	139025	keystroke	i	n/a
69.7525	0.12	139505	keystroke	p	n/a
70.0375	0.24	140075	keystroke	a	n/a
70.2925	0.12	140585	keystroke	l	n/a
70.5775	0.15	141155	keystroke	Key.space	n/a
70.9975	0.165	141995	keystroke	h	n/a
71.1025	0.18	142205	keystroke	o	n/a
71.2225	0.09	142445	keystroke	t	n/a
71.3875	0.21	142775	keystroke	t	n/a
71.5075	0.21	143015	keystroke	e	n/a
71.6575	0.165	143315	keystroke	s	n/a
71.7925	0.12	143585	keystroke	t	n/a
71.9275	0.135	143855	keystroke	Key.space	n/a
72.1525	0.09	144305	keystroke	u	n/a
72.3625	0.135	144725	keystroke	n	n/a
72.4675	0.12	144935	keystroke	d	n/a
72.7075	0.165	145415	keystroke	e	n/a
72.7525	0.27	145505	keystroke	r	n/a
72.9175	0.195	145835	keystroke	s	n/a
73.1275	0.15	146255	keystroke	t	n/a
73.2325	0.15	146465	keystroke	a	n/a
73.4125	0.135	146825	keystroke	n	n/a
73.5775	0.135	147155	keystroke	d	n/a
73.7575	0.15	147515	keystroke	Key.enter	n/a
73.9145	7.646	147829	prompt	n/a	expanding damaged percent officially\n
74.4775	0.105	148955	keystroke	e	n/a
74.7625	0.135	149525	keystroke	x	n/a
74.9575	0.165	149915	keystroke	p	n/a
75.1525	0.18	150305	keystroke	a	n/a
75.3475	0.135	150695	keystroke	n	n/a
75.5125	0.15	151025	keystroke	d	n/a
75.7075	0.255	151415	keystroke	i	n/a
75.8725	0.105	151745	keystroke	n	n/a
76.0525	0.135	152105	keystroke	g	n/a
76.3075	0.135	152615	keystroke	Key.space	n/a
76.5325	0.15	153065	keystroke	d	n/a
76.6975	0.135	153395	keystroke	a	n/a
76.8625	0.105	153725	keystroke	m	n/a
76.9825	0.18	153965	keystroke	a	n/a
77.2675	0.135	154535	keystroke	g	n/a
77.3875	0.135	154775	keystroke	e	n/a
77.6725	0.105	155345	keystroke	d	n/a
77.8225	0.12	155645	keystroke	Key.space	n/a
78.0175	0.21	156035	keystroke	p	n/a
78.1375	0.15	156275	keystroke	e	n/a
78.2725	0.12	156545	keystroke	r	n/a
78.9325	0.165	157865	keystroke	c	n/a
79.0675	0.18	158135	keystroke	e	n/a
79.2775	0.135	158555	keystroke	n	n/a
79.4275	0.12	158855	keystroke	t	n/a
79.5775	0.12	159155	keystroke	Key.space	n/a
79.7575	0.15	159515	keystroke	o	n/a
79.8925	0.09	159785	keystroke	f	n/a
80.0725	0.12	160145	keystroke	f	n/a
80.2225	0.135	160445	keystroke	i	n/a
80.4025	0.135	160805	keystroke	c	n/a
80.5525	0.151	161105	keystroke	i	n/a
80.6425	0.195	161285	keystroke	a	n/a
80.8225	0.105	161645	keystroke	l	n/a
81.0025	0.105	162005	keystroke	l	n/a
81.2125	0.105	162425	keystroke	y	n/a
81.4525	0.105	162905	keystroke	Key.enter	n/a
81.566	7.359	163132	prompt	n/a	savage fuel prediction tribes\n
82.1275	0.21	164255	keystroke	s	n/a
82.2925	0.18	164585	keystroke	a	n/a
82.5035	0.179	165007	keystroke	v	n/a
82.6225	0.165	165245	keystroke	a	n/a
83.2975	0.135	166595	keystroke	g	n/a
83.4025	0.18	166805	keystroke	e	n/a
83.6875	0.15	167375	keystroke	Key.space	n/a
83.9425	0.12	167885	keystroke	f	n/a
84.1225	0.15	168245	keystroke	u	n/a
84.2575	0.135	168515	keystroke	e	n/a
84.4225	0.105	168845	keystroke	l	n/a
84.5725	0.15	169145	keystroke	Key.space	n/a
84.7675	0.18	169535	keystroke	p	n/a
84.9025	0.12	169805	keystroke	r	n/a
84.9775	0.165	169955	keystroke	e	n/a
85.2775	0.135	170555	keystroke	d	n/a
85.4585	0.15	170917	keystroke	i	n/a
85.6535	0.104	171307	keystroke	c	n/a
86.0275	0.12	172055	keystroke	t	n/a
86.1485	0.119	172297	keystroke	i	n/a
86.2375	0.24	172475	keystroke	o	n/a
86.4175	0.135	172835	keystroke	n	n/a
86.5225	0.15	173045	keystroke	Key.space	n/a
86.6575	0.12	173315	keystroke	t	n/a
86.8835	0.149	173767	keystroke	r	n/a
87.0025	0.12	174005	keystroke	i	n/a
87.2125	0.105	174425	keystroke	b	n/a
87.4375	0.15	174875	keystroke	u	n/a
87.5735	0.194	175147	keystroke	e	n/a
87.8875	0.09	175775	keystroke	Key.backspace	n/a
88.0375	0.12	176075	keystroke	Key.backspace	n/a
88.1285	0.165	176257	keystroke	e	n/a
88.2485	0.15	176497	keystroke	s	n/a
88.7725	0.15	177545	keystroke	Key.enter	n/a
88.93	8.995	177860	prompt	n/a	child calculated gorgeous typing\n
89.6435	0.18	179287	keystroke	c	n/a
89.8375	0.18	179675	keystroke	h	n/a
89.9125	0.165	179825	keystroke	i	n/a
89.9735	0.194	179947	keystroke	l	n/a
90.1535	0.074	180307	keystroke	d	n/a
90.2875	0.15	180575	keystroke	Key.space	n/a
90.5435	0.15	181087	keystroke	c	n/a
90.6485	0.164	181297	keystroke	a	n/a
90.7825	0.135	181565	keystroke	l	n/a
91.2485	0.12	182497	keystroke	c	n/a
91.4135	0.15	182827	keystroke	u	n/a
91.5175	0.18	183035	keystroke	l	n/a
91.8035	0.18	183607	keystroke	a	n/a
92.0125	0.121	184025	keystroke	t	n/a
92.1035	0.149	184207	keystroke	e	n/a
92.3735	0.164	184747	keystroke	d	n/a
92.5675	0.15	185135	keystroke	Key.space	n/a
92.8985	0.119	185797	keystroke	g	n/a
93.0485	0.15	186097	keystroke	o	n/a
93.1825	0.15	186365	keystroke	r	n/a
93.4375	0.166	186875	keystroke	e	n/a
94.2035	0.104	188407	keystroke	Key.backspace	n/a
94.3675	0.12	188735	keystroke	Key.backspace	n/a
95.3875	0.121	190775	keystroke	r	n/a
95.7335	0.15	191467	keystroke	g	n/a
96.0035	0.134	192007	keystroke	e	n/a
96.1535	0.225	192307	keystroke	o	n/a
96.3025	0.151	192605	keystroke	u	n/a
96.4375	0.076	192875	keystroke	s	n/a
96.5575	0.12	193115	keystroke	Key.space	n/a
96.7825	0.151	193565	keystroke	t	n/a
96.9485	0.18	193897	keystroke	y	n/a
97.0675	0.196	194135	keystroke	p	n/a
97.3085	0.255	194617	keystroke	i	n/a
97.4435	0.135	194887	keystroke	n	n/a
97.6385	0.12	195277	keystroke	g	n/a
97.7885	0.134	195577	keystroke	Key.enter	n/a
97.93	8.6055	195860	prompt	n/a	patent student kingdom farming\n
98.5385	0.18	197077	keystroke	p	n/a
98.6875	0.166	197375	keystroke	a	n/a
98.8385	0.165	197677	keystroke	t	n/a
98.9885	0.18	197977	keystroke	e	n/a
99.2875	0.136	198575	keystroke	n	n/a
99.4835	0.105	198967	keystroke	t	n/a
99.6175	0.151	199235	keystroke	Key.space	n/a
99.8285	0.165	199657	keystroke	s	n/a
99.9785	0.15	199957	keystroke	t	n/a
100.1585	0.12	200317	keystroke	u	n/a
100.2935	0.15	200587	keystroke	d	n/a
100.6985	0.15	201397	keystroke	e	n/a
100.8935	0.135	201787	keystroke	n	n/a
101.1185	0.12	202237	keystroke	t	n/a
101.4485	0.15	202897	keystroke	Key.space	n/a
101.7185	0.089	203437	keystroke	k	n/a
101.9135	0.225	203827	keystroke	i	n/a
102.0335	0.12	204067	keystroke	n	n/a
102.1535	0.12	204307	keystroke	d	n/a
102.6025	0.091	205205	keystroke	g	n/a
102.9785	0.089	205957	keystroke	Key.backspace	n/a
103.1275	0.091	206255	keystroke	Key.backspace	n/a
103.2335	0.165	206467	keystroke	g	n/a
103.5485	0.135	207097	keystroke	d	n/a
103.7285	0.045	207457	keystroke	o	n/a
103.8335	0.24	207667	keystroke	o	n/a
104.0435	0.135	208087	keystroke	m	n/a
104.4335	0.075	208867	keystroke	Key.backspace	n/a
104.5685	0.09	209137	keystroke	Key.backspace	n/a
104.8085	0.135	209617	keystroke	m	n/a
105.1385	0.105	210277	keystroke	Key.space	n/a
105.3785	0.18	210757	keystroke	f	n/a
105.5135	0.225	211027	keystroke	a	n/a
105.6785	0.135	211357	keystroke	r	n/a
105.7835	0.105	211567	keystroke	m	n/a
105.9935	0.225	211987	keystroke	i	n/a
106.1135	0.15	212227	keystroke	n	n/a
106.2785	0.12	212557	keystroke	g	n/a
106.3835	0.15	212767	keystroke	Key.enter	n/a
106.5405	5.619	213081	prompt	n/a	to northern brunei documents\n
107.1035	0.15	214207	keystroke	t	n/a
107.2385	0.165	214477	keystroke	o	n/a
107.3585	0.195	214717	keystroke	Key.space	n/a
107.5235	0.15	215047	keystroke	n	n/a
107.5985	0.195	215197	keystroke	o	n/a
107.7335	0.15	215467	keystroke	r	n/a
107.9735	0.135	215947	keystroke	t	n/a
108.1835	0.165	216367	keystroke	h	n/a
108.3635	0.15	216727	keystroke	e	n/a
108.4685	0.135	216937	keystroke	r	n/a
108.6185	0.135	217237	keystroke	n	n/a
108.7835	0.105	217567	keystroke	Key.space	n/a
108.9935	0.12	217987	keystroke	b	n/a
109.1285	0.12	218257	keystroke	r	n/a
109.3085	0.105	218617	keystroke	u	n/a
109.5335	0.135	219067	keystroke	n	n/a
109.6835	0.135	219367	keystroke	e	n/a
109.8335	0.135	219667	keystroke	i	n/a
110.0885	0.135	220177	keystroke	Key.space	n/a
110.5535	0.12	221107	keystroke	d	n/a
110.6745	0.164	221349	keystroke	o	n/a
110.8235	0.165	221647	keystroke	c	n/a
110.9735	0.09	221947	keystroke	u	n/a
111.2135	0.12	222427	keystroke	m	n/a
111.3485	0.12	222697	keystroke	e	n/a
111.4535	0.15	222907	keystroke	n	n/a
111.6185	0.195	223237	keystroke	t	n/a
111.723	0.1355	223446	keystroke	s	n/a
112.0235	0.135	224047	keystroke	Key.enter	n/a
112.1655	7.3895	224331	prompt	n/a	empty jaguar loops preservation\n
112.788	0.12	225576	keystroke	e	n/a
112.893	0.135	225786	keystroke	m	n/a
113.103	0.1505	226206	keystroke	p	n/a
113.2835	0.1345	226567	keystroke	t	n/a
113.463	0.105	226926	keystroke	y	n/a
113.6135	0.135	227227	keystroke	Key.space	n/a
113.793	0.1805	227586	keystroke	j	n/a
113.943	0.15	227886	keystroke	a	n/a
114.3785	0.1345	228757	keystroke	g	n/a
114.558	0.1205	229116	keystroke	u	n/a
114.738	0.105	229476	keystroke	a	n/a
115.038	0.135	230076	keystroke	r	n/a
115.248	0.165	230496	keystroke	Key.space	n/a
115.638	0.105	231276	keystroke	l	n/a
115.833	0.075	231666	keystroke	o	n/a
116.013	0.09	232026	keystroke	o	n/a
116.148	0.151	232296	keystroke	p	n/a
116.313	0.12	232626	keystroke	s	n/a
116.523	0.105	233046	keystroke	Key.space	n/a
116.733	0.15	233466	keystroke	p	n/a
116.838	0.135	233676	keystroke	r	n/a
116.913	0.195	233826	keystroke	e	n/a
117.018	0.27	234036	keystroke	s	n/a
117.243	0.1655	234486	keystroke	e	n/a
117.348	0.15	234696	keystroke	r	n/a
117.648	0.15	235296	keystroke	v	n/a
118.428	0.225	236856	keystroke	a	n/a
118.638	0.12	237276	keystroke	t	n/a
118.788	0.15	237576	keystroke	i	n/a
118.893	0.18	237786	keystroke	o	n/a
119.043	0.09	238086	keystroke	n	n/a
119.418	0.135	238836	keystroke	Key.enter	n/a
119.5605	8.47	239121	prompt	n/a	closure concentrate boulevard cattle\n
120.333	0.135	240666	keystroke	c	n/a
120.453	0.075	240906	keystroke	l	n/a
120.633	0.135	241266	keystroke	o	n/a
120.783	0.135	241566	keystroke	s	n/a
120.993	0.135	241986	keystroke	u	n/a
121.158	0.135	242316	keystroke	r	n/a
121.233	0.15	242466	keystroke	e	n/a
121.413	0.135	242826	keystroke	Key.space	n/a
121.533	0.15	243066	keystroke	c	n/a
121.668	0.225	243336	keystroke	o	n/a
121.773	0.15	243546	keystroke	n	n/a
121.983	0.12	243966	keystroke	c	n/a
122.418	0.15	244836	keystroke	e	n/a
122.643	0.12	245286	keystroke	n	n/a
122.808	0.105	245616	keystroke	t	n/a
123.033	0.21	246066	keystroke	r	n/a
123.168	0.195	246336	keystroke	a	n/a
123.378	0.12	246756	keystroke	t	n/a
123.423	0.165	246846	keystroke	e	n/a
123.573	0.135	247146	keystroke	Key.space	n/a
123.738	0.06	247476	keystroke	c	n/a
123.888	0.06	247776	keystroke	b	n/a
124.098	0.09	248196	keystroke	Key.backspace	n/a
124.323	0.09	248646	keystroke	Key.backspace	n/a
124.698	0.15	249396	keystroke	b	n/a
124.923	0.21	249846	keystroke	o	n/a
125.088	0.12	250176	keystroke	u	n/a
125.253	0.15	250506	keystroke	l	n/a
125.418	0.12	250836	keystroke	e	n/a
125.763	0.165	251526	keystroke	v	n/a
125.943	0.225	251886	keystroke	a	n/a
126.108	0.136	252216	keystroke	r	n/a
126.378	0.105	252756	keystroke	d	n/a
126.528	0.15	253056	keystroke	Key.space	n/a
126.873	0.165	253746	keystroke	c	n/a
126.978	0.225	253956	keystroke	a	n/a
127.218	0.105	254436	keystroke	t	n/a
127.398	0.135	254796	keystroke	t	n/a
127.548	0.15	255096	keystroke	l	n/a
127.683	0.15	255366	keystroke	e	n/a
127.878	0.15	255756	keystroke	Key.enter	n/a
128.036	5.648	256072	prompt	n/a	will attitude ultram shell\n
128.598	0.15	257196	keystroke	w	n/a
128.733	0.135	257466	keystroke	i	n/a
128.808	0.105	257616	keystroke	l	n/a
129.003	0.09	258006	keystroke	l	n/a
129.138	0.165	258276	keystroke	Key.space	n/a
129.348	0.15	258696	keystroke	a	n/a
129.633	0.12	259266	keystroke	t	n/a
129.843	0.135	259686	keystroke	t	n/a
130.008	0.15	260016	keystroke	i	n/a
130.308	0.12	260616	keystroke	t	n/a
130.833	0.165	261666	keystroke	u	n/a
130.983	0.09	261966	keystroke	d	n/a
131.223	0.15	262446	keystroke	e	n/a
131.358	0.15	262716	keystroke	Key.space	n/a
131.778	0.135	263556	keystroke	u	n/a
131.883	0.18	263766	keystroke	l	n/a
132.078	0.105	264156	keystroke	t	n/a
132.288	0.18	264576	keystroke	r	n/a
132.393	0.165	264786	keystroke	a	n/a
132.543	0.09	265086	keystroke	m	n/a
132.678	0.135	265356	keystroke	Key.space	n/a
132.768	0.12	265536	keystroke	s	n/a
132.933	0.1195	265866	keystroke	h	n/a
133.0675	0.15	266135	keystroke	e	n/a
133.1725	0.075	266345	keystroke	l	n/a
133.3225	0.105	266645	keystroke	l	n/a
133.5475	0.135	267095	keystroke	Key.enter	n/a
133.689	12.731	267378	prompt	n/a	credit efficiently prescribed hebrew\n
135.6475	0.165	271295	keystroke	c	n/a
135.9775	0.165	271955	keystroke	r	n/a
136.1125	0.12	272225	keystroke	e	n/a
136.3675	0.18	272735	keystroke	d	n/a
136.8475	0.135	273695	keystroke	i	n/a
136.9975	0.135	273995	keystroke	t	n/a
137.3425	0.15	274685	keystroke	Key.space	n/a
137.5225	0.165	275045	keystroke	e	n/a
137.7325	0.12	275465	keystroke	f	n/a
137.9575	0.15	275915	keystroke	f	n/a
138.1225	0.18	276245	keystroke	i	n/a
138.2275	0.15	276455	keystroke	e	n/a
138.5275	0.12	277055	keystroke	c	n/a
138.7825	0.075	277565	keystroke	Key.backspace	n/a
138.9325	0.075	277865	keystroke	Key.backspace	n/a
139.0225	0.165	278045	keystroke	c	n/a
139.2925	0.165	278585	keystroke	i	n/a
139.3685	0.179	278737	keystroke	e	n/a
139.6075	0.12	279215	keystroke	n	n/a
139.7425	0.165	279485	keystroke	t	n/a
139.9525	0.12	279905	keystroke	l	n/a
140.2225	0.09	280445	keystroke	y	n/a
140.4325	0.15	280865	keystroke	Key.space	n/a
140.6575	0.18	281315	keystroke	p	n/a
140.8075	0.151	281615	keystroke	r	n/a
141.0485	0.254	282097	keystroke	e	n/a
141.2275	0.165	282455	keystroke	s	n/a
141.6025	0.105	283205	keystroke	c	n/a
141.8585	0.15	283717	keystroke	r	n/a
141.9935	0.119	283987	keystroke	i	n/a
142.2175	0.09	284435	keystroke	b	n/a
142.2935	0.105	284587	keystroke	e	n/a
142.5325	0.09	285065	keystroke	d	n/a
142.6375	0.135	285275	keystroke	Key.space	n/a
143.1475	0.105	286295	keystroke	h	n/a
143.1625	0.06	286325	keystroke	g	n/a
143.5385	0.044	287077	keystroke	=	n/a
143.5835	0.089	287167	keystroke	Key.backspace	n/a
144.6475	0.09	289295	keystroke	Key.backspace	n/a
145.0835	0.135	290167	keystroke	e	n/a
145.5935	0.119	291187	keystroke	b	n/a
145.8025	0.195	291605	keystroke	r	n/a
145.8625	0.195	291725	keystroke	e	n/a
145.9675	0.166	291935	keystroke	w	n/a
146.2825	0.135	292565	keystroke	Key.enter	n/a
146.4245	7.0155	292849	prompt	n/a	teen pasta maine anthropology\n
147.1675	0.151	294335	keystroke	t	n/a
147.2735	0.165	294547	keystroke	e	n/a
147.5135	0.135	295027	keystroke	e	n/a
147.6635	0.134	295327	keystroke	n	n/a
147.8125	0.136	295625	keystroke	Key.space	n/a
148.0085	0.164	296017	keystroke	p	n/a
148.1125	0.226	296225	keystroke	a	n/a
148.2935	0.134	296587	keystroke	s	n/a
148.4885	0.15	296977	keystroke	t	n/a
148.5775	0.195	297155	keystroke	a	n/a
148.9085	0.134	297817	keystroke	Key.space	n/a
149.1785	0.119	298357	keystroke	m	n/a
149.2835	0.15	298567	keystroke	a	n/a
149.4185	0.254	298837	keystroke	i	n/a
149.5385	0.18	299077	keystroke	n	n/a
149.8075	0.12	299615	keystroke	e	n/a
150.0925	0.135	300185	keystroke	Key.space	n/a
150.3935	0.195	300787	keystroke	a	n/a
150.5135	0.164	301027	keystroke	n	n/a
150.7085	0.15	301417	keystroke	t	n/a
150.8735	0.12	301747	keystroke	h	n/a
151.0525	0.121	302105	keystroke	r	n/a
151.1885	0.105	302377	keystroke	o	n/a
151.4575	0.166	302915	keystroke	p	n/a
151.5635	0.195	303127	keystroke	o	n/a
151.8785	0.075	303757	keystroke	l	n/a
152.1035	0.15	304207	keystroke	o	n/a
152.3135	0.105	304627	keystroke	g	n/a
152.9285	0.12	305857	keystroke	y	n/a
153.3185	0.12	306637	keystroke	Key.enter	n/a
153.4475	9.818	306895	prompt	n/a	rendering supervisors dial exploration\n
155.1335	0.18	310267	keystroke	r	n/a
155.2235	0.179	310447	keystroke	e	n/a
155.4335	0.12	310867	keystroke	n	n/a
155.6135	0.12	311227	keystroke	d	n/a
155.8535	0.194	311707	keystroke	e	n/a
156.0035	0.179	312007	keystroke	r	n/a
156.1985	0.27	312397	keystroke	i	n/a
156.3335	0.12	312667	keystroke	n	n/a
156.5135	0.135	313027	keystroke	g	n/a
156.6335	0.15	313267	keystroke	Key.space	n/a
156.7685	0.12	313537	keystroke	s	n/a
156.9185	0.15	313837	keystroke	u	n/a
157.0385	0.165	314077	keystroke	p	n/a
157.2185	0.12	314437	keystroke	e	n/a
157.2485	0.18	314497	keystroke	r	n/a
157.6085	0.15	315217	keystroke	v	n/a
157.7435	0.18	315487	keystroke	i	n/a
157.8935	0.165	315787	keystroke	s	n/a
158.3285	0.165	316657	keystroke	o	n/a
158.5235	0.255	317047	keystroke	r	n/a
158.7335	0.165	317467	keystroke	s	n/a
159.1385	0.135	318277	keystroke	Key.space	n/a
159.5585	0.135	319117	keystroke	d	n/a
159.7235	0.135	319447	keystroke	i	n/a
159.8135	0.165	319627	keystroke	a	n/a
159.9935	0.15	319987	keystroke	l	n/a
160.1585	0.15	320317	keystroke	Key.space	n/a
160.3985	0.15	320797	keystroke	e	n/a
160.6985	0.195	321397	keystroke	x	n/a
161.2685	0.165	322537	keystroke	p	n/a
161.5685	0.105	323137	keystroke	l	n/a
161.7635	0.15	323527	keystroke	o	n/a
161.9285	0.21	323857	keystroke	r	n/a
162.1385	0.225	324277	keystroke	a	n/a
162.4985	0.15	324997	keystroke	t	n/a
162.6635	0.15	325327	keystroke	i	n/a
162.7685	0.195	325537	keystroke	o	n/a
162.9035	0.135	325807	keystroke	n	n/a
163.1435	0.12	326287	keystroke	Key.enter	n/a
163.2705	5.6655	326541	prompt	n/a	movies punk travis slip\n
163.9685	0.135	327937	keystroke	m	n/a
164.0885	0.18	328177	keystroke	o	n/a
164.2235	0.105	328447	keystroke	v	n/a
164.3885	0.12	328777	keystroke	i	n/a
164.4635	0.21	328927	keystroke	e	n/a
164.6285	0.135	329257	keystroke	s	n/a
164.9135	0.15	329827	keystroke	Key.space	n/a
165.1235	0.195	330247	keystroke	p	n/a
165.2585	0.165	330517	keystroke	u	n/a
165.5285	0.15	331057	keystroke	n	n/a
165.6335	0.165	331267	keystroke	k	n/a
165.8135	0.12	331627	keystroke	Key.space	n/a
166.0235	0.12	332047	keystroke	t	n/a
166.2485	0.18	332497	keystroke	r	n/a
166.3385	0.195	332677	keystroke	a	n/a
166.3535	0.015	332707	keystroke	w	n/a
166.5935	0.18	333187	keystroke	v	n/a
166.9085	0.075	333817	keystroke	Key.backspace	n/a
167.0285	0.135	334057	keystroke	Key.backspace	n/a
167.2535	0.12	334507	keystroke	v	n/a
167.4635	0.15	334927	keystroke	i	n/a
167.7485	0.135	335497	keystroke	s	n/a
167.9285	0.135	335857	keystroke	Key.space	n/a
168.0485	0.15	336097	keystroke	s	n/a
168.1835	0.18	336367	keystroke	l	n/a
168.3485	0.18	336697	keystroke	i	n/a
168.5135	0.15	337027	keystroke	p	n/a
168.8285	0.105	337657	keystroke	Key.enter	n/a
168.941	7.114	337882	prompt	n/a	serum clocks carmen parenting\n
170.5395	0.224	341079	keystroke	s	n/a
170.6585	0.18	341317	keystroke	e	n/a
170.7785	0.195	341557	keystroke	r	n/a
171.0635	0.09	342127	keystroke	u	n/a
171.3035	0.105	342607	keystroke	m	n/a
171.4385	0.165	342877	keystroke	Key.space	n/a
171.6185	0.12	343237	keystroke	c	n/a
171.7235	0.105	343447	keystroke	l	n/a
171.9485	0.12	343897	keystroke	o	n/a
172.0985	0.105	344197	keystroke	c	n/a
172.2185	0.15	344437	keystroke	k	n/a
172.3985	0.105	344797	keystroke	s	n/a
172.5935	0.12	345187	keystroke	Key.space	n/a
172.8485	0.255	345697	keystroke	c	n/a
173.0885	0.21	346177	keystroke	a	n/a
173.2535	0.135	346507	keystroke	r	n/a
173.4485	0.1495	346897	keystroke	m	n/a
173.613	0.1345	347226	keystroke	e	n/a
173.7625	0.105	347525	keystroke	n	n/a
174.017	0.12	348034	keystroke	Key.space	n/a
174.3165	0.1495	348633	keystroke	p	n/a
174.481	0.2245	348962	keystroke	a	n/a
174.661	0.1795	349322	keystroke	r	n/a
174.7955	0.1945	349591	keystroke	e	n/a
175.005	0.12	350010	keystroke	n	n/a
175.1695	0.12	350339	keystroke	t	n/a
175.3195	0.2695	350639	keystroke	i	n/a
175.439	0.151	350878	keystroke	n	n/a
175.604	0.0895	351208	keystroke	g	n/a
175.8885	0.1645	351777	keystroke	Key.enter	n/a
176.061	8.5125	352122	prompt	n/a	protective reviewer mens cafe\n
176.8615	0.18	353723	keystroke	p	n/a
177.356	0.1355	354712	keystroke	r	n/a
177.611	0.121	355222	keystroke	e	n/a
177.9865	0.105	355973	keystroke	Key.backspace	n/a
178.271	0.1495	356542	keystroke	o	n/a
178.4965	0.1495	356993	keystroke	t	n/a
178.631	0.165	357262	keystroke	e	n/a
178.8855	0.151	357771	keystroke	c	n/a
179.231	0.12	358462	keystroke	t	n/a
179.366	0.1505	358732	keystroke	i	n/a
179.5465	0.1945	359093	keystroke	v	n/a
179.726	0.165	359452	keystroke	e	n/a
179.9665	0.1195	359933	keystroke	Key.space	n/a
180.5365	0.1195	361073	keystroke	r	n/a
180.626	0.135	361252	keystroke	e	n/a
180.8505	0.151	361701	keystroke	v	n/a
181.0465	0.1795	362093	keystroke	i	n/a
181.151	0.1945	362302	keystroke	e	n/a
181.271	0.2855	362542	keystroke	w	n/a
181.5265	0.1645	363053	keystroke	e	n/a
181.691	0.15	363382	keystroke	r	n/a
182.156	0.15	364312	keystroke	Key.space	n/a
182.4865	0.09	364973	keystroke	m	n/a
182.5465	0.2095	365093	keystroke	e	n/a
182.741	0.1195	365482	keystroke	n	n/a
182.846	0.1205	365692	keystroke	s	n/a
183.0565	0.134	366113	keystroke	Key.space	n/a
183.2365	0.1655	366473	keystroke	c	n/a
183.3865	0.2405	366773	keystroke	a	n/a
183.8065	0.2105	367613	keystroke	f	n/a
184.002	0.1795	368004	keystroke	e	n/a
184.422	0.15	368844	keystroke	Key.enter	n/a
184.5795	8.1845	369159	prompt	n/a	infant grass aircraft climbing\n
186.386	0.2405	372772	keystroke	i	n/a
186.4915	0.225	372983	keystroke	n	n/a
186.6265	0.1345	373253	keystroke	f	n/a
186.7315	0.1645	373463	keystroke	a	n/a
186.942	0.1195	373884	keystroke	n	n/a
187.1665	0.135	374333	keystroke	t	n/a
187.4215	0.1355	374843	keystroke	Key.space	n/a
187.6615	0.12	375323	keystroke	g	n/a
187.8865	0.1955	375773	keystroke	r	n/a
188.007	0.2845	376014	keystroke	a	n/a
188.2465	0.135	376493	keystroke	s	n/a
188.4415	0.1505	376883	keystroke	s	n/a
188.562	0.1495	377124	keystroke	Key.space	n/a
188.9215	0.0755	377843	keystroke	i	n/a
189.2515	0.09	378503	keystroke	Key.backspace	n/a
189.3865	0.1205	378773	keystroke	a	n/a
189.537	0.135	379074	keystroke	i	n/a
189.732	0.1195	379464	keystroke	r	n/a
190.137	0.135	380274	keystroke	c	n/a
190.392	0.18	380784	keystroke	r	n/a
190.527	0.165	381054	keystroke	a	n/a
190.707	0.1795	381414	keystroke	f	n/a
191.022	0.12	382044	keystroke	t	n/a
191.172	0.1345	382344	keystroke	Key.space	n/a
191.3665	0.1655	382733	keystroke	c	n/a
191.487	0.15	382974	keystroke	l	n/a
191.562	0.2245	383124	keystroke	i	n/a
191.7415	0.135	383483	keystroke	m	n/a
191.9965	0.18	383993	keystroke	b	n/a
192.1615	0.2545	384323	keystroke	i	n/a
192.326	0.135	384652	keystroke	n	n/a
192.446	0.1355	384892	keystroke	g	n/a
192.6115	0.15	385223	keystroke	Key.enter	n/a
192.7685	7.96	385537	prompt	n/a	metallic publication lunch rent\n
193.4065	0.1205	386813	keystroke	m	n/a
193.528	0.1785	387056	keystroke	e	n/a
193.7515	0.165	387503	keystroke	t	n/a
193.9315	0.1355	387863	keystroke	a	n/a
194.112	0.075	388224	keystroke	l	n/a
194.2615	0.21	388523	keystroke	l	n/a
194.4115	0.1655	388823	keystroke	i	n/a
194.577	0.15	389154	keystroke	c	n/a
194.682	0.1345	389364	keystroke	Key.space	n/a
194.8765	0.18	389753	keystroke	p	n/a
195.0115	0.1055	390023	keystroke	u	n/a
195.2965	0.03	390593	keystroke	h	n/a
195.7315	0.06	391463	keystroke	Key.backspace	n/a
196.0165	0.1205	392033	keystroke	b	n/a
196.3765	0.015	392753	keystroke	l	n/a
196.4515	0.165	392903	keystroke	l	n/a
196.9165	0.09	393833	keystroke	Key.backspace	n/a
197.172	0.165	394344	keystroke	i	n/a
197.352	0.1795	394704	keystroke	c	n/a
197.4865	0.2105	394973	keystroke	a	n/a
197.742	0.1495	395484	keystroke	t	n/a
197.9965	0.1655	395993	keystroke	i	n/a
198.147	0.2095	396294	keystroke	o	n/a
198.3115	0.12	396623	keystroke	n	n/a
198.5965	0.1355	397193	keystroke	Key.space	n/a
198.8815	0.135	397763	keystroke	l	n/a
199.0465	0.1505	398093	keystroke	u	n/a
199.3315	0.12	398663	keystroke	n	n/a
199.5115	0.1505	399023	keystroke	c	n/a
199.6315	0.1205	399263	keystroke	h	n/a
199.7965	0.135	399593	keystroke	Key.space	n/a
199.9315	0.135	399863	keystroke	r	n/a
200.0365	0.1355	400073	keystroke	e	n/a
200.187	0.1195	400374	keystroke	n	n/a
200.3665	0.12	400733	keystroke	t	n/a
200.5615	0.1655	401123	keystroke	Key.enter	n/a
200.7335	5.546	401467	prompt	n/a	bedroom it happened study\n
201.3715	0.12	402743	keystroke	b	n/a
201.4015	0.135	402803	keystroke	e	n/a
201.686	0.1655	403372	keystroke	d	n/a
201.9865	0.135	403973	keystroke	r	n/a
202.1065	0.075	404213	keystroke	o	n/a
202.272	0.1945	404544	keystroke	o	n/a
202.3915	0.15	404783	keystroke	m	n/a
202.6465	0.1205	405293	keystroke	Key.space	n/a
202.827	0.15	405654	keystroke	i	n/a
203.007	0.1495	406014	keystroke	t	n/a
203.1415	0.1205	406283	keystroke	Key.space	n/a
203.337	0.15	406674	keystroke	h	n/a
203.472	0.1345	406944	keystroke	a	n/a
203.5765	0.1505	407153	keystroke	p	n/a
203.757	0.135	407514	keystroke	p	n/a
203.862	0.1195	407724	keystroke	e	n/a
204.0415	0.09	408083	keystroke	n	n/a
204.1015	0.15	408203	keystroke	e	n/a
204.4315	0.105	408863	keystroke	d	n/a
204.5515	0.105	409103	keystroke	Key.space	n/a
205.0165	0.12	410033	keystroke	s	n/a
205.3915	0.15	410783	keystroke	t	n/a
205.5565	0.1355	411113	keystroke	u	n/a
205.7515	0.135	411503	keystroke	d	n/a
205.9015	0.15	411803	keystroke	y	n/a
206.1565	0.1205	412313	keystroke	Key.enter	n/a
206.29	10.0095	412580	prompt	n/a	industries discussed springs virtual\n
206.8915	0.21	413783	keystroke	i	n/a
206.9965	0.135	413993	keystroke	n	n/a
207.1325	0.1045	414265	keystroke	d	n/a
207.4615	0.135	414923	keystroke	u	n/a
207.6265	0.1955	415253	keystroke	s	n/a
207.777	0.135	415554	keystroke	t	n/a
208.0615	0.1505	416123	keystroke	r	n/a
208.242	0.165	416484	keystroke	i	n/a
208.452	0.1945	416904	keystroke	e	n/a
208.5715	0.1805	417143	keystroke	s	n/a
209.1415	0.1355	418283	keystroke	Key.space	n/a
209.4115	0.135	418823	keystroke	d	n/a
209.5765	0.165	419153	keystroke	i	n/a
209.9965	0.105	419993	keystroke	s	n/a
210.642	0.2695	421284	keystroke	c	n/a
210.9125	0.119	421825	keystroke	u	n/a
211.1965	0.165	422393	keystroke	r	n/a
211.5415	0.09	423083	keystroke	s	n/a
211.7515	0.12	423503	keystroke	Key.backspace	n/a
211.9465	0.105	423893	keystroke	Key.backspace	n/a
212.0665	0.12	424133	keystroke	s	n/a
212.3215	0.165	424643	keystroke	s	n/a
212.4265	0.18	424853	keystroke	e	n/a
212.7415	0.165	425483	keystroke	d	n/a
212.9965	0.15	425993	keystroke	Key.space	n/a
213.1915	0.18	426383	keystroke	s	n/a
213.3265	0.15	426653	keystroke	p	n/a
213.687	0.1795	427374	keystroke	r	n/a
213.8525	0.269	427705	keystroke	i	n/a
214.0165	0.135	428033	keystroke	n	n/a
214.182	0.1945	428364	keystroke	g	n/a
214.3015	0.195	428603	keystroke	s	n/a
214.5865	0.1355	429173	keystroke	Key.space	n/a
214.9615	0.135	429923	keystroke	v	n/a
215.187	0.2105	430374	keystroke	i	n/a
215.3665	0.15	430733	keystroke	r	n/a
215.622	0.165	431244	keystroke	t	n/a
215.727	0.1645	431454	keystroke	u	n/a
215.9065	0.105	431813	keystroke	a	n/a
215.9965	0.105	431993	keystroke	l	n/a
216.222	0.0745	432444	keystroke	Key.enter	n/a
216.304	17.1255	432608	prompt	n/a	behalf participant stadium deadline\n
219.8395	0.072	439679	keystroke	b	n/a
219.8965	0.165	439793	keystroke	e	n/a
220.2115	0.105	440423	keystroke	h	n/a
220.5865	0.135	441173	keystroke	s	n/a
221.2015	0.12	442403	keystroke	Key.backspace	n/a
221.3675	0.209	442735	keystroke	a	n/a
221.757	0.1045	443514	keystroke	l	n/a
221.8915	0.135	443783	keystroke	f	n/a
222.1315	0.09	444263	keystroke	Key.space	n/a
224.187	0.015	448374	keystroke	j	n/a
224.8615	0.15	449723	keystroke	Key.backspace	n/a
225.5825	0.104	451165	keystroke	p	n/a
225.7465	0.18	451493	keystroke	a	n/a
226.3165	0.121	452633	keystroke	r	n/a
226.6625	0.15	453325	keystroke	t	n/a
226.8275	0.179	453655	keystroke	i	n/a
227.0815	0.151	454163	keystroke	c	n/a
227.2465	0.136	454493	keystroke	i	n/a
227.4265	0.165	454853	keystroke	p	n/a
227.6365	0.165	455273	keystroke	a	n/a
227.8025	0.165	455605	keystroke	n	n/a
227.9825	0.15	455965	keystroke	t	n/a
228.1765	0.121	456353	keystroke	Key.space	n/a
228.4775	0.18	456955	keystroke	s	n/a
228.6125	0.179	457225	keystroke	t	n/a
229.1525	0.1205	458305	keystroke	a	n/a
229.437	0.1355	458874	keystroke	t	n/a
230.0375	0.119	460075	keystroke	Key.backspace	n/a
230.3825	0.104	460765	keystroke	d	n/a
230.5925	0.119	461185	keystroke	i	n/a
230.8025	0.105	461605	keystroke	u	n/a
231.1025	0.075	462205	keystroke	m	n/a
231.3115	0.105	462623	keystroke	Key.space	n/a
231.5975	0.15	463195	keystroke	d	n/a
231.8675	0.224	463735	keystroke	e	n/a
232.0325	0.18	464065	keystroke	a	n/a
232.3025	0.134	464605	keystroke	d	n/a
232.5115	0.2415	465023	keystroke	l	n/a
232.6315	0.226	465263	keystroke	i	n/a
232.738	0.1495	465476	keystroke	n	n/a
232.9025	0.135	465805	keystroke	e	n/a
233.2615	0.166	466523	keystroke	Key.enter	n/a
233.434	10.0755	466868	prompt	n/a	howto tactics candle fabulous\n
234.3725	0.209	468745	keystroke	h	n/a
234.4625	0.195	468925	keystroke	o	n/a
234.5975	0.135	469195	keystroke	w	n/a
234.8825	0.135	469765	keystroke	t	n/a
235.0475	0.12	470095	keystroke	o	n/a
235.2865	0.15	470573	keystroke	Key.space	n/a
235.5425	0.195	471085	keystroke	t	n/a
235.6925	0.18	471385	keystroke	a	n/a
235.9775	0.195	471955	keystroke	c	n/a
236.4275	0.134	472855	keystroke	t	n/a
236.9365	0.105	473873	keystroke	Key.backspace	n/a
237.3425	0.015	474685	keystroke	w	n/a
237.3575	0.135	474715	keystroke	t	n/a
237.5075	0.135	475015	keystroke	i	n/a
237.823	0.089	475646	keystroke	Key.backspace	n/a
237.9575	0.0745	475915	keystroke	Key.backspace	n/a
238.1065	0.105	476213	keystroke	Key.backspace	n/a
238.318	0.1495	476636	keystroke	t	n/a
238.7225	0.12	477445	keystroke	i	n/a
238.9025	0.195	477805	keystroke	c	n/a
239.0375	0.135	478075	keystroke	s	n/a
239.3665	0.12	478733	keystroke	Key.space	n/a
239.9225	0.18	479845	keystroke	c	n/a
240.0425	0.165	480085	keystroke	a	n/a
240.2675	0.135	480535	keystroke	n	n/a
240.4175	0.165	480835	keystroke	d	n/a
240.6125	0.135	481225	keystroke	l	n/a
240.7625	0.105	481525	keystroke	e	n/a
240.9425	0.164	481885	keystroke	Key.space	n/a
241.348	0.119	482696	keystroke	f	n/a
241.408	0.21	482816	keystroke	a	n/a
241.6775	0.1205	483355	keystroke	b	n/a
242.143	0.15	484286	keystroke	u	n/a
242.338	0.12	484676	keystroke	l	n/a
242.5775	0.225	485155	keystroke	o	n/a
242.7275	0.1205	485455	keystroke	u	n/a
242.878	0.15	485756	keystroke	s	n/a
243.343	0.165	486686	keystroke	Key.enter	n/a
243.515	9.324	487030	prompt	n/a	blvd shouldn't've anime usda\n
244.243	0.075	488486	keystroke	b	n/a
244.663	0.135	489326	keystroke	l	n/a
244.873	0.1195	489746	keystroke	d	n/a
245.2475	0.12	490495	keystroke	Key.backspace	n/a
245.3225	0.165	490645	keystroke	v	n/a
245.5475	0.12	491095	keystroke	d	n/a
245.983	0.1345	491966	keystroke	Key.space	n/a
246.4025	0.105	492805	keystroke	s	n/a
246.4925	0.165	492985	keystroke	h	n/a
246.5975	0.195	493195	keystroke	o	n/a
246.7475	0.18	493495	keystroke	u	n/a
246.8975	0.15	493795	keystroke	l	n/a
247.0325	0.135	494065	keystroke	d	n/a
247.3325	0.18	494665	keystroke	'	n/a
247.4225	0.21	494845	keystroke	v	n/a
247.6025	0.135	495205	keystroke	e	n/a
248.443	0.09	496886	keystroke	Key.backspace	n/a
248.6075	0.0905	497215	keystroke	Key.backspace	n/a
248.7875	0.03	497575	keystroke	Key.backspace	n/a
248.938	0.135	497876	keystroke	t	n/a
249.5975	0.165	499195	keystroke	'	n/a
249.7175	0.165	499435	keystroke	v	n/a
249.8375	0.1355	499675	keystroke	e	n/a
250.1525	0.15	500305	keystroke	Key.space	n/a
250.5125	0.165	501025	keystroke	a	n/a
250.6325	0.15	501265	keystroke	n	n/a
250.7975	0.225	501595	keystroke	i	n/a
250.903	0.1495	501806	keystroke	m	n/a
251.0975	0.045	502195	keystroke	e	n/a
251.5925	0.165	503185	keystroke	Key.space	n/a
252.0125	0.12	504025	keystroke	u	n/a
252.1175	0.12	504235	keystroke	s	n/a
252.4175	0.135	504835	keystroke	d	n/a
252.5375	0.165	505075	keystroke	a	n/a
252.7175	0.12	505435	keystroke	Key.enter	n/a
252.8465	9.9835	505693	prompt	n/a	defects stay jewelry injured\n
254.668	0.12	509336	keystroke	d	n/a
254.878	0.1795	509756	keystroke	e	n/a
254.9975	0.225	509995	keystroke	f	n/a
255.1925	0.21	510385	keystroke	e	n/a
255.4625	0.12	510925	keystroke	c	n/a
255.7625	0.135	511525	keystroke	t	n/a
256.2275	0.21	512455	keystroke	s	n/a
256.4975	0.195	512995	keystroke	Key.space	n/a
256.6775	0.15	513355	keystroke	s	n/a
256.8125	0.195	513625	keystroke	t	n/a
256.9175	0.285	513835	keystroke	a	n/a
257.2625	0.075	514525	keystroke	y	n/a
257.4725	0.12	514945	keystroke	Key.space	n/a
257.9075	0.12	515815	keystroke	j	n/a
258.0125	0.21	516025	keystroke	e	n/a
258.2225	0.405	516445	keystroke	w	n/a
258.5825	0.21	517165	keystroke	e	n/a
258.9425	0.15	517885	keystroke	l	n/a
259.2875	0.135	518575	keystroke	r	n/a
259.4375	0.12	518875	keystroke	y	n/a
259.7225	0.135	519445	keystroke	Key.space	n/a
260.0835	0.089	520167	keystroke	s	n/a
260.4575	0.1055	520915	keystroke	Key.backspace	n/a
260.728	0.225	521456	keystroke	i	n/a
260.878	0.1345	521756	keystroke	n	n/a
261.373	0.135	522746	keystroke	j	n/a
261.703	0.135	523406	keystroke	u	n/a
261.943	0.165	523886	keystroke	r	n/a
262.063	0.165	524126	keystroke	e	n/a
262.363	0.135	524726	keystroke	d	n/a
262.678	0.1495	525356	keystroke	Key.enter	n/a
262.8345	5.8455	525669	prompt	n/a	depot itself trained grey\n
263.3225	0.15	526645	keystroke	d	n/a
263.728	0.18	527456	keystroke	e	n/a
263.953	0.195	527906	keystroke	p	n/a
264.133	0.18	528266	keystroke	o	n/a
264.328	0.15	528656	keystroke	t	n/a
264.508	0.1495	529016	keystroke	Key.space	n/a
264.6875	0.165	529375	keystroke	i	n/a
264.8075	0.21	529615	keystroke	t	n/a
265.0475	0.255	530095	keystroke	s	n/a
265.1525	0.3	530305	keystroke	e	n/a
265.6175	0.135	531235	keystroke	l	n/a
265.7825	0.12	531565	keystroke	f	n/a
265.9475	0.15	531895	keystroke	Key.space	n/a
266.1275	0.165	532255	keystroke	t	n/a
266.3975	0.165	532795	keystroke	r	n/a
266.4875	0.18	532975	keystroke	a	n/a
266.6375	0.225	533275	keystroke	i	n/a
266.7425	0.105	533485	keystroke	n	n/a
266.968	0.1945	533936	keystroke	e	n/a
267.3275	0.18	534655	keystroke	d	n/a
267.4775	0.1805	534955	keystroke	Key.space	n/a
267.688	0.12	535376	keystroke	g	n/a
267.988	0.195	535976	keystroke	r	n/a
268.123	0.135	536246	keystroke	e	n/a
268.303	0.135	536606	keystroke	y	n/a
268.543	0.135	537086	keystroke	Key.enter	n/a
268.685	6.115	537370	prompt	n/a	inspector dude russian volume\n
269.2335	0.239	538467	keystroke	i	n/a
269.3525	0.165	538705	keystroke	n	n/a
269.4575	0.12	538915	keystroke	s	n/a
269.7125	0.165	539425	keystroke	p	n/a
269.8175	0.105	539635	keystroke	e	n/a
270.0575	0.135	540115	keystroke	c	n/a
270.328	0.15	540656	keystroke	t	n/a
270.508	0.165	541016	keystroke	o	n/a
270.658	0.135	541316	keystroke	r	n/a
270.778	0.15	541556	keystroke	Key.space	n/a
270.958	0.1505	541916	keystroke	d	n/a
271.154	0.119	542308	keystroke	u	n/a
271.229	0.134	542458	keystroke	d	n/a
271.483	0.15	542966	keystroke	e	n/a
271.648	0.1645	543296	keystroke	Key.space	n/a
271.8575	0.12	543715	keystroke	r	n/a
272.1275	0.105	544255	keystroke	u	n/a
272.2475	0.105	544495	keystroke	s	n/a
272.4275	0.135	544855	keystroke	s	n/a
272.6075	0.165	545215	keystroke	i	n/a
272.9675	0.18	545935	keystroke	a	n/a
273.1775	0.105	546355	keystroke	n	n/a
273.3425	0.135	546685	keystroke	Key.space	n/a
273.5525	0.165	547105	keystroke	v	n/a
273.7025	0.105	547405	keystroke	o	n/a
273.8685	0.209	547737	keystroke	l	n/a
274.0625	0.105	548125	keystroke	u	n/a
274.3025	0.12	548605	keystroke	m	n/a
274.4075	0.15	548815	keystroke	e	n/a
274.6625	0.1355	549325	keystroke	Key.enter	n/a
274.805	5.845	549610	prompt	n/a	equity fingers consist armed\n
275.368	0.165	550736	keystroke	e	n/a
275.6225	0.1955	551245	keystroke	q	n/a
275.833	0.15	551666	keystroke	u	n/a
275.953	0.196	551906	keystroke	i	n/a
276.149	0.1645	552298	keystroke	t	n/a
276.3725	0.1205	552745	keystroke	y	n/a
276.553	0.18	553106	keystroke	Key.space	n/a
276.688	0.1355	553376	keystroke	f	n/a
276.8075	0.225	553615	keystroke	i	n/a
276.9285	0.119	553857	keystroke	n	n/a
277.0175	0.165	554035	keystroke	g	n/a
277.2275	0.2555	554455	keystroke	e	n/a
277.393	0.181	554786	keystroke	r	n/a
277.469	0.194	554938	keystroke	s	n/a
277.678	0.135	555356	keystroke	Key.space	n/a
277.903	0.165	555806	keystroke	c	n/a
278.008	0.225	556016	keystroke	o	n/a
278.158	0.136	556316	keystroke	n	n/a
278.234	0.119	556468	keystroke	s	n/a
278.399	0.15	556798	keystroke	i	n/a
278.474	0.149	556948	keystroke	s	n/a
278.8775	0.135	557755	keystroke	t	n/a
279.1625	0.135	558325	keystroke	Key.space	n/a
279.5075	0.21	559015	keystroke	a	n/a
279.6585	0.134	559317	keystroke	r	n/a
279.8375	0.105	559675	keystroke	m	n/a
280.0325	0.165	560065	keystroke	e	n/a
280.3485	0.164	560697	keystroke	d	n/a
280.5275	0.12	561055	keystroke	Key.enter	n/a
280.655	7.12	561310	prompt	n/a	cool sections mitchell jerusalem\n
281.294	0.18	562588	keystroke	c	n/a
281.398	0.09	562796	keystroke	o	n/a
281.5625	0.0915	563125	keystroke	o	n/a
281.759	0.119	563518	keystroke	l	n/a
281.923	0.18	563846	keystroke	Key.space	n/a
282.058	0.241	564116	keystroke	s	n/a
282.224	0.104	564448	keystroke	e	n/a
282.448	0.181	564896	keystroke	c	n/a
282.988	0.165	565976	keystroke	t	n/a
283.138	0.2245	566276	keystroke	i	n/a
283.274	0.1795	566548	keystroke	o	n/a
283.3935	0.194	566787	keystroke	n	n/a
283.4985	0.165	566997	keystroke	s	n/a
283.7225	0.195	567445	keystroke	Key.space	n/a
283.9025	0.255	567805	keystroke	m	n/a
284.0685	0.194	568137	keystroke	i	n/a
284.2485	0.104	568497	keystroke	t	n/a
284.5625	0.165	569125	keystroke	c	n/a
284.6985	0.165	569397	keystroke	h	n/a
284.8485	0.164	569697	keystroke	e	n/a
284.9835	0.089	569967	keystroke	l	n/a
285.1625	0.195	570325	keystroke	l	n/a
285.2975	0.15	570595	keystroke	Key.space	n/a
285.4625	0.12	570925	keystroke	j	n/a
285.5975	0.196	571195	keystroke	e	n/a
285.7185	0.195	571437	keystroke	r	n/a
286.1685	0.105	572337	keystroke	u	n/a
286.3035	0.195	572607	keystroke	s	n/a
286.5275	0.211	573055	keystroke	a	n/a
286.8435	0.224	573687	keystroke	l	n/a
287.2475	0.09	574495	keystroke	e	n/a
287.399	0.135	574798	keystroke	m	n/a
287.638	0.135	575276	keystroke	Key.enter	n/a
287.781	7.5985	575562	prompt	n/a	play coins noble volkswagen\n
289.379	0.1345	578758	keystroke	p	n/a
289.6185	0.164	579237	keystroke	l	n/a
289.8285	0.18	579657	keystroke	a	n/a
289.9625	0.106	579925	keystroke	y	n/a
290.2025	0.12	580405	keystroke	Key.space	n/a
290.3985	0.15	580797	keystroke	c	n/a
290.4885	0.225	580977	keystroke	o	n/a
290.5785	0.24	581157	keystroke	i	n/a
290.6835	0.195	581367	keystroke	n	n/a
290.7885	0.105	581577	keystroke	s	n/a
290.9375	0.135	581875	keystroke	Key.space	n/a
291.3585	0.1805	582717	keystroke	n	n/a
291.5085	0.1655	583017	keystroke	o	n/a
291.748	0.181	583496	keystroke	b	n/a
291.869	0.1795	583738	keystroke	l	n/a
292.0185	0.135	584037	keystroke	e	n/a
292.1985	0.15	584397	keystroke	Key.space	n/a
292.4085	0.12	584817	keystroke	w	n/a
292.8435	0.104	585687	keystroke	Key.backspace	n/a
292.9485	0.135	585897	keystroke	v	n/a
293.0985	0.21	586197	keystroke	o	n/a
293.5485	0.2855	587097	keystroke	l	n/a
293.729	0.135	587458	keystroke	k	n/a
293.9235	0.105	587847	keystroke	s	n/a
294.2235	0.24	588447	keystroke	w	n/a
294.3885	0.195	588777	keystroke	a	n/a
294.6735	0.195	589347	keystroke	g	n/a
294.8535	0.18	589707	keystroke	e	n/a
295.0035	0.15	590007	keystroke	n	n/a
295.2435	0.134	590487	keystroke	Key.enter	n/a
295.3835	17.847	590767	prompt	n/a	psychological societies certificates composition\n
295.9935	0.225	591987	keystroke	p	n/a
296.2935	0.12	592587	keystroke	h	n/a
296.6235	0.089	593247	keystroke	Key.backspace	n/a
296.7135	0.12	593427	keystroke	s	n/a
296.9245	0.1195	593849	keystroke	y	n/a
297.224	0.12	594448	keystroke	c	n/a
297.359	0.1645	594718	keystroke	h	n/a
297.4935	0.06	594987	keystroke	o	n/a
297.5835	0.0755	595167	keystroke	o	n/a
297.824	0.105	595648	keystroke	l	n/a
298.109	0.06	596218	keystroke	Key.backspace	n/a
298.244	0.075	596488	keystroke	Key.backspace	n/a
298.484	0.12	596968	keystroke	l	n/a
298.724	0.06	597448	keystroke	o	n/a
298.829	0.015	597658	keystroke	o	n/a
298.874	0.165	597748	keystroke	g	n/a
299.054	0.135	598108	keystroke	i	n/a
299.429	0.0595	598858	keystroke	Key.backspace	n/a
299.5635	0.09	599127	keystroke	Key.backspace	n/a
299.744	0.105	599488	keystroke	Key.backspace	n/a
299.9835	0.075	599967	keystroke	g	n/a
300.1785	0.1805	600357	keystroke	i	n/a
300.3595	0.179	600719	keystroke	c	n/a
300.479	0.1645	600958	keystroke	a	n/a
300.6135	0.135	601227	keystroke	l	n/a
300.8535	0.15	601707	keystroke	Key.space	n/a
301.3485	0.105	602697	keystroke	s	n/a
301.4835	0.18	602967	keystroke	o	n/a
301.6185	0.165	603237	keystroke	c	n/a
301.814	0.165	603628	keystroke	i	n/a
302.039	0.12	604078	keystroke	e	n/a
302.234	0.12	604468	keystroke	i	n/a
302.414	0.135	604828	keystroke	t	n/a
302.564	0.12	605128	keystroke	i	n/a
302.699	0.165	605398	keystroke	e	n/a
302.834	0.135	605668	keystroke	s	n/a
302.9985	0.15	605997	keystroke	Key.space	n/a
303.5235	0.135	607047	keystroke	c	n/a
303.8235	0.06	607647	keystroke	e	n/a
304.049	0.09	608098	keystroke	Key.backspace	n/a
304.199	0.09	608398	keystroke	Key.backspace	n/a
304.364	0.075	608728	keystroke	Key.backspace	n/a
304.514	0.06	609028	keystroke	Key.backspace	n/a
304.664	0.09	609328	keystroke	Key.backspace	n/a
304.829	0.12	609658	keystroke	Key.backspace	n/a
305.0235	0.135	610047	keystroke	Key.backspace	n/a
305.3835	0.135	610767	keystroke	Key.backspace	n/a
307.3635	0.15	614727	keystroke	t	n/a
307.4835	0.15	614967	keystroke	i	n/a
307.6635	0.15	615327	keystroke	e	n/a
307.7385	0.165	615477	keystroke	s	n/a
307.9185	0.135	615837	keystroke	Key.space	n/a
308.6685	0.15	617337	keystroke	c	n/a
308.8635	0.1805	617727	keystroke	e	n/a
308.9685	0.0905	617937	keystroke	r	n/a
309.329	0.1495	618658	keystroke	t	n/a
309.6135	0.15	619227	keystroke	i	n/a
309.8385	0.165	619677	keystroke	f	n/a
310.0185	0.18	620037	keystroke	i	n/a
310.1835	0.1805	620367	keystroke	c	n/a
310.334	0.1945	620668	keystroke	a	n/a
310.5585	0.225	621117	keystroke	t	n/a
310.7535	0.18	621507	keystroke	e	n/a
310.889	0.1345	621778	keystroke	s	n/a
311.1735	0.15	622347	keystroke	Key.space	n/a
311.3985	0.18	622797	keystroke	c	n/a
311.5035	0.18	623007	keystroke	o	n/a
311.6085	0.135	623217	keystroke	m	n/a
311.7885	0.18	623577	keystroke	p	n/a
311.939	0.2245	623878	keystroke	o	n/a
312.1335	0.15	624267	keystroke	s	n/a
312.3135	0.135	624627	keystroke	i	n/a
312.4935	0.12	624987	keystroke	t	n/a
312.6285	0.135	625257	keystroke	i	n/a
312.7335	0.195	625467	keystroke	o	n/a
312.8085	0.195	625617	keystroke	n	n/a
313.0935	0.135	626187	keystroke	Key.enter	n/a
313.235	7.151	626470	prompt	n/a	chocolate familiar latin begins\n
313.9035	0.15	627807	keystroke	c	n/a
314.0235	0.15	628047	keystroke	h	n/a
314.0835	0.15	628167	keystroke	o	n/a
314.2185	0.1805	628437	keystroke	c	n/a
314.354	0.09	628708	keystroke	o	n/a
314.5335	0.165	629067	keystroke	l	n/a
314.7135	0.1655	629427	keystroke	a	n/a
314.849	0.1795	629698	keystroke	t	n/a
314.9835	0.135	629967	keystroke	e	n/a
315.0885	0.15	630177	keystroke	Key.space	n/a
315.2235	0.2105	630447	keystroke	f	n/a
315.3585	0.18	630717	keystroke	a	n/a
315.7035	0.105	631407	keystroke	m	n/a
315.9435	0.165	631887	keystroke	i	n/a
316.1235	0.3	632247	keystroke	l	n/a
316.2885	0.165	632577	keystroke	i	n/a
316.5735	0.315	633147	keystroke	a	n/a
316.8285	0.165	633657	keystroke	r	n/a
317.0235	0.135	634047	keystroke	Key.space	n/a
317.6685	0.1655	635337	keystroke	l	n/a
317.789	0.165	635578	keystroke	a	n/a
317.939	0.1345	635878	keystroke	t	n/a
318.0885	0.165	636177	keystroke	i	n/a
318.1935	0.0905	636387	keystroke	n	n/a
318.374	0.09	636748	keystroke	Key.space	n/a
318.5685	0.12	637137	keystroke	b	n/a
318.6735	0.12	637347	keystroke	e	n/a
318.9285	0.225	637857	keystroke	i	n/a
319.0185	0.18	638037	keystroke	n	n/a
319.3935	0.075	638787	keystroke	Key.backspace	n/a
319.544	0.075	639088	keystroke	Key.backspace	n/a
319.664	0.15	639328	keystroke	g	n/a
319.844	0.225	639688	keystroke	i	n/a
319.949	0.135	639898	keystroke	n	n/a
320.099	0.135	640198	keystroke	s	n/a
320.249	0.135	640498	keystroke	Key.enter	n/a
320.3915	9.2345	640783	prompt	n/a	encourage liberty function messages\n
323.1315	0.057	646263	keystroke	e	n/a
323.2335	0.135	646467	keystroke	n	n/a
323.7435	0.105	647487	keystroke	c	n/a
324.0135	0.18	648027	keystroke	o	n/a
324.0885	0.18	648177	keystroke	u	n/a
324.2235	0.225	648447	keystroke	r	n/a
324.4335	0.18	648867	keystroke	a	n/a
324.6435	0.15	649287	keystroke	g	n/a
324.7335	0.195	649467	keystroke	e	n/a
324.8985	0.165	649797	keystroke	Key.space	n/a
325.0335	0.18	650067	keystroke	l	n/a
325.1235	0.21	650247	keystroke	i	n/a
325.3635	0.165	650727	keystroke	b	n/a
325.5135	0.165	651027	keystroke	e	n/a
325.6335	0.165	651267	keystroke	r	n/a
325.9185	0.12	651837	keystroke	t	n/a
326.1285	0.135	652257	keystroke	y	n/a
326.3085	0.15	652617	keystroke	Key.space	n/a
326.4735	0.15	652947	keystroke	f	n/a
326.6085	0.09	653217	keystroke	u	n/a
326.8185	0.135	653637	keystroke	n	n/a
326.9385	0.15	653877	keystroke	c	n/a
327.2535	0.135	654507	keystroke	t	n/a
327.3435	0.15	654687	keystroke	i	n/a
327.4335	0.165	654867	keystroke	o	n/a
327.5385	0.165	655077	keystroke	n	n/a
327.6735	0.195	655347	keystroke	Key.space	n/a
327.8535	0.165	655707	keystroke	m	n/a
328.0035	0.165	656007	keystroke	e	n/a
328.1085	0.105	656217	keystroke	s	n/a
328.3185	0.1655	656637	keystroke	s	n/a
328.589	0.18	657178	keystroke	a	n/a
328.799	0.18	657598	keystroke	g	n/a
328.904	0.24	657808	keystroke	e	n/a
329.099	0.135	658198	keystroke	s	n/a
329.504	0.12	659008	keystroke	Key.enter	n/a
329.63	7.1665	659260	prompt	n/a	frequent chain pressure commodity\n
330.1635	0.135	660327	keystroke	f	n/a
330.4185	0.21	660837	keystroke	r	n/a
330.5385	0.1805	661077	keystroke	e	n/a
330.6885	0.0605	661377	keystroke	w	n/a
330.734	0.195	661468	keystroke	q	n/a
331.2445	0.074	662489	keystroke	Key.backspace	n/a
331.3785	0.075	662757	keystroke	Key.backspace	n/a
331.4545	0.164	662909	keystroke	q	n/a
331.709	0.135	663418	keystroke	u	n/a
331.874	0.165	663748	keystroke	e	n/a
332.069	0.165	664138	keystroke	n	n/a
332.309	0.166	664618	keystroke	t	n/a
332.519	0.135	665038	keystroke	Key.space	n/a
332.6685	0.27	665337	keystroke	c	n/a
332.9245	0.104	665849	keystroke	h	n/a
333.0585	0.15	666117	keystroke	a	n/a
333.2235	0.21	666447	keystroke	i	n/a
333.3145	0.1945	666629	keystroke	n	n/a
333.494	0.15	666988	keystroke	Key.space	n/a
333.6885	0.181	667377	keystroke	p	n/a
333.8535	0.165	667707	keystroke	r	n/a
333.9585	0.211	667917	keystroke	e	n/a
334.1085	0.135	668217	keystroke	s	n/a
334.3185	0.121	668637	keystroke	s	n/a
334.4835	0.1505	668967	keystroke	u	n/a
334.619	0.1345	669238	keystroke	r	n/a
334.6935	0.135	669387	keystroke	e	n/a
334.8435	0.15	669687	keystroke	Key.space	n/a
335.0235	0.165	670047	keystroke	c	n/a
335.1595	0.179	670319	keystroke	o	n/a
335.2945	0.09	670589	keystroke	m	n/a
335.4895	0.134	670979	keystroke	m	n/a
335.6535	0.18	671307	keystroke	o	n/a
335.8785	0.166	671757	keystroke	d	n/a
336.0895	0.165	672179	keystroke	i	n/a
336.2845	0.134	672569	keystroke	t	n/a
336.4035	0.1215	672807	keystroke	y	n/a
336.659	0.1345	673318	keystroke	Key.enter	n/a
336.8015	14.5895	673603	prompt	n/a	manitoba mesa miscellaneous demographic\n
337.9645	0.105	675929	keystroke	m	n/a
339.12	0.164	678240	keystroke	a	n/a
339.269	0.121	678538	keystroke	n	n/a
339.509	0.15	679018	keystroke	i	n/a
339.7195	0.18	679439	keystroke	t	n/a
340.1995	0.135	680399	keystroke	o	n/a
340.4535	0.091	680907	keystroke	b	n/a
340.5585	0.136	681117	keystroke	a	n/a
340.8285	0.105	681657	keystroke	Key.space	n/a
341.0535	0.106	682107	keystroke	m	n/a
341.1135	0.151	682227	keystroke	e	n/a
341.2045	0.15	682409	keystroke	s	n/a
341.4745	0.2245	682949	keystroke	a	n/a
341.954	0.12	683908	keystroke	Key.space	n/a
343.3195	0.12	686639	keystroke	m	n/a
343.455	0.075	686910	keystroke	m	n/a
343.515	0.135	687030	keystroke	i	n/a
343.619	0.1655	687238	keystroke	s	n/a
343.8285	0.166	687657	keystroke	c	n/a
344.0845	0.135	688169	keystroke	e	n/a
344.4445	0.045	688889	keystroke	=	n/a
344.5945	0.059	689189	keystroke	Key.backspace	n/a
344.7295	0.074	689459	keystroke	Key.backspace	n/a
344.8785	0.075	689757	keystroke	Key.backspace	n/a
345.0135	0.075	690027	keystroke	Key.backspace	n/a
345.1785	0.105	690357	keystroke	Key.backspace	n/a
345.5395	0.089	691079	keystroke	Key.backspace	n/a
346.0485	0.09	692097	keystroke	i	n/a
346.1695	0.18	692339	keystroke	s	n/a
346.3795	0.225	692759	keystroke	c	n/a
346.5445	0.18	693089	keystroke	e	n/a
346.8595	0.075	693719	keystroke	l	n/a
346.9945	0.15	693989	keystroke	l	n/a
347.1585	0.195	694317	keystroke	a	n/a
347.3845	0.18	694769	keystroke	n	n/a
347.7145	0.15	695429	keystroke	e	n/a
347.9095	0.164	695819	keystroke	o	n/a
347.9845	0.15	695969	keystroke	u	n/a
348.1035	0.106	696207	keystroke	s	n/a
348.2985	0.12	696597	keystroke	Key.space	n/a
349.065	0.105	698130	keystroke	d	n/a
349.275	0.165	698550	keystroke	e	n/a
349.379	0.151	698758	keystroke	m	n/a
349.515	0.165	699030	keystroke	o	n/a
350.04	0.1495	700080	keystroke	g	n/a
350.3245	0.195	700649	keystroke	r	n/a
350.4895	0.135	700979	keystroke	a	n/a
350.6095	0.165	701219	keystroke	p	n/a
350.7595	0.195	701519	keystroke	h	n/a
350.9395	0.15	701879	keystroke	i	n/a
351.0595	0.135	702119	keystroke	c	n/a
351.2395	0.15	702479	keystroke	Key.enter	n/a
351.3975	6.8485	702795	prompt	n/a	hunger initiative auto launches\n
352.0495	0.105	704099	keystroke	h	n/a
352.2445	0.09	704489	keystroke	u	n/a
352.4395	0.12	704879	keystroke	n	n/a
352.5745	0.15	705149	keystroke	g	n/a
352.7095	0.239	705419	keystroke	e	n/a
352.8895	0.1505	705779	keystroke	r	n/a
353.01	0.1935	706020	keystroke	Key.space	n/a
353.1745	0.12	706349	keystroke	i	n/a
353.2195	0.24	706439	keystroke	n	n/a
353.4145	0.15	706829	keystroke	i	n/a
353.5795	0.09	707159	keystroke	t	n/a
353.6995	0.105	707399	keystroke	i	n/a
353.9245	0.09	707849	keystroke	v	n/a
354.5695	0.105	709139	keystroke	Key.backspace	n/a
354.6595	0.165	709319	keystroke	a	n/a
354.7945	0.12	709589	keystroke	t	n/a
354.9295	0.135	709859	keystroke	i	n/a
355.2445	0.21	710489	keystroke	v	n/a
355.4845	0.15	710969	keystroke	e	n/a
355.6945	0.135	711389	keystroke	Key.space	n/a
356.0245	0.165	712049	keystroke	a	n/a
356.1595	0.135	712319	keystroke	u	n/a
356.3095	0.12	712619	keystroke	t	n/a
356.4595	0.135	712919	keystroke	o	n/a
356.6245	0.15	713249	keystroke	Key.space	n/a
356.8345	0.165	713669	keystroke	l	n/a
357.0295	0.1355	714059	keystroke	a	n/a
357.15	0.1195	714300	keystroke	u	n/a
357.4045	0.09	714809	keystroke	n	n/a
357.5245	0.12	715049	keystroke	c	n/a
357.6745	0.165	715349	keystroke	h	n/a
357.8245	0.195	715649	keystroke	e	n/a
357.9595	0.165	715919	keystroke	s	n/a
358.1095	0.135	716219	keystroke	Key.enter	n/a
358.249	6.703	716498	prompt	n/a	merit selective undo conservation\n
358.8295	0.105	717659	keystroke	m	n/a
358.9495	0.1655	717899	keystroke	e	n/a
359.085	0.15	718170	keystroke	r	n/a
359.295	0.105	718590	keystroke	i	n/a
359.429	0.151	718858	keystroke	t	n/a
359.609	0.151	719218	keystroke	Key.space	n/a
360.015	0.225	720030	keystroke	s	n/a
360.165	0.12	720330	keystroke	e	n/a
360.315	0.18	720630	keystroke	l	n/a
360.465	0.135	720930	keystroke	e	n/a
360.72	0.165	721440	keystroke	c	n/a
361.155	0.135	722310	keystroke	t	n/a
361.319	0.15	722638	keystroke	i	n/a
361.455	0.18	722910	keystroke	v	n/a
361.62	0.12	723240	keystroke	e	n/a
361.724	0.136	723448	keystroke	Key.space	n/a
361.949	0.091	723898	keystroke	u	n/a
362.16	0.105	724320	keystroke	n	n/a
362.31	0.135	724620	keystroke	d	n/a
362.46	0.104	724920	keystroke	o	n/a
362.625	0.135	725250	keystroke	Key.space	n/a
362.745	0.165	725490	keystroke	c	n/a
362.91	0.21	725820	keystroke	o	n/a
363.06	0.105	726120	keystroke	n	n/a
363.18	0.225	726360	keystroke	s	n/a
363.42	0.225	726840	keystroke	e	n/a
363.585	0.12	727170	keystroke	r	n/a
363.855	0.18	727710	keystroke	v	n/a
363.974	0.286	727948	keystroke	a	n/a
364.245	0.15	728490	keystroke	t	n/a
364.41	0.12	728820	keystroke	i	n/a
364.485	0.21	728970	keystroke	o	n/a
364.59	0.165	729180	keystroke	n	n/a
364.845	0.105	729690	keystroke	Key.enter	n/a
364.9585	13.808	729917	prompt	n/a	deutsch loop administrator life\n
366.525	0.195	733050	keystroke	s	n/a
367.56	0.09	735120	keystroke	Key.backspace	n/a
367.815	0.12	735630	keystroke	d	n/a
368.055	0.165	736110	keystroke	e	n/a
368.2795	0.15	736559	keystroke	a	n/a
369.555	0.09	739110	keystroke	Key.backspace	n/a
370.095	0.09	740190	keystroke	u	n/a
370.26	0.09	740520	keystroke	t	n/a
370.74	0.105	741480	keystroke	s	n/a
371.2495	0.075	742499	keystroke	h	n/a
372.105	0.09	744210	keystroke	Key.backspace	n/a
372.21	0.1045	744420	keystroke	c	n/a
372.3895	0.1355	744779	keystroke	h	n/a
372.69	0.1345	745380	keystroke	Key.space	n/a
372.8695	0.15	745739	keystroke	l	n/a
373.1395	0.0605	746279	keystroke	o	n/a
373.275	0.105	746550	keystroke	o	n/a
373.515	0.15	747030	keystroke	p	n/a
374.07	0.1495	748140	keystroke	Key.space	n/a
375.255	0.135	750510	keystroke	a	n/a
375.405	0.18	750810	keystroke	d	n/a
375.87	0.21	751740	keystroke	m	n/a
376.065	0.15	752130	keystroke	i	n/a
376.185	0.18	752370	keystroke	n	n/a
376.38	0.165	752760	keystroke	i	n/a
376.65	0.165	753300	keystroke	s	n/a
376.8	0.165	753600	keystroke	t	n/a
377.04	0.2395	754080	keystroke	r	n/a
377.205	0.255	754410	keystroke	a	n/a
377.595	0.12	755190	keystroke	t	n/a
377.73	0.1645	755460	keystroke	o	n/a
377.8795	0.12	755759	keystroke	r	n/a
378.0295	0.1355	756059	keystroke	Key.space	n/a
378.18	0.1795	756360	keystroke	l	n/a
378.2845	0.135	756569	keystroke	i	n/a
378.3745	0.135	756749	keystroke	f	n/a
378.4795	0.12	756959	keystroke	e	n/a
378.6145	0.1505	757229	keystroke	Key.enter	n/a
378.772	6.565	757544	prompt	n/a	herself potential worthy webshots\n
379.44	0.12	758880	keystroke	h	n/a
379.53	0.18	759060	keystroke	e	n/a
379.65	0.2095	759300	keystroke	r	n/a
379.8445	0.225	759689	keystroke	s	n/a
379.9795	0.15	759959	keystroke	e	n/a
380.1595	0.135	760319	keystroke	l	n/a
380.2945	0.135	760589	keystroke	f	n/a
380.4305	0.119	760861	keystroke	Key.space	n/a
380.5945	0.27	761189	keystroke	p	n/a
380.7445	0.21	761489	keystroke	o	n/a
380.8945	0.135	761789	keystroke	t	n/a
381.0145	0.15	762029	keystroke	e	n/a
381.2395	0.15	762479	keystroke	n	n/a
381.4945	0.1205	762989	keystroke	t	n/a
381.66	0.135	763320	keystroke	i	n/a
381.825	0.15	763650	keystroke	a	n/a
381.96	0.105	763920	keystroke	l	n/a
382.125	0.165	764250	keystroke	Key.space	n/a
382.305	0.12	764610	keystroke	w	n/a
382.41	0.15	764820	keystroke	o	n/a
382.53	0.105	765060	keystroke	r	n/a
382.7545	0.1505	765509	keystroke	t	n/a
382.92	0.105	765840	keystroke	h	n/a
383.13	0.075	766260	keystroke	y	n/a
383.43	0.165	766860	keystroke	Key.space	n/a
383.7745	0.2105	767549	keystroke	w	n/a
383.9095	0.1655	767819	keystroke	e	n/a
384.105	0.12	768210	keystroke	b	n/a
384.21	0.15	768420	keystroke	s	n/a
384.57	0.2245	769140	keystroke	h	n/a
384.72	0.1645	769440	keystroke	o	n/a
384.8245	0.1655	769649	keystroke	t	n/a
384.9295	0.1355	769859	keystroke	s	n/a
385.17	0.1645	770340	keystroke	Key.enter	n/a
385.3415	4.871	770683	prompt	n/a	corp meetings deny lite\n
385.965	0.15	771930	keystroke	c	n/a
386.1	0.15	772200	keystroke	o	n/a
386.3845	0.12	772769	keystroke	r	n/a
386.5495	0.135	773099	keystroke	p	n/a
386.8195	0.135	773639	keystroke	Key.space	n/a
387.105	0.135	774210	keystroke	m	n/a
387.225	0.09	774450	keystroke	e	n/a
387.4345	0.195	774869	keystroke	e	n/a
387.6145	0.15	775229	keystroke	t	n/a
387.7495	0.225	775499	keystroke	i	n/a
387.8695	0.18	775739	keystroke	n	n/a
388.0045	0.135	776009	keystroke	g	n/a
388.1095	0.15	776219	keystroke	s	n/a
388.2895	0.165	776579	keystroke	Key.space	n/a
388.4845	0.18	776969	keystroke	d	n/a
388.7845	0.1355	777569	keystroke	e	n/a
388.8895	0.0905	777779	keystroke	n	n/a
389.13	0.09	778260	keystroke	y	n/a
389.25	0.1645	778500	keystroke	Key.space	n/a
389.3695	0.225	778739	keystroke	l	n/a
389.5195	0.12	779039	keystroke	i	n/a
389.6695	0.165	779339	keystroke	t	n/a
389.8495	0.12	779699	keystroke	e	n/a
390.0895	0.12	780179	keystroke	Key.enter	n/a
390.2175	8.845	780435	prompt	n/a	testament moved cent thats\n
392.943	0.102	785886	keystroke	t	n/a
392.985	0.225	785970	keystroke	e	n/a
393.195	0.135	786390	keystroke	s	n/a
393.66	0.045	787320	keystroke	t	n/a
393.75	0.075	787500	keystroke	t	n/a
393.855	0.135	787710	keystroke	a	n/a
394.155	0.075	788310	keystroke	Key.backspace	n/a
394.305	0.12	788610	keystroke	Key.backspace	n/a
394.605	0.15	789210	keystroke	a	n/a
395.1	0.135	790200	keystroke	m	n/a
395.236	0.134	790472	keystroke	e	n/a
395.43	0.0895	790860	keystroke	n	n/a
395.5345	0.135	791069	keystroke	t	n/a
395.6845	0.135	791369	keystroke	Key.space	n/a
395.8945	0.1655	791789	keystroke	m	n/a
396.045	0.195	792090	keystroke	o	n/a
396.18	0.135	792360	keystroke	v	n/a
396.285	0.165	792570	keystroke	e	n/a
396.585	0.135	793170	keystroke	d	n/a
396.705	0.15	793410	keystroke	Key.space	n/a
396.87	0.165	793740	keystroke	c	n/a
396.99	0.195	793980	keystroke	e	n/a
397.17	0.105	794340	keystroke	n	n/a
397.305	0.135	794610	keystroke	t	n/a
397.47	0.135	794940	keystroke	Key.space	n/a
397.65	0.195	795300	keystroke	t	n/a
397.815	0.15	795630	keystroke	h	n/a
397.98	0.21	795960	keystroke	a	n/a
398.145	0.135	796290	keystroke	t	n/a
398.4305	0.1345	796861	keystroke	s	n/a
398.8805	0.1795	797761	keystroke	Key.enter	n/a
399.0675	5.83	798135	prompt	n/a	jessica defines code ministers\n
399.66	0.12	799320	keystroke	j	n/a
399.765	0.18	799530	keystroke	e	n/a
399.885	0.15	799770	keystroke	s	n/a
400.11	0.135	800220	keystroke	s	n/a
400.275	0.195	800550	keystroke	i	n/a
400.455	0.165	800910	keystroke	c	n/a
400.545	0.165	801090	keystroke	a	n/a
400.77	0.15	801540	keystroke	Key.space	n/a
401.01	0.18	802020	keystroke	d	n/a
401.295	0.165	802590	keystroke	e	n/a
401.445	0.195	802890	keystroke	f	n/a
401.625	0.255	803250	keystroke	i	n/a
401.805	0.165	803610	keystroke	n	n/a
401.91	0.15	803820	keystroke	e	n/a
402.015	0.165	804030	keystroke	s	n/a
402.24	0.15	804480	keystroke	Key.space	n/a
402.45	0.135	804900	keystroke	c	n/a
402.555	0.15	805110	keystroke	o	n/a
402.69	0.105	805380	keystroke	d	n/a
402.9	0.15	805800	keystroke	e	n/a
403.005	0.15	806010	keystroke	Key.space	n/a
403.215	0.165	806430	keystroke	m	n/a
403.41	0.1505	806820	keystroke	i	n/a
403.5305	0.225	807061	keystroke	n	n/a
403.6955	0.15	807391	keystroke	i	n/a
403.8605	0.165	807721	keystroke	s	n/a
404.0405	0.15	808081	keystroke	t	n/a
404.2055	0.21	808411	keystroke	e	n/a
404.3405	0.21	808681	keystroke	r	n/a
404.4755	0.165	808951	keystroke	s	n/a
404.7755	0.12	809551	keystroke	Key.enter	n/a
404.9025	6.37	809805	prompt	n/a	funny notify jackie known\n
405.4055	0.12	810811	keystroke	f	n/a
405.5855	0.09	811171	keystroke	u	n/a
405.8105	0.0605	811621	keystroke	n	n/a
405.9455	0.09	811891	keystroke	n	n/a
406.2005	0.12	812401	keystroke	y	n/a
406.4255	0.15	812851	keystroke	Key.space	n/a
406.8155	0.18	813631	keystroke	n	n/a
406.9355	0.18	813871	keystroke	o	n/a
407.0705	0.135	814141	keystroke	t	n/a
407.2505	0.165	814501	keystroke	i	n/a
407.4305	0.105	814861	keystroke	f	n/a
407.6105	0.09	815221	keystroke	y	n/a
407.7605	0.12	815521	keystroke	Key.space	n/a
409.081	0.104	818162	keystroke	j	n/a
409.2	0.165	818400	keystroke	a	n/a
409.38	0.091	818760	keystroke	c	n/a
409.5	0.09	819000	keystroke	k	n/a
409.71	0.12	819420	keystroke	i	n/a
409.815	0.12	819630	keystroke	e	n/a
410.04	0.12	820080	keystroke	Key.space	n/a
410.22	0.195	820440	keystroke	k	n/a
410.34	0.195	820680	keystroke	n	n/a
410.475	0.195	820950	keystroke	o	n/a
410.76	0.15	821520	keystroke	w	n/a
410.925	0.135	821850	keystroke	n	n/a
411.12	0.15	822240	keystroke	Key.enter	n/a
411.277	9.1305	822554	prompt	n/a	cycles andrea incorporate spouse\n
411.855	0.165	823710	keystroke	c	n/a
412.096	0.119	824192	keystroke	y	n/a
412.26	0.165	824520	keystroke	c	n/a
412.71	0.046	825420	keystroke	l	n/a
413.086	0.164	826172	keystroke	e	n/a
413.19	0.15	826380	keystroke	s	n/a
413.385	0.12	826770	keystroke	Key.space	n/a
413.551	0.119	827102	keystroke	a	n/a
413.775	0.09	827550	keystroke	n	n/a
413.88	0.165	827760	keystroke	d	n/a
414.225	0.24	828450	keystroke	r	n/a
414.316	0.269	828632	keystroke	e	n/a
414.6	0.151	829200	keystroke	a	n/a
415.065	0.135	830130	keystroke	Key.space	n/a
415.35	0.226	830700	keystroke	i	n/a
415.47	0.15	830940	keystroke	n	n/a
415.635	0.1655	831270	keystroke	c	n/a
415.815	0.135	831630	keystroke	o	n/a
416.131	0.269	832262	keystroke	p	n/a
416.37	0.165	832740	keystroke	o	n/a
416.58	0.135	833160	keystroke	r	n/a
416.865	0.06	833730	keystroke	Key.backspace	n/a
417	0.06	834000	keystroke	Key.backspace	n/a
417.15	0.105	834300	keystroke	Key.backspace	n/a
417.331	0.119	834662	keystroke	r	n/a
417.75	0.256	835500	keystroke	p	n/a
417.931	0.18	835862	keystroke	o	n/a
418.096	0.194	836192	keystroke	r	n/a
418.215	0.241	836430	keystroke	a	n/a
418.425	0.181	836850	keystroke	t	n/a
418.545	0.195	837090	keystroke	e	n/a
418.756	0.149	837512	keystroke	Key.space	n/a
419.356	0.119	838712	keystroke	s	n/a
419.535	0.18	839070	keystroke	p	n/a
419.686	0.2395	839372	keystroke	o	n/a
419.8955	0.105	839791	keystroke	u	n/a
420.0155	0.135	840031	keystroke	s	n/a
420.0905	0.135	840181	keystroke	e	n/a
420.2705	0.135	840541	keystroke	Key.enter	n/a
420.4125	6.2815	840825	prompt	n/a	wikipedia clinics oecd guns\n
420.9755	0.165	841951	keystroke	w	n/a
421.0805	0.105	842161	keystroke	i	n/a
421.2905	0.075	842581	keystroke	k	n/a
421.4405	0.12	842881	keystroke	i	n/a
421.6505	0.15	843301	keystroke	p	n/a
421.7555	0.075	843511	keystroke	e	n/a
422.0105	0.105	844021	keystroke	d	n/a
422.1305	0.15	844261	keystroke	i	n/a
422.2815	0.179	844563	keystroke	a	n/a
422.5955	0.15	845191	keystroke	Key.space	n/a
422.9855	0.165	845971	keystroke	c	n/a
423.0905	0.195	846181	keystroke	l	n/a
423.1655	0.195	846331	keystroke	i	n/a
423.3005	0.24	846601	keystroke	n	n/a
423.5105	0.165	847021	keystroke	i	n/a
423.6605	0.195	847321	keystroke	c	n/a
423.8555	0.105	847711	keystroke	s	n/a
424.0355	0.15	848071	keystroke	Key.space	n/a
424.6655	0.15	849331	keystroke	o	n/a
424.8605	0.09	849721	keystroke	e	n/a
425.1605	0.15	850321	keystroke	c	n/a
425.4455	0.15	850891	keystroke	d	n/a
425.7005	0.135	851401	keystroke	Key.space	n/a
425.8955	0.15	851791	keystroke	g	n/a
426.0305	0.075	852061	keystroke	u	n/a
426.2405	0.12	852481	keystroke	n	n/a
426.3755	0.135	852751	keystroke	s	n/a
426.5405	0.15	853081	keystroke	Key.enter	n/a
426.6995	8.843	853399	prompt	n/a	frontpage drawn covers founder\n
427.2605	0.135	854521	keystroke	f	n/a
427.5155	0.18	855031	keystroke	r	n/a
427.6355	0.195	855271	keystroke	o	n/a
427.7405	0.165	855481	keystroke	n	n/a
427.9205	0.12	855841	keystroke	t	n/a
428.2805	0.18	856561	keystroke	p	n/a
428.4305	0.165	856861	keystroke	a	n/a
428.6255	0.15	857251	keystroke	g	n/a
428.7455	0.15	857491	keystroke	e	n/a
428.9105	0.18	857821	keystroke	Key.space	n/a
429.0755	0.105	858151	keystroke	d	n/a
429.1955	0.045	858391	keystroke	d	n/a
429.3605	0.225	858721	keystroke	r	n/a
429.5705	0.135	859141	keystroke	a	n/a
429.8255	0.03	859651	keystroke	Key.backspace	n/a
429.9305	0.075	859861	keystroke	Key.backspace	n/a
430.186	0.1945	860372	keystroke	r	n/a
430.3505	0.135	860701	keystroke	a	n/a
430.561	0.09	861122	keystroke	Key.backspace	n/a
430.7405	0.0905	861481	keystroke	Key.backspace	n/a
430.936	0.135	861872	keystroke	r	n/a
431.011	0.12	862022	keystroke	a	n/a
431.2955	0.0755	862591	keystroke	Key.backspace	n/a
431.4905	0.105	862981	keystroke	Key.backspace	n/a
431.716	0.045	863432	keystroke	Key.backspace	n/a
431.866	0.1655	863732	keystroke	r	n/a
432.0765	0.2845	864153	keystroke	a	n/a
432.226	0.195	864452	keystroke	w	n/a
432.526	0.075	865052	keystroke	n	n/a
433.185	0.106	866370	keystroke	Key.space	n/a
433.381	0.135	866762	keystroke	c	n/a
433.471	0.135	866942	keystroke	o	n/a
433.636	0.1955	867272	keystroke	v	n/a
433.8465	0.21	867693	keystroke	e	n/a
434.0115	0.18	868023	keystroke	r	n/a
434.1165	0.1495	868233	keystroke	s	n/a
434.281	0.15	868562	keystroke	Key.space	n/a
434.461	0.1355	868922	keystroke	f	n/a
434.5965	0.1795	869193	keystroke	o	n/a
434.686	0.105	869372	keystroke	u	n/a
434.911	0.12	869822	keystroke	n	n/a
434.971	0.09	869942	keystroke	d	n/a
435.196	0.165	870392	keystroke	e	n/a
435.316	0.149	870632	keystroke	r	n/a
435.406	0.135	870812	keystroke	Key.enter	n/a
435.55	7.928	871100	prompt	n/a	mitchell cooperation store wise\n
437.6445	0.087	875289	keystroke	m	n/a
437.7765	0.195	875553	keystroke	i	n/a
437.8965	0.075	875793	keystroke	t	n/a
438.1665	0.12	876333	keystroke	c	n/a
438.3015	0.135	876603	keystroke	h	n/a
438.4215	0.165	876843	keystroke	e	n/a
438.6315	0.105	877263	keystroke	l	n/a
438.7965	0.15	877593	keystroke	Key.space	n/a
439.3815	0.09	878763	keystroke	Key.backspace	n/a
439.7265	0.105	879453	keystroke	l	n/a
439.9065	0.135	879813	keystroke	Key.space	n/a
440.0115	0.12	880023	keystroke	c	n/a
440.1465	0.105	880293	keystroke	o	n/a
440.3265	0.12	880653	keystroke	o	n/a
440.4915	0.165	880983	keystroke	p	n/a
440.7015	0.18	881403	keystroke	e	n/a
440.8215	0.195	881643	keystroke	r	n/a
440.9865	0.225	881973	keystroke	a	n/a
441.2115	0.12	882423	keystroke	t	n/a
441.3465	0.165	882693	keystroke	i	n/a
441.4665	0.165	882933	keystroke	o	n/a
441.6015	0.15	883203	keystroke	n	n/a
441.7065	0.18	883413	keystroke	Key.space	n/a
441.7815	0.165	883563	keystroke	s	n/a
441.9465	0.12	883893	keystroke	t	n/a
442.0965	0.165	884193	keystroke	o	n/a
442.2465	0.12	884493	keystroke	r	n/a
442.2915	0.165	884583	keystroke	e	n/a
442.4265	0.135	884853	keystroke	Key.space	n/a
442.6065	0.15	885213	keystroke	w	n/a
442.7265	0.12	885453	keystroke	i	n/a
442.9965	0.195	885993	keystroke	s	n/a
443.1315	0.165	886263	keystroke	e	n/a
443.3265	0.15	886653	keystroke	Key.enter	n/a
443.484	12.444	886968	prompt	n/a	correct ieee recruitment competitive\n
444.0765	0.15	888153	keystroke	c	n/a
444.2865	0.165	888573	keystroke	o	n/a
444.4365	0.09	888873	keystroke	r	n/a
444.6165	0.165	889233	keystroke	r	n/a
444.7365	0.15	889473	keystroke	e	n/a
445.0365	0.135	890073	keystroke	c	n/a
445.4715	0.105	890943	keystroke	t	n/a
445.9515	0.135	891903	keystroke	Key.space	n/a
446.2065	0.1345	892413	keystroke	i	n/a
446.356	0.105	892712	keystroke	e	n/a
446.536	0.12	893072	keystroke	e	n/a
446.776	0.09	893552	keystroke	e	n/a
447.4365	0.135	894873	keystroke	Key.space	n/a
447.781	0.15	895562	keystroke	r	n/a
447.856	0.1805	895712	keystroke	e	n/a
448.1115	0.1795	896223	keystroke	c	n/a
448.531	0.135	897062	keystroke	r	n/a
448.741	0.15	897482	keystroke	u	n/a
448.846	0.18	897692	keystroke	i	n/a
449.011	0.18	898022	keystroke	c	n/a
449.761	0.15	899522	keystroke	t	n/a
450.031	0.09	900062	keystroke	m	n/a
450.181	0.12	900362	keystroke	e	n/a
450.346	0.15	900692	keystroke	n	n/a
450.481	0.135	900962	keystroke	t	n/a
450.646	0.12	901292	keystroke	Key.space	n/a
451.291	0.075	902582	keystroke	Key.backspace	n/a
451.426	0.075	902852	keystroke	Key.backspace	n/a
451.576	0.06	903152	keystroke	Key.backspace	n/a
451.696	0.06	903392	keystroke	Key.backspace	n/a
451.816	0.075	903632	keystroke	Key.backspace	n/a
451.951	0.09	903902	keystroke	Key.backspace	n/a
452.101	0.18	904202	keystroke	Key.backspace	n/a
452.641	0.135	905282	keystroke	t	n/a
453.061	0.12	906122	keystroke	m	n/a
453.136	0.12	906272	keystroke	e	n/a
453.256	0.12	906512	keystroke	n	n/a
453.391	0.135	906782	keystroke	t	n/a
453.586	0.12	907172	keystroke	Key.space	n/a
453.991	0.12	907982	keystroke	c	n/a
454.096	0.135	908192	keystroke	o	n/a
454.171	0.15	908342	keystroke	m	n/a
454.351	0.18	908702	keystroke	p	n/a
454.546	0.15	909092	keystroke	e	n/a
454.786	0.15	909572	keystroke	t	n/a
454.966	0.12	909932	keystroke	i	n/a
455.101	0.105	910202	keystroke	t	n/a
455.221	0.135	910442	keystroke	i	n/a
455.371	0.165	910742	keystroke	v	n/a
455.551	0.135	911102	keystroke	e	n/a
455.776	0.15	911552	keystroke	Key.enter	n/a
455.934	15.4895	911868	prompt	n/a	pontiac medicare mauritius cradle\n
456.7065	0.18	913413	keystroke	p	n/a
456.8415	0.285	913683	keystroke	o	n/a
457.0515	0.165	914103	keystroke	n	n/a
457.2315	0.15	914463	keystroke	t	n/a
457.4115	0.165	914823	keystroke	i	n/a
457.5615	0.18	915123	keystroke	a	n/a
457.771	0.1205	915542	keystroke	c	n/a
458.1315	0.15	916263	keystroke	Key.space	n/a
458.3865	0.135	916773	keystroke	m	n/a
458.5065	0.105	917013	keystroke	e	n/a
458.7315	0.135	917463	keystroke	d	n/a
458.8965	0.12	917793	keystroke	i	n/a
459.0315	0.165	918063	keystroke	c	n/a
459.1815	0.195	918363	keystroke	a	n/a
459.3615	0.165	918723	keystroke	r	n/a
459.4515	0.165	918903	keystroke	e	n/a
459.6175	0.119	919235	keystroke	Key.space	n/a
459.8115	0.15	919623	keystroke	m	n/a
460.0065	0.15	920013	keystroke	a	n/a
460.2315	0.105	920463	keystroke	u	n/a
460.3515	0.15	920703	keystroke	r	n/a
460.6515	0.105	921303	keystroke	i	n/a
460.8315	0.09	921663	keystroke	t	n/a
460.9365	0.18	921873	keystroke	i	n/a
461.2515	0.1945	922503	keystroke	o	n/a
461.401	0.105	922802	keystroke	u	n/a
461.687	0.075	923374	keystroke	Key.backspace	n/a
461.8365	0.074	923673	keystroke	Key.backspace	n/a
462.137	0.105	924274	keystroke	u	n/a
462.152	0.075	924304	keystroke	i	n/a
462.257	0.105	924514	keystroke	s	n/a
462.947	0.09	925894	keystroke	Key.backspace	n/a
463.111	0.076	926222	keystroke	Key.backspace	n/a
463.472	0.12	926944	keystroke	s	n/a
463.741	0.15	927482	keystroke	Key.space	n/a
464.027	0.105	928054	keystroke	c	n/a
464.342	0.225	928684	keystroke	r	n/a
464.522	0.18	929044	keystroke	a	n/a
465.197	0.12	930394	keystroke	Key.backspace	n/a
465.391	0.091	930782	keystroke	Key.backspace	n/a
465.571	0.076	931142	keystroke	Key.backspace	n/a
465.707	0.12	931414	keystroke	Key.backspace	n/a
465.932	0.15	931864	keystroke	Key.backspace	n/a
466.577	0.255	933154	keystroke	Key.backspace	n/a
468.3765	0.105	936753	keystroke	u	n/a
468.4965	0.12	936993	keystroke	s	n/a
468.7215	0.135	937443	keystroke	Key.space	n/a
470.1015	0.15	940203	keystroke	c	n/a
470.371	0.195	940742	keystroke	r	n/a
470.491	0.165	940982	keystroke	a	n/a
470.7915	0.1045	941583	keystroke	d	n/a
471.001	0.12	942002	keystroke	l	n/a
471.091	0.105	942182	keystroke	e	n/a
471.316	0.105	942632	keystroke	Key.enter	n/a
471.4285	8.046	942857	prompt	n/a	russia sure hole phentermine\n
472.8625	0.134	945725	keystroke	r	n/a
473.0565	0.135	946113	keystroke	u	n/a
473.1765	0.12	946353	keystroke	s	n/a
473.401	0.1955	946802	keystroke	s	n/a
473.6115	0.1655	947223	keystroke	a	n/a
474.0925	0.1505	948185	keystroke	Key.space	n/a
474.378	0.1505	948756	keystroke	s	n/a
474.5435	0.12	949087	keystroke	u	n/a
474.6785	0.15	949357	keystroke	r	n/a
474.769	0.165	949538	keystroke	e	n/a
474.979	0.1805	949958	keystroke	Key.space	n/a
475.2955	0.1345	950591	keystroke	h	n/a
475.3545	0.1215	950709	keystroke	o	n/a
475.58	0.0905	951160	keystroke	l	n/a
475.6405	0.165	951281	keystroke	e	n/a
475.7755	0.12	951551	keystroke	Key.space	n/a
475.9255	0.1805	951851	keystroke	p	n/a
476.2115	0.15	952423	keystroke	h	n/a
476.603	0.12	953206	keystroke	e	n/a
476.752	0.105	953504	keystroke	n	n/a
477.128	0.135	954256	keystroke	e	n/a
477.804	0.135	955608	keystroke	Key.backspace	n/a
478.2255	0.1355	956451	keystroke	t	n/a
478.3455	0.1945	956691	keystroke	e	n/a
478.48	0.1815	956960	keystroke	r	n/a
478.6905	0.105	957381	keystroke	m	n/a
478.8705	0.2705	957741	keystroke	i	n/a
479.006	0.1655	958012	keystroke	n	n/a
479.126	0.105	958252	keystroke	e	n/a
479.3665	0.105	958733	keystroke	Key.enter	n/a
479.4805	0.0845	958961	prompt	n/a	profession decades lotus geology\n
479.502	0.06	959004	keystroke	Key.enter	n/a
479.57	16.627	959140	prompt	n/a	sept daren't gerald renaissance\n
481.97	0.116	963940	keystroke	s	n/a
482.1615	0.12	964323	keystroke	e	n/a
482.658	0.059	965316	keystroke	e	n/a
483.093	0.09	966186	keystroke	Key.backspace	n/a
483.784	0.1505	967568	keystroke	p	n/a
483.9795	0.105	967959	keystroke	t	n/a
484.415	0.1505	968830	keystroke	Key.space	n/a
484.6865	0.1805	969373	keystroke	d	n/a
484.911	0.2405	969822	keystroke	a	n/a
485.1075	0.165	970215	keystroke	r	n/a
485.1975	0.1955	970395	keystroke	e	n/a
485.378	0.21	970756	keystroke	n	n/a
485.603	0.1055	971206	keystroke	'	n/a
485.7235	0.075	971447	keystroke	'	n/a
485.8735	0.0895	971747	keystroke	t	n/a
486.775	0.1055	973550	keystroke	Key.backspace	n/a
486.9705	0.119	973941	keystroke	Key.backspace	n/a
487.196	0.135	974392	keystroke	t	n/a
487.6315	0.1505	975263	keystroke	Key.space	n/a
488.1125	0.165	976225	keystroke	g	n/a
488.2775	0.1955	976555	keystroke	e	n/a
488.488	0.1655	976976	keystroke	r	n/a
488.8485	0.1805	977697	keystroke	a	n/a
489.059	0.1505	978118	keystroke	l	n/a
489.2395	0.105	978479	keystroke	d	n/a
489.525	0.164	979050	keystroke	Key.space	n/a
489.9905	0.1505	979981	keystroke	n	n/a
490.1705	0.1655	980341	keystroke	e	n/a
491.6585	0.06	983317	keystroke	Key.backspace	n/a
492.018	0.1215	984036	keystroke	Key.backspace	n/a
492.1545	0.135	984309	keystroke	r	n/a
492.2595	0.12	984519	keystroke	e	n/a
492.65	0.1195	985300	keystroke	n	n/a
492.8605	0.164	985721	keystroke	a	n/a
493.251	0.1505	986502	keystroke	i	n/a
493.5065	0.1205	987013	keystroke	i	n/a
493.627	0.135	987254	keystroke	s	n/a
494.348	0.09	988696	keystroke	Key.backspace	n/a
494.513	0.1045	989026	keystroke	Key.backspace	n/a
494.5885	0.12	989177	keystroke	s	n/a
494.8125	0.1965	989625	keystroke	s	n/a
495.054	0.1805	990108	keystroke	a	n/a
495.3095	0.12	990619	keystroke	n	n/a
495.445	0.18	990890	keystroke	c	n/a
495.565	0.1505	991130	keystroke	e	n/a
496.091	0.105	992182	keystroke	Key.enter	n/a
496.2015	7.824	992403	prompt	n/a	allied sailing butter grateful\n
496.902	0.1205	993804	keystroke	a	n/a
497.0825	0.105	994165	keystroke	i	n/a
497.428	0.075	994856	keystroke	l	n/a
497.6685	0.09	995337	keystroke	Key.backspace	n/a
497.834	0.075	995668	keystroke	Key.backspace	n/a
498.104	0.1055	996208	keystroke	l	n/a
498.2845	0.165	996569	keystroke	l	n/a
498.4195	0.1655	996839	keystroke	i	n/a
498.555	0.15	997110	keystroke	e	n/a
498.9155	0.12	997831	keystroke	d	n/a
499.0205	0.1955	998041	keystroke	Key.space	n/a
499.261	0.2255	998522	keystroke	s	n/a
499.4865	0.2105	998973	keystroke	a	n/a
499.637	0.21	999274	keystroke	i	n/a
499.877	0.2705	999754	keystroke	l	n/a
500.0725	0.2705	1000145	keystroke	i	n/a
500.1925	0.1655	1000385	keystroke	n	n/a
500.388	0.12	1000776	keystroke	g	n/a
500.478	0.12	1000956	keystroke	Key.space	n/a
500.7035	0.105	1001407	keystroke	b	n/a
500.929	0.105	1001858	keystroke	u	n/a
501.079	0.075	1002158	keystroke	t	n/a
501.2595	0.18	1002519	keystroke	t	n/a
501.4995	0.1355	1002999	keystroke	e	n/a
501.605	0.12	1003210	keystroke	r	n/a
501.755	0.1355	1003510	keystroke	Key.space	n/a
501.9955	0.105	1003991	keystroke	g	n/a
502.236	0.195	1004472	keystroke	r	n/a
502.371	0.1205	1004742	keystroke	a	n/a
502.867	0.135	1005734	keystroke	t	n/a
502.957	0.1805	1005914	keystroke	e	n/a
503.2725	0.1355	1006545	keystroke	f	n/a
503.438	0.18	1006876	keystroke	u	n/a
503.573	0.1505	1007146	keystroke	l	n/a
503.904	0.12	1007808	keystroke	Key.enter	n/a
504.031	8.8585	1008062	prompt	n/a	connector spanish warranty archived\n
504.625	0.12	1009250	keystroke	c	n/a
504.73	0.135	1009460	keystroke	o	n/a
504.94	0.0905	1009880	keystroke	n	n/a
505.0905	0.135	1010181	keystroke	n	n/a
505.241	0.105	1010482	keystroke	e	n/a
505.451	0.12	1010902	keystroke	c	n/a
505.7515	0.135	1011503	keystroke	t	n/a
505.932	0.15	1011864	keystroke	o	n/a
506.052	0.1505	1012104	keystroke	r	n/a
506.2175	0.15	1012435	keystroke	Key.space	n/a
506.4275	0.1505	1012855	keystroke	s	n/a
506.623	0.165	1013246	keystroke	p	n/a
506.803	0.1355	1013606	keystroke	a	n/a
506.9685	0.2105	1013937	keystroke	n	n/a
507.149	0.165	1014298	keystroke	i	n/a
507.3595	0.0895	1014719	keystroke	s	n/a
507.494	0.1055	1014988	keystroke	h	n/a
507.6745	0.1055	1015349	keystroke	Key.space	n/a
508.065	0.1805	1016130	keystroke	w	n/a
508.2305	0.1955	1016461	keystroke	a	n/a
508.516	0.15	1017032	keystroke	r	n/a
508.8165	0.12	1017633	keystroke	r	n/a
509.312	0.1355	1018624	keystroke	a	n/a
509.4775	0.105	1018955	keystroke	n	n/a
509.5975	0.1355	1019195	keystroke	t	n/a
509.808	0.105	1019616	keystroke	y	n/a
510.033	0.1205	1020066	keystroke	Key.space	n/a
510.3335	0.2255	1020667	keystroke	a	n/a
510.514	0.09	1021028	keystroke	r	n/a
510.8445	0.225	1021689	keystroke	v	n/a
511.3405	0.09	1022681	keystroke	Key.backspace	n/a
511.4605	0.135	1022921	keystroke	c	n/a
511.656	0.15	1023312	keystroke	h	n/a
511.761	0.165	1023522	keystroke	i	n/a
511.896	0.12	1023792	keystroke	v	n/a
512.031	0.1055	1024062	keystroke	e	n/a
512.3015	0.1655	1024603	keystroke	d	n/a
512.7675	0.12	1025535	keystroke	Key.enter	n/a
512.894	12.384	1025788	prompt	n/a	screensavers responsibility southwest removing\n
513.4435	0.21	1026887	keystroke	s	n/a
513.6085	0.1355	1027217	keystroke	e	n/a
514.0445	0.135	1028089	keystroke	Key.backspace	n/a
514.2395	0.1355	1028479	keystroke	c	n/a
514.555	0.2255	1029110	keystroke	r	n/a
514.7655	0.21	1029531	keystroke	e	n/a
515.141	0.165	1030282	keystroke	e	n/a
515.5015	0.12	1031003	keystroke	n	n/a
515.802	0.21	1031604	keystroke	s	n/a
515.997	0.2405	1031994	keystroke	a	n/a
516.2975	0.15	1032595	keystroke	v	n/a
516.538	0.2555	1033076	keystroke	e	n/a
516.733	0.1805	1033466	keystroke	r	n/a
516.8235	0.18	1033647	keystroke	s	n/a
517.229	0.15	1034458	keystroke	Key.space	n/a
517.439	0.075	1034878	keystroke	s	n/a
517.7845	0.1355	1035569	keystroke	Key.backspace	n/a
518.3705	0.12	1036741	keystroke	p	n/a
518.896	0.1205	1037792	keystroke	Key.backspace	n/a
519.2865	0.1505	1038573	keystroke	r	n/a
519.3615	0.2105	1038723	keystroke	e	n/a
519.512	0.165	1039024	keystroke	s	n/a
519.7825	0.195	1039565	keystroke	p	n/a
519.9325	0.2855	1039865	keystroke	o	n/a
520.128	0.135	1040256	keystroke	n	n/a
520.278	0.12	1040556	keystroke	s	n/a
520.443	0.1655	1040886	keystroke	i	n/a
520.7135	0.135	1041427	keystroke	b	n/a
520.9685	0.1955	1041937	keystroke	i	n/a
521.119	0.2555	1042238	keystroke	l	n/a
521.299	0.1655	1042598	keystroke	i	n/a
521.5095	0.12	1043019	keystroke	t	n/a
521.6595	0.1355	1043319	keystroke	y	n/a
522.095	0.135	1044190	keystroke	Key.space	n/a
522.26	0.1505	1044520	keystroke	s	n/a
522.3655	0.18	1044731	keystroke	o	n/a
522.4855	0.135	1044971	keystroke	u	n/a
522.6355	0.12	1045271	keystroke	t	n/a
522.7705	0.135	1045541	keystroke	h	n/a
523.0105	0.075	1046021	keystroke	w	n/a
523.2955	0.1805	1046591	keystroke	e	n/a
523.446	0.1945	1046892	keystroke	s	n/a
523.6555	0.105	1047311	keystroke	t	n/a
523.8055	0.15	1047611	keystroke	Key.space	n/a
524.0605	0.12	1048121	keystroke	r	n/a
524.1505	0.135	1048301	keystroke	e	n/a
524.2865	0.119	1048573	keystroke	m	n/a
524.3915	0.179	1048783	keystroke	o	n/a
524.5405	0.165	1049081	keystroke	v	n/a
524.7205	0.195	1049441	keystroke	i	n/a
524.8105	0.195	1049621	keystroke	n	n/a
524.9755	0.1045	1049951	keystroke	g	n/a
525.1405	0.135	1050281	keystroke	Key.enter	n/a
525.282	11.573	1050564	prompt	n/a	surfing rebates affiliation sometimes\n
525.9355	0.12	1051871	keystroke	s	n/a
526.1	0.12	1052200	keystroke	u	n/a
526.205	0.1505	1052410	keystroke	r	n/a
526.58	0.105	1053160	keystroke	g	n/a
527.195	0.09	1054390	keystroke	f	n/a
527.87	0.105	1055740	keystroke	Key.backspace	n/a
528.065	0.09	1056130	keystroke	Key.backspace	n/a
528.185	0.15	1056370	keystroke	f	n/a
529.4295	0.196	1058859	keystroke	i	n/a
529.5045	0.165	1059009	keystroke	n	n/a
529.6845	0.136	1059369	keystroke	g	n/a
530.3445	0.12	1060689	keystroke	Key.space	n/a
530.4945	0.1345	1060989	keystroke	r	n/a
530.614	0.15	1061228	keystroke	e	n/a
530.794	0.135	1061588	keystroke	b	n/a
531.0045	0.2245	1062009	keystroke	a	n/a
531.214	0.15	1062428	keystroke	t	n/a
531.319	0.2105	1062638	keystroke	e	n/a
531.4845	0.1345	1062969	keystroke	s	n/a
531.634	0.135	1063268	keystroke	Key.space	n/a
531.754	0.21	1063508	keystroke	a	n/a
531.919	0.12	1063838	keystroke	f	n/a
532.129	0.135	1064258	keystroke	f	n/a
532.369	0.045	1064738	keystroke	i	n/a
533.059	0.1795	1066118	keystroke	l	n/a
533.2085	0.105	1066417	keystroke	i	n/a
533.7795	0.195	1067559	keystroke	a	n/a
534.1845	0.179	1068369	keystroke	t	n/a
534.4535	0.166	1068907	keystroke	i	n/a
534.5735	0.226	1069147	keystroke	o	n/a
534.7385	0.12	1069477	keystroke	n	n/a
535.128	0.12	1070256	keystroke	Key.space	n/a
535.5195	0.1195	1071039	keystroke	s	n/a
535.594	0.239	1071188	keystroke	o	n/a
535.729	0.12	1071458	keystroke	m	n/a
535.818	0.15	1071636	keystroke	e	n/a
536.014	0.1335	1072028	keystroke	t	n/a
536.1325	0.1965	1072265	keystroke	i	n/a
536.239	0.119	1072478	keystroke	m	n/a
536.313	0.165	1072626	keystroke	e	n/a
536.403	0.1505	1072806	keystroke	s	n/a
536.7175	0.135	1073435	keystroke	Key.enter	n/a
536.8625	5.991	1073725	prompt	n/a	silence senior guest causing\n
537.6185	0.119	1075237	keystroke	s	n/a
537.7675	0.166	1075535	keystroke	i	n/a
537.8735	0.224	1075747	keystroke	l	n/a
538.0535	0.165	1076107	keystroke	e	n/a
538.2475	0.181	1076495	keystroke	n	n/a
538.698	0.134	1077396	keystroke	c	n/a
538.9675	0.1645	1077935	keystroke	e	n/a
539.147	0.135	1078294	keystroke	Key.space	n/a
539.283	0.21	1078566	keystroke	s	n/a
539.418	0.164	1078836	keystroke	e	n/a
539.553	0.165	1079106	keystroke	n	n/a
539.762	0.106	1079524	keystroke	i	n/a
539.837	0.1955	1079674	keystroke	o	n/a
540.0185	0.1645	1080037	keystroke	r	n/a
540.212	0.135	1080424	keystroke	Key.space	n/a
540.483	0.09	1080966	keystroke	g	n/a
540.5585	0.1195	1081117	keystroke	u	n/a
540.662	0.136	1081324	keystroke	e	n/a
540.768	0.225	1081536	keystroke	s	n/a
540.948	0.12	1081896	keystroke	t	n/a
541.0965	0.15	1082193	keystroke	Key.space	n/a
541.4265	0.225	1082853	keystroke	c	n/a
541.6365	0.241	1083273	keystroke	a	n/a
541.8175	0.15	1083635	keystroke	s	n/a
542.0115	0.136	1084023	keystroke	u	n/a
542.2675	0.27	1084535	keystroke	i	n/a
542.4765	0.106	1084953	keystroke	n	n/a
542.5515	0.0905	1085103	keystroke	g	n/a
542.6865	0.165	1085373	keystroke	Key.enter	n/a
542.8585	9.984	1085717	prompt	n/a	write worldwide semester specification\n
544.051	0.12	1088102	keystroke	w	n/a
544.277	0.179	1088554	keystroke	r	n/a
544.487	0.1495	1088974	keystroke	i	n/a
544.6515	0.12	1089303	keystroke	t	n/a
544.7265	0.104	1089453	keystroke	e	n/a
544.8615	0.149	1089723	keystroke	Key.space	n/a
545.0265	0.149	1090053	keystroke	w	n/a
545.1765	0.12	1090353	keystroke	o	n/a
545.2815	0.12	1090563	keystroke	r	n/a
545.4165	0.12	1090833	keystroke	l	n/a
545.5665	0.1635	1091133	keystroke	d	n/a
545.9115	0.105	1091823	keystroke	w	n/a
546.136	0.12	1092272	keystroke	i	n/a
546.241	0.134	1092482	keystroke	d	n/a
546.496	0.1495	1092992	keystroke	e	n/a
546.6905	0.1495	1093381	keystroke	Key.space	n/a
546.871	0.15	1093742	keystroke	s	n/a
546.975	0.151	1093950	keystroke	e	n/a
547.305	0.136	1094610	keystroke	m	n/a
547.381	0.24	1094762	keystroke	e	n/a
547.576	0.15	1095152	keystroke	s	n/a
547.981	0.06	1095962	keystroke	t	n/a
548.3555	0.2105	1096711	keystroke	e	n/a
548.506	0.135	1097012	keystroke	r	n/a
548.6845	0.181	1097369	keystroke	Key.space	n/a
548.9555	0.165	1097911	keystroke	s	n/a
549.1505	0.165	1098301	keystroke	p	n/a
549.3305	0.135	1098661	keystroke	e	n/a
550.2	0.165	1100400	keystroke	c	n/a
550.5755	0.1195	1101151	keystroke	i	n/a
550.71	0.105	1101420	keystroke	f	n/a
550.845	0.135	1101690	keystroke	i	n/a
551.145	0.18	1102290	keystroke	c	n/a
551.295	0.255	1102590	keystroke	a	n/a
551.52	0.12	1103040	keystroke	t	n/a
551.655	0.165	1103310	keystroke	i	n/a
552.165	0.1495	1104330	keystroke	o	n/a
552.4495	0.165	1104899	keystroke	n	n/a
552.7045	0.135	1105409	keystroke	Key.enter	n/a
552.8475	6.8765	1105695	prompt	n/a	hobbies mill milk aurora\n
553.5895	0.1495	1107179	keystroke	h	n/a
553.664	0.195	1107328	keystroke	o	n/a
554.054	0.06	1108108	keystroke	b	n/a
554.1735	0.0605	1108347	keystroke	b	n/a
554.579	0.18	1109158	keystroke	i	n/a
554.789	0.135	1109578	keystroke	e	n/a
554.849	0.18	1109698	keystroke	s	n/a
555.119	0.12	1110238	keystroke	Key.space	n/a
555.449	0.105	1110898	keystroke	m	n/a
555.7185	0.15	1111437	keystroke	i	n/a
555.8835	0.105	1111767	keystroke	l	n/a
556.1085	0.105	1112217	keystroke	l	n/a
556.4085	0.135	1112817	keystroke	Key.space	n/a
556.6935	0.075	1113387	keystroke	m	n/a
557.488	0.1345	1114976	keystroke	i	n/a
557.6375	0.27	1115275	keystroke	l	n/a
557.8625	0.135	1115725	keystroke	k	n/a
558.1175	0.15	1116235	keystroke	Key.space	n/a
558.2525	0.15	1116505	keystroke	a	n/a
558.4925	0.09	1116985	keystroke	u	n/a
558.7175	0.105	1117435	keystroke	r	n/a
558.958	0.165	1117916	keystroke	o	n/a
559.108	0.1795	1118216	keystroke	r	n/a
559.2125	0.165	1118425	keystroke	a	n/a
559.6025	0.12	1119205	keystroke	Key.enter	n/a
559.728	6.774	1119456	prompt	n/a	would've than sodium hardcover\n
560.277	0.135	1120554	keystroke	w	n/a
560.472	0.21	1120944	keystroke	o	n/a
560.5775	0.2395	1121155	keystroke	u	n/a
560.787	0.15	1121574	keystroke	l	n/a
560.937	0.12	1121874	keystroke	d	n/a
561.207	0.15	1122414	keystroke	'	n/a
561.358	0.149	1122716	keystroke	v	n/a
561.522	0.1495	1123044	keystroke	e	n/a
561.6565	0.15	1123313	keystroke	Key.space	n/a
561.8665	0.165	1123733	keystroke	t	n/a
562.0465	0.105	1124093	keystroke	h	n/a
562.1965	0.15	1124393	keystroke	a	n/a
562.3465	0.165	1124693	keystroke	n	n/a
562.4665	0.135	1124933	keystroke	Key.space	n/a
562.5715	0.105	1125143	keystroke	s	n/a
562.7215	0.105	1125443	keystroke	o	n/a
562.9465	0.12	1125893	keystroke	l	n/a
563.261	0.12	1126522	keystroke	Key.backspace	n/a
563.366	0.165	1126732	keystroke	d	n/a
563.561	0.15	1127122	keystroke	i	n/a
563.846	0.12	1127692	keystroke	u	n/a
564.131	0.105	1128262	keystroke	m	n/a
564.311	0.12	1128622	keystroke	Key.space	n/a
564.521	0.12	1129042	keystroke	h	n/a
564.611	0.18	1129222	keystroke	a	n/a
564.731	0.12	1129462	keystroke	r	n/a
565.001	0.105	1130002	keystroke	d	n/a
565.2555	0.12	1130511	keystroke	c	n/a
565.4805	0.135	1130961	keystroke	o	n/a
565.6755	0.18	1131351	keystroke	v	n/a
565.8855	0.195	1131771	keystroke	e	n/a
566.0355	0.1645	1132071	keystroke	r	n/a
566.3805	0.12	1132761	keystroke	Key.enter	n/a
566.506	8.424	1133012	prompt	n/a	lone california bachelor collaboration\n
567.79	0.165	1135580	keystroke	l	n/a
568.03	0.2395	1136060	keystroke	o	n/a
568.1495	0.15	1136299	keystroke	n	n/a
568.2845	0.135	1136569	keystroke	e	n/a
568.3895	0.15	1136779	keystroke	Key.space	n/a
568.5995	0.15	1137199	keystroke	c	n/a
568.7045	0.165	1137409	keystroke	a	n/a
568.8545	0.18	1137709	keystroke	l	n/a
569.0045	0.12	1138009	keystroke	i	n/a
569.1395	0.135	1138279	keystroke	f	n/a
569.3045	0.165	1138609	keystroke	o	n/a
569.4845	0.12	1138969	keystroke	r	n/a
569.6195	0.21	1139239	keystroke	n	n/a
569.8155	0.164	1139631	keystroke	i	n/a
569.9795	0.12	1139959	keystroke	a	n/a
570.1445	0.1345	1140289	keystroke	Key.space	n/a
570.429	0.12	1140858	keystroke	b	n/a
570.534	0.195	1141068	keystroke	a	n/a
570.744	0.18	1141488	keystroke	c	n/a
570.984	0.12	1141968	keystroke	h	n/a
571.539	0.1195	1143078	keystroke	e	n/a
571.6885	0.12	1143377	keystroke	l	n/a
571.9285	0.105	1143857	keystroke	o	n/a
572.0635	0.1345	1144127	keystroke	r	n/a
572.258	0.15	1144516	keystroke	Key.space	n/a
572.588	0.18	1145176	keystroke	c	n/a
572.693	0.12	1145386	keystroke	o	n/a
572.888	0.105	1145776	keystroke	l	n/a
573.053	0.135	1146106	keystroke	l	n/a
573.278	0.135	1146556	keystroke	a	n/a
573.473	0.225	1146946	keystroke	b	n/a
573.638	0.195	1147276	keystroke	o	n/a
573.788	0.15	1147576	keystroke	r	n/a
573.923	0.18	1147846	keystroke	a	n/a
574.073	0.135	1148146	keystroke	t	n/a
574.298	0.12	1148596	keystroke	i	n/a
574.373	0.195	1148746	keystroke	o	n/a
574.508	0.1655	1149016	keystroke	n	n/a
574.7775	0.15	1149555	keystroke	Key.enter	n/a
574.934	9.4735	1149868	prompt	n/a	occurrence voting connector mpeg\n
575.528	0.089	1151056	keystroke	c	n/a
575.827	0.12	1151654	keystroke	Key.backspace	n/a
576.1725	0.15	1152345	keystroke	o	n/a
576.5025	0.09	1153005	keystroke	c	n/a
576.6825	0.12	1153365	keystroke	c	n/a
576.8925	0.135	1153785	keystroke	u	n/a
577.0275	0.0895	1154055	keystroke	r	n/a
577.207	0.21	1154414	keystroke	r	n/a
577.387	0.18	1154774	keystroke	a	n/a
578.0025	0.089	1156005	keystroke	Key.backspace	n/a
578.1075	0.1345	1156215	keystroke	e	n/a
578.302	0.15	1156604	keystroke	n	n/a
578.497	0.135	1156994	keystroke	c	n/a
578.602	0.12	1157204	keystroke	e	n/a
578.737	0.135	1157474	keystroke	Key.space	n/a
578.932	0.195	1157864	keystroke	v	n/a
579.112	0.195	1158224	keystroke	o	n/a
579.292	0.15	1158584	keystroke	t	n/a
579.457	0.21	1158914	keystroke	i	n/a
579.577	0.1045	1159154	keystroke	n	n/a
579.712	0.12	1159424	keystroke	g	n/a
579.817	0.1495	1159634	keystroke	Key.space	n/a
580.027	0.1795	1160054	keystroke	c	n/a
580.1465	0.135	1160293	keystroke	o	n/a
580.2365	0.105	1160473	keystroke	n	n/a
580.4165	0.12	1160833	keystroke	n	n/a
580.5065	0.105	1161013	keystroke	e	n/a
580.6415	0.015	1161283	keystroke	c	n/a
580.6715	0.165	1161343	keystroke	c	n/a
580.9865	0.12	1161973	keystroke	t	n/a
581.2715	0.075	1162543	keystroke	Key.backspace	n/a
581.4515	0.089	1162903	keystroke	Key.backspace	n/a
581.706	0.135	1163412	keystroke	t	n/a
582.081	0.1345	1164162	keystroke	o	n/a
582.2455	0.105	1164491	keystroke	r	n/a
582.4705	0.165	1164941	keystroke	Key.space	n/a
582.8755	0.105	1165751	keystroke	m	n/a
583.3405	0.1495	1166681	keystroke	p	n/a
583.88	0.15	1167760	keystroke	e	n/a
584.12	0.12	1168240	keystroke	g	n/a
584.33	0.075	1168660	keystroke	Key.enter	n/a
584.4135	8.046	1168827	prompt	n/a	pierce crucial christ associations\n
585.395	0.2095	1170790	keystroke	p	n/a
585.6195	0.135	1171239	keystroke	i	n/a
585.8445	0.135	1171689	keystroke	e	n/a
585.9645	0.09	1171929	keystroke	r	n/a
586.3095	0.18	1172619	keystroke	c	n/a
586.4445	0.15	1172889	keystroke	e	n/a
586.6245	0.15	1173249	keystroke	Key.space	n/a
586.8345	0.15	1173669	keystroke	c	n/a
587.0445	0.105	1174089	keystroke	u	n/a
587.1795	0.12	1174359	keystroke	r	n/a
587.4945	0.075	1174989	keystroke	Key.backspace	n/a
587.6295	0.09	1175259	keystroke	Key.backspace	n/a
587.7045	0.12	1175409	keystroke	r	n/a
587.8995	0.12	1175799	keystroke	u	n/a
588.0645	0.1495	1176129	keystroke	c	n/a
588.259	0.12	1176518	keystroke	i	n/a
588.394	0.15	1176788	keystroke	a	n/a
588.559	0.12	1177118	keystroke	l	n/a
588.754	0.15	1177508	keystroke	Key.space	n/a
588.934	0.135	1177868	keystroke	c	n/a
589.084	0.1195	1178168	keystroke	h	n/a
589.2785	0.12	1178557	keystroke	r	n/a
589.4285	0.12	1178857	keystroke	i	n/a
589.5635	0.195	1179127	keystroke	s	n/a
589.7435	0.12	1179487	keystroke	t	n/a
589.9535	0.15	1179907	keystroke	Key.space	n/a
590.2685	0.21	1180537	keystroke	a	n/a
590.4185	0.135	1180837	keystroke	s	n/a
590.6285	0.12	1181257	keystroke	s	n/a
590.7635	0.165	1181527	keystroke	o	n/a
590.9585	0.15	1181917	keystroke	c	n/a
591.123	0.135	1182246	keystroke	i	n/a
591.273	0.18	1182546	keystroke	a	n/a
591.468	0.15	1182936	keystroke	t	n/a
591.588	0.12	1183176	keystroke	i	n/a
591.663	0.18	1183326	keystroke	o	n/a
591.828	0.12	1183656	keystroke	n	n/a
592.053	0.105	1184106	keystroke	s	n/a
592.3225	0.135	1184645	keystroke	Key.enter	n/a
592.474	9.9725	1184948	prompt	n/a	ballet downloaded architecture reads\n
593.0875	0.0895	1186175	keystroke	b	n/a
593.207	0.12	1186414	keystroke	a	n/a
593.387	0.105	1186774	keystroke	l	n/a
593.597	0.12	1187194	keystroke	l	n/a
593.747	0.15	1187494	keystroke	e	n/a
593.957	0.135	1187914	keystroke	t	n/a
594.107	0.15	1188214	keystroke	Key.space	n/a
594.317	0.15	1188634	keystroke	d	n/a
594.482	0.15	1188964	keystroke	o	n/a
