onset	duration	sample	value	key	prompt_text
2.0155	6.578	4031	prompt	n/a	the quick brown fox jumps over a lazy dog\n
3.494	0.043	6988	keystroke_t	t	n/a
3.5525	0.1045	7105	keystroke_h	h	n/a
3.642	0.1055	7284	keystroke_e	e	n/a
3.7325	0.12	7465	keystroke_Key.space	Key.space	n/a
3.8825	0.135	7765	keystroke_q	q	n/a
4.032	0.1945	8064	keystroke_u	u	n/a
4.122	0.1345	8244	keystroke_i	i	n/a
4.3015	0.105	8603	keystroke_c	c	n/a
4.3765	0.135	8753	keystroke_k	k	n/a
4.4815	0.1775	8963	keystroke_Key.space	Key.space	n/a
4.6295	0.1045	9259	keystroke_b	b	n/a
4.764	0.09	9528	keystroke_r	r	n/a
4.869	0.105	9738	keystroke_o	o	n/a
4.959	0.12	9918	keystroke_w	w	n/a
5.05	0.164	10100	keystroke_n	n	n/a
5.124	0.15	10248	keystroke_Key.space	Key.space	n/a
5.245	0.119	10490	keystroke_f	f	n/a
5.349	0.09	10698	keystroke_o	o	n/a
5.499	0.105	10998	keystroke_x	x	n/a
5.589	0.18	11178	keystroke_Key.space	Key.space	n/a
5.709	0.09	11418	keystroke_j	j	n/a
5.874	0.0605	11748	keystroke_u	u	n/a
6.0545	0.18	12109	keystroke_m	m	n/a
6.1755	0.119	12351	keystroke_p	p	n/a
6.3095	0.09	12619	keystroke_s	s	n/a
6.3695	0.165	12739	keystroke_Key.space	Key.space	n/a
6.4595	0.135	12919	keystroke_o	o	n/a
6.5645	0.09	13129	keystroke_v	v	n/a
6.7745	0.15	13549	keystroke_e	e	n/a
6.8645	0.12	13729	keystroke_r	r	n/a
7.0145	0.1205	14029	keystroke_Key.space	Key.space	n/a
7.1195	0.105	14239	keystroke_a	a	n/a
7.24	0.12	14480	keystroke_Key.space	Key.space	n/a
7.4345	0.1205	14869	keystroke_l	l	n/a
7.525	0.09	15050	keystroke_a	a	n/a
7.7195	0.105	15439	keystroke_z	z	n/a
7.8395	0.12	15679	keystroke_y	y	n/a
7.8995	0.135	15799	keystroke_Key.space	Key.space	n/a
8.0195	0.0905	16039	keystroke_d	d	n/a
8.11	0.09	16220	keystroke_o	o	n/a
8.275	0.0745	16550	keystroke_g	g	n/a
8.5145	0.075	17029	keystroke_Key.enter	Key.enter	n/a
8.598	12.8635	17196	prompt	n/a	liked complimentary cottages temperatures\n
9.3695	0.09	18739	keystroke_i	i	n/a
9.7295	0.045	19459	keystroke_Key.backspace	Key.backspace	n/a
10.0595	0.105	20119	keystroke_l	l	n/a
10.2095	0.09	20419	keystroke_i	i	n/a
10.4045	0.075	20809	keystroke_k	k	n/a
10.4945	0.12	20989	keystroke_e	e	n/a
10.5695	0.105	21139	keystroke_d	d	n/a
10.6445	0.135	21289	keystroke_Key.space	Key.space	n/a
10.7945	0.1055	21589	keystroke_c	c	n/a
10.915	0.15	21830	keystroke_o	o	n/a
11.02	0.105	22040	keystroke_m	m	n/a
11.2295	0.1805	22459	keystroke_p	p	n/a
11.35	0.075	22700	keystroke_l	l	n/a
11.635	0.075	23270	keystroke_u	u	n/a
12.2345	0.06	24469	keystroke_Key.backspace	Key.backspace	n/a
12.5195	0.06	25039	keystroke_u	u	n/a
13.075	0.06	26150	keystroke_Key.backspace	Key.backspace	n/a
13.63	0.045	27260	keystroke_i	i	n/a
13.8695	0.105	27739	keystroke_m	m	n/a
14.0495	0.105	28099	keystroke_e	e	n/a
14.1845	0.09	28369	keystroke_n	n	n/a
14.3045	0.105	28609	keystroke_t	t	n/a
14.4995	0.165	28999	keystroke_a	a	n/a
14.6045	0.12	29209	keystroke_r	r	n/a
14.7095	0.1505	29419	keystroke_y	y	n/a
14.8	0.1495	29600	keystroke_Key.space	Key.space	n/a
15.3845	0.12	30769	keystroke_c	c	n/a
15.6095	0.075	31219	keystroke_o	o	n/a
15.9545	0.0755	31909	keystroke_t	t	n/a
16.12	0.03	32240	keystroke_t	t	n/a
16.2545	0.135	32509	keystroke_a	a	n/a
16.4345	0.21	32869	keystroke_g	g	n/a
16.5695	0.15	33139	keystroke_e	e	n/a
16.6295	0.15	33259	keystroke_s	s	n/a
16.7645	0.15	33529	keystroke_Key.space	Key.space	n/a
16.9445	0.12	33889	keystroke_t	t	n/a
17.1845	0.09	34369	keystroke_e	e	n/a
17.65	0.105	35300	keystroke_m	m	n/a
18.1445	0.045	36289	keystroke_p	p	n/a
18.2195	0.165	36439	keystroke_e	e	n/a
18.3395	0.105	36679	keystroke_r	r	n/a
18.5345	0.0905	37069	keystroke_a	a	n/a
18.7445	0.06	37489	keystroke_t	t	n/a
18.9545	0.045	37909	keystroke_y	y	n/a
19.029	0.135	38058	keystroke_r	r	n/a
19.179	0.18	38358	keystroke_e	e	n/a
19.509	0.045	39018	keystroke_Key.backspace	Key.backspace	n/a
19.614	0.075	39228	keystroke_Key.backspace	Key.backspace	n/a
19.7495	0.0595	39499	keystroke_Key.backspace	Key.backspace	n/a
20.4695	0.09	40939	keystroke_u	u	n/a
20.7995	0.225	41599	keystroke_r	r	n/a
20.8895	0.225	41779	keystroke_e	e	n/a
21.0095	0.165	42019	keystroke_s	s	n/a
21.3995	0.06	42799	keystroke_Key.enter	Key.enter	n/a
21.4655	5.831	42931	prompt	n/a	oasis teens ordering really\n
22.2095	0.135	44419	keystroke_o	o	n/a
22.3595	0.15	44719	keystroke_a	a	n/a
22.4495	0.135	44899	keystroke_s	s	n/a
22.7495	0.075	45499	keystroke_i	i	n/a
22.8695	0.09	45739	keystroke_s	s	n/a
23.0195	0.12	46039	keystroke_Key.space	Key.space	n/a
23.2295	0.135	46459	keystroke_t	t	n/a
23.395	0.045	46790	keystroke_e	e	n/a
23.65	0.075	47300	keystroke_e	e	n/a
23.9495	0.105	47899	keystroke_n	n	n/a
24.0695	0.12	48139	keystroke_s	s	n/a
24.2195	0.12	48439	keystroke_Key.space	Key.space	n/a
24.4745	0.105	48949	keystroke_o	o	n/a
24.6845	0.075	49369	keystroke_r	r	n/a
24.9095	0.105	49819	keystroke_d	d	n/a
25.0745	0.135	50149	keystroke_e	e	n/a
25.1795	0.135	50359	keystroke_r	r	n/a
25.3295	0.165	50659	keystroke_i	i	n/a
25.4345	0.12	50869	keystroke_n	n	n/a
25.5555	0.059	51111	keystroke_g	g	n/a
25.6595	0.12	51319	keystroke_Key.space	Key.space	n/a
25.8395	0.135	51679	keystroke_r	r	n/a
25.8995	0.1505	51799	keystroke_e	e	n/a
26.095	0.12	52190	keystroke_a	a	n/a
26.275	0.09	52550	keystroke_l	l	n/a
26.41	0.15	52820	keystroke_l	l	n/a
26.905	0.075	53810	keystroke_y	y	n/a
27.1895	0.105	54379	keystroke_Key.enter	Key.enter	n/a
27.2995	4.752	54599	prompt	n/a	mods abuse worker shortcuts\n
27.9395	0.18	55879	keystroke_m	m	n/a
28.0445	0.15	56089	keystroke_o	o	n/a
28.1645	0.15	56329	keystroke_d	d	n/a
28.2545	0.105	56509	keystroke_s	s	n/a
28.3745	0.135	56749	keystroke_Key.space	Key.space	n/a
28.57	0.1045	57140	keystroke_a	a	n/a
28.72	0.09	57440	keystroke_b	b	n/a
29.005	0.105	58010	keystroke_u	u	n/a
29.125	0.165	58250	keystroke_s	s	n/a
29.245	0.149	58490	keystroke_e	e	n/a
29.38	0.119	58760	keystroke_Key.space	Key.space	n/a
29.5	0.105	59000	keystroke_w	w	n/a
29.59	0.12	59180	keystroke_o	o	n/a
29.74	0.075	59480	keystroke_r	r	n/a
29.86	0.1195	59720	keystroke_k	k	n/a
29.9495	0.1505	59899	keystroke_e	e	n/a
30.04	0.105	60080	keystroke_r	r	n/a
30.175	0.12	60350	keystroke_Key.space	Key.space	n/a
30.31	0.105	60620	keystroke_s	s	n/a
30.445	0.1795	60890	keystroke_h	h	n/a
30.5655	0.119	61131	keystroke_o	o	n/a
30.6545	0.105	61309	keystroke_r	r	n/a
30.8795	0.045	61759	keystroke_t	t	n/a
31.255	0.0895	62510	keystroke_c	c	n/a
31.5095	0.09	63019	keystroke_u	u	n/a
31.6295	0.18	63259	keystroke_t	t	n/a
31.7345	0.15	63469	keystroke_s	s	n/a
31.9745	0.075	63949	keystroke_Key.enter	Key.enter	n/a
32.055	5.712	64110	prompt	n/a	distance depth sudan andy\n
32.6505	0.089	65301	keystroke_d	d	n/a
32.7845	0.105	65569	keystroke_i	i	n/a
32.8745	0.12	65749	keystroke_s	s	n/a
33.1745	0.09	66349	keystroke_t	t	n/a
33.3395	0.105	66679	keystroke_a	a	n/a
33.6245	0.121	67249	keystroke_n	n	n/a
33.7595	0.121	67519	keystroke_c	c	n/a
33.8345	0.12	67669	keystroke_e	e	n/a
33.9695	0.1205	67939	keystroke_Key.space	Key.space	n/a
34.12	0.18	68240	keystroke_d	d	n/a
34.225	0.135	68450	keystroke_e	e	n/a
34.51	0.09	69020	keystroke_p	p	n/a
35.11	0.105	70220	keystroke_t	t	n/a
35.605	0.195	71210	keystroke_h	h	n/a
35.725	0.195	71450	keystroke_Key.space	Key.space	n/a
35.935	0.105	71870	keystroke_s	s	n/a
36.085	0.12	72170	keystroke_u	u	n/a
36.415	0.165	72830	keystroke_d	d	n/a
36.535	0.165	73070	keystroke_a	a	n/a
36.67	0.165	73340	keystroke_n	n	n/a
36.76	0.165	73520	keystroke_Key.space	Key.space	n/a
36.97	0.105	73940	keystroke_a	a	n/a
37.105	0.105	74210	keystroke_n	n	n/a
37.24	0.09	74480	keystroke_d	d	n/a
37.39	0.09	74780	keystroke_y	y	n/a
37.66	0.105	75320	keystroke_Key.enter	Key.enter	n/a
37.7705	11.1445	75541	prompt	n/a	furnished platform microsoft mechanical\n
38.65	0.09	77300	keystroke_f	f	n/a
38.785	0.09	77570	keystroke_u	u	n/a
38.905	0.06	77810	keystroke_r	r	n/a
39.175	0.18	78350	keystroke_n	n	n/a
39.295	0.12	78590	keystroke_i	i	n/a
39.415	0.09	78830	keystroke_s	s	n/a
39.52	0.12	79040	keystroke_h	h	n/a
39.64	0.135	79280	keystroke_e	e	n/a
39.715	0.15	79430	keystroke_d	d	n/a
39.865	0.135	79730	keystroke_Key.space	Key.space	n/a
40.645	0.105	81290	keystroke_p	p	n/a
40.9295	0.105	81859	keystroke_l	l	n/a
41.0645	0.12	82129	keystroke_a	a	n/a
41.3645	0.075	82729	keystroke_t	t	n/a
41.6495	0.075	83299	keystroke_f	f	n/a
41.7995	0.12	83599	keystroke_o	o	n/a
41.9345	0.06	83869	keystroke_r	r	n/a
42.055	0.1495	84110	keystroke_m	m	n/a
42.1595	0.15	84319	keystroke_Key.space	Key.space	n/a
42.4745	0.09	84949	keystroke_m	m	n/a
42.8495	0.075	85699	keystroke_i	i	n/a
43.0295	0.09	86059	keystroke_c	c	n/a
43.3445	0.0605	86689	keystroke_r	r	n/a
43.645	0.09	87290	keystroke_o	o	n/a
43.84	0.1055	87680	keystroke_s	s	n/a
44.155	0.09	88310	keystroke_o	o	n/a
44.29	0.105	88580	keystroke_f	f	n/a
44.515	0.06	89030	keystroke_t	t	n/a
44.605	0.1345	89210	keystroke_Key.space	Key.space	n/a
44.8745	0.09	89749	keystroke_m	m	n/a
44.9795	0.09	89959	keystroke_e	e	n/a
45.3845	0.09	90769	keystroke_c	c	n/a
45.5195	0.09	91039	keystroke_h	h	n/a
46.885	0.075	93770	keystroke_a	a	n/a
46.99	0.18	93980	keystroke_n	n	n/a
47.11	0.135	94220	keystroke_i	i	n/a
47.2	0.135	94400	keystroke_c	c	n/a
47.29	0.135	94580	keystroke_a	a	n/a
47.395	0.12	94790	keystroke_l	l	n/a
48.7895	0.12	97579	keystroke_Key.enter	Key.enter	n/a
48.918	5.1875	97836	prompt	n/a	login congress organized units\n
49.7045	0.09	99409	keystroke_l	l	n/a
49.8995	0.075	99799	keystroke_o	o	n/a
50.0045	0.09	100009	keystroke_g	g	n/a
50.1095	0.225	100219	keystroke_i	i	n/a
50.2145	0.15	100429	keystroke_n	n	n/a
50.3045	0.15	100609	keystroke_Key.space	Key.space	n/a
50.4395	0.1355	100879	keystroke_c	c	n/a
50.56	0.135	101120	keystroke_o	o	n/a
50.65	0.135	101300	keystroke_n	n	n/a
50.755	0.06	101510	keystroke_g	g	n/a
50.98	0.195	101960	keystroke_r	r	n/a
51.1	0.18	102200	keystroke_e	e	n/a
51.325	0.135	102650	keystroke_s	s	n/a
51.565	0.09	103130	keystroke_s	s	n/a
51.685	0.1945	103370	keystroke_Key.space	Key.space	n/a
51.8045	0.12	103609	keystroke_o	o	n/a
51.8945	0.075	103789	keystroke_r	r	n/a
52.1045	0.075	104209	keystroke_g	g	n/a
52.3445	0.09	104689	keystroke_a	a	n/a
52.5245	0.18	105049	keystroke_n	n	n/a
52.6445	0.135	105289	keystroke_i	i	n/a
52.7195	0.075	105439	keystroke_z	z	n/a
52.9145	0.135	105829	keystroke_e	e	n/a
53.0345	0.1055	106069	keystroke_d	d	n/a
53.11	0.18	106220	keystroke_Key.space	Key.space	n/a
53.275	0.1645	106550	keystroke_u	u	n/a
53.4095	0.225	106819	keystroke_n	n	n/a
53.5745	0.12	107149	keystroke_i	i	n/a
53.6495	0.135	107299	keystroke_t	t	n/a
53.7395	0.12	107479	keystroke_s	s	n/a
54.0095	0.091	108019	keystroke_Key.enter	Key.enter	n/a
54.1105	7.281	108221	prompt	n/a	believed believe alexander naturals\n
54.835	0.12	109670	keystroke_b	b	n/a
54.97	0.075	109940	keystroke_e	e	n/a
55.195	0.18	110390	keystroke_l	l	n/a
55.315	0.135	110630	keystroke_i	i	n/a
55.435	0.12	110870	keystroke_e	e	n/a
55.645	0.165	111290	keystroke_v	v	n/a
55.795	0.18	111590	keystroke_e	e	n/a
55.96	0.12	111920	keystroke_d	d	n/a
56.11	0.12	112220	keystroke_Key.space	Key.space	n/a
56.32	0.105	112640	keystroke_b	b	n/a
56.515	0.09	113030	keystroke_e	e	n/a
56.905	0.1495	113810	keystroke_l	l	n/a
56.9945	0.15	113989	keystroke_i	i	n/a
57.1145	0.165	114229	keystroke_e	e	n/a
57.3095	0.165	114619	keystroke_v	v	n/a
57.4445	0.105	114889	keystroke_e	e	n/a
57.5645	0.12	115129	keystroke_Key.space	Key.space	n/a
57.7295	0.106	115459	keystroke_a	a	n/a
57.9095	0.105	115819	keystroke_l	l	n/a
58.0295	0.075	116059	keystroke_e	e	n/a
58.2695	0.09	116539	keystroke_x	x	n/a
58.54	0.105	117080	keystroke_a	a	n/a
58.915	0.12	117830	keystroke_n	n	n/a
59.11	0.15	118220	keystroke_d	d	n/a
59.275	0.135	118550	keystroke_e	e	n/a
59.38	0.12	118760	keystroke_r	r	n/a
59.53	0.195	119060	keystroke_Key.space	Key.space	n/a
59.665	0.1345	119330	keystroke_n	n	n/a
59.7695	0.105	119539	keystroke_a	a	n/a
60.0395	0.075	120079	keystroke_t	t	n/a
60.4145	0.0755	120829	keystroke_u	u	n/a
60.535	0.165	121070	keystroke_r	r	n/a
60.64	0.15	121280	keystroke_a	a	n/a
60.805	0.12	121610	keystroke_l	l	n/a
60.985	0.12	121970	keystroke_s	s	n/a
61.3	0.09	122600	keystroke_Key.enter	Key.enter	n/a
61.3955	5.186	122791	prompt	n/a	hills replacing crest allergy\n
61.9455	0.24	123891	keystroke_h	h	n/a
62.0805	0.164	124161	keystroke_i	i	n/a
62.1695	0.091	124339	keystroke_l	l	n/a
62.3645	0.105	124729	keystroke_l	l	n/a
62.4845	0.091	124969	keystroke_s	s	n/a
62.605	0.1345	125210	keystroke_Key.space	Key.space	n/a
62.7845	0.12	125569	keystroke_r	r	n/a
62.8445	0.135	125689	keystroke_e	e	n/a
63.2345	0.09	126469	keystroke_p	p	n/a
63.4895	0.09	126979	keystroke_l	l	n/a
63.5945	0.165	127189	keystroke_a	a	n/a
63.7295	0.12	127459	keystroke_c	c	n/a
63.9095	0.135	127819	keystroke_i	i	n/a
63.9845	0.105	127969	keystroke_n	n	n/a
64.0745	0.06	128149	keystroke_g	g	n/a
64.1945	0.12	128389	keystroke_Key.space	Key.space	n/a
64.6595	0.06	129319	keystroke_c	c	n/a
64.8845	0.165	129769	keystroke_r	r	n/a
64.9595	0.165	129919	keystroke_e	e	n/a
65.0645	0.18	130129	keystroke_s	s	n/a
65.2295	0.09	130459	keystroke_t	t	n/a
65.335	0.12	130670	keystroke_Key.space	Key.space	n/a
65.47	0.1045	130940	keystroke_a	a	n/a
65.6495	0.06	131299	keystroke_l	l	n/a
65.7995	0.075	131599	keystroke_l	l	n/a
65.8605	0.089	131721	keystroke_e	e	n/a
65.9045	0.105	131809	keystroke_r	r	n/a
66.1295	0.075	132259	keystroke_g	g	n/a
66.2345	0.09	132469	keystroke_y	y	n/a
66.49	0.0895	132980	keystroke_Key.enter	Key.enter	n/a
66.5845	9.507	133169	prompt	n/a	vitamins administrative floral repository\n
67.42	0.0895	134840	keystroke_v	v	n/a
67.7045	0.075	135409	keystroke_i	i	n/a
67.7945	0.09	135589	keystroke_t	t	n/a
67.9295	0.1355	135859	keystroke_a	a	n/a
68.05	0.119	136100	keystroke_m	m	n/a
68.155	0.225	136310	keystroke_i	i	n/a
68.275	0.105	136550	keystroke_n	n	n/a
68.35	0.09	136700	keystroke_s	s	n/a
68.485	0.12	136970	keystroke_Key.space	Key.space	n/a
68.62	0.165	137240	keystroke_a	a	n/a
68.755	0.12	137510	keystroke_d	d	n/a
69.0545	0.075	138109	keystroke_m	m	n/a
69.2795	0.09	138559	keystroke_i	i	n/a
69.865	0.06	139730	keystroke_n	n	n/a
70.0445	0.075	140089	keystroke_i	i	n/a
70.1495	0.09	140299	keystroke_s	s	n/a
70.3745	0.09	140749	keystroke_t	t	n/a
70.6145	0.12	141229	keystroke_r	r	n/a
70.7195	0.1355	141439	keystroke_a	a	n/a
70.975	0.0745	141950	keystroke_t	t	n/a
71.1395	0.09	142279	keystroke_i	i	n/a
71.2745	0.18	142549	keystroke_v	v	n/a
71.4095	0.12	142819	keystroke_e	e	n/a
71.4995	0.135	142999	keystroke_Key.space	Key.space	n/a
71.7245	0.12	143449	keystroke_f	f	n/a
71.8745	0.105	143749	keystroke_l	l	n/a
72.1	0.0895	144200	keystroke_o	o	n/a
72.2045	0.165	144409	keystroke_r	r	n/a
72.3245	0.15	144649	keystroke_a	a	n/a
72.4445	0.15	144889	keystroke_l	l	n/a
72.5495	0.135	145099	keystroke_Key.space	Key.space	n/a
72.9245	0.105	145849	keystroke_r	r	n/a
73.0145	0.0905	146029	keystroke_e	e	n/a
73.5555	0.104	147111	keystroke_p	p	n/a
74.7095	0.045	149419	keystroke_o	o	n/a
74.89	0.09	149780	keystroke_s	s	n/a
75.115	0.075	150230	keystroke_i	i	n/a
75.34	0.105	150680	keystroke_t	t	n/a
75.49	0.12	150980	keystroke_o	o	n/a
75.595	0.075	151190	keystroke_r	r	n/a
75.715	0.09	151430	keystroke_y	y	n/a
76.0145	0.0755	152029	keystroke_Key.enter	Key.enter	n/a
76.094	6.207	152188	prompt	n/a	stanley main terminals environments\n
76.87	0.105	153740	keystroke_s	s	n/a
77.14	0.09	154280	keystroke_t	t	n/a
77.35	0.105	154700	keystroke_a	a	n/a
77.5	0.1045	155000	keystroke_n	n	n/a
77.7395	0.09	155479	keystroke_l	l	n/a
77.8445	0.09	155689	keystroke_e	e	n/a
77.9945	0.1805	155989	keystroke_y	y	n/a
78.1	0.1645	156200	keystroke_Key.space	Key.space	n/a
78.3995	0.075	156799	keystroke_m	m	n/a
78.5195	0.09	157039	keystroke_a	a	n/a
78.6395	0.15	157279	keystroke_i	i	n/a
78.7295	0.15	157459	keystroke_n	n	n/a
78.8195	0.15	157639	keystroke_Key.space	Key.space	n/a
79.0145	0.075	158029	keystroke_t	t	n/a
79.2395	0.135	158479	keystroke_e	e	n/a
79.3295	0.135	158659	keystroke_r	r	n/a
79.5995	0.12	159199	keystroke_m	m	n/a
79.6895	0.256	159379	keystroke_i	i	n/a
79.8545	0.135	159709	keystroke_n	n	n/a
79.9745	0.1205	159949	keystroke_a	a	n/a
80.11	0.12	160220	keystroke_l	l	n/a
80.23	0.105	160460	keystroke_s	s	n/a
80.365	0.135	160730	keystroke_Key.space	Key.space	n/a
80.575	0.09	161150	keystroke_e	e	n/a
80.755	0.075	161510	keystroke_n	n	n/a
80.89	0.09	161780	keystroke_v	v	n/a
81.025	0.09	162050	keystroke_i	i	n/a
81.175	0.075	162350	keystroke_r	r	n/a
81.265	0.165	162530	keystroke_o	o	n/a
81.355	0.105	162710	keystroke_n	n	n/a
81.58	0.09	163160	keystroke_m	m	n/a
81.685	0.075	163370	keystroke_e	e	n/a
81.79	0.09	163580	keystroke_n	n	n/a
81.865	0.135	163730	keystroke_t	t	n/a
81.94	0.15	163880	keystroke_s	s	n/a
82.195	0.105	164390	keystroke_Key.enter	Key.enter	n/a
82.304	12.4325	164608	prompt	n/a	antonio forecasts doom confidentiality\n
83.0645	0.12	166129	keystroke_a	a	n/a
83.2295	0.12	166459	keystroke_n	n	n/a
83.4095	0.09	166819	keystroke_t	t	n/a
83.5145	0.165	167029	keystroke_o	o	n/a
83.6645	0.18	167329	keystroke_n	n	n/a
83.7845	0.225	167569	keystroke_i	i	n/a
83.8745	0.165	167749	keystroke_o	o	n/a
83.9795	0.165	167959	keystroke_Key.space	Key.space	n/a
84.1295	0.09	168259	keystroke_f	f	n/a
84.2495	0.105	168499	keystroke_o	o	n/a
84.3845	0.1355	168769	keystroke_r	r	n/a
84.46	0.15	168920	keystroke_e	e	n/a
84.82	0.12	169640	keystroke_c	c	n/a
85.06	0.12	170120	keystroke_a	a	n/a
85.195	0.12	170390	keystroke_s	s	n/a
85.465	0.075	170930	keystroke_t	t	n/a
85.675	0.09	171350	keystroke_s	s	n/a
85.795	0.12	171590	keystroke_Key.space	Key.space	n/a
85.945	0.075	171890	keystroke_d	d	n/a
86.0795	0.06	172159	keystroke_o	o	n/a
86.2295	0.21	172459	keystroke_o	o	n/a
86.3795	0.135	172759	keystroke_m	m	n/a
86.4545	0.15	172909	keystroke_Key.space	Key.space	n/a
86.8145	0.105	173629	keystroke_c	c	n/a
86.9045	0.15	173809	keystroke_o	o	n/a
87.0095	0.105	174019	keystroke_n	n	n/a
87.1595	0.06	174319	keystroke_f	f	n/a
87.2945	0.09	174589	keystroke_i	i	n/a
87.5945	0.09	175189	keystroke_d	d	n/a
87.6545	0.135	175309	keystroke_e	e	n/a
87.8345	0.105	175669	keystroke_n	n	n/a
88.0145	0.075	176029	keystroke_t	t	n/a
88.1645	0.09	176329	keystroke_i	i	n/a
88.3145	0.105	176629	keystroke_a	a	n/a
93.267	0.043	186534	keystroke_l	l	n/a
93.445	0.105	186890	keystroke_i	i	n/a
93.58	0.12	187160	keystroke_t	t	n/a
93.79	0.09	187580	keystroke_y	y	n/a
94.6295	0.106	189259	keystroke_Key.enter	Key.enter	n/a
94.74	7.1365	189480	prompt	n/a	attention understood responding bread\n
95.4695	0.105	190939	keystroke_a	a	n/a
95.8745	0.105	191749	keystroke_t	t	n/a
96.1895	0.075	192379	keystroke_t	t	n/a
96.3845	0.105	192769	keystroke_e	e	n/a
96.5795	0.1055	193159	keystroke_n	n	n/a
96.715	0.075	193430	keystroke_t	t	n/a
96.835	0.27	193670	keystroke_i	i	n/a
96.925	0.195	193850	keystroke_o	o	n/a
97.015	0.15	194030	keystroke_n	n	n/a
97.105	0.195	194210	keystroke_Key.space	Key.space	n/a
97.345	0.195	194690	keystroke_u	u	n/a
97.48	0.135	194960	keystroke_n	n	n/a
97.57	0.12	195140	keystroke_d	d	n/a
97.705	0.135	195410	keystroke_e	e	n/a
97.795	0.105	195590	keystroke_r	r	n/a
97.99	0.06	195980	keystroke_s	s	n/a
98.245	0.075	196490	keystroke_t	t	n/a
98.455	0.06	196910	keystroke_o	o	n/a
98.605	0.09	197210	keystroke_o	o	n/a
98.71	0.09	197420	keystroke_d	d	n/a
98.845	0.135	197690	keystroke_Key.space	Key.space	n/a
99.4	0.12	198800	keystroke_r	r	n/a
99.445	0.15	198890	keystroke_e	e	n/a
99.745	0.075	199490	keystroke_s	s	n/a
100	0.165	200000	keystroke_p	p	n/a
100.075	0.2095	200150	keystroke_o	o	n/a
100.2095	0.135	200419	keystroke_n	n	n/a
100.3595	0.105	200719	keystroke_d	d	n/a
100.4495	0.15	200899	keystroke_i	i	n/a
100.5245	0.1205	201049	keystroke_n	n	n/a
100.6745	0.09	201349	keystroke_g	g	n/a
100.7495	0.135	201499	keystroke_Key.space	Key.space	n/a
101.0945	0.09	202189	keystroke_b	b	n/a
101.2445	0.135	202489	keystroke_r	r	n/a
101.3045	0.12	202609	keystroke_e	e	n/a
101.5145	0.135	203029	keystroke_a	a	n/a
101.6045	0.12	203209	keystroke_d	d	n/a
101.7695	0.105	203539	keystroke_Key.enter	Key.enter	n/a
101.8795	6.567	203759	prompt	n/a	trinity utilization topics load\n
102.61	0.165	205220	keystroke_t	t	n/a
102.715	0.15	205430	keystroke_r	r	n/a
103.045	0.105	206090	keystroke_i	i	n/a
103.3745	0.0905	206749	keystroke_n	n	n/a
103.5695	0.12	207139	keystroke_i	i	n/a
103.6745	0.075	207349	keystroke_t	t	n/a
103.8395	0.075	207679	keystroke_y	y	n/a
103.9445	0.1205	207889	keystroke_Key.space	Key.space	n/a
104.2445	0.09	208489	keystroke_u	u	n/a
104.5295	0.075	209059	keystroke_t	t	n/a
104.8445	0.06	209689	keystroke_i	i	n/a
105.0545	0.09	210109	keystroke_l	l	n/a
105.2645	0.075	210529	keystroke_i	i	n/a
105.4595	0.12	210919	keystroke_z	z	n/a
105.6845	0.12	211369	keystroke_a	a	n/a
105.9545	0.075	211909	keystroke_t	t	n/a
106.0445	0.3	212089	keystroke_i	i	n/a
106.1345	0.195	212269	keystroke_o	o	n/a
106.2395	0.135	212479	keystroke_n	n	n/a
106.3145	0.165	212629	keystroke_Key.space	Key.space	n/a
106.5995	0.09	213199	keystroke_t	t	n/a
106.7045	0.1505	213409	keystroke_o	o	n/a
106.8245	0.1955	213649	keystroke_p	p	n/a
106.99	0.135	213980	keystroke_i	i	n/a
107.11	0.1345	214220	keystroke_c	c	n/a
107.215	0.1195	214430	keystroke_s	s	n/a
107.5145	0.106	215029	keystroke_Key.space	Key.space	n/a
107.7405	0.105	215481	keystroke_l	l	n/a
107.9345	0.09	215869	keystroke_o	o	n/a
108.0395	0.135	216079	keystroke_a	a	n/a
108.1295	0.12	216259	keystroke_d	d	n/a
108.3395	0.105	216679	keystroke_Key.enter	Key.enter	n/a
108.4505	6.191	216901	prompt	n/a	his brilliant treating peninsula\n
109.225	0.165	218450	keystroke_h	h	n/a
109.33	0.105	218660	keystroke_i	i	n/a
109.42	0.105	218840	keystroke_s	s	n/a
109.51	0.1495	219020	keystroke_Key.space	Key.space	n/a
109.6895	0.09	219379	keystroke_b	b	n/a
109.8245	0.075	219649	keystroke_r	r	n/a
109.9455	0.09	219891	keystroke_i	i	n/a
110.2755	0.089	220551	keystroke_l	l	n/a
110.4705	0.105	220941	keystroke_l	l	n/a
110.5305	0.12	221061	keystroke_i	i	n/a
110.6655	0.12	221331	keystroke_a	a	n/a
110.8005	0.075	221601	keystroke_n	n	n/a
110.9055	0.075	221811	keystroke_t	t	n/a
110.9955	0.104	221991	keystroke_Key.space	Key.space	n/a
111.1155	0.105	222231	keystroke_t	t	n/a
111.3555	0.06	222711	keystroke_r	r	n/a
111.7155	0.045	223431	keystroke_e	e	n/a
112.1205	0.09	224241	keystroke_a	a	n/a
112.3905	0.075	224781	keystroke_t	t	n/a
112.5255	0.195	225051	keystroke_i	i	n/a
112.6155	0.15	225231	keystroke_n	n	n/a
112.7505	0.06	225501	keystroke_g	g	n/a
112.8395	0.181	225679	keystroke_Key.space	Key.space	n/a
112.9755	0.1195	225951	keystroke_p	p	n/a
113.17	0.075	226340	keystroke_e	e	n/a
113.38	0.165	226760	keystroke_n	n	n/a
113.53	0.3	227060	keystroke_i	i	n/a
113.68	0.105	227360	keystroke_n	n	n/a
113.845	0.12	227690	keystroke_s	s	n/a
113.98	0.09	227960	keystroke_u	u	n/a
114.205	0.105	228410	keystroke_l	l	n/a
114.325	0.09	228650	keystroke_a	a	n/a
114.55	0.09	229100	keystroke_Key.enter	Key.enter	n/a
114.645	5.6365	229290	prompt	n/a	delaware wholesale noticed mesa\n
115.4045	0.09	230809	keystroke_d	d	n/a
115.5845	0.105	231169	keystroke_e	e	n/a
115.7945	0.105	231589	keystroke_l	l	n/a
115.9295	0.09	231859	keystroke_a	a	n/a
116.1545	0.15	232309	keystroke_w	w	n/a
116.2445	0.135	232489	keystroke_a	a	n/a
116.4545	0.135	232909	keystroke_r	r	n/a
116.5445	0.105	233089	keystroke_e	e	n/a
116.6645	0.135	233329	keystroke_Key.space	Key.space	n/a
116.8295	0.0905	233659	keystroke_w	w	n/a
116.98	0.1655	233960	keystroke_h	h	n/a
117.085	0.1345	234170	keystroke_o	o	n/a
117.4145	0.106	234829	keystroke_l	l	n/a
117.5795	0.075	235159	keystroke_e	e	n/a
117.8055	0.134	235611	keystroke_s	s	n/a
117.8945	0.151	235789	keystroke_a	a	n/a
118.0895	0.12	236179	keystroke_l	l	n/a
118.2245	0.06	236449	keystroke_e	e	n/a
118.3295	0.12	236659	keystroke_Key.space	Key.space	n/a
118.5845	0.151	237169	keystroke_n	n	n/a
118.6745	0.12	237349	keystroke_o	o	n/a
118.7955	0.089	237591	keystroke_t	t	n/a
118.9155	0.105	237831	keystroke_i	i	n/a
119.0945	0.075	238189	keystroke_c	c	n/a
119.2145	0.135	238429	keystroke_e	e	n/a
119.3195	0.121	238639	keystroke_d	d	n/a
119.4095	0.195	238819	keystroke_Key.space	Key.space	n/a
119.5755	0.119	239151	keystroke_m	m	n/a
119.7095	0.075	239419	keystroke_e	e	n/a
119.9045	0.18	239809	keystroke_s	s	n/a
120.0245	0.1205	240049	keystroke_a	a	n/a
120.175	0.105	240350	keystroke_Key.enter	Key.enter	n/a
120.2855	5.696	240571	prompt	n/a	projected andrews overcome worm\n
120.925	0.09	241850	keystroke_p	p	n/a
121.03	0.09	242060	keystroke_r	r	n/a
121.135	0.09	242270	keystroke_o	o	n/a
121.3	0.12	242600	keystroke_j	j	n/a
121.39	0.12	242780	keystroke_e	e	n/a
121.57	0.09	243140	keystroke_c	c	n/a
121.84	0.105	243680	keystroke_t	t	n/a
121.975	0.195	243950	keystroke_e	e	n/a
122.11	0.1195	244220	keystroke_d	d	n/a
122.2745	0.15	244549	keystroke_Key.space	Key.space	n/a
122.4695	0.1355	244939	keystroke_a	a	n/a
122.635	0.12	245270	keystroke_n	n	n/a
122.74	0.075	245480	keystroke_d	d	n/a
122.935	0.135	245870	keystroke_r	r	n/a
123.025	0.105	246050	keystroke_e	e	n/a
123.25	0.075	246500	keystroke_w	w	n/a
123.43	0.09	246860	keystroke_s	s	n/a
123.535	0.1945	247070	keystroke_Key.space	Key.space	n/a
123.6695	0.105	247339	keystroke_o	o	n/a
123.7595	0.09	247519	keystroke_v	v	n/a
123.9695	0.15	247939	keystroke_e	e	n/a
124.0745	0.105	248149	keystroke_r	r	n/a
124.3445	0.075	248689	keystroke_c	c	n/a
124.4345	0.15	248869	keystroke_o	o	n/a
124.5095	0.105	249019	keystroke_m	m	n/a
124.6445	0.06	249289	keystroke_e	e	n/a
124.7195	0.135	249439	keystroke_Key.space	Key.space	n/a
124.9745	0.06	249949	keystroke_w	w	n/a
125.1395	0.105	250279	keystroke_o	o	n/a
125.2595	0.0605	250519	keystroke_r	r	n/a
125.5	0.015	251000	keystroke_m	m	n/a
125.8895	0.09	251779	keystroke_Key.enter	Key.enter	n/a
125.9845	7.782	251969	prompt	n/a	substantial benjamin releases specialist\n
126.76	0.105	253520	keystroke_s	s	n/a
126.895	0.21	253790	keystroke_u	u	n/a
127.03	0.165	254060	keystroke_b	b	n/a
127.3	0.12	254600	keystroke_s	s	n/a
127.585	0.06	255170	keystroke_t	t	n/a
127.75	0.105	255500	keystroke_a	a	n/a
127.87	0.12	255740	keystroke_n	n	n/a
128.035	0.0595	256070	keystroke_t	t	n/a
128.1245	0.075	256249	keystroke_i	i	n/a
128.2445	0.075	256489	keystroke_a	a	n/a
128.3345	0.135	256669	keystroke_l	l	n/a
128.4095	0.15	256819	keystroke_Key.space	Key.space	n/a
128.5895	0.12	257179	keystroke_b	b	n/a
128.7545	0.0905	257509	keystroke_e	e	n/a
128.965	0.1055	257930	keystroke_n	n	n/a
129.67	0.12	259340	keystroke_j	j	n/a
129.865	0.09	259730	keystroke_a	a	n/a
130	0.1195	260000	keystroke_m	m	n/a
130.1345	0.24	260269	keystroke_i	i	n/a
130.2845	0.18	260569	keystroke_n	n	n/a
130.3755	0.179	260751	keystroke_Key.space	Key.space	n/a
130.5395	0.15	261079	keystroke_r	r	n/a
130.6295	0.15	261259	keystroke_e	e	n/a
130.8845	0.12	261769	keystroke_l	l	n/a
131.0195	0.105	262039	keystroke_e	e	n/a
131.1095	0.165	262219	keystroke_a	a	n/a
131.2295	0.135	262459	keystroke_s	s	n/a
131.53	0.06	263060	keystroke_e	e	n/a
131.74	0.075	263480	keystroke_s	s	n/a
131.875	0.12	263750	keystroke_Key.space	Key.space	n/a
132.01	0.075	264020	keystroke_s	s	n/a
132.1	0.1045	264200	keystroke_p	p	n/a
132.2195	0.045	264439	keystroke_e	e	n/a
132.4145	0.105	264829	keystroke_c	c	n/a
132.8645	0.09	265729	keystroke_i	i	n/a
132.9995	0.105	265999	keystroke_a	a	n/a
133.1645	0.18	266329	keystroke_l	l	n/a
133.2995	0.135	266599	keystroke_i	i	n/a
133.3895	0.15	266779	keystroke_s	s	n/a
133.4945	0.12	266989	keystroke_t	t	n/a
133.6595	0.105	267319	keystroke_Key.enter	Key.enter	n/a
133.7715	8.335	267543	prompt	n/a	mightn't read point insulin\n
134.3645	0.075	268729	keystroke_m	m	n/a
134.59	0.1045	269180	keystroke_i	i	n/a
134.605	0.0745	269210	keystroke_u	u	n/a
134.7695	0.0755	269539	keystroke_g	g	n/a
135.175	0.03	270350	keystroke_Key.backspace	Key.backspace	n/a
135.835	0.075	271670	keystroke_Key.backspace	Key.backspace	n/a
136.3745	0.165	272749	keystroke_g	g	n/a
136.6745	0.105	273349	keystroke_h	h	n/a
137.3195	0.12	274639	keystroke_t	t	n/a
137.6195	0.105	275239	keystroke_n	n	n/a
138.0095	0.0905	276019	keystroke_'	'	n/a
138.22	0.059	276440	keystroke_t	t	n/a
138.61	0.12	277220	keystroke_Key.space	Key.space	n/a
138.939	0.106	277878	keystroke_r	r	n/a
139	0.12	278000	keystroke_e	e	n/a
139.195	0.135	278390	keystroke_a	a	n/a
139.285	0.12	278570	keystroke_d	d	n/a
139.374	0.196	278748	keystroke_Key.space	Key.space	n/a
139.51	0.18	279020	keystroke_p	p	n/a
139.63	0.12	279260	keystroke_o	o	n/a
140.0355	0.224	280071	keystroke_i	i	n/a
140.1845	0.121	280369	keystroke_n	n	n/a
140.3495	0.105	280699	keystroke_t	t	n/a
140.4395	0.12	280879	keystroke_Key.space	Key.space	n/a
140.7095	0.181	281419	keystroke_i	i	n/a
140.8005	0.119	281601	keystroke_n	n	n/a
141.1145	0.091	282229	keystroke_s	s	n/a
141.2945	0.09	282589	keystroke_u	u	n/a
141.5495	0.105	283099	keystroke_l	l	n/a
141.6705	0.18	283341	keystroke_i	i	n/a
141.8045	0.09	283609	keystroke_n	n	n/a
142.045	0.06	284090	keystroke_Key.enter	Key.enter	n/a
142.109	6.2225	284218	prompt	n/a	liabilities daily result losses\n
142.945	0.165	285890	keystroke_l	l	n/a
143.065	0.135	286130	keystroke_i	i	n/a
143.38	0.12	286760	keystroke_a	a	n/a
143.545	0.075	287090	keystroke_b	b	n/a
143.785	0.09	287570	keystroke_i	i	n/a
144.025	0.075	288050	keystroke_l	l	n/a
144.28	0.075	288560	keystroke_i	i	n/a
144.4455	0.059	288891	keystroke_t	t	n/a
144.5345	0.09	289069	keystroke_i	i	n/a
144.6095	0.15	289219	keystroke_e	e	n/a
144.7145	0.105	289429	keystroke_s	s	n/a
144.8045	0.151	289609	keystroke_Key.space	Key.space	n/a
145.0895	0.135	290179	keystroke_d	d	n/a
145.2095	0.12	290419	keystroke_a	a	n/a
145.3145	0.15	290629	keystroke_i	i	n/a
145.3595	0.18	290719	keystroke_l	l	n/a
145.6445	0.15	291289	keystroke_y	y	n/a
145.7345	0.15	291469	keystroke_Key.space	Key.space	n/a
146.0045	0.1055	292009	keystroke_r	r	n/a
146.05	0.105	292100	keystroke_e	e	n/a
146.29	0.09	292580	keystroke_s	s	n/a
146.44	0.195	292880	keystroke_u	u	n/a
146.545	0.18	293090	keystroke_l	l	n/a
146.695	0.075	293390	keystroke_t	t	n/a
146.815	0.135	293630	keystroke_Key.space	Key.space	n/a
147.04	0.075	294080	keystroke_l	l	n/a
147.235	0.09	294470	keystroke_o	o	n/a
147.37	0.075	294740	keystroke_s	s	n/a
147.565	0.105	295130	keystroke_s	s	n/a
147.85	0.06	295700	keystroke_e	e	n/a
148.045	0.075	296090	keystroke_s	s	n/a
148.225	0.105	296450	keystroke_Key.enter	Key.enter	n/a
148.335	11.3515	296670	prompt	n/a	deposit distribute assignment feedback\n
149.1095	0.15	298219	keystroke_d	d	n/a
149.2295	0.105	298459	keystroke_e	e	n/a
149.4095	0.1955	298819	keystroke_p	p	n/a
149.5295	0.1205	299059	keystroke_o	o	n/a
149.74	0.105	299480	keystroke_s	s	n/a
149.875	0.09	299750	keystroke_i	i	n/a
149.995	0.075	299990	keystroke_t	t	n/a
150.085	0.135	300170	keystroke_Key.space	Key.space	n/a
150.34	0.09	300680	keystroke_d	d	n/a
150.52	0.09	301040	keystroke_i	i	n/a
150.97	0.1345	301940	keystroke_s	s	n/a
151.4795	0.09	302959	keystroke_t	t	n/a
151.7345	0.075	303469	keystroke_r	r	n/a
151.8545	0.135	303709	keystroke_i	i	n/a
152.095	0.165	304190	keystroke_b	b	n/a
152.245	0.12	304490	keystroke_u	u	n/a
152.35	0.12	304700	keystroke_t	t	n/a
152.425	0.12	304850	keystroke_e	e	n/a
152.515	0.1195	305030	keystroke_Key.space	Key.space	n/a
152.7095	0.165	305419	keystroke_a	a	n/a
152.8145	0.12	305629	keystroke_s	s	n/a
153.0995	0.09	306199	keystroke_s	s	n/a
153.2945	0.09	306589	keystroke_i	i	n/a
153.4445	0.075	306889	keystroke_g	g	n/a
153.8495	0.09	307699	keystroke_n	n	n/a
154.15	0.09	308300	keystroke_m	m	n/a
154.36	0.075	308720	keystroke_e	e	n/a
154.39	0.09	308780	keystroke_n	n	n/a
154.6445	0.075	309289	keystroke_t	t	n/a
154.7795	0.12	309559	keystroke_Key.space	Key.space	n/a
155.1695	0.091	310339	keystroke_d	d	n/a
155.785	0.075	311570	keystroke_Key.backspace	Key.backspace	n/a
155.89	0.075	311780	keystroke_f	f	n/a
156.0995	0.075	312199	keystroke_e	e	n/a
156.2945	0.075	312589	keystroke_e	e	n/a
156.5345	0.075	313069	keystroke_d	d	n/a
156.8945	0.105	313789	keystroke_b	b	n/a
156.9695	0.135	313939	keystroke_a	a	n/a
157.1195	0.09	314239	keystroke_c	c	n/a
157.36	0.09	314720	keystroke_j	j	n/a
158.815	0.06	317630	keystroke_Key.backspace	Key.backspace	n/a
159.355	0.105	318710	keystroke_k	k	n/a
159.595	0.09	319190	keystroke_Key.enter	Key.enter	n/a
159.691	5.7105	319382	prompt	n/a	risks now linear saint\n
160.405	0.12	320810	keystroke_r	r	n/a
160.705	0.0745	321410	keystroke_u	u	n/a
160.9295	0.105	321859	keystroke_s	s	n/a
161.4545	0.09	322909	keystroke_Key.backspace	Key.backspace	n/a
161.6195	0.075	323239	keystroke_Key.backspace	Key.backspace	n/a
161.9795	0.075	323959	keystroke_i	i	n/a
162.2645	0.105	324529	keystroke_s	s	n/a
162.3995	0.09	324799	keystroke_k	k	n/a
162.5195	0.09	325039	keystroke_s	s	n/a
162.6545	0.135	325309	keystroke_Key.space	Key.space	n/a
163.0595	0.15	326119	keystroke_n	n	n/a
163.1645	0.135	326329	keystroke_o	o	n/a
163.2845	0.075	326569	keystroke_w	w	n/a
163.3745	0.1205	326749	keystroke_Key.space	Key.space	n/a
163.555	0.135	327110	keystroke_l	l	n/a
163.675	0.21	327350	keystroke_i	i	n/a
163.81	0.165	327620	keystroke_n	n	n/a
163.945	0.135	327890	keystroke_e	e	n/a
164.035	0.195	328070	keystroke_a	a	n/a
164.2	0.105	328400	keystroke_r	r	n/a
164.29	0.12	328580	keystroke_Key.space	Key.space	n/a
164.455	0.195	328910	keystroke_s	s	n/a
164.605	0.12	329210	keystroke_a	a	n/a
164.86	0.165	329720	keystroke_i	i	n/a
164.95	0.12	329900	keystroke_n	n	n/a
165.085	0.09	330170	keystroke_t	t	n/a
165.31	0.09	330620	keystroke_Key.enter	Key.enter	n/a
165.404	11.0525	330808	prompt	n/a	phillips efficiently argentina gathered\n
166.105	0.075	332210	keystroke_p	p	n/a
166.3295	0.06	332659	keystroke_h	h	n/a
166.5245	0.09	333049	keystroke_i	i	n/a
166.8545	0.09	333709	keystroke_l	l	n/a
167.0345	0.045	334069	keystroke_l	l	n/a
167.245	0.06	334490	keystroke_i	i	n/a
167.425	0.075	334850	keystroke_p	p	n/a
167.56	0.105	335120	keystroke_s	s	n/a
167.68	0.12	335360	keystroke_Key.space	Key.space	n/a
167.98	0.09	335960	keystroke_e	e	n/a
168.19	0.075	336380	keystroke_f	f	n/a
168.34	0.075	336680	keystroke_f	f	n/a
168.655	0.075	337310	keystroke_i	i	n/a
168.85	0.09	337700	keystroke_c	c	n/a
169.4495	0.09	338899	keystroke_i	i	n/a
170.2445	0.105	340489	keystroke_e	e	n/a
170.4395	0.135	340879	keystroke_n	n	n/a
170.6045	0.09	341209	keystroke_t	t	n/a
170.7845	0.075	341569	keystroke_l	l	n/a
171.04	0.075	342080	keystroke_y	y	n/a
171.19	0.135	342380	keystroke_Key.space	Key.space	n/a
171.355	0.135	342710	keystroke_a	a	n/a
171.55	0.1195	343100	keystroke_r	r	n/a
171.8195	0.135	343639	keystroke_g	g	n/a
171.9395	0.1055	343879	keystroke_e	e	n/a
172.075	0.12	344150	keystroke_n	n	n/a
172.57	0.12	345140	keystroke_t	t	n/a
172.795	0.21	345590	keystroke_i	i	n/a
172.945	0.12	345890	keystroke_n	n	n/a
173.095	0.09	346190	keystroke_a	a	n/a
173.23	0.135	346460	keystroke_Key.space	Key.space	n/a
173.44	0.075	346880	keystroke_g	g	n/a
174.3245	0.1205	348649	keystroke_a	a	n/a
174.64	0.075	349280	keystroke_t	t	n/a
174.76	0.105	349520	keystroke_h	h	n/a
174.88	0.15	349760	keystroke_e	e	n/a
175	0.15	350000	keystroke_r	r	n/a
175.135	0.195	350270	keystroke_e	e	n/a
175.27	0.12	350540	keystroke_d	d	n/a
176.3495	0.105	352699	keystroke_Key.enter	Key.enter	n/a
176.4595	6.597	352919	prompt	n/a	assault compared broader liverpool\n
177.1	0.1195	354200	keystroke_a	a	n/a
177.3545	0.075	354709	keystroke_s	s	n/a
177.5345	0.09	355069	keystroke_s	s	n/a
177.6245	0.15	355249	keystroke_a	a	n/a
177.8345	0.1805	355669	keystroke_u	u	n/a
177.9395	0.1355	355879	keystroke_l	l	n/a
178.09	0.075	356180	keystroke_t	t	n/a
178.18	0.1345	356360	keystroke_Key.space	Key.space	n/a
178.3745	0.0905	356749	keystroke_c	c	n/a
178.525	0.09	357050	keystroke_o	o	n/a
178.585	0.135	357170	keystroke_m	m	n/a
179.365	0.12	358730	keystroke_p	p	n/a
179.47	0.12	358940	keystroke_a	a	n/a
179.635	0.12	359270	keystroke_r	r	n/a
179.74	0.18	359480	keystroke_e	e	n/a
179.89	0.12	359780	keystroke_d	d	n/a
179.965	0.12	359930	keystroke_Key.space	Key.space	n/a
180.205	0.105	360410	keystroke_b	b	n/a
180.385	0.105	360770	keystroke_r	r	n/a
180.625	0.105	361250	keystroke_o	o	n/a
180.745	0.15	361490	keystroke_a	a	n/a
180.865	0.135	361730	keystroke_d	d	n/a
181.015	0.15	362030	keystroke_e	e	n/a
181.12	0.12	362240	keystroke_r	r	n/a
181.225	0.135	362450	keystroke_Key.space	Key.space	n/a
181.39	0.195	362780	keystroke_l	l	n/a
181.525	0.12	363050	keystroke_i	i	n/a
181.66	0.075	363320	keystroke_v	v	n/a
181.87	0.135	363740	keystroke_e	e	n/a
181.96	0.12	363920	keystroke_r	r	n/a
182.215	0.15	364430	keystroke_p	p	n/a
182.305	0.09	364610	keystroke_o	o	n/a
182.5905	0.015	365181	keystroke_o	o	n/a
182.6945	0.091	365389	keystroke_l	l	n/a
182.9645	0.091	365929	keystroke_Key.enter	Key.enter	n/a
183.059	7.9175	366118	prompt	n/a	pork deadline biotechnology translate\n
183.7295	0.195	367459	keystroke_p	p	n/a
183.8495	0.21	367699	keystroke_o	o	n/a
184.3145	0.075	368629	keystroke_r	r	n/a
184.5095	0.09	369019	keystroke_k	k	n/a
184.795	0.135	369590	keystroke_Key.space	Key.space	n/a
184.975	0.075	369950	keystroke_d	d	n/a
185.155	0.105	370310	keystroke_e	e	n/a
185.275	0.165	370550	keystroke_a	a	n/a
185.41	0.105	370820	keystroke_d	d	n/a
185.545	0.1795	371090	keystroke_l	l	n/a
185.6795	0.195	371359	keystroke_i	i	n/a
185.7995	0.12	371599	keystroke_n	n	n/a
185.9205	0.074	371841	keystroke_e	e	n/a
186.0395	0.1205	372079	keystroke_Key.space	Key.space	n/a
186.4	0.2395	372800	keystroke_b	b	n/a
186.5645	0.1805	373129	keystroke_i	i	n/a
186.67	0.12	373340	keystroke_o	o	n/a
186.925	0.15	373850	keystroke_t	t	n/a
187.09	0.105	374180	keystroke_e	e	n/a
187.375	0.09	374750	keystroke_c	c	n/a
187.54	0.105	375080	keystroke_h	h	n/a
187.93	0.09	375860	keystroke_n	n	n/a
188.155	0.09	376310	keystroke_o	o	n/a
188.425	0.075	376850	keystroke_l	l	n/a
188.62	0.06	377240	keystroke_o	o	n/a
188.74	0.09	377480	keystroke_g	g	n/a
188.875	0.165	377750	keystroke_y	y	n/a
188.995	0.135	377990	keystroke_Key.space	Key.space	n/a
189.115	0.105	378230	keystroke_t	t	n/a
189.325	0.0895	378650	keystroke_r	r	n/a
189.5645	0.1205	379129	keystroke_a	a	n/a
189.7745	0.105	379549	keystroke_n	n	n/a
189.9395	0.0905	379879	keystroke_s	s	n/a
190.165	0.12	380330	keystroke_l	l	n/a
190.27	0.105	380540	keystroke_a	a	n/a
190.495	0.15	380990	keystroke_t	t	n/a
190.615	0.105	381230	keystroke_e	e	n/a
190.885	0.09	381770	keystroke_Key.enter	Key.enter	n/a
190.982	11.2595	381964	prompt	n/a	to've heel invision dozens\n
191.785	0.09	383570	keystroke_t	t	n/a
191.95	0.105	383900	keystroke_o	o	n/a
192.28	0.09	384560	keystroke_'	'	n/a
192.475	0.09	384950	keystroke_v	v	n/a
192.73	0.09	385460	keystroke_e	e	n/a
193	0.12	386000	keystroke_Key.space	Key.space	n/a
193.21	0.105	386420	keystroke_h	h	n/a
193.45	0.06	386900	keystroke_e	e	n/a
193.615	0.06	387230	keystroke_e	e	n/a
193.735	0.15	387470	keystroke_l	l	n/a
193.81	0.165	387620	keystroke_Key.space	Key.space	n/a
194.5	0.165	389000	keystroke_i	i	n/a
194.605	0.15	389210	keystroke_n	n	n/a
195.055	0.09	390110	keystroke_v	v	n/a
195.9095	0.075	391819	keystroke_i	i	n/a
196.105	0.0895	392210	keystroke_s	s	n/a
196.2095	0.27	392419	keystroke_i	i	n/a
196.2845	0.21	392569	keystroke_o	o	n/a
196.4495	0.18	392899	keystroke_Key.space	Key.space	n/a
196.4645	0.045	392929	keystroke_n	n	n/a
196.6895	0.12	393379	keystroke_d	d	n/a
196.8245	0.105	393649	keystroke_o	o	n/a
197.4095	0.045	394819	keystroke_Key.backspace	Key.backspace	n/a
197.6195	0.015	395239	keystroke_Key.backspace	Key.backspace	n/a
197.6945	0.06	395389	keystroke_Key.backspace	Key.backspace	n/a
198.0095	0.09	396019	keystroke_d	d	n/a
198.4145	0.045	396829	keystroke_Key.backspace	Key.backspace	n/a
198.5645	0.075	397129	keystroke_Key.backspace	Key.backspace	n/a
198.8645	0.0905	397729	keystroke_n	n	n/a
199.3005	0.1195	398601	keystroke_Key.space	Key.space	n/a
199.6	0.105	399200	keystroke_d	d	n/a
201.2205	0.105	402441	keystroke_o	o	n/a
201.3555	0.12	402711	keystroke_z	z	n/a
201.6255	0.089	403251	keystroke_e	e	n/a
201.7905	0.104	403581	keystroke_n	n	n/a
201.9555	0.0895	403911	keystroke_s	s	n/a
202.15	0.09	404300	keystroke_Key.enter	Key.enter	n/a
202.244	10.3325	404488	prompt	n/a	reuters disabilities transit film\n
203.1405	0.149	406281	keystroke_r	r	n/a
203.1995	0.15	406399	keystroke_e	e	n/a
203.5305	0.09	407061	keystroke_t	t	n/a
203.7545	0.076	407509	keystroke_u	u	n/a
204.13	0.06	408260	keystroke_Key.backspace	Key.backspace	n/a
204.355	0.09	408710	keystroke_e	e	n/a
204.865	0.075	409730	keystroke_Key.backspace	Key.backspace	n/a
205.105	0.06	410210	keystroke_Key.backspace	Key.backspace	n/a
205.78	0.09	411560	keystroke_u	u	n/a
206.11	0.105	412220	keystroke_t	t	n/a
206.38	0.09	412760	keystroke_e	e	n/a
206.875	0.105	413750	keystroke_r	r	n/a
207.0995	0.105	414199	keystroke_s	s	n/a
207.2345	0.1355	414469	keystroke_Key.space	Key.space	n/a
207.4	0.105	414800	keystroke_d	d	n/a
207.76	0.09	415520	keystroke_i	i	n/a
207.955	0.1195	415910	keystroke_s	s	n/a
208.3445	0.105	416689	keystroke_a	a	n/a
208.585	0.075	417170	keystroke_b	b	n/a
208.825	0.06	417650	keystroke_i	i	n/a
209.035	0.105	418070	keystroke_l	l	n/a
209.605	0.09	419210	keystroke_i	i	n/a
209.7555	0.0745	419511	keystroke_t	t	n/a
209.905	0.09	419810	keystroke_i	i	n/a
210.0855	0.18	420171	keystroke_e	e	n/a
210.1755	0.18	420351	keystroke_s	s	n/a
210.3405	0.1345	420681	keystroke_Key.space	Key.space	n/a
210.505	0.09	421010	keystroke_t	t	n/a
210.715	0.105	421430	keystroke_r	r	n/a
210.85	0.15	421700	keystroke_a	a	n/a
211.03	0.105	422060	keystroke_n	n	n/a
211.2105	0.105	422421	keystroke_s	s	n/a
211.3905	0.09	422781	keystroke_i	i	n/a
211.5405	0.075	423081	keystroke_t	t	n/a
211.6605	0.12	423321	keystroke_Key.space	Key.space	n/a
211.8255	0.075	423651	keystroke_f	f	n/a
211.9155	0.2695	423831	keystroke_i	i	n/a
212.0205	0.2095	424041	keystroke_l	l	n/a
212.14	0.15	424280	keystroke_m	m	n/a
212.485	0.09	424970	keystroke_Key.enter	Key.enter	n/a
212.5795	6.0415	425159	prompt	n/a	modem element every label\n
213.31	0.18	426620	keystroke_m	m	n/a
213.43	0.15	426860	keystroke_o	o	n/a
213.685	0.165	427370	keystroke_d	d	n/a
213.79	0.135	427580	keystroke_e	e	n/a
213.94	0.135	427880	keystroke_m	m	n/a
214.015	0.15	428030	keystroke_Key.space	Key.space	n/a
214.195	0.075	428390	keystroke_e	e	n/a
214.315	0.12	428630	keystroke_l	l	n/a
214.435	0.075	428870	keystroke_e	e	n/a
214.57	0.12	429140	keystroke_m	m	n/a
214.705	0.075	429410	keystroke_e	e	n/a
214.84	0.075	429680	keystroke_n	n	n/a
214.93	0.075	429860	keystroke_t	t	n/a
215.035	0.12	430070	keystroke_Key.space	Key.space	n/a
215.156	0.059	430312	keystroke_e	e	n/a
215.3805	0.075	430761	keystroke_v	v	n/a
215.7255	0.165	431451	keystroke_e	e	n/a
215.8305	0.135	431661	keystroke_r	r	n/a
215.9955	0.1645	431991	keystroke_t	t	n/a
216.0255	0.1495	432051	keystroke_y	y	n/a
216.161	0.089	432322	keystroke_Key.space	Key.space	n/a
216.6995	0.045	433399	keystroke_Key.backspace	Key.backspace	n/a
216.82	0.0745	433640	keystroke_Key.backspace	Key.backspace	n/a
216.9545	0.075	433909	keystroke_Key.backspace	Key.backspace	n/a
217.2695	0.18	434539	keystroke_y	y	n/a
217.3895	0.15	434779	keystroke_Key.space	Key.space	n/a
217.5995	0.12	435199	keystroke_l	l	n/a
217.7945	0.12	435589	keystroke_a	a	n/a
217.9595	0.1055	435919	keystroke_b	b	n/a
218.11	0.075	436220	keystroke_e	e	n/a
218.26	0.12	436520	keystroke_l	l	n/a
218.545	0.075	437090	keystroke_Key.enter	Key.enter	n/a
218.626	10.7355	437252	prompt	n/a	retrieved coins divx accommodation\n
219.3845	0.18	438769	keystroke_r	r	n/a
219.4745	0.15	438949	keystroke_e	e	n/a
220.1055	0.12	440211	keystroke_t	t	n/a
220.555	0.09	441110	keystroke_r	r	n/a
220.8705	0.09	441741	keystroke_i	i	n/a
220.9755	0.09	441951	keystroke_e	e	n/a
221.2305	0.09	442461	keystroke_v	v	n/a
221.4255	0.105	442851	keystroke_e	e	n/a
221.5155	0.12	443031	keystroke_d	d	n/a
221.6795	0.136	443359	keystroke_Key.space	Key.space	n/a
221.8305	0.105	443661	keystroke_c	c	n/a
221.9805	0.24	443961	keystroke_o	o	n/a
222.1155	0.18	444231	keystroke_i	i	n/a
222.2055	0.12	444411	keystroke_n	n	n/a
222.3095	0.121	444619	keystroke_s	s	n/a
222.4755	0.134	444951	keystroke_Key.space	Key.space	n/a
222.6705	0.12	445341	keystroke_d	d	n/a
222.9255	0.09	445851	keystroke_i	i	n/a
223.2855	0.09	446571	keystroke_v	v	n/a
223.8255	0.06	447651	keystroke_z	z	n/a
224.38	0.075	448760	keystroke_Key.backspace	Key.backspace	n/a
225.2955	0.089	450591	keystroke_x	x	n/a
226.075	0.09	452150	keystroke_Key.space	Key.space	n/a
226.255	0.12	452510	keystroke_a	a	n/a
226.795	0.12	453590	keystroke_c	c	n/a
227.0945	0.06	454189	keystroke_c	c	n/a
227.3345	0.121	454669	keystroke_o	o	n/a
227.7395	0.075	455479	keystroke_m	m	n/a
227.9045	0.09	455809	keystroke_m	m	n/a
228.1745	0.09	456349	keystroke_o	o	n/a
228.3095	0.135	456619	keystroke_d	d	n/a
228.4145	0.135	456829	keystroke_a	a	n/a
228.6845	0.075	457369	keystroke_t	t	n/a
228.7745	0.2405	457549	keystroke_i	i	n/a
228.8645	0.1805	457729	keystroke_o	o	n/a
228.955	0.12	457910	keystroke_n	n	n/a
229.27	0.09	458540	keystroke_Key.enter	Key.enter	n/a
229.3645	5.427	458729	prompt	n/a	harley writing snow rolls\n
230.125	0.12	460250	keystroke_h	h	n/a
230.23	0.135	460460	keystroke_a	a	n/a
230.335	0.12	460670	keystroke_r	r	n/a
230.44	0.135	460880	keystroke_l	l	n/a
230.8	0.075	461600	keystroke_e	e	n/a
230.935	0.195	461870	keystroke_y	y	n/a
231.055	0.15	462110	keystroke_Key.space	Key.space	n/a
231.235	0.15	462470	keystroke_w	w	n/a
231.355	0.1495	462710	keystroke_r	r	n/a
231.655	0.0755	463310	keystroke_i	i	n/a
231.76	0.105	463520	keystroke_t	t	n/a
231.835	0.1655	463670	keystroke_i	i	n/a
232.045	0.075	464090	keystroke_g	g	n/a
232.18	0.135	464360	keystroke_Key.space	Key.space	n/a
232.555	0.045	465110	keystroke_Key.backspace	Key.backspace	n/a
232.69	0.045	465380	keystroke_Key.backspace	Key.backspace	n/a
232.945	0.075	465890	keystroke_n	n	n/a
233.035	0.06	466070	keystroke_g	g	n/a
233.17	0.105	466340	keystroke_Key.space	Key.space	n/a
233.335	0.105	466670	keystroke_s	s	n/a
233.455	0.15	466910	keystroke_n	n	n/a
233.56	0.12	467120	keystroke_o	o	n/a
233.665	0.06	467330	keystroke_w	w	n/a
233.755	0.105	467510	keystroke_Key.space	Key.space	n/a
233.875	0.075	467750	keystroke_r	r	n/a
233.98	0.0755	467960	keystroke_o	o	n/a
234.1755	0.09	468351	keystroke_l	l	n/a
234.3555	0.075	468711	keystroke_l	l	n/a
234.5055	0.104	469011	keystroke_s	s	n/a
234.6855	0.1045	469371	keystroke_Key.enter	Key.enter	n/a
234.7975	10.1635	469595	prompt	n/a	propose positioning system appropriations\n
235.57	0.09	471140	keystroke_p	p	n/a
235.7205	0.09	471441	keystroke_r	r	n/a
235.9005	0.075	471801	keystroke_o	o	n/a
236.1405	0.18	472281	keystroke_p	p	n/a
236.2605	0.104	472521	keystroke_o	o	n/a
236.3505	0.135	472701	keystroke_s	s	n/a
236.4245	0.15	472849	keystroke_e	e	n/a
236.5455	0.1045	473091	keystroke_Key.space	Key.space	n/a
236.815	0.195	473630	keystroke_p	p	n/a
236.95	0.105	473900	keystroke_o	o	n/a
237.07	0.105	474140	keystroke_s	s	n/a
237.43	0.06	474860	keystroke_i	i	n/a
237.76	0.09	475520	keystroke_t	t	n/a
238.195	0.165	476390	keystroke_i	i	n/a
238.3	0.18	476600	keystroke_o	o	n/a
238.45	0.12	476900	keystroke_n	n	n/a
238.855	0.165	477710	keystroke_i	i	n/a
238.96	0.135	477920	keystroke_n	n	n/a
239.11	0.075	478220	keystroke_g	g	n/a
239.2	0.12	478400	keystroke_Key.space	Key.space	n/a
239.38	0.105	478760	keystroke_s	s	n/a
239.515	0.105	479030	keystroke_y	y	n/a
239.665	0.105	479330	keystroke_s	s	n/a
239.905	0.135	479810	keystroke_t	t	n/a
239.995	0.105	479990	keystroke_e	e	n/a
240.085	0.15	480170	keystroke_m	m	n/a
240.19	0.135	480380	keystroke_Key.space	Key.space	n/a
240.685	0.12	481370	keystroke_a	a	n/a
240.94	0.09	481880	keystroke_p	p	n/a
241.1955	0.09	482391	keystroke_p	p	n/a
241.3605	0.075	482721	keystroke_r	r	n/a
241.5255	0.075	483051	keystroke_o	o	n/a
242.155	0.12	484310	keystroke_p	p	n/a
242.41	0.09	484820	keystroke_r	r	n/a
242.635	0.075	485270	keystroke_i	i	n/a
242.92	0.12	485840	keystroke_a	a	n/a
243.19	0.075	486380	keystroke_t	t	n/a
243.295	0.225	486590	keystroke_i	i	n/a
243.4	0.195	486800	keystroke_o	o	n/a
243.61	0.09	487220	keystroke_s	s	n/a
244.0295	0.06	488059	keystroke_Key.backspace	Key.backspace	n/a
244.2845	0.0905	488569	keystroke_n	n	n/a
244.42	0.12	488840	keystroke_s	s	n/a
244.87	0.09	489740	keystroke_Key.enter	Key.enter	n/a
244.9645	6.132	489929	prompt	n/a	cookie urls alike purchase\n
245.6345	0.09	491269	keystroke_c	c	n/a
245.7845	0.06	491569	keystroke_o	o	n/a
245.9345	0.2105	491869	keystroke_o	o	n/a
246.085	0.09	492170	keystroke_k	k	n/a
246.25	0.09	492500	keystroke_i	i	n/a
246.37	0.105	492740	keystroke_e	e	n/a
246.46	0.105	492920	keystroke_Key.space	Key.space	n/a
246.7	0.105	493400	keystroke_u	u	n/a
246.8345	0.075	493669	keystroke_r	r	n/a
247.2095	0.105	494419	keystroke_l	l	n/a
247.4495	0.12	494899	keystroke_s	s	n/a
247.6295	0.105	495259	keystroke_Key.space	Key.space	n/a
247.7645	0.105	495529	keystroke_a	a	n/a
247.8845	0.105	495769	keystroke_l	l	n/a
248.1395	0.075	496279	keystroke_i	i	n/a
248.3195	0.09	496639	keystroke_k	k	n/a
248.4845	0.075	496969	keystroke_e	e	n/a
248.5895	0.09	497179	keystroke_Key.space	Key.space	n/a
248.9195	0.135	497839	keystroke_u	u	n/a
249.37	0.045	498740	keystroke_Key.backspace	Key.backspace	n/a
249.595	0.15	499190	keystroke_p	p	n/a
249.685	0.1345	499370	keystroke_u	u	n/a
249.8345	0.075	499669	keystroke_r	r	n/a
250.1045	0.075	500209	keystroke_c	c	n/a
250.2695	0.075	500539	keystroke_h	h	n/a
250.3595	0.165	500719	keystroke_a	a	n/a
250.4795	0.2255	500959	keystroke_s	s	n/a
250.6295	0.1505	501259	keystroke_e	e	n/a
251.005	0.09	502010	keystroke_Key.enter	Key.enter	n/a
251.1	9.0565	502200	prompt	n/a	slip parker libraries describing\n
251.965	0.06	503930	keystroke_s	s	n/a
252.07	0.1355	504140	keystroke_l	l	n/a
252.1755	0.225	504351	keystroke_i	i	n/a
252.3405	0.15	504681	keystroke_p	p	n/a
252.4755	0.24	504951	keystroke_Key.space	Key.space	n/a
252.6855	0.105	505371	keystroke_p	p	n/a
252.8055	0.12	505611	keystroke_a	a	n/a
252.9105	0.12	505821	keystroke_r	r	n/a
253.1505	0.12	506301	keystroke_k	k	n/a
253.2855	0.15	506571	keystroke_e	e	n/a
253.3755	0.135	506751	keystroke_r	r	n/a
253.5405	0.12	507081	keystroke_Key.space	Key.space	n/a
254.215	0.09	508430	keystroke_l	l	n/a
254.785	0.075	509570	keystroke_i	i	n/a
255.055	0.105	510110	keystroke_b	b	n/a
255.34	0.12	510680	keystroke_r	r	n/a
256.645	0.1505	513290	keystroke_a	a	n/a
256.9745	0.076	513949	keystroke_r	r	n/a
257.4255	0.119	514851	keystroke_i	i	n/a
257.5595	0.166	515119	keystroke_e	e	n/a
257.6505	0.165	515301	keystroke_s	s	n/a
257.8005	0.104	515601	keystroke_Key.space	Key.space	n/a
257.9505	0.1495	515901	keystroke_d	d	n/a
258.055	0.105	516110	keystroke_e	e	n/a
258.28	0.09	516560	keystroke_s	s	n/a
258.505	0.105	517010	keystroke_c	c	n/a
258.805	0.06	517610	keystroke_r	r	n/a
259.03	0.075	518060	keystroke_i	i	n/a
259.315	0.075	518630	keystroke_b	b	n/a
259.525	0.195	519050	keystroke_i	i	n/a
259.66	0.12	519320	keystroke_n	n	n/a
259.795	0.06	519590	keystroke_g	g	n/a
260.065	0.09	520130	keystroke_Key.enter	Key.enter	n/a
260.1605	5.501	520321	prompt	n/a	painted handed clarity redhead\n
260.845	0.09	521690	keystroke_p	p	n/a
260.98	0.12	521960	keystroke_a	a	n/a
261.205	0.165	522410	keystroke_i	i	n/a
261.295	0.15	522590	keystroke_n	n	n/a
261.4	0.12	522800	keystroke_t	t	n/a
261.505	0.195	523010	keystroke_e	e	n/a
261.655	0.12	523310	keystroke_d	d	n/a
261.745	0.135	523490	keystroke_Key.space	Key.space	n/a
261.97	0.1045	523940	keystroke_h	h	n/a
262.0595	0.105	524119	keystroke_a	a	n/a
262.2405	0.104	524481	keystroke_n	n	n/a
262.3745	0.15	524749	keystroke_d	d	n/a
262.5095	0.18	525019	keystroke_e	e	n/a
262.6295	0.12	525259	keystroke_d	d	n/a
262.7505	0.149	525501	keystroke_Key.space	Key.space	n/a
262.9295	0.1205	525859	keystroke_c	c	n/a
263.185	0.105	526370	keystroke_l	l	n/a
263.305	0.105	526610	keystroke_a	a	n/a
263.53	0.09	527060	keystroke_r	r	n/a
263.7395	0.075	527479	keystroke_i	i	n/a
263.9195	0.12	527839	keystroke_t	t	n/a
264.1595	0.075	528319	keystroke_y	y	n/a
264.2795	0.121	528559	keystroke_Key.space	Key.space	n/a
264.4905	0.1345	528981	keystroke_r	r	n/a
264.5805	0.149	529161	keystroke_e	e	n/a
264.7755	0.1045	529551	keystroke_d	d	n/a
264.97	0.105	529940	keystroke_h	h	n/a
265.09	0.105	530180	keystroke_e	e	n/a
265.165	0.18	530330	keystroke_a	a	n/a
265.3	0.105	530600	keystroke_d	d	n/a
265.57	0.09	531140	keystroke_Key.enter	Key.enter	n/a
265.6645	7.2865	531329	prompt	n/a	carbon parallel train detail\n
266.365	0.045	532730	keystroke_c	c	n/a
266.515	0.135	533030	keystroke_a	a	n/a
266.665	0.135	533330	keystroke_r	r	n/a
266.905	0.09	533810	keystroke_b	b	n/a
267.13	0.18	534260	keystroke_o	o	n/a
267.37	0.18	534740	keystroke_Key.space	Key.space	n/a
268.33	0.06	536660	keystroke_Key.backspace	Key.backspace	n/a
268.57	0.105	537140	keystroke_n	n	n/a
268.81	0.12	537620	keystroke_Key.space	Key.space	n/a
269.05	0.09	538100	keystroke_p	p	n/a
269.395	0.12	538790	keystroke_a	a	n/a
269.62	0.09	539240	keystroke_r	r	n/a
269.785	0.12	539570	keystroke_a	a	n/a
270.055	0.06	540110	keystroke_l	l	n/a
270.22	0.09	540440	keystroke_l	l	n/a
270.34	0.075	540680	keystroke_e	e	n/a
270.4895	0.135	540979	keystroke_l	l	n/a
270.5645	0.18	541129	keystroke_Key.space	Key.space	n/a
270.7295	0.105	541459	keystroke_t	t	n/a
270.9695	0.165	541939	keystroke_r	r	n/a
271.0895	0.12	542179	keystroke_a	a	n/a
271.2395	0.27	542479	keystroke_i	i	n/a
271.3295	0.255	542659	keystroke_n	n	n/a
271.4945	0.195	542989	keystroke_Key.space	Key.space	n/a
271.6745	0.15	543349	keystroke_d	d	n/a
271.7945	0.12	543589	keystroke_e	e	n/a
272.0045	0.06	544009	keystroke_t	t	n/a
272.1545	0.09	544309	keystroke_a	a	n/a
272.2895	0.21	544579	keystroke_i	i	n/a
272.3945	0.165	544789	keystroke_l	l	n/a
272.8595	0.0905	545719	keystroke_Key.enter	Key.enter	n/a
272.9545	5.382	545909	prompt	n/a	remark operated body copyright\n
273.6845	0.1205	547369	keystroke_r	r	n/a
273.745	0.135	547490	keystroke_e	e	n/a
274.03	0.105	548060	keystroke_m	m	n/a
274.165	0.135	548330	keystroke_a	a	n/a
274.27	0.12	548540	keystroke_r	r	n/a
274.375	0.12	548750	keystroke_k	k	n/a
274.465	0.15	548930	keystroke_Key.space	Key.space	n/a
274.72	0.165	549440	keystroke_o	o	n/a
274.825	0.135	549650	keystroke_p	p	n/a
274.93	0.105	549860	keystroke_e	e	n/a
275.005	0.12	550010	keystroke_r	r	n/a
275.155	0.135	550310	keystroke_a	a	n/a
275.32	0.135	550640	keystroke_t	t	n/a
275.44	0.165	550880	keystroke_e	e	n/a
275.575	0.105	551150	keystroke_d	d	n/a
275.695	0.12	551390	keystroke_Key.space	Key.space	n/a
275.86	0.18	551720	keystroke_b	b	n/a
275.98	0.135	551960	keystroke_o	o	n/a
276.145	0.105	552290	keystroke_d	d	n/a
276.28	0.165	552560	keystroke_y	y	n/a
276.37	0.15	552740	keystroke_Key.space	Key.space	n/a
276.535	0.105	553070	keystroke_c	c	n/a
276.685	0.1195	553370	keystroke_o	o	n/a
276.9695	0.09	553939	keystroke_p	p	n/a
277.2695	0.09	554539	keystroke_y	y	n/a
277.5095	0.0905	555019	keystroke_r	r	n/a
277.6	0.09	555200	keystroke_i	i	n/a
277.78	0.075	555560	keystroke_g	g	n/a
277.87	0.09	555740	keystroke_h	h	n/a
278.02	0.06	556040	keystroke_t	t	n/a
278.2445	0.09	556489	keystroke_Key.enter	Key.enter	n/a
278.339	5.022	556678	prompt	n/a	clark logs salmon push\n
279.1895	0.12	558379	keystroke_c	c	n/a
279.3545	0.135	558709	keystroke_l	l	n/a
279.5045	0.12	559009	keystroke_a	a	n/a
279.5945	0.12	559189	keystroke_r	r	n/a
279.6845	0.15	559369	keystroke_k	k	n/a
279.7745	0.24	559549	keystroke_Key.space	Key.space	n/a
279.9545	0.12	559909	keystroke_l	l	n/a
280.2995	0.075	560599	keystroke_o	o	n/a
280.495	0.18	560990	keystroke_g	g	n/a
280.6	0.1495	561200	keystroke_s	s	n/a
280.8095	0.15	561619	keystroke_Key.space	Key.space	n/a
281.185	0.15	562370	keystroke_s	s	n/a
281.26	0.135	562520	keystroke_a	a	n/a
281.425	0.135	562850	keystroke_l	l	n/a
281.9645	0.1655	563929	keystroke_m	m	n/a
282.1	0.225	564200	keystroke_o	o	n/a
282.25	0.165	564500	keystroke_n	n	n/a
282.355	0.195	564710	keystroke_Key.space	Key.space	n/a
282.535	0.24	565070	keystroke_p	p	n/a
282.685	0.135	565370	keystroke_u	u	n/a
282.85	0.12	565700	keystroke_s	s	n/a
283	0.075	566000	keystroke_h	h	n/a
283.2695	0.09	566539	keystroke_Key.enter	Key.enter	n/a
283.364	4.7075	566728	prompt	n/a	guilty cheap legal pages\n
284.11	0.09	568220	keystroke_g	g	n/a
284.245	0.225	568490	keystroke_u	u	n/a
284.365	0.18	568730	keystroke_i	i	n/a
284.425	0.165	568850	keystroke_l	l	n/a
284.725	0.12	569450	keystroke_t	t	n/a
285.07	0.06	570140	keystroke_y	y	n/a
285.22	0.12	570440	keystroke_Key.space	Key.space	n/a
285.49	0.1045	570980	keystroke_c	c	n/a
285.685	0.0905	571370	keystroke_h	h	n/a
285.8055	0.15	571611	keystroke_e	e	n/a
285.8805	0.149	571761	keystroke_a	a	n/a
285.9855	0.149	571971	keystroke_p	p	n/a
286.0895	0.1355	572179	keystroke_Key.space	Key.space	n/a
286.3	0.12	572600	keystroke_l	l	n/a
286.405	0.105	572810	keystroke_e	e	n/a
286.555	0.06	573110	keystroke_g	g	n/a
286.69	0.105	573380	keystroke_a	a	n/a
286.81	0.105	573620	keystroke_l	l	n/a
286.885	0.12	573770	keystroke_Key.space	Key.space	n/a
287.155	0.12	574310	keystroke_p	p	n/a
287.26	0.105	574520	keystroke_a	a	n/a
287.44	0.21	574880	keystroke_g	g	n/a
287.59	0.1805	575180	keystroke_e	e	n/a
287.68	0.1495	575360	keystroke_s	s	n/a
287.9795	0.09	575959	keystroke_Key.enter	Key.enter	n/a
288.0875	6.344	576175	prompt	n/a	though aluminium cards tops\n
288.8345	0.1205	577669	keystroke_t	t	n/a
288.97	0.105	577940	keystroke_h	h	n/a
289.105	0.21	578210	keystroke_o	o	n/a
289.21	0.12	578420	keystroke_u	u	n/a
289.36	0.06	578720	keystroke_g	g	n/a
289.435	0.18	578870	keystroke_h	h	n/a
289.525	0.165	579050	keystroke_Key.space	Key.space	n/a
289.705	0.09	579410	keystroke_a	a	n/a
289.855	0.105	579710	keystroke_l	l	n/a
290.2745	0.06	580549	keystroke_u	u	n/a
291.1895	0.105	582379	keystroke_m	m	n/a
291.505	0.09	583010	keystroke_i	i	n/a
291.79	0.09	583580	keystroke_n	n	n/a
292.045	0.105	584090	keystroke_u	u	n/a
292.315	0.105	584630	keystroke_m	m	n/a
292.375	0.1645	584750	keystroke_Key.space	Key.space	n/a
292.5095	0.12	585019	keystroke_c	c	n/a
292.6595	0.1505	585319	keystroke_a	a	n/a
292.885	0.09	585770	keystroke_r	r	n/a
293.1255	0.164	586251	keystroke_d	d	n/a
293.2145	0.135	586429	keystroke_s	s	n/a
293.3645	0.12	586729	keystroke_Key.space	Key.space	n/a
293.515	0.105	587030	keystroke_t	t	n/a
293.65	0.18	587300	keystroke_o	o	n/a
293.77	0.165	587540	keystroke_p	p	n/a
293.98	0.12	587960	keystroke_s	s	n/a
294.325	0.105	588650	keystroke_Key.enter	Key.enter	n/a
294.434	6.4775	588868	prompt	n/a	cosmetics spanking hopes burning\n
295.0905	0.09	590181	keystroke_c	c	n/a
295.39	0.1055	590780	keystroke_o	o	n/a
295.5555	0.0895	591111	keystroke_s	s	n/a
295.84	0.105	591680	keystroke_m	m	n/a
295.975	0.09	591950	keystroke_e	e	n/a
296.1855	0.059	592371	keystroke_t	t	n/a
296.365	0.09	592730	keystroke_i	i	n/a
296.5	0.165	593000	keystroke_c	c	n/a
296.56	0.15	593120	keystroke_s	s	n/a
296.71	0.12	593420	keystroke_Key.space	Key.space	n/a
296.92	0.09	593840	keystroke_s	s	n/a
296.98	0.09	593960	keystroke_p	p	n/a
297.13	0.1055	594260	keystroke_a	a	n/a
297.3105	0.09	594621	keystroke_n	n	n/a
297.6395	0.09	595279	keystroke_k	k	n/a
297.8655	0.195	595731	keystroke_i	i	n/a
297.9705	0.1495	595941	keystroke_n	n	n/a
298.15	0.09	596300	keystroke_g	g	n/a
298.255	0.12	596510	keystroke_Key.space	Key.space	n/a
298.6145	0.075	597229	keystroke_h	h	n/a
298.8545	0.21	597709	keystroke_o	o	n/a
298.9595	0.15	597919	keystroke_p	p	n/a
299.0495	0.135	598099	keystroke_e	e	n/a
299.1105	0.134	598221	keystroke_s	s	n/a
299.2145	0.12	598429	keystroke_Key.space	Key.space	n/a
299.5295	0.195	599059	keystroke_b	b	n/a
299.6645	0.105	599329	keystroke_u	u	n/a
300.01	0.105	600020	keystroke_r	r	n/a
300.22	0.15	600440	keystroke_n	n	n/a
300.34	0.21	600680	keystroke_i	i	n/a
300.475	0.12	600950	keystroke_n	n	n/a
300.58	0.075	601160	keystroke_g	g	n/a
300.8055	0.1045	601611	keystroke_Key.enter	Key.enter	n/a
300.916	6.7905	601832	prompt	n/a	infrared topics northeast anybody\n
301.6445	0.165	603289	keystroke_i	i	n/a
301.7355	0.165	603471	keystroke_n	n	n/a
301.8855	0.104	603771	keystroke_f	f	n/a
302.125	0.09	604250	keystroke_r	r	n/a
302.2445	0.195	604489	keystroke_a	a	n/a
302.4245	0.1805	604849	keystroke_r	r	n/a
302.575	0.21	605150	keystroke_e	e	n/a
302.74	0.12	605480	keystroke_d	d	n/a
302.875	0.105	605750	keystroke_Key.space	Key.space	n/a
303.025	0.075	606050	keystroke_t	t	n/a
303.115	0.12	606230	keystroke_o	o	n/a
303.19	0.24	606380	keystroke_p	p	n/a
303.37	0.18	606740	keystroke_i	i	n/a
303.52	0.165	607040	keystroke_c	c	n/a
303.595	0.1505	607190	keystroke_s	s	n/a
303.7605	0.1195	607521	keystroke_Key.space	Key.space	n/a
304.0595	0.061	608119	keystroke_n	n	n/a
304.0755	0.12	608151	keystroke_o	o	n/a
304.1645	0.106	608329	keystroke_r	r	n/a
304.3755	0.06	608751	keystroke_t	t	n/a
304.4945	0.1205	608989	keystroke_h	h	n/a
304.87	0.105	609740	keystroke_e	e	n/a
305.08	0.105	610160	keystroke_a	a	n/a
305.2895	0.12	610579	keystroke_s	s	n/a
305.6645	0.06	611329	keystroke_t	t	n/a
305.8745	0.12	611749	keystroke_Key.space	Key.space	n/a
306.115	0.12	612230	keystroke_a	a	n/a
306.34	0.09	612680	keystroke_n	n	n/a
306.565	0.09	613130	keystroke_y	y	n/a
306.805	0.18	613610	keystroke_b	b	n/a
306.94	0.135	613880	keystroke_o	o	n/a
307.09	0.09	614180	keystroke_d	d	n/a
307.225	0.09	614450	keystroke_y	y	n/a
307.615	0.09	615230	keystroke_Key.enter	Key.enter	n/a
307.711	5.8905	615422	prompt	n/a	salt crown grounds eggs\n
308.365	0.18	616730	keystroke_s	s	n/a
308.455	0.1655	616910	keystroke_a	a	n/a
308.6355	0.105	617271	keystroke_l	l	n/a
308.755	0.075	617510	keystroke_t	t	n/a
308.8455	0.1195	617691	keystroke_Key.space	Key.space	n/a
309.025	0.09	618050	keystroke_c	c	n/a
309.2655	0.075	618531	keystroke_r	r	n/a
309.5205	0.12	619041	keystroke_o	o	n/a
309.6855	0.075	619371	keystroke_w	w	n/a
309.8495	0.195	619699	keystroke_n	n	n/a
309.9545	0.18	619909	keystroke_Key.space	Key.space	n/a
310.2395	0.166	620479	keystroke_g	g	n/a
310.3755	0.105	620751	keystroke_r	r	n/a
310.4945	0.2105	620989	keystroke_o	o	n/a
310.6005	0.1345	621201	keystroke_y	y	n/a
310.6905	0.0295	621381	keystroke_u	u	n/a
311.14	0.075	622280	keystroke_Key.backspace	Key.backspace	n/a
311.545	0.06	623090	keystroke_Key.backspace	Key.backspace	n/a
311.83	0.075	623660	keystroke_u	u	n/a
312.2195	0.09	624439	keystroke_n	n	n/a
312.3395	0.15	624679	keystroke_d	d	n/a
312.3995	0.135	624799	keystroke_s	s	n/a
312.5195	0.135	625039	keystroke_Key.space	Key.space	n/a
312.6695	0.09	625339	keystroke_e	e	n/a
312.9105	0.059	625821	keystroke_g	g	n/a
313.0295	0.076	626059	keystroke_g	g	n/a
313.2395	0.105	626479	keystroke_s	s	n/a
313.51	0.09	627020	keystroke_Key.enter	Key.enter	n/a
313.6045	10.917	627209	prompt	n/a	defence judgment packets bookings\n
314.3645	0.165	628729	keystroke_d	d	n/a
314.4845	0.12	628969	keystroke_e	e	n/a
314.7095	0.075	629419	keystroke_g	g	n/a
314.8895	0.105	629779	keystroke_e	e	n/a
315.2345	0.045	630469	keystroke_Key.backspace	Key.backspace	n/a
315.3545	0.075	630709	keystroke_Key.backspace	Key.backspace	n/a
315.4445	0.1055	630889	keystroke_f	f	n/a
315.565	0.105	631130	keystroke_e	e	n/a
315.895	0.105	631790	keystroke_n	n	n/a
316.015	0.1345	632030	keystroke_c	c	n/a
316.09	0.1345	632180	keystroke_e	e	n/a
316.1945	0.135	632389	keystroke_Key.space	Key.space	n/a
316.4045	0.045	632809	keystroke_j	j	n/a
316.8695	0.075	633739	keystroke_Key.backspace	Key.backspace	n/a
317.0345	0.06	634069	keystroke_Key.backspace	Key.backspace	n/a
317.4095	0.1205	634819	keystroke_Key.space	Key.space	n/a
319.0595	0.075	638119	keystroke_j	j	n/a
319.2845	0.09	638569	keystroke_u	u	n/a
319.5095	0.12	639019	keystroke_d	d	n/a
320.38	0.09	640760	keystroke_g	g	n/a
320.65	0.12	641300	keystroke_m	m	n/a
320.785	0.105	641570	keystroke_e	e	n/a
320.92	0.105	641840	keystroke_n	n	n/a
321.055	0.075	642110	keystroke_t	t	n/a
321.175	0.12	642350	keystroke_Key.space	Key.space	n/a
321.46	0.12	642920	keystroke_p	p	n/a
321.565	0.0895	643130	keystroke_a	a	n/a
321.7905	0.09	643581	keystroke_c	c	n/a
322.2095	0.091	644419	keystroke_k	k	n/a
322.3755	0.135	644751	keystroke_e	e	n/a
322.4945	0.09	644989	keystroke_t	t	n/a
322.7355	0.09	645471	keystroke_s	s	n/a
322.8845	0.12	645769	keystroke_Key.space	Key.space	n/a
323.0495	0.121	646099	keystroke_b	b	n/a
323.2155	0.104	646431	keystroke_o	o	n/a
323.4255	0.09	646851	keystroke_o	o	n/a
323.5755	0.105	647151	keystroke_k	k	n/a
323.8295	0.18	647659	keystroke_i	i	n/a
323.9355	0.134	647871	keystroke_n	n	n/a
324.0545	0.151	648109	keystroke_g	g	n/a
324.1445	0.12	648289	keystroke_s	s	n/a
324.43	0.09	648860	keystroke_Key.enter	Key.enter	n/a
324.5245	8.517	649049	prompt	n/a	shareware empirical annotation imaging\n
325.195	0.075	650390	keystroke_s	s	n/a
325.36	0.105	650720	keystroke_h	h	n/a
325.57	0.075	651140	keystroke_a	a	n/a
325.84	0.15	651680	keystroke_r	r	n/a
325.93	0.12	651860	keystroke_e	e	n/a
326.1545	0.15	652309	keystroke_w	w	n/a
326.2595	0.12	652519	keystroke_a	a	n/a
326.5145	0.165	653029	keystroke_r	r	n/a
326.6045	0.12	653209	keystroke_e	e	n/a
326.8295	0.135	653659	keystroke_Key.space	Key.space	n/a
327.115	0.1205	654230	keystroke_e	e	n/a
327.4455	0.09	654891	keystroke_m	m	n/a
327.73	0.1055	655460	keystroke_p	p	n/a
328.03	0.09	656060	keystroke_i	i	n/a
328.225	0.105	656450	keystroke_r	r	n/a
328.375	0.105	656750	keystroke_i	i	n/a
328.555	0.15	657110	keystroke_c	c	n/a
328.66	0.135	657320	keystroke_a	a	n/a
328.765	0.15	657530	keystroke_l	l	n/a
328.855	0.15	657710	keystroke_Key.space	Key.space	n/a
329.035	0.105	658070	keystroke_a	a	n/a
329.245	0.09	658490	keystroke_n	n	n/a
329.47	0.09	658940	keystroke_n	n	n/a
330.13	0.12	660260	keystroke_o	o	n/a
330.265	0.09	660530	keystroke_t	t	n/a
330.9705	0.119	661941	keystroke_a	a	n/a
331.27	0.09	662540	keystroke_t	t	n/a
331.39	0.3295	662780	keystroke_i	i	n/a
331.4795	0.225	662959	keystroke_o	o	n/a
331.5995	0.1655	663199	keystroke_n	n	n/a
331.6895	0.1805	663379	keystroke_Key.space	Key.space	n/a
331.945	0.18	663890	keystroke_i	i	n/a
332.08	0.135	664160	keystroke_m	m	n/a
332.2	0.105	664400	keystroke_a	a	n/a
332.425	0.105	664850	keystroke_g	g	n/a
332.545	0.1645	665090	keystroke_i	i	n/a
332.6345	0.12	665269	keystroke_n	n	n/a
332.7555	0.059	665511	keystroke_g	g	n/a
332.9495	0.09	665899	keystroke_Key.enter	Key.enter	n/a
333.057	6.9895	666114	prompt	n/a	going incoming relate dutch\n
333.6245	0.105	667249	keystroke_g	g	n/a
333.7445	0.15	667489	keystroke_o	o	n/a
333.8195	0.135	667639	keystroke_i	i	n/a
333.9695	0.06	667939	keystroke_g	g	n/a
334.0745	0.105	668149	keystroke_Key.space	Key.space	n/a
334.4945	0.075	668989	keystroke_Key.backspace	Key.backspace	n/a
334.6595	0.06	669319	keystroke_Key.backspace	Key.backspace	n/a
334.9145	0.0905	669829	keystroke_n	n	n/a
335.02	0.09	670040	keystroke_g	g	n/a
335.125	0.1805	670250	keystroke_Key.space	Key.space	n/a
335.2905	0.195	670581	keystroke_i	i	n/a
335.5005	0.015	671001	keystroke_n	n	n/a
335.6055	0.12	671211	keystroke_c	c	n/a
335.7105	0.24	671421	keystroke_o	o	n/a
335.9805	0.03	671961	keystroke_m	m	n/a
336.4455	0.225	672891	keystroke_i	i	n/a
337.0755	0.105	674151	keystroke_n	n	n/a
337.2405	0.09	674481	keystroke_g	g	n/a
337.39	0.135	674780	keystroke_Key.space	Key.space	n/a
337.585	0.1655	675170	keystroke_r	r	n/a
337.69	0.1355	675380	keystroke_e	e	n/a
337.8855	0.135	675771	keystroke_l	l	n/a
338.0355	0.0895	676071	keystroke_a	a	n/a
338.245	0.1645	676490	keystroke_t	t	n/a
338.3345	0.18	676669	keystroke_e	e	n/a
338.53	0.12	677060	keystroke_Key.space	Key.space	n/a
338.725	0.12	677450	keystroke_d	d	n/a
339.1005	0.1045	678201	keystroke_u	u	n/a
339.37	0.075	678740	keystroke_t	t	n/a
339.64	0.1045	679280	keystroke_c	c	n/a
339.7595	0.09	679519	keystroke_h	h	n/a
339.7755	0.044	679551	keystroke_g	g	n/a
339.9545	0.09	679909	keystroke_Key.enter	Key.enter	n/a
340.05	6.3415	680100	prompt	n/a	brothers directive kevin arrives\n
340.6895	0.105	681379	keystroke_b	b	n/a
340.8095	0.105	681619	keystroke_r	r	n/a
340.9445	0.09	681889	keystroke_o	o	n/a
341.0645	0.06	682129	keystroke_t	t	n/a
341.1395	0.09	682279	keystroke_h	h	n/a
341.2445	0.15	682489	keystroke_e	e	n/a
341.3495	0.1205	682699	keystroke_r	r	n/a
341.62	0.135	683240	keystroke_s	s	n/a
341.845	0.09	683690	keystroke_Key.space	Key.space	n/a
341.965	0.1495	683930	keystroke_d	d	n/a
342.2495	0.09	684499	keystroke_i	i	n/a
342.3545	0.18	684709	keystroke_r	r	n/a
342.4745	0.1655	684949	keystroke_e	e	n/a
342.79	0.12	685580	keystroke_c	c	n/a
343.09	0.105	686180	keystroke_t	t	n/a
343.3	0.105	686600	keystroke_i	i	n/a
343.42	0.165	686840	keystroke_v	v	n/a
343.54	0.12	687080	keystroke_e	e	n/a
343.675	0.12	687350	keystroke_Key.space	Key.space	n/a
343.885	0.1045	687770	keystroke_k	k	n/a
343.96	0.1055	687920	keystroke_e	e	n/a
344.2155	0.09	688431	keystroke_v	v	n/a
344.3355	0.225	688671	keystroke_i	i	n/a
344.5455	0.18	689091	keystroke_n	n	n/a
344.9955	0.075	689991	keystroke_Key.space	Key.space	n/a
345.1005	0.1345	690201	keystroke_a	a	n/a
345.25	0.09	690500	keystroke_r	r	n/a
345.4295	0.09	690859	keystroke_r	r	n/a
345.61	0.12	691220	keystroke_i	i	n/a
345.745	0.18	691490	keystroke_v	v	n/a
345.895	0.1805	691790	keystroke_e	e	n/a
345.985	0.1655	691970	keystroke_s	s	n/a
346.3	0.09	692600	keystroke_Key.enter	Key.enter	n/a
346.3965	8.11	692793	prompt	n/a	reporters soundtrack timer referenced\n
347.02	0.12	694040	keystroke_r	r	n/a
347.11	0.12	694220	keystroke_e	e	n/a
347.32	0.15	694640	keystroke_p	p	n/a
347.395	0.135	694790	keystroke_o	o	n/a
347.545	0.09	695090	keystroke_r	r	n/a
347.7405	0.075	695481	keystroke_t	t	n/a
347.92	0.135	695840	keystroke_e	e	n/a
347.995	0.0895	695990	keystroke_r	r	n/a
348.2345	0.105	696469	keystroke_s	s	n/a
348.3695	0.12	696739	keystroke_Key.space	Key.space	n/a
348.4755	0.074	696951	keystroke_s	s	n/a
348.5795	0.1505	697159	keystroke_o	o	n/a
348.67	0.105	697340	keystroke_u	u	n/a
348.91	0.12	697820	keystroke_n	n	n/a
349.015	0.105	698030	keystroke_d	d	n/a
349.285	0.075	698570	keystroke_t	t	n/a
349.495	0.075	698990	keystroke_r	r	n/a
349.735	0.105	699470	keystroke_a	a	n/a
349.99	0.105	699980	keystroke_c	c	n/a
350.14	0.18	700280	keystroke_k	k	n/a
350.26	0.18	700520	keystroke_Key.space	Key.space	n/a
350.605	0.075	701210	keystroke_t	t	n/a
350.71	0.105	701420	keystroke_i	i	n/a
350.98	0.09	701960	keystroke_m	m	n/a
351.115	0.135	702230	keystroke_e	e	n/a
351.19	0.135	702380	keystroke_r	r	n/a
351.34	0.12	702680	keystroke_Key.space	Key.space	n/a
351.7	0.15	703400	keystroke_r	r	n/a
351.79	0.135	703580	keystroke_e	e	n/a
352.075	0.075	704150	keystroke_f	f	n/a
352.3	0.165	704600	keystroke_e	e	n/a
352.435	0.12	704870	keystroke_r	r	n/a
353.35	0.105	706700	keystroke_e	e	n/a
353.56	0.15	707120	keystroke_n	n	n/a
353.755	0.165	707510	keystroke_c	c	n/a
353.89	0.135	707780	keystroke_e	e	n/a
354.16	0.105	708320	keystroke_d	d	n/a
354.415	0.09	708830	keystroke_Key.enter	Key.enter	n/a
354.51	7.9015	709020	prompt	n/a	decade proposed sense financing\n
355.12	0.09	710240	keystroke_d	d	n/a
355.4795	0.105	710959	keystroke_a	a	n/a
355.7045	0.12	711409	keystroke_c	c	n/a
356.425	0.075	712850	keystroke_Key.backspace	Key.backspace	n/a
356.59	0.075	713180	keystroke_Key.backspace	Key.backspace	n/a
356.7705	0.09	713541	keystroke_e	e	n/a
357.04	0.09	714080	keystroke_c	c	n/a
357.31	0.105	714620	keystroke_a	a	n/a
357.55	0.18	715100	keystroke_d	d	n/a
357.67	0.105	715340	keystroke_e	e	n/a
357.79	0.105	715580	keystroke_Key.space	Key.space	n/a
357.985	0.1205	715970	keystroke_p	p	n/a
358.1205	0.09	716241	keystroke_r	r	n/a
358.3155	0.1045	716631	keystroke_o	o	n/a
358.555	0.18	717110	keystroke_p	p	n/a
358.66	0.135	717320	keystroke_o	o	n/a
358.75	0.15	717500	keystroke_s	s	n/a
358.84	0.135	717680	keystroke_e	e	n/a
359.095	0.09	718190	keystroke_d	d	n/a
359.23	0.135	718460	keystroke_Key.space	Key.space	n/a
359.425	0.12	718850	keystroke_s	s	n/a
359.68	0.045	719360	keystroke_e	e	n/a
359.8745	0.105	719749	keystroke_n	n	n/a
359.9945	0.135	719989	keystroke_s	s	n/a
360.0995	0.135	720199	keystroke_e	e	n/a
360.2495	0.12	720499	keystroke_Key.space	Key.space	n/a
360.3995	0.105	720799	keystroke_f	f	n/a
360.5195	0.12	721039	keystroke_i	i	n/a
360.805	0.1195	721610	keystroke_n	n	n/a
361.24	0.135	722480	keystroke_a	a	n/a
361.48	0.105	722960	keystroke_n	n	n/a
361.6605	0.12	723321	keystroke_c	c	n/a
361.8105	0.21	723621	keystroke_i	i	n/a
361.9305	0.134	723861	keystroke_n	n	n/a
362.0805	0.09	724161	keystroke_g	g	n/a
362.3055	0.105	724611	keystroke_Key.enter	Key.enter	n/a
362.415	5.3965	724830	prompt	n/a	brave five jesus shakira\n
363.205	0.12	726410	keystroke_b	b	n/a
363.415	0.105	726830	keystroke_r	r	n/a
363.58	0.105	727160	keystroke_a	a	n/a
363.88	0.09	727760	keystroke_v	v	n/a
364.09	0.09	728180	keystroke_e	e	n/a
364.195	0.12	728390	keystroke_Key.space	Key.space	n/a
364.36	0.09	728720	keystroke_f	f	n/a
364.54	0.075	729080	keystroke_i	i	n/a
364.75	0.105	729500	keystroke_v	v	n/a
365.05	0.075	730100	keystroke_e	e	n/a
365.245	0.12	730490	keystroke_Key.space	Key.space	n/a
365.5	0.105	731000	keystroke_j	j	n/a
365.62	0.06	731240	keystroke_e	e	n/a
365.8455	0.074	731691	keystroke_s	s	n/a
366.0245	0.09	732049	keystroke_u	u	n/a
366.1445	0.061	732289	keystroke_s	s	n/a
366.2795	0.12	732559	keystroke_Key.space	Key.space	n/a
366.5645	0.106	733129	keystroke_s	s	n/a
366.7295	0.105	733459	keystroke_h	h	n/a
366.8645	0.12	733729	keystroke_a	a	n/a
367.0455	0.089	734091	keystroke_k	k	n/a
367.2545	0.09	734509	keystroke_i	i	n/a
367.3605	0.134	734721	keystroke_r	r	n/a
367.4495	0.135	734899	keystroke_a	a	n/a
367.7045	0.105	735409	keystroke_Key.enter	Key.enter	n/a
367.818	6.2635	735636	prompt	n/a	christina four gras yamaha\n
368.5295	0.106	737059	keystroke_c	c	n/a
368.6795	0.135	737359	keystroke_h	h	n/a
368.7995	0.075	737599	keystroke_r	r	n/a
368.9345	0.091	737869	keystroke_i	i	n/a
369.0395	0.105	738079	keystroke_s	s	n/a
369.2655	0.074	738531	keystroke_t	t	n/a
369.3855	0.195	738771	keystroke_i	i	n/a
369.4905	0.149	738981	keystroke_n	n	n/a
369.6245	0.105	739249	keystroke_a	a	n/a
369.7745	0.105	739549	keystroke_Key.space	Key.space	n/a
369.9255	0.12	739851	keystroke_f	f	n/a
370.1045	0.21	740209	keystroke_o	o	n/a
370.2255	0.149	740451	keystroke_u	u	n/a
370.4345	0.12	740869	keystroke_r	r	n/a
370.5695	0.12	741139	keystroke_Key.space	Key.space	n/a
370.8695	0.075	741739	keystroke_g	g	n/a
371.0945	0.105	742189	keystroke_r	r	n/a
371.3345	0.105	742669	keystroke_a	a	n/a
371.5895	0.121	743179	keystroke_s	s	n/a
371.7995	0.135	743599	keystroke_Key.space	Key.space	n/a
372.1445	0.121	744289	keystroke_y	y	n/a
372.3545	0.075	744709	keystroke_a	a	n/a
372.7595	0.105	745519	keystroke_m	m	n/a
373.1645	0.075	746329	keystroke_a	a	n/a
373.5705	0.089	747141	keystroke_h	h	n/a
373.7645	0.091	747529	keystroke_a	a	n/a
373.9755	0.104	747951	keystroke_Key.enter	Key.enter	n/a
374.0855	5.996	748171	prompt	n/a	lynn stating tales terry\n
374.7845	0.105	749569	keystroke_l	l	n/a
375.0395	0.076	750079	keystroke_y	y	n/a
375.3705	0.09	750741	keystroke_n	n	n/a
375.5645	0.091	751129	keystroke_n	n	n/a
375.7895	0.105	751579	keystroke_Key.space	Key.space	n/a
375.9405	0.135	751881	keystroke_s	s	n/a
376.2255	0.104	752451	keystroke_t	t	n/a
376.63	0.105	753260	keystroke_a	a	n/a
376.8695	0.09	753739	keystroke_t	t	n/a
377.0795	0.1955	754159	keystroke_i	i	n/a
377.1995	0.1655	754399	keystroke_n	n	n/a
377.38	0.075	754760	keystroke_g	g	n/a
377.6495	0.105	755299	keystroke_Key.space	Key.space	n/a
377.9495	0.0905	755899	keystroke_t	t	n/a
378.115	0.105	756230	keystroke_a	a	n/a
378.34	0.15	756680	keystroke_l	l	n/a
378.475	0.255	756950	keystroke_e	e	n/a
378.5805	0.1495	757161	keystroke_s	s	n/a
378.745	0.1355	757490	keystroke_Key.space	Key.space	n/a
378.9255	0.09	757851	keystroke_t	t	n/a
379.1055	0.075	758211	keystroke_e	e	n/a
379.42	0.09	758840	keystroke_r	r	n/a
379.6	0.09	759200	keystroke_r	r	n/a
379.705	0.09	759410	keystroke_y	y	n/a
380.005	0.075	760010	keystroke_Key.enter	Key.enter	n/a
380.0895	5.257	760179	prompt	n/a	thriller condo debug courage\n
380.8155	0.0895	761631	keystroke_t	t	n/a
380.95	0.12	761900	keystroke_h	h	n/a
381.07	0.06	762140	keystroke_r	r	n/a
381.22	0.1505	762440	keystroke_i	i	n/a
381.2955	0.135	762591	keystroke_l	l	n/a
381.5055	0.09	763011	keystroke_l	l	n/a
381.6105	0.105	763221	keystroke_e	e	n/a
381.6555	0.12	763311	keystroke_r	r	n/a
381.7605	0.12	763521	keystroke_Key.space	Key.space	n/a
381.9255	0.09	763851	keystroke_c	c	n/a
382.0305	0.15	764061	keystroke_o	o	n/a
382.1355	0.12	764271	keystroke_n	n	n/a
382.3005	0.105	764601	keystroke_d	d	n/a
382.4205	0.149	764841	keystroke_o	o	n/a
382.5105	0.164	765021	keystroke_Key.space	Key.space	n/a
382.6905	0.119	765381	keystroke_d	d	n/a
383.2895	0.12	766579	keystroke_e	e	n/a
383.4845	0.105	766969	keystroke_b	b	n/a
383.71	0.1345	767420	keystroke_u	u	n/a
383.9495	0.09	767899	keystroke_g	g	n/a
384.085	0.15	768170	keystroke_Key.space	Key.space	n/a
384.325	0.09	768650	keystroke_c	c	n/a
384.4605	0.18	768921	keystroke_o	o	n/a
384.5655	0.15	769131	keystroke_u	u	n/a
384.6555	0.15	769311	keystroke_r	r	n/a
384.7905	0.12	769581	keystroke_a	a	n/a
384.9855	0.165	769971	keystroke_g	g	n/a
385.0905	0.105	770181	keystroke_e	e	n/a
385.2555	0.09	770511	keystroke_Key.enter	Key.enter	n/a
385.3515	8.02	770703	prompt	n/a	food discussions swing candidate\n
386.0805	0.09	772161	keystroke_f	f	n/a
386.335	0.06	772670	keystroke_o	o	n/a
386.485	0.09	772970	keystroke_o	o	n/a
386.59	0.105	773180	keystroke_d	d	n/a
386.71	0.09	773420	keystroke_Key.space	Key.space	n/a
386.905	0.105	773810	keystroke_d	d	n/a
387.16	0.12	774320	keystroke_i	i	n/a
387.355	0.135	774710	keystroke_s	s	n/a
388.03	0.1055	776060	keystroke_c	c	n/a
388.2405	0.075	776481	keystroke_u	u	n/a
388.5255	0.06	777051	keystroke_s	s	n/a
388.6755	0.09	777351	keystroke_s	s	n/a
388.7805	0.255	777561	keystroke_i	i	n/a
388.8405	0.21	777681	keystroke_o	o	n/a
389.0655	0.105	778131	keystroke_s	s	n/a
389.6055	0.06	779211	keystroke_Key.backspace	Key.backspace	n/a
389.8455	0.105	779691	keystroke_n	n	n/a
389.9655	0.09	779931	keystroke_s	s	n/a
390.0845	0.135	780169	keystroke_Key.space	Key.space	n/a
390.1905	0.074	780381	keystroke_s	s	n/a
390.3705	0.075	780741	keystroke_w	w	n/a
390.4905	0.21	780981	keystroke_i	i	n/a
390.6105	0.15	781221	keystroke_n	n	n/a
390.8055	0.09	781611	keystroke_g	g	n/a
390.9695	0.105	781939	keystroke_Key.space	Key.space	n/a
391.135	0.045	782270	keystroke_c	c	n/a
391.255	0.15	782510	keystroke_a	a	n/a
391.435	0.12	782870	keystroke_n	n	n/a
391.585	0.09	783170	keystroke_d	d	n/a
391.735	0.1045	783470	keystroke_i	i	n/a
391.8255	0.164	783651	keystroke_d	d	n/a
391.9595	0.1205	783919	keystroke_a	a	n/a
392.77	0.165	785540	keystroke_t	t	n/a
392.875	0.15	785750	keystroke_e	e	n/a
393.28	0.09	786560	keystroke_Key.enter	Key.enter	n/a
393.3745	7.257	786749	prompt	n/a	cycling compiler abstracts radical\n
394.165	0.1205	788330	keystroke_c	c	n/a
394.3455	0.09	788691	keystroke_y	y	n/a
394.4505	0.09	788901	keystroke_c	c	n/a
394.5995	0.1955	789199	keystroke_l	l	n/a
394.7205	0.1645	789441	keystroke_i	i	n/a
394.81	0.12	789620	keystroke_n	n	n/a
394.915	0.075	789830	keystroke_g	g	n/a
395.05	0.12	790100	keystroke_Key.space	Key.space	n/a
395.2005	0.104	790401	keystroke_c	c	n/a
395.3355	0.149	790671	keystroke_o	o	n/a
395.4105	0.119	790821	keystroke_m	m	n/a
395.6805	0.134	791361	keystroke_p	p	n/a
395.8905	0.089	791781	keystroke_i	i	n/a
396.145	0.12	792290	keystroke_l	l	n/a
396.28	0.1355	792560	keystroke_e	e	n/a
396.3555	0.1345	792711	keystroke_r	r	n/a
396.475	0.12	792950	keystroke_Key.space	Key.space	n/a
396.73	0.12	793460	keystroke_a	a	n/a
396.985	0.135	793970	keystroke_b	b	n/a
397.285	0.135	794570	keystroke_s	s	n/a
397.8095	0.09	795619	keystroke_t	t	n/a
398.0345	0.09	796069	keystroke_r	r	n/a
398.1845	0.12	796369	keystroke_a	a	n/a
398.4245	0.105	796849	keystroke_c	c	n/a
398.7245	0.06	797449	keystroke_t	t	n/a
398.9345	0.1055	797869	keystroke_s	s	n/a
399.085	0.135	798170	keystroke_Key.space	Key.space	n/a
399.235	0.135	798470	keystroke_r	r	n/a
399.385	0.135	798770	keystroke_a	a	n/a
399.6395	0.12	799279	keystroke_d	d	n/a
399.8345	0.12	799669	keystroke_i	i	n/a
399.9695	0.1055	799939	keystroke_c	c	n/a
400.105	0.135	800210	keystroke_a	a	n/a
400.225	0.15	800450	keystroke_l	l	n/a
400.555	0.075	801110	keystroke_Key.enter	Key.enter	n/a
400.6345	7.602	801269	prompt	n/a	bonus publications depend cultural\n
401.41	0.09	802820	keystroke_b	b	n/a
401.62	0.105	803240	keystroke_o	o	n/a
401.8305	0.075	803661	keystroke_n	n	n/a
402.0705	0.09	804141	keystroke_u	u	n/a
402.2355	0.135	804471	keystroke_s	s	n/a
402.3855	0.104	804771	keystroke_Key.space	Key.space	n/a
402.5495	0.09	805099	keystroke_p	p	n/a
402.775	0.075	805550	keystroke_u	u	n/a
403.03	0.09	806060	keystroke_b	b	n/a
403.285	0.06	806570	keystroke_l	l	n/a
403.48	0.105	806960	keystroke_i	i	n/a
403.6	0.1045	807200	keystroke_c	c	n/a
403.7195	0.12	807439	keystroke_a	a	n/a
403.9295	0.06	807859	keystroke_t	t	n/a
404.0045	0.285	808009	keystroke_i	i	n/a
404.0945	0.18	808189	keystroke_o	o	n/a
404.1995	0.135	808399	keystroke_n	n	n/a
404.3495	0.12	808699	keystroke_s	s	n/a
404.5445	0.151	809089	keystroke_Key.space	Key.space	n/a
405.145	0.12	810290	keystroke_d	d	n/a
405.31	0.12	810620	keystroke_e	e	n/a
405.4445	0.135	810889	keystroke_p	p	n/a
405.5955	0.074	811191	keystroke_e	e	n/a
405.8195	0.121	811639	keystroke_n	n	n/a
405.9695	0.105	811939	keystroke_d	d	n/a
406.165	0.135	812330	keystroke_Key.space	Key.space	n/a
406.48	0.105	812960	keystroke_c	c	n/a
406.645	0.18	813290	keystroke_u	u	n/a
406.7345	0.1655	813469	keystroke_l	l	n/a
406.915	0.09	813830	keystroke_t	t	n/a
407.035	0.105	814070	keystroke_u	u	n/a
407.23	0.1345	814460	keystroke_r	r	n/a
407.3495	0.15	814699	keystroke_a	a	n/a
407.4845	0.121	814969	keystroke_l	l	n/a
408.13	0.105	816260	keystroke_Key.enter	Key.enter	n/a
408.2545	5.022	816509	prompt	n/a	join condos passwords create\n
408.895	0.105	817790	keystroke_j	j	n/a
409.06	0.3	818120	keystroke_o	o	n/a
409.165	0.255	818330	keystroke_i	i	n/a
409.285	0.165	818570	keystroke_n	n	n/a
409.405	0.15	818810	keystroke_Key.space	Key.space	n/a
409.57	0.105	819140	keystroke_c	c	n/a
409.66	0.18	819320	keystroke_o	o	n/a
409.795	0.135	819590	keystroke_n	n	n/a
409.915	0.105	819830	keystroke_d	d	n/a
410.095	0.1355	820190	keystroke_o	o	n/a
410.2605	0.12	820521	keystroke_s	s	n/a
410.3955	0.135	820791	keystroke_Key.space	Key.space	n/a
410.6805	0.075	821361	keystroke_p	p	n/a
410.8	0.15	821600	keystroke_a	a	n/a
410.965	0.12	821930	keystroke_s	s	n/a
411.175	0.09	822350	keystroke_s	s	n/a
411.4	0.09	822800	keystroke_w	w	n/a
411.535	0.09	823070	keystroke_o	o	n/a
411.64	0.075	823280	keystroke_r	r	n/a
411.85	0.1645	823700	keystroke_d	d	n/a
411.925	0.135	823850	keystroke_s	s	n/a
412.105	0.12	824210	keystroke_Key.space	Key.space	n/a
412.21	0.0895	824420	keystroke_c	c	n/a
412.45	0.15	824900	keystroke_r	r	n/a
412.5395	0.12	825079	keystroke_e	e	n/a
412.7345	0.105	825469	keystroke_a	a	n/a
412.8695	0.18	825739	keystroke_t	t	n/a
412.9745	0.12	825949	keystroke_e	e	n/a
413.1695	0.1055	826339	keystroke_Key.enter	Key.enter	n/a
413.28	10.5265	826560	prompt	n/a	portuguese capable bizarre replacing\n
414.0695	0.105	828139	keystroke_p	p	n/a
414.2195	0.075	828439	keystroke_r	r	n/a
415	0.075	830000	keystroke_Key.backspace	Key.backspace	n/a
415.285	0.0905	830570	keystroke_o	o	n/a
415.5405	0.105	831081	keystroke_r	r	n/a
416.215	0.105	832430	keystroke_t	t	n/a
416.485	0.075	832970	keystroke_u	u	n/a
417.1595	0.045	834319	keystroke_g	g	n/a
417.3545	0.1055	834709	keystroke_u	u	n/a
417.52	0.195	835040	keystroke_e	e	n/a
417.655	0.18	835310	keystroke_s	s	n/a
417.79	0.15	835580	keystroke_e	e	n/a
417.955	0.12	835910	keystroke_Key.space	Key.space	n/a
418.165	0.1045	836330	keystroke_c	c	n/a
418.3745	0.075	836749	keystroke_a	a	n/a
418.78	0.09	837560	keystroke_p	p	n/a
419.0495	0.09	838099	keystroke_a	a	n/a
419.2445	0.15	838489	keystroke_b	b	n/a
419.3495	0.12	838699	keystroke_l	l	n/a
419.4545	0.061	838909	keystroke_e	e	n/a
419.575	0.15	839150	keystroke_Key.space	Key.space	n/a
419.8	0.09	839600	keystroke_b	b	n/a
420.025	0.1045	840050	keystroke_i	i	n/a
420.3695	0.0905	840739	keystroke_z	z	n/a
420.73	0.0895	841460	keystroke_a	a	n/a
421.0145	0.06	842029	keystroke_r	r	n/a
421.1955	0.0895	842391	keystroke_r	r	n/a
421.3	0.1205	842600	keystroke_e	e	n/a
421.4655	0.12	842931	keystroke_Key.space	Key.space	n/a
421.885	0.12	843770	keystroke_r	r	n/a
421.945	0.1355	843890	keystroke_e	e	n/a
422.2005	0.15	844401	keystroke_p	p	n/a
422.605	0.105	845210	keystroke_l	l	n/a
422.845	0.105	845690	keystroke_a	a	n/a
423.1	0.09	846200	keystroke_c	c	n/a
423.295	0.18	846590	keystroke_i	i	n/a
423.4	0.15	846800	keystroke_n	n	n/a
423.535	0.09	847070	keystroke_g	g	n/a
423.7	0.105	847400	keystroke_Key.enter	Key.enter	n/a
423.81	7.9615	847620	prompt	n/a	attempted academy meat excel\n
424.315	0.105	848630	keystroke_a	a	n/a
424.585	0.03	849170	keystroke_t	t	n/a
424.765	0.075	849530	keystroke_t	t	n/a
424.99	0.09	849980	keystroke_e	e	n/a
425.17	0.18	850340	keystroke_m	m	n/a
425.29	0.135	850580	keystroke_p	p	n/a
425.38	0.105	850760	keystroke_t	t	n/a
425.47	0.225	850940	keystroke_e	e	n/a
425.635	0.135	851270	keystroke_d	d	n/a
425.785	0.135	851570	keystroke_Key.space	Key.space	n/a
425.935	0.105	851870	keystroke_a	a	n/a
426.19	0.09	852380	keystroke_c	c	n/a
426.385	0.105	852770	keystroke_a	a	n/a
426.61	0.15	853220	keystroke_d	d	n/a
426.7	0.135	853400	keystroke_e	e	n/a
426.82	0.105	853640	keystroke_m	m	n/a
429.102	0.028	858204	keystroke_y	y	n/a
429.28	0.105	858560	keystroke_Key.space	Key.space	n/a
430.06	0.105	860120	keystroke_m	m	n/a
430.15	0.135	860300	keystroke_e	e	n/a
430.24	0.15	860480	keystroke_a	a	n/a
430.405	0.105	860810	keystroke_t	t	n/a
430.54	0.12	861080	keystroke_Key.space	Key.space	n/a
430.705	0.09	861410	keystroke_e	e	n/a
430.945	0.09	861890	keystroke_x	x	n/a
431.185	0.105	862370	keystroke_c	c	n/a
431.275	0.105	862550	keystroke_e	e	n/a
431.365	0.135	862730	keystroke_l	l	n/a
431.68	0.09	863360	keystroke_Key.enter	Key.enter	n/a
431.774	13.7825	863548	prompt	n/a	wisdom fragrances vegetation candles\n
432.475	0.09	864950	keystroke_w	w	n/a
432.67	0.1055	865340	keystroke_i	i	n/a
432.7605	0.09	865521	keystroke_s	s	n/a
433.24	0.09	866480	keystroke_d	d	n/a
433.4655	0.24	866931	keystroke_o	o	n/a
433.6755	0.105	867351	keystroke_m	m	n/a
433.6905	0.1795	867381	keystroke_Key.space	Key.space	n/a
435.3255	0.075	870651	keystroke_f	f	n/a
435.5945	0.091	871189	keystroke_r	r	n/a
435.8355	0.134	871671	keystroke_a	a	n/a
436.6445	0.076	873289	keystroke_g	g	n/a
436.9	0.075	873800	keystroke_r	r	n/a
437.02	0.135	874040	keystroke_a	a	n/a
437.2	0.135	874400	keystroke_n	n	n/a
437.35	0.15	874700	keystroke_c	c	n/a
437.455	0.15	874910	keystroke_e	e	n/a
437.515	0.135	875030	keystroke_s	s	n/a
437.65	0.12	875300	keystroke_Key.space	Key.space	n/a
438.265	0.105	876530	keystroke_v	v	n/a
438.445	0.105	876890	keystroke_e	e	n/a
438.655	0.075	877310	keystroke_g	g	n/a
439.3	0.105	878600	keystroke_e	e	n/a
439.525	0.09	879050	keystroke_t	t	n/a
439.75	0.105	879500	keystroke_a	a	n/a
440.005	0.09	880010	keystroke_t	t	n/a
440.125	0.3005	880250	keystroke_i	i	n/a
440.215	0.2405	880430	keystroke_o	o	n/a
440.4105	0.135	880821	keystroke_Key.space	Key.space	n/a
440.4855	0.165	880971	keystroke_c	c	n/a
440.6055	0.135	881211	keystroke_a	a	n/a
440.7555	0.1045	881511	keystroke_n	n	n/a
440.89	0.09	881780	keystroke_d	d	n/a
441.4	0.045	882800	keystroke_Key.backspace	Key.backspace	n/a
441.52	0.06	883040	keystroke_Key.backspace	Key.backspace	n/a
441.67	0.06	883340	keystroke_Key.backspace	Key.backspace	n/a
441.805	0.06	883610	keystroke_Key.backspace	Key.backspace	n/a
441.97	0.06	883940	keystroke_Key.backspace	Key.backspace	n/a
443.38	0.09	886760	keystroke_Key.backspace	Key.backspace	n/a
444.1295	0.09	888259	keystroke_o	o	n/a
444.325	0.15	888650	keystroke_n	n	n/a
444.415	0.18	888830	keystroke_Key.space	Key.space	n/a
444.565	0.15	889130	keystroke_c	c	n/a
444.685	0.12	889370	keystroke_a	a	n/a
444.76	0.135	889520	keystroke_n	n	n/a
444.925	0.105	889850	keystroke_d	d	n/a
445.06	0.12	890120	keystroke_l	l	n/a
445.165	0.18	890330	keystroke_e	e	n/a
445.255	0.135	890510	keystroke_s	s	n/a
445.435	0.1195	890870	keystroke_Key.enter	Key.enter	n/a
445.566	6.2905	891132	prompt	n/a	entirely mate catalyst stuart\n
446.1395	0.105	892279	keystroke_e	e	n/a
446.2595	0.135	892519	keystroke_n	n	n/a
446.4395	0.06	892879	keystroke_t	t	n/a
446.5295	0.12	893059	keystroke_i	i	n/a
446.6195	0.12	893239	keystroke_r	r	n/a
446.6795	0.12	893359	keystroke_e	e	n/a
446.7845	0.196	893569	keystroke_l	l	n/a
446.9205	0.18	893841	keystroke_y	y	n/a
447.0255	0.135	894051	keystroke_Key.space	Key.space	n/a
447.2805	0.09	894561	keystroke_m	m	n/a
447.3555	0.105	894711	keystroke_a	a	n/a
447.5055	0.165	895011	keystroke_t	t	n/a
447.6555	0.075	895311	keystroke_e	e	n/a
447.7005	0.12	895401	keystroke_Key.space	Key.space	n/a
447.9405	0.09	895881	keystroke_c	c	n/a
448.1505	0.105	896301	keystroke_a	a	n/a
448.45	0.075	896900	keystroke_t	t	n/a
448.615	0.09	897230	keystroke_a	a	n/a
448.78	0.18	897560	keystroke_l	l	n/a
448.93	0.15	897860	keystroke_y	y	n/a
449.065	0.12	898130	keystroke_s	s	n/a
449.155	0.105	898310	keystroke_t	t	n/a
449.245	0.135	898490	keystroke_Key.space	Key.space	n/a
449.395	0.165	898790	keystroke_s	s	n/a
449.59	0.105	899180	keystroke_t	t	n/a
449.9055	0.09	899811	keystroke_u	u	n/a
450.0255	0.075	900051	keystroke_r	r	n/a
450.1155	0.165	900231	keystroke_a	a	n/a
450.5805	0.045	901161	keystroke_Key.backspace	Key.backspace	n/a
450.7155	0.075	901431	keystroke_Key.backspace	Key.backspace	n/a
451.1655	0.119	902331	keystroke_a	a	n/a
451.3295	0.105	902659	keystroke_r	r	n/a
451.5705	0.074	903141	keystroke_t	t	n/a
451.7495	0.105	903499	keystroke_Key.enter	Key.enter	n/a
451.861	9.8505	903722	prompt	n/a	workstation honey pendant representatives\n
452.6795	0.106	905359	keystroke_w	w	n/a
452.8145	0.105	905629	keystroke_o	o	n/a
453.1445	0.091	906289	keystroke_r	r	n/a
453.3695	0.105	906739	keystroke_k	k	n/a
453.6845	0.105	907369	keystroke_s	s	n/a
453.9545	0.0905	907909	keystroke_t	t	n/a
454.195	0.105	908390	keystroke_a	a	n/a
454.3445	0.09	908689	keystroke_t	t	n/a
454.4355	0.239	908871	keystroke_i	i	n/a
454.4945	0.15	908989	keystroke_o	o	n/a
454.6595	0.15	909319	keystroke_Key.space	Key.space	n/a
454.8395	0.165	909679	keystroke_h	h	n/a
455.1995	0.045	910399	keystroke_Key.backspace	Key.backspace	n/a
455.3345	0.06	910669	keystroke_Key.backspace	Key.backspace	n/a
455.7395	0.105	911479	keystroke_n	n	n/a
455.9645	0.1505	911929	keystroke_Key.space	Key.space	n/a
456.1	0.135	912200	keystroke_h	h	n/a
456.22	0.225	912440	keystroke_o	o	n/a
456.355	0.105	912710	keystroke_n	n	n/a
456.52	0.1205	913040	keystroke_e	e	n/a
456.6255	0.18	913251	keystroke_y	y	n/a
456.7155	0.15	913431	keystroke_Key.space	Key.space	n/a
456.9855	0.09	913971	keystroke_p	p	n/a
457.0905	0.105	914181	keystroke_e	e	n/a
457.4955	0.105	914991	keystroke_n	n	n/a
457.6755	0.15	915351	keystroke_d	d	n/a
457.7805	0.1795	915561	keystroke_a	a	n/a
458.02	0.1205	916040	keystroke_n	n	n/a
458.1855	0.105	916371	keystroke_t	t	n/a
458.3805	0.12	916761	keystroke_Key.space	Key.space	n/a
458.7105	0.165	917421	keystroke_r	r	n/a
458.8005	0.135	917601	keystroke_e	e	n/a
459.0105	0.12	918021	keystroke_p	p	n/a
459.1455	0.1345	918291	keystroke_r	r	n/a
459.2205	0.1195	918441	keystroke_e	e	n/a
459.46	0.105	918920	keystroke_s	s	n/a
459.685	0.075	919370	keystroke_e	e	n/a
459.865	0.12	919730	keystroke_n	n	n/a
460.015	0.09	920030	keystroke_t	t	n/a
460.165	0.12	920330	keystroke_a	a	n/a
460.7505	0.09	921501	keystroke_t	t	n/a
460.9755	0.105	921951	keystroke_i	i	n/a
461.1105	0.165	922221	keystroke_v	v	n/a
461.2305	0.21	922461	keystroke_e	e	n/a
461.3355	0.165	922671	keystroke_s	s	n/a
461.5905	0.12	923181	keystroke_Key.enter	Key.enter	n/a
461.7205	7.956	923441	prompt	n/a	drag signup licenses apparently\n
462.445	0.075	924890	keystroke_d	d	n/a
462.64	0.075	925280	keystroke_r	r	n/a
462.73	0.15	925460	keystroke_a	a	n/a
463.165	0.09	926330	keystroke_g	g	n/a
463.465	0.135	926930	keystroke_Key.space	Key.space	n/a
463.615	0.105	927230	keystroke_s	s	n/a
463.72	0.12	927440	keystroke_i	i	n/a
463.9	0.09	927800	keystroke_g	g	n/a
464.0495	0.105	928099	keystroke_n	n	n/a
464.3795	0.256	928759	keystroke_u	u	n/a
464.5145	0.196	929029	keystroke_p	p	n/a
464.6365	0.163	929273	keystroke_Key.space	Key.space	n/a
464.9205	0.15	929841	keystroke_l	l	n/a
465.0855	0.119	930171	keystroke_i	i	n/a
465.2505	0.18	930501	keystroke_c	c	n/a
465.4145	0.12	930829	keystroke_e	e	n/a
465.9545	0.09	931909	keystroke_n	n	n/a
466.105	0.1345	932210	keystroke_s	s	n/a
466.225	0.18	932450	keystroke_e	e	n/a
466.36	0.12	932720	keystroke_s	s	n/a
466.525	0.12	933050	keystroke_Key.space	Key.space	n/a
466.7805	0.06	933561	keystroke_p	p	n/a
467.1405	0.06	934281	keystroke_a	a	n/a
467.3045	0.06	934609	keystroke_Key.backspace	Key.backspace	n/a
467.4845	0.06	934969	keystroke_Key.backspace	Key.backspace	n/a
467.6805	0.09	935361	keystroke_a	a	n/a
467.8445	0.045	935689	keystroke_p	p	n/a
467.9795	0.0755	935959	keystroke_p	p	n/a
468.145	0.105	936290	keystroke_a	a	n/a
468.61	0.12	937220	keystroke_r	r	n/a
468.715	0.15	937430	keystroke_e	e	n/a
468.94	0.105	937880	keystroke_n	n	n/a
469.09	0.09	938180	keystroke_t	t	n/a
469.21	0.195	938420	keystroke_l	l	n/a
469.345	0.12	938690	keystroke_y	y	n/a
469.615	0.06	939230	keystroke_Key.enter	Key.enter	n/a
469.6805	5.666	939361	prompt	n/a	arrive elect exception christian\n
470.2445	0.09	940489	keystroke_a	a	n/a
470.4845	0.061	940969	keystroke_r	r	n/a
470.6195	0.075	941239	keystroke_r	r	n/a
470.7395	0.1205	941479	keystroke_i	i	n/a
470.875	0.135	941750	keystroke_v	v	n/a
470.965	0.12	941930	keystroke_e	e	n/a
471.07	0.135	942140	keystroke_Key.space	Key.space	n/a
471.265	0.105	942530	keystroke_e	e	n/a
471.445	0.1045	942890	keystroke_l	l	n/a
471.52	0.1195	943040	keystroke_e	e	n/a
471.73	0.1045	943460	keystroke_c	c	n/a
471.9705	0.075	943941	keystroke_t	t	n/a
472.0755	0.12	944151	keystroke_Key.space	Key.space	n/a
472.1805	0.09	944361	keystroke_e	e	n/a
472.4055	0.105	944811	keystroke_x	x	n/a
472.7205	0.12	945441	keystroke_c	c	n/a
472.9005	0.1045	945801	keystroke_e	e	n/a
473.05	0.12	946100	keystroke_p	p	n/a
473.215	0.0755	946430	keystroke_t	t	n/a
473.3205	0.3	946641	keystroke_i	i	n/a
473.3955	0.195	946791	keystroke_o	o	n/a
473.4855	0.195	946971	keystroke_n	n	n/a
473.6055	0.165	947211	keystroke_Key.space	Key.space	n/a
473.8305	0.1195	947661	keystroke_c	c	n/a
473.98	0.1355	947960	keystroke_h	h	n/a
474.1005	0.105	948201	keystroke_r	r	n/a
474.2505	0.105	948501	keystroke_i	i	n/a
474.3705	0.12	948741	keystroke_s	s	n/a
474.6105	0.09	949221	keystroke_t	t	n/a
474.7455	0.12	949491	keystroke_i	i	n/a
474.8505	0.09	949701	keystroke_a	a	n/a
474.9855	0.12	949971	keystroke_n	n	n/a
475.2555	0.09	950511	keystroke_Key.enter	Key.enter	n/a
475.349	5.4575	950698	prompt	n/a	rapids islands reprints arch\n
476.02	0.12	952040	keystroke_r	r	n/a
476.215	0.105	952430	keystroke_a	a	n/a
476.41	0.225	952820	keystroke_p	p	n/a
476.5	0.18	953000	keystroke_i	i	n/a
476.65	0.135	953300	keystroke_d	d	n/a
476.725	0.135	953450	keystroke_s	s	n/a
476.83	0.1945	953660	keystroke_Key.space	Key.space	n/a
476.98	0.135	953960	keystroke_i	i	n/a
477.1005	0.0895	954201	keystroke_s	s	n/a
477.22	0.1055	954440	keystroke_l	l	n/a
477.3105	0.12	954621	keystroke_a	a	n/a
477.4605	0.105	954921	keystroke_n	n	n/a
477.8355	0.105	955671	keystroke_d	d	n/a
477.9555	0.1495	955911	keystroke_s	s	n/a
478.12	0.135	956240	keystroke_Key.space	Key.space	n/a
478.345	0.135	956690	keystroke_r	r	n/a
478.42	0.135	956840	keystroke_e	e	n/a
478.69	0.09	957380	keystroke_p	p	n/a
479.065	0.06	958130	keystroke_r	r	n/a
479.26	0.21	958520	keystroke_i	i	n/a
479.38	0.15	958760	keystroke_n	n	n/a
479.545	0.135	959090	keystroke_t	t	n/a
479.6355	0.119	959271	keystroke_s	s	n/a
479.7995	0.1505	959599	keystroke_Key.space	Key.space	n/a
479.92	0.165	959840	keystroke_a	a	n/a
480.085	0.105	960170	keystroke_r	r	n/a
480.355	0.09	960710	keystroke_c	c	n/a
480.475	0.105	960950	keystroke_h	h	n/a
480.715	0.09	961430	keystroke_Key.enter	Key.enter	n/a
480.8095	8.652	961619	prompt	n/a	sculpture jacob neighborhood cologne\n
481.9295	0.1655	963859	keystroke_s	s	n/a
482.05	0.135	964100	keystroke_c	c	n/a
482.2	0.195	964400	keystroke_u	u	n/a
482.305	0.18	964610	keystroke_l	l	n/a
482.875	0.0905	965750	keystroke_p	p	n/a
483.1455	0.075	966291	keystroke_t	t	n/a
483.3705	0.105	966741	keystroke_u	u	n/a
483.4905	0.165	966981	keystroke_r	r	n/a
483.5805	0.15	967161	keystroke_e	e	n/a
483.7455	0.12	967491	keystroke_Key.space	Key.space	n/a
484.135	0.105	968270	keystroke_j	j	n/a
484.255	0.105	968510	keystroke_a	a	n/a
484.555	0.09	969110	keystroke_c	c	n/a
484.69	0.225	969380	keystroke_o	o	n/a
484.81	0.15	969620	keystroke_b	b	n/a
485.11	0.1195	970220	keystroke_Key.space	Key.space	n/a
485.3645	0.12	970729	keystroke_n	n	n/a
485.6505	0.105	971301	keystroke_e	e	n/a
485.8755	0.105	971751	keystroke_i	i	n/a
486.0705	0.06	972141	keystroke_g	g	n/a
486.1455	0.105	972291	keystroke_h	h	n/a
486.3855	0.06	972771	keystroke_b	b	n/a
486.58	0.09	973160	keystroke_o	o	n/a
486.7	0.06	973400	keystroke_r	r	n/a
486.865	0.09	973730	keystroke_h	h	n/a
487.195	0.09	974390	keystroke_o	o	n/a
487.375	0.09	974750	keystroke_o	o	n/a
487.48	0.09	974960	keystroke_d	d	n/a
487.585	0.135	975170	keystroke_Key.space	Key.space	n/a
487.78	0.09	975560	keystroke_c	c	n/a
487.8995	0.09	975799	keystroke_o	o	n/a
488.1545	0.105	976309	keystroke_l	l	n/a
488.3795	0.09	976759	keystroke_o	o	n/a
488.5295	0.09	977059	keystroke_g	g	n/a
488.7395	0.09	977479	keystroke_n	n	n/a
488.9045	0.075	977809	keystroke_e	e	n/a
489.3695	0.09	978739	keystroke_Key.enter	Key.enter	n/a
489.4655	6.326	978931	prompt	n/a	room naples economy cayman\n
490.3005	0.09	980601	keystroke_r	r	n/a
490.4655	0.06	980931	keystroke_o	o	n/a
490.6155	0.255	981231	keystroke_o	o	n/a
490.7655	0.165	981531	keystroke_m	m	n/a
490.8555	0.18	981711	keystroke_Key.space	Key.space	n/a
491.1105	0.06	982221	keystroke_n	n	n/a
491.2305	0.105	982461	keystroke_a	a	n/a
491.4545	0.106	982909	keystroke_p	p	n/a
491.6955	0.12	983391	keystroke_l	l	n/a
491.8605	0.21	983721	keystroke_e	e	n/a
491.9805	0.135	983961	keystroke_s	s	n/a
492.0995	0.1205	984199	keystroke_Key.space	Key.space	n/a
492.235	0.12	984470	keystroke_e	e	n/a
492.58	0.105	985160	keystroke_c	c	n/a
492.8655	0.12	985731	keystroke_o	o	n/a
493.435	0.105	986870	keystroke_n	n	n/a
493.63	0.18	987260	keystroke_o	o	n/a
493.765	0.105	987530	keystroke_m	m	n/a
494.02	0.195	988040	keystroke_y	y	n/a
494.125	0.18	988250	keystroke_Key.space	Key.space	n/a
494.35	0.135	988700	keystroke_c	c	n/a
494.65	0.09	989300	keystroke_a	a	n/a
494.905	0.015	989810	keystroke_y	y	n/a
495.13	0.12	990260	keystroke_m	m	n/a
495.295	0.09	990590	keystroke_a	a	n/a
495.415	0.09	990830	keystroke_n	n	n/a
495.685	0.105	991370	keystroke_Key.enter	Key.enter	n/a
495.796	7.0605	991592	prompt	n/a	incoming diagnosis root stamp\n
496.3745	0.27	992749	keystroke_i	i	n/a
496.525	0.165	993050	keystroke_n	n	n/a
496.7345	0.1055	993469	keystroke_c	c	n/a
496.841	0.1795	993682	keystroke_o	o	n/a
496.9605	0.18	993921	keystroke_m	m	n/a
497.1255	0.24	994251	keystroke_i	i	n/a
497.2605	0.135	994521	keystroke_n	n	n/a
497.4255	0.09	994851	keystroke_g	g	n/a
497.5605	0.12	995121	keystroke_Key.space	Key.space	n/a
497.8755	0.105	995751	keystroke_d	d	n/a
498.0405	0.12	996081	keystroke_i	i	n/a
498.1755	0.135	996351	keystroke_a	a	n/a
498.91	0.105	997820	keystroke_g	g	n/a
499.1805	0.194	998361	keystroke_n	n	n/a
499.27	0.1645	998540	keystroke_o	o	n/a
499.4645	0.09	998929	keystroke_s	s	n/a
499.5695	0.105	999139	keystroke_i	i	n/a
499.6595	0.06	999319	keystroke_s	s	n/a
499.7945	0.12	999589	keystroke_Key.space	Key.space	n/a
499.9595	0.09	999919	keystroke_r	r	n/a
500.1545	0.06	1000309	keystroke_o	o	n/a
500.29	0.105	1000580	keystroke_o	o	n/a
500.41	0.075	1000820	keystroke_t	t	n/a
500.515	0.12	1001030	keystroke_Key.space	Key.space	n/a
500.71	0.105	1001420	keystroke_s	s	n/a
501.01	0.06	1002020	keystroke_t	t	n/a
501.37	0.09	1002740	keystroke_m	m	n/a
501.685	0.06	1003370	keystroke_Key.backspace	Key.backspace	n/a
501.79	0.105	1003580	keystroke_a	a	n/a
501.97	0.195	1003940	keystroke_m	m	n/a
502.105	0.075	1004210	keystroke_p	p	n/a
502.765	0.09	1005530	keystroke_Key.enter	Key.enter	n/a
502.8605	5.861	1005721	prompt	n/a	genres comm estimates paid\n
503.98	0.09	1007960	keystroke_g	g	n/a
504.175	0.09	1008350	keystroke_e	e	n/a
504.445	0.135	1008890	keystroke_n	n	n/a
504.64	0.21	1009280	keystroke_r	r	n/a
504.73	0.195	1009460	keystroke_e	e	n/a
504.835	0.135	1009670	keystroke_s	s	n/a
505	0.135	1010000	keystroke_Key.space	Key.space	n/a
505.165	0.105	1010330	keystroke_c	c	n/a
505.315	0.1955	1010630	keystroke_o	o	n/a
505.42	0.1205	1010840	keystroke_m	m	n/a
505.675	0.135	1011350	keystroke_m	m	n/a
505.765	0.165	1011530	keystroke_Key.space	Key.space	n/a
505.975	0.075	1011950	keystroke_e	e	n/a
506.17	0.12	1012340	keystroke_s	s	n/a
506.455	0.075	1012910	keystroke_t	t	n/a
506.56	0.09	1013120	keystroke_i	i	n/a
506.77	0.12	1013540	keystroke_m	m	n/a
506.875	0.15	1013750	keystroke_a	a	n/a
507.04	0.24	1014080	keystroke_t	t	n/a
507.16	0.21	1014320	keystroke_e	e	n/a
507.265	0.12	1014530	keystroke_s	s	n/a
507.415	0.195	1014830	keystroke_Key.space	Key.space	n/a
507.58	0.135	1015160	keystroke_p	p	n/a
507.73	0.105	1015460	keystroke_a	a	n/a
507.88	0.12	1015760	keystroke_i	i	n/a
508.03	0.105	1016060	keystroke_d	d	n/a
508.615	0.1055	1017230	keystroke_Key.enter	Key.enter	n/a
508.7245	5.967	1017449	prompt	n/a	subaru adopted rehab proposed\n
509.5005	0.12	1019001	keystroke_s	s	n/a
509.6955	0.1195	1019391	keystroke_u	u	n/a
509.98	0.12	1019960	keystroke_b	b	n/a
510.115	0.165	1020230	keystroke_a	a	n/a
510.25	0.12	1020500	keystroke_r	r	n/a
510.4	0.165	1020800	keystroke_u	u	n/a
