onset	duration	sample	value	key	prompt_text
9.0425	0.013	18085	keystroke_Key.enter	Key.enter	n/a
9.08	8.168	18160	prompt	n/a	the quick brown fox jumps over a lazy dog\n
10.0295	0.105	20059	keystroke_t	t	n/a
10.1055	0.119	20211	keystroke_h	h	n/a
10.1955	0.1495	20391	keystroke_e	e	n/a
10.27	0.165	20540	keystroke_Key.space	Key.space	n/a
10.451	0.149	20902	keystroke_q	q	n/a
10.585	0.0895	21170	keystroke_u	u	n/a
10.7645	0.075	21529	keystroke_i	i	n/a
10.8545	0.106	21709	keystroke_c	c	n/a
10.9455	0.104	21891	keystroke_k	k	n/a
11.0795	0.121	22159	keystroke_Key.space	Key.space	n/a
11.2905	0.075	22581	keystroke_b	b	n/a
11.3955	0.105	22791	keystroke_r	r	n/a
11.5005	0.06	23001	keystroke_o	o	n/a
11.5905	0.09	23181	keystroke_w	w	n/a
11.6655	0.09	23331	keystroke_n	n	n/a
11.7705	0.105	23541	keystroke_Key.space	Key.space	n/a
11.9355	0.135	23871	keystroke_f	f	n/a
12.0855	0.105	24171	keystroke_o	o	n/a
12.2355	0.135	24471	keystroke_x	x	n/a
12.3705	0.075	24741	keystroke_Key.space	Key.space	n/a
12.4755	0.075	24951	keystroke_j	j	n/a
12.6405	0.06	25281	keystroke_u	u	n/a
12.8355	0.06	25671	keystroke_m	m	n/a
13.0305	0.015	26061	keystroke_p	p	n/a
13.33	0.135	26660	keystroke_s	s	n/a
13.435	0.1505	26870	keystroke_Key.space	Key.space	n/a
13.6155	0.12	27231	keystroke_o	o	n/a
13.7505	0.075	27501	keystroke_v	v	n/a
13.9005	0.12	27801	keystroke_e	e	n/a
13.9605	0.105	27921	keystroke_r	r	n/a
13.9905	0.135	27981	keystroke_Key.space	Key.space	n/a
14.1405	0.1345	28281	keystroke_a	a	n/a
14.23	0.12	28460	keystroke_Key.space	Key.space	n/a
14.3355	0.1195	28671	keystroke_l	l	n/a
14.41	0.075	28820	keystroke_a	a	n/a
14.605	0.06	29210	keystroke_z	z	n/a
14.89	0.12	29780	keystroke_y	y	n/a
15.1	0.09	30200	keystroke_Key.space	Key.space	n/a
15.34	0.1055	30680	keystroke_d	d	n/a
15.5955	0.075	31191	keystroke_i	i	n/a
16.3	0.09	32600	keystroke_Key.backspace	Key.backspace	n/a
16.75	0.1055	33500	keystroke_o	o	n/a
16.8705	0.075	33741	keystroke_g	g	n/a
17.1255	0.12	34251	keystroke_Key.enter	Key.enter	n/a
17.252	6.25	34504	prompt	n/a	examine pipeline colleagues science\n
17.9805	0.0745	35961	keystroke_e	e	n/a
18.2805	0.0895	36561	keystroke_x	x	n/a
18.445	0.135	36890	keystroke_a	a	n/a
18.565	0.0755	37130	keystroke_m	m	n/a
18.745	0.105	37490	keystroke_i	i	n/a
18.79	0.135	37580	keystroke_n	n	n/a
18.865	0.15	37730	keystroke_e	e	n/a
18.97	0.135	37940	keystroke_Key.space	Key.space	n/a
19.21	0.12	38420	keystroke_p	p	n/a
19.45	0.105	38900	keystroke_i	i	n/a
19.675	0.09	39350	keystroke_p	p	n/a
20.1855	0.1045	40371	keystroke_e	e	n/a
20.3955	0.06	40791	keystroke_l	l	n/a
20.5605	0.09	41121	keystroke_i	i	n/a
20.6355	0.12	41271	keystroke_n	n	n/a
20.7105	0.15	41421	keystroke_e	e	n/a
20.8005	0.135	41601	keystroke_Key.space	Key.space	n/a
21.31	0.12	42620	keystroke_c	c	n/a
21.385	0.075	42770	keystroke_o	o	n/a
21.55	0.06	43100	keystroke_l	l	n/a
21.67	0.0905	43340	keystroke_l	l	n/a
21.7905	0.225	43581	keystroke_e	e	n/a
21.9255	0.15	43851	keystroke_a	a	n/a
22.1805	0.0745	44361	keystroke_g	g	n/a
22.27	0.105	44540	keystroke_u	u	n/a
22.36	0.18	44720	keystroke_e	e	n/a
22.45	0.12	44900	keystroke_s	s	n/a
22.48	0.18	44960	keystroke_Key.space	Key.space	n/a
22.69	0.1505	45380	keystroke_s	s	n/a
22.795	0.135	45590	keystroke_c	c	n/a
22.945	0.075	45890	keystroke_i	i	n/a
23.035	0.09	46070	keystroke_e	e	n/a
23.11	0.12	46220	keystroke_n	n	n/a
23.2	0.135	46400	keystroke_c	c	n/a
23.26	0.12	46520	keystroke_e	e	n/a
23.4245	0.075	46849	keystroke_Key.enter	Key.enter	n/a
23.5055	4.7365	47011	prompt	n/a	plenty buried writer page\n
24.1755	0.12	48351	keystroke_p	p	n/a
24.2505	0.09	48501	keystroke_l	l	n/a
24.3555	0.105	48711	keystroke_e	e	n/a
24.4605	0.12	48921	keystroke_n	n	n/a
24.5505	0.09	49101	keystroke_t	t	n/a
24.8055	0.09	49611	keystroke_y	y	n/a
24.9255	0.105	49851	keystroke_Key.space	Key.space	n/a
25.0755	0.09	50151	keystroke_b	b	n/a
25.2105	0.09	50421	keystroke_u	u	n/a
25.285	0.0755	50570	keystroke_r	r	n/a
25.63	0.09	51260	keystroke_i	i	n/a
25.735	0.075	51470	keystroke_e	e	n/a
25.915	0.12	51830	keystroke_d	d	n/a
26.005	0.15	52010	keystroke_Key.space	Key.space	n/a
26.14	0.09	52280	keystroke_w	w	n/a
26.32	0.075	52640	keystroke_r	r	n/a
26.425	0.0895	52850	keystroke_i	i	n/a
26.4995	0.09	52999	keystroke_t	t	n/a
27.0555	0.135	54111	keystroke_e	e	n/a
27.1155	0.135	54231	keystroke_r	r	n/a
27.2655	0.1045	54531	keystroke_Key.space	Key.space	n/a
27.52	0.12	55040	keystroke_p	p	n/a
27.685	0.075	55370	keystroke_a	a	n/a
27.865	0.075	55730	keystroke_g	g	n/a
27.97	0.105	55940	keystroke_e	e	n/a
28.1795	0.06	56359	keystroke_Key.enter	Key.enter	n/a
28.245	6.0865	56490	prompt	n/a	prophet hottest loops aids\n
28.8695	0.0605	57739	keystroke_p	p	n/a
29.1095	0.0905	58219	keystroke_r	r	n/a
29.2295	0.105	58459	keystroke_o	o	n/a
29.4695	0.09	58939	keystroke_p	p	n/a
29.7105	0.089	59421	keystroke_h	h	n/a
29.8145	0.0905	59629	keystroke_e	e	n/a
29.965	0.105	59930	keystroke_t	t	n/a
30.025	0.12	60050	keystroke_Key.space	Key.space	n/a
30.205	0.075	60410	keystroke_h	h	n/a
30.4	0.06	60800	keystroke_o	o	n/a
30.505	0.06	61010	keystroke_t	t	n/a
30.64	0.09	61280	keystroke_t	t	n/a
30.79	0.24	61580	keystroke_e	e	n/a
30.895	0.15	61790	keystroke_s	s	n/a
30.985	0.15	61970	keystroke_t	t	n/a
31.06	0.135	62120	keystroke_Key.space	Key.space	n/a
31.345	0.1195	62690	keystroke_l	l	n/a
31.5855	0.06	63171	keystroke_o	o	n/a
31.7045	0.166	63409	keystroke_o	o	n/a
31.8105	0.105	63621	keystroke_p	p	n/a
31.9005	0.119	63801	keystroke_s	s	n/a
32.0045	0.121	64009	keystroke_Key.space	Key.space	n/a
32.1095	0.166	64219	keystroke_a	a	n/a
32.2145	0.135	64429	keystroke_s	s	n/a
32.3355	0.09	64671	keystroke_i	i	n/a
32.7245	0.045	65449	keystroke_Key.backspace	Key.backspace	n/a
32.8595	0.06	65719	keystroke_Key.backspace	Key.backspace	n/a
33.2055	0.1345	66411	keystroke_i	i	n/a
33.355	0.09	66710	keystroke_d	d	n/a
33.685	0.12	67370	keystroke_s	s	n/a
34.24	0.09	68480	keystroke_Key.enter	Key.enter	n/a
34.3355	10.091	68671	prompt	n/a	weekly bufing oliver swaziland\n
34.99	0.105	69980	keystroke_w	w	n/a
35.23	0.075	70460	keystroke_e	e	n/a
35.365	0.105	70730	keystroke_e	e	n/a
35.44	0.075	70880	keystroke_k	k	n/a
35.62	0.06	71240	keystroke_l	l	n/a
35.74	0.105	71480	keystroke_y	y	n/a
36.235	0.105	72470	keystroke_Key.space	Key.space	n/a
36.61	0.075	73220	keystroke_b	b	n/a
36.73	0.12	73460	keystroke_u	u	n/a
36.865	0.12	73730	keystroke_f	f	n/a
37	0.105	74000	keystroke_i	i	n/a
37.06	0.135	74120	keystroke_n	n	n/a
37.165	0.09	74330	keystroke_g	g	n/a
37.24	0.105	74480	keystroke_Key.space	Key.space	n/a
37.51	0.105	75020	keystroke_o	o	n/a
37.69	0.09	75380	keystroke_l	l	n/a
39.175	0.12	78350	keystroke_v	v	n/a
39.8645	0.105	79729	keystroke_Key.backspace	Key.backspace	n/a
40.2405	0.1195	80481	keystroke_i	i	n/a
40.465	0.075	80930	keystroke_v	v	n/a
40.705	0.15	81410	keystroke_e	e	n/a
40.765	0.135	81530	keystroke_r	r	n/a
40.87	0.105	81740	keystroke_Key.space	Key.space	n/a
41.1395	0.09	82279	keystroke_s	s	n/a
41.3195	0.1205	82639	keystroke_w	w	n/a
41.425	0.12	82850	keystroke_a	a	n/a
42.055	0.105	84110	keystroke_z	z	n/a
42.685	0.12	85370	keystroke_i	i	n/a
43.33	0.09	86660	keystroke_l	l	n/a
43.39	0.12	86780	keystroke_a	a	n/a
43.525	0.12	87050	keystroke_n	n	n/a
43.6	0.12	87200	keystroke_d	d	n/a
44.335	0.09	88670	keystroke_Key.enter	Key.enter	n/a
44.43	9.7765	88860	prompt	n/a	individually exploration majority cubic\n
47.022	0.001	94044	keystroke_i	i	n/a
47.08	0.15	94160	keystroke_n	n	n/a
47.5	0.105	95000	keystroke_d	d	n/a
47.635	0.12	95270	keystroke_i	i	n/a
47.785	0.09	95570	keystroke_v	v	n/a
47.965	0.12	95930	keystroke_i	i	n/a
48.115	0.12	96230	keystroke_d	d	n/a
48.28	0.0895	96560	keystroke_u	u	n/a
48.3845	0.0905	96769	keystroke_a	a	n/a
48.55	0.015	97100	keystroke_l	l	n/a
48.64	0.105	97280	keystroke_l	l	n/a
48.865	0.03	97730	keystroke_y	y	n/a
48.925	0.12	97850	keystroke_Key.space	Key.space	n/a
49.33	0.075	98660	keystroke_e	e	n/a
49.5545	0.12	99109	keystroke_x	x	n/a
49.6895	0.15	99379	keystroke_p	p	n/a
49.7645	0.105	99529	keystroke_l	l	n/a
49.9745	0.075	99949	keystroke_o	o	n/a
50.0505	0.149	100101	keystroke_r	r	n/a
50.2305	0.059	100461	keystroke_a	a	n/a
50.3645	0.09	100729	keystroke_t	t	n/a
50.4395	0.195	100879	keystroke_i	i	n/a
50.5145	0.09	101029	keystroke_o	o	n/a
50.5745	0.15	101149	keystroke_n	n	n/a
50.6795	0.12	101359	keystroke_Key.space	Key.space	n/a
50.8445	0.12	101689	keystroke_m	m	n/a
50.9795	0.165	101959	keystroke_a	a	n/a
51.0845	0.105	102169	keystroke_j	j	n/a
51.2945	0.12	102589	keystroke_o	o	n/a
51.43	0.105	102860	keystroke_r	r	n/a
51.61	0.15	103220	keystroke_i	i	n/a
51.745	0.12	103490	keystroke_t	t	n/a
52	0.045	104000	keystroke_y	y	n/a
52.06	0.12	104120	keystroke_Key.space	Key.space	n/a
52.69	0.12	105380	keystroke_c	c	n/a
53.38	0.1345	106760	keystroke_u	u	n/a
53.4545	0.105	106909	keystroke_b	b	n/a
53.6795	0.12	107359	keystroke_i	i	n/a
53.8145	0.1055	107629	keystroke_c	c	n/a
54.0545	0.15	108109	keystroke_Key.enter	Key.enter	n/a
54.2115	4.2555	108423	prompt	n/a	performer basket lens citation\n
54.8645	0.12	109729	keystroke_p	p	n/a
54.9395	0.12	109879	keystroke_e	e	n/a
54.9995	0.075	109999	keystroke_r	r	n/a
55.1795	0.0755	110359	keystroke_f	f	n/a
55.24	0.075	110480	keystroke_o	o	n/a
55.33	0.09	110660	keystroke_r	r	n/a
55.405	0.105	110810	keystroke_m	m	n/a
55.48	0.135	110960	keystroke_e	e	n/a
55.54	0.12	111080	keystroke_r	r	n/a
55.6	0.12	111200	keystroke_Key.space	Key.space	n/a
55.78	0.12	111560	keystroke_b	b	n/a
55.855	0.1495	111710	keystroke_a	a	n/a
55.93	0.1045	111860	keystroke_s	s	n/a
56.0195	0.105	112039	keystroke_k	k	n/a
56.1255	0.119	112251	keystroke_e	e	n/a
56.3195	0.09	112639	keystroke_t	t	n/a
56.3795	0.12	112759	keystroke_Key.space	Key.space	n/a
56.605	0.105	113210	keystroke_l	l	n/a
56.785	0.1345	113570	keystroke_e	e	n/a
56.9495	0.12	113899	keystroke_n	n	n/a
57.0245	0.15	114049	keystroke_s	s	n/a
57.1595	0.075	114319	keystroke_Key.space	Key.space	n/a
57.2945	0.105	114589	keystroke_c	c	n/a
57.3695	0.135	114739	keystroke_i	i	n/a
57.5195	0.105	115039	keystroke_t	t	n/a
57.6695	0.15	115339	keystroke_a	a	n/a
57.7745	0.12	115549	keystroke_t	t	n/a
57.97	0.21	115940	keystroke_i	i	n/a
58.015	0.135	116030	keystroke_o	o	n/a
58.105	0.12	116210	keystroke_n	n	n/a
58.3895	0.075	116779	keystroke_Key.enter	Key.enter	n/a
58.4705	5.906	116941	prompt	n/a	anger weight performance characterization\n
59.0495	0.12	118099	keystroke_a	a	n/a
59.1545	0.12	118309	keystroke_n	n	n/a
59.2595	0.075	118519	keystroke_g	g	n/a
59.3945	0.12	118789	keystroke_e	e	n/a
59.4545	0.12	118909	keystroke_r	r	n/a
59.4845	0.135	118969	keystroke_Key.space	Key.space	n/a
59.6495	0.15	119299	keystroke_w	w	n/a
59.7245	0.12	119449	keystroke_e	e	n/a
59.9045	0.09	119809	keystroke_i	i	n/a
59.9795	0.12	119959	keystroke_g	g	n/a
60.1145	0.12	120229	keystroke_h	h	n/a
60.2045	0.105	120409	keystroke_t	t	n/a
60.2645	0.105	120529	keystroke_Key.space	Key.space	n/a
60.5045	0.105	121009	keystroke_p	p	n/a
60.5645	0.135	121129	keystroke_e	e	n/a
60.6245	0.09	121249	keystroke_r	r	n/a
60.8045	0.075	121609	keystroke_f	f	n/a
60.8945	0.075	121789	keystroke_o	o	n/a
60.9545	0.09	121909	keystroke_r	r	n/a
61.0595	0.09	122119	keystroke_m	m	n/a
61.1505	0.104	122301	keystroke_a	a	n/a
61.2695	0.105	122539	keystroke_n	n	n/a
61.3895	0.1355	122779	keystroke_c	c	n/a
61.51	0.1195	123020	keystroke_e	e	n/a
61.705	0.0895	123410	keystroke_Key.space	Key.space	n/a
61.8545	0.12	123709	keystroke_c	c	n/a
61.9295	0.135	123859	keystroke_h	h	n/a
62.005	0.1345	124010	keystroke_a	a	n/a
62.1095	0.105	124219	keystroke_r	r	n/a
62.2445	0.15	124489	keystroke_a	a	n/a
62.3495	0.105	124699	keystroke_c	c	n/a
62.5595	0.06	125119	keystroke_t	t	n/a
62.68	0.105	125360	keystroke_e	e	n/a
62.725	0.12	125450	keystroke_r	r	n/a
62.86	0.105	125720	keystroke_i	i	n/a
62.98	0.12	125960	keystroke_z	z	n/a
63.265	0.0745	126530	keystroke_a	a	n/a
63.43	0.09	126860	keystroke_t	t	n/a
63.49	0.21	126980	keystroke_i	i	n/a
63.565	0.12	127130	keystroke_o	o	n/a
63.625	0.135	127250	keystroke_n	n	n/a
64.24	0.135	128480	keystroke_Key.enter	Key.enter	n/a
64.38	8.3665	128760	prompt	n/a	dock undefined indexes namely\n
65.0045	0.09	130009	keystroke_d	d	n/a
65.0795	0.075	130159	keystroke_o	o	n/a
65.1695	0.105	130339	keystroke_c	c	n/a
65.2895	0.09	130579	keystroke_k	k	n/a
65.4095	0.1205	130819	keystroke_Key.space	Key.space	n/a
65.56	0.06	131120	keystroke_d	d	n/a
65.875	0.075	131750	keystroke_Key.backspace	Key.backspace	n/a
66.4	0.0895	132800	keystroke_u	u	n/a
66.4595	0.15	132919	keystroke_n	n	n/a
66.6245	0.09	133249	keystroke_d	d	n/a
66.7745	0.12	133549	keystroke_e	e	n/a
66.8795	0.12	133759	keystroke_f	f	n/a
67.0145	0.135	134029	keystroke_i	i	n/a
67.0745	0.195	134149	keystroke_n	n	n/a
67.1505	0.134	134301	keystroke_e	e	n/a
67.4495	0.135	134899	keystroke_d	d	n/a
67.7945	0.09	135589	keystroke_i	i	n/a
67.8245	0.225	135649	keystroke_n	n	n/a
67.9895	0.105	135979	keystroke_d	d	n/a
68.1545	0.09	136309	keystroke_e	e	n/a
68.3955	0.0895	136791	keystroke_x	x	n/a
68.71	0.075	137420	keystroke_Key.backspace	Key.backspace	n/a
68.8755	0.075	137751	keystroke_Key.backspace	Key.backspace	n/a
69.0405	0.075	138081	keystroke_Key.backspace	Key.backspace	n/a
69.1905	0.12	138381	keystroke_Key.backspace	Key.backspace	n/a
69.6405	0.06	139281	keystroke_Key.backspace	Key.backspace	n/a
69.9255	0.1195	139851	keystroke_Key.space	Key.space	n/a
70.3005	0.104	140601	keystroke_i	i	n/a
70.3595	0.151	140719	keystroke_n	n	n/a
70.5405	0.09	141081	keystroke_d	d	n/a
70.7055	0.074	141411	keystroke_e	e	n/a
70.9145	0.106	141829	keystroke_x	x	n/a
71.1555	0.209	142311	keystroke_e	e	n/a
71.2905	0.15	142581	keystroke_s	s	n/a
71.3795	0.15	142759	keystroke_Key.space	Key.space	n/a
71.6955	0.1045	143391	keystroke_n	n	n/a
71.77	0.075	143540	keystroke_a	a	n/a
71.95	0.15	143900	keystroke_m	m	n/a
72.115	0.0905	144230	keystroke_e	e	n/a
72.2505	0.15	144501	keystroke_l	l	n/a
72.4605	0.105	144921	keystroke_y	y	n/a
72.6855	0.06	145371	keystroke_Key.enter	Key.enter	n/a
72.7495	5.0075	145499	prompt	n/a	dump mental book permission\n
73.39	0.12	146780	keystroke_d	d	n/a
73.51	0.09	147020	keystroke_u	u	n/a
73.705	0.075	147410	keystroke_m	m	n/a
73.915	0.045	147830	keystroke_p	p	n/a
74.065	0.12	148130	keystroke_Key.space	Key.space	n/a
74.2	0.09	148400	keystroke_m	m	n/a
74.3495	0.106	148699	keystroke_e	e	n/a
74.5305	0.179	149061	keystroke_n	n	n/a
74.7245	0.09	149449	keystroke_t	t	n/a
74.8905	0.075	149781	keystroke_a	a	n/a
74.9655	0.119	149931	keystroke_l	l	n/a
75.1005	0.089	150201	keystroke_Key.space	Key.space	n/a
75.2355	0.089	150471	keystroke_b	b	n/a
75.43	0.045	150860	keystroke_o	o	n/a
75.55	0.135	151100	keystroke_o	o	n/a
75.64	0.105	151280	keystroke_k	k	n/a
75.76	0.12	151520	keystroke_Key.space	Key.space	n/a
76.09	0.15	152180	keystroke_p	p	n/a
76.27	0.135	152540	keystroke_e	e	n/a
76.345	0.12	152690	keystroke_r	r	n/a
76.48	0.06	152960	keystroke_m	m	n/a
76.63	0.045	153260	keystroke_i	i	n/a
77.02	0.075	154040	keystroke_s	s	n/a
77.155	0.105	154310	keystroke_s	s	n/a
77.26	0.2095	154520	keystroke_i	i	n/a
77.32	0.1195	154640	keystroke_o	o	n/a
77.38	0.1645	154760	keystroke_n	n	n/a
77.6645	0.09	155329	keystroke_Key.enter	Key.enter	n/a
77.76	8.607	155520	prompt	n/a	informative edinburgh smoking drawn\n
78.34	0.09	156680	keystroke_i	i	n/a
78.4	0.12	156800	keystroke_n	n	n/a
78.625	0.105	157250	keystroke_f	f	n/a
78.715	0.105	157430	keystroke_o	o	n/a
79.09	0.105	158180	keystroke_r	r	n/a
79.315	0.1355	158630	keystroke_m	m	n/a
79.42	0.1805	158840	keystroke_a	a	n/a
79.5555	0.09	159111	keystroke_t	t	n/a
79.6605	0.12	159321	keystroke_i	i	n/a
79.7655	0.09	159531	keystroke_v	v	n/a
79.9005	0.135	159801	keystroke_e	e	n/a
80.0205	0.135	160041	keystroke_Key.space	Key.space	n/a
80.1255	0.09	160251	keystroke_e	e	n/a
80.29	0.09	160580	keystroke_d	d	n/a
80.395	0.09	160790	keystroke_i	i	n/a
81.055	0.1055	162110	keystroke_n	n	n/a
81.2955	0.09	162591	keystroke_b	b	n/a
81.4005	0.135	162801	keystroke_u	u	n/a
81.5655	0.09	163131	keystroke_r	r	n/a
81.8055	0.075	163611	keystroke_g	g	n/a
83.5155	0.15	167031	keystroke_h	h	n/a
83.8155	0.1195	167631	keystroke_Key.space	Key.space	n/a
84.04	0.12	168080	keystroke_s	s	n/a
84.131	0.1045	168262	keystroke_m	m	n/a
84.2505	0.12	168501	keystroke_o	o	n/a
84.3405	0.105	168681	keystroke_k	k	n/a
84.5655	0.09	169131	keystroke_i	i	n/a
84.6105	0.105	169221	keystroke_n	n	n/a
84.7005	0.105	169401	keystroke_g	g	n/a
84.7605	0.12	169521	keystroke_Key.space	Key.space	n/a
85.1055	0.12	170211	keystroke_d	d	n/a
85.2855	0.105	170571	keystroke_r	r	n/a
85.4055	0.18	170811	keystroke_a	a	n/a
85.5105	0.135	171021	keystroke_w	w	n/a
85.6305	0.12	171261	keystroke_n	n	n/a
86.305	0.06	172610	keystroke_Key.enter	Key.enter	n/a
86.37	4.962	172740	prompt	n/a	skills animal achieving condo\n
86.995	0.12	173990	keystroke_s	s	n/a
87.085	0.0905	174170	keystroke_k	k	n/a
87.2655	0.059	174531	keystroke_i	i	n/a
87.4305	0.044	174861	keystroke_l	l	n/a
87.5655	0.165	175131	keystroke_l	l	n/a
87.6105	0.135	175221	keystroke_s	s	n/a
87.6995	0.12	175399	keystroke_Key.space	Key.space	n/a
87.8355	0.1495	175671	keystroke_a	a	n/a
87.97	0.12	175940	keystroke_n	n	n/a
88.24	0.135	176480	keystroke_i	i	n/a
88.405	0.135	176810	keystroke_m	m	n/a
88.57	0.105	177140	keystroke_a	a	n/a
88.66	0.12	177320	keystroke_l	l	n/a
88.75	0.12	177500	keystroke_Key.space	Key.space	n/a
89.065	0.12	178130	keystroke_a	a	n/a
89.155	0.15	178310	keystroke_c	c	n/a
89.26	0.105	178520	keystroke_h	h	n/a
89.35	0.09	178700	keystroke_i	i	n/a
89.455	0.105	178910	keystroke_e	e	n/a
89.6505	0.105	179301	keystroke_v	v	n/a
89.8155	0.105	179631	keystroke_i	i	n/a
89.8605	0.135	179721	keystroke_n	n	n/a
89.9655	0.1195	179931	keystroke_g	g	n/a
90.055	0.1205	180110	keystroke_Key.space	Key.space	n/a
90.6105	0.135	181221	keystroke_c	c	n/a
90.7005	0.06	181401	keystroke_o	o	n/a
90.8355	0.075	181671	keystroke_n	n	n/a
90.9255	0.075	181851	keystroke_d	d	n/a
91.0155	0.09	182031	keystroke_o	o	n/a
91.2405	0.09	182481	keystroke_Key.enter	Key.enter	n/a
91.336	5.861	182672	prompt	n/a	kong accounts handled east\n
92.006	0.074	184012	keystroke_l	l	n/a
92.425	0.045	184850	keystroke_Key.backspace	Key.backspace	n/a
92.6805	0.075	185361	keystroke_k	k	n/a
93.0555	0.075	186111	keystroke_o	o	n/a
93.2505	0.135	186501	keystroke_n	n	n/a
93.4005	0.1055	186801	keystroke_g	g	n/a
93.49	0.12	186980	keystroke_Key.space	Key.space	n/a
94.015	0.135	188030	keystroke_a	a	n/a
94.121	0.074	188242	keystroke_c	c	n/a
94.2555	0.135	188511	keystroke_c	c	n/a
94.4205	0.15	188841	keystroke_o	o	n/a
94.5255	0.075	189051	keystroke_u	u	n/a
94.6905	0.15	189381	keystroke_n	n	n/a
94.7805	0.15	189561	keystroke_t	t	n/a
94.8855	0.15	189771	keystroke_s	s	n/a
95.0205	0.165	190041	keystroke_Key.space	Key.space	n/a
95.3055	0.09	190611	keystroke_h	h	n/a
95.3805	0.1195	190761	keystroke_a	a	n/a
95.485	0.12	190970	keystroke_n	n	n/a
95.575	0.12	191150	keystroke_d	d	n/a
95.71	0.105	191420	keystroke_l	l	n/a
95.816	0.104	191632	keystroke_e	e	n/a
96.025	0.105	192050	keystroke_d	d	n/a
96.1	0.1355	192200	keystroke_Key.space	Key.space	n/a
96.4905	0.12	192981	keystroke_e	e	n/a
96.5955	0.1795	193191	keystroke_a	a	n/a
96.7155	0.1045	193431	keystroke_s	s	n/a
96.9255	0.09	193851	keystroke_t	t	n/a
97.15	0.045	194300	keystroke_Key.enter	Key.enter	n/a
97.207	4.8345	194414	prompt	n/a	slim trio powerpoint rotation\n
97.7655	0.15	195531	keystroke_s	s	n/a
97.8405	0.165	195681	keystroke_l	l	n/a
97.9455	0.15	195891	keystroke_i	i	n/a
98.0355	0.18	196071	keystroke_m	m	n/a
98.1705	0.105	196341	keystroke_Key.space	Key.space	n/a
98.3655	0.12	196731	keystroke_t	t	n/a
98.4255	0.105	196851	keystroke_r	r	n/a
98.5155	0.075	197031	keystroke_i	i	n/a
98.6955	0.09	197391	keystroke_o	o	n/a
98.8605	0.135	197721	keystroke_Key.space	Key.space	n/a
99.1005	0.075	198201	keystroke_p	p	n/a
99.2805	0.09	198561	keystroke_o	o	n/a
99.3555	0.0895	198711	keystroke_w	w	n/a
99.52	0.12	199040	keystroke_e	e	n/a
99.58	0.135	199160	keystroke_r	r	n/a
99.73	0.09	199460	keystroke_p	p	n/a
99.895	0.09	199790	keystroke_o	o	n/a
100.09	0.12	200180	keystroke_i	i	n/a
100.15	0.1505	200300	keystroke_n	n	n/a
100.18	0.1355	200360	keystroke_t	t	n/a
100.2555	0.105	200511	keystroke_Key.space	Key.space	n/a
100.8255	0.12	201651	keystroke_r	r	n/a
100.9755	0.135	201951	keystroke_o	o	n/a
101.1555	0.135	202311	keystroke_t	t	n/a
101.3505	0.12	202701	keystroke_a	a	n/a
101.4255	0.105	202851	keystroke_t	t	n/a
101.4855	0.24	202971	keystroke_i	i	n/a
101.5605	0.135	203121	keystroke_o	o	n/a
101.6205	0.18	203241	keystroke_n	n	n/a
101.9505	0.09	203901	keystroke_Key.enter	Key.enter	n/a
102.045	5.142	204090	prompt	n/a	ride evaluate meet dozens\n
102.6855	0.1195	205371	keystroke_r	r	n/a
102.82	0.121	205640	keystroke_i	i	n/a
102.896	0.059	205792	keystroke_d	d	n/a
103.03	0.12	206060	keystroke_e	e	n/a
103.12	0.135	206240	keystroke_Key.space	Key.space	n/a
103.225	0.105	206450	keystroke_e	e	n/a
103.39	0.075	206780	keystroke_v	v	n/a
103.525	0.12	207050	keystroke_a	a	n/a
103.6	0.075	207200	keystroke_l	l	n/a
103.765	0.12	207530	keystroke_u	u	n/a
103.87	0.091	207740	keystroke_a	a	n/a
104.035	0.12	208070	keystroke_t	t	n/a
104.11	0.09	208220	keystroke_e	e	n/a
104.156	0.134	208312	keystroke_Key.space	Key.space	n/a
104.38	0.105	208760	keystroke_m	m	n/a
104.515	0.09	209030	keystroke_e	e	n/a
104.665	0.15	209330	keystroke_e	e	n/a
104.755	0.135	209510	keystroke_t	t	n/a
105.145	0.105	210290	keystroke_Key.space	Key.space	n/a
105.34	0.075	210680	keystroke_d	d	n/a
105.4305	0.135	210861	keystroke_o	o	n/a
105.6255	0.1045	211251	keystroke_z	z	n/a
105.835	0.165	211670	keystroke_e	e	n/a
105.941	0.149	211882	keystroke_s	s	n/a
106.33	0.09	212660	keystroke_Key.backspace	Key.backspace	n/a
106.615	0.09	213230	keystroke_n	n	n/a
106.75	0.135	213500	keystroke_s	s	n/a
107.0655	0.12	214131	keystroke_Key.enter	Key.enter	n/a
107.19	5.877	214380	prompt	n/a	sand efficient tournament focusing\n
108.31	0.105	216620	keystroke_s	s	n/a
108.4755	0.104	216951	keystroke_a	a	n/a
108.5205	0.1355	217041	keystroke_n	n	n/a
108.701	0.135	217402	keystroke_d	d	n/a
108.805	0.136	217610	keystroke_Key.space	Key.space	n/a
108.925	0.09	217850	keystroke_e	e	n/a
109.1055	0.045	218211	keystroke_f	f	n/a
109.2105	0.1205	218421	keystroke_f	f	n/a
109.3605	0.105	218721	keystroke_i	i	n/a
109.54	0.1055	219080	keystroke_c	c	n/a
109.7495	0.091	219499	keystroke_i	i	n/a
109.8555	0.105	219711	keystroke_e	e	n/a
109.9455	0.12	219891	keystroke_n	n	n/a
110.0505	0.1205	220101	keystroke_t	t	n/a
110.245	0.121	220490	keystroke_Key.space	Key.space	n/a
110.816	0.09	221632	keystroke_t	t	n/a
110.891	0.135	221782	keystroke_o	o	n/a
110.966	0.104	221932	keystroke_u	u	n/a
111.041	0.1045	222082	keystroke_r	r	n/a
111.1455	0.105	222291	keystroke_n	n	n/a
111.2655	0.09	222531	keystroke_a	a	n/a
111.3705	0.1045	222741	keystroke_m	m	n/a
111.49	0.075	222980	keystroke_e	e	n/a
111.715	0.135	223430	keystroke_n	n	n/a
111.851	0.119	223702	keystroke_t	t	n/a
111.925	0.09	223850	keystroke_Key.space	Key.space	n/a
112.195	0.105	224390	keystroke_f	f	n/a
112.33	0.135	224660	keystroke_o	o	n/a
112.48	0.105	224960	keystroke_c	c	n/a
112.57	0.075	225140	keystroke_u	u	n/a
112.66	0.09	225320	keystroke_s	s	n/a
112.735	0.12	225470	keystroke_i	i	n/a
112.795	0.105	225590	keystroke_n	n	n/a
112.885	0.075	225770	keystroke_g	g	n/a
112.99	0.075	225980	keystroke_Key.enter	Key.enter	n/a
113.07	3.927	226140	prompt	n/a	booking whenever asia fence\n
113.695	0.075	227390	keystroke_b	b	n/a
113.9055	0.03	227811	keystroke_o	o	n/a
113.9955	0.105	227991	keystroke_o	o	n/a
114.0555	0.09	228111	keystroke_k	k	n/a
114.2355	0.09	228471	keystroke_i	i	n/a
114.2805	0.135	228561	keystroke_n	n	n/a
114.3705	0.09	228741	keystroke_g	g	n/a
114.4305	0.105	228861	keystroke_Key.space	Key.space	n/a
114.5955	0.105	229191	keystroke_w	w	n/a
114.6855	0.09	229371	keystroke_h	h	n/a
114.7905	0.06	229581	keystroke_e	e	n/a
114.8655	0.09	229731	keystroke_n	n	n/a
114.9405	0.06	229881	keystroke_e	e	n/a
115.1205	0.06	230241	keystroke_v	v	n/a
115.2405	0.15	230481	keystroke_e	e	n/a
115.3155	0.09	230631	keystroke_r	r	n/a
115.3455	0.1195	230691	keystroke_Key.space	Key.space	n/a
115.496	0.165	230992	keystroke_a	a	n/a
115.6	0.121	231200	keystroke_s	s	n/a
115.735	0.0905	231470	keystroke_i	i	n/a
115.8105	0.15	231621	keystroke_a	a	n/a
115.9455	0.12	231891	keystroke_Key.space	Key.space	n/a
116.2605	0.105	232521	keystroke_f	f	n/a
116.4255	0.09	232851	keystroke_e	e	n/a
116.5455	0.1195	233091	keystroke_n	n	n/a
116.651	0.149	233302	keystroke_c	c	n/a
116.726	0.104	233452	keystroke_e	e	n/a
116.906	0.089	233812	keystroke_Key.enter	Key.enter	n/a
117.001	5.156	234002	prompt	n/a	answering columbia is exercise\n
117.595	0.12	235190	keystroke_a	a	n/a
117.7	0.15	235400	keystroke_n	n	n/a
117.79	0.075	235580	keystroke_s	s	n/a
117.955	0.105	235910	keystroke_w	w	n/a
118.165	0.15	236330	keystroke_e	e	n/a
118.255	0.105	236510	keystroke_r	r	n/a
118.375	0.12	236750	keystroke_i	i	n/a
118.435	0.135	236870	keystroke_n	n	n/a
118.51	0.105	237020	keystroke_g	g	n/a
118.585	0.135	237170	keystroke_Key.space	Key.space	n/a
118.825	0.12	237650	keystroke_c	c	n/a
118.915	0.06	237830	keystroke_o	o	n/a
119.035	0.09	238070	keystroke_l	l	n/a
119.23	0.075	238460	keystroke_u	u	n/a
119.4105	0.0595	238821	keystroke_m	m	n/a
119.5755	0.045	239151	keystroke_b	b	n/a
119.6955	0.075	239391	keystroke_i	i	n/a
119.7855	0.135	239571	keystroke_a	a	n/a
119.8755	0.1495	239751	keystroke_Key.space	Key.space	n/a
120.1305	0.1045	240261	keystroke_i	i	n/a
120.1905	0.1195	240381	keystroke_s	s	n/a
120.2955	0.15	240591	keystroke_Key.space	Key.space	n/a
120.671	0.09	241342	keystroke_e	e	n/a
120.896	0.09	241792	keystroke_x	x	n/a
121.121	0.135	242242	keystroke_e	e	n/a
121.196	0.09	242392	keystroke_r	r	n/a
121.4355	0.12	242871	keystroke_c	c	n/a
121.6005	0.075	243201	keystroke_i	i	n/a
121.7055	0.165	243411	keystroke_s	s	n/a
121.7955	0.09	243591	keystroke_e	e	n/a
122.0655	0.09	244131	keystroke_Key.enter	Key.enter	n/a
122.162	4.75	244324	prompt	n/a	junction nurses country appliances\n
122.7555	0.09	245511	keystroke_j	j	n/a
122.9205	0.075	245841	keystroke_u	u	n/a
123.0855	0.09	246171	keystroke_n	n	n/a
123.2805	0.075	246561	keystroke_c	c	n/a
123.4905	0.075	246981	keystroke_t	t	n/a
123.5205	0.195	247041	keystroke_i	i	n/a
123.5955	0.09	247191	keystroke_o	o	n/a
123.6405	0.135	247281	keystroke_n	n	n/a
123.7305	0.1495	247461	keystroke_Key.space	Key.space	n/a
123.925	0.09	247850	keystroke_n	n	n/a
124.06	0.12	248120	keystroke_u	u	n/a
124.165	0.105	248330	keystroke_r	r	n/a
124.285	0.105	248570	keystroke_s	s	n/a
124.36	0.15	248720	keystroke_e	e	n/a
124.48	0.165	248960	keystroke_s	s	n/a
124.6	0.135	249200	keystroke_Key.space	Key.space	n/a
124.75	0.135	249500	keystroke_c	c	n/a
124.825	0.12	249650	keystroke_o	o	n/a
124.915	0.06	249830	keystroke_u	u	n/a
125.065	0.165	250130	keystroke_n	n	n/a
125.125	0.135	250250	keystroke_t	t	n/a
125.185	0.12	250370	keystroke_r	r	n/a
125.365	0.09	250730	keystroke_y	y	n/a
125.425	0.12	250850	keystroke_Key.space	Key.space	n/a
125.62	0.105	251240	keystroke_a	a	n/a
125.74	0.075	251480	keystroke_p	p	n/a
125.905	0.105	251810	keystroke_p	p	n/a
125.98	0.105	251960	keystroke_l	l	n/a
126.205	0.0755	252410	keystroke_i	i	n/a
126.3105	0.15	252621	keystroke_a	a	n/a
126.4455	0.12	252891	keystroke_n	n	n/a
126.5205	0.135	253041	keystroke_c	c	n/a
126.5955	0.15	253191	keystroke_e	e	n/a
126.6855	0.12	253371	keystroke_s	s	n/a
126.8355	0.075	253671	keystroke_Key.enter	Key.enter	n/a
126.9155	8.6965	253831	prompt	n/a	structure recommendation prohibited behind\n
127.5405	0.105	255081	keystroke_s	s	n/a
127.6905	0.105	255381	keystroke_t	t	n/a
127.7355	0.09	255471	keystroke_r	r	n/a
127.8855	0.12	255771	keystroke_u	u	n/a
127.9755	0.075	255951	keystroke_c	c	n/a
128.1555	0.075	256311	keystroke_t	t	n/a
128.2455	0.105	256491	keystroke_u	u	n/a
128.3205	0.12	256641	keystroke_r	r	n/a
128.3805	0.105	256761	keystroke_e	e	n/a
128.4255	0.1495	256851	keystroke_Key.space	Key.space	n/a
128.65	0.075	257300	keystroke_s	s	n/a
128.9655	0.045	257931	keystroke_Key.backspace	Key.backspace	n/a
128.9655	0.06	257931	keystroke_=	=	n/a
129.0855	0.135	258171	keystroke_r	r	n/a
129.1755	0.075	258351	keystroke_e	e	n/a
129.4155	0.0595	258831	keystroke_Key.backspace	Key.backspace	n/a
129.61	0.046	259220	keystroke_Key.backspace	Key.backspace	n/a
129.776	0.0595	259552	keystroke_Key.backspace	Key.backspace	n/a
130.061	0.104	260122	keystroke_r	r	n/a
130.135	0.09	260270	keystroke_e	e	n/a
130.315	0.105	260630	keystroke_c	c	n/a
130.405	0.061	260810	keystroke_o	o	n/a
130.6	0.03	261200	keystroke_m	m	n/a
130.72	0.09	261440	keystroke_m	m	n/a
130.886	0.104	261772	keystroke_e	e	n/a
131.005	0.12	262010	keystroke_n	n	n/a
131.141	0.09	262282	keystroke_d	d	n/a
131.29	0.09	262580	keystroke_a	a	n/a
131.47	0.09	262940	keystroke_t	t	n/a
131.53	0.195	263060	keystroke_i	i	n/a
131.606	0.105	263212	keystroke_o	o	n/a
131.666	0.135	263332	keystroke_n	n	n/a
131.785	0.165	263570	keystroke_Key.space	Key.space	n/a
131.98	0.12	263960	keystroke_p	p	n/a
132.175	0.105	264350	keystroke_r	r	n/a
132.43	0.09	264860	keystroke_o	o	n/a
132.641	0.074	265282	keystroke_h	h	n/a
132.775	0.105	265550	keystroke_i	i	n/a
132.85	0.09	265700	keystroke_b	b	n/a
133.585	0.15	267170	keystroke_i	i	n/a
133.9	0.12	267800	keystroke_t	t	n/a
134.08	0.09	268160	keystroke_e	e	n/a
134.26	0.12	268520	keystroke_d	d	n/a
134.32	0.15	268640	keystroke_Key.space	Key.space	n/a
134.6655	0.075	269331	keystroke_b	b	n/a
134.7705	0.105	269541	keystroke_e	e	n/a
134.9805	0.075	269961	keystroke_h	h	n/a
135.2055	0.105	270411	keystroke_i	i	n/a
135.2805	0.12	270561	keystroke_n	n	n/a
135.3855	0.105	270771	keystroke_d	d	n/a
135.5505	0.06	271101	keystroke_Key.enter	Key.enter	n/a
135.615	4.242	271230	prompt	n/a	soccer remains products brake\n
136.2705	0.135	272541	keystroke_s	s	n/a
136.3905	0.06	272781	keystroke_o	o	n/a
136.4805	0.06	272961	keystroke_c	c	n/a
136.6155	0.09	273231	keystroke_c	c	n/a
136.7805	0.135	273561	keystroke_e	e	n/a
136.8555	0.12	273711	keystroke_r	r	n/a
136.9005	0.135	273801	keystroke_Key.space	Key.space	n/a
137.0655	0.12	274131	keystroke_r	r	n/a
137.1105	0.12	274221	keystroke_e	e	n/a
137.2455	0.09	274491	keystroke_m	m	n/a
137.3205	0.1195	274641	keystroke_a	a	n/a
137.455	0.12	274910	keystroke_i	i	n/a
137.485	0.135	274970	keystroke_n	n	n/a
137.56	0.15	275120	keystroke_s	s	n/a
137.665	0.135	275330	keystroke_Key.space	Key.space	n/a
137.876	0.089	275752	keystroke_p	p	n/a
137.995	0.105	275990	keystroke_r	r	n/a
138.115	0.12	276230	keystroke_o	o	n/a
138.22	0.121	276440	keystroke_d	d	n/a
138.355	0.0905	276710	keystroke_u	u	n/a
138.4755	0.12	276951	keystroke_c	c	n/a
138.7455	0.075	277491	keystroke_t	t	n/a
138.9105	0.105	277821	keystroke_s	s	n/a
138.9255	0.165	277851	keystroke_Key.space	Key.space	n/a
139.1355	0.12	278271	keystroke_b	b	n/a
139.2255	0.12	278451	keystroke_r	r	n/a
139.3155	0.12	278631	keystroke_a	a	n/a
139.4055	0.12	278811	keystroke_k	k	n/a
139.5705	0.09	279141	keystroke_e	e	n/a
139.7655	0.09	279531	keystroke_Key.enter	Key.enter	n/a
139.8605	6.237	279721	prompt	n/a	asked aruba noise asthma\n
140.44	0.15	280880	keystroke_a	a	n/a
140.575	0.106	281150	keystroke_s	s	n/a
140.71	0.105	281420	keystroke_k	k	n/a
140.786	0.074	281572	keystroke_e	e	n/a
140.951	0.119	281902	keystroke_d	d	n/a
141.04	0.136	282080	keystroke_Key.space	Key.space	n/a
141.221	0.075	282442	keystroke_a	a	n/a
142.076	0.12	284152	keystroke_r	r	n/a
142.211	0.1195	284422	keystroke_u	u	n/a
142.3155	0.135	284631	keystroke_b	b	n/a
142.7505	0.15	285501	keystroke_a	a	n/a
142.9305	0.12	285861	keystroke_Key.space	Key.space	n/a
143.4855	0.075	286971	keystroke_n	n	n/a
143.7255	0.045	287451	keystroke_o	o	n/a
143.89	0.06	287780	keystroke_i	i	n/a
144.025	0.1505	288050	keystroke_s	s	n/a
144.1005	0.12	288201	keystroke_e	e	n/a
144.1905	0.12	288381	keystroke_Key.space	Key.space	n/a
144.3255	0.165	288651	keystroke_a	a	n/a
144.4005	0.135	288801	keystroke_s	s	n/a
144.7005	0.105	289401	keystroke_t	t	n/a
144.9105	0.12	289821	keystroke_h	h	n/a
145.1655	0.105	290331	keystroke_m	m	n/a
145.2855	0.135	290571	keystroke_a	a	n/a
145.976	0.12	291952	keystroke_Key.enter	Key.enter	n/a
146.1005	5.712	292201	prompt	n/a	personals siemens gear oils\n
146.861	0.12	293722	keystroke_p	p	n/a
146.996	0.105	293992	keystroke_e	e	n/a
147.041	0.12	294082	keystroke_r	r	n/a
147.251	0.06	294502	keystroke_s	s	n/a
147.656	0.06	295312	keystroke_o	o	n/a
147.806	0.105	295612	keystroke_n	n	n/a
147.9255	0.1205	295851	keystroke_a	a	n/a
148.061	0.09	296122	keystroke_l	l	n/a
148.151	0.165	296302	keystroke_s	s	n/a
148.271	0.1195	296542	keystroke_Key.space	Key.space	n/a
148.4505	0.15	296901	keystroke_s	s	n/a
148.5555	0.105	297111	keystroke_i	i	n/a
148.7055	0.09	297411	keystroke_e	e	n/a
148.8405	0.135	297681	keystroke_m	m	n/a
148.9905	0.1205	297981	keystroke_e	e	n/a
149.096	0.105	298192	keystroke_n	n	n/a
149.531	0.18	299062	keystroke_s	s	n/a
149.681	0.135	299362	keystroke_Key.space	Key.space	n/a
150.026	0.075	300052	keystroke_g	g	n/a
150.161	0.195	300322	keystroke_e	e	n/a
150.251	0.135	300502	keystroke_a	a	n/a
150.341	0.105	300682	keystroke_r	r	n/a
150.386	0.135	300772	keystroke_Key.space	Key.space	n/a
150.596	0.09	301192	keystroke_o	o	n/a
150.821	0.105	301642	keystroke_i	i	n/a
151.016	0.09	302032	keystroke_l	l	n/a
151.091	0.135	302182	keystroke_s	s	n/a
151.6605	0.15	303321	keystroke_Key.enter	Key.enter	n/a
151.815	5.6375	303630	prompt	n/a	feels global lithuania actually\n
152.5905	0.09	305181	keystroke_f	f	n/a
152.7705	0.045	305541	keystroke_e	e	n/a
152.8755	0.09	305751	keystroke_e	e	n/a
152.9955	0.165	305991	keystroke_l	l	n/a
153.0555	0.12	306111	keystroke_s	s	n/a
153.1155	0.15	306231	keystroke_Key.space	Key.space	n/a
153.2955	0.09	306591	keystroke_b	b	n/a
153.6105	0.045	307221	keystroke_Key.backspace	Key.backspace	n/a
153.7605	0.105	307521	keystroke_g	g	n/a
153.8655	0.06	307731	keystroke_l	l	n/a
154.0305	0.045	308061	keystroke_o	o	n/a
154.2105	0.09	308421	keystroke_b	b	n/a
154.3305	0.09	308661	keystroke_a	a	n/a
154.4355	0.09	308871	keystroke_l	l	n/a
154.5105	0.12	309021	keystroke_Key.space	Key.space	n/a
154.7205	0.0905	309441	keystroke_l	l	n/a
154.886	0.09	309772	keystroke_i	i	n/a
155.006	0.105	310012	keystroke_t	t	n/a
155.126	0.1195	310252	keystroke_h	h	n/a
155.4105	0.105	310821	keystroke_u	u	n/a
155.6055	0.165	311211	keystroke_a	a	n/a
155.7555	0.12	311511	keystroke_n	n	n/a
156.0105	0.09	312021	keystroke_i	i	n/a
156.1305	0.12	312261	keystroke_a	a	n/a
156.2805	0.12	312561	keystroke_Key.space	Key.space	n/a
156.4605	0.15	312921	keystroke_a	a	n/a
156.5955	0.09	313191	keystroke_c	c	n/a
156.7905	0.061	313581	keystroke_t	t	n/a
156.8655	0.076	313731	keystroke_u	u	n/a
156.9555	0.075	313911	keystroke_a	a	n/a
157.0605	0.06	314121	keystroke_l	l	n/a
157.1805	0.09	314361	keystroke_l	l	n/a
157.2415	0.089	314483	keystroke_y	y	n/a
157.3755	0.075	314751	keystroke_Key.enter	Key.enter	n/a
157.4555	4.2265	314911	prompt	n/a	country wells rate common\n
158.066	0.135	316132	keystroke_c	c	n/a
158.156	0.09	316312	keystroke_o	o	n/a
158.216	0.06	316432	keystroke_u	u	n/a
158.366	0.105	316732	keystroke_n	n	n/a
158.396	0.12	316792	keystroke_t	t	n/a
158.471	0.18	316942	keystroke_r	r	n/a
158.606	0.105	317212	keystroke_y	y	n/a
158.666	0.105	317332	keystroke_Key.space	Key.space	n/a
158.831	0.12	317662	keystroke_w	w	n/a
158.906	0.105	317812	keystroke_e	e	n/a
159.071	0.045	318142	keystroke_l	l	n/a
159.206	0.09	318412	keystroke_l	l	n/a
159.686	0.135	319372	keystroke_s	s	n/a
159.851	0.135	319702	keystroke_Key.space	Key.space	n/a
160.016	0.135	320032	keystroke_r	r	n/a
160.136	0.1045	320272	keystroke_a	a	n/a
160.301	0.1045	320602	keystroke_t	t	n/a
160.3455	0.1205	320691	keystroke_e	e	n/a
160.616	0.12	321232	keystroke_Key.space	Key.space	n/a
160.796	0.105	321592	keystroke_c	c	n/a
160.886	0.06	321772	keystroke_o	o	n/a
161.0355	0.045	322071	keystroke_m	m	n/a
161.1705	0.075	322341	keystroke_m	m	n/a
161.291	0.0895	322582	keystroke_o	o	n/a
161.4415	0.09	322883	keystroke_n	n	n/a
161.666	0.015	323332	keystroke_Key.enter	Key.enter	n/a
161.6855	5.3225	323371	prompt	n/a	conflict beads specified engage\n
162.311	0.1345	324622	keystroke_c	c	n/a
162.4155	0.061	324831	keystroke_o	o	n/a
162.5505	0.1055	325101	keystroke_n	n	n/a
162.626	0.105	325252	keystroke_f	f	n/a
162.746	0.045	325492	keystroke_l	l	n/a
162.881	0.045	325762	keystroke_i	i	n/a
162.956	0.09	325912	keystroke_c	c	n/a
163.166	0.105	326332	keystroke_t	t	n/a
163.226	0.105	326452	keystroke_Key.space	Key.space	n/a
163.496	0.105	326992	keystroke_b	b	n/a
163.556	0.12	327112	keystroke_e	e	n/a
163.646	0.12	327292	keystroke_a	a	n/a
163.841	0.15	327682	keystroke_d	d	n/a
163.916	0.21	327832	keystroke_s	s	n/a
164.111	0.12	328222	keystroke_Key.space	Key.space	n/a
164.576	0.12	329152	keystroke_s	s	n/a
164.711	0.09	329422	keystroke_p	p	n/a
164.786	0.165	329572	keystroke_e	e	n/a
164.936	0.12	329872	keystroke_c	c	n/a
165.146	0.09	330292	keystroke_i	i	n/a
165.251	0.09	330502	keystroke_f	f	n/a
165.356	0.12	330712	keystroke_i	i	n/a
165.566	0.105	331132	keystroke_e	e	n/a
165.761	0.12	331522	keystroke_d	d	n/a
165.851	0.12	331702	keystroke_Key.space	Key.space	n/a
166.016	0.09	332032	keystroke_e	e	n/a
166.121	0.12	332242	keystroke_n	n	n/a
166.196	0.09	332392	keystroke_g	g	n/a
166.346	0.09	332692	keystroke_a	a	n/a
166.511	0.09	333022	keystroke_g	g	n/a
166.631	0.105	333262	keystroke_e	e	n/a
166.901	0.105	333802	keystroke_Key.enter	Key.enter	n/a
167.011	7.0165	334022	prompt	n/a	supply column thanks faculty\n
167.636	0.135	335272	keystroke_s	s	n/a
167.756	0.09	335512	keystroke_u	u	n/a
167.996	0.045	335992	keystroke_p	p	n/a
168.101	0.135	336202	keystroke_p	p	n/a
168.206	0.105	336412	keystroke_l	l	n/a
168.371	0.105	336742	keystroke_y	y	n/a
168.506	0.15	337012	keystroke_Key.space	Key.space	n/a
168.761	0.15	337522	keystroke_s	s	n/a
168.881	0.075	337762	keystroke_u	u	n/a
169.061	0.06	338122	keystroke_l	l	n/a
169.241	0.045	338482	keystroke_i	i	n/a
169.8555	0.045	339711	keystroke_Key.backspace	Key.backspace	n/a
169.9755	0.045	339951	keystroke_Key.backspace	Key.backspace	n/a
170.1105	0.06	340221	keystroke_Key.backspace	Key.backspace	n/a
170.2455	0.09	340491	keystroke_Key.backspace	Key.backspace	n/a
170.6655	0.12	341331	keystroke_c	c	n/a
170.8605	0.075	341721	keystroke_o	o	n/a
170.9955	0.09	341991	keystroke_l	l	n/a
171.1905	0.0755	342381	keystroke_u	u	n/a
171.386	0.06	342772	keystroke_m	m	n/a
171.536	0.09	343072	keystroke_n	n	n/a
171.776	0.135	343552	keystroke_Key.space	Key.space	n/a
172.046	0.09	344092	keystroke_t	t	n/a
172.091	0.105	344182	keystroke_h	h	n/a
172.226	0.12	344452	keystroke_a	a	n/a
172.301	0.15	344602	keystroke_n	n	n/a
172.406	0.12	344812	keystroke_k	k	n/a
172.481	0.18	344962	keystroke_s	s	n/a
172.586	0.12	345172	keystroke_Key.space	Key.space	n/a
172.916	0.105	345832	keystroke_f	f	n/a
173.111	0.135	346222	keystroke_a	a	n/a
173.216	0.12	346432	keystroke_c	c	n/a
173.351	0.075	346702	keystroke_u	u	n/a
173.516	0.135	347032	keystroke_l	l	n/a
173.606	0.105	347212	keystroke_t	t	n/a
173.8315	0.0745	347663	keystroke_y	y	n/a
173.951	0.075	347902	keystroke_Key.enter	Key.enter	n/a
174.031	5.4565	348062	prompt	n/a	publication baseline nice medicaid\n
174.776	0.075	349552	keystroke_p	p	n/a
175.001	0.075	350002	keystroke_u	u	n/a
175.166	0.09	350332	keystroke_b	b	n/a
175.331	0.06	350662	keystroke_l	l	n/a
175.4965	0.135	350993	keystroke_i	i	n/a
175.5865	0.105	351173	keystroke_c	c	n/a
175.6765	0.09	351353	keystroke_a	a	n/a
175.8415	0.09	351683	keystroke_t	t	n/a
175.8565	0.195	351713	keystroke_i	i	n/a
175.9015	0.12	351803	keystroke_o	o	n/a
175.9765	0.15	351953	keystroke_n	n	n/a
176.0665	0.15	352133	keystroke_Key.space	Key.space	n/a
176.3665	0.105	352733	keystroke_b	b	n/a
176.4415	0.1495	352883	keystroke_a	a	n/a
176.5315	0.0895	353063	keystroke_s	s	n/a
176.756	0.09	353512	keystroke_e	e	n/a
176.951	0.075	353902	keystroke_l	l	n/a
177.131	0.105	354262	keystroke_i	i	n/a
177.176	0.15	354352	keystroke_n	n	n/a
177.281	0.12	354562	keystroke_e	e	n/a
177.386	0.135	354772	keystroke_Key.space	Key.space	n/a
177.596	0.135	355192	keystroke_n	n	n/a
177.746	0.09	355492	keystroke_i	i	n/a
177.761	0.165	355522	keystroke_c	c	n/a
177.851	0.1345	355702	keystroke_e	e	n/a
177.9415	0.134	355883	keystroke_Key.space	Key.space	n/a
178.1815	0.074	356363	keystroke_m	m	n/a
178.2405	0.075	356481	keystroke_e	e	n/a
178.421	0.09	356842	keystroke_d	d	n/a
178.496	0.105	356992	keystroke_i	i	n/a
178.586	0.105	357172	keystroke_c	c	n/a
178.646	0.12	357292	keystroke_a	a	n/a
179.081	0.075	358162	keystroke_i	i	n/a
179.157	0.104	358314	keystroke_d	d	n/a
179.4105	0.0755	358821	keystroke_Key.enter	Key.enter	n/a
179.4905	5.982	358981	prompt	n/a	susan platform ferry mats\n
180.356	0.12	360712	keystroke_s	s	n/a
180.461	0.105	360922	keystroke_u	u	n/a
180.551	0.09	361102	keystroke_s	s	n/a
180.731	0.105	361462	keystroke_a	a	n/a
180.806	0.135	361612	keystroke_n	n	n/a
180.926	0.12	361852	keystroke_Key.space	Key.space	n/a
181.091	0.105	362182	keystroke_p	p	n/a
181.166	0.135	362332	keystroke_l	l	n/a
181.316	0.135	362632	keystroke_a	a	n/a
181.436	0.12	362872	keystroke_t	t	n/a
181.676	0.09	363352	keystroke_f	f	n/a
181.781	0.09	363562	keystroke_o	o	n/a
181.856	0.075	363712	keystroke_r	r	n/a
181.946	0.1045	363892	keystroke_m	m	n/a
182.0805	0.15	364161	keystroke_Key.space	Key.space	n/a
182.3955	0.12	364791	keystroke_f	f	n/a
182.6505	0.09	365301	keystroke_e	e	n/a
182.8455	0.06	365691	keystroke_r	r	n/a
182.9505	0.105	365901	keystroke_r	r	n/a
183.1755	0.06	366351	keystroke_y	y	n/a
183.2205	0.09	366441	keystroke_Key.space	Key.space	n/a
183.446	0.1195	366892	keystroke_m	m	n/a
183.5505	0.09	367101	keystroke_a	a	n/a
183.8955	0.09	367791	keystroke_s	s	n/a
184.3005	0.075	368601	keystroke_Key.backspace	Key.backspace	n/a
184.946	0.135	369892	keystroke_t	t	n/a
185.051	0.09	370102	keystroke_s	s	n/a
185.366	0.1055	370732	keystroke_Key.enter	Key.enter	n/a
185.4795	5.393	370959	prompt	n/a	amazing staff extreme feel\n
186.0115	0.105	372023	keystroke_a	a	n/a
186.1315	0.135	372263	keystroke_m	m	n/a
186.2065	0.09	372413	keystroke_a	a	n/a
186.4015	0.075	372803	keystroke_z	z	n/a
186.5665	0.12	373133	keystroke_i	i	n/a
186.6115	0.135	373223	keystroke_n	n	n/a
186.6715	0.105	373343	keystroke_g	g	n/a
186.7315	0.135	373463	keystroke_Key.space	Key.space	n/a
187.0015	0.06	374003	keystroke_a	a	n/a
187.3765	0.075	374753	keystroke_Key.backspace	Key.backspace	n/a
187.5415	0.165	375083	keystroke_s	s	n/a
187.6465	0.09	375293	keystroke_t	t	n/a
187.7965	0.09	375593	keystroke_a	a	n/a
187.9615	0.075	375923	keystroke_f	f	n/a
188.0515	0.15	376103	keystroke_f	f	n/a
188.5915	0.12	377183	keystroke_Key.space	Key.space	n/a
188.7415	0.0745	377483	keystroke_e	e	n/a
188.936	0.06	377872	keystroke_x	x	n/a
189.131	0.105	378262	keystroke_t	t	n/a
189.191	0.075	378382	keystroke_r	r	n/a
189.356	0.0755	378712	keystroke_e	e	n/a
189.401	0.15	378802	keystroke_m	m	n/a
189.566	0.09	379132	keystroke_e	e	n/a
190.0455	0.106	380091	keystroke_Key.space	Key.space	n/a
190.2115	0.105	380423	keystroke_f	f	n/a
190.2865	0.089	380573	keystroke_e	e	n/a
190.4655	0.106	380931	keystroke_e	e	n/a
190.5865	0.1045	381173	keystroke_l	l	n/a
190.811	0.06	381622	keystroke_Key.enter	Key.enter	n/a
190.8755	5.6075	381751	prompt	n/a	retired why're comply beatles\n
191.681	0.15	383362	keystroke_r	r	n/a
191.771	0.105	383542	keystroke_e	e	n/a
191.906	0.1345	383812	keystroke_t	t	n/a
192.0255	0.12	384051	keystroke_i	i	n/a
192.1015	0.149	384203	keystroke_r	r	n/a
192.2655	0.12	384531	keystroke_e	e	n/a
192.491	0.12	384982	keystroke_d	d	n/a
192.611	0.12	385222	keystroke_Key.space	Key.space	n/a
192.761	0.105	385522	keystroke_w	w	n/a
192.896	0.135	385792	keystroke_h	h	n/a
193.001	0.09	386002	keystroke_y	y	n/a
193.196	0.105	386392	keystroke_'	'	n/a
193.286	0.1355	386572	keystroke_r	r	n/a
193.361	0.105	386722	keystroke_e	e	n/a
193.436	0.195	386872	keystroke_Key.space	Key.space	n/a
193.616	0.075	387232	keystroke_t	t	n/a
194.051	0.105	388102	keystroke_Key.backspace	Key.backspace	n/a
194.351	0.135	388702	keystroke_c	c	n/a
194.471	0.135	388942	keystroke_o	o	n/a
194.576	0.075	389152	keystroke_m	m	n/a
194.711	0.105	389422	keystroke_p	p	n/a
194.771	0.09	389542	keystroke_l	l	n/a
194.936	0.135	389872	keystroke_y	y	n/a
194.996	0.12	389992	keystroke_Key.space	Key.space	n/a
195.4915	0.1645	390983	keystroke_b	b	n/a
195.5665	0.1645	391133	keystroke_e	e	n/a
195.641	0.12	391282	keystroke_a	a	n/a
195.821	0.12	391642	keystroke_t	t	n/a
195.956	0.105	391912	keystroke_l	l	n/a
196.076	0.165	392152	keystroke_e	e	n/a
196.196	0.135	392392	keystroke_s	s	n/a
196.406	0.075	392812	keystroke_Key.enter	Key.enter	n/a
196.486	7.842	392972	prompt	n/a	babe packets how'd recording\n
197.141	0.09	394282	keystroke_b	b	n/a
197.216	0.105	394432	keystroke_a	a	n/a
197.291	0.135	394582	keystroke_b	b	n/a
197.411	0.12	394822	keystroke_e	e	n/a
197.561	0.12	395122	keystroke_Key.space	Key.space	n/a
197.921	0.105	395842	keystroke_b	b	n/a
198.011	0.105	396022	keystroke_a	a	n/a
198.266	0.06	396532	keystroke_Key.backspace	Key.backspace	n/a
198.401	0.09	396802	keystroke_Key.backspace	Key.backspace	n/a
198.8965	0.119	397793	keystroke_p	p	n/a
199.0305	0.195	398061	keystroke_a	a	n/a
199.1655	0.136	398331	keystroke_c	c	n/a
199.2855	0.075	398571	keystroke_k	k	n/a
199.3905	0.12	398781	keystroke_e	e	n/a
199.4805	0.15	398961	keystroke_t	t	n/a
199.6005	0.1505	399201	keystroke_s	s	n/a
199.7055	0.1955	399411	keystroke_Key.space	Key.space	n/a
199.916	0.105	399832	keystroke_h	h	n/a
200.036	0.12	400072	keystroke_w	w	n/a
200.141	0.09	400282	keystroke_o	o	n/a
200.531	0.09	401062	keystroke_'	'	n/a
200.651	0.135	401302	keystroke_d	d	n/a
200.801	0.195	401602	keystroke_Key.space	Key.space	n/a
201.161	0.045	402322	keystroke_Key.backspace	Key.backspace	n/a
201.311	0.045	402622	keystroke_Key.backspace	Key.backspace	n/a
201.446	0.045	402892	keystroke_Key.backspace	Key.backspace	n/a
201.581	0.075	403162	keystroke_Key.backspace	Key.backspace	n/a
201.761	0.075	403522	keystroke_Key.backspace	Key.backspace	n/a
202.0315	0.12	404063	keystroke_o	o	n/a
202.1815	0.105	404363	keystroke_w	w	n/a
202.3615	0.12	404723	keystroke_'	'	n/a
202.5865	0.12	405173	keystroke_d	d	n/a
202.7515	0.18	405503	keystroke_Key.space	Key.space	n/a
202.8415	0.135	405683	keystroke_r	r	n/a
202.9315	0.12	405863	keystroke_e	e	n/a
203.1115	0.135	406223	keystroke_c	c	n/a
203.5015	0.15	407003	keystroke_o	o	n/a
203.6665	0.06	407333	keystroke_r	r	n/a
203.8315	0.075	407663	keystroke_d	d	n/a
203.9365	0.135	407873	keystroke_i	i	n/a
203.9965	0.135	407993	keystroke_n	n	n/a
204.0865	0.09	408173	keystroke_g	g	n/a
204.2515	0.075	408503	keystroke_Key.enter	Key.enter	n/a
204.3315	6.3415	408663	prompt	n/a	bangkok bloggers finnish authorities\n
205.0465	0.075	410093	keystroke_b	b	n/a
205.1365	0.075	410273	keystroke_a	a	n/a
205.2415	0.12	410483	keystroke_n	n	n/a
205.4215	0.12	410843	keystroke_g	g	n/a
205.7215	0.075	411443	keystroke_k	k	n/a
205.9165	0.06	411833	keystroke_o	o	n/a
206.0665	0.105	412133	keystroke_k	k	n/a
206.2165	0.12	412433	keystroke_Key.space	Key.space	n/a
206.3965	0.075	412793	keystroke_b	b	n/a
206.5315	0.0745	413063	keystroke_l	l	n/a
206.696	0.09	413392	keystroke_o	o	n/a
206.831	0.06	413662	keystroke_g	g	n/a
206.951	0.09	413902	keystroke_g	g	n/a
207.116	0.15	414232	keystroke_e	e	n/a
207.191	0.195	414382	keystroke_r	r	n/a
207.311	0.1655	414622	keystroke_s	s	n/a
207.416	0.1505	414832	keystroke_Key.space	Key.space	n/a
207.6265	0.15	415253	keystroke_f	f	n/a
207.7465	0.105	415493	keystroke_i	i	n/a
207.8365	0.06	415673	keystroke_n	n	n/a
207.9865	0.09	415973	keystroke_n	n	n/a
208.1965	0.09	416393	keystroke_i	i	n/a
208.3015	0.135	416603	keystroke_s	s	n/a
208.4065	0.12	416813	keystroke_h	h	n/a
208.6765	0.105	417353	keystroke_Key.space	Key.space	n/a
208.8415	0.105	417683	keystroke_a	a	n/a
208.9315	0.105	417863	keystroke_u	u	n/a
209.0665	0.105	418133	keystroke_t	t	n/a
209.1415	0.075	418283	keystroke_h	h	n/a
209.291	0.075	418582	keystroke_o	o	n/a
209.396	0.091	418792	keystroke_r	r	n/a
209.501	0.06	419002	keystroke_i	i	n/a
209.592	0.09	419184	keystroke_t	t	n/a
209.652	0.104	419304	keystroke_i	i	n/a
209.772	0.135	419544	keystroke_e	e	n/a
209.846	0.15	419692	keystroke_s	s	n/a
210.551	0.12	421102	keystroke_Key.enter	Key.enter	n/a
210.676	5.8775	421352	prompt	n/a	retained ride adopt drawing\n
211.317	0.135	422634	keystroke_r	r	n/a
211.392	0.105	422784	keystroke_e	e	n/a
211.526	0.105	423052	keystroke_t	t	n/a
211.677	0.119	423354	keystroke_i	i	n/a
212.2915	0.045	424583	keystroke_=	=	n/a
212.3065	0.015	424613	keystroke_Key.backspace	Key.backspace	n/a
212.6515	0.09	425303	keystroke_Key.backspace	Key.backspace	n/a
212.9965	0.15	425993	keystroke_a	a	n/a
213.0715	0.12	426143	keystroke_i	i	n/a
213.1165	0.165	426233	keystroke_n	n	n/a
213.2665	0.105	426533	keystroke_e	e	n/a
213.491	0.1205	426982	keystroke_d	d	n/a
213.581	0.1355	427162	keystroke_Key.space	Key.space	n/a
213.7615	0.12	427523	keystroke_r	r	n/a
214.0915	0.0905	428183	keystroke_i	i	n/a
214.212	0.075	428424	keystroke_d	d	n/a
214.392	0.09	428784	keystroke_e	e	n/a
214.437	0.12	428874	keystroke_Key.space	Key.space	n/a
214.602	0.165	429204	keystroke_a	a	n/a
214.722	0.15	429444	keystroke_d	d	n/a
214.827	0.225	429654	keystroke_o	o	n/a
214.917	0.12	429834	keystroke_p	p	n/a
215.097	0.12	430194	keystroke_t	t	n/a
215.172	0.149	430344	keystroke_Key.space	Key.space	n/a
215.5015	0.105	431003	keystroke_d	d	n/a
215.6665	0.12	431333	keystroke_r	r	n/a
215.8015	0.165	431603	keystroke_a	a	n/a
215.8765	0.165	431753	keystroke_w	w	n/a
216.0565	0.1205	432113	keystroke_i	i	n/a
216.117	0.165	432234	keystroke_n	n	n/a
216.207	0.09	432414	keystroke_g	g	n/a
216.462	0.09	432924	keystroke_Key.enter	Key.enter	n/a
216.5565	5.4415	433113	prompt	n/a	thompson mill silicon ping\n
217.1365	0.12	434273	keystroke_t	t	n/a
217.2115	0.105	434423	keystroke_h	h	n/a
217.4065	0.1805	434813	keystroke_o	o	n/a
217.5415	0.0905	435083	keystroke_m	m	n/a
217.8715	0.105	435743	keystroke_p	p	n/a
218.1565	0.105	436313	keystroke_s	s	n/a
218.2315	0.105	436463	keystroke_o	o	n/a
218.3665	0.12	436733	keystroke_n	n	n/a
219.0415	0.12	438083	keystroke_Key.space	Key.space	n/a
219.1465	0.09	438293	keystroke_m	m	n/a
219.2965	0.075	438593	keystroke_i	i	n/a
219.4915	0.0455	438983	keystroke_l	l	n/a
219.612	0.075	439224	keystroke_l	l	n/a
220.032	0.12	440064	keystroke_Key.space	Key.space	n/a
220.272	0.12	440544	keystroke_s	s	n/a
220.557	0.09	441114	keystroke_i	i	n/a
220.707	0.075	441414	keystroke_l	l	n/a
220.872	0.09	441744	keystroke_i	i	n/a
220.977	0.12	441954	keystroke_c	c	n/a
221.067	0.06	442134	keystroke_o	o	n/a
221.217	0.105	442434	keystroke_n	n	n/a
221.307	0.105	442614	keystroke_Key.space	Key.space	n/a
221.442	0.075	442884	keystroke_p	p	n/a
221.637	0.12	443274	keystroke_i	i	n/a
221.697	0.105	443394	keystroke_n	n	n/a
221.787	0.075	443574	keystroke_g	g	n/a
221.937	0.059	443874	keystroke_Key.enter	Key.enter	n/a
222.0015	5.0365	444003	prompt	n/a	queen reception invoice bucks\n
222.717	0.105	445434	keystroke_q	q	n/a
222.867	0.135	445734	keystroke_u	u	n/a
222.987	0.075	445974	keystroke_e	e	n/a
223.182	0.075	446364	keystroke_e	e	n/a
223.377	0.1045	446754	keystroke_n	n	n/a
223.5565	0.12	447113	keystroke_Key.space	Key.space	n/a
224.3665	0.12	448733	keystroke_r	r	n/a
224.4415	0.12	448883	keystroke_e	e	n/a
224.5915	0.12	449183	keystroke_c	c	n/a
224.6965	0.12	449393	keystroke_e	e	n/a
224.8315	0.075	449663	keystroke_p	p	n/a
224.9215	0.09	449843	keystroke_t	t	n/a
225.0415	0.1955	450083	keystroke_i	i	n/a
225.1015	0.1205	450203	keystroke_o	o	n/a
225.1465	0.1505	450293	keystroke_n	n	n/a
225.312	0.1195	450624	keystroke_Key.space	Key.space	n/a
225.4465	0.15	450893	keystroke_i	i	n/a
225.5065	0.12	451013	keystroke_n	n	n/a
225.6115	0.105	451223	keystroke_v	v	n/a
225.7765	0.06	451553	keystroke_o	o	n/a
225.9265	0.105	451853	keystroke_i	i	n/a
226.0015	0.135	452003	keystroke_c	c	n/a
226.0915	0.12	452183	keystroke_e	e	n/a
226.1815	0.12	452363	keystroke_Key.space	Key.space	n/a
226.3465	0.12	452693	keystroke_b	b	n/a
226.4365	0.105	452873	keystroke_u	u	n/a
226.6315	0.105	453263	keystroke_c	c	n/a
226.7215	0.105	453443	keystroke_k	k	n/a
226.8715	0.09	453743	keystroke_s	s	n/a
226.9765	0.0605	453953	keystroke_Key.enter	Key.enter	n/a
227.041	6.6425	454082	prompt	n/a	accepts exhibitions calculated collections\n
227.607	0.09	455214	keystroke_a	a	n/a
227.802	0.06	455604	keystroke_c	c	n/a
227.922	0.0895	455844	keystroke_c	c	n/a
228.1315	0.105	456263	keystroke_e	e	n/a
228.2965	0.09	456593	keystroke_p	p	n/a
228.4015	0.105	456803	keystroke_t	t	n/a
228.5665	0.135	457133	keystroke_s	s	n/a
228.6865	0.12	457373	keystroke_Key.space	Key.space	n/a
229.0015	0.075	458003	keystroke_e	e	n/a
229.1965	0.09	458393	keystroke_x	x	n/a
229.3315	0.135	458663	keystroke_h	h	n/a
229.4365	0.105	458873	keystroke_i	i	n/a
229.6465	0.075	459293	keystroke_b	b	n/a
229.8265	0.0905	459653	keystroke_i	i	n/a
229.977	0.075	459954	keystroke_t	t	n/a
230.037	0.195	460074	keystroke_i	i	n/a
230.097	0.12	460194	keystroke_o	o	n/a
230.157	0.135	460314	keystroke_n	n	n/a
230.277	0.12	460554	keystroke_s	s	n/a
230.352	0.135	460704	keystroke_Key.space	Key.space	n/a
230.622	0.06	461244	keystroke_c	c	n/a
230.652	0.12	461304	keystroke_a	a	n/a
230.757	0.09	461514	keystroke_l	l	n/a
230.862	0.09	461724	keystroke_c	c	n/a
231.012	0.0895	462024	keystroke_u	u	n/a
231.2065	0.06	462413	keystroke_l	l	n/a
231.2965	0.09	462593	keystroke_a	a	n/a
231.4465	0.12	462893	keystroke_t	t	n/a
231.5215	0.075	463043	keystroke_e	e	n/a
231.7015	0.09	463403	keystroke_d	d	n/a
231.7615	0.105	463523	keystroke_Key.space	Key.space	n/a
231.9115	0.15	463823	keystroke_c	c	n/a
232.0165	0.06	464033	keystroke_o	o	n/a
232.1515	0.06	464303	keystroke_l	l	n/a
232.2865	0.09	464573	keystroke_l	l	n/a
232.3315	0.1805	464663	keystroke_e	e	n/a
232.4215	0.1355	464843	keystroke_c	c	n/a
232.722	0.105	465444	keystroke_t	t	n/a
232.962	0.27	465924	keystroke_i	i	n/a
233.052	0.135	466104	keystroke_o	o	n/a
233.112	0.18	466224	keystroke_n	n	n/a
233.412	0.09	466824	keystroke_s	s	n/a
233.577	0.1045	467154	keystroke_Key.enter	Key.enter	n/a
233.687	6.3115	467374	prompt	n/a	george bulk forces secretary\n
234.3565	0.091	468713	keystroke_g	g	n/a
234.4615	0.075	468923	keystroke_o	o	n/a
234.5815	0.135	469163	keystroke_e	e	n/a
234.7765	0.105	469553	keystroke_o	o	n/a
235.1215	0.045	470243	keystroke_Key.backspace	Key.backspace	n/a
235.257	0.045	470514	keystroke_Key.backspace	Key.backspace	n/a
235.407	0.045	470814	keystroke_Key.backspace	Key.backspace	n/a
235.542	0.135	471084	keystroke_e	e	n/a
235.632	0.075	471264	keystroke_o	o	n/a
235.737	0.105	471474	keystroke_r	r	n/a
235.947	0.09	471894	keystroke_g	g	n/a
236.097	0.12	472194	keystroke_e	e	n/a
236.172	0.15	472344	keystroke_Key.space	Key.space	n/a
236.427	0.1045	472854	keystroke_b	b	n/a
236.5325	0.1195	473065	keystroke_u	u	n/a
236.772	0.075	473544	keystroke_l	l	n/a
236.937	0.0745	473874	keystroke_k	k	n/a
237.2215	0.135	474443	keystroke_Key.space	Key.space	n/a
237.4325	0.1195	474865	keystroke_f	f	n/a
237.567	0.12	475134	keystroke_o	o	n/a
237.7165	0.0755	475433	keystroke_r	r	n/a
237.9125	0.165	475825	keystroke_c	c	n/a
238.0175	0.18	476035	keystroke_e	e	n/a
238.1225	0.12	476245	keystroke_s	s	n/a
238.1675	0.165	476335	keystroke_Key.space	Key.space	n/a
238.5275	0.165	477055	keystroke_s	s	n/a
238.6625	0.1345	477325	keystroke_e	e	n/a
238.842	0.09	477684	keystroke_c	c	n/a
239.052	0.12	478104	keystroke_r	r	n/a
239.112	0.12	478224	keystroke_e	e	n/a
239.247	0.12	478494	keystroke_t	t	n/a
239.427	0.12	478854	keystroke_a	a	n/a
239.502	0.105	479004	keystroke_r	r	n/a
239.727	0.06	479454	keystroke_y	y	n/a
239.922	0.0755	479844	keystroke_Key.enter	Key.enter	n/a
240.0015	4.1675	480003	prompt	n/a	academy merry mood restrict\n
240.537	0.135	481074	keystroke_a	a	n/a
240.657	0.12	481314	keystroke_c	c	n/a
240.7925	0.18	481585	keystroke_a	a	n/a
240.8975	0.12	481795	keystroke_d	d	n/a
241.1375	0.135	482275	keystroke_e	e	n/a
241.2875	0.09	482575	keystroke_m	m	n/a
241.3925	0.1045	482785	keystroke_y	y	n/a
241.467	0.105	482934	keystroke_Key.space	Key.space	n/a
241.707	0.105	483414	keystroke_m	m	n/a
241.767	0.075	483534	keystroke_e	e	n/a
241.932	0.0605	483864	keystroke_r	r	n/a
242.0375	0.12	484075	keystroke_r	r	n/a
242.262	0.09	484524	keystroke_y	y	n/a
242.307	0.105	484614	keystroke_Key.space	Key.space	n/a
242.397	0.105	484794	keystroke_m	m	n/a
242.577	0.06	485154	keystroke_o	o	n/a
242.6975	0.105	485395	keystroke_o	o	n/a
242.7575	0.165	485515	keystroke_d	d	n/a
242.8775	0.135	485755	keystroke_Key.space	Key.space	n/a
243.0575	0.1645	486115	keystroke_r	r	n/a
243.132	0.165	486264	keystroke_e	e	n/a
243.237	0.12	486474	keystroke_s	s	n/a
243.402	0.1205	486804	keystroke_t	t	n/a
243.4475	0.135	486895	keystroke_r	r	n/a
243.5675	0.119	487135	keystroke_i	i	n/a
243.6725	0.09	487345	keystroke_c	c	n/a
243.9125	0.06	487825	keystroke_t	t	n/a
244.122	0.0445	488244	keystroke_Key.enter	Key.enter	n/a
244.173	5.7255	488346	prompt	n/a	species rochester controller agency\n
244.8865	0.166	489773	keystroke_s	s	n/a
245.1115	0.12	490223	keystroke_p	p	n/a
245.3365	0.136	490673	keystroke_e	e	n/a
245.5315	0.12	491063	keystroke_c	c	n/a
245.6675	0.104	491335	keystroke_i	i	n/a
245.7725	0.134	491545	keystroke_e	e	n/a
245.8315	0.166	491663	keystroke_s	s	n/a
245.9365	0.1355	491873	keystroke_Key.space	Key.space	n/a
246.207	0.105	492414	keystroke_r	r	n/a
246.327	0.09	492654	keystroke_o	o	n/a
246.462	0.12	492924	keystroke_c	c	n/a
246.567	0.12	493134	keystroke_h	h	n/a
246.657	0.135	493314	keystroke_e	e	n/a
246.897	0.135	493794	keystroke_s	s	n/a
247.047	0.075	494094	keystroke_t	t	n/a
247.197	0.105	494394	keystroke_e	e	n/a
247.242	0.12	494484	keystroke_r	r	n/a
247.317	0.105	494634	keystroke_Key.space	Key.space	n/a
247.542	0.09	495084	keystroke_c	c	n/a
247.647	0.06	495294	keystroke_o	o	n/a
247.767	0.12	495534	keystroke_n	n	n/a
247.872	0.165	495744	keystroke_t	t	n/a
247.947	0.12	495894	keystroke_r	r	n/a
248.052	0.03	496104	keystroke_o	o	n/a
248.172	0.06	496344	keystroke_l	l	n/a
248.307	0.06	496614	keystroke_l	l	n/a
248.397	0.12	496794	keystroke_e	e	n/a
248.442	0.165	496884	keystroke_r	r	n/a
248.652	0.105	497304	keystroke_Key.space	Key.space	n/a
248.8765	0.09	497753	keystroke_a	a	n/a
249.0565	0.06	498113	keystroke_g	g	n/a
249.1765	0.105	498353	keystroke_e	e	n/a
249.2965	0.105	498593	keystroke_n	n	n/a
249.3865	0.075	498773	keystroke_c	c	n/a
249.5965	0.075	499193	keystroke_y	y	n/a
249.7915	0.105	499583	keystroke_Key.enter	Key.enter	n/a
249.9015	6.447	499803	prompt	n/a	jean third configuration hiring\n
250.437	0.15	500874	keystroke_j	j	n/a
250.542	0.135	501084	keystroke_e	e	n/a
250.617	0.15	501234	keystroke_a	a	n/a
250.722	0.135	501444	keystroke_n	n	n/a
250.827	0.12	501654	keystroke_Key.space	Key.space	n/a
250.962	0.09	501924	keystroke_t	t	n/a
251.007	0.12	502014	keystroke_h	h	n/a
251.067	0.15	502134	keystroke_i	i	n/a
251.187	0.09	502374	keystroke_r	r	n/a
251.397	0.12	502794	keystroke_d	d	n/a
251.5325	0.12	503065	keystroke_Key.space	Key.space	n/a
251.7125	0.105	503425	keystroke_c	c	n/a
251.7725	0.06	503545	keystroke_o	o	n/a
251.9075	0.09	503815	keystroke_n	n	n/a
251.9825	0.09	503965	keystroke_f	f	n/a
252.0725	0.12	504145	keystroke_i	i	n/a
252.1775	0.09	504355	keystroke_g	g	n/a
252.2975	0.09	504595	keystroke_u	u	n/a
252.4175	0.09	504835	keystroke_r	r	n/a
252.5525	0.105	505105	keystroke_a	a	n/a
252.7025	0.105	505405	keystroke_t	t	n/a
252.7475	0.225	505495	keystroke_i	i	n/a
252.8225	0.12	505645	keystroke_o	o	n/a
252.8675	0.165	505735	keystroke_n	n	n/a
252.9575	0.105	505915	keystroke_Key.space	Key.space	n/a
253.1375	0.105	506275	keystroke_h	h	n/a
253.2575	0.09	506515	keystroke_r	r	n/a
253.3325	0.06	506665	keystroke_i	i	n/a
253.497	0.105	506994	keystroke_i	i	n/a
253.572	0.09	507144	keystroke_n	n	n/a
253.632	0.09	507264	keystroke_g	g	n/a
254.112	0.03	508224	keystroke_Key.backspace	Key.backspace	n/a
254.232	0.045	508464	keystroke_Key.backspace	Key.backspace	n/a
254.427	0.015	508854	keystroke_Key.backspace	Key.backspace	n/a
254.532	0.03	509064	keystroke_Key.backspace	Key.backspace	n/a
254.667	0.045	509334	keystroke_Key.backspace	Key.backspace	n/a
255.327	0.045	510654	keystroke_i	i	n/a
255.402	0.075	510804	keystroke_r	r	n/a
255.492	0.09	510984	keystroke_i	i	n/a
255.552	0.105	511104	keystroke_n	n	n/a
255.627	0.075	511254	keystroke_g	g	n/a
256.257	0.09	512514	keystroke_Key.enter	Key.enter	n/a
256.3535	5.1855	512707	prompt	n/a	lending aberdeen survival essay\n
256.9915	0.0905	513983	keystroke_l	l	n/a
257.0665	0.09	514133	keystroke_e	e	n/a
257.1725	0.09	514345	keystroke_n	n	n/a
257.2625	0.0895	514525	keystroke_d	d	n/a
257.3675	0.09	514735	keystroke_i	i	n/a
257.397	0.1205	514794	keystroke_n	n	n/a
257.4725	0.105	514945	keystroke_g	g	n/a
257.5325	0.12	515065	keystroke_Key.space	Key.space	n/a
257.7275	0.15	515455	keystroke_a	a	n/a
257.8625	0.105	515725	keystroke_b	b	n/a
258.0725	0.135	516145	keystroke_e	e	n/a
258.1325	0.12	516265	keystroke_r	r	n/a
258.3575	0.06	516715	keystroke_d	d	n/a
258.5225	0.06	517045	keystroke_e	e	n/a
258.6425	0.1195	517285	keystroke_e	e	n/a
258.7175	0.1345	517435	keystroke_n	n	n/a
258.822	0.1355	517644	keystroke_Key.space	Key.space	n/a
258.927	0.1355	517854	keystroke_s	s	n/a
259.0325	0.15	518065	keystroke_u	u	n/a
259.1075	0.09	518215	keystroke_r	r	n/a
259.3175	0.09	518635	keystroke_v	v	n/a
259.4225	0.105	518845	keystroke_i	i	n/a
259.5275	0.09	519055	keystroke_v	v	n/a
259.7075	0.09	519415	keystroke_a	a	n/a
259.8425	0.135	519685	keystroke_l	l	n/a
259.9475	0.12	519895	keystroke_Key.space	Key.space	n/a
260.0825	0.105	520165	keystroke_e	e	n/a
260.6825	0.105	521365	keystroke_s	s	n/a
260.8475	0.12	521695	keystroke_s	s	n/a
261.0575	0.075	522115	keystroke_a	a	n/a
261.2525	0.075	522505	keystroke_y	y	n/a
261.4775	0.06	522955	keystroke_Key.enter	Key.enter	n/a
261.542	6.777	523084	prompt	n/a	trainer affiliate adding installations\n
262.1375	0.15	524275	keystroke_t	t	n/a
262.2275	0.09	524455	keystroke_r	r	n/a
262.3925	0.1195	524785	keystroke_a	a	n/a
262.467	0.09	524934	keystroke_i	i	n/a
262.527	0.105	525054	keystroke_n	n	n/a
262.633	0.149	525266	keystroke_e	e	n/a
262.797	0.12	525594	keystroke_r	r	n/a
262.932	0.12	525864	keystroke_Key.space	Key.space	n/a
263.202	0.105	526404	keystroke_a	a	n/a
263.442	0.0155	526884	keystroke_f	f	n/a
263.502	0.1055	527004	keystroke_f	f	n/a
263.832	0.225	527664	keystroke_i	i	n/a
263.892	0.12	527784	keystroke_l	l	n/a
264.147	0.15	528294	keystroke_i	i	n/a
264.312	0.105	528624	keystroke_a	a	n/a
264.492	0.135	528984	keystroke_t	t	n/a
264.582	0.105	529164	keystroke_e	e	n/a
264.672	0.09	529344	keystroke_Key.space	Key.space	n/a
264.822	0.06	529644	keystroke_a	a	n/a
264.987	0.045	529974	keystroke_d	d	n/a
265.092	0.1055	530184	keystroke_d	d	n/a
265.2275	0.12	530455	keystroke_i	i	n/a
265.2725	0.1645	530545	keystroke_n	n	n/a
265.3325	0.09	530665	keystroke_g	g	n/a
265.4075	0.0895	530815	keystroke_Key.space	Key.space	n/a
265.677	0.1205	531354	keystroke_i	i	n/a
265.722	0.2555	531444	keystroke_n	n	n/a
265.7825	0.135	531565	keystroke_s	s	n/a
265.9025	0.105	531805	keystroke_t	t	n/a
266.0525	0.075	532105	keystroke_a	a	n/a
266.1575	0.06	532315	keystroke_l	l	n/a
266.3225	0.075	532645	keystroke_a	a	n/a
266.4275	0.09	532855	keystroke_l	l	n/a
266.7125	0.0445	533425	keystroke_Key.backspace	Key.backspace	n/a
266.8475	0.06	533695	keystroke_Key.backspace	Key.backspace	n/a
267.0725	0.09	534145	keystroke_l	l	n/a
267.1925	0.0895	534385	keystroke_a	a	n/a
267.357	0.0755	534714	keystroke_t	t	n/a
267.417	0.195	534834	keystroke_i	i	n/a
267.4925	0.1045	534985	keystroke_o	o	n/a
267.537	0.12	535074	keystroke_n	n	n/a
267.642	0.12	535284	keystroke_s	s	n/a
267.732	0.12	535464	keystroke_Key.space	Key.space	n/a
268.0175	0.09	536035	keystroke_Key.backspace	Key.backspace	n/a
268.2575	0.0605	536515	keystroke_Key.enter	Key.enter	n/a
268.322	8.727	536644	prompt	n/a	aspect among snake greetings\n
268.9625	0.09	537925	keystroke_a	a	n/a
269.1725	0.0905	538345	keystroke_s	s	n/a
269.2775	0.09	538555	keystroke_p	p	n/a
269.3525	0.1505	538705	keystroke_e	e	n/a
269.472	0.106	538944	keystroke_c	c	n/a
269.698	0.09	539396	keystroke_t	t	n/a
269.773	0.075	539546	keystroke_Key.space	Key.space	n/a
269.908	0.105	539816	keystroke_s	s	n/a
270.148	0.105	540296	keystroke_m	m	n/a
270.313	0.075	540626	keystroke_o	o	n/a
270.462	0.121	540924	keystroke_n	n	n/a
270.598	0.104	541196	keystroke_g	g	n/a
270.672	0.09	541344	keystroke_Key.space	Key.space	n/a
270.807	0.12	541614	keystroke_s	s	n/a
270.912	0.106	541824	keystroke_n	n	n/a
271.002	0.105	542004	keystroke_a	a	n/a
271.092	0.106	542184	keystroke_k	k	n/a
271.212	0.06	542424	keystroke_e	e	n/a
271.767	0.075	543534	keystroke_Key.backspace	Key.backspace	n/a
271.947	0.045	543894	keystroke_Key.backspace	Key.backspace	n/a
272.112	0.045	544224	keystroke_Key.backspace	Key.backspace	n/a
272.247	0.06	544494	keystroke_Key.backspace	Key.backspace	n/a
272.412	0.045	544824	keystroke_Key.backspace	Key.backspace	n/a
272.562	0.046	545124	keystroke_Key.backspace	Key.backspace	n/a
272.712	0.03	545424	keystroke_Key.backspace	Key.backspace	n/a
272.862	0.03	545724	keystroke_Key.backspace	Key.backspace	n/a
272.997	0.06	545994	keystroke_Key.backspace	Key.backspace	n/a
273.372	0.1055	546744	keystroke_Key.backspace	Key.backspace	n/a
273.7625	0.06	547525	keystroke_Key.backspace	Key.backspace	n/a
274.1525	0.105	548305	keystroke_a	a	n/a
274.2275	0.09	548455	keystroke_m	m	n/a
274.3475	0.06	548695	keystroke_o	o	n/a
274.5275	0.06	549055	keystroke_n	n	n/a
274.6325	0.12	549265	keystroke_g	g	n/a
274.7075	0.12	549415	keystroke_Key.space	Key.space	n/a
275.0375	0.09	550075	keystroke_s	s	n/a
275.1425	0.075	550285	keystroke_n	n	n/a
275.2325	0.06	550465	keystroke_a	a	n/a
275.3375	0.09	550675	keystroke_k	k	n/a
275.3675	0.105	550735	keystroke_e	e	n/a
275.4425	0.12	550885	keystroke_Key.space	Key.space	n/a
275.6525	0.075	551305	keystroke_g	g	n/a
275.8025	0.105	551605	keystroke_r	r	n/a
275.9225	0.075	551845	keystroke_e	e	n/a
276.297	0.1205	552594	keystroke_e	e	n/a
276.4925	0.075	552985	keystroke_t	t	n/a
276.6125	0.12	553225	keystroke_i	i	n/a
276.6575	0.135	553315	keystroke_n	n	n/a
276.7025	0.105	553405	keystroke_g	g	n/a
276.8375	0.075	553675	keystroke_s	s	n/a
276.9875	0.06	553975	keystroke_Key.enter	Key.enter	n/a
277.052	4.752	554104	prompt	n/a	iowa whether nails plots\n
277.797	0.195	555594	keystroke_i	i	n/a
277.887	0.12	555774	keystroke_o	o	n/a
278.172	0.075	556344	keystroke_w	w	n/a
278.472	0.09	556944	keystroke_a	a	n/a
278.622	0.135	557244	keystroke_Key.space	Key.space	n/a
278.862	0.09	557724	keystroke_w	w	n/a
278.997	0.105	557994	keystroke_h	h	n/a
279.117	0.15	558234	keystroke_e	e	n/a
279.402	0.0905	558804	keystroke_t	t	n/a
279.5825	0.105	559165	keystroke_h	h	n/a
279.6125	0.135	559225	keystroke_e	e	n/a
279.7775	0.1495	559555	keystroke_r	r	n/a
280.4375	0.12	560875	keystroke_Key.space	Key.space	n/a
280.6475	0.09	561295	keystroke_n	n	n/a
280.7075	0.12	561415	keystroke_a	a	n/a
280.8125	0.195	561625	keystroke_i	i	n/a
280.8575	0.165	561715	keystroke_l	l	n/a
280.9325	0.18	561865	keystroke_s	s	n/a
281.0525	0.12	562105	keystroke_Key.space	Key.space	n/a
281.1875	0.135	562375	keystroke_p	p	n/a
281.2625	0.105	562525	keystroke_l	l	n/a
281.4575	0.105	562915	keystroke_o	o	n/a
281.5475	0.12	563095	keystroke_t	t	n/a
281.6225	0.12	563245	keystroke_s	s	n/a
281.7275	0.0755	563455	keystroke_Key.enter	Key.enter	n/a
281.807	6.987	563614	prompt	n/a	cheese effort smaller yahoo\n
282.5525	0.105	565105	keystroke_c	c	n/a
282.6585	0.119	565317	keystroke_h	h	n/a
282.7325	0.06	565465	keystroke_e	e	n/a
282.8675	0.09	565735	keystroke_e	e	n/a
283.0475	0.21	566095	keystroke_s	s	n/a
283.1225	0.15	566245	keystroke_e	e	n/a
283.2125	0.12	566425	keystroke_Key.space	Key.space	n/a
283.3475	0.09	566695	keystroke_e	e	n/a
283.5275	0.06	567055	keystroke_f	f	n/a
283.6325	0.135	567265	keystroke_f	f	n/a
283.7525	0.195	567505	keystroke_e	e	n/a
283.9325	0.105	567865	keystroke_r	r	n/a
284.2775	0.075	568555	keystroke_Key.backspace	Key.backspace	n/a
284.4125	0.09	568825	keystroke_Key.backspace	Key.backspace	n/a
284.6675	0.09	569335	keystroke_o	o	n/a
284.8025	0.075	569605	keystroke_r	r	n/a
284.9975	0.1045	569995	keystroke_t	t	n/a
285.0725	0.1495	570145	keystroke_Key.space	Key.space	n/a
285.297	0.105	570594	keystroke_s	s	n/a
285.417	0.105	570834	keystroke_m	m	n/a
285.507	0.075	571014	keystroke_a	a	n/a
285.597	0.0455	571194	keystroke_l	l	n/a
285.7175	0.12	571435	keystroke_l	l	n/a
285.7475	0.15	571495	keystroke_e	e	n/a
285.8225	0.12	571645	keystroke_r	r	n/a
285.8825	0.105	571765	keystroke_Key.space	Key.space	n/a
286.1525	0.075	572305	keystroke_y	y	n/a
286.3175	0.075	572635	keystroke_a	a	n/a
286.4975	0.06	572995	keystroke_g	g	n/a
286.6025	0.06	573205	keystroke_o	o	n/a
286.7375	0.1195	573475	keystroke_o	o	n/a
287.112	0.06	574224	keystroke_Key.backspace	Key.backspace	n/a
287.247	0.075	574494	keystroke_Key.backspace	Key.backspace	n/a
287.397	0.06	574794	keystroke_Key.backspace	Key.backspace	n/a
288.027	0.09	576054	keystroke_h	h	n/a
288.192	0.045	576384	keystroke_o	o	n/a
288.312	0.12	576624	keystroke_o	o	n/a
288.657	0.135	577314	keystroke_Key.enter	Key.enter	n/a
288.7965	9.4625	577593	prompt	n/a	favor disclaimers ancient browser\n
289.693	0.06	579386	keystroke_a	a	n/a
290.1125	0.09	580225	keystroke_Key.backspace	Key.backspace	n/a
290.4575	0.105	580915	keystroke_f	f	n/a
290.5475	0.09	581095	keystroke_a	a	n/a
290.6825	0.09	581365	keystroke_v	v	n/a
290.7575	0.12	581515	keystroke_o	o	n/a
290.8775	0.09	581755	keystroke_r	r	n/a
290.9225	0.12	581845	keystroke_Key.space	Key.space	n/a
291.1775	0.105	582355	keystroke_d	d	n/a
291.2525	0.12	582505	keystroke_i	i	n/a
291.3275	0.1195	582655	keystroke_s	s	n/a
291.552	0.1205	583104	keystroke_c	c	n/a
292.2275	0.12	584455	keystroke_l	l	n/a
292.4375	0.12	584875	keystroke_a	a	n/a
292.5425	0.12	585085	keystroke_i	i	n/a
292.6025	0.15	585205	keystroke_m	m	n/a
292.7225	0.12	585445	keystroke_e	e	n/a
292.7975	0.1345	585595	keystroke_r	r	n/a
292.947	0.105	585894	keystroke_s	s	n/a
293.007	0.15	586014	keystroke_Key.space	Key.space	n/a
293.142	0.1505	586284	keystroke_a	a	n/a
293.3075	0.1495	586615	keystroke_n	n	n/a
293.472	0.075	586944	keystroke_c	c	n/a
293.562	0.075	587124	keystroke_i	i	n/a
293.652	0.09	587304	keystroke_e	e	n/a
293.712	0.135	587424	keystroke_n	n	n/a
293.802	0.105	587604	keystroke_t	t	n/a
293.862	0.15	587724	keystroke_Key.space	Key.space	n/a
294.4925	0.1055	588985	keystroke_b	b	n/a
294.807	0.09	589614	keystroke_r	r	n/a
294.972	0.1355	589944	keystroke_o	o	n/a
295.0925	0.045	590185	keystroke_w	w	n/a
295.3025	0.075	590605	keystroke_e	e	n/a
295.6625	0.045	591325	keystroke_Key.backspace	Key.backspace	n/a
295.6775	0.015	591355	keystroke_=	=	n/a
295.8125	0.135	591625	keystroke_s	s	n/a
295.9775	0.15	591955	keystroke_e	e	n/a
296.0375	0.105	592075	keystroke_r	r	n/a
296.2925	0.045	592585	keystroke_Key.backspace	Key.backspace	n/a
296.4425	0.03	592885	keystroke_Key.backspace	Key.backspace	n/a
296.5625	0.06	593125	keystroke_Key.backspace	Key.backspace	n/a
296.6975	0.075	593395	keystroke_Key.backspace	Key.backspace	n/a
296.8175	0.1495	593635	keystroke_s	s	n/a
296.8775	0.1045	593755	keystroke_e	e	n/a
296.9225	0.0895	593845	keystroke_r	r	n/a
298.077	0.18	596154	keystroke_Key.enter	Key.enter	n/a
298.262	7.842	596524	prompt	n/a	adelaide brass bits projects\n
298.917	0.12	597834	keystroke_a	a	n/a
299.097	0.075	598194	keystroke_d	d	n/a
299.2475	0.09	598495	keystroke_e	e	n/a
299.3525	0.135	598705	keystroke_l	l	n/a
299.5025	0.075	599005	keystroke_a	a	n/a
299.6225	0.135	599245	keystroke_i	i	n/a
299.7725	0.075	599545	keystroke_d	d	n/a
300.0275	0.045	600055	keystroke_e	e	n/a
300.0575	0.075	600115	keystroke_Key.space	Key.space	n/a
300.3725	0.1195	600745	keystroke_b	b	n/a
300.4775	0.1045	600955	keystroke_r	r	n/a
300.627	0.0905	601254	keystroke_a	a	n/a
300.8375	0.06	601675	keystroke_s	s	n/a
300.9425	0.135	601885	keystroke_s	s	n/a
301.0325	0.15	602065	keystroke_Key.space	Key.space	n/a
301.1975	0.03	602395	keystroke_p	p	n/a
302.1275	0.09	604255	keystroke_Key.backspace	Key.backspace	n/a
302.4275	0.075	604855	keystroke_b	b	n/a
302.5325	0.135	605065	keystroke_i	i	n/a
302.6225	0.15	605245	keystroke_t	t	n/a
302.7125	0.15	605425	keystroke_s	s	n/a
302.9225	0.09	605845	keystroke_p	p	n/a
303.073	0.105	606146	keystroke_r	r	n/a
303.523	0.03	607046	keystroke_Key.backspace	Key.backspace	n/a
303.642	0.06	607284	keystroke_Key.backspace	Key.backspace	n/a
303.942	0.121	607884	keystroke_Key.space	Key.space	n/a
304.213	0.09	608426	keystroke_p	p	n/a
304.348	0.105	608696	keystroke_r	r	n/a
304.393	0.09	608786	keystroke_o	o	n/a
304.6775	0.12	609355	keystroke_e	e	n/a
305.052	0.06	610104	keystroke_Key.backspace	Key.backspace	n/a
305.2925	0.135	610585	keystroke_j	j	n/a
305.4125	0.1495	610825	keystroke_e	e	n/a
305.487	0.091	610974	keystroke_c	c	n/a
305.712	0.105	611424	keystroke_t	t	n/a
305.833	0.075	611666	keystroke_s	s	n/a
306.027	0.075	612054	keystroke_Key.enter	Key.enter	n/a
306.107	7.182	612214	prompt	n/a	refers southampton roulette slide\n
306.823	0.119	613646	keystroke_r	r	n/a
306.897	0.12	613794	keystroke_e	e	n/a
307.137	0.12	614274	keystroke_f	f	n/a
307.332	0.1655	614664	keystroke_e	e	n/a
307.4375	0.15	614875	keystroke_r	r	n/a
307.5575	0.15	615115	keystroke_s	s	n/a
307.6625	0.165	615325	keystroke_Key.space	Key.space	n/a
307.8425	0.225	615685	keystroke_s	s	n/a
307.9025	0.18	615805	keystroke_o	o	n/a
308.0075	0.12	616015	keystroke_u	u	n/a
308.1425	0.12	616285	keystroke_t	t	n/a
308.2325	0.12	616465	keystroke_h	h	n/a
310.1825	0.12	620365	keystroke_a	a	n/a
310.3175	0.09	620635	keystroke_m	m	n/a
310.4975	0.09	620995	keystroke_p	p	n/a
310.6325	0.09	621265	keystroke_t	t	n/a
310.7075	0.105	621415	keystroke_o	o	n/a
310.7975	0.1055	621595	keystroke_n	n	n/a
310.992	0.09	621984	keystroke_Key.space	Key.space	n/a
311.187	0.12	622374	keystroke_r	r	n/a
311.292	0.1355	622584	keystroke_o	o	n/a
311.3825	0.09	622765	keystroke_u	u	n/a
311.562	0.105	623124	keystroke_l	l	n/a
311.637	0.105	623274	keystroke_e	e	n/a
311.907	0.075	623814	keystroke_t	t	n/a
312.042	0.135	624084	keystroke_t	t	n/a
312.222	0.12	624444	keystroke_e	e	n/a
312.372	0.09	624744	keystroke_Key.space	Key.space	n/a
312.507	0.15	625014	keystroke_s	s	n/a
312.567	0.091	625134	keystroke_l	l	n/a
312.672	0.135	625344	keystroke_i	i	n/a
312.747	0.09	625494	keystroke_d	d	n/a
312.897	0.1205	625794	keystroke_e	e	n/a
313.1525	0.135	626305	keystroke_Key.enter	Key.enter	n/a
313.292	6.0115	626584	prompt	n/a	giant dylan sympathy journey\n
313.9925	0.09	627985	keystroke_g	g	n/a
314.0975	0.105	628195	keystroke_i	i	n/a
314.1725	0.105	628345	keystroke_a	a	n/a
314.2925	0.105	628585	keystroke_n	n	n/a
314.3825	0.105	628765	keystroke_t	t	n/a
314.4575	0.165	628915	keystroke_Key.space	Key.space	n/a
314.7725	0.09	629545	keystroke_d	d	n/a
314.9525	0.075	629905	keystroke_y	y	n/a
315.1325	0.075	630265	keystroke_l	l	n/a
315.2825	0.105	630565	keystroke_a	a	n/a
315.3875	0.105	630775	keystroke_n	n	n/a
315.5075	0.105	631015	keystroke_Key.space	Key.space	n/a
315.7925	0.075	631585	keystroke_s	s	n/a
316.017	0.06	632034	keystroke_y	y	n/a
316.107	0.09	632214	keystroke_m	m	n/a
316.317	0.09	632634	keystroke_p	p	n/a
317.397	0.165	634794	keystroke_a	a	n/a
317.502	0.12	635004	keystroke_t	t	n/a
317.6675	0.135	635335	keystroke_h	h	n/a
317.7875	0.105	635575	keystroke_y	y	n/a
317.8625	0.1195	635725	keystroke_Key.space	Key.space	n/a
318.192	0.09	636384	keystroke_j	j	n/a
318.328	0.164	636656	keystroke_o	o	n/a
318.417	0.106	636834	keystroke_u	u	n/a
318.507	0.1055	637014	keystroke_r	r	n/a
318.6275	0.135	637255	keystroke_n	n	n/a
318.7475	0.09	637495	keystroke_e	e	n/a
318.9725	0.09	637945	keystroke_y	y	n/a
319.227	0.075	638454	keystroke_Key.enter	Key.enter	n/a
319.3075	6.4015	638615	prompt	n/a	mercury surface wagon holiday\n
320.0225	0.15	640045	keystroke_m	m	n/a
320.0675	0.165	640135	keystroke_e	e	n/a
320.1575	0.09	640315	keystroke_r	r	n/a
320.3675	0.105	640735	keystroke_c	c	n/a
320.4875	0.1045	640975	keystroke_u	u	n/a
320.577	0.09	641154	keystroke_r	r	n/a
320.787	0.075	641574	keystroke_y	y	n/a
320.832	0.105	641664	keystroke_Key.space	Key.space	n/a
321.2675	0.165	642535	keystroke_s	s	n/a
321.3575	0.135	642715	keystroke_u	u	n/a
321.4475	0.09	642895	keystroke_r	r	n/a
321.6275	0.105	643255	keystroke_f	f	n/a
321.7625	0.1345	643525	keystroke_a	a	n/a
321.882	0.105	643764	keystroke_c	c	n/a
321.942	0.1055	643884	keystroke_e	e	n/a
322.0325	0.105	644065	keystroke_Key.space	Key.space	n/a
322.452	0.1205	644904	keystroke_w	w	n/a
322.497	0.1205	644994	keystroke_a	a	n/a
322.7075	0.09	645415	keystroke_g	g	n/a
322.8575	0.0595	645715	keystroke_o	o	n/a
322.9925	0.135	645985	keystroke_n	n	n/a
323.1125	0.135	646225	keystroke_Key.space	Key.space	n/a
323.3225	0.18	646645	keystroke_h	h	n/a
323.3975	0.225	646795	keystroke_i	i	n/a
323.5025	0.1495	647005	keystroke_l	l	n/a
323.982	0.06	647964	keystroke_Key.backspace	Key.backspace	n/a
324.132	0.075	648264	keystroke_Key.backspace	Key.backspace	n/a
324.372	0.045	648744	keystroke_o	o	n/a
324.477	0.075	648954	keystroke_l	l	n/a
324.642	0.105	649284	keystroke_i	i	n/a
324.732	0.15	649464	keystroke_d	d	n/a
324.807	0.165	649614	keystroke_a	a	n/a
324.942	0.09	649884	keystroke_y	y	n/a
325.617	0.09	651234	keystroke_Key.enter	Key.enter	n/a
325.7135	6.1755	651427	prompt	n/a	assessing creative suggestions consequence\n
326.337	0.075	652674	keystroke_a	a	n/a
326.532	0.045	653064	keystroke_s	s	n/a
326.637	0.105	653274	keystroke_s	s	n/a
326.802	0.09	653604	keystroke_e	e	n/a
326.997	0.045	653994	keystroke_s	s	n/a
327.102	0.1355	654204	keystroke_s	s	n/a
327.2525	0.105	654505	keystroke_i	i	n/a
327.2975	0.135	654595	keystroke_n	n	n/a
327.3425	0.105	654685	keystroke_g	g	n/a
327.4175	0.12	654835	keystroke_Key.space	Key.space	n/a
327.6125	0.09	655225	keystroke_c	c	n/a
327.8225	0.1195	655645	keystroke_r	r	n/a
327.882	0.135	655764	keystroke_e	e	n/a
327.957	0.075	655914	keystroke_a	a	n/a
328.107	0.075	656214	keystroke_t	t	n/a
328.227	0.105	656454	keystroke_i	i	n/a
328.317	0.075	656634	keystroke_v	v	n/a
328.407	0.105	656814	keystroke_e	e	n/a
328.482	0.135	656964	keystroke_Key.space	Key.space	n/a
328.632	0.105	657264	keystroke_s	s	n/a
328.722	0.105	657444	keystroke_u	u	n/a
328.842	0.045	657684	keystroke_g	g	n/a
328.947	0.105	657894	keystroke_g	g	n/a
329.097	0.1955	658194	keystroke_e	e	n/a
329.187	0.1515	658374	keystroke_s	s	n/a
329.2625	0.105	658525	keystroke_t	t	n/a
329.3225	0.165	658645	keystroke_i	i	n/a
329.3675	0.09	658735	keystroke_o	o	n/a
329.4275	0.135	658855	keystroke_n	n	n/a
329.5025	0.135	659005	keystroke_s	s	n/a
329.6075	0.12	659215	keystroke_Key.space	Key.space	n/a
329.983	0.15	659966	keystroke_c	c	n/a
330.088	0.06	660176	keystroke_o	o	n/a
330.193	0.12	660386	keystroke_n	n	n/a
330.268	0.134	660536	keystroke_s	s	n/a
330.507	0.091	661014	keystroke_e	e	n/a
330.703	0.09	661406	keystroke_q	q	n/a
330.853	0.105	661706	keystroke_u	u	n/a
330.988	0.09	661976	keystroke_e	e	n/a
331.093	0.1345	662186	keystroke_n	n	n/a
331.2125	0.135	662425	keystroke_c	c	n/a
331.2725	0.105	662545	keystroke_e	e	n/a
331.8125	0.075	663625	keystroke_Key.enter	Key.enter	n/a
331.8915	6.3275	663783	prompt	n/a	flickr compaq minus empirical\n
332.9075	0.12	665815	keystroke_f	f	n/a
333.0125	0.105	666025	keystroke_l	l	n/a
333.3125	0.1045	666625	keystroke_i	i	n/a
333.477	0.09	666954	keystroke_c	c	n/a
333.582	0.09	667164	keystroke_k	k	n/a
333.762	0.075	667524	keystroke_r	r	n/a
333.957	0.105	667914	keystroke_Key.space	Key.space	n/a
334.137	0.09	668274	keystroke_c	c	n/a
334.197	0.09	668394	keystroke_o	o	n/a
334.242	0.09	668484	keystroke_m	m	n/a
334.392	0.06	668784	keystroke_p	p	n/a
334.497	0.105	668994	keystroke_a	a	n/a
334.752	0.105	669504	keystroke_z	z	n/a
335.172	0.075	670344	keystroke_Key.backspace	Key.backspace	n/a
335.262	0.09	670524	keystroke_q	q	n/a
335.788	0.12	671576	keystroke_Key.space	Key.space	n/a
335.923	0.09	671846	keystroke_m	m	n/a
336.043	0.105	672086	keystroke_i	i	n/a
336.118	0.1495	672236	keystroke_n	n	n/a
336.2975	0.09	672595	keystroke_u	u	n/a
336.4475	0.1505	672895	keystroke_s	s	n/a
336.5225	0.1505	673045	keystroke_Key.space	Key.space	n/a
336.793	0.09	673586	keystroke_e	e	n/a
336.853	0.105	673706	keystroke_m	m	n/a
337.047	0.061	674094	keystroke_p	p	n/a
337.213	0.089	674426	keystroke_i	i	n/a
337.333	0.105	674666	keystroke_r	r	n/a
337.693	0.075	675386	keystroke_i	i	n/a
337.783	0.105	675566	keystroke_c	c	n/a
337.873	0.119	675746	keystroke_a	a	n/a
337.963	0.059	675926	keystroke_l	l	n/a
338.172	0.045	676344	keystroke_Key.enter	Key.enter	n/a
338.2225	6.7015	676445	prompt	n/a	good radar reputation engage\n
338.9075	0.09	677815	keystroke_g	g	n/a
339.0275	0.045	678055	keystroke_o	o	n/a
339.1475	0.12	678295	keystroke_o	o	n/a
339.2225	0.15	678445	keystroke_d	d	n/a
339.3425	0.1345	678685	keystroke_Key.space	Key.space	n/a
339.432	0.106	678864	keystroke_r	r	n/a
339.522	0.15	679044	keystroke_a	a	n/a
339.627	0.135	679254	keystroke_d	d	n/a
339.747	0.15	679494	keystroke_a	a	n/a
339.912	0.12	679824	keystroke_r	r	n/a
340.047	0.135	680094	keystroke_Key.space	Key.space	n/a
340.287	0.15	680574	keystroke_r	r	n/a
340.362	0.121	680724	keystroke_e	e	n/a
340.587	0.075	681174	keystroke_u	u	n/a
340.902	0.105	681804	keystroke_Key.backspace	Key.backspace	n/a
341.367	0.075	682734	keystroke_p	p	n/a
341.577	0.09	683154	keystroke_u	u	n/a
341.8625	0.015	683725	keystroke_t	t	n/a
341.8925	0.105	683785	keystroke_a	a	n/a
341.9825	0.075	683965	keystroke_t	t	n/a
342.0125	0.195	684025	keystroke_i	i	n/a
342.0875	0.105	684175	keystroke_o	o	n/a
342.1475	0.165	684295	keystroke_n	n	n/a
342.2525	0.15	684505	keystroke_Key.space	Key.space	n/a
342.4625	0.09	684925	keystroke_e	e	n/a
342.657	0.09	685314	keystroke_g	g	n/a
342.762	0.1355	685524	keystroke_n	n	n/a
342.9125	0.105	685825	keystroke_g	g	n/a
343.3025	0.06	686605	keystroke_Key.backspace	Key.backspace	n/a
343.4675	0.03	686935	keystroke_Key.backspace	Key.backspace	n/a
343.5875	0.06	687175	keystroke_Key.backspace	Key.backspace	n/a
343.8125	0.09	687625	keystroke_n	n	n/a
343.8875	0.09	687775	keystroke_g	g	n/a
344.0825	0.09	688165	keystroke_a	a	n/a
344.2325	0.09	688465	keystroke_g	g	n/a
344.3375	0.09	688675	keystroke_e	e	n/a
344.8175	0.105	689635	keystroke_Key.enter	Key.enter	n/a
344.927	5.232	689854	prompt	n/a	laura started partially approved\n
345.5825	0.075	691165	keystroke_l	l	n/a
345.673	0.15	691346	keystroke_a	a	n/a
345.808	0.1195	691616	keystroke_u	u	n/a
345.943	0.0895	691886	keystroke_r	r	n/a
346.1375	0.135	692275	keystroke_a	a	n/a
346.2275	0.12	692455	keystroke_Key.space	Key.space	n/a
346.3775	0.12	692755	keystroke_s	s	n/a
346.5125	0.12	693025	keystroke_t	t	n/a
346.6475	0.165	693295	keystroke_a	a	n/a
346.7375	0.09	693475	keystroke_r	r	n/a
346.9025	0.1195	693805	keystroke_t	t	n/a
347.008	0.074	694016	keystroke_e	e	n/a
347.172	0.105	694344	keystroke_d	d	n/a
347.232	0.135	694464	keystroke_Key.space	Key.space	n/a
347.397	0.1055	694794	keystroke_p	p	n/a
347.427	0.1505	694854	keystroke_a	a	n/a
347.5175	0.105	695035	keystroke_r	r	n/a
347.6825	0.105	695365	keystroke_t	t	n/a
347.7575	0.075	695515	keystroke_i	i	n/a
347.8775	0.075	695755	keystroke_a	a	n/a
347.9675	0.045	695935	keystroke_l	l	n/a
348.0875	0.105	696175	keystroke_l	l	n/a
348.1325	0.105	696265	keystroke_y	y	n/a
348.2075	0.12	696415	keystroke_Key.space	Key.space	n/a
348.3425	0.18	696685	keystroke_a	a	n/a
348.4475	0.06	696895	keystroke_p	p	n/a
348.5825	0.075	697165	keystroke_p	p	n/a
348.8375	0.045	697675	keystroke_o	o	n/a
349.2725	0.06	698545	keystroke_Key.backspace	Key.backspace	n/a
349.4075	0.0745	698815	keystroke_r	r	n/a
349.497	0.075	698994	keystroke_o	o	n/a
349.602	0.105	699204	keystroke_v	v	n/a
349.767	0.075	699534	keystroke_e	e	n/a
349.932	0.09	699864	keystroke_d	d	n/a
350.067	0.09	700134	keystroke_Key.enter	Key.enter	n/a
350.1625	6.2365	700325	prompt	n/a	methodology rent michel deployment\n
351.072	0.12	702144	keystroke_m	m	n/a
351.117	0.15	702234	keystroke_e	e	n/a
351.222	0.135	702444	keystroke_t	t	n/a
351.358	0.0745	702716	keystroke_h	h	n/a
351.5075	0.09	703015	keystroke_o	o	n/a
351.6275	0.09	703255	keystroke_d	d	n/a
352.0925	0.09	704185	keystroke_o	o	n/a
353.2175	0.09	706435	keystroke_l	l	n/a
353.4125	0.0755	706825	keystroke_o	o	n/a
353.518	0.09	707036	keystroke_g	g	n/a
353.713	0.089	707426	keystroke_y	y	n/a
353.787	0.135	707574	keystroke_Key.space	Key.space	n/a
353.997	0.121	707994	keystroke_r	r	n/a
354.058	0.089	708116	keystroke_e	e	n/a
354.163	0.104	708326	keystroke_n	n	n/a
354.222	0.106	708444	keystroke_t	t	n/a
354.282	0.12	708564	keystroke_Key.space	Key.space	n/a
354.418	0.105	708836	keystroke_m	m	n/a
354.552	0.076	709104	keystroke_i	i	n/a
354.643	0.104	709286	keystroke_c	c	n/a
354.733	0.12	709466	keystroke_h	h	n/a
354.823	0.09	709646	keystroke_e	e	n/a
354.943	0.12	709886	keystroke_l	l	n/a
355.047	0.12	710094	keystroke_Key.space	Key.space	n/a
355.243	0.075	710486	keystroke_d	d	n/a
355.393	0.105	710786	keystroke_e	e	n/a
355.483	0.105	710966	keystroke_p	p	n/a
355.543	0.075	711086	keystroke_l	l	n/a
355.692	0.06	711384	keystroke_o	o	n/a
355.798	0.09	711596	keystroke_y	y	n/a
355.948	0.059	711896	keystroke_m	m	n/a
356.053	0.075	712106	keystroke_e	e	n/a
356.098	0.105	712196	keystroke_n	n	n/a
356.217	0.076	712434	keystroke_t	t	n/a
356.337	0.06	712674	keystroke_Key.enter	Key.enter	n/a
356.4015	4.6775	712803	prompt	n/a	holes essentials fluid upcoming\n
357.2225	0.105	714445	keystroke_h	h	n/a
357.4025	0.06	714805	keystroke_o	o	n/a
357.5225	0.105	715045	keystroke_l	l	n/a
357.5975	0.165	715195	keystroke_e	e	n/a
357.6725	0.12	715345	keystroke_s	s	n/a
357.7475	0.165	715495	keystroke_Key.space	Key.space	n/a
357.8825	0.12	715765	keystroke_e	e	n/a
358.1225	0.045	716245	keystroke_s	s	n/a
358.2425	0.075	716485	keystroke_s	s	n/a
358.3925	0.09	716785	keystroke_e	e	n/a
358.4975	0.06	716995	keystroke_n	n	n/a
358.5425	0.105	717085	keystroke_t	t	n/a
358.6625	0.075	717325	keystroke_i	i	n/a
358.7225	0.075	717445	keystroke_a	a	n/a
358.8275	0.1045	717655	keystroke_l	l	n/a
358.902	0.165	717804	keystroke_s	s	n/a
359.022	0.105	718044	keystroke_Key.space	Key.space	n/a
359.143	0.1495	718286	keystroke_f	f	n/a
359.2625	0.09	718525	keystroke_l	l	n/a
359.457	0.075	718914	keystroke_u	u	n/a
359.607	0.0905	719214	keystroke_i	i	n/a
359.7425	0.105	719485	keystroke_d	d	n/a
359.8175	0.105	719635	keystroke_Key.space	Key.space	n/a
360.0575	0.075	720115	keystroke_u	u	n/a
360.2975	0.09	720595	keystroke_p	p	n/a
360.4925	0.09	720985	keystroke_c	c	n/a
360.5675	0.105	721135	keystroke_o	o	n/a
360.6275	0.075	721255	keystroke_m	m	n/a
360.7925	0.06	721585	keystroke_i	i	n/a
360.8225	0.105	721645	keystroke_n	n	n/a
360.8975	0.075	721795	keystroke_g	g	n/a
361.0475	0.03	722095	keystroke_Key.enter	Key.enter	n/a
361.082	5.307	722164	prompt	n/a	singer mean massachusetts tips\n
361.6925	0.135	723385	keystroke_s	s	n/a
361.7825	0.075	723565	keystroke_i	i	n/a
361.8425	0.075	723685	keystroke_n	n	n/a
361.9025	0.06	723805	keystroke_g	g	n/a
362.0375	0.12	724075	keystroke_e	e	n/a
362.0975	0.105	724195	keystroke_r	r	n/a
362.1275	0.135	724255	keystroke_Key.space	Key.space	n/a
362.2925	0.09	724585	keystroke_m	m	n/a
362.3525	0.12	724705	keystroke_e	e	n/a
362.4125	0.12	724825	keystroke_a	a	n/a
362.4875	0.12	724975	keystroke_n	n	n/a
362.5925	0.12	725185	keystroke_Key.space	Key.space	n/a
362.8175	0.105	725635	keystroke_m	m	n/a
362.9075	0.06	725815	keystroke_a	a	n/a
363.0875	0.045	726175	keystroke_s	s	n/a
363.1925	0.09	726385	keystroke_s	s	n/a
363.372	0.105	726744	keystroke_a	a	n/a
363.792	0.1205	727584	keystroke_c	c	n/a
363.897	0.09	727794	keystroke_h	h	n/a
364.062	0.105	728124	keystroke_u	u	n/a
364.4825	0.1355	728965	keystroke_s	s	n/a
364.708	0.09	729416	keystroke_e	e	n/a
364.933	0.06	729866	keystroke_t	t	n/a
365.053	0.105	730106	keystroke_t	t	n/a
365.173	0.1495	730346	keystroke_s	s	n/a
365.248	0.18	730496	keystroke_Key.space	Key.space	n/a
365.3975	0.1055	730795	keystroke_t	t	n/a
365.518	0.105	731036	keystroke_i	i	n/a
365.818	0.12	731636	keystroke_p	p	n/a
366.013	0.104	732026	keystroke_s	s	n/a
366.327	0.06	732654	keystroke_Key.enter	Key.enter	n/a
366.392	3.7325	732784	prompt	n/a	imperial tubes futures ware\n
367.0625	0.105	734125	keystroke_i	i	n/a
367.1225	0.09	734245	keystroke_m	m	n/a
367.3325	0.075	734665	keystroke_p	p	n/a
367.438	0.12	734876	keystroke_e	e	n/a
367.513	0.09	735026	keystroke_r	r	n/a
367.588	0.06	735176	keystroke_i	i	n/a
367.678	0.105	735356	keystroke_a	a	n/a
367.768	0.105	735536	keystroke_l	l	n/a
367.858	0.135	735716	keystroke_Key.space	Key.space	n/a
368.023	0.105	736046	keystroke_t	t	n/a
368.098	0.15	736196	keystroke_u	u	n/a
368.188	0.135	736376	keystroke_b	b	n/a
368.278	0.1495	736556	keystroke_e	e	n/a
368.338	0.165	736676	keystroke_s	s	n/a
368.458	0.135	736916	keystroke_Key.space	Key.space	n/a
368.7875	0.1055	737575	keystroke_f	f	n/a
368.923	0.09	737846	keystroke_u	u	n/a
369.028	0.105	738056	keystroke_t	t	n/a
369.118	0.12	738236	keystroke_u	u	n/a
369.193	0.135	738386	keystroke_r	r	n/a
369.268	0.1645	738536	keystroke_e	e	n/a
369.358	0.1345	738716	keystroke_s	s	n/a
369.4475	0.15	738895	keystroke_Key.space	Key.space	n/a
369.5675	0.12	739135	keystroke_w	w	n/a
369.6425	0.105	739285	keystroke_a	a	n/a
369.7925	0.12	739585	keystroke_r	r	n/a
369.8525	0.12	739705	keystroke_e	e	n/a
370.0325	0.0905	740065	keystroke_Key.enter	Key.enter	n/a
370.127	4.7975	740254	prompt	n/a	affects calibration updating horse\n
370.708	0.075	741416	keystroke_a	a	n/a
370.873	0.045	741746	keystroke_f	f	n/a
370.963	0.105	741926	keystroke_f	f	n/a
371.097	0.151	742194	keystroke_e	e	n/a
371.203	0.09	742406	keystroke_c	c	n/a
371.413	0.105	742826	keystroke_t	t	n/a
371.503	0.105	743006	keystroke_s	s	n/a
371.593	0.135	743186	keystroke_Key.space	Key.space	n/a
371.758	0.12	743516	keystroke_c	c	n/a
371.848	0.12	743696	keystroke_a	a	n/a
371.938	0.075	743876	keystroke_l	l	n/a
372.088	0.09	744176	keystroke_i	i	n/a
372.283	0.105	744566	keystroke_b	b	n/a
372.373	0.1195	744746	keystroke_r	r	n/a
372.4775	0.105	744955	keystroke_a	a	n/a
372.6425	0.09	745285	keystroke_t	t	n/a
372.6875	0.18	745375	keystroke_i	i	n/a
372.7475	0.0905	745495	keystroke_o	o	n/a
372.8075	0.135	745615	keystroke_n	n	n/a
372.8825	0.15	745765	keystroke_Key.space	Key.space	n/a
373.0775	0.105	746155	keystroke_u	u	n/a
373.3325	0.075	746665	keystroke_p	p	n/a
373.4975	0.12	746995	keystroke_d	d	n/a
373.5725	0.135	747145	keystroke_a	a	n/a
373.7525	0.075	747505	keystroke_t	t	n/a
373.7975	0.12	747595	keystroke_i	i	n/a
373.8575	0.135	747715	keystroke_n	n	n/a
373.9775	0.09	747955	keystroke_g	g	n/a
374.0375	0.15	748075	keystroke_Key.space	Key.space	n/a
374.2325	0.09	748465	keystroke_h	h	n/a
374.397	0.106	748794	keystroke_o	o	n/a
374.488	0.149	748976	keystroke_r	r	n/a
374.593	0.195	749186	keystroke_s	s	n/a
374.698	0.135	749396	keystroke_e	e	n/a
374.847	0.075	749694	keystroke_Key.enter	Key.enter	n/a
374.9285	4.511	749857	prompt	n/a	removing global remind thanks\n
375.5375	0.1195	751075	keystroke_r	r	n/a
375.597	0.105	751194	keystroke_e	e	n/a
375.718	0.119	751436	keystroke_m	m	n/a
375.807	0.06	751614	keystroke_o	o	n/a
375.868	0.104	751736	keystroke_v	v	n/a
375.987	0.09	751974	keystroke_i	i	n/a
376.047	0.12	752094	keystroke_n	n	n/a
376.092	0.105	752184	keystroke_g	g	n/a
376.152	0.12	752304	keystroke_Key.space	Key.space	n/a
376.378	0.105	752756	keystroke_g	g	n/a
376.497	0.045	752994	keystroke_l	l	n/a
376.632	0.045	753264	keystroke_o	o	n/a
376.782	0.09	753564	keystroke_b	b	n/a
376.902	0.105	753804	keystroke_a	a	n/a
377.022	0.075	754044	keystroke_l	l	n/a
377.112	0.135	754224	keystroke_Key.space	Key.space	n/a
377.292	0.105	754584	keystroke_r	r	n/a
377.352	0.091	754704	keystroke_e	e	n/a
377.443	0.0745	754886	keystroke_m	m	n/a
377.5475	0.105	755095	keystroke_i	i	n/a
377.6375	0.105	755275	keystroke_n	n	n/a
377.7125	0.12	755425	keystroke_d	d	n/a
377.8025	0.135	755605	keystroke_Key.space	Key.space	n/a
378.0425	0.105	756085	keystroke_t	t	n/a
378.1175	0.105	756235	keystroke_h	h	n/a
378.2075	0.03	756415	keystroke_i	i	n/a
378.3425	0.09	756685	keystroke_a	a	n/a
378.6875	0.03	757375	keystroke_Key.backspace	Key.backspace	n/a
378.8225	0.03	757645	keystroke_Key.backspace	Key.backspace	n/a
378.9875	0.075	757975	keystroke_a	a	n/a
379.0475	0.12	758095	keystroke_n	n	n/a
379.1375	0.09	758275	keystroke_k	k	n/a
379.2275	0.09	758455	keystroke_s	s	n/a
379.3775	0.06	758755	keystroke_Key.enter	Key.enter	n/a
379.4435	10.4655	758887	prompt	n/a	houses lanes elliott hitachi\n
380.0225	0.09	760045	keystroke_h	h	n/a
380.1275	0.1645	760255	keystroke_o	o	n/a
380.2175	0.1505	760435	keystroke_u	u	n/a
380.337	0.15	760674	keystroke_s	s	n/a
380.878	0.075	761756	keystroke_e	e	n/a
381.072	0.105	762144	keystroke_s	s	n/a
381.162	0.12	762324	keystroke_Key.space	Key.space	n/a
381.297	0.075	762594	keystroke_l	l	n/a
381.342	0.105	762684	keystroke_a	a	n/a
381.432	0.1355	762864	keystroke_n	n	n/a
381.522	0.135	763044	keystroke_e	e	n/a
381.5975	0.1205	763195	keystroke_s	s	n/a
381.8675	0.105	763735	keystroke_Key.space	Key.space	n/a
382.002	0.12	764004	keystroke_e	e	n/a
382.138	0.059	764276	keystroke_l	l	n/a
382.242	0.1505	764484	keystroke_l	l	n/a
383.1275	0.2105	766255	keystroke_i	i	n/a
383.2025	0.1505	766405	keystroke_o	o	n/a
383.518	0.09	767036	keystroke_t	t	n/a
383.683	0.075	767366	keystroke_t	t	n/a
385.738	0.15	771476	keystroke_Key.space	Key.space	n/a
385.903	0.09	771806	keystroke_h	h	n/a
385.963	0.12	771926	keystroke_i	i	n/a
386.143	0.105	772286	keystroke_t	t	n/a
386.368	0.1345	772736	keystroke_a	a	n/a
386.458	0.1045	772916	keystroke_c	c	n/a
386.5775	0.15	773155	keystroke_h	h	n/a
386.8025	0.075	773605	keystroke_y	y	n/a
387.5375	0.075	775075	keystroke_=	=	n/a
388.0775	0.015	776155	keystroke_=	=	n/a
388.3775	0.045	776755	keystroke_Key.backspace	Key.backspace	n/a
388.513	0.074	777026	keystroke_Key.backspace	Key.backspace	n/a
388.648	0.06	777296	keystroke_Key.backspace	Key.backspace	n/a
389.338	0.045	778676	keystroke_i	i	n/a
389.833	0.075	779666	keystroke_Key.enter	Key.enter	n/a
389.9125	5.727	779825	prompt	n/a	where'd fight features challenge\n
390.5675	0.09	781135	keystroke_w	w	n/a
390.8375	0.105	781675	keystroke_h	h	n/a
390.9125	0.105	781825	keystroke_e	e	n/a
390.9725	0.135	781945	keystroke_r	r	n/a
391.2575	0.06	782515	keystroke_e	e	n/a
391.4975	0.075	782995	keystroke_'	'	n/a
391.6475	0.135	783295	keystroke_d	d	n/a
391.7975	0.105	783595	keystroke_Key.space	Key.space	n/a
391.9475	0.075	783895	keystroke_f	f	n/a
391.9775	0.09	783955	keystroke_i	i	n/a
392.4575	0.06	784915	keystroke_Key.backspace	Key.backspace	n/a
393.193	0.09	786386	keystroke_i	i	n/a
393.298	0.09	786596	keystroke_g	g	n/a
393.372	0.106	786744	keystroke_h	h	n/a
393.462	0.106	786924	keystroke_t	t	n/a
393.537	0.12	787074	keystroke_Key.space	Key.space	n/a
393.823	0.105	787646	keystroke_f	f	n/a
393.988	0.12	787976	keystroke_e	e	n/a
394.0475	0.0755	788095	keystroke_a	a	n/a
394.168	0.09	788336	keystroke_t	t	n/a
394.2725	0.1205	788545	keystroke_u	u	n/a
394.3325	0.135	788665	keystroke_r	r	n/a
394.408	0.1195	788816	keystroke_e	e	n/a
394.453	0.1345	788906	keystroke_s	s	n/a
394.5575	0.075	789115	keystroke_Key.space	Key.space	n/a
394.648	0.105	789296	keystroke_c	c	n/a
394.723	0.09	789446	keystroke_h	h	n/a
394.828	0.105	789656	keystroke_a	a	n/a
394.903	0.045	789806	keystroke_l	l	n/a
395.023	0.12	790046	keystroke_l	l	n/a
395.158	0.105	790316	keystroke_e	e	n/a
395.248	0.12	790496	keystroke_n	n	n/a
395.353	0.075	790706	keystroke_g	g	n/a
395.4425	0.09	790885	keystroke_e	e	n/a
395.5775	0.06	791155	keystroke_Key.enter	Key.enter	n/a
395.6425	5.367	791285	prompt	n/a	celebrate ventures graph had\n
396.2535	0.1195	792507	keystroke_c	c	n/a
396.538	0.105	793076	keystroke_e	e	n/a
396.688	0.105	793376	keystroke_l	l	n/a
397.3175	0.09	794635	keystroke_e	e	n/a
397.468	0.119	794936	keystroke_b	b	n/a
397.978	0.12	795956	keystroke_r	r	n/a
398.113	0.135	796226	keystroke_a	a	n/a
398.233	0.12	796466	keystroke_t	t	n/a
398.308	0.12	796616	keystroke_e	e	n/a
398.398	0.105	796796	keystroke_Key.space	Key.space	n/a
398.668	0.0745	797336	keystroke_v	v	n/a
398.8025	0.12	797605	keystroke_e	e	n/a
398.9375	0.09	797875	keystroke_n	n	n/a
399.0125	0.105	798025	keystroke_t	t	n/a
399.1325	0.105	798265	keystroke_u	u	n/a
399.1925	0.135	798385	keystroke_r	r	n/a
399.2675	0.15	798535	keystroke_e	e	n/a
399.3425	0.135	798685	keystroke_s	s	n/a
399.4025	0.105	798805	keystroke_Key.space	Key.space	n/a
399.5525	0.06	799105	keystroke_g	g	n/a
399.7025	0.105	799405	keystroke_r	r	n/a
399.7925	0.12	799585	keystroke_a	a	n/a
399.8975	0.06	799795	keystroke_p	p	n/a
400.0925	0.105	800185	keystroke_h	h	n/a
400.2875	0.12	800575	keystroke_Key.space	Key.space	n/a
400.4675	0.12	800935	keystroke_h	h	n/a
400.6025	0.15	801205	keystroke_a	a	n/a
400.7075	0.12	801415	keystroke_d	d	n/a
400.8725	0.135	801745	keystroke_Key.enter	Key.enter	n/a
401.0125	5.997	802025	prompt	n/a	essays peak kazakhstan dogs\n
401.5775	0.105	803155	keystroke_e	e	n/a
401.938	0.075	803876	keystroke_s	s	n/a
402.073	0.12	804146	keystroke_s	s	n/a
402.238	0.105	804476	keystroke_a	a	n/a
402.433	0.075	804866	keystroke_y	y	n/a
402.583	0.135	805166	keystroke_s	s	n/a
402.658	0.15	805316	keystroke_Key.space	Key.space	n/a
403.018	0.105	806036	keystroke_p	p	n/a
403.153	0.12	806306	keystroke_e	e	n/a
403.213	0.135	806426	keystroke_a	a	n/a
403.303	0.105	806606	keystroke_k	k	n/a
403.4525	0.12	806905	keystroke_Key.space	Key.space	n/a
403.6775	0.09	807355	keystroke_k	k	n/a
403.7375	0.105	807475	keystroke_a	a	n/a
403.9775	0.105	807955	keystroke_z	z	n/a
404.1875	0.105	808375	keystroke_a	a	n/a
404.3375	0.076	808675	keystroke_k	k	n/a
405.0275	0.12	810055	keystroke_h	h	n/a
405.3125	0.15	810625	keystroke_s	s	n/a
405.5075	0.09	811015	keystroke_t	t	n/a
405.6425	0.105	811285	keystroke_a	a	n/a
405.7325	0.105	811465	keystroke_n	n	n/a
405.8525	0.105	811705	keystroke_Key.space	Key.space	n/a
406.2875	0.105	812575	keystroke_d	d	n/a
406.3935	0.119	812787	keystroke_o	o	n/a
406.4975	0.091	812995	keystroke_g	g	n/a
406.6625	0.105	813325	keystroke_s	s	n/a
406.8875	0.12	813775	keystroke_Key.enter	Key.enter	n/a
407.0125	7.0165	814025	prompt	n/a	sight gear saver shoppers\n
407.623	0.12	815246	keystroke_s	s	n/a
407.698	0.105	815396	keystroke_i	i	n/a
407.818	0.075	815636	keystroke_g	g	n/a
407.908	0.105	815816	keystroke_h	h	n/a
407.968	0.105	815936	keystroke_t	t	n/a
408.028	0.12	816056	keystroke_Key.space	Key.space	n/a
408.3425	0.075	816685	keystroke_g	g	n/a
408.5225	0.18	817045	keystroke_e	e	n/a
408.5975	0.165	817195	keystroke_a	a	n/a
408.6875	0.12	817375	keystroke_r	r	n/a
408.7775	0.12	817555	keystroke_Key.space	Key.space	n/a
408.9275	0.1355	817855	keystroke_s	s	n/a
409.123	0.105	818246	keystroke_a	a	n/a
409.273	0.075	818546	keystroke_v	v	n/a
409.393	0.135	818786	keystroke_e	e	n/a
409.483	0.105	818966	keystroke_r	r	n/a
409.543	0.105	819086	keystroke_Key.space	Key.space	n/a
409.678	0.21	819356	keystroke_s	s	n/a
409.768	0.105	819536	keystroke_h	h	n/a
409.9925	0.075	819985	keystroke_o	o	n/a
410.3375	0.03	820675	keystroke_p	p	n/a
410.4425	0.075	820885	keystroke_p	p	n/a
410.6075	0.045	821215	keystroke_p	p	n/a
410.7275	0.1355	821455	keystroke_e	e	n/a
410.8175	0.1055	821635	keystroke_r	r	n/a
411.073	0.045	822146	keystroke_Key.backspace	Key.backspace	n/a
411.223	0.06	822446	keystroke_Key.backspace	Key.backspace	n/a
411.5525	0.061	823105	keystroke_=	=	n/a
411.5675	0.03	823135	keystroke_Key.backspace	Key.backspace	n/a
411.9425	0.045	823885	keystroke_Key.backspace	Key.backspace	n/a
412.0775	0.06	824155	keystroke_Key.backspace	Key.backspace	n/a
412.6925	0.075	825385	keystroke_p	p	n/a
412.9625	0.12	825925	keystroke_e	e	n/a
413.0375	0.12	826075	keystroke_r	r	n/a
413.2025	0.105	826405	keystroke_s	s	n/a
413.9525	0.075	827905	keystroke_Key.enter	Key.enter	n/a
414.0325	5.0965	828065	prompt	n/a	reggae scottish entered person\n
414.763	0.105	829526	keystroke_r	r	n/a
414.9575	0.075	829915	keystroke_e	e	n/a
415.168	0.045	830336	keystroke_g	g	n/a
415.273	0.09	830546	keystroke_g	g	n/a
415.438	0.12	830876	keystroke_a	a	n/a
415.603	0.135	831206	keystroke_e	e	n/a
415.707	0.121	831414	keystroke_Key.space	Key.space	n/a
415.858	0.1495	831716	keystroke_s	s	n/a
415.9475	0.12	831895	keystroke_c	c	n/a
416.0825	0.09	832165	keystroke_o	o	n/a
416.4425	0.075	832885	keystroke_t	t	n/a
416.593	0.06	833186	keystroke_t	t	n/a
416.668	0.12	833336	keystroke_i	i	n/a
416.758	0.12	833516	keystroke_s	s	n/a
416.863	0.1195	833726	keystroke_h	h	n/a
416.9375	0.135	833875	keystroke_Key.space	Key.space	n/a
417.1025	0.105	834205	keystroke_e	e	n/a
417.2225	0.12	834445	keystroke_n	n	n/a
417.2975	0.075	834595	keystroke_t	t	n/a
417.4025	0.105	834805	keystroke_e	e	n/a
417.4775	0.165	834955	keystroke_r	r	n/a
417.5825	0.12	835165	keystroke_e	e	n/a
417.7925	0.1345	835585	keystroke_d	d	n/a
417.913	0.12	835826	keystroke_Key.space	Key.space	n/a
418.303	0.09	836606	keystroke_p	p	n/a
418.393	0.135	836786	keystroke_e	e	n/a
418.483	0.12	836966	keystroke_r	r	n/a
418.648	0.12	837296	keystroke_s	s	n/a
418.753	0.075	837506	keystroke_o	o	n/a
418.903	0.075	837806	keystroke_n	n	n/a
419.068	0.06	838136	keystroke_Key.enter	Key.enter	n/a
419.132	5.623	838264	prompt	n/a	mozilla precious provincial essays\n
419.743	0.059	839486	keystroke_m	m	n/a
419.862	0.09	839724	keystroke_o	o	n/a
419.967	0.121	839934	keystroke_z	z	n/a
420.073	0.06	840146	keystroke_i	i	n/a
420.252	0.046	840504	keystroke_l	l	n/a
420.357	0.12	840714	keystroke_l	l	n/a
