onset	duration	sample	value	key	prompt_text
28.201	0.119	56402	keystroke_m	m	n/a
28.296	0.1315	56592	keystroke_i	i	n/a
28.4105	0.15	56821	keystroke_n	n	n/a
28.546	0.089	57092	keystroke_g	g	n/a
28.741	0.1045	57482	keystroke_r	r	n/a
28.8305	0.1195	57661	keystroke_u	u	n/a
28.8915	0.1335	57783	keystroke_i	i	n/a
29.161	0.1495	58322	keystroke_Key.tab	Key.tab	n/a
29.955	0.1505	59910	keystroke_Key.down	Key.down	n/a
30.45	0.1055	60900	keystroke_Key.down	Key.down	n/a
30.7205	0.09	61441	keystroke_Key.down	Key.down	n/a
31.291	0.0895	62582	keystroke_Key.enter	Key.enter	n/a
31.65	0.1505	63300	keystroke_Key.down	Key.down	n/a
32.1755	0.12	64351	keystroke_Key.down	Key.down	n/a
32.5655	0.106	65131	keystroke_Key.down	Key.down	n/a
32.8655	0.105	65731	keystroke_Key.down	Key.down	n/a
33.241	0.105	66482	keystroke_Key.up	Key.up	n/a
33.633	0.0725	67266	keystroke_Key.enter	Key.enter	n/a
34.785	0.0905	69570	keystroke_Key.tab	Key.tab	n/a
35.6405	0.1505	71281	keystroke_Key.tab	Key.tab	n/a
42.661	0.4195	85322	keystroke_Key.shift	Key.shift	n/a
42.811	0.1795	85622	keystroke_Key.tab	Key.tab	n/a
43.6655	0.1505	87331	keystroke_Key.tab	Key.tab	n/a
44.5355	0.345	89071	keystroke_Key.shift	Key.shift	n/a
44.6255	0.165	89251	keystroke_Key.tab	Key.tab	n/a
45.3905	0.075	90781	keystroke_Key.tab	Key.tab	n/a
47.2805	0.15	94561	keystroke_Key.tab	Key.tab	n/a
47.8505	0.2155	95701	keystroke_Key.shift	Key.shift	n/a
47.9105	0.165	95821	keystroke_Key.tab	Key.tab	n/a
51.376	0.435	102752	keystroke_Key.ctrl	Key.ctrl	n/a
51.5555	0.105	103111	keystroke_Key.tab	Key.tab	n/a
54.735	0.1505	109470	keystroke_Key.tab	Key.tab	n/a
63.6005	0.12	127201	keystroke_Key.tab	Key.tab	n/a
65.0255	0.12	130051	keystroke_Key.tab	Key.tab	n/a
68.2505	0.285	136501	keystroke_Key.cmd	Key.cmd	n/a
68.4005	0.075	136801	keystroke_c	c	n/a
68.776	0.255	137552	keystroke_Key.ctrl	Key.ctrl	n/a
68.8805	0.1055	137761	keystroke_Key.tab	Key.tab	n/a
69.2865	0.374	138573	keystroke_Key.cmd	Key.cmd	n/a
69.4955	0.105	138991	keystroke_v	v	n/a
75.0355	129.7475	150071	prompt	n/a	the quick brown fox jumps over a lazy dog\n
78.1505	0.1215	156301	keystroke_a	a	n/a
78.841	0.1195	157682	keystroke_b	b	n/a
79.5005	0.12	159001	keystroke_c	c	n/a
80.2205	0.0895	160441	keystroke_d	d	n/a
81.031	0.09	162062	keystroke_e	e	n/a
81.7505	0.105	163501	keystroke_f	f	n/a
82.3655	0.0905	164731	keystroke_g	g	n/a
83.6555	0.105	167311	keystroke_o	o	n/a
84.121	0.1205	168242	keystroke_q	q	n/a
84.601	0.1495	169202	keystroke_p	p	n/a
85.3955	0.09	170791	keystroke_r	r	n/a
85.891	0.1345	171782	keystroke_s	s	n/a
86.356	0.12	172712	keystroke_t	t	n/a
86.6705	0.1505	173341	keystroke_Key.space	Key.space	n/a
87.631	0.1195	175262	keystroke_q	q	n/a
88.023	0.118	176046	keystroke_q	q	n/a
88.3805	0.1205	176761	keystroke_q	q	n/a
88.6655	0.105	177331	keystroke_Key.space	Key.space	n/a
89.1755	0.12	178351	keystroke_Key.space	Key.space	n/a
89.6705	0.12	179341	keystroke_Key.space	Key.space	n/a
90.211	0.12	180422	keystroke_Key.space	Key.space	n/a
90.7955	0.1055	181591	keystroke_Key.space	Key.space	n/a
91.411	0.105	182822	keystroke_q	q	n/a
91.786	0.12	183572	keystroke_q	q	n/a
92.176	0.1195	184352	keystroke_q	q	n/a
92.926	0.15	185852	keystroke_q	q	n/a
93.481	0.15	186962	keystroke_a	a	n/a
94.0655	0.1505	188131	keystroke_a	a	n/a
94.606	0.15	189212	keystroke_a	a	n/a
96.2405	0.135	192481	keystroke_z	z	n/a
96.916	0.1495	193832	keystroke_z	z	n/a
97.486	0.1795	194972	keystroke_z	z	n/a
98.5505	0.1205	197101	keystroke_s	s	n/a
99.211	0.135	198422	keystroke_s	s	n/a
99.736	0.18	199472	keystroke_s	s	n/a
100.636	0.1505	201272	keystroke_w	w	n/a
101.176	0.15	202352	keystroke_w	w	n/a
101.716	0.1495	203432	keystroke_w	w	n/a
102.616	0.1795	205232	keystroke_x	x	n/a
103.156	0.1045	206312	keystroke_x	x	n/a
103.6955	0.1505	207391	keystroke_x	x	n/a
104.656	0.12	209312	keystroke_f	f	n/a
105.2855	0.1055	210571	keystroke_d	d	n/a
105.8555	0.1205	211711	keystroke_f	f	n/a
106.336	0.1795	212672	keystroke_a	a	n/a
106.846	0.1045	213692	keystroke_s	s	n/a
107.401	0.1225	214802	keystroke_d	d	n/a
107.911	0.105	215822	keystroke_f	f	n/a
108.4355	0.1055	216871	keystroke_r	r	n/a
108.901	0.105	217802	keystroke_e	e	n/a
109.411	0.15	218822	keystroke_v	v	n/a
109.8775	0.103	219755	keystroke_c	c	n/a
111.121	0.12	222242	keystroke_Key.space	Key.space	n/a
111.604	0.1465	223208	keystroke_j	j	n/a
112.0505	0.1055	224101	keystroke_j	j	n/a
112.698	0.103	225396	keystroke_k	k	n/a
113.221	0.15	226442	keystroke_j	j	n/a
113.791	0.135	227582	keystroke_k	k	n/a
114.376	0.135	228752	keystroke_l	l	n/a
114.946	0.1195	229892	keystroke_l	l	n/a
115.546	0.1495	231092	keystroke_p	p	n/a
115.9955	0.1505	231991	keystroke_p	p	n/a
116.5655	0.15	233131	keystroke_o	o	n/a
117.1805	0.1505	234361	keystroke_o	o	n/a
117.7805	0.1505	235561	keystroke_i	i	n/a
118.3655	0.1505	236731	keystroke_i	i	n/a
118.936	0.12	237872	keystroke_u	u	n/a
119.446	0.1195	238892	keystroke_u	u	n/a
119.941	0.12	239882	keystroke_n	n	n/a
120.421	0.1195	240842	keystroke_n	n	n/a
120.991	0.1495	241982	keystroke_m	m	n/a
121.531	0.18	243062	keystroke_,	,	n/a
122.1305	0.153	244261	keystroke_.	.	n/a
122.656	0.135	245312	keystroke_.	.	n/a
123.1655	0.1055	246331	keystroke_.	.	n/a
123.946	0.1045	247892	keystroke_;	;	n/a
124.4255	0.1205	248851	keystroke_;	;	n/a
124.9805	0.1205	249961	keystroke_;	;	n/a
125.971	0.15	251942	keystroke_p	p	n/a
126.406	0.15	252812	keystroke_p	p	n/a
126.8585	0.1175	253717	keystroke_p	p	n/a
127.1565	0.1045	254313	keystroke_Key.backspace	Key.backspace	n/a
127.561	0.1045	255122	keystroke_Key.backspace	Key.backspace	n/a
128.071	0.09	256142	keystroke_Key.backspace	Key.backspace	n/a
128.5055	0.1355	257011	keystroke_Key.backspace	Key.backspace	n/a
128.956	0.105	257912	keystroke_Key.backspace	Key.backspace	n/a
129.361	0.1195	258722	keystroke_Key.backspace	Key.backspace	n/a
129.7955	0.1205	259591	keystroke_Key.backspace	Key.backspace	n/a
130.246	0.1045	260492	keystroke_Key.backspace	Key.backspace	n/a
130.6655	0.12	261331	keystroke_Key.backspace	Key.backspace	n/a
131.071	0.1195	262142	keystroke_Key.backspace	Key.backspace	n/a
132.4505	0.1505	264901	keystroke_p	p	n/a
132.841	0.15	265682	keystroke_p	p	n/a
133.336	0.122	266672	keystroke_p	p	n/a
133.756	0.15	267512	keystroke_p	p	n/a
134.191	0.18	268382	keystroke_o	o	n/a
134.8205	0.1355	269641	keystroke_o	o	n/a
135.226	0.122	270452	keystroke_o	o	n/a
136.066	0.12	272132	keystroke_l	l	n/a
136.756	0.1355	273512	keystroke_l	l	n/a
137.461	0.1495	274922	keystroke_l	l	n/a
138.333	0.073	276666	keystroke_l	l	n/a
138.9905	0.12	277981	keystroke_l	l	n/a
139.5755	0.1055	279151	keystroke_i	i	n/a
140.176	0.1045	280352	keystroke_i	i	n/a
141.0605	0.1205	282121	keystroke_i	i	n/a
141.9755	0.1065	283951	keystroke_i	i	n/a
142.801	0.1495	285602	keystroke_i	i	n/a
143.4915	0.149	286983	keystroke_i	i	n/a
144.1805	0.1505	288361	keystroke_k	k	n/a
145.021	0.12	290042	keystroke_k	k	n/a
145.862	0.1185	291724	keystroke_k	k	n/a
147.046	0.1045	294092	keystroke_n	n	n/a
147.7525	0.1185	295505	keystroke_n	n	n/a
151.261	0.075	302522	keystroke_b	b	n/a
152.026	0.075	304052	keystroke_b	b	n/a
154.756	0.075	309512	keystroke_g	g	n/a
155.506	0.12	311012	keystroke_g	g	n/a
156.243	0.133	312486	keystroke_y	y	n/a
156.961	0.1495	313922	keystroke_y	y	n/a
157.591	0.15	315182	keystroke_y	y	n/a
158.416	0.105	316832	keystroke_y	y	n/a
159.751	0.165	319502	keystroke_y	y	n/a
161.176	0.1195	322352	keystroke_t	t	n/a
162.1065	0.1495	324213	keystroke_t	t	n/a
162.901	0.108	325802	keystroke_e	e	n/a
163.816	0.105	327632	keystroke_e	e	n/a
164.716	0.12	329432	keystroke_s	s	n/a
165.4655	0.15	330931	keystroke_s	s	n/a
166.3655	0.1205	332731	keystroke_d	d	n/a
167.2545	0.1165	334509	keystroke_d	d	n/a
167.971	0.1205	335942	keystroke_f	f	n/a
168.766	0.15	337532	keystroke_f	f	n/a
169.366	0.165	338732	keystroke_a	a	n/a
170.0555	0.1055	340111	keystroke_a	a	n/a
171.526	0.18	343052	keystroke_;	;	n/a
172.336	0.135	344672	keystroke_n	n	n/a
172.351	0.1055	344702	keystroke_b	b	n/a
172.831	0.105	345662	keystroke_Key.backspace	Key.backspace	n/a
173.266	0.105	346532	keystroke_Key.backspace	Key.backspace	n/a
173.746	0.1195	347492	keystroke_Key.backspace	Key.backspace	n/a
174.211	0.09	348422	keystroke_Key.backspace	Key.backspace	n/a
174.706	0.0895	349412	keystroke_Key.backspace	Key.backspace	n/a
175.216	0.105	350432	keystroke_n	n	n/a
175.7115	0.1195	351423	keystroke_n	n	n/a
176.3415	0.1195	352683	keystroke_Key.space	Key.space	n/a
176.7915	0.119	353583	keystroke_k	k	n/a
177.2565	0.1045	354513	keystroke_k	k	n/a
177.556	0.1505	355112	keystroke_Key.space	Key.space	n/a
177.991	0.135	355982	keystroke_Key.space	Key.space	n/a
178.4115	0.151	356823	keystroke_Key.space	Key.space	n/a
179.1765	0.119	358353	keystroke_a	a	n/a
179.596	0.135	359192	keystroke_b	b	n/a
180.166	0.1215	360332	keystroke_c	c	n/a
180.5565	0.1045	361113	keystroke_d	d	n/a
181.0665	0.1045	362133	keystroke_e	e	n/a
181.5165	0.149	363033	keystroke_f	f	n/a
181.981	0.105	363962	keystroke_g	g	n/a
182.431	0.105	364862	keystroke_h	h	n/a
182.791	0.1195	365582	keystroke_i	i	n/a
183.2565	0.1045	366513	keystroke_j	j	n/a
183.571	0.105	367142	keystroke_k	k	n/a
183.991	0.1045	367982	keystroke_l	l	n/a
184.621	0.12	369242	keystroke_m	m	n/a
185.251	0.09	370502	keystroke_n	n	n/a
185.761	0.1045	371522	keystroke_o	o	n/a
186.4065	0.15	372813	keystroke_p	p	n/a
187.096	0.122	374192	keystroke_q	q	n/a
187.726	0.122	375452	keystroke_r	r	n/a
188.2955	0.151	376591	keystroke_s	s	n/a
188.851	0.15	377702	keystroke_t	t	n/a
189.751	0.1505	379502	keystroke_u	u	n/a
190.366	0.105	380732	keystroke_v	v	n/a
190.966	0.18	381932	keystroke_w	w	n/a
191.956	0.12	383912	keystroke_x	x	n/a
192.6315	0.1045	385263	keystroke_y	y	n/a
193.2465	0.1195	386493	keystroke_z	z	n/a
194.086	0.12	388172	keystroke_a	a	n/a
194.671	0.1195	389342	keystroke_b	b	n/a
195.2445	0.147	390489	keystroke_c	c	n/a
195.842	0.1195	391684	keystroke_d	d	n/a
196.861	0.18	393722	keystroke_e	e	n/a
197.611	0.1205	395222	keystroke_f	f	n/a
198.211	0.0905	396422	keystroke_g	g	n/a
198.751	0.105	397502	keystroke_o	o	n/a
199.3065	0.12	398613	keystroke_p	p	n/a
199.816	0.1055	399632	keystroke_q	q	n/a
200.281	0.1055	400562	keystroke_r	r	n/a
200.6715	0.12	401343	keystroke_s	s	n/a
201.1215	0.1195	402243	keystroke_t	t	n/a
201.421	0.091	402842	keystroke_Key.space	Key.space	n/a
201.796	0.12	403592	keystroke_u	u	n/a
202.1715	0.12	404343	keystroke_v	v	n/a
202.6065	0.15	405213	keystroke_w	w	n/a
202.8165	0.105	405633	keystroke_Key.space	Key.space	n/a
203.0715	0.105	406143	keystroke_x	x	n/a
203.432	0.149	406864	keystroke_y	y	n/a
203.6865	0.12	407373	keystroke_z	z	n/a
204.706	0.075	409412	keystroke_Key.enter	Key.enter	n/a
204.786	36.387	409572	prompt	n/a	date legitimate rachel victorian\n
218.0565	0.0895	436113	keystroke_d	d	n/a
218.4925	0.1035	436985	keystroke_a	a	n/a
218.957	0.089	437914	keystroke_t	t	n/a
219.616	0.12	439232	keystroke_e	e	n/a
219.901	0.0755	439802	keystroke_Key.space	Key.space	n/a
220.366	0.075	440732	keystroke_l	l	n/a
220.726	0.0755	441452	keystroke_e	e	n/a
221.1785	0.1025	442357	keystroke_g	g	n/a
221.581	0.105	443162	keystroke_i	i	n/a
223.1565	0.06	446313	keystroke_t	t	n/a
223.3065	0.1195	446613	keystroke_i	i	n/a
223.726	0.09	447452	keystroke_m	m	n/a
223.981	0.105	447962	keystroke_a	a	n/a
224.551	0.105	449102	keystroke_t	t	n/a
224.956	0.09	449912	keystroke_e	e	n/a
225.181	0.105	450362	keystroke_Key.space	Key.space	n/a
226.096	0.06	452192	keystroke_r	r	n/a
226.501	0.15	453002	keystroke_a	a	n/a
227.1615	0.1195	454323	keystroke_c	c	n/a
227.8215	0.105	455643	keystroke_h	h	n/a
229.681	0.075	459362	keystroke_e	e	n/a
230.8065	0.0745	461613	keystroke_l	l	n/a
232.096	0.1655	464192	keystroke_Key.space	Key.space	n/a
232.7715	0.105	465543	keystroke_v	v	n/a
233.596	0.0905	467192	keystroke_i	i	n/a
234.3165	0.105	468633	keystroke_c	c	n/a
235.216	0.0905	470432	keystroke_t	t	n/a
235.996	0.1075	471992	keystroke_o	o	n/a
236.836	0.1205	473672	keystroke_r	r	n/a
237.529	0.1175	475058	keystroke_i	i	n/a
239.7315	0.1495	479463	keystroke_a	a	n/a
240.271	0.1505	480542	keystroke_n	n	n/a
241.066	0.1055	482132	keystroke_Key.enter	Key.enter	n/a
241.176	19.7965	482352	prompt	n/a	authorities hung bags contacts\n
243.0915	0.0895	486183	keystroke_a	a	n/a
243.6165	0.1495	487233	keystroke_u	u	n/a
244.171	0.1505	488342	keystroke_t	t	n/a
244.8465	0.1495	489693	keystroke_h	h	n/a
245.5065	0.12	491013	keystroke_o	o	n/a
246.0915	0.12	492183	keystroke_r	r	n/a
246.5115	0.1195	493023	keystroke_i	i	n/a
246.931	0.1055	493862	keystroke_t	t	n/a
247.2165	0.105	494433	keystroke_i	i	n/a
247.7265	0.12	495453	keystroke_e	e	n/a
248.266	0.1355	496532	keystroke_s	s	n/a
248.566	0.1055	497132	keystroke_Key.space	Key.space	n/a
249.181	0.105	498362	keystroke_h	h	n/a
249.736	0.12	499472	keystroke_u	u	n/a
250.2915	0.105	500583	keystroke_n	n	n/a
250.7115	0.105	501423	keystroke_g	g	n/a
251.057	0.1045	502114	keystroke_Key.space	Key.space	n/a
251.461	0.105	502922	keystroke_b	b	n/a
251.8065	0.1045	503613	keystroke_a	a	n/a
252.6615	0.0905	505323	keystroke_g	g	n/a
253.126	0.1505	506252	keystroke_s	s	n/a
255.8415	0.09	511683	keystroke_Key.space	Key.space	n/a
256.1865	0.0445	512373	keystroke_c	c	n/a
256.666	0.1205	513332	keystroke_o	o	n/a
257.1315	0.09	514263	keystroke_n	n	n/a
258.0925	0.1035	516185	keystroke_t	t	n/a
258.3915	0.0895	516783	keystroke_a	a	n/a
258.722	0.119	517444	keystroke_c	c	n/a
259.2015	0.1055	518403	keystroke_t	t	n/a
259.696	0.1205	519392	keystroke_s	s	n/a
260.881	0.09	521762	keystroke_Key.enter	Key.enter	n/a
260.9755	64.8725	521951	prompt	n/a	nylon press configuration board\n
263.371	0.3005	526742	keystroke_Key.cmd	Key.cmd	n/a
263.551	0.0755	527102	keystroke_q	q	n/a
269.4015	0.4795	538803	keystroke_Key.cmd	Key.cmd	n/a
269.686	0.09	539372	keystroke_w	w	n/a
271.816	0.09	543632	keystroke_n	n	n/a
272.266	0.075	544532	keystroke_y	y	n/a
272.686	0.1055	545372	keystroke_l	l	n/a
273.1065	0.12	546213	keystroke_o	o	n/a
273.796	0.1055	547592	keystroke_n	n	n/a
274.1115	0.105	548223	keystroke_Key.space	Key.space	n/a
274.696	0.105	549392	keystroke_p	p	n/a
275.1615	0.1195	550323	keystroke_r	r	n/a
275.536	0.0905	551072	keystroke_e	e	n/a
276.061	0.0755	552122	keystroke_s	s	n/a
276.4065	0.15	552813	keystroke_s	s	n/a
277.081	0.0905	554162	keystroke_j	j	n/a
277.593	0.103	555186	keystroke_k	k	n/a
278.1915	0.0325	556383	keystroke_k	k	n/a
278.555	0.071	557110	keystroke_j	j	n/a
279.0315	0.1195	558063	keystroke_j	j	n/a
279.6315	0.1495	559263	keystroke_t	t	n/a
280.2165	0.12	560433	keystroke_t	t	n/a
280.8765	0.15	561753	keystroke_r	r	n/a
281.581	0.1055	563162	keystroke_r	r	n/a
281.911	0.1505	563822	keystroke_Key.space	Key.space	n/a
282.9465	0.09	565893	keystroke_c	c	n/a
283.3065	0.105	566613	keystroke_o	o	n/a
283.6365	0.12	567273	keystroke_n	n	n/a
283.9365	0.1195	567873	keystroke_f	f	n/a
284.1765	0.1045	568353	keystroke_i	i	n/a
284.581	0.1205	569162	keystroke_g	g	n/a
284.8365	0.09	569673	keystroke_u	u	n/a
285.1665	0.15	570333	keystroke_r	r	n/a
285.646	0.105	571292	keystroke_a	a	n/a
286.1565	0.1195	572313	keystroke_t	t	n/a
286.5615	0.1195	573123	keystroke_i	i	n/a
286.9065	0.1195	573813	keystroke_o	o	n/a
287.5965	0.135	575193	keystroke_n	n	n/a
288.092	0.1795	576184	keystroke_Key.space	Key.space	n/a
297.872	0.1795	595744	keystroke_Key.cmd	Key.cmd	n/a
297.9465	0.09	595893	keystroke_w	w	n/a
307.8015	0.1795	615603	keystroke_c	c	n/a
308.0115	0.1045	616023	keystroke_t	t	n/a
308.2665	0.1075	616533	keystroke_r	r	n/a
320.1615	0.0895	640323	keystroke_g	g	n/a
320.7025	0.1035	641405	keystroke_u	u	n/a
322.2165	0.27	644433	keystroke_Key.right	Key.right	n/a
322.8765	0.1515	645753	keystroke_Key.right	Key.right	n/a
323.7465	0.27	647493	keystroke_Key.cmd	Key.cmd	n/a
323.8665	0.12	647733	keystroke_Key.right	Key.right	n/a
325.757	0.0895	651514	keystroke_Key.enter	Key.enter	n/a
325.851	12.987	651702	prompt	n/a	strict folks saturday quiet\n
326.851	0.1235	653702	keystroke_s	s	n/a
327.392	0.1195	654784	keystroke_t	t	n/a
327.8865	0.09	655773	keystroke_r	r	n/a
328.2315	0.105	656463	keystroke_i	i	n/a
328.561	0.12	657122	keystroke_c	c	n/a
328.966	0.0755	657932	keystroke_t	t	n/a
329.281	0.1205	658562	keystroke_Key.space	Key.space	n/a
329.5665	0.1045	659133	keystroke_f	f	n/a
329.8065	0.1045	659613	keystroke_o	o	n/a
330.2415	0.09	660483	keystroke_l	l	n/a
330.5895	0.102	661179	keystroke_k	k	n/a
331.201	0.0905	662402	keystroke_s	s	n/a
331.5015	0.105	663003	keystroke_Key.space	Key.space	n/a
331.7865	0.105	663573	keystroke_s	s	n/a
332.2815	0.1045	664563	keystroke_a	a	n/a
332.551	0.1205	665102	keystroke_t	t	n/a
333.0765	0.1045	666153	keystroke_u	u	n/a
333.3915	0.12	666783	keystroke_r	r	n/a
333.8565	0.12	667713	keystroke_a	a	n/a
334.517	0.0895	669034	keystroke_Key.backspace	Key.backspace	n/a
334.834	0.117	669668	keystroke_d	d	n/a
335.2065	0.12	670413	keystroke_a	a	n/a
335.626	0.1805	671252	keystroke_y	y	n/a
335.911	0.151	671822	keystroke_Key.space	Key.space	n/a
336.3465	0.1045	672693	keystroke_q	q	n/a
336.8265	0.105	673653	keystroke_u	u	n/a
337.1115	0.09	674223	keystroke_i	i	n/a
337.3365	0.105	674673	keystroke_t	t	n/a
337.7415	0.105	675483	keystroke_e	e	n/a
338.1175	0.1185	676235	keystroke_t	t	n/a
338.3415	0.12	676683	keystroke_Key.space	Key.space	n/a
338.7475	0.089	677495	keystroke_Key.enter	Key.enter	n/a
338.8405	30.0425	677681	prompt	n/a	degree arbor panic somebody\n
339.751	0.091	679502	keystroke_d	d	n/a
340.2315	0.09	680463	keystroke_e	e	n/a
340.741	0.0905	681482	keystroke_g	g	n/a
341.2685	0.1025	682537	keystroke_r	r	n/a
341.596	0.0755	683192	keystroke_e	e	n/a
341.9415	0.0905	683883	keystroke_e	e	n/a
342.2565	0.0905	684513	keystroke_Key.space	Key.space	n/a
343.1715	0.0895	686343	keystroke_a	a	n/a
343.789	0.0875	687578	keystroke_r	r	n/a
344.3115	0.09	688623	keystroke_b	b	n/a
344.6715	0.105	689343	keystroke_o	o	n/a
344.9565	0.075	689913	keystroke_r	r	n/a
345.286	0.1205	690572	keystroke_Key.space	Key.space	n/a
346.8915	0.0895	693783	keystroke_Key.tab	Key.tab	n/a
347.404	0.1175	694808	keystroke_Key.tab	Key.tab	n/a
348.302	0.2095	696604	keystroke_Key.shift	Key.shift	n/a
348.3915	0.075	696783	keystroke_Key.tab	Key.tab	n/a
348.692	0.18	697384	keystroke_Key.alt	Key.alt	n/a
352.0815	0.15	704163	keystroke_Key.cmd	Key.cmd	n/a
352.187	0.0455	704374	keystroke_Key.tab	Key.tab	n/a
352.383	0.179	704766	keystroke_Key.cmd	Key.cmd	n/a
363.1965	0.075	726393	keystroke_p	p	n/a
363.5565	0.12	727113	keystroke_a	a	n/a
363.917	0.0745	727834	keystroke_n	n	n/a
364.172	0.0745	728344	keystroke_i	i	n/a
364.847	0.09	729694	keystroke_c	c	n/a
365.132	0.09	730264	keystroke_Key.space	Key.space	n/a
366.257	0.105	732514	keystroke_s	s	n/a
366.4965	0.1205	732993	keystroke_o	o	n/a
366.722	0.0895	733444	keystroke_m	m	n/a
366.917	0.075	733834	keystroke_e	e	n/a
367.3075	0.074	734615	keystroke_b	b	n/a
367.457	0.09	734914	keystroke_o	o	n/a
367.742	0.095	735484	keystroke_d	d	n/a
367.968	0.104	735936	keystroke_y	y	n/a
368.792	0.0895	737584	keystroke_Key.enter	Key.enter	n/a
368.887	14.8615	737774	prompt	n/a	honey ethiopia eggs greater\n
369.902	0.0895	739804	keystroke_h	h	n/a
370.247	0.09	740494	keystroke_o	o	n/a
370.6515	0.0905	741303	keystroke_n	n	n/a
371.012	0.075	742024	keystroke_e	e	n/a
371.417	0.075	742834	keystroke_y	y	n/a
371.8065	0.09	743613	keystroke_Key.space	Key.space	n/a
372.7965	0.047	745593	keystroke_e	e	n/a
374.147	0.1045	748294	keystroke_t	t	n/a
374.9265	0.0605	749853	keystroke_h	h	n/a
376.607	0.0895	753214	keystroke_i	i	n/a
376.832	0.1195	753664	keystroke_o	o	n/a
377.2815	0.1385	754563	keystroke_p	p	n/a
377.687	0.09	755374	keystroke_i	i	n/a
377.987	0.105	755974	keystroke_a	a	n/a
378.242	0.09	756484	keystroke_Key.space	Key.space	n/a
378.4965	0.0905	756993	keystroke_e	e	n/a
379.0815	0.1055	758163	keystroke_g	g	n/a
379.337	0.09	758674	keystroke_g	g	n/a
379.832	0.1195	759664	keystroke_s	s	n/a
380.162	0.1195	760324	keystroke_Key.space	Key.space	n/a
380.537	0.09	761074	keystroke_g	g	n/a
381.002	0.105	762004	keystroke_r	r	n/a
381.257	0.12	762514	keystroke_e	e	n/a
381.842	0.105	763684	keystroke_a	a	n/a
382.3215	0.0905	764643	keystroke_t	t	n/a
382.772	0.0745	765544	keystroke_e	e	n/a
383.0265	0.1205	766053	keystroke_r	r	n/a
383.6565	0.0905	767313	keystroke_Key.enter	Key.enter	n/a
383.752	48.2065	767504	prompt	n/a	disease concentrations beast passes\n
390.6765	0.09	781353	keystroke_d	d	n/a
390.902	0.075	781804	keystroke_i	i	n/a
391.3515	0.1055	782703	keystroke_s	s	n/a
391.742	0.105	783484	keystroke_e	e	n/a
392.282	0.1195	784564	keystroke_a	a	n/a
400.3965	0.0905	800793	keystroke_d	d	n/a
400.9515	0.0755	801903	keystroke_Key.backspace	Key.backspace	n/a
402.2875	0.0595	804575	keystroke_s	s	n/a
402.6315	0.0905	805263	keystroke_e	e	n/a
402.947	0.1065	805894	keystroke_Key.space	Key.space	n/a
405.1515	0.1055	810303	keystroke_c	c	n/a
405.722	0.105	811444	keystroke_o	o	n/a
406.0515	0.0755	812103	keystroke_n	n	n/a
406.592	0.0895	813184	keystroke_c	c	n/a
406.8465	0.0755	813693	keystroke_e	e	n/a
407.387	0.09	814774	keystroke_n	n	n/a
410.5515	0.1205	821103	keystroke_t	t	n/a
410.957	0.105	821914	keystroke_r	r	n/a
411.302	0.12	822604	keystroke_a	a	n/a
413.162	0.109	826324	keystroke_t	t	n/a
424.2815	0.07	848563	keystroke_i	i	n/a
424.5015	0.12	849003	keystroke_o	o	n/a
424.907	0.0895	849814	keystroke_n	n	n/a
425.132	0.1195	850264	keystroke_Key.space	Key.space	n/a
425.462	0.081	850924	keystroke_b	b	n/a
426.0475	0.119	852095	keystroke_e	e	n/a
426.662	0.1195	853324	keystroke_a	a	n/a
427.2315	0.0905	854463	keystroke_s	s	n/a
427.712	0.0895	855424	keystroke_t	t	n/a
428.012	0.15	856024	keystroke_Key.space	Key.space	n/a
428.807	0.0895	857614	keystroke_p	p	n/a
429.1815	0.1205	858363	keystroke_a	a	n/a
429.647	0.0745	859294	keystroke_s	s	n/a
429.932	0.075	859864	keystroke_s	s	n/a
430.472	0.09	860944	keystroke_e	e	n/a
431.207	0.105	862414	keystroke_s	s	n/a
431.8665	0.0905	863733	keystroke_Key.enter	Key.enter	n/a
431.961	23.322	863922	prompt	n/a	lists banana neighborhood let's\n
435.3615	0.0155	870723	keystroke_l	l	n/a
435.512	0.076	871024	keystroke_i	i	n/a
435.8275	0.0895	871655	keystroke_s	s	n/a
436.1415	0.0605	872283	keystroke_t	t	n/a
436.517	0.06	873034	keystroke_s	s	n/a
436.712	0.12	873424	keystroke_Key.space	Key.space	n/a
437.1465	0.0605	874293	keystroke_b	b	n/a
437.3415	0.09	874683	keystroke_a	a	n/a
437.672	0.09	875344	keystroke_n	n	n/a
437.9125	0.104	875825	keystroke_a	a	n/a
438.378	0.0885	876756	keystroke_n	n	n/a
438.6615	0.0905	877323	keystroke_a	a	n/a
438.917	0.1495	877834	keystroke_Key.space	Key.space	n/a
446.5075	0.104	893015	keystroke_n	n	n/a
446.807	0.105	893614	keystroke_e	e	n/a
447.0925	0.1355	894185	keystroke_i	i	n/a
447.512	0.12	895024	keystroke_g	g	n/a
447.8865	0.0755	895773	keystroke_h	h	n/a
448.069	0.118	896138	keystroke_b	b	n/a
448.442	0.105	896884	keystroke_o	o	n/a
448.7575	0.1195	897515	keystroke_r	r	n/a
449.132	0.09	898264	keystroke_h	h	n/a
449.372	0.09	898744	keystroke_o	o	n/a
449.583	0.074	899166	keystroke_o	o	n/a
449.807	0.09	899614	keystroke_d	d	n/a
450.467	0.12	900934	keystroke_Key.space	Key.space	n/a
450.7375	0.0745	901475	keystroke_l	l	n/a
450.9175	0.1045	901835	keystroke_e	e	n/a
451.2625	0.0895	902525	keystroke_t	t	n/a
451.652	0.12	903304	keystroke_;	;	n/a
451.8925	0.1045	903785	keystroke_s	s	n/a
452.717	0.105	905434	keystroke_Key.backspace	Key.backspace	n/a
452.927	0.09	905854	keystroke_Key.backspace	Key.backspace	n/a
453.107	0.0945	906214	keystroke_Key.backspace	Key.backspace	n/a
453.9025	0.075	907805	keystroke_t	t	n/a
454.4425	0.1495	908885	keystroke_t	t	n/a
454.8325	0.09	909665	keystroke_s	s	n/a
455.2225	0.0595	910445	keystroke_Key.enter	Key.enter	n/a
455.2865	10.497	910573	prompt	n/a	loaded accepts unless motor\n
456.2425	0.1055	912485	keystroke_l	l	n/a
456.5875	0.075	913175	keystroke_o	o	n/a
456.8425	0.18	913685	keystroke_a	a	n/a
457.202	0.0905	914404	keystroke_d	d	n/a
457.4125	0.09	914825	keystroke_e	e	n/a
457.697	0.1055	915394	keystroke_d	d	n/a
458.0435	0.119	916087	keystroke_Key.space	Key.space	n/a
458.3275	0.105	916655	keystroke_a	a	n/a
458.6735	0.0895	917347	keystroke_c	c	n/a
458.9125	0.09	917825	keystroke_c	c	n/a
459.2575	0.09	918515	keystroke_e	e	n/a
459.602	0.09	919204	keystroke_p	p	n/a
459.842	0.0755	919684	keystroke_t	t	n/a
460.1275	0.075	920255	keystroke_s	s	n/a
460.352	0.1205	920704	keystroke_Key.space	Key.space	n/a
462.1375	0.0295	924275	keystroke_u	u	n/a
462.3625	0.075	924725	keystroke_n	n	n/a
462.6475	0.075	925295	keystroke_l	l	n/a
462.8575	0.075	925715	keystroke_e	e	n/a
463.1275	0.06	926255	keystroke_s	s	n/a
463.3375	0.0465	926675	keystroke_s	s	n/a
463.592	0.09	927184	keystroke_Key.space	Key.space	n/a
464.312	0.0755	928624	keystroke_m	m	n/a
464.5525	0.075	929105	keystroke_o	o	n/a
464.8075	0.0895	929615	keystroke_t	t	n/a
465.2125	0.075	930425	keystroke_o	o	n/a
465.452	0.1055	930904	keystroke_r	r	n/a
465.708	0.074	931416	keystroke_Key.enter	Key.enter	n/a
465.786	25.453	931572	prompt	n/a	trailers offline pizza league\n
466.892	0.09	933784	keystroke_t	t	n/a
467.1175	0.09	934235	keystroke_r	r	n/a
467.4025	0.105	934805	keystroke_a	a	n/a
467.6425	0.09	935285	keystroke_i	i	n/a
467.897	0.0755	935794	keystroke_l	l	n/a
468.3475	0.09	936695	keystroke_e	e	n/a
468.647	0.0755	937294	keystroke_r	r	n/a
468.9925	0.0745	937985	keystroke_s	s	n/a
469.1725	0.105	938345	keystroke_Key.space	Key.space	n/a
469.4875	0.0605	938975	keystroke_o	o	n/a
469.652	0.075	939304	keystroke_f	f	n/a
469.8475	0.075	939695	keystroke_f	f	n/a
470.207	0.1505	940414	keystroke_l	l	n/a
470.4925	0.0895	940985	keystroke_i	i	n/a
470.7775	0.0895	941555	keystroke_n	n	n/a
471.063	0.089	942126	keystroke_e	e	n/a
471.3625	0.1045	942725	keystroke_Key.space	Key.space	n/a
471.947	0.12	943894	keystroke_p	p	n/a
472.323	0.0895	944646	keystroke_i	i	n/a
472.9225	0.15	945845	keystroke_a	a	n/a
473.7775	0.18	947555	keystroke_z	z	n/a
474.3475	0.1495	948695	keystroke_z	z	n/a
474.8575	0.135	949715	keystroke_a	a	n/a
475.6225	0.1195	951245	keystroke_Key.space	Key.space	n/a
476.0725	0.105	952145	keystroke_l	l	n/a
476.477	0.09	952954	keystroke_e	e	n/a
477.2275	0.105	954455	keystroke_d	d	n/a
477.8765	0.101	955753	keystroke_c	c	n/a
478.607	0.1055	957214	keystroke_a	a	n/a
479.282	0.12	958564	keystroke_g	g	n/a
479.912	0.1055	959824	keystroke_r	r	n/a
482.0425	0.15	964085	keystroke_g	g	n/a
482.6575	0.18	965315	keystroke_t	t	n/a
483.2275	0.154	966455	keystroke_g	g	n/a
483.797	0.1805	967594	keystroke_r	r	n/a
484.3375	0.15	968675	keystroke_g	g	n/a
484.7575	0.15	969515	keystroke_r	r	n/a
485.7175	0.1495	971435	keystroke_g	g	n/a
486.482	0.2105	972964	keystroke_b	b	n/a
487.8175	0.06	975635	keystroke_y	y	n/a
487.832	0.0305	975664	keystroke_u	u	n/a
488.8075	0.212	977615	keystroke_u	u	n/a
489.8275	0.18	979655	keystroke_u	u	n/a
490.397	0.1205	980794	keystroke_e	e	n/a
491.0875	0.15	982175	keystroke_Key.enter	Key.enter	n/a
491.2415	21.312	982483	prompt	n/a	beth answered mileage subsequent\n
492.5125	0.105	985025	keystroke_b	b	n/a
492.978	0.1205	985956	keystroke_e	e	n/a
493.8025	0.12	987605	keystroke_t	t	n/a
494.612	0.1505	989224	keystroke_h	h	n/a
495.2125	0.18	990425	keystroke_y	y	n/a
495.797	0.2105	991594	keystroke_y	y	n/a
496.472	0.1805	992944	keystroke_u	u	n/a
497.1625	0.1805	994325	keystroke_m	m	n/a
498.0325	0.135	996065	keystroke_m	m	n/a
498.6625	0.1345	997325	keystroke_n	n	n/a
499.488	0.12	998976	keystroke_n	n	n/a
500.7625	0.09	1001525	keystroke_a	a	n/a
501.3775	0.12	1002755	keystroke_n	n	n/a
502.0525	0.0905	1004105	keystroke_t	t	n/a
502.518	0.0745	1005036	keystroke_h	h	n/a
502.8325	0.12	1005665	keystroke_Key.space	Key.space	n/a
503.403	0.135	1006806	keystroke_s	s	n/a
503.9125	0.0905	1007825	keystroke_w	w	n/a
504.243	0.1495	1008486	keystroke_e	e	n/a
504.5725	0.1355	1009145	keystroke_r	r	n/a
505.263	0.15	1010526	keystroke_e	e	n/a
505.773	0.1045	1011546	keystroke_d	d	n/a
506.058	0.105	1012116	keystroke_Key.space	Key.space	n/a
506.823	0.0745	1013646	keystroke_m	m	n/a
507.1225	0.1205	1014245	keystroke_i	i	n/a
507.513	0.105	1015026	keystroke_l	l	n/a
507.993	0.105	1015986	keystroke_e	e	n/a
508.3565	0.0865	1016713	keystroke_a	a	n/a
508.578	0.1195	1017156	keystroke_g	g	n/a
508.818	0.09	1017636	keystroke_e	e	n/a
509.073	0.1495	1018146	keystroke_Key.space	Key.space	n/a
509.478	0.0745	1018956	keystroke_s	s	n/a
509.628	0.1045	1019256	keystroke_u	u	n/a
509.8225	0.1055	1019645	keystroke_b	b	n/a
510.3175	0.0905	1020635	keystroke_s	s	n/a
510.5575	0.1055	1021115	keystroke_e	e	n/a
510.963	0.1195	1021926	keystroke_q	q	n/a
511.293	0.1045	1022586	keystroke_u	u	n/a
511.458	0.105	1022916	keystroke_e	e	n/a
511.7425	0.0905	1023485	keystroke_n	n	n/a
511.9675	0.1205	1023935	keystroke_t	t	n/a
512.403	0.1495	1024806	keystroke_Key.enter	Key.enter	n/a
512.5565	13.2735	1025113	prompt	n/a	expanding pete belts closely\n
514.638	0.105	1029276	keystroke_e	e	n/a
515.0425	0.1505	1030085	keystroke_x	x	n/a
515.688	0.105	1031376	keystroke_p	p	n/a
516.2135	0.104	1032427	keystroke_a	a	n/a
516.618	0.1045	1033236	keystroke_n	n	n/a
516.993	0.0895	1033986	keystroke_d	d	n/a
517.458	0.105	1034916	keystroke_i	i	n/a
517.9395	0.073	1035879	keystroke_n	n	n/a
518.388	0.06	1036776	keystroke_g	g	n/a
518.823	0.105	1037646	keystroke_Key.space	Key.space	n/a
519.243	0.09	1038486	keystroke_p	p	n/a
519.633	0.0895	1039266	keystroke_e	e	n/a
520.023	0.105	1040046	keystroke_t	t	n/a
520.473	0.0895	1040946	keystroke_e	e	n/a
520.818	0.0895	1041636	keystroke_Key.space	Key.space	n/a
521.118	0.0895	1042236	keystroke_b	b	n/a
521.523	0.0745	1043046	keystroke_e	e	n/a
521.8825	0.1055	1043765	keystroke_l	l	n/a
522.228	0.09	1044456	keystroke_t	t	n/a
522.618	0.09	1045236	keystroke_s	s	n/a
522.918	0.105	1045836	keystroke_Key.space	Key.space	n/a
523.263	0.0895	1046526	keystroke_c	c	n/a
523.533	0.105	1047066	keystroke_l	l	n/a
523.848	0.1195	1047696	keystroke_o	o	n/a
524.2075	0.09	1048415	keystroke_s	s	n/a
524.5975	0.1055	1049195	keystroke_e	e	n/a
524.958	0.0895	1049916	keystroke_l	l	n/a
525.348	0.1045	1050696	keystroke_y	y	n/a
525.738	0.0905	1051476	keystroke_Key.enter	Key.enter	n/a
525.8325	14.789	1051665	prompt	n/a	allergy peas complex membrane\n
531.1825	0.1055	1062365	keystroke_a	a	n/a
531.543	0.093	1063086	keystroke_l	l	n/a
531.813	0.09	1063626	keystroke_l	l	n/a
532.1125	0.1055	1064225	keystroke_e	e	n/a
532.4435	0.089	1064887	keystroke_r	r	n/a
532.7125	0.0905	1065425	keystroke_g	g	n/a
533.2675	0.1055	1066535	keystroke_y	y	n/a
533.538	0.105	1067076	keystroke_Key.space	Key.space	n/a
533.8375	0.1205	1067675	keystroke_p	p	n/a
534.033	0.105	1068066	keystroke_e	e	n/a
534.303	0.09	1068606	keystroke_a	a	n/a
534.6475	0.0755	1069295	keystroke_s	s	n/a
534.963	0.15	1069926	keystroke_Key.space	Key.space	n/a
535.3075	0.1055	1070615	keystroke_c	c	n/a
535.5795	0.103	1071159	keystroke_o	o	n/a
535.878	0.075	1071756	keystroke_m	m	n/a
536.133	0.09	1072266	keystroke_p	p	n/a
536.388	0.105	1072776	keystroke_l	l	n/a
536.763	0.1195	1073526	keystroke_e	e	n/a
537.138	0.12	1074276	keystroke_x	x	n/a
537.513	0.105	1075026	keystroke_Key.space	Key.space	n/a
537.858	0.105	1075716	keystroke_m	m	n/a
538.128	0.108	1076256	keystroke_e	e	n/a
538.3825	0.1055	1076765	keystroke_m	m	n/a
538.6975	0.0905	1077395	keystroke_b	b	n/a
539.208	0.09	1078416	keystroke_r	r	n/a
539.523	0.105	1079046	keystroke_a	a	n/a
539.8825	0.0905	1079765	keystroke_n	n	n/a
540.078	0.0895	1080156	keystroke_e	e	n/a
540.513	0.105	1081026	keystroke_Key.enter	Key.enter	n/a
540.6245	14.1545	1081249	prompt	n/a	song plasma massachusetts barn\n
541.6675	0.06	1083335	keystroke_s	s	n/a
542.8125	0.07	1085625	keystroke_o	o	n/a
543.138	0.075	1086276	keystroke_n	n	n/a
543.277	0.101	1086554	keystroke_g	g	n/a
543.5875	0.1055	1087175	keystroke_Key.space	Key.space	n/a
544.2775	0.105	1088555	keystroke_p	p	n/a
544.638	0.075	1089276	keystroke_l	l	n/a
544.848	0.075	1089696	keystroke_a	a	n/a
545.1175	0.1055	1090235	keystroke_s	s	n/a
545.373	0.105	1090746	keystroke_m	m	n/a
545.538	0.105	1091076	keystroke_a	a	n/a
545.838	0.105	1091676	keystroke_Key.space	Key.space	n/a
546.424	0.104	1092848	keystroke_m	m	n/a
546.7825	0.1205	1093565	keystroke_a	a	n/a
547.203	0.09	1094406	keystroke_s	s	n/a
547.443	0.079	1094886	keystroke_s	s	n/a
548.1025	0.1205	1096205	keystroke_a	a	n/a
549.873	0.09	1099746	keystroke_c	c	n/a
550.383	0.1205	1100766	keystroke_h	h	n/a
550.6675	0.1055	1101335	keystroke_u	u	n/a
551.148	0.1045	1102296	keystroke_s	s	n/a
551.628	0.105	1103256	keystroke_e	e	n/a
551.9275	0.1055	1103855	keystroke_t	t	n/a
552.423	0.1085	1104846	keystroke_t	t	n/a
552.813	0.15	1105626	keystroke_s	s	n/a
553.143	0.135	1106286	keystroke_Key.space	Key.space	n/a
553.459	0.104	1106918	keystroke_b	b	n/a
553.7585	0.1345	1107517	keystroke_a	a	n/a
554.0275	0.1205	1108055	keystroke_r	r	n/a
554.343	0.105	1108686	keystroke_n	n	n/a
554.703	0.0745	1109406	keystroke_Key.enter	Key.enter	n/a
554.7825	34.3625	1109565	prompt	n/a	pole actor experiment rain\n
581.553	0.1055	1163106	keystroke_p	p	n/a
581.7935	0.104	1163587	keystroke_o	o	n/a
582.048	0.1345	1164096	keystroke_l	l	n/a
582.4225	0.075	1164845	keystroke_e	e	n/a
582.6475	0.075	1165295	keystroke_Key.space	Key.space	n/a
582.8755	0.087	1165751	keystroke_a	a	n/a
583.158	0.105	1166316	keystroke_c	c	n/a
583.458	0.09	1166916	keystroke_t	t	n/a
583.728	0.106	1167456	keystroke_o	o	n/a
584.133	0.1195	1168266	keystroke_r	r	n/a
584.313	0.09	1168626	keystroke_Key.space	Key.space	n/a
584.5525	0.0905	1169105	keystroke_e	e	n/a
584.9135	0.1495	1169827	keystroke_x	x	n/a
585.273	0.075	1170546	keystroke_p	p	n/a
585.4975	0.0755	1170995	keystroke_e	e	n/a
585.8885	0.0745	1171777	keystroke_r	r	n/a
586.203	0.09	1172406	keystroke_i	i	n/a
586.533	0.09	1173066	keystroke_m	m	n/a
586.6975	0.0905	1173395	keystroke_e	e	n/a
586.938	0.075	1173876	keystroke_n	n	n/a
587.1025	0.0905	1174205	keystroke_t	t	n/a
587.403	0.12	1174806	keystroke_Key.space	Key.space	n/a
587.718	0.075	1175436	keystroke_r	r	n/a
588.018	0.105	1176036	keystroke_a	a	n/a
588.4075	0.09	1176815	keystroke_i	i	n/a
588.738	0.09	1177476	keystroke_n	n	n/a
589.0825	0.0605	1178165	keystroke_Key.enter	Key.enter	n/a
589.1475	30.852	1178295	prompt	n/a	tsunami attractions achievements corpus\n
590.3585	0.075	1180717	keystroke_t	t	n/a
590.5675	0.0905	1181135	keystroke_s	s	n/a
592.2325	0.0755	1184465	keystroke_u	u	n/a
592.759	0.074	1185518	keystroke_n	n	n/a
593.013	0.015	1186026	keystroke_a	a	n/a
593.2385	0.1045	1186477	keystroke_m	m	n/a
593.5675	0.076	1187135	keystroke_i	i	n/a
593.733	0.105	1187466	keystroke_Key.space	Key.space	n/a
594.363	0.0895	1188726	keystroke_a	a	n/a
594.783	0.075	1189566	keystroke_t	t	n/a
595.0235	0.0595	1190047	keystroke_t	t	n/a
595.323	0.0905	1190646	keystroke_r	r	n/a
595.593	0.105	1191186	keystroke_a	a	n/a
595.923	0.09	1191846	keystroke_c	c	n/a
596.3285	0.075	1192657	keystroke_t	t	n/a
596.673	0.0905	1193346	keystroke_i	i	n/a
596.928	0.0755	1193856	keystroke_o	o	n/a
597.183	0.075	1194366	keystroke_n	n	n/a
597.5015	0.0865	1195003	keystroke_s	s	n/a
597.768	0.09	1195536	keystroke_Key.space	Key.space	n/a
613.4585	0.1345	1226917	keystroke_a	a	n/a
613.908	0.1095	1227816	keystroke_c	c	n/a
614.1635	0.0895	1228327	keystroke_h	h	n/a
614.4935	0.0895	1228987	keystroke_i	i	n/a
614.8095	0.0885	1229619	keystroke_e	e	n/a
615.0935	0.12	1230187	keystroke_v	v	n/a
615.468	0.0905	1230936	keystroke_e	e	n/a
616.038	0.1055	1232076	keystroke_m	m	n/a
616.1735	0.075	1232347	keystroke_e	e	n/a
616.4285	0.075	1232857	keystroke_n	n	n/a
616.6235	0.0595	1233247	keystroke_t	t	n/a
616.9235	0.0895	1233847	keystroke_s	s	n/a
617.1335	0.1495	1234267	keystroke_Key.space	Key.space	n/a
617.5535	0.09	1235107	keystroke_c	c	n/a
617.9585	0.06	1235917	keystroke_o	o	n/a
618.3785	0.0895	1236757	keystroke_r	r	n/a
618.7385	0.1045	1237477	keystroke_p	p	n/a
619.1435	0.09	1238287	keystroke_u	u	n/a
619.6085	0.1045	1239217	keystroke_s	s	n/a
619.8935	0.1045	1239787	keystroke_Key.enter	Key.enter	n/a
620.004	12.566	1240008	prompt	n/a	prepared hugh elect criminal\n
621.0935	0.0745	1242187	keystroke_p	p	n/a
621.694	0.1195	1243388	keystroke_r	r	n/a
622.0395	0.0735	1244079	keystroke_e	e	n/a
622.683	0.1055	1245366	keystroke_p	p	n/a
623.1635	0.1075	1246327	keystroke_a	a	n/a
623.6885	0.12	1247377	keystroke_r	r	n/a
624.0635	0.09	1248127	keystroke_e	e	n/a
624.724	0.1195	1249448	keystroke_d	d	n/a
625.0245	0.104	1250049	keystroke_Key.space	Key.space	n/a
625.4285	0.075	1250857	keystroke_h	h	n/a
625.6685	0.09	1251337	keystroke_u	u	n/a
626.2235	0.135	1252447	keystroke_g	g	n/a
626.8385	0.0765	1253677	keystroke_h	h	n/a
627.049	0.1495	1254098	keystroke_Key.space	Key.space	n/a
627.4235	0.15	1254847	keystroke_e	e	n/a
627.9935	0.12	1255987	keystroke_l	l	n/a
628.339	0.1055	1256678	keystroke_e	e	n/a
628.6535	0.1205	1257307	keystroke_c	c	n/a
629.074	0.1045	1258148	keystroke_t	t	n/a
629.3735	0.1205	1258747	keystroke_Key.space	Key.space	n/a
629.8985	0.105	1259797	keystroke_c	c	n/a
630.289	0.0895	1260578	keystroke_r	r	n/a
630.559	0.105	1261118	keystroke_i	i	n/a
630.844	0.075	1261688	keystroke_m	m	n/a
631.0535	0.09	1262107	keystroke_i	i	n/a
631.2785	0.0605	1262557	keystroke_n	n	n/a
631.744	0.09	1263488	keystroke_a	a	n/a
632.0735	0.1055	1264147	keystroke_l	l	n/a
632.494	0.0745	1264988	keystroke_Key.enter	Key.enter	n/a
632.573	27.327	1265146	prompt	n/a	strategy differently grass warriors\n
633.4095	0.076	1266819	keystroke_s	s	n/a
633.7685	0.0905	1267537	keystroke_t	t	n/a
634.249	0.1045	1268498	keystroke_r	r	n/a
634.579	0.1195	1269158	keystroke_a	a	n/a
635.059	0.105	1270118	keystroke_t	t	n/a
635.3435	0.0755	1270687	keystroke_e	e	n/a
635.719	0.0745	1271438	keystroke_g	g	n/a
635.974	0.15	1271948	keystroke_y	y	n/a
636.1835	0.1205	1272367	keystroke_Key.space	Key.space	n/a
636.514	0.075	1273028	keystroke_d	d	n/a
636.8885	0.0755	1273777	keystroke_i	i	n/a
637.0985	0.0605	1274197	keystroke_f	f	n/a
637.2965	0.072	1274593	keystroke_f	f	n/a
637.8045	0.0745	1275609	keystroke_e	e	n/a
638.149	0.079	1276298	keystroke_r	r	n/a
638.5265	0.072	1277053	keystroke_n	n	n/a
639.409	0.03	1278818	keystroke_t	t	n/a
639.5885	0.062	1279177	keystroke_t	t	n/a
640.0535	0.0755	1280107	keystroke_t	t	n/a
640.4145	0.0745	1280829	keystroke_l	l	n/a
640.774	0.0895	1281548	keystroke_s	s	n/a
641.2535	0.0905	1282507	keystroke_y	y	n/a
641.629	0.09	1283258	keystroke_y	y	n/a
642.244	0.09	1284488	keystroke_y	y	n/a
643.0385	0.0905	1286077	keystroke_y	y	n/a
643.579	0.1045	1287158	keystroke_s	s	n/a
644.014	0.09	1288028	keystroke_s	s	n/a
644.5835	0.0905	1289167	keystroke_s	s	n/a
645.139	0.105	1290278	keystroke_s	s	n/a
645.529	0.105	1291058	keystroke_i	i	n/a
646.129	0.0895	1292258	keystroke_i	i	n/a
646.639	0.105	1293278	keystroke_i	i	n/a
647.2685	0.1055	1294537	keystroke_i	i	n/a
647.539	0.1195	1295078	keystroke_d	d	n/a
648.079	0.1045	1296158	keystroke_d	d	n/a
648.5435	0.1055	1297087	keystroke_d	d	n/a
648.7535	0.1055	1297507	keystroke_k	k	n/a
649.1885	0.0905	1298377	keystroke_k	k	n/a
649.6685	0.1055	1299337	keystroke_k	k	n/a
650.2985	0.1205	1300597	keystroke_Key.space	Key.space	n/a
650.8385	0.0905	1301677	keystroke_g	g	n/a
651.139	0.0895	1302278	keystroke_r	r	n/a
651.529	0.12	1303058	keystroke_a	a	n/a
651.8595	0.1045	1303719	keystroke_s	s	n/a
652.279	0.1195	1304558	keystroke_Key.space	Key.space	n/a
652.655	0.119	1305310	keystroke_s	s	n/a
653.059	0.15	1306118	keystroke_Key.space	Key.space	n/a
653.539	0.105	1307078	keystroke_w	w	n/a
653.8535	0.1055	1307707	keystroke_a	a	n/a
654.1835	0.1505	1308367	keystroke_Key.space	Key.space	n/a
654.6495	0.119	1309299	keystroke_a	a	n/a
654.994	0.15	1309988	keystroke_Key.space	Key.space	n/a
655.354	0.105	1310708	keystroke_r	r	n/a
655.624	0.12	1311248	keystroke_r	r	n/a
655.9685	0.1505	1311937	keystroke_Key.space	Key.space	n/a
656.2835	0.1205	1312567	keystroke_Key.space	Key.space	n/a
656.614	0.12	1313228	keystroke_Key.space	Key.space	n/a
657.109	0.12	1314218	keystroke_i	i	n/a
657.454	0.12	1314908	keystroke_o	o	n/a
657.8295	0.1045	1315659	keystroke_r	r	n/a
658.174	0.12	1316348	keystroke_s	s	n/a
658.924	0.105	1317848	keystroke_Key.space	Key.space	n/a
659.794	0.1045	1319588	keystroke_Key.enter	Key.enter	n/a
659.9025	10.903	1319805	prompt	n/a	columbia scenes boys overall\n
660.979	0.105	1321958	keystroke_c	c	n/a
661.279	0.1195	1322558	keystroke_o	o	n/a
661.6395	0.1045	1323279	keystroke_l	l	n/a
661.864	0.106	1323728	keystroke_u	u	n/a
662.2095	0.1045	1324419	keystroke_m	m	n/a
662.4795	0.0745	1324959	keystroke_b	b	n/a
662.8395	0.09	1325679	keystroke_i	i	n/a
663.139	0.095	1326278	keystroke_a	a	n/a
663.3945	0.1195	1326789	keystroke_Key.space	Key.space	n/a
663.7245	0.0895	1327449	keystroke_s	s	n/a
664.0095	0.0895	1328019	keystroke_c	c	n/a
664.3095	0.1045	1328619	keystroke_e	e	n/a
664.579	0.105	1329158	keystroke_n	n	n/a
664.8645	0.1195	1329729	keystroke_e	e	n/a
665.209	0.0755	1330418	keystroke_Key.space	Key.space	n/a
665.6745	0.105	1331349	keystroke_s	s	n/a
665.944	0.1055	1331888	keystroke_Key.space	Key.space	n/a
666.215	0.0895	1332430	keystroke_b	b	n/a
666.499	0.105	1332998	keystroke_o	o	n/a
666.769	0.105	1333538	keystroke_y	y	n/a
666.979	0.09	1333958	keystroke_s	s	n/a
667.369	0.1205	1334738	keystroke_Key.space	Key.space	n/a
668.541	0.088	1337082	keystroke_o	o	n/a
668.7795	0.1045	1337559	keystroke_v	v	n/a
669.0945	0.0895	1338189	keystroke_e	e	n/a
669.425	0.089	1338850	keystroke_r	r	n/a
669.739	0.0755	1339478	keystroke_a	a	n/a
669.9945	0.0745	1339989	keystroke_l	l	n/a
670.2195	0.075	1340439	keystroke_l	l	n/a
670.714	0.0905	1341428	keystroke_Key.enter	Key.enter	n/a
670.8085	15.538	1341617	prompt	n/a	warranties instant lands regional\n
676.174	0.06	1352348	keystroke_w	w	n/a
676.5945	0.0745	1353189	keystroke_o	o	n/a
676.984	0.09	1353968	keystroke_Key.backspace	Key.backspace	n/a
677.299	0.1055	1354598	keystroke_a	a	n/a
677.661	0.0735	1355322	keystroke_r	r	n/a
677.854	0.0755	1355708	keystroke_r	r	n/a
678.1095	0.12	1356219	keystroke_a	a	n/a
678.3945	0.1045	1356789	keystroke_n	n	n/a
678.7245	0.105	1357449	keystroke_t	t	n/a
679.264	0.105	1358528	keystroke_i	i	n/a
679.4445	0.135	1358889	keystroke_e	e	n/a
679.7595	0.06	1359519	keystroke_s	s	n/a
679.999	0.15	1359998	keystroke_Key.space	Key.space	n/a
680.3295	0.09	1360659	keystroke_i	i	n/a
680.584	0.1055	1361168	keystroke_n	n	n/a
680.914	0.105	1361828	keystroke_s	s	n/a
681.2445	0.0745	1362489	keystroke_t	t	n/a
681.454	0.1205	1362908	keystroke_a	a	n/a
681.7395	0.0895	1363479	keystroke_n	n	n/a
681.9945	0.0895	1363989	keystroke_t	t	n/a
682.2495	0.1045	1364499	keystroke_Key.space	Key.space	n/a
682.4595	0.09	1364919	keystroke_l	l	n/a
682.6095	0.0935	1365219	keystroke_a	a	n/a
682.8195	0.0895	1365639	keystroke_n	n	n/a
683.074	0.1265	1366148	keystroke_d	d	n/a
683.3745	0.0915	1366749	keystroke_s	s	n/a
683.6605	0.119	1367321	keystroke_Key.space	Key.space	n/a
683.9745	0.135	1367949	keystroke_r	r	n/a
684.0645	0.1345	1368129	keystroke_e	e	n/a
684.634	0.0755	1369268	keystroke_g	g	n/a
684.9345	0.0895	1369869	keystroke_i	i	n/a
685.1595	0.0895	1370319	keystroke_o	o	n/a
685.4895	0.09	1370979	keystroke_n	n	n/a
685.729	0.1055	1371458	keystroke_a	a	n/a
685.8945	0.1205	1371789	keystroke_l	l	n/a
686.269	0.075	1372538	keystroke_Key.enter	Key.enter	n/a
686.35	8.186	1372700	prompt	n/a	email turkey discussed americans\n
687.2295	0.06	1374459	keystroke_e	e	n/a
687.5295	0.0895	1375059	keystroke_m	m	n/a
687.664	0.09	1375328	keystroke_a	a	n/a
687.8145	0.12	1375629	keystroke_i	i	n/a
688.084	0.091	1376168	keystroke_l	l	n/a
688.2945	0.1045	1376589	keystroke_Key.space	Key.space	n/a
688.6245	0.0745	1377249	keystroke_t	t	n/a
688.8495	0.1045	1377699	keystroke_u	u	n/a
689.0005	0.1035	1378001	keystroke_r	r	n/a
689.3595	0.09	1378719	keystroke_k	k	n/a
689.539	0.1055	1379078	keystroke_e	e	n/a
689.7795	0.1045	1379559	keystroke_y	y	n/a
689.899	0.1505	1379798	keystroke_Key.space	Key.space	n/a
690.26	0.1045	1380520	keystroke_d	d	n/a
690.3945	0.12	1380789	keystroke_i	i	n/a
690.5895	0.105	1381179	keystroke_s	s	n/a
690.8595	0.06	1381719	keystroke_c	c	n/a
691.084	0.0905	1382168	keystroke_u	u	n/a
691.3095	0.075	1382619	keystroke_s	s	n/a
691.4895	0.105	1382979	keystroke_s	s	n/a
691.7595	0.075	1383519	keystroke_e	e	n/a
691.984	0.0605	1383968	keystroke_d	d	n/a
692.1945	0.1045	1384389	keystroke_Key.space	Key.space	n/a
692.453	0.0715	1384906	keystroke_a	a	n/a
692.69	0.1045	1385380	keystroke_m	m	n/a
692.899	0.0905	1385798	keystroke_e	e	n/a
693.1995	0.075	1386399	keystroke_r	r	n/a
693.3945	0.0895	1386789	keystroke_i	i	n/a
693.5745	0.075	1387149	keystroke_c	c	n/a
693.784	0.0755	1387568	keystroke_a	a	n/a
693.9345	0.09	1387869	keystroke_n	n	n/a
694.2495	0.075	1388499	keystroke_s	s	n/a
694.46	0.0745	1388920	keystroke_Key.enter	Key.enter	n/a
694.5395	17.2915	1389079	prompt	n/a	gras technology itself photographers\n
695.584	0.076	1391168	keystroke_g	g	n/a
695.8395	0.0895	1391679	keystroke_r	r	n/a
696.0795	0.0895	1392159	keystroke_a	a	n/a
696.3495	0.1045	1392699	keystroke_s	s	n/a
696.9045	0.121	1393809	keystroke_Key.space	Key.space	n/a
697.2645	0.09	1394529	keystroke_t	t	n/a
697.5195	0.075	1395039	keystroke_e	e	n/a
697.894	0.105	1395788	keystroke_c	c	n/a
698.2095	0.09	1396419	keystroke_h	h	n/a
698.5395	0.075	1397079	keystroke_n	n	n/a
698.7795	0.0895	1397559	keystroke_o	o	n/a
699.0495	0.0745	1398099	keystroke_l	l	n/a
699.3645	0.1345	1398729	keystroke_o	o	n/a
703.969	0.0755	1407938	keystroke_g	g	n/a
704.226	0.058	1408452	keystroke_y	y	n/a
704.314	0.1505	1408628	keystroke_Key.space	Key.space	n/a
705.124	0.075	1410248	keystroke_l	l	n/a
705.469	0.06	1410938	keystroke_Key.backspace	Key.backspace	n/a
705.6795	0.0895	1411359	keystroke_i	i	n/a
705.9495	0.1045	1411899	keystroke_t	t	n/a
706.234	0.0755	1412468	keystroke_s	s	n/a
706.4455	0.089	1412891	keystroke_e	e	n/a
706.669	0.0905	1413338	keystroke_l	l	n/a
706.984	0.0905	1413968	keystroke_f	f	n/a
707.2245	0.0895	1414449	keystroke_Key.space	Key.space	n/a
707.7645	0.075	1415529	keystroke_p	p	n/a
708.0495	0.075	1416099	keystroke_h	h	n/a
708.2595	0.09	1416519	keystroke_o	o	n/a
708.5895	0.06	1417179	keystroke_t	t	n/a
708.804	0.0855	1417608	keystroke_o	o	n/a
709.1745	0.09	1418349	keystroke_g	g	n/a
709.429	0.0905	1418858	keystroke_r	r	n/a
709.6545	0.106	1419309	keystroke_a	a	n/a
710.194	0.12	1420388	keystroke_p	p	n/a
710.8095	0.0895	1421619	keystroke_h	h	n/a
711.0495	0.1045	1422099	keystroke_e	e	n/a
711.304	0.0905	1422608	keystroke_r	r	n/a
711.5145	0.105	1423029	keystroke_s	s	n/a
711.754	0.0755	1423508	keystroke_Key.enter	Key.enter	n/a
711.8335	9.838	1423667	prompt	n/a	mission gross supervisors either\n
713.0745	0.106	1426149	keystroke_m	m	n/a
713.3795	0.085	1426759	keystroke_i	i	n/a
713.689	0.0755	1427378	keystroke_s	s	n/a
713.884	0.0755	1427768	keystroke_s	s	n/a
714.3195	0.105	1428639	keystroke_i	i	n/a
714.754	0.1355	1429508	keystroke_o	o	n/a
715.0545	0.0595	1430109	keystroke_n	n	n/a
715.654	0.12	1431308	keystroke_Key.space	Key.space	n/a
715.999	0.0905	1431998	keystroke_g	g	n/a
716.284	0.0905	1432568	keystroke_r	r	n/a
716.45	0.0895	1432900	keystroke_o	o	n/a
716.6595	0.06	1433319	keystroke_s	s	n/a
716.869	0.0755	1433738	keystroke_s	s	n/a
717.169	0.0905	1434338	keystroke_Key.space	Key.space	n/a
717.426	0.0885	1434852	keystroke_s	s	n/a
717.5745	0.0895	1435149	keystroke_u	u	n/a
717.859	0.064	1435718	keystroke_p	p	n/a
718.0245	0.0645	1436049	keystroke_e	e	n/a
718.2545	0.07	1436509	keystroke_r	r	n/a
718.6095	0.1055	1437219	keystroke_v	v	n/a
718.8045	0.076	1437609	keystroke_i	i	n/a
719.089	0.0905	1438178	keystroke_s	s	n/a
719.3145	0.105	1438629	keystroke_o	o	n/a
719.704	0.0605	1439408	keystroke_r	r	n/a
720.0195	0.105	1440039	keystroke_s	s	n/a
720.2145	0.0905	1440429	keystroke_Key.space	Key.space	n/a
720.4545	0.06	1440909	keystroke_e	e	n/a
720.6345	0.075	1441269	keystroke_i	i	n/a
720.799	0.0605	1441598	keystroke_t	t	n/a
720.964	0.0605	1441928	keystroke_h	h	n/a
721.0845	0.09	1442169	keystroke_e	e	n/a
721.3095	0.0745	1442619	keystroke_r	r	n/a
721.5795	0.09	1443159	keystroke_Key.enter	Key.enter	n/a
721.674	7.812	1443348	prompt	n/a	meets replied stick mono\n
722.7795	0.0895	1445559	keystroke_m	m	n/a
723.1395	0.0745	1446279	keystroke_e	e	n/a
723.3045	0.0905	1446609	keystroke_e	e	n/a
723.6045	0.06	1447209	keystroke_t	t	n/a
723.9195	0.06	1447839	keystroke_s	s	n/a
724.114	0.1205	1448228	keystroke_Key.space	Key.space	n/a
724.384	0.0905	1448768	keystroke_r	r	n/a
724.6095	0.0595	1449219	keystroke_e	e	n/a
724.8795	0.0895	1449759	keystroke_p	p	n/a
725.1345	0.09	1450269	keystroke_l	l	n/a
725.3295	0.09	1450659	keystroke_i	i	n/a
725.4805	0.0735	1450961	keystroke_e	e	n/a
725.7945	0.045	1451589	keystroke_d	d	n/a
726.004	0.1205	1452008	keystroke_Key.space	Key.space	n/a
726.7695	0.105	1453539	keystroke_s	s	n/a
727.0095	0.0745	1454019	keystroke_t	t	n/a
727.205	0.074	1454410	keystroke_r	r	n/a
727.3395	0.1055	1454679	keystroke_i	i	n/a
727.5645	0.0775	1455129	keystroke_c	c	n/a
727.895	0.089	1455790	keystroke_k	k	n/a
728.0295	0.15	1456059	keystroke_Key.space	Key.space	n/a
728.3445	0.125	1456689	keystroke_m	m	n/a
728.6145	0.09	1457229	keystroke_o	o	n/a
728.884	0.0755	1457768	keystroke_n	n	n/a
729.0495	0.075	1458099	keystroke_o	o	n/a
729.4095	0.075	1458819	keystroke_Key.enter	Key.enter	n/a
729.4885	8.7725	1458977	prompt	n/a	famous office treated warranties\n
730.2945	0.1045	1460589	keystroke_f	f	n/a
730.6095	0.015	1461219	keystroke_a	a	n/a
730.6995	0.105	1461399	keystroke_m	m	n/a
730.9695	0.075	1461939	keystroke_o	o	n/a
731.1945	0.0595	1462389	keystroke_u	u	n/a
731.3595	0.075	1462719	keystroke_s	s	n/a
731.6145	0.105	1463229	keystroke_Key.space	Key.space	n/a
731.9895	0.06	1463979	keystroke_o	o	n/a
732.0945	0.09	1464189	keystroke_f	f	n/a
732.2895	0.075	1464579	keystroke_f	f	n/a
732.6945	0.09	1465389	keystroke_i	i	n/a
732.8485	0.086	1465697	keystroke_c	c	n/a
733.295	0.0745	1466590	keystroke_e	e	n/a
733.564	0.1055	1467128	keystroke_Key.space	Key.space	n/a
733.8645	0.077	1467729	keystroke_t	t	n/a
734.075	0.0895	1468150	keystroke_r	r	n/a
734.284	0.0755	1468568	keystroke_e	e	n/a
734.4945	0.105	1468989	keystroke_a	a	n/a
734.7345	0.09	1469469	keystroke_t	t	n/a
734.9005	0.089	1469801	keystroke_e	e	n/a
735.1245	0.0595	1470249	keystroke_d	d	n/a
735.3195	0.105	1470639	keystroke_Key.space	Key.space	n/a
735.6345	0.09	1471269	keystroke_w	w	n/a
735.8445	0.0905	1471689	keystroke_a	a	n/a
736.0995	0.075	1472199	keystroke_r	r	n/a
736.2945	0.075	1472589	keystroke_r	r	n/a
736.5195	0.075	1473039	keystroke_a	a	n/a
737.09	0.104	1474180	keystroke_n	n	n/a
737.33	0.0745	1474660	keystroke_t	t	n/a
737.4795	0.0775	1474959	keystroke_i	i	n/a
737.6595	0.09	1475319	keystroke_e	e	n/a
737.8995	0.075	1475799	keystroke_s	s	n/a
738.187	0.0725	1476374	keystroke_Key.enter	Key.enter	n/a
738.2635	7.693	1476527	prompt	n/a	regarding heard domain topic\n
739.3105	0.089	1478621	keystroke_r	r	n/a
739.549	0.076	1479098	keystroke_e	e	n/a
739.82	0.0595	1479640	keystroke_g	g	n/a
740.0295	0.105	1480059	keystroke_a	a	n/a
740.24	0.0895	1480480	keystroke_r	r	n/a
740.4945	0.075	1480989	keystroke_d	d	n/a
740.6445	0.09	1481289	keystroke_i	i	n/a
741.02	0.0895	1482040	keystroke_n	n	n/a
741.1545	0.09	1482309	keystroke_g	g	n/a
741.3945	0.105	1482789	keystroke_Key.space	Key.space	n/a
741.7395	0.075	1483479	keystroke_h	h	n/a
741.8445	0.075	1483689	keystroke_e	e	n/a
742.13	0.0745	1484260	keystroke_a	a	n/a
742.3695	0.105	1484739	keystroke_r	r	n/a
742.6545	0.09	1485309	keystroke_d	d	n/a
742.8495	0.1495	1485699	keystroke_Key.space	Key.space	n/a
743.2095	0.0745	1486419	keystroke_d	d	n/a
743.3605	0.1035	1486721	keystroke_o	o	n/a
743.7195	0.06	1487439	keystroke_m	m	n/a
743.825	0.0895	1487650	keystroke_a	a	n/a
744.005	0.0745	1488010	keystroke_i	i	n/a
744.2595	0.075	1488519	keystroke_n	n	n/a
744.4245	0.12	1488849	keystroke_Key.space	Key.space	n/a
744.8895	0.045	1489779	keystroke_t	t	n/a
745.0095	0.09	1490019	keystroke_o	o	n/a
745.2345	0.105	1490469	keystroke_p	p	n/a
745.4595	0.0895	1490919	keystroke_i	i	n/a
745.6395	0.075	1491279	keystroke_c	c	n/a
745.8795	0.075	1491759	keystroke_Key.enter	Key.enter	n/a
745.9595	30.491	1491919	prompt	n/a	iowa medline underlying blues\n
746.8545	0.0595	1493709	keystroke_i	i	n/a
747.0495	0.075	1494099	keystroke_o	o	n/a
747.3345	0.105	1494669	keystroke_w	w	n/a
747.5445	0.105	1495089	keystroke_a	a	n/a
747.7845	0.105	1495569	keystroke_Key.space	Key.space	n/a
748.4015	0.0735	1496803	keystroke_m	m	n/a
748.505	0.1045	1497010	keystroke_e	e	n/a
748.8045	0.06	1497609	keystroke_d	d	n/a
748.9695	0.06	1497939	keystroke_i	i	n/a
749.4645	0.09	1498929	keystroke_l	l	n/a
749.7045	0.09	1499409	keystroke_i	i	n/a
750.0645	0.12	1500129	keystroke_n	n	n/a
750.4845	0.0605	1500969	keystroke_Key.backspace	Key.backspace	n/a
750.68	0.0595	1501360	keystroke_Key.backspace	Key.backspace	n/a
750.8595	0.061	1501719	keystroke_Key.backspace	Key.backspace	n/a
751.2045	0.075	1502409	keystroke_Key.backspace	Key.backspace	n/a
751.73	0.0745	1503460	keystroke_l	l	n/a
751.94	0.0895	1503880	keystroke_i	i	n/a
752.15	0.0745	1504300	keystroke_n	n	n/a
752.2545	0.12	1504509	keystroke_e	e	n/a
752.481	0.1335	1504962	keystroke_Key.space	Key.space	n/a
752.78	0.0745	1505560	keystroke_u	u	n/a
752.9895	0.0755	1505979	keystroke_n	n	n/a
753.2595	0.0755	1506519	keystroke_d	d	n/a
753.4845	0.075	1506969	keystroke_e	e	n/a
753.68	0.1045	1507360	keystroke_r	r	n/a
753.875	0.09	1507750	keystroke_l	l	n/a
754.0845	0.1055	1508169	keystroke_i	i	n/a
754.3845	0.1055	1508769	keystroke_y	y	n/a
754.64	0.0895	1509280	keystroke_i	i	n/a
754.865	0.0745	1509730	keystroke_n	n	n/a
754.9995	0.0905	1509999	keystroke_g	g	n/a
755.2845	0.0755	1510569	keystroke_a	a	n/a
755.4495	0.09	1510899	keystroke_l	l	n/a
755.6145	0.09	1511229	keystroke_s	s	n/a
755.795	0.0745	1511590	keystroke_i	i	n/a
755.9445	0.12	1511889	keystroke_d	d	n/a
756.1695	0.105	1512339	keystroke_Key.space	Key.space	n/a
756.38	0.0745	1512760	keystroke_z	z	n/a
756.5145	0.075	1513029	keystroke_h	h	n/a
756.605	0.09	1513210	keystroke_a	a	n/a
756.89	0.0895	1513780	keystroke_n	n	n/a
757.115	0.06	1514230	keystroke_g	g	n/a
757.31	0.0895	1514620	keystroke_m	m	n/a
757.61	0.0895	1515220	keystroke_i	i	n/a
757.91	0.1095	1515820	keystroke_n	n	n/a
758.1945	0.1055	1516389	keystroke_g	g	n/a
758.465	0.1045	1516930	keystroke_r	r	n/a
758.7805	0.074	1517561	keystroke_u	u	n/a
759.05	0.0895	1518100	keystroke_i	i	n/a
759.35	0.1195	1518700	keystroke_Key.space	Key.space	n/a
759.65	0.1045	1519300	keystroke_w	w	n/a
759.83	0.0895	1519660	keystroke_o	o	n/a
760.115	0.12	1520230	keystroke_Key.space	Key.space	n/a
760.3845	0.075	1520769	keystroke_d	d	n/a
760.595	0.0895	1521190	keystroke_e	e	n/a
760.85	0.0895	1521700	keystroke_Key.space	Key.space	n/a
761.1495	0.075	1522299	keystroke_m	m	n/a
761.42	0.06	1522840	keystroke_i	i	n/a
761.6445	0.076	1523289	keystroke_n	n	n/a
761.8845	0.1055	1523769	keystroke_g	g	n/a
762.1695	0.091	1524339	keystroke_Key.space	Key.space	n/a
762.3945	0.075	1524789	keystroke_z	z	n/a
762.5745	0.075	1525149	keystroke_i	i	n/a
762.8145	0.105	1525629	keystroke_Key.space	Key.space	n/a
763.1145	0.0785	1526229	keystroke_j	j	n/a
763.3845	0.075	1526769	keystroke_i	i	n/a
763.595	0.0895	1527190	keystroke_a	a	n/a
763.775	0.075	1527550	keystroke_o	o	n/a
763.9545	0.105	1527909	keystroke_Key.space	Key.space	n/a
764.18	0.1045	1528360	keystroke_z	z	n/a
764.33	0.1045	1528660	keystroke_h	h	n/a
764.4495	0.12	1528899	keystroke_a	a	n/a
764.6745	0.09	1529349	keystroke_n	n	n/a
764.9145	0.075	1529829	keystroke_g	g	n/a
765.245	0.12	1530490	keystroke_Key.space	Key.space	n/a
765.62	0.0895	1531240	keystroke_m	m	n/a
765.875	0.0745	1531750	keystroke_i	i	n/a
766.145	0.06	1532290	keystroke_n	n	n/a
766.4295	0.09	1532859	keystroke_g	g	n/a
766.715	0.1045	1533430	keystroke_Key.space	Key.space	n/a
767.0295	0.1205	1534059	keystroke_t	t	n/a
767.69	0.105	1535380	keystroke_r	r	n/a
767.99	0.1045	1535980	keystroke_u	u	n/a
768.2595	0.0755	1536519	keystroke_i	i	n/a
768.4545	0.1205	1536909	keystroke_Key.space	Key.space	n/a
768.68	0.0895	1537360	keystroke_r	r	n/a
768.8895	0.1055	1537779	keystroke_u	u	n/a
769.175	0.075	1538350	keystroke_i	i	n/a
769.3845	0.12	1538769	keystroke_Key.space	Key.space	n/a
769.6565	0.1035	1539313	keystroke_z	z	n/a
769.835	0.105	1539670	keystroke_h	h	n/a
770.015	0.105	1540030	keystroke_a	a	n/a
770.24	0.075	1540480	keystroke_n	n	n/a
770.42	0.1045	1540840	keystroke_g	g	n/a
770.7045	0.105	1541409	keystroke_Key.space	Key.space	n/a
770.945	0.105	1541890	keystroke_m	m	n/a
771.2295	0.09	1542459	keystroke_i	i	n/a
771.4695	0.077	1542939	keystroke_n	n	n/a
771.65	0.1195	1543300	keystroke_g	g	n/a
771.995	0.15	1543990	keystroke_Key.space	Key.space	n/a
772.2795	0.105	1544559	keystroke_r	r	n/a
772.565	0.1045	1545130	keystroke_u	u	n/a
772.865	0.09	1545730	keystroke_i	i	n/a
773.1195	0.105	1546239	keystroke_Key.space	Key.space	n/a
773.375	0.1195	1546750	keystroke_m	m	n/a
773.66	0.0895	1547320	keystroke_i	i	n/a
773.8995	0.09	1547799	keystroke_n	n	n/a
774.1545	0.0905	1548309	keystroke_g	g	n/a
774.395	0.1045	1548790	keystroke_Key.space	Key.space	n/a
774.7545	0.0905	1549509	keystroke_z	z	n/a
774.996	0.0585	1549992	keystroke_h	h	n/a
775.145	0.09	1550290	keystroke_a	a	n/a
775.3695	0.0755	1550739	keystroke_n	n	n/a
775.595	0.0895	1551190	keystroke_g	g	n/a
776.405	0.0445	1552810	keystroke_Key.enter	Key.enter	n/a
776.4535	13.6335	1552907	prompt	n/a	constraint mere hans italic\n
777.3045	0.1055	1554609	keystroke_c	c	n/a
777.425	0.091	1554850	keystroke_o	o	n/a
777.695	0.0595	1555390	keystroke_n	n	n/a
777.8445	0.1505	1555689	keystroke_s	s	n/a
778.16	0.105	1556320	keystroke_t	t	n/a
778.4495	0.0855	1556899	keystroke_r	r	n/a
778.6845	0.0905	1557369	keystroke_a	a	n/a
778.925	0.1045	1557850	keystroke_n	n	n/a
779.15	0.075	1558300	keystroke_t	t	n/a
779.42	0.075	1558840	keystroke_i	i	n/a
779.66	0.0895	1559320	keystroke_t	t	n/a
780.0495	0.12	1560099	keystroke_Key.space	Key.space	n/a
780.71	0.0895	1561420	keystroke_m	m	n/a
780.86	0.09	1561720	keystroke_e	e	n/a
781.145	0.09	1562290	keystroke_r	r	n/a
781.3695	0.1055	1562739	keystroke_e	e	n/a
781.58	0.1495	1563160	keystroke_Key.space	Key.space	n/a
781.91	0.105	1563820	keystroke_e	e	n/a
782.24	0.0895	1564480	keystroke_h	h	n/a
782.42	0.09	1564840	keystroke_a	a	n/a
782.5845	0.109	1565169	keystroke_n	n	n/a
782.705	0.122	1565410	keystroke_s	s	n/a
782.9145	0.0905	1565829	keystroke_l	l	n/a
783.1095	0.105	1566219	keystroke_s	s	n/a
783.275	0.105	1566550	keystroke_o	o	n/a
783.4995	0.1055	1566999	keystroke_e	e	n/a
783.665	0.1195	1567330	keystroke_i	i	n/a
783.845	0.12	1567690	keystroke_s	s	n/a
784.04	0.15	1568080	keystroke_l	l	n/a
784.22	0.12	1568440	keystroke_a	a	n/a
784.46	0.0455	1568920	keystroke_m	m	n/a
784.8495	0.15	1569699	keystroke_Key.space	Key.space	n/a
785.2545	0.0755	1570509	keystroke_i	i	n/a
785.5545	0.1505	1571109	keystroke_a	a	n/a
785.8845	0.165	1571769	keystroke_;	;	n/a
786.155	0.1195	1572310	keystroke_s	s	n/a
786.425	0.1195	1572850	keystroke_l	l	n/a
786.695	0.0895	1573390	keystroke_d	d	n/a
786.965	0.1045	1573930	keystroke_i	i	n/a
787.22	0.105	1574440	keystroke_Key.space	Key.space	n/a
788.165	0.075	1576330	keystroke_i	i	n/a
788.42	0.105	1576840	keystroke_t	t	n/a
788.7045	0.0905	1577409	keystroke_a	a	n/a
789.14	0.09	1578280	keystroke_l	l	n/a
789.38	0.0895	1578760	keystroke_i	i	n/a
789.6795	0.075	1579359	keystroke_c	c	n/a
790.01	0.0755	1580020	keystroke_Key.enter	Key.enter	n/a
790.0915	23.1395	1580183	prompt	n/a	mirrors promptly finite burton\n
791.1845	0.085	1582369	keystroke_m	m	n/a
791.45	0.0755	1582900	keystroke_i	i	n/a
791.81	0.0895	1583620	keystroke_r	r	n/a
792.035	0.09	1584070	keystroke_r	r	n/a
792.2305	0.0895	1584461	keystroke_o	o	n/a
792.4695	0.107	1584939	keystroke_r	r	n/a
792.845	0.09	1585690	keystroke_s	s	n/a
793.0995	0.1205	1586199	keystroke_Key.space	Key.space	n/a
793.775	0.09	1587550	keystroke_p	p	n/a
793.94	0.15	1587880	keystroke_r	r	n/a
794.105	0.105	1588210	keystroke_o	o	n/a
794.8845	0.0905	1589769	keystroke_m	m	n/a
795.1695	0.1205	1590339	keystroke_p	p	n/a
795.4255	0.089	1590851	keystroke_t	t	n/a
795.575	0.075	1591150	keystroke_l	l	n/a
795.8295	0.1505	1591659	keystroke_y	y	n/a
795.995	0.1045	1591990	keystroke_Key.space	Key.space	n/a
799.9845	0.228	1599969	keystroke_Key.cmd	Key.cmd	n/a
800.09	0.09	1600180	keystroke_w	w	n/a
803.2395	0.06	1606479	keystroke_Key.tab	Key.tab	n/a
803.5695	0.0755	1607139	keystroke_Key.tab	Key.tab	n/a
804.56	0.2095	1609120	keystroke_Key.ctrl	Key.ctrl	n/a
804.62	0.0895	1609240	keystroke_Key.tab	Key.tab	n/a
808.7445	0.1215	1617489	keystroke_Key.ctrl	Key.ctrl	n/a
808.7895	0.1055	1617579	keystroke_Key.tab	Key.tab	n/a
810.1845	0.09	1620369	keystroke_f	f	n/a
810.335	0.09	1620670	keystroke_i	i	n/a
810.5595	0.0755	1621119	keystroke_n	n	n/a
810.7695	0.0755	1621539	keystroke_i	i	n/a
811.0405	0.074	1622081	keystroke_t	t	n/a
811.235	0.09	1622470	keystroke_e	e	n/a
811.445	0.12	1622890	keystroke_Key.space	Key.space	n/a
811.7595	0.0905	1623519	keystroke_b	b	n/a
811.9545	0.0755	1623909	keystroke_u	u	n/a
812.09	0.105	1624180	keystroke_r	r	n/a
812.36	0.0455	1624720	keystroke_t	t	n/a
812.48	0.1045	1624960	keystroke_o	o	n/a
812.75	0.075	1625500	keystroke_n	n	n/a
813.155	0.075	1626310	keystroke_Key.enter	Key.enter	n/a
813.2335	18.433	1626467	prompt	n/a	fabric handmade toddler exposure\n
821.63	0.09	1643260	keystroke_f	f	n/a
821.9	0.09	1643800	keystroke_a	a	n/a
823.2645	0.15	1646529	keystroke_b	b	n/a
823.4595	0.1055	1646919	keystroke_r	r	n/a
823.686	0.0735	1647372	keystroke_i	i	n/a
823.8845	0.07	1647769	keystroke_c	c	n/a
824.1955	0.1045	1648391	keystroke_Key.space	Key.space	n/a
824.795	0.0895	1649590	keystroke_h	h	n/a
824.9445	0.1055	1649889	keystroke_a	a	n/a
825.155	0.105	1650310	keystroke_n	n	n/a
825.38	0.1045	1650760	keystroke_d	d	n/a
825.65	0.1045	1651300	keystroke_m	m	n/a
825.7845	0.1055	1651569	keystroke_a	a	n/a
826.0995	0.0755	1652199	keystroke_d	d	n/a
826.325	0.076	1652650	keystroke_e	e	n/a
826.43	0.15	1652860	keystroke_Key.space	Key.space	n/a
827.51	0.0895	1655020	keystroke_t	t	n/a
827.705	0.075	1655410	keystroke_o	o	n/a
827.945	0.075	1655890	keystroke_d	d	n/a
828.14	0.06	1656280	keystroke_d	d	n/a
828.89	0.075	1657780	keystroke_l	l	n/a
829.055	0.09	1658110	keystroke_e	e	n/a
829.295	0.0905	1658590	keystroke_r	r	n/a
829.46	0.15	1658920	keystroke_Key.space	Key.space	n/a
829.895	0.0595	1659790	keystroke_e	e	n/a
830.1195	0.0755	1660239	keystroke_x	x	n/a
830.36	0.0895	1660720	keystroke_p	p	n/a
830.5695	0.1055	1661139	keystroke_o	o	n/a
830.72	0.09	1661440	keystroke_s	s	n/a
830.9595	0.0755	1661919	keystroke_u	u	n/a
831.1695	0.1505	1662339	keystroke_r	r	n/a
831.32	0.105	1662640	keystroke_e	e	n/a
831.575	0.09	1663150	keystroke_Key.enter	Key.enter	n/a
831.669	14.1425	1663338	prompt	n/a	increasing just olympus attach\n
838.715	0.06	1677430	keystroke_i	i	n/a
838.895	0.079	1677790	keystroke_n	n	n/a
839.075	0.09	1678150	keystroke_c	c	n/a
839.45	0.09	1678900	keystroke_r	r	n/a
839.66	0.0775	1679320	keystroke_e	e	n/a
839.87	0.0895	1679740	keystroke_a	a	n/a
840.081	0.0885	1680162	keystroke_s	s	n/a
840.2755	0.0895	1680551	keystroke_i	i	n/a
840.5445	0.0755	1681089	keystroke_n	n	n/a
840.725	0.105	1681450	keystroke_g	g	n/a
840.935	0.1195	1681870	keystroke_Key.space	Key.space	n/a
841.16	0.075	1682320	keystroke_j	j	n/a
841.3695	0.0605	1682739	keystroke_u	u	n/a
841.505	0.09	1683010	keystroke_s	s	n/a
841.805	0.075	1683610	keystroke_t	t	n/a
841.9995	0.1055	1683999	keystroke_Key.space	Key.space	n/a
842.225	0.0595	1684450	keystroke_o	o	n/a
842.435	0.075	1684870	keystroke_l	l	n/a
842.615	0.09	1685230	keystroke_y	y	n/a
842.8995	0.0905	1685799	keystroke_m	m	n/a
843.1695	0.0755	1686339	keystroke_p	p	n/a
843.352	0.088	1686704	keystroke_u	u	n/a
843.68	0.0895	1687360	keystroke_s	s	n/a
843.89	0.121	1687780	keystroke_Key.space	Key.space	n/a
844.0695	0.1055	1688139	keystroke_a	a	n/a
844.31	0.0595	1688620	keystroke_t	t	n/a
844.476	0.104	1688952	keystroke_t	t	n/a
844.625	0.12	1689250	keystroke_a	a	n/a
844.925	0.1045	1689850	keystroke_c	c	n/a
845.3895	0.0905	1690779	keystroke_h	h	n/a
845.7355	0.0745	1691471	keystroke_Key.enter	Key.enter	n/a
845.815	7.796	1691630	prompt	n/a	mercedes disputes feel doing\n
846.68	0.0745	1693360	keystroke_m	m	n/a
846.845	0.0605	1693690	keystroke_e	e	n/a
847.0695	0.1055	1694139	keystroke_r	r	n/a
847.3695	0.045	1694739	keystroke_c	c	n/a
847.55	0.0595	1695100	keystroke_e	e	n/a
847.7625	0.043	1695525	keystroke_d	d	n/a
847.929	0.071	1695858	keystroke_e	e	n/a
848.12	0.0755	1696240	keystroke_s	s	n/a
848.33	0.18	1696660	keystroke_Key.space	Key.space	n/a
848.8695	0.075	1697739	keystroke_d	d	n/a
848.99	0.075	1697980	keystroke_i	i	n/a
849.125	0.09	1698250	keystroke_s	s	n/a
849.38	0.1045	1698760	keystroke_p	p	n/a
849.5145	0.0755	1699029	keystroke_u	u	n/a
849.6645	0.105	1699329	keystroke_t	t	n/a
849.7395	0.09	1699479	keystroke_e	e	n/a
849.995	0.0895	1699990	keystroke_s	s	n/a
850.1155	0.1195	1700231	keystroke_Key.space	Key.space	n/a
850.3845	0.0455	1700769	keystroke_d	d	n/a
850.82	0.0755	1701640	keystroke_Key.backspace	Key.backspace	n/a
850.91	0.06	1701820	keystroke_f	f	n/a
851.12	0.06	1702240	keystroke_e	e	n/a
851.285	0.06	1702570	keystroke_e	e	n/a
851.39	0.105	1702780	keystroke_l	l	n/a
851.615	0.0905	1703230	keystroke_i	i	n/a
851.795	0.0895	1703590	keystroke_n	n	n/a
851.915	0.12	1703830	keystroke_g	g	n/a
852.1845	0.1515	1704369	keystroke_Key.space	Key.space	n/a
852.59	0.09	1705180	keystroke_d	d	n/a
852.804	0.071	1705608	keystroke_o	o	n/a
852.995	0.109	1705990	keystroke_i	i	n/a
853.0695	0.0605	1706139	keystroke_n	n	n/a
853.295	0.0895	1706590	keystroke_g	g	n/a
853.535	0.075	1707070	keystroke_Key.enter	Key.enter	n/a
853.6135	10.8575	1707227	prompt	n/a	different honey preparing motel\n
854.615	0.09	1709230	keystroke_d	d	n/a
854.75	0.0755	1709500	keystroke_i	i	n/a
854.93	0.09	1709860	keystroke_f	f	n/a
855.1545	0.0905	1710309	keystroke_f	f	n/a
855.365	0.09	1710730	keystroke_e	e	n/a
855.605	0.105	1711210	keystroke_r	r	n/a
855.7995	0.0755	1711599	keystroke_e	e	n/a
855.995	0.0895	1711990	keystroke_n	n	n/a
856.16	0.075	1712320	keystroke_t	t	n/a
856.3845	0.0755	1712769	keystroke_Key.space	Key.space	n/a
856.64	0.105	1713280	keystroke_h	h	n/a
856.8345	0.0905	1713669	keystroke_o	o	n/a
857	0.105	1714000	keystroke_n	n	n/a
857.135	0.0595	1714270	keystroke_e	e	n/a
857.315	0.105	1714630	keystroke_y	y	n/a
857.48	0.1195	1714960	keystroke_Key.space	Key.space	n/a
857.705	0.1065	1715410	keystroke_p	p	n/a
857.9145	0.1055	1715829	keystroke_r	r	n/a
858.1695	0.0905	1716339	keystroke_e	e	n/a
859.7595	0.1805	1719519	keystroke_Key.backspace	Key.backspace	n/a
859.9545	0.015	1719909	keystroke_Key.backspace	Key.backspace	n/a
860.435	0.0755	1720870	keystroke_p	p	n/a
860.7045	0.12	1721409	keystroke_r	r	n/a
860.84	0.0595	1721680	keystroke_e	e	n/a
861.095	0.0895	1722190	keystroke_Key.space	Key.space	n/a
861.395	0.0895	1722790	keystroke_p	p	n/a
861.53	0.1495	1723060	keystroke_a	a	n/a
861.695	0.0895	1723390	keystroke_r	r	n/a
861.89	0.09	1723780	keystroke_i	i	n/a
862.235	0.1045	1724470	keystroke_n	n	n/a
862.3995	0.1355	1724799	keystroke_g	g	n/a
862.7145	0.1205	1725429	keystroke_Key.space	Key.space	n/a
863.12	0.075	1726240	keystroke_m	m	n/a
863.36	0.075	1726720	keystroke_o	o	n/a
863.585	0.0605	1727170	keystroke_t	t	n/a
863.8245	0.0905	1727649	keystroke_e	e	n/a
864.035	0.09	1728070	keystroke_l	l	n/a
864.3795	0.09	1728759	keystroke_Key.enter	Key.enter	n/a
864.4735	11.203	1728947	prompt	n/a	analysts memorabilia wherever plan\n
865.34	0.0595	1730680	keystroke_a	a	n/a
865.535	0.105	1731070	keystroke_n	n	n/a
865.6845	0.1205	1731369	keystroke_a	a	n/a
865.925	0.09	1731850	keystroke_l	l	n/a
866.12	0.0895	1732240	keystroke_s	s	n/a
866.36	0.105	1732720	keystroke_y	y	n/a
866.93	0.075	1733860	keystroke_u	u	n/a
867.125	0.09	1734250	keystroke_u	u	n/a
867.7285	0.1015	1735457	keystroke_Key.space	Key.space	n/a
868.1445	0.0755	1736289	keystroke_a	a	n/a
868.325	0.09	1736650	keystroke_a	a	n/a
868.535	0.09	1737070	keystroke_a	a	n/a
868.865	0.1045	1737730	keystroke_Key.space	Key.space	n/a
869.21	0.0905	1738420	keystroke_x	x	n/a
869.48	0.1045	1738960	keystroke_s	s	n/a
870.1545	0.1505	1740309	keystroke_w	w	n/a
870.4545	0.091	1740909	keystroke_w	w	n/a
870.68	0.0895	1741360	keystroke_w	w	n/a
871.2645	0.105	1742529	keystroke_e	e	n/a
871.715	0.1195	1743430	keystroke_Key.space	Key.space	n/a
872.015	0.09	1744030	keystroke_w	w	n/a
872.2695	0.0905	1744539	keystroke_o	o	n/a
872.437	0.1475	1744874	keystroke_Key.space	Key.space	n/a
872.6145	0.0755	1745229	keystroke_d	d	n/a
872.795	0.0895	1745590	keystroke_e	e	n/a
872.915	0.09	1745830	keystroke_Key.space	Key.space	n/a
873.275	0.075	1746550	keystroke_h	h	n/a
873.4845	0.0905	1746969	keystroke_u	u	n/a
873.665	0.0755	1747330	keystroke_a	a	n/a
873.875	0.09	1747750	keystroke_Key.space	Key.space	n/a
874.0845	0.0905	1748169	keystroke_b	b	n/a
874.34	0.075	1748680	keystroke_a	a	n/a
874.505	0.0895	1749010	keystroke_n	n	n/a
874.6395	0.1055	1749279	keystroke_Key.space	Key.space	n/a
874.88	0.0895	1749760	keystroke_x	x	n/a
875.0145	0.076	1750029	keystroke_i	i	n/a
875.165	0.0895	1750330	keystroke_e	e	n/a
875.615	0.06	1751230	keystroke_Key.enter	Key.enter	n/a
875.679	13.8125	1751358	prompt	n/a	bouquet featuring mesa seating\n
877.925	0.0745	1755850	keystroke_z	z	n/a
878.11	0.1	1756220	keystroke_i	i	n/a
878.2545	0.1205	1756509	keystroke_Key.space	Key.space	n/a
878.7055	0.075	1757411	keystroke_h	h	n/a
879.2595	0.075	1758519	keystroke_Key.backspace	Key.backspace	n/a
879.4395	0.091	1758879	keystroke_z	z	n/a
879.5895	0.0755	1759179	keystroke_h	h	n/a
879.7995	0.09	1759599	keystroke_u	u	n/a
879.995	0.12	1759990	keystroke_Key.space	Key.space	n/a
880.2955	0.074	1760591	keystroke_c	c	n/a
880.505	0.075	1761010	keystroke_a	a	n/a
880.715	0.09	1761430	keystroke_n	n	n/a
880.8795	0.1505	1761759	keystroke_Key.space	Key.space	n/a
881.735	0.09	1763470	keystroke_t	t	n/a
882.005	0.105	1764010	keystroke_e	e	n/a
882.2295	0.1055	1764459	keystroke_Key.space	Key.space	n/a
882.4095	0.077	1764819	keystroke_d	d	n/a
882.56	0.135	1765120	keystroke_i	i	n/a
882.71	0.0595	1765420	keystroke_a	a	n/a
882.86	0.105	1765720	keystroke_n	n	n/a
883.0555	0.0965	1766111	keystroke_Key.space	Key.space	n/a
883.2345	0.0605	1766469	keystroke_s	s	n/a
883.4295	0.0905	1766859	keystroke_h	h	n/a
883.6845	0.092	1767369	keystroke_i	i	n/a
883.8795	0.09	1767759	keystroke_Key.space	Key.space	n/a
884.1205	0.134	1768241	keystroke_m	m	n/a
884.3755	0.075	1768751	keystroke_e	e	n/a
884.915	0.09	1769830	keystroke_i	i	n/a
885.0955	0.074	1770191	keystroke_Key.space	Key.space	n/a
885.2755	0.1195	1770551	keystroke_s	s	n/a
885.515	0.105	1771030	keystroke_a	a	n/a
885.7405	0.0895	1771481	keystroke_Key.space	Key.space	n/a
885.965	0.09	1771930	keystroke_m	m	n/a
886.205	0.075	1772410	keystroke_i	i	n/a
886.3995	0.0605	1772799	keystroke_Key.space	Key.space	n/a
886.61	0.12	1773220	keystroke_s	s	n/a
886.865	0.09	1773730	keystroke_a	a	n/a
887.075	0.105	1774150	keystroke_Key.space	Key.space	n/a
887.3295	0.121	1774659	keystroke_z	z	n/a
887.615	0.06	1775230	keystroke_u	u	n/a
887.8995	0.0755	1775799	keystroke_o	o	n/a
888.1695	0.1205	1776339	keystroke_Key.space	Key.space	n/a
888.5	0.09	1777000	keystroke_w	w	n/a
888.7845	0.0755	1777569	keystroke_e	e	n/a
889.0545	0.091	1778109	keystroke_i	i	n/a
889.3845	0.1055	1778769	keystroke_Key.enter	Key.enter	n/a
889.4945	30.5985	1778989	prompt	n/a	wilson alpha let's tray\n
891.2445	0.0755	1782489	keystroke_w	w	n/a
891.4545	0.0905	1782909	keystroke_e	e	n/a
891.65	0.105	1783300	keystroke_i	i	n/a
891.845	0.075	1783690	keystroke_Key.space	Key.space	n/a
892.145	0.09	1784290	keystroke_e	e	n/a
892.3845	0.091	1784769	keystroke_r	r	n/a
892.5955	0.106	1785191	keystroke_Key.space	Key.space	n/a
892.835	0.09	1785670	keystroke_s	s	n/a
893.5845	0.0905	1787169	keystroke_x	x	n/a
893.7495	0.1055	1787499	keystroke_u	u	n/a
894.035	0.09	1788070	keystroke_n	n	n/a
894.1695	0.1055	1788339	keystroke_Key.space	Key.space	n/a
894.4245	0.0905	1788849	keystroke_x	x	n/a
894.53	0.105	1789060	keystroke_i	i	n/a
894.74	0.09	1789480	keystroke_a	a	n/a
894.9055	0.0895	1789811	keystroke_n	n	n/a
895.205	0.12	1790410	keystroke_Key.space	Key.space	n/a
895.475	0.076	1790950	keystroke_s	s	n/a
895.7	0.075	1791400	keystroke_h	h	n/a
895.76	0.06	1791520	keystroke_e	e	n/a
896.03	0.09	1792060	keystroke_n	n	n/a
896.7505	0.0745	1793501	keystroke_g	g	n/a
897.08	0.0895	1794160	keystroke_Key.space	Key.space	n/a
901.3845	0.1355	1802769	keystroke_a	a	n/a
904.16	0.09	1808320	keystroke_l	l	n/a
904.745	0.12	1809490	keystroke_p	p	n/a
905.675	0.09	1811350	keystroke_h	h	n/a
907.355	0.105	1814710	keystroke_a	a	n/a
908.0305	0.1045	1816061	keystroke_Key.space	Key.space	n/a
908.5695	0.1055	1817139	keystroke_x	x	n/a
908.919	0.086	1817838	keystroke_x	x	n/a
909.251	0.144	1818502	keystroke_Key.space	Key.space	n/a
909.935	0.09	1819870	keystroke_i	i	n/a
910.0845	0.1055	1820169	keystroke_a	a	n/a
910.2495	0.06	1820499	keystroke_o	o	n/a
910.4305	0.0895	1820861	keystroke_Key.space	Key.space	n/a
910.64	0.075	1821280	keystroke_d	d	n/a
910.865	0.1065	1821730	keystroke_u	u	n/a
911.09	0.09	1822180	keystroke_i	i	n/a
911.3	0.09	1822600	keystroke_Key.space	Key.space	n/a
912.275	0.09	1824550	keystroke_r	r	n/a
912.845	0.105	1825690	keystroke_a	a	n/a
914.105	0.105	1828210	keystroke_n	n	n/a
914.33	0.105	1828660	keystroke_g	g	n/a
914.586	0.104	1829172	keystroke_Key.space	Key.space	n/a
914.8995	0.0905	1829799	keystroke_w	w	n/a
915.065	0.075	1830130	keystroke_o	o	n/a
915.216	0.149	1830432	keystroke_Key.space	Key.space	n/a
915.41	0.1055	1830820	keystroke_m	m	n/a
915.545	0.09	1831090	keystroke_e	e	n/a
915.74	0.09	1831480	keystroke_n	n	n/a
915.935	0.1495	1831870	keystroke_Key.space	Key.space	n/a
916.595	0.1045	1833190	keystroke_s	s	n/a
916.865	0.0895	1833730	keystroke_h	h	n/a
917.075	0.1055	1834150	keystroke_i	i	n/a
917.2845	0.0925	1834569	keystroke_Key.space	Key.space	n/a
917.525	0.0895	1835050	keystroke_y	y	n/a
917.7645	0.09	1835529	keystroke_i	i	n/a
917.9595	0.0905	1835919	keystroke_Key.space	Key.space	n/a
918.2045	0.0855	1836409	keystroke_s	s	n/a
918.38	0.0905	1836760	keystroke_h	h	n/a
918.65	0.06	1837300	keystroke_i	i	n/a
918.9355	0.0145	1837871	keystroke_Key.space	Key.space	n/a
919.0545	0.0905	1838109	keystroke_t	t	n/a
919.31	0.0745	1838620	keystroke_r	r	n/a
919.475	0.105	1838950	keystroke_a	a	n/a
919.685	0.0595	1839370	keystroke_y	y	n/a
920.015	0.076	1840030	keystroke_Key.enter	Key.enter	n/a
920.0955	21.086	1840191	prompt	n/a	tired shakespeare exactly closing\n
921.83	0.106	1843660	keystroke_t	t	n/a
922.3695	0.0905	1844739	keystroke_l	l	n/a
922.535	0.105	1845070	keystroke_a	a	n/a
922.748	0.072	1845496	keystroke_i	i	n/a
922.865	0.1045	1845730	keystroke_Key.space	Key.space	n/a
923.8545	0.0905	1847709	keystroke_l	l	n/a
924.6355	0.1045	1849271	keystroke_e	e	n/a
924.86	0.09	1849720	keystroke_i	i	n/a
925.1	0.105	1850200	keystroke_Key.space	Key.space	n/a
925.505	0.075	1851010	keystroke_l	l	n/a
925.73	0.105	1851460	keystroke_e	e	n/a
925.895	0.12	1851790	keystroke_Key.space	Key.space	n/a
926.8995	0.0905	1853799	keystroke_s	s	n/a
927.1995	0.0905	1854399	keystroke_h	h	n/a
927.44	0.09	1854880	keystroke_a	a	n/a
927.711	0.119	1855422	keystroke_Key.space	Key.space	n/a
928.552	0.088	1857104	keystroke_s	s	n/a
928.76	0.06	1857520	keystroke_h	h	n/a
928.9545	0.0755	1857909	keystroke_i	i	n/a
929.075	0.12	1858150	keystroke_Key.space	Key.space	n/a
929.3755	0.1045	1858751	keystroke_b	b	n/a
929.51	0.09	1859020	keystroke_i	i	n/a
929.855	0.12	1859710	keystroke_Key.space	Key.space	n/a
930.41	0.105	1860820	keystroke_y	y	n/a
930.545	0.1055	1861090	keystroke_a	a	n/a
930.8	0.0905	1861600	keystroke_Key.space	Key.space	n/a
935.4955	0.0745	1870991	keystroke_s	s	n/a
936.0055	0.1195	1872011	keystroke_j	j	n/a
936.215	0.1505	1872430	keystroke_i	i	n/a
936.3955	0.0895	1872791	keystroke_u	u	n/a
936.68	0.1505	1873360	keystroke_Key.space	Key.space	n/a
936.9655	0.075	1873931	keystroke_s	s	n/a
937.1005	0.0895	1874201	keystroke_h	h	n/a
937.3555	0.075	1874711	keystroke_i	i	n/a
937.4755	0.12	1874951	keystroke_Key.space	Key.space	n/a
938.7055	0.0905	1877411	keystroke_g	g	n/a
938.825	0.1075	1877650	keystroke_u	u	n/a
938.9455	0.1205	1877891	keystroke_a	a	n/a
939.2155	0.1195	1878431	keystroke_n	n	n/a
939.43	0.1155	1878860	keystroke_Key.space	Key.space	n/a
939.6205	0.0895	1879241	keystroke_m	m	n/a
939.861	0.0895	1879722	keystroke_e	e	n/a
940.1755	0.105	1880351	keystroke_n	n	n/a
940.355	0.075	1880710	keystroke_Key.space	Key.space	n/a
940.5505	0.075	1881101	keystroke_l	l	n/a
940.7605	0.09	1881521	keystroke_e	e	n/a
941.0755	0.105	1882151	keystroke_Key.enter	Key.enter	n/a
941.1845	11.4865	1882369	prompt	n/a	lucas marshall by progress\n
943.055	0.0755	1886110	keystroke_l	l	n/a
943.2655	0.0895	1886531	keystroke_u	u	n/a
943.7	0.1075	1887400	keystroke_c	c	n/a
943.975	0.0855	1887950	keystroke_a	a	n/a
944.3155	0.075	1888631	keystroke_s	s	n/a
944.54	0.1055	1889080	keystroke_Key.space	Key.space	n/a
945.0505	0.0595	1890101	keystroke_m	m	n/a
945.2605	0.105	1890521	keystroke_a	a	n/a
945.6055	0.12	1891211	keystroke_r	r	n/a
946.026	0.074	1892052	keystroke_s	s	n/a
946.2055	0.105	1892411	keystroke_h	h	n/a
946.385	0.1055	1892770	keystroke_a	a	n/a
946.5955	0.0745	1893191	keystroke_l	l	n/a
946.8205	0.105	1893641	keystroke_l	l	n/a
947.09	0.135	1894180	keystroke_Key.space	Key.space	n/a
947.4055	0.06	1894811	keystroke_b	b	n/a
947.6455	0.09	1895291	keystroke_y	y	n/a
947.7805	0.1495	1895561	keystroke_Key.space	Key.space	n/a
948.4105	0.107	1896821	keystroke_j	j	n/a
948.6205	0.075	1897241	keystroke_i	i	n/a
948.8	0.0905	1897600	keystroke_n	n	n/a
948.9205	0.1045	1897841	keystroke_Key.space	Key.space	n/a
949.2505	0.075	1898501	keystroke_d	d	n/a
949.385	0.1055	1898770	keystroke_u	u	n/a
949.685	0.1055	1899370	keystroke_Key.space	Key.space	n/a
949.955	0.075	1899910	keystroke_t	t	n/a
950.1205	0.105	1900241	keystroke_i	i	n/a
950.3	0.0905	1900600	keystroke_a	a	n/a
950.5405	0.0895	1901081	keystroke_o	o	n/a
952.6105	0.0595	1905221	keystroke_Key.enter	Key.enter	n/a
952.6735	16.4245	1905347	prompt	n/a	media equipped typing so\n
953.7355	0.121	1907471	keystroke_m	m	n/a
953.87	0.12	1907740	keystroke_e	e	n/a
954.8905	0.12	1909781	keystroke_d	d	n/a
955.7305	0.09	1911461	keystroke_i	i	n/a
955.9255	0.105	1911851	keystroke_a	a	n/a
956.2405	0.075	1912481	keystroke_Key.space	Key.space	n/a
956.6155	0.105	1913231	keystroke_m	m	n/a
956.7355	0.09	1913471	keystroke_e	e	n/a
957.02	0.015	1914040	keystroke_t	t	n/a
957.4405	0.0605	1914881	keystroke_i	i	n/a
958.536	0.0645	1917072	keystroke_Key.backspace	Key.backspace	n/a
958.715	0.0755	1917430	keystroke_Key.backspace	Key.backspace	n/a
958.9105	0.0745	1917821	keystroke_Key.backspace	Key.backspace	n/a
959.09	0.0755	1918180	keystroke_Key.backspace	Key.backspace	n/a
959.27	0.0455	1918540	keystroke_Key.backspace	Key.backspace	n/a
959.675	0.1055	1919350	keystroke_Key.space	Key.space	n/a
960.0355	0.075	1920071	keystroke_m	m	n/a
960.1405	0.075	1920281	keystroke_e	e	n/a
960.3955	0.105	1920791	keystroke_i	i	n/a
960.9655	0.075	1921931	keystroke_Key.backspace	Key.backspace	n/a
961.4155	0.0605	1922831	keystroke_i	i	n/a
961.8055	0.09	1923611	keystroke_t	t	n/a
961.9405	0.1055	1923881	keystroke_i	i	n/a
962.165	0.12	1924330	keystroke_Key.space	Key.space	n/a
962.885	0.1055	1925770	keystroke_z	z	n/a
963.0955	0.0745	1926191	keystroke_h	h	n/a
963.3205	0.09	1926641	keystroke_u	u	n/a
963.4745	0.101	1926949	keystroke_a	a	n/a
963.6205	0.105	1927241	keystroke_n	n	n/a
963.8455	0.105	1927691	keystroke_g	g	n/a
964.2205	0.105	1928441	keystroke_Key.space	Key.space	n/a
964.4305	0.09	1928861	keystroke_b	b	n/a
964.655	0.09	1929310	keystroke_e	e	n/a
964.8055	0.09	1929611	keystroke_i	i	n/a
964.926	0.1345	1929852	keystroke_Key.space	Key.space	n/a
965.1055	0.0895	1930211	keystroke_l	l	n/a
965.285	0.1055	1930570	keystroke_e	e	n/a
965.4955	0.15	1930991	keystroke_Key.space	Key.space	n/a
965.7505	0.165	1931501	keystroke_d	d	n/a
965.9	0.091	1931800	keystroke_a	a	n/a
966.2755	0.15	1932551	keystroke_Key.space	Key.space	n/a
966.5455	0.0895	1933091	keystroke_z	z	n/a
966.7105	0.0895	1933421	keystroke_i	i	n/a
967.25	0.15	1934500	keystroke_Key.space	Key.space	n/a
967.7	0.0905	1935400	keystroke_s	s	n/a
967.955	0.0755	1935910	keystroke_u	u	n/a
968.136	0.0745	1936272	keystroke_o	o	n/a
968.317	0.1485	1936634	keystroke_Key.space	Key.space	n/a
968.4955	0.0895	1936991	keystroke_y	y	n/a
968.7065	0.074	1937413	keystroke_i	i	n/a
969.0355	0.06	1938071	keystroke_Key.enter	Key.enter	n/a
969.101	18.221	1938202	prompt	n/a	distinguished epson participating modelling\n
971.42	0.1055	1942840	keystroke_f	f	n/a
971.705	0.1055	1943410	keystroke_e	e	n/a
971.855	0.1065	1943710	keystroke_i	i	n/a
972.0505	0.1045	1944101	keystroke_Key.space	Key.space	n/a
972.2605	0.075	1944521	keystroke_c	c	n/a
972.455	0.0755	1944910	keystroke_h	h	n/a
972.5605	0.105	1945121	keystroke_a	a	n/a
972.729	0.0865	1945458	keystroke_n	n	n/a
972.8455	0.1805	1945691	keystroke_g	g	n/a
973.04	0.0905	1946080	keystroke_Key.space	Key.space	n/a
973.295	0.09	1946590	keystroke_n	n	n/a
973.4455	0.09	1946891	keystroke_e	e	n/a
973.6405	0.0895	1947281	keystroke_n	n	n/a
973.8805	0.135	1947761	keystroke_g	g	n/a
974	0.1655	1948000	keystroke_Key.space	Key.space	n/a
974.54	0.0755	1949080	keystroke_b	b	n/a
974.7355	0.105	1949471	keystroke_e	e	n/a
974.9155	0.09	1949831	keystroke_i	i	n/a
975.0805	0.0895	1950161	keystroke_Key.space	Key.space	n/a
975.246	0.1045	1950492	keystroke_q	q	n/a
975.4255	0.09	1950851	keystroke_u	u	n/a
975.5605	0.12	1951121	keystroke_Key.space	Key.space	n/a
975.92	0.15	1951840	keystroke_f	f	n/a
976.1605	0.105	1952321	keystroke_e	e	n/a
976.3405	0.105	1952681	keystroke_n	n	n/a
976.5205	0.09	1953041	keystroke_Key.space	Key.space	n/a
976.685	0.0905	1953370	keystroke_d	d	n/a
976.8955	0.1045	1953791	keystroke_e	e	n/a
976.985	0.0905	1953970	keystroke_Key.space	Key.space	n/a
977.675	0.094	1955350	keystroke_e	e	n/a
977.9455	0.09	1955891	keystroke_p	p	n/a
978.1	0.085	1956200	keystroke_s	s	n/a
978.233	0.1175	1956466	keystroke_o	o	n/a
978.5	0.0905	1957000	keystroke_n	n	n/a
978.6655	0.1495	1957331	keystroke_Key.space	Key.space	n/a
979.505	0.1055	1959010	keystroke_c	c	n/a
979.8205	0.075	1959641	keystroke_a	a	n/a
979.9405	0.1055	1959881	keystroke_n	n	n/a
980.3905	0.105	1960781	keystroke_Key.space	Key.space	n/a
980.6155	0.0895	1961231	keystroke_j	j	n/a
980.8255	0.1055	1961651	keystroke_i	i	n/a
980.9755	0.1055	1961951	keystroke_a	a	n/a
981.185	0.1055	1962370	keystroke_Key.space	Key.space	n/a
981.3805	0.1045	1962761	keystroke_z	z	n/a
981.5905	0.0895	1963181	keystroke_h	h	n/a
981.711	0.1045	1963422	keystroke_a	a	n/a
981.8755	0.09	1963751	keystroke_n	n	n/a
982.116	0.0895	1964232	keystroke_e	e	n/a
982.67	0.0755	1965340	keystroke_Key.backspace	Key.backspace	n/a
982.8655	0.0605	1965731	keystroke_Key.backspace	Key.backspace	n/a
983.0305	0.09	1966061	keystroke_Key.backspace	Key.backspace	n/a
983.2555	0.0745	1966511	keystroke_e	e	n/a
983.3755	0.075	1966751	keystroke_n	n	n/a
983.5105	0.1045	1967021	keystroke_g	g	n/a
983.6455	0.12	1967291	keystroke_Key.space	Key.space	n/a
983.915	0.0905	1967830	keystroke_z	z	n/a
984.1405	0.0595	1968281	keystroke_a	a	n/a
984.3355	0.075	1968671	keystroke_i	i	n/a
984.485	0.1355	1968970	keystroke_Key.space	Key.space	n/a
985.9105	0.0595	1971821	keystroke_j	j	n/a
986.0755	0.09	1972151	keystroke_i	i	n/a
986.2555	0.0895	1972511	keystroke_a	a	n/a
986.3605	0.0605	1972721	keystroke_n	n	n/a
986.555	0.1205	1973110	keystroke_Key.space	Key.space	n/a
986.6905	0.12	1973381	keystroke_m	m	n/a
986.9005	0.105	1973801	keystroke_o	o	n/a
987.2455	0.075	1974491	keystroke_Key.enter	Key.enter	n/a
987.3245	18.162	1974649	prompt	n/a	progress fascinating mint troubleshooting\n
990.4405	0.12	1980881	keystroke_j	j	n/a
990.6205	0.105	1981241	keystroke_j	j	n/a
990.6955	0.136	1981391	keystroke_i	i	n/a
991.2965	0.119	1982593	keystroke_n	n	n/a
991.5205	0.12	1983041	keystroke_Key.space	Key.space	n/a
991.7455	0.105	1983491	keystroke_z	z	n/a
991.8955	0.0895	1983791	keystroke_h	h	n/a
992.015	0.1055	1984030	keystroke_a	a	n/a
992.225	0.0905	1984450	keystroke_n	n	n/a
992.3455	0.15	1984691	keystroke_Key.space	Key.space	n/a
992.84	0.1205	1985680	keystroke_f	f	n/a
993.0505	0.1065	1986101	keystroke_e	e	n/a
993.216	0.1195	1986432	keystroke_i	i	n/a
993.4885	0.087	1986977	keystroke_Key.space	Key.space	n/a
993.6545	0.086	1987309	keystroke_c	c	n/a
993.82	0.0705	1987640	keystroke_h	h	n/a
993.9355	0.09	1987871	keystroke_a	a	n/a
994.055	0.1355	1988110	keystroke_n	n	n/a
994.2355	0.1795	1988471	keystroke_g	g	n/a
994.4155	0.105	1988831	keystroke_Key.space	Key.space	n/a
994.7605	0.12	1989521	keystroke_j	j	n/a
995.1805	0.0745	1990361	keystroke_Key.backspace	Key.backspace	n/a
995.3755	0.09	1990751	keystroke_m	m	n/a
995.6005	0.0895	1991201	keystroke_i	i	n/a
995.7505	0.1055	1991501	keystroke_Key.space	Key.space	n/a
996.065	0.151	1992130	keystroke_r	r	n/a
996.2305	0.105	1992461	keystroke_e	e	n/a
996.47	0.106	1992940	keystroke_n	n	n/a
996.651	0.1505	1993302	keystroke_Key.space	Key.space	n/a
998.0755	0.09	1996151	keystroke_b	b	n/a
998.1805	0.0745	1996361	keystroke_o	o	n/a
998.3455	0.075	1996691	keystroke_Key.space	Key.space	n/a
998.53	0.055	1997060	keystroke_h	h	n/a
998.6155	0.12	1997231	keystroke_e	e	n/a
998.7805	0.12	1997561	keystroke_Key.space	Key.space	n/a
999.8605	0.075	1999721	keystroke_k	k	n/a
999.995	0.1205	1999990	keystroke_e	e	n/a
1000.116	0.119	2000232	keystroke_Key.space	Key.space	n/a
1000.355	0.1205	2000710	keystroke_y	y	n/a
1000.4455	0.15	2000891	keystroke_i	i	n/a
1000.7455	0.12	2001491	keystroke_Key.space	Key.space	n/a
1002.7255	0.195	2005451	keystroke_j	j	n/a
1002.8455	0.12	2005691	keystroke_i	i	n/a
1003.085	0.075	2006170	keystroke_e	e	n/a
1003.2805	0.092	2006561	keystroke_j	j	n/a
1003.505	0.0905	2007010	keystroke_u	u	n/a
1003.6105	0.09	2007221	keystroke_e	e	n/a
1003.8655	0.1945	2007731	keystroke_w	w	n/a
1004.0155	0.12	2008031	keystroke_e	e	n/a
1004.1955	0.0895	2008391	keystroke_n	n	n/a
1004.346	0.0895	2008692	keystroke_Key.space	Key.space	n/a
1004.63	0.0905	2009260	keystroke_t	t	n/a
1004.7655	0.1195	2009531	keystroke_i	i	n/a
1005.3955	0.0895	2010791	keystroke_Key.enter	Key.enter	n/a
1005.4895	10.6335	2010979	prompt	n/a	coat grey mississippi football\n
1007.2855	0.0605	2014571	keystroke_d	d	n/a
1007.4655	0.1195	2014931	keystroke_a	a	n/a
1007.7825	0.1485	2015565	keystroke_y	y	n/a
1007.855	0.1655	2015710	keystroke_i	i	n/a
1008.1405	0.0895	2016281	keystroke_Key.space	Key.space	n/a
1008.425	0.091	2016850	keystroke_h	h	n/a
1008.651	0.149	2017302	keystroke_u	u	n/a
1008.741	0.119	2017482	keystroke_i	i	n/a
1008.9065	0.209	2017813	keystroke_s	s	n/a
1008.9805	0.165	2017961	keystroke_e	e	n/a
1009.3105	0.12	2018621	keystroke_Key.space	Key.space	n/a
1009.505	0.1055	2019010	keystroke_m	m	n/a
1009.6855	0.105	2019371	keystroke_a	a	n/a
1009.7605	0.1045	2019521	keystroke_o	o	n/a
1010.016	0.1645	2020032	keystroke_y	y	n/a
1010.1055	0.1645	2020211	keystroke_i	i	n/a
1010.3305	0.1355	2020661	keystroke_Key.space	Key.space	n/a
1010.661	0.1795	2021322	keystroke_m	m	n/a
1010.885	0.1205	2021770	keystroke_i	i	n/a
1011.0655	0.15	2022131	keystroke_Key.space	Key.space	n/a
1011.2455	0.1055	2022491	keystroke_x	x	n/a
1011.3655	0.1345	2022731	keystroke_i	i	n/a
1011.5755	0.09	2023151	keystroke_x	x	n/a
1011.9505	0.12	2023901	keystroke_i	i	n/a
1012.16	0.1055	2024320	keystroke_Key.space	Key.space	n/a
1012.385	0.0905	2024770	keystroke_b	b	n/a
1012.5655	0.1045	2025131	keystroke_i	i	n/a
1012.7305	0.15	2025461	keystroke_Key.space	Key.space	n/a
1013.1955	0.0745	2026391	keystroke_h	h	n/a
1013.421	0.075	2026842	keystroke_e	e	n/a
1013.646	0.0895	2027292	keystroke_Key.space	Key.space	n/a
1014.335	0.1055	2028670	keystroke_z	z	n/a
1014.5155	0.09	2029031	keystroke_u	u	n/a
1014.7405	0.105	2029481	keystroke_Key.space	Key.space	n/a
1015.0255	0.09	2030051	keystroke_q	q	n/a
1015.3105	0.075	2030621	keystroke_i	i	n/a
1015.6405	0.0905	2031281	keystroke_u	u	n/a
1016.0315	0.089	2032063	keystroke_Key.enter	Key.enter	n/a
1016.1255	14.9365	2032251	prompt	n/a	knights axis prevention previously\n
1017.6805	0.1045	2035361	keystroke_q	q	n/a
1018.0405	0.09	2036081	keystroke_i	i	n/a
1018.311	0.089	2036622	keystroke_Key.space	Key.space	n/a
1018.5355	0.105	2037071	keystroke_s	s	n/a
1018.7455	0.06	2037491	keystroke_h	h	n/a
1019	0.1055	2038000	keystroke_i	i	n/a
1019.2255	0.12	2038451	keystroke_Key.space	Key.space	n/a
1019.9755	0.105	2039951	keystroke_d	d	n/a
1020.2005	0.1205	2040401	keystroke_e	e	n/a
1020.3655	0.1505	2040731	keystroke_Key.space	Key.space	n/a
1020.6955	0.0895	2041391	keystroke_z	z	n/a
1020.9355	0.076	2041871	keystroke_h	h	n/a
1021.2355	0.09	2042471	keystroke_u	u	n/a
1021.4605	0.105	2042921	keystroke_Key.space	Key.space	n/a
1021.685	0.1355	2043370	keystroke_z	z	n/a
1021.8805	0.0745	2043761	keystroke_h	h	n/a
1022.1355	0.105	2044271	keystroke_o	o	n/a
1022.376	0.1195	2044752	keystroke_u	u	n/a
1022.585	0.122	2045170	keystroke_Key.space	Key.space	n/a
1022.8725	0.103	2045745	keystroke_z	z	n/a
1023.3205	0.09	2046641	keystroke_u	u	n/a
1023.5905	0.105	2047181	keystroke_Key.space	Key.space	n/a
1023.8305	0.1205	2047661	keystroke_z	z	n/a
1024.0405	0.09	2048081	keystroke_h	h	n/a
1024.3705	0.075	2048741	keystroke_i	i	n/a
1024.6705	0.12	2049341	keystroke_Key.space	Key.space	n/a
1024.9405	0.075	2049881	keystroke_l	l	n/a
1025.2255	0.09	2050451	keystroke_e	e	n/a
1025.5405	0.12	2051081	keystroke_Key.space	Key.space	n/a
1026.4405	0.12	2052881	keystroke_w	w	n/a
1026.5905	0.1505	2053181	keystroke_o	o	n/a
1026.8455	0.1355	2053691	keystroke_Key.space	Key.space	n/a
1027.311	0.0895	2054622	keystroke_m	m	n/a
1027.491	0.09	2054982	keystroke_e	e	n/a
1027.7155	0.075	2055431	keystroke_n	n	n/a
1027.955	0.1505	2055910	keystroke_Key.space	Key.space	n/a
1028.212	0.1185	2056424	keystroke_d	d	n/a
1028.466	0.1045	2056932	keystroke_e	e	n/a
1028.676	0.105	2057352	keystroke_Key.space	Key.space	n/a
1028.916	0.105	2057832	keystroke_z	z	n/a
1029.1105	0.075	2058221	keystroke_h	h	n/a
1029.3655	0.09	2058731	keystroke_i	i	n/a
1029.59	0.105	2059180	keystroke_Key.space	Key.space	n/a
1029.831	0.1055	2059662	keystroke_q	q	n/a
1029.9805	0.1515	2059961	keystroke_i	i	n/a
1030.266	0.1195	2060532	keystroke_a	a	n/a
1030.566	0.0895	2061132	keystroke_n	n	n/a
1030.985	0.0755	2061970	keystroke_Key.enter	Key.enter	n/a
1031.0645	10.7375	2062129	prompt	n/a	based reward consequences i'd\n
1032.0505	0.075	2064101	keystroke_b	b	n/a
1032.2605	0.1345	2064521	keystroke_a	a	n/a
1032.516	0.107	2065032	keystroke_s	s	n/a
1032.7705	0.0905	2065541	keystroke_e	e	n/a
1033.0105	0.111	2066021	keystroke_d	d	n/a
1033.2545	0.146	2066509	keystroke_Key.space	Key.space	n/a
1033.5855	0.0995	2067171	keystroke_r	r	n/a
1033.8055	0.09	2067611	keystroke_e	e	n/a
1034.0755	0.105	2068151	keystroke_w	w	n/a
1034.3305	0.105	2068661	keystroke_a	a	n/a
1034.6005	0.105	2069201	keystroke_r	r	n/a
1034.8855	0.075	2069771	keystroke_d	d	n/a
1035.096	0.15	2070192	keystroke_Key.space	Key.space	n/a
1035.5005	0.09	2071001	keystroke_c	c	n/a
1035.74	0.0905	2071480	keystroke_o	o	n/a
1036.1605	0.075	2072321	keystroke_n	n	n/a
1036.896	0.0595	2073792	keystroke_s	s	n/a
1037.3755	0.075	2074751	keystroke_e	e	n/a
1037.7965	0.089	2075593	keystroke_q	q	n/a
1038.3055	0.09	2076611	keystroke_u	u	n/a
1038.6055	0.075	2077211	keystroke_e	e	n/a
1039.086	0.09	2078172	keystroke_n	n	n/a
1039.3855	0.06	2078771	keystroke_c	c	n/a
1039.641	0.0895	2079282	keystroke_e	e	n/a
1040.091	0.0905	2080182	keystroke_s	s	n/a
1040.391	0.105	2080782	keystroke_Key.space	Key.space	n/a
1040.736	0.09	2081472	keystroke_i	i	n/a
1041.051	0.09	2082102	keystroke_'	'	n/a
1041.321	0.0745	2082642	keystroke_d	d	n/a
1041.7255	0.075	2083451	keystroke_Key.enter	Key.enter	n/a
1041.8045	10.1835	2083609	prompt	n/a	syracuse stroke potential midwest\n
1042.9555	0.075	2085911	keystroke_s	s	n/a
1043.3025	0.118	2086605	keystroke_y	y	n/a
1043.781	0.0895	2087562	keystroke_r	r	n/a
1044.0655	0.15	2088131	keystroke_a	a	n/a
1044.5915	0.1045	2089183	keystroke_c	c	n/a
1044.861	0.105	2089722	keystroke_u	u	n/a
1045.131	0.075	2090262	keystroke_s	s	n/a
1045.431	0.105	2090862	keystroke_e	e	n/a
1045.6105	0.1205	2091221	keystroke_Key.space	Key.space	n/a
1045.911	0.1195	2091822	keystroke_s	s	n/a
1046.2555	0.0905	2092511	keystroke_t	t	n/a
1046.5255	0.0905	2093051	keystroke_r	r	n/a
1046.7355	0.1055	2093471	keystroke_o	o	n/a
1046.991	0.075	2093982	keystroke_k	k	n/a
1047.2605	0.1205	2094521	keystroke_e	e	n/a
1047.5005	0.1205	2095001	keystroke_Key.space	Key.space	n/a
1047.8155	0.09	2095631	keystroke_p	p	n/a
1048.0555	0.0905	2096111	keystroke_o	o	n/a
1048.296	0.1045	2096592	keystroke_t	t	n/a
1048.536	0.09	2097072	keystroke_e	e	n/a
1048.731	0.09	2097462	keystroke_n	n	n/a
1048.9855	0.0605	2097971	keystroke_t	t	n/a
1049.136	0.0745	2098272	keystroke_i	i	n/a
1049.346	0.105	2098692	keystroke_a	a	n/a
1049.5405	0.1055	2099081	keystroke_l	l	n/a
1049.766	0.1195	2099532	keystroke_Key.space	Key.space	n/a
1050.021	0.09	2100042	keystroke_m	m	n/a
1050.306	0.09	2100612	keystroke_i	i	n/a
1050.5305	0.1055	2101061	keystroke_d	d	n/a
1050.966	0.1195	2101932	keystroke_w	w	n/a
1051.161	0.12	2102322	keystroke_e	e	n/a
1051.416	0.075	2102832	keystroke_s	s	n/a
1051.6555	0.0605	2103311	keystroke_t	t	n/a
1051.9105	0.075	2103821	keystroke_Key.enter	Key.enter	n/a
1051.992	11.065	2103984	prompt	n/a	gibraltar someone's besides controlling\n
1052.8705	0.0755	2105741	keystroke_g	g	n/a
1052.991	0.0955	2105982	keystroke_i	i	n/a
1053.276	0.09	2106552	keystroke_b	b	n/a
1053.576	0.0895	2107152	keystroke_r	r	n/a
1053.906	0.108	2107812	keystroke_a	a	n/a
1054.3555	0.106	2108711	keystroke_l	l	n/a
1054.8815	0.0595	2109763	keystroke_t	t	n/a
1055.106	0.105	2110212	keystroke_a	a	n/a
1055.346	0.15	2110692	keystroke_Key.space	Key.space	n/a
1055.6155	0.0905	2111231	keystroke_s	s	n/a
1055.8555	0.0905	2111711	keystroke_o	o	n/a
1056.1705	0.1055	2112341	keystroke_m	m	n/a
1056.4855	0.0905	2112971	keystroke_e	e	n/a
1056.891	0.09	2113782	keystroke_o	o	n/a
1057.1455	0.0905	2114291	keystroke_n	n	n/a
1057.3705	0.094	2114741	keystroke_e	e	n/a
1057.596	0.1045	2115192	keystroke_'	'	n/a
1057.821	0.107	2115642	keystroke_s	s	n/a
1058.0315	0.119	2116063	keystroke_Key.space	Key.space	n/a
1058.2855	0.0905	2116571	keystroke_b	b	n/a
1058.526	0.105	2117052	keystroke_e	e	n/a
1058.7805	0.09	2117561	keystroke_s	s	n/a
1059.006	0.09	2118012	keystroke_i	i	n/a
1059.2615	0.0745	2118523	keystroke_d	d	n/a
1059.516	0.06	2119032	keystroke_e	e	n/a
1059.7705	0.0905	2119541	keystroke_s	s	n/a
1059.996	0.1045	2119992	keystroke_Key.space	Key.space	n/a
1060.2805	0.09	2120561	keystroke_c	c	n/a
1060.581	0.0895	2121162	keystroke_o	o	n/a
1060.8355	0.076	2121671	keystroke_n	n	n/a
1061.091	0.105	2122182	keystroke_t	t	n/a
1061.3605	0.105	2122721	keystroke_r	r	n/a
1061.5555	0.0905	2123111	keystroke_o	o	n/a
1061.796	0.075	2123592	keystroke_l	l	n/a
1061.9905	0.09	2123981	keystroke_l	l	n/a
1062.2915	0.0745	2124583	keystroke_i	i	n/a
1062.516	0.075	2125032	keystroke_n	n	n/a
1062.6705	0.1005	2125341	keystroke_g	g	n/a
1062.951	0.1045	2125902	keystroke_Key.enter	Key.enter	n/a
1063.0595	8.5475	2126119	prompt	n/a	acquire invite cast tradition\n
1064.0005	0.0905	2128001	keystroke_a	a	n/a
1064.2555	0.09	2128511	keystroke_c	c	n/a
1064.691	0.075	2129382	keystroke_q	q	n/a
1064.9755	0.1055	2129951	keystroke_u	u	n/a
1065.2005	0.0905	2130401	keystroke_i	i	n/a
1065.4405	0.1055	2130881	keystroke_r	r	n/a
1065.6655	0.105	2131331	keystroke_e	e	n/a
1065.891	0.12	2131782	keystroke_Key.space	Key.space	n/a
1066.326	0.09	2132652	keystroke_i	i	n/a
1066.566	0.105	2133132	keystroke_n	n	n/a
1066.806	0.09	2133612	keystroke_v	v	n/a
1066.956	0.1055	2133912	keystroke_i	i	n/a
1067.181	0.1045	2134362	keystroke_t	t	n/a
1067.406	0.12	2134812	keystroke_e	e	n/a
1067.571	0.15	2135142	keystroke_Key.space	Key.space	n/a
1067.845	0.086	2135690	keystroke_c	c	n/a
1068.0805	0.105	2136161	keystroke_a	a	n/a
1068.336	0.0745	2136672	keystroke_s	s	n/a
1068.576	0.105	2137152	keystroke_t	t	n/a
1068.696	0.12	2137392	keystroke_Key.space	Key.space	n/a
1068.9965	0.104	2137993	keystroke_t	t	n/a
1069.206	0.12	2138412	keystroke_r	r	n/a
1069.432	0.1035	2138864	keystroke_a	a	n/a
1070.016	0.06	2140032	keystroke_d	d	n/a
1070.151	0.1045	2140302	keystroke_i	i	n/a
1070.376	0.075	2140752	keystroke_t	t	n/a
1070.6905	0.0905	2141381	keystroke_i	i	n/a
1070.9605	0.105	2141921	keystroke_o	o	n/a
1071.231	0.0915	2142462	keystroke_n	n	n/a
1071.546	0.0595	2143092	keystroke_Key.enter	Key.enter	n/a
1071.6095	20.788	2143219	prompt	n/a	diamond mapping proxy violations\n
1072.836	0.075	2145672	keystroke_d	d	n/a
1073.061	0.075	2146122	keystroke_i	i	n/a
1073.6305	0.1055	2147261	keystroke_a	a	n/a
1074.6805	0.0455	2149361	keystroke_m	m	n/a
1074.891	0.0745	2149782	keystroke_o	o	n/a
1075.0705	0.0755	2150141	keystroke_n	n	n/a
1075.221	0.12	2150442	keystroke_Key.space	Key.space	n/a
1075.716	0.09	2151432	keystroke_z	z	n/a
1075.9555	0.09	2151911	keystroke_u	u	n/a
1076.166	0.105	2152332	keystroke_a	a	n/a
1076.316	0.105	2152632	keystroke_n	n	n/a
1076.691	0.075	2153382	keystroke_Key.space	Key.space	n/a
1076.916	0.075	2153832	keystroke_s	s	n/a
1077.1555	0.015	2154311	keystroke_h	h	n/a
1077.3065	0.0745	2154613	keystroke_i	i	n/a
1077.501	0.105	2155002	keystroke_Key.space	Key.space	n/a
1078.311	0.0895	2156622	keystroke_d	d	n/a
1078.476	0.0805	2156952	keystroke_i	i	n/a
1078.596	0.0895	2157192	keystroke_Key.space	Key.space	n/a
1078.851	0.06	2157702	keystroke_t	t	n/a
1078.9555	0.0905	2157911	keystroke_u	u	n/a
1079.346	0.12	2158692	keystroke_Key.space	Key.space	n/a
1080.801	0.0755	2161602	keystroke_p	p	n/a
1080.9665	0.1045	2161933	keystroke_a	a	n/a
1081.1005	0.09	2162201	keystroke_i	i	n/a
1081.266	0.0895	2162532	keystroke_Key.space	Key.space	n/a
1081.446	0.0915	2162892	keystroke_b	b	n/a
1081.671	0.09	2163342	keystroke_u	u	n/a
1081.896	0.12	2163792	keystroke_Key.space	Key.space	n/a
1082.196	0.075	2164392	keystroke_d	d	n/a
1082.391	0.1055	2164782	keystroke_u	u	n/a
1082.646	0.105	2165292	keystroke_i	i	n/a
1082.886	0.09	2165772	keystroke_Key.space	Key.space	n/a
1083.036	0.15	2166072	keystroke_y	y	n/a
1083.2765	0.0895	2166553	keystroke_i	i	n/a
1083.5005	0.0905	2167001	keystroke_n	n	n/a
1083.681	0.15	2167362	keystroke_g	g	n/a
1083.966	0.1045	2167932	keystroke_Key.space	Key.space	n/a
1084.146	0.1505	2168292	keystroke_y	y	n/a
1084.4605	0.0755	2168921	keystroke_i	i	n/a
1084.701	0.09	2169402	keystroke_n	n	n/a
1084.8355	0.12	2169671	keystroke_Key.space	Key.space	n/a
1085.076	0.105	2170152	keystroke_z	z	n/a
1085.166	0.075	2170332	keystroke_h	h	n/a
1085.3315	0.0895	2170663	keystroke_a	a	n/a
1085.481	0.1505	2170962	keystroke_o	o	n/a
1085.691	0.15	2171382	keystroke_Key.space	Key.space	n/a
1085.8855	0.0905	2171771	keystroke_z	z	n/a
1086.096	0.06	2172192	keystroke_a	a	n/a
1086.321	0.105	2172642	keystroke_i	i	n/a
1086.531	0.1055	2173062	keystroke_Key.space	Key.space	n/a
1086.7265	0.1045	2173453	keystroke_d	d	n/a
1086.981	0.075	2173962	keystroke_a	a	n/a
1087.176	0.105	2174352	keystroke_i	i	n/a
1087.521	0.1045	2175042	keystroke_Key.space	Key.space	n/a
1087.776	0.09	2175552	keystroke_l	l	n/a
1088.016	0.1055	2176032	keystroke_i	i	n/a
1088.181	0.12	2176362	keystroke_Key.space	Key.space	n/a
1089.186	0.0755	2178372	keystroke_d	d	n/a
1089.3975	0.103	2178795	keystroke_e	e	n/a
1089.651	0.0745	2179302	keystroke_Key.space	Key.space	n/a
1089.831	0.105	2179662	keystroke_b	b	n/a
1090.0275	0.1035	2180055	keystroke_a	a	n/a
1090.1455	0.1055	2180291	keystroke_o	o	n/a
1090.4005	0.1505	2180801	keystroke_l	l	n/a
1090.686	0.12	2181372	keystroke_i	i	n/a
1090.8815	0.1195	2181763	keystroke_Key.space	Key.space	n/a
1091.106	0.075	2182212	keystroke_s	s	n/a
1091.2565	0.0895	2182513	keystroke_h	h	n/a
1091.361	0.105	2182722	keystroke_a	a	n/a
1091.496	0.091	2182992	keystroke_n	n	n/a
1091.946	0.0905	2183892	keystroke_g	g	n/a
1092.321	0.075	2184642	keystroke_Key.enter	Key.enter	n/a
1092.4	10.1375	2184800	prompt	n/a	wright environmental blades writes\n
1094.196	0.06	2188392	keystroke_h	h	n/a
1094.361	0.09	2188722	keystroke_u	u	n/a
1094.481	0.1045	2188962	keystroke_a	a	n/a
1094.7215	0.0745	2189443	keystroke_i	i	n/a
1094.946	0.075	2189892	keystroke_Key.space	Key.space	n/a
1095.156	0.0755	2190312	keystroke_t	t	n/a
1095.336	0.12	2190672	keystroke_e	e	n/a
1095.5915	0.1495	2191183	keystroke_Key.space	Key.space	n/a
1096.491	0.06	2192982	keystroke_h	h	n/a
1096.671	0.075	2193342	keystroke_u	u	n/a
1096.7765	0.105	2193553	keystroke_a	a	n/a
1096.9265	0.105	2193853	keystroke_n	n	n/a
1097.2415	0.1045	2194483	keystroke_Key.space	Key.space	n/a
1097.407	0.089	2194814	keystroke_j	j	n/a
1097.6315	0.1045	2195263	keystroke_i	i	n/a
1097.841	0.075	2195682	keystroke_n	n	n/a
1097.9925	0.089	2195985	keystroke_g	g	n/a
1098.1905	0.0855	2196381	keystroke_Key.space	Key.space	n/a
1099.2365	0.1045	2198473	keystroke_d	d	n/a
1099.4465	0.1045	2198893	keystroke_a	a	n/a
1099.5665	0.1195	2199133	keystroke_o	o	n/a
1099.731	0.1055	2199462	keystroke_Key.space	Key.space	n/a
1099.9265	0.1205	2199853	keystroke_f	f	n/a
1100.016	0.1205	2200032	keystroke_e	e	n/a
1100.2265	0.0595	2200453	keystroke_n	n	n/a
1100.4215	0.1195	2200843	keystroke_g	g	n/a
1100.586	0.121	2201172	keystroke_Key.space	Key.space	n/a
1101.1265	0.0745	2202253	keystroke_x	x	n/a
1101.216	0.1055	2202432	keystroke_i	i	n/a
1101.381	0.105	2202762	keystroke_e	e	n/a
1101.636	0.105	2203272	keystroke_Key.space	Key.space	n/a
1101.801	0.09	2203602	keystroke_d	d	n/a
1101.982	0.119	2203964	keystroke_a	a	n/a
1102.1325	0.1185	2204265	keystroke_o	o	n/a
1102.446	0.09	2204892	keystroke_Key.enter	Key.enter	n/a
