onset	duration	sample	value	key	prompt_text
5.6505	11.061	11301	prompt	n/a	the quick brown fox jumps over a lazy dog\n
7.0515	0	14103	keystroke_t	t	n/a
7.0775	0.06	14155	keystroke_h	h	n/a
7.1525	0.06	14305	keystroke_e	e	n/a
7.4835	0.0905	14967	keystroke_Key.space	Key.space	n/a
9.014	0.059	18028	keystroke_q	q	n/a
9.088	0.12	18176	keystroke_u	u	n/a
9.179	0.09	18358	keystroke_i	i	n/a
9.284	0.06	18568	keystroke_c	c	n/a
9.403	0.076	18806	keystroke_k	k	n/a
9.569	0.075	19138	keystroke_Key.space	Key.space	n/a
9.824	0.09	19648	keystroke_b	b	n/a
9.928	0.045	19856	keystroke_r	r	n/a
10.033	0.076	20066	keystroke_o	o	n/a
10.139	0.06	20278	keystroke_w	w	n/a
10.229	0.06	20458	keystroke_n	n	n/a
10.348	0.121	20696	keystroke_Key.space	Key.space	n/a
10.664	0.074	21328	keystroke_f	f	n/a
10.769	0.06	21538	keystroke_o	o	n/a
10.904	0.104	21808	keystroke_x	x	n/a
11.113	0.06	22226	keystroke_Key.space	Key.space	n/a
11.548	0.061	23096	keystroke_j	j	n/a
11.714	0.06	23428	keystroke_u	u	n/a
11.8645	0.135	23729	keystroke_m	m	n/a
11.9835	0.091	23967	keystroke_p	p	n/a
12.1195	0.09	24239	keystroke_s	s	n/a
12.1785	0.105	24357	keystroke_Key.space	Key.space	n/a
12.3445	0.075	24689	keystroke_o	o	n/a
12.4645	0.03	24929	keystroke_f	f	n/a
12.7945	0.0745	25589	keystroke_Key.backspace	Key.backspace	n/a
12.899	0.06	25798	keystroke_v	v	n/a
13.139	0.105	26278	keystroke_e	e	n/a
13.214	0.09	26428	keystroke_r	r	n/a
13.6485	0.06	27297	keystroke_Key.space	Key.space	n/a
13.7235	0.075	27447	keystroke_a	a	n/a
13.7835	0.105	27567	keystroke_Key.space	Key.space	n/a
13.9185	0.075	27837	keystroke_l	l	n/a
14.2335	0.0755	28467	keystroke_a	a	n/a
14.609	0.09	29218	keystroke_z	z	n/a
14.729	0.06	29458	keystroke_y	y	n/a
15.5085	0.015	31017	keystroke_Key.space	Key.space	n/a
16.0035	0.075	32007	keystroke_d	d	n/a
16.1085	0.06	32217	keystroke_o	o	n/a
16.2285	0.06	32457	keystroke_g	g	n/a
16.6635	0.045	33327	keystroke_Key.enter	Key.enter	n/a
16.716	8.814	33432	prompt	n/a	collaboration nearest opening worthy\n
17.7135	0.06	35427	keystroke_c	c	n/a
17.8035	0.06	35607	keystroke_o	o	n/a
17.9985	0.03	35997	keystroke_l	l	n/a
18.1335	0.075	36267	keystroke_l	l	n/a
18.2685	0.06	36537	keystroke_a	a	n/a
18.7935	0.075	37587	keystroke_b	b	n/a
19.1385	0.075	38277	keystroke_o	o	n/a
19.4385	0.06	38877	keystroke_r	r	n/a
19.6185	0.09	39237	keystroke_a	a	n/a
19.8135	0.045	39627	keystroke_t	t	n/a
19.8435	0.12	39687	keystroke_i	i	n/a
19.9335	0.045	39867	keystroke_o	o	n/a
20.0685	0.045	40137	keystroke_n	n	n/a
20.1735	0.09	40347	keystroke_Key.space	Key.space	n/a
20.3235	0.075	40647	keystroke_n	n	n/a
20.413	0.0755	40826	keystroke_e	e	n/a
20.608	0.105	41216	keystroke_a	a	n/a
21.1635	0.075	42327	keystroke_r	r	n/a
21.4335	0.06	42867	keystroke_e	e	n/a
21.5985	0.105	43197	keystroke_s	s	n/a
21.808	0.075	43616	keystroke_t	t	n/a
21.868	0.09	43736	keystroke_Key.space	Key.space	n/a
22.063	0.135	44126	keystroke_o	o	n/a
22.213	0.075	44426	keystroke_p	p	n/a
22.543	0.06	45086	keystroke_e	e	n/a
22.648	0.06	45296	keystroke_n	n	n/a
22.828	0.06	45656	keystroke_i	i	n/a
22.948	0.075	45896	keystroke_n	n	n/a
23.053	0.09	46106	keystroke_g	g	n/a
23.098	0.105	46196	keystroke_Key.space	Key.space	n/a
23.218	0.09	46436	keystroke_w	w	n/a
23.293	0.075	46586	keystroke_o	o	n/a
23.623	0.06	47246	keystroke_r	r	n/a
24.103	0.075	48206	keystroke_t	t	n/a
24.208	0.075	48416	keystroke_h	h	n/a
24.388	0.075	48776	keystroke_y	y	n/a
25.453	0.075	50906	keystroke_Key.enter	Key.enter	n/a
25.5335	14.0065	51067	prompt	n/a	motorcycles celebrity vegetable chronicle\n
27.328	0.12	54656	keystroke_m	m	n/a
27.493	0.045	54986	keystroke_o	o	n/a
27.673	0.06	55346	keystroke_t	t	n/a
27.748	0.09	55496	keystroke_o	o	n/a
28.288	0.03	56576	keystroke_r	r	n/a
28.618	0.0445	57236	keystroke_c	c	n/a
29.4875	0.09	58975	keystroke_y	y	n/a
29.7575	0.06	59515	keystroke_c	c	n/a
30.808	0.045	61616	keystroke_l	l	n/a
30.883	0.075	61766	keystroke_e	e	n/a
31.063	0.075	62126	keystroke_s	s	n/a
31.153	0.105	62306	keystroke_Key.space	Key.space	n/a
31.303	0.09	62606	keystroke_c	c	n/a
31.483	0.03	62966	keystroke_e	e	n/a
31.558	0.06	63116	keystroke_l	l	n/a
32.2175	0.03	64435	keystroke_e	e	n/a
32.3225	0.075	64645	keystroke_b	b	n/a
32.5185	0.029	65037	keystroke_r	r	n/a
32.8475	0.06	65695	keystroke_i	i	n/a
32.9675	0.046	65935	keystroke_t	t	n/a
33.1025	0.03	66205	keystroke_y	y	n/a
33.6575	0.075	67315	keystroke_Key.space	Key.space	n/a
33.8525	0.045	67705	keystroke_v	v	n/a
34.0175	0.045	68035	keystroke_e	e	n/a
34.1675	0.06	68335	keystroke_g	g	n/a
34.3325	0.075	68665	keystroke_a	a	n/a
34.9475	0.06	69895	keystroke_Key.backspace	Key.backspace	n/a
35.0225	0.091	70045	keystroke_e	e	n/a
35.4575	0.045	70915	keystroke_t	t	n/a
35.6825	0.106	71365	keystroke_a	a	n/a
35.8025	0.016	71605	keystroke_b	b	n/a
35.9685	0.059	71937	keystroke_l	l	n/a
36.0425	0.03	72085	keystroke_e	e	n/a
36.5675	0.09	73135	keystroke_Key.space	Key.space	n/a
36.8675	0.06	73735	keystroke_c	c	n/a
37.1535	0.074	74307	keystroke_h	h	n/a
37.4385	0.075	74877	keystroke_r	r	n/a
37.5725	0.061	75145	keystroke_o	o	n/a
37.7525	0.091	75505	keystroke_n	n	n/a
37.8885	0.06	75777	keystroke_i	i	n/a
37.9775	0.091	75955	keystroke_c	c	n/a
38.6385	0.075	77277	keystroke_l	l	n/a
38.7425	0.046	77485	keystroke_e	e	n/a
39.4775	0.061	78955	keystroke_Key.enter	Key.enter	n/a
39.543	11.292	79086	prompt	n/a	recent conversion resource subscription\n
40.273	0.06	80546	keystroke_r	r	n/a
40.363	0.089	80726	keystroke_e	e	n/a
40.558	0.075	81116	keystroke_c	c	n/a
40.768	0.06	81536	keystroke_e	e	n/a
40.9025	0.06	81805	keystroke_n	n	n/a
41.0375	0.06	82075	keystroke_t	t	n/a
41.3525	0.09	82705	keystroke_Key.space	Key.space	n/a
41.4725	0.06	82945	keystroke_c	c	n/a
41.5475	0.06	83095	keystroke_o	o	n/a
41.6675	0.06	83335	keystroke_n	n	n/a
42.9125	0.075	85825	keystroke_v	v	n/a
43.1825	0.12	86365	keystroke_e	e	n/a
43.3325	0.06	86665	keystroke_r	r	n/a
43.5275	0.075	87055	keystroke_s	s	n/a
43.6625	0.18	87325	keystroke_i	i	n/a
43.7675	0.09	87535	keystroke_o	o	n/a
43.9475	0.06	87895	keystroke_n	n	n/a
44.3075	0.105	88615	keystroke_Key.space	Key.space	n/a
44.4575	0.06	88915	keystroke_r	r	n/a
44.6075	0.045	89215	keystroke_e	e	n/a
44.7725	0.075	89545	keystroke_s	s	n/a
44.9825	0.075	89965	keystroke_o	o	n/a
45.1475	0.09	90295	keystroke_u	u	n/a
45.2525	0.06	90505	keystroke_r	r	n/a
45.5375	0.045	91075	keystroke_c	c	n/a
45.9125	0.06	91825	keystroke_e	e	n/a
46.8125	0.09	93625	keystroke_Key.space	Key.space	n/a
46.9325	0.045	93865	keystroke_s	s	n/a
47.0225	0.09	94045	keystroke_u	u	n/a
47.1875	0.06	94375	keystroke_b	b	n/a
48.403	0.09	96806	keystroke_s	s	n/a
48.523	0.105	97046	keystroke_c	c	n/a
48.913	0.06	97826	keystroke_r	r	n/a
49.138	0.06	98276	keystroke_i	i	n/a
49.318	0.06	98636	keystroke_p	p	n/a
49.513	0.03	99026	keystroke_t	t	n/a
49.588	0.12	99176	keystroke_i	i	n/a
49.648	0.105	99296	keystroke_o	o	n/a
49.813	0.075	99626	keystroke_n	n	n/a
50.773	0.06	101546	keystroke_Key.enter	Key.enter	n/a
50.839	9.416	101678	prompt	n/a	estates interim oughtn't measure\n
51.6875	0.06	103375	keystroke_e	e	n/a
51.8525	0.105	103705	keystroke_s	s	n/a
52.0775	0.06	104155	keystroke_t	t	n/a
52.8275	0.105	105655	keystroke_a	a	n/a
52.9625	0.045	105925	keystroke_t	t	n/a
53.1125	0.075	106225	keystroke_e	e	n/a
53.2775	0.075	106555	keystroke_s	s	n/a
53.4125	0.105	106825	keystroke_Key.space	Key.space	n/a
53.5625	0.075	107125	keystroke_i	i	n/a
53.7125	0.075	107425	keystroke_n	n	n/a
53.8025	0.075	107605	keystroke_t	t	n/a
53.9675	0.12	107935	keystroke_e	e	n/a
54.0575	0.075	108115	keystroke_r	r	n/a
54.4025	0.045	108805	keystroke_i	i	n/a
54.5525	0.075	109105	keystroke_m	m	n/a
54.7175	0.105	109435	keystroke_Key.space	Key.space	n/a
54.8675	0.0905	109735	keystroke_o	o	n/a
55.063	0.06	110126	keystroke_u	u	n/a
55.168	0.0745	110336	keystroke_t	t	n/a
55.5575	0.09	111115	keystroke_g	g	n/a
55.8875	0.03	111775	keystroke_Key.backspace	Key.backspace	n/a
56.0075	0.075	112015	keystroke_Key.backspace	Key.backspace	n/a
56.1725	0.075	112345	keystroke_g	g	n/a
57.013	0.045	114026	keystroke_h	h	n/a
57.178	0.06	114356	keystroke_t	t	n/a
57.3725	0.0455	114745	keystroke_n	n	n/a
58.198	0.045	116396	keystroke_'	'	n/a
58.348	0.075	116696	keystroke_t	t	n/a
58.708	0.12	117416	keystroke_Key.space	Key.space	n/a
59.008	0.06	118016	keystroke_m	m	n/a
59.083	0.06	118166	keystroke_e	e	n/a
59.248	0.075	118496	keystroke_a	a	n/a
59.413	0.075	118826	keystroke_s	s	n/a
59.503	0.06	119006	keystroke_u	u	n/a
59.6525	0.0305	119305	keystroke_r	r	n/a
59.7425	0.045	119485	keystroke_e	e	n/a
60.1925	0.06	120385	keystroke_Key.enter	Key.enter	n/a
60.258	9.0115	120516	prompt	n/a	timber designs abandoned possibly\n
61.2575	0.075	122515	keystroke_t	t	n/a
61.3175	0.06	122635	keystroke_i	i	n/a
61.4675	0.105	122935	keystroke_m	m	n/a
61.7225	0.045	123445	keystroke_b	b	n/a
61.7825	0.12	123565	keystroke_e	e	n/a
61.8875	0.06	123775	keystroke_r	r	n/a
61.9625	0.12	123925	keystroke_Key.space	Key.space	n/a
62.0975	0.045	124195	keystroke_d	d	n/a
62.2625	0.045	124525	keystroke_e	e	n/a
62.3975	0.06	124795	keystroke_s	s	n/a
62.5325	0.075	125065	keystroke_i	i	n/a
62.7275	0.045	125455	keystroke_g	g	n/a
62.8025	0.06	125605	keystroke_n	n	n/a
63.1325	0.075	126265	keystroke_s	s	n/a
63.3875	0.06	126775	keystroke_Key.space	Key.space	n/a
64.7225	0.075	129445	keystroke_a	a	n/a
65.3675	0.045	130735	keystroke_b	b	n/a
65.7875	0.045	131575	keystroke_a	a	n/a
65.8925	0.09	131785	keystroke_n	n	n/a
66.0425	0.075	132085	keystroke_d	d	n/a
66.1775	0.09	132355	keystroke_o	o	n/a
66.3275	0.075	132655	keystroke_n	n	n/a
66.4475	0.045	132895	keystroke_e	e	n/a
66.6425	0.045	133285	keystroke_d	d	n/a
66.7625	0.105	133525	keystroke_Key.space	Key.space	n/a
66.9275	0.045	133855	keystroke_p	p	n/a
67.4075	0.045	134815	keystroke_o	o	n/a
67.7675	0.06	135535	keystroke_s	s	n/a
67.9175	0.075	135835	keystroke_s	s	n/a
68.0225	0.075	136045	keystroke_i	i	n/a
68.2175	0.045	136435	keystroke_b	b	n/a
68.4125	0.075	136825	keystroke_l	l	n/a
68.7125	0.03	137425	keystroke_y	y	n/a
69.2225	0.045	138445	keystroke_Key.enter	Key.enter	n/a
69.2735	6.086	138547	prompt	n/a	support dream juan screensaver\n
70.0025	0.075	140005	keystroke_s	s	n/a
70.1525	0.06	140305	keystroke_u	u	n/a
70.3625	0.06	140725	keystroke_p	p	n/a
70.4975	0.06	140995	keystroke_p	p	n/a
70.6925	0.045	141385	keystroke_o	o	n/a
70.7525	0.09	141505	keystroke_r	r	n/a
70.9175	0.075	141835	keystroke_t	t	n/a
71.0075	0.105	142015	keystroke_Key.space	Key.space	n/a
71.1725	0.075	142345	keystroke_d	d	n/a
71.4125	0.045	142825	keystroke_r	r	n/a
71.5775	0.075	143155	keystroke_e	e	n/a
71.7275	0.09	143455	keystroke_a	a	n/a
71.8475	0.09	143695	keystroke_m	m	n/a
71.9825	0.135	143965	keystroke_Key.space	Key.space	n/a
72.2225	0.075	144445	keystroke_j	j	n/a
72.4175	0.06	144835	keystroke_u	u	n/a
72.5225	0.105	145045	keystroke_a	a	n/a
72.6425	0.06	145285	keystroke_n	n	n/a
72.9425	0.075	145885	keystroke_Key.space	Key.space	n/a
73.1825	0.09	146365	keystroke_s	s	n/a
73.3475	0.09	146695	keystroke_c	c	n/a
73.6025	0.06	147205	keystroke_r	r	n/a
73.7225	0.075	147445	keystroke_e	e	n/a
73.8725	0.075	147745	keystroke_e	e	n/a
74.0525	0.06	148105	keystroke_n	n	n/a
74.4125	0.075	148825	keystroke_s	s	n/a
74.5925	0.075	149185	keystroke_a	a	n/a
74.7125	0.075	149425	keystroke_v	v	n/a
74.9525	0.135	149905	keystroke_e	e	n/a
75.0575	0.075	150115	keystroke_r	r	n/a
75.2975	0.06	150595	keystroke_Key.enter	Key.enter	n/a
75.364	9.355	150728	prompt	n/a	merchants obvious proceed sufficient\n
76.1825	0.12	152365	keystroke_m	m	n/a
76.2725	0.09	152545	keystroke_e	e	n/a
76.5275	0.06	153055	keystroke_r	r	n/a
76.9175	0.06	153835	keystroke_h	h	n/a
77.2775	0.06	154555	keystroke_Key.backspace	Key.backspace	n/a
77.3825	0.06	154765	keystroke_c	c	n/a
77.5175	0.06	155035	keystroke_h	h	n/a
78.2525	0.06	156505	keystroke_a	a	n/a
78.3575	0.06	156715	keystroke_n	n	n/a
78.4775	0.06	156955	keystroke_t	t	n/a
78.7625	0.06	157525	keystroke_s	s	n/a
78.9875	0.09	157975	keystroke_Key.space	Key.space	n/a
79.3175	0.09	158635	keystroke_o	o	n/a
79.4825	0.075	158965	keystroke_b	b	n/a
79.7525	0.045	159505	keystroke_v	v	n/a
79.9025	0.15	159805	keystroke_i	i	n/a
80.0375	0.09	160075	keystroke_o	o	n/a
80.2175	0.09	160435	keystroke_u	u	n/a
80.4575	0.075	160915	keystroke_s	s	n/a
80.9825	0.09	161965	keystroke_Key.space	Key.space	n/a
81.1175	0.09	162235	keystroke_p	p	n/a
81.2825	0.06	162565	keystroke_r	r	n/a
81.3875	0.06	162775	keystroke_o	o	n/a
81.5375	0.06	163075	keystroke_c	c	n/a
81.8375	0.06	163675	keystroke_e	e	n/a
81.9875	0.06	163975	keystroke_e	e	n/a
82.1835	0.059	164367	keystroke_d	d	n/a
82.3925	0.09	164785	keystroke_Key.space	Key.space	n/a
82.4835	0.104	164967	keystroke_s	s	n/a
82.6325	0.076	165265	keystroke_u	u	n/a
82.7825	0.06	165565	keystroke_f	f	n/a
82.9475	0.045	165895	keystroke_f	f	n/a
83.0525	0.06	166105	keystroke_i	i	n/a
83.1875	0.06	166375	keystroke_c	c	n/a
83.7585	0.089	167517	keystroke_i	i	n/a
83.9085	0.059	167817	keystroke_e	e	n/a
83.9975	0.045	167995	keystroke_n	n	n/a
84.1475	0.06	168295	keystroke_t	t	n/a
84.6575	0.06	169315	keystroke_Key.enter	Key.enter	n/a
84.7225	7.4515	169445	prompt	n/a	notify regarded steve seniors\n
85.4075	0.105	170815	keystroke_n	n	n/a
85.5275	0.075	171055	keystroke_o	o	n/a
85.6175	0.06	171235	keystroke_t	t	n/a
85.7075	0.076	171415	keystroke_i	i	n/a
85.8425	0.06	171685	keystroke_f	f	n/a
86.0075	0.045	172015	keystroke_y	y	n/a
86.2625	0.09	172525	keystroke_Key.space	Key.space	n/a
86.608	0.09	173216	keystroke_r	r	n/a
86.728	0.09	173456	keystroke_e	e	n/a
86.923	0.075	173846	keystroke_g	g	n/a
87.043	0.105	174086	keystroke_a	a	n/a
87.193	0.06	174386	keystroke_r	r	n/a
87.403	0.045	174806	keystroke_d	d	n/a
87.553	0.06	175106	keystroke_e	e	n/a
87.733	0.06	175466	keystroke_d	d	n/a
87.823	0.09	175646	keystroke_Key.space	Key.space	n/a
87.988	0.075	175976	keystroke_s	s	n/a
88.168	0.06	176336	keystroke_t	t	n/a
88.423	0.075	176846	keystroke_e	e	n/a
88.708	0.075	177416	keystroke_v	v	n/a
88.933	0.075	177866	keystroke_e	e	n/a
89.098	0.12	178196	keystroke_Key.space	Key.space	n/a
89.233	0.09	178466	keystroke_s	s	n/a
90.658	0.06	181316	keystroke_e	e	n/a
90.793	0.045	181586	keystroke_n	n	n/a
91.183	0.15	182366	keystroke_i	i	n/a
91.288	0.09	182576	keystroke_o	o	n/a
91.408	0.045	182816	keystroke_r	r	n/a
91.783	0.075	183566	keystroke_s	s	n/a
92.128	0.045	184256	keystroke_Key.enter	Key.enter	n/a
92.177	15.4025	184354	prompt	n/a	maldives complement configuration restrict\n
93.0585	0.104	186117	keystroke_m	m	n/a
93.2075	0.03	186415	keystroke_a	a	n/a
93.5375	0.045	187075	keystroke_l	l	n/a
93.6275	0.075	187255	keystroke_d	d	n/a
94.9775	0.075	189955	keystroke_i	i	n/a
95.0975	0.075	190195	keystroke_v	v	n/a
95.3375	0.045	190675	keystroke_e	e	n/a
95.5025	0.06	191005	keystroke_s	s	n/a
95.7875	0.09	191575	keystroke_Key.space	Key.space	n/a
96.0275	0.09	192055	keystroke_c	c	n/a
96.1335	0.059	192267	keystroke_o	o	n/a
96.3125	0.09	192625	keystroke_m	m	n/a
96.3585	0.104	192717	keystroke_p	p	n/a
96.8375	0.075	193675	keystroke_l	l	n/a
97.3625	0.06	194725	keystroke_e	e	n/a
97.5875	0.06	195175	keystroke_m	m	n/a
97.6935	0.06	195387	keystroke_e	e	n/a
97.8585	0.014	195717	keystroke_n	n	n/a
97.9335	0.044	195867	keystroke_t	t	n/a
98.4125	0.09	196825	keystroke_Key.space	Key.space	n/a
98.7285	0.059	197457	keystroke_c	c	n/a
98.7585	0.104	197517	keystroke_o	o	n/a
98.9085	0.075	197817	keystroke_n	n	n/a
99.0285	0.044	198057	keystroke_f	f	n/a
99.1785	0.045	198357	keystroke_i	i	n/a
100.1225	0.061	200245	keystroke_g	g	n/a
100.2735	0.045	200547	keystroke_u	u	n/a
100.5135	0.074	201027	keystroke_r	r	n/a
100.7385	0.045	201477	keystroke_a	a	n/a
100.9935	0.09	201987	keystroke_i	i	n/a
101.0235	0.089	202047	keystroke_o	o	n/a
101.3525	0.061	202705	keystroke_Key.backspace	Key.backspace	n/a
101.9535	0.075	203907	keystroke_Key.backspace	Key.backspace	n/a
102.2225	0.046	204445	keystroke_t	t	n/a
102.3125	0.181	204625	keystroke_i	i	n/a
102.4635	0.09	204927	keystroke_o	o	n/a
102.6585	0.09	205317	keystroke_n	n	n/a
103.2135	0.104	206427	keystroke_Key.space	Key.space	n/a
103.6635	0.06	207327	keystroke_r	r	n/a
103.7835	0.075	207567	keystroke_e	e	n/a
103.963	0.075	207926	keystroke_s	s	n/a
104.443	0.06	208886	keystroke_t	t	n/a
104.578	0.06	209156	keystroke_r	r	n/a
105.718	0.03	211436	keystroke_c	c	n/a
106.093	0.075	212186	keystroke_Key.backspace	Key.backspace	n/a
106.363	0.06	212726	keystroke_i	i	n/a
106.468	0.09	212936	keystroke_c	c	n/a
106.858	0.045	213716	keystroke_t	t	n/a
107.563	0.015	215126	keystroke_Key.enter	Key.enter	n/a
107.5825	8.862	215165	prompt	n/a	hung advise scientist spring\n
108.643	0.105	217286	keystroke_h	h	n/a
108.748	0.09	217496	keystroke_u	u	n/a
108.943	0.06	217886	keystroke_n	n	n/a
109.063	0.045	218126	keystroke_g	g	n/a
109.663	0.09	219326	keystroke_Key.space	Key.space	n/a
109.873	0.09	219746	keystroke_a	a	n/a
110.008	0.09	220016	keystroke_d	d	n/a
110.263	0.045	220526	keystroke_v	v	n/a
110.413	0.06	220826	keystroke_i	i	n/a
110.533	0.075	221066	keystroke_s	s	n/a
111.088	0.015	222176	keystroke_e	e	n/a
111.463	0.105	222926	keystroke_Key.space	Key.space	n/a
111.673	0.09	223346	keystroke_s	s	n/a
111.838	0.105	223676	keystroke_c	c	n/a
112.258	0.06	224516	keystroke_i	i	n/a
112.393	0.045	224786	keystroke_e	e	n/a
112.498	0.045	224996	keystroke_n	n	n/a
112.813	0.06	225626	keystroke_t	t	n/a
113.053	0.06	226106	keystroke_i	i	n/a
113.158	0.075	226316	keystroke_s	s	n/a
113.803	0.045	227606	keystroke_t	t	n/a
114.568	0.105	229136	keystroke_Key.space	Key.space	n/a
114.733	0.09	229466	keystroke_s	s	n/a
114.838	0.075	229676	keystroke_p	p	n/a
115.003	0.045	230006	keystroke_r	r	n/a
115.078	0.06	230156	keystroke_i	i	n/a
115.228	0.06	230456	keystroke_n	n	n/a
115.318	0.06	230636	keystroke_g	g	n/a
116.398	0.045	232796	keystroke_Key.enter	Key.enter	n/a
116.4475	11.172	232895	prompt	n/a	jazz collections prostate voice\n
117.493	0.09	234986	keystroke_j	j	n/a
117.613	0.105	235226	keystroke_a	a	n/a
117.928	0.06	235856	keystroke_s	s	n/a
118.093	0.045	236186	keystroke_s	s	n/a
118.558	0.06	237116	keystroke_Key.backspace	Key.backspace	n/a
118.708	0.045	237416	keystroke_Key.backspace	Key.backspace	n/a
118.798	0.075	237596	keystroke_z	z	n/a
118.963	0.105	237926	keystroke_z	z	n/a
119.503	0.075	239006	keystroke_Key.space	Key.space	n/a
119.758	0.06	239516	keystroke_c	c	n/a
119.833	0.06	239666	keystroke_o	o	n/a
120.028	0.03	240056	keystroke_l	l	n/a
120.133	0.075	240266	keystroke_l	l	n/a
120.178	0.075	240356	keystroke_e	e	n/a
120.358	0.075	240716	keystroke_c	c	n/a
120.688	0.06	241376	keystroke_t	t	n/a
120.733	0.15	241466	keystroke_i	i	n/a
120.808	0.105	241616	keystroke_o	o	n/a
121.003	0.06	242006	keystroke_n	n	n/a
122.353	0.06	244706	keystroke_s	s	n/a
122.593	0.105	245186	keystroke_Key.space	Key.space	n/a
122.938	0.075	245876	keystroke_p	p	n/a
123.088	0.06	246176	keystroke_r	r	n/a
123.748	0.045	247496	keystroke_o	o	n/a
124.438	0.12	248876	keystroke_s	s	n/a
124.723	0.09	249446	keystroke_t	t	n/a
125.023	0.105	250046	keystroke_a	a	n/a
125.158	0.06	250316	keystroke_t	t	n/a
125.683	0.045	251366	keystroke_e	e	n/a
125.878	0.075	251756	keystroke_Key.space	Key.space	n/a
126.523	0.075	253046	keystroke_v	v	n/a
126.628	0.076	253256	keystroke_o	o	n/a
126.748	0.075	253496	keystroke_i	i	n/a
126.883	0.075	253766	keystroke_c	c	n/a
127.123	0.06	254246	keystroke_e	e	n/a
127.543	0.075	255086	keystroke_Key.enter	Key.enter	n/a
127.623	6.702	255246	prompt	n/a	nascar help methods sullivan\n
128.368	0.045	256736	keystroke_n	n	n/a
128.473	0.105	256946	keystroke_a	a	n/a
128.638	0.075	257276	keystroke_s	s	n/a
128.863	0.045	257726	keystroke_c	c	n/a
129.013	0.06	258026	keystroke_a	a	n/a
129.178	0.06	258356	keystroke_r	r	n/a
129.733	0.075	259466	keystroke_Key.space	Key.space	n/a
129.883	0.06	259766	keystroke_h	h	n/a
129.988	0.015	259976	keystroke_e	e	n/a
130.093	0.045	260186	keystroke_l	l	n/a
130.288	0.045	260576	keystroke_p	p	n/a
130.918	0.09	261836	keystroke_Key.space	Key.space	n/a
131.098	0.075	262196	keystroke_m	m	n/a
131.248	0.075	262496	keystroke_e	e	n/a
131.428	0.06	262856	keystroke_t	t	n/a
131.458	0.135	262916	keystroke_h	h	n/a
131.563	0.09	263126	keystroke_o	o	n/a
131.698	0.06	263396	keystroke_d	d	n/a
131.908	0.03	263816	keystroke_s	s	n/a
132.103	0.06	264206	keystroke_Key.space	Key.space	n/a
132.283	0.06	264566	keystroke_s	s	n/a
132.418	0.075	264836	keystroke_u	u	n/a
132.704	0.044	265408	keystroke_l	l	n/a
132.853	0.06	265706	keystroke_l	l	n/a
133.018	0.045	266036	keystroke_i	i	n/a
133.093	0.09	266186	keystroke_v	v	n/a
133.363	0.06	266726	keystroke_a	a	n/a
133.648	0.06	267296	keystroke_n	n	n/a
134.263	0.06	268526	keystroke_Key.enter	Key.enter	n/a
134.328	11.3815	268656	prompt	n/a	priest portraits coalition oval\n
135.028	0.075	270056	keystroke_p	p	n/a
136.288	0.06	272576	keystroke_r	r	n/a
136.393	0.075	272786	keystroke_i	i	n/a
136.573	0.06	273146	keystroke_e	e	n/a
136.829	0.074	273658	keystroke_s	s	n/a
137.128	0.075	274256	keystroke_t	t	n/a
137.368	0.09	274736	keystroke_Key.space	Key.space	n/a
137.578	0.015	275156	keystroke_p	p	n/a
138.403	0.06	276806	keystroke_o	o	n/a
138.508	0.045	277016	keystroke_r	r	n/a
139.063	0.075	278126	keystroke_t	t	n/a
139.258	0.03	278516	keystroke_r	r	n/a
139.783	0.075	279566	keystroke_a	a	n/a
139.888	0.075	279776	keystroke_i	i	n/a
140.008	0.06	280016	keystroke_t	t	n/a
140.263	0.06	280526	keystroke_s	s	n/a
140.728	0.105	281456	keystroke_Key.space	Key.space	n/a
141.253	0.045	282506	keystroke_a	a	n/a
141.598	0.075	283196	keystroke_Key.backspace	Key.backspace	n/a
141.688	0.075	283376	keystroke_c	c	n/a
142.033	0.09	284066	keystroke_o	o	n/a
142.273	0.09	284546	keystroke_a	a	n/a
142.453	0.075	284906	keystroke_l	l	n/a
143.683	0.075	287366	keystroke_i	i	n/a
143.908	0.06	287816	keystroke_t	t	n/a
143.983	0.18	287966	keystroke_i	i	n/a
144.133	0.075	288266	keystroke_o	o	n/a
144.329	0.044	288658	keystroke_n	n	n/a
144.598	0.09	289196	keystroke_Key.space	Key.space	n/a
144.763	0.091	289526	keystroke_o	o	n/a
144.898	0.075	289796	keystroke_v	v	n/a
145.123	0.075	290246	keystroke_a	a	n/a
145.199	0.074	290398	keystroke_l	l	n/a
145.663	0.045	291326	keystroke_Key.enter	Key.enter	n/a
145.713	18.5825	291426	prompt	n/a	listening brilliant delivered manufacturers\n
146.338	0.105	292676	keystroke_l	l	n/a
146.518	0.105	293036	keystroke_i	i	n/a
146.593	0.09	293186	keystroke_s	s	n/a
146.863	0.045	293726	keystroke_t	t	n/a
147.358	0.06	294716	keystroke_e	e	n/a
147.463	0.075	294926	keystroke_n	n	n/a
147.613	0.075	295226	keystroke_i	i	n/a
147.733	0.09	295466	keystroke_n	n	n/a
147.883	0.06	295766	keystroke_g	g	n/a
148.138	0.09	296276	keystroke_Key.space	Key.space	n/a
148.393	0.061	296786	keystroke_b	b	n/a
148.768	0.061	297536	keystroke_r	r	n/a
148.843	0.075	297686	keystroke_i	i	n/a
149.053	0.046	298106	keystroke_l	l	n/a
149.188	0.06	298376	keystroke_l	l	n/a
150.538	0.075	301076	keystroke_i	i	n/a
150.688	0.075	301376	keystroke_a	a	n/a
150.778	0.045	301556	keystroke_n	n	n/a
150.958	0.06	301916	keystroke_t	t	n/a
151.363	0.09	302726	keystroke_Key.space	Key.space	n/a
151.574	0.045	303148	keystroke_d	d	n/a
151.723	0.06	303446	keystroke_e	e	n/a
151.934	0.029	303868	keystroke_v	v	n/a
152.279	0.089	304558	keystroke_l	l	n/a
154.304	0.059	308608	keystroke_Key.backspace	Key.backspace	n/a
154.6185	0.06	309237	keystroke_i	i	n/a
154.9035	0.075	309807	keystroke_l	l	n/a
157.08	0.028	314160	keystroke_Key.backspace	Key.backspace	n/a
157.183	0.06	314366	keystroke_Key.backspace	Key.backspace	n/a
158.038	0.06	316076	keystroke_Key.backspace	Key.backspace	n/a
158.308	0.09	316616	keystroke_l	l	n/a
158.503	0.06	317006	keystroke_i	i	n/a
159.013	0.075	318026	keystroke_v	v	n/a
159.253	0.12	318506	keystroke_e	e	n/a
159.358	0.105	318716	keystroke_r	r	n/a
159.583	0.06	319166	keystroke_e	e	n/a
159.778	0.06	319556	keystroke_d	d	n/a
160.093	0.105	320186	keystroke_Key.space	Key.space	n/a
160.348	0.105	320696	keystroke_m	m	n/a
160.468	0.06	320936	keystroke_a	a	n/a
160.558	0.075	321116	keystroke_n	n	n/a
160.768	0.045	321536	keystroke_u	u	n/a
161.518	0.06	323036	keystroke_f	f	n/a
161.608	0.09	323216	keystroke_a	a	n/a
161.833	0.045	323666	keystroke_c	c	n/a
162.673	0.06	325346	keystroke_t	t	n/a
162.763	0.0905	325526	keystroke_u	u	n/a
162.9285	0.06	325857	keystroke_r	r	n/a
163.2585	0.105	326517	keystroke_e	e	n/a
163.3785	0.075	326757	keystroke_r	r	n/a
163.5885	0.075	327177	keystroke_s	s	n/a
164.2335	0.06	328467	keystroke_Key.enter	Key.enter	n/a
164.2985	7.0915	328597	prompt	n/a	thus sony fishing subject\n
165.1185	0.075	330237	keystroke_t	t	n/a
165.2085	0.135	330417	keystroke_h	h	n/a
165.3285	0.105	330657	keystroke_u	u	n/a
165.4785	0.075	330957	keystroke_s	s	n/a
165.8835	0.105	331767	keystroke_Key.space	Key.space	n/a
166.0335	0.105	332067	keystroke_s	s	n/a
166.0935	0.09	332187	keystroke_o	o	n/a
166.2285	0.105	332457	keystroke_n	n	n/a
166.5885	0.06	333177	keystroke_y	y	n/a
167.1435	0.1045	334287	keystroke_Key.space	Key.space	n/a
167.3535	0.0745	334707	keystroke_f	f	n/a
167.488	0.045	334976	keystroke_i	i	n/a
167.923	0.045	335846	keystroke_s	s	n/a
168.073	0.105	336146	keystroke_h	h	n/a
168.148	0.09	336296	keystroke_i	i	n/a
168.343	0.075	336686	keystroke_n	n	n/a
169.348	0.045	338696	keystroke_g	g	n/a
169.618	0.06	339236	keystroke_Key.space	Key.space	n/a
169.813	0.06	339626	keystroke_s	s	n/a
169.918	0.09	339836	keystroke_u	u	n/a
170.068	0.09	340136	keystroke_b	b	n/a
170.323	0.045	340646	keystroke_j	j	n/a
170.428	0.045	340856	keystroke_e	e	n/a
170.578	0.075	341156	keystroke_c	c	n/a
170.953	0.045	341906	keystroke_t	t	n/a
171.343	0.045	342686	keystroke_Key.enter	Key.enter	n/a
171.394	7.346	342788	prompt	n/a	jamaica residence late revision\n
172.124	0.074	344248	keystroke_j	j	n/a
172.243	0.09	344486	keystroke_a	a	n/a
172.349	0.089	344698	keystroke_m	m	n/a
172.588	0.075	345176	keystroke_a	a	n/a
172.888	0.061	345776	keystroke_i	i	n/a
173.203	0.075	346406	keystroke_c	c	n/a
173.398	0.09	346796	keystroke_a	a	n/a
173.713	0.075	347426	keystroke_Key.space	Key.space	n/a
173.893	0.075	347786	keystroke_r	r	n/a
174.118	0.06	348236	keystroke_e	e	n/a
174.658	0.06	349316	keystroke_s	s	n/a
174.748	0.075	349496	keystroke_i	i	n/a
174.988	0.061	349976	keystroke_d	d	n/a
175.153	0.06	350306	keystroke_e	e	n/a
175.243	0.09	350486	keystroke_n	n	n/a
175.334	0.09	350668	keystroke_c	c	n/a
175.499	0.044	350998	keystroke_e	e	n/a
175.873	0.075	351746	keystroke_Key.space	Key.space	n/a
176.099	0.059	352198	keystroke_l	l	n/a
176.233	0.075	352466	keystroke_a	a	n/a
176.368	0.06	352736	keystroke_t	t	n/a
176.518	0.045	353036	keystroke_e	e	n/a
176.818	0.105	353636	keystroke_Key.space	Key.space	n/a
177.328	0.06	354656	keystroke_r	r	n/a
177.433	0.075	354866	keystroke_e	e	n/a
177.733	0.03	355466	keystroke_v	v	n/a
177.898	0.03	355796	keystroke_i	i	n/a
177.988	0.061	355976	keystroke_s	s	n/a
178.108	0.15	356216	keystroke_i	i	n/a
178.183	0.105	356366	keystroke_o	o	n/a
178.333	0.091	356666	keystroke_n	n	n/a
178.678	0.06	357356	keystroke_Key.enter	Key.enter	n/a
178.7425	8.248	357485	prompt	n/a	morrison bool vacation assessing\n
179.353	0.121	358706	keystroke_m	m	n/a
179.488	0.09	358976	keystroke_o	o	n/a
179.608	0.045	359216	keystroke_r	r	n/a
179.758	0.03	359516	keystroke_r	r	n/a
179.863	0.061	359726	keystroke_i	i	n/a
179.999	0.074	359998	keystroke_s	s	n/a
180.103	0.06	360206	keystroke_o	o	n/a
180.268	0.06	360536	keystroke_n	n	n/a
180.418	0.075	360836	keystroke_Key.space	Key.space	n/a
180.644	0.06	361288	keystroke_b	b	n/a
180.808	0.045	361616	keystroke_o	o	n/a
180.943	0.06	361886	keystroke_o	o	n/a
181.124	0.075	362248	keystroke_l	l	n/a
181.393	0.105	362786	keystroke_Key.space	Key.space	n/a
181.603	0.06	363206	keystroke_v	v	n/a
181.799	0.044	363598	keystroke_a	a	n/a
182.503	0.046	365006	keystroke_v	v	n/a
182.953	0.075	365906	keystroke_Key.backspace	Key.backspace	n/a
183.044	0.074	366088	keystroke_c	c	n/a
183.253	0.075	366506	keystroke_a	a	n/a
183.7045	0.059	367409	keystroke_t	t	n/a
183.7785	0.09	367557	keystroke_i	i	n/a
183.8245	0.075	367649	keystroke_o	o	n/a
184.0035	0.046	368007	keystroke_n	n	n/a
184.1535	0.075	368307	keystroke_Key.space	Key.space	n/a
184.4545	0.059	368909	keystroke_a	a	n/a
184.6635	0.031	369327	keystroke_s	s	n/a
185.3695	0.075	370739	keystroke_s	s	n/a
185.5635	0.061	371127	keystroke_e	e	n/a
185.7595	0.044	371519	keystroke_s	s	n/a
185.9095	0.074	371819	keystroke_s	s	n/a
186.3295	0.074	372659	keystroke_i	i	n/a
186.4785	0.075	372957	keystroke_n	n	n/a
186.5695	0.059	373139	keystroke_g	g	n/a
186.9285	0.06	373857	keystroke_Key.enter	Key.enter	n/a
186.994	8.0075	373988	prompt	n/a	catalogs indexed dosage margaret\n
187.6795	0.1055	375359	keystroke_c	c	n/a
187.86	0.074	375720	keystroke_a	a	n/a
188.025	0.075	376050	keystroke_t	t	n/a
188.16	0.075	376320	keystroke_a	a	n/a
188.55	0.075	377100	keystroke_l	l	n/a
188.73	0.075	377460	keystroke_o	o	n/a
188.82	0.075	377640	keystroke_g	g	n/a
189	0.06	378000	keystroke_s	s	n/a
189.225	0.089	378450	keystroke_Key.space	Key.space	n/a
189.375	0.045	378750	keystroke_i	i	n/a
189.51	0.06	379020	keystroke_n	n	n/a
189.555	0.075	379110	keystroke_d	d	n/a
189.72	0.06	379440	keystroke_e	e	n/a
189.96	0.06	379920	keystroke_x	x	n/a
190.32	0.075	380640	keystroke_e	e	n/a
190.545	0.06	381090	keystroke_d	d	n/a
190.8	0.045	381600	keystroke_Key.space	Key.space	n/a
191.37	0.06	382740	keystroke_d	d	n/a
191.46	0.075	382920	keystroke_o	o	n/a
191.58	0.075	383160	keystroke_s	s	n/a
191.865	0.09	383730	keystroke_a	a	n/a
191.985	0.06	383970	keystroke_g	g	n/a
192.15	0.06	384300	keystroke_e	e	n/a
192.404	0.061	384808	keystroke_Key.space	Key.space	n/a
192.57	0.075	385140	keystroke_m	m	n/a
192.93	0.075	385860	keystroke_a	a	n/a
193.065	0.075	386130	keystroke_r	r	n/a
193.26	0.045	386520	keystroke_g	g	n/a
193.845	0.075	387690	keystroke_a	a	n/a
194.115	0.06	388230	keystroke_r	r	n/a
194.25	0.06	388500	keystroke_e	e	n/a
194.4	0.075	388800	keystroke_t	t	n/a
194.925	0.075	389850	keystroke_Key.enter	Key.enter	n/a
195.006	9.791	390012	prompt	n/a	reaching opposite agriculture suspended\n
195.84	0.075	391680	keystroke_r	r	n/a
195.945	0.075	391890	keystroke_e	e	n/a
196.08	0.105	392160	keystroke_a	a	n/a
196.275	0.09	392550	keystroke_c	c	n/a
196.38	0.09	392760	keystroke_h	h	n/a
196.455	0.075	392910	keystroke_i	i	n/a
196.605	0.075	393210	keystroke_n	n	n/a
196.695	0.06	393390	keystroke_g	g	n/a
196.755	0.09	393510	keystroke_Key.space	Key.space	n/a
196.965	0.15	393930	keystroke_o	o	n/a
197.13	0.075	394260	keystroke_p	p	n/a
197.595	0.075	395190	keystroke_p	p	n/a
197.835	0.06	395670	keystroke_o	o	n/a
197.97	0.06	395940	keystroke_s	s	n/a
198.06	0.09	396120	keystroke_i	i	n/a
198.24	0.075	396480	keystroke_t	t	n/a
198.435	0.045	396870	keystroke_e	e	n/a
198.54	0.135	397080	keystroke_Key.space	Key.space	n/a
199.02	0.09	398040	keystroke_a	a	n/a
199.38	0.045	398760	keystroke_g	g	n/a
199.71	0.015	399420	keystroke_r	r	n/a
199.89	0.06	399780	keystroke_i	i	n/a
200.415	0.06	400830	keystroke_c	c	n/a
200.535	0.045	401070	keystroke_u	u	n/a
200.715	0.075	401430	keystroke_l	l	n/a
200.91	0.0605	401820	keystroke_t	t	n/a
200.985	0.075	401970	keystroke_u	u	n/a
201.105	0.045	402210	keystroke_r	r	n/a
201.195	0.06	402390	keystroke_e	e	n/a
202.005	0.12	404010	keystroke_Key.space	Key.space	n/a
202.275	0.045	404550	keystroke_s	s	n/a
202.365	0.075	404730	keystroke_u	u	n/a
202.455	0.06	404910	keystroke_s	s	n/a
202.845	0.06	405690	keystroke_p	p	n/a
203.025	0.075	406050	keystroke_e	e	n/a
203.415	0.075	406830	keystroke_n	n	n/a
203.745	0.06	407490	keystroke_d	d	n/a
203.91	0.075	407820	keystroke_e	e	n/a
204.105	0.06	408210	keystroke_d	d	n/a
204.72	0.075	409440	keystroke_Key.enter	Key.enter	n/a
204.7995	7.168	409599	prompt	n/a	viking says reproduced pages\n
205.815	0.045	411630	keystroke_v	v	n/a
205.89	0.075	411780	keystroke_i	i	n/a
206.07	0.06	412140	keystroke_k	k	n/a
206.2655	0.03	412531	keystroke_i	i	n/a
206.4005	0.075	412801	keystroke_n	n	n/a
206.4905	0.045	412981	keystroke_g	g	n/a
206.6255	0.105	413251	keystroke_Key.space	Key.space	n/a
206.7455	0.075	413491	keystroke_s	s	n/a
206.9405	0.06	413881	keystroke_a	a	n/a
207.0005	0.09	414001	keystroke_y	y	n/a
207.1205	0.06	414241	keystroke_s	s	n/a
207.8555	0.105	415711	keystroke_Key.space	Key.space	n/a
208.0955	0.045	416191	keystroke_r	r	n/a
208.2005	0.075	416401	keystroke_e	e	n/a
208.5755	0.075	417151	keystroke_p	p	n/a
209.0855	0.06	418171	keystroke_r	r	n/a
209.2055	0.09	418411	keystroke_o	o	n/a
209.5355	0.06	419071	keystroke_d	d	n/a
209.7905	0.06	419581	keystroke_u	u	n/a
209.9105	0.06	419821	keystroke_c	c	n/a
210.5855	0.06	421171	keystroke_e	e	n/a
210.7655	0.06	421531	keystroke_d	d	n/a
210.8855	0.105	421771	keystroke_Key.space	Key.space	n/a
211.0355	0.075	422071	keystroke_p	p	n/a
211.1705	0.105	422341	keystroke_a	a	n/a
211.2905	0.075	422581	keystroke_g	g	n/a
211.5155	0.045	423031	keystroke_e	e	n/a
211.6655	0.06	423331	keystroke_s	s	n/a
211.9055	0.06	423811	keystroke_Key.enter	Key.enter	n/a
211.972	8.1705	423944	prompt	n/a	singing steam thrown trips\n
212.8205	0.105	425641	keystroke_s	s	n/a
212.9405	0.06	425881	keystroke_i	i	n/a
213.2405	0.03	426481	keystroke_g	g	n/a
213.5855	0.075	427171	keystroke_Key.backspace	Key.backspace	n/a
213.8405	0.105	427681	keystroke_n	n	n/a
214.1105	0.105	428221	keystroke_i	i	n/a
214.8305	0.045	429661	keystroke_Key.backspace	Key.backspace	n/a
215.1305	0.06	430261	keystroke_i	i	n/a
215.2955	0.075	430591	keystroke_n	n	n/a
215.4155	0.06	430831	keystroke_g	g	n/a
215.7005	0.09	431401	keystroke_Key.space	Key.space	n/a
215.9555	0.075	431911	keystroke_s	s	n/a
216.1355	0.06	432271	keystroke_t	t	n/a
216.2405	0.09	432481	keystroke_e	e	n/a
216.3905	0.12	432781	keystroke_a	a	n/a
216.5255	0.075	433051	keystroke_m	m	n/a
217.3955	0.075	434791	keystroke_Key.space	Key.space	n/a
217.6205	0.06	435241	keystroke_t	t	n/a
217.6805	0.06	435361	keystroke_h	h	n/a
217.7705	0.045	435541	keystroke_r	r	n/a
218.3855	0.06	436771	keystroke_o	o	n/a
218.4905	0.09	436981	keystroke_w	w	n/a
218.6105	0.06	437221	keystroke_n	n	n/a
218.8055	0.075	437611	keystroke_Key.space	Key.space	n/a
219.0305	0.045	438061	keystroke_t	t	n/a
219.1805	0.06	438361	keystroke_r	r	n/a
219.3755	0.075	438751	keystroke_i	i	n/a
219.6455	0.045	439291	keystroke_p	p	n/a
219.7505	0.06	439501	keystroke_s	s	n/a
220.0805	0.06	440161	keystroke_Key.enter	Key.enter	n/a
220.1455	8.247	440291	prompt	n/a	loop cabinet stuart resolved\n
220.8455	0.09	441691	keystroke_l	l	n/a
221.0705	0.03	442141	keystroke_o	o	n/a
221.1905	0.18	442381	keystroke_o	o	n/a
221.3105	0.105	442621	keystroke_p	p	n/a
221.5205	0.12	443041	keystroke_Key.space	Key.space	n/a
222.0305	0.075	444061	keystroke_c	c	n/a
222.2105	0.06	444421	keystroke_a	a	n/a
222.3005	0.06	444601	keystroke_b	b	n/a
222.4655	0.045	444931	keystroke_i	i	n/a
222.5855	0.075	445171	keystroke_n	n	n/a
222.6755	0.075	445351	keystroke_e	e	n/a
222.8105	0.075	445621	keystroke_t	t	n/a
222.9605	0.105	445921	keystroke_Key.space	Key.space	n/a
223.2005	0.015	446401	keystroke_s	s	n/a
223.3355	0.045	446671	keystroke_t	t	n/a
223.7255	0.075	447451	keystroke_u	u	n/a
223.9055	0.075	447811	keystroke_a	a	n/a
224.3555	0.075	448711	keystroke_r	r	n/a
224.5055	0.06	449011	keystroke_t	t	n/a
225.0455	0.06	450091	keystroke_Key.space	Key.space	n/a
225.3005	0.045	450601	keystroke_r	r	n/a
225.4055	0.075	450811	keystroke_e	e	n/a
225.6755	0.06	451351	keystroke_s	s	n/a
227.0405	0.06	454081	keystroke_o	o	n/a
227.2205	0.075	454441	keystroke_l	l	n/a
227.3405	0.075	454681	keystroke_v	v	n/a
227.5505	0.045	455101	keystroke_e	e	n/a
227.7305	0.045	455461	keystroke_d	d	n/a
228.3305	0.06	456661	keystroke_Key.enter	Key.enter	n/a
228.3955	9.942	456791	prompt	n/a	advertisements playlist spring profit\n
229.8455	0.075	459691	keystroke_a	a	n/a
229.9655	0.075	459931	keystroke_d	d	n/a
230.1155	0.12	460231	keystroke_v	v	n/a
230.3555	0.03	460711	keystroke_e	e	n/a
230.7755	0.045	461551	keystroke_r	r	n/a
230.9555	0.045	461911	keystroke_t	t	n/a
231.0455	0.09	462091	keystroke_i	i	n/a
231.5555	0.06	463111	keystroke_s	s	n/a
231.9605	0.045	463921	keystroke_m	m	n/a
232.3505	0.06	464701	keystroke_Key.backspace	Key.backspace	n/a
232.4255	0.075	464851	keystroke_e	e	n/a
232.5465	0.075	465093	keystroke_m	m	n/a
232.7105	0.015	465421	keystroke_e	e	n/a
233.0705	0.03	466141	keystroke_n	n	n/a
233.1605	0.06	466321	keystroke_t	t	n/a
233.3555	0.075	466711	keystroke_s	s	n/a
233.4155	0.105	466831	keystroke_Key.space	Key.space	n/a
233.6105	0.045	467221	keystroke_p	p	n/a
233.7755	0.06	467551	keystroke_l	l	n/a
233.9105	0.061	467821	keystroke_a	a	n/a
234.0305	0.06	468061	keystroke_y	y	n/a
234.6455	0.09	469291	keystroke_l	l	n/a
234.8405	0.06	469681	keystroke_i	i	n/a
235.0055	0.045	470011	keystroke_s	s	n/a
235.2305	0.06	470461	keystroke_t	t	n/a
235.3355	0.12	470671	keystroke_Key.space	Key.space	n/a
235.5005	0.075	471001	keystroke_s	s	n/a
235.5905	0.0895	471181	keystroke_p	p	n/a
235.9655	0.075	471931	keystroke_r	r	n/a
236.0555	0.061	472111	keystroke_i	i	n/a
236.2055	0.06	472411	keystroke_n	n	n/a
236.2965	0.059	472593	keystroke_g	g	n/a
236.5505	0.0745	473101	keystroke_Key.space	Key.space	n/a
236.715	0.06	473430	keystroke_p	p	n/a
236.805	0.045	473610	keystroke_r	r	n/a
236.91	0.0605	473820	keystroke_o	o	n/a
237.33	0.075	474660	keystroke_f	f	n/a
237.435	0.061	474870	keystroke_i	i	n/a
237.6	0.046	475200	keystroke_t	t	n/a
238.26	0.075	476520	keystroke_Key.enter	Key.enter	n/a
238.341	7.376	476682	prompt	n/a	medal negotiation november slow\n
239.1	0.091	478200	keystroke_m	m	n/a
239.205	0.061	478410	keystroke_e	e	n/a
239.385	0.061	478770	keystroke_d	d	n/a
239.55	0.121	479100	keystroke_a	a	n/a
239.625	0.075	479250	keystroke_l	l	n/a
239.73	0.12	479460	keystroke_Key.space	Key.space	n/a
239.985	0.045	479970	keystroke_n	n	n/a
240.046	0.059	480092	keystroke_e	e	n/a
240.225	0.045	480450	keystroke_g	g	n/a
240.33	0.06	480660	keystroke_o	o	n/a
240.51	0.061	481020	keystroke_t	t	n/a
240.6	0.075	481200	keystroke_i	i	n/a
240.811	0.089	481622	keystroke_a	a	n/a
240.93	0.075	481860	keystroke_t	t	n/a
241.02	0.165	482040	keystroke_i	i	n/a
241.111	0.089	482222	keystroke_o	o	n/a
241.29	0.046	482580	keystroke_n	n	n/a
241.425	0.09	482850	keystroke_Key.space	Key.space	n/a
241.621	0.09	483242	keystroke_n	n	n/a
241.741	0.059	483482	keystroke_o	o	n/a
241.83	0.045	483660	keystroke_v	v	n/a
242.01	0.031	484020	keystroke_e	e	n/a
242.085	0.045	484170	keystroke_m	m	n/a
242.76	0.091	485520	keystroke_b	b	n/a
242.896	0.134	485792	keystroke_e	e	n/a
243.016	0.09	486032	keystroke_r	r	n/a
243.255	0.105	486510	keystroke_Key.space	Key.space	n/a
243.361	0.089	486722	keystroke_s	s	n/a
243.436	0.074	486872	keystroke_l	l	n/a
243.6	0.0605	487200	keystroke_o	o	n/a
243.6745	0.075	487349	keystroke_w	w	n/a
245.6555	0.059	491311	keystroke_Key.enter	Key.enter	n/a
245.7195	8.2475	491439	prompt	n/a	warner mapping sells senator\n
246.6455	0.075	493291	keystroke_w	w	n/a
246.8255	0.075	493651	keystroke_a	a	n/a
249.0475	0.001	498095	keystroke_r	r	n/a
249.3005	0.075	498601	keystroke_n	n	n/a
249.3905	0.09	498781	keystroke_e	e	n/a
249.5555	0.075	499111	keystroke_r	r	n/a
249.8555	0.105	499711	keystroke_Key.space	Key.space	n/a
250.0955	0.09	500191	keystroke_m	m	n/a
250.1705	0.09	500341	keystroke_a	a	n/a
250.2905	0.045	500581	keystroke_p	p	n/a
250.4255	0.075	500851	keystroke_p	p	n/a
250.6055	0.045	501211	keystroke_i	i	n/a
250.7405	0.06	501481	keystroke_n	n	n/a
250.8005	0.135	501601	keystroke_g	g	n/a
250.8755	0.09	501751	keystroke_Key.space	Key.space	n/a
251.0405	0.075	502081	keystroke_s	s	n/a
251.2205	0.06	502441	keystroke_e	e	n/a
251.3105	0.06	502621	keystroke_l	l	n/a
251.4605	0.06	502921	keystroke_l	l	n/a
251.5355	0.075	503071	keystroke_s	s	n/a
251.6255	0.105	503251	keystroke_Key.space	Key.space	n/a
252.1355	0.075	504271	keystroke_s	s	n/a
252.3155	0.045	504631	keystroke_e	e	n/a
252.4655	0.045	504931	keystroke_n	n	n/a
252.9605	0.105	505921	keystroke_a	a	n/a
253.1855	0.06	506371	keystroke_t	t	n/a
253.3205	0.06	506641	keystroke_o	o	n/a
253.4105	0.06	506821	keystroke_r	r	n/a
253.9205	0.045	507841	keystroke_Key.enter	Key.enter	n/a
253.972	8.2605	507944	prompt	n/a	cleaners considered greatest bond\n
254.6405	0.06	509281	keystroke_c	c	n/a
254.7155	0.06	509431	keystroke_l	l	n/a
254.8055	0.075	509611	keystroke_e	e	n/a
254.9555	0.075	509911	keystroke_a	a	n/a
255.7205	0.06	511441	keystroke_n	n	n/a
255.8255	0.135	511651	keystroke_e	e	n/a
255.9455	0.075	511891	keystroke_r	r	n/a
256.1705	0.075	512341	keystroke_s	s	n/a
256.3205	0.105	512641	keystroke_Key.space	Key.space	n/a
256.5455	0.075	513091	keystroke_c	c	n/a
256.6355	0.045	513271	keystroke_o	o	n/a
256.7405	0.075	513481	keystroke_n	n	n/a
256.8155	0.06	513631	keystroke_s	s	n/a
256.9205	0.045	513841	keystroke_i	i	n/a
256.9805	0.075	513961	keystroke_d	d	n/a
257.1755	0.105	514351	keystroke_e	e	n/a
257.2655	0.06	514531	keystroke_r	r	n/a
257.5055	0.06	515011	keystroke_e	e	n/a
257.7005	0.06	515401	keystroke_d	d	n/a
259.2155	0.12	518431	keystroke_Key.space	Key.space	n/a
259.6955	0.045	519391	keystroke_g	g	n/a
259.8605	0.06	519721	keystroke_r	r	n/a
259.9505	0.09	519901	keystroke_e	e	n/a
260.0855	0.105	520171	keystroke_a	a	n/a
260.2355	0.06	520471	keystroke_t	t	n/a
260.4005	0.06	520801	keystroke_e	e	n/a
260.5655	0.075	521131	keystroke_s	s	n/a
260.7605	0.045	521521	keystroke_t	t	n/a
260.8205	0.12	521641	keystroke_Key.space	Key.space	n/a
261.2705	0.09	522541	keystroke_b	b	n/a
261.4355	0.075	522871	keystroke_o	o	n/a
261.5555	0.06	523111	keystroke_n	n	n/a
261.6455	0.06	523291	keystroke_d	d	n/a
262.1705	0.06	524341	keystroke_Key.enter	Key.enter	n/a
262.2355	6.9865	524471	prompt	n/a	productivity revealed chrome all\n
263.0405	0.075	526081	keystroke_p	p	n/a
263.1605	0.045	526321	keystroke_r	r	n/a
263.2655	0.06	526531	keystroke_o	o	n/a
263.8805	0.075	527761	keystroke_d	d	n/a
263.9705	0.075	527941	keystroke_u	u	n/a
264.4055	0.09	528811	keystroke_c	c	n/a
264.7055	0.045	529411	keystroke_t	t	n/a
264.7805	0.075	529561	keystroke_i	i	n/a
264.9155	0.09	529831	keystroke_v	v	n/a
265.0205	0.06	530041	keystroke_i	i	n/a
265.2155	0.045	530431	keystroke_t	t	n/a
265.2905	0.075	530581	keystroke_y	y	n/a
265.6505	0.09	531301	keystroke_Key.space	Key.space	n/a
266.0255	0.045	532051	keystroke_r	r	n/a
266.1005	0.09	532201	keystroke_e	e	n/a
266.2955	0.06	532591	keystroke_v	v	n/a
266.4455	0.06	532891	keystroke_e	e	n/a
266.6105	0.075	533221	keystroke_a	a	n/a
266.7005	0.075	533401	keystroke_l	l	n/a
266.8505	0.06	533701	keystroke_e	e	n/a
267.0455	0.06	534091	keystroke_d	d	n/a
267.1655	0.105	534331	keystroke_Key.space	Key.space	n/a
267.4505	0.09	534901	keystroke_c	c	n/a
267.8255	0.045	535651	keystroke_h	h	n/a
267.9755	0.06	535951	keystroke_r	r	n/a
268.0655	0.06	536131	keystroke_o	o	n/a
268.2455	0.075	536491	keystroke_m	m	n/a
268.3505	0.03	536701	keystroke_e	e	n/a
268.5755	0.075	537151	keystroke_Key.space	Key.space	n/a
268.7105	0.09	537421	keystroke_a	a	n/a
268.7855	0.075	537571	keystroke_l	l	n/a
268.9205	0.075	537841	keystroke_l	l	n/a
269.1605	0.06	538321	keystroke_Key.enter	Key.enter	n/a
269.225	8.442	538450	prompt	n/a	packing inherited helps quotations\n
270.0605	0.045	540121	keystroke_p	p	n/a
270.2405	0.06	540481	keystroke_a	a	n/a
270.4505	0.06	540901	keystroke_c	c	n/a
270.5405	0.075	541081	keystroke_k	k	n/a
270.7505	0.045	541501	keystroke_i	i	n/a
270.9605	0.075	541921	keystroke_n	n	n/a
271.0805	0.045	542161	keystroke_g	g	n/a
271.2005	0.06	542401	keystroke_Key.space	Key.space	n/a
271.3355	0.075	542671	keystroke_i	i	n/a
271.4855	0.06	542971	keystroke_n	n	n/a
272.0255	0.075	544051	keystroke_h	h	n/a
272.595	0.0755	545190	keystroke_e	e	n/a
272.79	0.06	545580	keystroke_r	r	n/a
272.925	0.045	545850	keystroke_i	i	n/a
273.4805	0.0595	546961	keystroke_t	t	n/a
273.645	0.045	547290	keystroke_e	e	n/a
273.81	0.075	547620	keystroke_d	d	n/a
273.9305	0.0595	547861	keystroke_Key.space	Key.space	n/a
274.095	0.06	548190	keystroke_h	h	n/a
274.17	0.045	548340	keystroke_e	e	n/a
274.275	0.045	548550	keystroke_l	l	n/a
274.5	0.045	549000	keystroke_p	p	n/a
274.59	0.06	549180	keystroke_s	s	n/a
274.89	0.0755	549780	keystroke_Key.space	Key.space	n/a
275.505	0.09	551010	keystroke_q	q	n/a
275.61	0.075	551220	keystroke_u	u	n/a
275.76	0.06	551520	keystroke_o	o	n/a
275.925	0.075	551850	keystroke_t	t	n/a
276.075	0.12	552150	keystroke_a	a	n/a
276.165	0.09	552330	keystroke_t	t	n/a
276.3	0.12	552600	keystroke_i	i	n/a
276.36	0.105	552720	keystroke_o	o	n/a
276.51	0.06	553020	keystroke_n	n	n/a
276.84	0.045	553680	keystroke_s	s	n/a
277.59	0.075	555180	keystroke_Key.enter	Key.enter	n/a
277.67	10.347	555340	prompt	n/a	implementing contamination subjective mesh\n
278.43	0.075	556860	keystroke_i	i	n/a
278.58	0.15	557160	keystroke_m	m	n/a
278.685	0.09	557370	keystroke_p	p	n/a
278.895	0.06	557790	keystroke_l	l	n/a
278.97	0.045	557940	keystroke_e	e	n/a
279.87	0.15	559740	keystroke_m	m	n/a
280.68	0.075	561360	keystroke_e	e	n/a
280.815	0.045	561630	keystroke_n	n	n/a
281.01	0.06	562020	keystroke_t	t	n/a
281.49	0.06	562980	keystroke_i	i	n/a
281.64	0.06	563280	keystroke_n	n	n/a
281.73	0.06	563460	keystroke_g	g	n/a
282.27	0.075	564540	keystroke_Key.space	Key.space	n/a
282.45	0.06	564900	keystroke_c	c	n/a
282.48	0.075	564960	keystroke_o	o	n/a
282.615	0.075	565230	keystroke_n	n	n/a
282.78	0.075	565560	keystroke_t	t	n/a
282.975	0.03	565950	keystroke_a	a	n/a
283.26	0.09	566520	keystroke_m	m	n/a
283.455	0.03	566910	keystroke_i	i	n/a
283.575	0.06	567150	keystroke_n	n	n/a
283.815	0.075	567630	keystroke_a	a	n/a
283.965	0.075	567930	keystroke_t	t	n/a
283.995	0.135	567990	keystroke_i	i	n/a
284.055	0.105	568110	keystroke_o	o	n/a
284.22	0.06	568440	keystroke_n	n	n/a
284.4	0.06	568800	keystroke_Key.space	Key.space	n/a
284.505	0.06	569010	keystroke_s	s	n/a
284.85	0.075	569700	keystroke_u	u	n/a
285.03	0.06	570060	keystroke_b	b	n/a
285.24	0.06	570480	keystroke_j	j	n/a
285.315	0.06	570630	keystroke_e	e	n/a
285.48	0.09	570960	keystroke_c	c	n/a
285.81	0.045	571620	keystroke_t	t	n/a
285.945	0.045	571890	keystroke_i	i	n/a
286.38	0.045	572760	keystroke_v	v	n/a
286.59	0.045	573180	keystroke_e	e	n/a
286.83	0.12	573660	keystroke_Key.space	Key.space	n/a
286.98	0.105	573960	keystroke_m	m	n/a
287.1	0.075	574200	keystroke_e	e	n/a
287.295	0.09	574590	keystroke_s	s	n/a
287.4	0.06	574800	keystroke_h	h	n/a
287.955	0.06	575910	keystroke_Key.enter	Key.enter	n/a
288.02	6.012	576040	prompt	n/a	coral bailey counts clocks\n
288.705	0.045	577410	keystroke_c	c	n/a
288.765	0.075	577530	keystroke_o	o	n/a
288.9	0.06	577800	keystroke_r	r	n/a
289.02	0.09	578040	keystroke_a	a	n/a
289.125	0.09	578250	keystroke_l	l	n/a
289.26	0.09	578520	keystroke_Key.space	Key.space	n/a
289.486	0.059	578972	keystroke_b	b	n/a
289.74	0.075	579480	keystroke_a	a	n/a
290.505	0.06	581010	keystroke_i	i	n/a
290.67	0.09	581340	keystroke_l	l	n/a
290.836	0.044	581672	keystroke_e	e	n/a
290.97	0.075	581940	keystroke_y	y	n/a
291.165	0.105	582330	keystroke_Key.space	Key.space	n/a
291.3	0.09	582600	keystroke_c	c	n/a
291.405	0.075	582810	keystroke_o	o	n/a
291.555	0.075	583110	keystroke_u	u	n/a
291.705	0.09	583410	keystroke_n	n	n/a
291.78	0.075	583560	keystroke_t	t	n/a
292.02	0.075	584040	keystroke_s	s	n/a
292.14	0.105	584280	keystroke_Key.space	Key.space	n/a
292.29	0.075	584580	keystroke_c	c	n/a
292.395	0.06	584790	keystroke_o	o	n/a
292.77	0.045	585540	keystroke_Key.backspace	Key.backspace	n/a
293.011	0.059	586022	keystroke_l	l	n/a
293.205	0.061	586410	keystroke_o	o	n/a
293.28	0.06	586560	keystroke_c	c	n/a
293.415	0.046	586830	keystroke_k	k	n/a
293.55	0.061	587100	keystroke_s	s	n/a
293.97	0.06	587940	keystroke_Key.enter	Key.enter	n/a
294.035	6.747	588070	prompt	n/a	study vsnet promotional payday\n
294.765	0.06	589530	keystroke_s	s	n/a
295.005	0.061	590010	keystroke_t	t	n/a
295.081	0.06	590162	keystroke_u	u	n/a
295.231	0.075	590462	keystroke_d	d	n/a
295.35	0.045	590700	keystroke_y	y	n/a
295.77	0.091	591540	keystroke_Key.space	Key.space	n/a
296.356	0.059	592712	keystroke_v	v	n/a
296.626	0.06	593252	keystroke_s	s	n/a
296.836	0.045	593672	keystroke_n	n	n/a
296.911	0.089	593822	keystroke_e	e	n/a
297.106	0.059	594212	keystroke_t	t	n/a
297.405	0.06	594810	keystroke_Key.space	Key.space	n/a
297.631	0.075	595262	keystroke_p	p	n/a
297.751	0.059	595502	keystroke_r	r	n/a
297.84	0.061	595680	keystroke_o	o	n/a
297.961	0.15	595922	keystroke_m	m	n/a
298.065	0.105	596130	keystroke_o	o	n/a
298.59	0.046	597180	keystroke_t	t	n/a
298.651	0.1195	597302	keystroke_i	i	n/a
298.7255	0.075	597451	keystroke_o	o	n/a
298.8605	0.075	597721	keystroke_n	n	n/a
298.9505	0.105	597901	keystroke_a	a	n/a
299.0695	0.075	598139	keystroke_l	l	n/a
299.22	0.12	598440	keystroke_Key.space	Key.space	n/a
299.431	0.06	598862	keystroke_p	p	n/a
299.55	0.076	599100	keystroke_a	a	n/a
299.686	0.06	599372	keystroke_y	y	n/a
299.986	0.06	599972	keystroke_d	d	n/a
300.1655	0.075	600331	keystroke_a	a	n/a
300.2245	0.061	600449	keystroke_y	y	n/a
300.7355	0.044	601471	keystroke_Key.enter	Key.enter	n/a
300.7935	6.873	601587	prompt	n/a	cyber gotta magic sellers\n
301.7855	0.09	603571	keystroke_c	c	n/a
302.3105	0.045	604621	keystroke_b	b	n/a
302.6855	0.075	605371	keystroke_Key.backspace	Key.backspace	n/a
303.3605	0.09	606721	keystroke_y	y	n/a
303.5405	0.075	607081	keystroke_b	b	n/a
303.6305	0.135	607261	keystroke_e	e	n/a
303.7505	0.075	607501	keystroke_r	r	n/a
303.9155	0.089	607831	keystroke_Key.space	Key.space	n/a
304.1395	0.061	608279	keystroke_g	g	n/a
304.2155	0.06	608431	keystroke_o	o	n/a
304.3805	0.045	608761	keystroke_t	t	n/a
304.4855	0.075	608971	keystroke_t	t	n/a
304.6055	0.09	609211	keystroke_a	a	n/a
304.7105	0.105	609421	keystroke_Key.space	Key.space	n/a
304.9505	0.03	609901	keystroke_m	m	n/a
305.0555	0.09	610111	keystroke_a	a	n/a
305.2355	0.045	610471	keystroke_g	g	n/a
305.3705	0.06	610741	keystroke_i	i	n/a
305.5505	0.045	611101	keystroke_c	c	n/a
305.7755	0.105	611551	keystroke_Key.space	Key.space	n/a
306.0305	0.09	612061	keystroke_s	s	n/a
306.2555	0.03	612511	keystroke_e	e	n/a
306.5405	0.075	613081	keystroke_l	l	n/a
306.6605	0.09	613321	keystroke_l	l	n/a
306.7655	0.12	613531	keystroke_e	e	n/a
306.8705	0.09	613741	keystroke_r	r	n/a
307.0505	0.06	614101	keystroke_s	s	n/a
307.6205	0.045	615241	keystroke_Key.enter	Key.enter	n/a
307.6695	9.4325	615339	prompt	n/a	highest notebook planned allergy\n
308.3855	0.12	616771	keystroke_h	h	n/a
308.4755	0.12	616951	keystroke_i	i	n/a
308.5805	0.075	617161	keystroke_g	g	n/a
308.6405	0.105	617281	keystroke_h	h	n/a
308.7755	0.06	617551	keystroke_e	e	n/a
308.9405	0.075	617881	keystroke_s	s	n/a
309.1355	0.06	618271	keystroke_t	t	n/a
309.1805	0.09	618361	keystroke_Key.space	Key.space	n/a
309.3455	0.09	618691	keystroke_n	n	n/a
309.4505	0.09	618901	keystroke_o	o	n/a
309.5255	0.045	619051	keystroke_t	t	n/a
309.6455	0.075	619291	keystroke_e	e	n/a
309.8705	0.045	619741	keystroke_b	b	n/a
310.0055	0.075	620011	keystroke_o	o	n/a
310.1405	0.06	620281	keystroke_o	o	n/a
310.3205	0.06	620641	keystroke_k	k	n/a
310.4405	0.09	620881	keystroke_Key.space	Key.space	n/a
310.5905	0.045	621181	keystroke_p	p	n/a
310.7405	0.075	621481	keystroke_l	l	n/a
310.8305	0.075	621661	keystroke_a	a	n/a
310.9205	0.045	621841	keystroke_n	n	n/a
311.0705	0.045	622141	keystroke_n	n	n/a
311.1605	0.06	622321	keystroke_e	e	n/a
311.3555	0.06	622711	keystroke_d	d	n/a
311.4305	0.09	622861	keystroke_Key.space	Key.space	n/a
311.5655	0.09	623131	keystroke_a	a	n/a
311.6555	0.045	623311	keystroke_l	l	n/a
311.7905	0.06	623581	keystroke_l	l	n/a
312.1955	0.09	624391	keystroke_e	e	n/a
312.3005	0.09	624601	keystroke_r	r	n/a
312.5255	0.045	625051	keystroke_g	g	n/a
313.6355	0.075	627271	keystroke_r	r	n/a
313.7405	0.045	627481	keystroke_y	y	n/a
314.7305	0.075	629461	keystroke_Key.backspace	Key.backspace	n/a
314.9105	0.045	629821	keystroke_Key.backspace	Key.backspace	n/a
315.2555	0.12	630511	keystroke_y	y	n/a
317.0405	0.06	634081	keystroke_Key.enter	Key.enter	n/a
317.105	6.9865	634210	prompt	n/a	equivalent films promotion families\n
317.9255	0.06	635851	keystroke_e	e	n/a
318.5855	0.075	637171	keystroke_q	q	n/a
318.7355	0.1345	637471	keystroke_u	u	n/a
318.7955	0.1195	637591	keystroke_i	i	n/a
318.96	0.075	637920	keystroke_v	v	n/a
319.14	0.075	638280	keystroke_a	a	n/a
319.23	0.09	638460	keystroke_l	l	n/a
319.335	0.045	638670	keystroke_e	e	n/a
319.455	0.045	638910	keystroke_n	n	n/a
319.56	0.06	639120	keystroke_t	t	n/a
319.65	0.105	639300	keystroke_Key.space	Key.space	n/a
319.86	0.076	639720	keystroke_f	f	n/a
319.995	0.045	639990	keystroke_i	i	n/a
320.175	0.075	640350	keystroke_l	l	n/a
320.325	0.045	640650	keystroke_m	m	n/a
320.415	0.075	640830	keystroke_s	s	n/a
320.565	0.12	641130	keystroke_Key.space	Key.space	n/a
320.82	0.075	641640	keystroke_p	p	n/a
320.956	0.044	641912	keystroke_r	r	n/a
321.045	0.061	642090	keystroke_o	o	n/a
321.18	0.12	642360	keystroke_m	m	n/a
321.286	0.089	642572	keystroke_o	o	n/a
321.84	0.06	643680	keystroke_t	t	n/a
321.886	0.119	643772	keystroke_i	i	n/a
321.945	0.091	643890	keystroke_o	o	n/a
322.095	0.06	644190	keystroke_n	n	n/a
322.215	0.105	644430	keystroke_Key.space	Key.space	n/a
322.321	0.059	644642	keystroke_f	f	n/a
322.455	0.106	644910	keystroke_a	a	n/a
322.545	0.105	645090	keystroke_m	m	n/a
322.711	0.074	645422	keystroke_i	i	n/a
322.89	0.075	645780	keystroke_l	l	n/a
323.011	0.074	646022	keystroke_i	i	n/a
323.445	0.075	646890	keystroke_e	e	n/a
323.625	0.075	647250	keystroke_s	s	n/a
324.03	0.06	648060	keystroke_Key.enter	Key.enter	n/a
324.0945	6.9275	648189	prompt	n/a	ensuring dialog sodium responded\n
324.87	0.075	649740	keystroke_e	e	n/a
325.006	0.075	650012	keystroke_n	n	n/a
325.095	0.061	650190	keystroke_s	s	n/a
325.231	0.059	650462	keystroke_u	u	n/a
325.381	0.059	650762	keystroke_r	r	n/a
325.47	0.061	650940	keystroke_i	i	n/a
325.606	0.074	651212	keystroke_n	n	n/a
325.665	0.075	651330	keystroke_g	g	n/a
325.725	0.12	651450	keystroke_Key.space	Key.space	n/a
325.89	0.06	651780	keystroke_d	d	n/a
325.965	0.06	651930	keystroke_i	i	n/a
326.085	0.09	652170	keystroke_a	a	n/a
326.715	0.075	653430	keystroke_l	l	n/a
326.895	0.061	653790	keystroke_o	o	n/a
326.986	0.059	653972	keystroke_g	g	n/a
327.09	0.105	654180	keystroke_Key.space	Key.space	n/a
327.225	0.075	654450	keystroke_s	s	n/a
327.315	0.091	654630	keystroke_o	o	n/a
327.496	0.06	654992	keystroke_d	d	n/a
327.795	0.045	655590	keystroke_i	i	n/a
327.976	0.045	655952	keystroke_u	u	n/a
328.186	0.075	656372	keystroke_m	m	n/a
328.365	0.09	656730	keystroke_Key.space	Key.space	n/a
328.77	0.045	657540	keystroke_e	e	n/a
329.1	0.075	658200	keystroke_Key.backspace	Key.backspace	n/a
329.19	0.09	658380	keystroke_r	r	n/a
329.311	0.075	658622	keystroke_e	e	n/a
329.566	0.045	659132	keystroke_s	s	n/a
329.731	0.075	659462	keystroke_p	p	n/a
329.911	0.074	659822	keystroke_o	o	n/a
330.076	0.045	660152	keystroke_n	n	n/a
330.135	0.061	660270	keystroke_d	d	n/a
330.301	0.045	660602	keystroke_e	e	n/a
330.481	0.03	660962	keystroke_d	d	n/a
330.96	0.06	661920	keystroke_Key.enter	Key.enter	n/a
331.033	7.9695	662066	prompt	n/a	trustee seminars processing civic\n
332.2205	0.0605	664441	keystroke_t	t	n/a
332.356	0.0595	664712	keystroke_r	r	n/a
332.4905	0.06	664981	keystroke_u	u	n/a
332.5805	0.075	665161	keystroke_s	s	n/a
332.7755	0.045	665551	keystroke_t	t	n/a
333.3905	0.045	666781	keystroke_e	e	n/a
333.5255	0.06	667051	keystroke_e	e	n/a
333.856	0.0745	667712	keystroke_Key.space	Key.space	n/a
333.9605	0.06	667921	keystroke_s	s	n/a
334.1255	0.045	668251	keystroke_e	e	n/a
334.216	0.045	668432	keystroke_m	m	n/a
335.0405	0.075	670081	keystroke_i	i	n/a
335.1905	0.06	670381	keystroke_n	n	n/a
335.2955	0.09	670591	keystroke_a	a	n/a
335.4605	0.03	670921	keystroke_r	r	n/a
335.6105	0.06	671221	keystroke_s	s	n/a
335.7155	0.105	671431	keystroke_Key.space	Key.space	n/a
335.8805	0.06	671761	keystroke_p	p	n/a
335.9855	0.075	671971	keystroke_r	r	n/a
336.0905	0.06	672181	keystroke_o	o	n/a
336.2405	0.06	672481	keystroke_c	c	n/a
336.4055	0.075	672811	keystroke_e	e	n/a
336.5705	0.075	673141	keystroke_s	s	n/a
336.7205	0.105	673441	keystroke_s	s	n/a
336.8405	0.045	673681	keystroke_i	i	n/a
336.9605	0.075	673921	keystroke_n	n	n/a
337.0505	0.045	674101	keystroke_g	g	n/a
337.0805	0.12	674161	keystroke_Key.space	Key.space	n/a
337.2605	0.075	674521	keystroke_c	c	n/a
337.3655	0.09	674731	keystroke_i	i	n/a
337.5005	0.045	675001	keystroke_v	v	n/a
337.6205	0.045	675241	keystroke_i	i	n/a
338.2055	0.06	676411	keystroke_c	c	n/a
338.9405	0.06	677881	keystroke_Key.enter	Key.enter	n/a
339.005	13.047	678010	prompt	n/a	advantages heaven home sunset\n
339.6605	0.075	679321	keystroke_a	a	n/a
339.7955	0.075	679591	keystroke_d	d	n/a
339.9755	0.09	679951	keystroke_v	v	n/a
340.1255	0.09	680251	keystroke_a	a	n/a
341.2205	0.075	682441	keystroke_n	n	n/a
341.6105	0.06	683221	keystroke_r	r	n/a
341.7455	0.105	683491	keystroke_a	a	n/a
341.8655	0.075	683731	keystroke_g	g	n/a
342.0455	0.045	684091	keystroke_e	e	n/a
342.1955	0.075	684391	keystroke_s	s	n/a
342.3005	0.06	684601	keystroke_Key.space	Key.space	n/a
342.4955	0.075	684991	keystroke_h	h	n/a
342.5405	0.075	685081	keystroke_e	e	n/a
342.6755	0.09	685351	keystroke_a	a	n/a
342.8105	0.09	685621	keystroke_v	v	n/a
343.0355	0.045	686071	keystroke_e	e	n/a
343.1105	0.06	686221	keystroke_n	n	n/a
343.2455	0.075	686491	keystroke_Key.space	Key.space	n/a
343.4255	0.09	686851	keystroke_h	h	n/a
343.5005	0.12	687001	keystroke_o	o	n/a
343.6505	0.105	687301	keystroke_m	m	n/a
343.7705	0.06	687541	keystroke_e	e	n/a
344.2955	0.255	688591	keystroke_Key.backspace	Key.backspace	n/a
344.8355	0.045	689671	keystroke_Key.backspace	Key.backspace	n/a
345.0005	0.06	690001	keystroke_Key.backspace	Key.backspace	n/a
345.1655	0.045	690331	keystroke_Key.backspace	Key.backspace	n/a
345.3455	0.03	690691	keystroke_Key.backspace	Key.backspace	n/a
345.4955	0.045	690991	keystroke_Key.backspace	Key.backspace	n/a
345.6605	0.045	691321	keystroke_Key.backspace	Key.backspace	n/a
345.8255	0.045	691651	keystroke_Key.backspace	Key.backspace	n/a
345.9905	0.045	691981	keystroke_Key.backspace	Key.backspace	n/a
346.1705	0.045	692341	keystroke_Key.backspace	Key.backspace	n/a
346.3355	0.045	692671	keystroke_Key.backspace	Key.backspace	n/a
346.5155	0.03	693031	keystroke_Key.backspace	Key.backspace	n/a
346.6805	0.045	693361	keystroke_Key.backspace	Key.backspace	n/a
346.8455	0.045	693691	keystroke_Key.backspace	Key.backspace	n/a
347.0105	0.06	694021	keystroke_Key.backspace	Key.backspace	n/a
347.1905	0.045	694381	keystroke_Key.backspace	Key.backspace	n/a
347.355	0.06	694710	keystroke_Key.backspace	Key.backspace	n/a
348.105	0.09	696210	keystroke_t	t	n/a
348.255	0.075	696510	keystroke_a	a	n/a
348.405	0.075	696810	keystroke_g	g	n/a
348.555	0.06	697110	keystroke_e	e	n/a
348.705	0.06	697410	keystroke_s	s	n/a
348.855	0.105	697710	keystroke_Key.space	Key.space	n/a
349.125	0.06	698250	keystroke_h	h	n/a
349.2	0.075	698400	keystroke_e	e	n/a
349.365	0.06	698730	keystroke_a	a	n/a
349.485	0.075	698970	keystroke_v	v	n/a
349.68	0.045	699360	keystroke_e	e	n/a
349.77	0.06	699540	keystroke_n	n	n/a
349.92	0.075	699840	keystroke_Key.space	Key.space	n/a
350.085	0.09	700170	keystroke_h	h	n/a
350.16	0.105	700320	keystroke_o	o	n/a
350.34	0.06	700680	keystroke_m	m	n/a
350.415	0.075	700830	keystroke_e	e	n/a
350.79	0.075	701580	keystroke_Key.space	Key.space	n/a
350.955	0.075	701910	keystroke_s	s	n/a
351.075	0.045	702150	keystroke_u	u	n/a
351.195	0.06	702390	keystroke_n	n	n/a
351.255	0.09	702510	keystroke_s	s	n/a
351.435	0.075	702870	keystroke_e	e	n/a
351.585	0.075	703170	keystroke_t	t	n/a
351.975	0.075	703950	keystroke_Key.enter	Key.enter	n/a
352.0545	8.4425	704109	prompt	n/a	identifies grow roommates let's\n
352.74	0.075	705480	keystroke_i	i	n/a
352.8	0.075	705600	keystroke_d	d	n/a
352.995	0.03	705990	keystroke_e	e	n/a
353.07	0.045	706140	keystroke_n	n	n/a
353.595	0.045	707190	keystroke_t	t	n/a
353.715	0.045	707430	keystroke_i	i	n/a
353.82	0.045	707640	keystroke_f	f	n/a
353.925	0.06	707850	keystroke_i	i	n/a
354.27	0.075	708540	keystroke_e	e	n/a
354.45	0.09	708900	keystroke_s	s	n/a
354.72	0.09	709440	keystroke_Key.space	Key.space	n/a
354.87	0.06	709740	keystroke_g	g	n/a
354.99	0.075	709980	keystroke_r	r	n/a
355.245	0.06	710490	keystroke_o	o	n/a
355.32	0.075	710640	keystroke_w	w	n/a
355.545	0.09	711090	keystroke_Key.space	Key.space	n/a
355.935	0.03	711870	keystroke_r	r	n/a
356.04	0.06	712080	keystroke_o	o	n/a
356.175	0.105	712350	keystroke_o	o	n/a
356.4	0.09	712800	keystroke_m	m	n/a
356.625	0.09	713250	keystroke_a	a	n/a
357.36	0.09	714720	keystroke_Key.backspace	Key.backspace	n/a
357.66	0.075	715320	keystroke_m	m	n/a
357.81	0.075	715620	keystroke_a	a	n/a
357.96	0.09	715920	keystroke_t	t	n/a
358.125	0.075	716250	keystroke_e	e	n/a
358.29	0.075	716580	keystroke_s	s	n/a
358.41	0.105	716820	keystroke_Key.space	Key.space	n/a
358.545	0.06	717090	keystroke_l	l	n/a
358.635	0.06	717270	keystroke_e	e	n/a
358.875	0.045	717750	keystroke_t	t	n/a
359.43	0.06	718860	keystroke_'	'	n/a
359.76	0.06	719520	keystroke_s	s	n/a
360.42	0.075	720840	keystroke_Key.enter	Key.enter	n/a
360.501	5.051	721002	prompt	n/a	perry titans sorts nano\n
361.11	0.06	722220	keystroke_p	p	n/a
361.215	0.09	722430	keystroke_e	e	n/a
361.365	0.075	722730	keystroke_r	r	n/a
361.5	0.075	723000	keystroke_r	r	n/a
361.59	0.075	723180	keystroke_y	y	n/a
361.815	0.105	723630	keystroke_Key.space	Key.space	n/a
362.145	0.03	724290	keystroke_t	t	n/a
362.22	0.045	724440	keystroke_i	i	n/a
362.295	0.06	724590	keystroke_t	t	n/a
362.67	0.075	725340	keystroke_a	a	n/a
362.775	0.045	725550	keystroke_n	n	n/a
363.375	0.06	726750	keystroke_s	s	n/a
363.585	0.105	727170	keystroke_Key.space	Key.space	n/a
363.915	0.075	727830	keystroke_s	s	n/a
364.065	0.06	728130	keystroke_o	o	n/a
364.17	0.06	728340	keystroke_r	r	n/a
364.29	0.06	728580	keystroke_t	t	n/a
364.485	0.06	728970	keystroke_s	s	n/a
364.59	0.06	729180	keystroke_Key.space	Key.space	n/a
364.74	0.045	729480	keystroke_n	n	n/a
364.83	0.06	729660	keystroke_a	a	n/a
364.98	0.105	729960	keystroke_n	n	n/a
365.235	0.06	730470	keystroke_o	o	n/a
365.49	0.06	730980	keystroke_Key.enter	Key.enter	n/a
365.5545	7.1375	731109	prompt	n/a	failing shuttle questions watts\n
366.705	0.06	733410	keystroke_f	f	n/a
366.81	0.12	733620	keystroke_a	a	n/a
366.885	0.075	733770	keystroke_i	i	n/a
367.05	0.075	734100	keystroke_l	l	n/a
367.185	0.075	734370	keystroke_i	i	n/a
367.365	0.06	734730	keystroke_n	n	n/a
367.44	0.06	734880	keystroke_g	g	n/a
367.485	0.09	734970	keystroke_Key.space	Key.space	n/a
367.62	0.06	735240	keystroke_s	s	n/a
367.695	0.105	735390	keystroke_h	h	n/a
367.785	0.075	735570	keystroke_u	u	n/a
367.95	0.015	735900	keystroke_t	t	n/a
368.055	0.075	736110	keystroke_t	t	n/a
368.16	0.075	736320	keystroke_l	l	n/a
368.265	0.045	736530	keystroke_e	e	n/a
368.37	0.09	736740	keystroke_Key.space	Key.space	n/a
369.0905	0.075	738181	keystroke_q	q	n/a
369.1805	0.075	738361	keystroke_u	u	n/a
369.3305	0.045	738661	keystroke_e	e	n/a
369.4955	0.09	738991	keystroke_s	s	n/a
369.7055	0.075	739411	keystroke_t	t	n/a
369.7955	0.12	739591	keystroke_i	i	n/a
369.8555	0.09	739711	keystroke_o	o	n/a
370.0055	0.06	740011	keystroke_n	n	n/a
370.1105	0.045	740221	keystroke_s	s	n/a
370.3655	0.06	740731	keystroke_Key.space	Key.space	n/a
370.4855	0.09	740971	keystroke_w	w	n/a
370.6805	0.06	741361	keystroke_a	a	n/a
370.7555	0.105	741511	keystroke_t	t	n/a
370.9655	0.09	741931	keystroke_t	t	n/a
371.0855	0.075	742171	keystroke_e	e	n/a
371.2505	0.075	742501	keystroke_s	s	n/a
371.7605	0.06	743521	keystroke_Key.backspace	Key.backspace	n/a
371.8955	0.06	743791	keystroke_Key.backspace	Key.backspace	n/a
372.1355	0.06	744271	keystroke_s	s	n/a
372.6155	0.075	745231	keystroke_Key.enter	Key.enter	n/a
372.695	7.557	745390	prompt	n/a	written owned trinidad levels\n
373.4855	0.06	746971	keystroke_w	w	n/a
373.7105	0.06	747421	keystroke_r	r	n/a
373.8305	0.075	747661	keystroke_i	i	n/a
373.9955	0.045	747991	keystroke_t	t	n/a
374.1155	0.09	748231	keystroke_t	t	n/a
374.3105	0.075	748621	keystroke_e	e	n/a
374.4155	0.075	748831	keystroke_n	n	n/a
374.6105	0.045	749221	keystroke_Key.space	Key.space	n/a
375.3455	0.09	750691	keystroke_o	o	n/a
375.4955	0.075	750991	keystroke_w	w	n/a
375.6005	0.06	751201	keystroke_n	n	n/a
375.7355	0.06	751471	keystroke_e	e	n/a
375.9455	0.03	751891	keystroke_d	d	n/a
376.0955	0.09	752191	keystroke_Key.space	Key.space	n/a
376.7255	0.03	753451	keystroke_t	t	n/a
376.8905	0.06	753781	keystroke_r	r	n/a
377.0405	0.075	754081	keystroke_i	i	n/a
377.2355	0.06	754471	keystroke_n	n	n/a
377.4005	0.06	754801	keystroke_i	i	n/a
377.7155	0.09	755431	keystroke_d	d	n/a
377.9405	0.075	755881	keystroke_a	a	n/a
378.0905	0.06	756181	keystroke_d	d	n/a
378.1955	0.105	756391	keystroke_Key.space	Key.space	n/a
378.3455	0.09	756691	keystroke_l	l	n/a
378.4055	0.06	756811	keystroke_e	e	n/a
378.6005	0.06	757201	keystroke_v	v	n/a
379.6055	0.06	759211	keystroke_e	e	n/a
379.7855	0.075	759571	keystroke_l	l	n/a
379.9355	0.075	759871	keystroke_s	s	n/a
380.2205	0.03	760441	keystroke_Key.enter	Key.enter	n/a
380.255	6.642	760510	prompt	n/a	land aruba lesbian geography\n
380.9555	0.09	761911	keystroke_l	l	n/a
381.0605	0.06	762121	keystroke_a	a	n/a
381.1655	0.06	762331	keystroke_n	n	n/a
381.2405	0.045	762481	keystroke_d	d	n/a
381.3455	0.09	762691	keystroke_Key.space	Key.space	n/a
381.7655	0.06	763531	keystroke_a	a	n/a
381.9005	0.075	763801	keystroke_r	r	n/a
382.0955	0.045	764191	keystroke_u	u	n/a
382.2305	0.06	764461	keystroke_b	b	n/a
382.3355	0.09	764671	keystroke_a	a	n/a
382.5155	0.09	765031	keystroke_Key.space	Key.space	n/a
382.8605	0.06	765721	keystroke_l	l	n/a
382.9355	0.045	765871	keystroke_e	e	n/a
383.0855	0.075	766171	keystroke_s	s	n/a
383.4005	0.075	766801	keystroke_b	b	n/a
383.9105	0.12	767821	keystroke_i	i	n/a
384.2105	0.075	768421	keystroke_a	a	n/a
384.3155	0.06	768631	keystroke_n	n	n/a
384.4805	0.09	768961	keystroke_Key.space	Key.space	n/a
385.335	0.045	770670	keystroke_g	g	n/a
385.47	0.045	770940	keystroke_e	e	n/a
385.56	0.075	771120	keystroke_o	o	n/a
385.755	0.045	771510	keystroke_g	g	n/a
385.845	0.075	771690	keystroke_r	r	n/a
385.98	0.105	771960	keystroke_a	a	n/a
386.07	0.09	772140	keystroke_p	p	n/a
386.295	0.06	772590	keystroke_h	h	n/a
386.52	0.045	773040	keystroke_y	y	n/a
386.865	0.03	773730	keystroke_Key.enter	Key.enter	n/a
386.9	7.077	773800	prompt	n/a	licensing rich observed harm\n
387.585	0.09	775170	keystroke_l	l	n/a
387.75	0.075	775500	keystroke_i	i	n/a
387.84	0.075	775680	keystroke_c	c	n/a
388.05	0.03	776100	keystroke_e	e	n/a
388.395	0.06	776790	keystroke_n	n	n/a
389.97	0.06	779940	keystroke_s	s	n/a
390.06	0.045	780120	keystroke_i	i	n/a
390.226	0.059	780452	keystroke_n	n	n/a
390.301	0.059	780602	keystroke_g	g	n/a
390.39	0.075	780780	keystroke_Key.space	Key.space	n/a
390.6	0.03	781200	keystroke_r	r	n/a
390.66	0.09	781320	keystroke_i	i	n/a
390.795	0.06	781590	keystroke_c	c	n/a
390.87	0.09	781740	keystroke_h	h	n/a
391.035	0.12	782070	keystroke_Key.space	Key.space	n/a
391.2	0.076	782400	keystroke_o	o	n/a
391.365	0.075	782730	keystroke_b	b	n/a
391.545	0.06	783090	keystroke_s	s	n/a
391.755	0.06	783510	keystroke_e	e	n/a
392.055	0.075	784110	keystroke_r	r	n/a
392.295	0.075	784590	keystroke_v	v	n/a
392.445	0.06	784890	keystroke_e	e	n/a
392.655	0.03	785310	keystroke_d	d	n/a
392.895	0.09	785790	keystroke_Key.space	Key.space	n/a
393.105	0.075	786210	keystroke_h	h	n/a
393.285	0.06	786570	keystroke_a	a	n/a
393.48	0.03	786960	keystroke_r	r	n/a
393.585	0.03	787170	keystroke_m	m	n/a
393.915	0.06	787830	keystroke_Key.enter	Key.enter	n/a
393.9795	7.8575	787959	prompt	n/a	played emerald lightbox informed\n
394.755	0.06	789510	keystroke_p	p	n/a
394.935	0.075	789870	keystroke_l	l	n/a
395.055	0.075	790110	keystroke_a	a	n/a
395.176	0.059	790352	keystroke_y	y	n/a
395.565	0.06	791130	keystroke_e	e	n/a
395.76	0.03	791520	keystroke_d	d	n/a
396.015	0.075	792030	keystroke_Key.space	Key.space	n/a
396.135	0.045	792270	keystroke_e	e	n/a
396.21	0.06	792420	keystroke_m	m	n/a
396.39	0.075	792780	keystroke_e	e	n/a
396.48	0.075	792960	keystroke_r	r	n/a
396.975	0.06	793950	keystroke_a	a	n/a
397.065	0.075	794130	keystroke_l	l	n/a
397.275	0.075	794550	keystroke_d	d	n/a
397.515	0.09	795030	keystroke_Key.space	Key.space	n/a
397.665	0.075	795330	keystroke_l	l	n/a
397.86	0.06	795720	keystroke_i	i	n/a
397.95	0.045	795900	keystroke_g	g	n/a
398.04	0.061	796080	keystroke_h	h	n/a
398.22	0.045	796440	keystroke_t	t	n/a
398.355	0.09	796710	keystroke_b	b	n/a
398.505	0.06	797010	keystroke_o	o	n/a
398.73	0.046	797460	keystroke_x	x	n/a
399.39	0.105	798780	keystroke_Key.space	Key.space	n/a
399.676	0.045	799352	keystroke_i	i	n/a
399.81	0.045	799620	keystroke_n	n	n/a
399.885	0.06	799770	keystroke_f	f	n/a
400.035	0.045	800070	keystroke_o	o	n/a
400.545	0.045	801090	keystroke_r	r	n/a
400.74	0.061	801480	keystroke_m	m	n/a
401.01	0.06	802020	keystroke_e	e	n/a
401.19	0.061	802380	keystroke_d	d	n/a
401.775	0.06	803550	keystroke_Key.enter	Key.enter	n/a
401.84	14.127	803680	prompt	n/a	perth foreign indicated infectious\n
402.54	0.075	805080	keystroke_p	p	n/a
402.66	0.105	805320	keystroke_e	e	n/a
402.78	0.075	805560	keystroke_r	r	n/a
403.005	0.046	806010	keystroke_t	t	n/a
403.095	0.135	806190	keystroke_h	h	n/a
403.845	0.105	807690	keystroke_Key.space	Key.space	n/a
404.1	0.076	808200	keystroke_f	f	n/a
404.19	0.075	808380	keystroke_o	o	n/a
404.34	0.03	808680	keystroke_r	r	n/a
406.276	0.075	812552	keystroke_e	e	n/a
406.396	0.074	812792	keystroke_i	i	n/a
406.515	0.06	813030	keystroke_g	g	n/a
406.666	0.044	813332	keystroke_n	n	n/a
407.61	0.075	815220	keystroke_Key.space	Key.space	n/a
408.076	0.06	816152	keystroke_i	i	n/a
408.271	0.044	816542	keystroke_n	n	n/a
409.666	0.029	819332	keystroke_d	d	n/a
409.801	0.06	819602	keystroke_i	i	n/a
410.026	0.059	820052	keystroke_c	c	n/a
410.326	0.059	820652	keystroke_a	a	n/a
410.476	0.06	820952	keystroke_t	t	n/a
410.656	0.045	821312	keystroke_e	e	n/a
410.836	0.045	821672	keystroke_d	d	n/a
411.001	0.075	822002	keystroke_Key.space	Key.space	n/a
412.786	0.045	825572	keystroke_i	i	n/a
412.966	0.06	825932	keystroke_n	n	n/a
413.131	0.045	826262	keystroke_f	f	n/a
413.461	0.045	826922	keystroke_e	e	n/a
413.626	0.045	827252	keystroke_c	c	n/a
413.926	0.06	827852	keystroke_t	t	n/a
414.001	0.06	828002	keystroke_i	i	n/a
415.066	0.06	830132	keystroke_o	o	n/a
415.261	0.06	830522	keystroke_u	u	n/a
415.366	0.06	830732	keystroke_s	s	n/a
415.906	0.06	831812	keystroke_Key.enter	Key.enter	n/a
415.97	6.836	831940	prompt	n/a	diagnosis go most buses\n
416.671	0.0595	833342	keystroke_d	d	n/a
416.806	0.06	833612	keystroke_i	i	n/a
417.2105	0.1055	834421	keystroke_a	a	n/a
417.886	0.06	835772	keystroke_g	g	n/a
418.126	0.135	836252	keystroke_n	n	n/a
418.246	0.09	836492	keystroke_o	o	n/a
418.351	0.06	836702	keystroke_s	s	n/a
418.516	0.03	837032	keystroke_i	i	n/a
418.561	0.06	837122	keystroke_s	s	n/a
419.265	0.09	838530	keystroke_Key.space	Key.space	n/a
419.535	0.06	839070	keystroke_g	g	n/a
419.64	0.045	839280	keystroke_o	o	n/a
419.895	0.09	839790	keystroke_Key.space	Key.space	n/a
420.54	0.165	841080	keystroke_m	m	n/a
420.705	0.06	841410	keystroke_o	o	n/a
420.78	0.09	841560	keystroke_s	s	n/a
421.02	0.06	842040	keystroke_t	t	n/a
421.11	0.09	842220	keystroke_Key.space	Key.space	n/a
421.35	0.06	842700	keystroke_b	b	n/a
421.47	0.06	842940	keystroke_u	u	n/a
421.605	0.045	843210	keystroke_s	s	n/a
421.965	0.06	843930	keystroke_e	e	n/a
422.115	0.045	844230	keystroke_s	s	n/a
422.745	0.06	845490	keystroke_Key.enter	Key.enter	n/a
422.8105	11.726	845621	prompt	n/a	lines somebody's senate minute\n
423.795	0.075	847590	keystroke_l	l	n/a
423.975	0.045	847950	keystroke_i	i	n/a
424.125	0.06	848250	keystroke_n	n	n/a
424.2	0.06	848400	keystroke_e	e	n/a
424.38	0.06	848760	keystroke_s	s	n/a
426.165	0.09	852330	keystroke_Key.space	Key.space	n/a
426.3	0.075	852600	keystroke_s	s	n/a
426.375	0.06	852750	keystroke_o	o	n/a
426.525	0.045	853050	keystroke_m	m	n/a
426.63	0.06	853260	keystroke_e	e	n/a
426.96	0.06	853920	keystroke_b	b	n/a
427.11	0.06	854220	keystroke_o	o	n/a
427.245	0.06	854490	keystroke_d	d	n/a
427.365	0.06	854730	keystroke_y	y	n/a
428.925	0.06	857850	keystroke_'	'	n/a
429.045	0.06	858090	keystroke_s	s	n/a
429.675	0.09	859350	keystroke_Key.space	Key.space	n/a
429.975	0.075	859950	keystroke_s	s	n/a
430.155	0.045	860310	keystroke_e	e	n/a
430.23	0.06	860460	keystroke_n	n	n/a
430.9345	0.061	861869	keystroke_a	a	n/a
431.0705	0.089	862141	keystroke_t	t	n/a
431.2645	0.015	862529	keystroke_e	e	n/a
431.4895	0.09	862979	keystroke_Key.space	Key.space	n/a
431.6705	0.104	863341	keystroke_m	m	n/a
431.7895	0.106	863579	keystroke_i	i	n/a
431.9705	0.089	863941	keystroke_n	n	n/a
432.1345	0.061	864269	keystroke_u	u	n/a
432.2995	0.046	864599	keystroke_t	t	n/a
432.4645	0.015	864929	keystroke_e	e	n/a
434.4745	0.06	868949	keystroke_Key.enter	Key.enter	n/a
434.5395	8.2615	869079	prompt	n/a	beverages closure providing dispatch\n
435.4495	0.045	870899	keystroke_b	b	n/a
435.5095	0.061	871019	keystroke_e	e	n/a
435.6895	0.045	871379	keystroke_v	v	n/a
435.8995	0.09	871799	keystroke_e	e	n/a
436.0645	0.06	872129	keystroke_r	r	n/a
436.3655	0.074	872731	keystroke_a	a	n/a
436.5745	0.091	873149	keystroke_g	g	n/a
436.7855	0.06	873571	keystroke_e	e	n/a
437.1455	0.089	874291	keystroke_Key.space	Key.space	n/a
437.4745	0.061	874949	keystroke_c	c	n/a
437.5355	0.089	875071	keystroke_l	l	n/a
437.7155	0.075	875431	keystroke_o	o	n/a
437.8205	0.075	875641	keystroke_s	s	n/a
438.5705	0.06	877141	keystroke_u	u	n/a
438.7355	0.06	877471	keystroke_r	r	n/a
438.8855	0.044	877771	keystroke_e	e	n/a
439.1555	0.09	878311	keystroke_Key.space	Key.space	n/a
439.3795	0.061	878759	keystroke_p	p	n/a
439.4995	0.046	878999	keystroke_r	r	n/a
439.5905	0.06	879181	keystroke_o	o	n/a
439.6955	0.06	879391	keystroke_v	v	n/a
439.8455	0.045	879691	keystroke_i	i	n/a
439.9355	0.06	879871	keystroke_d	d	n/a
440.0555	0.06	880111	keystroke_i	i	n/a
440.2205	0.045	880441	keystroke_n	n	n/a
440.2955	0.06	880591	keystroke_g	g	n/a
440.4905	0.074	880981	keystroke_Key.space	Key.space	n/a
440.5805	0.09	881161	keystroke_d	d	n/a
440.6855	0.075	881371	keystroke_i	i	n/a
440.7755	0.09	881551	keystroke_s	s	n/a
441.1055	0.06	882211	keystroke_p	p	n/a
441.6905	0.105	883381	keystroke_a	a	n/a
441.8855	0.09	883771	keystroke_t	t	n/a
442.2005	0.06	884401	keystroke_c	c	n/a
442.3205	0.06	884641	keystroke_h	h	n/a
442.7405	0.059	885481	keystroke_Key.enter	Key.enter	n/a
442.804	8.0675	885608	prompt	n/a	examination nutritional static energy\n
443.6255	0.045	887251	keystroke_e	e	n/a
443.8655	0.06	887731	keystroke_x	x	n/a
444.1055	0.075	888211	keystroke_a	a	n/a
444.2405	0.105	888481	keystroke_m	m	n/a
444.4055	0.075	888811	keystroke_i	i	n/a
444.5705	0.06	889141	keystroke_n	n	n/a
444.6905	0.09	889381	keystroke_a	a	n/a
444.8705	0.06	889741	keystroke_t	t	n/a
444.9005	0.12	889801	keystroke_i	i	n/a
444.9755	0.09	889951	keystroke_o	o	n/a
445.1105	0.075	890221	keystroke_n	n	n/a
445.2605	0.09	890521	keystroke_Key.space	Key.space	n/a
445.485	0.0605	890970	keystroke_n	n	n/a
445.6205	0.0895	891241	keystroke_u	u	n/a
446.04	0.045	892080	keystroke_t	t	n/a
446.505	0.06	893010	keystroke_r	r	n/a
446.985	0.045	893970	keystroke_i	i	n/a
447.345	0.045	894690	keystroke_t	t	n/a
447.825	0.18	895650	keystroke_i	i	n/a
447.99	0.03	895980	keystroke_o	o	n/a
448.095	0.06	896190	keystroke_n	n	n/a
448.2	0.06	896400	keystroke_a	a	n/a
448.275	0.09	896550	keystroke_l	l	n/a
448.38	0.12	896760	keystroke_Key.space	Key.space	n/a
448.65	0.075	897300	keystroke_s	s	n/a
448.8	0.075	897600	keystroke_t	t	n/a
448.89	0.135	897780	keystroke_a	a	n/a
448.995	0.09	897990	keystroke_t	t	n/a
449.145	0.06	898290	keystroke_i	i	n/a
449.295	0.06	898590	keystroke_c	c	n/a
449.4	0.105	898800	keystroke_Key.space	Key.space	n/a
449.625	0.06	899250	keystroke_e	e	n/a
449.73	0.06	899460	keystroke_n	n	n/a
449.88	0.105	899760	keystroke_e	e	n/a
449.955	0.09	899910	keystroke_r	r	n/a
450.18	0.03	900360	keystroke_g	g	n/a
450.33	0.045	900660	keystroke_y	y	n/a
450.81	0.06	901620	keystroke_Key.enter	Key.enter	n/a
450.875	5.1265	901750	prompt	n/a	efficient data riding ping\n
451.59	0.06	903180	keystroke_e	e	n/a
451.725	0.075	903450	keystroke_f	f	n/a
451.875	0.075	903750	keystroke_f	f	n/a
452.025	0.045	904050	keystroke_i	i	n/a
452.13	0.06	904260	keystroke_c	c	n/a
452.265	0.06	904530	keystroke_i	i	n/a
452.91	0.045	905820	keystroke_e	e	n/a
452.985	0.06	905970	keystroke_n	n	n/a
453.135	0.045	906270	keystroke_t	t	n/a
453.3	0.09	906600	keystroke_Key.space	Key.space	n/a
453.555	0.09	907110	keystroke_d	d	n/a
453.735	0.105	907470	keystroke_a	a	n/a
453.825	0.105	907650	keystroke_t	t	n/a
453.99	0.06	907980	keystroke_a	a	n/a
454.155	0.09	908310	keystroke_Key.space	Key.space	n/a
454.425	0.06	908850	keystroke_r	r	n/a
454.5	0.075	909000	keystroke_i	i	n/a
454.605	0.075	909210	keystroke_d	d	n/a
454.695	0.075	909390	keystroke_i	i	n/a
454.86	0.06	909720	keystroke_n	n	n/a
454.935	0.06	909870	keystroke_g	g	n/a
455.04	0.09	910080	keystroke_Key.space	Key.space	n/a
455.235	0.06	910470	keystroke_p	p	n/a
455.4	0.06	910800	keystroke_i	i	n/a
455.535	0.075	911070	keystroke_n	n	n/a
455.64	0.045	911280	keystroke_g	g	n/a
455.94	0.06	911880	keystroke_Key.enter	Key.enter	n/a
456.004	9.1025	912008	prompt	n/a	patent satisfied assessments devoted\n
456.735	0.06	913470	keystroke_p	p	n/a
456.9	0.045	913800	keystroke_a	a	n/a
457.005	0.075	914010	keystroke_t	t	n/a
457.155	0.06	914310	keystroke_e	e	n/a
457.26	0.06	914520	keystroke_n	n	n/a
457.38	0.075	914760	keystroke_t	t	n/a
457.485	0.09	914970	keystroke_Key.space	Key.space	n/a
457.62	0.075	915240	keystroke_s	s	n/a
457.83	0.135	915660	keystroke_a	a	n/a
457.98	0.06	915960	keystroke_t	t	n/a
459.03	0.06	918060	keystroke_i	i	n/a
459.15	0.105	918300	keystroke_s	s	n/a
460.425	0.06	920850	keystroke_f	f	n/a
460.86	0.075	921720	keystroke_i	i	n/a
460.98	0.06	921960	keystroke_e	e	n/a
461.19	0.045	922380	keystroke_d	d	n/a
461.295	0.075	922590	keystroke_Key.space	Key.space	n/a
461.64	0.105	923280	keystroke_a	a	n/a
461.82	0.075	923640	keystroke_s	s	n/a
461.985	0.075	923970	keystroke_s	s	n/a
462.3	0.06	924600	keystroke_e	e	n/a
462.495	0.06	924990	keystroke_s	s	n/a
462.66	0.06	925320	keystroke_s	s	n/a
462.9	0.075	925800	keystroke_m	m	n/a
462.99	0.06	925980	keystroke_e	e	n/a
463.11	0.06	926220	keystroke_n	n	n/a
463.185	0.03	926370	keystroke_t	t	n/a
463.335	0.105	926670	keystroke_s	s	n/a
463.455	0.045	926910	keystroke_Key.space	Key.space	n/a
463.575	0.075	927150	keystroke_d	d	n/a
463.74	0.045	927480	keystroke_e	e	n/a
463.89	0.06	927780	keystroke_v	v	n/a
464.13	0.06	928260	keystroke_o	o	n/a
464.265	0.075	928530	keystroke_t	t	n/a
464.4	0.075	928800	keystroke_e	e	n/a
464.595	0.045	929190	keystroke_d	d	n/a
465.0445	0.06	930089	keystroke_Key.enter	Key.enter	n/a
465.1095	7.707	930219	prompt	n/a	singles saudi michael imperial\n
465.7655	0.075	931531	keystroke_s	s	n/a
465.8695	0.06	931739	keystroke_i	i	n/a
465.9905	0.089	931981	keystroke_n	n	n/a
466.0655	0.059	932131	keystroke_g	g	n/a
466.1855	0.074	932371	keystroke_l	l	n/a
466.2745	0.045	932549	keystroke_e	e	n/a
466.4245	0.075	932849	keystroke_s	s	n/a
466.6345	0.09	933269	keystroke_Key.space	Key.space	n/a
466.7695	0.046	933539	keystroke_s	s	n/a
467.1155	0.089	934231	keystroke_a	a	n/a
467.2805	0.074	934561	keystroke_u	u	n/a
467.4445	0.06	934889	keystroke_d	d	n/a
467.5495	0.061	935099	keystroke_i	i	n/a
468.2405	0.075	936481	keystroke_Key.space	Key.space	n/a
468.4195	0.09	936839	keystroke_m	m	n/a
468.5545	0.121	937109	keystroke_i	i	n/a
468.6605	0.09	937321	keystroke_c	c	n/a
468.7945	0.061	937589	keystroke_h	h	n/a
469.6045	0.061	939209	keystroke_a	a	n/a
469.7545	0.061	939509	keystroke_e	e	n/a
469.8745	0.06	939749	keystroke_l	l	n/a
470.6995	0.075	941399	keystroke_Key.space	Key.space	n/a
470.9095	0.045	941819	keystroke_i	i	n/a
471.0445	0.15	942089	keystroke_m	m	n/a
471.1795	0.09	942359	keystroke_p	p	n/a
471.7355	0.089	943471	keystroke_e	e	n/a
471.8705	0.09	943741	keystroke_r	r	n/a
471.9905	0.075	943981	keystroke_i	i	n/a
472.1255	0.09	944251	keystroke_a	a	n/a
472.2155	0.045	944431	keystroke_l	l	n/a
472.7695	0.046	945539	keystroke_Key.enter	Key.enter	n/a
472.8195	9.088	945639	prompt	n/a	thompson especially appendix checkout\n
473.7295	0.046	947459	keystroke_t	t	n/a
473.7455	0.105	947491	keystroke_h	h	n/a
473.8355	0.105	947671	keystroke_o	o	n/a
473.9995	0.121	947999	keystroke_m	m	n/a
475.1695	0.076	950339	keystroke_p	p	n/a
475.3655	0.075	950731	keystroke_s	s	n/a
475.4555	0.075	950911	keystroke_o	o	n/a
475.6055	0.075	951211	keystroke_n	n	n/a
476.0555	0.074	952111	keystroke_Key.space	Key.space	n/a
476.2955	0.06	952591	keystroke_e	e	n/a
476.4605	0.06	952921	keystroke_s	s	n/a
476.6555	0.045	953311	keystroke_p	p	n/a
476.7455	0.06	953491	keystroke_e	e	n/a
476.9405	0.06	953881	keystroke_c	c	n/a
477.0605	0.045	954121	keystroke_i	i	n/a
477.2405	0.09	954481	keystroke_a	a	n/a
477.3155	0.045	954631	keystroke_l	l	n/a
477.4355	0.09	954871	keystroke_l	l	n/a
477.6905	0.06	955381	keystroke_y	y	n/a
477.8255	0.119	955651	keystroke_Key.space	Key.space	n/a
477.9305	0.075	955861	keystroke_a	a	n/a
478.0505	0.06	956101	keystroke_p	p	n/a
478.1705	0.075	956341	keystroke_p	p	n/a
478.2755	0.075	956551	keystroke_e	e	n/a
478.4105	0.045	956821	keystroke_n	n	n/a
478.8605	0.06	957721	keystroke_d	d	n/a
479.1605	0.06	958321	keystroke_i	i	n/a
479.3555	0.075	958711	keystroke_x	x	n/a
479.9105	0.09	959821	keystroke_Key.space	Key.space	n/a
480.3905	0.06	960781	keystroke_c	c	n/a
480.4805	0.09	960961	keystroke_h	h	n/a
480.5855	0.03	961171	keystroke_e	e	n/a
480.7055	0.075	961411	keystroke_c	c	n/a
480.8105	0.06	961621	keystroke_k	k	n/a
481.0055	0.045	962011	keystroke_o	o	n/a
481.1555	0.06	962311	keystroke_u	u	n/a
481.2755	0.03	962551	keystroke_t	t	n/a
481.8455	0.06	963691	keystroke_Key.enter	Key.enter	n/a
481.9105	11.172	963821	prompt	n/a	shouldn't replaced visited vegetation\n
482.5805	0.045	965161	keystroke_s	s	n/a
482.6105	0.105	965221	keystroke_h	h	n/a
482.7455	0.075	965491	keystroke_o	o	n/a
482.9105	0.06	965821	keystroke_u	u	n/a
483.0905	0.09	966181	keystroke_l	l	n/a
483.1955	0.06	966391	keystroke_d	d	n/a
483.2705	0.09	966541	keystroke_n	n	n/a
484.6955	0.075	969391	keystroke_'	'	n/a
485.3855	0.045	970771	keystroke_t	t	n/a
485.6555	0.105	971311	keystroke_Key.space	Key.space	n/a
485.8205	0.045	971641	keystroke_r	r	n/a
485.9555	0.045	971911	keystroke_e	e	n/a
486.0605	0.06	972121	keystroke_p	p	n/a
486.7055	0.045	973411	keystroke_l	l	n/a
486.7805	0.075	973561	keystroke_a	a	n/a
486.9755	0.075	973951	keystroke_c	c	n/a
487.6055	0.03	975211	keystroke_e	e	n/a
488.7005	0.06	977401	keystroke_d	d	n/a
489.2105	0.12	978421	keystroke_Key.space	Key.space	n/a
489.5855	0.045	979171	keystroke_v	v	n/a
489.6755	0.045	979351	keystroke_i	i	n/a
489.7505	0.06	979501	keystroke_s	s	n/a
489.8555	0.045	979711	keystroke_i	i	n/a
490.1105	0.105	980221	keystroke_t	t	n/a
490.5455	0.045	981091	keystroke_e	e	n/a
490.7405	0.045	981481	keystroke_d	d	n/a
490.8305	0.105	981661	keystroke_Key.space	Key.space	n/a
491.0405	0.075	982081	keystroke_v	v	n/a
491.2355	0.105	982471	keystroke_e	e	n/a
491.4605	0.075	982921	keystroke_g	g	n/a
491.8205	0.075	983641	keystroke_e	e	n/a
492.0905	0.075	984181	keystroke_t	t	n/a
492.2255	0.12	984451	keystroke_a	a	n/a
492.3005	0.105	984601	keystroke_t	t	n/a
492.4355	0.15	984871	keystroke_i	i	n/a
492.5105	0.12	985021	keystroke_o	o	n/a
492.6905	0.06	985381	keystroke_n	n	n/a
493.0205	0.06	986041	keystroke_Key.enter	Key.enter	n/a
493.087	12.085	986174	prompt	n/a	compilation don't british targets\n
494.5805	0.075	989161	keystroke_c	c	n/a
494.6705	0.075	989341	keystroke_o	o	n/a
494.8205	0.165	989641	keystroke_m	m	n/a
494.9705	0.09	989941	keystroke_p	p	n/a
496.1855	0.09	992371	keystroke_i	i	n/a
496.3505	0.12	992701	keystroke_l	l	n/a
496.8905	0.09	993781	keystroke_a	a	n/a
497.0405	0.09	994081	keystroke_t	t	n/a
497.1005	0.12	994201	keystroke_i	i	n/a
497.1455	0.105	994291	keystroke_o	o	n/a
497.3255	0.075	994651	keystroke_n	n	n/a
497.4755	0.105	994951	keystroke_Key.space	Key.space	n/a
497.5355	0.075	995071	keystroke_d	d	n/a
497.6255	0.06	995251	keystroke_o	o	n/a
497.7455	0.06	995491	keystroke_n	n	n/a
498.3455	0.09	996691	keystroke_'	'	n/a
498.6455	0.075	997291	keystroke_t	t	n/a
498.7955	0.075	997591	keystroke_Key.space	Key.space	n/a
499.2155	0.06	998431	keystroke_b	b	n/a
499.3055	0.06	998611	keystroke_r	r	n/a
499.4105	0.06	998821	keystroke_i	i	n/a
499.5305	0.06	999061	keystroke_t	t	n/a
499.6355	0.075	999271	keystroke_i	i	n/a
500.9255	0.075	1001851	keystroke_s	s	n/a
501.0455	0.045	1002091	keystroke_h	h	n/a
501.2255	0.12	1002451	keystroke_Key.space	Key.space	n/a
501.4355	0.015	1002871	keystroke_t	t	n/a
501.9455	0.105	1003891	keystroke_a	a	n/a
502.0655	0.105	1004131	keystroke_r	r	n/a
502.2605	0.075	1004521	keystroke_g	g	n/a
502.4405	0.06	1004881	keystroke_e	e	n/a
502.5905	0.09	1005181	keystroke_s	s	n/a
502.8755	0.015	1005751	keystroke_t	t	n/a
504.1055	0.06	1008211	keystroke_Key.backspace	Key.backspace	n/a
504.2705	0.06	1008541	keystroke_Key.backspace	Key.backspace	n/a
504.6605	0.045	1009321	keystroke_t	t	n/a
504.8405	0.075	1009681	keystroke_s	s	n/a
505.1405	0.03	1010281	keystroke_Key.enter	Key.enter	n/a
505.175	5.892	1010350	prompt	n/a	tissue cold input syracuse\n
505.8905	0.06	1011781	keystroke_t	t	n/a
506.0405	0.06	1012081	keystroke_i	i	n/a
506.1455	0.06	1012291	keystroke_s	s	n/a
506.3105	0.06	1012621	keystroke_s	s	n/a
506.4155	0.09	1012831	keystroke_u	u	n/a
506.5205	0.045	1013041	keystroke_e	e	n/a
506.6705	0.105	1013341	keystroke_Key.space	Key.space	n/a
506.9555	0.061	1013911	keystroke_c	c	n/a
507.0305	0.06	1014061	keystroke_o	o	n/a
507.2105	0.06	1014421	keystroke_l	l	n/a
507.3005	0.09	1014601	keystroke_d	d	n/a
507.3755	0.09	1014751	keystroke_Key.space	Key.space	n/a
507.6605	0.075	1015321	keystroke_i	i	n/a
507.8105	0.06	1015621	keystroke_n	n	n/a
507.9455	0.09	1015891	keystroke_p	p	n/a
508.1705	0.075	1016341	keystroke_u	u	n/a
508.2605	0.06	1016521	keystroke_t	t	n/a
508.3505	0.09	1016701	keystroke_Key.space	Key.space	n/a
508.4855	0.075	1016971	keystroke_s	s	n/a
509.2805	0.09	1018561	keystroke_y	y	n/a
509.5505	0.075	1019101	keystroke_r	r	n/a
509.6855	0.09	1019371	keystroke_a	a	n/a
509.9855	0.06	1019971	keystroke_c	c	n/a
510.0605	0.075	1020121	keystroke_u	u	n/a
510.1955	0.06	1020391	keystroke_s	s	n/a
510.3755	0.06	1020751	keystroke_e	e	n/a
511.0205	0.045	1022041	keystroke_Key.enter	Key.enter	n/a
511.0715	8.9805	1022143	prompt	n/a	choices trustee meters collaboration\n
511.7705	0.03	1023541	keystroke_c	c	n/a
511.8605	0.135	1023721	keystroke_h	h	n/a
511.9655	0.09	1023931	keystroke_o	o	n/a
512.0855	0.09	1024171	keystroke_i	i	n/a
512.2055	0.075	1024411	keystroke_c	c	n/a
512.3705	0.045	1024741	keystroke_e	e	n/a
513.0005	0.06	1026001	keystroke_s	s	n/a
513.1505	0.105	1026301	keystroke_Key.space	Key.space	n/a
513.4655	0.075	1026931	keystroke_t	t	n/a
513.6455	0.045	1027291	keystroke_r	r	n/a
513.9905	0.09	1027981	keystroke_u	u	n/a
514.2605	0.06	1028521	keystroke_s	s	n/a
514.6355	0.06	1029271	keystroke_t	t	n/a
514.8615	0.044	1029723	keystroke_e	e	n/a
515.0555	0.015	1030111	keystroke_e	e	n/a
515.2355	0.09	1030471	keystroke_Key.space	Key.space	n/a
515.3855	0.09	1030771	keystroke_m	m	n/a
515.4905	0.09	1030981	keystroke_e	e	n/a
515.7615	0.074	1031523	keystroke_t	t	n/a
516.1805	0.105	1032361	keystroke_e	e	n/a
516.2705	0.06	1032541	keystroke_r	r	n/a
516.5105	0.045	1033021	keystroke_s	s	n/a
516.7205	0.105	1033441	keystroke_Key.space	Key.space	n/a
516.8705	0.075	1033741	keystroke_c	c	n/a
516.9605	0.06	1033921	keystroke_o	o	n/a
517.1555	0.031	1034311	keystroke_l	l	n/a
517.2605	0.075	1034521	keystroke_l	l	n/a
517.7105	0.075	1035421	keystroke_a	a	n/a
518.5655	0.075	1037131	keystroke_b	b	n/a
518.7155	0.075	1037431	keystroke_o	o	n/a
518.8205	0.06	1037641	keystroke_r	r	n/a
519.0455	0.06	1038091	keystroke_a	a	n/a
519.1805	0.075	1038361	keystroke_t	t	n/a
519.2405	0.121	1038481	keystroke_i	i	n/a
519.3005	0.105	1038601	keystroke_o	o	n/a
519.4505	0.075	1038901	keystroke_n	n	n/a
519.9905	0.06	1039981	keystroke_Key.enter	Key.enter	n/a
520.055	8.4725	1040110	prompt	n/a	gazette inputs that're suburban\n
521.1455	0.06	1042291	keystroke_g	g	n/a
521.2205	0.105	1042441	keystroke_a	a	n/a
521.5655	0.075	1043131	keystroke_z	z	n/a
521.9705	0.075	1043941	keystroke_e	e	n/a
522.1955	0.06	1044391	keystroke_t	t	n/a
522.3615	0.059	1044723	keystroke_t	t	n/a
522.4815	0.059	1044963	keystroke_e	e	n/a
522.8855	0.105	1045771	keystroke_Key.space	Key.space	n/a
523.0655	0.075	1046131	keystroke_i	i	n/a
523.2155	0.105	1046431	keystroke_n	n	n/a
523.3655	0.09	1046731	keystroke_p	p	n/a
523.6505	0.03	1047301	keystroke_u	u	n/a
523.7255	0.06	1047451	keystroke_t	t	n/a
523.9655	0.075	1047931	keystroke_s	s	n/a
524.2655	0.075	1048531	keystroke_Key.space	Key.space	n/a
524.5505	0.06	1049101	keystroke_t	t	n/a
524.6265	0.074	1049253	keystroke_h	h	n/a
524.6865	0.15	1049373	keystroke_a	a	n/a
524.7755	0.075	1049551	keystroke_t	t	n/a
525.2555	0.075	1050511	keystroke_'	'	n/a
525.5405	0.046	1051081	keystroke_r	r	n/a
525.6455	0.06	1051291	keystroke_e	e	n/a
525.8705	0.105	1051741	keystroke_Key.space	Key.space	n/a
526.0655	0.06	1052131	keystroke_s	s	n/a
526.1705	0.061	1052341	keystroke_u	u	n/a
526.32	0.0755	1052640	keystroke_b	b	n/a
527.1005	0.061	1054201	keystroke_u	u	n/a
527.2505	0.046	1054501	keystroke_r	r	n/a
527.6555	0.075	1055311	keystroke_b	b	n/a
527.8205	0.091	1055641	keystroke_a	a	n/a
527.9255	0.046	1055851	keystroke_n	n	n/a
528.451	0.074	1056902	keystroke_Key.enter	Key.enter	n/a
528.53	6.6725	1057060	prompt	n/a	balance eclipse cherry removing\n
529.831	0.045	1059662	keystroke_b	b	n/a
529.95	0.075	1059900	keystroke_a	a	n/a
530.055	0.06	1060110	keystroke_l	l	n/a
530.145	0.091	1060290	keystroke_a	a	n/a
530.64	0.076	1061280	keystroke_n	n	n/a
530.761	0.104	1061522	keystroke_c	c	n/a
530.925	0.061	1061850	keystroke_e	e	n/a
531.015	0.105	1062030	keystroke_Key.space	Key.space	n/a
531.181	0.045	1062362	keystroke_e	e	n/a
531.331	0.105	1062662	keystroke_c	c	n/a
531.871	0.09	1063742	keystroke_l	l	n/a
532.096	0.075	1064192	keystroke_i	i	n/a
532.276	0.06	1064552	keystroke_p	p	n/a
532.411	0.06	1064822	keystroke_s	s	n/a
532.606	0.045	1065212	keystroke_e	e	n/a
532.696	0.09	1065392	keystroke_Key.space	Key.space	n/a
532.951	0.09	1065902	keystroke_c	c	n/a
533.025	0.075	1066050	keystroke_h	h	n/a
533.146	0.075	1066292	keystroke_e	e	n/a
533.386	0.06	1066772	keystroke_r	r	n/a
533.536	0.06	1067072	keystroke_r	r	n/a
533.611	0.06	1067222	keystroke_y	y	n/a
533.791	0.105	1067582	keystroke_Key.space	Key.space	n/a
533.971	0.045	1067942	keystroke_r	r	n/a
534.061	0.09	1068122	keystroke_e	e	n/a
534.166	0.135	1068332	keystroke_m	m	n/a
534.286	0.09	1068572	keystroke_o	o	n/a
534.391	0.06	1068782	keystroke_v	v	n/a
534.481	0.075	1068962	keystroke_i	i	n/a
534.631	0.075	1069262	keystroke_n	n	n/a
534.721	0.06	1069442	keystroke_g	g	n/a
535.126	0.075	1070252	keystroke_Key.enter	Key.enter	n/a
535.205	14.7275	1070410	prompt	n/a	bizrate progress pharmaceutical catalogue\n
536.221	0.06	1072442	keystroke_b	b	n/a
536.551	0.075	1073102	keystroke_i	i	n/a
536.896	0.075	1073792	keystroke_z	z	n/a
537.676	0.06	1075352	keystroke_r	r	n/a
537.916	0.075	1075832	keystroke_a	a	n/a
538.021	0.09	1076042	keystroke_t	t	n/a
538.201	0.0445	1076402	keystroke_e	e	n/a
538.7705	0.105	1077541	keystroke_Key.space	Key.space	n/a
538.9955	0.09	1077991	keystroke_p	p	n/a
539.1005	0.06	1078201	keystroke_r	r	n/a
539.2505	0.06	1078501	keystroke_o	o	n/a
539.4005	0.075	1078801	keystroke_g	g	n/a
539.6405	0.045	1079281	keystroke_r	r	n/a
539.7605	0.075	1079521	keystroke_e	e	n/a
540.3905	0.045	1080781	keystroke_s	s	n/a
540.5255	0.075	1081051	keystroke_s	s	n/a
540.8105	0.06	1081621	keystroke_Key.space	Key.space	n/a
541.1705	0.075	1082341	keystroke_p	p	n/a
541.3655	0.06	1082731	keystroke_h	h	n/a
541.4855	0.075	1082971	keystroke_a	a	n/a
541.7105	0.015	1083421	keystroke_r	r	n/a
542.5055	0.09	1085011	keystroke_m	m	n/a
542.6255	0.075	1085251	keystroke_a	a	n/a
542.9705	0.06	1085941	keystroke_c	c	n/a
543.1955	0.03	1086391	keystroke_e	e	n/a
543.4655	0.06	1086931	keystroke_u	u	n/a
544.3205	0.045	1088641	keystroke_t	t	n/a
544.3955	0.09	1088791	keystroke_i	i	n/a
544.5605	0.075	1089121	keystroke_c	c	n/a
544.7555	0.075	1089511	keystroke_a	a	n/a
544.8455	0.06	1089691	keystroke_l	l	n/a
545.2205	0.075	1090441	keystroke_Key.space	Key.space	n/a
545.6105	0.075	1091221	keystroke_c	c	n/a
545.7905	0.03	1091581	keystroke_a	a	n/a
545.9255	0.06	1091851	keystroke_t	t	n/a
546.0305	0.09	1092061	keystroke_a	a	n/a
546.3605	0.075	1092721	keystroke_l	l	n/a
547.875	0.045	1095750	keystroke_o	o	n/a
548.625	0.105	1097250	keystroke_g	g	n/a
548.745	0.09	1097490	keystroke_u	u	n/a
549.15	0.045	1098300	keystroke_e	e	n/a
549.87	0.06	1099740	keystroke_Key.enter	Key.enter	n/a
549.9355	4.4965	1099871	prompt	n/a	whale grocery dinner east\n
550.77	0.045	1101540	keystroke_w	w	n/a
550.86	0.075	1101720	keystroke_h	h	n/a
550.92	0.105	1101840	keystroke_a	a	n/a
551.415	0.075	1102830	keystroke_l	l	n/a
551.52	0.045	1103040	keystroke_e	e	n/a
551.67	0.09	1103340	keystroke_Key.space	Key.space	n/a
552.045	0.045	1104090	keystroke_g	g	n/a
552.105	0.076	1104210	keystroke_r	r	n/a
552.225	0.06	1104450	keystroke_o	o	n/a
552.331	0.089	1104662	keystroke_c	c	n/a
552.51	0.09	1105020	keystroke_e	e	n/a
552.645	0.045	1105290	keystroke_r	r	n/a
552.72	0.09	1105440	keystroke_y	y	n/a
552.915	0.09	1105830	keystroke_Key.space	Key.space	n/a
553.02	0.045	1106040	keystroke_d	d	n/a
553.095	0.061	1106190	keystroke_i	i	n/a
553.245	0.061	1106490	keystroke_n	n	n/a
553.365	0.075	1106730	keystroke_n	n	n/a
553.425	0.135	1106850	keystroke_e	e	n/a
553.531	0.075	1107062	keystroke_r	r	n/a
553.575	0.09	1107150	keystroke_Key.space	Key.space	n/a
553.681	0.075	1107362	keystroke_e	e	n/a
553.785	0.105	1107570	keystroke_a	a	n/a
553.965	0.105	1107930	keystroke_s	s	n/a
554.175	0.061	1108350	keystroke_t	t	n/a
554.37	0.06	1108740	keystroke_Key.enter	Key.enter	n/a
554.435	6.537	1108870	prompt	n/a	ranges sparc main conservative\n
555.181	0.059	1110362	keystroke_r	r	n/a
555.285	0.09	1110570	keystroke_a	a	n/a
555.406	0.075	1110812	keystroke_n	n	n/a
555.481	0.074	1110962	keystroke_g	g	n/a
555.631	0.059	1111262	keystroke_e	e	n/a
555.781	0.075	1111562	keystroke_s	s	n/a
555.9	0.075	1111800	keystroke_Key.space	Key.space	n/a
556.11	0.06	1112220	keystroke_s	s	n/a
556.185	0.075	1112370	keystroke_p	p	n/a
556.545	0.09	1113090	keystroke_a	a	n/a
556.681	0.075	1113362	keystroke_r	r	n/a
556.965	0.046	1113930	keystroke_c	c	n/a
557.265	0.091	1114530	keystroke_Key.space	Key.space	n/a
557.566	0.104	1115132	keystroke_m	m	n/a
557.626	0.09	1115252	keystroke_a	a	n/a
557.775	0.045	1115550	keystroke_i	i	n/a
557.91	0.046	1115820	keystroke_n	n	n/a
558.256	0.075	1116512	keystroke_Key.space	Key.space	n/a
558.57	0.09	1117140	keystroke_c	c	n/a
558.675	0.076	1117350	keystroke_o	o	n/a
558.781	0.059	1117562	keystroke_n	n	n/a
558.856	0.075	1117712	keystroke_s	s	n/a
559.036	0.12	1118072	keystroke_e	e	n/a
559.126	0.075	1118252	keystroke_r	r	n/a
559.351	0.075	1118702	keystroke_v	v	n/a
559.485	0.106	1118970	keystroke_a	a	n/a
559.651	0.06	1119302	keystroke_t	t	n/a
560.206	0.059	1120412	keystroke_i	i	n/a
560.341	0.045	1120682	keystroke_v	v	n/a
560.536	0.03	1121072	keystroke_e	e	n/a
560.911	0.059	1121822	keystroke_Key.enter	Key.enter	n/a
560.9765	9.9555	1121953	prompt	n/a	trees what're collectible deluxe\n
561.766	0.06	1123532	keystroke_t	t	n/a
561.931	0.075	1123862	keystroke_r	r	n/a
562.036	0.075	1124072	keystroke_e	e	n/a
562.201	0.075	1124402	keystroke_e	e	n/a
562.381	0.059	1124762	keystroke_s	s	n/a
562.575	0.091	1125150	keystroke_Key.space	Key.space	n/a
562.786	0.074	1125572	keystroke_w	w	n/a
562.921	0.06	1125842	keystroke_h	h	n/a
562.996	0.075	1125992	keystroke_a	a	n/a
563.116	0.09	1126232	keystroke_t	t	n/a
563.716	0.075	1127432	keystroke_'	'	n/a
563.956	0.09	1127912	keystroke_r	r	n/a
564.646	0.075	1129292	keystroke_e	e	n/a
564.841	0.075	1129682	keystroke_Key.space	Key.space	n/a
565.171	0.045	1130342	keystroke_c	c	n/a
565.261	0.045	1130522	keystroke_o	o	n/a
565.456	0.075	1130912	keystroke_l	l	n/a
565.576	0.075	1131152	keystroke_l	l	n/a
565.621	0.075	1131242	keystroke_e	e	n/a
565.801	0.075	1131602	keystroke_c	c	n/a
566.161	0.075	1132322	keystroke_t	t	n/a
566.386	0.075	1132772	keystroke_i	i	n/a
566.566	0.045	1133132	keystroke_b	b	n/a
566.746	0.06	1133492	keystroke_l	l	n/a
566.836	0.045	1133672	keystroke_e	e	n/a
566.911	0.075	1133822	keystroke_Key.space	Key.space	n/a
567.076	0.06	1134152	keystroke_d	d	n/a
567.226	0.06	1134452	keystroke_e	e	n/a
568.516	0.06	1137032	keystroke_l	l	n/a
569.071	0.045	1138142	keystroke_u	u	n/a
569.161	0.06	1138322	keystroke_v	v	n/a
569.596	0.09	1139192	keystroke_Key.backspace	Key.backspace	n/a
569.701	0.09	1139402	keystroke_x	x	n/a
569.986	0.045	1139972	keystroke_e	e	n/a
570.841	0.09	1141682	keystroke_Key.enter	Key.enter	n/a
570.935	11.442	1141870	prompt	n/a	architectural bedding karl makers\n
571.711	0.075	1143422	keystroke_a	a	n/a
571.861	0.075	1143722	keystroke_r	r	n/a
572.746	0.045	1145492	keystroke_c	c	n/a
572.836	0.135	1145672	keystroke_h	h	n/a
572.956	0.09	1145912	keystroke_i	i	n/a
574.186	0.015	1148372	keystroke_t	t	n/a
574.366	0.06	1148732	keystroke_e	e	n/a
574.546	0.045	1149092	keystroke_c	c	n/a
575.041	0.06	1150082	keystroke_t	t	n/a
575.146	0.075	1150292	keystroke_u	u	n/a
575.761	0.03	1151522	keystroke_r	r	n/a
575.851	0.105	1151702	keystroke_a	a	n/a
575.971	0.075	1151942	keystroke_l	l	n/a
576.2405	0.06	1152481	keystroke_Key.space	Key.space	n/a
576.4655	0.045	1152931	keystroke_b	b	n/a
576.5555	0.06	1153111	keystroke_e	e	n/a
576.7055	0.046	1153411	keystroke_e	e	n/a
577.1405	0.06	1154281	keystroke_Key.backspace	Key.backspace	n/a
577.2455	0.045	1154491	keystroke_d	d	n/a
577.4705	0.015	1154941	keystroke_d	d	n/a
577.8455	0.075	1155691	keystroke_i	i	n/a
578.0255	0.06	1156051	keystroke_n	n	n/a
578.1155	0.075	1156231	keystroke_g	g	n/a
578.2055	0.06	1156411	keystroke_Key.space	Key.space	n/a
578.4155	0.075	1156831	keystroke_k	k	n/a
578.5955	0.075	1157191	keystroke_a	a	n/a
579.8555	0.0595	1159711	keystroke_r	r	n/a
579.9605	0.0745	1159921	keystroke_l	l	n/a
580.635	0.045	1161270	keystroke_Key.space	Key.space	n/a
580.845	0.045	1161690	keystroke_m	m	n/a
580.951	0.089	1161902	keystroke_a	a	n/a
581.085	0.045	1162170	keystroke_k	k	n/a
581.235	0.12	1162470	keystroke_e	e	n/a
581.325	0.09	1162650	keystroke_r	r	n/a
582.075	0.045	1164150	keystroke_s	s	n/a
582.33	0.045	1164660	keystroke_Key.enter	Key.enter	n/a
582.38	7.1675	1164760	prompt	n/a	copy lesbians sheet poly\n
583.26	0.06	1166520	keystroke_c	c	n/a
583.381	0.165	1166762	keystroke_o	o	n/a
583.53	0.075	1167060	keystroke_p	p	n/a
583.9345	0.045	1167869	keystroke_y	y	n/a
584.385	0.091	1168770	keystroke_Key.space	Key.space	n/a
584.565	0.075	1169130	keystroke_l	l	n/a
584.686	0.045	1169372	keystroke_e	e	n/a
584.865	0.061	1169730	keystroke_s	s	n/a
585.015	0.076	1170030	keystroke_b	b	n/a
585.21	0.0905	1170420	keystroke_i	i	n/a
585.9005	0.089	1171801	keystroke_a	a	n/a
586.0205	0.059	1172041	keystroke_n	n	n/a
586.1095	0.075	1172219	keystroke_s	s	n/a
586.4095	0.045	1172819	keystroke_Key.space	Key.space	n/a
586.5755	0.075	1173151	keystroke_s	s	n/a
586.6655	0.06	1173331	keystroke_h	h	n/a
586.8005	0.03	1173601	keystroke_e	e	n/a
586.9945	0.031	1173989	keystroke_e	e	n/a
587.2195	0.045	1174439	keystroke_t	t	n/a
587.4595	0.105	1174919	keystroke_Key.space	Key.space	n/a
587.6555	0.075	1175311	keystroke_p	p	n/a
587.9255	0.059	1175851	keystroke_o	o	n/a
588.1205	0.06	1176241	keystroke_l	l	n/a
588.3755	0.029	1176751	keystroke_y	y	n/a
589.4695	0.075	1178939	keystroke_Key.enter	Key.enter	n/a
589.5505	9.6565	1179101	prompt	n/a	outlined ease communities warranty\n
590.3855	0.06	1180771	keystroke_o	o	n/a
590.8505	0.06	1181701	keystroke_u	u	n/a
590.9855	0.03	1181971	keystroke_t	t	n/a
591.8105	0.075	1183621	keystroke_l	l	n/a
591.9895	0.061	1183979	keystroke_i	i	n/a
592.1555	0.06	1184311	keystroke_n	n	n/a
592.2605	0.06	1184521	keystroke_e	e	n/a
592.4555	0.03	1184911	keystroke_d	d	n/a
592.9355	0.104	1185871	keystroke_Key.space	Key.space	n/a
593.1155	0.09	1186231	keystroke_e	e	n/a
593.2955	0.09	1186591	keystroke_a	a	n/a
593.4455	0.09	1186891	keystroke_s	s	n/a
593.6405	0.045	1187281	keystroke_e	e	n/a
595.0205	0.135	1190041	keystroke_Key.space	Key.space	n/a
595.2905	0.09	1190581	keystroke_c	c	n/a
595.3955	0.075	1190791	keystroke_o	o	n/a
595.6205	0.03	1191241	keystroke_m	m	n/a
595.7705	0.075	1191541	keystroke_m	m	n/a
595.9955	0.045	1191991	keystroke_u	u	n/a
596.1305	0.135	1192261	keystroke_n	n	n/a
596.3105	0.075	1192621	keystroke_i	i	n/a
596.5355	0.06	1193071	keystroke_t	t	n/a
596.6255	0.06	1193251	keystroke_i	i	n/a
597.0305	0.06	1194061	keystroke_e	e	n/a
597.1805	0.075	1194361	keystroke_s	s	n/a
597.3455	0.105	1194691	keystroke_Key.space	Key.space	n/a
597.5555	0.09	1195111	keystroke_w	w	n/a
597.6905	0.105	1195381	keystroke_a	a	n/a
597.8855	0.045	1195771	keystroke_r	r	n/a
598.0055	0.06	1196011	keystroke_r	r	n/a
598.1405	0.09	1196281	keystroke_a	a	n/a
598.2455	0.075	1196491	keystroke_n	n	n/a
598.4105	0.06	1196821	keystroke_t	t	n/a
598.5305	0.075	1197061	keystroke_y	y	n/a
599.1455	0.06	1198291	keystroke_Key.enter	Key.enter	n/a
599.2105	19.376	1198421	prompt	n/a	literature sally preliminary promote\n
600.1355	0.075	1200271	keystroke_l	l	n/a
600.3005	0.045	1200601	keystroke_i	i	n/a
600.5255	0.075	1201051	keystroke_t	t	n/a
600.7355	0.105	1201471	keystroke_e	e	n/a
