onset	duration	sample	value	key	prompt_text
38.7815	0.1005	77563	keystroke_j	j	n/a
38.972	0.0795	77944	keystroke_s	s	n/a
39.119	0.0895	78238	keystroke_e	e	n/a
39.2985	0.0685	78597	keystroke_e	e	n/a
39.3775	0.1685	78755	keystroke_l	l	n/a
39.4445	0.1125	78889	keystroke_y	y	n/a
39.569	0.1235	79138	keystroke_Key.tab	Key.tab	n/a
40.052	0.1015	80104	keystroke_Key.down	Key.down	n/a
40.2545	0.0675	80509	keystroke_Key.down	Key.down	n/a
40.627	0.0775	81254	keystroke_Key.down	Key.down	n/a
40.874	0.056	81748	keystroke_Key.enter	Key.enter	n/a
41.268	0.112	82536	keystroke_Key.tab	Key.tab	n/a
41.9765	0.1455	83953	keystroke_Key.right	Key.right	n/a
43.2035	0.078	86407	keystroke_n	n	n/a
43.4275	0.1245	86855	keystroke_Key.left	Key.left	n/a
64.251	0.1695	128502	keystroke_Key.space	Key.space	n/a
65.4105	0.3035	130821	keystroke_Key.ctrl	Key.ctrl	n/a
65.478	0.146	130956	keystroke_Key.tab	Key.tab	n/a
68.0435	0.292	136087	keystroke_Key.cmd	Key.cmd	n/a
68.133	0.124	136266	keystroke_1	1	n/a
75.086	0.1795	150172	keystroke_Key.ctrl	Key.ctrl	n/a
75.198	0.056	150396	keystroke_Key.tab	Key.tab	n/a
76.281	0.481	152562	keystroke_Key.cmd	Key.cmd	n/a
76.604	0.1465	153208	keystroke_w	w	n/a
104.832	0.168	209664	keystroke_w	w	n/a
106.17	0.1795	212340	keystroke_Key.right	Key.right	n/a
109.039	0.1345	218078	keystroke_Key.left	Key.left	n/a
113.1	0.101	226200	keystroke_Key.tab	Key.tab	n/a
113.3135	0.124	226627	keystroke_Key.tab	Key.tab	n/a
122.3135	0.417	244627	keystroke_Key.alt	Key.alt	n/a
122.4375	0.18	244875	keystroke_Key.right	Key.right	n/a
125.182	0.24	250364	keystroke_Key.cmd	Key.cmd	n/a
125.272	0.1275	250544	keystroke_Key.space	Key.space	n/a
140.1115	0.101	280223	keystroke_j	j	n/a
140.2465	0.0895	280493	keystroke_s	s	n/a
140.482	0.0675	280964	keystroke_e	e	n/a
140.6625	0.0445	281325	keystroke_e	e	n/a
140.7415	0.1125	281483	keystroke_l	l	n/a
140.809	0.0895	281618	keystroke_y	y	n/a
141.022	0.08	282044	keystroke_Key.enter	Key.enter	n/a
145.005	0.067	290010	keystroke_c	c	n/a
145.23	0.1235	290460	keystroke_c	c	n/a
145.4665	0.112	290933	keystroke_c	c	n/a
147.3445	0.1125	294689	keystroke_Key.esc	Key.esc	n/a
148.886	0.1235	297772	keystroke_Key.right	Key.right	n/a
150.686	0.226	301372	keystroke_Key.cmd	Key.cmd	n/a
150.787	0.1015	301574	keystroke_v	v	n/a
166.2695	8.021	332539	prompt	n/a	the quick brown fox jumps over a lazy dog\n
168.27	0.1125	336540	keystroke_t	t	n/a
168.4385	0.1015	336877	keystroke_h	h	n/a
168.54	0.1685	337080	keystroke_e	e	n/a
168.844	0.158	337688	keystroke_Key.space	Key.space	n/a
169.1025	0.1015	338205	keystroke_q	q	n/a
169.2715	0.1345	338543	keystroke_u	u	n/a
169.361	0.124	338722	keystroke_i	i	n/a
169.53	0.101	339060	keystroke_c	c	n/a
169.6425	0.1575	339285	keystroke_k	k	n/a
169.7435	0.124	339487	keystroke_Key.space	Key.space	n/a
169.8785	0.0905	339757	keystroke_b	b	n/a
170.104	0.1125	340208	keystroke_r	r	n/a
170.205	0.135	340410	keystroke_o	o	n/a
170.3515	0.112	340703	keystroke_w	w	n/a
170.51	0.145	341020	keystroke_n	n	n/a
170.577	0.1345	341154	keystroke_Key.space	Key.space	n/a
170.756	0.045	341512	keystroke_f	f	n/a
170.8135	0.1	341627	keystroke_o	o	n/a
171.116	0.09	342232	keystroke_x	x	n/a
171.2625	0.135	342525	keystroke_Key.space	Key.space	n/a
171.566	0.102	343132	keystroke_j	j	n/a
171.746	0.09	343492	keystroke_u	u	n/a
171.96	0.1235	343920	keystroke_m	m	n/a
172.061	0.1355	344122	keystroke_p	p	n/a
172.1735	0.0905	344347	keystroke_s	s	n/a
172.264	0.1685	344528	keystroke_Key.space	Key.space	n/a
172.3985	0.1125	344797	keystroke_o	o	n/a
172.5	0.0785	345000	keystroke_v	v	n/a
172.6915	0.102	345383	keystroke_e	e	n/a
172.748	0.123	345496	keystroke_r	r	n/a
172.8485	0.1015	345697	keystroke_Key.space	Key.space	n/a
172.9835	0.1015	345967	keystroke_a	a	n/a
173.063	0.1345	346126	keystroke_Key.space	Key.space	n/a
173.175	0.1125	346350	keystroke_l	l	n/a
173.2435	0.1	346487	keystroke_a	a	n/a
173.479	0.146	346958	keystroke_z	z	n/a
173.614	0.113	347228	keystroke_y	y	n/a
173.67	0.101	347340	keystroke_Key.space	Key.space	n/a
173.76	0.1015	347520	keystroke_d	d	n/a
173.8615	0.1125	347723	keystroke_o	o	n/a
173.9965	0.1135	347993	keystroke_g	g	n/a
174.1875	0.101	348375	keystroke_Key.enter	Key.enter	n/a
174.294	3.867	348588	prompt	n/a	counts seal onto aspects\n
175.0765	0.1125	350153	keystroke_c	c	n/a
175.1665	0.135	350333	keystroke_o	o	n/a
175.234	0.09	350468	keystroke_u	u	n/a
175.436	0.079	350872	keystroke_n	n	n/a
175.5265	0.135	351053	keystroke_t	t	n/a
175.605	0.113	351210	keystroke_s	s	n/a
175.7065	0.146	351413	keystroke_Key.space	Key.space	n/a
175.91	0.1335	351820	keystroke_s	s	n/a
176.033	0.202	352066	keystroke_e	e	n/a
176.179	0.1235	352358	keystroke_a	a	n/a
176.28	0.113	352560	keystroke_l	l	n/a
176.3595	0.123	352719	keystroke_Key.space	Key.space	n/a
176.5275	0.146	353055	keystroke_o	o	n/a
176.6175	0.1125	353235	keystroke_n	n	n/a
176.7635	0.08	353527	keystroke_t	t	n/a
176.831	0.135	353662	keystroke_o	o	n/a
176.921	0.147	353842	keystroke_Key.space	Key.space	n/a
177.034	0.157	354068	keystroke_a	a	n/a
177.1355	0.112	354271	keystroke_s	s	n/a
177.3035	0.135	354607	keystroke_p	p	n/a
177.383	0.112	354766	keystroke_e	e	n/a
177.619	0.0905	355238	keystroke_c	c	n/a
177.8325	0.113	355665	keystroke_t	t	n/a
177.9	0.113	355800	keystroke_s	s	n/a
178.058	0.102	356116	keystroke_Key.enter	Key.enter	n/a
178.1645	3.6405	356329	prompt	n/a	filled angels hold david\n
178.7885	0.1015	357577	keystroke_f	f	n/a
178.901	0.159	357802	keystroke_i	i	n/a
179.0025	0.101	358005	keystroke_l	l	n/a
179.306	0.0225	358612	keystroke_l	l	n/a
179.3175	0.0675	358635	keystroke_e	e	n/a
179.5095	0.0665	359019	keystroke_d	d	n/a
179.6325	0.079	359265	keystroke_Key.space	Key.space	n/a
179.7	0.1235	359400	keystroke_a	a	n/a
179.835	0.1015	359670	keystroke_n	n	n/a
179.9365	0.067	359873	keystroke_g	g	n/a
180.0715	0.079	360143	keystroke_e	e	n/a
180.1505	0.1125	360301	keystroke_l	l	n/a
180.2735	0.104	360547	keystroke_s	s	n/a
180.3635	0.113	360727	keystroke_Key.space	Key.space	n/a
180.42	0.135	360840	keystroke_h	h	n/a
180.51	0.1015	361020	keystroke_o	o	n/a
180.735	0.079	361470	keystroke_l	l	n/a
180.8135	0.1015	361627	keystroke_d	d	n/a
180.9375	0.146	361875	keystroke_Key.space	Key.space	n/a
181.05	0.135	362100	keystroke_d	d	n/a
181.2075	0.1235	362415	keystroke_a	a	n/a
181.3095	0.1005	362619	keystroke_v	v	n/a
181.4325	0.1125	362865	keystroke_i	i	n/a
181.556	0.0905	363112	keystroke_d	d	n/a
181.7025	0.1015	363405	keystroke_Key.enter	Key.enter	n/a
181.8085	6.6905	363617	prompt	n/a	christopher trackback dreams reliable\n
182.727	0.078	365454	keystroke_c	c	n/a
183.0645	0.0675	366129	keystroke_r	r	n/a
183.143	0.123	366286	keystroke_i	i	n/a
183.3225	0.1125	366645	keystroke_s	s	n/a
183.4915	0.146	366983	keystroke_o	o	n/a
183.953	0.0785	367906	keystroke_Key.backspace	Key.backspace	n/a
184.144	0.09	368288	keystroke_t	t	n/a
184.324	0.09	368648	keystroke_o	o	n/a
184.526	0.158	369052	keystroke_p	p	n/a
184.6275	0.1465	369255	keystroke_h	h	n/a
184.785	0.135	369570	keystroke_e	e	n/a
184.898	0.067	369796	keystroke_r	r	n/a
184.9535	0.169	369907	keystroke_Key.space	Key.space	n/a
185.111	0.1015	370222	keystroke_t	t	n/a
185.3135	0.1125	370627	keystroke_r	r	n/a
185.4035	0.079	370807	keystroke_a	a	n/a
185.5725	0.09	371145	keystroke_c	c	n/a
185.64	0.136	371280	keystroke_k	k	n/a
185.82	0.1235	371640	keystroke_b	b	n/a
185.955	0.101	371910	keystroke_a	a	n/a
186.1235	0.09	372247	keystroke_c	c	n/a
186.226	0.145	372452	keystroke_k	k	n/a
186.3155	0.1795	372631	keystroke_Key.space	Key.space	n/a
186.484	0.112	372968	keystroke_d	d	n/a
186.6865	0.1805	373373	keystroke_r	r	n/a
186.788	0.135	373576	keystroke_e	e	n/a
186.878	0.1235	373756	keystroke_a	a	n/a
186.9785	0.1125	373957	keystroke_m	m	n/a
187.1025	0.101	374205	keystroke_s	s	n/a
187.215	0.1355	374430	keystroke_Key.space	Key.space	n/a
187.361	0.135	374722	keystroke_r	r	n/a
187.4515	0.1015	374903	keystroke_e	e	n/a
187.609	0.1915	375218	keystroke_l	l	n/a
187.71	0.1125	375420	keystroke_i	i	n/a
187.834	0.079	375668	keystroke_a	a	n/a
187.969	0.112	375938	keystroke_b	b	n/a
188.1155	0.1005	376231	keystroke_l	l	n/a
188.228	0.078	376456	keystroke_e	e	n/a
188.396	0.102	376792	keystroke_Key.enter	Key.enter	n/a
188.503	5.587	377006	prompt	n/a	gone letting inappropriate virtue\n
189.296	0.09	378592	keystroke_g	g	n/a
189.3635	0.1245	378727	keystroke_o	o	n/a
189.443	0.0895	378886	keystroke_n	n	n/a
189.5435	0.0795	379087	keystroke_e	e	n/a
189.623	0.1575	379246	keystroke_Key.space	Key.space	n/a
189.8135	0.135	379627	keystroke_l	l	n/a
189.893	0.135	379786	keystroke_e	e	n/a
189.9935	0.09	379987	keystroke_t	t	n/a
190.1965	0.0795	380393	keystroke_t	t	n/a
190.2975	0.1465	380595	keystroke_i	i	n/a
190.3875	0.09	380775	keystroke_n	n	n/a
190.4325	0.101	380865	keystroke_g	g	n/a
190.5115	0.148	381023	keystroke_Key.space	Key.space	n/a
190.613	0.123	381226	keystroke_i	i	n/a
190.6685	0.1255	381337	keystroke_n	n	n/a
190.7815	0.124	381563	keystroke_a	a	n/a
190.9385	0.09	381877	keystroke_p	p	n/a
191.1305	0.0785	382261	keystroke_p	p	n/a
191.2765	0.079	382553	keystroke_r	r	n/a
191.355	0.1355	382710	keystroke_o	o	n/a
191.6365	0.1235	383273	keystroke_p	p	n/a
191.771	0.124	383542	keystroke_r	r	n/a
191.9175	0.125	383835	keystroke_i	i	n/a
192.3905	0.112	384781	keystroke_a	a	n/a
192.5365	0.1685	385073	keystroke_t	t	n/a
192.6485	0.1015	385297	keystroke_e	e	n/a
192.796	0.1115	385592	keystroke_Key.space	Key.space	n/a
193.0315	0.101	386063	keystroke_v	v	n/a
193.1665	0.1125	386333	keystroke_i	i	n/a
193.29	0.09	386580	keystroke_r	r	n/a
193.47	0.124	386940	keystroke_t	t	n/a
193.639	0.091	387278	keystroke_u	u	n/a
193.8075	0.102	387615	keystroke_e	e	n/a
193.9765	0.1125	387953	keystroke_Key.enter	Key.enter	n/a
194.094	6.2285	388188	prompt	n/a	barbie service addition connecting\n
194.877	0.1005	389754	keystroke_b	b	n/a
195.09	0.102	390180	keystroke_a	a	n/a
195.1585	0.1115	390317	keystroke_r	r	n/a
195.4165	0.1345	390833	keystroke_b	b	n/a
195.5735	0.107	391147	keystroke_i	i	n/a
195.6975	0.0675	391395	keystroke_e	e	n/a
195.81	0.1245	391620	keystroke_Key.space	Key.space	n/a
195.945	0.169	391890	keystroke_s	s	n/a
196.035	0.1125	392070	keystroke_e	e	n/a
196.126	0.101	392252	keystroke_r	r	n/a
196.384	0.1235	392768	keystroke_v	v	n/a
196.733	0.112	393466	keystroke_i	i	n/a
196.8675	0.1015	393735	keystroke_c	c	n/a
197.16	0.057	394320	keystroke_e	e	n/a
197.284	0.135	394568	keystroke_Key.space	Key.space	n/a
197.396	0.1245	394792	keystroke_a	a	n/a
197.521	0.089	395042	keystroke_d	d	n/a
197.7115	0.101	395423	keystroke_d	d	n/a
197.903	0.1235	395806	keystroke_i	i	n/a
198.071	0.079	396142	keystroke_t	t	n/a
198.24	0.214	396480	keystroke_i	i	n/a
198.32	0.1565	396640	keystroke_o	o	n/a
198.387	0.134	396774	keystroke_n	n	n/a
198.4875	0.1125	396975	keystroke_Key.space	Key.space	n/a
199.005	0.0675	398010	keystroke_c	c	n/a
199.084	0.101	398168	keystroke_o	o	n/a
199.1625	0.0675	398325	keystroke_n	n	n/a
199.3315	0.0675	398663	keystroke_n	n	n/a
199.41	0.09	398820	keystroke_e	e	n/a
199.6245	0.0895	399249	keystroke_c	c	n/a
199.815	0.079	399630	keystroke_t	t	n/a
199.939	0.113	399878	keystroke_i	i	n/a
200.0065	0.1025	400013	keystroke_n	n	n/a
200.1195	0.078	400239	keystroke_g	g	n/a
200.243	0.078	400486	keystroke_Key.enter	Key.enter	n/a
200.3295	4.6175	400659	prompt	n/a	hotels collapse classical complex\n
201.064	0.101	402128	keystroke_h	h	n/a
201.154	0.09	402308	keystroke_o	o	n/a
201.2325	0.135	402465	keystroke_t	t	n/a
201.3225	0.1015	402645	keystroke_e	e	n/a
201.4585	0.1005	402917	keystroke_l	l	n/a
201.57	0.09	403140	keystroke_s	s	n/a
201.672	0.101	403344	keystroke_Key.space	Key.space	n/a
201.8065	0.0785	403613	keystroke_c	c	n/a
201.874	0.0785	403748	keystroke_o	o	n/a
202.0765	0.056	404153	keystroke_l	l	n/a
202.2225	0.079	404445	keystroke_l	l	n/a
202.335	0.1015	404670	keystroke_a	a	n/a
202.4255	0.146	404851	keystroke_p	p	n/a
202.5825	0.09	405165	keystroke_s	s	n/a
202.6275	0.068	405255	keystroke_e	e	n/a
202.7065	0.1365	405413	keystroke_Key.space	Key.space	n/a
202.864	0.09	405728	keystroke_c	c	n/a
202.9765	0.1125	405953	keystroke_l	l	n/a
203.078	0.0895	406156	keystroke_a	a	n/a
203.1115	0.1015	406223	keystroke_s	s	n/a
203.3025	0.079	406605	keystroke_s	s	n/a
203.4045	0.0895	406809	keystroke_i	i	n/a
203.5055	0.1235	407011	keystroke_c	c	n/a
203.6625	0.09	407325	keystroke_a	a	n/a
203.719	0.135	407438	keystroke_l	l	n/a
203.843	0.112	407686	keystroke_Key.space	Key.space	n/a
203.978	0.0785	407956	keystroke_c	c	n/a
204.046	0.2135	408092	keystroke_o	o	n/a
204.159	0.1115	408318	keystroke_m	m	n/a
204.203	0.135	408406	keystroke_p	p	n/a
204.45	0.113	408900	keystroke_l	l	n/a
204.54	0.079	409080	keystroke_e	e	n/a
204.743	0.09	409486	keystroke_x	x	n/a
204.855	0.0905	409710	keystroke_Key.enter	Key.enter	n/a
204.9515	5.5975	409903	prompt	n/a	indiana losing macromedia winds\n
205.599	0.1225	411198	keystroke_i	i	n/a
205.654	0.1235	411308	keystroke_n	n	n/a
205.7665	0.079	411533	keystroke_d	d	n/a
205.879	0.09	411758	keystroke_i	i	n/a
205.992	0.0895	411984	keystroke_a	a	n/a
206.104	0.1125	412208	keystroke_n	n	n/a
206.194	0.09	412388	keystroke_i	i	n/a
206.633	0.056	413266	keystroke_Key.backspace	Key.backspace	n/a
206.8015	0.0905	413603	keystroke_a	a	n/a
206.903	0.1345	413806	keystroke_Key.space	Key.space	n/a
207.083	0.0675	414166	keystroke_l	l	n/a
207.2755	0.0775	414551	keystroke_o	o	n/a
207.3865	0.09	414773	keystroke_s	s	n/a
207.488	0.101	414976	keystroke_i	i	n/a
207.5555	0.0895	415111	keystroke_n	n	n/a
207.634	0.084	415268	keystroke_g	g	n/a
207.6985	0.127	415397	keystroke_Key.space	Key.space	n/a
207.781	0.112	415562	keystroke_m	m	n/a
207.8705	0.0785	415741	keystroke_a	a	n/a
208.028	0.09	416056	keystroke_c	c	n/a
208.2095	0.0545	416419	keystroke_r	r	n/a
208.309	0.079	416618	keystroke_o	o	n/a
208.467	0.1235	416934	keystroke_m	m	n/a
208.5565	0.09	417113	keystroke_e	e	n/a
208.7595	0.067	417519	keystroke_d	d	n/a
208.849	0.09	417698	keystroke_i	i	n/a
208.9505	0.112	417901	keystroke_a	a	n/a
209.0855	0.1125	418171	keystroke_Key.space	Key.space	n/a
209.2765	0.1125	418553	keystroke_i	i	n/a
209.6365	0.09	419273	keystroke_Key.backspace	Key.backspace	n/a
209.794	0.1015	419588	keystroke_w	w	n/a
209.9065	0.136	419813	keystroke_i	i	n/a
209.9965	0.113	419993	keystroke_n	n	n/a
210.076	0.1005	420152	keystroke_d	d	n/a
210.278	0.114	420556	keystroke_s	s	n/a
210.4355	0.112	420871	keystroke_Key.enter	Key.enter	n/a
210.5545	4.4955	421109	prompt	n/a	farmers environment stuffed charms\n
211.2115	0.068	422423	keystroke_f	f	n/a
211.3465	0.124	422693	keystroke_a	a	n/a
211.4285	0.0985	422857	keystroke_r	r	n/a
211.561	0.0895	423122	keystroke_m	m	n/a
211.6505	0.09	423301	keystroke_e	e	n/a
211.6995	0.1645	423399	keystroke_r	r	n/a
211.8085	0.112	423617	keystroke_s	s	n/a
211.9435	0.089	423887	keystroke_Key.space	Key.space	n/a
212.044	0.09	424088	keystroke_e	e	n/a
212.1455	0.09	424291	keystroke_n	n	n/a
212.269	0.1015	424538	keystroke_v	v	n/a
212.359	0.1125	424718	keystroke_i	i	n/a
212.5165	0.09	425033	keystroke_r	r	n/a
212.584	0.1125	425168	keystroke_o	o	n/a
212.663	0.101	425326	keystroke_n	n	n/a
212.866	0.09	425732	keystroke_m	m	n/a
212.9785	0.0895	425957	keystroke_e	e	n/a
213.079	0.0795	426158	keystroke_n	n	n/a
213.169	0.1015	426338	keystroke_t	t	n/a
213.293	0.112	426586	keystroke_Key.space	Key.space	n/a
213.3605	0.1125	426721	keystroke_s	s	n/a
213.4505	0.067	426901	keystroke_t	t	n/a
213.5515	0.0675	427103	keystroke_u	u	n/a
213.6305	0.0835	427261	keystroke_f	f	n/a
213.833	0.0905	427666	keystroke_f	f	n/a
213.901	0.0785	427802	keystroke_e	e	n/a
214.093	0.066	428186	keystroke_d	d	n/a
214.2155	0.101	428431	keystroke_Key.space	Key.space	n/a
214.3055	0.09	428611	keystroke_c	c	n/a
214.4065	0.102	428813	keystroke_h	h	n/a
214.497	0.123	428994	keystroke_a	a	n/a
214.5755	0.1235	429151	keystroke_r	r	n/a
214.6875	0.09	429375	keystroke_m	m	n/a
214.778	0.101	429556	keystroke_s	s	n/a
214.9585	0.0895	429917	keystroke_Key.enter	Key.enter	n/a
215.0535	5.5985	430107	prompt	n/a	shield determination vacation amsterdam\n
215.7235	0.1015	431447	keystroke_s	s	n/a
215.869	0.0675	431738	keystroke_h	h	n/a
216.0155	0.101	432031	keystroke_i	i	n/a
216.1275	0.09	432255	keystroke_e	e	n/a
216.2515	0.1015	432503	keystroke_l	l	n/a
216.342	0.067	432684	keystroke_d	d	n/a
216.454	0.1235	432908	keystroke_Key.space	Key.space	n/a
216.544	0.0565	433088	keystroke_d	d	n/a
216.7015	0.101	433403	keystroke_e	e	n/a
216.7805	0.09	433561	keystroke_t	t	n/a
216.949	0.1015	433898	keystroke_e	e	n/a
217.0165	0.09	434033	keystroke_r	r	n/a
217.096	0.0665	434192	keystroke_m	m	n/a
217.2305	0.1575	434461	keystroke_i	i	n/a
217.354	0.1125	434708	keystroke_n	n	n/a
217.5005	0.1125	435001	keystroke_a	a	n/a
217.579	0.1015	435158	keystroke_t	t	n/a
217.701	0.182	435402	keystroke_i	i	n/a
217.8155	0.056	435631	keystroke_o	o	n/a
217.8375	0.1465	435675	keystroke_n	n	n/a
217.9165	0.135	435833	keystroke_Key.space	Key.space	n/a
218.029	0.1015	436058	keystroke_v	v	n/a
218.153	0.1125	436306	keystroke_a	a	n/a
218.344	0.124	436688	keystroke_c	c	n/a
218.5355	0.1465	437071	keystroke_a	a	n/a
218.648	0.1235	437296	keystroke_t	t	n/a
218.783	0.192	437566	keystroke_i	i	n/a
218.862	0.1005	437724	keystroke_o	o	n/a
218.918	0.1345	437836	keystroke_n	n	n/a
218.997	0.1005	437994	keystroke_Key.space	Key.space	n/a
219.109	0.101	438218	keystroke_a	a	n/a
219.2215	0.1015	438443	keystroke_m	m	n/a
219.3345	0.1345	438669	keystroke_s	s	n/a
219.4355	0.1015	438871	keystroke_t	t	n/a
219.5825	0.123	439165	keystroke_e	e	n/a
219.6605	0.135	439321	keystroke_r	r	n/a
219.897	0.146	439794	keystroke_d	d	n/a
220.0315	0.124	440063	keystroke_a	a	n/a
220.2265	0.1035	440453	keystroke_m	m	n/a
220.549	0.1015	441098	keystroke_Key.enter	Key.enter	n/a
220.6555	5.97	441311	prompt	n/a	oracle bowl ebooks keyword\n
221.3255	0.101	442651	keystroke_o	o	n/a
221.404	0.147	442808	keystroke_r	r	n/a
221.551	0.1005	443102	keystroke_a	a	n/a
221.7645	0.079	443529	keystroke_c	c	n/a
221.877	0.102	443754	keystroke_l	l	n/a
221.989	0.0795	443978	keystroke_e	e	n/a
222.136	0.112	444272	keystroke_Key.space	Key.space	n/a
222.259	0.09	444518	keystroke_b	b	n/a
222.3715	0.1015	444743	keystroke_o	o	n/a
222.5065	0.0795	445013	keystroke_w	w	n/a
222.6085	0.135	445217	keystroke_l	l	n/a
222.664	0.1465	445328	keystroke_Key.space	Key.space	n/a
222.8215	0.1015	445643	keystroke_e	e	n/a
223.0695	0.0785	446139	keystroke_b	b	n/a
223.159	0.0675	446318	keystroke_o	o	n/a
223.3285	0.135	446657	keystroke_o	o	n/a
223.418	0.09	446836	keystroke_i	i	n/a
223.5415	0.0565	447083	keystroke_s	s	n/a
224.0935	0.078	448187	keystroke_Key.backspace	Key.backspace	n/a
224.2955	0.0785	448591	keystroke_Key.backspace	Key.backspace	n/a
224.858	0.0785	449716	keystroke_k	k	n/a
225.1615	0.068	450323	keystroke_s	s	n/a
225.443	0.045	450886	keystroke_Key.space	Key.space	n/a
225.499	0.1015	450998	keystroke_k	k	n/a
225.747	0.0675	451494	keystroke_e	e	n/a
225.8365	0.079	451673	keystroke_y	y	n/a
225.9605	0.1015	451921	keystroke_w	w	n/a
226.0845	0.101	452169	keystroke_o	o	n/a
226.1745	0.1455	452349	keystroke_r	r	n/a
226.298	0.135	452596	keystroke_d	d	n/a
226.523	0.1015	453046	keystroke_Key.enter	Key.enter	n/a
226.6305	4.2695	453261	prompt	n/a	sessions vast rangers test\n
227.334	0.1235	454668	keystroke_s	s	n/a
227.491	0.123	454982	keystroke_e	e	n/a
227.704	0.056	455408	keystroke_s	s	n/a
227.8615	0.0795	455723	keystroke_s	s	n/a
227.963	0.191	455926	keystroke_i	i	n/a
228.0415	0.124	456083	keystroke_o	o	n/a
228.1205	0.1235	456241	keystroke_n	n	n/a
228.21	0.1015	456420	keystroke_s	s	n/a
228.323	0.1685	456646	keystroke_Key.space	Key.space	n/a
228.458	0.1235	456916	keystroke_v	v	n/a
228.6265	0.135	457253	keystroke_a	a	n/a
228.7165	0.135	457433	keystroke_s	s	n/a
228.818	0.0785	457636	keystroke_t	t	n/a
228.9075	0.1355	457815	keystroke_Key.space	Key.space	n/a
229.3135	0.1345	458627	keystroke_r	r	n/a
229.4815	0.1125	458963	keystroke_a	a	n/a
229.6165	0.1125	459233	keystroke_n	n	n/a
229.708	0.0885	459416	keystroke_g	g	n/a
229.864	0.1015	459728	keystroke_e	e	n/a
229.9315	0.18	459863	keystroke_r	r	n/a
230.0665	0.1015	460133	keystroke_s	s	n/a
230.2015	0.135	460403	keystroke_Key.space	Key.space	n/a
230.303	0.135	460606	keystroke_t	t	n/a
230.416	0.123	460832	keystroke_e	e	n/a
230.506	0.1795	461012	keystroke_s	s	n/a
230.6405	0.1125	461281	keystroke_t	t	n/a
230.776	0.123	461552	keystroke_Key.enter	Key.enter	n/a
230.9035	5.6785	461807	prompt	n/a	seafood microphone ride students\n
231.619	0.1125	463238	keystroke_s	s	n/a
231.799	0.1465	463598	keystroke_e	e	n/a
231.934	0.18	463868	keystroke_a	a	n/a
232.1815	0.09	464363	keystroke_f	f	n/a
232.294	0.068	464588	keystroke_o	o	n/a
232.4965	0.0565	464993	keystroke_o	o	n/a
232.5755	0.1125	465151	keystroke_d	d	n/a
232.688	0.146	465376	keystroke_Key.space	Key.space	n/a
232.767	0.1345	465534	keystroke_m	m	n/a
232.891	0.1345	465782	keystroke_i	i	n/a
233.0815	0.09	466163	keystroke_c	c	n/a
233.284	0.0905	466568	keystroke_r	r	n/a
233.3965	0.079	466793	keystroke_o	o	n/a
233.5315	0.1015	467063	keystroke_f	f	n/a
233.903	0.056	467806	keystroke_Key.backspace	Key.backspace	n/a
234.2745	0.0895	468549	keystroke_p	p	n/a
234.3415	0.1125	468683	keystroke_h	h	n/a
234.5105	0.1355	469021	keystroke_o	o	n/a
234.578	0.1015	469156	keystroke_n	n	n/a
234.6795	0.0895	469359	keystroke_e	e	n/a
234.7805	0.1125	469561	keystroke_Key.space	Key.space	n/a
234.8815	0.124	469763	keystroke_r	r	n/a
234.994	0.09	469988	keystroke_i	i	n/a
235.0735	0.0895	470147	keystroke_d	d	n/a
235.2755	0.056	470551	keystroke_e	e	n/a
235.388	0.1125	470776	keystroke_Key.space	Key.space	n/a
235.624	0.09	471248	keystroke_s	s	n/a
235.681	0.1005	471362	keystroke_t	t	n/a
235.782	0.0785	471564	keystroke_u	u	n/a
235.883	0.091	471766	keystroke_d	d	n/a
236.063	0.09	472126	keystroke_e	e	n/a
236.209	0.079	472418	keystroke_n	n	n/a
236.3105	0.1235	472621	keystroke_t	t	n/a
236.378	0.101	472756	keystroke_s	s	n/a
236.4795	0.101	472959	keystroke_Key.enter	Key.enter	n/a
236.5855	7.151	473171	prompt	n/a	desert desperate jump medical\n
237.1885	0.09	474377	keystroke_d	d	n/a
237.379	0.124	474758	keystroke_e	e	n/a
237.548	0.191	475096	keystroke_s	s	n/a
237.672	0.146	475344	keystroke_e	e	n/a
237.774	0.1115	475548	keystroke_r	r	n/a
238.324	0.09	476648	keystroke_t	t	n/a
238.459	0.1125	476918	keystroke_Key.space	Key.space	n/a
238.561	0.078	477122	keystroke_d	d	n/a
238.752	0.1015	477504	keystroke_e	e	n/a
238.8755	0.1125	477751	keystroke_s	s	n/a
239.854	0.124	479708	keystroke_p	p	n/a
240.0455	0.146	480091	keystroke_a	a	n/a
240.169	0.169	480338	keystroke_r	r	n/a
240.5855	0.0675	481171	keystroke_Key.backspace	Key.backspace	n/a
240.7655	0.0785	481531	keystroke_Key.backspace	Key.backspace	n/a
240.878	0.1465	481756	keystroke_e	e	n/a
240.9795	0.1345	481959	keystroke_r	r	n/a
241.148	0.124	482296	keystroke_a	a	n/a
241.2605	0.1575	482521	keystroke_t	t	n/a
241.362	0.101	482724	keystroke_e	e	n/a
241.508	0.135	483016	keystroke_Key.space	Key.space	n/a
241.6995	0.056	483399	keystroke_j	j	n/a
241.868	0.057	483736	keystroke_u	u	n/a
242.048	0.1235	484096	keystroke_m	m	n/a
242.138	0.1125	484276	keystroke_p	p	n/a
242.228	0.146	484456	keystroke_Key.space	Key.space	n/a
242.341	0.101	484682	keystroke_m	m	n/a
242.453	0.1015	484906	keystroke_e	e	n/a
242.948	0.09	485896	keystroke_d	d	n/a
243.0495	0.101	486099	keystroke_i	i	n/a
243.1955	0.124	486391	keystroke_c	c	n/a
243.308	0.09	486616	keystroke_a	a	n/a
243.409	0.09	486818	keystroke_l	l	n/a
243.6455	0.09	487291	keystroke_Key.enter	Key.enter	n/a
243.74	4.781	487480	prompt	n/a	served sympathy ocean necessary\n
244.4105	0.0795	488821	keystroke_s	s	n/a
244.6245	0.112	489249	keystroke_e	e	n/a
244.703	0.0785	489406	keystroke_r	r	n/a
244.917	0.1125	489834	keystroke_v	v	n/a
245.0065	0.079	490013	keystroke_e	e	n/a
245.198	0.0675	490396	keystroke_d	d	n/a
245.2995	0.0905	490599	keystroke_Key.space	Key.space	n/a
245.4005	0.09	490801	keystroke_s	s	n/a
245.4795	0.0895	490959	keystroke_y	y	n/a
245.682	0.1345	491364	keystroke_m	m	n/a
245.772	0.1575	491544	keystroke_p	p	n/a
245.9405	0.101	491881	keystroke_a	a	n/a
245.997	0.112	491994	keystroke_t	t	n/a
246.0865	0.0905	492173	keystroke_h	h	n/a
246.2905	0.0895	492581	keystroke_y	y	n/a
246.357	0.101	492714	keystroke_Key.space	Key.space	n/a
246.4695	0.146	492939	keystroke_o	o	n/a
246.6045	0.056	493209	keystroke_c	c	n/a
246.7955	0.124	493591	keystroke_e	e	n/a
246.863	0.135	493726	keystroke_a	a	n/a
246.9645	0.1235	493929	keystroke_n	n	n/a
247.043	0.1125	494086	keystroke_Key.space	Key.space	n/a
247.1905	0.1005	494381	keystroke_n	n	n/a
247.2345	0.09	494469	keystroke_e	e	n/a
247.437	0.0785	494874	keystroke_c	c	n/a
247.628	0.147	495256	keystroke_e	e	n/a
247.718	0.1015	495436	keystroke_s	s	n/a
247.909	0.0905	495818	keystroke_s	s	n/a
248.022	0.124	496044	keystroke_a	a	n/a
248.125	0.0995	496250	keystroke_r	r	n/a
248.192	0.066	496384	keystroke_y	y	n/a
248.419	0.0985	496838	keystroke_Key.enter	Key.enter	n/a
248.524	3.741	497048	prompt	n/a	genetics rider fork rights\n
249.192	0.091	498384	keystroke_g	g	n/a
249.3615	0.067	498723	keystroke_e	e	n/a
249.462	0.1145	498924	keystroke_n	n	n/a
249.563	0.113	499126	keystroke_e	e	n/a
249.653	0.09	499306	keystroke_t	t	n/a
249.7775	0.0895	499555	keystroke_i	i	n/a
249.859	0.0755	499718	keystroke_c	c	n/a
250.036	0.112	500072	keystroke_s	s	n/a
250.16	0.123	500320	keystroke_Key.space	Key.space	n/a
250.2745	0.155	500549	keystroke_r	r	n/a
250.3955	0.1135	500791	keystroke_i	i	n/a
250.452	0.0675	500904	keystroke_d	d	n/a
250.621	0.1235	501242	keystroke_e	e	n/a
250.688	0.103	501376	keystroke_r	r	n/a
250.778	0.1245	501556	keystroke_Key.space	Key.space	n/a
250.8925	0.0885	501785	keystroke_f	f	n/a
251.003	0.1015	502006	keystroke_o	o	n/a
251.093	0.0905	502186	keystroke_r	r	n/a
251.1945	0.1235	502389	keystroke_k	k	n/a
251.2845	0.1245	502569	keystroke_Key.space	Key.space	n/a
251.4195	0.101	502839	keystroke_r	r	n/a
251.5095	0.0785	503019	keystroke_i	i	n/a
251.6445	0.1015	503289	keystroke_g	g	n/a
251.7345	0.0785	503469	keystroke_h	h	n/a
251.847	0.135	503694	keystroke_t	t	n/a
251.993	0.135	503986	keystroke_s	s	n/a
252.162	0.1015	504324	keystroke_Key.enter	Key.enter	n/a
252.269	4.5185	504538	prompt	n/a	lives filter slovak migration\n
252.9615	0.18	505923	keystroke_l	l	n/a
253.051	0.135	506102	keystroke_i	i	n/a
253.1865	0.0905	506373	keystroke_v	v	n/a
253.3215	0.1455	506643	keystroke_e	e	n/a
253.3995	0.1125	506799	keystroke_s	s	n/a
253.5245	0.09	507049	keystroke_Key.space	Key.space	n/a
253.614	0.0895	507228	keystroke_f	f	n/a
253.715	0.168	507430	keystroke_i	i	n/a
253.8045	0.1465	507609	keystroke_l	l	n/a
253.9075	0.077	507815	keystroke_t	t	n/a
254.0295	0.1125	508059	keystroke_e	e	n/a
254.12	0.112	508240	keystroke_r	r	n/a
254.2545	0.079	508509	keystroke_Key.space	Key.space	n/a
254.311	0.1235	508622	keystroke_s	s	n/a
254.5135	0.067	509027	keystroke_l	l	n/a
254.682	0.101	509364	keystroke_o	o	n/a
254.7965	0.1105	509593	keystroke_v	v	n/a
254.93	0.101	509860	keystroke_a	a	n/a
255.0535	0.1125	510107	keystroke_k	k	n/a
255.177	0.1355	510354	keystroke_Key.space	Key.space	n/a
255.324	0.1345	510648	keystroke_m	m	n/a
255.402	0.146	510804	keystroke_i	i	n/a
255.6045	0.09	511209	keystroke_g	g	n/a
255.8075	0.101	511615	keystroke_r	r	n/a
255.897	0.1245	511794	keystroke_a	a	n/a
256.0215	0.1115	512043	keystroke_t	t	n/a
256.1675	0.2025	512335	keystroke_i	i	n/a
256.246	0.146	512492	keystroke_o	o	n/a
256.3475	0.101	512695	keystroke_n	n	n/a
256.6955	0.0905	513391	keystroke_Key.enter	Key.enter	n/a
256.792	4.822	513584	prompt	n/a	preferences lyrics york positions\n
257.652	0.135	515304	keystroke_p	p	n/a
257.744	0.0995	515488	keystroke_r	r	n/a
257.7985	0.09	515597	keystroke_e	e	n/a
258.001	0.0895	516002	keystroke_f	f	n/a
258.1355	0.1135	516271	keystroke_e	e	n/a
258.2255	0.182	516451	keystroke_r	r	n/a
258.338	0.113	516676	keystroke_e	e	n/a
258.474	0.112	516948	keystroke_n	n	n/a
258.597	0.09	517194	keystroke_c	c	n/a
258.789	0.1455	517578	keystroke_e	e	n/a
258.858	0.1215	517716	keystroke_s	s	n/a
258.9455	0.135	517891	keystroke_Key.space	Key.space	n/a
259.036	0.18	518072	keystroke_l	l	n/a
259.171	0.101	518342	keystroke_y	y	n/a
259.2945	0.091	518589	keystroke_r	r	n/a
259.3845	0.1125	518769	keystroke_i	i	n/a
259.531	0.0695	519062	keystroke_c	c	n/a
259.6905	0.1105	519381	keystroke_s	s	n/a
259.8125	0.124	519625	keystroke_Key.space	Key.space	n/a
259.8795	0.147	519759	keystroke_y	y	n/a
260.015	0.1125	520030	keystroke_o	o	n/a
260.15	0.0905	520300	keystroke_r	r	n/a
260.229	0.1125	520458	keystroke_k	k	n/a
260.319	0.135	520638	keystroke_Key.space	Key.space	n/a
260.409	0.135	520818	keystroke_p	p	n/a
260.511	0.123	521022	keystroke_o	o	n/a
260.692	0.1105	521384	keystroke_s	s	n/a
260.7805	0.1375	521561	keystroke_i	i	n/a
260.926	0.1125	521852	keystroke_t	t	n/a
261.016	0.2135	522032	keystroke_i	i	n/a
261.095	0.146	522190	keystroke_o	o	n/a
261.185	0.112	522370	keystroke_n	n	n/a
261.2635	0.101	522527	keystroke_s	s	n/a
261.5245	0.0875	523049	keystroke_Key.enter	Key.enter	n/a
261.622	6.2035	523244	prompt	n/a	control soldier thumbzilla divisions\n
262.4785	0.09	524957	keystroke_c	c	n/a
262.5575	0.146	525115	keystroke_o	o	n/a
262.636	0.1125	525272	keystroke_n	n	n/a
262.737	0.0905	525474	keystroke_t	t	n/a
262.9405	0.1005	525881	keystroke_r	r	n/a
263.008	0.1005	526016	keystroke_o	o	n/a
263.221	0.1235	526442	keystroke_l	l	n/a
263.2995	0.125	526599	keystroke_Key.space	Key.space	n/a
263.446	0.1015	526892	keystroke_s	s	n/a
263.5585	0.09	527117	keystroke_o	o	n/a
263.7745	0.11	527549	keystroke_l	l	n/a
263.9525	0.09	527905	keystroke_d	d	n/a
264.076	0.135	528152	keystroke_i	i	n/a
264.2245	0.11	528449	keystroke_e	e	n/a
264.2905	0.123	528581	keystroke_r	r	n/a
264.447	0.1015	528894	keystroke_Key.space	Key.space	n/a
265.0095	0.102	530019	keystroke_t	t	n/a
265.0905	0.088	530181	keystroke_h	h	n/a
265.2795	0.0675	530559	keystroke_u	u	n/a
265.4485	0.0785	530897	keystroke_m	m	n/a
265.562	0.0665	531124	keystroke_b	b	n/a
265.977	0.113	531954	keystroke_z	z	n/a
266.101	0.1235	532202	keystroke_i	i	n/a
266.18	0.0785	532360	keystroke_l	l	n/a
266.3595	0.1015	532719	keystroke_l	l	n/a
266.4835	0.0905	532967	keystroke_a	a	n/a
266.585	0.1345	533170	keystroke_Key.space	Key.space	n/a
266.7085	0.1125	533417	keystroke_d	d	n/a
266.8435	0.0805	533687	keystroke_i	i	n/a
266.968	0.112	533936	keystroke_v	v	n/a
267.091	0.0675	534182	keystroke_i	i	n/a
267.1695	0.113	534339	keystroke_s	s	n/a
267.2935	0.2025	534587	keystroke_i	i	n/a
267.361	0.146	534722	keystroke_o	o	n/a
267.4285	0.135	534857	keystroke_n	n	n/a
267.541	0.1015	535082	keystroke_s	s	n/a
267.7215	0.1025	535443	keystroke_Key.enter	Key.enter	n/a
267.831	5.82	535662	prompt	n/a	composed cooperation expo execution\n
268.587	0.103	537174	keystroke_c	c	n/a
268.6545	0.18	537309	keystroke_o	o	n/a
268.7445	0.18	537489	keystroke_m	m	n/a
268.8685	0.236	537737	keystroke_p	p	n/a
269.0935	0.191	538187	keystroke_o	o	n/a
269.4645	0.136	538929	keystroke_s	s	n/a
269.5435	0.101	539087	keystroke_e	e	n/a
269.757	0.0675	539514	keystroke_d	d	n/a
269.881	0.09	539762	keystroke_Key.space	Key.space	n/a
269.982	0.1015	539964	keystroke_c	c	n/a
270.0735	0.066	540147	keystroke_o	o	n/a
270.2635	0.1345	540527	keystroke_o	o	n/a
270.342	0.135	540684	keystroke_p	p	n/a
270.466	0.1125	540932	keystroke_e	e	n/a
270.5445	0.1235	541089	keystroke_r	r	n/a
270.736	0.17	541472	keystroke_a	a	n/a
270.837	0.1355	541674	keystroke_t	t	n/a
270.9605	0.1915	541921	keystroke_i	i	n/a
271.0065	0.1345	542013	keystroke_o	o	n/a
271.0625	0.1575	542125	keystroke_n	n	n/a
271.1295	0.1355	542259	keystroke_Key.space	Key.space	n/a
271.22	0.09	542440	keystroke_e	e	n/a
271.4335	0.112	542867	keystroke_x	x	n/a
271.5235	0.157	543047	keystroke_p	p	n/a
271.613	0.158	543226	keystroke_o	o	n/a
271.726	0.1465	543452	keystroke_Key.space	Key.space	n/a
271.928	0.1135	543856	keystroke_e	e	n/a
272.165	0.0895	544330	keystroke_x	x	n/a
272.3785	0.0565	544757	keystroke_e	e	n/a
272.581	0.079	545162	keystroke_c	c	n/a
272.7275	0.079	545455	keystroke_u	u	n/a
272.84	0.101	545680	keystroke_t	t	n/a
272.9855	0.214	545971	keystroke_i	i	n/a
273.076	0.147	546152	keystroke_o	o	n/a
273.156	0.122	546312	keystroke_n	n	n/a
273.5595	0.09	547119	keystroke_Key.enter	Key.enter	n/a
273.655	5.025	547310	prompt	n/a	voluntary attitudes animated says\n
274.426	0.09	548852	keystroke_v	v	n/a
274.448	0.1465	548896	keystroke_o	o	n/a
274.696	0.1235	549392	keystroke_l	l	n/a
274.7635	0.101	549527	keystroke_u	u	n/a
274.989	0.078	549978	keystroke_n	n	n/a
275.045	0.112	550090	keystroke_t	t	n/a
275.202	0.146	550404	keystroke_a	a	n/a
275.292	0.135	550584	keystroke_r	r	n/a
275.416	0.135	550832	keystroke_y	y	n/a
275.495	0.112	550990	keystroke_Key.space	Key.space	n/a
275.731	0.1345	551462	keystroke_a	a	n/a
275.787	0.09	551574	keystroke_t	t	n/a
275.967	0.0565	551934	keystroke_t	t	n/a
276.057	0.101	552114	keystroke_i	i	n/a
276.192	0.0675	552384	keystroke_t	t	n/a
276.316	0.0785	552632	keystroke_u	u	n/a
276.5745	0.0675	553149	keystroke_d	d	n/a
276.7545	0.167	553509	keystroke_e	e	n/a
276.833	0.1015	553666	keystroke_s	s	n/a
276.946	0.0895	553892	keystroke_Key.space	Key.space	n/a
277.058	0.1125	554116	keystroke_a	a	n/a
277.1485	0.1015	554297	keystroke_n	n	n/a
277.2605	0.1465	554521	keystroke_i	i	n/a
277.362	0.158	554724	keystroke_m	m	n/a
277.4405	0.1125	554881	keystroke_a	a	n/a
277.542	0.124	555084	keystroke_t	t	n/a
277.6325	0.0905	555265	keystroke_e	e	n/a
277.8125	0.09	555625	keystroke_d	d	n/a
277.925	0.078	555850	keystroke_Key.space	Key.space	n/a
278.0145	0.0785	556029	keystroke_s	s	n/a
278.1275	0.1685	556255	keystroke_a	a	n/a
278.262	0.1125	556524	keystroke_y	y	n/a
278.386	0.101	556772	keystroke_s	s	n/a
278.5895	0.089	557179	keystroke_Key.enter	Key.enter	n/a
278.684	5.5955	557368	prompt	n/a	asylum affected showtimes johnson\n
279.3645	0.158	558729	keystroke_a	a	n/a
279.4995	0.1125	558999	keystroke_s	s	n/a
279.6795	0.1125	559359	keystroke_y	y	n/a
279.927	0.1465	559854	keystroke_l	l	n/a
280.051	0.101	560102	keystroke_u	u	n/a
280.2645	0.158	560529	keystroke_m	m	n/a
280.356	0.1335	560712	keystroke_Key.space	Key.space	n/a
280.4785	0.101	560957	keystroke_a	a	n/a
280.557	0.079	561114	keystroke_f	f	n/a
280.782	0.0785	561564	keystroke_f	f	n/a
280.827	0.101	561654	keystroke_e	e	n/a
281.041	0.079	562082	keystroke_c	c	n/a
281.221	0.102	562442	keystroke_t	t	n/a
281.289	0.0785	562578	keystroke_e	e	n/a
281.4795	0.0675	562959	keystroke_d	d	n/a
281.5695	0.1015	563139	keystroke_Key.space	Key.space	n/a
281.682	0.1015	563364	keystroke_s	s	n/a
281.7395	0.1335	563479	keystroke_h	h	n/a
281.828	0.135	563656	keystroke_o	o	n/a
281.9185	0.067	563837	keystroke_w	w	n/a
282.0755	0.1015	564151	keystroke_t	t	n/a
282.166	0.135	564332	keystroke_i	i	n/a
282.2445	0.113	564489	keystroke_m	m	n/a
282.301	0.1355	564602	keystroke_e	e	n/a
282.3685	0.124	564737	keystroke_s	s	n/a
282.4365	0.157	564873	keystroke_Key.space	Key.space	n/a
282.5485	0.1345	565097	keystroke_j	j	n/a
282.706	0.101	565412	keystroke_o	o	n/a
282.9985	0.124	565997	keystroke_h	h	n/a
283.4145	0.113	566829	keystroke_n	n	n/a
283.64	0.1235	567280	keystroke_s	s	n/a
283.7635	0.135	567527	keystroke_o	o	n/a
283.831	0.125	567662	keystroke_n	n	n/a
284.1125	0.1225	568225	keystroke_Key.enter	Key.enter	n/a
284.281	6.2115	568562	prompt	n/a	authentication symptoms onto electronic\n
285.1025	0.1235	570205	keystroke_a	a	n/a
285.339	0.067	570678	keystroke_u	u	n/a
285.4175	0.1125	570835	keystroke_t	t	n/a
285.541	0.0795	571082	keystroke_h	h	n/a
285.586	0.1085	571172	keystroke_e	e	n/a
286.036	0.1015	572072	keystroke_n	n	n/a
286.2725	0.1125	572545	keystroke_t	t	n/a
286.385	0.079	572770	keystroke_i	i	n/a
286.532	0.0905	573064	keystroke_c	c	n/a
286.666	0.1245	573332	keystroke_a	a	n/a
286.7565	0.1125	573513	keystroke_t	t	n/a
286.8465	0.191	573693	keystroke_i	i	n/a
286.914	0.112	573828	keystroke_o	o	n/a
286.9475	0.135	573895	keystroke_n	n	n/a
287.015	0.113	574030	keystroke_Key.space	Key.space	n/a
287.116	0.1125	574232	keystroke_s	s	n/a
287.2405	0.078	574481	keystroke_y	y	n/a
287.4425	0.124	574885	keystroke_m	m	n/a
287.5225	0.145	575045	keystroke_p	p	n/a
287.7125	0.1015	575425	keystroke_t	t	n/a
287.848	0.18	575696	keystroke_o	o	n/a
287.949	0.112	575898	keystroke_m	m	n/a
288.0725	0.0905	576145	keystroke_s	s	n/a
288.1855	0.0895	576371	keystroke_Key.space	Key.space	n/a
288.3315	0.1245	576663	keystroke_o	o	n/a
288.399	0.112	576798	keystroke_n	n	n/a
288.5225	0.101	577045	keystroke_t	t	n/a
288.613	0.123	577226	keystroke_o	o	n/a
288.703	0.123	577406	keystroke_Key.space	Key.space	n/a
288.8935	0.1015	577787	keystroke_e	e	n/a
289.029	0.1235	578058	keystroke_l	l	n/a
289.13	0.09	578260	keystroke_e	e	n/a
289.3325	0.09	578665	keystroke_c	c	n/a
289.535	0.0785	579070	keystroke_t	t	n/a
289.726	0.113	579452	keystroke_r	r	n/a
289.85	0.146	579700	keystroke_o	o	n/a
289.9065	0.1685	579813	keystroke_n	n	n/a
290.0525	0.1365	580105	keystroke_i	i	n/a
290.1765	0.101	580353	keystroke_c	c	n/a
290.39	0.1015	580780	keystroke_Key.enter	Key.enter	n/a
290.496	4.789	580992	prompt	n/a	indexes spoke poverty notebook\n
291.1325	0.146	582265	keystroke_i	i	n/a
291.1895	0.168	582379	keystroke_n	n	n/a
291.29	0.0565	582580	keystroke_d	d	n/a
291.4475	0.0785	582895	keystroke_e	e	n/a
291.65	0.091	583300	keystroke_x	x	n/a
291.8525	0.146	583705	keystroke_e	e	n/a
291.9205	0.1235	583841	keystroke_s	s	n/a
292.0325	0.135	584065	keystroke_Key.space	Key.space	n/a
292.1785	0.1045	584357	keystroke_s	s	n/a
292.2695	0.157	584539	keystroke_p	p	n/a
292.3815	0.214	584763	keystroke_o	o	n/a
292.551	0.1675	585102	keystroke_k	k	n/a
292.7075	0.1125	585415	keystroke_e	e	n/a
292.809	0.157	585618	keystroke_Key.space	Key.space	n/a
293.045	0.1465	586090	keystroke_p	p	n/a
293.158	0.17	586316	keystroke_o	o	n/a
293.3395	0.067	586679	keystroke_v	v	n/a
293.473	0.1125	586946	keystroke_e	e	n/a
293.551	0.0905	587102	keystroke_r	r	n/a
293.7535	0.0905	587507	keystroke_t	t	n/a
293.856	0.089	587712	keystroke_y	y	n/a
293.923	0.1345	587846	keystroke_Key.space	Key.space	n/a
294.0685	0.135	588137	keystroke_n	n	n/a
294.1705	0.1125	588341	keystroke_o	o	n/a
294.2265	0.113	588453	keystroke_t	t	n/a
294.316	0.0795	588632	keystroke_e	e	n/a
294.541	0.1015	589082	keystroke_b	b	n/a
294.655	0.0555	589310	keystroke_o	o	n/a
294.845	0.1355	589690	keystroke_o	o	n/a
294.9015	0.124	589803	keystroke_k	k	n/a
295.194	0.09	590388	keystroke_Key.enter	Key.enter	n/a
295.289	4.5745	590578	prompt	n/a	degrees jury webcast feels\n
295.8695	0.078	591739	keystroke_d	d	n/a
296.06	0.068	592120	keystroke_e	e	n/a
296.2405	0.0895	592481	keystroke_g	g	n/a
296.42	0.1355	592840	keystroke_r	r	n/a
296.4885	0.1005	592977	keystroke_e	e	n/a
296.6675	0.1235	593335	keystroke_e	e	n/a
296.87	0.102	593740	keystroke_s	s	n/a
297.039	0.1235	594078	keystroke_Key.space	Key.space	n/a
297.3085	0.08	594617	keystroke_j	j	n/a
297.489	0.09	594978	keystroke_u	u	n/a
297.6125	0.1245	595225	keystroke_r	r	n/a
297.7025	0.1365	595405	keystroke_y	y	n/a
297.7925	0.1125	595585	keystroke_Key.space	Key.space	n/a
297.961	0.124	595922	keystroke_w	w	n/a
298.04	0.09	596080	keystroke_e	e	n/a
298.265	0.1015	596530	keystroke_b	b	n/a
298.569	0.09	597138	keystroke_c	c	n/a
298.715	0.1355	597430	keystroke_a	a	n/a
298.7935	0.1465	597587	keystroke_s	s	n/a
298.9065	0.101	597813	keystroke_t	t	n/a
299.03	0.1235	598060	keystroke_Key.space	Key.space	n/a
299.165	0.102	598330	keystroke_f	f	n/a
299.2325	0.0905	598465	keystroke_e	e	n/a
299.424	0.0905	598848	keystroke_e	e	n/a
299.515	0.1005	599030	keystroke_l	l	n/a
299.6265	0.1235	599253	keystroke_s	s	n/a
299.7505	0.112	599501	keystroke_Key.enter	Key.enter	n/a
299.868	5.013	599736	prompt	n/a	clip http citysearch more\n
300.526	0.1015	601052	keystroke_c	c	n/a
300.6395	0.1015	601279	keystroke_l	l	n/a
300.7515	0.18	601503	keystroke_i	i	n/a
300.92	0.102	601840	keystroke_p	p	n/a
301.01	0.1125	602020	keystroke_Key.space	Key.space	n/a
301.202	0.112	602404	keystroke_h	h	n/a
301.607	0.0675	603214	keystroke_t	t	n/a
301.7865	0.09	603573	keystroke_t	t	n/a
301.865	0.135	603730	keystroke_p	p	n/a
302.0005	0.1235	604001	keystroke_Key.space	Key.space	n/a
302.1915	0.101	604383	keystroke_c	c	n/a
302.305	0.1115	604610	keystroke_i	i	n/a
302.9675	0.124	605935	keystroke_t	t	n/a
303.148	0.1125	606296	keystroke_y	y	n/a
303.316	0.1245	606632	keystroke_s	s	n/a
303.451	0.1915	606902	keystroke_e	e	n/a
303.6315	0.18	607263	keystroke_a	a	n/a
303.744	0.112	607488	keystroke_r	r	n/a
303.958	0.1015	607916	keystroke_c	c	n/a
304.0475	0.101	608095	keystroke_h	h	n/a
304.115	0.1575	608230	keystroke_Key.space	Key.space	n/a
304.25	0.146	608500	keystroke_m	m	n/a
304.34	0.135	608680	keystroke_o	o	n/a
304.4525	0.146	608905	keystroke_r	r	n/a
304.565	0.1125	609130	keystroke_e	e	n/a
304.779	0.101	609558	keystroke_Key.enter	Key.enter	n/a
304.8845	6.556	609769	prompt	n/a	retirement dayton permits catalyst\n
305.881	0.124	611762	keystroke_r	r	n/a
305.972	0.0895	611944	keystroke_e	e	n/a
306.14	0.1125	612280	keystroke_t	t	n/a
306.298	0.101	612596	keystroke_i	i	n/a
306.3765	0.203	612753	keystroke_r	r	n/a
306.568	0.168	613136	keystroke_e	e	n/a
306.905	0.1245	613810	keystroke_m	m	n/a
307.0515	0.101	614103	keystroke_e	e	n/a
307.164	0.101	614328	keystroke_n	n	n/a
307.2545	0.1115	614509	keystroke_t	t	n/a
307.3555	0.1235	614711	keystroke_Key.space	Key.space	n/a
307.5125	0.1355	615025	keystroke_d	d	n/a
307.674	0.1315	615348	keystroke_a	a	n/a
307.7715	0.1245	615543	keystroke_t	t	n/a
308.165	0.0785	616330	keystroke_Key.backspace	Key.backspace	n/a
308.4125	0.1125	616825	keystroke_y	y	n/a
308.5715	0.111	617143	keystroke_t	t	n/a
308.6935	0.1465	617387	keystroke_o	o	n/a
308.7725	0.124	617545	keystroke_n	n	n/a
308.8515	0.1125	617703	keystroke_Key.space	Key.space	n/a
309.043	0.1005	618086	keystroke_p	p	n/a
309.1105	0.1005	618221	keystroke_e	e	n/a
309.178	0.123	618356	keystroke_r	r	n/a
309.2905	0.146	618581	keystroke_m	m	n/a
309.369	0.157	618738	keystroke_i	i	n/a
309.505	0.1565	619010	keystroke_t	t	n/a
309.6165	0.101	619233	keystroke_s	s	n/a
309.695	0.1355	619390	keystroke_Key.space	Key.space	n/a
309.8635	0.1015	619727	keystroke_c	c	n/a
310.1565	0.135	620313	keystroke_a	a	n/a
310.28	0.135	620560	keystroke_t	t	n/a
310.426	0.1465	620852	keystroke_a	a	n/a
310.674	0.1685	621348	keystroke_l	l	n/a
310.7865	0.146	621573	keystroke_y	y	n/a
311.011	0.158	622022	keystroke_s	s	n/a
311.135	0.124	622270	keystroke_t	t	n/a
311.326	0.1135	622652	keystroke_Key.enter	Key.enter	n/a
311.4435	7.265	622887	prompt	n/a	assistant compatibility nursery accepting\n
312.1925	0.1125	624385	keystroke_a	a	n/a
312.2825	0.09	624565	keystroke_s	s	n/a
312.485	0.057	624970	keystroke_s	s	n/a
312.586	0.113	625172	keystroke_i	i	n/a
312.688	0.1345	625376	keystroke_s	s	n/a
312.8225	0.135	625645	keystroke_t	t	n/a
312.9465	0.1255	625893	keystroke_a	a	n/a
313.038	0.111	626076	keystroke_n	n	n/a
313.1825	0.056	626365	keystroke_t	t	n/a
313.25	0.1125	626500	keystroke_Key.space	Key.space	n/a
313.385	0.09	626770	keystroke_c	c	n/a
313.4975	0.2025	626995	keystroke_o	o	n/a
313.5545	0.1235	627109	keystroke_m	m	n/a
313.6325	0.1685	627265	keystroke_p	p	n/a
313.79	0.1125	627580	keystroke_a	a	n/a
313.9475	0.101	627895	keystroke_t	t	n/a
314.0825	0.09	628165	keystroke_i	i	n/a
314.2515	0.101	628503	keystroke_b	b	n/a
314.3415	0.101	628683	keystroke_i	i	n/a
314.4545	0.157	628909	keystroke_l	l	n/a
314.555	0.09	629110	keystroke_i	i	n/a
314.69	0.1125	629380	keystroke_t	t	n/a
314.805	0.1215	629610	keystroke_y	y	n/a
314.871	0.1	629742	keystroke_Key.space	Key.space	n/a
315.0835	0.079	630167	keystroke_n	n	n/a
315.309	0.112	630618	keystroke_u	u	n/a
315.624	0.1135	631248	keystroke_r	r	n/a
315.8485	0.1805	631697	keystroke_s	s	n/a
315.95	0.1235	631900	keystroke_e	e	n/a
316.0175	0.1235	632035	keystroke_r	r	n/a
316.1645	0.1235	632329	keystroke_y	y	n/a
316.243	0.112	632486	keystroke_Key.space	Key.space	n/a
316.4	0.1015	632800	keystroke_a	a	n/a
316.625	0.09	633250	keystroke_c	c	n/a
316.8505	0.1235	633701	keystroke_d	d	n/a
317.38	0.089	634760	keystroke_Key.backspace	Key.backspace	n/a
317.6265	0.079	635253	keystroke_c	c	n/a
317.8515	0.056	635703	keystroke_e	e	n/a
317.975	0.0795	635950	keystroke_p	p	n/a
318.099	0.112	636198	keystroke_t	t	n/a
318.2	0.1465	636400	keystroke_i	i	n/a
318.279	0.135	636558	keystroke_n	n	n/a
318.38	0.102	636760	keystroke_g	g	n/a
318.594	0.113	637188	keystroke_Key.enter	Key.enter	n/a
318.7125	4.2595	637425	prompt	n/a	guides tent racks macedonia\n
319.4385	0.078	638877	keystroke_g	g	n/a
319.4935	0.1355	638987	keystroke_u	u	n/a
319.595	0.1355	639190	keystroke_i	i	n/a
319.6625	0.0785	639325	keystroke_d	d	n/a
319.8425	0.1465	639685	keystroke_e	e	n/a
319.921	0.113	639842	keystroke_s	s	n/a
320.079	0.0785	640158	keystroke_Key.space	Key.space	n/a
320.135	0.1125	640270	keystroke_t	t	n/a
320.225	0.1015	640450	keystroke_e	e	n/a
320.338	0.101	640676	keystroke_n	n	n/a
320.4395	0.089	640879	keystroke_t	t	n/a
320.5175	0.135	641035	keystroke_Key.space	Key.space	n/a
320.675	0.214	641350	keystroke_r	r	n/a
320.844	0.1125	641688	keystroke_a	a	n/a
321.0805	0.091	642161	keystroke_c	c	n/a
321.193	0.09	642386	keystroke_k	k	n/a
321.2935	0.1245	642587	keystroke_s	s	n/a
321.3955	0.168	642791	keystroke_Key.space	Key.space	n/a
321.4965	0.146	642993	keystroke_m	m	n/a
321.5875	0.105	643175	keystroke_a	a	n/a
321.8	0.09	643600	keystroke_c	c	n/a
322.0025	0.0685	644005	keystroke_e	e	n/a
322.205	0.079	644410	keystroke_d	d	n/a
322.295	0.124	644590	keystroke_o	o	n/a
322.464	0.124	644928	keystroke_n	n	n/a
322.5765	0.112	645153	keystroke_i	i	n/a
322.678	0.1125	645356	keystroke_a	a	n/a
322.8575	0.1135	645715	keystroke_Key.enter	Key.enter	n/a
322.9755	8.0635	645951	prompt	n/a	employ observations mailing disclaimers\n
323.668	0.112	647336	keystroke_e	e	n/a
323.7915	0.1575	647583	keystroke_m	m	n/a
323.915	0.135	647830	keystroke_p	p	n/a
324.1625	0.0565	648325	keystroke_l	l	n/a
324.343	0.1235	648686	keystroke_o	o	n/a
324.4105	0.123	648821	keystroke_y	y	n/a
324.478	0.1005	648956	keystroke_Key.space	Key.space	n/a
324.613	0.1345	649226	keystroke_o	o	n/a
324.771	0.112	649542	keystroke_b	b	n/a
325.006	0.1575	650012	keystroke_s	s	n/a
325.0855	0.102	650171	keystroke_e	e	n/a
325.1535	0.1005	650307	keystroke_r	r	n/a
325.378	0.101	650756	keystroke_v	v	n/a
325.5355	0.135	651071	keystroke_a	a	n/a
325.614	0.1235	651228	keystroke_t	t	n/a
325.727	0.2245	651454	keystroke_i	i	n/a
325.794	0.1685	651588	keystroke_o	o	n/a
325.884	0.1235	651768	keystroke_n	n	n/a
325.9515	0.1025	651903	keystroke_s	s	n/a
326.075	0.124	652150	keystroke_Key.space	Key.space	n/a
326.1425	0.113	652285	keystroke_m	m	n/a
326.2885	0.102	652577	keystroke_a	a	n/a
326.368	0.136	652736	keystroke_i	i	n/a
326.469	0.135	652938	keystroke_l	l	n/a
326.626	0.034	653252	keystroke_l	l	n/a
326.649	0.147	653298	keystroke_i	i	n/a
326.728	0.1235	653456	keystroke_n	n	n/a
326.8515	0.101	653703	keystroke_g	g	n/a
326.954	0.145	653908	keystroke_Key.space	Key.space	n/a
327.155	0.124	654310	keystroke_d	d	n/a
327.29	0.1355	654580	keystroke_i	i	n/a
327.4375	0.1115	654875	keystroke_s	s	n/a
329.7765	0.09	659553	keystroke_c	c	n/a
329.9	0.1465	659800	keystroke_l	l	n/a
330.148	0.1235	660296	keystroke_a	a	n/a
330.283	0.146	660566	keystroke_i	i	n/a
330.3725	0.135	660745	keystroke_m	m	n/a
330.44	0.135	660880	keystroke_e	e	n/a
330.541	0.1915	661082	keystroke_r	r	n/a
330.699	0.1125	661398	keystroke_s	s	n/a
330.9125	0.125	661825	keystroke_Key.enter	Key.enter	n/a
331.0425	5.9805	662085	prompt	n/a	announced harvest places software\n
331.655	0.1125	663310	keystroke_a	a	n/a
331.779	0.056	663558	keystroke_n	n	n/a
331.925	0.09	663850	keystroke_n	n	n/a
332.0825	0.158	664165	keystroke_o	o	n/a
332.173	0.0895	664346	keystroke_u	u	n/a
332.375	0.1125	664750	keystroke_n	n	n/a
332.51	0.0795	665020	keystroke_c	c	n/a
332.7245	0.0795	665449	keystroke_e	e	n/a
332.915	0.1015	665830	keystroke_d	d	n/a
333.0725	0.1815	666145	keystroke_Key.space	Key.space	n/a
333.1405	0.169	666281	keystroke_h	h	n/a
333.264	0.1235	666528	keystroke_a	a	n/a
333.3425	0.09	666685	keystroke_r	r	n/a
333.5565	0.101	667113	keystroke_v	v	n/a
333.714	0.1575	667428	keystroke_e	e	n/a
333.9275	0.147	667855	keystroke_s	s	n/a
334.0175	0.124	668035	keystroke_t	t	n/a
334.13	0.1575	668260	keystroke_Key.space	Key.space	n/a
334.221	0.123	668442	keystroke_p	p	n/a
334.445	0.135	668890	keystroke_l	l	n/a
334.5245	0.113	669049	keystroke_a	a	n/a
334.738	0.0895	669476	keystroke_c	c	n/a
334.9515	0.158	669903	keystroke_e	e	n/a
335.03	0.1125	670060	keystroke_s	s	n/a
335.154	0.1235	670308	keystroke_Key.space	Key.space	n/a
335.5035	0.067	671007	keystroke_s	s	n/a
335.6265	0.1125	671253	keystroke_o	o	n/a
335.728	0.067	671456	keystroke_f	f	n/a
335.9075	0.1125	671815	keystroke_t	t	n/a
336.0875	0.1465	672175	keystroke_w	w	n/a
336.245	0.135	672490	keystroke_a	a	n/a
336.335	0.192	672670	keystroke_r	r	n/a
336.4585	0.1355	672917	keystroke_e	e	n/a
336.9425	0.079	673885	keystroke_Key.enter	Key.enter	n/a
337.0285	6.6775	674057	prompt	n/a	unsigned bureau routine cluster\n
337.8875	0.0795	675775	keystroke_u	u	n/a
338.0795	0.078	676159	keystroke_n	n	n/a
338.4725	0.1125	676945	keystroke_s	s	n/a
338.6645	0.1235	677329	keystroke_i	i	n/a
338.8665	0.0895	677733	keystroke_g	g	n/a
338.979	0.158	677958	keystroke_n	n	n/a
339.0915	0.079	678183	keystroke_e	e	n/a
339.2715	0.101	678543	keystroke_d	d	n/a
339.3845	0.1695	678769	keystroke_Key.space	Key.space	n/a
339.564	0.113	679128	keystroke_b	b	n/a
339.97	0.1115	679940	keystroke_u	u	n/a
340.6325	0.1015	681265	keystroke_r	r	n/a
341.06	0.1465	682120	keystroke_e	e	n/a
341.2295	0.146	682459	keystroke_a	a	n/a
341.3975	0.1465	682795	keystroke_u	u	n/a
341.5105	0.135	683021	keystroke_Key.space	Key.space	n/a
341.7465	0.1015	683493	keystroke_r	r	n/a
341.8255	0.18	683651	keystroke_o	o	n/a
341.9265	0.147	683853	keystroke_u	u	n/a
342.084	0.103	684168	keystroke_t	t	n/a
342.1965	0.146	684393	keystroke_i	i	n/a
342.2755	0.1235	684551	keystroke_n	n	n/a
342.388	0.09	684776	keystroke_e	e	n/a
342.5115	0.1685	685023	keystroke_Key.space	Key.space	n/a
342.6915	0.09	685383	keystroke_c	c	n/a
342.804	0.1915	685608	keystroke_l	l	n/a
342.9165	0.1575	685833	keystroke_u	u	n/a
343.085	0.1025	686170	keystroke_s	s	n/a
343.198	0.101	686396	keystroke_t	t	n/a
343.3665	0.1465	686733	keystroke_e	e	n/a
343.479	0.1015	686958	keystroke_r	r	n/a
343.6035	0.101	687207	keystroke_Key.enter	Key.enter	n/a
343.71	6.284	687420	prompt	n/a	metallica philips pokemon diet\n
344.379	0.1245	688758	keystroke_m	m	n/a
344.4915	0.1125	688983	keystroke_e	e	n/a
344.593	0.146	689186	keystroke_t	t	n/a
344.7165	0.124	689433	keystroke_a	a	n/a
344.8515	0.0785	689703	keystroke_l	l	n/a
345.0655	0.1235	690131	keystroke_l	l	n/a
345.144	0.1235	690288	keystroke_i	i	n/a
345.279	0.1125	690558	keystroke_c	c	n/a
345.5375	0.113	691075	keystroke_a	a	n/a
345.6845	0.135	691369	keystroke_Key.space	Key.space	n/a
345.8865	0.1465	691773	keystroke_p	p	n/a
346.0555	0.1235	692111	keystroke_h	h	n/a
347.0225	0.09	694045	keystroke_i	i	n/a
347.214	0.101	694428	keystroke_l	l	n/a
347.4165	0.1125	694833	keystroke_i	i	n/a
347.563	0.135	695126	keystroke_p	p	n/a
347.709	0.09	695418	keystroke_s	s	n/a
347.7765	0.1795	695553	keystroke_Key.space	Key.space	n/a
347.9455	0.1245	695891	keystroke_p	p	n/a
348.092	0.202	696184	keystroke_o	o	n/a
348.407	0.1235	696814	keystroke_k	k	n/a
348.598	0.0895	697196	keystroke_e	e	n/a
348.699	0.101	697398	keystroke_m	m	n/a
348.8565	0.135	697713	keystroke_o	o	n/a
348.9135	0.1455	697827	keystroke_n	n	n/a
349.0035	0.1115	698007	keystroke_Key.space	Key.space	n/a
349.1375	0.0905	698275	keystroke_d	d	n/a
349.239	0.1015	698478	keystroke_i	i	n/a
349.3515	0.1235	698703	keystroke_e	e	n/a
349.4415	0.135	698883	keystroke_t	t	n/a
349.903	0.09	699806	keystroke_Key.enter	Key.enter	n/a
349.9975	6.859	699995	prompt	n/a	degrees when's omissions carried\n
350.69	0.0805	701380	keystroke_d	d	n/a
350.871	0.101	701742	keystroke_e	e	n/a
351.8945	0.09	703789	keystroke_g	g	n/a
352.108	0.146	704216	keystroke_r	r	n/a
352.209	0.113	704418	keystroke_e	e	n/a
352.3895	0.0895	704779	keystroke_e	e	n/a
352.558	0.112	705116	keystroke_s	s	n/a
352.704	0.09	705408	keystroke_Key.space	Key.space	n/a
352.806	0.1235	705612	keystroke_w	w	n/a
352.929	0.091	705858	keystroke_h	h	n/a
353.0535	0.123	706107	keystroke_e	e	n/a
353.12	0.079	706240	keystroke_n	n	n/a
353.2785	0.1005	706557	keystroke_'	'	n/a
353.391	0.0895	706782	keystroke_s	s	n/a
353.4695	0.146	706939	keystroke_Key.space	Key.space	n/a
353.7395	0.112	707479	keystroke_o	o	n/a
353.8185	0.0895	707637	keystroke_m	m	n/a
354.009	0.1125	708018	keystroke_m	m	n/a
354.5375	0.079	709075	keystroke_Key.backspace	Key.backspace	n/a
354.7965	0.101	709593	keystroke_i	i	n/a
354.9315	0.1015	709863	keystroke_s	s	n/a
355.134	0.09	710268	keystroke_s	s	n/a
355.236	0.2015	710472	keystroke_i	i	n/a
355.314	0.135	710628	keystroke_o	o	n/a
355.3815	0.101	710763	keystroke_n	n	n/a
355.438	0.101	710876	keystroke_s	s	n/a
355.55	0.18	711100	keystroke_Key.space	Key.space	n/a
355.697	0.1235	711394	keystroke_c	c	n/a
355.944	0.1015	711888	keystroke_a	a	n/a
356.0005	0.0895	712001	keystroke_r	r	n/a
356.1805	0.113	712361	keystroke_r	r	n/a
356.304	0.135	712608	keystroke_i	i	n/a
356.4165	0.1035	712833	keystroke_e	e	n/a
356.6195	0.09	713239	keystroke_d	d	n/a
356.743	0.1125	713486	keystroke_Key.enter	Key.enter	n/a
356.861	3.967	713722	prompt	n/a	germany pike i'd motel\n
357.553	0.0905	715106	keystroke_g	g	n/a
357.7215	0.1685	715443	keystroke_e	e	n/a
357.9015	0.169	715803	keystroke_r	r	n/a
358.284	0.09	716568	keystroke_m	m	n/a
358.4415	0.102	716883	keystroke_a	a	n/a
358.509	0.1015	717018	keystroke_n	n	n/a
358.734	0.124	717468	keystroke_y	y	n/a
358.8035	0.1335	717607	keystroke_Key.space	Key.space	n/a
358.914	0.1235	717828	keystroke_p	p	n/a
359.1055	0.124	718211	keystroke_i	i	n/a
359.3415	0.0675	718683	keystroke_k	k	n/a
359.42	0.1015	718840	keystroke_e	e	n/a
359.51	0.169	719020	keystroke_Key.space	Key.space	n/a
359.623	0.0905	719246	keystroke_i	i	n/a
359.8025	0.079	719605	keystroke_'	'	n/a
359.904	0.1125	719808	keystroke_d	d	n/a
359.9715	0.148	719943	keystroke_Key.space	Key.space	n/a
360.0625	0.145	720125	keystroke_m	m	n/a
360.163	0.124	720326	keystroke_o	o	n/a
360.253	0.135	720506	keystroke_t	t	n/a
360.3655	0.1125	720731	keystroke_e	e	n/a
360.478	0.101	720956	keystroke_l	l	n/a
360.7375	0.089	721475	keystroke_Key.enter	Key.enter	n/a
360.831	5.6785	721662	prompt	n/a	ages enterprises cosmetic lanka\n
361.5025	0.1115	723005	keystroke_a	a	n/a
361.671	0.078	723342	keystroke_g	g	n/a
361.828	0.1795	723656	keystroke_e	e	n/a
361.929	0.1575	723858	keystroke_s	s	n/a
362.076	0.0785	724152	keystroke_t	t	n/a
362.233	0.1125	724466	keystroke_Key.space	Key.space	n/a
362.379	0.045	724758	keystroke_a	a	n/a
362.728	0.079	725456	keystroke_Key.backspace	Key.backspace	n/a
362.886	0.101	725772	keystroke_e	e	n/a
362.9975	0.1125	725995	keystroke_n	n	n/a
363.099	0.1015	726198	keystroke_t	t	n/a
363.234	0.1355	726468	keystroke_e	e	n/a
363.336	0.101	726672	keystroke_r	r	n/a
363.47	0.124	726940	keystroke_p	p	n/a
363.5945	0.1235	727189	keystroke_r	r	n/a
363.7085	0.122	727417	keystroke_i	i	n/a
363.9875	0.079	727975	keystroke_s	s	n/a
364.1455	0.146	728291	keystroke_e	e	n/a
364.213	0.1235	728426	keystroke_s	s	n/a
364.326	0.1345	728652	keystroke_Key.space	Key.space	n/a
364.629	0.1015	729258	keystroke_c	c	n/a
364.7425	0.123	729485	keystroke_o	o	n/a
364.854	0.113	729708	keystroke_s	s	n/a
365.0115	0.135	730023	keystroke_m	m	n/a
365.136	0.1345	730272	keystroke_e	e	n/a
365.2365	0.124	730473	keystroke_t	t	n/a
365.3715	0.0905	730743	keystroke_i	i	n/a
365.4735	0.1005	730947	keystroke_c	c	n/a
365.5965	0.124	731193	keystroke_Key.space	Key.space	n/a
365.7095	0.112	731419	keystroke_l	l	n/a
365.8665	0.103	731733	keystroke_a	a	n/a
365.9455	0.101	731891	keystroke_n	n	n/a
366.036	0.112	732072	keystroke_k	k	n/a
366.261	0.0895	732522	keystroke_a	a	n/a
366.4065	0.101	732813	keystroke_Key.enter	Key.enter	n/a
366.5125	3.2035	733025	prompt	n/a	crop either roof sofa\n
367.1605	0.0785	734321	keystroke_c	c	n/a
367.3525	0.0895	734705	keystroke_r	r	n/a
367.4415	0.18	734883	keystroke_o	o	n/a
367.554	0.1245	735108	keystroke_p	p	n/a
367.667	0.1125	735334	keystroke_Key.space	Key.space	n/a
367.7795	0.112	735559	keystroke_e	e	n/a
367.9365	0.0905	735873	keystroke_i	i	n/a
368.004	0.1125	736008	keystroke_t	t	n/a
368.1285	0.091	736257	keystroke_h	h	n/a
368.184	0.124	736368	keystroke_e	e	n/a
368.253	0.111	736506	keystroke_r	r	n/a
368.3415	0.1245	736683	keystroke_Key.space	Key.space	n/a
368.4765	0.1125	736953	keystroke_r	r	n/a
368.6005	0.09	737201	keystroke_o	o	n/a
368.7915	0.079	737583	keystroke_o	o	n/a
368.8815	0.09	737763	keystroke_f	f	n/a
368.9945	0.112	737989	keystroke_Key.space	Key.space	n/a
369.096	0.09	738192	keystroke_s	s	n/a
369.2195	0.079	738439	keystroke_o	o	n/a
369.309	0.18	738618	keystroke_f	f	n/a
369.4555	0.1125	738911	keystroke_a	a	n/a
369.613	0.1015	739226	keystroke_Key.enter	Key.enter	n/a
369.72	4.7765	739440	prompt	n/a	house forecasts revolution adult\n
370.4455	0.091	740891	keystroke_h	h	n/a
370.5915	0.1575	741183	keystroke_o	o	n/a
370.6935	0.1115	741387	keystroke_u	u	n/a
370.794	0.1125	741588	keystroke_s	s	n/a
370.839	0.102	741678	keystroke_e	e	n/a
370.919	0.1345	741838	keystroke_Key.space	Key.space	n/a
371.042	0.112	742084	keystroke_f	f	n/a
371.1435	0.1005	742287	keystroke_o	o	n/a
371.233	0.136	742466	keystroke_r	r	n/a
371.3115	0.1015	742623	keystroke_e	e	n/a
371.537	0.09	743074	keystroke_c	c	n/a
371.7285	0.1235	743457	keystroke_a	a	n/a
371.807	0.1345	743614	keystroke_s	s	n/a
371.9305	0.1685	743861	keystroke_t	t	n/a
372.054	0.1125	744108	keystroke_s	s	n/a
372.178	0.1355	744356	keystroke_Key.space	Key.space	n/a
372.279	0.1575	744558	keystroke_r	r	n/a
372.3915	0.09	744783	keystroke_e	e	n/a
372.594	0.125	745188	keystroke_v	v	n/a
372.7065	0.0675	745413	keystroke_o	o	n/a
372.898	0.135	745796	keystroke_l	l	n/a
372.9765	0.1245	745953	keystroke_u	u	n/a
373.1005	0.1125	746201	keystroke_t	t	n/a
373.225	0.2015	746450	keystroke_i	i	n/a
373.2805	0.135	746561	keystroke_o	o	n/a
373.348	0.146	746696	keystroke_n	n	n/a
373.438	0.135	746876	keystroke_Key.space	Key.space	n/a
373.5855	0.123	747171	keystroke_a	a	n/a
373.753	0.124	747506	keystroke_d	d	n/a
373.888	0.135	747776	keystroke_u	u	n/a
373.9665	0.1465	747933	keystroke_l	l	n/a
374.1135	0.1005	748227	keystroke_t	t	n/a
374.394	0.1015	748788	keystroke_Key.enter	Key.enter	n/a
374.4995	7.6245	748999	prompt	n/a	loans genealogy canberra sbjct\n
375.216	0.067	750432	keystroke_l	l	n/a
375.419	0.089	750838	keystroke_o	o	n/a
375.542	0.124	751084	keystroke_a	a	n/a
375.6665	0.1	751333	keystroke_n	n	n/a
375.7785	0.1005	751557	keystroke_s	s	n/a
375.8685	0.1455	751737	keystroke_Key.space	Key.space	n/a
375.992	0.0895	751984	keystroke_g	g	n/a
376.183	0.069	752366	keystroke_e	e	n/a
376.3065	0.1465	752613	keystroke_n	n	n/a
377.004	0.1015	754008	keystroke_e	e	n/a
377.274	0.1465	754548	keystroke_o	o	n/a
377.7695	0.0785	755539	keystroke_Key.backspace	Key.backspace	n/a
377.927	0.146	755854	keystroke_a	a	n/a
378.771	0.112	757542	keystroke_l	l	n/a
379.007	0.0675	758014	keystroke_o	o	n/a
379.1865	0.1015	758373	keystroke_g	g	n/a
379.299	0.1125	758598	keystroke_y	y	n/a
379.3555	0.135	758711	keystroke_Key.space	Key.space	n/a
379.5355	0.1235	759071	keystroke_c	c	n/a
379.7155	0.0675	759431	keystroke_a	a	n/a
379.7605	0.135	759521	keystroke_n	n	n/a
379.907	0.09	759814	keystroke_b	b	n/a
380.087	0.112	760174	keystroke_e	e	n/a
380.1545	0.09	760309	keystroke_r	r	n/a
380.3455	0.1575	760691	keystroke_r	r	n/a
380.47	0.1005	760940	keystroke_a	a	n/a
380.571	0.112	761142	keystroke_Key.space	Key.space	n/a
381.0315	0.0685	762063	keystroke_s	s	n/a
381.302	0.068	762604	keystroke_b	b	n/a
381.4145	0.1345	762829	keystroke_j	j	n/a
381.619	0.0765	763238	keystroke_c	c	n/a
381.8305	0.09	763661	keystroke_t	t	n/a
382.022	0.101	764044	keystroke_Key.enter	Key.enter	n/a
382.127	4.2605	764254	prompt	n/a	joel liquid upset lenders\n
382.697	0.101	765394	keystroke_j	j	n/a
382.888	0.1125	765776	keystroke_o	o	n/a
383.035	0.1005	766070	keystroke_e	e	n/a
383.1465	0.124	766293	keystroke_l	l	n/a
383.259	0.135	766518	keystroke_Key.space	Key.space	n/a
383.4055	0.169	766811	keystroke_l	l	n/a
383.5185	0.1235	767037	keystroke_i	i	n/a
383.8105	0.1125	767621	keystroke_q	q	n/a
383.9115	0.1355	767823	keystroke_u	u	n/a
383.9905	0.146	767981	keystroke_i	i	n/a
384.238	0.0785	768476	keystroke_d	d	n/a
384.3505	0.135	768701	keystroke_Key.space	Key.space	n/a
384.5755	0.158	769151	keystroke_u	u	n/a
384.6765	0.1595	769353	keystroke_p	p	n/a
384.8455	0.113	769691	keystroke_s	s	n/a
385.014	0.158	770028	keystroke_e	e	n/a
385.138	0.1235	770276	keystroke_t	t	n/a
385.2285	0.135	770457	keystroke_Key.space	Key.space	n/a
385.341	0.112	770682	keystroke_l	l	n/a
385.442	0.101	770884	keystroke_e	e	n/a
385.5655	0.1015	771131	keystroke_n	n	n/a
385.6785	0.09	771357	keystroke_d	d	n/a
385.869	0.135	771738	keystroke_e	e	n/a
385.959	0.214	771918	keystroke_r	r	n/a
386.1185	0.122	772237	keystroke_s	s	n/a
386.2745	0.112	772549	keystroke_Key.enter	Key.enter	n/a
386.391	5.633	772782	prompt	n/a	offensive induced epic delivery\n
387.039	0.09	774078	keystroke_o	o	n/a
387.141	0.078	774282	keystroke_f	f	n/a
387.344	0.089	774688	keystroke_f	f	n/a
387.4555	0.135	774911	keystroke_e	e	n/a
387.602	0.1245	775204	keystroke_n	n	n/a
387.7705	0.101	775541	keystroke_s	s	n/a
387.906	0.1125	775812	keystroke_i	i	n/a
388.063	0.1235	776126	keystroke_v	v	n/a
388.164	0.0795	776328	keystroke_e	e	n/a
388.254	0.1245	776508	keystroke_Key.space	Key.space	n/a
388.6035	0.1585	777207	keystroke_i	i	n/a
388.6935	0.135	777387	keystroke_n	n	n/a
388.873	0.0905	777746	keystroke_d	d	n/a
388.9855	0.1015	777971	keystroke_u	u	n/a
389.1435	0.078	778287	keystroke_c	c	n/a
389.3905	0.0905	778781	keystroke_e	e	n/a
389.6045	0.079	779209	keystroke_d	d	n/a
389.739	0.124	779478	keystroke_Key.space	Key.space	n/a
389.9865	0.09	779973	keystroke_e	e	n/a
390.111	0.1345	780222	keystroke_p	p	n/a
390.2565	0.113	780513	keystroke_i	i	n/a
390.381	0.09	780762	keystroke_c	c	n/a
390.4815	0.17	780963	keystroke_Key.space	Key.space	n/a
390.639	0.09	781278	keystroke_d	d	n/a
390.8415	0.1015	781683	keystroke_e	e	n/a
390.9315	0.1915	781863	keystroke_l	l	n/a
391.0215	0.135	782043	keystroke_i	i	n/a
391.123	0.101	782246	keystroke_v	v	n/a
391.3255	0.146	782651	keystroke_e	e	n/a
391.4155	0.1355	782831	keystroke_r	r	n/a
391.5845	0.103	783169	keystroke_y	y	n/a
391.9215	0.1015	783843	keystroke_Key.enter	Key.enter	n/a
392.0275	5.6815	784055	prompt	n/a	michelle elimination alex hairy\n
392.687	0.146	785374	keystroke_m	m	n/a
392.7995	0.112	785599	keystroke_i	i	n/a
392.968	0.1125	785936	keystroke_c	c	n/a
393.0695	0.112	786139	keystroke_h	h	n/a
393.2265	0.079	786453	keystroke_e	e	n/a
393.3165	0.0565	786633	keystroke_l	l	n/a
393.4855	0.09	786971	keystroke_l	l	n/a
393.632	0.0905	787264	keystroke_e	e	n/a
393.7555	0.135	787511	keystroke_Key.space	Key.space	n/a
393.879	0.09	787758	keystroke_e	e	n/a
393.9695	0.157	787939	keystroke_l	l	n/a
394.093	0.1465	788186	keystroke_i	i	n/a
394.2515	0.1565	788503	keystroke_m	m	n/a
394.554	0.169	789108	keystroke_i	i	n/a
395.139	0.1125	790278	keystroke_n	n	n/a
395.319	0.1125	790638	keystroke_a	a	n/a
395.3985	0.136	790797	keystroke_t	t	n/a
395.511	0.2355	791022	keystroke_i	i	n/a
395.612	0.1235	791224	keystroke_o	o	n/a
395.657	0.157	791314	keystroke_n	n	n/a
395.7355	0.135	791471	keystroke_Key.space	Key.space	n/a
395.949	0.158	791898	keystroke_a	a	n/a
396.096	0.123	792192	keystroke_l	l	n/a
396.208	0.1015	792416	keystroke_e	e	n/a
396.4345	0.0885	792869	keystroke_x	x	n/a
396.5565	0.1125	793113	keystroke_Key.space	Key.space	n/a
396.748	0.1015	793496	keystroke_h	h	n/a
396.894	0.124	793788	keystroke_a	a	n/a
397.0065	0.102	794013	keystroke_i	i	n/a
397.1525	0.113	794305	keystroke_r	r	n/a
397.2875	0.1015	794575	keystroke_y	y	n/a
397.603	0.104	795206	keystroke_Key.enter	Key.enter	n/a
397.713	4.7175	795426	prompt	n/a	exhibits concerns phones crash\n
398.424	0.0905	796848	keystroke_e	e	n/a
398.649	0.124	797298	keystroke_x	x	n/a
398.762	0.123	797524	keystroke_h	h	n/a
398.852	0.112	797704	keystroke_i	i	n/a
398.998	0.079	797996	keystroke_b	b	n/a
399.0875	0.1135	798175	keystroke_i	i	n/a
399.212	0.169	798424	keystroke_t	t	n/a
399.3375	0.0775	798675	keystroke_s	s	n/a
399.4375	0.1115	798875	keystroke_Key.space	Key.space	n/a
399.617	0.1125	799234	keystroke_c	c	n/a
399.7185	0.123	799437	keystroke_o	o	n/a
399.763	0.1575	799526	keystroke_n	n	n/a
399.853	0.079	799706	keystroke_c	c	n/a
400.0675	0.112	800135	keystroke_e	e	n/a
400.1455	0.124	800291	keystroke_r	r	n/a
400.2915	0.1125	800583	keystroke_n	n	n/a
400.4265	0.091	800853	keystroke_s	s	n/a
400.5055	0.1015	801011	keystroke_Key.space	Key.space	n/a
400.652	0.101	801304	keystroke_p	p	n/a
400.7195	0.1345	801439	keystroke_h	h	n/a
400.888	0.135	801776	keystroke_o	o	n/a
400.968	0.1225	801936	keystroke_n	n	n/a
401.0455	0.225	802091	keystroke_e	e	n/a
401.2145	0.1365	802429	keystroke_s	s	n/a
401.3605	0.135	802721	keystroke_Key.space	Key.space	n/a
401.5855	0.0675	803171	keystroke_c	c	n/a
401.743	0.158	803486	keystroke_r	r	n/a
401.8555	0.147	803711	keystroke_a	a	n/a
401.9345	0.1125	803869	keystroke_s	s	n/a
402.07	0.1005	804140	keystroke_h	h	n/a
402.3055	0.124	804611	keystroke_Key.enter	Key.enter	n/a
402.437	6.046	804874	prompt	n/a	pools selling would've download\n
403.093	0.125	806186	keystroke_p	p	n/a
403.2955	0.1015	806591	keystroke_o	o	n/a
403.498	0.09	806996	keystroke_o	o	n/a
403.678	0.09	807356	keystroke_l	l	n/a
403.768	0.1015	807536	keystroke_s	s	n/a
403.8805	0.146	807761	keystroke_Key.space	Key.space	n/a
404.0155	0.146	808031	keystroke_s	s	n/a
404.094	0.124	808188	keystroke_e	e	n/a
404.229	0.079	808458	keystroke_l	l	n/a
404.4205	0.181	808841	keystroke_l	l	n/a
404.499	0.1355	808998	keystroke_i	i	n/a
404.568	0.1225	809136	keystroke_n	n	n/a
404.645	0.1015	809290	keystroke_g	g	n/a
404.7585	0.101	809517	keystroke_Key.space	Key.space	n/a
404.8595	0.101	809719	keystroke_c	c	n/a
404.972	0.1795	809944	keystroke_o	o	n/a
405.0615	0.169	810123	keystroke_u	u	n/a
405.456	0.078	810912	keystroke_Key.backspace	Key.backspace	n/a
405.6695	0.0565	811339	keystroke_Key.backspace	Key.backspace	n/a
405.8505	0.0885	811701	keystroke_Key.backspace	Key.backspace	n/a
406.2315	0.1125	812463	keystroke_w	w	n/a
406.3555	0.1125	812711	keystroke_o	o	n/a
406.4455	0.1465	812891	keystroke_u	u	n/a
406.569	0.09	813138	keystroke_l	l	n/a
406.6815	0.1035	813363	keystroke_d	d	n/a
406.7605	0.135	813521	keystroke_'	'	n/a
406.9405	0.1235	813881	keystroke_v	v	n/a
407.0305	0.09	814061	keystroke_e	e	n/a
407.1095	0.1245	814219	keystroke_Key.space	Key.space	n/a
407.244	0.1125	814488	keystroke_d	d	n/a
407.3345	0.1575	814669	keystroke_o	o	n/a
407.5595	0.09	815119	keystroke_w	w	n/a
407.6605	0.1125	815321	keystroke_n	n	n/a
407.863	0.09	815726	keystroke_l	l	n/a
408.054	0.08	816108	keystroke_o	o	n/a
408.122	0.1235	816244	keystroke_a	a	n/a
408.234	0.101	816468	keystroke_d	d	n/a
408.3695	0.1125	816739	keystroke_Key.enter	Key.enter	n/a
408.4865	3.6075	816973	prompt	n/a	seats listed level wells\n
409.123	0.0785	818246	keystroke_s	s	n/a
409.3145	0.101	818629	keystroke_e	e	n/a
409.449	0.124	818898	keystroke_a	a	n/a
409.5395	0.1685	819079	keystroke_t	t	n/a
409.6745	0.0895	819349	keystroke_s	s	n/a
409.7865	0.1475	819573	keystroke_Key.space	Key.space	n/a
409.8765	0.1915	819753	keystroke_l	l	n/a
409.967	0.146	819934	keystroke_i	i	n/a
410.023	0.112	820046	keystroke_s	s	n/a
410.124	0.169	820248	keystroke_t	t	n/a
410.214	0.1125	820428	keystroke_e	e	n/a
410.4285	0.0895	820857	keystroke_d	d	n/a
410.5405	0.146	821081	keystroke_Key.space	Key.space	n/a
410.642	0.16	821284	keystroke_l	l	n/a
410.777	0.124	821554	keystroke_e	e	n/a
410.889	0.1465	821778	keystroke_v	v	n/a
411.002	0.101	822004	keystroke_e	e	n/a
411.125	0.136	822250	keystroke_l	l	n/a
411.2715	0.135	822543	keystroke_Key.space	Key.space	n/a
411.384	0.124	822768	keystroke_w	w	n/a
411.463	0.1125	822926	keystroke_e	e	n/a
411.564	0.09	823128	keystroke_l	l	n/a
411.767	0.0785	823534	keystroke_l	l	n/a
411.8455	0.124	823691	keystroke_s	s	n/a
411.9915	0.1015	823983	keystroke_Key.enter	Key.enter	n/a
412.097	4.0585	824194	prompt	n/a	porter sets full mountains\n
412.8015	0.1355	825603	keystroke_p	p	n/a
412.993	0.1795	825986	keystroke_o	o	n/a
413.1615	0.1015	826323	keystroke_r	r	n/a
413.353	0.09	826706	keystroke_t	t	n/a
413.5005	0.1335	827001	keystroke_e	e	n/a
413.5895	0.1185	827179	keystroke_r	r	n/a
413.679	0.146	827358	keystroke_Key.space	Key.space	n/a
413.8145	0.112	827629	keystroke_s	s	n/a
413.8595	0.191	827719	keystroke_e	e	n/a
414.0395	0.191	828079	keystroke_t	t	n/a
414.1745	0.0895	828349	keystroke_s	s	n/a
414.2865	0.1015	828573	keystroke_Key.space	Key.space	n/a
414.4005	0.111	828801	keystroke_f	f	n/a
414.4895	0.1125	828979	keystroke_u	u	n/a
414.5675	0.0795	829135	keystroke_l	l	n/a
414.76	0.124	829520	keystroke_l	l	n/a
414.851	0.1445	829702	keystroke_Key.space	Key.space	n/a
414.984	0.1125	829968	keystroke_m	m	n/a
415.1525	0.135	830305	keystroke_o	o	n/a
415.243	0.079	830486	keystroke_u	u	n/a
415.4115	0.113	830823	keystroke_n	n	n/a
415.525	0.134	831050	keystroke_t	t	n/a
415.6255	0.112	831251	keystroke_a	a	n/a
415.705	0.123	831410	keystroke_i	i	n/a
415.7835	0.1115	831567	keystroke_n	n	n/a
415.8735	0.089	831747	keystroke_s	s	n/a
416.0525	0.102	832105	keystroke_Key.enter	Key.enter	n/a
416.159	5.419	832318	prompt	n/a	tsunami madison monthly comp\n
417.0205	0.101	834041	keystroke_s	s	n/a
417.3355	0.0785	834671	keystroke_Key.backspace	Key.backspace	n/a
417.5375	0.113	835075	keystroke_t	t	n/a
417.7965	0.079	835593	keystroke_s	s	n/a
417.954	0.09	835908	keystroke_u	u	n/a
418.1905	0.1235	836381	keystroke_n	n	n/a
418.427	0.123	836854	keystroke_a	a	n/a
418.5615	0.1355	837123	keystroke_m	m	n/a
418.663	0.146	837326	keystroke_i	i	n/a
418.865	0.1355	837730	keystroke_Key.space	Key.space	n/a
419.0565	0.124	838113	keystroke_m	m	n/a
419.158	0.124	838316	keystroke_a	a	n/a
419.293	0.1015	838586	keystroke_d	d	n/a
419.3835	0.1005	838767	keystroke_i	i	n/a
419.484	0.113	838968	keystroke_s	s	n/a
419.5965	0.124	839193	keystroke_o	o	n/a
419.664	0.113	839328	keystroke_n	n	n/a
419.743	0.1245	839486	keystroke_Key.space	Key.space	n/a
419.8675	0.1	839735	keystroke_m	m	n/a
419.9905	0.1235	839981	keystroke_o	o	n/a
420.0805	0.079	840161	keystroke_n	n	n/a
420.238	0.0675	840476	keystroke_t	t	n/a
420.2715	0.135	840543	keystroke_h	h	n/a
420.519	0.1575	841038	keystroke_l	l	n/a
420.5985	0.135	841197	keystroke_y	y	n/a
420.654	0.1135	841308	keystroke_Key.space	Key.space	n/a
420.936	0.1005	841872	keystroke_c	c	n/a
421.0255	0.2475	842051	keystroke_o	o	n/a
421.1165	0.1675	842233	keystroke_m	m	n/a
421.217	0.1345	842434	keystroke_p	p	n/a
421.498	0.0785	842996	keystroke_Key.enter	Key.enter	n/a
421.5815	3.855	843163	prompt	n/a	layers birds exams plain\n
422.252	0.0675	844504	keystroke_l	l	n/a
422.364	0.09	844728	keystroke_a	a	n/a
422.443	0.101	844886	keystroke_y	y	n/a
422.5555	0.1805	845111	keystroke_e	e	n/a
422.623	0.169	845246	keystroke_r	r	n/a
422.724	0.0905	845448	keystroke_s	s	n/a
422.826	0.1345	845652	keystroke_Key.space	Key.space	n/a
423.062	0.09	846124	keystroke_b	b	n/a
423.1745	0.1125	846349	keystroke_i	i	n/a
423.2875	0.1795	846575	keystroke_r	r	n/a
423.4005	0.1675	846801	keystroke_d	d	n/a
423.512	0.135	847024	keystroke_s	s	n/a
423.6355	0.1245	847271	keystroke_Key.space	Key.space	n/a
423.7595	0.0905	847519	keystroke_e	e	n/a
423.9505	0.09	847901	keystroke_x	x	n/a
424.1305	0.1125	848261	keystroke_a	a	n/a
424.209	0.1245	848418	keystroke_m	m	n/a
424.344	0.1125	848688	keystroke_s	s	n/a
424.479	0.159	848958	keystroke_Key.space	Key.space	n/a
424.637	0.08	849274	keystroke_p	p	n/a
424.7835	0.112	849567	keystroke_l	l	n/a
424.918	0.1125	849836	keystroke_a	a	n/a
425.019	0.1355	850038	keystroke_i	i	n/a
425.098	0.1015	850196	keystroke_n	n	n/a
425.3345	0.101	850669	keystroke_Key.enter	Key.enter	n/a
425.44	6.6235	850880	prompt	n/a	others glenn vacancies excuse\n
426.19	0.1005	852380	keystroke_o	o	n/a
426.302	0.1345	852604	keystroke_t	t	n/a
426.4255	0.101	852851	keystroke_h	h	n/a
426.5165	0.1005	853033	keystroke_e	e	n/a
426.5715	0.158	853143	keystroke_r	r	n/a
426.6955	0.079	853391	keystroke_s	s	n/a
426.7515	0.124	853503	keystroke_Key.space	Key.space	n/a
426.898	0.0905	853796	keystroke_g	g	n/a
427.0005	0.1115	854001	keystroke_l	l	n/a
427.1005	0.079	854201	keystroke_e	e	n/a
427.247	0.079	854494	keystroke_n	n	n/a
427.438	0.1125	854876	keystroke_n	n	n/a
427.551	0.112	855102	keystroke_Key.space	Key.space	n/a
428.0795	0.113	856159	keystroke_v	v	n/a
428.2265	0.1115	856453	keystroke_a	a	n/a
428.4285	0.1015	856857	keystroke_c	c	n/a
428.6195	0.1235	857239	keystroke_a	a	n/a
428.806	0.095	857612	keystroke_n	n	n/a
428.969	0.123	857938	keystroke_c	c	n/a
429.0925	0.103	858185	keystroke_i	i	n/a
429.2175	0.1445	858435	keystroke_e	e	n/a
429.5305	0.0115	859061	keystroke_Key.space	Key.space	n/a
429.8345	0.079	859669	keystroke_Key.backspace	Key.backspace	n/a
430.2395	0.1235	860479	keystroke_s	s	n/a
430.4765	0.135	860953	keystroke_Key.space	Key.space	n/a
430.746	0.068	861492	keystroke_e	e	n/a
430.9935	0.0905	861987	keystroke_x	x	n/a
431.376	0.101	862752	keystroke_c	c	n/a
431.5005	0.101	863001	keystroke_u	u	n/a
431.691	0.1585	863382	keystroke_s	s	n/a
431.7585	0.1245	863517	keystroke_e	e	n/a
431.961	0.101	863922	keystroke_Key.enter	Key.enter	n/a
432.067	6.1615	864134	prompt	n/a	replication extraordinary pushing mothers\n
432.928	0.1355	865856	keystroke_r	r	n/a
433.041	0.1125	866082	keystroke_e	e	n/a
433.221	0.1015	866442	keystroke_p	p	n/a
433.4575	0.191	866915	keystroke_l	l	n/a
433.547	0.1615	867094	keystroke_i	i	n/a
433.727	0.113	867454	keystroke_c	c	n/a
433.9075	0.1455	867815	keystroke_a	a	n/a
434.0195	0.1235	868039	keystroke_t	t	n/a
434.177	0.214	868354	keystroke_i	i	n/a
434.2225	0.1575	868445	keystroke_o	o	n/a
434.2785	0.169	868557	keystroke_n	n	n/a
434.3455	0.1575	868691	keystroke_Key.space	Key.space	n/a
434.458	0.113	868916	keystroke_e	e	n/a
434.6725	0.1455	869345	keystroke_x	x	n/a
434.807	0.0905	869614	keystroke_t	t	n/a
434.9985	0.1345	869997	keystroke_r	r	n/a
435.1	0.123	870200	keystroke_a	a	n/a
435.2575	0.1235	870515	keystroke_o	o	n/a
435.37	0.157	870740	keystroke_r	r	n/a
435.4935	0.1125	870987	keystroke_d	d	n/a
435.6175	0.1575	871235	keystroke_i	i	n/a
435.696	0.146	871392	keystroke_n	n	n/a
435.8085	0.146	871617	keystroke_a	a	n/a
436	0.1345	872000	keystroke_r	r	n/a
436.1235	0.112	872247	keystroke_y	y	n/a
436.202	0.101	872404	keystroke_Key.space	Key.space	n/a
436.45	0.1575	872900	keystroke_p	p	n/a
436.5515	0.1235	873103	keystroke_u	u	n/a
436.6855	0.102	873371	keystroke_s	s	n/a
436.787	0.124	873574	keystroke_h	h	n/a
436.9445	0.1125	873889	keystroke_i	i	n/a
437.001	0.09	874002	keystroke_n	n	n/a
437.102	0.091	874204	keystroke_g	g	n/a
437.181	0.146	874362	keystroke_Key.space	Key.space	n/a
437.226	0.135	874452	keystroke_m	m	n/a
437.35	0.112	874700	keystroke_o	o	n/a
437.5075	0.101	875015	keystroke_t	t	n/a
437.62	0.1135	875240	keystroke_h	h	n/a
437.6875	0.157	875375	keystroke_e	e	n/a
437.7885	0.203	875577	keystroke_r	r	n/a
437.924	0.123	875848	keystroke_s	s	n/a
438.1145	0.113	876229	keystroke_Key.enter	Key.enter	n/a
438.2325	4.0795	876465	prompt	n/a	lung joint formerly solve\n
438.8905	0.1355	877781	keystroke_l	l	n/a
438.9925	0.124	877985	keystroke_u	u	n/a
439.217	0.09	878434	keystroke_n	n	n/a
439.33	0.101	878660	keystroke_g	g	n/a
439.4085	0.1465	878817	keystroke_Key.space	Key.space	n/a
439.487	0.169	878974	keystroke_j	j	n/a
439.6675	0.2025	879335	keystroke_o	o	n/a
439.768	0.169	879536	keystroke_i	i	n/a
439.8475	0.1235	879695	keystroke_n	n	n/a
439.9835	0.0995	879967	keystroke_t	t	n/a
440.072	0.124	880144	keystroke_Key.space	Key.space	n/a
440.433	0.123	880866	keystroke_f	f	n/a
440.5895	0.079	881179	keystroke_o	o	n/a
440.6795	0.124	881359	keystroke_r	r	n/a
440.783	0.1335	881566	keystroke_m	m	n/a
440.871	0.1685	881742	keystroke_e	e	n/a
440.961	0.135	881922	keystroke_r	r	n/a
441.152	0.1915	882304	keystroke_l	l	n/a
441.242	0.1465	882484	keystroke_y	y	n/a
441.3545	0.101	882709	keystroke_Key.space	Key.space	n/a
441.4895	0.101	882979	keystroke_s	s	n/a
441.5795	0.09	883159	keystroke_o	o	n/a
441.771	0.112	883542	keystroke_l	l	n/a
441.861	0.1915	883722	keystroke_v	v	n/a
441.985	0.123	883970	keystroke_e	e	n/a
442.2205	0.09	884441	keystroke_Key.enter	Key.enter	n/a
442.3155	4.7325	884631	prompt	n/a	cruz call shops religions\n
443.0305	0.0905	886061	keystroke_c	c	n/a
443.357	0.124	886714	keystroke_r	r	n/a
443.5375	0.101	887075	keystroke_u	u	n/a
443.672	0.101	887344	keystroke_z	z	n/a
443.7845	0.135	887569	keystroke_Key.space	Key.space	n/a
444.066	0.1125	888132	keystroke_c	c	n/a
444.2235	0.1235	888447	keystroke_a	a	n/a
444.336	0.0675	888672	keystroke_l	l	n/a
444.527	0.1235	889054	keystroke_l	l	n/a
444.617	0.113	889234	keystroke_Key.space	Key.space	n/a
444.7295	0.0785	889459	keystroke_s	s	n/a
444.8535	0.1355	889707	keystroke_h	h	n/a
445.0895	0.135	890179	keystroke_o	o	n/a
445.1915	0.146	890383	keystroke_p	p	n/a
445.3825	0.101	890765	keystroke_s	s	n/a
445.5285	0.1595	891057	keystroke_Key.space	Key.space	n/a
445.7195	0.1465	891439	keystroke_r	r	n/a
445.8095	0.135	891619	keystroke_e	e	n/a
445.933	0.1805	891866	keystroke_l	l	n/a
446.0685	0.101	892137	keystroke_i	i	n/a
446.204	0.112	892408	keystroke_g	g	n/a
446.327	0.2475	892654	keystroke_i	i	n/a
446.417	0.169	892834	keystroke_o	o	n/a
446.496	0.146	892992	keystroke_n	n	n/a
446.6195	0.102	893239	keystroke_s	s	n/a
446.9345	0.1125	893869	keystroke_Key.enter	Key.enter	n/a
447.051	4.4635	894102	prompt	n/a	tires sonic faced coffee\n
447.722	0.09	895444	keystroke_t	t	n/a
447.857	0.1015	895714	keystroke_i	i	n/a
447.947	0.2025	895894	keystroke_r	r	n/a
448.0375	0.1685	896075	keystroke_e	e	n/a
448.1385	0.1235	896277	keystroke_s	s	n/a
448.2395	0.146	896479	keystroke_Key.space	Key.space	n/a
448.566	0.0895	897132	keystroke_s	s	n/a
448.633	0.158	897266	keystroke_o	o	n/a
448.746	0.135	897492	keystroke_n	n	n/a
448.8695	0.101	897739	keystroke_i	i	n/a
448.96	0.078	897920	keystroke_c	c	n/a
449.0605	0.147	898121	keystroke_Key.space	Key.space	n/a
449.263	0.147	898526	keystroke_f	f	n/a
449.3995	0.134	898799	keystroke_a	a	n/a
449.601	0.1125	899202	keystroke_c	c	n/a
449.837	0.0565	899674	keystroke_e	e	n/a
450.04	0.0675	900080	keystroke_d	d	n/a
450.31	0.1125	900620	keystroke_Key.space	Key.space	n/a
450.456	0.0785	900912	keystroke_c	c	n/a
450.6025	0.101	901205	keystroke_o	o	n/a
450.751	0.076	901502	keystroke_f	f	n/a
450.9735	0.1015	901947	keystroke_f	f	n/a
451.0635	0.112	902127	keystroke_e	e	n/a
451.2775	0.0675	902555	keystroke_e	e	n/a
451.39	0.1235	902780	keystroke_Key.enter	Key.enter	n/a
451.5185	6.6335	903037	prompt	n/a	primarily delivered toshiba examination\n
452.357	0.113	904714	keystroke_p	p	n/a
452.5155	0.1005	905031	keystroke_r	r	n/a
452.627	0.1465	905254	keystroke_i	i	n/a
452.706	0.1575	905412	keystroke_m	m	n/a
452.841	0.125	905682	keystroke_a	a	n/a
452.942	0.1015	905884	keystroke_r	r	n/a
453.055	0.1125	906110	keystroke_i	i	n/a
453.1785	0.2025	906357	keystroke_l	l	n/a
453.3135	0.1355	906627	keystroke_y	y	n/a
453.392	0.135	906784	keystroke_Key.space	Key.space	n/a
453.5495	0.079	907099	keystroke_d	d	n/a
453.741	0.09	907482	keystroke_e	e	n/a
453.842	0.169	907684	keystroke_l	l	n/a
453.9325	0.135	907865	keystroke_i	i	n/a
454.0455	0.078	908091	keystroke_v	v	n/a
454.1795	0.124	908359	keystroke_e	e	n/a
454.281	0.202	908562	keystroke_r	r	n/a
454.4045	0.124	908809	keystroke_e	e	n/a
454.618	0.0905	909236	keystroke_d	d	n/a
454.742	0.113	909484	keystroke_Key.space	Key.space	n/a
454.8665	0.101	909733	keystroke_t	t	n/a
454.99	0.1235	909980	keystroke_o	o	n/a
455.17	0.0895	910340	keystroke_s	s	n/a
455.271	0.112	910542	keystroke_h	h	n/a
455.372	0.169	910744	keystroke_i	i	n/a
456.092	0.1015	912184	keystroke_b	b	n/a
456.306	0.112	912612	keystroke_a	a	n/a
456.441	0.135	912882	keystroke_Key.space	Key.space	n/a
456.532	0.1	913064	keystroke_e	e	n/a
456.7445	0.09	913489	keystroke_x	x	n/a
456.9585	0.0675	913917	keystroke_a	a	n/a
457.0375	0.112	914075	keystroke_m	m	n/a
457.1835	0.1465	914367	keystroke_i	i	n/a
457.2845	0.124	914569	keystroke_n	n	n/a
457.442	0.1355	914884	keystroke_a	a	n/a
457.5435	0.135	915087	keystroke_t	t	n/a
457.6225	0.2135	915245	keystroke_i	i	n/a
457.704	0.143	915408	keystroke_o	o	n/a
457.7685	0.1345	915537	keystroke_n	n	n/a
458.0385	0.1125	916077	keystroke_Key.enter	Key.enter	n/a
458.1545	6.5345	916309	prompt	n/a	skin hepatitis discipline hampshire\n
458.77	0.112	917540	keystroke_s	s	n/a
458.9045	0.079	917809	keystroke_k	k	n/a
459.096	0.1235	918192	keystroke_i	i	n/a
459.141	0.1355	918282	keystroke_n	n	n/a
459.232	0.1225	918464	keystroke_Key.space	Key.space	n/a
459.4565	0.112	918913	keystroke_h	h	n/a
459.6365	0.09	919273	keystroke_e	e	n/a
459.884	0.18	919768	keystroke_p	p	n/a
460.6715	0.135	921343	keystroke_a	a	n/a
460.829	0.09	921658	keystroke_t	t	n/a
460.9865	0.0895	921973	keystroke_i	i	n/a
461.099	0.112	922198	keystroke_t	t	n/a
461.391	0.101	922782	keystroke_i	i	n/a
461.5155	0.112	923031	keystroke_s	s	n/a
461.6385	0.1235	923277	keystroke_Key.space	Key.space	n/a
462.055	0.101	924110	keystroke_d	d	n/a
462.168	0.1005	924336	keystroke_i	i	n/a
462.291	0.0675	924582	keystroke_s	s	n/a
462.4825	0.0785	924965	keystroke_c	c	n/a
462.527	0.169	925054	keystroke_i	i	n/a
462.7075	0.1125	925415	keystroke_p	p	n/a
462.9435	0.192	925887	keystroke_l	l	n/a
463.0225	0.1575	926045	keystroke_i	i	n/a
463.1015	0.1015	926203	keystroke_n	n	n/a
463.1685	0.114	926337	keystroke_e	e	n/a
463.2705	0.1345	926541	keystroke_Key.space	Key.space	n/a
463.371	0.09	926742	keystroke_h	h	n/a
463.4725	0.112	926945	keystroke_a	a	n/a
463.562	0.113	927124	keystroke_m	m	n/a
463.6635	0.1355	927327	keystroke_p	p	n/a
463.7875	0.101	927575	keystroke_s	s	n/a
463.9	0.1235	927800	keystroke_h	h	n/a
464.001	0.124	928002	keystroke_i	i	n/a
464.091	0.1245	928182	keystroke_r	r	n/a
464.193	0.1115	928386	keystroke_e	e	n/a
464.586	0.1015	929172	keystroke_Key.enter	Key.enter	n/a
464.6925	6.195	929385	prompt	n/a	expired unexpected henry gotten\n
465.3285	0.09	930657	keystroke_e	e	n/a
465.5535	0.1125	931107	keystroke_x	x	n/a
465.6775	0.1345	931355	keystroke_p	p	n/a
465.846	0.1245	931692	keystroke_i	i	n/a
465.925	0.146	931850	keystroke_r	r	n/a
466.026	0.09	932052	keystroke_e	e	n/a
466.2285	0.0785	932457	keystroke_d	d	n/a
466.5325	0.1575	933065	keystroke_Key.space	Key.space	n/a
466.915	0.124	933830	keystroke_e	e	n/a
467.252	0.0905	934504	keystroke_Key.backspace	Key.backspace	n/a
467.4995	0.0905	934999	keystroke_u	u	n/a
467.692	0.0895	935384	keystroke_n	n	n/a
467.8485	0.0675	935697	keystroke_e	e	n/a
468.04	0.112	936080	keystroke_x	x	n/a
468.1635	0.146	936327	keystroke_p	p	n/a
468.2875	0.09	936575	keystroke_e	e	n/a
468.5125	0.103	937025	keystroke_c	c	n/a
468.7265	0.112	937453	keystroke_t	t	n/a
468.805	0.09	937610	keystroke_e	e	n/a
469.0075	0.0785	938015	keystroke_d	d	n/a
469.1085	0.135	938217	keystroke_Key.space	Key.space	n/a
469.187	0.1125	938374	keystroke_h	h	n/a
469.3225	0.0895	938645	keystroke_e	e	n/a
469.401	0.0785	938802	keystroke_n	n	n/a
469.5485	0.1115	939097	keystroke_r	r	n/a
469.683	0.123	939366	keystroke_y	y	n/a
469.773	0.0895	939546	keystroke_Key.space	Key.space	n/a
469.8745	0.089	939749	keystroke_g	g	n/a
469.9985	0.1005	939997	keystroke_o	o	n/a
470.11	0.1015	940220	keystroke_t	t	n/a
470.3345	0.135	940669	keystroke_t	t	n/a
470.425	0.1015	940850	keystroke_e	e	n/a
470.515	0.1015	941030	keystroke_n	n	n/a
470.7735	0.113	941547	keystroke_Key.enter	Key.enter	n/a
470.891	4.0805	941782	prompt	n/a	fold brands texas printers\n
471.5045	0.0795	943009	keystroke_f	f	n/a
471.5725	0.1125	943145	keystroke_o	o	n/a
471.7865	0.09	943573	keystroke_l	l	n/a
471.865	0.112	943730	keystroke_d	d	n/a
471.9885	0.135	943977	keystroke_Key.space	Key.space	n/a
472.1015	0.0785	944203	keystroke_b	b	n/a
472.304	0.18	944608	keystroke_r	r	n/a
472.45	0.157	944900	keystroke_a	a	n/a
472.6415	0.0785	945283	keystroke_n	n	n/a
472.732	0.1565	945464	keystroke_d	d	n/a
472.81	0.1235	945620	keystroke_s	s	n/a
472.9345	0.134	945869	keystroke_Key.space	Key.space	n/a
473.057	0.1465	946114	keystroke_t	t	n/a
473.1365	0.123	946273	keystroke_e	e	n/a
473.361	0.09	946722	keystroke_x	x	n/a
473.565	0.1225	947130	keystroke_a	a	n/a
473.62	0.101	947240	keystroke_s	s	n/a
473.732	0.1575	947464	keystroke_Key.space	Key.space	n/a
473.822	0.147	947644	keystroke_p	p	n/a
473.9795	0.102	947959	keystroke_r	r	n/a
474.0815	0.1455	948163	keystroke_i	i	n/a
474.1485	0.1575	948297	keystroke_n	n	n/a
474.261	0.09	948522	keystroke_t	t	n/a
474.4185	0.1575	948837	keystroke_e	e	n/a
474.5085	0.225	949017	keystroke_r	r	n/a
474.6995	0.113	949399	keystroke_s	s	n/a
474.846	0.1245	949692	keystroke_Key.enter	Key.enter	n/a
474.975	5.8925	949950	prompt	n/a	attachment extremely extreme increases\n
475.7345	0.08	951469	keystroke_a	a	n/a
475.938	0.067	951876	keystroke_t	t	n/a
476.1395	0.1355	952279	keystroke_t	t	n/a
476.2525	0.1125	952505	keystroke_a	a	n/a
476.455	0.112	952910	keystroke_c	c	n/a
476.556	0.09	953112	keystroke_h	h	n/a
476.7485	0.089	953497	keystroke_m	m	n/a
476.8595	0.113	953719	keystroke_e	e	n/a
476.961	0.09	953922	keystroke_n	n	n/a
477.062	0.103	954124	keystroke_t	t	n/a
477.1415	0.1235	954283	keystroke_Key.space	Key.space	n/a
477.2425	0.09	954485	keystroke_e	e	n/a
477.4335	0.135	954867	keystroke_x	x	n/a
477.58	0.09	955160	keystroke_t	t	n/a
477.7825	0.1345	955565	keystroke_r	r	n/a
477.861	0.124	955722	keystroke_e	e	n/a
477.9735	0.1125	955947	keystroke_m	m	n/a
478.1085	0.1015	956217	keystroke_e	e	n/a
478.1985	0.1915	956397	keystroke_l	l	n/a
478.278	0.1345	956556	keystroke_y	y	n/a
478.356	0.1235	956712	keystroke_Key.space	Key.space	n/a
478.412	0.1035	956824	keystroke_e	e	n/a
478.615	0.1235	957230	keystroke_x	x	n/a
478.8175	0.0785	957635	keystroke_t	t	n/a
478.998	0.123	957996	keystroke_r	r	n/a
479.076	0.1125	958152	keystroke_e	e	n/a
479.245	0.0895	958490	keystroke_m	m	n/a
479.3125	0.1125	958625	keystroke_e	e	n/a
479.436	0.1125	958872	keystroke_Key.space	Key.space	n/a
479.6165	0.146	959233	keystroke_i	i	n/a
479.695	0.146	959390	keystroke_n	n	n/a
479.7845	0.091	959569	keystroke_c	c	n/a
479.987	0.169	959974	keystroke_r	r	n/a
480.1	0.157	960200	keystroke_e	e	n/a
480.281	0.1115	960562	keystroke_a	a	n/a
480.3585	0.1125	960717	keystroke_s	s	n/a
480.4825	0.18	960965	keystroke_e	e	n/a
480.595	0.1235	961190	keystroke_s	s	n/a
480.741	0.125	961482	keystroke_Key.enter	Key.enter	n/a
480.873	5.3365	961746	prompt	n/a	openings journalist herald walker\n
481.5625	0.1805	963125	keystroke_o	o	n/a
481.6635	0.1575	963327	keystroke_p	p	n/a
481.8435	0.09	963687	keystroke_e	e	n/a
481.956	0.1125	963912	keystroke_n	n	n/a
482.091	0.1465	964182	keystroke_i	i	n/a
482.181	0.124	964362	keystroke_n	n	n/a
482.2825	0.1235	964565	keystroke_g	g	n/a
482.3725	0.0785	964745	keystroke_s	s	n/a
482.44	0.135	964880	keystroke_Key.space	Key.space	n/a
482.6195	0.1015	965239	keystroke_j	j	n/a
482.766	0.1575	965532	keystroke_o	o	n/a
482.8445	0.1125	965689	keystroke_u	u	n/a
482.935	0.113	965870	keystroke_r	r	n/a
483.0585	0.09	966117	keystroke_n	n	n/a
483.171	0.1015	966342	keystroke_a	a	n/a
483.2385	0.1685	966477	keystroke_l	l	n/a
483.3285	0.1235	966657	keystroke_i	i	n/a
483.4185	0.1235	966837	keystroke_s	s	n/a
483.486	0.1125	966972	keystroke_t	t	n/a
483.5535	0.113	967107	keystroke_Key.space	Key.space	n/a
483.7335	0.124	967467	keystroke_h	h	n/a
484.0935	0.1125	968187	keystroke_e	e	n/a
484.375	0.1235	968750	keystroke_r	r	n/a
484.555	0.1235	969110	keystroke_a	a	n/a
484.7125	0.136	969425	keystroke_l	l	n/a
484.8925	0.09	969785	keystroke_d	d	n/a
484.9935	0.135	969987	keystroke_Key.space	Key.space	n/a
485.2305	0.157	970461	keystroke_w	w	n/a
485.466	0.1465	970932	keystroke_a	a	n/a
485.6235	0.1915	971247	keystroke_l	l	n/a
485.7255	0.1455	971451	keystroke_k	k	n/a
485.86	0.1345	971720	keystroke_e	e	n/a
485.9725	0.101	971945	keystroke_r	r	n/a
486.1075	0.101	972215	keystroke_Key.enter	Key.enter	n/a
486.2125	4.666	972425	prompt	n/a	shipping periodic doom luis\n
486.816	0.09	973632	keystroke_s	s	n/a
486.895	0.146	973790	keystroke_h	h	n/a
487.0075	0.191	974015	keystroke_i	i	n/a
487.1875	0.09	974375	keystroke_p	p	n/a
487.39	0.091	974780	keystroke_p	p	n/a
487.491	0.1575	974982	keystroke_i	i	n/a
487.581	0.1035	975162	keystroke_n	n	n/a
487.6375	0.1015	975275	keystroke_g	g	n/a
487.75	0.1125	975500	keystroke_Key.space	Key.space	n/a
488.335	0.1345	976670	keystroke_p	p	n/a
488.4585	0.135	976917	keystroke_e	e	n/a
488.5375	0.135	977075	keystroke_r	r	n/a
488.639	0.1345	977278	keystroke_i	i	n/a
488.74	0.101	977480	keystroke_o	o	n/a
488.886	0.09	977772	keystroke_d	d	n/a
489.01	0.101	978020	keystroke_i	i	n/a
489.145	0.09	978290	keystroke_c	c	n/a
489.246	0.1125	978492	keystroke_Key.space	Key.space	n/a
489.4485	0.09	978897	keystroke_d	d	n/a
489.516	0.079	979032	keystroke_o	o	n/a
489.708	0.1235	979416	keystroke_o	o	n/a
489.7755	0.1345	979551	keystroke_m	m	n/a
489.876	0.1125	979752	keystroke_Key.space	Key.space	n/a
490.0335	0.148	980067	keystroke_l	l	n/a
490.1585	0.1345	980317	keystroke_u	u	n/a
490.281	0.1465	980562	keystroke_i	i	n/a
490.405	0.1125	980810	keystroke_s	s	n/a
490.7875	0.09	981575	keystroke_Key.enter	Key.enter	n/a
490.8825	4.8785	981765	prompt	n/a	incredible health determine lance\n
491.5975	0.1355	983195	keystroke_i	i	n/a
491.665	0.146	983330	keystroke_n	n	n/a
491.7885	0.1015	983577	keystroke_c	c	n/a
491.991	0.124	983982	keystroke_r	r	n/a
492.07	0.101	984140	keystroke_e	e	n/a
492.2725	0.0785	984545	keystroke_d	d	n/a
492.385	0.113	984770	keystroke_i	i	n/a
492.4975	0.1015	984995	keystroke_b	b	n/a
492.621	0.113	985242	keystroke_l	l	n/a
492.7005	0.0895	985401	keystroke_e	e	n/a
492.8015	0.135	985603	keystroke_Key.space	Key.space	n/a
492.891	0.135	985782	keystroke_h	h	n/a
493.0375	0.1465	986075	keystroke_e	e	n/a
493.1275	0.137	986255	keystroke_a	a	n/a
493.229	0.1025	986458	keystroke_l	l	n/a
493.3645	0.1005	986729	keystroke_t	t	n/a
493.454	0.1235	986908	keystroke_h	h	n/a
493.5435	0.1125	987087	keystroke_Key.space	Key.space	n/a
493.645	0.09	987290	keystroke_d	d	n/a
493.848	0.112	987696	keystroke_e	e	n/a
493.9485	0.1125	987897	keystroke_t	t	n/a
494.1285	0.1355	988257	keystroke_e	e	n/a
494.208	0.1235	988416	keystroke_r	r	n/a
494.2975	0.09	988595	keystroke_m	m	n/a
494.432	0.1135	988864	keystroke_i	i	n/a
494.489	0.1235	988978	keystroke_n	n	n/a
494.5785	0.0905	989157	keystroke_e	e	n/a
494.681	0.134	989362	keystroke_Key.space	Key.space	n/a
494.916	0.1125	989832	keystroke_l	l	n/a
495.0515	0.1235	990103	keystroke_a	a	n/a
495.164	0.1125	990328	keystroke_n	n	n/a
495.2875	0.1015	990575	keystroke_c	c	n/a
495.5135	0.067	991027	keystroke_e	e	n/a
495.659	0.101	991318	keystroke_Key.enter	Key.enter	n/a
495.7645	5.003	991529	prompt	n/a	provider exhibitions camera lake\n
496.5475	0.1575	993095	keystroke_p	p	n/a
496.831	0.11	993662	keystroke_r	r	n/a
496.9525	0.1125	993905	keystroke_o	o	n/a
497.099	0.0785	994198	keystroke_v	v	n/a
497.301	0.113	994602	keystroke_i	i	n/a
497.425	0.09	994850	keystroke_d	d	n/a
497.6275	0.1235	995255	keystroke_e	e	n/a
497.7175	0.101	995435	keystroke_r	r	n/a
497.8075	0.1015	995615	keystroke_Key.space	Key.space	n/a
497.8975	0.0675	995795	keystroke_e	e	n/a
498.1225	0.079	996245	keystroke_x	x	n/a
498.201	0.1015	996402	keystroke_h	h	n/a
498.281	0.089	996562	keystroke_i	i	n/a
498.4035	0.102	996807	keystroke_b	b	n/a
498.506	0.078	997012	keystroke_i	i	n/a
498.664	0.101	997328	keystroke_t	t	n/a
498.7415	0.2025	997483	keystroke_i	i	n/a
498.8315	0.1345	997663	keystroke_o	o	n/a
498.8765	0.1465	997753	keystroke_n	n	n/a
499	0.079	998000	keystroke_s	s	n/a
499.1125	0.1465	998225	keystroke_Key.space	Key.space	n/a
499.27	0.068	998540	keystroke_c	c	n/a
499.416	0.1015	998832	keystroke_a	a	n/a
499.5285	0.1355	999057	keystroke_m	m	n/a
499.6415	0.135	999283	keystroke_e	e	n/a
499.732	0.1565	999464	keystroke_r	r	n/a
499.878	0.123	999756	keystroke_a	a	n/a
499.991	0.1455	999982	keystroke_Key.space	Key.space	n/a
500.1145	0.124	1000229	keystroke_l	l	n/a
500.2385	0.102	1000477	keystroke_a	a	n/a
500.35	0.125	1000700	keystroke_k	k	n/a
500.464	0.1005	1000928	keystroke_e	e	n/a
500.654	0.1125	1001308	keystroke_Key.enter	Key.enter	n/a
500.773	7.4655	1001546	prompt	n/a	funded specialty inquiries screensaver\n
501.4865	0.1125	1002973	keystroke_f	f	n/a
501.61	0.0565	1003220	keystroke_u	u	n/a
501.779	0.1015	1003558	keystroke_n	n	n/a
501.869	0.079	1003738	keystroke_d	d	n/a
502.083	0.0895	1004166	keystroke_e	e	n/a
502.297	0.0785	1004594	keystroke_d	d	n/a
502.4425	0.091	1004885	keystroke_Key.space	Key.space	n/a
502.87	0.09	1005740	keystroke_s	s	n/a
502.994	0.146	1005988	keystroke_p	p	n/a
503.1515	0.09	1006303	keystroke_e	e	n/a
503.41	0.0905	1006820	keystroke_c	c	n/a
503.5345	0.123	1007069	keystroke_i	i	n/a
503.669	0.1235	1007338	keystroke_a	a	n/a
503.827	0.168	1007654	keystroke_l	l	n/a
504.569	0.09	1009138	keystroke_t	t	n/a
504.7375	0.124	1009475	keystroke_y	y	n/a
504.839	0.101	1009678	keystroke_Key.space	Key.space	n/a
505.0075	0.1355	1010015	keystroke_i	i	n/a
505.064	0.135	1010128	keystroke_n	n	n/a
505.38	0.1005	1010760	keystroke_q	q	n/a
505.481	0.1345	1010962	keystroke_u	u	n/a
505.571	0.123	1011142	keystroke_i	i	n/a
505.75	0.1135	1011500	keystroke_r	r	n/a
505.8515	0.1235	1011703	keystroke_i	i	n/a
505.964	0.169	1011928	keystroke_e	e	n/a
506.054	0.135	1012108	keystroke_s	s	n/a
506.1555	0.1685	1012311	keystroke_Key.space	Key.space	n/a
506.347	0.101	1012694	keystroke_s	s	n/a
506.594	0.079	1013188	keystroke_c	c	n/a
506.774	0.124	1013548	keystroke_r	r	n/a
506.864	0.09	1013728	keystroke_e	e	n/a
507.033	0.09	1014066	keystroke_e	e	n/a
507.1235	0.1235	1014247	keystroke_n	n	n/a
507.235	0.113	1014470	keystroke_s	s	n/a
507.393	0.1345	1014786	keystroke_a	a	n/a
507.584	0.1205	1015168	keystroke_v	v	n/a
507.775	0.154	1015550	keystroke_e	e	n/a
507.8765	0.1235	1015753	keystroke_r	r	n/a
508.124	0.1125	1016248	keystroke_Key.enter	Key.enter	n/a
508.2425	5.935	1016485	prompt	n/a	oughtn't curriculum fusion denial\n
508.9115	0.1805	1017823	keystroke_o	o	n/a
509.014	0.1225	1018028	keystroke_u	u	n/a
509.1815	0.1125	1018363	keystroke_g	g	n/a
509.3165	0.0905	1018633	keystroke_h	h	n/a
509.429	0.1015	1018858	keystroke_t	t	n/a
509.5415	0.1015	1019083	keystroke_n	n	n/a
509.7215	0.1125	1019443	keystroke_'	'	n/a
510.115	0.1015	1020230	keystroke_t	t	n/a
510.442	0.112	1020884	keystroke_Key.space	Key.space	n/a
510.7225	0.1255	1021445	keystroke_c	c	n/a
510.903	0.1125	1021806	keystroke_u	u	n/a
511.0155	0.079	1022031	keystroke_r	r	n/a
511.2175	0.0675	1022435	keystroke_r	r	n/a
511.2635	0.0785	1022527	keystroke_i	i	n/a
511.409	0.113	1022818	keystroke_c	c	n/a
511.51	0.1015	1023020	keystroke_u	u	n/a
511.718	0.1295	1023436	keystroke_l	l	n/a
511.8255	0.1015	1023651	keystroke_u	u	n/a
512.039	0.146	1024078	keystroke_m	m	n/a
512.13	0.1115	1024260	keystroke_Key.space	Key.space	n/a
512.264	0.1015	1024528	keystroke_f	f	n/a
512.377	0.1005	1024754	keystroke_u	u	n/a
512.5005	0.1235	1025001	keystroke_s	s	n/a
512.6355	0.135	1025271	keystroke_i	i	n/a
512.782	0.157	1025564	keystroke_o	o	n/a
512.8715	0.1685	1025743	keystroke_n	n	n/a
512.9725	0.135	1025945	keystroke_Key.space	Key.space	n/a
513.0855	0.067	1026171	keystroke_d	d	n/a
513.2765	0.068	1026553	keystroke_e	e	n/a
513.3555	0.1125	1026711	keystroke_n	n	n/a
513.547	0.101	1027094	keystroke_i	i	n/a
513.6595	0.101	1027319	keystroke_a	a	n/a
513.7825	0.1245	1027565	keystroke_l	l	n/a
514.0975	0.079	1028195	keystroke_Key.enter	Key.enter	n/a
514.181	5.554	1028362	prompt	n/a	surrounding aggregate snow convicted\n
514.8515	0.0905	1029703	keystroke_s	s	n/a
515.0315	0.068	1030063	keystroke_u	u	n/a
515.122	0.09	1030244	keystroke_r	r	n/a
515.313	0.101	1030626	keystroke_r	r	n/a
515.403	0.112	1030806	keystroke_o	o	n/a
515.459	0.0785	1030918	keystroke_u	u	n/a
515.6505	0.0795	1031301	keystroke_n	n	n/a
515.7855	0.079	1031571	keystroke_d	d	n/a
515.853	0.112	1031706	keystroke_i	i	n/a
515.9205	0.1015	1031841	keystroke_n	n	n/a
516.01	0.079	1032020	keystroke_g	g	n/a
516.123	0.169	1032246	keystroke_Key.space	Key.space	n/a
516.2015	0.124	1032403	keystroke_a	a	n/a
516.303	0.0895	1032606	keystroke_g	g	n/a
516.5055	0.067	1033011	keystroke_g	g	n/a
516.6965	0.124	1033393	keystroke_r	r	n/a
516.7755	0.079	1033551	keystroke_e	e	n/a
516.9555	0.1255	1033911	keystroke_g	g	n/a
517.1465	0.101	1034293	keystroke_a	a	n/a
517.203	0.1575	1034406	keystroke_t	t	n/a
517.315	0.0905	1034630	keystroke_e	e	n/a
517.4165	0.101	1034833	keystroke_Key.space	Key.space	n/a
517.5405	0.1015	1035081	keystroke_s	s	n/a
517.6415	0.1125	1035283	keystroke_n	n	n/a
517.7315	0.0905	1035463	keystroke_o	o	n/a
517.788	0.1015	1035576	keystroke_w	w	n/a
517.9	0.124	1035800	keystroke_Key.space	Key.space	n/a
518.2945	0.0555	1036589	keystroke_c	c	n/a
518.362	0.1235	1036724	keystroke_o	o	n/a
518.407	0.135	1036814	keystroke_n	n	n/a
518.5755	0.0675	1037151	keystroke_v	v	n/a
518.654	0.146	1037308	keystroke_i	i	n/a
518.7895	0.112	1037579	keystroke_c	c	n/a
519.037	0.146	1038074	keystroke_t	t	n/a
519.127	0.101	1038254	keystroke_e	e	n/a
519.3405	0.101	1038681	keystroke_d	d	n/a
519.633	0.101	1039266	keystroke_Key.enter	Key.enter	n/a
519.7385	6.1395	1039477	prompt	n/a	harvey knight karaoke assessment\n
520.6465	0.1115	1041293	keystroke_h	h	n/a
520.815	0.1115	1041630	keystroke_a	a	n/a
520.8815	0.1015	1041763	keystroke_r	r	n/a
521.107	0.0785	1042214	keystroke_v	v	n/a
521.2985	0.1005	1042597	keystroke_e	e	n/a
521.411	0.123	1042822	keystroke_y	y	n/a
521.489	0.102	1042978	keystroke_Key.space	Key.space	n/a
521.67	0.112	1043340	keystroke_k	k	n/a
521.928	0.1355	1043856	keystroke_n	n	n/a
522.03	0.1115	1044060	keystroke_i	i	n/a
522.1865	0.1245	1044373	keystroke_g	g	n/a
522.2885	0.1005	1044577	keystroke_h	h	n/a
522.4235	0.1005	1044847	keystroke_t	t	n/a
522.4905	0.146	1044981	keystroke_Key.space	Key.space	n/a
522.671	0.157	1045342	keystroke_k	k	n/a
522.8395	0.112	1045679	keystroke_a	a	n/a
522.9185	0.1795	1045837	keystroke_r	r	n/a
523.087	0.1135	1046174	keystroke_a	a	n/a
523.3905	0.09	1046781	keystroke_o	o	n/a
523.593	0.146	1047186	keystroke_k	k	n/a
523.7505	0.101	1047501	keystroke_e	e	n/a
523.886	0.1455	1047772	keystroke_Key.space	Key.space	n/a
524.0765	0.0905	1048153	keystroke_a	a	n/a
524.1445	0.1025	1048289	keystroke_s	s	n/a
524.3805	0.1015	1048761	keystroke_s	s	n/a
524.5605	0.192	1049121	keystroke_e	e	n/a
524.662	0.124	1049324	keystroke_s	s	n/a
524.8985	0.09	1049797	keystroke_s	s	n/a
525.0105	0.101	1050021	keystroke_m	m	n/a
525.1565	0.1245	1050313	keystroke_e	e	n/a
525.247	0.079	1050494	keystroke_n	n	n/a
525.3815	0.102	1050763	keystroke_t	t	n/a
525.776	0.1005	1051552	keystroke_Key.enter	Key.enter	n/a
525.881	5.3295	1051762	prompt	n/a	sister bikes readers competitions\n
526.507	0.067	1053014	keystroke_s	s	n/a
526.6305	0.1245	1053261	keystroke_i	i	n/a
526.698	0.159	1053396	keystroke_s	s	n/a
526.8895	0.1235	1053779	keystroke_t	t	n/a
527.0805	0.1125	1054161	keystroke_e	e	n/a
527.171	0.0785	1054342	keystroke_r	r	n/a
527.283	0.101	1054566	keystroke_Key.space	Key.space	n/a
527.452	0.1235	1054904	keystroke_b	b	n/a
527.564	0.079	1055128	keystroke_i	i	n/a
527.756	0.0905	1055512	keystroke_k	k	n/a
527.88	0.1575	1055760	keystroke_e	e	n/a
527.9695	0.1125	1055939	keystroke_s	s	n/a
528.071	0.157	1056142	keystroke_Key.space	Key.space	n/a
528.2055	0.135	1056411	keystroke_r	r	n/a
528.318	0.146	1056636	keystroke_e	e	n/a
528.4985	0.168	1056997	keystroke_a	a	n/a
528.869	0.0675	1057738	keystroke_d	d	n/a
529.072	0.135	1058144	keystroke_e	e	n/a
529.163	0.179	1058326	keystroke_r	r	n/a
529.297	0.1125	1058594	keystroke_s	s	n/a
529.4655	0.124	1058931	keystroke_Key.space	Key.space	n/a
529.5795	0.124	1059159	keystroke_c	c	n/a
529.714	0.2125	1059428	keystroke_o	o	n/a
529.781	0.1575	1059562	keystroke_m	m	n/a
529.8595	0.1575	1059719	keystroke_p	p	n/a
529.972	0.0915	1059944	keystroke_e	e	n/a
530.141	0.101	1060282	keystroke_t	t	n/a
530.287	0.079	1060574	keystroke_i	i	n/a
530.366	0.1805	1060732	keystroke_t	t	n/a
530.5125	0.202	1061025	keystroke_i	i	n/a
530.591	0.168	1061182	keystroke_o	o	n/a
530.692	0.1235	1061384	keystroke_n	n	n/a
530.8045	0.09	1061609	keystroke_s	s	n/a
531.1085	0.101	1062217	keystroke_Key.enter	Key.enter	n/a
531.214	7.017	1062428	prompt	n/a	permission safety glasses endorsed\n
531.907	0.135	1063814	keystroke_p	p	n/a
532.0195	0.135	1064039	keystroke_e	e	n/a
532.099	0.123	1064198	keystroke_r	r	n/a
532.2105	0.124	1064421	keystroke_m	m	n/a
532.2895	0.1235	1064579	keystroke_i	i	n/a
532.402	0.09	1064804	keystroke_s	s	n/a
532.5935	0.112	1065187	keystroke_s	s	n/a
532.717	0.2365	1065434	keystroke_i	i	n/a
532.7845	0.1795	1065569	keystroke_o	o	n/a
532.863	0.1575	1065726	keystroke_n	n	n/a
532.942	0.135	1065884	keystroke_Key.space	Key.space	n/a
533.122	0.079	1066244	keystroke_s	s	n/a
533.2685	0.112	1066537	keystroke_a	a	n/a
533.392	0.124	1066784	keystroke_f	f	n/a
533.482	0.1015	1066964	keystroke_e	e	n/a
533.7065	0.079	1067413	keystroke_t	t	n/a
533.7965	0.1355	1067593	keystroke_y	y	n/a
533.8985	0.1235	1067797	keystroke_Key.space	Key.space	n/a
534.2585	0.1235	1068517	keystroke_g	g	n/a
534.4045	0.135	1068809	keystroke_l	l	n/a
534.528	0.102	1069056	keystroke_a	a	n/a
534.5735	0.112	1069147	keystroke_s	s	n/a
534.8205	0.1135	1069641	keystroke_s	s	n/a
535.057	0.2135	1070114	keystroke_e	e	n/a
