onset	duration	sample	value	key	prompt_text
3.788	7.7795	7576	prompt	n/a	the quick brown fox jumps over a lazy dog\n
5.056	0.0435	10112	keystroke	t	n/a
5.1145	0.075	10229	keystroke	h	n/a
5.2945	0.09	10589	keystroke	e	n/a
5.415	0.0895	10830	keystroke	Key.space	n/a
5.5195	0.1045	11039	keystroke	q	n/a
5.6825	0.06	11365	keystroke	u	n/a
6.223	0.075	12446	keystroke	i	n/a
6.328	0.0755	12656	keystroke	c	n/a
6.418	0.075	12836	keystroke	k	n/a
6.598	0.076	13196	keystroke	Key.space	n/a
6.704	0.075	13408	keystroke	b	n/a
6.8685	0.09	13737	keystroke	r	n/a
6.929	0.0745	13858	keystroke	o	n/a
7.108	0.061	14216	keystroke	w	n/a
7.154	0.06	14308	keystroke	n	n/a
7.304	0.075	14608	keystroke	Key.space	n/a
7.574	0.09	15148	keystroke	f	n/a
7.694	0.075	15388	keystroke	o	n/a
7.799	0.105	15598	keystroke	x	n/a
7.9195	0.059	15839	keystroke	Key.space	n/a
8.099	0.045	16198	keystroke	j	n/a
8.234	0.075	16468	keystroke	u	n/a
8.414	0.06	16828	keystroke	m	n/a
8.609	0.06	17218	keystroke	p	n/a
8.744	0.0905	17488	keystroke	s	n/a
8.8345	0.0895	17669	keystroke	Key.space	n/a
9.044	0.06	18088	keystroke	o	n/a
9.1345	0.0295	18269	keystroke	v	n/a
9.179	0.135	18358	keystroke	e	n/a
9.269	0.12	18538	keystroke	r	n/a
9.374	0.06	18748	keystroke	Key.space	n/a
9.599	0.075	19198	keystroke	a	n/a
9.5995	0.0295	19199	keystroke	Key.space	n/a
10.094	0.075	20188	keystroke	l	n/a
10.4545	0.0745	20909	keystroke	a	n/a
10.634	0.1205	21268	keystroke	z	n/a
10.784	0.09	21568	keystroke	y	n/a
10.9195	0.09	21839	keystroke	Key.space	n/a
11.054	0.0755	22108	keystroke	d	n/a
11.1895	0.075	22379	keystroke	o	n/a
11.2795	0.0735	22559	keystroke	g	n/a
11.444	0.12	22888	keystroke	Key.enter	n/a
11.574	5.9925	23148	prompt	n/a	appears erik violent durham\n
12.089	0.105	24178	keystroke	a	n/a
12.209	0.06	24418	keystroke	p	n/a
12.329	0.12	24658	keystroke	p	n/a
12.4045	0.1045	24809	keystroke	e	n/a
12.51	0.074	25020	keystroke	a	n/a
12.569	0.1205	25138	keystroke	r	n/a
12.7045	0.1045	25409	keystroke	s	n/a
12.824	0.09	25648	keystroke	Key.space	n/a
13.034	0.06	26068	keystroke	e	n/a
13.1985	0.076	26397	keystroke	t	n/a
13.334	0.075	26668	keystroke	i	n/a
13.559	0.075	27118	keystroke	Key.backspace	n/a
13.679	0.1045	27358	keystroke	Key.backspace	n/a
13.7685	0.091	27537	keystroke	r	n/a
13.8595	0.06	27719	keystroke	i	n/a
14.025	0.074	28050	keystroke	k	n/a
14.264	0.075	28528	keystroke	Key.space	n/a
14.549	0.075	29098	keystroke	v	n/a
14.6695	0.075	29339	keystroke	i	n/a
14.879	0.045	29758	keystroke	o	n/a
15.029	0.0905	30058	keystroke	l	n/a
15.1335	0.091	30267	keystroke	e	n/a
15.2845	0.0745	30569	keystroke	n	n/a
15.374	0.075	30748	keystroke	t	n/a
15.479	0.075	30958	keystroke	Key.space	n/a
15.674	0.09	31348	keystroke	d	n/a
15.7795	0.0595	31559	keystroke	u	n/a
15.869	0.09	31738	keystroke	r	n/a
16.439	0.075	32878	keystroke	h	n/a
16.544	0.075	33088	keystroke	a	n/a
16.934	0.09	33868	keystroke	m	n/a
17.414	0.15	34828	keystroke	Key.enter	n/a
17.5715	8.2445	35143	prompt	n/a	ascii underground separated rick\n
18.2095	0.1345	36419	keystroke	a	n/a
18.389	0.1045	36778	keystroke	s	n/a
18.5845	0.0745	37169	keystroke	c	n/a
18.7645	0.044	37529	keystroke	i	n/a
18.869	0.0905	37738	keystroke	i	n/a
18.989	0.09	37978	keystroke	Key.space	n/a
19.214	0.0455	38428	keystroke	u	n/a
19.364	0.075	38728	keystroke	n	n/a
19.394	0.135	38788	keystroke	d	n/a
19.5445	0.1045	39089	keystroke	e	n/a
19.604	0.09	39208	keystroke	r	n/a
20.084	0.06	40168	keystroke	g	n/a
20.204	0.075	40408	keystroke	o	n/a
20.264	0.075	40528	keystroke	r	n/a
20.4885	0.061	40977	keystroke	u	n/a
20.774	0.06	41548	keystroke	Key.backspace	n/a
20.8935	0.0605	41787	keystroke	Key.backspace	n/a
20.999	0.105	41998	keystroke	Key.backspace	n/a
21.1195	0.0895	42239	keystroke	r	n/a
21.194	0.075	42388	keystroke	o	n/a
21.404	0.045	42808	keystroke	u	n/a
21.5695	0.0595	43139	keystroke	n	n/a
21.614	0.0755	43228	keystroke	d	n/a
21.7495	0.059	43499	keystroke	Key.space	n/a
21.854	0.1045	43708	keystroke	s	n/a
22.0035	0.061	44007	keystroke	p	n/a
22.229	0.09	44458	keystroke	Key.backspace	n/a
22.4245	0.0745	44849	keystroke	p	n/a
22.544	0.0605	45088	keystroke	e	n/a
22.7245	0.0745	45449	keystroke	Key.backspace	n/a
22.8745	0.1045	45749	keystroke	Key.backspace	n/a
23.024	0.09	46048	keystroke	e	n/a
23.054	0.09	46108	keystroke	p	n/a
24.014	0.12	48028	keystroke	a	n/a
24.464	0.1045	48928	keystroke	r	n/a
24.5845	0.135	49169	keystroke	a	n/a
24.6745	0.0895	49349	keystroke	t	n/a
24.734	0.0895	49468	keystroke	e	n/a
24.884	0.09	49768	keystroke	d	n/a
24.974	0.0755	49948	keystroke	Key.space	n/a
25.259	0.0755	50518	keystroke	r	n/a
25.349	0.0755	50698	keystroke	i	n/a
25.454	0.0755	50908	keystroke	c	n/a
25.515	0.119	51030	keystroke	k	n/a
25.664	0.15	51328	keystroke	Key.enter	n/a
25.8205	6.851	51641	prompt	n/a	effectiveness bald valuation edgar\n
26.3695	0.09	52739	keystroke	e	n/a
26.564	0.045	53128	keystroke	f	n/a
26.684	0.1055	53368	keystroke	f	n/a
26.7735	0.1205	53547	keystroke	e	n/a
26.895	0.1045	53790	keystroke	c	n/a
27.1045	0.0595	54209	keystroke	t	n/a
27.2395	0.045	54479	keystroke	i	n/a
27.2995	0.105	54599	keystroke	v	n/a
27.3885	0.0905	54777	keystroke	e	n/a
27.5695	0.0745	55139	keystroke	n	n/a
28.0195	0.1045	56039	keystroke	e	n/a
28.2145	0.0595	56429	keystroke	s	n/a
28.3345	0.09	56669	keystroke	s	n/a
28.469	0.0605	56938	keystroke	Key.space	n/a
28.574	0.1205	57148	keystroke	b	n/a
28.7095	0.0895	57419	keystroke	a	n/a
28.814	0.06	57628	keystroke	l	n/a
28.919	0.075	57838	keystroke	d	n/a
29.039	0.075	58078	keystroke	Key.space	n/a
29.234	0.0905	58468	keystroke	v	n/a
29.354	0.12	58708	keystroke	a	n/a
29.4295	0.0895	58859	keystroke	l	n/a
29.6395	0.0595	59279	keystroke	u	n/a
29.7595	0.1045	59519	keystroke	a	n/a
29.924	0.0905	59848	keystroke	t	n/a
30.044	0.0905	60088	keystroke	i	n/a
30.2235	0.076	60447	keystroke	o	n/a
30.2835	0.09	60567	keystroke	n	n/a
30.5395	0.0895	61079	keystroke	Key.space	n/a
31.109	0.1055	62218	keystroke	e	n/a
31.259	0.1055	62518	keystroke	d	n/a
31.4695	0.135	62939	keystroke	g	n/a
31.634	0.1355	63268	keystroke	a	n/a
31.7545	0.12	63509	keystroke	r	n/a
32.5045	0.1645	65009	keystroke	Key.enter	n/a
32.6765	9.7	65353	prompt	n/a	departments businesses france senators\n
33.359	0.12	66718	keystroke	d	n/a
33.494	0.105	66988	keystroke	e	n/a
33.644	0.105	67288	keystroke	p	n/a
33.764	0.105	67528	keystroke	a	n/a
33.854	0.105	67708	keystroke	r	n/a
34.109	0.015	68218	keystroke	t	n/a
34.139	0.0905	68278	keystroke	m	n/a
34.2745	0.09	68549	keystroke	e	n/a
34.3195	0.075	68639	keystroke	n	n/a
34.4395	0.1045	68879	keystroke	t	n/a
34.559	0.075	69118	keystroke	s	n/a
34.664	0.075	69328	keystroke	Key.space	n/a
34.979	0.0605	69958	keystroke	b	n/a
35.13	0.059	70260	keystroke	u	n/a
35.204	0.075	70408	keystroke	s	n/a
35.324	0.075	70648	keystroke	i	n/a
35.504	0.0905	71008	keystroke	n	n/a
35.6095	0.074	71219	keystroke	e	n/a
35.8045	0.045	71609	keystroke	s	n/a
35.9395	0.089	71879	keystroke	s	n/a
36.0745	0.135	72149	keystroke	e	n/a
36.1645	0.105	72329	keystroke	s	n/a
36.3435	0.09	72687	keystroke	Key.space	n/a
36.5995	0.12	73199	keystroke	f	n/a
36.7635	0.136	73527	keystroke	a	n/a
36.9145	0.0305	73829	keystroke	n	n/a
37.199	0.03	74398	keystroke	Key.backspace	n/a
37.304	0.09	74608	keystroke	Key.backspace	n/a
37.395	0.104	74790	keystroke	r	n/a
37.544	0.06	75088	keystroke	n	n/a
37.725	0.119	75450	keystroke	a	n/a
37.904	0.2255	75808	keystroke	c	n/a
38.099	0.1345	76198	keystroke	e	n/a
38.5945	0.06	77189	keystroke	Key.backspace	n/a
38.7435	0.061	77487	keystroke	Key.backspace	n/a
38.8795	0.074	77759	keystroke	Key.backspace	n/a
39.0285	0.076	78057	keystroke	Key.backspace	n/a
39.209	0.075	78418	keystroke	a	n/a
39.299	0.075	78598	keystroke	n	n/a
39.389	0.135	78778	keystroke	c	n/a
39.464	0.105	78928	keystroke	e	n/a
39.599	0.06	79198	keystroke	Key.space	n/a
39.8695	0.075	79739	keystroke	s	n/a
40.0345	0.105	80069	keystroke	e	n/a
40.0945	0.06	80189	keystroke	n	n/a
40.6495	0.105	81299	keystroke	a	n/a
40.7995	0.09	81599	keystroke	t	n/a
40.9345	0.09	81869	keystroke	o	n/a
41.0395	0.074	82079	keystroke	r	n/a
41.0835	0.12	82167	keystroke	s	n/a
42.254	0.12	84508	keystroke	Key.enter	n/a
42.3815	5.14	84763	prompt	n/a	appreciate head operated tabs\n
42.9145	0.104	85829	keystroke	a	n/a
43.0335	0.061	86067	keystroke	p	n/a
43.1695	0.105	86339	keystroke	p	n/a
43.2445	0.09	86489	keystroke	r	n/a
43.4095	0.09	86819	keystroke	e	n/a
43.6195	0.075	87239	keystroke	c	n/a
43.769	0.06	87538	keystroke	i	n/a
43.844	0.105	87688	keystroke	a	n/a
43.9635	0.09	87927	keystroke	t	n/a
44.0245	0.105	88049	keystroke	e	n/a
44.1745	0.0745	88349	keystroke	Key.space	n/a
44.6545	0.075	89309	keystroke	h	n/a
44.7445	0.0745	89489	keystroke	e	n/a
44.804	0.165	89608	keystroke	a	n/a
44.909	0.105	89818	keystroke	d	n/a
44.999	0.075	89998	keystroke	Key.space	n/a
45.2995	0.09	90599	keystroke	o	n/a
45.809	0.075	91618	keystroke	p	n/a
45.944	0.12	91888	keystroke	e	n/a
46.034	0.135	92068	keystroke	r	n/a
46.1695	0.0745	92339	keystroke	a	n/a
46.259	0.105	92518	keystroke	t	n/a
46.334	0.0905	92668	keystroke	e	n/a
46.5295	0.0895	93059	keystroke	d	n/a
46.709	0.075	93418	keystroke	Key.space	n/a
46.859	0.105	93718	keystroke	t	n/a
46.979	0.105	93958	keystroke	a	n/a
47.0995	0.0895	94199	keystroke	b	n/a
47.279	0.0905	94558	keystroke	s	n/a
47.384	0.135	94768	keystroke	Key.enter	n/a
47.5265	6.774	95053	prompt	n/a	presents decided rwanda suited\n
47.9245	0.0595	95849	keystroke	a	n/a
48.0885	0.09	96177	keystroke	Key.backspace	n/a
48.225	0.1045	96450	keystroke	p	n/a
48.284	0.1355	96568	keystroke	r	n/a
48.359	0.09	96718	keystroke	e	n/a
48.5685	0.06	97137	keystroke	s	n/a
48.719	0.1045	97438	keystroke	e	n/a
48.8385	0.09	97677	keystroke	n	n/a
48.9435	0.105	97887	keystroke	t	n/a
49.0635	0.0905	98127	keystroke	s	n/a
49.1085	0.0755	98217	keystroke	Key.space	n/a
49.289	0.1655	98578	keystroke	d	n/a
49.4095	0.105	98819	keystroke	e	n/a
49.559	0.0905	99118	keystroke	c	n/a
49.754	0.06	99508	keystroke	i	n/a
49.919	0.135	99838	keystroke	d	n/a
50.1145	0.1045	100229	keystroke	e	n/a
50.444	0.0905	100888	keystroke	d	n/a
50.654	0.075	101308	keystroke	Key.space	n/a
51.1935	0.151	102387	keystroke	r	n/a
51.6295	0.104	103259	keystroke	w	n/a
51.8235	0.105	103647	keystroke	a	n/a
51.9435	0.076	103887	keystroke	n	n/a
52.079	0.0905	104158	keystroke	d	n/a
52.274	0.1045	104548	keystroke	a	n/a
52.4385	0.0905	104877	keystroke	Key.space	n/a
52.6935	0.1055	105387	keystroke	s	n/a
52.8135	0.075	105627	keystroke	u	n/a
52.9485	0.075	105897	keystroke	t	n/a
53.0385	0.045	106077	keystroke	i	n/a
53.2795	0.0595	106559	keystroke	Key.backspace	n/a
53.399	0.1045	106798	keystroke	Key.backspace	n/a
53.6695	0.0755	107339	keystroke	i	n/a
53.8045	0.12	107609	keystroke	t	n/a
53.9085	0.106	107817	keystroke	e	n/a
54.074	0.1055	108148	keystroke	d	n/a
54.194	0.105	108388	keystroke	Key.enter	n/a
54.3115	7.534	108623	prompt	n/a	shortcuts lessons tanks east\n
56.1745	0.0745	112349	keystroke	s	n/a
56.399	0.06	112798	keystroke	h	n/a
56.549	0.075	113098	keystroke	o	n/a
56.594	0.075	113188	keystroke	r	n/a
56.744	0.09	113488	keystroke	t	n/a
56.984	0.06	113968	keystroke	c	n/a
57.074	0.0905	114148	keystroke	u	n/a
57.2095	0.09	114419	keystroke	t	n/a
57.3445	0.074	114689	keystroke	s	n/a
57.4935	0.09	114987	keystroke	Key.space	n/a
57.749	0.0595	115498	keystroke	s	n/a
57.839	0.075	115678	keystroke	l	n/a
58.0185	0.06	116037	keystroke	Key.backspace	n/a
58.139	0.09	116278	keystroke	Key.backspace	n/a
58.259	0.105	116518	keystroke	l	n/a
58.3345	0.0745	116669	keystroke	e	n/a
58.4995	0.0595	116999	keystroke	s	n/a
58.634	0.09	117268	keystroke	s	n/a
58.8585	0.0905	117717	keystroke	o	n/a
59.0685	0.0755	118137	keystroke	n	n/a
59.189	0.075	118378	keystroke	s	n/a
59.2795	0.0745	118559	keystroke	Key.space	n/a
59.3695	0.1045	118739	keystroke	t	n/a
59.4595	0.0905	118919	keystroke	a	n/a
59.5045	0.0595	119009	keystroke	n	n/a
59.699	0.06	119398	keystroke	k	n/a
59.804	0.09	119608	keystroke	s	n/a
59.879	0.09	119758	keystroke	Key.space	n/a
60.059	0.105	120118	keystroke	e	n/a
60.134	0.165	120268	keystroke	a	n/a
60.224	0.105	120448	keystroke	s	n/a
60.389	0.06	120778	keystroke	y	n/a
60.9735	0.06	121947	keystroke	Key.backspace	n/a
61.0345	0.075	122069	keystroke	t	n/a
61.7235	0.1205	123447	keystroke	Key.enter	n/a
61.8505	5.3205	123701	prompt	n/a	rural success easter traveller\n
62.505	0.1195	125010	keystroke	r	n/a
62.654	0.0755	125308	keystroke	u	n/a
62.7435	0.12	125487	keystroke	r	n/a
62.8785	0.105	125757	keystroke	a	n/a
62.9985	0.075	125997	keystroke	l	n/a
63.164	0.12	126328	keystroke	Key.space	n/a
63.328	0.076	126656	keystroke	s	n/a
63.449	0.06	126898	keystroke	u	n/a
63.5545	0.1945	127109	keystroke	c	n/a
63.854	0.09	127708	keystroke	c	n/a
64.034	0.09	128068	keystroke	e	n/a
64.289	0.06	128578	keystroke	s	n/a
64.424	0.09	128848	keystroke	s	n/a
64.664	0.075	129328	keystroke	Key.space	n/a
64.874	0.105	129748	keystroke	e	n/a
65.039	0.225	130078	keystroke	a	n/a
65.1595	0.1185	130319	keystroke	s	n/a
65.3095	0.1195	130619	keystroke	t	n/a
65.398	0.151	130796	keystroke	e	n/a
65.5345	0.1045	131069	keystroke	r	n/a
65.6985	0.06	131397	keystroke	Key.space	n/a
65.9835	0.091	131967	keystroke	t	n/a
66.1495	0.1045	132299	keystroke	r	n/a
66.2385	0.15	132477	keystroke	a	n/a
66.3735	0.135	132747	keystroke	v	n/a
66.479	0.1045	132958	keystroke	e	n/a
66.6735	0.06	133347	keystroke	l	n/a
66.7935	0.1055	133587	keystroke	l	n/a
66.8845	0.1045	133769	keystroke	e	n/a
66.9585	0.1205	133917	keystroke	r	n/a
67.064	0.1045	134128	keystroke	Key.enter	n/a
67.1755	9.31	134351	prompt	n/a	ethical puerto behavior accommodation\n
67.814	0.105	135628	keystroke	e	n/a
68.0835	0.0905	136167	keystroke	t	n/a
68.2195	0.0595	136439	keystroke	h	n/a
68.4135	0.045	136827	keystroke	i	n/a
68.489	0.1195	136978	keystroke	c	n/a
68.5935	0.121	137187	keystroke	a	n/a
68.684	0.0895	137368	keystroke	l	n/a
68.9385	0.1055	137877	keystroke	Key.space	n/a
69.089	0.045	138178	keystroke	p	n/a
69.344	0.06	138688	keystroke	u	n/a
69.508	0.136	139016	keystroke	e	n/a
69.645	0.089	139290	keystroke	r	n/a
69.839	0.075	139678	keystroke	t	n/a
69.929	0.0755	139858	keystroke	o	n/a
70.079	0.059	140158	keystroke	Key.space	n/a
70.4535	0.121	140907	keystroke	b	n/a
70.5585	0.091	141117	keystroke	e	n/a
70.874	0.09	141748	keystroke	h	n/a
71.083	0.076	142166	keystroke	a	n/a
71.2635	0.0755	142527	keystroke	v	n/a
71.3985	0.06	142797	keystroke	i	n/a
71.579	0.09	143158	keystroke	o	n/a
71.6535	0.09	143307	keystroke	r	n/a
71.8185	0.09	143637	keystroke	Key.space	n/a
72.2985	0.09	144597	keystroke	a	n/a
72.4935	0.075	144987	keystroke	c	n/a
72.9885	0.105	145977	keystroke	c	n/a
73.2445	0.0895	146489	keystroke	o	n/a
74.099	0.09	148198	keystroke	m	n/a
74.459	0.075	148918	keystroke	m	n/a
74.669	0.075	149338	keystroke	o	n/a
74.789	0.1355	149578	keystroke	d	n/a
74.894	0.1645	149788	keystroke	a	n/a
75.0435	0.0755	150087	keystroke	t	n/a
75.1485	0.0605	150297	keystroke	i	n/a
75.284	0.105	150568	keystroke	o	n/a
75.374	0.09	150748	keystroke	n	n/a
76.334	0.15	152668	keystroke	Key.enter	n/a
76.4905	5.95	152981	prompt	n/a	adding indicating convenient standards\n
77.0685	0.1055	154137	keystroke	a	n/a
77.2035	0.09	154407	keystroke	d	n/a
77.324	0.1045	154648	keystroke	d	n/a
77.4285	0.0755	154857	keystroke	i	n/a
77.609	0.0745	155218	keystroke	n	n/a
77.654	0.0745	155308	keystroke	g	n/a
77.7885	0.0605	155577	keystroke	Key.space	n/a
77.954	0.03	155908	keystroke	i	n/a
78.104	0.09	156208	keystroke	n	n/a
78.149	0.09	156298	keystroke	d	n/a
78.2985	0.09	156597	keystroke	i	n/a
78.3735	0.135	156747	keystroke	c	n/a
78.494	0.1205	156988	keystroke	a	n/a
78.6285	0.105	157257	keystroke	t	n/a
78.7185	0.0905	157437	keystroke	e	n/a
78.8685	0.0755	157737	keystroke	d	n/a
78.9285	0.09	157857	keystroke	Key.space	n/a
79.169	0.0905	158338	keystroke	s	n/a
79.319	0.06	158638	keystroke	o	n/a
79.514	0.09	159028	keystroke	n	n/a
79.7395	0.1195	159479	keystroke	v	n/a
79.889	0.089	159778	keystroke	e	n/a
80.0245	0.1045	160049	keystroke	n	n/a
80.504	0.06	161008	keystroke	i	n/a
80.6235	0.1045	161247	keystroke	e	n/a
80.714	0.075	161428	keystroke	n	n/a
80.834	0.075	161668	keystroke	t	n/a
80.924	0.09	161848	keystroke	Key.space	n/a
81.089	0.0745	162178	keystroke	s	n/a
81.1785	0.09	162357	keystroke	t	n/a
81.2695	0.1195	162539	keystroke	a	n/a
81.374	0.0745	162748	keystroke	n	n/a
81.434	0.1495	162868	keystroke	d	n/a
81.569	0.1195	163138	keystroke	a	n/a
81.6745	0.104	163349	keystroke	r	n/a
81.9135	0.1055	163827	keystroke	d	n/a
81.989	0.12	163978	keystroke	s	n/a
82.3035	0.1355	164607	keystroke	Key.enter	n/a
82.449	6.5465	164898	prompt	n/a	daniel married washer luxury\n
83.0385	0.09	166077	keystroke	d	n/a
83.0985	0.12	166197	keystroke	a	n/a
83.713	0.076	167426	keystroke	n	n/a
83.939	0.06	167878	keystroke	i	n/a
84.209	0.12	168418	keystroke	e	n/a
84.359	0.06	168718	keystroke	l	n/a
84.524	0.075	169048	keystroke	Key.space	n/a
84.674	0.075	169348	keystroke	m	n/a
84.764	0.0905	169528	keystroke	a	n/a
84.8995	0.059	169799	keystroke	r	n/a
85.034	0.09	170068	keystroke	r	n/a
85.169	0.09	170338	keystroke	e	n/a
85.214	0.06	170428	keystroke	i	n/a
85.7385	0.0745	171477	keystroke	Key.backspace	n/a
85.948	0.016	171896	keystroke	Key.backspace	n/a
85.994	0.075	171988	keystroke	i	n/a
86.099	0.0895	172198	keystroke	e	n/a
86.2335	0.105	172467	keystroke	d	n/a
86.3085	0.09	172617	keystroke	Key.space	n/a
86.5035	0.12	173007	keystroke	w	n/a
86.6385	0.1655	173277	keystroke	a	n/a
86.7285	0.105	173457	keystroke	s	n/a
86.894	0.0895	173788	keystroke	h	n/a
86.9385	0.135	173877	keystroke	e	n/a
87.029	0.0895	174058	keystroke	r	n/a
87.1485	0.06	174297	keystroke	Key.space	n/a
87.419	0.06	174838	keystroke	l	n/a
87.5985	0.075	175197	keystroke	u	n/a
87.719	0.0895	175438	keystroke	x	n/a
88.259	0.075	176518	keystroke	u	n/a
88.409	0.12	176818	keystroke	r	n/a
88.648	0.121	177296	keystroke	y	n/a
88.874	0.12	177748	keystroke	Key.enter	n/a
88.9995	4.721	177999	prompt	n/a	nurse shore twiki council\n
89.579	0.075	179158	keystroke	n	n/a
89.7735	0.06	179547	keystroke	u	n/a
89.819	0.1055	179638	keystroke	r	n/a
89.9685	0.09	179937	keystroke	s	n/a
90.149	0.09	180298	keystroke	e	n/a
90.269	0.09	180538	keystroke	Key.space	n/a
90.509	0.105	181018	keystroke	s	n/a
90.659	0.09	181318	keystroke	h	n/a
90.794	0.06	181588	keystroke	o	n/a
90.884	0.09	181768	keystroke	r	n/a
91.109	0.09	182218	keystroke	e	n/a
91.304	0.0595	182608	keystroke	Key.space	n/a
91.5435	0.105	183087	keystroke	t	n/a
91.6935	0.105	183387	keystroke	w	n/a
91.904	0.075	183808	keystroke	i	n/a
92.0695	0.059	184139	keystroke	k	n/a
92.279	0.0145	184558	keystroke	i	n/a
92.399	0.089	184798	keystroke	Key.space	n/a
92.609	0.059	185218	keystroke	c	n/a
92.654	0.074	185308	keystroke	o	n/a
92.849	0.06	185698	keystroke	u	n/a
93.014	0.075	186028	keystroke	n	n/a
93.104	0.089	186208	keystroke	c	n/a
93.253	0.046	186506	keystroke	i	n/a
93.404	0.09	186808	keystroke	l	n/a
93.554	0.165	187108	keystroke	Key.enter	n/a
93.7265	7.7205	187453	prompt	n/a	nasa exterior severe leaving\n
94.4385	0.075	188877	keystroke	n	n/a
94.5285	0.165	189057	keystroke	a	n/a
94.619	0.09	189238	keystroke	s	n/a
95.2635	0.105	190527	keystroke	a	n/a
95.443	0.03	190886	keystroke	Key.space	n/a
95.639	0.089	191278	keystroke	e	n/a
95.8185	0.1055	191637	keystroke	x	n/a
95.9685	0.105	191937	keystroke	t	n/a
96.058	0.121	192116	keystroke	e	n/a
96.2085	0.0905	192417	keystroke	r	n/a
97.5285	0.09	195057	keystroke	i	n/a
98.443	0.075	196886	keystroke	o	n/a
98.563	0.09	197126	keystroke	r	n/a
98.788	0.09	197576	keystroke	Key.space	n/a
99.103	0.076	198206	keystroke	s	n/a
99.2685	0.0755	198537	keystroke	e	n/a
99.434	0.089	198868	keystroke	v	n/a
99.508	0.1355	199016	keystroke	e	n/a
99.629	0.09	199258	keystroke	r	n/a
99.854	0.044	199708	keystroke	e	n/a
100.274	0.09	200548	keystroke	Key.space	n/a
100.484	0.089	200968	keystroke	l	n/a
100.574	0.164	201148	keystroke	e	n/a
100.769	0.12	201538	keystroke	a	n/a
100.874	0.105	201748	keystroke	v	n/a
100.994	0.06	201988	keystroke	i	n/a
101.129	0.1195	202258	keystroke	n	n/a
101.2185	0.0905	202437	keystroke	g	n/a
101.3385	0.1055	202677	keystroke	Key.enter	n/a
101.456	6.169	202912	prompt	n/a	finance manner brothers electricity\n
102.044	0.0895	204088	keystroke	f	n/a
102.149	0.0595	204298	keystroke	i	n/a
102.3135	0.09	204627	keystroke	n	n/a
102.464	0.1195	204928	keystroke	a	n/a
102.614	0.0745	205228	keystroke	n	n/a
102.719	0.1495	205438	keystroke	c	n/a
102.8085	0.105	205617	keystroke	e	n/a
103.724	0.074	207448	keystroke	Key.space	n/a
103.9185	0.0745	207837	keystroke	m	n/a
104.024	0.09	208048	keystroke	a	n/a
104.114	0.059	208228	keystroke	n	n/a
104.233	0.0915	208466	keystroke	n	n/a
104.3395	0.104	208679	keystroke	e	n/a
104.3985	0.09	208797	keystroke	r	n/a
104.4585	0.075	208917	keystroke	Key.space	n/a
104.6235	0.0905	209247	keystroke	b	n/a
104.789	0.1195	209578	keystroke	r	n/a
104.8935	0.0905	209787	keystroke	o	n/a
105.014	0.0895	210028	keystroke	t	n/a
105.1185	0.075	210237	keystroke	h	n/a
105.1335	0.1045	210267	keystroke	e	n/a
105.2235	0.15	210447	keystroke	r	n/a
105.3885	0.0895	210777	keystroke	s	n/a
105.493	0.076	210986	keystroke	Key.space	n/a
105.614	0.105	211228	keystroke	e	n/a
105.824	0.0745	211648	keystroke	l	n/a
106.079	0.09	212158	keystroke	e	n/a
106.454	0.09	212908	keystroke	c	n/a
106.664	0.075	213328	keystroke	t	n/a
106.799	0.075	213598	keystroke	r	n/a
106.934	0.0755	213868	keystroke	i	n/a
107.054	0.09	214108	keystroke	c	n/a
107.2035	0.06	214407	keystroke	i	n/a
107.2485	0.09	214497	keystroke	t	n/a
107.4145	0.0895	214829	keystroke	y	n/a
107.519	0.1045	215038	keystroke	Key.enter	n/a
107.6295	8.23	215259	prompt	n/a	alert soccer consolidated covering\n
108.194	0.089	216388	keystroke	a	n/a
108.2685	0.1055	216537	keystroke	l	n/a
108.3585	0.1195	216717	keystroke	e	n/a
108.433	0.106	216866	keystroke	r	n/a
108.643	0.0905	217286	keystroke	t	n/a
108.734	0.089	217468	keystroke	Key.space	n/a
108.884	0.089	217768	keystroke	s	n/a
108.988	0.06	217976	keystroke	o	n/a
109.1235	0.09	218247	keystroke	o	n/a
109.2435	0.0895	218487	keystroke	c	n/a
109.513	0.0455	219026	keystroke	Key.backspace	n/a
109.663	0.061	219326	keystroke	Key.backspace	n/a
109.769	0.1195	219538	keystroke	c	n/a
110.158	0.1205	220316	keystroke	c	n/a
110.308	0.151	220616	keystroke	e	n/a
110.413	0.091	220826	keystroke	r	n/a
110.548	0.09	221096	keystroke	Key.space	n/a
110.714	0.09	221428	keystroke	s	n/a
110.818	0.061	221636	keystroke	o	n/a
111.238	0.075	222476	keystroke	n	n/a
111.568	0.0605	223136	keystroke	Key.backspace	n/a
111.7185	0.06	223437	keystroke	Key.backspace	n/a
111.838	0.09	223676	keystroke	Key.backspace	n/a
111.989	0.09	223978	keystroke	c	n/a
112.109	0.06	224218	keystroke	o	n/a
112.3335	0.0595	224667	keystroke	n	n/a
112.738	0.06	225476	keystroke	s	n/a
112.813	0.06	225626	keystroke	o	n/a
112.978	0.0605	225956	keystroke	l	n/a
113.1885	0.03	226377	keystroke	i	n/a
113.6085	0.09	227217	keystroke	d	n/a
113.7435	0.15	227487	keystroke	a	n/a
113.8635	0.12	227727	keystroke	t	n/a
113.9535	0.09	227907	keystroke	e	n/a
114.119	0.0895	228238	keystroke	d	n/a
114.2535	0.075	228507	keystroke	Key.space	n/a
114.6135	0.075	229227	keystroke	c	n/a
114.7185	0.075	229437	keystroke	o	n/a
114.809	0.09	229618	keystroke	v	n/a
114.9135	0.075	229827	keystroke	e	n/a
115.0935	0.0905	230187	keystroke	r	n/a
115.4085	0.045	230817	keystroke	i	n/a
115.573	0.076	231146	keystroke	n	n/a
115.604	0.089	231208	keystroke	g	n/a
115.753	0.105	231506	keystroke	Key.enter	n/a
115.8625	5.173	231725	prompt	n/a	chapel various texas triple\n
116.504	0.09	233008	keystroke	c	n/a
116.639	0.059	233278	keystroke	h	n/a
116.744	0.105	233488	keystroke	a	n/a
116.894	0.06	233788	keystroke	p	n/a
116.999	0.105	233998	keystroke	e	n/a
117.1485	0.0745	234297	keystroke	l	n/a
117.2985	0.09	234597	keystroke	Key.space	n/a
117.4935	0.1205	234987	keystroke	v	n/a
117.614	0.134	235228	keystroke	a	n/a
117.733	0.106	235466	keystroke	r	n/a
117.853	0.075	235706	keystroke	i	n/a
118.063	0.0605	236126	keystroke	o	n/a
118.244	0.0745	236488	keystroke	u	n/a
118.3485	0.09	236697	keystroke	s	n/a
118.4535	0.075	236907	keystroke	Key.space	n/a
118.5445	0.149	237089	keystroke	t	n/a
118.649	0.1045	237298	keystroke	e	n/a
119.3835	0.15	238767	keystroke	x	n/a
119.5485	0.255	239097	keystroke	a	n/a
119.6985	0.15	239397	keystroke	s	n/a
119.8635	0.09	239727	keystroke	Key.space	n/a
120.1035	0.0905	240207	keystroke	t	n/a
120.283	0.0905	240566	keystroke	r	n/a
120.388	0.0755	240776	keystroke	i	n/a
120.5985	0.045	241197	keystroke	p	n/a
120.7335	0.0905	241467	keystroke	l	n/a
120.824	0.089	241648	keystroke	e	n/a
120.928	0.105	241856	keystroke	Key.enter	n/a
121.04	5.5	242080	prompt	n/a	western aims screening statewide\n
121.634	0.134	243268	keystroke	w	n/a
121.799	0.09	243598	keystroke	e	n/a
121.889	0.12	243778	keystroke	s	n/a
122.2785	0.0905	244557	keystroke	t	n/a
122.354	0.134	244708	keystroke	e	n/a
122.459	0.119	244918	keystroke	r	n/a
122.743	0.0755	245486	keystroke	n	n/a
122.9235	0.09	245847	keystroke	Key.space	n/a
123.0285	0.12	246057	keystroke	a	n/a
123.1785	0.06	246357	keystroke	i	n/a
123.3285	0.075	246657	keystroke	m	n/a
123.4185	0.09	246837	keystroke	s	n/a
123.4935	0.09	246987	keystroke	Key.space	n/a
123.6135	0.09	247227	keystroke	s	n/a
123.9135	0.135	247827	keystroke	c	n/a
124.199	0.105	248398	keystroke	r	n/a
124.379	0.06	248758	keystroke	e	n/a
124.514	0.104	249028	keystroke	e	n/a
124.6335	0.06	249267	keystroke	n	n/a
124.814	0.0445	249628	keystroke	i	n/a
124.9485	0.0745	249897	keystroke	n	n/a
124.993	0.075	249986	keystroke	g	n/a
125.1435	0.075	250287	keystroke	Key.space	n/a
125.189	0.105	250378	keystroke	s	n/a
125.309	0.104	250618	keystroke	t	n/a
125.414	0.1195	250828	keystroke	a	n/a
125.503	0.135	251006	keystroke	t	n/a
125.608	0.0905	251216	keystroke	e	n/a
125.9235	0.1195	251847	keystroke	w	n/a
126.058	0.045	252116	keystroke	i	n/a
126.163	0.165	252326	keystroke	d	n/a
126.283	0.106	252566	keystroke	e	n/a
126.433	0.105	252866	keystroke	Key.enter	n/a
126.5445	6.1755	253089	prompt	n/a	contributor forming alice shipments\n
127.1995	0.1045	254399	keystroke	c	n/a
127.289	0.0745	254578	keystroke	o	n/a
127.4685	0.0905	254937	keystroke	n	n/a
127.5285	0.0755	255057	keystroke	t	n/a
127.664	0.0595	255328	keystroke	r	n/a
127.889	0.0745	255778	keystroke	b	n/a
128.3685	0.1045	256737	keystroke	Key.backspace	n/a
128.714	0.0895	257428	keystroke	i	n/a
128.8185	0.1055	257637	keystroke	b	n/a
128.9835	0.075	257967	keystroke	u	n/a
129.1035	0.075	258207	keystroke	t	n/a
129.3135	0.075	258627	keystroke	o	n/a
129.4035	0.09	258807	keystroke	r	n/a
129.5685	0.075	259137	keystroke	Key.space	n/a
129.7785	0.09	259557	keystroke	f	n/a
129.8835	0.0455	259767	keystroke	o	n/a
129.9435	0.09	259887	keystroke	r	n/a
130.049	0.0745	260098	keystroke	m	n/a
130.2285	0.06	260457	keystroke	i	n/a
130.3185	0.12	260637	keystroke	n	n/a
130.3785	0.105	260757	keystroke	g	n/a
130.5135	0.075	261027	keystroke	Key.space	n/a
130.6485	0.075	261297	keystroke	a	n/a
130.903	0.06	261806	keystroke	l	n/a
131.0685	0.09	262137	keystroke	i	n/a
131.143	0.121	262286	keystroke	c	n/a
131.218	0.09	262436	keystroke	e	n/a
131.309	0.089	262618	keystroke	Key.space	n/a
131.4435	0.0895	262887	keystroke	s	n/a
131.623	0.0755	263246	keystroke	h	n/a
131.713	0.075	263426	keystroke	i	n/a
131.938	0.0605	263876	keystroke	p	n/a
132.149	0.104	264298	keystroke	m	n/a
132.254	0.0745	264508	keystroke	e	n/a
132.344	0.0895	264688	keystroke	n	n/a
132.403	0.1055	264806	keystroke	t	n/a
132.5095	0.1045	265019	keystroke	s	n/a
132.614	0.1045	265228	keystroke	Key.enter	n/a
132.726	6.309	265452	prompt	n/a	expiration reviewing entries period\n
133.3185	0.0755	266637	keystroke	e	n/a
133.4975	0.106	266995	keystroke	x	n/a
133.574	0.09	267148	keystroke	p	n/a
133.7835	0.075	267567	keystroke	i	n/a
134.3085	0.1045	268617	keystroke	r	n/a
134.4435	0.12	268887	keystroke	a	n/a
134.5785	0.06	269157	keystroke	t	n/a
134.6535	0.06	269307	keystroke	i	n/a
134.8185	0.0905	269637	keystroke	o	n/a
134.8935	0.075	269787	keystroke	n	n/a
135.0285	0.105	270057	keystroke	Key.space	n/a
135.284	0.149	270568	keystroke	r	n/a
135.388	0.135	270776	keystroke	e	n/a
135.643	0.075	271286	keystroke	v	n/a
135.8235	0.075	271647	keystroke	i	n/a
135.9285	0.18	271857	keystroke	e	n/a
136.0635	0.12	272127	keystroke	w	n/a
136.3335	0.0455	272667	keystroke	i	n/a
136.484	0.0745	272968	keystroke	n	n/a
136.574	0.0595	273148	keystroke	g	n/a
136.678	0.06	273356	keystroke	Key.space	n/a
136.768	0.1055	273536	keystroke	r	n/a
137.2035	0.09	274407	keystroke	Key.backspace	n/a
137.324	0.104	274648	keystroke	e	n/a
137.414	0.09	274828	keystroke	n	n/a
137.5185	0.0595	275037	keystroke	t	n/a
137.683	0.09	275366	keystroke	r	n/a
137.803	0.0755	275606	keystroke	i	n/a
137.893	0.091	275786	keystroke	e	n/a
138.0585	0.0895	276117	keystroke	s	n/a
138.118	0.075	276236	keystroke	Key.space	n/a
138.343	0.0755	276686	keystroke	p	n/a
138.419	0.074	276838	keystroke	e	n/a
138.448	0.12	276896	keystroke	r	n/a
138.554	0.059	277108	keystroke	i	n/a
138.7035	0.09	277407	keystroke	o	n/a
138.778	0.075	277556	keystroke	d	n/a
138.883	0.15	277766	keystroke	Key.enter	n/a
139.038	6.7325	278076	prompt	n/a	treatments milton manuals assist\n
139.619	0.089	279238	keystroke	t	n/a
139.8135	0.0745	279627	keystroke	r	n/a
140.083	0.12	280166	keystroke	e	n/a
140.188	0.12	280376	keystroke	a	n/a
140.309	0.074	280618	keystroke	m	n/a
140.743	0.06	281486	keystroke	Key.backspace	n/a
140.849	0.089	281698	keystroke	t	n/a
141.013	0.0755	282026	keystroke	m	n/a
141.1485	0.1205	282297	keystroke	e	n/a
141.2695	0.074	282539	keystroke	n	n/a
141.3285	0.105	282657	keystroke	t	n/a
141.434	0.0895	282868	keystroke	s	n/a
141.5835	0.03	283167	keystroke	Key.space	n/a
141.7485	0.075	283497	keystroke	m	n/a
142.0185	0.03	284037	keystroke	u	n/a
142.213	0.0755	284426	keystroke	Key.backspace	n/a
142.3785	0.06	284757	keystroke	i	n/a
142.574	0.06	285148	keystroke	l	n/a
142.649	0.09	285298	keystroke	t	n/a
142.754	0.044	285508	keystroke	o	n/a
142.919	0.059	285838	keystroke	n	n/a
143.0535	0.0745	286107	keystroke	Key.space	n/a
143.2335	0.0755	286467	keystroke	m	n/a
143.3685	0.074	286737	keystroke	a	n/a
143.4435	0.09	286887	keystroke	n	n/a
143.6535	0.074	287307	keystroke	u	n/a
143.7735	0.12	287547	keystroke	a	n/a
143.9085	0.09	287817	keystroke	l	n/a
144.029	0.0745	288058	keystroke	s	n/a
144.1185	0.075	288237	keystroke	Key.space	n/a
144.268	0.075	288536	keystroke	s	n/a
144.5235	0.06	289047	keystroke	Key.backspace	n/a
144.6135	0.09	289227	keystroke	a	n/a
144.7785	0.075	289557	keystroke	s	n/a
144.9135	0.105	289827	keystroke	s	n/a
145.0485	0.0745	290097	keystroke	i	n/a
145.1385	0.0295	290277	keystroke	s	n/a
145.213	0.105	290426	keystroke	t	n/a
145.678	0.09	291356	keystroke	Key.enter	n/a
145.7745	7.6155	291549	prompt	n/a	states encryption ratios speaks\n
146.4435	0.1205	292887	keystroke	s	n/a
146.594	0.0895	293188	keystroke	t	n/a
146.8485	0.075	293697	keystroke	a	n/a
147.179	0.12	294358	keystroke	t	n/a
147.254	0.119	294508	keystroke	e	n/a
147.464	0.09	294928	keystroke	s	n/a
147.599	0.075	295198	keystroke	Key.space	n/a
147.689	0.09	295378	keystroke	e	n/a
147.884	0.09	295768	keystroke	c	n/a
148.4385	0.0445	296877	keystroke	Key.backspace	n/a
148.634	0.06	297268	keystroke	n	n/a
148.8885	0.0755	297777	keystroke	c	n/a
149.0685	0.09	298137	keystroke	r	n/a
149.309	0.0445	298618	keystroke	y	n/a
149.7585	0.09	299517	keystroke	p	n/a
150.404	0.1055	300808	keystroke	t	n/a
150.7485	0.06	301497	keystroke	i	n/a
150.9285	0.06	301857	keystroke	o	n/a
151.0935	0.075	302187	keystroke	n	n/a
151.243	0.1055	302486	keystroke	Key.space	n/a
151.333	0.136	302666	keystroke	r	n/a
151.633	0.1055	303266	keystroke	a	n/a
151.7985	0.0895	303597	keystroke	t	n/a
151.903	0.076	303806	keystroke	i	n/a
152.098	0.061	304196	keystroke	o	n/a
152.204	0.09	304408	keystroke	s	n/a
152.3535	0.0895	304707	keystroke	Key.space	n/a
152.639	0.074	305278	keystroke	s	n/a
152.744	0.0895	305488	keystroke	p	n/a
152.8485	0.1195	305697	keystroke	e	n/a
152.938	0.12	305876	keystroke	a	n/a
153.0435	0.0595	306087	keystroke	k	n/a
153.1485	0.105	306297	keystroke	s	n/a
153.2385	0.1495	306477	keystroke	Key.enter	n/a
153.3965	4.5095	306793	prompt	n/a	absolute patch sandy opera\n
153.8985	0.105	307797	keystroke	a	n/a
154.1385	0.045	308277	keystroke	b	n/a
154.3035	0.09	308607	keystroke	s	n/a
154.4235	0.045	308847	keystroke	o	n/a
154.589	0.0745	309178	keystroke	l	n/a
154.7835	0.06	309567	keystroke	u	n/a
154.8735	0.135	309747	keystroke	t	n/a
154.9785	0.105	309957	keystroke	e	n/a
155.0985	0.06	310197	keystroke	Key.space	n/a
155.3535	0.045	310707	keystroke	p	n/a
155.4285	0.135	310857	keystroke	a	n/a
155.5335	0.12	311067	keystroke	t	n/a
155.7135	0.06	311427	keystroke	h	n/a
155.8935	0.075	311787	keystroke	Key.space	n/a
155.9835	0.195	311967	keystroke	s	n/a
156.1185	0.135	312237	keystroke	a	n/a
156.1785	0.06	312357	keystroke	n	n/a
156.5235	0.105	313047	keystroke	d	n/a
156.7485	0.105	313497	keystroke	y	n/a
156.8685	0.09	313737	keystroke	Key.space	n/a
157.108	0.06	314216	keystroke	o	n/a
157.273	0.076	314546	keystroke	p	n/a
157.334	0.134	314668	keystroke	e	n/a
157.409	0.15	314818	keystroke	r	n/a
157.543	0.1055	315086	keystroke	a	n/a
157.769	0.1345	315538	keystroke	Key.enter	n/a
157.9105	5.8595	315821	prompt	n/a	particularly dublin typing farm\n
158.5035	0.105	317007	keystroke	p	n/a
158.5935	0.135	317187	keystroke	a	n/a
158.6985	0.075	317397	keystroke	r	n/a
158.8635	0.075	317727	keystroke	t	n/a
158.9985	0.09	317997	keystroke	i	n/a
159.119	0.0745	318238	keystroke	c	n/a
159.284	0.0745	318568	keystroke	u	n/a
159.523	0.0755	319046	keystroke	l	n/a
159.6135	0.1505	319227	keystroke	a	n/a
159.719	0.1195	319438	keystroke	r	n/a
160.138	0.1055	320276	keystroke	l	n/a
160.228	0.09	320456	keystroke	y	n/a
160.393	0.075	320786	keystroke	Key.space	n/a
160.918	0.0905	321836	keystroke	d	n/a
161.0385	0.075	322077	keystroke	u	n/a
161.1885	0.075	322377	keystroke	b	n/a
161.2935	0.06	322587	keystroke	l	n/a
161.4435	0.0755	322887	keystroke	i	n/a
161.6235	0.06	323247	keystroke	n	n/a
161.7575	0.09	323515	keystroke	Key.space	n/a
161.879	0.1045	323758	keystroke	t	n/a
162.0885	0.06	324177	keystroke	y	n/a
162.2235	0.09	324447	keystroke	p	n/a
162.4635	0.06	324927	keystroke	i	n/a
162.644	0.089	325288	keystroke	n	n/a
162.748	0.0605	325496	keystroke	g	n/a
162.8385	0.075	325677	keystroke	Key.space	n/a
163.0485	0.12	326097	keystroke	f	n/a
163.1985	0.135	326397	keystroke	a	n/a
163.3935	0.06	326787	keystroke	r	n/a
163.4685	0.075	326937	keystroke	m	n/a
163.6485	0.1195	327297	keystroke	Key.enter	n/a
163.7755	5.786	327551	prompt	n/a	agree prairie connection chronic\n
164.293	0.1055	328586	keystroke	a	n/a
164.443	0.1055	328886	keystroke	g	n/a
164.6535	0.09	329307	keystroke	r	n/a
164.8335	0.0745	329667	keystroke	e	n/a
164.984	0.0745	329968	keystroke	e	n/a
165.133	0.0755	330266	keystroke	Key.space	n/a
165.4335	0.0745	330867	keystroke	p	n/a
165.5385	0.1495	331077	keystroke	r	n/a
165.734	0.104	331468	keystroke	a	n/a
165.929	0.074	331858	keystroke	i	n/a
166.618	0.105	333236	keystroke	r	n/a
166.813	0.0755	333626	keystroke	i	n/a
166.9185	0.1045	333837	keystroke	e	n/a
167.173	0.075	334346	keystroke	Key.space	n/a
167.3535	0.075	334707	keystroke	c	n/a
167.4435	0.059	334887	keystroke	o	n/a
167.6225	0.0465	335245	keystroke	n	n/a
167.729	0.0895	335458	keystroke	n	n/a
167.8035	0.1195	335607	keystroke	e	n/a
167.8785	0.09	335757	keystroke	c	n/a
168.074	0.089	336148	keystroke	t	n/a
168.149	0.059	336298	keystroke	i	n/a
168.283	0.075	336566	keystroke	o	n/a
168.359	0.0745	336718	keystroke	n	n/a
168.4785	0.1045	336957	keystroke	Key.space	n/a
168.598	0.105	337196	keystroke	c	n/a
168.733	0.0755	337466	keystroke	h	n/a
168.809	0.0895	337618	keystroke	r	n/a
168.9435	0.0595	337887	keystroke	o	n/a
169.108	0.0455	338216	keystroke	n	n/a
169.2585	0.075	338517	keystroke	i	n/a
169.3485	0.105	338697	keystroke	c	n/a
169.4385	0.12	338877	keystroke	Key.enter	n/a
169.5715	8.8835	339143	prompt	n/a	diagnostic somewhere guidelines skirts\n
170.129	0.0445	340258	keystroke	a	n/a
170.3835	0.09	340767	keystroke	Key.backspace	n/a
170.4885	0.059	340977	keystroke	d	n/a
170.5625	0.075	341125	keystroke	i	n/a
170.669	0.059	341338	keystroke	s	n/a
171.1335	0.09	342267	keystroke	Key.backspace	n/a
171.2385	0.06	342477	keystroke	a	n/a
171.554	0.0895	343108	keystroke	g	n/a
171.6735	0.075	343347	keystroke	o	n/a
172.4085	0.015	344817	keystroke	Key.backspace	n/a
172.528	0.075	345056	keystroke	n	n/a
172.753	0.06	345506	keystroke	o	n/a
172.843	0.09	345686	keystroke	s	n/a
172.948	0.076	345896	keystroke	t	n/a
173.0535	0.075	346107	keystroke	i	n/a
173.1735	0.075	346347	keystroke	c	n/a
173.2785	0.075	346557	keystroke	Key.space	n/a
173.4135	0.09	346827	keystroke	s	n/a
173.669	0.0895	347338	keystroke	o	n/a
173.8635	0.09	347727	keystroke	m	n/a
173.9385	0.075	347877	keystroke	e	n/a
174.1485	0.075	348297	keystroke	w	n/a
174.224	0.0595	348448	keystroke	h	n/a
174.4635	0.075	348927	keystroke	e	n/a
174.7485	0.105	349497	keystroke	r	n/a
175.0185	0.09	350037	keystroke	e	n/a
175.183	0.075	350366	keystroke	Key.space	n/a
175.3935	0.0745	350787	keystroke	g	n/a
175.5285	0.0595	351057	keystroke	u	n/a
175.6785	0.09	351357	keystroke	i	n/a
175.7535	0.15	351507	keystroke	d	n/a
175.8735	0.09	351747	keystroke	e	n/a
175.978	0.0755	351956	keystroke	l	n/a
176.158	0.075	352316	keystroke	i	n/a
176.353	0.075	352706	keystroke	n	n/a
176.4585	0.1045	352917	keystroke	e	n/a
176.6835	0.105	353367	keystroke	s	n/a
177.043	0.1055	354086	keystroke	Key.space	n/a
177.2085	0.1205	354417	keystroke	s	n/a
177.419	0.0445	354838	keystroke	k	n/a
177.7035	0.089	355407	keystroke	i	n/a
177.914	0.0745	355828	keystroke	r	n/a
178.0935	0.105	356187	keystroke	t	n/a
178.213	0.0895	356426	keystroke	s	n/a
178.3325	0.1205	356665	keystroke	Key.enter	n/a
178.46	4.315	356920	prompt	n/a	effort legally obtaining hired\n
179.023	0.105	358046	keystroke	e	n/a
179.233	0.0455	358466	keystroke	f	n/a
179.338	0.09	358676	keystroke	f	n/a
179.458	0.075	358916	keystroke	o	n/a
179.518	0.09	359036	keystroke	r	n/a
179.683	0.0905	359366	keystroke	t	n/a
179.743	0.075	359486	keystroke	Key.space	n/a
179.954	0.059	359908	keystroke	l	n/a
179.998	0.1205	359996	keystroke	e	n/a
180.1335	0.12	360267	keystroke	g	n/a
180.2385	0.0755	360477	keystroke	a	n/a
180.343	0.0755	360686	keystroke	l	n/a
180.4785	0.0905	360957	keystroke	l	n/a
180.583	0.1055	361166	keystroke	y	n/a
180.718	0.075	361436	keystroke	Key.space	n/a
180.9285	0.0455	361857	keystroke	o	n/a
181.0035	0.075	362007	keystroke	b	n/a
181.213	0.12	362426	keystroke	t	n/a
181.348	0.0905	362696	keystroke	a	n/a
181.423	0.046	362846	keystroke	i	n/a
181.5735	0.045	363147	keystroke	n	n/a
181.7235	0.075	363447	keystroke	i	n/a
181.799	0.089	363598	keystroke	n	n/a
181.843	0.105	363686	keystroke	g	n/a
181.9335	0.0895	363867	keystroke	Key.space	n/a
182.1285	0.0595	364257	keystroke	h	n/a
182.248	0.075	364496	keystroke	i	n/a
182.338	0.15	364676	keystroke	r	n/a
182.473	0.09	364946	keystroke	e	n/a
182.608	0.09	365216	keystroke	d	n/a
182.683	0.09	365366	keystroke	Key.enter	n/a
182.7795	6.6555	365559	prompt	n/a	verzeichnis supported hold trader\n
183.7335	0.105	367467	keystroke	v	n/a
183.8535	0.135	367707	keystroke	e	n/a
183.9435	0.105	367887	keystroke	r	n/a
184.1985	0.09	368397	keystroke	z	n/a
184.4235	0.06	368847	keystroke	e	n/a
184.6485	0.075	369297	keystroke	i	n/a
184.7535	0.09	369507	keystroke	c	n/a
184.889	0.0595	369778	keystroke	h	n/a
185.2635	0.074	370527	keystroke	n	n/a
185.4435	0.059	370887	keystroke	i	n/a
185.5485	0.075	371097	keystroke	s	n/a
185.6385	0.09	371277	keystroke	Key.space	n/a
186.0735	0.105	372147	keystroke	s	n/a
186.1635	0.075	372327	keystroke	u	n/a
186.3735	0.06	372747	keystroke	p	n/a
186.5085	0.06	373017	keystroke	p	n/a
186.6435	0.105	373287	keystroke	o	n/a
186.7635	0.105	373527	keystroke	r	n/a
187.093	0.1045	374186	keystroke	t	n/a
187.2425	0.1065	374485	keystroke	e	n/a
187.4085	0.105	374817	keystroke	d	n/a
187.558	0.075	375116	keystroke	Key.space	n/a
187.813	0.03	375626	keystroke	h	n/a
187.858	0.1055	375716	keystroke	o	n/a
188.069	0.1045	376138	keystroke	l	n/a
188.158	0.075	376316	keystroke	d	n/a
188.383	0.105	376766	keystroke	Key.space	n/a
188.6385	0.0905	377277	keystroke	t	n/a
188.803	0.091	377606	keystroke	r	n/a
188.909	0.1195	377818	keystroke	a	n/a
189.013	0.106	378026	keystroke	d	n/a
189.133	0.12	378266	keystroke	e	n/a
189.208	0.106	378416	keystroke	r	n/a
189.283	0.15	378566	keystroke	Key.enter	n/a
189.439	10.5705	378878	prompt	n/a	assumptions subsequent analytical problem\n
189.9435	0.09	379887	keystroke	a	n/a
190.1085	0.06	380217	keystroke	s	n/a
190.244	0.0745	380488	keystroke	s	n/a
190.2885	0.075	380577	keystroke	u	n/a
190.4685	0.09	380937	keystroke	m	n/a
190.7235	0.0295	381447	keystroke	p	n/a
190.828	0.09	381656	keystroke	t	n/a
190.9635	0.045	381927	keystroke	i	n/a
191.128	0.075	382256	keystroke	o	n/a
191.218	0.076	382436	keystroke	n	n/a
191.4585	0.0295	382917	keystroke	s	n/a
191.4735	0.09	382947	keystroke	Key.space	n/a
192.448	0.12	384896	keystroke	s	n/a
192.583	0.075	385166	keystroke	u	n/a
192.718	0.105	385436	keystroke	b	n/a
193.0335	0.0895	386067	keystroke	s	n/a
193.3335	0.119	386667	keystroke	e	n/a
193.498	0.1205	386996	keystroke	q	n/a
193.6785	0.0895	387357	keystroke	u	n/a
193.798	0.075	387596	keystroke	e	n/a
193.903	0.0905	387806	keystroke	n	n/a
193.978	0.09	387956	keystroke	t	n/a
194.098	0.075	388196	keystroke	Key.space	n/a
194.2335	0.105	388467	keystroke	a	n/a
194.383	0.075	388766	keystroke	n	n/a
194.503	0.1055	389006	keystroke	a	n/a
194.8335	0.119	389667	keystroke	l	n/a
195.0735	0.09	390147	keystroke	y	n/a
195.373	0.0755	390746	keystroke	t	n/a
195.763	0.105	391526	keystroke	Key.backspace	n/a
195.898	0.09	391796	keystroke	y	n/a
196.3625	0.0755	392725	keystroke	Key.backspace	n/a
197.7135	0.075	395427	keystroke	t	n/a
197.8935	0.075	395787	keystroke	i	n/a
197.9695	0.134	395939	keystroke	c	n/a
198.0735	0.09	396147	keystroke	a	n/a
198.1485	0.075	396297	keystroke	l	n/a
198.2535	0.104	396507	keystroke	Key.space	n/a
198.5235	0.075	397047	keystroke	p	n/a
198.5835	0.074	397167	keystroke	r	n/a
198.718	0.06	397436	keystroke	o	n/a
198.793	0.075	397586	keystroke	b	n/a
198.898	0.075	397796	keystroke	l	n/a
198.9885	0.0895	397977	keystroke	e	n/a
199.108	0.0755	398216	keystroke	m	n/a
199.243	0.0905	398486	keystroke	s	n/a
199.723	0.06	399446	keystroke	Key.backspace	n/a
199.9025	0.105	399805	keystroke	Key.enter	n/a
200.013	7.167	400026	prompt	n/a	went colony north guitars\n
200.5335	0.1345	401067	keystroke	w	n/a
200.623	0.12	401246	keystroke	e	n/a
200.758	0.06	401516	keystroke	n	n/a
200.848	0.06	401696	keystroke	t	n/a
200.923	0.075	401846	keystroke	Key.space	n/a
201.043	0.0605	402086	keystroke	c	n/a
201.253	0.06	402506	keystroke	l	n/a
201.538	0.135	403076	keystroke	Key.backspace	n/a
201.7035	0.0745	403407	keystroke	o	n/a
201.853	0.0455	403706	keystroke	l	n/a
201.9875	0.045	403975	keystroke	o	n/a
202.1525	0.09	404305	keystroke	n	n/a
202.4225	0.06	404845	keystroke	o	n/a
202.5875	0.091	405175	keystroke	l	n/a
202.6935	0.119	405387	keystroke	y	n/a
202.8425	0.09	405685	keystroke	Key.space	n/a
203.2325	0.061	406465	keystroke	Key.backspace	n/a
203.368	0.0755	406736	keystroke	Key.backspace	n/a
203.518	0.075	407036	keystroke	Key.backspace	n/a
203.653	0.09	407306	keystroke	Key.backspace	n/a
204.7635	0.09	409527	keystroke	y	n/a
204.8985	0.089	409797	keystroke	Key.space	n/a
205.0485	0.075	410097	keystroke	c	n/a
205.2735	0.075	410547	keystroke	Key.backspace	n/a
205.4835	0.06	410967	keystroke	n	n/a
205.679	0.0745	411358	keystroke	o	n/a
205.7385	0.045	411477	keystroke	r	n/a
205.8585	0.075	411717	keystroke	t	n/a
205.9335	0.06	411867	keystroke	h	n/a
206.0835	0.075	412167	keystroke	Key.space	n/a
206.1885	0.105	412377	keystroke	g	n/a
206.3085	0.06	412617	keystroke	u	n/a
206.4585	0.09	412917	keystroke	i	n/a
206.5335	0.105	413067	keystroke	t	n/a
206.6685	0.135	413337	keystroke	a	n/a
206.788	0.15	413576	keystroke	r	n/a
206.923	0.105	413846	keystroke	s	n/a
207.058	0.12	414116	keystroke	Key.enter	n/a
207.1875	5.5425	414375	prompt	n/a	petition saddam miami connect\n
207.8085	0.105	415617	keystroke	p	n/a
207.8985	0.105	415797	keystroke	e	n/a
208.2885	0.075	416577	keystroke	t	n/a
208.4235	0.0745	416847	keystroke	i	n/a
208.573	0.0755	417146	keystroke	t	n/a
208.649	0.0745	417298	keystroke	i	n/a
208.8135	0.09	417627	keystroke	o	n/a
208.8875	0.0755	417775	keystroke	n	n/a
209.0675	0.076	418135	keystroke	Key.space	n/a
209.2335	0.105	418467	keystroke	d	n/a
209.3535	0.089	418707	keystroke	s	n/a
209.563	0.045	419126	keystroke	Key.backspace	n/a
209.683	0.09	419366	keystroke	Key.backspace	n/a
209.758	0.1955	419516	keystroke	s	n/a
209.878	0.15	419756	keystroke	a	n/a
210.0735	0.075	420147	keystroke	d	n/a
210.1935	0.12	420387	keystroke	d	n/a
210.3425	0.12	420685	keystroke	a	n/a
210.4775	0.0615	420955	keystroke	m	n/a
210.6275	0.091	421255	keystroke	Key.space	n/a
210.8235	0.0745	421647	keystroke	m	n/a
210.9735	0.09	421947	keystroke	i	n/a
211.078	0.1055	422156	keystroke	a	n/a
211.1685	0.0745	422337	keystroke	m	n/a
211.333	0.0745	422666	keystroke	i	n/a
211.5125	0.075	423025	keystroke	Key.space	n/a
211.6785	0.06	423357	keystroke	c	n/a
211.7535	0.0595	423507	keystroke	o	n/a
211.9335	0.0595	423867	keystroke	n	n/a
212.0835	0.0745	424167	keystroke	n	n/a
212.248	0.1205	424496	keystroke	e	n/a
212.353	0.09	424706	keystroke	c	n/a
212.5485	0.089	425097	keystroke	t	n/a
212.6225	0.105	425245	keystroke	Key.enter	n/a
212.7345	5.0805	425469	prompt	n/a	machines inner possibly frames\n
213.373	0.075	426746	keystroke	m	n/a
213.433	0.0905	426866	keystroke	a	n/a
213.553	0.09	427106	keystroke	c	n/a
213.6885	0.0445	427377	keystroke	h	n/a
213.838	0.06	427676	keystroke	i	n/a
213.9885	0.09	427977	keystroke	n	n/a
214.093	0.06	428186	keystroke	e	n/a
214.2575	0.06	428515	keystroke	s	n/a
214.3185	0.06	428637	keystroke	Key.space	n/a
214.498	0.0605	428996	keystroke	i	n/a
214.678	0.06	429356	keystroke	n	n/a
214.798	0.075	429596	keystroke	n	n/a
214.858	0.1355	429716	keystroke	e	n/a
214.9335	0.105	429867	keystroke	r	n/a
215.0235	0.075	430047	keystroke	Key.space	n/a
215.3235	0.0905	430647	keystroke	p	n/a
215.548	0.06	431096	keystroke	o	n/a
215.7285	0.0595	431457	keystroke	s	n/a
215.8635	0.105	431727	keystroke	s	n/a
215.998	0.075	431996	keystroke	i	n/a
216.088	0.09	432176	keystroke	b	n/a
216.208	0.09	432416	keystroke	l	n/a
216.3435	0.0895	432687	keystroke	y	n/a
216.508	0.0605	433016	keystroke	Key.space	n/a
216.838	0.09	433676	keystroke	f	n/a
217.018	0.105	434036	keystroke	r	n/a
217.0935	0.1195	434187	keystroke	a	n/a
217.1835	0.0905	434367	keystroke	m	n/a
217.393	0.075	434786	keystroke	e	n/a
217.6035	0.09	435207	keystroke	s	n/a
217.7235	0.0895	435447	keystroke	Key.enter	n/a
217.8195	4.7805	435639	prompt	n/a	made correctly investment but\n
218.3685	0.075	436737	keystroke	m	n/a
218.4445	0.1335	436889	keystroke	a	n/a
218.5185	0.1795	437037	keystroke	d	n/a
218.608	0.1205	437216	keystroke	e	n/a
218.713	0.075	437426	keystroke	Key.space	n/a
218.834	0.105	437668	keystroke	c	n/a
218.953	0.0605	437906	keystroke	o	n/a
219.058	0.06	438116	keystroke	r	n/a
219.194	0.1045	438388	keystroke	r	n/a
219.2685	0.12	438537	keystroke	e	n/a
219.4175	0.075	438835	keystroke	c	n/a
219.598	0.06	439196	keystroke	t	n/a
219.628	0.075	439256	keystroke	i	n/a
219.973	0.0905	439946	keystroke	Key.backspace	n/a
220.3635	0.1045	440727	keystroke	l	n/a
220.483	0.09	440966	keystroke	y	n/a
220.663	0.0605	441326	keystroke	Key.space	n/a
220.888	0.06	441776	keystroke	i	n/a
221.038	0.1055	442076	keystroke	n	n/a
221.083	0.1345	442166	keystroke	v	n/a
221.1585	0.105	442317	keystroke	e	n/a
221.3535	0.09	442707	keystroke	s	n/a
221.4275	0.09	442855	keystroke	t	n/a
221.533	0.0905	443066	keystroke	m	n/a
221.6685	0.075	443337	keystroke	e	n/a
221.7285	0.074	443457	keystroke	n	n/a
221.8775	0.076	443755	keystroke	t	n/a
221.938	0.075	443876	keystroke	Key.space	n/a
222.163	0.09	444326	keystroke	b	n/a
222.298	0.075	444596	keystroke	u	n/a
222.3885	0.089	444777	keystroke	t	n/a
222.4925	0.105	444985	keystroke	Key.enter	n/a
222.6035	5.9515	445207	prompt	n/a	stack contribution avatar nearest\n
223.1385	0.105	446277	keystroke	s	n/a
223.2585	0.075	446517	keystroke	t	n/a
223.3925	0.121	446785	keystroke	a	n/a
223.4825	0.0905	446965	keystroke	c	n/a
223.5575	0.0605	447115	keystroke	k	n/a
223.7235	0.075	447447	keystroke	Key.space	n/a
223.948	0.075	447896	keystroke	c	n/a
224.038	0.0455	448076	keystroke	o	n/a
224.2035	0.075	448407	keystroke	n	n/a
224.2485	0.0895	448497	keystroke	t	n/a
224.4285	0.0745	448857	keystroke	r	n/a
224.563	0.0905	449126	keystroke	i	n/a
224.668	0.075	449336	keystroke	b	n/a
224.788	0.075	449576	keystroke	u	n/a
224.893	0.1205	449786	keystroke	t	n/a
225.0585	0.044	450117	keystroke	i	n/a
225.2375	0.0605	450475	keystroke	o	n/a
225.3145	0.089	450629	keystroke	n	n/a
225.4475	0.09	450895	keystroke	Key.space	n/a
225.5825	0.106	451165	keystroke	a	n/a
225.7185	0.105	451437	keystroke	v	n/a
225.8385	0.1345	451677	keystroke	a	n/a
225.9875	0.105	451975	keystroke	t	n/a
226.2275	0.0305	452455	keystroke	r	n/a
226.3035	0.09	452607	keystroke	a	n/a
226.753	0.06	453506	keystroke	Key.backspace	n/a
227.1735	0.075	454347	keystroke	Key.backspace	n/a
227.2635	0.165	454527	keystroke	a	n/a
227.3535	0.105	454707	keystroke	r	n/a
227.4875	0.106	454975	keystroke	Key.space	n/a
227.683	0.09	455366	keystroke	n	n/a
227.773	0.105	455546	keystroke	e	n/a
227.863	0.135	455726	keystroke	a	n/a
227.983	0.15	455966	keystroke	r	n/a
228.103	0.105	456206	keystroke	e	n/a
228.2685	0.105	456537	keystroke	s	n/a
228.343	0.105	456686	keystroke	t	n/a
228.463	0.0905	456926	keystroke	Key.enter	n/a
228.56	5.9205	457120	prompt	n/a	smooth deadly providers seventh\n
229.0935	0.0895	458187	keystroke	s	n/a
229.198	0.075	458396	keystroke	m	n/a
229.393	0.045	458786	keystroke	o	n/a
229.5135	0.0895	459027	keystroke	o	n/a
229.633	0.09	459266	keystroke	t	n/a
229.843	0.06	459686	keystroke	h	n/a
230.023	0.075	460046	keystroke	Key.space	n/a
230.113	0.1355	460226	keystroke	d	n/a
230.218	0.15	460436	keystroke	e	n/a
230.383	0.09	460766	keystroke	a	n/a
230.5035	0.105	461007	keystroke	d	n/a
230.7135	0.0745	461427	keystroke	l	n/a
230.893	0.09	461786	keystroke	y	n/a
231.0425	0.0755	462085	keystroke	Key.space	n/a
231.2835	0.075	462567	keystroke	p	n/a
231.3735	0.044	462747	keystroke	r	n/a
231.5235	0.0145	463047	keystroke	i	n/a
231.568	0.0905	463136	keystroke	v	n/a
232.093	0.075	464186	keystroke	Key.backspace	n/a
232.243	0.105	464486	keystroke	Key.backspace	n/a
232.3935	0.1345	464787	keystroke	o	n/a
232.543	0.105	465086	keystroke	v	n/a
232.6935	0.0595	465387	keystroke	i	n/a
232.813	0.135	465626	keystroke	d	n/a
232.9635	0.09	465927	keystroke	e	n/a
233.038	0.1055	466076	keystroke	r	n/a
233.173	0.0905	466346	keystroke	s	n/a
233.278	0.09	466556	keystroke	Key.space	n/a
233.4135	0.0745	466827	keystroke	s	n/a
233.5785	0.074	467157	keystroke	e	n/a
233.7135	0.119	467427	keystroke	v	n/a
233.8025	0.1055	467605	keystroke	e	n/a
233.9525	0.1055	467905	keystroke	n	n/a
234.073	0.1195	468146	keystroke	t	n/a
234.178	0.0895	468356	keystroke	h	n/a
234.3725	0.106	468745	keystroke	Key.enter	n/a
234.4855	5.079	468971	prompt	n/a	enables spies massive tahoe\n
235.0335	0.1045	470067	keystroke	e	n/a
235.153	0.075	470306	keystroke	n	n/a
235.273	0.105	470546	keystroke	a	n/a
235.453	0.075	470906	keystroke	v	n/a
235.888	0.06	471776	keystroke	Key.backspace	n/a
235.978	0.0605	471956	keystroke	b	n/a
236.0825	0.076	472165	keystroke	l	n/a
236.1725	0.076	472345	keystroke	e	n/a
236.3375	0.091	472675	keystroke	s	n/a
236.4135	0.0895	472827	keystroke	Key.space	n/a
236.5785	0.089	473157	keystroke	s	n/a
236.6525	0.061	473305	keystroke	p	n/a
236.8475	0.061	473695	keystroke	i	n/a
236.923	0.105	473846	keystroke	e	n/a
237.2535	0.0895	474507	keystroke	s	n/a
237.373	0.09	474746	keystroke	Key.space	n/a
237.6585	0.09	475317	keystroke	m	n/a
237.8085	0.135	475617	keystroke	a	n/a
237.928	0.0905	475856	keystroke	s	n/a
238.078	0.1055	476156	keystroke	s	n/a
238.2585	0.074	476517	keystroke	i	n/a
238.3185	0.119	476637	keystroke	v	n/a
238.3935	0.12	476787	keystroke	e	n/a
238.5275	0.0755	477055	keystroke	Key.space	n/a
238.768	0.1055	477536	keystroke	t	n/a
238.8585	0.119	477717	keystroke	a	n/a
239.0975	0.091	478195	keystroke	h	n/a
239.2335	0.09	478467	keystroke	o	n/a
239.3675	0.075	478735	keystroke	e	n/a
239.4575	0.105	478915	keystroke	Key.enter	n/a
239.5695	3.31	479139	prompt	n/a	seek game filled phones\n
240.0585	0.075	480117	keystroke	s	n/a
240.2375	0.06	480475	keystroke	e	n/a
240.3735	0.09	480747	keystroke	e	n/a
240.4485	0.06	480897	keystroke	k	n/a
240.628	0.09	481256	keystroke	Key.space	n/a
240.7035	0.0895	481407	keystroke	g	n/a
240.763	0.12	481526	keystroke	a	n/a
240.898	0.06	481796	keystroke	m	n/a
240.9735	0.0745	481947	keystroke	e	n/a
241.063	0.075	482126	keystroke	Key.space	n/a
241.243	0.105	482486	keystroke	f	n/a
241.333	0.06	482666	keystroke	i	n/a
241.513	0.0595	483026	keystroke	l	n/a
241.6325	0.091	483265	keystroke	l	n/a
241.7375	0.1055	483475	keystroke	e	n/a
241.8275	0.105	483655	keystroke	d	n/a
241.9035	0.074	483807	keystroke	Key.space	n/a
242.1275	0.0895	484255	keystroke	p	n/a
242.233	0.045	484466	keystroke	h	n/a
242.3085	0.0745	484617	keystroke	o	n/a
242.4875	0.0905	484975	keystroke	n	n/a
242.563	0.0745	485126	keystroke	e	n/a
242.743	0.105	485486	keystroke	s	n/a
242.818	0.06	485636	keystroke	Key.enter	n/a
242.885	4.2395	485770	prompt	n/a	anger less meet actively\n
243.403	0.1355	486806	keystroke	a	n/a
243.5675	0.06	487135	keystroke	n	n/a
243.613	0.1045	487226	keystroke	g	n/a
243.7325	0.1655	487465	keystroke	e	n/a
243.8375	0.12	487675	keystroke	r	n/a
243.9425	0.075	487885	keystroke	Key.space	n/a
244.153	0.0445	488306	keystroke	l	n/a
244.2425	0.0605	488485	keystroke	e	n/a
244.423	0.0605	488846	keystroke	s	n/a
244.5425	0.0755	489085	keystroke	s	n/a
244.6025	0.075	489205	keystroke	Key.space	n/a
244.8725	0.076	489745	keystroke	e	n/a
245.143	0.0595	490286	keystroke	Key.backspace	n/a
245.3235	0.075	490647	keystroke	m	n/a
245.4125	0.06	490825	keystroke	e	n/a
245.548	0.105	491096	keystroke	e	n/a
245.7125	0.09	491425	keystroke	t	n/a
245.833	0.0745	491666	keystroke	Key.space	n/a
246.043	0.045	492086	keystroke	a	n/a
246.1635	0.075	492327	keystroke	c	n/a
246.358	0.0605	492716	keystroke	t	n/a
246.448	0.0605	492896	keystroke	i	n/a
246.553	0.12	493106	keystroke	v	n/a
246.643	0.135	493286	keystroke	e	n/a
246.793	0.09	493586	keystroke	l	n/a
246.868	0.1045	493736	keystroke	y	n/a
247.003	0.1195	494006	keystroke	Key.enter	n/a
247.1285	5.4865	494257	prompt	n/a	payday kenny regard concept\n
247.7835	0.074	495567	keystroke	p	n/a
247.903	0.0445	495806	keystroke	a	n/a
248.0225	0.061	496045	keystroke	y	n/a
248.2485	0.119	496497	keystroke	d	n/a
248.3385	0.09	496677	keystroke	a	n/a
248.4885	0.09	496977	keystroke	y	n/a
248.638	0.0605	497276	keystroke	Key.space	n/a
249.0285	0.075	498057	keystroke	l	n/a
249.118	0.0905	498236	keystroke	e	n/a
249.4185	0.059	498837	keystroke	Key.backspace	n/a
249.5685	0.0595	499137	keystroke	Key.backspace	n/a
249.748	0.075	499496	keystroke	k	n/a
249.838	0.12	499676	keystroke	e	n/a
249.973	0.06	499946	keystroke	n	n/a
250.093	0.105	500186	keystroke	n	n/a
250.183	0.075	500366	keystroke	y	n/a
250.303	0.075	500606	keystroke	Key.space	n/a
250.498	0.09	500996	keystroke	r	n/a
250.573	0.09	501146	keystroke	e	n/a
250.708	0.09	501416	keystroke	g	n/a
250.798	0.1205	501596	keystroke	a	n/a
250.888	0.0905	501776	keystroke	r	n/a
251.068	0.0745	502136	keystroke	d	n/a
251.1425	0.0605	502285	keystroke	Key.space	n/a
251.473	0.09	502946	keystroke	c	n/a
251.578	0.0595	503156	keystroke	o	n/a
251.7575	0.1055	503515	keystroke	n	n/a
251.8775	0.12	503755	keystroke	c	n/a
251.9525	0.135	503905	keystroke	e	n/a
252.2675	0.045	504535	keystroke	p	n/a
252.3725	0.075	504745	keystroke	t	n/a
252.493	0.12	504986	keystroke	Key.enter	n/a
252.619	7.0305	505238	prompt	n/a	currently luther tags resist\n
253.198	0.075	506396	keystroke	c	n/a
253.348	0.0455	506696	keystroke	u	n/a
253.408	0.0745	506816	keystroke	r	n/a
253.558	0.12	507116	keystroke	r	n/a
253.633	0.12	507266	keystroke	e	n/a
253.7385	0.0595	507477	keystroke	n	n/a
254.113	0.06	508226	keystroke	Key.backspace	n/a
254.9075	0.0605	509815	keystroke	n	n/a
255.058	0.075	510116	keystroke	t	n/a
255.193	0.09	510386	keystroke	l	n/a
255.298	0.105	510596	keystroke	y	n/a
255.478	0.075	510956	keystroke	Key.space	n/a
255.748	0.075	511496	keystroke	l	n/a
255.958	0.045	511916	keystroke	u	n/a
256.018	0.09	512036	keystroke	t	n/a
256.1385	0.0895	512277	keystroke	h	n/a
256.213	0.105	512426	keystroke	e	n/a
256.2585	0.1045	512517	keystroke	r	n/a
256.333	0.0895	512666	keystroke	Key.space	n/a
256.453	0.1045	512906	keystroke	t	n/a
256.5725	0.136	513145	keystroke	a	n/a
256.6625	0.135	513325	keystroke	g	n/a
256.783	0.135	513566	keystroke	e	n/a
256.9025	0.075	513805	keystroke	r	n/a
257.188	0.0895	514376	keystroke	Key.backspace	n/a
257.293	0.0895	514586	keystroke	Key.backspace	n/a
257.5025	0.06	515005	keystroke	s	n/a
258.0125	0.1055	516025	keystroke	Key.space	n/a
258.2235	0.1195	516447	keystroke	r	n/a
258.3885	0.1195	516777	keystroke	e	n/a
258.673	0.06	517346	keystroke	s	n/a
258.793	0.135	517586	keystroke	i	n/a
258.973	0.075	517946	keystroke	s	n/a
259.078	0.03	518156	keystroke	t	n/a
259.5425	0.1055	519085	keystroke	Key.enter	n/a
259.653	6.011	519306	prompt	n/a	solution letter static clerk\n
260.353	0.12	520706	keystroke	s	n/a
260.413	0.09	520826	keystroke	o	n/a
260.593	0.075	521186	keystroke	l	n/a
260.818	0.03	521636	keystroke	u	n/a
261.193	0.105	522386	keystroke	t	n/a
261.328	0.09	522656	keystroke	i	n/a
261.493	0.105	522986	keystroke	o	n/a
261.583	0.12	523166	keystroke	n	n/a
261.778	0.0595	523556	keystroke	Key.space	n/a
262.2125	0.06	524425	keystroke	l	n/a
262.3025	0.0905	524605	keystroke	e	n/a
262.4675	0.0605	524935	keystroke	t	n/a
262.5725	0.105	525145	keystroke	t	n/a
262.6325	0.09	525265	keystroke	e	n/a
263.4435	0.075	526887	keystroke	r	n/a
263.6675	0.09	527335	keystroke	Key.space	n/a
263.9085	0.09	527817	keystroke	s	n/a
264.0135	0.105	528027	keystroke	t	n/a
264.1485	0.1045	528297	keystroke	a	n/a
264.2235	0.1045	528447	keystroke	t	n/a
264.343	0.0905	528686	keystroke	i	n/a
264.5835	0.0895	529167	keystroke	c	n/a
264.718	0.09	529436	keystroke	Key.space	n/a
264.928	0.0905	529856	keystroke	c	n/a
265.0185	0.104	530037	keystroke	l	n/a
265.0925	0.135	530185	keystroke	e	n/a
265.1825	0.1055	530365	keystroke	r	n/a
265.378	0.075	530756	keystroke	k	n/a
265.5425	0.12	531085	keystroke	Key.enter	n/a
265.669	8.0055	531338	prompt	n/a	samba celebration publishers monica\n
266.503	0.1645	533006	keystroke	s	n/a
266.6225	0.12	533245	keystroke	a	n/a
266.713	0.075	533426	keystroke	m	n/a
266.8175	0.135	533635	keystroke	e	n/a
267.2225	0.0605	534445	keystroke	Key.backspace	n/a
267.2685	0.1345	534537	keystroke	b	n/a
267.388	0.105	534776	keystroke	a	n/a
267.538	0.105	535076	keystroke	Key.space	n/a
268.3185	0.1345	536637	keystroke	c	n/a
268.513	0.06	537026	keystroke	e	n/a
268.783	0.105	537566	keystroke	l	n/a
268.993	0.09	537986	keystroke	e	n/a
269.308	0.0755	538616	keystroke	b	n/a
269.5185	0.119	539037	keystroke	r	n/a
269.6525	0.105	539305	keystroke	a	n/a
269.728	0.0905	539456	keystroke	t	n/a
269.8325	0.06	539665	keystroke	i	n/a
269.983	0.0755	539966	keystroke	o	n/a
270.0275	0.0755	540055	keystroke	n	n/a
270.2075	0.0605	540415	keystroke	Key.space	n/a
270.403	0.06	540806	keystroke	p	n/a
270.613	0.06	541226	keystroke	u	n/a
270.6585	0.1045	541317	keystroke	b	n/a
270.823	0.105	541646	keystroke	l	n/a
271.0335	0.074	542067	keystroke	i	n/a
271.468	0.059	542936	keystroke	s	n/a
271.5735	0.104	543147	keystroke	h	n/a
271.693	0.105	543386	keystroke	e	n/a
271.7685	0.1195	543537	keystroke	r	n/a
271.917	0.106	543834	keystroke	s	n/a
272.008	0.075	544016	keystroke	Key.space	n/a
272.203	0.0455	544406	keystroke	m	n/a
272.3675	0.0755	544735	keystroke	o	n/a
273.0585	0.0895	546117	keystroke	n	n/a
273.253	0.075	546506	keystroke	i	n/a
273.373	0.165	546746	keystroke	c	n/a
273.493	0.1205	546986	keystroke	a	n/a
273.553	0.1195	547106	keystroke	Key.enter	n/a
273.679	9.206	547358	prompt	n/a	enhancing connected recognize setup\n
274.318	0.0755	548636	keystroke	e	n/a
274.3935	0.119	548787	keystroke	n	n/a
274.5275	0.136	549055	keystroke	a	n/a
274.6175	0.075	549235	keystroke	h	n/a
274.813	0.0895	549626	keystroke	n	n/a
275.188	0.105	550376	keystroke	Key.backspace	n/a
275.3835	0.059	550767	keystroke	c	n/a
275.4735	0.059	550947	keystroke	n	n/a
275.9975	0.06	551995	keystroke	Key.backspace	n/a
276.088	0.1195	552176	keystroke	Key.backspace	n/a
276.433	0.1495	552866	keystroke	a	n/a
276.8675	0.0605	553735	keystroke	Key.backspace	n/a
277.018	0.0595	554036	keystroke	Key.backspace	n/a
277.138	0.12	554276	keystroke	Key.backspace	n/a
277.228	0.1055	554456	keystroke	h	n/a
277.363	0.075	554726	keystroke	a	n/a
277.453	0.09	554906	keystroke	n	n/a
277.588	0.0605	555176	keystroke	c	n/a
277.678	0.0755	555356	keystroke	i	n/a
277.8435	0.09	555687	keystroke	n	n/a
277.9185	0.075	555837	keystroke	g	n/a
278.023	0.0745	556046	keystroke	Key.space	n/a
278.143	0.09	556286	keystroke	c	n/a
278.2925	0.0605	556585	keystroke	o	n/a
278.4585	0.0745	556917	keystroke	n	n/a
278.578	0.0905	557156	keystroke	n	n/a
278.728	0.15	557456	keystroke	e	n/a
278.833	0.12	557666	keystroke	c	n/a
279.0735	0.1045	558147	keystroke	t	n/a
279.163	0.0905	558326	keystroke	e	n/a
279.4485	0.06	558897	keystroke	Key.space	n/a
280.063	0.0895	560126	keystroke	Key.backspace	n/a
280.168	0.1055	560336	keystroke	d	n/a
280.3025	0.0905	560605	keystroke	Key.space	n/a
280.4535	0.119	560907	keystroke	r	n/a
280.4975	0.121	560995	keystroke	e	n/a
280.6925	0.09	561385	keystroke	c	n/a
280.8125	0.0905	561625	keystroke	o	n/a
280.963	0.075	561926	keystroke	g	n/a
281.158	0.075	562316	keystroke	n	n/a
281.353	0.06	562706	keystroke	i	n/a
281.398	0.1505	562796	keystroke	z	n/a
281.5035	0.1195	563007	keystroke	e	n/a
281.638	0.09	563276	keystroke	Key.space	n/a
281.773	0.09	563546	keystroke	s	n/a
281.968	0.105	563936	keystroke	e	n/a
282.088	0.12	564176	keystroke	t	n/a
282.298	0.09	564596	keystroke	u	n/a
282.568	0.09	565136	keystroke	p	n/a
282.748	0.135	565496	keystroke	Key.enter	n/a
282.89	3.8795	565780	prompt	n/a	mark inch prix pain\n
283.543	0.0745	567086	keystroke	m	n/a
283.6325	0.1205	567265	keystroke	a	n/a
283.6775	0.105	567355	keystroke	r	n/a
283.7535	0.06	567507	keystroke	k	n/a
283.933	0.0595	567866	keystroke	Key.space	n/a
284.114	0.0585	568228	keystroke	i	n/a
284.2925	0.061	568585	keystroke	n	n/a
284.758	0.1055	569516	keystroke	c	n/a
284.878	0.0905	569756	keystroke	h	n/a
285.0725	0.075	570145	keystroke	Key.space	n/a
285.298	0.0905	570596	keystroke	p	n/a
285.373	0.1055	570746	keystroke	r	n/a
285.508	0.09	571016	keystroke	i	n/a
285.658	0.105	571316	keystroke	x	n/a
285.808	0.075	571616	keystroke	Key.space	n/a
286.063	0.0445	572126	keystroke	p	n/a
286.1835	0.104	572367	keystroke	a	n/a
286.2585	0.0745	572517	keystroke	i	n/a
286.453	0.0905	572906	keystroke	n	n/a
286.6625	0.105	573325	keystroke	Key.enter	n/a
286.7735	4.2715	573547	prompt	n/a	rooms dream reader violin\n
287.428	0.12	574856	keystroke	r	n/a
287.5635	0.06	575127	keystroke	o	n/a
287.668	0.0895	575336	keystroke	o	n/a
287.8485	0.089	575697	keystroke	m	n/a
287.9675	0.105	575935	keystroke	s	n/a
288.0575	0.09	576115	keystroke	Key.space	n/a
288.2675	0.105	576535	keystroke	d	n/a
288.4625	0.0605	576925	keystroke	r	n/a
288.6275	0.09	577255	keystroke	e	n/a
288.7035	0.104	577407	keystroke	a	n/a
288.793	0.045	577586	keystroke	m	n/a
288.9275	0.105	577855	keystroke	Key.space	n/a
289.1535	0.105	578307	keystroke	r	n/a
289.333	0.12	578666	keystroke	e	n/a
289.4225	0.1505	578845	keystroke	a	n/a
289.543	0.105	579086	keystroke	d	n/a
289.678	0.135	579356	keystroke	e	n/a
289.768	0.09	579536	keystroke	r	n/a
289.888	0.06	579776	keystroke	Key.space	n/a
290.0525	0.075	580105	keystroke	v	n/a
290.1885	0.075	580377	keystroke	i	n/a
290.353	0.0595	580706	keystroke	o	n/a
290.5175	0.0605	581035	keystroke	l	n/a
290.6535	0.06	581307	keystroke	i	n/a
290.8025	0.0905	581605	keystroke	n	n/a
290.938	0.105	581876	keystroke	Key.enter	n/a
291.05	7.3755	582100	prompt	n/a	release announced necessity collins\n
291.598	0.075	583196	keystroke	r	n/a
291.763	0.1345	583526	keystroke	e	n/a
291.853	0.12	583706	keystroke	a	n/a
292.0025	0.1055	584005	keystroke	l	n/a
292.213	0.045	584426	keystroke	e	n/a
292.3625	0.06	584725	keystroke	Key.backspace	n/a
292.4975	0.18	584995	keystroke	Key.backspace	n/a
292.8275	0.0755	585655	keystroke	Key.backspace	n/a
292.9925	0.106	585985	keystroke	l	n/a
293.0985	0.119	586197	keystroke	e	n/a
293.2025	0.195	586405	keystroke	a	n/a
293.2925	0.12	586585	keystroke	s	n/a
293.4735	0.09	586947	keystroke	e	n/a
293.5785	0.0745	587157	keystroke	Key.space	n/a
293.7135	0.135	587427	keystroke	a	n/a
293.8175	0.06	587635	keystroke	n	n/a
293.9525	0.0755	587905	keystroke	n	n/a
294.1475	0.0755	588295	keystroke	o	n/a
294.343	0.045	588686	keystroke	u	n/a
294.478	0.105	588956	keystroke	n	n/a
294.568	0.1345	589136	keystroke	c	n/a
294.673	0.1195	589346	keystroke	e	n/a
294.8375	0.1055	589675	keystroke	d	n/a
294.973	0.075	589946	keystroke	Key.space	n/a
295.408	0.0755	590816	keystroke	n	n/a
295.4685	0.105	590937	keystroke	e	n/a
295.6335	0.1645	591267	keystroke	c	n/a
295.7525	0.135	591505	keystroke	e	n/a
296.338	0.075	592676	keystroke	s	n/a
296.473	0.09	592946	keystroke	s	n/a
296.623	0.105	593246	keystroke	i	n/a
296.713	0.075	593426	keystroke	t	n/a
296.878	0.075	593756	keystroke	y	n/a
296.998	0.075	593996	keystroke	Key.space	n/a
297.2525	0.0905	594505	keystroke	c	n/a
297.3275	0.0455	594655	keystroke	o	n/a
297.493	0.0755	594986	keystroke	l	n/a
297.628	0.075	595256	keystroke	l	n/a
297.853	0.09	595706	keystroke	i	n/a
298.018	0.105	596036	keystroke	n	n/a
298.138	0.09	596276	keystroke	s	n/a
298.288	0.1355	596576	keystroke	Key.enter	n/a
298.4305	8.0195	596861	prompt	n/a	literature viewers informational lincoln\n
298.993	0.105	597986	keystroke	l	n/a
299.2025	0.0905	598405	keystroke	i	n/a
299.278	0.105	598556	keystroke	t	n/a
299.353	0.135	598706	keystroke	e	n/a
299.458	0.1655	598916	keystroke	r	n/a
299.578	0.1505	599156	keystroke	a	n/a
299.698	0.075	599396	keystroke	t	n/a
299.818	0.09	599636	keystroke	u	n/a
299.923	0.09	599846	keystroke	r	n/a
299.953	0.12	599906	keystroke	e	n/a
300.058	0.09	600116	keystroke	Key.space	n/a
300.298	0.06	600596	keystroke	v	n/a
300.508	0.075	601016	keystroke	i	n/a
300.598	0.15	601196	keystroke	e	n/a
300.703	0.105	601406	keystroke	w	n/a
300.943	0.1195	601886	keystroke	e	n/a
301.033	0.1495	602066	keystroke	r	n/a
301.3325	0.105	602665	keystroke	s	n/a
301.4825	0.06	602965	keystroke	Key.space	n/a
301.693	0.06	603386	keystroke	i	n/a
301.858	0.0905	603716	keystroke	n	n/a
301.933	0.1045	603866	keystroke	f	n/a
302.0675	0.075	604135	keystroke	o	n/a
302.158	0.105	604316	keystroke	r	n/a
302.278	0.09	604556	keystroke	m	n/a
302.338	0.18	604676	keystroke	a	n/a
302.413	0.12	604826	keystroke	t	n/a
302.548	0.06	605096	keystroke	i	n/a
302.698	0.09	605396	keystroke	o	n/a
302.9685	0.104	605937	keystroke	n	n/a
303.3435	0.105	606687	keystroke	a	n/a
303.463	0.0895	606926	keystroke	l	n/a
303.5825	0.105	607165	keystroke	Key.space	n/a
303.8375	0.0605	607675	keystroke	i	n/a
304.348	0.105	608696	keystroke	Key.backspace	n/a
304.528	0.09	609056	keystroke	l	n/a
304.753	0.06	609506	keystroke	i	n/a
304.948	0.09	609896	keystroke	n	n/a
305.0835	0.105	610167	keystroke	c	n/a
305.2025	0.06	610405	keystroke	o	n/a
305.3675	0.0755	610735	keystroke	l	n/a
305.5475	0.091	611095	keystroke	m	n/a
305.893	0.105	611786	keystroke	Key.backspace	n/a
306.1035	0.089	612207	keystroke	n	n/a
306.3275	0.12	612655	keystroke	Key.enter	n/a
306.454	4.6005	612908	prompt	n/a	blocking floating adding mighty\n
307.033	0.105	614066	keystroke	b	n/a
307.108	0.06	614216	keystroke	l	n/a
307.273	0.075	614546	keystroke	o	n/a
307.333	0.09	614666	keystroke	c	n/a
307.438	0.06	614876	keystroke	k	n/a
307.573	0.06	615146	keystroke	i	n/a
307.738	0.075	615476	keystroke	n	n/a
307.783	0.09	615566	keystroke	g	n/a
307.933	0.075	615866	keystroke	Key.space	n/a
308.2175	0.105	616435	keystroke	f	n/a
308.3075	0.06	616615	keystroke	l	n/a
308.473	0.0895	616946	keystroke	o	n/a
308.6075	0.12	617215	keystroke	a	n/a
308.6675	0.121	617335	keystroke	t	n/a
308.7725	0.06	617545	keystroke	i	n/a
308.953	0.0595	617906	keystroke	n	n/a
309.0275	0.075	618055	keystroke	g	n/a
309.133	0.09	618266	keystroke	Key.space	n/a
309.253	0.18	618506	keystroke	a	n/a
309.403	0.06	618806	keystroke	d	n/a
309.5385	0.119	619077	keystroke	d	n/a
309.6725	0.075	619345	keystroke	i	n/a
309.8375	0.0755	619675	keystroke	n	n/a
309.8975	0.0755	619795	keystroke	g	n/a
310.003	0.0745	620006	keystroke	Key.space	n/a
310.1685	0.0595	620337	keystroke	m	n/a
310.333	0.075	620666	keystroke	i	n/a
310.423	0.105	620846	keystroke	g	n/a
310.513	0.09	621026	keystroke	h	n/a
310.618	0.075	621236	keystroke	t	n/a
310.768	0.12	621536	keystroke	y	n/a
310.918	0.135	621836	keystroke	Key.enter	n/a
311.059	5.185	622118	prompt	n/a	gaming blvd flavor cult\n
311.6385	0.134	623277	keystroke	g	n/a
311.7575	0.1355	623515	keystroke	a	n/a
311.817	0.09	623634	keystroke	m	n/a
311.998	0.09	623996	keystroke	i	n/a
312.0735	0.1195	624147	keystroke	n	n/a
312.1325	0.106	624265	keystroke	g	n/a
312.252	0.106	624504	keystroke	Key.space	n/a
312.3885	0.104	624777	keystroke	b	n/a
312.5525	0.0905	625105	keystroke	l	n/a
313.4675	0.135	626935	keystroke	v	n/a
313.8125	0.0745	627625	keystroke	d	n/a
313.962	0.091	627924	keystroke	Key.space	n/a
314.202	0.1215	628404	keystroke	f	n/a
314.338	0.089	628676	keystroke	l	n/a
314.428	0.1195	628856	keystroke	a	n/a
315.1475	0.1055	630295	keystroke	v	n/a
315.328	0.075	630656	keystroke	o	n/a
315.418	0.0895	630836	keystroke	r	n/a
315.5525	0.0895	631105	keystroke	Key.space	n/a
315.688	0.059	631376	keystroke	c	n/a
315.763	0.075	631526	keystroke	u	n/a
315.958	0.09	631916	keystroke	l	n/a
316.033	0.105	632066	keystroke	t	n/a
316.153	0.09	632306	keystroke	Key.enter	n/a
316.2495	7.75	632499	prompt	n/a	requires required inspiration apply\n
316.813	0.15	633626	keystroke	r	n/a
317.263	0.105	634526	keystroke	e	n/a
317.383	0.105	634766	keystroke	q	n/a
317.548	0.075	635096	keystroke	u	n/a
317.7575	0.075	635515	keystroke	i	n/a
317.848	0.15	635696	keystroke	r	n/a
317.953	0.09	635906	keystroke	e	n/a
318.148	0.09	636296	keystroke	s	n/a
318.253	0.09	636506	keystroke	Key.space	n/a
318.673	0.09	637346	keystroke	r	n/a
318.868	0.15	637736	keystroke	e	n/a
318.9735	0.1345	637947	keystroke	q	n/a
319.123	0.06	638246	keystroke	u	n/a
319.318	0.075	638636	keystroke	i	n/a
319.408	0.135	638816	keystroke	r	n/a
319.873	0.105	639746	keystroke	e	n/a
320.248	0.12	640496	keystroke	d	n/a
320.398	0.075	640796	keystroke	Key.space	n/a
320.593	0.075	641186	keystroke	i	n/a
320.7585	0.09	641517	keystroke	n	n/a
321.193	0.09	642386	keystroke	s	n/a
321.253	0.105	642506	keystroke	p	n/a
321.508	0.06	643016	keystroke	i	n/a
321.553	0.12	643106	keystroke	r	n/a
321.6885	0.1495	643377	keystroke	a	n/a
321.7775	0.0905	643555	keystroke	t	n/a
321.8825	0.075	643765	keystroke	i	n/a
322.078	0.075	644156	keystroke	o	n/a
322.1685	0.0745	644337	keystroke	n	n/a
322.3775	0.0905	644755	keystroke	a	n/a
322.693	0.0895	645386	keystroke	Key.backspace	n/a
322.7975	0.12	645595	keystroke	Key.space	n/a
322.888	0.165	645776	keystroke	a	n/a
322.9625	0.075	645925	keystroke	p	n/a
323.0975	0.0905	646195	keystroke	p	n/a
323.533	0.06	647066	keystroke	l	n/a
323.608	0.105	647216	keystroke	y	n/a
323.893	0.104	647786	keystroke	Key.enter	n/a
324.004	7.377	648008	prompt	n/a	directed check bears contributing\n
324.5525	0.06	649105	keystroke	d	n/a
324.6725	0.076	649345	keystroke	i	n/a
324.837	0.1055	649674	keystroke	r	n/a
324.912	0.1205	649824	keystroke	e	n/a
325.093	0.09	650186	keystroke	c	n/a
325.303	0.074	650606	keystroke	r	n/a
325.3625	0.1045	650725	keystroke	e	n/a
326.158	0.075	652316	keystroke	Key.backspace	n/a
326.3225	0.075	652645	keystroke	Key.backspace	n/a
326.487	0.061	652974	keystroke	Key.backspace	n/a
327.133	0.1045	654266	keystroke	c	n/a
327.358	0.09	654716	keystroke	t	n/a
327.4325	0.09	654865	keystroke	e	n/a
327.6125	0.09	655225	keystroke	d	n/a
327.7325	0.09	655465	keystroke	Key.space	n/a
327.8525	0.1205	655705	keystroke	c	n/a
328.018	0.09	656036	keystroke	h	n/a
328.123	0.0895	656246	keystroke	e	n/a
328.243	0.1045	656486	keystroke	c	n/a
328.3175	0.076	656635	keystroke	k	n/a
328.483	0.1045	656966	keystroke	Key.space	n/a
328.603	0.0745	657206	keystroke	b	n/a
328.8275	0.135	657655	keystroke	e	n/a
328.948	0.1355	657896	keystroke	a	n/a
329.0675	0.1355	658135	keystroke	r	n/a
329.218	0.12	658436	keystroke	s	n/a
329.427	0.106	658854	keystroke	Key.space	n/a
329.593	0.0895	659186	keystroke	c	n/a
329.6975	0.06	659395	keystroke	o	n/a
329.8625	0.09	659725	keystroke	n	n/a
329.938	0.09	659876	keystroke	t	n/a
330.088	0.105	660176	keystroke	r	n/a
330.268	0.075	660536	keystroke	i	n/a
330.508	0.09	661016	keystroke	b	n/a
330.658	0.075	661316	keystroke	u	n/a
330.763	0.09	661526	keystroke	t	n/a
330.883	0.06	661766	keystroke	i	n/a
331.033	0.1055	662066	keystroke	n	n/a
331.123	0.1055	662246	keystroke	g	n/a
331.243	0.1345	662486	keystroke	Key.enter	n/a
331.3915	5.298	662783	prompt	n/a	told teams separate finished\n
331.948	0.0745	663896	keystroke	t	n/a
332.0075	0.0755	664015	keystroke	o	n/a
332.1875	0.0755	664375	keystroke	l	n/a
332.2775	0.0905	664555	keystroke	d	n/a
332.3825	0.105	664765	keystroke	Key.space	n/a
332.6675	0.09	665335	keystroke	t	n/a
332.8625	0.1055	665725	keystroke	e	n/a
332.9375	0.136	665875	keystroke	a	n/a
333.0425	0.0755	666085	keystroke	m	n/a
333.163	0.075	666326	keystroke	s	n/a
333.267	0.06	666534	keystroke	Key.space	n/a
333.373	0.105	666746	keystroke	s	n/a
333.583	0.015	667166	keystroke	p	n/a
333.912	0.06	667824	keystroke	Key.backspace	n/a
334.003	0.105	668006	keystroke	e	n/a
334.0925	0.06	668185	keystroke	p	n/a
334.2575	0.105	668515	keystroke	e	n/a
334.7075	0.105	669415	keystroke	Key.backspace	n/a
334.798	0.1345	669596	keystroke	a	n/a
334.9475	0.105	669895	keystroke	r	n/a
335.068	0.15	670136	keystroke	a	n/a
335.173	0.15	670346	keystroke	t	n/a
335.278	0.1045	670556	keystroke	e	n/a
335.398	0.09	670796	keystroke	Key.space	n/a
335.5475	0.09	671095	keystroke	f	n/a
335.6525	0.0455	671305	keystroke	i	n/a
335.803	0.0595	671606	keystroke	n	n/a
335.983	0.06	671966	keystroke	i	n/a
336.103	0.105	672206	keystroke	s	n/a
336.163	0.09	672326	keystroke	h	n/a
336.298	0.1045	672596	keystroke	e	n/a
336.4625	0.1055	672925	keystroke	d	n/a
336.583	0.105	673166	keystroke	Key.enter	n/a
336.694	6.2955	673388	prompt	n/a	provide genuine entertaining laws\n
337.318	0.0895	674636	keystroke	p	n/a
337.393	0.105	674786	keystroke	r	n/a
337.5275	0.09	675055	keystroke	o	n/a
338.008	0.12	676016	keystroke	v	n/a
338.2325	0.0755	676465	keystroke	i	n/a
338.338	0.165	676676	keystroke	d	n/a
338.488	0.135	676976	keystroke	e	n/a
338.668	0.09	677336	keystroke	Key.space	n/a
338.863	0.1205	677726	keystroke	g	n/a
338.968	0.075	677936	keystroke	e	n/a
339.058	0.105	678116	keystroke	n	n/a
339.313	0.075	678626	keystroke	u	n/a
339.493	0.0745	678986	keystroke	i	n/a
339.688	0.075	679376	keystroke	n	n/a
339.778	0.09	679556	keystroke	e	n/a
339.883	0.09	679766	keystroke	Key.space	n/a
340.123	0.105	680246	keystroke	e	n/a
340.273	0.105	680546	keystroke	n	n/a
340.393	0.135	680786	keystroke	t	n/a
340.543	0.12	681086	keystroke	e	n/a
340.633	0.12	681266	keystroke	r	n/a
341.1135	0.0895	682227	keystroke	t	n/a
341.5475	0.06	683095	keystroke	a	n/a
341.6375	0.06	683275	keystroke	i	n/a
341.8025	0.0605	683605	keystroke	n	n/a
341.968	0.075	683936	keystroke	i	n/a
342.013	0.135	684026	keystroke	n	n/a
342.103	0.0755	684206	keystroke	g	n/a
342.1785	0.104	684357	keystroke	Key.space	n/a
342.4025	0.075	684805	keystroke	l	n/a
342.4925	0.18	684985	keystroke	a	n/a
342.643	0.0745	685286	keystroke	w	n/a
342.8085	0.1045	685617	keystroke	s	n/a
342.868	0.12	685736	keystroke	Key.enter	n/a
342.994	4.2105	685988	prompt	n/a	torture spelling times exists\n
343.6025	0.06	687205	keystroke	t	n/a
343.678	0.1345	687356	keystroke	o	n/a
343.7975	0.075	687595	keystroke	r	n/a
343.9775	0.075	687955	keystroke	t	n/a
344.0675	0.09	688135	keystroke	u	n/a
344.1725	0.136	688345	keystroke	r	n/a
344.278	0.0745	688556	keystroke	e	n/a
344.3375	0.06	688675	keystroke	Key.space	n/a
344.4725	0.1055	688945	keystroke	s	n/a
344.608	0.09	689216	keystroke	p	n/a
344.758	0.105	689516	keystroke	e	n/a
344.908	0.075	689816	keystroke	l	n/a
345.0425	0.105	690085	keystroke	l	n/a
345.268	0.0745	690536	keystroke	i	n/a
345.343	0.12	690686	keystroke	n	n/a
345.387	0.105	690774	keystroke	g	n/a
345.5225	0.0905	691045	keystroke	Key.space	n/a
345.628	0.105	691256	keystroke	t	n/a
345.778	0.045	691556	keystroke	i	n/a
345.912	0.0905	691824	keystroke	m	n/a
346.003	0.06	692006	keystroke	e	n/a
346.2275	0.015	692455	keystroke	s	n/a
346.2435	0.074	692487	keystroke	Key.space	n/a
346.4975	0.09	692995	keystroke	e	n/a
346.7075	0.075	693415	keystroke	x	n/a
346.828	0.075	693656	keystroke	i	n/a
346.918	0.1045	693836	keystroke	s	n/a
347.0385	0.075	694077	keystroke	t	n/a
347.083	0.1195	694166	keystroke	Key.enter	n/a
347.2085	8.441	694417	prompt	n/a	vegetation hobbies tooth miami\n
347.803	0.0895	695606	keystroke	v	n/a
347.9075	0.151	695815	keystroke	e	n/a
348.0285	0.1045	696057	keystroke	r	n/a
348.253	0.089	696506	keystroke	g	n/a
348.372	0.076	696744	keystroke	a	n/a
348.538	0.06	697076	keystroke	Key.backspace	n/a
348.672	0.075	697344	keystroke	Key.backspace	n/a
348.808	0.12	697616	keystroke	Key.backspace	n/a
348.898	0.12	697796	keystroke	g	n/a
349.003	0.1495	698006	keystroke	a	n/a
349.123	0.075	698246	keystroke	t	n/a
349.378	0.0745	698756	keystroke	Key.backspace	n/a
349.5125	0.1055	699025	keystroke	Key.backspace	n/a
349.5875	0.12	699175	keystroke	e	n/a
349.8125	0.045	699625	keystroke	t	n/a
350.2175	0.105	700435	keystroke	a	n/a
350.2925	0.105	700585	keystroke	t	n/a
350.4125	0.061	700825	keystroke	i	n/a
350.5775	0.0605	701155	keystroke	o	n/a
350.6525	0.03	701305	keystroke	n	n/a
350.773	0.0895	701546	keystroke	Key.space	n/a
351.2225	0.09	702445	keystroke	Key.backspace	n/a
351.2825	0.075	702565	keystroke	h	n/a
351.6125	0.09	703225	keystroke	Key.backspace	n/a
351.7625	0.135	703525	keystroke	Key.space	n/a
351.8825	0.1205	703765	keystroke	h	n/a
352.0485	0.089	704097	keystroke	o	n/a
352.212	0.0755	704424	keystroke	b	n/a
352.3625	0.09	704725	keystroke	b	n/a
352.482	0.0605	704964	keystroke	i	n/a
352.5575	0.1055	705115	keystroke	e	n/a
352.753	0.09	705506	keystroke	s	n/a
352.858	0.075	705716	keystroke	Key.space	n/a
353.6075	0.0755	707215	keystroke	o	n/a
353.9075	0.091	707815	keystroke	Key.backspace	n/a
353.9825	0.09	707965	keystroke	t	n/a
354.0875	0.075	708175	keystroke	o	n/a
354.2075	0.0905	708415	keystroke	o	n/a
354.3425	0.105	708685	keystroke	t	n/a
354.463	0.075	708926	keystroke	h	n/a
354.673	0.075	709346	keystroke	Key.space	n/a
354.823	0.075	709646	keystroke	m	n/a
355.018	0.075	710036	keystroke	i	n/a
355.138	0.09	710276	keystroke	a	n/a
355.213	0.075	710426	keystroke	m	n/a
355.378	0.06	710756	keystroke	i	n/a
355.528	0.12	711056	keystroke	Key.enter	n/a
355.6545	5.741	711309	prompt	n/a	initial suggested mobility catch\n
356.248	0.075	712496	keystroke	i	n/a
356.428	0.075	712856	keystroke	n	n/a
356.608	0.075	713216	keystroke	i	n/a
356.713	0.075	713426	keystroke	t	n/a
356.803	0.09	713606	keystroke	i	n/a
356.923	0.09	713846	keystroke	a	n/a
357.028	0.09	714056	keystroke	l	n/a
357.177	0.075	714354	keystroke	Key.space	n/a
357.358	0.09	714716	keystroke	s	n/a
357.418	0.0905	714836	keystroke	u	n/a
357.733	0.075	715466	keystroke	g	n/a
357.868	0.165	715736	keystroke	g	n/a
357.988	0.09	715976	keystroke	e	n/a
358.138	0.105	716276	keystroke	s	n/a
358.228	0.09	716456	keystroke	t	n/a
358.378	0.105	716756	keystroke	e	n/a
358.528	0.1055	717056	keystroke	d	n/a
358.648	0.09	717296	keystroke	Key.space	n/a
358.978	0.059	717956	keystroke	m	n/a
359.143	0.0745	718286	keystroke	o	n/a
359.2325	0.09	718465	keystroke	b	n/a
359.338	0.0445	718676	keystroke	i	n/a
359.4875	0.06	718975	keystroke	l	n/a
359.6375	0.075	719275	keystroke	i	n/a
359.698	0.0295	719396	keystroke	t	n/a
359.8325	0.075	719665	keystroke	y	n/a
359.9525	0.0905	719905	keystroke	Key.space	n/a
360.1025	0.106	720205	keystroke	c	n/a
360.1925	0.1655	720385	keystroke	a	n/a
360.343	0.075	720686	keystroke	t	n/a
360.463	0.06	720926	keystroke	h	n/a
360.553	0.075	721106	keystroke	c	n/a
360.822	0.0455	721644	keystroke	Key.backspace	n/a
360.9275	0.105	721855	keystroke	Key.backspace	n/a
361.0335	0.0895	722067	keystroke	c	n/a
361.1385	0.0895	722277	keystroke	h	n/a
361.2725	0.1195	722545	keystroke	Key.enter	n/a
361.3995	5.9795	722799	prompt	n/a	shareware interference deemed soma\n
361.948	0.105	723896	keystroke	s	n/a
362.068	0.075	724136	keystroke	h	n/a
362.157	0.15	724314	keystroke	a	n/a
362.278	0.1345	724556	keystroke	r	n/a
362.3675	0.091	724735	keystroke	e	n/a
362.5925	0.135	725185	keystroke	w	n/a
362.698	0.135	725396	keystroke	a	n/a
362.8025	0.1205	725605	keystroke	r	n/a
362.8625	0.135	725725	keystroke	e	n/a
363.0125	0.075	726025	keystroke	Key.space	n/a
363.208	0.0595	726416	keystroke	i	n/a
363.3725	0.0755	726745	keystroke	n	n/a
363.4325	0.09	726865	keystroke	t	n/a
363.5075	0.1505	727015	keystroke	e	n/a
363.6125	0.1055	727225	keystroke	r	n/a
363.7925	0.15	727585	keystroke	f	n/a
363.928	0.1345	727856	keystroke	e	n/a
364.0625	0.1355	728125	keystroke	r	n/a
364.1825	0.135	728365	keystroke	e	n/a
364.513	0.075	729026	keystroke	n	n/a
364.7085	0.104	729417	keystroke	c	n/a
365.0975	0.1355	730195	keystroke	e	n/a
365.308	0.075	730616	keystroke	Key.space	n/a
365.608	0.135	731216	keystroke	d	n/a
365.773	0.09	731546	keystroke	e	n/a
366.013	0.0745	732026	keystroke	e	n/a
366.343	0.0745	732686	keystroke	m	n/a
366.4475	0.0905	732895	keystroke	e	n/a
366.568	0.105	733136	keystroke	d	n/a
366.658	0.09	733316	keystroke	Key.space	n/a
366.8225	0.09	733645	keystroke	s	n/a
366.9125	0.06	733825	keystroke	o	n/a
367.0775	0.09	734155	keystroke	m	n/a
367.1675	0.12	734335	keystroke	a	n/a
367.2725	0.105	734545	keystroke	Key.enter	n/a
367.3845	5.23	734769	prompt	n/a	bond tall nose spirit\n
367.843	0.0595	735686	keystroke	s	n/a
368.0225	0.1055	736045	keystroke	Key.backspace	n/a
368.143	0.075	736286	keystroke	b	n/a
368.187	0.06	736374	keystroke	o	n/a
368.3675	0.0905	736735	keystroke	n	n/a
368.473	0.09	736946	keystroke	d	n/a
368.578	0.06	737156	keystroke	Key.space	n/a
368.683	0.1045	737366	keystroke	t	n/a
368.7725	0.075	737545	keystroke	a	n/a
368.8325	0.0755	737665	keystroke	l	n/a
368.9525	0.075	737905	keystroke	l	n/a
369.1325	0.0755	738265	keystroke	Key.space	n/a
369.2685	0.074	738537	keystroke	n	n/a
369.4475	0.0755	738895	keystroke	o	n/a
369.5075	0.1205	739015	keystroke	s	n/a
369.5975	0.09	739195	keystroke	t	n/a
369.6575	0.075	739315	keystroke	Key.space	n/a
369.867	0.0605	739734	keystroke	p	n/a
369.882	0.106	739764	keystroke	s	n/a
370.1825	0.09	740365	keystroke	Key.backspace	n/a
370.332	0.0605	740664	keystroke	Key.backspace	n/a
370.468	0.059	740936	keystroke	Key.backspace	n/a
370.5875	0.0895	741175	keystroke	Key.backspace	n/a
370.678	0.09	741356	keystroke	e	n/a
370.7975	0.09	741595	keystroke	Key.space	n/a
370.9175	0.09	741835	keystroke	s	n/a
371.068	0.045	742136	keystroke	p	n/a
371.2775	0.06	742555	keystroke	p	n/a
371.5475	0.09	743095	keystroke	Key.backspace	n/a
371.713	0.0595	743426	keystroke	i	n/a
371.818	0.1195	743636	keystroke	r	n/a
371.953	0.09	743906	keystroke	i	n/a
372.073	0.075	744146	keystroke	t	n/a
372.508	0.105	745016	keystroke	Key.enter	n/a
372.6195	3.6395	745239	prompt	n/a	recall camps random china\n
373.258	0.1345	746516	keystroke	r	n/a
373.363	0.1045	746726	keystroke	e	n/a
373.5275	0.09	747055	keystroke	c	n/a
373.6025	0.1205	747205	keystroke	a	n/a
373.6925	0.075	747385	keystroke	l	n/a
373.8285	0.059	747657	keystroke	l	n/a
373.9775	0.1205	747955	keystroke	Key.space	n/a
374.0825	0.105	748165	keystroke	r	n/a
374.158	0.1045	748316	keystroke	a	n/a
374.2925	0.0745	748585	keystroke	m	n/a
374.4885	0.059	748977	keystroke	p	n/a
374.5925	0.0755	749185	keystroke	s	n/a
374.683	0.09	749366	keystroke	Key.space	n/a
374.788	0.12	749576	keystroke	r	n/a
374.893	0.1045	749786	keystroke	a	n/a
374.938	0.0745	749876	keystroke	n	n/a
375.0575	0.1205	750115	keystroke	d	n/a
375.207	0.0455	750414	keystroke	o	n/a
375.3575	0.0605	750715	keystroke	m	n/a
375.508	0.0595	751016	keystroke	Key.space	n/a
375.5825	0.1055	751165	keystroke	c	n/a
375.7025	0.06	751405	keystroke	h	n/a
375.8525	0.06	751705	keystroke	i	n/a
375.9875	0.105	751975	keystroke	n	n/a
376.0775	0.1055	752155	keystroke	e	n/a
376.168	0.09	752336	keystroke	Key.enter	n/a
376.263	6.342	752526	prompt	n/a	daren't stones where junction\n
376.8125	0.1355	753625	keystroke	d	n/a
376.9325	0.15	753865	keystroke	a	n/a
377.0375	0.1805	754075	keystroke	r	n/a
377.1575	0.1205	754315	keystroke	e	n/a
377.2925	0.06	754585	keystroke	n	n/a
377.5925	0.09	755185	keystroke	'	n/a
377.6835	0.0745	755367	keystroke	t	n/a
377.8325	0.09	755665	keystroke	Key.space	n/a
377.9675	0.075	755935	keystroke	s	n/a
378.0575	0.09	756115	keystroke	t	n/a
378.163	0.06	756326	keystroke	o	n/a
378.3425	0.075	756685	keystroke	n	n/a
378.4475	0.075	756895	keystroke	e	n/a
379.033	0.0895	758066	keystroke	s	n/a
379.1675	0.0755	758335	keystroke	Key.space	n/a
379.2725	0.09	758545	keystroke	w	n/a
379.4235	0.06	758847	keystroke	h	n/a
379.4685	0.119	758937	keystroke	e	n/a
379.573	0.1345	759146	keystroke	r	n/a
379.6775	0.09	759355	keystroke	e	n/a
379.7525	0.075	759505	keystroke	Key.space	n/a
380.0675	0.06	760135	keystroke	u	n/a
380.4575	0.0905	760915	keystroke	Key.backspace	n/a
380.653	0.06	761306	keystroke	j	n/a
380.772	0.0755	761544	keystroke	u	n/a
380.9525	0.0905	761905	keystroke	n	n/a
381.058	0.074	762116	keystroke	c	n/a
381.538	0.0595	763076	keystroke	i	n/a
381.6125	0.075	763225	keystroke	t	n/a
381.8075	0.0445	763615	keystroke	Key.backspace	n/a
381.9135	0.0745	763827	keystroke	Key.backspace	n/a
382.0025	0.0905	764005	keystroke	t	n/a
382.063	0.075	764126	keystroke	i	n/a
382.2275	0.1055	764455	keystroke	o	n/a
382.3175	0.105	764635	keystroke	n	n/a
382.4975	0.105	764995	keystroke	Key.enter	n/a
382.608	5.6825	765216	prompt	n/a	losses exposed geneva march\n
383.668	0.09	767336	keystroke	l	n/a
383.8485	0.0745	767697	keystroke	o	n/a
383.938	0.075	767876	keystroke	s	n/a
384.118	0.105	768236	keystroke	s	n/a
384.268	0.15	768536	keystroke	e	n/a
384.388	0.105	768776	keystroke	s	n/a
384.5375	0.075	769075	keystroke	Key.space	n/a
384.672	0.091	769344	keystroke	e	n/a
384.882	0.075	769764	keystroke	x	n/a
384.972	0.046	769944	keystroke	p	n/a
385.1525	0.045	770305	keystroke	o	n/a
385.2125	0.076	770425	keystroke	s	n/a
386.0975	0.1205	772195	keystroke	e	n/a
386.2475	0.075	772495	keystroke	d	n/a
386.3525	0.0905	772705	keystroke	Key.space	n/a
386.6225	0.09	773245	keystroke	g	n/a
386.6825	0.0905	773365	keystroke	e	n/a
386.8025	0.0605	773605	keystroke	n	n/a
386.892	0.09	773784	keystroke	e	n/a
387.133	0.09	774266	keystroke	v	n/a
387.268	0.105	774536	keystroke	a	n/a
387.388	0.09	774776	keystroke	Key.space	n/a
387.613	0.105	775226	keystroke	m	n/a
387.703	0.105	775406	keystroke	a	n/a
387.748	0.075	775496	keystroke	r	n/a
387.927	0.09	775854	keystroke	c	n/a
387.973	0.0895	775946	keystroke	h	n/a
388.1825	0.105	776365	keystroke	Key.enter	n/a
388.2955	6.6385	776591	prompt	n/a	exposed prospective biblical fill\n
388.857	0.0905	777714	keystroke	e	n/a
389.0525	0.075	778105	keystroke	x	n/a
389.1425	0.06	778285	keystroke	p	n/a
389.293	0.0895	778586	keystroke	o	n/a
389.368	0.0745	778736	keystroke	s	n/a
389.517	0.121	779034	keystroke	e	n/a
389.653	0.104	779306	keystroke	d	n/a
389.728	0.074	779456	keystroke	Key.space	n/a
389.9675	0.0455	779935	keystroke	p	n/a
390.027	0.105	780054	keystroke	r	n/a
390.162	0.076	780324	keystroke	o	n/a
390.252	0.105	780504	keystroke	s	n/a
390.463	0.075	780926	keystroke	t	n/a
390.7325	0.075	781465	keystroke	Key.backspace	n/a
390.838	0.105	781676	keystroke	p	n/a
390.957	0.106	781914	keystroke	e	n/a
391.138	0.059	782276	keystroke	c	n/a
391.302	0.0755	782604	keystroke	t	n/a
391.4375	0.0905	782875	keystroke	i	n/a
391.4985	0.119	782997	keystroke	v	n/a
391.5875	0.09	783175	keystroke	e	n/a
391.678	0.0895	783356	keystroke	Key.space	n/a
391.888	0.0745	783776	keystroke	b	n/a
392.0375	0.06	784075	keystroke	i	n/a
392.8475	0.075	785695	keystroke	b	n/a
392.9525	0.075	785905	keystroke	l	n/a
393.147	0.0605	786294	keystroke	i	n/a
393.267	0.091	786534	keystroke	c	n/a
393.433	0.12	786866	keystroke	a	n/a
393.568	0.0895	787136	keystroke	l	n/a
393.9425	0.105	787885	keystroke	Key.space	n/a
394.243	0.105	788486	keystroke	f	n/a
394.348	0.0605	788696	keystroke	i	n/a
394.5135	0.0595	789027	keystroke	l	n/a
394.633	0.135	789266	keystroke	l	n/a
394.782	0.15	789564	keystroke	Key.enter	n/a
394.938	4.9015	789876	prompt	n/a	staying values sponsored mapping\n
395.653	0.12	791306	keystroke	s	n/a
395.787	0.136	791574	keystroke	t	n/a
395.9825	0.105	791965	keystroke	a	n/a
396.388	0.105	792776	keystroke	y	n/a
396.5075	0.0605	793015	keystroke	i	n/a
396.6725	0.0755	793345	keystroke	n	n/a
396.7625	0.075	793525	keystroke	g	n/a
396.8225	0.09	793645	keystroke	Key.space	n/a
396.9585	0.104	793917	keystroke	v	n/a
397.0475	0.09	794095	keystroke	a	n/a
397.0925	0.075	794185	keystroke	l	n/a
397.2725	0.105	794545	keystroke	u	n/a
397.3625	0.06	794725	keystroke	e	n/a
397.4975	0.09	794995	keystroke	s	n/a
397.5725	0.09	795145	keystroke	Key.space	n/a
397.6925	0.09	795385	keystroke	s	n/a
397.7975	0.075	795595	keystroke	p	n/a
397.9625	0.06	795925	keystroke	o	n/a
398.1275	0.09	796255	keystroke	n	n/a
398.2325	0.105	796465	keystroke	s	n/a
398.3525	0.09	796705	keystroke	o	n/a
398.458	0.15	796916	keystroke	r	n/a
398.5925	0.105	797185	keystroke	e	n/a
398.7425	0.091	797485	keystroke	d	n/a
398.8175	0.06	797635	keystroke	Key.space	n/a
399.013	0.0445	798026	keystroke	m	n/a
399.0875	0.106	798175	keystroke	a	n/a
399.223	0.0295	798446	keystroke	p	n/a
399.327	0.0605	798654	keystroke	p	n/a
399.523	0.0745	799046	keystroke	i	n/a
399.5825	0.12	799165	keystroke	n	n/a
399.6425	0.1055	799285	keystroke	g	n/a
399.7175	0.12	799435	keystroke	Key.enter	n/a
399.8465	8.078	799693	prompt	n/a	breakdown analysts verification permits\n
400.4085	0.074	800817	keystroke	b	n/a
400.6025	0.075	801205	keystroke	r	n/a
400.768	0.1045	801536	keystroke	e	n/a
400.8275	0.105	801655	keystroke	a	n/a
400.948	0.105	801896	keystroke	k	n/a
401.0375	0.0905	802075	keystroke	d	n/a
401.202	0.12	802404	keystroke	w	n/a
401.592	0.091	803184	keystroke	o	n/a
401.8175	0.0745	803635	keystroke	Key.backspace	n/a
401.952	0.09	803904	keystroke	Key.backspace	n/a
402.058	0.119	804116	keystroke	o	n/a
402.088	0.074	804176	keystroke	w	n/a
402.6875	0.075	805375	keystroke	n	n/a
402.8825	0.075	805765	keystroke	Key.space	n/a
403.0025	0.1195	806005	keystroke	a	n/a
403.138	0.075	806276	keystroke	n	n/a
403.258	0.105	806516	keystroke	a	n/a
403.482	0.061	806964	keystroke	l	n/a
403.573	0.0895	807146	keystroke	y	n/a
403.7375	0.1045	807475	keystroke	s	n/a
403.888	0.104	807776	keystroke	t	n/a
403.978	0.09	807956	keystroke	s	n/a
404.082	0.076	808164	keystroke	Key.space	n/a
404.382	0.075	808764	keystroke	v	n/a
404.4425	0.09	808885	keystroke	e	n/a
404.998	0.1045	809996	keystroke	r	n/a
405.1925	0.0605	810385	keystroke	i	n/a
405.2825	0.0905	810565	keystroke	f	n/a
405.507	0.031	811014	keystroke	i	n/a
406.018	0.09	812036	keystroke	c	n/a
406.1675	0.135	812335	keystroke	a	n/a
406.4375	0.09	812875	keystroke	t	n/a
406.498	0.0745	812996	keystroke	i	n/a
406.6925	0.075	813385	keystroke	o	n/a
406.783	0.075	813566	keystroke	n	n/a
406.9025	0.09	813805	keystroke	Key.space	n/a
407.128	0.06	814256	keystroke	p	n/a
407.188	0.12	814376	keystroke	e	n/a
407.248	0.12	814496	keystroke	r	n/a
407.338	0.075	814676	keystroke	m	n/a
407.533	0.09	815066	keystroke	i	n/a
407.578	0.105	815156	keystroke	t	n/a
407.698	0.119	815396	keystroke	s	n/a
407.832	0.09	815664	keystroke	Key.enter	n/a
407.93	4.959	815860	prompt	n/a	name registry under broader\n
408.538	0.0595	817076	keystroke	n	n/a
408.6275	0.1055	817255	keystroke	a	n/a
408.718	0.0595	817436	keystroke	m	n/a
408.7925	0.1205	817585	keystroke	e	n/a
408.8975	0.075	817795	keystroke	Key.space	n/a
409.0025	0.15	818005	keystroke	r	n/a
409.108	0.0745	818216	keystroke	e	n/a
409.2725	0.0895	818545	keystroke	s	n/a
409.8725	0.0895	819745	keystroke	Key.backspace	n/a
409.992	0.09	819984	keystroke	g	n/a
410.097	0.075	820194	keystroke	i	n/a
410.2175	0.0895	820435	keystroke	s	n/a
410.382	0.0905	820764	keystroke	t	n/a
410.5925	0.105	821185	keystroke	r	n/a
410.7125	0.105	821425	keystroke	y	n/a
410.8625	0.0895	821725	keystroke	Key.space	n/a
411.102	0.06	822204	keystroke	u	n/a
411.252	0.105	822504	keystroke	n	n/a
411.3125	0.12	822625	keystroke	d	n/a
411.4475	0.12	822895	keystroke	e	n/a
411.5075	0.0905	823015	keystroke	r	n/a
411.6125	0.09	823225	keystroke	Key.space	n/a
411.7325	0.075	823465	keystroke	b	n/a
411.9425	0.105	823885	keystroke	r	n/a
412.1075	0.075	824215	keystroke	o	n/a
412.2125	0.12	824425	keystroke	a	n/a
412.3475	0.105	824695	keystroke	d	n/a
412.5725	0.12	825145	keystroke	e	n/a
412.6475	0.12	825295	keystroke	r	n/a
412.7975	0.09	825595	keystroke	Key.enter	n/a
412.893	5.141	825786	prompt	n/a	climate changes pirates read\n
413.4575	0.09	826915	keystroke	c	n/a
413.5175	0.06	827035	keystroke	l	n/a
413.6525	0.105	827305	keystroke	i	n/a
413.833	0.0895	827666	keystroke	m	n/a
413.9375	0.15	827875	keystroke	a	n/a
413.9825	0.135	827965	keystroke	t	n/a
414.0725	0.09	828145	keystroke	e	n/a
414.1325	0.075	828265	keystroke	Key.space	n/a
414.253	0.09	828506	keystroke	c	n/a
414.343	0.074	828686	keystroke	h	n/a
414.402	0.105	828804	keystroke	a	n/a
414.5675	0.09	829135	keystroke	n	n/a
414.943	0.09	829886	keystroke	g	n/a
415.002	0.1055	830004	keystroke	e	n/a
415.258	0.105	830516	keystroke	s	n/a
415.4075	0.09	830815	keystroke	Key.space	n/a
415.6625	0.06	831325	keystroke	p	n/a
415.738	0.0895	831476	keystroke	r	n/a
415.8575	0.0745	831715	keystroke	i	n/a
416.322	0.075	832644	keystroke	Key.backspace	n/a
416.472	0.06	832944	keystroke	Key.backspace	n/a
416.577	0.061	833154	keystroke	i	n/a
416.668	0.12	833336	keystroke	r	n/a
416.772	0.136	833544	keystroke	a	n/a
416.878	0.119	833756	keystroke	t	n/a
416.952	0.09	833904	keystroke	e	n/a
417.133	0.104	834266	keystroke	s	n/a
417.2525	0.06	834505	keystroke	Key.space	n/a
417.4325	0.075	834865	keystroke	r	n/a
417.5975	0.105	835195	keystroke	e	n/a
417.6725	0.15	835345	keystroke	a	n/a
417.778	0.1195	835556	keystroke	d	n/a
417.9425	0.09	835885	keystroke	Key.enter	n/a
418.046	5.808	836092	prompt	n/a	hygiene nail wisdom jordan\n
418.662	0.091	837324	keystroke	h	n/a
418.857	0.105	837714	keystroke	y	n/a
419.352	0.09	838704	keystroke	g	n/a
419.818	0.09	839636	keystroke	i	n/a
419.937	0.09	839874	keystroke	e	n/a
420.072	0.09	840144	keystroke	n	n/a
420.177	0.0905	840354	keystroke	e	n/a
420.3125	0.075	840625	keystroke	Key.space	n/a
420.5375	0.075	841075	keystroke	n	n/a
420.658	0.0745	841316	keystroke	a	n/a
420.748	0.0745	841496	keystroke	i	n/a
420.912	0.09	841824	keystroke	l	n/a
421.122	0.09	842244	keystroke	Key.space	n/a
421.363	0.0745	842726	keystroke	s	n/a
421.482	0.016	842964	keystroke	i	n/a
421.6325	0.0295	843265	keystroke	Key.backspace	n/a
421.737	0.09	843474	keystroke	Key.backspace	n/a
421.843	0.089	843686	keystroke	w	n/a
421.918	0.104	843836	keystroke	i	n/a
422.0675	0.09	844135	keystroke	s	n/a
422.263	0.074	844526	keystroke	d	n/a
422.322	0.0755	844644	keystroke	o	n/a
422.503	0.075	845006	keystroke	n	n/a
422.652	0.0755	845304	keystroke	Key.space	n/a
422.8775	0.06	845755	keystroke	j	n/a
423.072	0.0605	846144	keystroke	o	n/a
423.1475	0.09	846295	keystroke	r	n/a
423.3725	0.135	846745	keystroke	d	n/a
423.4775	0.12	846955	keystroke	a	n/a
423.5375	0.0895	847075	keystroke	n	n/a
423.732	0.1205	847464	keystroke	Key.enter	n/a
423.8585	7.1365	847717	prompt	n/a	rapids imported machine adrian\n
424.438	0.135	848876	keystroke	r	n/a
424.557	0.105	849114	keystroke	a	n/a
424.708	0.12	849416	keystroke	p	n/a
424.9775	0.0445	849955	keystroke	Key.backspace	n/a
425.5625	0.075	851125	keystroke	p	n/a
425.9825	0.09	851965	keystroke	i	n/a
426.0875	0.135	852175	keystroke	d	n/a
426.2225	0.12	852445	keystroke	s	n/a
426.3275	0.09	852655	keystroke	Key.space	n/a
426.6425	0.06	853285	keystroke	i	n/a
426.7925	0.09	853585	keystroke	m	n/a
426.9875	0.06	853975	keystroke	p	n/a
427.138	0.1045	854276	keystroke	r	n/a
427.153	0.0895	854306	keystroke	o	n/a
427.5725	0.045	855145	keystroke	Key.backspace	n/a
427.7075	0.06	855415	keystroke	Key.backspace	n/a
427.8125	0.12	855625	keystroke	o	n/a
427.9175	0.075	855835	keystroke	r	n/a
428.082	0.106	856164	keystroke	t	n/a
428.307	0.09	856614	keystroke	e	n/a
428.457	0.09	856914	keystroke	d	n/a
428.5325	0.075	857065	keystroke	Key.space	n/a
428.697	0.09	857394	keystroke	m	n/a
428.772	0.09	857544	keystroke	a	n/a
428.8325	0.0895	857665	keystroke	c	n/a
428.9375	0.045	857875	keystroke	h	n/a
429.0875	0.06	858175	keystroke	i	n/a
429.2225	0.105	858445	keystroke	n	n/a
429.3285	0.089	858657	keystroke	e	n/a
429.4025	0.105	858805	keystroke	Key.space	n/a
429.567	0.1205	859134	keystroke	a	n/a
429.688	0.1195	859376	keystroke	d	n/a
429.9725	0.09	859945	keystroke	r	n/a
430.1225	0.075	860245	keystroke	i	n/a
430.2125	0.045	860425	keystroke	a	n/a
430.3925	0.045	860785	keystroke	n	n/a
430.8725	0.12	861745	keystroke	Key.enter	n/a
431.0045	4.9245	862009	prompt	n/a	created providers burns interact\n
431.5925	0.09	863185	keystroke	c	n/a
431.7875	0.09	863575	keystroke	r	n/a
431.9375	0.12	863875	keystroke	e	n/a
432.0425	0.15	864085	keystroke	a	n/a
432.133	0.0895	864266	keystroke	t	n/a
432.2075	0.09	864415	keystroke	e	n/a
432.3725	0.075	864745	keystroke	d	n/a
432.4625	0.075	864925	keystroke	Key.space	n/a
432.6875	0.06	865375	keystroke	p	n/a
432.748	0.0745	865496	keystroke	r	n/a
432.8675	0.0905	865735	keystroke	o	n/a
432.9725	0.075	865945	keystroke	v	n/a
433.093	0.0885	866186	keystroke	i	n/a
433.1975	0.1495	866395	keystroke	d	n/a
433.317	0.12	866634	keystroke	e	n/a
433.4075	0.1195	866815	keystroke	r	n/a
433.542	0.12	867084	keystroke	s	n/a
433.6465	0.091	867293	keystroke	Key.space	n/a
433.7825	0.075	867565	keystroke	b	n/a
433.9025	0.0755	867805	keystroke	u	n/a
433.9625	0.105	867925	keystroke	r	n/a
434.0975	0.09	868195	keystroke	n	n/a
434.2015	0.091	868403	keystroke	s	n/a
434.277	0.0755	868554	keystroke	Key.space	n/a
434.4875	0.0595	868975	keystroke	i	n/a
434.6525	0.09	869305	keystroke	n	n/a
434.7575	0.06	869515	keystroke	t	n/a
434.8025	0.1355	869605	keystroke	e	n/a
434.908	0.119	869816	keystroke	r	n/a
435.042	0.1655	870084	keystroke	a	n/a
435.162	0.0755	870324	keystroke	c	n/a
435.3425	0.1195	870685	keystroke	t	n/a
435.807	0.121	871614	keystroke	Key.enter	n/a
435.9335	7.3455	871867	prompt	n/a	tight signal satellite convenience\n
436.497	0.075	872994	keystroke	t	n/a
436.603	0.075	873206	keystroke	i	n/a
436.692	0.1055	873384	keystroke	g	n/a
436.812	0.06	873624	keystroke	h	n/a
436.888	0.074	873776	keystroke	t	n/a
436.977	0.075	873954	keystroke	Key.space	n/a
437.157	0.075	874314	keystroke	s	n/a
437.233	0.059	874466	keystroke	i	n/a
437.367	0.0755	874734	keystroke	g	n/a
437.458	0.074	874916	keystroke	n	n/a
437.667	0.0755	875334	keystroke	a	n/a
437.788	0.059	875576	keystroke	l	n/a
437.9675	0.075	875935	keystroke	Key.space	n/a
438.1175	0.09	876235	keystroke	s	n/a
438.687	0.1205	877374	keystroke	a	n/a
438.867	0.121	877734	keystroke	t	n/a
439.018	0.1045	878036	keystroke	e	n/a
439.1825	0.075	878365	keystroke	l	n/a
439.3175	0.09	878635	keystroke	l	n/a
439.5275	0.09	879055	keystroke	i	n/a
439.6025	0.12	879205	keystroke	t	n/a
439.6775	0.12	879355	keystroke	e	n/a
439.8275	0.09	879655	keystroke	Key.space	n/a
440.0975	0.075	880195	keystroke	c	n/a
440.1875	0.06	880375	keystroke	o	n/a
440.3525	0.0895	880705	keystroke	n	n/a
440.457	0.105	880914	keystroke	v	n/a
440.5325	0.0745	881065	keystroke	e	n/a
440.6225	0.09	881245	keystroke	n	n/a
440.8475	0.0745	881695	keystroke	i	n/a
440.982	0.09	881964	keystroke	e	n/a
441.0575	0.06	882115	keystroke	n	n/a
442.1825	0.15	884365	keystroke	c	n/a
442.3025	0.105	884605	keystroke	e	n/a
442.7825	0.12	885565	keystroke	Key.space	n/a
443.2025	0.075	886405	keystroke	Key.enter	n/a
443.284	4.48	886568	prompt	n/a	registered stage his campus\n
443.953	0.0895	887906	keystroke	r	n/a
444.0275	0.09	888055	keystroke	e	n/a
444.178	0.075	888356	keystroke	g	n/a
444.297	0.075	888594	keystroke	i	n/a
444.342	0.076	888684	keystroke	s	n/a
444.477	0.075	888954	keystroke	t	n/a
444.538	0.105	889076	keystroke	e	n/a
444.688	0.09	889376	keystroke	d	n/a
444.822	0.09	889644	keystroke	Key.space	n/a
444.928	0.104	889856	keystroke	s	n/a
445.063	0.1195	890126	keystroke	t	n/a
445.1675	0.135	890335	keystroke	a	n/a
445.317	0.15	890634	keystroke	g	n/a
445.4225	0.105	890845	keystroke	e	n/a
445.602	0.0755	891204	keystroke	Key.space	n/a
445.7975	0.0445	891595	keystroke	h	n/a
445.887	0.075	891774	keystroke	i	n/a
445.992	0.09	891984	keystroke	s	n/a
446.0825	0.0745	892165	keystroke	Key.space	n/a
446.1875	0.1795	892375	keystroke	c	n/a
446.352	0.105	892704	keystroke	a	n/a
446.622	0.045	893244	keystroke	l	n/a
446.892	0.075	893784	keystroke	Key.backspace	n/a
447.0575	0.0745	894115	keystroke	m	n/a
447.2675	0.06	894535	keystroke	p	n/a
447.4775	0.075	894955	keystroke	u	n/a
447.5675	0.09	895135	keystroke	s	n/a
