onset	duration	sample	value	key	prompt_text
6.468	13.042	12936	prompt	n/a	the quick brown fox jumps over a lazy dog\n
8.3195	0.073	16639	keystroke_t	t	n/a
8.4065	0.12	16813	keystroke_h	h	n/a
8.632	0.1345	17264	keystroke_e	e	n/a
8.7965	0.15	17593	keystroke_Key.space	Key.space	n/a
9.0665	0.105	18133	keystroke_q	q	n/a
9.2165	0.225	18433	keystroke_u	u	n/a
9.3665	0.12	18733	keystroke_i	i	n/a
9.5915	0.15	19183	keystroke_c	c	n/a
9.6965	0.15	19393	keystroke_k	k	n/a
9.8165	0.2255	19633	keystroke_Key.space	Key.space	n/a
10.027	0.12	20054	keystroke_b	b	n/a
10.177	0.1055	20354	keystroke_r	r	n/a
10.2825	0.1195	20565	keystroke_o	o	n/a
10.387	0.1345	20774	keystroke_w	w	n/a
10.5365	0.135	21073	keystroke_n	n	n/a
10.5965	0.165	21193	keystroke_Key.space	Key.space	n/a
10.7315	0.045	21463	keystroke_f	f	n/a
10.8065	0.165	21613	keystroke_o	o	n/a
11.497	0.105	22994	keystroke_x	x	n/a
11.617	0.21	23234	keystroke_Key.space	Key.space	n/a
11.767	0.1355	23534	keystroke_j	j	n/a
12.0375	0.105	24075	keystroke_u	u	n/a
12.3075	0.21	24615	keystroke_m	m	n/a
12.4725	0.165	24945	keystroke_p	p	n/a
12.6525	0.12	25305	keystroke_s	s	n/a
12.7575	0.225	25515	keystroke_Key.space	Key.space	n/a
12.8775	0.12	25755	keystroke_o	o	n/a
12.9825	0.1045	25965	keystroke_v	v	n/a
13.207	0.18	26414	keystroke_e	e	n/a
13.312	0.135	26624	keystroke_r	r	n/a
13.432	0.12	26864	keystroke_Key.space	Key.space	n/a
13.537	0.135	27074	keystroke_a	a	n/a
13.657	0.135	27314	keystroke_Key.space	Key.space	n/a
13.807	0.15	27614	keystroke_l	l	n/a
13.897	0.165	27794	keystroke_a	a	n/a
14.017	0.1645	28034	keystroke_d	d	n/a
14.197	0.15	28394	keystroke_y	y	n/a
14.287	0.1645	28574	keystroke_Key.space	Key.space	n/a
14.407	0.1495	28814	keystroke_d	d	n/a
14.8425	0.045	29685	keystroke_Key.backspace	Key.backspace	n/a
15.0075	0.014	30015	keystroke_Key.backspace	Key.backspace	n/a
15.1115	0.06	30223	keystroke_Key.backspace	Key.backspace	n/a
15.3065	0.06	30613	keystroke_Key.backspace	Key.backspace	n/a
15.487	0.1205	30974	keystroke_z	z	n/a
15.7425	0.165	31485	keystroke_t	t	n/a
15.8325	0.1795	31665	keystroke_Key.space	Key.space	n/a
15.952	0.165	31904	keystroke_d	d	n/a
16.132	0.135	32264	keystroke_o	o	n/a
16.492	0.03	32984	keystroke_Key.backspace	Key.backspace	n/a
16.597	0.06	33194	keystroke_Key.backspace	Key.backspace	n/a
16.747	0.06	33494	keystroke_Key.backspace	Key.backspace	n/a
17.377	0.075	34754	keystroke_Key.backspace	Key.backspace	n/a
18.0525	0.195	36105	keystroke_y	y	n/a
18.1575	0.179	36315	keystroke_Key.space	Key.space	n/a
18.3225	0.15	36645	keystroke_d	d	n/a
18.4875	0.165	36975	keystroke_o	o	n/a
19.0275	0.12	38055	keystroke_g	g	n/a
19.3875	0.12	38775	keystroke_Key.enter	Key.enter	n/a
19.5135	8.0955	39027	prompt	n/a	correlation usgs belarus haven\n
20.242	0.12	40484	keystroke_c	c	n/a
20.452	0.1045	40904	keystroke_o	o	n/a
20.7065	0.075	41413	keystroke_r	r	n/a
20.9015	0.0905	41803	keystroke_r	r	n/a
21.097	0.09	42194	keystroke_e	e	n/a
21.367	0.15	42734	keystroke_l	l	n/a
21.502	0.151	43004	keystroke_a	a	n/a
21.697	0.135	43394	keystroke_t	t	n/a
21.802	0.24	43604	keystroke_i	i	n/a
21.877	0.1955	43754	keystroke_o	o	n/a
21.967	0.15	43934	keystroke_n	n	n/a
22.057	0.165	44114	keystroke_Key.space	Key.space	n/a
22.357	0.1355	44714	keystroke_u	u	n/a
22.5675	0.15	45135	keystroke_s	s	n/a
22.942	0.135	45884	keystroke_g	g	n/a
23.257	0.135	46514	keystroke_s	s	n/a
23.347	0.18	46694	keystroke_Key.space	Key.space	n/a
24.247	0.165	48494	keystroke_b	b	n/a
24.592	0.12	49184	keystroke_e	e	n/a
24.9525	0.18	49905	keystroke_l	l	n/a
25.2225	0.135	50445	keystroke_a	a	n/a
25.4325	0.135	50865	keystroke_r	r	n/a
25.5825	0.1345	51165	keystroke_u	u	n/a
25.718	0.119	51436	keystroke_s	s	n/a
25.822	0.18	51644	keystroke_Key.space	Key.space	n/a
25.972	0.165	51944	keystroke_h	h	n/a
26.092	0.12	52184	keystroke_a	a	n/a
26.332	0.135	52664	keystroke_v	v	n/a
26.632	0.135	53264	keystroke_e	e	n/a
26.887	0.135	53774	keystroke_n	n	n/a
27.487	0.12	54974	keystroke_Key.enter	Key.enter	n/a
27.6125	10.1815	55225	prompt	n/a	bacterial seem curriculum connectivity\n
28.582	0.12	57164	keystroke_b	b	n/a
28.777	0.15	57554	keystroke_a	a	n/a
29.3325	0.135	58665	keystroke_c	c	n/a
29.7675	0.09	59535	keystroke_t	t	n/a
29.9625	0.15	59925	keystroke_e	e	n/a
30.0525	0.105	60105	keystroke_r	r	n/a
30.1725	0.12	60345	keystroke_i	i	n/a
30.3075	0.12	60615	keystroke_a	a	n/a
30.4425	0.179	60885	keystroke_l	l	n/a
30.5625	0.165	61125	keystroke_Key.space	Key.space	n/a
30.6075	0.135	61215	keystroke_s	s	n/a
30.937	0.06	61874	keystroke_e	e	n/a
31.072	0.105	62144	keystroke_e	e	n/a
31.192	0.195	62384	keystroke_m	m	n/a
31.297	0.165	62594	keystroke_Key.space	Key.space	n/a
31.522	0.165	63044	keystroke_c	c	n/a
31.927	0.105	63854	keystroke_u	u	n/a
32.2275	0.075	64455	keystroke_r	r	n/a
32.422	0.09	64844	keystroke_r	r	n/a
32.527	0.1205	65054	keystroke_i	i	n/a
32.7525	0.105	65505	keystroke_c	c	n/a
32.9025	0.09	65805	keystroke_u	u	n/a
33.097	0.2255	66194	keystroke_l	l	n/a
33.247	0.1355	66494	keystroke_u	u	n/a
33.5475	0.21	67095	keystroke_m	m	n/a
33.6825	0.18	67365	keystroke_Key.space	Key.space	n/a
33.8925	0.135	67785	keystroke_c	c	n/a
34.0425	0.135	68085	keystroke_o	o	n/a
34.4925	0.0745	68985	keystroke_n	n	n/a
34.6875	0.09	69375	keystroke_n	n	n/a
34.7475	0.2095	69495	keystroke_e	e	n/a
35.6175	0.105	71235	keystroke_c	c	n/a
36.007	0.135	72014	keystroke_t	t	n/a
36.547	0.12	73094	keystroke_i	i	n/a
36.802	0.135	73604	keystroke_v	v	n/a
37.0725	0.105	74145	keystroke_i	i	n/a
37.2075	0.12	74415	keystroke_t	t	n/a
37.447	0.09	74894	keystroke_y	y	n/a
37.642	0.15	75284	keystroke_Key.enter	Key.enter	n/a
37.7975	6.7765	75595	prompt	n/a	banner advertisement castle regarding\n
38.497	0.12	76994	keystroke_b	b	n/a
38.647	0.15	77294	keystroke_a	a	n/a
38.812	0.09	77624	keystroke_n	n	n/a
38.977	0.12	77954	keystroke_n	n	n/a
39.067	0.135	78134	keystroke_e	e	n/a
39.157	0.12	78314	keystroke_r	r	n/a
39.247	0.18	78494	keystroke_Key.space	Key.space	n/a
39.337	0.21	78674	keystroke_a	a	n/a
39.472	0.165	78944	keystroke_d	d	n/a
39.817	0.075	79634	keystroke_v	v	n/a
40.012	0.1805	80024	keystroke_e	e	n/a
40.1025	0.12	80205	keystroke_r	r	n/a
40.3425	0.12	80685	keystroke_t	t	n/a
40.5075	0.15	81015	keystroke_i	i	n/a
40.6425	0.105	81285	keystroke_s	s	n/a
40.8975	0.105	81795	keystroke_e	e	n/a
41.0625	0.12	82125	keystroke_m	m	n/a
41.1975	0.12	82395	keystroke_e	e	n/a
41.3175	0.12	82635	keystroke_n	n	n/a
41.4225	0.12	82845	keystroke_t	t	n/a
41.5575	0.135	83115	keystroke_Key.space	Key.space	n/a
41.7075	0.09	83415	keystroke_c	c	n/a
41.9325	0.18	83865	keystroke_a	a	n/a
42.0225	0.18	84045	keystroke_s	s	n/a
42.3825	0.105	84765	keystroke_t	t	n/a
42.5025	0.135	85005	keystroke_l	l	n/a
42.6525	0.12	85305	keystroke_e	e	n/a
42.7865	0.1505	85573	keystroke_Key.space	Key.space	n/a
42.877	0.1505	85754	keystroke_r	r	n/a
42.967	0.1205	85934	keystroke_e	e	n/a
43.1925	0.105	86385	keystroke_g	g	n/a
43.3725	0.18	86745	keystroke_a	a	n/a
43.5375	0.105	87075	keystroke_r	r	n/a
43.7625	0.105	87525	keystroke_d	d	n/a
43.8825	0.24	87765	keystroke_i	i	n/a
44.0175	0.15	88035	keystroke_n	n	n/a
44.1525	0.1045	88305	keystroke_g	g	n/a
44.437	0.135	88874	keystroke_Key.enter	Key.enter	n/a
44.577	6.672	89154	prompt	n/a	faced perl billy guinea\n
45.322	0.12	90644	keystroke_f	f	n/a
45.472	0.15	90944	keystroke_a	a	n/a
45.6525	0.2395	91305	keystroke_c	c	n/a
45.802	0.21	91604	keystroke_e	e	n/a
45.907	0.136	91814	keystroke_s	s	n/a
46.072	0.21	92144	keystroke_Key.space	Key.space	n/a
46.162	0.18	92324	keystroke_p	p	n/a
46.267	0.195	92534	keystroke_e	e	n/a
46.417	0.12	92834	keystroke_r	r	n/a
46.717	0.195	93434	keystroke_l	l	n/a
46.837	0.195	93674	keystroke_Key.space	Key.space	n/a
47.272	0.1205	94544	keystroke_b	b	n/a
47.4975	0.12	94995	keystroke_i	i	n/a
47.7675	0.06	95535	keystroke_l	l	n/a
47.9175	0.06	95835	keystroke_l	l	n/a
48.0375	0.225	96075	keystroke_y	y	n/a
48.2025	0.1495	96405	keystroke_Key.space	Key.space	n/a
49.852	0.09	99704	keystroke_g	g	n/a
50.047	0.105	100094	keystroke_u	u	n/a
50.272	0.135	100544	keystroke_i	i	n/a
50.572	0.105	101144	keystroke_n	n	n/a
50.707	0.165	101414	keystroke_e	e	n/a
50.827	0.195	101654	keystroke_a	a	n/a
51.097	0.15	102194	keystroke_Key.enter	Key.enter	n/a
51.252	8.247	102504	prompt	n/a	oman ruled firefox intranet\n
52.432	0.225	104864	keystroke_o	o	n/a
52.777	0.135	105554	keystroke_a	a	n/a
53.182	0.09	106364	keystroke_Key.backspace	Key.backspace	n/a
53.512	0.105	107024	keystroke_m	m	n/a
53.827	0.135	107654	keystroke_a	a	n/a
54.007	0.165	108014	keystroke_n	n	n/a
54.112	0.165	108224	keystroke_Key.space	Key.space	n/a
54.262	0.1505	108524	keystroke_r	r	n/a
54.3975	0.255	108795	keystroke_u	u	n/a
54.5775	0.165	109155	keystroke_l	l	n/a
54.6815	0.106	109363	keystroke_e	e	n/a
55.132	0.165	110264	keystroke_d	d	n/a
55.522	0.165	111044	keystroke_Key.space	Key.space	n/a
55.672	0.12	111344	keystroke_f	f	n/a
55.822	0.135	111644	keystroke_i	i	n/a
55.972	0.135	111944	keystroke_r	r	n/a
56.047	0.15	112094	keystroke_e	e	n/a
56.257	0.1505	112514	keystroke_f	f	n/a
56.3925	0.119	112785	keystroke_o	o	n/a
56.977	0.15	113954	keystroke_x	x	n/a
57.6525	0.165	115305	keystroke_Key.space	Key.space	n/a
57.9675	0.195	115935	keystroke_i	i	n/a
58.1175	0.164	116235	keystroke_n	n	n/a
58.2965	0.105	116593	keystroke_t	t	n/a
58.5215	0.165	117043	keystroke_r	r	n/a
58.6565	0.165	117313	keystroke_a	a	n/a
58.8815	0.135	117763	keystroke_n	n	n/a
59.0315	0.165	118063	keystroke_e	e	n/a
59.1365	0.135	118273	keystroke_t	t	n/a
59.3765	0.12	118753	keystroke_Key.enter	Key.enter	n/a
59.5025	10.331	119005	prompt	n/a	cameroon orchestra camera psychology\n
60.4265	0.135	120853	keystroke_m	m	n/a
60.997	0.135	121994	keystroke_a	a	n/a
61.267	0.105	122534	keystroke_c	c	n/a
62.302	0.21	124604	keystroke_Key.backspace	Key.backspace	n/a
62.617	0.09	125234	keystroke_Key.backspace	Key.backspace	n/a
62.7825	0.105	125565	keystroke_Key.backspace	Key.backspace	n/a
63.382	0.12	126764	keystroke_c	c	n/a
63.8175	0.135	127635	keystroke_a	a	n/a
64.1475	0.15	128295	keystroke_m	m	n/a
64.3425	0.165	128685	keystroke_e	e	n/a
64.4625	0.135	128925	keystroke_r	r	n/a
64.7775	0.075	129555	keystroke_o	o	n/a
64.9425	0.135	129885	keystroke_o	o	n/a
65.0625	0.1945	130125	keystroke_n	n	n/a
65.1825	0.1795	130365	keystroke_Key.space	Key.space	n/a
65.377	0.135	130754	keystroke_o	o	n/a
65.467	0.09	130934	keystroke_r	r	n/a
65.7375	0.105	131475	keystroke_c	c	n/a
65.9775	0.1345	131955	keystroke_h	h	n/a
66.082	0.195	132164	keystroke_e	e	n/a
66.172	0.165	132344	keystroke_s	s	n/a
66.397	0.105	132794	keystroke_t	t	n/a
66.652	0.105	133304	keystroke_r	r	n/a
66.727	0.135	133454	keystroke_a	a	n/a
66.862	0.165	133724	keystroke_Key.space	Key.space	n/a
67.012	0.12	134024	keystroke_c	c	n/a
67.147	0.105	134294	keystroke_a	a	n/a
67.267	0.1345	134534	keystroke_m	m	n/a
67.4315	0.15	134863	keystroke_e	e	n/a
67.5215	0.105	135043	keystroke_r	r	n/a
67.7015	0.135	135403	keystroke_a	a	n/a
67.8375	0.164	135675	keystroke_Key.space	Key.space	n/a
67.9415	0.151	135883	keystroke_p	p	n/a
68.1225	0.105	136245	keystroke_s	s	n/a
68.2875	0.105	136575	keystroke_y	y	n/a
68.4525	0.12	136905	keystroke_c	c	n/a
68.5875	0.12	137175	keystroke_h	h	n/a
68.7975	0.105	137595	keystroke_o	o	n/a
69.007	0.09	138014	keystroke_l	l	n/a
69.187	0.06	138374	keystroke_o	o	n/a
69.307	0.105	138614	keystroke_g	g	n/a
69.442	0.105	138884	keystroke_y	y	n/a
69.697	0.135	139394	keystroke_Key.enter	Key.enter	n/a
69.8385	12.265	139677	prompt	n/a	dependence computational burlington reviewing\n
70.7175	0.03	141435	keystroke_d	d	n/a
71.062	0.15	142124	keystroke_e	e	n/a
71.407	0.135	142814	keystroke_p	p	n/a
71.572	0.135	143144	keystroke_e	e	n/a
72.052	0.165	144104	keystroke_n	n	n/a
72.232	0.165	144464	keystroke_d	d	n/a
72.352	0.165	144704	keystroke_e	e	n/a
72.577	0.165	145154	keystroke_n	n	n/a
72.757	0.165	145514	keystroke_c	c	n/a
72.877	0.1645	145754	keystroke_e	e	n/a
73.0565	0.105	146113	keystroke_Key.space	Key.space	n/a
73.1915	0.1355	146383	keystroke_c	c	n/a
73.822	0.225	147644	keystroke_o	o	n/a
73.957	0.165	147914	keystroke_m	m	n/a
74.317	0.135	148634	keystroke_p	p	n/a
74.812	0.135	149624	keystroke_u	u	n/a
75.5625	0.105	151125	keystroke_t	t	n/a
75.817	0.15	151634	keystroke_a	a	n/a
76.042	0.135	152084	keystroke_t	t	n/a
76.192	0.21	152384	keystroke_i	i	n/a
76.252	0.1955	152504	keystroke_o	o	n/a
76.342	0.1505	152684	keystroke_n	n	n/a
76.4775	0.15	152955	keystroke_a	a	n/a
76.6125	0.18	153225	keystroke_l	l	n/a
76.7325	0.1645	153465	keystroke_Key.space	Key.space	n/a
76.987	0.135	153974	keystroke_b	b	n/a
77.182	0.12	154364	keystroke_u	u	n/a
77.303	0.119	154606	keystroke_r	r	n/a
77.482	0.12	154964	keystroke_l	l	n/a
77.587	0.225	155174	keystroke_i	i	n/a
77.707	0.135	155414	keystroke_n	n	n/a
77.827	0.09	155654	keystroke_g	g	n/a
78.037	0.0905	156074	keystroke_t	t	n/a
78.112	0.255	156224	keystroke_o	o	n/a
78.262	0.21	156524	keystroke_n	n	n/a
78.352	0.18	156704	keystroke_Key.space	Key.space	n/a
78.547	0.18	157094	keystroke_r	r	n/a
78.667	0.165	157334	keystroke_e	e	n/a
79.3265	0.12	158653	keystroke_v	v	n/a
79.6115	0.135	159223	keystroke_i	i	n/a
79.8815	0.075	159763	keystroke_e	e	n/a
80.767	0.105	161534	keystroke_w	w	n/a
80.992	0.2695	161984	keystroke_i	i	n/a
81.1415	0.165	162283	keystroke_n	n	n/a
81.3215	0.105	162643	keystroke_g	g	n/a
81.9965	0.105	163993	keystroke_Key.enter	Key.enter	n/a
82.1085	9.97	164217	prompt	n/a	climate latin slovakia queries\n
82.9565	0.12	165913	keystroke_c	c	n/a
83.0915	0.12	166183	keystroke_l	l	n/a
83.1665	0.21	166333	keystroke_i	i	n/a
83.3315	0.165	166663	keystroke_m	m	n/a
83.4815	0.105	166963	keystroke_a	a	n/a
83.7065	0.18	167413	keystroke_t	t	n/a
83.7965	0.135	167593	keystroke_e	e	n/a
83.9465	0.195	167893	keystroke_Key.space	Key.space	n/a
84.1565	0.105	168313	keystroke_l	l	n/a
84.2165	0.165	168433	keystroke_a	a	n/a
84.4115	0.12	168823	keystroke_t	t	n/a
84.5165	0.285	169033	keystroke_i	i	n/a
84.6515	0.225	169303	keystroke_n	n	n/a
84.7565	0.1955	169513	keystroke_Key.space	Key.space	n/a
85.762	0.105	171524	keystroke_s	s	n/a
86.182	0.12	172364	keystroke_l	l	n/a
86.4515	0.105	172903	keystroke_o	o	n/a
86.6465	0.1205	173293	keystroke_v	v	n/a
86.9175	0.12	173835	keystroke_a	a	n/a
87.0675	0.105	174135	keystroke_k	k	n/a
87.2775	0.105	174555	keystroke_i	i	n/a
87.3975	0.15	174795	keystroke_a	a	n/a
87.5775	0.165	175155	keystroke_Key.space	Key.space	n/a
88.267	0.09	176534	keystroke_q	q	n/a
90.082	0.135	180164	keystroke_u	u	n/a
91.117	0.21	182234	keystroke_e	e	n/a
91.312	0.12	182624	keystroke_r	r	n/a
91.462	0.165	182924	keystroke_i	i	n/a
91.582	0.24	183164	keystroke_e	e	n/a
91.702	0.15	183404	keystroke_s	s	n/a
91.9265	0.15	183853	keystroke_Key.enter	Key.enter	n/a
92.082	6.8065	184164	prompt	n/a	continental seed colin relief\n
92.9165	0.105	185833	keystroke_o	o	n/a
93.0815	0.075	186163	keystroke_c	c	n/a
93.307	0.09	186614	keystroke_Key.backspace	Key.backspace	n/a
93.4565	0.075	186913	keystroke_Key.backspace	Key.backspace	n/a
93.6365	0.06	187273	keystroke_Key.backspace	Key.backspace	n/a
93.8015	0.09	187603	keystroke_c	c	n/a
93.9965	0.195	187993	keystroke_o	o	n/a
94.1315	0.15	188263	keystroke_n	n	n/a
94.4165	0.09	188833	keystroke_t	t	n/a
94.5515	0.2105	189103	keystroke_i	i	n/a
94.7015	0.1655	189403	keystroke_n	n	n/a
94.912	0.1355	189824	keystroke_e	e	n/a
95.1075	0.135	190215	keystroke_n	n	n/a
95.2725	0.105	190545	keystroke_t	t	n/a
95.4075	0.15	190815	keystroke_a	a	n/a
95.5725	0.194	191145	keystroke_l	l	n/a
95.6915	0.18	191383	keystroke_Key.space	Key.space	n/a
95.8425	0.1345	191685	keystroke_s	s	n/a
96.112	0.075	192224	keystroke_e	e	n/a
96.307	0.105	192614	keystroke_e	e	n/a
96.442	0.15	192884	keystroke_d	d	n/a
96.622	0.12	193244	keystroke_Key.space	Key.space	n/a
96.847	0.135	193694	keystroke_c	c	n/a
96.952	0.1195	193904	keystroke_o	o	n/a
97.1915	0.09	194383	keystroke_l	l	n/a
97.3865	0.195	194773	keystroke_i	i	n/a
97.4765	0.1955	194953	keystroke_n	n	n/a
97.5965	0.1655	195193	keystroke_Key.space	Key.space	n/a
97.717	0.15	195434	keystroke_r	r	n/a
97.822	0.12	195644	keystroke_e	e	n/a
98.017	0.225	196034	keystroke_l	l	n/a
98.137	0.15	196274	keystroke_i	i	n/a
98.227	0.21	196454	keystroke_e	e	n/a
98.377	0.15	196754	keystroke_f	f	n/a
98.752	0.135	197504	keystroke_Key.enter	Key.enter	n/a
98.8915	9.072	197783	prompt	n/a	scanner scripting janet skilled\n
99.592	0.12	199184	keystroke_c	c	n/a
100.4465	0.09	200893	keystroke_Key.backspace	Key.backspace	n/a
100.6265	0.1205	201253	keystroke_s	s	n/a
100.8675	0.1045	201735	keystroke_c	c	n/a
101.077	0.105	202154	keystroke_a	a	n/a
101.257	0.045	202514	keystroke_n	n	n/a
101.407	0.105	202814	keystroke_n	n	n/a
101.497	0.12	202994	keystroke_e	e	n/a
101.557	0.135	203114	keystroke_r	r	n/a
101.722	0.12	203444	keystroke_Key.space	Key.space	n/a
101.827	0.135	203654	keystroke_s	s	n/a
102.487	0.12	204974	keystroke_c	c	n/a
102.787	0.0895	205574	keystroke_r	r	n/a
103.6125	0.09	207225	keystroke_i	i	n/a
103.822	0.135	207644	keystroke_p	p	n/a
104.002	0.1355	208004	keystroke_t	t	n/a
104.1525	0.2395	208305	keystroke_i	i	n/a
104.2875	0.1645	208575	keystroke_n	n	n/a
104.422	0.105	208844	keystroke_g	g	n/a
104.572	0.165	209144	keystroke_Key.space	Key.space	n/a
104.947	0.12	209894	keystroke_j	j	n/a
105.307	0.12	210614	keystroke_a	a	n/a
105.6215	0.15	211243	keystroke_n	n	n/a
105.7865	0.15	211573	keystroke_e	e	n/a
105.9065	0.135	211813	keystroke_t	t	n/a
106.0565	0.165	212113	keystroke_Key.space	Key.space	n/a
106.1925	0.119	212385	keystroke_s	s	n/a
106.3415	0.075	212683	keystroke_k	k	n/a
106.5665	0.105	213133	keystroke_i	i	n/a
106.8065	0.09	213613	keystroke_l	l	n/a
107.3315	0.1355	214663	keystroke_l	l	n/a
107.482	0.195	214964	keystroke_e	e	n/a
107.602	0.165	215204	keystroke_d	d	n/a
107.827	0.135	215654	keystroke_Key.enter	Key.enter	n/a
107.974	10.3395	215948	prompt	n/a	technological comparisons documentary rise\n
108.817	0.12	217634	keystroke_t	t	n/a
108.922	0.1495	217844	keystroke_e	e	n/a
109.2215	0.09	218443	keystroke_c	c	n/a
109.3415	0.12	218683	keystroke_h	h	n/a
109.6265	0.09	219253	keystroke_n	n	n/a
109.8515	0.135	219703	keystroke_o	o	n/a
110.1065	0.0605	220213	keystroke_l	l	n/a
110.302	0.09	220604	keystroke_o	o	n/a
110.452	0.12	220904	keystroke_g	g	n/a
110.797	0.1355	221594	keystroke_i	i	n/a
110.8725	0.15	221745	keystroke_c	c	n/a
111.037	0.135	222074	keystroke_a	a	n/a
111.112	0.18	222224	keystroke_l	l	n/a
111.217	0.165	222434	keystroke_Key.space	Key.space	n/a
111.337	0.105	222674	keystroke_c	c	n/a
111.427	0.15	222854	keystroke_o	o	n/a
111.517	0.225	223034	keystroke_m	m	n/a
111.727	0.135	223454	keystroke_p	p	n/a
111.802	0.15	223604	keystroke_a	a	n/a
111.937	0.12	223874	keystroke_r	r	n/a
112.222	0.12	224444	keystroke_i	i	n/a
112.402	0.135	224804	keystroke_s	s	n/a
112.522	0.225	225044	keystroke_o	o	n/a
112.627	0.15	225254	keystroke_n	n	n/a
112.792	0.135	225584	keystroke_s	s	n/a
113.138	0.149	226276	keystroke_Key.space	Key.space	n/a
113.572	0.1345	227144	keystroke_d	d	n/a
113.7815	0.105	227563	keystroke_u	u	n/a
113.9465	0.105	227893	keystroke_c	c	n/a
114.757	0.09	229514	keystroke_Key.backspace	Key.backspace	n/a
114.952	0.03	229904	keystroke_Key.backspace	Key.backspace	n/a
115.2675	0.104	230535	keystroke_o	o	n/a
115.597	0.135	231194	keystroke_c	c	n/a
115.9865	0.105	231973	keystroke_u	u	n/a
116.3165	0.1205	232633	keystroke_m	m	n/a
116.452	0.105	232904	keystroke_e	e	n/a
116.617	0.105	233234	keystroke_n	n	n/a
116.737	0.0895	233474	keystroke_t	t	n/a
116.9315	0.1505	233863	keystroke_a	a	n/a
117.022	0.135	234044	keystroke_r	r	n/a
117.142	0.18	234284	keystroke_y	y	n/a
117.247	0.135	234494	keystroke_Key.space	Key.space	n/a
117.337	0.12	234674	keystroke_r	r	n/a
117.487	0.135	234974	keystroke_i	i	n/a
117.607	0.195	235214	keystroke_s	s	n/a
117.727	0.15	235454	keystroke_e	e	n/a
118.192	0.12	236384	keystroke_Key.enter	Key.enter	n/a
118.318	6.5355	236636	prompt	n/a	selecting boxes look curve\n
119.0465	0.105	238093	keystroke_s	s	n/a
119.3015	0.0605	238603	keystroke_e	e	n/a
119.512	0.1345	239024	keystroke_l	l	n/a
119.587	0.15	239174	keystroke_e	e	n/a
119.7665	0.15	239533	keystroke_c	c	n/a
120.0665	0.1205	240133	keystroke_t	t	n/a
120.172	0.1945	240344	keystroke_i	i	n/a
120.2615	0.1505	240523	keystroke_n	n	n/a
120.3815	0.105	240763	keystroke_g	g	n/a
120.5325	0.135	241065	keystroke_Key.space	Key.space	n/a
120.6975	0.195	241395	keystroke_b	b	n/a
120.8615	0.181	241723	keystroke_o	o	n/a
121.3275	0.165	242655	keystroke_x	x	n/a
121.8525	0.24	243705	keystroke_e	e	n/a
121.9865	0.165	243973	keystroke_s	s	n/a
122.1365	0.195	244273	keystroke_Key.space	Key.space	n/a
122.2725	0.134	244545	keystroke_l	l	n/a
122.5275	0.075	245055	keystroke_o	o	n/a
122.7225	0.164	245445	keystroke_o	o	n/a
122.7365	0.241	245473	keystroke_k	k	n/a
122.9015	0.15	245803	keystroke_Key.space	Key.space	n/a
123.0075	0.165	246015	keystroke_c	c	n/a
123.3375	0.12	246675	keystroke_u	u	n/a
123.832	0.105	247664	keystroke_r	r	n/a
124.162	0.12	248324	keystroke_v	v	n/a
124.447	0.12	248894	keystroke_e	e	n/a
124.687	0.165	249374	keystroke_Key.enter	Key.enter	n/a
124.8565	10.347	249713	prompt	n/a	diploma especially uniprotkb shorts\n
125.7065	0.1505	251413	keystroke_d	d	n/a
126.097	0.075	252194	keystroke_i	i	n/a
126.367	0.12	252734	keystroke_p	p	n/a
126.607	0.105	253214	keystroke_l	l	n/a
126.817	0.09	253634	keystroke_o	o	n/a
127.0575	0.12	254115	keystroke_m	m	n/a
127.2525	0.135	254505	keystroke_a	a	n/a
127.4175	0.165	254835	keystroke_Key.space	Key.space	n/a
127.5975	0.12	255195	keystroke_e	e	n/a
127.8375	0.135	255675	keystroke_s	s	n/a
127.9875	0.135	255975	keystroke_p	p	n/a
128.1075	0.09	256215	keystroke_e	e	n/a
128.3325	0.135	256665	keystroke_c	c	n/a
128.4975	0.12	256995	keystroke_i	i	n/a
129.127	0.12	258254	keystroke_a	a	n/a
129.232	0.075	258464	keystroke_l	l	n/a
129.3975	0.075	258795	keystroke_l	l	n/a
129.637	0.225	259274	keystroke_y	y	n/a
129.757	0.165	259514	keystroke_Key.space	Key.space	n/a
130.282	0.135	260564	keystroke_u	u	n/a
130.7465	0.12	261493	keystroke_n	n	n/a
131.0015	0.1055	262003	keystroke_i	i	n/a
131.347	0.1045	262694	keystroke_p	p	n/a
131.6615	0.165	263323	keystroke_r	r	n/a
131.9165	0.15	263833	keystroke_o	o	n/a
132.0815	0.105	264163	keystroke_t	t	n/a
132.3665	0.3005	264733	keystroke_k	k	n/a
133.1765	0.15	266353	keystroke_b	b	n/a
133.7465	0.135	267493	keystroke_Key.space	Key.space	n/a
134.0165	0.1355	268033	keystroke_s	s	n/a
134.197	0.21	268394	keystroke_h	h	n/a
134.347	0.15	268694	keystroke_o	o	n/a
134.467	0.105	268934	keystroke_r	r	n/a
134.707	0.09	269414	keystroke_t	t	n/a
134.902	0.1355	269804	keystroke_s	s	n/a
135.1875	0.015	270375	keystroke_Key.enter	Key.enter	n/a
135.2065	12.972	270413	prompt	n/a	resources arctic thriller newer\n
136.1925	0.195	272385	keystroke_r	r	n/a
136.2975	0.15	272595	keystroke_e	e	n/a
136.5375	0.1345	273075	keystroke_s	s	n/a
136.747	0.24	273494	keystroke_o	o	n/a
136.852	0.18	273704	keystroke_u	u	n/a
136.942	0.09	273884	keystroke_r	r	n/a
137.302	0.135	274604	keystroke_e	e	n/a
138.037	0.135	276074	keystroke_s	s	n/a
138.217	0.12	276434	keystroke_Key.space	Key.space	n/a
138.832	0.03	277664	keystroke_Key.backspace	Key.backspace	n/a
139.132	0.075	278264	keystroke_Key.backspace	Key.backspace	n/a
139.327	0.045	278654	keystroke_Key.backspace	Key.backspace	n/a
139.807	0.18	279614	keystroke_c	c	n/a
139.972	0.195	279944	keystroke_e	e	n/a
140.077	0.135	280154	keystroke_s	s	n/a
140.227	0.15	280454	keystroke_Key.space	Key.space	n/a
140.317	0.195	280634	keystroke_a	a	n/a
140.467	0.1495	280934	keystroke_r	r	n/a
140.9025	0.12	281805	keystroke_c	c	n/a
141.187	0.12	282374	keystroke_t	t	n/a
141.352	0.135	282704	keystroke_i	i	n/a
141.517	0.135	283034	keystroke_c	c	n/a
141.653	0.149	283306	keystroke_Key.space	Key.space	n/a
141.862	0.135	283724	keystroke_t	t	n/a
142.012	0.1205	284024	keystroke_r	r	n/a
142.1625	0.105	284325	keystroke_h	h	n/a
142.3875	0.119	284775	keystroke_i	i	n/a
142.6275	0.075	285255	keystroke_l	l	n/a
142.7775	0.12	285555	keystroke_l	l	n/a
142.8525	0.1645	285705	keystroke_e	e	n/a
142.9575	0.1045	285915	keystroke_r	r	n/a
143.032	0.225	286064	keystroke_Key.space	Key.space	n/a
143.212	0.15	286424	keystroke_n	n	n/a
143.632	0.045	287264	keystroke_Key.backspace	Key.backspace	n/a
143.737	0.0605	287474	keystroke_Key.backspace	Key.backspace	n/a
143.8565	0.06	287713	keystroke_Key.backspace	Key.backspace	n/a
143.9765	0.046	287953	keystroke_Key.backspace	Key.backspace	n/a
144.0815	0.06	288163	keystroke_Key.backspace	Key.backspace	n/a
144.2465	0.045	288493	keystroke_Key.backspace	Key.backspace	n/a
144.4275	0.074	288855	keystroke_Key.backspace	Key.backspace	n/a
144.5915	0.09	289183	keystroke_Key.backspace	Key.backspace	n/a
144.7725	0.06	289545	keystroke_Key.backspace	Key.backspace	n/a
145.3125	0.09	290625	keystroke_h	h	n/a
145.4915	0.106	290983	keystroke_r	r	n/a
145.6565	0.106	291313	keystroke_i	i	n/a
146.1965	0.09	292393	keystroke_l	l	n/a
146.3915	0.06	292783	keystroke_l	l	n/a
146.5115	0.181	293023	keystroke_e	e	n/a
146.6315	0.12	293263	keystroke_r	r	n/a
146.7365	0.165	293473	keystroke_Key.space	Key.space	n/a
147.0825	0.12	294165	keystroke_n	n	n/a
147.2175	0.165	294435	keystroke_e	e	n/a
147.3375	0.24	294675	keystroke_w	w	n/a
147.5025	0.165	295005	keystroke_e	e	n/a
147.7875	0.105	295575	keystroke_r	r	n/a
148.0415	0.135	296083	keystroke_Key.enter	Key.enter	n/a
148.1815	4.662	296363	prompt	n/a	ones merchant take newman\n
149.0165	0.226	298033	keystroke_o	o	n/a
149.1525	0.1345	298305	keystroke_n	n	n/a
149.2125	0.2095	298425	keystroke_e	e	n/a
149.317	0.165	298634	keystroke_s	s	n/a
149.407	0.225	298814	keystroke_Key.space	Key.space	n/a
149.557	0.135	299114	keystroke_m	m	n/a
149.677	0.12	299354	keystroke_e	e	n/a
149.737	0.12	299474	keystroke_r	r	n/a
149.9915	0.1205	299983	keystroke_c	c	n/a
150.1715	0.15	300343	keystroke_h	h	n/a
150.3365	0.15	300673	keystroke_a	a	n/a
150.5015	0.135	301003	keystroke_n	n	n/a
150.6515	0.136	301303	keystroke_t	t	n/a
150.7725	0.1795	301545	keystroke_Key.space	Key.space	n/a
150.937	0.09	301874	keystroke_t	t	n/a
151.057	0.15	302114	keystroke_a	a	n/a
151.192	0.15	302384	keystroke_k	k	n/a
151.312	0.09	302624	keystroke_e	e	n/a
151.432	0.195	302864	keystroke_Key.space	Key.space	n/a
151.582	0.135	303164	keystroke_n	n	n/a
151.642	0.21	303284	keystroke_e	e	n/a
151.762	0.1505	303524	keystroke_w	w	n/a
151.9425	0.1345	303885	keystroke_m	m	n/a
152.107	0.09	304214	keystroke_a	a	n/a
152.212	0.12	304424	keystroke_n	n	n/a
152.722	0.12	305444	keystroke_Key.enter	Key.enter	n/a
152.8465	11.487	305693	prompt	n/a	reveals mambo indianapolis flip\n
153.5615	0.135	307123	keystroke_r	r	n/a
153.6215	0.165	307243	keystroke_e	e	n/a
154.2515	0.12	308503	keystroke_v	v	n/a
154.5665	0.12	309133	keystroke_e	e	n/a
154.6415	0.15	309283	keystroke_a	a	n/a
154.7765	0.15	309553	keystroke_l	l	n/a
154.9415	0.105	309883	keystroke_s	s	n/a
155.0765	0.195	310153	keystroke_Key.space	Key.space	n/a
155.2565	0.165	310513	keystroke_m	m	n/a
155.4065	0.12	310813	keystroke_a	a	n/a
156.2015	0.12	312403	keystroke_m	m	n/a
156.5165	0.12	313033	keystroke_b	b	n/a
156.7725	0.119	313545	keystroke_o	o	n/a
156.9515	0.1355	313903	keystroke_Key.space	Key.space	n/a
157.147	0.21	314294	keystroke_i	i	n/a
157.2965	0.1505	314593	keystroke_n	n	n/a
157.687	0.15	315374	keystroke_d	d	n/a
158.197	0.105	316394	keystroke_i	i	n/a
158.797	0.135	317594	keystroke_a	a	n/a
159.1725	0.1645	318345	keystroke_n	n	n/a
159.4725	0.1495	318945	keystroke_a	a	n/a
159.727	0.1505	319454	keystroke_p	p	n/a
159.8925	0.12	319785	keystroke_o	o	n/a
160.2525	0.18	320505	keystroke_i	i	n/a
160.4475	0.15	320895	keystroke_s	s	n/a
160.7025	0.165	321405	keystroke_Key.space	Key.space	n/a
161.5125	0.09	323025	keystroke_Key.backspace	Key.backspace	n/a
161.7525	0.09	323505	keystroke_Key.backspace	Key.backspace	n/a
162.2915	0.061	324583	keystroke_Key.backspace	Key.backspace	n/a
162.6975	0.09	325395	keystroke_l	l	n/a
162.9225	0.1345	325845	keystroke_i	i	n/a
163.072	0.165	326144	keystroke_s	s	n/a
163.207	0.15	326414	keystroke_Key.space	Key.space	n/a
163.372	0.105	326744	keystroke_f	f	n/a
163.552	0.12	327104	keystroke_l	l	n/a
163.642	0.285	327284	keystroke_i	i	n/a
163.837	0.15	327674	keystroke_p	p	n/a
164.212	0.12	328424	keystroke_Key.enter	Key.enter	n/a
164.3365	6.282	328673	prompt	n/a	finds walked alleged sell\n
164.992	0.1195	329984	keystroke_f	f	n/a
165.0965	0.211	330193	keystroke_i	i	n/a
165.2165	0.165	330433	keystroke_n	n	n/a
165.3515	0.1805	330703	keystroke_d	d	n/a
165.4115	0.1505	330823	keystroke_s	s	n/a
165.577	0.135	331154	keystroke_Key.space	Key.space	n/a
165.697	0.12	331394	keystroke_w	w	n/a
165.757	0.1495	331514	keystroke_a	a	n/a
165.9215	0.195	331843	keystroke_l	l	n/a
165.9815	0.165	331963	keystroke_k	k	n/a
166.1015	0.18	332203	keystroke_e	e	n/a
166.2365	0.165	332473	keystroke_d	d	n/a
166.4165	0.135	332833	keystroke_Key.space	Key.space	n/a
166.5365	0.105	333073	keystroke_a	a	n/a
166.7315	0.06	333463	keystroke_l	l	n/a
166.8825	0.105	333765	keystroke_l	l	n/a
166.9575	0.1045	333915	keystroke_e	e	n/a
167.137	0.135	334274	keystroke_g	g	n/a
167.287	0.225	334574	keystroke_e	e	n/a
167.467	0.18	334934	keystroke_d	d	n/a
167.722	0.12	335444	keystroke_Key.space	Key.space	n/a
167.887	0.09	335774	keystroke_s	s	n/a
168.4275	0.09	336855	keystroke_Key.backspace	Key.backspace	n/a
168.5925	0.0895	337185	keystroke_Key.backspace	Key.backspace	n/a
168.742	0.165	337484	keystroke_e	e	n/a
168.832	0.15	337664	keystroke_d	d	n/a
169.012	0.135	338024	keystroke_Key.space	Key.space	n/a
169.162	0.12	338324	keystroke_s	s	n/a
169.447	0.09	338894	keystroke_e	e	n/a
169.6575	0.134	339315	keystroke_l	l	n/a
170.0775	0.135	340155	keystroke_l	l	n/a
170.4825	0.134	340965	keystroke_Key.enter	Key.enter	n/a
170.622	6.8665	341244	prompt	n/a	uniform spokesman noticed lawyers\n
171.517	0.18	343034	keystroke_u	u	n/a
171.667	0.27	343334	keystroke_n	n	n/a
171.862	0.18	343724	keystroke_i	i	n/a
172.0715	0.165	344143	keystroke_f	f	n/a
172.2665	0.15	344533	keystroke_o	o	n/a
172.4315	0.105	344863	keystroke_r	r	n/a
172.6115	0.195	345223	keystroke_m	m	n/a
172.7315	0.15	345463	keystroke_Key.space	Key.space	n/a
172.8365	0.135	345673	keystroke_s	s	n/a
173.0165	0.21	346033	keystroke_p	p	n/a
173.1515	0.286	346303	keystroke_o	o	n/a
173.3175	0.18	346635	keystroke_k	k	n/a
173.4525	0.21	346905	keystroke_e	e	n/a
173.5425	0.1645	347085	keystroke_s	s	n/a
173.707	0.12	347414	keystroke_m	m	n/a
173.887	0.12	347774	keystroke_a	a	n/a
174.022	0.18	348044	keystroke_n	n	n/a
174.127	0.165	348254	keystroke_Key.space	Key.space	n/a
174.382	0.225	348764	keystroke_n	n	n/a
174.487	0.15	348974	keystroke_o	o	n/a
174.592	0.105	349184	keystroke_t	t	n/a
174.757	0.135	349514	keystroke_i	i	n/a
174.9375	0.105	349875	keystroke_c	c	n/a
175.1025	0.2245	350205	keystroke_e	e	n/a
175.267	0.15	350534	keystroke_d	d	n/a
175.432	0.195	350864	keystroke_Key.space	Key.space	n/a
175.628	0.134	351256	keystroke_l	l	n/a
175.777	0.12	351554	keystroke_a	a	n/a
176.062	0.105	352124	keystroke_w	w	n/a
176.4825	0.105	352965	keystroke_y	y	n/a
176.6325	0.195	353265	keystroke_e	e	n/a
176.7675	0.135	353535	keystroke_r	r	n/a
177.022	0.135	354044	keystroke_s	s	n/a
177.337	0.15	354674	keystroke_Key.enter	Key.enter	n/a
177.493	9.3705	354986	prompt	n/a	unexpected sections keys cattle\n
178.087	0.09	356174	keystroke_e	e	n/a
178.492	0.105	356984	keystroke_Key.backspace	Key.backspace	n/a
178.852	0.2555	357704	keystroke_u	u	n/a
179.0175	0.1795	358035	keystroke_n	n	n/a
179.167	0.18	358334	keystroke_e	e	n/a
179.512	0.15	359024	keystroke_d	d	n/a
180.142	0.09	360284	keystroke_Key.backspace	Key.backspace	n/a
180.247	0.15	360494	keystroke_x	x	n/a
180.7265	0.0905	361453	keystroke_p	p	n/a
180.892	0.135	361784	keystroke_e	e	n/a
181.492	0.135	362984	keystroke_c	c	n/a
181.8515	0.105	363703	keystroke_t	t	n/a
182.1065	0.135	364213	keystroke_e	e	n/a
182.2715	0.135	364543	keystroke_d	d	n/a
182.4215	0.165	364843	keystroke_Key.space	Key.space	n/a
182.5715	0.135	365143	keystroke_s	s	n/a
182.8115	0.105	365623	keystroke_e	e	n/a
183.052	0.105	366104	keystroke_c	c	n/a
183.352	0.12	366704	keystroke_t	t	n/a
183.472	0.3	366944	keystroke_i	i	n/a
183.547	0.24	367094	keystroke_o	o	n/a
183.652	0.15	367304	keystroke_n	n	n/a
183.757	0.135	367514	keystroke_s	s	n/a
183.907	0.21	367814	keystroke_Key.space	Key.space	n/a
184.087	0.135	368174	keystroke_k	k	n/a
184.282	0.12	368564	keystroke_e	e	n/a
184.522	0.12	369044	keystroke_y	y	n/a
184.702	0.12	369404	keystroke_s	s	n/a
184.852	0.18	369704	keystroke_Key.space	Key.space	n/a
185.407	0.12	370814	keystroke_c	c	n/a
185.647	0.12	371294	keystroke_a	a	n/a
185.932	0.105	371864	keystroke_t	t	n/a
186.157	0.075	372314	keystroke_t	t	n/a
186.292	0.18	372584	keystroke_l	l	n/a
186.472	0.105	372944	keystroke_e	e	n/a
186.727	0.135	373454	keystroke_Key.enter	Key.enter	n/a
186.8665	8.3075	373733	prompt	n/a	collectible organized greatly speaking\n
187.5515	0.12	375103	keystroke_c	c	n/a
187.9715	0.12	375943	keystroke_o	o	n/a
188.3465	0.105	376693	keystroke_l	l	n/a
188.5565	0.1205	377113	keystroke_l	l	n/a
188.6615	0.1355	377323	keystroke_e	e	n/a
188.932	0.1645	377864	keystroke_c	c	n/a
189.2915	0.105	378583	keystroke_t	t	n/a
189.4265	0.135	378853	keystroke_i	i	n/a
189.6665	0.105	379333	keystroke_b	b	n/a
189.8765	0.1205	379753	keystroke_l	l	n/a
189.982	0.1195	379964	keystroke_e	e	n/a
190.0865	0.21	380173	keystroke_Key.space	Key.space	n/a
190.2665	0.09	380533	keystroke_o	o	n/a
190.3715	0.09	380743	keystroke_r	r	n/a
190.5965	0.12	381193	keystroke_g	g	n/a
190.8065	0.136	381613	keystroke_a	a	n/a
190.9575	0.0895	381915	keystroke_n	n	n/a
191.182	0.12	382364	keystroke_i	i	n/a
191.272	0.09	382544	keystroke_z	z	n/a
191.4675	0.105	382935	keystroke_e	e	n/a
191.6925	0.15	383385	keystroke_d	d	n/a
191.8275	0.15	383655	keystroke_Key.space	Key.space	n/a
191.9925	0.12	383985	keystroke_g	g	n/a
192.2625	0.105	384525	keystroke_r	r	n/a
192.4425	0.105	384885	keystroke_e	e	n/a
192.6075	0.135	385215	keystroke_a	a	n/a
192.8325	0.135	385665	keystroke_t	t	n/a
193.342	0.09	386684	keystroke_l	l	n/a
193.612	0.195	387224	keystroke_y	y	n/a
193.732	0.165	387464	keystroke_Key.space	Key.space	n/a
193.912	0.12	387824	keystroke_s	s	n/a
194.047	0.135	388094	keystroke_p	p	n/a
194.197	0.165	388394	keystroke_e	e	n/a
194.272	0.18	388544	keystroke_a	a	n/a
194.392	0.105	388784	keystroke_k	k	n/a
194.632	0.225	389264	keystroke_i	i	n/a
194.737	0.15	389474	keystroke_n	n	n/a
194.872	0.1055	389744	keystroke_g	g	n/a
195.0515	0.12	390103	keystroke_Key.enter	Key.enter	n/a
195.1775	4.571	390355	prompt	n/a	ford paris cables shirt\n
195.982	0.105	391964	keystroke_f	f	n/a
196.192	0.15	392384	keystroke_o	o	n/a
196.327	0.075	392654	keystroke_r	r	n/a
196.537	0.105	393074	keystroke_d	d	n/a
196.627	0.225	393254	keystroke_Key.space	Key.space	n/a
196.762	0.135	393524	keystroke_p	p	n/a
196.852	0.15	393704	keystroke_a	a	n/a
196.987	0.12	393974	keystroke_r	r	n/a
197.152	0.15	394304	keystroke_i	i	n/a
197.287	0.135	394574	keystroke_s	s	n/a
197.422	0.1345	394844	keystroke_Key.space	Key.space	n/a
197.5715	0.135	395143	keystroke_c	c	n/a
197.7365	0.12	395473	keystroke_a	a	n/a
197.8415	0.09	395683	keystroke_b	b	n/a
198.0665	0.15	396133	keystroke_l	l	n/a
198.1865	0.165	396373	keystroke_e	e	n/a
198.2465	0.21	396493	keystroke_s	s	n/a
198.3965	0.15	396793	keystroke_Key.space	Key.space	n/a
198.5615	0.12	397123	keystroke_s	s	n/a
198.8165	0.241	397633	keystroke_h	h	n/a
198.967	0.1955	397934	keystroke_i	i	n/a
199.0875	0.15	398175	keystroke_r	r	n/a
199.3575	0.105	398715	keystroke_t	t	n/a
199.5825	0.165	399165	keystroke_Key.enter	Key.enter	n/a
199.752	7.5115	399504	prompt	n/a	avoiding files commitment bargains\n
200.557	0.1345	401114	keystroke_a	a	n/a
200.9165	0.135	401833	keystroke_v	v	n/a
201.277	0.2695	402554	keystroke_o	o	n/a
201.4715	0.135	402943	keystroke_i	i	n/a
201.8165	0.1205	403633	keystroke_d	d	n/a
202.1615	0.2255	404323	keystroke_i	i	n/a
202.2815	0.1505	404563	keystroke_n	n	n/a
202.417	0.12	404834	keystroke_g	g	n/a
202.522	0.165	405044	keystroke_Key.space	Key.space	n/a
202.657	0.135	405314	keystroke_f	f	n/a
202.822	0.24	405644	keystroke_i	i	n/a
202.927	0.195	405854	keystroke_l	l	n/a
203.047	0.195	406094	keystroke_e	e	n/a
203.107	0.18	406214	keystroke_s	s	n/a
203.272	0.135	406544	keystroke_Key.space	Key.space	n/a
203.452	0.15	406904	keystroke_c	c	n/a
203.602	0.12	407204	keystroke_o	o	n/a
203.827	0.105	407654	keystroke_m	m	n/a
204.112	0.105	408224	keystroke_m	m	n/a
204.367	0.15	408734	keystroke_i	i	n/a
204.667	0.12	409334	keystroke_t	t	n/a
204.862	0.12	409724	keystroke_m	m	n/a
205.027	0.135	410054	keystroke_e	e	n/a
205.177	0.12	410354	keystroke_n	n	n/a
205.312	0.135	410624	keystroke_t	t	n/a
205.462	0.135	410924	keystroke_Key.space	Key.space	n/a
205.702	0.1195	411404	keystroke_b	b	n/a
205.9415	0.15	411883	keystroke_a	a	n/a
206.0765	0.135	412153	keystroke_r	r	n/a
206.3615	0.075	412723	keystroke_g	g	n/a
206.5265	0.15	413053	keystroke_a	a	n/a
206.6915	0.225	413383	keystroke_i	i	n/a
206.7815	0.165	413563	keystroke_n	n	n/a
206.9315	0.1205	413863	keystroke_s	s	n/a
207.127	0.135	414254	keystroke_Key.enter	Key.enter	n/a
207.267	9.9415	414534	prompt	n/a	abandoned satisfaction accounting drinking\n
207.787	0.075	415574	keystroke_a	a	n/a
208.387	0.12	416774	keystroke_b	b	n/a
208.552	0.135	417104	keystroke_a	a	n/a
208.807	0.12	417614	keystroke_n	n	n/a
209.017	0.1655	418034	keystroke_d	d	n/a
209.6625	0.225	419325	keystroke_o	o	n/a
209.7675	0.165	419535	keystroke_n	n	n/a
209.9175	0.195	419835	keystroke_e	e	n/a
210.0975	0.18	420195	keystroke_d	d	n/a
210.2625	0.15	420525	keystroke_Key.space	Key.space	n/a
210.4725	0.1495	420945	keystroke_s	s	n/a
210.727	0.135	421454	keystroke_a	a	n/a
211.1915	0.09	422383	keystroke_t	t	n/a
211.492	0.135	422984	keystroke_i	i	n/a
211.657	0.1345	423314	keystroke_s	s	n/a
211.9415	0.12	423883	keystroke_f	f	n/a
212.1215	0.135	424243	keystroke_a	a	n/a
212.3465	0.105	424693	keystroke_c	c	n/a
212.6165	0.105	425233	keystroke_t	t	n/a
212.7365	0.2855	425473	keystroke_i	i	n/a
212.7965	0.2405	425593	keystroke_o	o	n/a
212.902	0.2095	425804	keystroke_n	n	n/a
213.022	0.1945	426044	keystroke_Key.space	Key.space	n/a
213.1415	0.15	426283	keystroke_a	a	n/a
213.3965	0.15	426793	keystroke_c	c	n/a
213.7125	0.104	427425	keystroke_c	c	n/a
214.0115	0.24	428023	keystroke_o	o	n/a
214.1315	0.15	428263	keystroke_u	u	n/a
214.4315	0.15	428863	keystroke_n	n	n/a
214.5665	0.121	429133	keystroke_t	t	n/a
214.7015	0.2105	429403	keystroke_i	i	n/a
214.807	0.12	429614	keystroke_n	n	n/a
214.897	0.105	429794	keystroke_g	g	n/a
215.017	0.165	430034	keystroke_Key.space	Key.space	n/a
215.242	0.09	430484	keystroke_d	d	n/a
215.482	0.075	430964	keystroke_r	r	n/a
215.572	0.135	431144	keystroke_i	i	n/a
215.677	0.27	431354	keystroke_n	n	n/a
215.887	0.1045	431774	keystroke_k	k	n/a
216.1565	0.225	432313	keystroke_i	i	n/a
216.2765	0.165	432553	keystroke_n	n	n/a
216.5315	0.135	433063	keystroke_g	g	n/a
217.0565	0.15	434113	keystroke_Key.enter	Key.enter	n/a
217.2115	7.947	434423	prompt	n/a	slowly alberta consultant through\n
217.7915	0.165	435583	keystroke_s	s	n/a
217.9715	0.1055	435943	keystroke_l	l	n/a
218.212	0.09	436424	keystroke_o	o	n/a
218.392	0.105	436784	keystroke_w	w	n/a
218.542	0.105	437084	keystroke_l	l	n/a
218.9325	0.15	437865	keystroke_y	y	n/a
219.2475	0.165	438495	keystroke_Key.space	Key.space	n/a
219.4275	0.15	438855	keystroke_a	a	n/a
219.5625	0.135	439125	keystroke_l	l	n/a
219.952	0.12	439904	keystroke_b	b	n/a
220.087	0.135	440174	keystroke_e	e	n/a
220.177	0.135	440354	keystroke_r	r	n/a
220.432	0.09	440864	keystroke_t	t	n/a
220.582	0.135	441164	keystroke_a	a	n/a
220.732	0.135	441464	keystroke_Key.space	Key.space	n/a
220.882	0.12	441764	keystroke_c	c	n/a
221.062	0.24	442124	keystroke_o	o	n/a
221.212	0.165	442424	keystroke_n	n	n/a
222.3075	0.119	444615	keystroke_s	s	n/a
222.4715	0.121	444943	keystroke_u	u	n/a
222.7565	0.136	445513	keystroke_l	l	n/a
223.0565	0.12	446113	keystroke_t	t	n/a
223.2515	0.165	446503	keystroke_a	a	n/a
223.4325	0.149	446865	keystroke_n	n	n/a
223.5965	0.121	447193	keystroke_t	t	n/a
223.7015	0.135	447403	keystroke_Key.space	Key.space	n/a
223.9115	0.15	447823	keystroke_t	t	n/a
224.0475	0.119	448095	keystroke_h	h	n/a
224.1815	0.105	448363	keystroke_r	r	n/a
224.3165	0.211	448633	keystroke_o	o	n/a
224.422	0.1355	448844	keystroke_u	u	n/a
224.5575	0.105	449115	keystroke_g	g	n/a
224.692	0.135	449384	keystroke_h	h	n/a
225.0225	0.135	450045	keystroke_Key.enter	Key.enter	n/a
225.1615	7.587	450323	prompt	n/a	poland ignore victoria cake\n
226.1475	0.12	452295	keystroke_p	p	n/a
226.2375	0.165	452475	keystroke_o	o	n/a
226.5365	0.106	453073	keystroke_l	l	n/a
226.6575	0.15	453315	keystroke_a	a	n/a
226.7775	0.1345	453555	keystroke_n	n	n/a
226.897	0.15	453794	keystroke_d	d	n/a
227.017	0.225	454034	keystroke_Key.space	Key.space	n/a
227.182	0.135	454364	keystroke_i	i	n/a
227.332	0.075	454664	keystroke_g	g	n/a
227.707	0.105	455414	keystroke_o	o	n/a
228.4725	0.044	456945	keystroke_Key.backspace	Key.backspace	n/a
229.042	0.105	458084	keystroke_n	n	n/a
229.267	0.15	458534	keystroke_o	o	n/a
229.402	0.1645	458804	keystroke_r	r	n/a
229.462	0.1495	458924	keystroke_e	e	n/a
229.5815	0.165	459163	keystroke_Key.space	Key.space	n/a
229.8665	0.09	459733	keystroke_v	v	n/a
230.257	0.12	460514	keystroke_i	i	n/a
230.437	0.135	460874	keystroke_c	c	n/a
230.8725	0.1045	461745	keystroke_t	t	n/a
231.0375	0.12	462075	keystroke_o	o	n/a
231.1725	0.105	462345	keystroke_r	r	n/a
231.3075	0.135	462615	keystroke_i	i	n/a
231.4275	0.15	462855	keystroke_a	a	n/a
231.5925	0.135	463185	keystroke_Key.space	Key.space	n/a
231.8025	0.135	463605	keystroke_c	c	n/a
232.0125	0.15	464025	keystroke_a	a	n/a
232.2225	0.1345	464445	keystroke_k	k	n/a
232.387	0.075	464774	keystroke_e	e	n/a
232.597	0.15	465194	keystroke_Key.enter	Key.enter	n/a
232.752	12.342	465504	prompt	n/a	emperor laid theatre significance\n
233.437	0.075	466874	keystroke_e	e	n/a
236.1845	0.088	472369	keystroke_m	m	n/a
236.6925	0.12	473385	keystroke_p	p	n/a
236.9475	0.195	473895	keystroke_e	e	n/a
237.0825	0.165	474165	keystroke_r	r	n/a
237.5925	0.15	475185	keystroke_o	o	n/a
237.7565	0.136	475513	keystroke_r	r	n/a
237.9075	0.165	475815	keystroke_Key.space	Key.space	n/a
238.1325	0.165	476265	keystroke_l	l	n/a
238.3125	0.135	476625	keystroke_a	a	n/a
238.5075	0.12	477015	keystroke_i	i	n/a
238.6425	0.165	477285	keystroke_d	d	n/a
238.7925	0.135	477585	keystroke_Key.space	Key.space	n/a
239.0325	0.119	478065	keystroke_t	t	n/a
239.2565	0.12	478513	keystroke_h	h	n/a
239.3915	0.106	478783	keystroke_e	e	n/a
239.6615	0.1505	479323	keystroke_a	a	n/a
239.962	0.12	479924	keystroke_t	t	n/a
240.7715	0.2105	481543	keystroke_r	r	n/a
240.9065	0.181	481813	keystroke_e	e	n/a
241.2675	0.165	482535	keystroke_Key.space	Key.space	n/a
241.4025	0.135	482805	keystroke_s	s	n/a
241.5675	0.15	483135	keystroke_i	i	n/a
241.852	0.12	483704	keystroke_g	g	n/a
242.437	0.105	484874	keystroke_n	n	n/a
242.707	0.135	485414	keystroke_i	i	n/a
242.887	0.1505	485774	keystroke_f	f	n/a
243.172	0.1355	486344	keystroke_i	i	n/a
243.2925	0.135	486585	keystroke_c	c	n/a
243.9675	0.165	487935	keystroke_a	a	n/a
244.3125	0.135	488625	keystroke_n	n	n/a
244.4625	0.1945	488925	keystroke_c	c	n/a
244.582	0.15	489164	keystroke_e	e	n/a
244.957	0.1355	489914	keystroke_Key.enter	Key.enter	n/a
245.097	9.5815	490194	prompt	n/a	striking download thereof buying\n
245.9175	0.135	491835	keystroke_s	s	n/a
246.2175	0.105	492435	keystroke_t	t	n/a
246.3525	0.135	492705	keystroke_r	r	n/a
246.4725	0.104	492945	keystroke_i	i	n/a
246.682	0.0895	493364	keystroke_k	k	n/a
246.892	0.18	493784	keystroke_i	i	n/a
246.982	0.135	493964	keystroke_n	n	n/a
247.087	0.12	494174	keystroke_g	g	n/a
247.192	0.165	494384	keystroke_Key.space	Key.space	n/a
247.342	0.135	494684	keystroke_d	d	n/a
247.492	0.12	494984	keystroke_o	o	n/a
247.597	0.105	495194	keystroke_w	w	n/a
247.747	0.105	495494	keystroke_n	n	n/a
247.987	0.075	495974	keystroke_l	l	n/a
248.167	0.105	496334	keystroke_o	o	n/a
248.212	0.165	496424	keystroke_a	a	n/a
248.317	0.15	496634	keystroke_d	d	n/a
248.422	0.15	496844	keystroke_Key.space	Key.space	n/a
248.617	0.105	497234	keystroke_t	t	n/a
248.707	0.12	497414	keystroke_h	h	n/a
248.857	0.18	497714	keystroke_e	e	n/a
248.9775	0.1345	497955	keystroke_r	r	n/a
249.202	0.135	498404	keystroke_o	o	n/a
249.442	0.1505	498884	keystroke_Key.space	Key.space	n/a
249.6825	0.12	499365	keystroke_b	b	n/a
250.072	0.15	500144	keystroke_Key.backspace	Key.backspace	n/a
250.327	0.06	500654	keystroke_Key.backspace	Key.backspace	n/a
250.687	0.105	501374	keystroke_d	d	n/a
250.867	0.15	501734	keystroke_Key.space	Key.space	n/a
251.617	0.0755	503234	keystroke_Key.backspace	Key.backspace	n/a
252.0675	0.09	504135	keystroke_Key.backspace	Key.backspace	n/a
252.8025	0.105	505605	keystroke_f	f	n/a
252.9525	0.1495	505905	keystroke_Key.space	Key.space	n/a
253.192	0.135	506384	keystroke_b	b	n/a
253.432	0.21	506864	keystroke_u	u	n/a
253.582	0.12	507164	keystroke_y	y	n/a
253.867	0.225	507734	keystroke_i	i	n/a
254.017	0.12	508034	keystroke_n	n	n/a
254.167	0.12	508334	keystroke_g	g	n/a
254.557	0.12	509114	keystroke_Key.enter	Key.enter	n/a
254.6815	6.852	509363	prompt	n/a	continue embassy fold media\n
255.517	0.15	511034	keystroke_c	c	n/a
255.742	0.21	511484	keystroke_o	o	n/a
255.877	0.1655	511754	keystroke_n	n	n/a
256.0275	0.135	512055	keystroke_t	t	n/a
256.1775	0.165	512355	keystroke_i	i	n/a
256.2825	0.15	512565	keystroke_n	n	n/a
256.4925	0.135	512985	keystroke_u	u	n/a
256.6425	0.105	513285	keystroke_e	e	n/a
256.7175	0.18	513435	keystroke_Key.space	Key.space	n/a
256.8825	0.09	513765	keystroke_e	e	n/a
256.9875	0.1195	513975	keystroke_m	m	n/a
257.332	0.12	514664	keystroke_b	b	n/a
257.512	0.135	515024	keystroke_a	a	n/a
257.827	0.12	515654	keystroke_s	s	n/a
258.052	0.09	516104	keystroke_s	s	n/a
258.8025	0.09	517605	keystroke_y	y	n/a
259.222	0.15	518444	keystroke_Key.space	Key.space	n/a
259.402	0.135	518804	keystroke_f	f	n/a
259.522	0.105	519044	keystroke_o	o	n/a
259.747	0.135	519494	keystroke_l	l	n/a
259.912	0.075	519824	keystroke_d	d	n/a
260.032	0.135	520064	keystroke_Key.space	Key.space	n/a
260.452	0.105	520904	keystroke_m	m	n/a
260.587	0.105	521174	keystroke_e	e	n/a
260.812	0.105	521624	keystroke_d	d	n/a
260.932	0.12	521864	keystroke_i	i	n/a
261.067	0.12	522134	keystroke_a	a	n/a
261.382	0.15	522764	keystroke_Key.enter	Key.enter	n/a
261.5375	8.0515	523075	prompt	n/a	tracked pray reaching tons\n
262.3115	0.09	524623	keystroke_t	t	n/a
262.5365	0.09	525073	keystroke_r	r	n/a
262.6565	0.1805	525313	keystroke_a	a	n/a
263.032	0.12	526064	keystroke_c	c	n/a
263.302	0.15	526604	keystroke_k	k	n/a
263.422	0.1655	526844	keystroke_e	e	n/a
263.527	0.2105	527054	keystroke_d	d	n/a
263.7525	0.105	527505	keystroke_Key.space	Key.space	n/a
263.9925	0.075	527985	keystroke_p	p	n/a
264.3075	0.12	528615	keystroke_r	r	n/a
264.4725	0.15	528945	keystroke_a	a	n/a
264.7425	0.045	529485	keystroke_t	t	n/a
265.3575	0.075	530715	keystroke_Key.backspace	Key.backspace	n/a
266.1975	0.135	532395	keystroke_y	y	n/a
266.5725	0.15	533145	keystroke_Key.space	Key.space	n/a
267.1575	0.21	534315	keystroke_r	r	n/a
267.2925	0.12	534585	keystroke_e	e	n/a
267.5025	0.15	535005	keystroke_a	a	n/a
267.6975	0.165	535395	keystroke_c	c	n/a
267.8175	0.12	535635	keystroke_h	h	n/a
268.2675	0.24	536535	keystroke_i	i	n/a
268.4025	0.15	536805	keystroke_n	n	n/a
268.5375	0.135	537075	keystroke_g	g	n/a
268.7325	0.15	537465	keystroke_Key.space	Key.space	n/a
268.8525	0.135	537705	keystroke_t	t	n/a
269.0025	0.21	538005	keystroke_o	o	n/a
269.0925	0.165	538185	keystroke_n	n	n/a
269.2265	0.121	538453	keystroke_s	s	n/a
269.4525	0.135	538905	keystroke_Key.enter	Key.enter	n/a
269.5925	12.341	539185	prompt	n/a	socket possibilities would've baker\n
270.172	0.135	540344	keystroke_s	s	n/a
270.352	0.165	540704	keystroke_o	o	n/a
270.502	0.105	541004	keystroke_c	c	n/a
270.652	0.15	541304	keystroke_k	k	n/a
270.757	0.195	541514	keystroke_e	e	n/a
270.907	0.135	541814	keystroke_t	t	n/a
271.072	0.105	542144	keystroke_Key.space	Key.space	n/a
271.312	0.105	542624	keystroke_p	p	n/a
271.537	0.12	543074	keystroke_o	o	n/a
271.927	0.105	543854	keystroke_s	s	n/a
272.167	0.09	544334	keystroke_s	s	n/a
272.392	0.12	544784	keystroke_i	i	n/a
272.677	0.12	545354	keystroke_b	b	n/a
272.992	0.105	545984	keystroke_i	i	n/a
273.3215	0.105	546643	keystroke_l	l	n/a
273.9365	0.12	547873	keystroke_i	i	n/a
274.0415	0.105	548083	keystroke_t	t	n/a
274.1615	0.135	548323	keystroke_i	i	n/a
274.2515	0.165	548503	keystroke_e	e	n/a
274.3265	0.135	548653	keystroke_s	s	n/a
274.4465	0.1355	548893	keystroke_Key.space	Key.space	n/a
274.597	0.12	549194	keystroke_w	w	n/a
274.702	0.15	549404	keystroke_o	o	n/a
274.792	0.1355	549584	keystroke_u	u	n/a
275.032	0.09	550064	keystroke_l	l	n/a
275.123	0.119	550246	keystroke_d	d	n/a
275.572	0.165	551144	keystroke_v	v	n/a
276.097	0.105	552194	keystroke_e	e	n/a
276.412	0.06	552824	keystroke_Key.backspace	Key.backspace	n/a
276.547	0.045	553094	keystroke_Key.backspace	Key.backspace	n/a
278.092	0.09	556184	keystroke_'	'	n/a
279.832	0.18	559664	keystroke_v	v	n/a
280.132	0.135	560264	keystroke_e	e	n/a
280.268	0.149	560536	keystroke_Key.space	Key.space	n/a
280.687	0.135	561374	keystroke_b	b	n/a
280.897	0.135	561794	keystroke_a	a	n/a
281.152	0.09	562304	keystroke_k	k	n/a
281.317	0.195	562634	keystroke_e	e	n/a
281.437	0.165	562874	keystroke_r	r	n/a
281.812	0.12	563624	keystroke_Key.enter	Key.enter	n/a
281.937	10.257	563874	prompt	n/a	recycling moldova sought live\n
282.7725	0.15	565545	keystroke_r	r	n/a
282.8625	0.15	565725	keystroke_e	e	n/a
283.1475	0.15	566295	keystroke_c	c	n/a
283.3575	0.105	566715	keystroke_y	y	n/a
283.5525	0.12	567105	keystroke_c	c	n/a
283.7175	0.21	567435	keystroke_l	l	n/a
283.8375	0.24	567675	keystroke_i	i	n/a
284.0625	0.1195	568125	keystroke_g	g	n/a
284.8425	0.12	569685	keystroke_Key.backspace	Key.backspace	n/a
285.2475	0.12	570495	keystroke_n	n	n/a
285.4875	0.135	570975	keystroke_g	g	n/a
285.6075	0.135	571215	keystroke_Key.space	Key.space	n/a
285.9975	0.1195	571995	keystroke_m	m	n/a
286.432	0.1205	572864	keystroke_o	o	n/a
286.7175	0.1495	573435	keystroke_l	l	n/a
287.167	0.18	574334	keystroke_d	d	n/a
287.467	0.135	574934	keystroke_o	o	n/a
287.647	0.12	575294	keystroke_v	v	n/a
287.917	0.135	575834	keystroke_a	a	n/a
288.097	0.1655	576194	keystroke_Key.space	Key.space	n/a
288.2475	0.105	576495	keystroke_s	s	n/a
288.4275	0.225	576855	keystroke_o	o	n/a
288.5325	0.165	577065	keystroke_u	u	n/a
288.7425	0.105	577485	keystroke_g	g	n/a
288.9975	0.135	577995	keystroke_h	h	n/a
289.252	0.15	578504	keystroke_Key.space	Key.space	n/a
289.462	0.1645	578924	keystroke_l	l	n/a
289.8965	0.031	579793	keystroke_Key.backspace	Key.backspace	n/a
289.9425	0.045	579885	keystroke_Key.backspace	Key.backspace	n/a
290.1225	0.075	580245	keystroke_Key.backspace	Key.backspace	n/a
290.9625	0.12	581925	keystroke_h	h	n/a
291.1275	0.12	582255	keystroke_t	t	n/a
291.2625	0.135	582525	keystroke_Key.space	Key.space	n/a
291.5025	0.195	583005	keystroke_l	l	n/a
291.6075	0.135	583215	keystroke_i	i	n/a
291.6975	0.135	583395	keystroke_v	v	n/a
291.8775	0.135	583755	keystroke_e	e	n/a
292.0575	0.135	584115	keystroke_Key.enter	Key.enter	n/a
292.197	9.012	584394	prompt	n/a	memorial plains sources generated\n
294.1125	0.12	588225	keystroke_m	m	n/a
294.2775	0.135	588555	keystroke_e	e	n/a
294.3975	0.195	588795	keystroke_m	m	n/a
294.5325	0.195	589065	keystroke_o	o	n/a
295.177	0.12	590354	keystroke_r	r	n/a
295.432	0.12	590864	keystroke_i	i	n/a
295.567	0.1355	591134	keystroke_a	a	n/a
295.7175	0.225	591435	keystroke_l	l	n/a
295.8675	0.195	591735	keystroke_Key.space	Key.space	n/a
296.317	0.255	592634	keystroke_p	p	n/a
296.467	0.24	592934	keystroke_l	l	n/a
297.2775	0.135	594555	keystroke_a	a	n/a
297.4275	0.225	594855	keystroke_i	i	n/a
297.5625	0.195	595125	keystroke_n	n	n/a
297.8325	0.165	595665	keystroke_s	s	n/a
298.0125	0.165	596025	keystroke_Key.space	Key.space	n/a
298.1325	0.135	596265	keystroke_s	s	n/a
298.2825	0.27	596565	keystroke_o	o	n/a
298.4325	0.165	596865	keystroke_u	u	n/a
298.5675	0.105	597135	keystroke_r	r	n/a
298.8675	0.225	597735	keystroke_c	c	n/a
298.9875	0.165	597975	keystroke_e	e	n/a
299.0475	0.135	598095	keystroke_s	s	n/a
299.1665	0.196	598333	keystroke_Key.space	Key.space	n/a
299.3325	0.105	598665	keystroke_g	g	n/a
299.5275	0.105	599055	keystroke_e	e	n/a
299.7825	0.15	599565	keystroke_n	n	n/a
299.9175	0.165	599835	keystroke_e	e	n/a
300.0215	0.136	600043	keystroke_r	r	n/a
300.1875	0.135	600375	keystroke_a	a	n/a
300.4275	0.15	600855	keystroke_t	t	n/a
300.5475	0.225	601095	keystroke_e	e	n/a
300.7575	0.164	601515	keystroke_d	d	n/a
301.1925	0.015	602385	keystroke_Key.enter	Key.enter	n/a
301.2125	9.612	602425	prompt	n/a	maryland folk departments posts\n
302.302	0.135	604604	keystroke_a	a	n/a
302.437	0.165	604874	keystroke_r	r	n/a
302.617	0.15	605234	keystroke_y	y	n/a
303.307	0.09	606614	keystroke_Key.backspace	Key.backspace	n/a
303.472	0.075	606944	keystroke_Key.backspace	Key.backspace	n/a
303.832	0.09	607664	keystroke_Key.backspace	Key.backspace	n/a
304.3875	0.12	608775	keystroke_m	m	n/a
304.5225	0.1345	609045	keystroke_a	a	n/a
304.627	0.18	609254	keystroke_r	r	n/a
304.792	0.12	609584	keystroke_y	y	n/a
305.092	0.135	610184	keystroke_l	l	n/a
305.197	0.15	610394	keystroke_a	a	n/a
305.362	0.12	610724	keystroke_n	n	n/a
305.467	0.165	610934	keystroke_d	d	n/a
305.617	0.135	611234	keystroke_Key.space	Key.space	n/a
305.767	0.105	611534	keystroke_f	f	n/a
305.887	0.1205	611774	keystroke_o	o	n/a
306.142	0.105	612284	keystroke_l	l	n/a
306.442	0.12	612884	keystroke_k	k	n/a
306.8775	0.12	613755	keystroke_Key.space	Key.space	n/a
307.3725	0.135	614745	keystroke_d	d	n/a
307.6425	0.09	615285	keystroke_e	e	n/a
307.8525	0.12	615705	keystroke_p	p	n/a
307.9425	0.165	615885	keystroke_a	a	n/a
308.0625	0.15	616125	keystroke_r	r	n/a
308.3925	0.12	616785	keystroke_t	t	n/a
308.6175	0.135	617235	keystroke_m	m	n/a
308.7675	0.135	617535	keystroke_e	e	n/a
308.9175	0.135	617835	keystroke_n	n	n/a
309.0375	0.165	618075	keystroke_t	t	n/a
309.1425	0.165	618285	keystroke_s	s	n/a
309.2775	0.15	618555	keystroke_Key.space	Key.space	n/a
309.5175	0.255	619035	keystroke_p	p	n/a
309.6675	0.15	619335	keystroke_o	o	n/a
309.7575	0.255	619515	keystroke_s	s	n/a
309.9525	0.15	619905	keystroke_t	t	n/a
310.2225	0.135	620445	keystroke_s	s	n/a
310.6725	0.15	621345	keystroke_Key.enter	Key.enter	n/a
310.828	6.476	621656	prompt	n/a	frederick lending fails framed\n
311.407	0.135	622814	keystroke_f	f	n/a
311.662	0.15	623324	keystroke_r	r	n/a
311.752	0.165	623504	keystroke_e	e	n/a
312.5925	0.1495	625185	keystroke_d	d	n/a
312.952	0.165	625904	keystroke_e	e	n/a
313.042	0.165	626084	keystroke_r	r	n/a
313.252	0.15	626504	keystroke_i	i	n/a
313.432	0.12	626864	keystroke_c	c	n/a
313.567	0.165	627134	keystroke_k	k	n/a
313.687	0.195	627374	keystroke_Key.space	Key.space	n/a
313.852	0.15	627704	keystroke_l	l	n/a
313.957	0.135	627914	keystroke_e	e	n/a
314.137	0.15	628274	keystroke_n	n	n/a
314.242	0.135	628484	keystroke_d	d	n/a
314.407	0.21	628814	keystroke_i	i	n/a
314.527	0.15	629054	keystroke_n	n	n/a
314.647	0.135	629294	keystroke_g	g	n/a
314.797	0.135	629594	keystroke_Key.space	Key.space	n/a
315.0225	0.105	630045	keystroke_f	f	n/a
315.2175	0.135	630435	keystroke_a	a	n/a
315.4125	0.21	630825	keystroke_i	i	n/a
315.5175	0.18	631035	keystroke_l	l	n/a
315.6525	0.15	631305	keystroke_s	s	n/a
315.7875	0.15	631575	keystroke_Key.space	Key.space	n/a
315.9225	0.105	631845	keystroke_f	f	n/a
316.1925	0.075	632385	keystroke_r	r	n/a
316.3875	0.105	632775	keystroke_a	a	n/a
316.6125	0.135	633225	keystroke_m	m	n/a
316.7325	0.1495	633465	keystroke_e	e	n/a
316.837	0.15	633674	keystroke_d	d	n/a
317.137	0.165	634274	keystroke_Key.enter	Key.enter	n/a
317.307	7.6765	634614	prompt	n/a	hard retain seen psychological\n
317.977	0.12	635954	keystroke_h	h	n/a
318.082	0.15	636164	keystroke_a	a	n/a
318.202	0.15	636404	keystroke_r	r	n/a
318.6525	0.1495	637305	keystroke_d	d	n/a
318.952	0.1805	637904	keystroke_Key.space	Key.space	n/a
319.3275	0.165	638655	keystroke_r	r	n/a
319.4175	0.15	638835	keystroke_e	e	n/a
319.7475	0.09	639495	keystroke_t	t	n/a
319.8675	0.165	639735	keystroke_a	a	n/a
320.0175	0.255	640035	keystroke_i	i	n/a
320.1375	0.21	640275	keystroke_n	n	n/a
320.2575	0.18	640515	keystroke_Key.space	Key.space	n/a
320.4075	0.135	640815	keystroke_s	s	n/a
320.7375	0.1055	641475	keystroke_e	e	n/a
320.9475	0.075	641895	keystroke_e	e	n/a
321.1275	0.2245	642255	keystroke_n	n	n/a
321.277	0.135	642554	keystroke_Key.space	Key.space	n/a
321.517	0.1055	643034	keystroke_p	p	n/a
321.6525	0.12	643305	keystroke_s	s	n/a
321.937	0.12	643874	keystroke_y	y	n/a
322.177	0.1205	644354	keystroke_c	c	n/a
322.3275	0.12	644655	keystroke_h	h	n/a
322.5675	0.12	645135	keystroke_o	o	n/a
322.8075	0.075	645615	keystroke_l	l	n/a
323.0175	0.105	646035	keystroke_o	o	n/a
323.1525	0.09	646305	keystroke_g	g	n/a
323.3025	0.135	646605	keystroke_i	i	n/a
323.647	0.15	647294	keystroke_a	a	n/a
324.112	0.09	648224	keystroke_Key.backspace	Key.backspace	n/a
324.262	0.105	648524	keystroke_c	c	n/a
324.457	0.15	648914	keystroke_a	a	n/a
324.592	0.135	649184	keystroke_l	l	n/a
324.862	0.12	649724	keystroke_Key.enter	Key.enter	n/a
324.9865	8.2025	649973	prompt	n/a	incorporate cheque sticks team\n
325.822	0.27	651644	keystroke_i	i	n/a
325.987	0.1805	651974	keystroke_n	n	n/a
326.1825	0.165	652365	keystroke_c	c	n/a
326.632	0.135	653264	keystroke_o	o	n/a
326.842	0.105	653684	keystroke_r	r	n/a
327.307	0.18	654614	keystroke_p	p	n/a
327.412	0.18	654824	keystroke_o	o	n/a
327.502	0.1205	655004	keystroke_r	r	n/a
327.6825	0.12	655365	keystroke_a	a	n/a
327.8775	0.21	655755	keystroke_t	t	n/a
327.9975	0.18	655995	keystroke_e	e	n/a
328.1925	0.165	656385	keystroke_Key.space	Key.space	n/a
328.5225	0.165	657045	keystroke_c	c	n/a
328.8375	0.165	657675	keystroke_h	h	n/a
329.1225	0.105	658245	keystroke_e	e	n/a
329.4675	0.12	658935	keystroke_q	q	n/a
329.7375	0.105	659475	keystroke_u	u	n/a
330.0525	0.09	660105	keystroke_e	e	n/a
330.682	0.1505	661364	keystroke_Key.space	Key.space	n/a
330.9375	0.1045	661875	keystroke_s	s	n/a
331.207	0.09	662414	keystroke_t	t	n/a
331.312	0.135	662624	keystroke_i	i	n/a
331.477	0.135	662954	keystroke_c	c	n/a
331.627	0.12	663254	keystroke_k	k	n/a
331.762	0.105	663524	keystroke_s	s	n/a
331.882	0.15	663764	keystroke_Key.space	Key.space	n/a
332.077	0.15	664154	keystroke_t	t	n/a
332.242	0.105	664484	keystroke_e	e	n/a
332.437	0.12	664874	keystroke_a	a	n/a
332.632	0.12	665264	keystroke_m	m	n/a
333.067	0.1205	666134	keystroke_Key.enter	Key.enter	n/a
333.1915	6.522	666383	prompt	n/a	glasses maker dating fabulous\n
334.132	0.09	668264	keystroke_g	g	n/a
334.327	0.1505	668654	keystroke_l	l	n/a
334.4915	0.1055	668983	keystroke_a	a	n/a
334.747	0.105	669494	keystroke_s	s	n/a
334.957	0.1205	669914	keystroke_s	s	n/a
335.1825	0.09	670365	keystroke_e	e	n/a
335.3775	0.105	670755	keystroke_s	s	n/a
335.483	0.1795	670966	keystroke_Key.space	Key.space	n/a
335.7075	0.15	671415	keystroke_m	m	n/a
335.8425	0.12	671685	keystroke_a	a	n/a
336.0225	0.1345	672045	keystroke_k	k	n/a
336.172	0.15	672344	keystroke_e	e	n/a
336.262	0.135	672524	keystroke_r	r	n/a
336.427	0.15	672854	keystroke_Key.space	Key.space	n/a
336.622	0.165	673244	keystroke_d	d	n/a
336.802	0.135	673604	keystroke_a	a	n/a
337.0725	0.12	674145	keystroke_t	t	n/a
337.222	0.2555	674444	keystroke_i	i	n/a
337.3575	0.165	674715	keystroke_n	n	n/a
337.4775	0.12	674955	keystroke_g	g	n/a
337.6275	0.165	675255	keystroke_Key.space	Key.space	n/a
337.7775	0.135	675555	keystroke_f	f	n/a
337.9725	0.15	675945	keystroke_a	a	n/a
338.2125	0.165	676425	keystroke_b	b	n/a
338.4375	0.135	676875	keystroke_u	u	n/a
338.7375	0.0895	677475	keystroke_l	l	n/a
338.992	0.24	677984	keystroke_o	o	n/a
339.127	0.135	678254	keystroke_u	u	n/a
339.307	0.12	678614	keystroke_s	s	n/a
339.592	0.12	679184	keystroke_Key.enter	Key.enter	n/a
339.717	7.9465	679434	prompt	n/a	dice selecting indeed oakland\n
340.372	0.12	680744	keystroke_d	d	n/a
340.612	0.135	681224	keystroke_i	i	n/a
341.8425	0.135	683685	keystroke_c	c	n/a
342.2475	0.12	684495	keystroke_e	e	n/a
342.4425	0.15	684885	keystroke_Key.space	Key.space	n/a
342.5775	0.135	685155	keystroke_s	s	n/a
342.8175	0.09	685635	keystroke_e	e	n/a
342.9525	0.1505	685905	keystroke_l	l	n/a
343.058	0.135	686116	keystroke_e	e	n/a
343.313	0.135	686626	keystroke_c	c	n/a
343.733	0.105	687466	keystroke_t	t	n/a
343.928	0.2245	687856	keystroke_i	i	n/a
344.033	0.1645	688066	keystroke_n	n	n/a
344.1675	0.105	688335	keystroke_g	g	n/a
344.2875	0.18	688575	keystroke_Key.space	Key.space	n/a
344.4975	0.195	688995	keystroke_i	i	n/a
344.6025	0.18	689205	keystroke_n	n	n/a
344.7675	0.165	689535	keystroke_d	d	n/a
345.2775	0.09	690555	keystroke_e	e	n/a
345.4575	0.12	690915	keystroke_e	e	n/a
345.6975	0.135	691395	keystroke_d	d	n/a
345.9825	0.135	691965	keystroke_Key.space	Key.space	n/a
346.237	0.195	692474	keystroke_o	o	n/a
346.402	0.12	692804	keystroke_a	a	n/a
346.567	0.135	693134	keystroke_k	k	n/a
346.792	0.135	693584	keystroke_l	l	n/a
346.912	0.105	693824	keystroke_a	a	n/a
347.047	0.151	694094	keystroke_n	n	n/a
347.183	0.134	694366	keystroke_d	d	n/a
347.542	0.12	695084	keystroke_Key.enter	Key.enter	n/a
347.667	12.771	695334	prompt	n/a	society compound modification briefly\n
348.3975	0.135	696795	keystroke_s	s	n/a
348.5925	0.135	697185	keystroke_o	o	n/a
348.8325	0.135	697665	keystroke_c	c	n/a
349.2675	0.15	698535	keystroke_i	i	n/a
349.3725	0.165	698745	keystroke_e	e	n/a
349.5675	0.165	699135	keystroke_t	t	n/a
349.8975	0.105	699795	keystroke_y	y	n/a
350.1375	0.105	700275	keystroke_Key.space	Key.space	n/a
350.3175	0.12	700635	keystroke_c	c	n/a
350.4975	0.24	700995	keystroke_o	o	n/a
351.397	0.135	702794	keystroke_m	m	n/a
351.742	0.105	703484	keystroke_p	p	n/a
351.982	0.12	703964	keystroke_o	o	n/a
352.4025	0.075	704805	keystroke_y	y	n/a
353.0025	0.09	706005	keystroke_Key.backspace	Key.backspace	n/a
353.3475	0.105	706695	keystroke_u	u	n/a
353.7675	0.165	707535	keystroke_n	n	n/a
354.0225	0.1795	708045	keystroke_d	d	n/a
354.187	0.15	708374	keystroke_Key.space	Key.space	n/a
354.457	0.135	708914	keystroke_m	m	n/a
354.757	0.135	709514	keystroke_o	o	n/a
355.087	0.15	710174	keystroke_d	d	n/a
355.477	0.12	710954	keystroke_i	i	n/a
355.672	0.105	711344	keystroke_f	f	n/a
355.807	0.1185	711614	keystroke_i	i	n/a
355.911	0.148	711822	keystroke_c	c	n/a
356.103	0.148	712206	keystroke_a	a	n/a
356.3545	0.133	712709	keystroke_t	t	n/a
356.443	0.3255	712886	keystroke_i	i	n/a
356.532	0.222	713064	keystroke_o	o	n/a
356.739	0.1775	713478	keystroke_Key.space	Key.space	n/a
357.231	0.059	714462	keystroke_=	=	n/a
357.7405	0.118	715481	keystroke_Key.backspace	Key.backspace	n/a
357.977	0.08	715954	keystroke_Key.backspace	Key.backspace	n/a
358.3985	0.1045	716797	keystroke_n	n	n/a
358.686	0.148	717372	keystroke_Key.space	Key.space	n/a
358.9075	0.122	717815	keystroke_b	b	n/a
359.092	0.118	718184	keystroke_r	r	n/a
359.284	0.1035	718568	keystroke_i	i	n/a
359.358	0.168	718716	keystroke_e	e	n/a
359.6025	0.133	719205	keystroke_f	f	n/a
359.765	0.133	719530	keystroke_l	l	n/a
360.0075	0.1045	720015	keystroke_y	y	n/a
360.304	0.133	720608	keystroke_Key.enter	Key.enter	n/a
360.443	8.1885	720886	prompt	n/a	planners situated mainstream novelty\n
361.279	0.1325	722558	keystroke_p	p	n/a
361.4735	0.1675	722947	keystroke_l	l	n/a
361.7295	0.104	723459	keystroke_a	a	n/a
361.922	0.0945	723844	keystroke_n	n	n/a
362.1055	0.1185	724211	keystroke_n	n	n/a
362.1795	0.148	724359	keystroke_e	e	n/a
362.283	0.119	724566	keystroke_r	r	n/a
362.4825	0.148	724965	keystroke_s	s	n/a
362.6455	0.163	725291	keystroke_Key.space	Key.space	n/a
362.764	0.163	725528	keystroke_s	s	n/a
362.9435	0.093	725887	keystroke_i	i	n/a
363.0955	0.133	726191	keystroke_t	t	n/a
363.258	0.104	726516	keystroke_u	u	n/a
363.347	0.155	726694	keystroke_a	a	n/a
363.517	0.1775	727034	keystroke_t	t	n/a
363.665	0.163	727330	keystroke_e	e	n/a
363.8575	0.198	727715	keystroke_d	d	n/a
364.0405	0.133	728081	keystroke_Key.space	Key.space	n/a
364.292	0.1205	728584	keystroke_m	m	n/a
364.476	0.1335	728952	keystroke_a	a	n/a
364.6245	0.2515	729249	keystroke_i	i	n/a
364.7875	0.17	729575	keystroke_n	n	n/a
365.135	0.133	730270	keystroke_s	s	n/a
365.419	0.093	730838	keystroke_t	t	n/a
365.838	0.092	731676	keystroke_r	r	n/a
366.1695	0.1035	732339	keystroke_e	e	n/a
366.407	0.1095	732814	keystroke_a	a	n/a
366.576	0.1185	733152	keystroke_m	m	n/a
366.828	0.1395	733656	keystroke_Key.space	Key.space	n/a
367.1305	0.1045	734261	keystroke_n	n	n/a
367.3555	0.1515	734711	keystroke_o	o	n/a
367.522	0.1335	735044	keystroke_v	v	n/a
367.685	0.1495	735370	keystroke_e	e	n/a
367.897	0.1485	735794	keystroke_l	l	n/a
368.016	0.148	736032	keystroke_t	t	n/a
368.33	0.0925	736660	keystroke_y	y	n/a
368.4965	0.1335	736993	keystroke_Key.enter	Key.enter	n/a
368.634	6.9445	737268	prompt	n/a	sound container flyer notification\n
369.1985	0.138	738397	keystroke_s	s	n/a
369.32	0.211	738640	keystroke_o	o	n/a
369.442	0.1335	738884	keystroke_u	u	n/a
369.724	0.122	739448	keystroke_n	n	n/a
369.8295	0.1525	739659	keystroke_d	d	n/a
369.967	0.1485	739934	keystroke_Key.space	Key.space	n/a
370.145	0.1485	740290	keystroke_c	c	n/a
370.324	0.2115	740648	keystroke_o	o	n/a
370.4465	0.1485	740893	keystroke_n	n	n/a
370.6245	0.104	741249	keystroke_t	t	n/a
370.8335	0.1235	741667	keystroke_a	a	n/a
370.927	0.193	741854	keystroke_i	i	n/a
371.031	0.1485	742062	keystroke_n	n	n/a
371.1645	0.181	742329	keystroke_e	e	n/a
371.2535	0.184	742507	keystroke_r	r	n/a
371.4515	0.148	742903	keystroke_Key.space	Key.space	n/a
371.644	0.119	743288	keystroke_f	f	n/a
371.7935	0.1095	743587	keystroke_l	l	n/a
372.0955	0.119	744191	keystroke_y	y	n/a
372.259	0.168	744518	keystroke_e	e	n/a
372.3825	0.1635	744765	keystroke_r	r	n/a
372.531	0.1335	745062	keystroke_Key.space	Key.space	n/a
372.877	0.105	745754	keystroke_n	n	n/a
373.056	0.1485	746112	keystroke_o	o	n/a
373.2195	0.104	746439	keystroke_t	t	n/a
373.8475	0.0945	747695	keystroke_i	i	n/a
374.0605	0.105	748121	keystroke_f	f	n/a
374.2685	0.1205	748537	keystroke_i	i	n/a
374.329	0.1385	748658	keystroke_c	c	n/a
374.5565	0.1485	749113	keystroke_a	a	n/a
374.809	0.1055	749618	keystroke_t	t	n/a
374.8835	0.272	749767	keystroke_i	i	n/a
374.9625	0.2675	749925	keystroke_o	o	n/a
375.111	0.134	750222	keystroke_n	n	n/a
375.441	0.1355	750882	keystroke_Key.enter	Key.enter	n/a
375.581	9.0405	751162	prompt	n/a	horizontal presented addresses stud\n
376.477	0.045	752954	keystroke_h	h	n/a
376.67	0.119	753340	keystroke_o	o	n/a
377.001	0.1335	754002	keystroke_r	r	n/a
377.2385	0.119	754477	keystroke_i	i	n/a
378.127	0.1335	756254	keystroke_z	z	n/a
378.336	0.1815	756672	keystroke_o	o	n/a
378.458	0.1485	756916	keystroke_n	n	n/a
378.5915	0.0895	757183	keystroke_t	t	n/a
378.755	0.168	757510	keystroke_a	a	n/a
378.8785	0.223	757757	keystroke_l	l	n/a
379.027	0.163	758054	keystroke_Key.space	Key.space	n/a
379.309	0.138	758618	keystroke_p	p	n/a
379.4025	0.1785	758805	keystroke_r	r	n/a
379.5065	0.104	759013	keystroke_e	e	n/a
379.7445	0.1235	759489	keystroke_s	s	n/a
379.9875	0.059	759975	keystroke_e	e	n/a
380.121	0.1635	760242	keystroke_n	n	n/a
380.2695	0.1085	760539	keystroke_t	t	n/a
380.363	0.2085	760726	keystroke_e	e	n/a
380.5725	0.1475	761145	keystroke_d	d	n/a
380.7795	0.153	761559	keystroke_Key.space	Key.space	n/a
380.9475	0.119	761895	keystroke_a	a	n/a
381.413	0.1485	762826	keystroke_d	d	n/a
381.9825	0.134	763965	keystroke_d	d	n/a
382.2655	0.1375	764531	keystroke_r	r	n/a
382.34	0.138	764680	keystroke_e	e	n/a
382.6265	0.0895	765253	keystroke_s	s	n/a
382.8055	0.108	765611	keystroke_s	s	n/a
383.0475	0.0595	766095	keystroke_e	e	n/a
383.226	0.0895	766452	keystroke_s	s	n/a
383.363	0.1485	766726	keystroke_Key.space	Key.space	n/a
383.4375	0.104	766875	keystroke_s	s	n/a
383.6605	0.104	767321	keystroke_t	t	n/a
383.9015	0.045	767803	keystroke_u	u	n/a
384.184	0.119	768368	keystroke_d	d	n/a
384.486	0.134	768972	keystroke_Key.enter	Key.enter	n/a
384.624	8.6985	769248	prompt	n/a	purchased porsche contacts peoples\n
385.3255	0.211	770651	keystroke_p	p	n/a
385.462	0.134	770924	keystroke_u	u	n/a
385.5665	0.104	771133	keystroke_r	r	n/a
385.8825	0.119	771765	keystroke_c	c	n/a
386.0165	0.1195	772033	keystroke_h	h	n/a
386.1505	0.1195	772301	keystroke_a	a	n/a
386.225	0.183	772450	keystroke_s	s	n/a
386.512	0.1045	773024	keystroke_e	e	n/a
386.691	0.152	773382	keystroke_d	d	n/a
386.828	0.149	773656	keystroke_Key.space	Key.space	n/a
387.1555	0.1345	774311	keystroke_p	p	n/a
387.6655	0.121	775331	keystroke_o	o	n/a
387.908	0.119	775816	keystroke_r	r	n/a
388.2355	0.137	776471	keystroke_s	s	n/a
388.5065	0.134	777013	keystroke_c	c	n/a
388.6705	0.1215	777341	keystroke_h	h	n/a
388.8225	0.105	777645	keystroke_e	e	n/a
388.9125	0.164	777825	keystroke_Key.space	Key.space	n/a
389.1955	0.107	778391	keystroke_c	c	n/a
389.2715	0.195	778543	keystroke_o	o	n/a
389.4815	0.074	778963	keystroke_n	n	n/a
390.229	0.0925	780458	keystroke_t	t	n/a
390.4415	0.149	780883	keystroke_a	a	n/a
390.7395	0.125	781479	keystroke_c	c	n/a
391.073	0.0745	782146	keystroke_t	t	n/a
391.2515	0.1365	782503	keystroke_s	s	n/a
391.403	0.1195	782806	keystroke_Key.space	Key.space	n/a
391.597	0.134	783194	keystroke_p	p	n/a
391.732	0.092	783464	keystroke_e	e	n/a
391.8985	0.1935	783797	keystroke_o	o	n/a
392.077	0.3605	784154	keystroke_p	p	n/a
392.256	0.256	784512	keystroke_l	l	n/a
392.3925	0.0895	784785	keystroke_e	e	n/a
392.7205	0.1225	785441	keystroke_s	s	n/a
393.186	0.135	786372	keystroke_Key.enter	Key.enter	n/a
393.3255	10.4405	786651	prompt	n/a	notifications province mill unity\n
394.0135	0.2085	788027	keystroke_n	n	n/a
394.1475	0.15	788295	keystroke_o	o	n/a
394.252	0.1215	788504	keystroke_t	t	n/a
394.4925	0.1195	788985	keystroke_i	i	n/a
394.746	0.1065	789492	keystroke_f	f	n/a
394.927	0.1045	789854	keystroke_i	i	n/a
395.136	0.1635	790272	keystroke_c	c	n/a
395.5715	0.1335	791143	keystroke_a	a	n/a
395.8265	0.1065	791653	keystroke_t	t	n/a
395.9335	0.223	791867	keystroke_i	i	n/a
395.9925	0.21	791985	keystroke_o	o	n/a
396.067	0.149	792134	keystroke_n	n	n/a
396.1865	0.137	792373	keystroke_s	s	n/a
396.3085	0.1495	792617	keystroke_Key.space	Key.space	n/a
396.562	0.1345	793124	keystroke_p	p	n/a
396.6815	0.122	793363	keystroke_r	r	n/a
396.908	0.1195	793816	keystroke_o	o	n/a
397.1765	0.059	794353	keystroke_b	b	n/a
398.24	0.061	796480	keystroke_Key.backspace	Key.backspace	n/a
399.368	0.1195	798736	keystroke_v	v	n/a
400.448	0.134	800896	keystroke_i	i	n/a
400.5675	0.1345	801135	keystroke_n	n	n/a
400.7335	0.179	801467	keystroke_c	c	n/a
400.838	0.194	801676	keystroke_e	e	n/a
400.987	0.1495	801974	keystroke_Key.space	Key.space	n/a
401.258	0.1195	802516	keystroke_m	m	n/a
401.527	0.119	803054	keystroke_i	i	n/a
401.798	0.0755	803596	keystroke_l	l	n/a
401.963	0.0895	803926	keystroke_l	l	n/a
402.233	0.1195	804466	keystroke_Key.space	Key.space	n/a
402.427	0.1195	804854	keystroke_u	u	n/a
402.713	0.1055	805426	keystroke_n	n	n/a
402.938	0.1195	805876	keystroke_i	i	n/a
403.0725	0.1215	806145	keystroke_t	t	n/a
403.388	0.0895	806776	keystroke_y	y	n/a
403.612	0.152	807224	keystroke_Key.enter	Key.enter	n/a
403.769	11.3965	807538	prompt	n/a	competitions lauderdale pursuant fight\n
404.6335	0.1195	809267	keystroke_c	c	n/a
404.8725	0.209	809745	keystroke_o	o	n/a
405.233	0.1195	810466	keystroke_p	p	n/a
405.6525	0.076	811305	keystroke_Key.backspace	Key.backspace	n/a
405.9525	0.1195	811905	keystroke_m	m	n/a
406.3285	0.1195	812657	keystroke_p	p	n/a
406.4925	0.1495	812985	keystroke_e	e	n/a
406.7785	0.1495	813557	keystroke_t	t	n/a
406.973	0.1195	813946	keystroke_i	i	n/a
407.139	0.135	814278	keystroke_t	t	n/a
407.274	0.179	814548	keystroke_i	i	n/a
407.3335	0.224	814667	keystroke_o	o	n/a
407.438	0.1495	814876	keystroke_n	n	n/a
407.5725	0.151	815145	keystroke_s	s	n/a
407.7385	0.1495	815477	keystroke_Key.space	Key.space	n/a
408.038	0.1365	816076	keystroke_l	l	n/a
408.1895	0.1345	816379	keystroke_a	a	n/a
408.4585	0.135	816917	keystroke_u	u	n/a
408.5775	0.1205	817155	keystroke_d	d	n/a
408.7425	0.1795	817485	keystroke_e	e	n/a
408.877	0.1195	817754	keystroke_r	r	n/a
409.1005	0.1675	818201	keystroke_d	d	n/a
409.2235	0.164	818447	keystroke_a	a	n/a
409.358	0.1045	818716	keystroke_l	l	n/a
409.5075	0.1075	819015	keystroke_e	e	n/a
409.6445	0.1345	819289	keystroke_Key.space	Key.space	n/a
409.8685	0.1945	819737	keystroke_p	p	n/a
410.259	0.0895	820518	keystroke_u	u	n/a
410.7395	0.0145	821479	keystroke_r	r	n/a
411.1745	0.134	822349	keystroke_s	s	n/a
411.6685	0.1345	823337	keystroke_a	a	n/a
412.268	0.1045	824536	keystroke_Key.backspace	Key.backspace	n/a
412.8225	0.105	825645	keystroke_u	u	n/a
413.049	0.091	826098	keystroke_a	a	n/a
413.1995	0.1345	826399	keystroke_n	n	n/a
413.364	0.165	826728	keystroke_t	t	n/a
413.544	0.135	827088	keystroke_Key.space	Key.space	n/a
413.769	0.1345	827538	keystroke_f	f	n/a
413.9185	0.151	827837	keystroke_i	i	n/a
414.114	0.12	828228	keystroke_g	g	n/a
414.249	0.1195	828498	keystroke_h	h	n/a
414.3985	0.121	828797	keystroke_t	t	n/a
415.0295	0.1345	830059	keystroke_Key.enter	Key.enter	n/a
415.1685	6.432	830337	prompt	n/a	ain't commonly rising void\n
415.7925	0.1345	831585	keystroke_a	a	n/a
416.003	0.285	832006	keystroke_i	i	n/a
416.198	0.165	832396	keystroke_n	n	n/a
416.6635	0.0895	833327	keystroke_'	'	n/a
416.977	0.1215	833954	keystroke_t	t	n/a
417.3235	0.166	834647	keystroke_Key.space	Key.space	n/a
417.5045	0.12	835009	keystroke_c	c	n/a
417.7885	0.105	835577	keystroke_o	o	n/a
418.0435	0.075	836087	keystroke_m	m	n/a
418.223	0.09	836446	keystroke_m	m	n/a
418.314	0.2995	836628	keystroke_o	o	n/a
418.539	0.1495	837078	keystroke_n	n	n/a
418.8825	0.0755	837765	keystroke_l	l	n/a
419.093	0.2235	838186	keystroke_y	y	n/a
419.2865	0.1675	838573	keystroke_Key.space	Key.space	n/a
419.529	0.1495	839058	keystroke_r	r	n/a
419.738	0.1345	839476	keystroke_i	i	n/a
419.964	0.149	839928	keystroke_s	s	n/a
420.158	0.1945	840316	keystroke_i	i	n/a
420.263	0.1345	840526	keystroke_n	n	n/a
420.4125	0.1205	840825	keystroke_g	g	n/a
420.5035	0.1495	841007	keystroke_Key.space	Key.space	n/a
420.728	0.0895	841456	keystroke_v	v	n/a
421.0585	0.2095	842117	keystroke_o	o	n/a
421.1485	0.1495	842297	keystroke_i	i	n/a
421.283	0.105	842566	keystroke_d	d	n/a
421.479	0.12	842958	keystroke_Key.enter	Key.enter	n/a
421.604	6.357	843208	prompt	n/a	suites reserve hardware banner\n
422.454	0.1505	844908	keystroke_s	s	n/a
422.798	0.242	845596	keystroke_u	u	n/a
422.9495	0.1945	845899	keystroke_i	i	n/a
423.025	0.165	846050	keystroke_t	t	n/a
423.13	0.1945	846260	keystroke_e	e	n/a
423.2345	0.1795	846469	keystroke_s	s	n/a
423.429	0.18	846858	keystroke_Key.space	Key.space	n/a
423.625	0.1645	847250	keystroke_r	r	n/a
423.6995	0.135	847399	keystroke_e	e	n/a
423.954	0.12	847908	keystroke_s	s	n/a
424.2235	0.105	848447	keystroke_e	e	n/a
424.2685	0.1345	848537	keystroke_r	r	n/a
424.614	0.075	849228	keystroke_v	v	n/a
424.8995	0.105	849799	keystroke_e	e	n/a
425.034	0.195	850068	keystroke_Key.space	Key.space	n/a
425.214	0.1345	850428	keystroke_h	h	n/a
425.29	0.164	850580	keystroke_a	a	n/a
425.424	0.105	850848	keystroke_r	r	n/a
425.649	0.1355	851298	keystroke_d	d	n/a
425.919	0.1655	851838	keystroke_w	w	n/a
425.9945	0.1495	851989	keystroke_a	a	n/a
426.264	0.135	852528	keystroke_r	r	n/a
426.339	0.1345	852678	keystroke_e	e	n/a
426.4885	0.18	852977	keystroke_Key.space	Key.space	n/a
426.7285	0.1195	853457	keystroke_b	b	n/a
426.848	0.1065	853696	keystroke_a	a	n/a
427.0445	0.09	854089	keystroke_n	n	n/a
427.1645	0.1195	854329	keystroke_n	n	n/a
427.554	0.166	855108	keystroke_e	e	n/a
427.644	0.12	855288	keystroke_r	r	n/a
427.8085	0.151	855617	keystroke_Key.enter	Key.enter	n/a
427.9655	9.536	855931	prompt	n/a	richardson studying wallpapers distinguished\n
428.784	0.1055	857568	keystroke_r	r	n/a
428.979	0.12	857958	keystroke_i	i	n/a
429.1	0.119	858200	keystroke_c	c	n/a
429.234	0.1345	858468	keystroke_h	h	n/a
429.3535	0.1355	858707	keystroke_a	a	n/a
429.459	0.12	858918	keystroke_r	r	n/a
429.7135	0.121	859427	keystroke_d	d	n/a
430.2985	0.12	860597	keystroke_s	s	n/a
430.6135	0.2865	861227	keystroke_o	o	n/a
430.7485	0.256	861497	keystroke_n	n	n/a
430.9	0.1795	861800	keystroke_Key.space	Key.space	n/a
431.275	0.1345	862550	keystroke_s	s	n/a
431.619	0.105	863238	keystroke_t	t	n/a
431.769	0.091	863538	keystroke_u	u	n/a
431.89	0.1345	863780	keystroke_d	d	n/a
432.0095	0.09	864019	keystroke_y	y	n/a
432.2635	0.2255	864527	keystroke_i	i	n/a
432.3695	0.1645	864739	keystroke_n	n	n/a
432.549	0.12	865098	keystroke_g	g	n/a
432.6985	0.1505	865397	keystroke_Key.space	Key.space	n/a
432.834	0.195	865668	keystroke_w	w	n/a
432.954	0.18	865908	keystroke_a	a	n/a
433.179	0.06	866358	keystroke_l	l	n/a
433.345	0.075	866690	keystroke_l	l	n/a
433.6	0.105	867200	keystroke_p	p	n/a
433.78	0.12	867560	keystroke_a	a	n/a
433.915	0.1045	867830	keystroke_p	p	n/a
434.05	0.1345	868100	keystroke_e	e	n/a
434.1395	0.1205	868279	keystroke_r	r	n/a
434.3945	0.1355	868789	keystroke_s	s	n/a
434.6195	0.1355	869239	keystroke_Key.space	Key.space	n/a
434.92	0.1345	869840	keystroke_d	d	n/a
435.2045	0.1205	870409	keystroke_i	i	n/a
435.3995	0.12	870799	keystroke_s	s	n/a
435.6695	0.1205	871339	keystroke_t	t	n/a
435.805	0.2095	871610	keystroke_i	i	n/a
435.955	0.1645	871910	keystroke_n	n	n/a
436.1955	0.105	872391	keystroke_g	g	n/a
436.3905	0.2095	872781	keystroke_u	u	n/a
436.51	0.1495	873020	keystroke_i	i	n/a
436.6595	0.15	873319	keystroke_s	s	n/a
436.8245	0.12	873649	keystroke_h	h	n/a
436.9745	0.1645	873949	keystroke_e	e	n/a
437.0645	0.1655	874129	keystroke_d	d	n/a
437.365	0.135	874730	keystroke_Key.enter	Key.enter	n/a
437.5045	11.9375	875009	prompt	n/a	hawaiian exempt teenage varying\n
438.2045	0.045	876409	keystroke_w	w	n/a
438.6545	0.106	877309	keystroke_=	=	n/a
439.195	0.075	878390	keystroke_Key.backspace	Key.backspace	n/a
439.825	0.135	879650	keystroke_Key.backspace	Key.backspace	n/a
440.2305	0.12	880461	keystroke_h	h	n/a
440.5155	0.105	881031	keystroke_a	a	n/a
440.8905	0.12	881781	keystroke_w	w	n/a
441.265	0.135	882530	keystroke_a	a	n/a
441.565	0.06	883130	keystroke_i	i	n/a
441.7155	0.119	883431	keystroke_i	i	n/a
441.8795	0.121	883759	keystroke_a	a	n/a
442.0155	0.1945	884031	keystroke_n	n	n/a
442.135	0.18	884270	keystroke_Key.space	Key.space	n/a
442.255	0.12	884510	keystroke_e	e	n/a
442.5995	0.165	885199	keystroke_x	x	n/a
442.989	0.1655	885978	keystroke_e	e	n/a
443.3645	0.135	886729	keystroke_m	m	n/a
443.6045	0.15	887209	keystroke_p	p	n/a
443.7995	0.12	887599	keystroke_t	t	n/a
443.949	0.1505	887898	keystroke_Key.space	Key.space	n/a
444.0995	0.12	888199	keystroke_t	t	n/a
444.3095	0.09	888619	keystroke_e	e	n/a
444.715	0.1195	889430	keystroke_e	e	n/a
445.0745	0.15	890149	keystroke_n	n	n/a
445.3595	0.105	890719	keystroke_a	a	n/a
445.6	0.09	891200	keystroke_g	g	n/a
445.825	0.1195	891650	keystroke_e	e	n/a
445.9745	0.165	891949	keystroke_Key.space	Key.space	n/a
446.1545	0.105	892309	keystroke_v	v	n/a
446.4095	0.135	892819	keystroke_a	a	n/a
446.6645	0.12	893329	keystroke_r	r	n/a
446.9045	0.03	893809	keystroke_t	t	n/a
447.67	0.075	895340	keystroke_Key.backspace	Key.backspace	n/a
448.405	0.106	896810	keystroke_y	y	n/a
448.661	0.135	897322	keystroke_i	i	n/a
448.871	0.1345	897742	keystroke_n	n	n/a
449.0505	0.12	898101	keystroke_g	g	n/a
449.2905	0.15	898581	keystroke_Key.enter	Key.enter	n/a
449.448	6.264	898896	prompt	n/a	casa sold targets stainless\n
450.1	0.12	900200	keystroke_c	c	n/a
450.325	0.1355	900650	keystroke_a	a	n/a
450.5355	0.12	901071	keystroke_s	s	n/a
450.7005	0.135	901401	keystroke_a	a	n/a
450.8505	0.1645	901701	keystroke_Key.space	Key.space	n/a
451.03	0.105	902060	keystroke_s	s	n/a
451.2395	0.1195	902479	keystroke_o	o	n/a
451.494	0.135	902988	keystroke_l	l	n/a
451.704	0.135	903408	keystroke_d	d	n/a
451.84	0.15	903680	keystroke_Key.space	Key.space	n/a
452.0355	0.0895	904071	keystroke_t	t	n/a
452.245	0.1495	904490	keystroke_a	a	n/a
452.4245	0.1205	904849	keystroke_r	r	n/a
452.68	0.091	905360	keystroke_g	g	n/a
452.8605	0.181	905721	keystroke_e	e	n/a
452.9805	0.1355	905961	keystroke_t	t	n/a
453.236	0.135	906472	keystroke_s	s	n/a
453.386	0.1345	906772	keystroke_Key.space	Key.space	n/a
453.491	0.09	906982	keystroke_s	s	n/a
453.716	0.0595	907432	keystroke_t	t	n/a
453.8505	0.1505	907701	keystroke_a	a	n/a
453.9855	0.2255	907971	keystroke_i	i	n/a
454.121	0.18	908242	keystroke_n	n	n/a
454.675	0.135	909350	keystroke_l	l	n/a
454.84	0.166	909680	keystroke_e	e	n/a
455.021	0.135	910042	keystroke_s	s	n/a
455.336	0.09	910672	keystroke_s	s	n/a
455.546	0.165	911092	keystroke_Key.enter	Key.enter	n/a
455.715	9.5075	911430	prompt	n/a	diffs infants occurrence direct\n
456.461	0.119	912922	keystroke_d	d	n/a
456.626	0.149	913252	keystroke_i	i	n/a
456.9265	0.0745	913853	keystroke_f	f	n/a
457.136	0.06	914272	keystroke_f	f	n/a
457.346	0.12	914692	keystroke_s	s	n/a
457.481	0.15	914962	keystroke_Key.space	Key.space	n/a
457.661	0.255	915322	keystroke_i	i	n/a
457.826	0.18	915652	keystroke_n	n	n/a
457.991	0.09	915982	keystroke_f	f	n/a
458.156	0.134	916312	keystroke_a	a	n/a
458.32	0.12	916640	keystroke_n	n	n/a
458.485	0.12	916970	keystroke_t	t	n/a
458.62	0.151	917240	keystroke_s	s	n/a
458.785	0.135	917570	keystroke_Key.space	Key.space	n/a
458.981	0.119	917962	keystroke_o	o	n/a
459.175	0.1055	918350	keystroke_c	c	n/a
459.4015	0.074	918803	keystroke_c	c	n/a
459.6715	0.119	919343	keystroke_u	u	n/a
459.805	0.2095	919610	keystroke_r	r	n/a
459.9395	0.135	919879	keystroke_e	e	n/a
462.973	0.043	925946	keystroke_Key.backspace	Key.backspace	n/a
463.196	0.09	926392	keystroke_r	r	n/a
463.406	0.1355	926812	keystroke_e	e	n/a
463.5265	0.149	927053	keystroke_n	n	n/a
463.6905	0.15	927381	keystroke_c	c	n/a
463.7805	0.135	927561	keystroke_e	e	n/a
463.8705	0.1645	927741	keystroke_Key.space	Key.space	n/a
464.02	0.12	928040	keystroke_d	d	n/a
464.155	0.1055	928310	keystroke_i	i	n/a
464.3055	0.135	928611	keystroke_r	r	n/a
464.3955	0.136	928791	keystroke_e	e	n/a
464.6505	0.1045	929301	keystroke_c	c	n/a
464.9055	0.12	929811	keystroke_t	t	n/a
465.0855	0.135	930171	keystroke_Key.enter	Key.enter	n/a
465.225	7.003	930450	prompt	n/a	hans integrity hyundai russian\n
465.881	0.12	931762	keystroke_h	h	n/a
466.016	0.105	932032	keystroke_a	a	n/a
466.15	0.15	932300	keystroke_n	n	n/a
466.285	0.18	932570	keystroke_d	d	n/a
466.3905	0.1345	932781	keystroke_s	s	n/a
466.48	0.15	932960	keystroke_Key.space	Key.space	n/a
466.66	0.225	933320	keystroke_i	i	n/a
466.795	0.165	933590	keystroke_n	n	n/a
466.945	0.1345	933890	keystroke_t	t	n/a
467.0195	0.1505	934039	keystroke_e	e	n/a
467.8005	0.105	935601	keystroke_g	g	n/a
468.0855	0.12	936171	keystroke_r	r	n/a
468.326	0.1195	936652	keystroke_i	i	n/a
468.4765	0.1345	936953	keystroke_t	t	n/a
468.7755	0.06	937551	keystroke_y	y	n/a
468.8805	0.165	937761	keystroke_Key.space	Key.space	n/a
469.1355	0.12	938271	keystroke_h	h	n/a
469.4065	0.1045	938813	keystroke_y	y	n/a
469.676	0.09	939352	keystroke_u	u	n/a
469.9305	0.12	939861	keystroke_n	n	n/a
470.0355	0.165	940071	keystroke_d	d	n/a
470.1705	0.135	940341	keystroke_a	a	n/a
470.2305	0.21	940461	keystroke_i	i	n/a
470.3505	0.21	940701	keystroke_Key.space	Key.space	n/a
470.5755	0.12	941151	keystroke_r	r	n/a
470.786	0.0905	941572	keystroke_u	u	n/a
471.1315	0.09	942263	keystroke_s	s	n/a
471.3265	0.075	942653	keystroke_s	s	n/a
471.4315	0.135	942863	keystroke_i	i	n/a
471.5965	0.105	943193	keystroke_a	a	n/a
471.7615	0.134	943523	keystroke_n	n	n/a
472.091	0.1355	944182	keystroke_Key.enter	Key.enter	n/a
472.2315	4.707	944463	prompt	n/a	poland chip skirt high\n
472.84	0.2255	945680	keystroke_p	p	n/a
472.99	0.1505	945980	keystroke_o	o	n/a
473.2455	0.105	946491	keystroke_l	l	n/a
473.3205	0.15	946641	keystroke_a	a	n/a
473.4855	0.12	946971	keystroke_n	n	n/a
473.6505	0.12	947301	keystroke_d	d	n/a
473.8005	0.135	947601	keystroke_Key.space	Key.space	n/a
474.0105	0.15	948021	keystroke_c	c	n/a
474.1455	0.1055	948291	keystroke_h	h	n/a
474.3705	0.2545	948741	keystroke_i	i	n/a
474.5355	0.2095	949071	keystroke_p	p	n/a
474.715	0.21	949430	keystroke_Key.space	Key.space	n/a
475.1365	0.1495	950273	keystroke_s	s	n/a
475.3765	0.135	950753	keystroke_k	k	n/a
475.617	0.12	951234	keystroke_i	i	n/a
475.677	0.09	951354	keystroke_r	r	n/a
475.886	0.106	951772	keystroke_t	t	n/a
476.006	0.135	952012	keystroke_Key.space	Key.space	n/a
476.187	0.21	952374	keystroke_h	h	n/a
476.306	0.151	952612	keystroke_i	i	n/a
476.442	0.1345	952884	keystroke_g	g	n/a
476.5625	0.09	953125	keystroke_h	h	n/a
476.786	0.15	953572	keystroke_Key.enter	Key.enter	n/a
476.9425	5.6055	953885	prompt	n/a	combine discounted alex tonight\n
477.581	0.1205	955162	keystroke_c	c	n/a
477.6855	0.1945	955371	keystroke_o	o	n/a
477.79	0.105	955580	keystroke_m	m	n/a
478.0605	0.09	956121	keystroke_b	b	n/a
478.2855	0.165	956571	keystroke_i	i	n/a
478.3755	0.135	956751	keystroke_n	n	n/a
478.4805	0.1355	956961	keystroke_e	e	n/a
478.601	0.1495	957202	keystroke_Key.space	Key.space	n/a
478.7355	0.135	957471	keystroke_d	d	n/a
478.9155	0.12	957831	keystroke_i	i	n/a
479.1555	0.1195	958311	keystroke_s	s	n/a
479.335	0.135	958670	keystroke_c	c	n/a
479.44	0.1805	958880	keystroke_o	o	n/a
479.515	0.1205	959030	keystroke_u	u	n/a
479.7865	0.105	959573	keystroke_n	n	n/a
479.8615	0.105	959723	keystroke_t	t	n/a
479.9675	0.209	959935	keystroke_e	e	n/a
480.1165	0.149	960233	keystroke_d	d	n/a
480.2505	0.15	960501	keystroke_Key.space	Key.space	n/a
480.3555	0.12	960711	keystroke_a	a	n/a
480.5055	0.1355	961011	keystroke_l	l	n/a
480.5955	0.1055	961191	keystroke_e	e	n/a
480.836	0.1505	961672	keystroke_x	x	n/a
481.0315	0.1505	962063	keystroke_Key.space	Key.space	n/a
481.197	0.1195	962394	keystroke_t	t	n/a
481.3315	0.1495	962663	keystroke_o	o	n/a
481.482	0.269	962964	keystroke_n	n	n/a
481.6615	0.1645	963323	keystroke_i	i	n/a
481.841	0.12	963682	keystroke_g	g	n/a
481.976	0.165	963952	keystroke_h	h	n/a
482.126	0.135	964252	keystroke_t	t	n/a
482.426	0.12	964852	keystroke_Key.enter	Key.enter	n/a
482.551	9.8365	965102	prompt	n/a	says message hunter fiber\n
483.266	0.15	966532	keystroke_s	s	n/a
483.431	0.165	966862	keystroke_a	a	n/a
483.656	0.12	967312	keystroke_t	t	n/a
483.821	0.135	967642	keystroke_s	s	n/a
483.911	0.18	967822	keystroke_Key.space	Key.space	n/a
484.271	0.105	968542	keystroke_e	e	n/a
485.0965	0.0755	970193	keystroke_Key.backspace	Key.backspace	n/a
485.277	0.074	970554	keystroke_Key.backspace	Key.backspace	n/a
485.456	0.075	970912	keystroke_Key.backspace	Key.backspace	n/a
485.8605	0.0455	971721	keystroke_Key.backspace	Key.backspace	n/a
486.206	0.1055	972412	keystroke_t	t	n/a
486.4315	0.1355	972863	keystroke_s	s	n/a
486.5365	0.1355	973073	keystroke_Key.space	Key.space	n/a
486.972	0.03	973944	keystroke_Key.backspace	Key.backspace	n/a
487.092	0.045	974184	keystroke_Key.backspace	Key.backspace	n/a
487.1825	0.0745	974365	keystroke_Key.backspace	Key.backspace	n/a
488.0355	0.09	976071	keystroke_y	y	n/a
488.2905	0.135	976581	keystroke_s	s	n/a
488.3955	0.12	976791	keystroke_Key.space	Key.space	n/a
488.6205	0.1205	977241	keystroke_m	m	n/a
488.771	0.119	977542	keystroke_e	e	n/a
489.041	0.075	978082	keystroke_s	s	n/a
489.221	0.1505	978442	keystroke_s	s	n/a
489.897	0.1345	979794	keystroke_a	a	n/a
490.2265	0.104	980453	keystroke_g	g	n/a
490.4355	0.1205	980871	keystroke_e	e	n/a
490.526	0.225	981052	keystroke_Key.space	Key.space	n/a
490.706	0.24	981412	keystroke_h	h	n/a
490.856	0.1805	981712	keystroke_u	u	n/a
491.1415	0.135	982283	keystroke_n	n	n/a
491.2615	0.075	982523	keystroke_t	t	n/a
491.3665	0.1805	982733	keystroke_e	e	n/a
491.4715	0.1055	982943	keystroke_r	r	n/a
491.562	0.135	983124	keystroke_Key.space	Key.space	n/a
491.712	0.1045	983424	keystroke_f	f	n/a
491.8315	0.2255	983663	keystroke_i	i	n/a
491.952	0.165	983904	keystroke_b	b	n/a
492.072	0.12	984144	keystroke_e	e	n/a
492.132	0.1185	984264	keystroke_r	r	n/a
492.2655	0.12	984531	keystroke_Key.enter	Key.enter	n/a
492.3905	5.954	984781	prompt	n/a	queen libraries topic reduction\n
493.0915	0.1195	986183	keystroke_q	q	n/a
493.2855	0.12	986571	keystroke_u	u	n/a
493.4655	0.075	986931	keystroke_e	e	n/a
493.676	0.09	987352	keystroke_e	e	n/a
493.8265	0.105	987653	keystroke_n	n	n/a
493.9015	0.1805	987803	keystroke_Key.space	Key.space	n/a
494.2025	0.104	988405	keystroke_l	l	n/a
494.4265	0.105	988853	keystroke_i	i	n/a
494.697	0.1035	989394	keystroke_b	b	n/a
494.8155	0.15	989631	keystroke_r	r	n/a
494.9355	0.181	989871	keystroke_a	a	n/a
495.3575	0.06	990715	keystroke_r	r	n/a
495.4925	0.12	990985	keystroke_i	i	n/a
495.568	0.224	991136	keystroke_e	e	n/a
495.673	0.149	991346	keystroke_s	s	n/a
495.777	0.1505	991554	keystroke_Key.space	Key.space	n/a
495.9425	0.12	991885	keystroke_t	t	n/a
496.0325	0.1645	992065	keystroke_o	o	n/a
496.1225	0.1795	992245	keystroke_p	p	n/a
496.317	0.1505	992634	keystroke_i	i	n/a
496.4675	0.135	992935	keystroke_c	c	n/a
496.6025	0.134	993205	keystroke_Key.space	Key.space	n/a
496.7665	0.1505	993533	keystroke_r	r	n/a
496.872	0.1505	993744	keystroke_e	e	n/a
497.0825	0.1495	994165	keystroke_d	d	n/a
497.247	0.075	994494	keystroke_u	u	n/a
497.352	0.105	994704	keystroke_c	c	n/a
497.6375	0.12	995275	keystroke_t	t	n/a
497.742	0.2705	995484	keystroke_i	i	n/a
497.8175	0.21	995635	keystroke_o	o	n/a
497.9375	0.1655	995875	keystroke_n	n	n/a
498.207	0.1355	996414	keystroke_Key.enter	Key.enter	n/a
498.347	8.847	996694	prompt	n/a	why's guyana legitimate rocket\n
499.123	0.1345	998246	keystroke_w	w	n/a
499.2725	0.105	998545	keystroke_h	h	n/a
499.513	0.075	999026	keystroke_y	y	n/a
499.797	0.1055	999594	keystroke_'	'	n/a
499.9925	0.1345	999985	keystroke_s	s	n/a
500.232	0.1355	1000464	keystroke_Key.space	Key.space	n/a
500.6365	0.0755	1001273	keystroke_g	g	n/a
501.671	0.09	1003342	keystroke_u	u	n/a
502.1525	0.1205	1004305	keystroke_y	y	n/a
502.6325	0.105	1005265	keystroke_a	a	n/a
502.7825	0.1355	1005565	keystroke_n	n	n/a
502.933	0.12	1005866	keystroke_a	a	n/a
503.0835	0.149	1006167	keystroke_Key.space	Key.space	n/a
503.2925	0.1355	1006585	keystroke_l	l	n/a
503.383	0.1055	1006766	keystroke_e	e	n/a
503.698	0.1045	1007396	keystroke_g	g	n/a
504.1775	0.1355	1008355	keystroke_i	i	n/a
504.7325	0.09	1009465	keystroke_t	t	n/a
505.092	0.12	1010184	keystroke_i	i	n/a
505.362	0.1505	1010724	keystroke_m	m	n/a
505.4975	0.1045	1010995	keystroke_a	a	n/a
505.692	0.1655	1011384	keystroke_t	t	n/a
505.7975	0.135	1011595	keystroke_e	e	n/a
505.9175	0.149	1011835	keystroke_Key.space	Key.space	n/a
506.0525	0.119	1012105	keystroke_r	r	n/a
506.1565	0.1505	1012313	keystroke_o	o	n/a
506.367	0.1055	1012734	keystroke_c	c	n/a
506.487	0.135	1012974	keystroke_k	k	n/a
506.7125	0.15	1013425	keystroke_e	e	n/a
506.8325	0.1355	1013665	keystroke_t	t	n/a
507.057	0.1355	1014114	keystroke_Key.enter	Key.enter	n/a
507.197	7.407	1014394	prompt	n/a	went powered collins integration\n
507.943	0.1795	1015886	keystroke_w	w	n/a
508.0325	0.165	1016065	keystroke_e	e	n/a
508.1975	0.1205	1016395	keystroke_n	n	n/a
508.333	0.1345	1016666	keystroke_t	t	n/a
508.423	0.1195	1016846	keystroke_Key.space	Key.space	n/a
508.6325	0.2255	1017265	keystroke_p	p	n/a
508.783	0.135	1017566	keystroke_o	o	n/a
508.933	0.149	1017866	keystroke_w	w	n/a
509.0065	0.1505	1018013	keystroke_e	e	n/a
509.3215	0.1355	1018643	keystroke_r	r	n/a
509.427	0.21	1018854	keystroke_e	e	n/a
509.607	0.15	1019214	keystroke_d	d	n/a
509.787	0.1355	1019574	keystroke_Key.space	Key.space	n/a
510.042	0.12	1020084	keystroke_c	c	n/a
510.178	0.1195	1020356	keystroke_o	o	n/a
510.4465	0.0905	1020893	keystroke_l	l	n/a
510.642	0.06	1021284	keystroke_l	l	n/a
510.8525	0.164	1021705	keystroke_i	i	n/a
510.942	0.165	1021884	keystroke_n	n	n/a
511.092	0.1505	1022184	keystroke_s	s	n/a
511.2725	0.149	1022545	keystroke_Key.space	Key.space	n/a
511.542	0.18	1023084	keystroke_i	i	n/a
511.632	0.1805	1023264	keystroke_n	n	n/a
511.7975	0.1495	1023595	keystroke_t	t	n/a
512.082	0.1355	1024164	keystroke_e	e	n/a
512.397	0.015	1024794	keystroke_g	g	n/a
512.9975	0.1355	1025995	keystroke_r	r	n/a
513.208	0.164	1026416	keystroke_a	a	n/a
513.4475	0.105	1026895	keystroke_t	t	n/a
513.628	0.3445	1027256	keystroke_i	i	n/a
513.733	0.2845	1027466	keystroke_o	o	n/a
513.867	0.1655	1027734	keystroke_n	n	n/a
514.452	0.1505	1028904	keystroke_Key.enter	Key.enter	n/a
514.607	6.582	1029214	prompt	n/a	grip where're topics importantly\n
515.427	0.075	1030854	keystroke_g	g	n/a
515.6675	0.1055	1031335	keystroke_r	r	n/a
515.8625	0.196	1031725	keystroke_i	i	n/a
515.968	0.1655	1031936	keystroke_p	p	n/a
516.0735	0.194	1032147	keystroke_Key.space	Key.space	n/a
516.2825	0.045	1032565	keystroke_w	w	n/a
516.4175	0.1355	1032835	keystroke_h	h	n/a
516.718	0.134	1033436	keystroke_e	e	n/a
516.822	0.18	1033644	keystroke_r	r	n/a
517.213	0.09	1034426	keystroke_e	e	n/a
517.4375	0.1205	1034875	keystroke_'	'	n/a
517.707	0.1205	1035414	keystroke_s	s	n/a
517.8875	0.135	1035775	keystroke_Key.space	Key.space	n/a
518.0375	0.135	1036075	keystroke_t	t	n/a
518.1735	0.134	1036347	keystroke_o	o	n/a
518.2625	0.2255	1036525	keystroke_p	p	n/a
518.458	0.165	1036916	keystroke_i	i	n/a
518.5775	0.1805	1037155	keystroke_c	c	n/a
518.727	0.15	1037454	keystroke_s	s	n/a
518.862	0.1505	1037724	keystroke_Key.space	Key.space	n/a
519.1775	0.2405	1038355	keystroke_i	i	n/a
519.343	0.1655	1038686	keystroke_m	m	n/a
519.688	0.165	1039376	keystroke_p	p	n/a
519.808	0.12	1039616	keystroke_o	o	n/a
519.898	0.0755	1039796	keystroke_r	r	n/a
520.0785	0.119	1040157	keystroke_t	t	n/a
520.2275	0.1655	1040455	keystroke_a	a	n/a
520.3475	0.1055	1040695	keystroke_n	n	n/a
520.468	0.12	1040936	keystroke_t	t	n/a
520.573	0.27	1041146	keystroke_l	l	n/a
520.738	0.15	1041476	keystroke_y	y	n/a
521.0685	0.1195	1042137	keystroke_Key.enter	Key.enter	n/a
521.194	9.79	1042388	prompt	n/a	contractor helmet miracle exam\n
522.1325	0.1345	1044265	keystroke_c	c	n/a
522.282	0.195	1044564	keystroke_o	o	n/a
522.357	0.18	1044714	keystroke_n	n	n/a
522.507	0.1055	1045014	keystroke_t	t	n/a
522.7325	0.105	1045465	keystroke_r	r	n/a
522.8975	0.1655	1045795	keystroke_a	a	n/a
523.168	0.1195	1046336	keystroke_c	c	n/a
523.4675	0.1055	1046935	keystroke_t	t	n/a
523.588	0.1495	1047176	keystroke_o	o	n/a
523.708	0.09	1047416	keystroke_r	r	n/a
523.813	0.1655	1047626	keystroke_Key.space	Key.space	n/a
523.993	0.15	1047986	keystroke_h	h	n/a
524.158	0.104	1048316	keystroke_e	e	n/a
524.292	0.165	1048584	keystroke_l	l	n/a
524.487	0.0755	1048974	keystroke_e	e	n/a
524.6375	0.1195	1049275	keystroke_m	m	n/a
524.727	0.2405	1049454	keystroke_e	e	n/a
525.342	0.12	1050684	keystroke_t	t	n/a
525.613	0.135	1051226	keystroke_Key.space	Key.space	n/a
526.1675	0.0455	1052335	keystroke_=	=	n/a
526.4065	0.06	1052813	keystroke_Key.backspace	Key.backspace	n/a
526.557	0.06	1053114	keystroke_Key.backspace	Key.backspace	n/a
526.662	0.0755	1053324	keystroke_Key.backspace	Key.backspace	n/a
526.827	0.105	1053654	keystroke_Key.backspace	Key.backspace	n/a
527.0075	0.09	1054015	keystroke_Key.backspace	Key.backspace	n/a
527.2025	0.0895	1054405	keystroke_Key.backspace	Key.backspace	n/a
527.7275	0.1195	1055455	keystroke_m	m	n/a
527.877	0.15	1055754	keystroke_e	e	n/a
527.982	0.106	1055964	keystroke_t	t	n/a
528.0575	0.1955	1056115	keystroke_Key.space	Key.space	n/a
528.268	0.21	1056536	keystroke_m	m	n/a
528.4025	0.166	1056805	keystroke_i	i	n/a
528.463	0.1205	1056926	keystroke_r	r	n/a
528.6285	0.164	1057257	keystroke_a	a	n/a
529.1685	0.06	1058337	keystroke_c	c	n/a
529.422	0.151	1058844	keystroke_l	l	n/a
529.588	0.1355	1059176	keystroke_e	e	n/a
529.738	0.135	1059476	keystroke_Key.space	Key.space	n/a
530.008	0.105	1060016	keystroke_e	e	n/a
530.2485	0.1195	1060497	keystroke_x	x	n/a
530.458	0.075	1060916	keystroke_a	a	n/a
530.638	0.0905	1061276	keystroke_m	m	n/a
530.8325	0.1505	1061665	keystroke_Key.enter	Key.enter	n/a
530.987	8.3675	1061974	prompt	n/a	yorkshire blond coalition category\n
531.898	0.1045	1063796	keystroke_y	y	n/a
532.123	0.1345	1064246	keystroke_o	o	n/a
532.3165	0.1205	1064633	keystroke_r	r	n/a
532.8425	0.105	1065685	keystroke_k	k	n/a
533.098	0.135	1066196	keystroke_s	s	n/a
533.2625	0.105	1066525	keystroke_h	h	n/a
533.4575	0.136	1066915	keystroke_i	i	n/a
533.5785	0.15	1067157	keystroke_r	r	n/a
533.6835	0.134	1067367	keystroke_e	e	n/a
533.7435	0.2545	1067487	keystroke_Key.space	Key.space	n/a
533.9225	0.1055	1067845	keystroke_b	b	n/a
534.163	0.09	1068326	keystroke_l	l	n/a
534.403	0.105	1068806	keystroke_o	o	n/a
534.598	0.1055	1069196	keystroke_n	n	n/a
534.7035	0.1645	1069407	keystroke_d	d	n/a
534.852	0.1505	1069704	keystroke_Key.space	Key.space	n/a
535.213	0.1335	1070426	keystroke_c	c	n/a
535.512	0.15	1071024	keystroke_o	o	n/a
536.098	0.1205	1072196	keystroke_a	a	n/a
536.6085	0.105	1073217	keystroke_l	l	n/a
536.8475	0.105	1073695	keystroke_i	i	n/a
536.9975	0.106	1073995	keystroke_t	t	n/a
537.1035	0.2105	1074207	keystroke_i	i	n/a
537.1485	0.1945	1074297	keystroke_o	o	n/a
537.2535	0.1645	1074507	keystroke_n	n	n/a
537.343	0.18	1074686	keystroke_Key.space	Key.space	n/a
537.463	0.1355	1074926	keystroke_c	c	n/a
537.6885	0.09	1075377	keystroke_a	a	n/a
537.883	0.12	1075766	keystroke_t	t	n/a
538.0485	0.135	1076097	keystroke_e	e	n/a
538.4835	0.105	1076967	keystroke_g	g	n/a
538.6485	0.1355	1077297	keystroke_o	o	n/a
538.754	0.1335	1077508	keystroke_r	r	n/a
538.9625	0.1205	1077925	keystroke_y	y	n/a
539.218	0.135	1078436	keystroke_Key.enter	Key.enter	n/a
539.3575	9.808	1078715	prompt	n/a	condo cheaper ecological reserve\n
540.1485	0.135	1080297	keystroke_c	c	n/a
540.2835	0.179	1080567	keystroke_o	o	n/a
540.4025	0.136	1080805	keystroke_n	n	n/a
540.5225	0.1355	1081045	keystroke_d	d	n/a
540.673	0.2245	1081346	keystroke_o	o	n/a
540.8225	0.165	1081645	keystroke_Key.space	Key.space	n/a
541.169	0.1175	1082338	keystroke_c	c	n/a
541.377	0.1355	1082754	keystroke_h	h	n/a
541.5425	0.0755	1083085	keystroke_r	r	n/a
541.5725	0.151	1083145	keystroke_a	a	n/a
541.7825	0.1655	1083565	keystroke_p	p	n/a
542.684	0.0895	1085368	keystroke_Key.backspace	Key.backspace	n/a
542.8335	0.075	1085667	keystroke_Key.backspace	Key.backspace	n/a
543.267	0.091	1086534	keystroke_Key.backspace	Key.backspace	n/a
543.4335	0.1645	1086867	keystroke_e	e	n/a
543.5085	0.1505	1087017	keystroke_a	a	n/a
543.719	0.15	1087438	keystroke_p	p	n/a
543.8535	0.1645	1087707	keystroke_e	e	n/a
543.944	0.12	1087888	keystroke_r	r	n/a
544.064	0.1495	1088128	keystroke_Key.space	Key.space	n/a
544.3485	0.12	1088697	keystroke_e	e	n/a
544.7675	0.1355	1089535	keystroke_c	c	n/a
545.0985	0.15	1090197	keystroke_o	o	n/a
545.383	0.09	1090766	keystroke_l	l	n/a
545.578	0.1205	1091156	keystroke_o	o	n/a
545.7135	0.1045	1091427	keystroke_g	g	n/a
545.8775	0.1055	1091755	keystroke_i	i	n/a
546.163	0.1055	1092326	keystroke_c	c	n/a
546.3275	0.1655	1092655	keystroke_a	a	n/a
546.463	0.2105	1092926	keystroke_l	l	n/a
546.598	0.195	1093196	keystroke_Key.space	Key.space	n/a
546.7635	0.18	1093527	keystroke_r	r	n/a
546.898	0.1205	1093796	keystroke_e	e	n/a
547.1385	0.1055	1094277	keystroke_s	s	n/a
547.363	0.135	1094726	keystroke_e	e	n/a
547.423	0.1205	1094846	keystroke_r	r	n/a
548.1435	0.134	1096287	keystroke_v	v	n/a
548.5035	0.1195	1097007	keystroke_e	e	n/a
548.998	0.1655	1097996	keystroke_Key.enter	Key.enter	n/a
549.17	5.7095	1098340	prompt	n/a	thru choosing honor colored\n
549.928	0.0605	1099856	keystroke_t	t	n/a
550.0485	0.1645	1100097	keystroke_h	h	n/a
550.2425	0.12	1100485	keystroke_r	r	n/a
550.4075	0.1055	1100815	keystroke_u	u	n/a
550.678	0.165	1101356	keystroke_Key.space	Key.space	n/a
551.323	0.1055	1102646	keystroke_c	c	n/a
551.5335	0.0905	1103067	keystroke_h	h	n/a
551.848	0.075	1103696	keystroke_o	o	n/a
552.029	0.06	1104058	keystroke_o	o	n/a
552.134	0.119	1104268	keystroke_s	s	n/a
552.283	0.196	1104566	keystroke_i	i	n/a
552.3885	0.1355	1104777	keystroke_n	n	n/a
552.509	0.1195	1105018	keystroke_g	g	n/a
552.6425	0.1655	1105285	keystroke_Key.space	Key.space	n/a
552.823	0.1355	1105646	keystroke_h	h	n/a
552.9435	0.1945	1105887	keystroke_o	o	n/a
553.123	0.1955	1106246	keystroke_n	n	n/a
553.2885	0.12	1106577	keystroke_o	o	n/a
553.4535	0.0905	1106907	keystroke_r	r	n/a
553.574	0.149	1107148	keystroke_Key.space	Key.space	n/a
553.738	0.1205	1107476	keystroke_c	c	n/a
553.8735	0.12	1107747	keystroke_o	o	n/a
554.0985	0.0745	1108197	keystroke_l	l	n/a
554.2785	0.135	1108557	keystroke_o	o	n/a
554.3535	0.09	1108707	keystroke_r	r	n/a
554.4285	0.209	1108857	keystroke_e	e	n/a
554.594	0.134	1109188	keystroke_d	d	n/a
554.728	0.1505	1109456	keystroke_Key.enter	Key.enter	n/a
554.882	7.5135	1109764	prompt	n/a	avoid automobiles interracial erik\n
555.5685	0.1045	1111137	keystroke_a	a	n/a
555.9285	0.1055	1111857	keystroke_v	v	n/a
556.154	0.2405	1112308	keystroke_o	o	n/a
556.274	0.1955	1112548	keystroke_i	i	n/a
556.4545	0.1205	1112909	keystroke_d	d	n/a
556.603	0.1505	1113206	keystroke_Key.space	Key.space	n/a
556.8135	0.1655	1113627	keystroke_a	a	n/a
557.069	0.1195	1114138	keystroke_u	u	n/a
557.339	0.12	1114678	keystroke_t	t	n/a
557.519	0.1645	1115038	keystroke_o	o	n/a
557.804	0.12	1115608	keystroke_m	m	n/a
558.0445	0.1195	1116089	keystroke_o	o	n/a
558.284	0.075	1116568	keystroke_b	b	n/a
558.4945	0.1945	1116989	keystroke_i	i	n/a
558.5835	0.1655	1117167	keystroke_l	l	n/a
558.719	0.1955	1117438	keystroke_e	e	n/a
558.809	0.1655	1117618	keystroke_s	s	n/a
559.0345	0.1495	1118069	keystroke_Key.space	Key.space	n/a
559.289	0.1955	1118578	keystroke_i	i	n/a
