onset	duration	sample	value	key	prompt_text
1.9845	0.202	3969	keystroke_Key.tab	Key.tab	n/a
15.5495	0.304	31099	keystroke_Key.cmd	Key.cmd	n/a
15.753	0.1115	31506	keystroke_w	w	n/a
26.451	0.0785	52902	keystroke_j	j	n/a
26.5855	0.1245	53171	keystroke_s	s	n/a
26.653	0.1125	53306	keystroke_e	e	n/a
26.822	0.09	53644	keystroke_e	e	n/a
26.9235	0.112	53847	keystroke_l	l	n/a
26.9795	0.1125	53959	keystroke_y	y	n/a
27.1265	0.089	54253	keystroke_Key.tab	Key.tab	n/a
27.778	0.1465	55556	keystroke_Key.down	Key.down	n/a
28.217	0.1125	56434	keystroke_Key.down	Key.down	n/a
28.4535	0.0785	56907	keystroke_Key.down	Key.down	n/a
28.7005	0.068	57401	keystroke_Key.enter	Key.enter	n/a
29.162	0.079	58324	keystroke_Key.tab	Key.tab	n/a
37.6335	0.135	75267	keystroke_c	c	n/a
38.241	0.1355	76482	keystroke_h	h	n/a
39.006	0.281	78012	keystroke_Key.cmd	Key.cmd	n/a
39.096	0.18	78192	keystroke_v	v	n/a
40.536	0.135	81072	keystroke_Key.tab	Key.tab	n/a
44.0235	0.1575	88047	keystroke_Key.tab	Key.tab	n/a
45.4525	0.1345	90905	keystroke_a	a	n/a
45.677	0.18	91354	keystroke_v	v	n/a
51.4135	16.6755	102827	prompt	n/a	the quick brown fox jumps over a lazy dog\n
62.8335	0.079	125667	keystroke_t	t	n/a
62.9345	0.091	125869	keystroke_h	h	n/a
63.0475	0.0895	126095	keystroke_e	e	n/a
63.1485	0.1465	126297	keystroke_Key.space	Key.space	n/a
63.4635	0.113	126927	keystroke_q	q	n/a
63.6095	0.136	127219	keystroke_u	u	n/a
63.711	0.1125	127422	keystroke_i	i	n/a
63.9365	0.09	127873	keystroke_c	c	n/a
64.015	0.1575	128030	keystroke_k	k	n/a
64.105	0.124	128210	keystroke_Key.space	Key.space	n/a
64.217	0.0905	128434	keystroke_b	b	n/a
64.42	0.0895	128840	keystroke_r	r	n/a
64.521	0.101	129042	keystroke_o	o	n/a
64.634	0.1125	129268	keystroke_w	w	n/a
64.7125	0.157	129425	keystroke_n	n	n/a
64.802	0.1125	129604	keystroke_Key.space	Key.space	n/a
64.9035	0.1015	129807	keystroke_f	f	n/a
65.005	0.1235	130010	keystroke_o	o	n/a
65.106	0.1235	130212	keystroke_x	x	n/a
65.286	0.135	130572	keystroke_Key.space	Key.space	n/a
65.4775	0.1125	130955	keystroke_j	j	n/a
65.7135	0.057	131427	keystroke_u	u	n/a
65.871	0.1125	131742	keystroke_m	m	n/a
65.973	0.112	131946	keystroke_p	p	n/a
66.0735	0.1015	132147	keystroke_s	s	n/a
66.186	0.1465	132372	keystroke_Key.space	Key.space	n/a
66.2645	0.1465	132529	keystroke_o	o	n/a
66.366	0.0675	132732	keystroke_v	v	n/a
66.5125	0.101	133025	keystroke_e	e	n/a
66.5915	0.123	133183	keystroke_r	r	n/a
66.6695	0.1015	133339	keystroke_Key.space	Key.space	n/a
66.805	0.1125	133610	keystroke_a	a	n/a
66.906	0.0905	133812	keystroke_Key.space	Key.space	n/a
67.0295	0.1575	134059	keystroke_l	l	n/a
67.165	0.079	134330	keystroke_a	a	n/a
67.3675	0.135	134735	keystroke_z	z	n/a
67.5135	0.0675	135027	keystroke_y	y	n/a
67.5475	0.1125	135095	keystroke_Key.space	Key.space	n/a
67.626	0.113	135252	keystroke_d	d	n/a
67.73	0.1095	135460	keystroke_o	o	n/a
67.8285	0.1015	135657	keystroke_g	g	n/a
67.986	0.1015	135972	keystroke_Key.enter	Key.enter	n/a
68.0925	3.8885	136185	prompt	n/a	greene rejected paths univ\n
68.7735	0.079	137547	keystroke_g	g	n/a
68.9535	0.1355	137907	keystroke_r	r	n/a
69.033	0.112	138066	keystroke_e	e	n/a
69.213	0.0895	138426	keystroke_e	e	n/a
69.3025	0.1125	138605	keystroke_n	n	n/a
69.426	0.09	138852	keystroke_e	e	n/a
69.4935	0.169	138987	keystroke_Key.space	Key.space	n/a
69.651	0.124	139302	keystroke_r	r	n/a
69.73	0.101	139460	keystroke_e	e	n/a
69.8535	0.135	139707	keystroke_j	j	n/a
69.9555	0.1005	139911	keystroke_e	e	n/a
70.1685	0.0565	140337	keystroke_c	c	n/a
70.3035	0.135	140607	keystroke_t	t	n/a
70.405	0.0785	140810	keystroke_e	e	n/a
70.5735	0.068	141147	keystroke_d	d	n/a
70.675	0.135	141350	keystroke_Key.space	Key.space	n/a
70.7875	0.101	141575	keystroke_p	p	n/a
70.8555	0.1345	141711	keystroke_a	a	n/a
70.9335	0.1245	141867	keystroke_t	t	n/a
71.0235	0.0565	142047	keystroke_h	h	n/a
71.103	0.1005	142206	keystroke_s	s	n/a
71.181	0.124	142362	keystroke_Key.space	Key.space	n/a
71.215	0.1125	142430	keystroke_u	u	n/a
71.4405	0.1115	142881	keystroke_n	n	n/a
71.5305	0.123	143061	keystroke_i	i	n/a
71.631	0.1015	143262	keystroke_v	v	n/a
71.89	0.09	143780	keystroke_Key.enter	Key.enter	n/a
71.984	5.7455	143968	prompt	n/a	housewares cleaning spatial strange\n
72.6885	0.09	145377	keystroke_h	h	n/a
72.745	0.1135	145490	keystroke_o	o	n/a
72.79	0.102	145580	keystroke_w	w	n/a
73.1385	0.09	146277	keystroke_Key.backspace	Key.backspace	n/a
73.296	0.079	146592	keystroke_s	s	n/a
73.6	0.056	147200	keystroke_Key.backspace	Key.backspace	n/a
73.803	0.0895	147606	keystroke_u	u	n/a
73.915	0.112	147830	keystroke_s	s	n/a
73.9825	0.1125	147965	keystroke_e	e	n/a
74.2185	0.1015	148437	keystroke_w	w	n/a
74.3085	0.1575	148617	keystroke_a	a	n/a
74.4325	0.1685	148865	keystroke_r	r	n/a
74.523	0.1905	149046	keystroke_e	e	n/a
74.646	0.135	149292	keystroke_s	s	n/a
74.8375	0.135	149675	keystroke_Key.space	Key.space	n/a
75.0175	0.101	150035	keystroke_c	c	n/a
75.1185	0.146	150237	keystroke_l	l	n/a
75.2425	0.135	150485	keystroke_e	e	n/a
75.3325	0.112	150665	keystroke_a	a	n/a
75.4	0.101	150800	keystroke_n	n	n/a
75.5245	0.1115	151049	keystroke_i	i	n/a
75.6135	0.079	151227	keystroke_n	n	n/a
75.6475	0.101	151295	keystroke_g	g	n/a
75.7375	0.146	151475	keystroke_Key.space	Key.space	n/a
75.8945	0.1015	151789	keystroke_s	s	n/a
76.0185	0.101	152037	keystroke_p	p	n/a
76.1085	0.1015	152217	keystroke_a	a	n/a
76.3565	0.0895	152713	keystroke_t	t	n/a
76.435	0.101	152870	keystroke_i	i	n/a
76.5475	0.112	153095	keystroke_a	a	n/a
76.671	0.147	153342	keystroke_l	l	n/a
76.7275	0.158	153455	keystroke_Key.space	Key.space	n/a
76.84	0.112	153680	keystroke_s	s	n/a
76.93	0.0785	153860	keystroke_t	t	n/a
77.121	0.1015	154242	keystroke_r	r	n/a
77.2005	0.112	154401	keystroke_a	a	n/a
77.301	0.1125	154602	keystroke_n	n	n/a
77.3915	0.112	154783	keystroke_g	g	n/a
77.4585	0.101	154917	keystroke_e	e	n/a
77.6275	0.101	155255	keystroke_Key.enter	Key.enter	n/a
77.7325	4.6775	155465	prompt	n/a	more fingers nursery panel\n
78.2915	0.1005	156583	keystroke_m	m	n/a
78.37	0.112	156740	keystroke_o	o	n/a
78.4485	0.1125	156897	keystroke_r	r	n/a
78.516	0.09	157032	keystroke_e	e	n/a
78.5725	0.1235	157145	keystroke_Key.space	Key.space	n/a
78.73	0.09	157460	keystroke_f	f	n/a
78.775	0.135	157550	keystroke_i	i	n/a
78.8535	0.1465	157707	keystroke_n	n	n/a
78.921	0.09	157842	keystroke_g	g	n/a
79.0445	0.113	158089	keystroke_e	e	n/a
79.112	0.1585	158224	keystroke_r	r	n/a
79.2025	0.1235	158405	keystroke_s	s	n/a
79.315	0.1125	158630	keystroke_Key.space	Key.space	n/a
79.3825	0.101	158765	keystroke_n	n	n/a
79.574	0.0565	159148	keystroke_e	e	n/a
79.596	0.1125	159192	keystroke_u	u	n/a
80.215	0.056	160430	keystroke_Key.backspace	Key.backspace	n/a
80.361	0.0675	160722	keystroke_Key.backspace	Key.backspace	n/a
80.5525	0.101	161105	keystroke_u	u	n/a
80.8675	0.135	161735	keystroke_r	r	n/a
81.1265	0.191	162253	keystroke_s	s	n/a
81.239	0.146	162478	keystroke_e	e	n/a
81.3175	0.1345	162635	keystroke_r	r	n/a
81.4415	0.1345	162883	keystroke_y	y	n/a
81.5315	0.0895	163063	keystroke_Key.space	Key.space	n/a
81.6775	0.101	163355	keystroke_p	p	n/a
81.79	0.1015	163580	keystroke_a	a	n/a
81.902	0.0905	163804	keystroke_n	n	n/a
82.004	0.0895	164008	keystroke_e	e	n/a
82.071	0.1015	164142	keystroke_l	l	n/a
82.296	0.113	164592	keystroke_Key.enter	Key.enter	n/a
82.4135	4.879	164827	prompt	n/a	departments founded super distribute\n
83.0615	0.0785	166123	keystroke_d	d	n/a
83.286	0.079	166572	keystroke_e	e	n/a
83.4215	0.157	166843	keystroke_p	p	n/a
83.5225	0.1125	167045	keystroke_a	a	n/a
83.601	0.113	167202	keystroke_r	r	n/a
83.7815	0.146	167563	keystroke_t	t	n/a
83.9615	0.09	167923	keystroke_m	m	n/a
84.097	0.1115	168194	keystroke_e	e	n/a
84.186	0.1015	168372	keystroke_n	n	n/a
84.2985	0.1235	168597	keystroke_t	t	n/a
84.3775	0.0675	168755	keystroke_s	s	n/a
84.411	0.1355	168822	keystroke_Key.space	Key.space	n/a
84.5575	0.09	169115	keystroke_f	f	n/a
84.614	0.1345	169228	keystroke_o	o	n/a
84.692	0.0905	169384	keystroke_u	u	n/a
84.8835	0.091	169767	keystroke_n	n	n/a
84.9625	0.0675	169925	keystroke_d	d	n/a
85.1315	0.067	170263	keystroke_e	e	n/a
85.3	0.0905	170600	keystroke_d	d	n/a
85.4125	0.101	170825	keystroke_Key.space	Key.space	n/a
85.525	0.0785	171050	keystroke_s	s	n/a
85.604	0.124	171208	keystroke_u	u	n/a
85.6935	0.1015	171387	keystroke_p	p	n/a
85.7725	0.1015	171545	keystroke_e	e	n/a
85.851	0.0905	171702	keystroke_r	r	n/a
85.9075	0.124	171815	keystroke_Key.space	Key.space	n/a
86.02	0.1125	172040	keystroke_d	d	n/a
86.1435	0.1125	172287	keystroke_i	i	n/a
86.234	0.101	172468	keystroke_s	s	n/a
86.3125	0.079	172625	keystroke_t	t	n/a
86.5035	0.0565	173007	keystroke_r	r	n/a
86.594	0.0785	173188	keystroke_i	i	n/a
86.706	0.09	173412	keystroke_b	b	n/a
86.8415	0.068	173683	keystroke_u	u	n/a
86.9425	0.135	173885	keystroke_t	t	n/a
87.0325	0.09	174065	keystroke_e	e	n/a
87.156	0.135	174312	keystroke_Key.enter	Key.enter	n/a
87.2955	8.3335	174591	prompt	n/a	mediterranean humanity accompanying decreased\n
87.9665	0.135	175933	keystroke_m	m	n/a
88.1245	0.112	176249	keystroke_e	e	n/a
88.349	0.135	176698	keystroke_d	d	n/a
88.7765	0.1015	177553	keystroke_i	i	n/a
89.4405	0.101	178881	keystroke_t	t	n/a
89.6315	0.1125	179263	keystroke_e	e	n/a
89.699	0.101	179398	keystroke_r	r	n/a
89.924	0.112	179848	keystroke_r	r	n/a
90.0025	0.124	180005	keystroke_a	a	n/a
90.1485	0.1245	180297	keystroke_n	n	n/a
90.2505	0.18	180501	keystroke_e	e	n/a
90.396	0.1015	180792	keystroke_a	a	n/a
90.486	0.135	180972	keystroke_n	n	n/a
90.5875	0.101	181175	keystroke_Key.space	Key.space	n/a
90.7785	0.102	181557	keystroke_h	h	n/a
90.9815	0.0785	181963	keystroke_u	u	n/a
91.139	0.1015	182278	keystroke_m	m	n/a
91.2855	0.1005	182571	keystroke_a	a	n/a
91.3525	0.09	182705	keystroke_n	n	n/a
91.476	0.1575	182952	keystroke_i	i	n/a
91.713	0.1005	183426	keystroke_t	t	n/a
91.7805	0.135	183561	keystroke_y	y	n/a
91.8585	0.1125	183717	keystroke_Key.space	Key.space	n/a
92.118	0.09	184236	keystroke_a	a	n/a
92.331	0.09	184662	keystroke_c	c	n/a
92.4885	0.079	184977	keystroke_c	c	n/a
92.5905	0.168	185181	keystroke_o	o	n/a
92.658	0.123	185316	keystroke_m	m	n/a
92.7255	0.1125	185451	keystroke_p	p	n/a
92.8485	0.1125	185697	keystroke_a	a	n/a
92.928	0.09	185856	keystroke_n	n	n/a
93.141	0.0675	186282	keystroke_y	y	n/a
93.31	0.146	186620	keystroke_i	i	n/a
93.3885	0.1245	186777	keystroke_n	n	n/a
93.535	0.0785	187070	keystroke_g	g	n/a
93.659	0.1345	187318	keystroke_Key.space	Key.space	n/a
94.03	0.068	188060	keystroke_d	d	n/a
94.1985	0.1015	188397	keystroke_e	e	n/a
94.4575	0.0675	188915	keystroke_c	c	n/a
94.615	0.1685	189230	keystroke_r	r	n/a
94.6935	0.135	189387	keystroke_e	e	n/a
94.8405	0.1345	189681	keystroke_a	a	n/a
94.919	0.157	189838	keystroke_s	s	n/a
95.009	0.0895	190018	keystroke_e	e	n/a
95.3685	0.079	190737	keystroke_d	d	n/a
95.515	0.1125	191030	keystroke_Key.enter	Key.enter	n/a
95.6355	5.3405	191271	prompt	n/a	statewide entering license explain\n
96.4485	0.09	192897	keystroke_s	s	n/a
96.55	0.0785	193100	keystroke_t	t	n/a
96.6735	0.124	193347	keystroke_a	a	n/a
96.775	0.1235	193550	keystroke_t	t	n/a
96.8535	0.09	193707	keystroke_e	e	n/a
97.135	0.101	194270	keystroke_w	w	n/a
97.2925	0.09	194585	keystroke_i	i	n/a
97.4165	0.0785	194833	keystroke_d	d	n/a
97.63	0.0335	195260	keystroke_e	e	n/a
97.7095	0.1115	195419	keystroke_Key.space	Key.space	n/a
97.8325	0.045	195665	keystroke_e	e	n/a
97.9335	0.0905	195867	keystroke_n	n	n/a
98.001	0.079	196002	keystroke_t	t	n/a
98.17	0.0785	196340	keystroke_e	e	n/a
98.2375	0.1125	196475	keystroke_r	r	n/a
98.35	0.101	196700	keystroke_i	i	n/a
98.407	0.134	196814	keystroke_n	n	n/a
98.5075	0.0675	197015	keystroke_g	g	n/a
98.5975	0.135	197195	keystroke_Key.space	Key.space	n/a
98.6985	0.1585	197397	keystroke_l	l	n/a
98.811	0.101	197622	keystroke_i	i	n/a
98.901	0.1015	197802	keystroke_c	c	n/a
99.126	0.045	198252	keystroke_e	e	n/a
99.2505	0.0895	198501	keystroke_n	n	n/a
99.486	0.124	198972	keystroke_s	s	n/a
99.5535	0.1015	199107	keystroke_e	e	n/a
99.666	0.135	199332	keystroke_Key.space	Key.space	n/a
99.8125	0.0785	199625	keystroke_e	e	n/a
100.0035	0.09	200007	keystroke_x	x	n/a
100.105	0.09	200210	keystroke_p	p	n/a
100.2965	0.101	200593	keystroke_l	l	n/a
100.454	0.1125	200908	keystroke_a	a	n/a
100.555	0.1235	201110	keystroke_i	i	n/a
100.634	0.1235	201268	keystroke_n	n	n/a
100.87	0.1015	201740	keystroke_Key.enter	Key.enter	n/a
100.9785	4.4715	201957	prompt	n/a	linux sheep conferences tamil\n
101.6575	0.124	203315	keystroke_l	l	n/a
101.7305	0.163	203461	keystroke_i	i	n/a
101.8375	0.1125	203675	keystroke_n	n	n/a
102.0625	0.0785	204125	keystroke_u	u	n/a
102.22	0.09	204440	keystroke_x	x	n/a
102.3325	0.101	204665	keystroke_Key.space	Key.space	n/a
102.457	0.0895	204914	keystroke_s	s	n/a
102.591	0.079	205182	keystroke_h	h	n/a
102.7035	0.0675	205407	keystroke_e	e	n/a
102.8835	0.0575	205767	keystroke_e	e	n/a
102.985	0.101	205970	keystroke_p	p	n/a
103.0075	0.135	206015	keystroke_Key.space	Key.space	n/a
103.176	0.1015	206352	keystroke_c	c	n/a
103.266	0.135	206532	keystroke_o	o	n/a
103.3235	0.134	206647	keystroke_n	n	n/a
103.4685	0.0565	206937	keystroke_f	f	n/a
103.626	0.102	207252	keystroke_e	e	n/a
103.7165	0.157	207433	keystroke_r	r	n/a
103.829	0.101	207658	keystroke_e	e	n/a
103.941	0.1125	207882	keystroke_n	n	n/a
104.0425	0.09	208085	keystroke_c	c	n/a
104.2565	0.112	208513	keystroke_e	e	n/a
104.3125	0.124	208625	keystroke_s	s	n/a
104.4475	0.1235	208895	keystroke_Key.space	Key.space	n/a
104.5485	0.1015	209097	keystroke_t	t	n/a
104.7625	0.1125	209525	keystroke_a	a	n/a
104.864	0.1235	209728	keystroke_m	m	n/a
105.0215	0.146	210043	keystroke_i	i	n/a
105.111	0.124	210222	keystroke_l	l	n/a
105.3475	0.1015	210695	keystroke_Key.enter	Key.enter	n/a
105.453	5.5995	210906	prompt	n/a	overcome control opponents strikes\n
106.315	0.0675	212630	keystroke_o	o	n/a
106.5625	0.0675	213125	keystroke_v	v	n/a
106.6975	0.1015	213395	keystroke_e	e	n/a
106.7875	0.079	213575	keystroke_r	r	n/a
106.99	0.09	213980	keystroke_c	c	n/a
107.08	0.1125	214160	keystroke_o	o	n/a
107.1365	0.112	214273	keystroke_m	m	n/a
107.2375	0.0675	214475	keystroke_e	e	n/a
107.3165	0.146	214633	keystroke_Key.space	Key.space	n/a
107.519	0.101	215038	keystroke_c	c	n/a
107.609	0.1235	215218	keystroke_o	o	n/a
107.665	0.1125	215330	keystroke_n	n	n/a
107.79	0.0885	215580	keystroke_t	t	n/a
108.014	0.0675	216028	keystroke_r	r	n/a
108.115	0.1015	216230	keystroke_o	o	n/a
108.3175	0.1125	216635	keystroke_l	l	n/a
108.4415	0.101	216883	keystroke_Key.space	Key.space	n/a
108.5875	0.203	217175	keystroke_o	o	n/a
108.7675	0.0785	217535	keystroke_p	p	n/a
108.9365	0.135	217873	keystroke_p	p	n/a
109.06	0.1915	218120	keystroke_o	o	n/a
109.24	0.1575	218480	keystroke_n	n	n/a
109.4085	0.1015	218817	keystroke_e	e	n/a
109.5325	0.1015	219065	keystroke_n	n	n/a
109.645	0.1465	219290	keystroke_t	t	n/a
109.7465	0.1125	219493	keystroke_s	s	n/a
109.87	0.146	219740	keystroke_Key.space	Key.space	n/a
109.994	0.1125	219988	keystroke_s	s	n/a
110.0735	0.0895	220147	keystroke_t	t	n/a
110.264	0.079	220528	keystroke_r	r	n/a
110.3765	0.067	220753	keystroke_i	i	n/a
110.545	0.09	221090	keystroke_k	k	n/a
110.6575	0.1575	221315	keystroke_e	e	n/a
110.77	0.1125	221540	keystroke_s	s	n/a
110.984	0.0675	221968	keystroke_Key.enter	Key.enter	n/a
111.0555	6.0945	222111	prompt	n/a	sandra visibility headline contracting\n
111.76	0.0795	223520	keystroke_s	s	n/a
111.94	0.102	223880	keystroke_a	a	n/a
112.064	0.0785	224128	keystroke_n	n	n/a
112.255	0.09	224510	keystroke_d	d	n/a
113.02	0.1125	226040	keystroke_r	r	n/a
113.155	0.1125	226310	keystroke_a	a	n/a
113.29	0.135	226580	keystroke_Key.space	Key.space	n/a
113.4925	0.101	226985	keystroke_v	v	n/a
113.6165	0.0905	227233	keystroke_i	i	n/a
113.729	0.101	227458	keystroke_s	s	n/a
113.8415	0.101	227683	keystroke_i	i	n/a
113.9875	0.1245	227975	keystroke_b	b	n/a
114.0775	0.124	228155	keystroke_i	i	n/a
114.19	0.169	228380	keystroke_l	l	n/a
114.2915	0.1125	228583	keystroke_i	i	n/a
114.46	0.09	228920	keystroke_t	t	n/a
114.517	0.123	229034	keystroke_y	y	n/a
114.595	0.09	229190	keystroke_Key.space	Key.space	n/a
114.742	0.112	229484	keystroke_h	h	n/a
114.809	0.1235	229618	keystroke_e	e	n/a
114.944	0.1235	229888	keystroke_a	a	n/a
115.0345	0.1125	230069	keystroke_d	d	n/a
115.18	0.18	230360	keystroke_l	l	n/a
115.2595	0.1345	230519	keystroke_i	i	n/a
115.327	0.1125	230654	keystroke_n	n	n/a
115.3825	0.1125	230765	keystroke_e	e	n/a
115.5065	0.1685	231013	keystroke_Key.space	Key.space	n/a
115.81	0.1015	231620	keystroke_c	c	n/a
115.8895	0.157	231779	keystroke_o	o	n/a
115.9675	0.135	231935	keystroke_n	n	n/a
116.0575	0.09	232115	keystroke_t	t	n/a
116.249	0.124	232498	keystroke_r	r	n/a
116.3395	0.0895	232679	keystroke_a	a	n/a
116.474	0.09	232948	keystroke_c	c	n/a
116.654	0.1125	233308	keystroke_t	t	n/a
116.778	0.101	233556	keystroke_i	i	n/a
116.8455	0.101	233691	keystroke_n	n	n/a
116.924	0.09	233848	keystroke_g	g	n/a
117.059	0.09	234118	keystroke_Key.enter	Key.enter	n/a
117.153	5.881	234306	prompt	n/a	statement appearance drum actively\n
117.8465	0.079	235693	keystroke_s	s	n/a
117.903	0.09	235806	keystroke_t	t	n/a
118.0155	0.124	236031	keystroke_a	a	n/a
118.094	0.146	236188	keystroke_t	t	n/a
118.195	0.1015	236390	keystroke_e	e	n/a
118.3415	0.0785	236683	keystroke_m	m	n/a
118.499	0.056	236998	keystroke_e	e	n/a
118.544	0.079	237088	keystroke_n	n	n/a
118.6675	0.09	237335	keystroke_t	t	n/a
118.7015	0.1125	237403	keystroke_Key.space	Key.space	n/a
118.8475	0.0795	237695	keystroke_a	a	n/a
118.9375	0.034	237875	keystroke_p	p	n/a
119.095	0.102	238190	keystroke_p	p	n/a
119.2075	0.1465	238415	keystroke_e	e	n/a
119.3425	0.1465	238685	keystroke_a	a	n/a
119.4215	0.1235	238843	keystroke_r	r	n/a
119.9505	0.101	239901	keystroke_a	a	n/a
120.0625	0.09	240125	keystroke_n	n	n/a
120.1865	0.079	240373	keystroke_c	c	n/a
120.3895	0.0555	240779	keystroke_e	e	n/a
120.49	0.135	240980	keystroke_Key.space	Key.space	n/a
120.569	0.101	241138	keystroke_d	d	n/a
120.7265	0.113	241453	keystroke_r	r	n/a
120.828	0.101	241656	keystroke_u	u	n/a
121.0415	0.1575	242083	keystroke_m	m	n/a
121.12	0.1575	242240	keystroke_Key.space	Key.space	n/a
121.21	0.1015	242420	keystroke_a	a	n/a
121.3565	0.09	242713	keystroke_c	c	n/a
121.537	0.0895	243074	keystroke_t	t	n/a
121.694	0.09	243388	keystroke_i	i	n/a
121.8515	0.135	243703	keystroke_v	v	n/a
122.324	0.1015	244648	keystroke_e	e	n/a
122.515	0.18	245030	keystroke_l	l	n/a
122.65	0.1015	245300	keystroke_y	y	n/a
122.9315	0.1015	245863	keystroke_Key.enter	Key.enter	n/a
123.0375	4.431	246075	prompt	n/a	rural thunder admissions partners\n
123.764	0.0785	247528	keystroke_r	r	n/a
123.8765	0.1125	247753	keystroke_u	u	n/a
123.9775	0.158	247955	keystroke_r	r	n/a
124.124	0.101	248248	keystroke_a	a	n/a
124.214	0.135	248428	keystroke_l	l	n/a
124.2815	0.0905	248563	keystroke_Key.space	Key.space	n/a
124.394	0.09	248788	keystroke_t	t	n/a
124.451	0.078	248902	keystroke_h	h	n/a
124.6985	0.0105	249397	keystroke_u	u	n/a
124.799	0.1015	249598	keystroke_n	n	n/a
124.9115	0.079	249823	keystroke_d	d	n/a
125.0915	0.101	250183	keystroke_e	e	n/a
125.159	0.135	250318	keystroke_r	r	n/a
125.249	0.1125	250498	keystroke_Key.space	Key.space	n/a
125.3505	0.0895	250701	keystroke_a	a	n/a
125.5415	0.09	251083	keystroke_d	d	n/a
125.654	0.1355	251308	keystroke_m	m	n/a
125.7665	0.135	251533	keystroke_i	i	n/a
125.89	0.079	251780	keystroke_s	s	n/a
126.0705	0.0785	252141	keystroke_s	s	n/a
126.16	0.1915	252320	keystroke_i	i	n/a
126.228	0.135	252456	keystroke_o	o	n/a
126.2615	0.135	252523	keystroke_n	n	n/a
126.3405	0.101	252681	keystroke_s	s	n/a
126.4415	0.1465	252883	keystroke_Key.space	Key.space	n/a
126.543	0.1235	253086	keystroke_p	p	n/a
126.5765	0.135	253153	keystroke_a	a	n/a
126.6895	0.0345	253379	keystroke_r	r	n/a
126.8015	0.1125	253603	keystroke_t	t	n/a
126.9365	0.09	253873	keystroke_n	n	n/a
126.993	0.1235	253986	keystroke_e	e	n/a
127.0735	0.1895	254147	keystroke_r	r	n/a
127.218	0.113	254436	keystroke_s	s	n/a
127.375	0.091	254750	keystroke_Key.enter	Key.enter	n/a
127.471	5.3505	254942	prompt	n/a	routes conclusions availability computational\n
128.264	0.1125	256528	keystroke_r	r	n/a
128.354	0.1355	256708	keystroke_o	o	n/a
128.433	0.1235	256866	keystroke_u	u	n/a
128.523	0.1575	257046	keystroke_t	t	n/a
128.6015	0.1235	257203	keystroke_e	e	n/a
128.6695	0.078	257339	keystroke_s	s	n/a
128.759	0.113	257518	keystroke_Key.space	Key.space	n/a
128.894	0.09	257788	keystroke_c	c	n/a
128.973	0.1235	257946	keystroke_o	o	n/a
129.029	0.1235	258058	keystroke_n	n	n/a
129.119	0.1125	258238	keystroke_c	c	n/a
129.254	0.146	258508	keystroke_l	l	n/a
129.3445	0.112	258689	keystroke_u	u	n/a
129.4225	0.102	258845	keystroke_s	s	n/a
129.535	0.2025	259070	keystroke_i	i	n/a
129.614	0.135	259228	keystroke_o	o	n/a
129.659	0.1235	259318	keystroke_n	n	n/a
129.7155	0.09	259431	keystroke_s	s	n/a
129.839	0.1685	259678	keystroke_Key.space	Key.space	n/a
129.952	0.09	259904	keystroke_a	a	n/a
130.03	0.135	260060	keystroke_v	v	n/a
130.199	0.101	260398	keystroke_a	a	n/a
130.289	0.146	260578	keystroke_i	i	n/a
130.368	0.124	260736	keystroke_l	l	n/a
130.4125	0.147	260825	keystroke_a	a	n/a
130.5475	0.1245	261095	keystroke_b	b	n/a
130.6825	0.102	261365	keystroke_i	i	n/a
130.795	0.1575	261590	keystroke_l	l	n/a
130.8855	0.1125	261771	keystroke_i	i	n/a
131.043	0.1015	262086	keystroke_t	t	n/a
131.133	0.1125	262266	keystroke_y	y	n/a
131.2115	0.09	262423	keystroke_Key.space	Key.space	n/a
131.3125	0.09	262625	keystroke_c	c	n/a
131.358	0.18	262716	keystroke_o	o	n/a
131.448	0.1125	262896	keystroke_m	m	n/a
131.549	0.158	263098	keystroke_p	p	n/a
131.6615	0.101	263323	keystroke_u	u	n/a
131.729	0.101	263458	keystroke_t	t	n/a
131.8525	0.147	263705	keystroke_a	a	n/a
131.943	0.124	263886	keystroke_t	t	n/a
132.0225	0.2015	264045	keystroke_i	i	n/a
132.078	0.157	264156	keystroke_o	o	n/a
132.1455	0.146	264291	keystroke_n	n	n/a
132.348	0.1125	264696	keystroke_a	a	n/a
132.4725	0.089	264945	keystroke_l	l	n/a
132.708	0.1125	265416	keystroke_Key.enter	Key.enter	n/a
132.8245	4.688	265649	prompt	n/a	time madonna suppliers periodic\n
133.462	0.1015	266924	keystroke_t	t	n/a
133.5405	0.1235	267081	keystroke_i	i	n/a
133.608	0.1125	267216	keystroke_m	m	n/a
133.6755	0.101	267351	keystroke_e	e	n/a
133.7875	0.169	267575	keystroke_Key.space	Key.space	n/a
133.878	0.1235	267756	keystroke_m	m	n/a
133.968	0.1235	267936	keystroke_a	a	n/a
134.069	0.0905	268138	keystroke_d	d	n/a
134.193	0.135	268386	keystroke_o	o	n/a
134.272	0.112	268544	keystroke_n	n	n/a
134.621	0.123	269242	keystroke_n	n	n/a
134.9015	0.1125	269803	keystroke_a	a	n/a
135.0255	0.1235	270051	keystroke_Key.space	Key.space	n/a
135.296	0.0895	270592	keystroke_s	s	n/a
135.363	0.112	270726	keystroke_u	u	n/a
135.464	0.0785	270928	keystroke_p	p	n/a
135.644	0.0675	271288	keystroke_p	p	n/a
135.8135	0.168	271627	keystroke_l	l	n/a
135.8915	0.135	271783	keystroke_i	i	n/a
135.948	0.236	271896	keystroke_e	e	n/a
136.027	0.146	272054	keystroke_r	r	n/a
136.128	0.1125	272256	keystroke_s	s	n/a
136.2065	0.1465	272413	keystroke_Key.space	Key.space	n/a
136.3415	0.135	272683	keystroke_p	p	n/a
136.454	0.124	272908	keystroke_e	e	n/a
136.5225	0.123	273045	keystroke_r	r	n/a
136.6005	0.1575	273201	keystroke_i	i	n/a
136.713	0.1125	273426	keystroke_o	o	n/a
136.8705	0.09	273741	keystroke_d	d	n/a
137.028	0.135	274056	keystroke_i	i	n/a
137.1855	0.101	274371	keystroke_c	c	n/a
137.4105	0.101	274821	keystroke_Key.enter	Key.enter	n/a
137.516	5.442	275032	prompt	n/a	antivirus landscape accessing oliver\n
138.0515	0.124	276103	keystroke_a	a	n/a
138.209	0.113	276418	keystroke_n	n	n/a
138.344	0.1015	276688	keystroke_t	t	n/a
138.4565	0.09	276913	keystroke_i	i	n/a
138.603	0.1125	277206	keystroke_v	v	n/a
138.7265	0.135	277453	keystroke_i	i	n/a
138.9065	0.1125	277813	keystroke_r	r	n/a
139.0305	0.079	278061	keystroke_u	u	n/a
139.155	0.078	278310	keystroke_s	s	n/a
139.2665	0.1125	278533	keystroke_Key.space	Key.space	n/a
139.357	0.1235	278714	keystroke_l	l	n/a
139.4695	0.1125	278939	keystroke_a	a	n/a
139.593	0.09	279186	keystroke_n	n	n/a
139.672	0.1125	279344	keystroke_d	d	n/a
139.874	0.1015	279748	keystroke_s	s	n/a
140.1105	0.102	280221	keystroke_c	c	n/a
140.212	0.101	280424	keystroke_a	a	n/a
140.347	0.101	280694	keystroke_p	p	n/a
140.4595	0.079	280919	keystroke_e	e	n/a
140.5605	0.135	281121	keystroke_Key.space	Key.space	n/a
140.7295	0.101	281459	keystroke_a	a	n/a
140.9555	0.089	281911	keystroke_c	c	n/a
141.1115	0.09	282223	keystroke_c	c	n/a
141.303	0.124	282606	keystroke_e	e	n/a
141.3705	0.1015	282741	keystroke_s	s	n/a
141.5625	0.078	283125	keystroke_s	s	n/a
141.618	0.146	283236	keystroke_i	i	n/a
141.697	0.112	283394	keystroke_n	n	n/a
141.7755	0.101	283551	keystroke_g	g	n/a
141.877	0.1685	283754	keystroke_Key.space	Key.space	n/a
142.0115	0.1125	284023	keystroke_o	o	n/a
142.248	0.18	284496	keystroke_l	l	n/a
142.3385	0.1345	284677	keystroke_i	i	n/a
142.4615	0.09	284923	keystroke_v	v	n/a
142.608	0.146	285216	keystroke_e	e	n/a
142.709	0.135	285418	keystroke_r	r	n/a
142.856	0.1005	285712	keystroke_Key.enter	Key.enter	n/a
142.961	4.6655	285922	prompt	n/a	killed because brunei helpful\n
143.5305	0.079	287061	keystroke_k	k	n/a
143.733	0.135	287466	keystroke_i	i	n/a
143.812	0.09	287624	keystroke_l	l	n/a
144.003	0.124	288006	keystroke_l	l	n/a
144.0705	0.101	288141	keystroke_e	e	n/a
144.2845	0.0785	288569	keystroke_d	d	n/a
144.408	0.124	288816	keystroke_Key.space	Key.space	n/a
144.498	0.1015	288996	keystroke_b	b	n/a
144.6555	0.0675	289311	keystroke_e	e	n/a
144.858	0.124	289716	keystroke_c	c	n/a
144.9815	0.1125	289963	keystroke_a	a	n/a
145.128	0.1125	290256	keystroke_u	u	n/a
145.2295	0.112	290459	keystroke_s	s	n/a
145.2855	0.0785	290571	keystroke_e	e	n/a
145.3865	0.135	290773	keystroke_Key.space	Key.space	n/a
145.533	0.0785	291066	keystroke_b	b	n/a
145.7355	0.101	291471	keystroke_r	r	n/a
145.848	0.0785	291696	keystroke_u	u	n/a
146.039	0.0795	292078	keystroke_n	n	n/a
146.186	0.101	292372	keystroke_e	e	n/a
146.3315	0.135	292663	keystroke_i	i	n/a
146.4335	0.123	292867	keystroke_Key.space	Key.space	n/a
146.636	0.1005	293272	keystroke_h	h	n/a
146.7705	0.1125	293541	keystroke_e	e	n/a
146.8725	0.123	293745	keystroke_l	l	n/a
146.939	0.102	293878	keystroke_p	p	n/a
147.0515	0.124	294103	keystroke_f	f	n/a
147.1415	0.1355	294283	keystroke_u	u	n/a
147.232	0.124	294464	keystroke_l	l	n/a
147.524	0.1015	295048	keystroke_Key.enter	Key.enter	n/a
147.6295	4.8685	295259	prompt	n/a	effects offered finland rentals\n
148.2895	0.1125	296579	keystroke_e	e	n/a
148.368	0.09	296736	keystroke_f	f	n/a
148.548	0.124	297096	keystroke_f	f	n/a
148.627	0.101	297254	keystroke_e	e	n/a
148.8295	0.0785	297659	keystroke_c	c	n/a
148.9755	0.1245	297951	keystroke_t	t	n/a
149.0545	0.1125	298109	keystroke_s	s	n/a
149.178	0.124	298356	keystroke_Key.space	Key.space	n/a
149.2345	0.1235	298469	keystroke_o	o	n/a
149.313	0.0675	298626	keystroke_f	f	n/a
149.505	0.067	299010	keystroke_f	f	n/a
149.6055	0.124	299211	keystroke_e	e	n/a
149.718	0.18	299436	keystroke_r	r	n/a
149.8195	0.1235	299639	keystroke_e	e	n/a
150.0445	0.0675	300089	keystroke_d	d	n/a
150.168	0.101	300336	keystroke_Key.space	Key.space	n/a
150.2465	0.1125	300493	keystroke_f	f	n/a
150.3715	0.179	300743	keystroke_i	i	n/a
150.483	0.1465	300966	keystroke_n	n	n/a
150.764	0.1245	301528	keystroke_l	l	n/a
150.933	0.1235	301866	keystroke_a	a	n/a
151.035	0.1005	302070	keystroke_n	n	n/a
151.1355	0.09	302271	keystroke_d	d	n/a
151.248	0.135	302496	keystroke_Key.space	Key.space	n/a
151.3605	0.1235	302721	keystroke_r	r	n/a
151.428	0.124	302856	keystroke_e	e	n/a
151.5405	0.124	303081	keystroke_n	n	n/a
151.6305	0.169	303261	keystroke_t	t	n/a
151.7555	0.1005	303511	keystroke_a	a	n/a
151.833	0.135	303666	keystroke_l	l	n/a
151.9905	0.09	303981	keystroke_s	s	n/a
152.3955	0.1015	304791	keystroke_Key.enter	Key.enter	n/a
152.501	5.285	305002	prompt	n/a	rate passage projected consistently\n
153.2505	0.1125	306501	keystroke_r	r	n/a
153.3745	0.112	306749	keystroke_a	a	n/a
153.4755	0.135	306951	keystroke_t	t	n/a
153.555	0.1005	307110	keystroke_e	e	n/a
153.768	0.1125	307536	keystroke_Key.space	Key.space	n/a
153.9715	0.1455	307943	keystroke_p	p	n/a
154.0495	0.1125	308099	keystroke_a	a	n/a
154.1055	0.09	308211	keystroke_s	s	n/a
154.297	0.0675	308594	keystroke_s	s	n/a
154.4095	0.1015	308819	keystroke_a	a	n/a
154.4995	0.1345	308999	keystroke_g	g	n/a
154.6005	0.0675	309201	keystroke_e	e	n/a
154.6795	0.112	309359	keystroke_Key.space	Key.space	n/a
154.8035	0.102	309607	keystroke_p	p	n/a
154.882	0.135	309764	keystroke_r	r	n/a
154.9945	0.191	309989	keystroke_o	o	n/a
155.0735	0.1685	310147	keystroke_j	j	n/a
155.152	0.09	310304	keystroke_e	e	n/a
155.3435	0.0675	310687	keystroke_c	c	n/a
155.5235	0.09	311047	keystroke_t	t	n/a
155.5795	0.0675	311159	keystroke_e	e	n/a
155.7595	0.0675	311519	keystroke_d	d	n/a
155.9055	0.0675	311811	keystroke_Key.space	Key.space	n/a
156.018	0.113	312036	keystroke_c	c	n/a
156.1195	0.146	312239	keystroke_o	o	n/a
156.198	0.1125	312396	keystroke_n	n	n/a
156.2995	0.101	312599	keystroke_s	s	n/a
156.4345	0.135	312869	keystroke_i	i	n/a
156.5805	0.135	313161	keystroke_s	s	n/a
156.7265	0.1465	313453	keystroke_t	t	n/a
156.862	0.101	313724	keystroke_e	e	n/a
156.997	0.09	313994	keystroke_n	n	n/a
157.088	0.1225	314176	keystroke_t	t	n/a
157.1995	0.18	314399	keystroke_l	l	n/a
157.3005	0.1125	314601	keystroke_y	y	n/a
157.683	0.1015	315366	keystroke_Key.enter	Key.enter	n/a
157.7915	7.059	315583	prompt	n/a	investigations static valves recommendations\n
158.4715	0.1115	316943	keystroke_i	i	n/a
158.527	0.1685	317054	keystroke_n	n	n/a
158.6625	0.067	317325	keystroke_v	v	n/a
158.763	0.135	317526	keystroke_e	e	n/a
158.8755	0.124	317751	keystroke_s	s	n/a
158.9885	0.101	317977	keystroke_t	t	n/a
159.101	0.112	318202	keystroke_i	i	n/a
159.2245	0.1165	318449	keystroke_g	g	n/a
159.3825	0.1575	318765	keystroke_a	a	n/a
159.4605	0.135	318921	keystroke_t	t	n/a
159.5505	0.2255	319101	keystroke_i	i	n/a
159.63	0.158	319260	keystroke_o	o	n/a
159.6855	0.1465	319371	keystroke_n	n	n/a
159.798	0.079	319596	keystroke_s	s	n/a
159.888	0.18	319776	keystroke_Key.space	Key.space	n/a
160.1355	0.1465	320271	keystroke_s	s	n/a
160.271	0.0675	320542	keystroke_t	t	n/a
160.372	0.1235	320744	keystroke_a	a	n/a
160.4625	0.112	320925	keystroke_t	t	n/a
160.5405	0.1125	321081	keystroke_i	i	n/a
161.1145	0.101	322229	keystroke_c	c	n/a
161.328	0.1575	322656	keystroke_Key.space	Key.space	n/a
161.497	0.124	322994	keystroke_v	v	n/a
161.632	0.1235	323264	keystroke_a	a	n/a
161.726	0.131	323452	keystroke_l	l	n/a
161.8455	0.09	323691	keystroke_v	v	n/a
162.0255	0.135	324051	keystroke_e	e	n/a
162.093	0.1245	324186	keystroke_s	s	n/a
162.206	0.157	324412	keystroke_Key.space	Key.space	n/a
162.3405	0.124	324681	keystroke_r	r	n/a
162.4305	0.0675	324861	keystroke_e	e	n/a
162.622	0.09	325244	keystroke_c	c	n/a
162.757	0.146	325514	keystroke_o	o	n/a
162.847	0.1245	325694	keystroke_m	m	n/a
163.1285	0.1125	326257	keystroke_m	m	n/a
163.297	0.1125	326594	keystroke_e	e	n/a
163.4215	0.1115	326843	keystroke_n	n	n/a
163.522	0.09	327044	keystroke_d	d	n/a
163.927	0.135	327854	keystroke_a	a	n/a
164.0845	0.09	328169	keystroke_t	t	n/a
164.208	0.2365	328416	keystroke_i	i	n/a
164.2875	0.168	328575	keystroke_o	o	n/a
164.3655	0.1465	328731	keystroke_n	n	n/a
164.5005	0.1015	329001	keystroke_s	s	n/a
164.7375	0.112	329475	keystroke_Key.enter	Key.enter	n/a
164.8535	4.632	329707	prompt	n/a	output ripe gift fighting\n
165.6255	0.124	331251	keystroke_o	o	n/a
165.7045	0.1125	331409	keystroke_u	u	n/a
165.806	0.0895	331612	keystroke_t	t	n/a
166.1995	0.1575	332399	keystroke_p	p	n/a
166.256	0.1235	332512	keystroke_u	u	n/a
166.413	0.113	332826	keystroke_t	t	n/a
166.5375	0.101	333075	keystroke_Key.space	Key.space	n/a
166.6495	0.101	333299	keystroke_r	r	n/a
166.7395	0.169	333479	keystroke_i	i	n/a
166.897	0.124	333794	keystroke_p	p	n/a
167.032	0.09	334064	keystroke_e	e	n/a
167.167	0.101	334334	keystroke_Key.space	Key.space	n/a
167.257	0.0675	334514	keystroke_d	d	n/a
167.5605	0.079	335121	keystroke_Key.backspace	Key.backspace	n/a
167.7635	0.0895	335527	keystroke_g	g	n/a
167.8535	0.1125	335707	keystroke_i	i	n/a
167.988	0.079	335976	keystroke_f	f	n/a
168.1795	0.079	336359	keystroke_t	t	n/a
168.2695	0.124	336539	keystroke_Key.space	Key.space	n/a
168.382	0.101	336764	keystroke_f	f	n/a
168.4945	0.1125	336989	keystroke_i	i	n/a
168.6295	0.1015	337259	keystroke_g	g	n/a
168.7315	0.1455	337463	keystroke_h	h	n/a
168.8885	0.09	337777	keystroke_t	t	n/a
168.9895	0.124	337979	keystroke_i	i	n/a
169.068	0.136	338136	keystroke_n	n	n/a
169.204	0.0665	338408	keystroke_g	g	n/a
169.383	0.1015	338766	keystroke_Key.enter	Key.enter	n/a
169.4885	5.746	338977	prompt	n/a	threaded accepts sustained instructional\n
170.1485	0.101	340297	keystroke_t	t	n/a
170.272	0.101	340544	keystroke_h	h	n/a
170.385	0.1125	340770	keystroke_r	r	n/a
170.43	0.146	340860	keystroke_e	e	n/a
170.5755	0.1575	341151	keystroke_a	a	n/a
170.7555	0.09	341511	keystroke_d	d	n/a
170.958	0.0675	341916	keystroke_e	e	n/a
171.127	0.08	342254	keystroke_d	d	n/a
171.2505	0.135	342501	keystroke_Key.space	Key.space	n/a
171.307	0.1235	342614	keystroke_a	a	n/a
171.4875	0.101	342975	keystroke_c	c	n/a
171.6895	0.0675	343379	keystroke_c	c	n/a
171.892	0.079	343784	keystroke_e	e	n/a
172.0045	0.1465	344009	keystroke_p	p	n/a
172.1395	0.09	344279	keystroke_t	t	n/a
172.1845	0.079	344369	keystroke_s	s	n/a
172.3085	0.101	344617	keystroke_Key.space	Key.space	n/a
172.3985	0.067	344797	keystroke_s	s	n/a
172.522	0.1125	345044	keystroke_u	u	n/a
172.612	0.1015	345224	keystroke_s	s	n/a
172.702	0.124	345404	keystroke_t	t	n/a
172.8375	0.1455	345675	keystroke_a	a	n/a
172.972	0.135	345944	keystroke_i	i	n/a
173.0285	0.146	346057	keystroke_n	n	n/a
173.118	0.1015	346236	keystroke_e	e	n/a
173.3215	0.067	346643	keystroke_d	d	n/a
173.3995	0.1015	346799	keystroke_Key.space	Key.space	n/a
173.5345	0.1575	347069	keystroke_i	i	n/a
173.602	0.1575	347204	keystroke_n	n	n/a
173.6695	0.102	347339	keystroke_s	s	n/a
173.7485	0.09	347497	keystroke_t	t	n/a
173.951	0.0785	347902	keystroke_r	r	n/a
174.041	0.0675	348082	keystroke_u	u	n/a
174.154	0.078	348308	keystroke_c	c	n/a
174.3445	0.09	348689	keystroke_t	t	n/a
174.4005	0.2255	348801	keystroke_i	i	n/a
174.4795	0.1685	348959	keystroke_o	o	n/a
174.5585	0.146	349117	keystroke_n	n	n/a
174.6935	0.0895	349387	keystroke_a	a	n/a
174.8395	0.1015	349679	keystroke_l	l	n/a
175.132	0.101	350264	keystroke_Key.enter	Key.enter	n/a
175.2375	3.89	350475	prompt	n/a	green charge saving headline\n
175.9195	0.068	351839	keystroke_g	g	n/a
176.088	0.1125	352176	keystroke_r	r	n/a
176.1555	0.0675	352311	keystroke_e	e	n/a
176.3245	0.09	352649	keystroke_e	e	n/a
176.392	0.146	352784	keystroke_n	n	n/a
176.493	0.09	352986	keystroke_Key.space	Key.space	n/a
176.5495	0.113	353099	keystroke_c	c	n/a
176.673	0.135	353346	keystroke_h	h	n/a
176.786	0.124	353572	keystroke_a	a	n/a
176.8755	0.057	353751	keystroke_r	r	n/a
177.0445	0.1015	354089	keystroke_g	g	n/a
177.112	0.09	354224	keystroke_e	e	n/a
177.2245	0.135	354449	keystroke_Key.space	Key.space	n/a
177.3145	0.09	354629	keystroke_s	s	n/a
177.472	0.146	354944	keystroke_a	a	n/a
177.607	0.1125	355214	keystroke_v	v	n/a
177.7305	0.113	355461	keystroke_i	i	n/a
177.7875	0.1345	355575	keystroke_n	n	n/a
177.866	0.09	355732	keystroke_g	g	n/a
177.9785	0.1575	355957	keystroke_Key.space	Key.space	n/a
178.1245	0.1235	356249	keystroke_h	h	n/a
178.2145	0.1245	356429	keystroke_e	e	n/a
178.3495	0.124	356699	keystroke_a	a	n/a
178.4395	0.1125	356879	keystroke_d	d	n/a
178.5635	0.191	357127	keystroke_l	l	n/a
178.642	0.1465	357284	keystroke_i	i	n/a
178.7095	0.1465	357419	keystroke_n	n	n/a
178.822	0.09	357644	keystroke_e	e	n/a
179.0245	0.1015	358049	keystroke_Key.enter	Key.enter	n/a
179.13	4.8565	358260	prompt	n/a	appreciation separate fusion estimate\n
179.689	0.1455	359378	keystroke_a	a	n/a
179.8795	0.0905	359759	keystroke_p	p	n/a
180.0705	0.124	360141	keystroke_p	p	n/a
180.1495	0.101	360299	keystroke_r	r	n/a
180.206	0.0785	360412	keystroke_e	e	n/a
180.3975	0.0785	360795	keystroke_c	c	n/a
180.498	0.102	360996	keystroke_i	i	n/a
180.656	0.101	361312	keystroke_a	a	n/a
180.712	0.1465	361424	keystroke_t	t	n/a
180.7795	0.2255	361559	keystroke_i	i	n/a
180.871	0.145	361742	keystroke_o	o	n/a
180.915	0.146	361830	keystroke_n	n	n/a
181.106	0.135	362212	keystroke_Key.space	Key.space	n/a
181.252	0.1465	362504	keystroke_s	s	n/a
181.342	0.169	362684	keystroke_e	e	n/a
181.578	0.1355	363156	keystroke_p	p	n/a
181.6795	0.146	363359	keystroke_a	a	n/a
181.8145	0.146	363629	keystroke_r	r	n/a
181.9495	0.146	363899	keystroke_a	a	n/a
182.0845	0.1465	364169	keystroke_t	t	n/a
182.187	0.1	364374	keystroke_e	e	n/a
182.2755	0.0905	364551	keystroke_Key.space	Key.space	n/a
182.3885	0.101	364777	keystroke_f	f	n/a
182.4785	0.0895	364957	keystroke_u	u	n/a
182.591	0.101	365182	keystroke_s	s	n/a
182.704	0.2355	365408	keystroke_i	i	n/a
182.8045	0.169	365609	keystroke_o	o	n/a
182.8385	0.18	365677	keystroke_n	n	n/a
182.962	0.135	365924	keystroke_Key.space	Key.space	n/a
183.1085	0.113	366217	keystroke_e	e	n/a
183.2545	0.1125	366509	keystroke_s	s	n/a
183.334	0.112	366668	keystroke_t	t	n/a
183.401	0.135	366802	keystroke_i	i	n/a
183.4685	0.1575	366937	keystroke_m	m	n/a
183.5745	0.1075	367149	keystroke_a	a	n/a
183.6595	0.146	367319	keystroke_t	t	n/a
183.7495	0.124	367499	keystroke_e	e	n/a
183.8845	0.101	367769	keystroke_Key.enter	Key.enter	n/a
183.9895	3.912	367979	prompt	n/a	kind mysimon occurs stone\n
184.5485	0.0675	369097	keystroke_k	k	n/a
184.728	0.124	369456	keystroke_i	i	n/a
184.7845	0.136	369569	keystroke_n	n	n/a
185.2345	0.09	370469	keystroke_d	d	n/a
185.3805	0.135	370761	keystroke_Key.space	Key.space	n/a
185.482	0.09	370964	keystroke_m	m	n/a
185.7185	0.0785	371437	keystroke_y	y	n/a
185.8305	0.1125	371661	keystroke_s	s	n/a
185.9545	0.135	371909	keystroke_i	i	n/a
186.0335	0.112	372067	keystroke_m	m	n/a
186.1795	0.1575	372359	keystroke_o	o	n/a
186.281	0.1235	372562	keystroke_n	n	n/a
186.394	0.1005	372788	keystroke_Key.space	Key.space	n/a
186.562	0.1015	373124	keystroke_o	o	n/a
186.652	0.1015	373304	keystroke_c	c	n/a
186.821	0.0675	373642	keystroke_c	c	n/a
186.9445	0.09	373889	keystroke_u	u	n/a
187.001	0.1235	374002	keystroke_r	r	n/a
187.0685	0.1015	374137	keystroke_s	s	n/a
187.17	0.123	374340	keystroke_Key.space	Key.space	n/a
187.271	0.112	374542	keystroke_s	s	n/a
187.3495	0.1125	374699	keystroke_t	t	n/a
187.417	0.135	374834	keystroke_o	o	n/a
187.496	0.1125	374992	keystroke_n	n	n/a
187.62	0.067	375240	keystroke_e	e	n/a
187.8105	0.09	375621	keystroke_Key.enter	Key.enter	n/a
187.9045	5.172	375809	prompt	n/a	facing saddam elevation imaging\n
188.5645	0.1125	377129	keystroke_f	f	n/a
188.6435	0.135	377287	keystroke_a	a	n/a
188.8235	0.112	377647	keystroke_c	c	n/a
188.9585	0.113	377917	keystroke_i	i	n/a
189.0145	0.124	378029	keystroke_n	n	n/a
189.094	0.078	378188	keystroke_g	g	n/a
189.2055	0.1465	378411	keystroke_Key.space	Key.space	n/a
189.2845	0.102	378569	keystroke_s	s	n/a
189.4535	0.146	378907	keystroke_a	a	n/a
189.5885	0.0675	379177	keystroke_d	d	n/a
189.757	0.09	379514	keystroke_d	d	n/a
189.858	0.147	379716	keystroke_a	a	n/a
189.993	0.1245	379986	keystroke_m	m	n/a
190.0605	0.135	380121	keystroke_Key.space	Key.space	n/a
190.3085	0.101	380617	keystroke_e	e	n/a
190.4655	0.147	380931	keystroke_l	l	n/a
190.601	0.0895	381202	keystroke_e	e	n/a
190.8375	0.112	381675	keystroke_v	v	n/a
191.0175	0.146	382035	keystroke_a	a	n/a
191.175	0.123	382350	keystroke_t	t	n/a
191.2755	0.2145	382551	keystroke_i	i	n/a
191.366	0.146	382732	keystroke_o	o	n/a
191.411	0.146	382822	keystroke_n	n	n/a
191.5005	0.1245	383001	keystroke_Key.space	Key.space	n/a
191.6135	0.1575	383227	keystroke_i	i	n/a
191.692	0.146	383384	keystroke_m	m	n/a
191.8275	0.1005	383655	keystroke_a	a	n/a
191.906	0.135	383812	keystroke_g	g	n/a
192.03	0.157	384060	keystroke_i	i	n/a
192.12	0.191	384240	keystroke_n	n	n/a
192.4685	0.1125	384937	keystroke_g	g	n/a
192.93	0.146	385860	keystroke_Key.enter	Key.enter	n/a
193.0795	5.206	386159	prompt	n/a	markets injection termination itself\n
193.897	0.1015	387794	keystroke_m	m	n/a
193.987	0.135	387974	keystroke_a	a	n/a
194.0545	0.124	388109	keystroke_r	r	n/a
194.167	0.1125	388334	keystroke_k	k	n/a
194.257	0.135	388514	keystroke_e	e	n/a
194.381	0.191	388762	keystroke_t	t	n/a
194.5045	0.1015	389009	keystroke_s	s	n/a
194.606	0.1235	389212	keystroke_Key.space	Key.space	n/a
194.763	0.1245	389526	keystroke_i	i	n/a
194.831	0.1125	389662	keystroke_n	n	n/a
195.0445	0.1125	390089	keystroke_j	j	n/a
195.146	0.0905	390292	keystroke_e	e	n/a
195.3485	0.0675	390697	keystroke_c	c	n/a
195.506	0.1125	391012	keystroke_t	t	n/a
195.5735	0.2475	391147	keystroke_i	i	n/a
195.6635	0.1685	391327	keystroke_o	o	n/a
195.709	0.168	391418	keystroke_n	n	n/a
195.7905	0.1315	391581	keystroke_Key.space	Key.space	n/a
195.866	0.101	391732	keystroke_t	t	n/a
196.012	0.1125	392024	keystroke_e	e	n/a
196.091	0.101	392182	keystroke_r	r	n/a
196.17	0.112	392340	keystroke_m	m	n/a
196.3045	0.1465	392609	keystroke_i	i	n/a
196.3945	0.124	392789	keystroke_n	n	n/a
196.53	0.146	393060	keystroke_a	a	n/a
196.62	0.1125	393240	keystroke_t	t	n/a
196.6985	0.2135	393397	keystroke_i	i	n/a
196.7885	0.124	393577	keystroke_o	o	n/a
196.811	0.1685	393622	keystroke_n	n	n/a
197.047	0.1575	394094	keystroke_Key.space	Key.space	n/a
197.3285	0.0785	394657	keystroke_i	i	n/a
197.5535	0.09	395107	keystroke_t	t	n/a
197.6885	0.146	395377	keystroke_s	s	n/a
197.7445	0.124	395489	keystroke_e	e	n/a
197.8795	0.113	395759	keystroke_l	l	n/a
197.992	0.135	395984	keystroke_f	f	n/a
198.161	0.1235	396322	keystroke_Key.enter	Key.enter	n/a
198.289	4.8455	396578	prompt	n/a	licence format ontario pope\n
198.937	0.2025	397874	keystroke_l	l	n/a
199.0495	0.135	398099	keystroke_i	i	n/a
199.162	0.1015	398324	keystroke_c	c	n/a
199.387	0.09	398774	keystroke_e	e	n/a
199.4995	0.1125	398999	keystroke_n	n	n/a
199.6795	0.1015	399359	keystroke_c	c	n/a
199.9045	0.0675	399809	keystroke_e	e	n/a
200.0285	0.09	400057	keystroke_Key.space	Key.space	n/a
200.096	0.1125	400192	keystroke_f	f	n/a
200.22	0.112	400440	keystroke_o	o	n/a
200.3095	0.1245	400619	keystroke_r	r	n/a
200.434	0.112	400868	keystroke_m	m	n/a
200.5235	0.135	401047	keystroke_a	a	n/a
200.603	0.1225	401206	keystroke_t	t	n/a
200.827	0.102	401654	keystroke_Key.space	Key.space	n/a
201.053	0.1455	402106	keystroke_o	o	n/a
201.1315	0.1455	402263	keystroke_n	n	n/a
201.266	0.113	402532	keystroke_t	t	n/a
201.503	0.134	403006	keystroke_a	a	n/a
201.592	0.135	403184	keystroke_r	r	n/a
201.739	0.1795	403478	keystroke_i	i	n/a
201.862	0.1245	403724	keystroke_o	o	n/a
202.0195	0.1015	404039	keystroke_Key.space	Key.space	n/a
202.1545	0.0565	404309	keystroke_p	p	n/a
202.346	0.1575	404692	keystroke_o	o	n/a
202.481	0.1575	404962	keystroke_p	p	n/a
202.8185	0.09	405637	keystroke_e	e	n/a
203.032	0.1015	406064	keystroke_Key.enter	Key.enter	n/a
203.139	4.8665	406278	prompt	n/a	nothing mandate pencil manufactured\n
203.8645	0.1125	407729	keystroke_n	n	n/a
203.966	0.1125	407932	keystroke_o	o	n/a
204.1125	0.1125	408225	keystroke_t	t	n/a
204.191	0.1125	408382	keystroke_h	h	n/a
204.2925	0.1235	408585	keystroke_i	i	n/a
204.371	0.101	408742	keystroke_n	n	n/a
204.4495	0.1015	408899	keystroke_g	g	n/a
204.517	0.1805	409034	keystroke_Key.space	Key.space	n/a
204.6075	0.1235	409215	keystroke_m	m	n/a
204.776	0.1015	409552	keystroke_a	a	n/a
204.855	0.1235	409710	keystroke_n	n	n/a
204.99	0.101	409980	keystroke_d	d	n/a
205.1585	0.124	410317	keystroke_a	a	n/a
205.26	0.1345	410520	keystroke_t	t	n/a
205.3495	0.1015	410699	keystroke_e	e	n/a
205.4175	0.146	410835	keystroke_Key.space	Key.space	n/a
205.5525	0.101	411105	keystroke_p	p	n/a
205.6425	0.112	411285	keystroke_e	e	n/a
205.7435	0.09	411487	keystroke_n	n	n/a
205.89	0.101	411780	keystroke_c	c	n/a
205.957	0.169	411914	keystroke_i	i	n/a
206.036	0.1465	412072	keystroke_l	l	n/a
206.137	0.1575	412274	keystroke_Key.space	Key.space	n/a
206.272	0.101	412544	keystroke_m	m	n/a
206.3625	0.124	412725	keystroke_a	a	n/a
206.475	0.0785	412950	keystroke_n	n	n/a
206.666	0.1125	413332	keystroke_u	u	n/a
206.7895	0.09	413579	keystroke_f	f	n/a
206.857	0.09	413714	keystroke_a	a	n/a
207.0145	0.09	414029	keystroke_c	c	n/a
207.206	0.1135	414412	keystroke_t	t	n/a
207.3295	0.113	414659	keystroke_u	u	n/a
207.431	0.124	414862	keystroke_r	r	n/a
207.4985	0.1125	414997	keystroke_e	e	n/a
207.7235	0.09	415447	keystroke_d	d	n/a
207.8695	0.135	415739	keystroke_Key.enter	Key.enter	n/a
208.0095	6.791	416019	prompt	n/a	pathology bureau hero reveal\n
208.68	0.1345	417360	keystroke_p	p	n/a
208.77	0.112	417540	keystroke_a	a	n/a
208.8595	0.1125	417719	keystroke_t	t	n/a
208.9495	0.1015	417899	keystroke_h	h	n/a
209.017	0.1245	418034	keystroke_o	o	n/a
209.2535	0.056	418507	keystroke_l	l	n/a
209.4225	0.0795	418845	keystroke_o	o	n/a
209.569	0.078	419138	keystroke_g	g	n/a
209.625	0.1465	419250	keystroke_y	y	n/a
209.704	0.135	419408	keystroke_Key.space	Key.space	n/a
209.8045	0.079	419609	keystroke_b	b	n/a
209.9735	0.068	419947	keystroke_e	e	n/a
210.109	0.1125	420218	keystroke_u	u	n/a
210.975	0.067	421950	keystroke_Key.backspace	Key.backspace	n/a
211.279	0.1455	422558	keystroke_Key.backspace	Key.backspace	n/a
211.6165	0.124	423233	keystroke_u	u	n/a
211.7845	0.135	423569	keystroke_r	r	n/a
211.987	0.1915	423974	keystroke_e	e	n/a
212.1445	0.1465	424289	keystroke_a	a	n/a
212.3245	0.124	424649	keystroke_u	u	n/a
212.471	0.09	424942	keystroke_Key.space	Key.space	n/a
212.64	0.1125	425280	keystroke_h	h	n/a
212.719	0.202	425438	keystroke_e	e	n/a
212.8645	0.1355	425729	keystroke_r	r	n/a
212.9885	0.1475	425977	keystroke_o	o	n/a
213.0675	0.191	426135	keystroke_Key.space	Key.space	n/a
213.371	0.1125	426742	keystroke_r	r	n/a
213.596	0.1125	427192	keystroke_e	e	n/a
213.8325	0.101	427665	keystroke_v	v	n/a
214.046	0.18	428092	keystroke_e	e	n/a
214.181	0.1465	428362	keystroke_a	a	n/a
214.3495	0.1365	428699	keystroke_l	l	n/a
214.6985	0.101	429397	keystroke_Key.enter	Key.enter	n/a
214.8035	5.5095	429607	prompt	n/a	fortune quiz color traveller\n
215.43	0.0895	430860	keystroke_f	f	n/a
215.5535	0.0905	431107	keystroke_o	o	n/a
215.6545	0.09	431309	keystroke_r	r	n/a
215.857	0.068	431714	keystroke_t	t	n/a
215.947	0.09	431894	keystroke_u	u	n/a
216.1385	0.079	432277	keystroke_n	n	n/a
216.2285	0.079	432457	keystroke_e	e	n/a
216.296	0.135	432592	keystroke_Key.space	Key.space	n/a
216.7235	0.1125	433447	keystroke_q	q	n/a
216.87	0.146	433740	keystroke_u	u	n/a
217.005	0.146	434010	keystroke_i	i	n/a
217.6685	0.1465	435337	keystroke_z	z	n/a
217.8485	0.09	435697	keystroke_Key.space	Key.space	n/a
217.961	0.1015	435922	keystroke_c	c	n/a
218.051	0.1015	436102	keystroke_o	o	n/a
218.2535	0.091	436507	keystroke_l	l	n/a
218.4565	0.0675	436913	keystroke_o	o	n/a
218.569	0.1015	437138	keystroke_r	r	n/a
218.6585	0.158	437317	keystroke_Key.space	Key.space	n/a
218.805	0.0675	437610	keystroke_t	t	n/a
218.9735	0.1135	437947	keystroke_r	r	n/a
219.0975	0.1235	438195	keystroke_a	a	n/a
219.21	0.1235	438420	keystroke_v	v	n/a
219.311	0.0915	438622	keystroke_e	e	n/a
219.5025	0.0675	439005	keystroke_l	l	n/a
219.6935	0.09	439387	keystroke_l	l	n/a
219.8285	0.169	439657	keystroke_e	e	n/a
219.9635	0.135	439927	keystroke_r	r	n/a
220.1775	0.135	440355	keystroke_Key.enter	Key.enter	n/a
220.3185	11.2675	440637	prompt	n/a	solutions nasdaq enhancements conservation\n
221.1785	0.135	442357	keystroke_s	s	n/a
221.291	0.09	442582	keystroke_o	o	n/a
221.505	0.1575	443010	keystroke_l	l	n/a
221.6175	0.1125	443235	keystroke_u	u	n/a
221.741	0.1355	443482	keystroke_t	t	n/a
221.876	0.214	443752	keystroke_i	i	n/a
221.9325	0.18	443865	keystroke_o	o	n/a
222	0.1235	444000	keystroke_n	n	n/a
222.101	0.09	444202	keystroke_s	s	n/a
222.2035	0.134	444407	keystroke_Key.space	Key.space	n/a
222.405	0.135	444810	keystroke_n	n	n/a
222.5625	0.146	445125	keystroke_a	a	n/a
222.6975	0.101	445395	keystroke_s	s	n/a
223.001	0.135	446002	keystroke_d	d	n/a
223.1475	0.135	446295	keystroke_a	a	n/a
224.0025	0.1015	448005	keystroke_q	q	n/a
224.216	0.1015	448432	keystroke_Key.space	Key.space	n/a
224.3735	0.068	448747	keystroke_e	e	n/a
224.4635	0.0795	448927	keystroke_n	n	n/a
224.756	0.09	449512	keystroke_h	h	n/a
224.9135	0.1125	449827	keystroke_a	a	n/a
225.083	0.112	450166	keystroke_n	n	n/a
225.1835	0.068	450367	keystroke_c	c	n/a
225.375	0.0675	450750	keystroke_e	e	n/a
225.4535	0.09	450907	keystroke_m	m	n/a
225.555	0.101	451110	keystroke_e	e	n/a
225.6675	0.1125	451335	keystroke_n	n	n/a
225.791	0.1465	451582	keystroke_t	t	n/a
225.8585	0.1015	451717	keystroke_s	s	n/a
225.9715	0.146	451943	keystroke_Key.space	Key.space	n/a
226.2865	0.0895	452573	keystroke_c	c	n/a
226.3875	0.191	452775	keystroke_o	o	n/a
226.4885	0.1575	452977	keystroke_n	n	n/a
226.59	0.09	453180	keystroke_v	v	n/a
226.8485	0.1575	453697	keystroke_s	s	n/a
226.894	0.146	453788	keystroke_e	e	n/a
226.9835	0.124	453967	keystroke_r	r	n/a
227.231	0.135	454462	keystroke_v	v	n/a
227.4	0.146	454800	keystroke_a	a	n/a
227.49	0.146	454980	keystroke_t	t	n/a
227.625	0.2475	455250	keystroke_i	i	n/a
227.6925	0.191	455385	keystroke_o	o	n/a
227.771	0.169	455542	keystroke_n	n	n/a
228.84	0.0675	457680	keystroke_Key.backspace	Key.backspace	n/a
229.031	0.0905	458062	keystroke_Key.backspace	Key.backspace	n/a
229.2455	0.09	458491	keystroke_Key.backspace	Key.backspace	n/a
229.7065	0.079	459413	keystroke_Key.backspace	Key.backspace	n/a
230.145	0.0785	460290	keystroke_s	s	n/a
230.3705	0.1345	460741	keystroke_e	e	n/a
230.471	0.1015	460942	keystroke_r	r	n/a
230.696	0.0905	461392	keystroke_v	v	n/a
230.865	0.135	461730	keystroke_a	a	n/a
230.944	0.124	461888	keystroke_t	t	n/a
231.0565	0.2135	462113	keystroke_i	i	n/a
231.124	0.146	462248	keystroke_o	o	n/a
231.191	0.1355	462382	keystroke_n	n	n/a
231.495	0.09	462990	keystroke_Key.enter	Key.enter	n/a
231.59	5.216	463180	prompt	n/a	perry cincinnati enough jimmy\n
232.3055	0.135	464611	keystroke_p	p	n/a
232.395	0.1015	464790	keystroke_e	e	n/a
232.4625	0.09	464925	keystroke_r	r	n/a
232.6425	0.079	465285	keystroke_r	r	n/a
232.7325	0.1365	465465	keystroke_y	y	n/a
232.8	0.124	465600	keystroke_Key.space	Key.space	n/a
232.9235	0.09	465847	keystroke_c	c	n/a
232.991	0.135	465982	keystroke_i	i	n/a
233.0815	0.101	466163	keystroke_n	n	n/a
233.1715	0.112	466343	keystroke_c	c	n/a
233.2725	0.113	466545	keystroke_i	i	n/a
233.5875	0.09	467175	keystroke_n	n	n/a
233.7675	0.101	467535	keystroke_n	n	n/a
233.9135	0.124	467827	keystroke_a	a	n/a
234.0265	0.1235	468053	keystroke_t	t	n/a
234.161	0.1575	468322	keystroke_i	i	n/a
234.42	0.101	468840	keystroke_Key.space	Key.space	n/a
234.5325	0.1125	469065	keystroke_e	e	n/a
234.6345	0.078	469269	keystroke_n	n	n/a
234.7575	0.1575	469515	keystroke_o	o	n/a
234.8365	0.112	469673	keystroke_u	u	n/a
234.96	0.09	469920	keystroke_g	g	n/a
235.0505	0.101	470101	keystroke_h	h	n/a
235.14	0.1015	470280	keystroke_Key.space	Key.space	n/a
235.635	0.113	471270	keystroke_j	j	n/a
235.8715	0.0785	471743	keystroke_u	u	n/a
236.0515	0.067	472103	keystroke_m	m	n/a
236.209	0.0785	472418	keystroke_m	m	n/a
236.4115	0.0785	472823	keystroke_y	y	n/a
236.715	0.09	473430	keystroke_Key.enter	Key.enter	n/a
236.8095	4.6435	473619	prompt	n/a	matter partial libs collecting\n
237.4915	0.1345	474983	keystroke_m	m	n/a
237.5815	0.1235	475163	keystroke_a	a	n/a
237.6715	0.09	475343	keystroke_t	t	n/a
237.8625	0.079	475725	keystroke_t	t	n/a
237.9865	0.1235	475973	keystroke_e	e	n/a
238.0765	0.09	476153	keystroke_r	r	n/a
238.1325	0.158	476265	keystroke_Key.space	Key.space	n/a
238.223	0.1345	476446	keystroke_p	p	n/a
238.2685	0.134	476537	keystroke_a	a	n/a
238.3465	0.09	476693	keystroke_r	r	n/a
238.5265	0.09	477053	keystroke_t	t	n/a
238.594	0.09	477188	keystroke_i	i	n/a
238.729	0.1125	477458	keystroke_a	a	n/a
238.808	0.112	477616	keystroke_l	l	n/a
238.9315	0.135	477863	keystroke_Key.space	Key.space	n/a
239.1	0.18	478200	keystroke_l	l	n/a
239.1685	0.168	478337	keystroke_i	i	n/a
239.314	0.0675	478628	keystroke_b	b	n/a
239.518	0.0885	479036	keystroke_s	s	n/a
239.6965	0.0905	479393	keystroke_Key.space	Key.space	n/a
239.8425	0.1245	479685	keystroke_c	c	n/a
239.9105	0.112	479821	keystroke_o	o	n/a
240.135	0.0565	480270	keystroke_l	l	n/a
240.2925	0.124	480585	keystroke_l	l	n/a
240.3715	0.0785	480743	keystroke_e	e	n/a
240.585	0.0795	481170	keystroke_c	c	n/a
240.799	0.124	481598	keystroke_t	t	n/a
240.9225	0.135	481845	keystroke_i	i	n/a
240.9905	0.1235	481981	keystroke_n	n	n/a
241.1025	0.09	482205	keystroke_g	g	n/a
241.35	0.102	482700	keystroke_Key.enter	Key.enter	n/a
241.4555	4.5645	482911	prompt	n/a	files hundred pierce plug\n
242.2855	0.0885	484571	keystroke_f	f	n/a
242.3625	0.2025	484725	keystroke_i	i	n/a
242.4525	0.1465	484905	keystroke_l	l	n/a
242.554	0.1575	485108	keystroke_e	e	n/a
242.655	0.147	485310	keystroke_s	s	n/a
242.7685	0.1005	485537	keystroke_Key.space	Key.space	n/a
242.88	0.1015	485760	keystroke_h	h	n/a
243.0605	0.0895	486121	keystroke_u	u	n/a
243.2515	0.1125	486503	keystroke_n	n	n/a
243.3425	0.1115	486685	keystroke_d	d	n/a
243.533	0.101	487066	keystroke_r	r	n/a
243.601	0.078	487202	keystroke_e	e	n/a
243.7915	0.079	487583	keystroke_d	d	n/a
243.8815	0.1575	487763	keystroke_Key.space	Key.space	n/a
243.9605	0.146	487921	keystroke_p	p	n/a
244.0615	0.1575	488123	keystroke_i	i	n/a
244.1625	0.1125	488325	keystroke_e	e	n/a
244.444	0.0905	488888	keystroke_r	r	n/a
244.6465	0.09	489293	keystroke_c	c	n/a
244.86	0.0565	489720	keystroke_e	e	n/a
244.995	0.1355	489990	keystroke_Key.space	Key.space	n/a
245.0965	0.1125	490193	keystroke_p	p	n/a
245.344	0.135	490688	keystroke_l	l	n/a
245.5015	0.135	491003	keystroke_u	u	n/a
245.693	0.1125	491386	keystroke_g	g	n/a
245.9065	0.1125	491813	keystroke_Key.enter	Key.enter	n/a
246.023	3.957	492046	prompt	n/a	midnight fallen clerk game\n
246.852	0.1455	493704	keystroke_m	m	n/a
246.9865	0.101	493973	keystroke_i	i	n/a
247.099	0.101	494198	keystroke_d	d	n/a
247.2225	0.102	494445	keystroke_n	n	n/a
247.3015	0.101	494603	keystroke_i	i	n/a
247.414	0.0785	494828	keystroke_g	g	n/a
247.47	0.102	494940	keystroke_h	h	n/a
247.605	0.0675	495210	keystroke_t	t	n/a
247.6505	0.157	495301	keystroke_Key.space	Key.space	n/a
247.8195	0.123	495639	keystroke_f	f	n/a
247.9095	0.1345	495819	keystroke_a	a	n/a
248.0215	0.0675	496043	keystroke_l	l	n/a
248.202	0.0895	496404	keystroke_l	l	n/a
248.2915	0.1015	496583	keystroke_e	e	n/a
248.393	0.157	496786	keystroke_n	n	n/a
248.4945	0.1005	496989	keystroke_Key.space	Key.space	n/a
248.5615	0.1125	497123	keystroke_c	c	n/a
248.6965	0.1355	497393	keystroke_l	l	n/a
248.82	0.1575	497640	keystroke_e	e	n/a
248.922	0.123	497844	keystroke_r	r	n/a
249.0225	0.135	498045	keystroke_k	k	n/a
249.124	0.1685	498248	keystroke_Key.space	Key.space	n/a
249.304	0.1235	498608	keystroke_g	g	n/a
249.451	0.1115	498902	keystroke_a	a	n/a
249.552	0.1235	499104	keystroke_m	m	n/a
249.687	0.0895	499374	keystroke_e	e	n/a
249.8675	0.1115	499735	keystroke_Key.enter	Key.enter	n/a
249.9825	5.949	499965	prompt	n/a	butler expectations technique fighting\n
250.8565	0.0795	501713	keystroke_b	b	n/a
250.969	0.09	501938	keystroke_u	u	n/a
251.0935	0.1115	502187	keystroke_t	t	n/a
251.2165	0.1125	502433	keystroke_l	l	n/a
251.34	0.124	502680	keystroke_e	e	n/a
251.408	0.1235	502816	keystroke_r	r	n/a
251.5205	0.1235	503041	keystroke_Key.space	Key.space	n/a
251.6555	0.1125	503311	keystroke_e	e	n/a
251.8805	0.112	503761	keystroke_x	x	n/a
252.0155	0.169	504031	keystroke_p	p	n/a
252.139	0.09	504278	keystroke_e	e	n/a
252.3415	0.09	504683	keystroke_c	c	n/a
252.5665	0.1125	505133	keystroke_t	t	n/a
252.7125	0.169	505425	keystroke_a	a	n/a
252.8255	0.1345	505651	keystroke_t	t	n/a
252.9825	0.259	505965	keystroke_i	i	n/a
253.0845	0.168	506169	keystroke_o	o	n/a
253.1625	0.136	506325	keystroke_n	n	n/a
253.2865	0.09	506573	keystroke_s	s	n/a
253.354	0.1805	506708	keystroke_Key.space	Key.space	n/a
253.5115	0.135	507023	keystroke_t	t	n/a
253.624	0.1015	507248	keystroke_e	e	n/a
253.849	0.0675	507698	keystroke_c	c	n/a
253.9275	0.0905	507855	keystroke_h	h	n/a
254.119	0.1125	508238	keystroke_n	n	n/a
254.209	0.1235	508418	keystroke_i	i	n/a
254.3675	0.1115	508735	keystroke_q	q	n/a
254.49	0.0905	508980	keystroke_u	u	n/a
254.5915	0.101	509183	keystroke_e	e	n/a
254.7375	0.124	509475	keystroke_Key.space	Key.space	n/a
254.839	0.1125	509678	keystroke_f	f	n/a
254.9625	0.135	509925	keystroke_i	i	n/a
255.109	0.101	510218	keystroke_g	g	n/a
255.199	0.135	510398	keystroke_h	h	n/a
255.346	0.0895	510692	keystroke_t	t	n/a
255.424	0.1465	510848	keystroke_i	i	n/a
255.514	0.124	511028	keystroke_n	n	n/a
255.6265	0.1015	511253	keystroke_g	g	n/a
255.8175	0.113	511635	keystroke_Key.enter	Key.enter	n/a
255.9345	4.9695	511869	prompt	n/a	graphics denied merge example\n
256.684	0.0675	513368	keystroke_g	g	n/a
256.864	0.1575	513728	keystroke_r	r	n/a
256.965	0.1465	513930	keystroke_a	a	n/a
257.0775	0.18	514155	keystroke_p	p	n/a
257.179	0.2135	514358	keystroke_h	h	n/a
257.404	0.1575	514808	keystroke_i	i	n/a
257.505	0.09	515010	keystroke_c	c	n/a
257.722	0.0755	515444	keystroke_s	s	n/a
257.854	0.147	515708	keystroke_Key.space	Key.space	n/a
257.944	0.0905	515888	keystroke_d	d	n/a
258.1465	0.0675	516293	keystroke_e	e	n/a
258.2365	0.124	516473	keystroke_n	n	n/a
258.349	0.146	516698	keystroke_i	i	n/a
258.4615	0.1015	516923	keystroke_e	e	n/a
258.6755	0.0785	517351	keystroke_d	d	n/a
258.7875	0.1475	517575	keystroke_Key.space	Key.space	n/a
258.844	0.1575	517688	keystroke_m	m	n/a
258.9565	0.191	517913	keystroke_e	e	n/a
259.114	0.1125	518228	keystroke_r	r	n/a
259.328	0.1235	518656	keystroke_g	g	n/a
259.429	0.101	518858	keystroke_e	e	n/a
259.62	0.124	519240	keystroke_Key.space	Key.space	n/a
259.6765	0.1125	519353	keystroke_e	e	n/a
259.868	0.101	519736	keystroke_x	x	n/a
260.059	0.135	520118	keystroke_a	a	n/a
260.1605	0.157	520321	keystroke_m	m	n/a
260.2615	0.101	520523	keystroke_p	p	n/a
260.4645	0.135	520929	keystroke_l	l	n/a
260.5765	0.101	521153	keystroke_e	e	n/a
260.8015	0.1015	521603	keystroke_Key.enter	Key.enter	n/a
260.907	7.3445	521814	prompt	n/a	pittsburgh describing deficit restoration\n
261.623	0.1155	523246	keystroke_p	p	n/a
261.8145	0.1345	523629	keystroke_i	i	n/a
261.916	0.0895	523832	keystroke_t	t	n/a
262.118	0.0905	524236	keystroke_t	t	n/a
262.298	0.101	524596	keystroke_s	s	n/a
262.579	0.1015	525158	keystroke_b	b	n/a
262.714	0.1355	525428	keystroke_u	u	n/a
262.861	0.078	525722	keystroke_r	r	n/a
263.074	0.079	526148	keystroke_g	g	n/a
263.1535	0.157	526307	keystroke_h	h	n/a
263.2435	0.1455	526487	keystroke_Key.space	Key.space	n/a
263.333	0.101	526666	keystroke_d	d	n/a
263.5355	0.09	527071	keystroke_e	e	n/a
263.7265	0.113	527453	keystroke_s	s	n/a
263.952	0.067	527904	keystroke_c	c	n/a
264.1325	0.1005	528265	keystroke_r	r	n/a
264.2895	0.09	528579	keystroke_i	i	n/a
264.4245	0.1125	528849	keystroke_b	b	n/a
264.548	0.1465	529096	keystroke_i	i	n/a
264.6265	0.135	529253	keystroke_n	n	n/a
264.7055	0.09	529411	keystroke_g	g	n/a
264.8405	0.1685	529681	keystroke_Key.space	Key.space	n/a
264.953	0.09	529906	keystroke_d	d	n/a
265.167	0.146	530334	keystroke_e	e	n/a
265.3015	0.124	530603	keystroke_f	f	n/a
265.4365	0.1015	530873	keystroke_i	i	n/a
265.5835	0.112	531167	keystroke_c	c	n/a
265.7065	0.135	531413	keystroke_i	i	n/a
265.864	0.079	531728	keystroke_t	t	n/a
266.3035	0.1455	532607	keystroke_Key.space	Key.space	n/a
266.5285	0.1455	533057	keystroke_r	r	n/a
266.6965	0.135	533393	keystroke_e	e	n/a
266.9215	0.09	533843	keystroke_s	s	n/a
266.989	0.1015	533978	keystroke_t	t	n/a
267.1015	0.1465	534203	keystroke_o	o	n/a
267.2365	0.124	534473	keystroke_r	r	n/a
267.394	0.158	534788	keystroke_a	a	n/a
267.5065	0.1355	535013	keystroke_t	t	n/a
267.6305	0.2475	535261	keystroke_i	i	n/a
267.7095	0.1795	535419	keystroke_o	o	n/a
267.8005	0.1565	535601	keystroke_n	n	n/a
268.148	0.1025	536296	keystroke_Key.enter	Key.enter	n/a
268.2545	5.981	536509	prompt	n/a	moving discusses applications operators\n
268.9465	0.045	537893	keystroke_m	m	n/a
268.958	0.113	537916	keystroke_o	o	n/a
269.138	0.1015	538276	keystroke_v	v	n/a
269.2505	0.135	538501	keystroke_i	i	n/a
269.3065	0.124	538613	keystroke_n	n	n/a
269.3855	0.0905	538771	keystroke_g	g	n/a
269.509	0.1125	539018	keystroke_Key.space	Key.space	n/a
269.656	0.112	539312	keystroke_d	d	n/a
269.7455	0.1125	539491	keystroke_i	i	n/a
269.869	0.102	539738	keystroke_s	s	n/a
270.0835	0.1355	540167	keystroke_c	c	n/a
270.207	0.1015	540414	keystroke_u	u	n/a
270.454	0.09	540908	keystroke_s	s	n/a
270.6685	0.0895	541337	keystroke_s	s	n/a
270.848	0.1695	541696	keystroke_e	e	n/a
270.9265	0.124	541853	keystroke_s	s	n/a
271.1065	0.09	542213	keystroke_Key.space	Key.space	n/a
271.208	0.1125	542416	keystroke_a	a	n/a
271.332	0.067	542664	keystroke_p	p	n/a
271.5235	0.09	543047	keystroke_p	p	n/a
271.748	0.236	543496	keystroke_l	l	n/a
271.894	0.1465	543788	keystroke_i	i	n/a
272.074	0.102	544148	keystroke_c	c	n/a
272.2655	0.1355	544531	keystroke_a	a	n/a
272.3555	0.135	544711	keystroke_t	t	n/a
272.4795	0.2365	544959	keystroke_i	i	n/a
272.5585	0.168	545117	keystroke_o	o	n/a
272.6145	0.1695	545229	keystroke_n	n	n/a
272.761	0.0895	545522	keystroke_s	s	n/a
272.8615	0.1575	545723	keystroke_Key.space	Key.space	n/a
272.9745	0.191	545949	keystroke_o	o	n/a
273.0755	0.2025	546151	keystroke_p	p	n/a
273.1995	0.1345	546399	keystroke_e	e	n/a
273.289	0.135	546578	keystroke_r	r	n/a
273.469	0.124	546938	keystroke_a	a	n/a
273.548	0.1125	547096	keystroke_t	t	n/a
273.6715	0.113	547343	keystroke_o	o	n/a
273.773	0.18	547546	keystroke_r	r	n/a
273.8855	0.1465	547771	keystroke_s	s	n/a
274.134	0.1	548268	keystroke_Key.enter	Key.enter	n/a
274.2385	5.2395	548477	prompt	n/a	theology defects stomach treated\n
274.8305	0.1125	549661	keystroke_t	t	n/a
274.9315	0.1125	549863	keystroke_h	h	n/a
275.0215	0.1015	550043	keystroke_e	e	n/a
275.179	0.09	550358	keystroke_o	o	n/a
275.404	0.0675	550808	keystroke_l	l	n/a
275.5955	0.0675	551191	keystroke_o	o	n/a
275.742	0.0895	551484	keystroke_g	g	n/a
275.809	0.135	551618	keystroke_y	y	n/a
275.888	0.1465	551776	keystroke_Key.space	Key.space	n/a
275.967	0.1015	551934	keystroke_d	d	n/a
276.1915	0.135	552383	keystroke_e	e	n/a
276.338	0.146	552676	keystroke_f	f	n/a
276.4955	0.1125	552991	keystroke_e	e	n/a
276.7205	0.09	553441	keystroke_c	c	n/a
276.9005	0.1355	553801	keystroke_t	t	n/a
276.979	0.09	553958	keystroke_s	s	n/a
277.092	0.158	554184	keystroke_Key.space	Key.space	n/a
277.25	0.089	554500	keystroke_s	s	n/a
277.4405	0.09	554881	keystroke_t	t	n/a
277.5415	0.18	555083	keystroke_o	o	n/a
277.632	0.1365	555264	keystroke_m	m	n/a
277.744	0.102	555488	keystroke_a	a	n/a
277.958	0.0905	555916	keystroke_c	c	n/a
278.014	0.1575	556028	keystroke_h	h	n/a
278.127	0.1235	556254	keystroke_Key.space	Key.space	n/a
278.2285	0.1125	556457	keystroke_t	t	n/a
278.442	0.146	556884	keystroke_r	r	n/a
278.532	0.169	557064	keystroke_e	e	n/a
278.723	0.1915	557446	keystroke_a	a	n/a
278.8695	0.169	557739	keystroke_t	t	n/a
278.971	0.113	557942	keystroke_e	e	n/a
279.1955	0.079	558391	keystroke_d	d	n/a
279.353	0.1235	558706	keystroke_Key.enter	Key.enter	n/a
279.481	7.523	558962	prompt	n/a	exhaust implementation compensation challenging\n
280.0955	0.135	560191	keystroke_e	e	n/a
280.343	0.09	560686	keystroke_x	x	n/a
280.4895	0.101	560979	keystroke_h	h	n/a
280.658	0.09	561316	keystroke_a	a	n/a
280.7365	0.124	561473	keystroke_u	u	n/a
280.872	0.1465	561744	keystroke_s	s	n/a
281.029	0.113	562058	keystroke_t	t	n/a
281.198	0.146	562396	keystroke_Key.space	Key.space	n/a
281.333	0.1015	562666	keystroke_e	e	n/a
281.6595	0.0785	563319	keystroke_Key.backspace	Key.backspace	n/a
281.907	0.1235	563814	keystroke_i	i	n/a
282.0755	0.18	564151	keystroke_m	m	n/a
282.2105	0.1125	564421	keystroke_p	p	n/a
282.402	0.146	564804	keystroke_l	l	n/a
282.5935	0.067	565187	keystroke_e	e	n/a
282.6835	0.123	565367	keystroke_m	m	n/a
282.7955	0.1235	565591	keystroke_e	e	n/a
282.9305	0.136	565861	keystroke_n	n	n/a
283.0765	0.1355	566153	keystroke_t	t	n/a
283.257	0.214	566514	keystroke_a	a	n/a
283.392	0.158	566784	keystroke_t	t	n/a
283.5385	0.2355	567077	keystroke_i	i	n/a
283.617	0.1685	567234	keystroke_o	o	n/a
283.6955	0.1465	567391	keystroke_n	n	n/a
283.808	0.124	567616	keystroke_Key.space	Key.space	n/a
283.9545	0.112	567909	keystroke_c	c	n/a
284.0445	0.225	568089	keystroke_o	o	n/a
284.1345	0.1685	568269	keystroke_m	m	n/a
284.202	0.1795	568404	keystroke_p	p	n/a
284.348	0.124	568696	keystroke_e	e	n/a
284.517	0.1125	569034	keystroke_n	n	n/a
284.6855	0.101	569371	keystroke_s	s	n/a
284.888	0.1235	569776	keystroke_a	a	n/a
285.0005	0.124	570001	keystroke_t	t	n/a
285.147	0.236	570294	keystroke_i	i	n/a
285.203	0.1805	570406	keystroke_o	o	n/a
285.283	0.1565	570566	keystroke_n	n	n/a
285.3945	0.101	570789	keystroke_Key.space	Key.space	n/a
285.5185	0.101	571037	keystroke_c	c	n/a
285.5855	0.135	571171	keystroke_h	h	n/a
285.7545	0.112	571509	keystroke_a	a	n/a
285.833	0.09	571666	keystroke_l	l	n/a
286.0245	0.09	572049	keystroke_l	l	n/a
286.1145	0.1015	572229	keystroke_e	e	n/a
286.2265	0.1355	572453	keystroke_n	n	n/a
286.373	0.1015	572746	keystroke_g	g	n/a
286.497	0.124	572994	keystroke_i	i	n/a
286.5645	0.146	573129	keystroke_n	n	n/a
286.677	0.1125	573354	keystroke_g	g	n/a
286.891	0.112	573782	keystroke_Key.enter	Key.enter	n/a
287.007	6.1965	574014	prompt	n/a	wear spatial carriers me\n
287.757	0.101	575514	keystroke_w	w	n/a
287.9705	0.124	575941	keystroke_e	e	n/a
288.173	0.1915	576346	keystroke_a	a	n/a
288.3305	0.124	576661	keystroke_r	r	n/a
288.5215	0.1355	577043	keystroke_Key.space	Key.space	n/a
288.657	0.101	577314	keystroke_s	s	n/a
288.803	0.18	577606	keystroke_p	p	n/a
288.9605	0.124	577921	keystroke_a	a	n/a
289.096	0.146	578192	keystroke_t	t	n/a
289.2305	0.1125	578461	keystroke_i	i	n/a
289.3665	0.1115	578733	keystroke_e	e	n/a
289.489	0.169	578978	keystroke_l	l	n/a
289.5795	0.1575	579159	keystroke_Key.space	Key.space	n/a
290.378	0.09	580756	keystroke_Key.backspace	Key.backspace	n/a
290.6255	0.045	581251	keystroke_Key.backspace	Key.backspace	n/a
290.8055	0.09	581611	keystroke_Key.backspace	Key.backspace	n/a
291.0755	0.124	582151	keystroke_a	a	n/a
291.2445	0.2025	582489	keystroke_l	l	n/a
291.3795	0.157	582759	keystroke_Key.space	Key.space	n/a
291.5145	0.1125	583029	keystroke_c	c	n/a
291.7285	0.101	583457	keystroke_a	a	n/a
291.7845	0.1015	583569	keystroke_r	r	n/a
291.998	0.1465	583996	keystroke_r	r	n/a
292.1555	0.1355	584311	keystroke_i	i	n/a
292.257	0.1235	584514	keystroke_e	e	n/a
292.336	0.202	584672	keystroke_r	r	n/a
292.437	0.135	584874	keystroke_s	s	n/a
292.561	0.1685	585122	keystroke_Key.space	Key.space	n/a
292.707	0.1235	585414	keystroke_m	m	n/a
292.842	0.091	585684	keystroke_e	e	n/a
293.0895	0.1125	586179	keystroke_Key.enter	Key.enter	n/a
293.2085	4.225	586417	prompt	n/a	flyer tests schedules writes\n
293.843	0.09	587686	keystroke_f	f	n/a
293.9555	0.1915	587911	keystroke_l	l	n/a
294.068	0.124	588136	keystroke_y	y	n/a
294.3605	0.135	588721	keystroke_e	e	n/a
294.4505	0.124	588901	keystroke_r	r	n/a
294.586	0.1795	589172	keystroke_Key.space	Key.space	n/a
294.7545	0.1465	589509	keystroke_t	t	n/a
294.8785	0.1685	589757	keystroke_e	e	n/a
295.002	0.147	590004	keystroke_s	s	n/a
295.1255	0.1915	590251	keystroke_t	t	n/a
295.2495	0.101	590499	keystroke_s	s	n/a
295.328	0.1465	590656	keystroke_Key.space	Key.space	n/a
295.463	0.1125	590926	keystroke_s	s	n/a
295.688	0.1125	591376	keystroke_c	c	n/a
295.7895	0.1125	591579	keystroke_h	h	n/a
295.9245	0.0785	591849	keystroke_e	e	n/a
296.105	0.0895	592210	keystroke_d	d	n/a
296.1835	0.1345	592367	keystroke_u	u	n/a
296.2845	0.113	592569	keystroke_l	l	n/a
296.352	0.0785	592704	keystroke_e	e	n/a
296.4425	0.18	592885	keystroke_Key.space	Key.space	n/a
296.6105	0.1125	593221	keystroke_w	w	n/a
296.7005	0.09	593401	keystroke_r	r	n/a
296.8355	0.1245	593671	keystroke_i	i	n/a
296.937	0.1685	593874	keystroke_t	t	n/a
297.005	0.1795	594010	keystroke_e	e	n/a
297.095	0.1455	594190	keystroke_s	s	n/a
297.3085	0.124	594617	keystroke_Key.enter	Key.enter	n/a
297.4365	4.4635	594873	prompt	n/a	belfast adware cheat stocks\n
298.3325	0.1005	596665	keystroke_b	b	n/a
298.5345	0.0785	597069	keystroke_e	e	n/a
298.6585	0.1345	597317	keystroke_l	l	n/a
298.748	0.1465	597496	keystroke_f	f	n/a
298.9055	0.1695	597811	keystroke_a	a	n/a
299.007	0.1685	598014	keystroke_s	s	n/a
299.131	0.112	598262	keystroke_t	t	n/a
299.2205	0.2025	598441	keystroke_Key.space	Key.space	n/a
299.435	0.1455	598870	keystroke_a	a	n/a
299.6255	0.102	599251	keystroke_d	d	n/a
299.828	0.1575	599656	keystroke_w	w	n/a
299.9975	0.135	599995	keystroke_a	a	n/a
300.11	0.146	600220	keystroke_r	r	n/a
300.2105	0.0905	600421	keystroke_e	e	n/a
300.3125	0.123	600625	keystroke_Key.space	Key.space	n/a
300.458	0.091	600916	keystroke_c	c	n/a
300.5705	0.1125	601141	keystroke_h	h	n/a
300.672	0.1235	601344	keystroke_e	e	n/a
300.7845	0.1685	601569	keystroke_a	a	n/a
300.908	0.113	601816	keystroke_t	t	n/a
300.9875	0.1345	601975	keystroke_Key.space	Key.space	n/a
301.0995	0.146	602199	keystroke_s	s	n/a
301.2005	0.124	602401	keystroke_t	t	n/a
301.302	0.1135	602604	keystroke_o	o	n/a
301.4145	0.1125	602829	keystroke_c	c	n/a
301.527	0.1125	603054	keystroke_k	k	n/a
301.6505	0.0905	603301	keystroke_s	s	n/a
301.7855	0.1135	603571	keystroke_Key.enter	Key.enter	n/a
301.9025	3.991	603805	prompt	n/a	money trauma usgs swap\n
302.517	0.1125	605034	keystroke_m	m	n/a
302.641	0.146	605282	keystroke_o	o	n/a
302.742	0.1125	605484	keystroke_n	n	n/a
302.9105	0.079	605821	keystroke_e	e	n/a
303.012	0.135	606024	keystroke_y	y	n/a
303.0905	0.1465	606181	keystroke_Key.space	Key.space	n/a
303.282	0.0785	606564	keystroke_t	t	n/a
303.462	0.146	606924	keystroke_r	r	n/a
303.5635	0.1125	607127	keystroke_a	a	n/a
303.667	0.0875	607334	keystroke_u	u	n/a
303.9455	0.0225	607891	keystroke_m	m	n/a
303.957	0.09	607914	keystroke_a	a	n/a
304.058	0.147	608116	keystroke_Key.space	Key.space	n/a
304.1935	0.112	608387	keystroke_u	u	n/a
304.283	0.0905	608566	keystroke_s	s	n/a
304.4405	0.09	608881	keystroke_g	g	n/a
304.621	0.1015	609242	keystroke_s	s	n/a
304.767	0.1685	609534	keystroke_Key.space	Key.space	n/a
304.958	0.1015	609916	keystroke_s	s	n/a
305.183	0.1015	610366	keystroke_w	w	n/a
305.3855	0.135	610771	keystroke_a	a	n/a
305.5325	0.101	611065	keystroke_p	p	n/a
305.78	0.112	611560	keystroke_Key.enter	Key.enter	n/a
305.8975	5.924	611795	prompt	n/a	designers indicated consideration compatible\n
306.792	0.0785	613584	keystroke_d	d	n/a
306.972	0.146	613944	keystroke_e	e	n/a
307.062	0.124	614124	keystroke_s	s	n/a
307.197	0.1015	614394	keystroke_i	i	n/a
307.3095	0.101	614619	keystroke_g	g	n/a
307.3995	0.135	614799	keystroke_n	n	n/a
307.523	0.113	615046	keystroke_e	e	n/a
307.5905	0.16	615181	keystroke_r	r	n/a
307.681	0.1235	615362	keystroke_s	s	n/a
307.782	0.101	615564	keystroke_Key.space	Key.space	n/a
307.8945	0.146	615789	keystroke_i	i	n/a
307.9845	0.1235	615969	keystroke_n	n	n/a
308.12	0.079	616240	keystroke_d	d	n/a
308.1645	0.1235	616329	keystroke_i	i	n/a
308.3105	0.1125	616621	keystroke_c	c	n/a
308.4455	0.135	616891	keystroke_a	a	n/a
308.547	0.124	617094	keystroke_t	t	n/a
308.626	0.0785	617252	keystroke_e	e	n/a
308.806	0.0785	617612	keystroke_d	d	n/a
308.907	0.135	617814	keystroke_Key.space	Key.space	n/a
309.053	0.0905	618106	keystroke_c	c	n/a
309.1325	0.1235	618265	keystroke_o	o	n/a
309.1995	0.1125	618399	keystroke_n	n	n/a
309.278	0.1015	618556	keystroke_s	s	n/a
309.3905	0.135	618781	keystroke_i	i	n/a
309.492	0.0675	618984	keystroke_d	d	n/a
309.661	0.1235	619322	keystroke_e	e	n/a
309.762	0.1235	619524	keystroke_r	r	n/a
309.92	0.1455	619840	keystroke_a	a	n/a
310.0325	0.112	620065	keystroke_t	t	n/a
310.122	0.225	620244	keystroke_i	i	n/a
310.201	0.157	620402	keystroke_o	o	n/a
310.268	0.124	620536	keystroke_n	n	n/a
310.3585	0.1015	620717	keystroke_s	s	n/a
310.4825	0.1455	620965	keystroke_Key.space	Key.space	n/a
310.6395	0.101	621279	keystroke_c	c	n/a
310.7295	0.2135	621459	keystroke_o	o	n/a
310.8085	0.146	621617	keystroke_m	m	n/a
310.8875	0.1345	621775	keystroke_p	p	n/a
311.011	0.1345	622022	keystroke_a	a	n/a
311.1125	0.1005	622225	keystroke_t	t	n/a
311.2025	0.1125	622405	keystroke_i	i	n/a
311.3375	0.0895	622675	keystroke_b	b	n/a
311.4495	0.1015	622899	keystroke_l	l	n/a
311.562	0.101	623124	keystroke_e	e	n/a
311.7085	0.112	623417	keystroke_Key.enter	Key.enter	n/a
311.8245	5.4985	623649	prompt	n/a	prescribed infinite volumes frank\n
312.496	0.135	624992	keystroke_p	p	n/a
312.642	0.135	625284	keystroke_r	r	n/a
312.743	0.135	625486	keystroke_e	e	n/a
312.9685	0.101	625937	keystroke_s	s	n/a
313.1935	0.0675	626387	keystroke_c	c	n/a
313.3625	0.0895	626725	keystroke_r	r	n/a
313.5195	0.1125	627039	keystroke_i	i	n/a
313.677	0.0785	627354	keystroke_b	b	n/a
313.857	0.0675	627714	keystroke_e	e	n/a
314.037	0.0675	628074	keystroke_d	d	n/a
314.1495	0.1125	628299	keystroke_Key.space	Key.space	n/a
314.318	0.1475	628636	keystroke_i	i	n/a
314.408	0.1245	628816	keystroke_n	n	n/a
314.5435	0.135	629087	keystroke_f	f	n/a
314.6895	0.1125	629379	keystroke_i	i	n/a
314.7795	0.1365	629559	keystroke_n	n	n/a
314.892	0.1465	629784	keystroke_i	i	n/a
315.0275	0.1345	630055	keystroke_t	t	n/a
315.117	0.101	630234	keystroke_e	e	n/a
315.207	0.1245	630414	keystroke_Key.space	Key.space	n/a
315.4435	0.1015	630887	keystroke_v	v	n/a
315.511	0.1125	631022	keystroke_o	o	n/a
315.747	0.132	631494	keystroke_l	l	n/a
315.837	0.1125	631674	keystroke_u	u	n/a
316.0285	0.1125	632057	keystroke_m	m	n/a
316.141	0.146	632282	keystroke_e	e	n/a
316.242	0.1015	632484	keystroke_s	s	n/a
316.3095	0.1575	632619	keystroke_Key.space	Key.space	n/a
316.4445	0.0785	632889	keystroke_f	f	n/a
316.6135	0.1575	633227	keystroke_r	r	n/a
316.7165	0.1105	633433	keystroke_a	a	n/a
316.782	0.1575	633564	keystroke_n	n	n/a
316.9065	0.112	633813	keystroke_k	k	n/a
317.2095	0.1125	634419	keystroke_Key.enter	Key.enter	n/a
317.326	5.6335	634652	prompt	n/a	fifteen allergy macedonia heather\n
317.9295	0.1025	635859	keystroke_f	f	n/a
318.0875	0.1345	636175	keystroke_i	i	n/a
318.2335	0.101	636467	keystroke_f	f	n/a
318.4695	0.1915	636939	keystroke_t	t	n/a
318.6495	0.0225	637299	keystroke_e	e	n/a
318.7845	0.09	637569	keystroke_e	e	n/a
318.9085	0.135	637817	keystroke_n	n	n/a
318.999	0.0895	637998	keystroke_Key.space	Key.space	n/a
319.0545	0.124	638109	keystroke_a	a	n/a
319.167	0.0785	638334	keystroke_l	l	n/a
319.3585	0.146	638717	keystroke_l	l	n/a
319.516	0.146	639032	keystroke_e	e	n/a
319.6395	0.1125	639279	keystroke_r	r	n/a
319.8535	0.101	639707	keystroke_g	g	n/a
319.977	0.135	639954	keystroke_y	y	n/a
320.056	0.1125	640112	keystroke_Key.space	Key.space	n/a
320.248	0.157	640496	keystroke_m	m	n/a
320.4045	0.102	640809	keystroke_a	a	n/a
320.607	0.1015	641214	keystroke_c	c	n/a
320.821	0.056	641642	keystroke_e	e	n/a
321.001	0.0785	642002	keystroke_d	d	n/a
321.136	0.101	642272	keystroke_o	o	n/a
321.3165	0.1005	642633	keystroke_n	n	n/a
321.451	0.1125	642902	keystroke_i	i	n/a
321.597	0.139	643194	keystroke_a	a	n/a
321.6765	0.112	643353	keystroke_Key.space	Key.space	n/a
321.867	0.124	643734	keystroke_h	h	n/a
321.957	0.158	643914	keystroke_e	e	n/a
322.092	0.1465	644184	keystroke_a	a	n/a
322.2045	0.124	644409	keystroke_t	t	n/a
322.3395	0.1125	644679	keystroke_h	h	n/a
322.4635	0.18	644927	keystroke_e	e	n/a
322.5985	0.18	645197	keystroke_r	r	n/a
322.8235	0.135	645647	keystroke_Key.enter	Key.enter	n/a
322.9625	5.2845	645925	prompt	n/a	deficit harper prague elsewhere\n
323.566	0.0785	647132	keystroke_d	d	n/a
323.7685	0.135	647537	keystroke_e	e	n/a
323.8585	0.1465	647717	keystroke_f	f	n/a
324.0275	0.09	648055	keystroke_i	i	n/a
324.151	0.1125	648302	keystroke_c	c	n/a
324.2745	0.1015	648549	keystroke_i	i	n/a
324.3875	0.1235	648775	keystroke_t	t	n/a
324.5225	0.1125	649045	keystroke_Key.space	Key.space	n/a
324.691	0.146	649382	keystroke_h	h	n/a
324.826	0.135	649652	keystroke_a	a	n/a
324.916	0.079	649832	keystroke_r	r	n/a
325.2535	0.191	650507	keystroke_p	p	n/a
325.4335	0.18	650867	keystroke_e	e	n/a
325.546	0.135	651092	keystroke_r	r	n/a
325.681	0.1125	651362	keystroke_Key.space	Key.space	n/a
325.8385	0.169	651677	keystroke_p	p	n/a
325.9735	0.135	651947	keystroke_r	r	n/a
326.1195	0.1465	652239	keystroke_a	a	n/a
326.2775	0.112	652555	keystroke_g	g	n/a
326.3785	0.1015	652757	keystroke_u	u	n/a
326.5135	0.0785	653027	keystroke_e	e	n/a
326.626	0.101	653252	keystroke_Key.space	Key.space	n/a
326.716	0.124	653432	keystroke_e	e	n/a
326.851	0.169	653702	keystroke_l	l	n/a
327.0085	0.1575	654017	keystroke_s	s	n/a
327.0985	0.1465	654197	keystroke_e	e	n/a
327.346	0.102	654692	keystroke_w	w	n/a
327.526	0.159	655052	keystroke_h	h	n/a
327.695	0.1235	655390	keystroke_e	e	n/a
327.7845	0.2025	655569	keystroke_r	r	n/a
327.9205	0.123	655841	keystroke_e	e	n/a
328.0995	0.1465	656199	keystroke_Key.enter	Key.enter	n/a
328.25	4.722	656500	prompt	n/a	ambien bottom flexible feel\n
328.832	0.1115	657664	keystroke_a	a	n/a
328.977	0.18	657954	keystroke_m	m	n/a
329.248	0.1005	658496	keystroke_b	b	n/a
329.382	0.135	658764	keystroke_i	i	n/a
329.54	0.1015	659080	keystroke_e	e	n/a
329.652	0.1465	659304	keystroke_n	n	n/a
329.787	0.1465	659574	keystroke_Key.space	Key.space	n/a
329.9785	0.101	659957	keystroke_b	b	n/a
330.102	0.1015	660204	keystroke_o	o	n/a
330.226	0.09	660452	keystroke_t	t	n/a
330.4285	0.079	660857	keystroke_t	t	n/a
330.5185	0.18	661037	keystroke_o	o	n/a
330.6315	0.1345	661263	keystroke_m	m	n/a
330.6875	0.1235	661375	keystroke_Key.space	Key.space	n/a
330.7885	0.1125	661577	keystroke_f	f	n/a
330.9235	0.1245	661847	keystroke_l	l	n/a
331.003	0.089	662006	keystroke_e	e	n/a
331.216	0.1015	662432	keystroke_x	x	n/a
331.3285	0.101	662657	keystroke_i	i	n/a
331.4525	0.101	662905	keystroke_b	b	n/a
331.542	0.113	663084	keystroke_l	l	n/a
331.677	0.079	663354	keystroke_e	e	n/a
331.7675	0.157	663535	keystroke_Key.space	Key.space	n/a
331.915	0.1225	663830	keystroke_f	f	n/a
332.083	0.1455	664166	keystroke_e	e	n/a
332.3185	0.135	664637	keystroke_e	e	n/a
332.51	0.135	665020	keystroke_l	l	n/a
332.8585	0.1125	665717	keystroke_Key.enter	Key.enter	n/a
332.975	5.7685	665950	prompt	n/a	collector included charter central\n
333.6915	0.112	667383	keystroke_c	c	n/a
333.7925	0.0785	667585	keystroke_o	o	n/a
334.006	0.045	668012	keystroke_l	l	n/a
334.1745	0.1465	668349	keystroke_l	l	n/a
334.2535	0.101	668507	keystroke_e	e	n/a
334.456	0.1015	668912	keystroke_c	c	n/a
334.67	0.1125	669340	keystroke_t	t	n/a
334.7825	0.101	669565	keystroke_o	o	n/a
334.895	0.1235	669790	keystroke_r	r	n/a
335.0075	0.146	670015	keystroke_Key.space	Key.space	n/a
335.2435	0.135	670487	keystroke_i	i	n/a
335.311	0.135	670622	keystroke_n	n	n/a
335.481	0.111	670962	keystroke_c	c	n/a
335.581	0.18	671162	keystroke_l	l	n/a
335.6605	0.1455	671321	keystroke_u	u	n/a
335.7835	0.101	671567	keystroke_d	d	n/a
335.998	0.067	671996	keystroke_e	e	n/a
336.1775	0.0675	672355	keystroke_d	d	n/a
336.301	0.1235	672602	keystroke_Key.space	Key.space	n/a
336.4145	0.112	672829	keystroke_c	c	n/a
336.5825	0.1015	673165	keystroke_h	h	n/a
336.6725	0.146	673345	keystroke_a	a	n/a
336.7735	0.091	673547	keystroke_r	r	n/a
336.976	0.09	673952	keystroke_t	t	n/a
337.134	0.1005	674268	keystroke_e	e	n/a
337.2125	0.102	674425	keystroke_r	r	n/a
337.3245	0.1245	674649	keystroke_Key.space	Key.space	n/a
337.4265	0.078	674853	keystroke_c	c	n/a
337.6175	0.0675	675235	keystroke_e	e	n/a
337.73	0.112	675460	keystroke_n	n	n/a
337.8315	0.1005	675663	keystroke_t	t	n/a
338.0225	0.1685	676045	keystroke_r	r	n/a
338.146	0.1125	676292	keystroke_a	a	n/a
338.281	0.135	676562	keystroke_l	l	n/a
338.63	0.1125	677260	keystroke_Key.enter	Key.enter	n/a
338.7465	4.272	677493	prompt	n/a	tagged careful herb cent\n
339.3835	0.1575	678767	keystroke_t	t	n/a
339.5525	0.151	679105	keystroke_a	a	n/a
339.7325	0.0785	679465	keystroke_g	g	n/a
339.946	0.0905	679892	keystroke_g	g	n/a
340.081	0.1015	680162	keystroke_e	e	n/a
340.284	0.0895	680568	keystroke_d	d	n/a
340.4525	0.1465	680905	keystroke_Key.space	Key.space	n/a
340.52	0.1125	681040	keystroke_c	c	n/a
340.734	0.112	681468	keystroke_a	a	n/a
340.79	0.158	681580	keystroke_r	r	n/a
340.9025	0.102	681805	keystroke_e	e	n/a
341.094	0.1125	682188	keystroke_f	f	n/a
341.195	0.1465	682390	keystroke_u	u	n/a
341.285	0.135	682570	keystroke_l	l	n/a
341.352	0.113	682704	keystroke_Key.space	Key.space	n/a
341.51	0.1465	683020	keystroke_h	h	n/a
341.611	0.135	683222	keystroke_e	e	n/a
341.7015	0.101	683403	keystroke_r	r	n/a
341.9375	0.09	683875	keystroke_b	b	n/a
342.039	0.146	684078	keystroke_Key.space	Key.space	n/a
342.1625	0.1125	684325	keystroke_c	c	n/a
342.399	0.0895	684798	keystroke_e	e	n/a
342.5225	0.1015	685045	keystroke_n	n	n/a
342.635	0.135	685270	keystroke_t	t	n/a
342.871	0.1465	685742	keystroke_Key.enter	Key.enter	n/a
343.0215	6.7695	686043	prompt	n/a	structural beastality pmid ever\n
343.726	0.09	687452	keystroke_s	s	n/a
343.951	0.09	687902	keystroke_t	t	n/a
344.1425	0.1125	688285	keystroke_r	r	n/a
344.2885	0.102	688577	keystroke_u	u	n/a
344.3905	0.067	688781	keystroke_c	c	n/a
344.5585	0.1015	689117	keystroke_t	t	n/a
344.705	0.1125	689410	keystroke_u	u	n/a
344.806	0.1915	689612	keystroke_r	r	n/a
344.975	0.135	689950	keystroke_a	a	n/a
345.0425	0.1685	690085	keystroke_l	l	n/a
345.1325	0.1685	690265	keystroke_Key.space	Key.space	n/a
345.245	0.0785	690490	keystroke_b	b	n/a
345.436	0.1465	690872	keystroke_e	e	n/a
345.5825	0.18	691165	keystroke_a	a	n/a
345.695	0.1575	691390	keystroke_s	s	n/a
345.9535	0.124	691907	keystroke_t	t	n/a
346.2915	0.146	692583	keystroke_i	i	n/a
346.685	0.113	693370	keystroke_Key.backspace	Key.backspace	n/a
346.91	0.135	693820	keystroke_a	a	n/a
347.169	0.18	694338	keystroke_l	l	n/a
347.281	0.135	694562	keystroke_i	i	n/a
347.4615	0.112	694923	keystroke_t	t	n/a
347.5625	0.1465	695125	keystroke_y	y	n/a
347.6415	0.101	695283	keystroke_Key.space	Key.space	n/a
348.035	0.1125	696070	keystroke_p	p	n/a
348.26	0.135	696520	keystroke_m	m	n/a
348.4065	0.124	696813	keystroke_i	i	n/a
348.5525	0.0905	697105	keystroke_d	d	n/a
348.6315	0.1685	697263	keystroke_Key.space	Key.space	n/a
348.7775	0.1125	697555	keystroke_e	e	n/a
349.0475	0.1125	698095	keystroke_v	v	n/a
349.2725	0.1465	698545	keystroke_e	e	n/a
349.385	0.1575	698770	keystroke_r	r	n/a
349.6325	0.1575	699265	keystroke_Key.enter	Key.enter	n/a
349.794	4.047	699588	prompt	n/a	china britain write utah\n
350.4875	0.101	700975	keystroke_c	c	n/a
350.5775	0.135	701155	keystroke_h	h	n/a
350.7125	0.146	701425	keystroke_i	i	n/a
350.781	0.134	701562	keystroke_n	n	n/a
350.926	0.0905	701852	keystroke_a	a	n/a
350.994	0.1795	701988	keystroke_Key.space	Key.space	n/a
351.1625	0.068	702325	keystroke_b	b	n/a
351.354	0.112	702708	keystroke_r	r	n/a
351.4885	0.1465	702977	keystroke_i	i	n/a
351.635	0.135	703270	keystroke_t	t	n/a
351.7845	0.109	703569	keystroke_a	a	n/a
351.905	0.1575	703810	keystroke_i	i	n/a
351.961	0.1575	703922	keystroke_n	n	n/a
352.064	0.1225	704128	keystroke_Key.space	Key.space	n/a
352.186	0.1575	704372	keystroke_w	w	n/a
352.355	0.1125	704710	keystroke_r	r	n/a
352.5145	0.1215	705029	keystroke_i	i	n/a
352.6475	0.146	705295	keystroke_t	t	n/a
352.7485	0.102	705497	keystroke_e	e	n/a
352.861	0.158	705722	keystroke_Key.space	Key.space	n/a
353.031	0.1005	706062	keystroke_u	u	n/a
353.1425	0.1685	706285	keystroke_t	t	n/a
353.255	0.1465	706510	keystroke_a	a	n/a
353.39	0.1125	706780	keystroke_h	h	n/a
353.705	0.135	707410	keystroke_Key.enter	Key.enter	n/a
353.8435	5.735	707687	prompt	n/a	mailman worth voluntary acquisitions\n
354.56	0.09	709120	keystroke_m	m	n/a
354.7175	0.1235	709435	keystroke_a	a	n/a
354.8075	0.135	709615	keystroke_i	i	n/a
354.8975	0.1575	709795	keystroke_l	l	n/a
355.1225	0.135	710245	keystroke_m	m	n/a
355.2915	0.1235	710583	keystroke_a	a	n/a
355.3925	0.1575	710785	keystroke_n	n	n/a
355.4825	0.135	710965	keystroke_Key.space	Key.space	n/a
355.6175	0.117	711235	keystroke_w	w	n/a
355.7415	0.135	711483	keystroke_o	o	n/a
355.865	0.09	711730	keystroke_r	r	n/a
356.0565	0.0785	712113	keystroke_t	t	n/a
356.1125	0.1465	712225	keystroke_h	h	n/a
356.2135	0.113	712427	keystroke_Key.space	Key.space	n/a
356.3375	0.1015	712675	keystroke_v	v	n/a
356.4275	0.1015	712855	keystroke_o	o	n/a
356.63	0.135	713260	keystroke_l	l	n/a
356.709	0.1125	713418	keystroke_u	u	n/a
356.9225	0.1125	713845	keystroke_n	n	n/a
357.0575	0.1125	714115	keystroke_t	t	n/a
357.204	0.191	714408	keystroke_a	a	n/a
357.316	0.135	714632	keystroke_r	r	n/a
357.4175	0.135	714835	keystroke_y	y	n/a
357.485	0.146	714970	keystroke_Key.space	Key.space	n/a
357.6765	0.1345	715353	keystroke_a	a	n/a
357.9575	0.09	715915	keystroke_c	c	n/a
358.1935	0.09	716387	keystroke_q	q	n/a
358.295	0.1355	716590	keystroke_u	u	n/a
358.397	0.1235	716794	keystroke_i	i	n/a
358.554	0.1465	717108	keystroke_s	s	n/a
358.6885	0.0905	717377	keystroke_i	i	n/a
358.8355	0.112	717671	keystroke_t	t	n/a
358.9365	0.2365	717873	keystroke_i	i	n/a
359.026	0.1575	718052	keystroke_o	o	n/a
359.083	0.1575	718166	keystroke_n	n	n/a
359.2285	0.113	718457	keystroke_s	s	n/a
359.4655	0.112	718931	keystroke_Key.enter	Key.enter	n/a
359.582	5.4985	719164	prompt	n/a	dependent lovers assumptions continue\n
360.197	0.0785	720394	keystroke_d	d	n/a
360.388	0.0895	720776	keystroke_e	e	n/a
360.511	0.169	721022	keystroke_p	p	n/a
360.6465	0.1125	721293	keystroke_e	e	n/a
360.781	0.1355	721562	keystroke_n	n	n/a
360.8825	0.1015	721765	keystroke_d	d	n/a
361.074	0.09	722148	keystroke_e	e	n/a
361.175	0.101	722350	keystroke_n	n	n/a
361.2875	0.1125	722575	keystroke_t	t	n/a
361.355	0.158	722710	keystroke_Key.space	Key.space	n/a
361.468	0.101	722936	keystroke_l	l	n/a
361.6815	0.101	723363	keystroke_o	o	n/a
361.7935	0.079	723587	keystroke_v	v	n/a
361.974	0.135	723948	keystroke_e	e	n/a
362.0415	0.236	724083	keystroke_r	r	n/a
362.21	0.124	724420	keystroke_s	s	n/a
362.3565	0.135	724713	keystroke_Key.space	Key.space	n/a
362.4805	0.1345	724961	keystroke_a	a	n/a
362.615	0.09	725230	keystroke_s	s	n/a
362.8065	0.0785	725613	keystroke_s	s	n/a
362.9195	0.112	725839	keystroke_u	u	n/a
363.144	0.135	726288	keystroke_m	m	n/a
363.2675	0.124	726535	keystroke_p	p	n/a
363.4025	0.1235	726805	keystroke_t	t	n/a
363.4815	0.236	726963	keystroke_i	i	n/a
363.5715	0.1685	727143	keystroke_o	o	n/a
363.6275	0.135	727255	keystroke_n	n	n/a
363.729	0.0785	727458	keystroke_s	s	n/a
363.8075	0.1575	727615	keystroke_Key.space	Key.space	n/a
363.9765	0.101	727953	keystroke_c	c	n/a
364.044	0.135	728088	keystroke_o	o	n/a
364.1225	0.1245	728245	keystroke_n	n	n/a
364.235	0.1125	728470	keystroke_t	t	n/a
364.325	0.09	728650	keystroke_i	i	n/a
364.37	0.09	728740	keystroke_n	n	n/a
364.584	0.09	729168	keystroke_u	u	n/a
364.787	0.0895	729574	keystroke_e	e	n/a
364.989	0.0905	729978	keystroke_Key.enter	Key.enter	n/a
365.0835	9.8175	730167	prompt	n/a	minutes automation coins howdy\n
371.233	0.0895	742466	keystroke_m	m	n/a
371.3795	0.1125	742759	keystroke_i	i	n/a
371.4695	0.078	742939	keystroke_n	n	n/a
371.672	0.09	743344	keystroke_u	u	n/a
371.7725	0.124	743545	keystroke_t	t	n/a
371.84	0.079	743680	keystroke_e	e	n/a
371.8515	0.113	743703	keystroke_s	s	n/a
371.93	0.1125	743860	keystroke_Key.space	Key.space	n/a
372.065	0.1465	744130	keystroke_a	a	n/a
372.2	0.0795	744400	keystroke_u	u	n/a
372.3015	0.101	744603	keystroke_t	t	n/a
372.3465	0.1235	744693	keystroke_o	o	n/a
372.4815	0.146	744963	keystroke_m	m	n/a
372.6395	0.1005	745279	keystroke_a	a	n/a
372.6845	0.123	745369	keystroke_t	t	n/a
372.785	0.225	745570	keystroke_i	i	n/a
372.864	0.158	745728	keystroke_o	o	n/a
372.9545	0.1575	745909	keystroke_n	n	n/a
373.0775	0.1575	746155	keystroke_Key.space	Key.space	n/a
373.2575	0.1015	746515	keystroke_c	c	n/a
373.359	0.2475	746718	keystroke_o	o	n/a
373.4605	0.1795	746921	keystroke_i	i	n/a
373.562	0.135	747124	keystroke_n	n	n/a
373.7075	0.0795	747415	keystroke_s	s	n/a
373.82	0.1125	747640	keystroke_Key.space	Key.space	n/a
374	0.1135	748000	keystroke_h	h	n/a
374.1015	0.135	748203	keystroke_o	o	n/a
374.225	0.079	748450	keystroke_w	w	n/a
374.405	0.1125	748810	keystroke_d	d	n/a
374.5515	0.0785	749103	keystroke_y	y	n/a
374.81	0.09	749620	keystroke_Key.enter	Key.enter	n/a
374.904	6.1295	749808	prompt	n/a	feat reasons correlation neither\n
375.519	0.1125	751038	keystroke_f	f	n/a
375.733	0.113	751466	keystroke_e	e	n/a
375.8565	0.1575	751713	keystroke_a	a	n/a
375.9465	0.1125	751893	keystroke_t	t	n/a
376.07	0.1465	752140	keystroke_Key.space	Key.space	n/a
376.183	0.1575	752366	keystroke_r	r	n/a
376.273	0.18	752546	keystroke_e	e	n/a
376.464	0.1575	752928	keystroke_a	a	n/a
376.554	0.1235	753108	keystroke_s	s	n/a
376.7115	0.1235	753423	keystroke_o	o	n/a
376.734	0.1575	753468	keystroke_n	n	n/a
376.8575	0.079	753715	keystroke_s	s	n/a
376.97	0.1465	753940	keystroke_Key.space	Key.space	n/a
377.105	0.09	754210	keystroke_c	c	n/a
377.2175	0.1015	754435	keystroke_o	o	n/a
377.33	0.09	754660	keystroke_r	r	n/a
377.5325	0.09	755065	keystroke_r	r	n/a
377.589	0.101	755178	keystroke_e	e	n/a
377.7245	0.1345	755449	keystroke_l	l	n/a
377.87	0.1465	755740	keystroke_a	a	n/a
377.949	0.1235	755898	keystroke_t	t	n/a
378.05	0.1915	756100	keystroke_i	i	n/a
378.1175	0.1465	756235	keystroke_o	o	n/a
378.174	0.1235	756348	keystroke_n	n	n/a
378.2865	0.1125	756573	keystroke_s	s	n/a
378.4215	0.1125	756843	keystroke_Key.space	Key.space	n/a
378.6465	0.09	757293	keystroke_n	n	n/a
379.0515	0.0675	758103	keystroke_Key.backspace	Key.backspace	n/a
379.2765	0.0675	758553	keystroke_Key.backspace	Key.backspace	n/a
379.513	0.09	759026	keystroke_Key.backspace	Key.backspace	n/a
379.794	0.102	759588	keystroke_Key.space	Key.space	n/a
380.031	0.112	760062	keystroke_n	n	n/a
380.2105	0.09	760421	keystroke_e	e	n/a
380.346	0.089	760692	keystroke_i	i	n/a
380.458	0.1125	760916	keystroke_t	t	n/a
380.604	0.0675	761208	keystroke_h	h	n/a
380.6825	0.135	761365	keystroke_e	e	n/a
380.784	0.1125	761568	keystroke_r	r	n/a
380.9305	0.1015	761861	keystroke_Key.enter	Key.enter	n/a
381.038	6.767	762076	prompt	n/a	reputation justify possession reset\n
381.6055	0.09	763211	keystroke_f	f	n/a
381.898	0.079	763796	keystroke_Key.backspace	Key.backspace	n/a
382.078	0.124	764156	keystroke_r	r	n/a
382.19	0.1355	764380	keystroke_e	e	n/a
382.359	0.1465	764718	keystroke_p	p	n/a
382.517	0.101	765034	keystroke_u	u	n/a
382.8095	0.1125	765619	keystroke_t	t	n/a
382.9555	0.1465	765911	keystroke_a	a	n/a
383.046	0.1345	766092	keystroke_t	t	n/a
383.1695	0.27	766339	keystroke_i	i	n/a
383.259	0.191	766518	keystroke_o	o	n/a
383.338	0.1345	766676	keystroke_n	n	n/a
383.4625	0.1005	766925	keystroke_Key.space	Key.space	n/a
383.8665	0.1015	767733	keystroke_j	j	n/a
384.103	0.101	768206	keystroke_u	u	n/a
384.2265	0.09	768453	keystroke_s	s	n/a
384.283	0.1135	768566	keystroke_t	t	n/a
384.418	0.1015	768836	keystroke_i	i	n/a
384.553	0.101	769106	keystroke_f	f	n/a
384.6655	0.1235	769331	keystroke_y	y	n/a
384.7555	0.0785	769511	keystroke_Key.space	Key.space	n/a
384.913	0.135	769826	keystroke_p	p	n/a
385.093	0.146	770186	keystroke_o	o	n/a
385.228	0.09	770456	keystroke_s	s	n/a
385.4305	0.09	770861	keystroke_s	s	n/a
385.5315	0.135	771063	keystroke_e	e	n/a
385.723	0.101	771446	keystroke_s	s	n/a
385.9145	0.0785	771829	keystroke_s	s	n/a
386.0155	0.1125	772031	keystroke_i	i	n/a
386.2405	0.09	772481	keystroke_o	o	n/a
386.3975	0.1915	772795	keystroke_n	n	n/a
386.5105	0.1575	773021	keystroke_Key.space	Key.space	n/a
386.6455	0.1235	773291	keystroke_r	r	n/a
386.893	0.1125	773786	keystroke_e	e	n/a
387.118	0.101	774236	keystroke_s	s	n/a
387.343	0.09	774686	keystroke_e	e	n/a
387.534	0.113	775068	keystroke_t	t	n/a
387.703	0.101	775406	keystroke_Key.enter	Key.enter	n/a
387.808	4.61	775616	prompt	n/a	confident commons tracking nurse\n
388.558	0.09	777116	keystroke_c	c	n/a
388.659	0.135	777318	keystroke_o	o	n/a
388.727	0.112	777454	keystroke_n	n	n/a
388.828	0.135	777656	keystroke_f	f	n/a
388.9515	0.113	777903	keystroke_i	i	n/a
389.0755	0.09	778151	keystroke_d	d	n/a
389.278	0.0785	778556	keystroke_e	e	n/a
389.3795	0.101	778759	keystroke_n	n	n/a
389.4915	0.079	778983	keystroke_t	t	n/a
389.5705	0.135	779141	keystroke_Key.space	Key.space	n/a
389.7055	0.101	779411	keystroke_c	c	n/a
389.7955	0.1235	779591	keystroke_o	o	n/a
389.8965	0.09	779793	keystroke_m	m	n/a
390.054	0.09	780108	keystroke_m	m	n/a
390.2005	0.135	780401	keystroke_o	o	n/a
390.268	0.1235	780536	keystroke_n	n	n/a
390.392	0.0895	780784	keystroke_s	s	n/a
390.493	0.146	780986	keystroke_Key.space	Key.space	n/a
390.6165	0.09	781233	keystroke_t	t	n/a
390.808	0.113	781616	keystroke_r	r	n/a
390.876	0.101	781752	keystroke_a	a	n/a
391.0555	0.113	782111	keystroke_c	c	n/a
391.1565	0.09	782313	keystroke_k	k	n/a
391.3365	0.09	782673	keystroke_i	i	n/a
391.3705	0.101	782741	keystroke_n	n	n/a
391.494	0.1015	782988	keystroke_g	g	n/a
391.562	0.1345	783124	keystroke_Key.space	Key.space	n/a
391.6065	0.1125	783213	keystroke_n	n	n/a
391.821	0.1125	783642	keystroke_u	u	n/a
391.9555	0.1125	783911	keystroke_r	r	n/a
392.0795	0.1685	784159	keystroke_s	s	n/a
392.1585	0.1345	784317	keystroke_e	e	n/a
392.316	0.1005	784632	keystroke_Key.enter	Key.enter	n/a
392.421	4.925	784842	prompt	n/a	organized detailed detroit pros\n
393.114	0.09	786228	keystroke_o	o	n/a
393.1705	0.0785	786341	keystroke_r	r	n/a
393.3505	0.1125	786701	keystroke_g	g	n/a
393.4405	0.101	786881	keystroke_a	a	n/a
393.542	0.1345	787084	keystroke_n	n	n/a
393.6435	0.112	787287	keystroke_i	i	n/a
393.699	0.135	787398	keystroke_z	z	n/a
393.8005	0.09	787601	keystroke_e	e	n/a
393.9805	0.0785	787961	keystroke_d	d	n/a
394.1045	0.1235	788209	keystroke_Key.space	Key.space	n/a
394.1945	0.1235	788389	keystroke_d	d	n/a
394.4415	0.1015	788883	keystroke_e	e	n/a
394.543	0.1715	789086	keystroke_t	t	n/a
394.678	0.135	789356	keystroke_a	a	n/a
394.802	0.146	789604	keystroke_i	i	n/a
394.8695	0.146	789739	keystroke_l	l	n/a
394.9815	0.0905	789963	keystroke_e	e	n/a
395.1625	0.078	790325	keystroke_d	d	n/a
395.274	0.135	790548	keystroke_Key.space	Key.space	n/a
395.3305	0.1015	790661	keystroke_d	d	n/a
395.533	0.09	791066	keystroke_e	e	n/a
395.6795	0.101	791359	keystroke_t	t	n/a
395.8705	0.1275	791741	keystroke_r	r	n/a
395.983	0.2365	791966	keystroke_o	o	n/a
396.1855	0.1465	792371	keystroke_i	i	n/a
396.4555	0.09	792911	keystroke_t	t	n/a
396.568	0.135	793136	keystroke_Key.space	Key.space	n/a
396.714	0.1015	793428	keystroke_p	p	n/a
396.838	0.101	793676	keystroke_r	r	n/a
396.9505	0.1125	793901	keystroke_o	o	n/a
397.0965	0.09	794193	keystroke_s	s	n/a
397.232	0.112	794464	keystroke_Key.enter	Key.enter	n/a
397.349	6.06	794698	prompt	n/a	cleaners stations resource corrected\n
398.864	0.0665	797728	keystroke_c	c	n/a
398.987	0.1345	797974	keystroke_l	l	n/a
399.077	0.146	798154	keystroke_e	e	n/a
399.213	0.145	798426	keystroke_a	a	n/a
399.3695	0.101	798739	keystroke_n	n	n/a
399.459	0.135	798918	keystroke_e	e	n/a
399.538	0.191	799076	keystroke_r	r	n/a
399.6505	0.1125	799301	keystroke_s	s	n/a
399.7635	0.157	799527	keystroke_Key.space	Key.space	n/a
399.898	0.101	799796	keystroke_s	s	n/a
399.988	0.1235	799976	keystroke_t	t	n/a
400.123	0.169	800246	keystroke_a	a	n/a
400.2355	0.1235	800471	keystroke_t	t	n/a
400.3705	0.2365	800741	keystroke_i	i	n/a
400.449	0.169	800898	keystroke_o	o	n/a
400.4955	0.156	800991	keystroke_n	n	n/a
400.6405	0.0675	801281	keystroke_s	s	n/a
400.7305	0.1575	801461	keystroke_Key.space	Key.space	n/a
400.8655	0.1465	801731	keystroke_r	r	n/a
400.9665	0.1465	801933	keystroke_e	e	n/a
401.0455	0.146	802091	keystroke_s	s	n/a
401.2365	0.1585	802473	keystroke_o	o	n/a
401.3385	0.1235	802677	keystroke_u	u	n/a
401.4285	0.078	802857	keystroke_r	r	n/a
401.608	0.0565	803216	keystroke_c	c	n/a
401.7885	0.0565	803577	keystroke_e	e	n/a
401.9235	0.1005	803847	keystroke_Key.space	Key.space	n/a
402.0015	0.079	804003	keystroke_c	c	n/a
402.137	0.101	804274	keystroke_o	o	n/a
402.227	0.067	804454	keystroke_r	r	n/a
402.407	0.112	804814	keystroke_r	r	n/a
402.4745	0.112	804949	keystroke_e	e	n/a
402.688	0.079	805376	keystroke_c	c	n/a
402.857	0.1235	805714	keystroke_t	t	n/a
402.9355	0.09	805871	keystroke_e	e	n/a
403.127	0.067	806254	keystroke_d	d	n/a
403.3065	0.1015	806613	keystroke_Key.enter	Key.enter	n/a
403.4125	8.209	806825	prompt	n/a	vbulletin larry bureau adventure\n
405.7255	0.079	811451	keystroke_v	v	n/a
406.727	0.1125	813454	keystroke_b	b	n/a
406.862	0.0675	813724	keystroke_u	u	n/a
407.0415	0.0675	814083	keystroke_l	l	n/a
407.2215	0.1015	814443	keystroke_l	l	n/a
407.312	0.146	814624	keystroke_e	e	n/a
407.492	0.113	814984	keystroke_t	t	n/a
407.6155	0.135	815231	keystroke_i	i	n/a
407.695	0.1455	815390	keystroke_n	n	n/a
407.829	0.135	815658	keystroke_Key.space	Key.space	n/a
407.9195	0.1345	815839	keystroke_l	l	n/a
408.0655	0.113	816131	keystroke_a	a	n/a
408.122	0.091	816244	keystroke_r	r	n/a
408.2795	0.0895	816559	keystroke_r	r	n/a
408.3915	0.1015	816783	keystroke_y	y	n/a
408.4365	0.1125	816873	keystroke_Key.space	Key.space	n/a
408.5265	0.113	817053	keystroke_b	b	n/a
408.707	0.112	817414	keystroke_u	u	n/a
409.269	0.1015	818538	keystroke_r	r	n/a
409.551	0.146	819102	keystroke_e	e	n/a
409.7085	0.1455	819417	keystroke_a	a	n/a
409.933	0.1125	819866	keystroke_u	u	n/a
410.0795	0.135	820159	keystroke_Key.space	Key.space	n/a
410.3045	0.1015	820609	keystroke_a	a	n/a
410.4845	0.0785	820969	keystroke_d	d	n/a
410.6755	0.101	821351	keystroke_v	v	n/a
410.7545	0.135	821509	keystroke_e	e	n/a
410.912	0.079	821824	keystroke_n	n	n/a
411.002	0.135	822004	keystroke_t	t	n/a
411.148	0.09	822296	keystroke_u	u	n/a
411.2615	0.134	822523	keystroke_r	r	n/a
411.3625	0.1005	822725	keystroke_e	e	n/a
411.5195	0.101	823039	keystroke_Key.enter	Key.enter	n/a
411.625	6.218	823250	prompt	n/a	knows namibia freeware permanent\n
412.543	0.09	825086	keystroke_k	k	n/a
412.7135	0.1335	825427	keystroke_n	n	n/a
412.7905	0.135	825581	keystroke_o	o	n/a
412.9255	0.09	825851	keystroke_w	w	n/a
413.162	0.0785	826324	keystroke_s	s	n/a
413.3305	0.0795	826661	keystroke_Key.space	Key.space	n/a
413.478	0.1115	826956	keystroke_n	n	n/a
413.623	0.135	827246	keystroke_a	a	n/a
413.8145	0.09	827629	keystroke_m	m	n/a
414.0055	0.113	828011	keystroke_i	i	n/a
414.1855	0.1125	828371	keystroke_b	b	n/a
414.3995	0.1015	828799	keystroke_i	i	n/a
414.5905	0.09	829181	keystroke_a	a	n/a
414.7035	0.1455	829407	keystroke_Key.space	Key.space	n/a
414.862	0.0665	829724	keystroke_f	f	n/a
415.0855	0.135	830171	keystroke_r	r	n/a
415.333	0.102	830666	keystroke_e	e	n/a
415.5355	0.1125	831071	keystroke_e	e	n/a
415.7615	0.134	831523	keystroke_w	w	n/a
415.997	0.1685	831994	keystroke_a	a	n/a
416.1545	0.1685	832309	keystroke_r	r	n/a
416.301	0.101	832602	keystroke_e	e	n/a
416.4355	0.146	832871	keystroke_Key.space	Key.space	n/a
416.537	0.1575	833074	keystroke_p	p	n/a
416.6945	0.135	833389	keystroke_e	e	n/a
416.7845	0.135	833569	keystroke_r	r	n/a
416.897	0.1235	833794	keystroke_m	m	n/a
417.0655	0.124	834131	keystroke_a	a	n/a
417.178	0.0905	834356	keystroke_n	n	n/a
417.3015	0.1465	834603	keystroke_e	e	n/a
417.437	0.101	834874	keystroke_n	n	n/a
417.549	0.1355	835098	keystroke_t	t	n/a
417.707	0.135	835414	keystroke_Key.enter	Key.enter	n/a
417.8465	4.2265	835693	prompt	n/a	intake diving problems idol\n
418.4615	0.179	836923	keystroke_i	i	n/a
418.5505	0.18	837101	keystroke_n	n	n/a
418.708	0.1685	837416	keystroke_t	t	n/a
418.8655	0.135	837731	keystroke_a	a	n/a
419.012	0.1135	838024	keystroke_k	k	n/a
419.1355	0.1015	838271	keystroke_e	e	n/a
419.2255	0.1575	838451	keystroke_Key.space	Key.space	n/a
419.372	0.101	838744	keystroke_d	d	n/a
419.4955	0.1015	838991	keystroke_i	i	n/a
419.619	0.1355	839238	keystroke_v	v	n/a
419.7545	0.1235	839509	keystroke_i	i	n/a
419.812	0.134	839624	keystroke_n	n	n/a
419.9005	0.113	839801	keystroke_g	g	n/a
420.014	0.123	840028	keystroke_Key.space	Key.space	n/a
420.0585	0.146	840117	keystroke_p	p	n/a
420.2155	0.1015	840431	keystroke_r	r	n/a
420.3285	0.1345	840657	keystroke_o	o	n/a
420.4745	0.1125	840949	keystroke_b	b	n/a
420.5755	0.1125	841151	keystroke_l	l	n/a
420.711	0.1005	841422	keystroke_e	e	n/a
420.8005	0.1125	841601	keystroke_m	m	n/a
420.924	0.1015	841848	keystroke_s	s	n/a
421.048	0.0675	842096	keystroke_Key.space	Key.space	n/a
421.149	0.079	842298	keystroke_i	i	n/a
421.318	0.1125	842636	keystroke_d	d	n/a
421.453	0.1015	842906	keystroke_o	o	n/a
421.6895	0.101	843379	keystroke_l	l	n/a
421.9595	0.1125	843919	keystroke_Key.enter	Key.enter	n/a
422.0775	5.5645	844155	prompt	n/a	trains belts she'd millennium\n
422.803	0.1125	845606	keystroke_t	t	n/a
423.028	0.169	846056	keystroke_r	r	n/a
423.1405	0.135	846281	keystroke_a	a	n/a
423.2645	0.1465	846529	keystroke_i	i	n/a
423.332	0.146	846664	keystroke_n	n	n/a
423.4445	0.101	846889	keystroke_s	s	n/a
423.568	0.135	847136	keystroke_Key.space	Key.space	n/a
423.6805	0.09	847361	keystroke_b	b	n/a
423.872	0.09	847744	keystroke_e	e	n/a
423.996	0.146	847992	keystroke_l	l	n/a
424.1535	0.135	848307	keystroke_t	t	n/a
424.232	0.1125	848464	keystroke_s	s	n/a
424.3895	0.079	848779	keystroke_Key.space	Key.space	n/a
424.4795	0.135	848959	keystroke_s	s	n/a
424.693	0.124	849386	keystroke_h	h	n/a
424.862	0.135	849724	keystroke_e	e	n/a
425.0085	0.101	850017	keystroke_'	'	n/a
425.1775	0.112	850355	keystroke_d	d	n/a
425.301	0.1345	850602	keystroke_Key.space	Key.space	n/a
425.4805	0.135	850961	keystroke_m	m	n/a
425.6275	0.1795	851255	keystroke_i	i	n/a
