onset	duration	sample	value	key	prompt_text
2.1565	20.729	4313	prompt	n/a	the quick brown fox jumps over a lazy dog\n
8.7995	0.058	17599	keystroke_t	t	n/a
8.8885	0.104	17777	keystroke_h	h	n/a
9.0225	0.15	18045	keystroke_e	e	n/a
9.1875	0.1045	18375	keystroke_Key.space	Key.space	n/a
9.458	0.12	18916	keystroke_q	q	n/a
10.013	0.075	20026	keystroke_i	i	n/a
11.4375	0.076	22875	keystroke_Key.backspace	Key.backspace	n/a
12.083	0.09	24166	keystroke_u	u	n/a
12.653	0.075	25306	keystroke_i	i	n/a
12.938	0.105	25876	keystroke_c	c	n/a
13.058	0.1205	26116	keystroke_k	k	n/a
13.388	0.09	26776	keystroke_Key.space	Key.space	n/a
13.5975	0.09	27195	keystroke_b	b	n/a
13.8225	0.106	27645	keystroke_r	r	n/a
13.9435	0.104	27887	keystroke_o	o	n/a
14.1375	0.105	28275	keystroke_w	w	n/a
14.2575	0.09	28515	keystroke_n	n	n/a
14.7525	0.075	29505	keystroke_Key.space	Key.space	n/a
14.9925	0.1055	29985	keystroke_f	f	n/a
15.113	0.12	30226	keystroke_o	o	n/a
15.473	0.09	30946	keystroke_x	x	n/a
15.7725	0.105	31545	keystroke_Key.space	Key.space	n/a
16.3275	0.06	32655	keystroke_j	j	n/a
16.5225	0.135	33045	keystroke_p	p	n/a
17.1825	0.075	34365	keystroke_Key.backspace	Key.backspace	n/a
17.5885	0.119	35177	keystroke_u	u	n/a
17.8425	0.105	35685	keystroke_m	m	n/a
18.2025	0.105	36405	keystroke_p	p	n/a
18.6975	0.105	37395	keystroke_s	s	n/a
19.627	0.105	39254	keystroke_Key.space	Key.space	n/a
19.913	0.09	39826	keystroke_o	o	n/a
20.062	0.12	40124	keystroke_v	v	n/a
20.3025	0.135	40605	keystroke_e	e	n/a
20.4075	0.105	40815	keystroke_r	r	n/a
20.5875	0.09	41175	keystroke_Key.space	Key.space	n/a
20.753	0.09	41506	keystroke_a	a	n/a
20.827	0.105	41654	keystroke_Key.space	Key.space	n/a
21.128	0.09	42256	keystroke_l	l	n/a
21.367	0.12	42734	keystroke_a	a	n/a
21.652	0.12	43304	keystroke_z	z	n/a
21.757	0.105	43514	keystroke_y	y	n/a
21.997	0.105	43994	keystroke_Key.space	Key.space	n/a
22.1775	0.105	44355	keystroke_d	d	n/a
22.3125	0.12	44625	keystroke_o	o	n/a
22.5525	0.105	45105	keystroke_g	g	n/a
22.7775	0.105	45555	keystroke_Key.enter	Key.enter	n/a
22.8915	15.3385	45783	prompt	n/a	vegetables technician quarter disco\n
23.663	0.104	47326	keystroke_v	v	n/a
23.917	0.165	47834	keystroke_e	e	n/a
24.157	0.076	48314	keystroke_g	g	n/a
24.667	0.1205	49334	keystroke_t	t	n/a
25.0875	0.12	50175	keystroke_a	a	n/a
25.3725	0.105	50745	keystroke_b	b	n/a
25.732	0.1205	51464	keystroke_e	e	n/a
25.988	0.134	51976	keystroke_s	s	n/a
26.707	0.075	53414	keystroke_Key.backspace	Key.backspace	n/a
26.932	0.075	53864	keystroke_Key.backspace	Key.backspace	n/a
27.127	0.091	54254	keystroke_Key.backspace	Key.backspace	n/a
27.322	0.09	54644	keystroke_Key.backspace	Key.backspace	n/a
27.532	0.061	55064	keystroke_Key.backspace	Key.backspace	n/a
28.7325	0.105	57465	keystroke_e	e	n/a
28.9875	0.0905	57975	keystroke_t	t	n/a
29.348	0.134	58696	keystroke_a	a	n/a
29.602	0.105	59204	keystroke_b	b	n/a
29.842	0.091	59684	keystroke_l	l	n/a
29.962	0.15	59924	keystroke_e	e	n/a
30.232	0.105	60464	keystroke_s	s	n/a
30.398	0.119	60796	keystroke_Key.space	Key.space	n/a
30.577	0.091	61154	keystroke_t	t	n/a
30.817	0.165	61634	keystroke_e	e	n/a
31.582	0.075	63164	keystroke_c	c	n/a
31.9125	0.105	63825	keystroke_h	h	n/a
32.2575	0.105	64515	keystroke_n	n	n/a
32.5125	0.075	65025	keystroke_i	i	n/a
32.7675	0.06	65535	keystroke_c	c	n/a
33.3975	0.075	66795	keystroke_i	i	n/a
33.787	0.09	67574	keystroke_a	a	n/a
33.907	0.105	67814	keystroke_n	n	n/a
34.1925	0.09	68385	keystroke_Key.space	Key.space	n/a
34.703	0.12	69406	keystroke_q	q	n/a
34.883	0.105	69766	keystroke_u	u	n/a
35.213	0.1495	70426	keystroke_a	a	n/a
35.3925	0.135	70785	keystroke_r	r	n/a
35.6335	0.104	71267	keystroke_t	t	n/a
35.8875	0.165	71775	keystroke_e	e	n/a
36.0075	0.12	72015	keystroke_r	r	n/a
36.2625	0.09	72525	keystroke_Key.space	Key.space	n/a
36.5775	0.105	73155	keystroke_d	d	n/a
36.7725	0.105	73545	keystroke_i	i	n/a
36.9375	0.1655	73875	keystroke_s	s	n/a
37.748	0.03	75496	keystroke_c	c	n/a
37.853	0.105	75706	keystroke_o	o	n/a
38.138	0.089	76276	keystroke_Key.enter	Key.enter	n/a
38.233	12.0265	76466	prompt	n/a	there's barnes demands courts\n
38.918	0.105	77836	keystroke_t	t	n/a
39.068	0.105	78136	keystroke_h	h	n/a
39.218	0.1195	78436	keystroke_e	e	n/a
39.2925	0.165	78585	keystroke_r	r	n/a
39.4725	0.1195	78945	keystroke_e	e	n/a
39.923	0.119	79846	keystroke_'	'	n/a
40.118	0.1345	80236	keystroke_s	s	n/a
40.5525	0.09	81105	keystroke_Key.space	Key.space	n/a
40.928	0.09	81856	keystroke_b	b	n/a
41.1975	0.105	82395	keystroke_a	a	n/a
41.2875	0.12	82575	keystroke_r	r	n/a
41.4825	0.105	82965	keystroke_n	n	n/a
41.6625	0.15	83325	keystroke_e	e	n/a
42.3975	0.09	84795	keystroke_s	s	n/a
42.683	0.09	85366	keystroke_Key.space	Key.space	n/a
43.2825	0.105	86565	keystroke_d	d	n/a
47.1855	0.042	94371	keystroke_e	e	n/a
47.3035	0.1185	94607	keystroke_m	m	n/a
47.753	0.12	95506	keystroke_a	a	n/a
47.858	0.12	95716	keystroke_n	n	n/a
48.128	0.09	96256	keystroke_d	d	n/a
48.368	0.135	96736	keystroke_s	s	n/a
48.638	0.09	97276	keystroke_Key.space	Key.space	n/a
48.9985	0.104	97997	keystroke_c	c	n/a
49.2225	0.12	98445	keystroke_o	o	n/a
49.4025	0.12	98805	keystroke_u	u	n/a
49.4635	0.134	98927	keystroke_r	r	n/a
49.703	0.105	99406	keystroke_t	t	n/a
49.943	0.105	99886	keystroke_s	s	n/a
50.123	0.135	100246	keystroke_Key.enter	Key.enter	n/a
50.263	9.087	100526	prompt	n/a	hurt essentials buffalo producer\n
51.203	0.045	102406	keystroke_h	h	n/a
51.368	0.075	102736	keystroke_u	u	n/a
51.548	0.12	103096	keystroke_r	r	n/a
51.773	0.075	103546	keystroke_t	t	n/a
51.953	0.105	103906	keystroke_Key.space	Key.space	n/a
52.253	0.15	104506	keystroke_e	e	n/a
52.598	0.075	105196	keystroke_s	s	n/a
52.793	0.12	105586	keystroke_s	s	n/a
53.003	0.12	106006	keystroke_e	e	n/a
53.168	0.12	106336	keystroke_n	n	n/a
53.318	0.105	106636	keystroke_t	t	n/a
53.573	0.075	107146	keystroke_i	i	n/a
53.843	0.105	107686	keystroke_a	a	n/a
54.023	0.09	108046	keystroke_l	l	n/a
54.248	0.105	108496	keystroke_s	s	n/a
54.458	0.09	108916	keystroke_Key.space	Key.space	n/a
54.713	0.09	109426	keystroke_b	b	n/a
54.848	0.09	109696	keystroke_u	u	n/a
55.223	0.09	110446	keystroke_f	f	n/a
55.373	0.105	110746	keystroke_f	f	n/a
55.673	0.105	111346	keystroke_a	a	n/a
55.9275	0.105	111855	keystroke_l	l	n/a
56.2125	0.09	112425	keystroke_o	o	n/a
56.498	0.09	112996	keystroke_Key.space	Key.space	n/a
56.783	0.12	113566	keystroke_p	p	n/a
57.008	0.105	114016	keystroke_r	r	n/a
57.2325	0.12	114465	keystroke_o	o	n/a
57.6085	0.09	115217	keystroke_d	d	n/a
57.8325	0.075	115665	keystroke_u	u	n/a
58.1025	0.12	116205	keystroke_c	c	n/a
58.3125	0.165	116625	keystroke_e	e	n/a
58.4925	0.1355	116985	keystroke_r	r	n/a
59.258	0.09	118516	keystroke_Key.enter	Key.enter	n/a
59.353	12.882	118706	prompt	n/a	capability delivering above eventually\n
60.0825	0.105	120165	keystroke_c	c	n/a
60.323	0.12	120646	keystroke_a	a	n/a
60.488	0.105	120976	keystroke_p	p	n/a
60.833	0.135	121666	keystroke_a	a	n/a
61.163	0.0895	122326	keystroke_b	b	n/a
61.5825	0.016	123165	keystroke_i	i	n/a
61.9125	0.075	123825	keystroke_l	l	n/a
62.3635	0.059	124727	keystroke_i	i	n/a
62.5725	0.105	125145	keystroke_t	t	n/a
62.7375	0.105	125475	keystroke_y	y	n/a
62.9925	0.09	125985	keystroke_Key.space	Key.space	n/a
63.2625	0.1055	126525	keystroke_d	d	n/a
63.488	0.12	126976	keystroke_e	e	n/a
63.758	0.135	127516	keystroke_l	l	n/a
64.193	0.075	128386	keystroke_i	i	n/a
64.388	0.09	128776	keystroke_v	v	n/a
64.613	0.15	129226	keystroke_e	e	n/a
64.718	0.105	129436	keystroke_r	r	n/a
64.853	0.09	129706	keystroke_i	i	n/a
65.0175	0.09	130035	keystroke_n	n	n/a
65.1525	0.09	130305	keystroke_g	g	n/a
65.3025	0.09	130605	keystroke_Key.space	Key.space	n/a
65.5285	0.134	131057	keystroke_a	a	n/a
65.8425	0.12	131685	keystroke_b	b	n/a
66.4575	0.015	132915	keystroke_o	o	n/a
66.6975	0.105	133395	keystroke_v	v	n/a
67.0125	0.12	134025	keystroke_e	e	n/a
67.2375	0.09	134475	keystroke_Key.space	Key.space	n/a
67.6885	0.121	135377	keystroke_e	e	n/a
69.5475	0.12	139095	keystroke_v	v	n/a
69.803	0.135	139606	keystroke_e	e	n/a
69.998	0.09	139996	keystroke_n	n	n/a
70.793	0.09	141586	keystroke_t	t	n/a
71.0335	0.09	142067	keystroke_u	u	n/a
71.2735	0.105	142547	keystroke_a	a	n/a
71.4825	0.061	142965	keystroke_l	l	n/a
71.6485	0.09	143297	keystroke_l	l	n/a
71.8585	0.105	143717	keystroke_y	y	n/a
72.1425	0.09	144285	keystroke_Key.enter	Key.enter	n/a
72.239	14.4725	144478	prompt	n/a	prefer privacy stays projectors\n
73.0435	0.09	146087	keystroke_p	p	n/a
73.688	0.015	147376	keystroke_e	e	n/a
74.003	0.075	148006	keystroke_Key.backspace	Key.backspace	n/a
74.228	0.15	148456	keystroke_r	r	n/a
74.798	0.03	149596	keystroke_e	e	n/a
75.4435	0.105	150887	keystroke_f	f	n/a
75.6985	0.18	151397	keystroke_e	e	n/a
75.8185	0.12	151637	keystroke_r	r	n/a
76.0585	0.09	152117	keystroke_Key.space	Key.space	n/a
76.2535	0.1205	152507	keystroke_p	p	n/a
76.418	0.106	152836	keystroke_r	r	n/a
76.553	0.106	153106	keystroke_i	i	n/a
76.854	0.134	153708	keystroke_c	c	n/a
77.124	0.149	154248	keystroke_a	a	n/a
77.378	0.09	154756	keystroke_c	c	n/a
77.543	0.105	155086	keystroke_y	y	n/a
77.784	0.089	155568	keystroke_Key.space	Key.space	n/a
78.054	0.149	156108	keystroke_s	s	n/a
78.833	0.105	157666	keystroke_Key.backspace	Key.backspace	n/a
79.0585	0.075	158117	keystroke_Key.backspace	Key.backspace	n/a
79.2535	0.09	158507	keystroke_Key.backspace	Key.backspace	n/a
79.4635	0.0905	158927	keystroke_Key.backspace	Key.backspace	n/a
79.674	0.075	159348	keystroke_Key.backspace	Key.backspace	n/a
79.884	0.075	159768	keystroke_Key.backspace	Key.backspace	n/a
80.8135	0.105	161627	keystroke_v	v	n/a
81.384	0.15	162768	keystroke_a	a	n/a
81.639	0.09	163278	keystroke_c	c	n/a
81.834	0.105	163668	keystroke_y	y	n/a
82.074	0.12	164148	keystroke_Key.space	Key.space	n/a
82.509	0.135	165018	keystroke_s	s	n/a
82.734	0.12	165468	keystroke_t	t	n/a
82.929	0.15	165858	keystroke_a	a	n/a
83.154	0.105	166308	keystroke_y	y	n/a
83.364	0.12	166728	keystroke_s	s	n/a
83.529	0.105	167058	keystroke_Key.space	Key.space	n/a
83.874	0.12	167748	keystroke_p	p	n/a
84.099	0.12	168198	keystroke_r	r	n/a
84.324	0.12	168648	keystroke_o	o	n/a
84.8795	0.074	169759	keystroke_j	j	n/a
85.09	0.164	170180	keystroke_e	e	n/a
85.359	0.1055	170718	keystroke_c	c	n/a
85.5995	0.105	171199	keystroke_t	t	n/a
85.6745	0.1195	171349	keystroke_o	o	n/a
85.9145	0.09	171829	keystroke_r	r	n/a
86.154	0.12	172308	keystroke_s	s	n/a
86.649	0.06	173298	keystroke_Key.enter	Key.enter	n/a
86.7175	12.8495	173435	prompt	n/a	candles featured park always\n
87.3245	0.105	174649	keystroke_c	c	n/a
87.534	0.12	175068	keystroke_a	a	n/a
87.624	0.09	175248	keystroke_n	n	n/a
88.044	0.105	176088	keystroke_d	d	n/a
88.389	0.12	176778	keystroke_e	e	n/a
88.6295	0.135	177259	keystroke_s	s	n/a
88.8095	0.105	177619	keystroke_Key.space	Key.space	n/a
89.064	0.135	178128	keystroke_f	f	n/a
89.694	0.09	179388	keystroke_Key.backspace	Key.backspace	n/a
89.9345	0.0595	179869	keystroke_Key.backspace	Key.backspace	n/a
90.1295	0.09	180259	keystroke_Key.backspace	Key.backspace	n/a
90.3545	0.075	180709	keystroke_Key.backspace	Key.backspace	n/a
90.5795	0.075	181159	keystroke_Key.backspace	Key.backspace	n/a
91.7345	0.105	183469	keystroke_d	d	n/a
91.959	0.105	183918	keystroke_l	l	n/a
92.139	0.12	184278	keystroke_e	e	n/a
92.365	0.149	184730	keystroke_s	s	n/a
92.634	0.075	185268	keystroke_Key.space	Key.space	n/a
92.994	0.121	185988	keystroke_f	f	n/a
93.31	0.164	186620	keystroke_e	e	n/a
93.609	0.1505	187218	keystroke_a	a	n/a
93.8645	0.12	187729	keystroke_t	t	n/a
94.1645	0.09	188329	keystroke_u	u	n/a
94.3745	0.165	188749	keystroke_r	r	n/a
94.6445	0.165	189289	keystroke_e	e	n/a
94.9445	0.105	189889	keystroke_d	d	n/a
95.214	0.09	190428	keystroke_Key.space	Key.space	n/a
95.469	0.105	190938	keystroke_p	p	n/a
95.635	0.1645	191270	keystroke_a	a	n/a
95.7695	0.12	191539	keystroke_r	r	n/a
95.9345	0.09	191869	keystroke_k	k	n/a
96.5195	0.135	193039	keystroke_Key.space	Key.space	n/a
96.9095	0.105	193819	keystroke_a	a	n/a
97.0745	0.105	194149	keystroke_l	l	n/a
97.2545	0.075	194509	keystroke_s	s	n/a
97.8095	0.075	195619	keystroke_Key.backspace	Key.backspace	n/a
97.9745	0.1355	195949	keystroke_w	w	n/a
98.275	0.105	196550	keystroke_a	a	n/a
99.0095	0.075	198019	keystroke_y	y	n/a
99.2195	0.1055	198439	keystroke_s	s	n/a
99.4595	0.105	198919	keystroke_Key.enter	Key.enter	n/a
99.57	11.517	199140	prompt	n/a	firm spain publicity thailand\n
100.2255	0.074	200451	keystroke_f	f	n/a
100.4055	0.074	200811	keystroke_i	i	n/a
100.5395	0.1355	201079	keystroke_r	r	n/a
100.825	0.0745	201650	keystroke_m	m	n/a
101.109	0.0905	202218	keystroke_Key.space	Key.space	n/a
101.575	0.135	203150	keystroke_s	s	n/a
101.695	0.105	203390	keystroke_p	p	n/a
101.9645	0.105	203929	keystroke_a	a	n/a
102.0855	0.059	204171	keystroke_i	i	n/a
102.2345	0.075	204469	keystroke_n	n	n/a
102.6845	0.075	205369	keystroke_Key.space	Key.space	n/a
103.465	0.09	206930	keystroke_Key.backspace	Key.backspace	n/a
103.9745	0.076	207949	keystroke_Key.backspace	Key.backspace	n/a
105.0855	0.12	210171	keystroke_n	n	n/a
105.685	0.1205	211370	keystroke_Key.space	Key.space	n/a
105.9855	0.12	211971	keystroke_p	p	n/a
106.6155	0.09	213231	keystroke_u	u	n/a
106.7955	0.09	213591	keystroke_b	b	n/a
107.0205	0.09	214041	keystroke_l	l	n/a
107.2455	0.075	214491	keystroke_i	i	n/a
107.6205	0.075	215241	keystroke_c	c	n/a
107.8155	0.075	215631	keystroke_i	i	n/a
108.0255	0.075	216051	keystroke_t	t	n/a
108.1305	0.105	216261	keystroke_y	y	n/a
108.4155	0.09	216831	keystroke_Key.space	Key.space	n/a
108.8355	0.12	217671	keystroke_t	t	n/a
109.016	0.089	218032	keystroke_h	h	n/a
109.525	0.12	219050	keystroke_a	a	n/a
109.69	0.105	219380	keystroke_i	i	n/a
109.975	0.09	219950	keystroke_l	l	n/a
110.3805	0.12	220761	keystroke_a	a	n/a
110.53	0.09	221060	keystroke_n	n	n/a
110.725	0.09	221450	keystroke_d	d	n/a
110.965	0.12	221930	keystroke_Key.enter	Key.enter	n/a
111.091	11.021	222182	prompt	n/a	sympathy alabama yale morocco\n
111.896	0.074	223792	keystroke_s	s	n/a
112.075	0.105	224150	keystroke_y	y	n/a
112.48	0.06	224960	keystroke_p	p	n/a
112.9755	0.075	225951	keystroke_Key.backspace	Key.backspace	n/a
113.351	0.105	226702	keystroke_m	m	n/a
113.816	0.105	227632	keystroke_p	p	n/a
114.011	0.1345	228022	keystroke_a	a	n/a
114.2355	0.105	228471	keystroke_t	t	n/a
114.3265	0.104	228653	keystroke_h	h	n/a
114.5505	0.09	229101	keystroke_y	y	n/a
114.9405	0.09	229881	keystroke_Key.space	Key.space	n/a
115.3765	0.119	230753	keystroke_a	a	n/a
115.6005	0.075	231201	keystroke_l	l	n/a
115.991	0.09	231982	keystroke_a	a	n/a
116.561	0.105	233122	keystroke_b	b	n/a
116.816	0.09	233632	keystroke_a	a	n/a
117.056	0.105	234112	keystroke_m	m	n/a
117.311	0.089	234622	keystroke_a	a	n/a
117.506	0.104	235012	keystroke_Key.space	Key.space	n/a
117.835	0.105	235670	keystroke_y	y	n/a
118.061	0.12	236122	keystroke_a	a	n/a
118.3	0.105	236600	keystroke_l	l	n/a
118.51	0.1205	237020	keystroke_e	e	n/a
119.4255	0.09	238851	keystroke_Key.space	Key.space	n/a
120.326	0.09	240652	keystroke_m	m	n/a
120.58	0.09	241160	keystroke_o	o	n/a
120.805	0.12	241610	keystroke_r	r	n/a
121.015	0.09	242030	keystroke_o	o	n/a
121.3305	0.12	242661	keystroke_c	c	n/a
121.5405	0.105	243081	keystroke_c	c	n/a
121.7055	0.09	243411	keystroke_o	o	n/a
122.0055	0.105	244011	keystroke_Key.enter	Key.enter	n/a
122.1155	8.577	244231	prompt	n/a	enrollment exclusion thai both\n
122.9655	0.12	245931	keystroke_e	e	n/a
123.2055	0.09	246411	keystroke_n	n	n/a
123.5055	0.12	247011	keystroke_r	r	n/a
123.6555	0.1345	247311	keystroke_o	o	n/a
123.955	0.0605	247910	keystroke_l	l	n/a
124.1355	0.075	248271	keystroke_l	l	n/a
124.436	0.075	248872	keystroke_m	m	n/a
124.556	0.135	249112	keystroke_e	e	n/a
124.781	0.09	249562	keystroke_n	n	n/a
124.961	0.075	249922	keystroke_t	t	n/a
125.141	0.09	250282	keystroke_Key.space	Key.space	n/a
125.681	0.165	251362	keystroke_e	e	n/a
126.0405	0.135	252081	keystroke_x	x	n/a
126.5655	0.0305	253131	keystroke_c	c	n/a
126.866	0.045	253732	keystroke_l	l	n/a
127.061	0.075	254122	keystroke_u	u	n/a
127.271	0.09	254542	keystroke_s	s	n/a
127.436	0.0595	254872	keystroke_i	i	n/a
127.6155	0.12	255231	keystroke_o	o	n/a
127.8555	0.105	255711	keystroke_n	n	n/a
128.1405	0.09	256281	keystroke_Key.space	Key.space	n/a
128.3805	0.105	256761	keystroke_t	t	n/a
128.5455	0.075	257091	keystroke_h	h	n/a
128.7705	0.105	257541	keystroke_a	a	n/a
128.9805	0.075	257961	keystroke_i	i	n/a
129.296	0.074	258592	keystroke_Key.space	Key.space	n/a
129.445	0.12	258890	keystroke_b	b	n/a
129.655	0.091	259310	keystroke_o	o	n/a
129.866	0.119	259732	keystroke_t	t	n/a
130.0155	0.075	260031	keystroke_h	h	n/a
130.57	0.121	261140	keystroke_Key.enter	Key.enter	n/a
130.696	9.641	261392	prompt	n/a	bass brazilian laden emirates\n
131.3355	0.06	262671	keystroke_b	b	n/a
131.5605	0.105	263121	keystroke_a	a	n/a
131.9055	0.06	263811	keystroke_s	s	n/a
132.0555	0.12	264111	keystroke_s	s	n/a
132.3105	0.09	264621	keystroke_Key.space	Key.space	n/a
132.6105	0.105	265221	keystroke_b	b	n/a
132.8955	0.15	265791	keystroke_r	r	n/a
133.2105	0.135	266421	keystroke_a	a	n/a
133.585	0.1205	267170	keystroke_z	z	n/a
133.9155	0.075	267831	keystroke_i	i	n/a
134.2455	0.075	268491	keystroke_l	l	n/a
134.515	0.0605	269030	keystroke_i	i	n/a
134.9795	0.106	269959	keystroke_a	a	n/a
135.1445	0.075	270289	keystroke_n	n	n/a
135.3995	0.076	270799	keystroke_Key.space	Key.space	n/a
135.9255	0.105	271851	keystroke_l	l	n/a
136.7205	0.014	273441	keystroke_a	a	n/a
137.1845	0.09	274369	keystroke_d	d	n/a
137.4095	0.135	274819	keystroke_e	e	n/a
137.5595	0.09	275119	keystroke_n	n	n/a
137.8595	0.105	275719	keystroke_Key.space	Key.space	n/a
138.355	0.12	276710	keystroke_e	e	n/a
138.595	0.09	277190	keystroke_m	m	n/a
138.85	0.075	277700	keystroke_i	i	n/a
139.0155	0.135	278031	keystroke_r	r	n/a
139.3905	0.119	278781	keystroke_a	a	n/a
139.5695	0.105	279139	keystroke_t	t	n/a
139.81	0.12	279620	keystroke_e	e	n/a
140.005	0.165	280010	keystroke_s	s	n/a
140.215	0.12	280430	keystroke_Key.enter	Key.enter	n/a
140.34	10.4665	280680	prompt	n/a	guard shades britannica purple\n
141.0395	0.121	282079	keystroke_g	g	n/a
142.045	0.06	284090	keystroke_u	u	n/a
142.255	0.195	284510	keystroke_a	a	n/a
142.435	0.165	284870	keystroke_r	r	n/a
142.825	0.105	285650	keystroke_d	d	n/a
143.05	0.1045	286100	keystroke_Key.space	Key.space	n/a
143.2905	0.12	286581	keystroke_s	s	n/a
143.4405	0.075	286881	keystroke_h	h	n/a
143.6055	0.134	287211	keystroke_a	a	n/a
143.95	0.09	287900	keystroke_d	d	n/a
144.175	0.105	288350	keystroke_e	e	n/a
144.79	0.12	289580	keystroke_s	s	n/a
145.105	0.09	290210	keystroke_Key.space	Key.space	n/a
145.42	0.075	290840	keystroke_b	b	n/a
145.7945	0.075	291589	keystroke_r	r	n/a
145.9595	0.076	291919	keystroke_i	i	n/a
147.13	0.09	294260	keystroke_a	a	n/a
147.43	0.0745	294860	keystroke_n	n	n/a
147.6105	0.059	295221	keystroke_n	n	n/a
147.8205	0.059	295641	keystroke_i	i	n/a
148.0005	0.09	296001	keystroke_c	c	n/a
148.2245	0.105	296449	keystroke_a	a	n/a
148.4195	0.105	296839	keystroke_Key.space	Key.space	n/a
148.7045	0.121	297409	keystroke_p	p	n/a
148.9745	0.105	297949	keystroke_u	u	n/a
149.7095	0.075	299419	keystroke_r	r	n/a
150.055	0.075	300110	keystroke_p	p	n/a
150.295	0.09	300590	keystroke_l	l	n/a
150.46	0.105	300920	keystroke_e	e	n/a
150.7	0.1045	301400	keystroke_Key.enter	Key.enter	n/a
150.8105	10.196	301621	prompt	n/a	rely platinum memory playback\n
151.4505	0.134	302901	keystroke_r	r	n/a
152.0495	0.105	304099	keystroke_e	e	n/a
152.2445	0.105	304489	keystroke_l	l	n/a
152.4995	0.105	304999	keystroke_y	y	n/a
152.7245	0.075	305449	keystroke_Key.space	Key.space	n/a
152.9795	0.09	305959	keystroke_p	p	n/a
153.4745	0.075	306949	keystroke_l	l	n/a
153.6545	0.136	307309	keystroke_a	a	n/a
153.9245	0.09	307849	keystroke_t	t	n/a
154.24	0.075	308480	keystroke_i	i	n/a
154.48	0.09	308960	keystroke_n	n	n/a
155.155	0.075	310310	keystroke_u	u	n/a
155.365	0.09	310730	keystroke_m	m	n/a
155.65	0.12	311300	keystroke_Key.space	Key.space	n/a
156.205	0.075	312410	keystroke_m	m	n/a
156.445	0.12	312890	keystroke_e	e	n/a
156.745	0.0905	313490	keystroke_m	m	n/a
157.1805	0.105	314361	keystroke_o	o	n/a
157.3755	0.12	314751	keystroke_r	r	n/a
157.5405	0.105	315081	keystroke_y	y	n/a
157.81	0.105	315620	keystroke_Key.space	Key.space	n/a
158.3655	0.104	316731	keystroke_p	p	n/a
158.6345	0.075	317269	keystroke_l	l	n/a
158.7995	0.135	317599	keystroke_a	a	n/a
159.0395	0.105	318079	keystroke_y	y	n/a
159.3855	0.074	318771	keystroke_b	b	n/a
159.6095	0.12	319219	keystroke_a	a	n/a
159.8655	0.074	319731	keystroke_c	c	n/a
160.0455	0.074	320091	keystroke_k	k	n/a
160.2845	0.06	320569	keystroke_Key.space	Key.space	n/a
160.915	0.0905	321830	keystroke_Key.enter	Key.enter	n/a
161.0115	12.88	322023	prompt	n/a	proved helen opponent constitutional\n
161.71	0.105	323420	keystroke_p	p	n/a
161.89	0.12	323780	keystroke_r	r	n/a
162.085	0.09	324170	keystroke_o	o	n/a
162.235	0.09	324470	keystroke_v	v	n/a
162.475	0.12	324950	keystroke_e	e	n/a
162.745	0.09	325490	keystroke_d	d	n/a
162.85	0.09	325700	keystroke_Key.space	Key.space	n/a
163.105	0.09	326210	keystroke_h	h	n/a
163.315	0.105	326630	keystroke_e	e	n/a
163.48	0.09	326960	keystroke_l	l	n/a
163.72	0.105	327440	keystroke_e	e	n/a
164.215	0.045	328430	keystroke_n	n	n/a
164.47	0.09	328940	keystroke_Key.space	Key.space	n/a
164.7255	0.105	329451	keystroke_o	o	n/a
165.085	0.105	330170	keystroke_p	p	n/a
165.31	0.0745	330620	keystroke_p	p	n/a
165.6245	0.0905	331249	keystroke_o	o	n/a
166.465	0.06	332930	keystroke_n	n	n/a
167.035	0.105	334070	keystroke_e	e	n/a
167.2	0.09	334400	keystroke_n	n	n/a
167.365	0.075	334730	keystroke_t	t	n/a
167.755	0.09	335510	keystroke_Key.space	Key.space	n/a
168.28	0.09	336560	keystroke_s	s	n/a
169.285	0.0595	338570	keystroke_Key.backspace	Key.backspace	n/a
169.6445	0.09	339289	keystroke_c	c	n/a
169.9145	0.015	339829	keystroke_o	o	n/a
170.004	0.105	340008	keystroke_n	n	n/a
170.214	0.121	340428	keystroke_s	s	n/a
170.454	0.12	340908	keystroke_t	t	n/a
170.755	0.075	341510	keystroke_i	i	n/a
171.205	0.09	342410	keystroke_t	t	n/a
171.445	0.09	342890	keystroke_u	u	n/a
172.045	0.075	344090	keystroke_t	t	n/a
172.54	0.06	345080	keystroke_i	i	n/a
172.8555	0.105	345711	keystroke_o	o	n/a
173.0645	0.076	346129	keystroke_n	n	n/a
173.2445	0.105	346489	keystroke_a	a	n/a
173.4245	0.106	346849	keystroke_l	l	n/a
173.7995	0.09	347599	keystroke_Key.enter	Key.enter	n/a
173.895	11.411	347790	prompt	n/a	diary brother adapter outputs\n
174.715	0.105	349430	keystroke_d	d	n/a
174.925	0.06	349850	keystroke_i	i	n/a
175.135	0.09	350270	keystroke_r	r	n/a
175.39	0.1645	350780	keystroke_a	a	n/a
175.929	0.06	351858	keystroke_Key.backspace	Key.backspace	n/a
176.14	0.074	352280	keystroke_Key.backspace	Key.backspace	n/a
176.26	0.1945	352520	keystroke_a	a	n/a
176.4245	0.135	352849	keystroke_r	r	n/a
176.6195	0.105	353239	keystroke_y	y	n/a
176.9495	0.105	353899	keystroke_Key.space	Key.space	n/a
177.265	0.09	354530	keystroke_b	b	n/a
177.535	0.029	355070	keystroke_d	d	n/a
177.55	0.059	355100	keystroke_r	r	n/a
177.654	0.0905	355308	keystroke_o	o	n/a
177.8645	0.09	355729	keystroke_t	t	n/a
177.9845	0.0745	355969	keystroke_h	h	n/a
178.374	0.106	356748	keystroke_Key.backspace	Key.backspace	n/a
178.6145	0.09	357229	keystroke_Key.backspace	Key.backspace	n/a
178.8405	0.074	357681	keystroke_Key.backspace	Key.backspace	n/a
179.0495	0.0895	358099	keystroke_Key.backspace	Key.backspace	n/a
179.274	0.075	358548	keystroke_Key.backspace	Key.backspace	n/a
179.6795	0.09	359359	keystroke_r	r	n/a
180.0555	0.09	360111	keystroke_o	o	n/a
180.3095	0.0895	360619	keystroke_t	t	n/a
180.43	0.09	360860	keystroke_h	h	n/a
180.565	0.165	361130	keystroke_e	e	n/a
180.685	0.12	361370	keystroke_r	r	n/a
180.955	0.105	361910	keystroke_Key.space	Key.space	n/a
181.3595	0.1205	362719	keystroke_a	a	n/a
181.6595	0.0905	363319	keystroke_d	d	n/a
182.065	0.09	364130	keystroke_a	a	n/a
182.275	0.06	364550	keystroke_p	p	n/a
182.5	0.135	365000	keystroke_t	t	n/a
182.86	0.18	365720	keystroke_e	e	n/a
183.01	0.105	366020	keystroke_r	r	n/a
183.235	0.105	366470	keystroke_Key.space	Key.space	n/a
183.685	0.1205	367370	keystroke_o	o	n/a
183.8795	0.12	367759	keystroke_u	u	n/a
184.0595	0.121	368119	keystroke_t	t	n/a
184.3595	0.12	368719	keystroke_p	p	n/a
184.5395	0.105	369079	keystroke_u	u	n/a
184.7495	0.09	369499	keystroke_t	t	n/a
185.0045	0.09	370009	keystroke_s	s	n/a
185.1995	0.105	370399	keystroke_Key.enter	Key.enter	n/a
185.309	6.8365	370618	prompt	n/a	print cheap converter doing\n
185.9795	0.075	371959	keystroke_p	p	n/a
186.1145	0.12	372229	keystroke_r	r	n/a
186.2645	0.09	372529	keystroke_i	i	n/a
186.4295	0.12	372859	keystroke_n	n	n/a
186.5645	0.09	373129	keystroke_t	t	n/a
186.7595	0.09	373519	keystroke_Key.space	Key.space	n/a
187.0595	0.09	374119	keystroke_c	c	n/a
187.1945	0.105	374389	keystroke_h	h	n/a
187.3445	0.1195	374689	keystroke_e	e	n/a
187.5995	0.1205	375199	keystroke_a	a	n/a
187.825	0.09	375650	keystroke_p	p	n/a
188.2895	0.09	376579	keystroke_Key.space	Key.space	n/a
188.5295	0.09	377059	keystroke_c	c	n/a
188.7395	0.105	377479	keystroke_o	o	n/a
188.9795	0.09	377959	keystroke_n	n	n/a
189.1445	0.1195	378289	keystroke_v	v	n/a
189.4145	0.165	378829	keystroke_e	e	n/a
189.5045	0.12	379009	keystroke_r	r	n/a
189.73	0.119	379460	keystroke_t	t	n/a
190.0445	0.165	380089	keystroke_e	e	n/a
190.1645	0.12	380329	keystroke_r	r	n/a
190.63	0.074	381260	keystroke_Key.space	Key.space	n/a
191.034	0.121	382068	keystroke_d	d	n/a
191.305	0.12	382610	keystroke_o	o	n/a
191.514	0.075	383028	keystroke_i	i	n/a
191.679	0.121	383358	keystroke_n	n	n/a
191.784	0.091	383568	keystroke_g	g	n/a
192.025	0.119	384050	keystroke_Key.enter	Key.enter	n/a
192.1515	10.2245	384303	prompt	n/a	springs respect ongoing typical\n
192.9095	0.09	385819	keystroke_s	s	n/a
193.0595	0.105	386119	keystroke_p	p	n/a
193.2695	0.135	386539	keystroke_r	r	n/a
193.4345	0.09	386869	keystroke_i	i	n/a
193.6295	0.09	387259	keystroke_n	n	n/a
193.7945	0.09	387589	keystroke_g	g	n/a
194.0195	0.12	388039	keystroke_s	s	n/a
194.1545	0.135	388309	keystroke_Key.space	Key.space	n/a
194.4995	0.165	388999	keystroke_r	r	n/a
194.7245	0.135	389449	keystroke_e	e	n/a
195.01	0.104	390020	keystroke_s	s	n/a
195.174	0.105	390348	keystroke_p	p	n/a
195.685	0.104	391370	keystroke_e	e	n/a
195.9395	0.12	391879	keystroke_c	c	n/a
196.2395	0.06	392479	keystroke_t	t	n/a
196.3595	0.105	392719	keystroke_Key.space	Key.space	n/a
196.6295	0.09	393259	keystroke_o	o	n/a
196.8245	0.09	393649	keystroke_n	n	n/a
196.9895	0.105	393979	keystroke_g	g	n/a
198.8345	0.045	397669	keystroke_o	o	n/a
198.9545	0.075	397909	keystroke_i	i	n/a
199.1045	0.15	398209	keystroke_n	n	n/a
199.3295	0.075	398659	keystroke_g	g	n/a
199.704	0.09	399408	keystroke_Key.space	Key.space	n/a
200.304	0.09	400608	keystroke_t	t	n/a
200.544	0.105	401088	keystroke_y	y	n/a
200.829	0.12	401658	keystroke_p	p	n/a
201.204	0.076	402408	keystroke_i	i	n/a
201.489	0.091	402978	keystroke_c	c	n/a
201.8945	0.105	403789	keystroke_a	a	n/a
202.0295	0.09	404059	keystroke_l	l	n/a
202.2845	0.09	404569	keystroke_Key.enter	Key.enter	n/a
202.3795	11.5915	404759	prompt	n/a	populations approval returns strand\n
203.0795	0.105	406159	keystroke_p	p	n/a
203.4695	0.12	406939	keystroke_o	o	n/a
204.16	0.09	408320	keystroke_p	p	n/a
204.6245	0.075	409249	keystroke_u	u	n/a
204.9545	0.09	409909	keystroke_l	l	n/a
205.12	0.1195	410240	keystroke_a	a	n/a
205.2695	0.105	410539	keystroke_t	t	n/a
205.3895	0.09	410779	keystroke_i	i	n/a
205.57	0.12	411140	keystroke_o	o	n/a
205.765	0.0895	411530	keystroke_n	n	n/a
205.9295	0.12	411859	keystroke_s	s	n/a
206.1095	0.09	412219	keystroke_Key.space	Key.space	n/a
206.3495	0.135	412699	keystroke_a	a	n/a
206.8145	0.09	413629	keystroke_p	p	n/a
206.9945	0.105	413989	keystroke_p	p	n/a
207.2945	0.105	414589	keystroke_r	r	n/a
207.4745	0.09	414949	keystroke_o	o	n/a
207.7145	0.075	415429	keystroke_v	v	n/a
207.9995	0.105	415999	keystroke_a	a	n/a
208.1795	0.09	416359	keystroke_l	l	n/a
208.509	0.09	417018	keystroke_Key.space	Key.space	n/a
209.769	0.075	419538	keystroke_r	r	n/a
209.9795	0.105	419959	keystroke_e	e	n/a
210.2495	0.105	420499	keystroke_t	t	n/a
210.6695	0.075	421339	keystroke_u	u	n/a
210.8645	0.105	421729	keystroke_r	r	n/a
211.0445	0.06	422089	keystroke_n	n	n/a
211.3145	0.105	422629	keystroke_s	s	n/a
211.4645	0.09	422929	keystroke_Key.space	Key.space	n/a
211.7195	0.12	423439	keystroke_s	s	n/a
211.8845	0.105	423769	keystroke_t	t	n/a
212.8445	0.09	425689	keystroke_r	r	n/a
213.0995	0.12	426199	keystroke_a	a	n/a
213.2345	0.09	426469	keystroke_n	n	n/a
213.6395	0.0905	427279	keystroke_d	d	n/a
213.864	0.1055	427728	keystroke_Key.enter	Key.enter	n/a
213.9745	11.8615	427949	prompt	n/a	singapore thru religious venezuela\n
214.719	0.121	429438	keystroke_s	s	n/a
214.93	0.074	429860	keystroke_i	i	n/a
215.094	0.105	430188	keystroke_n	n	n/a
215.244	0.12	430488	keystroke_g	g	n/a
215.59	0.119	431180	keystroke_a	a	n/a
215.889	0.105	431778	keystroke_p	p	n/a
216.1745	0.075	432349	keystroke_o	o	n/a
216.2945	0.135	432589	keystroke_r	r	n/a
216.5345	0.09	433069	keystroke_e	e	n/a
216.7145	0.09	433429	keystroke_Key.space	Key.space	n/a
216.9995	0.105	433999	keystroke_t	t	n/a
217.1345	0.09	434269	keystroke_h	h	n/a
217.4045	0.12	434809	keystroke_r	r	n/a
217.6295	0.0895	435259	keystroke_u	u	n/a
219.609	0.0755	439218	keystroke_Key.space	Key.space	n/a
220.2095	0.105	440419	keystroke_r	r	n/a
220.4045	0.12	440809	keystroke_e	e	n/a
220.6745	0.135	441349	keystroke_l	l	n/a
220.9745	0.06	441949	keystroke_i	i	n/a
221.274	0.075	442548	keystroke_g	g	n/a
221.47	0.059	442940	keystroke_i	i	n/a
221.7545	0.09	443509	keystroke_o	o	n/a
221.8745	0.12	443749	keystroke_u	u	n/a
222.1145	0.12	444229	keystroke_s	s	n/a
222.2945	0.105	444589	keystroke_Key.space	Key.space	n/a
222.9695	0.105	445939	keystroke_v	v	n/a
223.2245	0.1195	446449	keystroke_e	e	n/a
223.374	0.09	446748	keystroke_n	n	n/a
223.779	0.136	447558	keystroke_e	e	n/a
224.169	0.09	448338	keystroke_z	z	n/a
224.484	0.09	448968	keystroke_u	u	n/a
224.9945	0.12	449989	keystroke_e	e	n/a
225.2495	0.09	450499	keystroke_l	l	n/a
225.5045	0.12	451009	keystroke_a	a	n/a
225.7295	0.105	451459	keystroke_Key.enter	Key.enter	n/a
225.84	11.9815	451680	prompt	n/a	intranet returns rubber piece\n
226.7945	0.06	453589	keystroke_i	i	n/a
226.9895	0.09	453979	keystroke_n	n	n/a
227.1395	0.12	454279	keystroke_t	t	n/a
227.4695	0.09	454939	keystroke_r	r	n/a
227.6945	0.12	455389	keystroke_a	a	n/a
227.8295	0.09	455659	keystroke_n	n	n/a
228.0695	0.105	456139	keystroke_e	e	n/a
228.2945	0.06	456589	keystroke_s	s	n/a
229.1795	0.075	458359	keystroke_Key.backspace	Key.backspace	n/a
229.4345	0.105	458869	keystroke_t	t	n/a
229.7645	0.105	459529	keystroke_Key.space	Key.space	n/a
230.3345	0.1195	460669	keystroke_r	r	n/a
230.589	0.105	461178	keystroke_e	e	n/a
230.799	0.075	461598	keystroke_t	t	n/a
230.934	0.075	461868	keystroke_u	u	n/a
231.114	0.105	462228	keystroke_r	r	n/a
231.339	0.075	462678	keystroke_n	n	n/a
231.594	0.105	463188	keystroke_s	s	n/a
232.0445	0.044	464089	keystroke_Key.space	Key.space	n/a
232.434	0.121	464868	keystroke_r	r	n/a
232.69	0.09	465380	keystroke_u	u	n/a
233.3045	0.105	466609	keystroke_b	b	n/a
233.4845	0.105	466969	keystroke_b	b	n/a
233.754	0.135	467508	keystroke_e	e	n/a
233.859	0.105	467718	keystroke_r	r	n/a
234.534	0.06	469068	keystroke_Key.space	Key.space	n/a
235.075	0.12	470150	keystroke_p	p	n/a
235.524	0.061	471048	keystroke_i	i	n/a
236.214	0.121	472428	keystroke_e	e	n/a
236.574	0.09	473148	keystroke_c	c	n/a
237.3845	0.105	474769	keystroke_e	e	n/a
237.714	0.105	475428	keystroke_Key.enter	Key.enter	n/a
237.825	11.6355	475650	prompt	n/a	brake competitions cycling myanmar\n
238.569	0.06	477138	keystroke_b	b	n/a
238.809	0.12	477618	keystroke_r	r	n/a
239.124	0.106	478248	keystroke_a	a	n/a
239.334	0.075	478668	keystroke_k	k	n/a
239.544	0.12	479088	keystroke_e	e	n/a
240.054	0.075	480108	keystroke_Key.space	Key.space	n/a
240.4745	0.105	480949	keystroke_c	c	n/a
240.6395	0.12	481279	keystroke_o	o	n/a
240.8945	0.12	481789	keystroke_m	m	n/a
241.2245	0.12	482449	keystroke_p	p	n/a
241.899	0.105	483798	keystroke_e	e	n/a
242.139	0.075	484278	keystroke_t	t	n/a
242.529	0.06	485058	keystroke_i	i	n/a
242.709	0.09	485418	keystroke_t	t	n/a
242.919	0.09	485838	keystroke_i	i	n/a
243.159	0.075	486318	keystroke_o	o	n/a
243.34	0.089	486680	keystroke_n	n	n/a
243.549	0.091	487098	keystroke_s	s	n/a
243.7295	0.09	487459	keystroke_Key.space	Key.space	n/a
244.164	0.09	488328	keystroke_c	c	n/a
244.389	0.075	488778	keystroke_y	y	n/a
244.854	0.09	489708	keystroke_c	c	n/a
245.064	0.09	490128	keystroke_l	l	n/a
245.259	0.075	490518	keystroke_i	i	n/a
245.424	0.105	490848	keystroke_n	n	n/a
245.604	0.0905	491208	keystroke_g	g	n/a
245.7545	0.1045	491509	keystroke_Key.space	Key.space	n/a
246.024	0.105	492048	keystroke_m	m	n/a
246.264	0.105	492528	keystroke_a	a	n/a
246.984	0.09	493968	keystroke_Key.backspace	Key.backspace	n/a
247.404	0.075	494808	keystroke_y	y	n/a
248.0355	0.1035	496071	keystroke_a	a	n/a
248.184	0.075	496368	keystroke_n	n	n/a
248.7395	0.075	497479	keystroke_m	m	n/a
248.9345	0.15	497869	keystroke_a	a	n/a
249.1295	0.12	498259	keystroke_r	r	n/a
249.3395	0.12	498679	keystroke_Key.enter	Key.enter	n/a
249.464	8.667	498928	prompt	n/a	assets preferences ascii summit\n
250.164	0.135	500328	keystroke_a	a	n/a
250.434	0.09	500868	keystroke_s	s	n/a
250.584	0.105	501168	keystroke_s	s	n/a
250.8095	0.12	501619	keystroke_e	e	n/a
251.0195	0.105	502039	keystroke_t	t	n/a
251.2745	0.105	502549	keystroke_s	s	n/a
251.4545	0.12	502909	keystroke_Key.space	Key.space	n/a
251.6645	0.12	503329	keystroke_p	p	n/a
251.8295	0.15	503659	keystroke_r	r	n/a
252.0995	0.135	504199	keystroke_e	e	n/a
252.5345	0.09	505069	keystroke_f	f	n/a
252.8795	0.135	505759	keystroke_e	e	n/a
253.1345	0.12	506269	keystroke_r	r	n/a
253.524	0.105	507048	keystroke_e	e	n/a
253.7495	0.09	507499	keystroke_n	n	n/a
254.0495	0.105	508099	keystroke_c	c	n/a
254.2895	0.105	508579	keystroke_e	e	n/a
254.5595	0.105	509119	keystroke_s	s	n/a
254.7845	0.105	509569	keystroke_Key.space	Key.space	n/a
255.069	0.165	510138	keystroke_a	a	n/a
255.444	0.135	510888	keystroke_s	s	n/a
255.939	0.09	511878	keystroke_c	c	n/a
256.2395	0.06	512479	keystroke_i	i	n/a
256.4045	0.09	512809	keystroke_i	i	n/a
256.6595	0.075	513319	keystroke_Key.space	Key.space	n/a
256.8845	0.15	513769	keystroke_s	s	n/a
257.0195	0.075	514039	keystroke_u	u	n/a
257.2295	0.075	514459	keystroke_m	m	n/a
257.3795	0.09	514759	keystroke_m	m	n/a
257.604	0.075	515208	keystroke_i	i	n/a
257.799	0.09	515598	keystroke_t	t	n/a
258.024	0.1055	516048	keystroke_Key.enter	Key.enter	n/a
258.134	11.2465	516268	prompt	n/a	routines schemes athletes continental\n
258.8335	0.1505	517667	keystroke_r	r	n/a
259.15	0.09	518300	keystroke_o	o	n/a
259.2985	0.136	518597	keystroke_u	u	n/a
259.5245	0.104	519049	keystroke_t	t	n/a
259.72	0.09	519440	keystroke_i	i	n/a
259.885	0.104	519770	keystroke_n	n	n/a
260.095	0.104	520190	keystroke_e	e	n/a
260.319	0.12	520638	keystroke_s	s	n/a
260.484	0.12	520968	keystroke_Key.space	Key.space	n/a
260.844	0.15	521688	keystroke_c	c	n/a
261.3995	0.075	522799	keystroke_Key.backspace	Key.backspace	n/a
261.565	0.149	523130	keystroke_s	s	n/a
261.789	0.165	523578	keystroke_c	c	n/a
262.059	0.105	524118	keystroke_h	h	n/a
262.5095	0.12	525019	keystroke_e	e	n/a
262.6895	0.0745	525379	keystroke_m	m	n/a
263.065	0.104	526130	keystroke_e	e	n/a
263.394	0.09	526788	keystroke_s	s	n/a
263.5895	0.1045	527179	keystroke_Key.space	Key.space	n/a
264.189	0.106	528378	keystroke_a	a	n/a
264.414	0.12	528828	keystroke_t	t	n/a
264.58	0.09	529160	keystroke_h	h	n/a
264.924	0.075	529848	keystroke_l	l	n/a
265.134	0.09	530268	keystroke_e	e	n/a
265.359	0.075	530718	keystroke_t	t	n/a
265.899	0.09	531798	keystroke_e	e	n/a
266.184	0.09	532368	keystroke_s	s	n/a
266.364	0.09	532728	keystroke_Key.space	Key.space	n/a
266.649	0.105	533298	keystroke_c	c	n/a
266.859	0.0905	533718	keystroke_o	o	n/a
267.0845	0.09	534169	keystroke_n	n	n/a
267.2495	0.12	534499	keystroke_t	t	n/a
267.5045	0.075	535009	keystroke_i	i	n/a
267.774	0.075	535548	keystroke_n	n	n/a
267.925	0.164	535850	keystroke_e	e	n/a
268.3	0.074	536600	keystroke_n	n	n/a
268.494	0.105	536988	keystroke_t	t	n/a
268.884	0.105	537768	keystroke_a	a	n/a
269.004	0.105	538008	keystroke_l	l	n/a
269.259	0.12	538518	keystroke_Key.enter	Key.enter	n/a
269.3845	12.266	538769	prompt	n/a	representatives slight realized lemon\n
269.9795	0.165	539959	keystroke_r	r	n/a
270.2645	0.119	540529	keystroke_e	e	n/a
270.4295	0.105	540859	keystroke_p	p	n/a
270.6395	0.12	541279	keystroke_r	r	n/a
271.0885	0.121	542177	keystroke_e	e	n/a
271.3735	0.106	542747	keystroke_s	s	n/a
271.6895	0.09	543379	keystroke_e	e	n/a
271.8235	0.09	543647	keystroke_n	n	n/a
272.0035	0.09	544007	keystroke_t	t	n/a
272.4095	0.104	544819	keystroke_a	a	n/a
272.6195	0.119	545239	keystroke_t	t	n/a
272.8435	0.076	545687	keystroke_i	i	n/a
273.354	0.03	546708	keystroke_e	e	n/a
273.984	0.075	547968	keystroke_Key.backspace	Key.backspace	n/a
274.194	0.135	548388	keystroke_v	v	n/a
274.5685	0.105	549137	keystroke_e	e	n/a
274.9135	0.015	549827	keystroke_s	s	n/a
275.6035	0.0755	551207	keystroke_Key.space	Key.space	n/a
276.1435	0.1205	552287	keystroke_s	s	n/a
276.6395	0.0445	553279	keystroke_l	l	n/a
276.789	0.06	553578	keystroke_i	i	n/a
276.91	0.09	553820	keystroke_g	g	n/a
277.029	0.09	554058	keystroke_h	h	n/a
277.179	0.09	554358	keystroke_t	t	n/a
277.314	0.09	554628	keystroke_Key.space	Key.space	n/a
277.704	0.12	555408	keystroke_r	r	n/a
277.884	0.105	555768	keystroke_e	e	n/a
278.0795	0.12	556159	keystroke_a	a	n/a
278.2295	0.09	556459	keystroke_l	l	n/a
278.4545	0.06	556909	keystroke_i	i	n/a
278.6495	0.135	557299	keystroke_z	z	n/a
279.3395	0.105	558679	keystroke_e	e	n/a
279.6695	0.075	559339	keystroke_d	d	n/a
279.9995	0.075	559999	keystroke_Key.space	Key.space	n/a
280.509	0.09	561018	keystroke_l	l	n/a
280.659	0.1345	561318	keystroke_e	e	n/a
280.8685	0.105	561737	keystroke_m	m	n/a
281.0935	0.105	562187	keystroke_o	o	n/a
281.2585	0.105	562517	keystroke_n	n	n/a
281.5285	0.12	563057	keystroke_Key.enter	Key.enter	n/a
281.6545	9.6415	563309	prompt	n/a	litigation catalog pixels next\n
282.43	0.09	564860	keystroke_l	l	n/a
282.669	0.06	565338	keystroke_i	i	n/a
282.924	0.105	565848	keystroke_t	t	n/a
283.134	0.06	566268	keystroke_i	i	n/a
284.319	0.12	568638	keystroke_g	g	n/a
284.604	0.135	569208	keystroke_a	a	n/a
284.724	0.105	569448	keystroke_t	t	n/a
284.874	0.075	569748	keystroke_i	i	n/a
285.054	0.0745	570108	keystroke_o	o	n/a
285.2035	0.105	570407	keystroke_n	n	n/a
285.4735	0.09	570947	keystroke_Key.space	Key.space	n/a
285.714	0.15	571428	keystroke_c	c	n/a
285.984	0.135	571968	keystroke_a	a	n/a
286.2995	0.105	572599	keystroke_t	t	n/a
286.6445	0.1045	573289	keystroke_a	a	n/a
287.229	0.09	574458	keystroke_l	l	n/a
287.484	0.075	574968	keystroke_o	o	n/a
287.664	0.0905	575328	keystroke_g	g	n/a
288.0695	0.09	576139	keystroke_Key.space	Key.space	n/a
288.4895	0.09	576979	keystroke_p	p	n/a
288.7295	0.06	577459	keystroke_i	i	n/a
289.0295	0.1045	578059	keystroke_x	x	n/a
289.329	0.105	578658	keystroke_e	e	n/a
289.554	0.09	579108	keystroke_l	l	n/a
289.7345	0.105	579469	keystroke_s	s	n/a
289.9895	0.075	579979	keystroke_Key.space	Key.space	n/a
290.3045	0.06	580609	keystroke_n	n	n/a
290.4545	0.15	580909	keystroke_e	e	n/a
290.8595	0.09	581719	keystroke_x	x	n/a
291.1145	0.0745	582229	keystroke_t	t	n/a
291.204	0.09	582408	keystroke_Key.enter	Key.enter	n/a
291.299	10.7065	582598	prompt	n/a	union momentum adding adopt\n
292.029	0.105	584058	keystroke_u	u	n/a
292.224	0.09	584448	keystroke_n	n	n/a
292.854	0.06	585708	keystroke_i	i	n/a
293.0795	0.12	586159	keystroke_o	o	n/a
294.069	0.06	588138	keystroke_n	n	n/a
294.4435	0.09	588887	keystroke_Key.space	Key.space	n/a
294.9985	0.09	589997	keystroke_m	m	n/a
295.1935	0.165	590387	keystroke_o	o	n/a
295.5095	0.09	591019	keystroke_m	m	n/a
295.809	0.1045	591618	keystroke_e	e	n/a
295.944	0.0895	591888	keystroke_n	n	n/a
296.1695	0.074	592339	keystroke_t	t	n/a
296.2895	0.09	592579	keystroke_u	u	n/a
296.5745	0.105	593149	keystroke_s	s	n/a
296.7095	0.09	593419	keystroke_m	m	n/a
297.1895	0.075	594379	keystroke_Key.backspace	Key.backspace	n/a
297.3845	0.09	594769	keystroke_Key.backspace	Key.backspace	n/a
297.7145	0.03	595429	keystroke_m	m	n/a
298.464	0.09	596928	keystroke_Key.space	Key.space	n/a
299.034	0.12	598068	keystroke_a	a	n/a
299.334	0.075	598668	keystroke_d	d	n/a
299.514	0.105	599028	keystroke_d	d	n/a
299.634	0.075	599268	keystroke_i	i	n/a
299.769	0.105	599538	keystroke_n	n	n/a
299.904	0.09	599808	keystroke_g	g	n/a
300.039	0.105	600078	keystroke_Key.space	Key.space	n/a
300.219	0.135	600438	keystroke_a	a	n/a
300.744	0.105	601488	keystroke_d	d	n/a
301.014	0.09	602028	keystroke_o	o	n/a
301.4945	0.09	602989	keystroke_p	p	n/a
301.704	0.105	603408	keystroke_t	t	n/a
301.914	0.09	603828	keystroke_Key.enter	Key.enter	n/a
302.0115	11.289	604023	prompt	n/a	university institute latex chemicals\n
302.7095	0.074	605419	keystroke_u	u	n/a
302.9185	0.061	605837	keystroke_n	n	n/a
303.1295	0.075	606259	keystroke_i	i	n/a
303.3395	0.089	606679	keystroke_v	v	n/a
303.5795	0.15	607159	keystroke_e	e	n/a
303.8045	0.134	607609	keystroke_r	r	n/a
304.134	0.105	608268	keystroke_s	s	n/a
304.419	0.075	608838	keystroke_i	i	n/a
304.584	0.09	609168	keystroke_t	t	n/a
304.704	0.09	609408	keystroke_y	y	n/a
304.974	0.075	609948	keystroke_Key.space	Key.space	n/a
305.259	0.0905	610518	keystroke_i	i	n/a
305.4395	0.09	610879	keystroke_n	n	n/a
305.769	0.12	611538	keystroke_s	s	n/a
306.219	0.09	612438	keystroke_t	t	n/a
306.5335	0.075	613067	keystroke_i	i	n/a
306.8035	0.09	613607	keystroke_t	t	n/a
306.9985	0.09	613997	keystroke_u	u	n/a
307.3285	0.105	614657	keystroke_t	t	n/a
307.5985	0.12	615197	keystroke_e	e	n/a
307.8385	0.121	615677	keystroke_Key.space	Key.space	n/a
308.154	0.09	616308	keystroke_l	l	n/a
308.349	0.12	616698	keystroke_a	a	n/a
308.814	0.09	617628	keystroke_t	t	n/a
309.069	0.135	618138	keystroke_e	e	n/a
310.0885	0.016	620177	keystroke_x	x	n/a
310.524	0.09	621048	keystroke_Key.space	Key.space	n/a
310.959	0.105	621918	keystroke_c	c	n/a
311.229	0.075	622458	keystroke_h	h	n/a
311.4995	0.09	622999	keystroke_e	e	n/a
311.724	0.075	623448	keystroke_m	m	n/a
312.084	0.075	624168	keystroke_i	i	n/a
312.3535	0.091	624707	keystroke_c	c	n/a
312.5785	0.09	625157	keystroke_a	a	n/a
312.6985	0.121	625397	keystroke_l	l	n/a
312.9685	0.121	625937	keystroke_s	s	n/a
313.1785	0.12	626357	keystroke_Key.enter	Key.enter	n/a
313.3035	10.3175	626607	prompt	n/a	freeware acquired towns museum\n
314.0195	0.089	628039	keystroke_f	f	n/a
314.2585	0.09	628517	keystroke_r	r	n/a
314.4235	0.105	628847	keystroke_e	e	n/a
314.6335	0.105	629267	keystroke_e	e	n/a
315.144	0.09	630288	keystroke_w	w	n/a
315.354	0.135	630708	keystroke_a	a	n/a
315.474	0.1355	630948	keystroke_r	r	n/a
315.714	0.135	631428	keystroke_e	e	n/a
316.149	0.045	632298	keystroke_Key.space	Key.space	n/a
316.4935	0.105	632987	keystroke_a	a	n/a
316.854	0.09	633708	keystroke_c	c	n/a
317.184	0.075	634368	keystroke_q	q	n/a
317.4385	0.106	634877	keystroke_u	u	n/a
317.724	0.06	635448	keystroke_i	i	n/a
317.919	0.1495	635838	keystroke_r	r	n/a
318.4445	0.12	636889	keystroke_d	d	n/a
319.3735	0.09	638747	keystroke_Key.backspace	Key.backspace	n/a
319.6435	0.105	639287	keystroke_e	e	n/a
319.9285	0.09	639857	keystroke_d	d	n/a
320.2435	0.1055	640487	keystroke_Key.space	Key.space	n/a
320.529	0.09	641058	keystroke_t	t	n/a
320.679	0.09	641358	keystroke_o	o	n/a
320.799	0.105	641598	keystroke_w	w	n/a
320.919	0.09	641838	keystroke_n	n	n/a
321.174	0.105	642348	keystroke_s	s	n/a
321.549	0.09	643098	keystroke_Key.space	Key.space	n/a
321.954	0.075	643908	keystroke_m	m	n/a
322.1645	0.0745	644329	keystroke_u	u	n/a
322.404	0.12	644808	keystroke_s	s	n/a
322.629	0.15	645258	keystroke_e	e	n/a
322.944	0.09	645888	keystroke_u	u	n/a
323.1695	0.0895	646339	keystroke_m	m	n/a
323.514	0.105	647028	keystroke_Key.enter	Key.enter	n/a
323.626	11.8	647252	prompt	n/a	citizen tutorials guidance exterior\n
324.4435	0.105	648887	keystroke_c	c	n/a
324.6845	0.059	649369	keystroke_i	i	n/a
324.8785	0.091	649757	keystroke_t	t	n/a
325.1485	0.015	650297	keystroke_i	i	n/a
325.6885	0.105	651377	keystroke_z	z	n/a
326.0035	0.12	652007	keystroke_e	e	n/a
326.2585	0.06	652517	keystroke_n	n	n/a
326.8585	0.06	653717	keystroke_Key.space	Key.space	n/a
327.174	0.075	654348	keystroke_t	t	n/a
327.414	0.09	654828	keystroke_u	u	n/a
327.699	0.12	655398	keystroke_t	t	n/a
328.464	0.09	656928	keystroke_o	o	n/a
328.719	0.105	657438	keystroke_r	r	n/a
328.929	0.06	657858	keystroke_i	i	n/a
329.184	0.135	658368	keystroke_a	a	n/a
329.349	0.09	658698	keystroke_l	l	n/a
329.529	0.105	659058	keystroke_s	s	n/a
329.7385	0.075	659477	keystroke_Key.space	Key.space	n/a
330.1735	0.09	660347	keystroke_g	g	n/a
330.7595	0.059	661519	keystroke_u	u	n/a
331.0135	0.075	662027	keystroke_i	i	n/a
331.254	0.075	662508	keystroke_d	d	n/a
331.524	0.105	663048	keystroke_a	a	n/a
331.644	0.09	663288	keystroke_n	n	n/a
331.914	0.0745	663828	keystroke_c	c	n/a
332.0795	0.134	664159	keystroke_e	e	n/a
332.3485	0.09	664697	keystroke_Key.space	Key.space	n/a
333.144	0.135	666288	keystroke_e	e	n/a
333.519	0.105	667038	keystroke_x	x	n/a
333.7885	0.106	667577	keystroke_t	t	n/a
334.3145	0.209	668629	keystroke_e	e	n/a
334.4945	0.105	668989	keystroke_r	r	n/a
334.6895	0.075	669379	keystroke_i	i	n/a
334.9135	0.09	669827	keystroke_o	o	n/a
335.1085	0.121	670217	keystroke_r	r	n/a
335.319	0.105	670638	keystroke_Key.enter	Key.enter	n/a
335.429	10.8265	670858	prompt	n/a	hollywood basics protocol ears\n
336.1435	0.09	672287	keystroke_h	h	n/a
336.3385	0.121	672677	keystroke_o	o	n/a
336.6695	0.059	673339	keystroke_l	l	n/a
336.8495	0.074	673699	keystroke_l	l	n/a
337.2685	0.09	674537	keystroke_y	y	n/a
337.5985	0.105	675197	keystroke_w	w	n/a
337.8385	0.075	675677	keystroke_o	o	n/a
338.019	0.09	676038	keystroke_o	o	n/a
338.154	0.105	676308	keystroke_d	d	n/a
338.409	0.105	676818	keystroke_Key.space	Key.space	n/a
339.6985	0.046	679397	keystroke_b	b	n/a
339.8935	0.075	679787	keystroke_a	a	n/a
340.1635	0.165	680327	keystroke_s	s	n/a
340.4485	0.06	680897	keystroke_i	i	n/a
341.289	0.105	682578	keystroke_c	c	n/a
341.544	0.105	683088	keystroke_s	s	n/a
341.919	0.09	683838	keystroke_Key.space	Key.space	n/a
342.2035	0.135	684407	keystroke_p	p	n/a
342.4735	0.09	684947	keystroke_r	r	n/a
342.6235	0.105	685247	keystroke_o	o	n/a
342.7435	0.12	685487	keystroke_t	t	n/a
343.359	0.075	686718	keystroke_o	o	n/a
343.674	0.105	687348	keystroke_c	c	n/a
344.064	0.075	688128	keystroke_o	o	n/a
344.274	0.075	688548	keystroke_l	l	n/a
344.589	0.06	689178	keystroke_Key.space	Key.space	n/a
345.159	0.105	690318	keystroke_e	e	n/a
345.519	0.1645	691038	keystroke_a	a	n/a
345.6985	0.135	691397	keystroke_r	r	n/a
345.9835	0.09	691967	keystroke_s	s	n/a
346.1485	0.105	692297	keystroke_Key.enter	Key.enter	n/a
346.2585	13.032	692517	prompt	n/a	heard protocol documentation receivers\n
347.0785	0.075	694157	keystroke_h	h	n/a
347.2285	0.135	694457	keystroke_e	e	n/a
347.4385	0.1805	694877	keystroke_a	a	n/a
347.589	0.165	695178	keystroke_r	r	n/a
347.918	0.106	695836	keystroke_d	d	n/a
348.099	0.089	696198	keystroke_Key.space	Key.space	n/a
348.339	0.119	696678	keystroke_p	p	n/a
348.503	0.121	697006	keystroke_r	r	n/a
348.684	0.089	697368	keystroke_o	o	n/a
349.434	0.09	698868	keystroke_t	t	n/a
349.749	0.075	699498	keystroke_o	o	n/a
350.109	0.075	700218	keystroke_c	c	n/a
350.334	0.09	700668	keystroke_o	o	n/a
350.874	0.09	701748	keystroke_Key.space	Key.space	n/a
352.2685	0.09	704537	keystroke_Key.backspace	Key.backspace	n/a
352.764	0.09	705528	keystroke_l	l	n/a
353.2285	0.075	706457	keystroke_Key.space	Key.space	n/a
353.499	0.105	706998	keystroke_d	d	n/a
353.7535	0.106	707507	keystroke_o	o	n/a
354.0545	0.074	708109	keystroke_c	c	n/a
354.2185	0.075	708437	keystroke_u	u	n/a
354.4295	0.0745	708859	keystroke_m	m	n/a
354.789	0.105	709578	keystroke_e	e	n/a
354.999	0.09	709998	keystroke_n	n	n/a
355.194	0.105	710388	keystroke_t	t	n/a
355.689	0.1045	711378	keystroke_a	a	n/a
355.8535	0.09	711707	keystroke_t	t	n/a
355.9735	0.075	711947	keystroke_i	i	n/a
356.1535	0.1055	712307	keystroke_o	o	n/a
356.3185	0.135	712637	keystroke_n	n	n/a
356.6335	0.09	713267	keystroke_Key.space	Key.space	n/a
356.949	0.1045	713898	keystroke_r	r	n/a
357.1885	0.12	714377	keystroke_e	e	n/a
357.849	0.105	715698	keystroke_c	c	n/a
358.089	0.135	716178	keystroke_e	e	n/a
358.389	0.0595	716778	keystroke_i	i	n/a
358.5245	0.074	717049	keystroke_c	c	n/a
358.7345	0.134	717469	keystroke_e	e	n/a
358.8235	0.135	717647	keystroke_r	r	n/a
359.0635	0.105	718127	keystroke_s	s	n/a
359.1835	0.105	718367	keystroke_Key.enter	Key.enter	n/a
359.293	14.2325	718586	prompt	n/a	cornwall leadership whilst grades\n
360.054	0.105	720108	keystroke_c	c	n/a
360.234	0.075	720468	keystroke_o	o	n/a
360.639	0.075	721278	keystroke_n	n	n/a
361.2085	0.075	722417	keystroke_Key.backspace	Key.backspace	n/a
361.4035	0.09	722807	keystroke_r	r	n/a
361.5245	0.119	723049	keystroke_n	n	n/a
362.244	0.12	724488	keystroke_w	w	n/a
362.6045	0.119	725209	keystroke_a	a	n/a
362.919	0.075	725838	keystroke_l	l	n/a
363.0985	0.091	726197	keystroke_l	l	n/a
363.3995	0.09	726799	keystroke_Key.space	Key.space	n/a
363.7735	0.09	727547	keystroke_l	l	n/a
364.164	0.12	728328	keystroke_e	e	n/a
364.449	0.12	728898	keystroke_a	a	n/a
364.704	0.12	729408	keystroke_s	s	n/a
365.229	0.075	730458	keystroke_d	d	n/a
365.6485	0.076	731297	keystroke_Key.backspace	Key.backspace	n/a
365.8435	0.0905	731687	keystroke_Key.backspace	Key.backspace	n/a
365.949	0.12	731898	keystroke_d	d	n/a
366.384	0.135	732768	keystroke_s	s	n/a
366.549	0.0895	733098	keystroke_h	h	n/a
366.849	0.105	733698	keystroke_i	i	n/a
367.1335	0.105	734267	keystroke_p	p	n/a
367.4045	0.089	734809	keystroke_e	e	n/a
367.6285	0.09	735257	keystroke_Key.space	Key.space	n/a
368.034	0.12	736068	keystroke_w	w	n/a
368.244	0.03	736488	keystroke_i	i	n/a
368.724	0.075	737448	keystroke_Key.backspace	Key.backspace	n/a
369.024	0.075	738048	keystroke_Key.backspace	Key.backspace	n/a
369.369	0.075	738738	keystroke_Key.backspace	Key.backspace	n/a
369.579	0.06	739158	keystroke_Key.backspace	Key.backspace	n/a
370.089	0.075	740178	keystroke_Key.space	Key.space	n/a
370.5385	0.105	741077	keystroke_w	w	n/a
370.7335	0.075	741467	keystroke_h	h	n/a
370.9285	0.06	741857	keystroke_i	i	n/a
371.2135	0.06	742427	keystroke_l	l	n/a
371.3935	0.12	742787	keystroke_s	s	n/a
371.5885	0.09	743177	keystroke_t	t	n/a
371.7685	0.09	743537	keystroke_Key.space	Key.space	n/a
372.0535	0.0755	744107	keystroke_g	g	n/a
372.279	0.09	744558	keystroke_r	r	n/a
372.489	0.12	744978	keystroke_a	a	n/a
372.774	0.075	745548	keystroke_d	d	n/a
372.999	0.09	745998	keystroke_e	e	n/a
373.194	0.15	746388	keystroke_s	s	n/a
373.404	0.12	746808	keystroke_Key.enter	Key.enter	n/a
373.5305	8.694	747061	prompt	n/a	citations yeah necessity possibly\n
374.303	0.106	748606	keystroke_c	c	n/a
374.528	0.076	749056	keystroke_i	i	n/a
374.709	0.09	749418	keystroke_t	t	n/a
375.6085	0.12	751217	keystroke_a	a	n/a
375.7885	0.09	751577	keystroke_t	t	n/a
375.9085	0.075	751817	keystroke_i	i	n/a
376.0735	0.12	752147	keystroke_o	o	n/a
376.2535	0.135	752507	keystroke_n	n	n/a
376.5235	0.075	753047	keystroke_Key.space	Key.space	n/a
376.7485	0.075	753497	keystroke_y	y	n/a
376.8985	0.105	753797	keystroke_e	e	n/a
377.124	0.119	754248	keystroke_a	a	n/a
377.273	0.09	754546	keystroke_h	h	n/a
377.528	0.061	755056	keystroke_Key.space	Key.space	n/a
377.9785	0.06	755957	keystroke_n	n	n/a
378.2785	0.135	756557	keystroke_e	e	n/a
378.608	0.105	757216	keystroke_c	c	n/a
378.848	0.1205	757696	keystroke_e	e	n/a
379.2085	0.105	758417	keystroke_s	s	n/a
379.3735	0.105	758747	keystroke_s	s	n/a
379.5385	0.075	759077	keystroke_i	i	n/a
379.6885	0.105	759377	keystroke_t	t	n/a
379.8535	0.09	759707	keystroke_y	y	n/a
380.0935	0.075	760187	keystroke_Key.space	Key.space	n/a
380.378	0.12	760756	keystroke_p	p	n/a
380.678	0.075	761356	keystroke_o	o	n/a
380.828	0.12	761656	keystroke_s	s	n/a
381.053	0.12	762106	keystroke_s	s	n/a
381.158	0.09	762316	keystroke_i	i	n/a
381.353	0.091	762706	keystroke_b	b	n/a
381.788	0.0745	763576	keystroke_l	l	n/a
381.938	0.1055	763876	keystroke_e	e	n/a
382.1185	0.105	764237	keystroke_Key.enter	Key.enter	n/a
382.2285	13.1505	764457	prompt	n/a	reform reproduce integrated wars\n
382.9125	0.12	765825	keystroke_r	r	n/a
383.1525	0.09	766305	keystroke_e	e	n/a
383.633	0.09	767266	keystroke_f	f	n/a
383.918	0.135	767836	keystroke_o	o	n/a
384.2025	0.12	768405	keystroke_r	r	n/a
384.398	0.09	768796	keystroke_m	m	n/a
385.0275	0.075	770055	keystroke_Key.space	Key.space	n/a
385.3425	0.12	770685	keystroke_r	r	n/a
385.5675	0.12	771135	keystroke_e	e	n/a
385.838	0.089	771676	keystroke_p	p	n/a
386.078	0.12	772156	keystroke_r	r	n/a
386.303	0.09	772606	keystroke_o	o	n/a
386.573	0.105	773146	keystroke_d	d	n/a
386.843	0.075	773686	keystroke_u	u	n/a
387.038	0.135	774076	keystroke_c	c	n/a
387.308	0.165	774616	keystroke_e	e	n/a
387.547	0.075	775094	keystroke_Key.space	Key.space	n/a
387.7875	0.06	775575	keystroke_i	i	n/a
387.9675	0.135	775935	keystroke_n	n	n/a
388.2075	0.105	776415	keystroke_t	t	n/a
388.7925	0.105	777585	keystroke_e	e	n/a
389.1525	0.09	778305	keystroke_g	g	n/a
389.8725	0.1045	779745	keystroke_r	r	n/a
390.172	0.12	780344	keystroke_a	a	n/a
390.367	0.121	780734	keystroke_t	t	n/a
390.6675	0.03	781335	keystroke_w	w	n/a
390.7125	0.105	781425	keystroke_e	e	n/a
391.282	0.06	782564	keystroke_d	d	n/a
391.7025	0.06	783405	keystroke_Key.backspace	Key.backspace	n/a
391.8975	0.075	783795	keystroke_Key.backspace	Key.backspace	n/a
392.2125	0.09	784425	keystroke_Key.backspace	Key.backspace	n/a
392.4675	0.0745	784935	keystroke_e	e	n/a
393.502	0.09	787004	keystroke_s	s	n/a
393.862	0.06	787724	keystroke_Key.space	Key.space	n/a
394.282	0.12	788564	keystroke_w	w	n/a
394.522	0.15	789044	keystroke_a	a	n/a
394.657	0.136	789314	keystroke_r	r	n/a
395.032	0.12	790064	keystroke_s	s	n/a
395.287	0.09	790574	keystroke_Key.enter	Key.enter	n/a
395.382	14.1565	790764	prompt	n/a	preventing habitat tournament manufactured\n
396.2025	0.09	792405	keystroke_p	p	n/a
396.3825	0.12	792765	keystroke_r	r	n/a
396.6225	0.105	793245	keystroke_e	e	n/a
396.8925	0.09	793785	keystroke_v	v	n/a
397.1025	0.09	794205	keystroke_e	e	n/a
397.2225	0.09	794445	keystroke_n	n	n/a
397.4175	0.075	794835	keystroke_t	t	n/a
397.5375	0.09	795075	keystroke_i	i	n/a
397.6875	0.135	795375	keystroke_n	n	n/a
397.8375	0.075	795675	keystroke_g	g	n/a
397.987	0.09	795974	keystroke_Key.space	Key.space	n/a
398.227	0.075	796454	keystroke_h	h	n/a
398.392	0.15	796784	keystroke_a	a	n/a
398.692	0.1055	797384	keystroke_b	b	n/a
398.9165	0.061	797833	keystroke_i	i	n/a
399.3515	0.1205	798703	keystroke_a	a	n/a
399.9965	0.06	799993	keystroke_Key.backspace	Key.backspace	n/a
400.2515	0.12	800503	keystroke_t	t	n/a
401.5125	0.12	803025	keystroke_a	a	n/a
401.6625	0.1195	803325	keystroke_t	t	n/a
401.9325	0.09	803865	keystroke_Key.space	Key.space	n/a
402.3825	0.105	804765	keystroke_t	t	n/a
402.6075	0.09	805215	keystroke_o	o	n/a
402.772	0.12	805544	keystroke_u	u	n/a
403.4325	0.075	806865	keystroke_r	r	n/a
403.5675	0.09	807135	keystroke_n	n	n/a
404.1675	0.075	808335	keystroke_m	m	n/a
404.7825	0.075	809565	keystroke_Key.backspace	Key.backspace	n/a
405.0075	0.12	810015	keystroke_a	a	n/a
405.3825	0.075	810765	keystroke_m	m	n/a
405.5625	0.1195	811125	keystroke_e	e	n/a
405.697	0.075	811394	keystroke_n	n	n/a
405.832	0.09	811664	keystroke_t	t	n/a
406.042	0.075	812084	keystroke_Key.space	Key.space	n/a
406.462	0.06	812924	keystroke_m	m	n/a
406.642	0.105	813284	keystroke_a	a	n/a
406.763	0.089	813526	keystroke_n	n	n/a
407.002	0.0905	814004	keystroke_u	u	n/a
407.3025	0.09	814605	keystroke_f	f	n/a
407.5425	0.1495	815085	keystroke_a	a	n/a
407.767	0.09	815534	keystroke_c	c	n/a
407.993	0.089	815986	keystroke_t	t	n/a
408.157	0.09	816314	keystroke_u	u	n/a
408.352	0.12	816704	keystroke_r	r	n/a
408.577	0.12	817154	keystroke_e	e	n/a
408.847	0.09	817694	keystroke_d	d	n/a
409.447	0.09	818894	keystroke_Key.enter	Key.enter	n/a
409.542	14.233	819084	prompt	n/a	cooperative treating venues miss\n
410.498	0.089	820996	keystroke_c	c	n/a
410.932	0.075	821864	keystroke_o	o	n/a
411.142	0.075	822284	keystroke_o	o	n/a
411.352	0.105	822704	keystroke_p	p	n/a
411.562	0.1505	823124	keystroke_e	e	n/a
411.667	0.1205	823334	keystroke_r	r	n/a
411.9525	0.1345	823905	keystroke_a	a	n/a
412.147	0.1205	824294	keystroke_t	t	n/a
412.3875	0.075	824775	keystroke_i	i	n/a
412.6425	0.12	825285	keystroke_c	c	n/a
413.512	0.075	827024	keystroke_Key.backspace	Key.backspace	n/a
413.707	0.09	827414	keystroke_v	v	n/a
414.0215	0.121	828043	keystroke_e	e	n/a
414.367	0.09	828734	keystroke_Key.space	Key.space	n/a
414.622	0.135	829244	keystroke_t	t	n/a
414.907	0.12	829814	keystroke_r	r	n/a
415.087	0.1655	830174	keystroke_e	e	n/a
415.3265	0.15	830653	keystroke_a	a	n/a
415.4775	0.075	830955	keystroke_t	t	n/a
415.6125	0.074	831225	keystroke_i	i	n/a
415.7915	0.075	831583	keystroke_n	n	n/a
415.8815	0.09	831763	keystroke_g	g	n/a
416.0465	0.12	832093	keystroke_Key.space	Key.space	n/a
416.4975	0.119	832995	keystroke_c	c	n/a
416.6925	0.135	833385	keystroke_e	e	n/a
416.8425	0.105	833685	keystroke_n	n	n/a
417.112	0.075	834224	keystroke_u	u	n/a
417.382	0.135	834764	keystroke_e	e	n/a
417.682	0.075	835364	keystroke_s	s	n/a
418.432	0.06	836864	keystroke_Key.space	Key.space	n/a
418.8975	0.09	837795	keystroke_Key.backspace	Key.backspace	n/a
419.122	0.075	838244	keystroke_Key.backspace	Key.backspace	n/a
419.317	0.075	838634	keystroke_Key.backspace	Key.backspace	n/a
419.512	0.075	839024	keystroke_Key.backspace	Key.backspace	n/a
419.7065	0.076	839413	keystroke_Key.backspace	Key.backspace	n/a
419.902	0.09	839804	keystroke_Key.backspace	Key.backspace	n/a
420.097	0.06	840194	keystroke_Key.backspace	Key.backspace	n/a
420.607	0.09	841214	keystroke_v	v	n/a
420.847	0.135	841694	keystroke_e	e	n/a
421.072	0.09	842144	keystroke_n	n	n/a
421.327	0.075	842654	keystroke_u	u	n/a
421.627	0.1055	843254	keystroke_e	e	n/a
421.8675	0.105	843735	keystroke_s	s	n/a
422.0765	0.1055	844153	keystroke_Key.space	Key.space	n/a
422.4525	0.059	844905	keystroke_m	m	n/a
422.707	0.09	845414	keystroke_i	i	n/a
422.872	0.12	845744	keystroke_s	s	n/a
423.112	0.105	846224	keystroke_s	s	n/a
423.682	0.09	847364	keystroke_Key.enter	Key.enter	n/a
423.785	9.7995	847570	prompt	n/a	district bear professor imaging\n
424.4625	0.12	848925	keystroke_d	d	n/a
424.7325	0.075	849465	keystroke_i	i	n/a
425.2275	0.105	850455	keystroke_s	s	n/a
425.5425	0.12	851085	keystroke_t	t	n/a
425.8125	0.105	851625	keystroke_r	r	n/a
426.0075	0.075	852015	keystroke_i	i	n/a
426.2025	0.1045	852405	keystroke_c	c	n/a
426.472	0.03	852944	keystroke_t	t	n/a
427.1625	0.075	854325	keystroke_Key.space	Key.space	n/a
427.3875	0.09	854775	keystroke_b	b	n/a
427.6575	0.1345	855315	keystroke_e	e	n/a
427.957	0.135	855914	keystroke_a	a	n/a
428.137	0.12	856274	keystroke_r	r	n/a
428.422	0.09	856844	keystroke_Key.space	Key.space	n/a
428.617	0.121	857234	keystroke_p	p	n/a
428.812	0.09	857624	keystroke_r	r	n/a
428.977	0.105	857954	keystroke_o	o	n/a
429.322	0.0755	858644	keystroke_f	f	n/a
429.562	0.105	859124	keystroke_e	e	n/a
429.802	0.105	859604	keystroke_s	s	n/a
429.997	0.09	859994	keystroke_s	s	n/a
430.192	0.09	860384	keystroke_o	o	n/a
430.327	0.12	860654	keystroke_r	r	n/a
430.567	0.105	861134	keystroke_Key.space	Key.space	n/a
431.032	0.105	862064	keystroke_i	i	n/a
431.3625	0.075	862725	keystroke_m	m	n/a
431.6325	0.1345	863265	keystroke_a	a	n/a
431.828	0.1045	863656	keystroke_g	g	n/a
432.0375	0.09	864075	keystroke_i	i	n/a
432.202	0.1055	864404	keystroke_n	n	n/a
433.2375	0.075	866475	keystroke_g	g	n/a
433.4775	0.105	866955	keystroke_Key.enter	Key.enter	n/a
433.5875	12.627	867175	prompt	n/a	drop realtors michelle packaging\n
434.3325	0.105	868665	keystroke_d	d	n/a
434.6475	0.105	869295	keystroke_r	r	n/a
435.278	0.09	870556	keystroke_o	o	n/a
435.458	0.119	870916	keystroke_p	p	n/a
435.727	0.12	871454	keystroke_Key.space	Key.space	n/a
436.027	0.091	872054	keystroke_r	r	n/a
436.177	0.135	872354	keystroke_e	e	n/a
436.418	0.119	872836	keystroke_a	a	n/a
436.522	0.09	873044	keystroke_l	l	n/a
436.732	0.105	873464	keystroke_t	t	n/a
436.868	0.09	873736	keystroke_o	o	n/a
437.047	0.105	874094	keystroke_r	r	n/a
437.317	0.106	874634	keystroke_s	s	n/a
437.5125	0.0895	875025	keystroke_Key.space	Key.space	n/a
437.812	0.06	875624	keystroke_m	m	n/a
438.172	0.045	876344	keystroke_c	c	n/a
438.352	0.09	876704	keystroke_i	i	n/a
439.072	0.06	878144	keystroke_=	=	n/a
439.2815	0.075	878563	keystroke_Key.backspace	Key.backspace	n/a
439.732	0.075	879464	keystroke_Key.backspace	Key.backspace	n/a
440.212	0.045	880424	keystroke_Key.backspace	Key.backspace	n/a
441.1725	0.0595	882345	keystroke_i	i	n/a
441.4575	0.105	882915	keystroke_c	c	n/a
441.6225	0.0895	883245	keystroke_h	h	n/a
441.802	0.1355	883604	keystroke_e	e	n/a
442.0875	0.0745	884175	keystroke_l	l	n/a
442.267	0.09	884534	keystroke_l	l	n/a
442.4925	0.105	884985	keystroke_e	e	n/a
442.7175	0.075	885435	keystroke_Key.space	Key.space	n/a
442.9575	0.105	885915	keystroke_p	p	n/a
443.1675	0.15	886335	keystroke_a	a	n/a
443.5725	0.03	887145	keystroke_c	c	n/a
444.728	0.059	889456	keystroke_k	k	n/a
445.117	0.166	890234	keystroke_a	a	n/a
445.402	0.105	890804	keystroke_g	g	n/a
445.553	0.059	891106	keystroke_i	i	n/a
445.702	0.075	891404	keystroke_n	n	n/a
445.822	0.09	891644	keystroke_g	g	n/a
446.122	0.09	892244	keystroke_Key.enter	Key.enter	n/a
446.2175	15.042	892435	prompt	n/a	canberra peak liberia catering\n
446.992	0.24	893984	keystroke_c	c	n/a
447.832	0.105	895664	keystroke_a	a	n/a
447.997	0.12	895994	keystroke_n	n	n/a
448.7025	0.09	897405	keystroke_v	v	n/a
448.9875	0.12	897975	keystroke_e	e	n/a
449.2725	0.1045	898545	keystroke_r	r	n/a
449.452	0.0905	898904	keystroke_r	r	n/a
449.6775	0.105	899355	keystroke_a	a	n/a
449.9175	0.075	899835	keystroke_Key.space	Key.space	n/a
451.5975	0.075	903195	keystroke_Key.backspace	Key.backspace	n/a
451.8075	0.075	903615	keystroke_Key.backspace	Key.backspace	n/a
452.0025	0.075	904005	keystroke_Key.backspace	Key.backspace	n/a
452.1975	0.09	904395	keystroke_Key.backspace	Key.backspace	n/a
452.4075	0.09	904815	keystroke_Key.backspace	Key.backspace	n/a
452.6175	0.075	905235	keystroke_Key.backspace	Key.backspace	n/a
453.1875	0.09	906375	keystroke_b	b	n/a
453.5475	0.105	907095	keystroke_e	e	n/a
453.9375	0.075	907875	keystroke_r	r	n/a
454.0875	0.105	908175	keystroke_r	r	n/a
454.3275	0.12	908655	keystroke_a	a	n/a
454.4625	0.105	908925	keystroke_Key.space	Key.space	n/a
454.6725	0.105	909345	keystroke_p	p	n/a
454.8675	0.12	909735	keystroke_e	e	n/a
455.1075	0.12	910215	keystroke_a	a	n/a
455.3325	0.075	910665	keystroke_k	k	n/a
455.7975	0.12	911595	keystroke_Key.space	Key.space	n/a
456.1575	0.09	912315	keystroke_l	l	n/a
456.398	0.074	912796	keystroke_i	i	n/a
456.697	0.09	913394	keystroke_b	b	n/a
456.937	0.135	913874	keystroke_e	e	n/a
457.372	0.105	914744	keystroke_r	r	n/a
457.687	0.045	915374	keystroke_t	t	n/a
458.2575	0.075	916515	keystroke_Key.backspace	Key.backspace	n/a
458.543	0.06	917086	keystroke_i	i	n/a
458.873	0.075	917746	keystroke_a	a	n/a
459.098	0.09	918196	keystroke_Key.space	Key.space	n/a
459.533	0.15	919066	keystroke_c	c	n/a
459.8025	0.1345	919605	keystroke_a	a	n/a
460.012	0.12	920024	keystroke_t	t	n/a
460.253	0.134	920506	keystroke_e	e	n/a
460.372	0.075	920744	keystroke_r	r	n/a
460.448	0.09	920896	keystroke_i	i	n/a
460.613	0.09	921226	keystroke_n	n	n/a
460.747	0.061	921494	keystroke_g	g	n/a
460.852	0.09	921704	keystroke_Key.space	Key.space	n/a
461.137	0.12	922274	keystroke_Key.enter	Key.enter	n/a
461.2645	11.0795	922529	prompt	n/a	petroleum manufacturer johnny assuming\n
462.3375	0.135	924675	keystroke_p	p	n/a
462.4875	0.105	924975	keystroke_e	e	n/a
462.6525	0.105	925305	keystroke_t	t	n/a
462.9525	0.075	925905	keystroke_r	r	n/a
463.0725	0.105	926145	keystroke_o	o	n/a
463.582	0.075	927164	keystroke_l	l	n/a
463.987	0.0905	927974	keystroke_e	e	n/a
464.1675	0.075	928335	keystroke_u	u	n/a
464.3925	0.06	928785	keystroke_m	m	n/a
464.6325	0.12	929265	keystroke_Key.space	Key.space	n/a
464.9625	0.06	929925	keystroke_m	m	n/a
465.0975	0.15	930195	keystroke_a	a	n/a
465.2625	0.09	930525	keystroke_n	n	n/a
465.5325	0.075	931065	keystroke_u	u	n/a
465.877	0.105	931754	keystroke_f	f	n/a
466.147	0.15	932294	keystroke_a	a	n/a
466.372	0.105	932744	keystroke_c	c	n/a
466.627	0.105	933254	keystroke_t	t	n/a
467.572	0.061	935144	keystroke_u	u	n/a
467.7525	0.12	935505	keystroke_r	r	n/a
468.1275	0.18	936255	keystroke_e	e	n/a
468.2625	0.12	936525	keystroke_r	r	n/a
468.4575	0.105	936915	keystroke_Key.space	Key.space	n/a
468.7275	0.075	937455	keystroke_j	j	n/a
468.982	0.1055	937964	keystroke_o	o	n/a
469.417	0.076	938834	keystroke_n	n	n/a
469.598	0.059	939196	keystroke_n	n	n/a
469.8075	0.075	939615	keystroke_y	y	n/a
470.0625	0.09	940125	keystroke_Key.space	Key.space	n/a
470.3175	0.105	940635	keystroke_a	a	n/a
470.5425	0.09	941085	keystroke_s	s	n/a
470.7375	0.075	941475	keystroke_s	s	n/a
470.9175	0.075	941835	keystroke_u	u	n/a
471.1125	0.09	942225	keystroke_m	m	n/a
471.5475	0.105	943095	keystroke_i	i	n/a
471.787	0.061	943574	keystroke_n	n	n/a
471.982	0.09	943964	keystroke_g	g	n/a
472.2225	0.12	944445	keystroke_Key.enter	Key.enter	n/a
472.3475	13.8265	944695	prompt	n/a	firms dramatically connecting emissions\n
473.452	0.075	946904	keystroke_f	f	n/a
473.632	0.075	947264	keystroke_i	i	n/a
473.767	0.135	947534	keystroke_r	r	n/a
474.262	0.075	948524	keystroke_m	m	n/a
474.458	0.105	948916	keystroke_s	s	n/a
474.697	0.09	949394	keystroke_Key.space	Key.space	n/a
475.1475	0.12	950295	keystroke_d	d	n/a
475.4475	0.135	950895	keystroke_r	r	n/a
475.853	0.105	951706	keystroke_a	a	n/a
476.093	0.06	952186	keystroke_m	m	n/a
476.288	0.12	952576	keystroke_a	a	n/a
476.453	0.105	952906	keystroke_t	t	n/a
476.663	0.075	953326	keystroke_i	i	n/a
476.888	0.105	953776	keystroke_c	c	n/a
477.1725	0.12	954345	keystroke_a	a	n/a
477.878	0.09	955756	keystroke_l	l	n/a
478.058	0.09	956116	keystroke_l	l	n/a
478.283	0.09	956566	keystroke_y	y	n/a
478.4925	0.075	956985	keystroke_Key.space	Key.space	n/a
478.6725	0.075	957345	keystroke_c	c	n/a
478.8375	0.09	957675	keystroke_o	o	n/a
479.0775	0.046	958155	keystroke_n	n	n/a
479.2425	0.06	958485	keystroke_n	n	n/a
479.4675	0.165	958935	keystroke_e	e	n/a
479.7675	0.1055	959535	keystroke_c	c	n/a
479.993	0.075	959986	keystroke_t	t	n/a
480.233	0.075	960466	keystroke_i	i	n/a
480.413	0.09	960826	keystroke_n	n	n/a
480.548	0.104	961096	keystroke_g	g	n/a
480.728	0.104	961456	keystroke_Key.space	Key.space	n/a
481.2975	0.135	962595	keystroke_e	e	n/a
481.4925	0.105	962985	keystroke_m	m	n/a
481.733	0.074	963466	keystroke_i	i	n/a
482.077	0.09	964154	keystroke_s	s	n/a
482.257	0.09	964514	keystroke_s	s	n/a
482.362	0.075	964724	keystroke_i	i	n/a
482.527	0.09	965054	keystroke_o	o	n/a
482.7225	0.09	965445	keystroke_b	b	n/a
482.8875	0.105	965775	keystroke_s	s	n/a
483.5925	0.075	967185	keystroke_Key.backspace	Key.backspace	n/a
483.8025	0.09	967605	keystroke_Key.backspace	Key.backspace	n/a
485.333	0.06	970666	keystroke_n	n	n/a
485.8725	0.105	971745	keystroke_s	s	n/a
486.068	0.105	972136	keystroke_Key.enter	Key.enter	n/a
486.178	8.411	972356	prompt	n/a	jaguar ricky hardly scotland\n
486.9225	0.06	973845	keystroke_j	j	n/a
486.9375	0.015	973875	keystroke_h	h	n/a
487.1025	0.165	974205	keystroke_a	a	n/a
487.3425	0.135	974685	keystroke_g	g	n/a
487.5975	0.0755	975195	keystroke_u	u	n/a
487.823	0.1945	975646	keystroke_a	a	n/a
488.003	0.1345	976006	keystroke_r	r	n/a
488.2275	0.09	976455	keystroke_Key.space	Key.space	n/a
488.4975	0.165	976995	keystroke_r	r	n/a
488.6775	0.06	977355	keystroke_i	i	n/a
488.8875	0.075	977775	keystroke_c	c	n/a
489.518	0.0595	979036	keystroke_k	k	n/a
489.757	0.105	979514	keystroke_y	y	n/a
490.027	0.09	980054	keystroke_Key.space	Key.space	n/a
490.372	0.09	980744	keystroke_h	h	n/a
490.597	0.166	981194	keystroke_a	a	n/a
490.778	0.12	981556	keystroke_r	r	n/a
491.603	0.09	983206	keystroke_d	d	n/a
491.753	0.12	983506	keystroke_l	l	n/a
492.053	0.09	984106	keystroke_y	y	n/a
492.308	0.074	984616	keystroke_Key.space	Key.space	n/a
492.593	0.12	985186	keystroke_s	s	n/a
492.908	0.105	985816	keystroke_c	c	n/a
493.117	0.091	986234	keystroke_o	o	n/a
493.328	0.119	986656	keystroke_t	t	n/a
493.6875	0.09	987375	keystroke_l	l	n/a
493.8525	0.12	987705	keystroke_a	a	n/a
493.9875	0.075	987975	keystroke_n	n	n/a
494.2125	0.135	988425	keystroke_d	d	n/a
494.4975	0.09	988995	keystroke_Key.enter	Key.enter	n/a
494.5925	16.887	989185	prompt	n/a	remain lloyd designation regulation\n
495.3375	0.12	990675	keystroke_r	r	n/a
495.5175	0.12	991035	keystroke_e	e	n/a
495.6975	0.09	991395	keystroke_m	m	n/a
495.8635	0.104	991727	keystroke_a	a	n/a
495.9685	0.089	991937	keystroke_i	i	n/a
496.193	0.09	992386	keystroke_b	b	n/a
497.078	0.015	994156	keystroke_Key.backspace	Key.backspace	n/a
497.108	0.06	994216	keystroke_Key.backspace	Key.backspace	n/a
497.932	0.06	995864	keystroke_i	i	n/a
498.293	0.059	996586	keystroke_b	b	n/a
499.267	0.091	998534	keystroke_Key.backspace	Key.backspace	n/a
501.2775	0.075	1002555	keystroke_n	n	n/a
501.7725	0.06	1003545	keystroke_Key.space	Key.space	n/a
502.3875	0.09	1004775	keystroke_l	l	n/a
502.5675	0.075	1005135	keystroke_l	l	n/a
502.7925	0.09	1005585	keystroke_o	o	n/a
503.1075	0.09	1006215	keystroke_y	y	n/a
503.6185	0.09	1007237	keystroke_d	d	n/a
503.8725	0.075	1007745	keystroke_Key.space	Key.space	n/a
504.443	0.12	1008886	keystroke_d	d	n/a
504.863	0.12	1009726	keystroke_e	e	n/a
505.493	0.12	1010986	keystroke_s	s	n/a
505.673	0.0905	1011346	keystroke_i	i	n/a
506.1975	0.075	1012395	keystroke_g	g	n/a
506.5425	0.09	1013085	keystroke_n	n	n/a
506.8275	0.12	1013655	keystroke_a	a	n/a
507.0225	0.105	1014045	keystroke_t	t	n/a
507.1585	0.074	1014317	keystroke_i	i	n/a
507.3375	0.09	1014675	keystroke_o	o	n/a
507.5175	0.12	1015035	keystroke_n	n	n/a
507.983	0.09	1015966	keystroke_Key.space	Key.space	n/a
508.388	0.12	1016776	keystroke_r	r	n/a
508.718	0.12	1017436	keystroke_e	e	n/a
509.573	0.09	1019146	keystroke_g	g	n/a
509.888	0.06	1019776	keystroke_u	u	n/a
510.233	0.075	1020466	keystroke_l	l	n/a
510.413	0.12	1020826	keystroke_a	a	n/a
510.563	0.105	1021126	keystroke_t	t	n/a
510.698	0.09	1021396	keystroke_i	i	n/a
510.908	0.09	1021816	keystroke_o	o	n/a
511.043	0.1345	1022086	keystroke_n	n	n/a
511.3575	0.12	1022715	keystroke_Key.enter	Key.enter	n/a
511.4825	12.057	1022965	prompt	n/a	beats wizard clearing saints\n
512.468	0.0745	1024936	keystroke_b	b	n/a
512.7075	0.105	1025415	keystroke_e	e	n/a
512.9785	0.119	1025957	keystroke_a	a	n/a
513.1575	0.12	1026315	keystroke_t	t	n/a
513.4725	0.105	1026945	keystroke_s	s	n/a
513.7275	0.105	1027455	keystroke_Key.space	Key.space	n/a
513.952	0.136	1027904	keystroke_w	w	n/a
514.147	0.075	1028294	keystroke_i	i	n/a
514.492	0.135	1028984	keystroke_z	z	n/a
515.1225	0.105	1030245	keystroke_a	a	n/a
515.3325	0.12	1030665	keystroke_r	r	n/a
515.677	0.091	1031354	keystroke_d	d	n/a
515.932	0.0755	1031864	keystroke_Key.space	Key.space	n/a
516.2335	0.119	1032467	keystroke_c	c	n/a
516.488	0.075	1032976	keystroke_l	l	n/a
516.653	0.09	1033306	keystroke_e	e	n/a
517.3125	0.105	1034625	keystroke_a	a	n/a
517.4925	0.12	1034985	keystroke_r	r	n/a
517.687	0.091	1035374	keystroke_i	i	n/a
517.868	0.015	1035736	keystroke_n	n	n/a
518.0175	0.075	1036035	keystroke_g	g	n/a
518.8575	0.09	1037715	keystroke_Key.space	Key.space	n/a
519.503	0.105	1039006	keystroke_s	s	n/a
519.727	0.105	1039454	keystroke_a	a	n/a
519.817	0.076	1039634	keystroke_i	i	n/a
520.012	0.06	1040024	keystroke_b	b	n/a
520.117	0.106	1040234	keystroke_t	t	n/a
520.403	0.1195	1040806	keystroke_s	s	n/a
520.928	0.059	1041856	keystroke_Key.backspace	Key.backspace	n/a
521.108	0.089	1042216	keystroke_Key.backspace	Key.backspace	n/a
521.3175	0.075	1042635	keystroke_Key.backspace	Key.backspace	n/a
521.5275	0.0745	1043055	keystroke_Key.backspace	Key.backspace	n/a
522.3525	0.061	1044705	keystroke_i	i	n/a
522.5475	0.075	1045095	keystroke_n	n	n/a
523.0735	0.059	1046147	keystroke_t	t	n/a
523.2975	0.09	1046595	keystroke_s	s	n/a
523.4325	0.105	1046865	keystroke_Key.enter	Key.enter	n/a
523.5425	19.3775	1047085	prompt	n/a	sauce equipment forever disciplinary\n
524.3025	0.105	1048605	keystroke_s	s	n/a
524.5585	0.1345	1049117	keystroke_a	a	n/a
524.7675	0.09	1049535	keystroke_u	u	n/a
525.0525	0.09	1050105	keystroke_c	c	n/a
525.2325	0.105	1050465	keystroke_e	e	n/a
525.4125	0.09	1050825	keystroke_Key.space	Key.space	n/a
525.668	0.1205	1051336	keystroke_q	q	n/a
525.863	0.09	1051726	keystroke_u	u	n/a
526.223	0.075	1052446	keystroke_i	i	n/a
526.763	0.09	1053526	keystroke_p	p	n/a
527.108	0.06	1054216	keystroke_m	m	n/a
527.2875	0.105	1054575	keystroke_e	e	n/a
527.4525	0.09	1054905	keystroke_n	n	n/a
527.6475	0.075	1055295	keystroke_t	t	n/a
527.8575	0.105	1055715	keystroke_Key.space	Key.space	n/a
528.2635	0.075	1056527	keystroke_f	f	n/a
528.773	0.075	1057546	keystroke_Key.backspace	Key.backspace	n/a
528.983	0.075	1057966	keystroke_Key.backspace	Key.backspace	n/a
529.208	0.045	1058416	keystroke_Key.backspace	Key.backspace	n/a
529.373	0.075	1058746	keystroke_Key.backspace	Key.backspace	n/a
529.553	0.075	1059106	keystroke_Key.backspace	Key.backspace	n/a
529.748	0.075	1059496	keystroke_Key.backspace	Key.backspace	n/a
529.928	0.0895	1059856	keystroke_Key.backspace	Key.backspace	n/a
530.1375	0.0755	1060275	keystroke_Key.backspace	Key.backspace	n/a
530.3325	0.09	1060665	keystroke_Key.backspace	Key.backspace	n/a
530.5125	0.09	1061025	keystroke_Key.backspace	Key.backspace	n/a
531.1575	0.105	1062315	keystroke_e	e	n/a
531.5925	0.121	1063185	keystroke_q	q	n/a
531.8775	0.09	1063755	keystroke_u	u	n/a
532.523	0.1045	1065046	keystroke_i	i	n/a
532.8375	0.105	1065675	keystroke_p	p	n/a
533.1675	0.076	1066335	keystroke_m	m	n/a
533.3175	0.121	1066635	keystroke_e	e	n/a
533.4975	0.06	1066995	keystroke_n	n	n/a
533.6035	0.0895	1067207	keystroke_t	t	n/a
534.008	0.075	1068016	keystroke_Key.space	Key.space	n/a
534.3835	0.089	1068767	keystroke_f	f	n/a
534.5325	0.105	1069065	keystroke_o	o	n/a
534.9225	0.106	1069845	keystroke_r	r	n/a
535.1625	0.12	1070325	keystroke_e	e	n/a
537.521	0.012	1075042	keystroke_v	v	n/a
538.493	0.165	1076986	keystroke_e	e	n/a
538.628	0.105	1077256	keystroke_r	r	n/a
538.853	0.075	1077706	keystroke_Key.space	Key.space	n/a
539.408	0.15	1078816	keystroke_d	d	n/a
539.828	0.075	1079656	keystroke_i	i	n/a
540.068	0.12	1080136	keystroke_s	s	n/a
540.368	0.12	1080736	keystroke_c	c	n/a
540.578	0.09	1081156	keystroke_i	i	n/a
540.863	0.105	1081726	keystroke_p	p	n/a
541.178	0.09	1082356	keystroke_l	l	n/a
541.598	0.06	1083196	keystroke_i	i	n/a
541.9885	0.075	1083977	keystroke_n	n	n/a
542.1985	0.135	1084397	keystroke_a	a	n/a
542.3485	0.105	1084697	keystroke_r	r	n/a
542.5135	0.075	1085027	keystroke_y	y	n/a
542.5435	0.03	1085087	keystroke_t	t	n/a
542.8285	0.09	1085657	keystroke_Key.enter	Key.enter	n/a
542.925	8.77	1085850	prompt	n/a	defend covered input document\n
543.9375	0.091	1087875	keystroke_d	d	n/a
544.1335	0.12	1088267	keystroke_e	e	n/a
545.063	0.09	1090126	keystroke_f	f	n/a
545.2575	0.135	1090515	keystroke_e	e	n/a
545.4085	0.09	1090817	keystroke_n	n	n/a
545.6925	0.105	1091385	keystroke_d	d	n/a
545.8735	0.105	1091747	keystroke_Key.space	Key.space	n/a
546.218	0.1045	1092436	keystroke_c	c	n/a
546.398	0.09	1092796	keystroke_o	o	n/a
546.6235	0.09	1093247	keystroke_v	v	n/a
546.8485	0.15	1093697	keystroke_e	e	n/a
546.9535	0.15	1093907	keystroke_r	r	n/a
547.403	0.135	1094806	keystroke_e	e	n/a
547.644	0.09	1095288	keystroke_d	d	n/a
547.838	0.0905	1095676	keystroke_Key.space	Key.space	n/a
548.168	0.075	1096336	keystroke_i	i	n/a
548.348	0.09	1096696	keystroke_n	n	n/a
548.859	0.104	1097718	keystroke_p	p	n/a
549.068	0.076	1098136	keystroke_u	u	n/a
549.2485	0.105	1098497	keystroke_t	t	n/a
549.4285	0.09	1098857	keystroke_Key.space	Key.space	n/a
550.0585	0.12	1100117	keystroke_d	d	n/a
550.2985	0.105	1100597	keystroke_o	o	n/a
550.4485	0.105	1100897	keystroke_c	c	n/a
550.658	0.091	1101316	keystroke_u	u	n/a
550.868	0.061	1101736	keystroke_m	m	n/a
550.988	0.1355	1101976	keystroke_e	e	n/a
551.1385	0.089	1102277	keystroke_n	n	n/a
551.2885	0.09	1102577	keystroke_t	t	n/a
551.5735	0.12	1103147	keystroke_Key.enter	Key.enter	n/a
551.698	17.817	1103396	prompt	n/a	height sustainable mitchell webmasters\n
552.9535	0.06	1105907	keystroke_h	h	n/a
553.1635	0.135	1106327	keystroke_e	e	n/a
553.3585	0.0745	1106717	keystroke_i	i	n/a
553.523	0.106	1107046	keystroke_g	g	n/a
553.644	0.0895	1107288	keystroke_h	h	n/a
553.7785	0.105	1107557	keystroke_t	t	n/a
553.9285	0.075	1107857	keystroke_Key.space	Key.space	n/a
554.2135	0.12	1108427	keystroke_s	s	n/a
554.3635	0.06	1108727	keystroke_u	u	n/a
554.6035	0.12	1109207	keystroke_s	s	n/a
554.8135	0.12	1109627	keystroke_t	t	n/a
555.0685	0.105	1110137	keystroke_a	a	n/a
555.1885	0.09	1110377	keystroke_i	i	n/a
555.3835	0.075	1110767	keystroke_b	b	n/a
555.7585	0.135	1111517	keystroke_a	a	n/a
556.0135	0.075	1112027	keystroke_b	b	n/a
556.148	0.105	1112296	keystroke_l	l	n/a
556.328	0.135	1112656	keystroke_e	e	n/a
556.523	0.09	1113046	keystroke_Key.space	Key.space	n/a
556.8235	0.105	1113647	keystroke_m	m	n/a
558.5035	0.09	1117007	keystroke_Key.backspace	Key.backspace	n/a
558.7285	0.075	1117457	keystroke_Key.backspace	Key.backspace	n/a
558.9235	0.09	1117847	keystroke_Key.backspace	Key.backspace	n/a
559.1335	0.075	1118267	keystroke_Key.backspace	Key.backspace	n/a
559.3285	0.075	1118657	keystroke_Key.backspace	Key.backspace	n/a
559.5385	0.075	1119077	keystroke_Key.backspace	Key.backspace	n/a
559.733	0.09	1119466	keystroke_Key.backspace	Key.backspace	n/a
560.9035	0.074	1121807	keystroke_b	b	n/a
561.2625	0.136	1122525	keystroke_a	a	n/a
561.4585	0.1045	1122917	keystroke_b	b	n/a
561.578	0.09	1123156	keystroke_l	l	n/a
561.7275	0.105	1123455	keystroke_e	e	n/a
561.9825	0.09	1123965	keystroke_Key.space	Key.space	n/a
562.4935	0.105	1124987	keystroke_m	m	n/a
562.8225	0.09	1125645	keystroke_i	i	n/a
563.003	0.105	1126006	keystroke_t	t	n/a
563.2885	0.075	1126577	keystroke_c	c	n/a
563.3935	0.0905	1126787	keystroke_h	h	n/a
563.544	0.1495	1127088	keystroke_e	e	n/a
563.9785	0.105	1127957	keystroke_s	s	n/a
564.1735	0.12	1128347	keystroke_s	s	n/a
564.8635	0.1045	1129727	keystroke_Key.backspace	Key.backspace	n/a
565.088	0.09	1130176	keystroke_Key.backspace	Key.backspace	n/a
565.808	0.076	1131616	keystroke_l	l	n/a
565.989	0.104	1131978	keystroke_l	l	n/a
566.213	0.09	1132426	keystroke_Key.space	Key.space	n/a
566.618	0.105	1133236	keystroke_w	w	n/a
566.828	0.105	1133656	keystroke_e	e	n/a
567.593	0.075	1135186	keystroke_b	b	n/a
567.758	0.09	1135516	keystroke_m	m	n/a
568.013	0.12	1136026	keystroke_a	a	n/a
568.268	0.12	1136536	keystroke_s	s	n/a
568.493	0.135	1136986	keystroke_t	t	n/a
568.913	0.165	1137826	keystroke_e	e	n/a
569.033	0.12	1138066	keystroke_r	r	n/a
569.243	0.12	1138486	keystroke_s	s	n/a
569.393	0.12	1138786	keystroke_Key.enter	Key.enter	n/a
569.5205	10.689	1139041	prompt	n/a	walking year beer iran\n
570.2935	0.135	1140587	keystroke_w	w	n/a
570.5635	0.105	1141127	keystroke_a	a	n/a
570.6985	0.12	1141397	keystroke_l	l	n/a
571.6735	0.09	1143347	keystroke_l	l	n/a
572.3185	0.255	1144637	keystroke_Key.backspace	Key.backspace	n/a
573.0085	0.06	1146017	keystroke_Key.backspace	Key.backspace	n/a
573.1885	0.075	1146377	keystroke_Key.backspace	Key.backspace	n/a
573.413	0.09	1146826	keystroke_Key.backspace	Key.backspace	n/a
574.058	0.12	1148116	keystroke_w	w	n/a
574.358	0.075	1148716	keystroke_a	a	n/a
574.9585	0.09	1149917	keystroke_l	l	n/a
575.2735	0.105	1150547	keystroke_k	k	n/a
575.498	0.09	1150996	keystroke_i	i	n/a
575.708	0.09	1151416	keystroke_n	n	n/a
575.903	0.045	1151806	keystroke_g	g	n/a
576.008	0.075	1152016	keystroke_Key.space	Key.space	n/a
576.263	0.075	1152526	keystroke_y	y	n/a
576.383	0.105	1152766	keystroke_e	e	n/a
576.593	0.1495	1153186	keystroke_a	a	n/a
576.7585	0.104	1153517	keystroke_r	r	n/a
577.2675	0.09	1154535	keystroke_Key.space	Key.space	n/a
577.6125	0.075	1155225	keystroke_b	b	n/a
577.9275	0.045	1155855	keystroke_e	e	n/a
578.198	0.1055	1156396	keystroke_e	e	n/a
578.4985	0.09	1156997	keystroke_r	r	n/a
578.6925	0.0755	1157385	keystroke_Key.space	Key.space	n/a
579.2625	0.076	1158525	keystroke_i	i	n/a
579.4735	0.105	1158947	keystroke_r	r	n/a
579.729	0.119	1159458	keystroke_a	a	n/a
579.863	0.075	1159726	keystroke_n	n	n/a
580.1185	0.09	1160237	keystroke_Key.enter	Key.enter	n/a
580.2125	15.5975	1160425	prompt	n/a	evolution compatibility realty gentleman\n
581.3485	0.12	1162697	keystroke_e	e	n/a
581.679	0.105	1163358	keystroke_v	v	n/a
582.008	0.09	1164016	keystroke_o	o	n/a
582.203	0.09	1164406	keystroke_l	l	n/a
582.4285	0.075	1164857	keystroke_u	u	n/a
582.6085	0.09	1165217	keystroke_t	t	n/a
583.1935	0.06	1166387	keystroke_i	i	n/a
583.464	0.104	1166928	keystroke_o	o	n/a
583.7035	0.06	1167407	keystroke_h	h	n/a
584.3785	0.09	1168757	keystroke_Key.backspace	Key.backspace	n/a
584.6635	0.075	1169327	keystroke_n	n	n/a
585.0385	0.075	1170077	keystroke_Key.space	Key.space	n/a
585.8035	0.105	1171607	keystroke_c	c	n/a
585.9385	0.105	1171877	keystroke_o	o	n/a
586.1335	0.0755	1172267	keystroke_m	m	n/a
586.3885	0.045	1172777	keystroke_l	l	n/a
586.4485	0.075	1172897	keystroke_p	p	n/a
587.0935	0.045	1174187	keystroke_Key.backspace	Key.backspace	n/a
588.1135	0.06	1176227	keystroke_Key.backspace	Key.backspace	n/a
588.8795	0.089	1177759	keystroke_p	p	n/a
589.0745	0.119	1178149	keystroke_a	a	n/a
589.2385	0.105	1178477	keystroke_t	t	n/a
589.463	0.076	1178926	keystroke_i	i	n/a
589.7635	0.105	1179527	keystroke_b	b	n/a
590.0185	0.075	1180037	keystroke_i	i	n/a
590.4085	0.09	1180817	keystroke_l	l	n/a
590.6785	0.06	1181357	keystroke_i	i	n/a
590.9335	0.075	1181867	keystroke_t	t	n/a
591.0685	0.09	1182137	keystroke_y	y	n/a
591.3535	0.09	1182707	keystroke_Key.space	Key.space	n/a
591.668	0.135	1183336	keystroke_r	r	n/a
591.833	0.135	1183666	keystroke_e	e	n/a
592.088	0.12	1184176	keystroke_a	a	n/a
592.283	0.09	1184566	keystroke_l	l	n/a
592.538	0.12	1185076	keystroke_t	t	n/a
592.688	0.106	1185376	keystroke_y	y	n/a
592.928	0.075	1185856	keystroke_Key.space	Key.space	n/a
593.258	0.09	1186516	keystroke_g	g	n/a
593.513	0.12	1187026	keystroke_e	e	n/a
593.6785	0.09	1187357	keystroke_n	n	n/a
593.8735	0.135	1187747	keystroke_t	t	n/a
594.7135	0.075	1189427	keystroke_l	l	n/a
594.9085	0.135	1189817	keystroke_e	e	n/a
595.1485	0.0905	1190297	keystroke_m	m	n/a
595.313	0.121	1190626	keystroke_a	a	n/a
595.388	0.09	1190776	keystroke_n	n	n/a
595.673	0.136	1191346	keystroke_Key.enter	Key.enter	n/a
595.813	11.1125	1191626	prompt	n/a	absolute pools practical hidden\n
596.529	0.149	1193058	keystroke_a	a	n/a
596.7835	0.105	1193567	keystroke_b	b	n/a
597.3385	0.1045	1194677	keystroke_s	s	n/a
597.608	0.1205	1195216	keystroke_o	o	n/a
598.763	0.09	1197526	keystroke_l	l	n/a
599.018	0.075	1198036	keystroke_u	u	n/a
599.198	0.09	1198396	keystroke_t	t	n/a
599.468	0.135	1198936	keystroke_e	e	n/a
599.753	0.09	1199506	keystroke_Key.space	Key.space	n/a
600.2635	0.105	1200527	keystroke_p	p	n/a
600.5635	0.09	1201127	keystroke_o	o	n/a
600.7585	0.09	1201517	keystroke_o	o	n/a
600.9985	0.075	1201997	keystroke_l	l	n/a
601.1935	0.09	1202387	keystroke_s	s	n/a
601.5535	0.09	1203107	keystroke_Key.space	Key.space	n/a
602.093	0.105	1204186	keystroke_p	p	n/a
602.259	0.12	1204518	keystroke_r	r	n/a
602.483	0.165	1204966	keystroke_a	a	n/a
602.814	0.075	1205628	keystroke_c	c	n/a
603.023	0.09	1206046	keystroke_t	t	n/a
603.158	0.06	1206316	keystroke_i	i	n/a
603.398	0.151	1206796	keystroke_a	a	n/a
604.013	0.09	1208026	keystroke_Key.backspace	Key.backspace	n/a
604.178	0.121	1208356	keystroke_c	c	n/a
604.404	0.119	1208808	keystroke_a	a	n/a
604.553	0.105	1209106	keystroke_l	l	n/a
604.958	0.106	1209916	keystroke_Key.space	Key.space	n/a
605.439	0.09	1210878	keystroke_h	h	n/a
605.7685	0.075	1211537	keystroke_i	i	n/a
606.0235	0.09	1212047	keystroke_d	d	n/a
606.1885	0.09	1212377	keystroke_d	d	n/a
606.3985	0.105	1212797	keystroke_e	e	n/a
606.5185	0.09	1213037	keystroke_n	n	n/a
606.8035	0.12	1213607	keystroke_Key.enter	Key.enter	n/a
606.928	18.9725	1213856	prompt	n/a	governance individuals pathology consultants\n
607.688	0.105	1215376	keystroke_g	g	n/a
608.018	0.09	1216036	keystroke_o	o	n/a
608.183	0.12	1216366	keystroke_v	v	n/a
608.438	0.166	1216876	keystroke_e	e	n/a
609.398	0.09	1218796	keystroke_r	r	n/a
610.688	0.076	1221376	keystroke_n	n	n/a
611.139	0.104	1222278	keystroke_a	a	n/a
611.363	0.06	1222726	keystroke_n	n	n/a
611.648	0.1055	1223296	keystroke_c	c	n/a
611.8285	0.105	1223657	keystroke_e	e	n/a
612.069	0.089	1224138	keystroke_Key.space	Key.space	n/a
612.6085	0.045	1225217	keystroke_i	i	n/a
612.7585	0.105	1225517	keystroke_n	n	n/a
613.0135	0.09	1226027	keystroke_d	d	n/a
613.2235	0.075	1226447	keystroke_i	i	n/a
613.554	0.09	1227108	keystroke_c	c	n/a
614.4985	0.105	1228997	keystroke_Key.backspace	Key.backspace	n/a
614.7835	0.091	1229567	keystroke_c	c	n/a
615.9835	0.09	1231967	keystroke_Key.backspace	Key.backspace	n/a
616.374	0.149	1232748	keystroke_v	v	n/a
616.764	0.03	1233528	keystroke_s	s	n/a
617.693	0.015	1235386	keystroke_i	i	n/a
617.843	0.106	1235686	keystroke_d	d	n/a
618.068	0.076	1236136	keystroke_u	u	n/a
618.414	0.059	1236828	keystroke_a	a	n/a
618.879	0.074	1237758	keystroke_l	l	n/a
619.058	0.106	1238116	keystroke_s	s	n/a
619.298	0.09	1238596	keystroke_Key.space	Key.space	n/a
619.839	0.075	1239678	keystroke_p	p	n/a
620.019	0.12	1240038	keystroke_a	a	n/a
620.243	0.09	1240486	keystroke_t	t	n/a
620.303	0.121	1240606	keystroke_h	h	n/a
620.5435	0.105	1241087	keystroke_o	o	n/a
620.8735	0.09	1241747	keystroke_l	l	n/a
621.1285	0.075	1242257	keystroke_o	o	n/a
621.8485	0.0755	1243697	keystroke_g	g	n/a
622.269	0.015	1244538	keystroke_y	y	n/a
622.584	0.075	1245168	keystroke_Key.space	Key.space	n/a
623.303	0.075	1246606	keystroke_c	c	n/a
623.528	0.06	1247056	keystroke_o	o	n/a
623.7385	0.09	1247477	keystroke_n	n	n/a
623.8585	0.105	1247717	keystroke_s	s	n/a
624.053	0.0905	1248106	keystroke_u	u	n/a
624.3235	0.09	1248647	keystroke_l	l	n/a
624.5635	0.09	1249127	keystroke_t	t	n/a
625.014	0.105	1250028	keystroke_a	a	n/a
625.134	0.1045	1250268	keystroke_n	n	n/a
625.299	0.12	1250598	keystroke_t	t	n/a
625.584	0.09	1251168	keystroke_s	s	n/a
625.794	0.105	1251588	keystroke_Key.enter	Key.enter	n/a
625.9035	13.121	1251807	prompt	n/a	at preceding whereas aquarium\n
626.679	0.135	1253358	keystroke_a	a	n/a
626.844	0.119	1253688	keystroke_t	t	n/a
627.038	0.105	1254076	keystroke_Key.space	Key.space	n/a
627.204	0.149	1254408	keystroke_p	p	n/a
627.414	0.1345	1254828	keystroke_r	r	n/a
627.6685	0.12	1255337	keystroke_e	e	n/a
628.899	0.09	1257798	keystroke_c	c	n/a
629.108	0.1205	1258216	keystroke_e	e	n/a
629.3785	0.09	1258757	keystroke_d	d	n/a
629.5285	0.09	1259057	keystroke_i	i	n/a
629.7085	0.075	1259417	keystroke_n	n	n/a
629.7985	0.105	1259597	keystroke_g	g	n/a
629.9635	0.09	1259927	keystroke_Key.space	Key.space	n/a
630.3235	0.1195	1260647	keystroke_w	w	n/a
630.489	0.09	1260978	keystroke_h	h	n/a
630.638	0.181	1261276	keystroke_a	a	n/a
630.834	0.134	1261668	keystroke_t	t	n/a
631.733	0.045	1263466	keystroke_Key.backspace	Key.backspace	n/a
631.913	0.09	1263826	keystroke_Key.backspace	Key.backspace	n/a
632.213	0.21	1264426	keystroke_e	e	n/a
632.378	0.135	1264756	keystroke_r	r	n/a
633.5635	0.1055	1267127	keystroke_e	e	n/a
634.073	0.091	1268146	keystroke_a	a	n/a
635.003	0.105	1270006	keystroke_s	s	n/a
635.604	0.059	1271208	keystroke_Key.space	Key.space	n/a
636.788	0.105	1273576	keystroke_a	a	n/a
637.028	0.135	1274056	keystroke_q	q	n/a
637.148	0.12	1274296	keystroke_u	u	n/a
637.478	0.18	1274956	keystroke_a	a	n/a
637.674	0.179	1275348	keystroke_r	r	n/a
638.033	0.09	1276066	keystroke_i	i	n/a
638.424	0.074	1276848	keystroke_u	u	n/a
638.618	0.075	1277236	keystroke_m	m	n/a
638.903	0.1205	1277806	keystroke_Key.enter	Key.enter	n/a
639.028	15.882	1278056	prompt	n/a	aberdeen generic cheat negotiation\n
639.758	0.135	1279516	keystroke_a	a	n/a
640.4185	0.105	1280837	keystroke_b	b	n/a
640.688	0.12	1281376	keystroke_e	e	n/a
640.973	0.12	1281946	keystroke_r	r	n/a
641.468	0.09	1282936	keystroke_d	d	n/a
641.8285	0.1055	1283657	keystroke_e	e	n/a
642.1435	0.015	1284287	keystroke_e	e	n/a
642.2335	0.09	1284467	keystroke_n	n	n/a
642.5335	0.075	1285067	keystroke_Key.space	Key.space	n/a
642.9985	0.0605	1285997	keystroke_g	g	n/a
643.089	0.075	1286178	keystroke_g	g	n/a
643.3735	0.135	1286747	keystroke_e	e	n/a
643.5385	0.105	1287077	keystroke_n	n	n/a
643.8085	0.105	1287617	keystroke_c	c	n/a
644.4685	0.075	1288937	keystroke_Key.backspace	Key.backspace	n/a
644.679	0.074	1289358	keystroke_Key.backspace	Key.backspace	n/a
644.873	0.091	1289746	keystroke_Key.backspace	Key.backspace	n/a
645.083	0.09	1290166	keystroke_Key.backspace	Key.backspace	n/a
645.7435	0.12	1291487	keystroke_e	e	n/a
645.9535	0.09	1291907	keystroke_n	n	n/a
646.374	0.18	1292748	keystroke_e	e	n/a
646.524	0.104	1293048	keystroke_r	r	n/a
646.719	0.075	1293438	keystroke_i	i	n/a
646.929	0.075	1293858	keystroke_c	c	n/a
647.1235	0.09	1294247	keystroke_Key.space	Key.space	n/a
647.919	0.105	1295838	keystroke_c	c	n/a
648.264	0.075	1296528	keystroke_h	h	n/a
648.534	0.135	1297068	keystroke_a	a	n/a
648.879	0.09	1297758	keystroke_t	t	n/a
649.554	0.074	1299108	keystroke_Key.backspace	Key.backspace	n/a
649.7635	0.075	1299527	keystroke_Key.backspace	Key.backspace	n/a
649.8985	0.135	1299797	keystroke_e	e	n/a
650.1685	0.12	1300337	keystroke_a	a	n/a
650.3035	0.09	1300607	keystroke_t	t	n/a
650.6485	0.09	1301297	keystroke_Key.space	Key.space	n/a
651.3085	0.09	1302617	keystroke_r	r	n/a
651.758	0.105	1303516	keystroke_Key.backspace	Key.backspace	n/a
652.0585	0.12	1304117	keystroke_n	n	n/a
652.3435	0.12	1304687	keystroke_e	e	n/a
652.8085	0.09	1305617	keystroke_g	g	n/a
653.0185	0.105	1306037	keystroke_o	o	n/a
653.4685	0.09	1306937	keystroke_t	t	n/a
653.6035	0.0755	1307207	keystroke_i	i	n/a
653.919	0.135	1307838	keystroke_a	a	n/a
654.069	0.1195	1308138	keystroke_t	t	n/a
654.174	0.0895	1308348	keystroke_i	i	n/a
654.3535	0.09	1308707	keystroke_o	o	n/a
654.5045	0.105	1309009	keystroke_n	n	n/a
654.7735	0.135	1309547	keystroke_Key.enter	Key.enter	n/a
654.914	8.996	1309828	prompt	n/a	weekends property kurt vector\n
655.6585	0.15	1311317	keystroke_w	w	n/a
655.9585	0.075	1311917	keystroke_e	e	n/a
656.1385	0.105	1312277	keystroke_e	e	n/a
656.3485	0.075	1312697	keystroke_k	k	n/a
656.6335	0.105	1313267	keystroke_e	e	n/a
656.7685	0.0895	1313537	keystroke_n	n	n/a
656.9935	0.09	1313987	keystroke_d	d	n/a
657.2485	0.105	1314497	keystroke_s	s	n/a
657.3985	0.105	1314797	keystroke_Key.space	Key.space	n/a
657.6085	0.12	1315217	keystroke_p	p	n/a
657.864	0.1195	1315728	keystroke_r	r	n/a
658.044	0.1205	1316088	keystroke_o	o	n/a
658.2685	0.1055	1316537	keystroke_p	p	n/a
658.479	0.135	1316958	keystroke_e	e	n/a
658.569	0.105	1317138	keystroke_r	r	n/a
658.764	0.075	1317528	keystroke_t	t	n/a
658.854	0.09	1317708	keystroke_y	y	n/a
659.109	0.105	1318218	keystroke_Key.space	Key.space	n/a
659.4545	0.119	1318909	keystroke_h	h	n/a
659.9635	0.09	1319927	keystroke_Key.backspace	Key.backspace	n/a
660.3385	0.09	1320677	keystroke_k	k	n/a
660.6535	0.075	1321307	keystroke_u	u	n/a
660.9985	0.0905	1321997	keystroke_r	r	n/a
661.284	0.09	1322568	keystroke_t	t	n/a
661.629	0.075	1323258	keystroke_Key.space	Key.space	n/a
662.154	0.075	1324308	keystroke_v	v	n/a
662.529	0.165	1325058	keystroke_e	e	n/a
662.9935	0.105	1325987	keystroke_c	c	n/a
663.2185	0.105	1326437	keystroke_t	t	n/a
663.3685	0.09	1326737	keystroke_o	o	n/a
663.5335	0.105	1327067	keystroke_r	r	n/a
663.7885	0.1205	1327577	keystroke_Key.enter	Key.enter	n/a
663.9145	10.4815	1327829	prompt	n/a	kurt bags even beam\n
665.559	0.075	1331118	keystroke_k	k	n/a
665.964	0.075	1331928	keystroke_u	u	n/a
666.144	0.09	1332288	keystroke_r	r	n/a
666.354	0.09	1332708	keystroke_t	t	n/a
666.5485	0.075	1333097	keystroke_Key.space	Key.space	n/a
666.8185	0.09	1333637	keystroke_g	g	n/a
667.0435	0.105	1334087	keystroke_a	a	n/a
668.304	0.075	1336608	keystroke_Key.backspace	Key.backspace	n/a
668.514	0.09	1337028	keystroke_Key.backspace	Key.backspace	n/a
669.0385	0.105	1338077	keystroke_b	b	n/a
669.5785	0.1055	1339157	keystroke_a	a	n/a
669.8035	0.1055	1339607	keystroke_g	g	n/a
670.0735	0.12	1340147	keystroke_s	s	n/a
670.3145	0.075	1340629	keystroke_Key.space	Key.space	n/a
670.689	0.165	1341378	keystroke_e	e	n/a
671.3035	0.121	1342607	keystroke_v	v	n/a
671.5585	0.12	1343117	keystroke_e	e	n/a
671.6945	0.105	1343389	keystroke_n	n	n/a
672.0385	0.075	1344077	keystroke_Key.space	Key.space	n/a
672.3695	0.059	1344739	keystroke_b	b	n/a
672.3835	0.031	1344767	keystroke_v	v	n/a
673.224	0.1195	1346448	keystroke_Key.backspace	Key.backspace	n/a
673.4645	0.12	1346929	keystroke_e	e	n/a
673.6745	0.134	1347349	keystroke_a	a	n/a
673.9135	0.121	1347827	keystroke_m	m	n/a
674.2885	0.105	1348577	keystroke_Key.enter	Key.enter	n/a
674.399	8.5615	1348798	prompt	n/a	floor wound weak adaptive\n
675.3835	0.076	1350767	keystroke_f	f	n/a
675.5345	0.074	1351069	keystroke_l	l	n/a
675.7445	0.089	1351489	keystroke_o	o	n/a
675.9245	0.089	1351849	keystroke_o	o	n/a
675.9995	0.1045	1351999	keystroke_r	r	n/a
676.2385	0.09	1352477	keystroke_Key.space	Key.space	n/a
676.4785	0.12	1352957	keystroke_w	w	n/a
676.6135	0.09	1353227	keystroke_o	o	n/a
676.7185	0.105	1353437	keystroke_u	u	n/a
676.9135	0.09	1353827	keystroke_l	l	n/a
677.0935	0.09	1354187	keystroke_d	d	n/a
677.2585	0.105	1354517	keystroke_Key.space	Key.space	n/a
677.8135	0.105	1355627	keystroke_w	w	n/a
677.9785	0.135	1355957	keystroke_e	e	n/a
678.6245	0.12	1357249	keystroke_a	a	n/a
678.8485	0.061	1357697	keystroke_k	k	n/a
679.1185	0.091	1358237	keystroke_Key.space	Key.space	n/a
679.944	0.105	1359888	keystroke_a	a	n/a
680.274	0.09	1360548	keystroke_d	d	n/a
681.504	0.1055	1363008	keystroke_a	a	n/a
681.7135	0.106	1363427	keystroke_p	p	n/a
682.1185	0.03	1364237	keystroke_t	t	n/a
682.1785	0.091	1364357	keystroke_i	i	n/a
682.4635	0.1055	1364927	keystroke_v	v	n/a
682.704	0.1195	1365408	keystroke_e	e	n/a
682.854	0.105	1365708	keystroke_Key.enter	Key.enter	n/a
682.964	15.8815	1365928	prompt	n/a	jamaica truth vendors perhaps\n
683.694	0.06	1367388	keystroke_j	j	n/a
683.709	0.03	1367418	keystroke_h	h	n/a
683.874	0.135	1367748	keystroke_a	a	n/a
683.994	0.09	1367988	keystroke_m	m	n/a
684.3835	0.12	1368767	keystroke_a	a	n/a
684.7145	0.075	1369429	keystroke_i	i	n/a
685.1485	0.09	1370297	keystroke_c	c	n/a
685.3585	0.12	1370717	keystroke_a	a	n/a
685.6135	0.075	1371227	keystroke_Key.space	Key.space	n/a
685.914	0.105	1371828	keystroke_t	t	n/a
686.169	0.12	1372338	keystroke_r	r	n/a
686.334	0.09	1372668	keystroke_u	u	n/a
686.679	0.12	1373358	keystroke_t	t	n/a
686.814	0.09	1373628	keystroke_h	h	n/a
689.859	0.09	1379718	keystroke_j	j	n/a
690.084	0.135	1380168	keystroke_a	a	n/a
690.234	0.105	1380468	keystroke_m	m	n/a
690.714	0.12	1381428	keystroke_a	a	n/a
691.7485	0.0755	1383497	keystroke_i	i	n/a
692.169	0.09	1384338	keystroke_c	c	n/a
692.394	0.105	1384788	keystroke_a	a	n/a
692.559	0.105	1385118	keystroke_Key.space	Key.space	n/a
692.9035	0.105	1385807	keystroke_t	t	n/a
693.204	0.09	1386408	keystroke_r	r	n/a
693.414	0.09	1386828	keystroke_u	u	n/a
693.579	0.1055	1387158	keystroke_t	t	n/a
693.669	0.1055	1387338	keystroke_h	h	n/a
694.2385	0.075	1388477	keystroke_Key.space	Key.space	n/a
694.5685	0.105	1389137	keystroke_v	v	n/a
694.7785	0.12	1389557	keystroke_e	e	n/a
694.8845	0.089	1389769	keystroke_n	n	n/a
695.319	0.0905	1390638	keystroke_d	d	n/a
695.4695	0.105	1390939	keystroke_o	o	n/a
695.7085	0.121	1391417	keystroke_r	r	n/a
695.979	0.105	1391958	keystroke_s	s	n/a
696.249	0.105	1392498	keystroke_Key.space	Key.space	n/a
696.5335	0.12	1393067	keystroke_p	p	n/a
696.7585	0.15	1393517	keystroke_e	e	n/a
696.8645	0.119	1393729	keystroke_r	r	n/a
697.4335	0.045	1394867	keystroke_h	h	n/a
698.0935	0.091	1396187	keystroke_a	a	n/a
698.2745	0.105	1396549	keystroke_p	p	n/a
698.5295	0.105	1397059	keystroke_s	s	n/a
698.7395	0.105	1397479	keystroke_Key.enter	Key.enter	n/a
698.8515	12.58	1397703	prompt	n/a	sydney worldcat entered medline\n
699.565	0.119	1399130	keystroke_s	s	n/a
699.789	0.075	1399578	keystroke_y	y	n/a
700.269	0.12	1400538	keystroke_d	d	n/a
700.539	0.1195	1401078	keystroke_e	e	n/a
701.6935	0.0755	1403387	keystroke_Key.backspace	Key.backspace	n/a
702.4585	0.075	1404917	keystroke_n	n	n/a
702.6235	0.121	1405247	keystroke_e	e	n/a
702.7585	0.105	1405517	keystroke_y	y	n/a
702.9835	0.09	1405967	keystroke_Key.space	Key.space	n/a
703.254	0.12	1406508	keystroke_w	w	n/a
703.494	0.09	1406988	keystroke_o	o	n/a
705.264	0.12	1410528	keystroke_r	r	n/a
705.5185	0.09	1411037	keystroke_l	l	n/a
705.7585	0.09	1411517	keystroke_d	d	n/a
706.1045	0.0895	1412209	keystroke_c	c	n/a
706.329	0.12	1412658	keystroke_a	a	n/a
706.509	0.075	1413018	keystroke_t	t	n/a
706.749	0.105	1413498	keystroke_Key.space	Key.space	n/a
707.4845	0.105	1414969	keystroke_e	e	n/a
707.7095	0.06	1415419	keystroke_n	n	n/a
707.8145	0.12	1415629	keystroke_t	t	n/a
708.0395	0.15	1416079	keystroke_e	e	n/a
708.1445	0.135	1416289	keystroke_r	r	n/a
708.5645	0.12	1417129	keystroke_e	e	n/a
708.8485	0.076	1417697	keystroke_d	d	n/a
709.0895	0.089	1418179	keystroke_Key.space	Key.space	n/a
709.4945	0.075	1418989	keystroke_m	m	n/a
709.8245	0.135	1419649	keystroke_e	e	n/a
710.1685	0.09	1420337	keystroke_d	d	n/a
710.439	0.09	1420878	keystroke_l	l	n/a
710.649	0.075	1421298	keystroke_i	i	n/a
710.844	0.09	1421688	keystroke_n	n	n/a
711.069	0.105	1422138	keystroke_e	e	n/a
711.324	0.105	1422648	keystroke_Key.enter	Key.enter	n/a
711.4345	7.811	1422869	prompt	n/a	indices deliver court retail\n
712.329	0.06	1424658	keystroke_i	i	n/a
712.479	0.105	1424958	keystroke_n	n	n/a
712.824	0.09	1425648	keystroke_d	d	n/a
713.034	0.075	1426068	keystroke_i	i	n/a
713.229	0.12	1426458	keystroke_c	c	n/a
713.469	0.105	1426938	keystroke_e	e	n/a
713.694	0.12	1427388	keystroke_s	s	n/a
713.964	0.075	1427928	keystroke_Key.space	Key.space	n/a
714.3535	0.105	1428707	keystroke_d	d	n/a
714.5785	0.105	1429157	keystroke_e	e	n/a
714.8635	0.105	1429727	keystroke_l	l	n/a
715.0745	0.059	1430149	keystroke_i	i	n/a
715.3435	0.016	1430687	keystroke_v	v	n/a
715.4935	0.18	1430987	keystroke_e	e	n/a
715.6285	0.121	1431257	keystroke_r	r	n/a
715.8085	0.106	1431617	keystroke_Key.space	Key.space	n/a
716.1095	0.105	1432219	keystroke_c	c	n/a
716.2285	0.105	1432457	keystroke_o	o	n/a
716.3635	0.105	1432727	keystroke_u	u	n/a
716.5135	0.135	1433027	keystroke_r	r	n/a
716.7235	0.105	1433447	keystroke_t	t	n/a
716.9035	0.0905	1433807	keystroke_Key.space	Key.space	n/a
717.144	0.15	1434288	keystroke_r	r	n/a
717.354	0.151	1434708	keystroke_e	e	n/a
718.194	0.105	1436388	keystroke_t	t	n/a
718.4345	0.105	1436869	keystroke_a	a	n/a
718.5845	0.09	1437169	keystroke_i	i	n/a
718.779	0.09	1437558	keystroke_l	l	n/a
719.169	0.075	1438338	keystroke_Key.enter	Key.enter	n/a
719.2495	10.5865	1438499	prompt	n/a	smooth kazakhstan matters particle\n
720.0395	0.12	1440079	keystroke_s	s	n/a
720.2495	0.09	1440499	keystroke_m	m	n/a
720.4745	0.105	1440949	keystroke_o	o	n/a
720.6695	0.105	1441339	keystroke_o	o	n/a
720.8045	0.12	1441609	keystroke_t	t	n/a
720.9695	0.105	1441939	keystroke_h	h	n/a
721.2245	0.09	1442449	keystroke_Key.space	Key.space	n/a
721.5095	0.075	1443019	keystroke_k	k	n/a
721.8695	0.12	1443739	keystroke_a	a	n/a
722.2745	0.09	1444549	keystroke_z	z	n/a
722.6645	0.105	1445329	keystroke_a	a	n/a
722.9495	0.075	1445899	keystroke_k	k	n/a
723.3845	0.075	1446769	keystroke_h	h	n/a
723.7595	0.1055	1447519	keystroke_s	s	n/a
723.999	0.09	1447998	keystroke_t	t	n/a
724.194	0.105	1448388	keystroke_a	a	n/a
724.329	0.12	1448658	keystroke_n	n	n/a
724.644	0.09	1449288	keystroke_Key.space	Key.space	n/a
725.7995	0.075	1451599	keystroke_m	m	n/a
726.0245	0.0895	1452049	keystroke_a	a	n/a
726.339	0.09	1452678	keystroke_t	t	n/a
726.534	0.105	1453068	keystroke_t	t	n/a
726.804	0.165	1453608	keystroke_e	e	n/a
726.924	0.135	1453848	keystroke_r	r	n/a
727.179	0.105	1454358	keystroke_s	s	n/a
727.374	0.105	1454748	keystroke_Key.space	Key.space	n/a
727.614	0.105	1455228	keystroke_p	p	n/a
727.764	0.211	1455528	keystroke_a	a	n/a
727.929	0.165	1455858	keystroke_r	r	n/a
728.17	0.105	1456340	keystroke_t	t	n/a
728.424	0.045	1456848	keystroke_i	i	n/a
728.694	0.031	1457388	keystroke_c	c	n/a
729.3845	0.075	1458769	keystroke_l	l	n/a
729.5645	0.09	1459129	keystroke_e	e	n/a
729.7295	0.105	1459459	keystroke_Key.enter	Key.enter	n/a
729.8395	15.4165	1459679	prompt	n/a	hunger kazakhstan billy round\n
730.5395	0.0745	1461079	keystroke_h	h	n/a
730.719	0.076	1461438	keystroke_u	u	n/a
730.914	0.076	1461828	keystroke_n	n	n/a
731.169	0.09	1462338	keystroke_g	g	n/a
731.394	0.165	1462788	keystroke_e	e	n/a
731.514	0.121	1463028	keystroke_r	r	n/a
731.724	0.09	1463448	keystroke_Key.space	Key.space	n/a
732.054	0.09	1464108	keystroke_k	k	n/a
732.414	0.135	1464828	keystroke_a	a	n/a
732.849	0.105	1465698	keystroke_z	z	n/a
733.239	0.105	1466478	keystroke_a	a	n/a
733.644	0.075	1467288	keystroke_k	k	n/a
734.2445	0.075	1468489	keystroke_h	h	n/a
734.724	0.12	1469448	keystroke_a	a	n/a
