onset	duration	sample	value	key	prompt_text
6.5865	0.253	13173	keystroke_Key.shift_r	Key.shift_r	n/a
6.8655	14.308	13731	prompt	n/a	the quick brown fox jumps over a lazy dog\n
9.573	0.027	19146	keystroke_t	t	n/a
9.63	0.091	19260	keystroke_h	h	n/a
9.765	0.106	19530	keystroke_e	e	n/a
9.9	0.09	19800	keystroke_Key.space	Key.space	n/a
10.126	0.09	20252	keystroke_q	q	n/a
10.4405	0.105	20881	keystroke_i	i	n/a
10.951	0.0755	21902	keystroke_Key.backspace	Key.backspace	n/a
11.1615	0.105	22323	keystroke_u	u	n/a
11.8965	0.075	23793	keystroke_i	i	n/a
12.0015	0.105	24003	keystroke_c	c	n/a
12.121	0.09	24242	keystroke_k	k	n/a
12.332	0.105	24664	keystroke_Key.space	Key.space	n/a
12.452	0.09	24904	keystroke_b	b	n/a
12.527	0.09	25054	keystroke_r	r	n/a
12.6765	0.09	25353	keystroke_o	o	n/a
12.7675	0.0885	25535	keystroke_w	w	n/a
12.871	0.06	25742	keystroke_n	n	n/a
13.036	0.075	26072	keystroke_Key.space	Key.space	n/a
13.081	0.106	26162	keystroke_f	f	n/a
13.5615	0.1055	27123	keystroke_o	o	n/a
13.727	0.105	27454	keystroke_y	y	n/a
14.2975	0.09	28595	keystroke_Key.backspace	Key.backspace	n/a
14.5675	0.105	29135	keystroke_x	x	n/a
14.7175	0.075	29435	keystroke_Key.space	Key.space	n/a
15.1075	0.06	30215	keystroke_j	j	n/a
15.2425	0.075	30485	keystroke_u	u	n/a
15.4225	0.1505	30845	keystroke_m	m	n/a
15.558	0.105	31116	keystroke_p	p	n/a
15.678	0.1195	31356	keystroke_s	s	n/a
15.8125	0.091	31625	keystroke_Key.space	Key.space	n/a
15.9335	0.105	31867	keystroke_o	o	n/a
16.0235	0.075	32047	keystroke_v	v	n/a
16.2335	0.03	32467	keystroke_e	e	n/a
16.2485	0.12	32497	keystroke_r	r	n/a
16.4135	0.06	32827	keystroke_Key.space	Key.space	n/a
16.773	0.045	33546	keystroke_Key.backspace	Key.backspace	n/a
17.149	0.075	34298	keystroke_a	a	n/a
17.464	0.105	34928	keystroke_Key.backspace	Key.backspace	n/a
17.7485	0.0155	35497	keystroke_Key.space	Key.space	n/a
17.779	0.06	35558	keystroke_a	a	n/a
17.854	0.105	35708	keystroke_Key.space	Key.space	n/a
18.094	0.075	36188	keystroke_l	l	n/a
18.199	0.105	36398	keystroke_a	a	n/a
18.44	0.119	36880	keystroke_z	z	n/a
18.574	0.105	37148	keystroke_y	y	n/a
18.859	0.091	37718	keystroke_Key.space	Key.space	n/a
20.526	0.089	41052	keystroke_d	d	n/a
20.691	0.12	41382	keystroke_o	o	n/a
20.886	0.075	41772	keystroke_g	g	n/a
21.036	0.135	42072	keystroke_Key.enter	Key.enter	n/a
21.1775	11.4155	42355	prompt	n/a	pursuit turtle starring guide\n
21.9815	0.105	43963	keystroke_o	o	n/a
22.1615	0.105	44323	keystroke_u	u	n/a
22.3115	0.06	44623	keystroke_r	r	n/a
22.4915	0.075	44983	keystroke_s	s	n/a
22.897	0.09	45794	keystroke_u	u	n/a
23.5565	0.075	47113	keystroke_Key.backspace	Key.backspace	n/a
23.7225	0.06	47445	keystroke_Key.backspace	Key.backspace	n/a
23.8725	0.045	47745	keystroke_Key.backspace	Key.backspace	n/a
24.0225	0.045	48045	keystroke_Key.backspace	Key.backspace	n/a
24.1425	0.0895	48285	keystroke_Key.backspace	Key.backspace	n/a
24.743	0.045	49486	keystroke_p	p	n/a
25.0125	0.105	50025	keystroke_u	u	n/a
25.2225	0.105	50445	keystroke_r	r	n/a
25.6125	0.09	51225	keystroke_u	u	n/a
25.8375	0.09	51675	keystroke_i	i	n/a
26.0485	0.105	52097	keystroke_t	t	n/a
26.7835	0.045	53567	keystroke_Key.backspace	Key.backspace	n/a
26.9185	0.06	53837	keystroke_Key.backspace	Key.backspace	n/a
27.0685	0.06	54137	keystroke_Key.backspace	Key.backspace	n/a
27.3385	0.1205	54677	keystroke_s	s	n/a
27.609	0.0895	55218	keystroke_u	u	n/a
27.8185	0.075	55637	keystroke_i	i	n/a
27.9385	0.09	55877	keystroke_t	t	n/a
28.3735	0.091	56747	keystroke_Key.space	Key.space	n/a
28.6595	0.12	57319	keystroke_t	t	n/a
28.9595	0.075	57919	keystroke_u	u	n/a
29.2295	0.15	58459	keystroke_r	r	n/a
29.2595	0.135	58519	keystroke_t	t	n/a
29.5295	0.1055	59059	keystroke_l	l	n/a
29.695	0.09	59390	keystroke_e	e	n/a
29.965	0.075	59930	keystroke_Key.space	Key.space	n/a
30.2495	0.1055	60499	keystroke_s	s	n/a
30.43	0.075	60860	keystroke_t	t	n/a
30.58	0.105	61160	keystroke_a	a	n/a
30.7	0.075	61400	keystroke_r	r	n/a
30.865	0.075	61730	keystroke_r	r	n/a
30.925	0.135	61850	keystroke_i	i	n/a
31	0.12	62000	keystroke_n	n	n/a
31.135	0.09	62270	keystroke_g	g	n/a
31.301	0.075	62602	keystroke_Key.space	Key.space	n/a
31.811	0.075	63622	keystroke_g	g	n/a
31.946	0.09	63892	keystroke_u	u	n/a
32.111	0.105	64222	keystroke_i	i	n/a
32.186	0.165	64372	keystroke_d	d	n/a
32.321	0.1055	64642	keystroke_e	e	n/a
32.5015	0.09	65003	keystroke_Key.enter	Key.enter	n/a
32.597	10.485	65194	prompt	n/a	profiles employment preceding lesser\n
33.6865	0.075	67373	keystroke_p	p	n/a
33.8515	0.075	67703	keystroke_r	r	n/a
34.0015	0.0755	68003	keystroke_o	o	n/a
34.422	0.09	68844	keystroke_f	f	n/a
34.557	0.045	69114	keystroke_i	i	n/a
34.752	0.09	69504	keystroke_l	l	n/a
34.857	0.075	69714	keystroke_e	e	n/a
35.022	0.105	70044	keystroke_s	s	n/a
35.232	0.09	70464	keystroke_Key.space	Key.space	n/a
35.5475	0.075	71095	keystroke_e	e	n/a
35.6525	0.09	71305	keystroke_m	m	n/a
35.8475	0.12	71695	keystroke_p	p	n/a
35.9375	0.12	71875	keystroke_l	l	n/a
36.3275	0.075	72655	keystroke_y	y	n/a
36.6275	0.09	73255	keystroke_e	e	n/a
37.167	0.016	74334	keystroke_Key.backspace	Key.backspace	n/a
37.2425	0.105	74485	keystroke_Key.backspace	Key.backspace	n/a
37.6175	0.105	75235	keystroke_o	o	n/a
38.863	0.09	77726	keystroke_y	y	n/a
39.043	0.105	78086	keystroke_m	m	n/a
39.208	0.105	78416	keystroke_e	e	n/a
39.253	0.106	78506	keystroke_n	n	n/a
39.419	0.075	78838	keystroke_t	t	n/a
39.553	0.09	79106	keystroke_Key.space	Key.space	n/a
39.749	0.09	79498	keystroke_p	p	n/a
39.854	0.1205	79708	keystroke_r	r	n/a
39.9445	0.105	79889	keystroke_e	e	n/a
40.559	0.105	81118	keystroke_c	c	n/a
40.679	0.09	81358	keystroke_e	e	n/a
40.9795	0.105	81959	keystroke_d	d	n/a
41.1745	0.1345	82349	keystroke_i	i	n/a
41.264	0.106	82528	keystroke_n	n	n/a
41.415	0.09	82830	keystroke_g	g	n/a
41.67	0.075	83340	keystroke_Key.space	Key.space	n/a
42.09	0.135	84180	keystroke_l	l	n/a
42.24	0.06	84480	keystroke_e	e	n/a
42.435	0.045	84870	keystroke_s	s	n/a
42.555	0.0745	85110	keystroke_s	s	n/a
42.7495	0.06	85499	keystroke_e	e	n/a
42.7805	0.104	85561	keystroke_r	r	n/a
42.9305	0.15	85861	keystroke_Key.enter	Key.enter	n/a
43.0945	8.0735	86189	prompt	n/a	sweden lucia nest affecting\n
43.7705	0.105	87541	keystroke_s	s	n/a
43.9805	0.105	87961	keystroke_w	w	n/a
44.0705	0.09	88141	keystroke_e	e	n/a
44.3105	0.12	88621	keystroke_d	d	n/a
44.4005	0.12	88801	keystroke_e	e	n/a
44.5655	0.15	89131	keystroke_n	n	n/a
44.7905	0.075	89581	keystroke_Key.space	Key.space	n/a
44.9405	0.091	89881	keystroke_l	l	n/a
45.1365	0.09	90273	keystroke_u	u	n/a
45.3165	0.105	90633	keystroke_c	c	n/a
45.6915	0.03	91383	keystroke_o	o	n/a
46.231	0.075	92462	keystroke_Key.backspace	Key.backspace	n/a
46.426	0.09	92852	keystroke_i	i	n/a
46.546	0.1205	93092	keystroke_a	a	n/a
46.8465	0.045	93693	keystroke_Key.backspace	Key.backspace	n/a
47.2065	0.075	94413	keystroke_a	a	n/a
47.3565	0.0905	94713	keystroke_Key.space	Key.space	n/a
47.702	0.09	95404	keystroke_n	n	n/a
47.807	0.06	95614	keystroke_e	e	n/a
47.987	0.0745	95974	keystroke_s	s	n/a
48.1815	0.09	96363	keystroke_t	t	n/a
48.2865	0.09	96573	keystroke_Key.space	Key.space	n/a
48.871	0.03	97742	keystroke_a	a	n/a
49.067	0.09	98134	keystroke_f	f	n/a
49.232	0.105	98464	keystroke_f	f	n/a
49.352	0.09	98704	keystroke_e	e	n/a
49.487	0.075	98974	keystroke_c	c	n/a
49.667	0.0895	99334	keystroke_t	t	n/a
49.8315	0.09	99663	keystroke_n	n	n/a
50.1915	0.075	100383	keystroke_Key.backspace	Key.backspace	n/a
50.537	0.1045	101074	keystroke_i	i	n/a
50.582	0.1195	101164	keystroke_n	n	n/a
50.7915	0.105	101583	keystroke_g	g	n/a
51.0615	0.105	102123	keystroke_Key.enter	Key.enter	n/a
51.171	5.5915	102342	prompt	n/a	native cargo chargers alias\n
51.9165	0.09	103833	keystroke_n	n	n/a
52.0215	0.105	104043	keystroke_a	a	n/a
52.1865	0.09	104373	keystroke_t	t	n/a
52.321	0.076	104642	keystroke_i	i	n/a
52.4715	0.105	104943	keystroke_v	v	n/a
52.5615	0.09	105123	keystroke_e	e	n/a
52.6965	0.075	105393	keystroke_Key.space	Key.space	n/a
52.816	0.135	105632	keystroke_c	c	n/a
53.221	0.075	106442	keystroke_a	a	n/a
53.342	0.1045	106684	keystroke_r	r	n/a
53.5805	0.09	107161	keystroke_g	g	n/a
53.6855	0.106	107371	keystroke_o	o	n/a
53.9565	0.105	107913	keystroke_Key.space	Key.space	n/a
54.676	0.105	109352	keystroke_c	c	n/a
54.766	0.09	109532	keystroke_h	h	n/a
54.841	0.12	109682	keystroke_a	a	n/a
54.916	0.105	109832	keystroke_r	r	n/a
55.126	0.075	110252	keystroke_g	g	n/a
55.2455	0.075	110491	keystroke_e	e	n/a
55.3065	0.09	110613	keystroke_r	r	n/a
55.471	0.105	110942	keystroke_s	s	n/a
55.6505	0.075	111301	keystroke_Key.space	Key.space	n/a
55.9355	0.09	111871	keystroke_a	a	n/a
56.0405	0.075	112081	keystroke_l	l	n/a
56.2055	0.0905	112411	keystroke_i	i	n/a
56.356	0.18	112712	keystroke_a	a	n/a
56.521	0.09	113042	keystroke_s	s	n/a
56.626	0.135	113252	keystroke_Key.enter	Key.enter	n/a
56.767	11.0945	113534	prompt	n/a	base liechtenstein cope calibration\n
57.721	0.0745	115442	keystroke_b	b	n/a
57.8255	0.09	115651	keystroke_a	a	n/a
57.8855	0.135	115771	keystroke_s	s	n/a
58.0215	0.089	116043	keystroke_e	e	n/a
58.2305	0.03	116461	keystroke_Key.space	Key.space	n/a
58.2905	0.105	116581	keystroke_Key.space	Key.space	n/a
59.041	0.105	118082	keystroke_Key.backspace	Key.backspace	n/a
59.341	0.075	118682	keystroke_l	l	n/a
59.5355	0.0755	119071	keystroke_i	i	n/a
59.8655	0.105	119731	keystroke_e	e	n/a
60.1205	0.1195	120241	keystroke_c	c	n/a
60.255	0.0905	120510	keystroke_h	h	n/a
61.366	0.075	122732	keystroke_t	t	n/a
61.5755	0.075	123151	keystroke_e	e	n/a
61.6955	0.075	123391	keystroke_n	n	n/a
61.92	0.105	123840	keystroke_s	s	n/a
62.355	0.105	124710	keystroke_t	t	n/a
62.9705	0.1345	125941	keystroke_e	e	n/a
63.15	0.1495	126300	keystroke_i	i	n/a
63.2555	0.135	126511	keystroke_n	n	n/a
63.6905	0.12	127381	keystroke_Key.space	Key.space	n/a
63.9005	0.135	127801	keystroke_c	c	n/a
64.0205	0.12	128041	keystroke_o	o	n/a
64.2155	0.075	128431	keystroke_p	p	n/a
64.365	0.12	128730	keystroke_e	e	n/a
64.575	0.09	129150	keystroke_Key.space	Key.space	n/a
64.815	0.09	129630	keystroke_c	c	n/a
64.86	0.12	129720	keystroke_a	a	n/a
64.995	0.09	129990	keystroke_l	l	n/a
65.2195	0.105	130439	keystroke_i	i	n/a
65.3695	0.0905	130739	keystroke_b	b	n/a
65.685	0.0895	131370	keystroke_r	r	n/a
65.8505	0.0595	131701	keystroke_a	a	n/a
66.1805	0.0895	132361	keystroke_t	t	n/a
66.285	0.15	132570	keystroke_i	i	n/a
66.6145	0.12	133229	keystroke_n	n	n/a
67.0195	0.075	134039	keystroke_Key.backspace	Key.backspace	n/a
67.2895	0.1195	134579	keystroke_o	o	n/a
67.3345	0.135	134669	keystroke_n	n	n/a
67.7395	0.12	135479	keystroke_Key.enter	Key.enter	n/a
67.865	8.216	135730	prompt	n/a	green organic sigma maria\n
68.64	0.045	137280	keystroke_g	g	n/a
68.895	0.105	137790	keystroke_r	r	n/a
68.97	0.0745	137940	keystroke_e	e	n/a
69.1345	0.12	138269	keystroke_e	e	n/a
69.2395	0.06	138479	keystroke_n	n	n/a
69.4345	0.0445	138869	keystroke_Key.space	Key.space	n/a
69.509	0.09	139018	keystroke_o	o	n/a
69.614	0.105	139228	keystroke_r	r	n/a
69.839	0.0755	139678	keystroke_g	g	n/a
70.0795	0.09	140159	keystroke_a	a	n/a
70.2595	0.045	140519	keystroke_n	n	n/a
70.4095	0.0745	140819	keystroke_i	i	n/a
70.724	0.12	141448	keystroke_c	c	n/a
71.174	0.0905	142348	keystroke_Key.space	Key.space	n/a
71.58	0.09	143160	keystroke_s	s	n/a
71.655	0.09	143310	keystroke_i	i	n/a
71.775	0.105	143550	keystroke_g	g	n/a
71.865	0.1045	143730	keystroke_n	n	n/a
72.1045	0.09	144209	keystroke_m	m	n/a
72.3595	0.09	144719	keystroke_a	a	n/a
72.509	0.075	145018	keystroke_Key.space	Key.space	n/a
72.7495	0.09	145499	keystroke_m	m	n/a
72.8545	0.135	145709	keystroke_a	a	n/a
73.6045	0.015	147209	keystroke_Key.backspace	Key.backspace	n/a
73.6945	0.045	147389	keystroke_Key.backspace	Key.backspace	n/a
73.874	0.06	147748	keystroke_Key.backspace	Key.backspace	n/a
74.0385	0.06	148077	keystroke_Key.backspace	Key.backspace	n/a
74.2035	0.075	148407	keystroke_Key.backspace	Key.backspace	n/a
74.3835	0.061	148767	keystroke_Key.backspace	Key.backspace	n/a
74.7295	0.075	149459	keystroke_m	m	n/a
74.8645	0.09	149729	keystroke_a	a	n/a
75.1045	0.09	150209	keystroke_Key.space	Key.space	n/a
75.299	0.0895	150598	keystroke_m	m	n/a
75.3735	0.1205	150747	keystroke_a	a	n/a
75.509	0.09	151018	keystroke_r	r	n/a
75.6	0.089	151200	keystroke_i	i	n/a
75.734	0.105	151468	keystroke_a	a	n/a
75.944	0.135	151888	keystroke_Key.enter	Key.enter	n/a
76.086	7.479	152172	prompt	n/a	chains respondent desk issues\n
76.889	0.12	153778	keystroke_c	c	n/a
77.0385	0.06	154077	keystroke_h	h	n/a
77.1135	0.12	154227	keystroke_a	a	n/a
77.2485	0.105	154497	keystroke_i	i	n/a
77.2785	0.105	154557	keystroke_n	n	n/a
77.4135	0.075	154827	keystroke_s	s	n/a
77.5485	0.09	155097	keystroke_Key.space	Key.space	n/a
77.6685	0.105	155337	keystroke_r	r	n/a
77.7445	0.1045	155489	keystroke_e	e	n/a
78.0735	0.105	156147	keystroke_s	s	n/a
78.1935	0.09	156387	keystroke_p	p	n/a
78.4335	0.105	156867	keystroke_n	n	n/a
79.049	0.09	158098	keystroke_Key.backspace	Key.backspace	n/a
79.3635	0.12	158727	keystroke_o	o	n/a
79.4085	0.12	158817	keystroke_n	n	n/a
79.7385	0.135	159477	keystroke_d	d	n/a
79.9035	0.135	159807	keystroke_e	e	n/a
80.2485	0.09	160497	keystroke_n	n	n/a
80.3835	0.105	160767	keystroke_t	t	n/a
80.7285	0.1045	161457	keystroke_Key.space	Key.space	n/a
81.088	0.135	162176	keystroke_d	d	n/a
81.193	0.09	162386	keystroke_e	e	n/a
81.389	0.074	162778	keystroke_s	s	n/a
81.509	0.104	163018	keystroke_k	k	n/a
81.8675	0.09	163735	keystroke_Key.space	Key.space	n/a
82.1085	0.105	164217	keystroke_i	i	n/a
82.288	0.075	164576	keystroke_s	s	n/a
82.483	0.075	164966	keystroke_s	s	n/a
82.604	0.104	165208	keystroke_u	u	n/a
82.753	0.075	165506	keystroke_e	e	n/a
83.248	0.0905	166496	keystroke_s	s	n/a
83.3825	0.1805	166765	keystroke_Key.enter	Key.enter	n/a
83.575	8.389	167150	prompt	n/a	weed hierarchy sarah logistics\n
84.3735	0.029	168747	keystroke_w	w	n/a
84.3885	0.044	168777	keystroke_e	e	n/a
84.5825	0.045	169165	keystroke_d	d	n/a
84.7185	0.0745	169437	keystroke_d	d	n/a
85.048	0.075	170096	keystroke_Key.backspace	Key.backspace	n/a
85.213	0.075	170426	keystroke_Key.backspace	Key.backspace	n/a
85.4675	0.105	170935	keystroke_e	e	n/a
85.6785	0.075	171357	keystroke_d	d	n/a
85.813	0.105	171626	keystroke_Key.space	Key.space	n/a
86.008	0.075	172016	keystroke_h	h	n/a
86.1725	0.09	172345	keystroke_i	i	n/a
86.338	0.12	172676	keystroke_e	e	n/a
86.443	0.075	172886	keystroke_r	r	n/a
86.653	0.09	173306	keystroke_a	a	n/a
86.923	0.06	173846	keystroke_r	r	n/a
87.538	0.0745	175076	keystroke_c	c	n/a
87.6725	0.105	175345	keystroke_h	h	n/a
87.8825	0.0745	175765	keystroke_y	y	n/a
88.452	0.015	176904	keystroke_Key.space	Key.space	n/a
88.858	0.0895	177716	keystroke_s	s	n/a
88.933	0.0895	177866	keystroke_a	a	n/a
89.0675	0.09	178135	keystroke_r	r	n/a
89.1725	0.105	178345	keystroke_a	a	n/a
89.3075	0.075	178615	keystroke_h	h	n/a
89.5475	0.09	179095	keystroke_Key.space	Key.space	n/a
90.2665	0.0905	180533	keystroke_l	l	n/a
90.447	0.1045	180894	keystroke_o	o	n/a
90.7325	0.06	181465	keystroke_g	g	n/a
90.8075	0.105	181615	keystroke_i	i	n/a
91.0475	0.06	182095	keystroke_s	s	n/a
91.2275	0.06	182455	keystroke_t	t	n/a
91.3025	0.0895	182605	keystroke_i	i	n/a
91.4825	0.075	182965	keystroke_c	c	n/a
91.5425	0.105	183085	keystroke_s	s	n/a
91.842	0.12	183684	keystroke_Key.enter	Key.enter	n/a
91.9665	12.596	183933	prompt	n/a	developed jewellery security oakland\n
92.997	0.09	185994	keystroke_d	d	n/a
93.072	0.03	186144	keystroke_e	e	n/a
93.177	0.09	186354	keystroke_v	v	n/a
93.252	0.105	186504	keystroke_e	e	n/a
93.387	0.105	186774	keystroke_l	l	n/a
93.642	0.06	187284	keystroke_o	o	n/a
93.807	0.1045	187614	keystroke_p	p	n/a
93.9415	0.06	187883	keystroke_e	e	n/a
94.437	0.0895	188874	keystroke_d	d	n/a
94.6015	0.09	189203	keystroke_Key.space	Key.space	n/a
95.0665	0.075	190133	keystroke_j	j	n/a
95.1565	0.0755	190313	keystroke_e	e	n/a
95.381	0.106	190762	keystroke_w	w	n/a
95.592	0.075	191184	keystroke_e	e	n/a
95.802	0.105	191604	keystroke_l	l	n/a
95.982	0.06	191964	keystroke_l	l	n/a
96.237	0.045	192474	keystroke_e	e	n/a
96.672	0.105	193344	keystroke_y	y	n/a
97.182	0.075	194364	keystroke_Key.backspace	Key.backspace	n/a
97.392	0.0895	194784	keystroke_e	e	n/a
97.751	0.075	195502	keystroke_Key.backspace	Key.backspace	n/a
97.856	0.075	195712	keystroke_r	r	n/a
97.991	0.106	195982	keystroke_y	y	n/a
98.547	0.045	197094	keystroke_Key.space	Key.space	n/a
99.1315	0.075	198263	keystroke_s	s	n/a
99.312	0.0595	198624	keystroke_e	e	n/a
99.4915	0.105	198983	keystroke_c	c	n/a
99.6115	0.09	199223	keystroke_i	i	n/a
100.196	0.135	200392	keystroke_Key.backspace	Key.backspace	n/a
100.571	0.045	201142	keystroke_u	u	n/a
101.0965	0.135	202193	keystroke_t	t	n/a
101.6365	0.075	203273	keystroke_Key.backspace	Key.backspace	n/a
101.7265	0.105	203453	keystroke_r	r	n/a
101.8765	0.105	203753	keystroke_i	i	n/a
102.0865	0.1045	204173	keystroke_t	t	n/a
102.221	0.075	204442	keystroke_y	y	n/a
102.6865	0.105	205373	keystroke_Key.space	Key.space	n/a
103.331	0.06	206662	keystroke_o	o	n/a
103.406	0.12	206812	keystroke_a	a	n/a
103.691	0.045	207382	keystroke_k	k	n/a
103.886	0.075	207772	keystroke_l	l	n/a
103.976	0.1045	207952	keystroke_a	a	n/a
104.0955	0.091	208191	keystroke_n	n	n/a
104.2465	0.105	208493	keystroke_d	d	n/a
104.471	0.09	208942	keystroke_Key.enter	Key.enter	n/a
104.566	7.721	209132	prompt	n/a	zone month contracts weapon\n
105.596	0.105	211192	keystroke_z	z	n/a
105.671	0.1345	211342	keystroke_o	o	n/a
105.791	0.0745	211582	keystroke_n	n	n/a
105.9105	0.06	211821	keystroke_e	e	n/a
106.0305	0.12	212061	keystroke_Key.space	Key.space	n/a
106.1355	0.135	212271	keystroke_m	m	n/a
106.2555	0.09	212511	keystroke_o	o	n/a
106.4205	0.1055	212841	keystroke_t	t	n/a
106.511	0.1195	213022	keystroke_n	n	n/a
106.7655	0.075	213531	keystroke_h	h	n/a
107.0805	0.06	214161	keystroke_Key.backspace	Key.backspace	n/a
107.2305	0.0745	214461	keystroke_Key.backspace	Key.backspace	n/a
107.38	0.06	214760	keystroke_Key.backspace	Key.backspace	n/a
107.6055	0.06	215211	keystroke_b	b	n/a
107.7105	0.09	215421	keystroke_t	t	n/a
107.8155	0.1055	215631	keystroke_h	h	n/a
108.161	0.06	216322	keystroke_Key.backspace	Key.backspace	n/a
108.311	0.0895	216622	keystroke_Key.backspace	Key.backspace	n/a
108.4605	0.075	216921	keystroke_Key.backspace	Key.backspace	n/a
108.7155	0.075	217431	keystroke_n	n	n/a
108.8205	0.105	217641	keystroke_t	t	n/a
108.9555	0.09	217911	keystroke_h	h	n/a
109.2105	0.06	218421	keystroke_Key.space	Key.space	n/a
109.45	0.105	218900	keystroke_c	c	n/a
109.54	0.15	219080	keystroke_o	o	n/a
109.645	0.105	219290	keystroke_n	n	n/a
109.751	0.1345	219502	keystroke_t	t	n/a
109.856	0.1195	219712	keystroke_r	r	n/a
110.1405	0.105	220281	keystroke_a	a	n/a
110.3055	0.135	220611	keystroke_c	c	n/a
110.5305	0.06	221061	keystroke_t	t	n/a
110.71	0.106	221420	keystroke_s	s	n/a
110.831	0.0895	221662	keystroke_Key.space	Key.space	n/a
110.9355	0.06	221871	keystroke_w	w	n/a
110.9805	0.12	221961	keystroke_e	e	n/a
111.1155	0.105	222231	keystroke_a	a	n/a
111.2205	0.105	222441	keystroke_p	p	n/a
111.535	0.09	223070	keystroke_o	o	n/a
111.61	0.061	223220	keystroke_n	n	n/a
112.165	0.12	224330	keystroke_Key.enter	Key.enter	n/a
112.29	7.916	224580	prompt	n/a	factory earthquake reveals trauma\n
113.005	0.06	226010	keystroke_g	g	n/a
113.3045	0.105	226609	keystroke_Key.backspace	Key.backspace	n/a
113.4395	0.06	226879	keystroke_f	f	n/a
113.5295	0.09	227059	keystroke_a	a	n/a
113.6645	0.106	227329	keystroke_c	c	n/a
113.9055	0.075	227811	keystroke_t	t	n/a
114.0405	0.09	228081	keystroke_o	o	n/a
114.2655	0.0745	228531	keystroke_r	r	n/a
114.475	0.1045	228950	keystroke_y	y	n/a
114.8205	0.0895	229641	keystroke_Key.space	Key.space	n/a
115.48	0.105	230960	keystroke_e	e	n/a
115.585	0.12	231170	keystroke_a	a	n/a
115.87	0.1195	231740	keystroke_r	r	n/a
115.9445	0.09	231889	keystroke_t	t	n/a
116.0495	0.075	232099	keystroke_h	h	n/a
116.395	0.09	232790	keystroke_q	q	n/a
116.485	0.105	232970	keystroke_u	u	n/a
116.6645	0.105	233329	keystroke_a	a	n/a
116.8145	0.09	233629	keystroke_k	k	n/a
117.1445	0.09	234289	keystroke_e	e	n/a
117.7895	0.06	235579	keystroke_Key.space	Key.space	n/a
117.9845	0.09	235969	keystroke_r	r	n/a
118.0595	0.09	236119	keystroke_e	e	n/a
118.2695	0.105	236539	keystroke_v	v	n/a
118.42	0.12	236840	keystroke_e	e	n/a
118.585	0.1195	237170	keystroke_a	a	n/a
118.7195	0.12	237439	keystroke_l	l	n/a
118.8545	0.09	237709	keystroke_s	s	n/a
119.0045	0.075	238009	keystroke_Key.space	Key.space	n/a
119.1695	0.09	238339	keystroke_t	t	n/a
119.2145	0.0895	238429	keystroke_r	r	n/a
119.409	0.0905	238818	keystroke_a	a	n/a
119.5145	0.09	239029	keystroke_u	u	n/a
119.7255	0.104	239451	keystroke_m	m	n/a
119.859	0.09	239718	keystroke_a	a	n/a
120.069	0.135	240138	keystroke_Key.enter	Key.enter	n/a
120.2095	6.221	240419	prompt	n/a	compare uncle units mentioned\n
120.9245	0.12	241849	keystroke_c	c	n/a
121.0595	0.105	242119	keystroke_o	o	n/a
121.2545	0.045	242509	keystroke_m	m	n/a
121.434	0.075	242868	keystroke_p	p	n/a
121.525	0.12	243050	keystroke_a	a	n/a
121.9595	0.12	243919	keystroke_r	r	n/a
122.0345	0.105	244069	keystroke_e	e	n/a
122.2445	0.105	244489	keystroke_Key.space	Key.space	n/a
122.4095	0.1045	244819	keystroke_u	u	n/a
122.484	0.105	244968	keystroke_n	n	n/a
122.604	0.1055	245208	keystroke_c	c	n/a
122.7695	0.105	245539	keystroke_l	l	n/a
122.9345	0.0745	245869	keystroke_e	e	n/a
123.114	0.075	246228	keystroke_Key.space	Key.space	n/a
123.309	0.1345	246618	keystroke_u	u	n/a
123.429	0.1195	246858	keystroke_n	n	n/a
123.819	0.09	247638	keystroke_i	i	n/a
123.924	0.105	247848	keystroke_t	t	n/a
124.449	0.09	248898	keystroke_s	s	n/a
124.629	0.105	249258	keystroke_Key.space	Key.space	n/a
124.854	0.09	249708	keystroke_m	m	n/a
124.959	0.075	249918	keystroke_e	e	n/a
125.079	0.0745	250158	keystroke_n	n	n/a
125.2285	0.09	250457	keystroke_t	t	n/a
125.3195	0.1195	250639	keystroke_i	i	n/a
125.574	0.15	251148	keystroke_o	o	n/a
125.694	0.1045	251388	keystroke_n	n	n/a
125.8435	0.105	251687	keystroke_e	e	n/a
126.0835	0.06	252167	keystroke_d	d	n/a
126.2935	0.136	252587	keystroke_Key.enter	Key.enter	n/a
126.434	5.591	252868	prompt	n/a	touring a careers carroll\n
127.5235	0.09	255047	keystroke_t	t	n/a
127.6285	0.12	255257	keystroke_o	o	n/a
127.7035	0.09	255407	keystroke_u	u	n/a
127.854	0.09	255708	keystroke_r	r	n/a
128.004	0.12	256008	keystroke_i	i	n/a
128.0935	0.105	256187	keystroke_n	n	n/a
128.2435	0.06	256487	keystroke_g	g	n/a
128.574	0.105	257148	keystroke_Key.space	Key.space	n/a
128.754	0.09	257508	keystroke_a	a	n/a
128.829	0.105	257658	keystroke_Key.space	Key.space	n/a
128.964	0.105	257928	keystroke_c	c	n/a
129.099	0.1345	258198	keystroke_a	a	n/a
129.2485	0.075	258497	keystroke_r	r	n/a
129.549	0.06	259098	keystroke_e	e	n/a
130.058	0.09	260116	keystroke_e	e	n/a
130.178	0.106	260356	keystroke_r	r	n/a
130.374	0.105	260748	keystroke_s	s	n/a
130.5385	0.09	261077	keystroke_Key.space	Key.space	n/a
130.7035	0.075	261407	keystroke_c	c	n/a
130.7785	0.15	261557	keystroke_a	a	n/a
130.9135	0.09	261827	keystroke_r	r	n/a
131.0635	0.0905	262127	keystroke_r	r	n/a
131.169	0.105	262338	keystroke_o	o	n/a
131.379	0.089	262758	keystroke_l	l	n/a
131.574	0.105	263148	keystroke_l	l	n/a
131.8585	0.165	263717	keystroke_Key.enter	Key.enter	n/a
132.03	7.014	264060	prompt	n/a	apollo wires hockey province\n
132.7285	0.0595	265457	keystroke_a	a	n/a
132.848	0.1205	265696	keystroke_p	p	n/a
133.118	0.09	266236	keystroke_o	o	n/a
133.3885	0.045	266777	keystroke_l	l	n/a
133.5385	0.06	267077	keystroke_l	l	n/a
133.748	0.075	267496	keystroke_o	o	n/a
134.048	0.0595	268096	keystroke_Key.space	Key.space	n/a
134.2425	0.076	268485	keystroke_w	w	n/a
134.3635	0.06	268727	keystroke_o	o	n/a
134.888	0.09	269776	keystroke_Key.backspace	Key.backspace	n/a
135.098	0.09	270196	keystroke_i	i	n/a
135.203	0.1045	270406	keystroke_r	r	n/a
135.263	0.105	270526	keystroke_e	e	n/a
135.4885	0.1195	270977	keystroke_s	s	n/a
135.938	0.12	271876	keystroke_Key.space	Key.space	n/a
136.1335	0.135	272267	keystroke_h	h	n/a
136.2835	0.1195	272567	keystroke_o	o	n/a
136.523	0.0895	273046	keystroke_c	c	n/a
136.643	0.105	273286	keystroke_k	k	n/a
136.913	0.09	273826	keystroke_e	e	n/a
137.048	0.12	274096	keystroke_y	y	n/a
137.378	0.1195	274756	keystroke_Key.space	Key.space	n/a
137.8125	0.1055	275625	keystroke_p	p	n/a
137.9935	0.0595	275987	keystroke_r	r	n/a
138.068	0.12	276136	keystroke_o	o	n/a
138.278	0.105	276556	keystroke_v	v	n/a
138.413	0.09	276826	keystroke_i	i	n/a
138.563	0.09	277126	keystroke_n	n	n/a
138.668	0.1795	277336	keystroke_c	c	n/a
138.8025	0.09	277605	keystroke_e	e	n/a
138.9075	0.135	277815	keystroke_Key.enter	Key.enter	n/a
139.047	8.442	278094	prompt	n/a	brother mrna mediawiki corrected\n
140.003	0.045	280006	keystroke_b	b	n/a
140.078	0.105	280156	keystroke_r	r	n/a
140.198	0.0895	280396	keystroke_o	o	n/a
140.273	0.0745	280546	keystroke_t	t	n/a
140.4525	0.06	280905	keystroke_h	h	n/a
140.5275	0.12	281055	keystroke_e	e	n/a
140.6025	0.1205	281205	keystroke_r	r	n/a
140.753	0.105	281506	keystroke_Key.space	Key.space	n/a
140.993	0.1045	281986	keystroke_m	m	n/a
141.1275	0.105	282255	keystroke_r	r	n/a
141.3075	0.105	282615	keystroke_n	n	n/a
141.5325	0.09	283065	keystroke_a	a	n/a
141.682	0.12	283364	keystroke_Key.space	Key.space	n/a
142.463	0.0895	284926	keystroke_m	m	n/a
142.5675	0.09	285135	keystroke_e	e	n/a
143.2575	0.1195	286515	keystroke_d	d	n/a
143.407	0.06	286814	keystroke_i	i	n/a
143.497	0.09	286994	keystroke_a	a	n/a
143.647	0.06	287294	keystroke_Key.space	Key.space	n/a
144.0825	0.09	288165	keystroke_Key.backspace	Key.backspace	n/a
144.2475	0.075	288495	keystroke_w	w	n/a
144.3975	0.105	288795	keystroke_i	i	n/a
144.6075	0.135	289215	keystroke_k	k	n/a
144.7875	0.12	289575	keystroke_i	i	n/a
145.0265	0.091	290053	keystroke_Key.space	Key.space	n/a
145.237	0.09	290474	keystroke_c	c	n/a
145.357	0.075	290714	keystroke_o	o	n/a
145.657	0.075	291314	keystroke_r	r	n/a
146.4065	0.105	292813	keystroke_r	r	n/a
146.5425	0.12	293085	keystroke_e	e	n/a
146.7525	0.09	293505	keystroke_c	c	n/a
146.9475	0.0745	293895	keystroke_t	t	n/a
147.082	0.045	294164	keystroke_e	e	n/a
147.217	0.105	294434	keystroke_d	d	n/a
147.352	0.135	294704	keystroke_Key.enter	Key.enter	n/a
147.4915	9.6715	294983	prompt	n/a	vids sites periodic pushing\n
148.7315	0.09	297463	keystroke_v	v	n/a
148.9115	0.061	297823	keystroke_i	i	n/a
149.0325	0.15	298065	keystroke_d	d	n/a
149.1525	0.0745	298305	keystroke_s	s	n/a
149.257	0.075	298514	keystroke_Key.space	Key.space	n/a
149.3915	0.075	298783	keystroke_s	s	n/a
149.5265	0.12	299053	keystroke_i	i	n/a
149.7225	0.104	299445	keystroke_t	t	n/a
149.8125	0.09	299625	keystroke_e	e	n/a
150.0225	0.1045	300045	keystroke_s	s	n/a
150.217	0.09	300434	keystroke_Key.space	Key.space	n/a
150.5165	0.105	301033	keystroke_p	p	n/a
150.6365	0.09	301273	keystroke_e	e	n/a
150.7115	0.0755	301423	keystroke_r	r	n/a
150.8015	0.0745	301603	keystroke_o	o	n/a
151.342	0.0745	302684	keystroke_Key.backspace	Key.backspace	n/a
151.8215	0.0595	303643	keystroke_i	i	n/a
152.181	0.106	304362	keystroke_o	o	n/a
152.392	0.105	304784	keystroke_d	d	n/a
152.677	0.1045	305354	keystroke_i	i	n/a
152.9165	0.1045	305833	keystroke_c	c	n/a
153.066	0.091	306132	keystroke_Key.space	Key.space	n/a
153.201	0.105	306402	keystroke_p	p	n/a
153.5165	0.03	307033	keystroke_i	i	n/a
153.5315	0.03	307063	keystroke_u	u	n/a
154.087	0.059	308174	keystroke_Key.backspace	Key.backspace	n/a
154.207	0.06	308414	keystroke_Key.backspace	Key.backspace	n/a
154.4465	0.06	308893	keystroke_u	u	n/a
154.6415	0.045	309283	keystroke_s	s	n/a
155.751	0.09	311502	keystroke_h	h	n/a
155.916	0.0905	311832	keystroke_i	i	n/a
155.962	0.104	311924	keystroke_n	n	n/a
156.096	0.106	312192	keystroke_g	g	n/a
157.0415	0.119	314083	keystroke_Key.enter	Key.enter	n/a
157.166	7.6465	314332	prompt	n/a	chess spoken looksmart master\n
157.851	0.09	315702	keystroke_c	c	n/a
157.926	0.105	315852	keystroke_h	h	n/a
158.061	0.09	316122	keystroke_e	e	n/a
158.271	0.06	316542	keystroke_s	s	n/a
158.406	0.075	316812	keystroke_s	s	n/a
158.466	0.105	316932	keystroke_Key.space	Key.space	n/a
158.631	0.0745	317262	keystroke_s	s	n/a
158.7205	0.0305	317441	keystroke_p	p	n/a
159.3215	0.045	318643	keystroke_o	o	n/a
160.2665	0.12	320533	keystroke_k	k	n/a
160.4465	0.09	320893	keystroke_e	e	n/a
160.656	0.12	321312	keystroke_n	n	n/a
161.121	0.12	322242	keystroke_Key.space	Key.space	n/a
161.3455	0.0755	322691	keystroke_l	l	n/a
161.541	0.045	323082	keystroke_o	o	n/a
161.691	0.075	323382	keystroke_o	o	n/a
161.931	0.075	323862	keystroke_k	k	n/a
162.1255	0.09	324251	keystroke_s	s	n/a
162.576	0.105	325152	keystroke_m	m	n/a
162.771	0.105	325542	keystroke_a	a	n/a
163.0105	0.135	326021	keystroke_r	r	n/a
163.1155	0.0745	326231	keystroke_t	t	n/a
163.236	0.12	326472	keystroke_Key.space	Key.space	n/a
163.416	0.1045	326832	keystroke_m	m	n/a
163.4905	0.135	326981	keystroke_a	a	n/a
163.6105	0.12	327221	keystroke_s	s	n/a
164.166	0.105	328332	keystroke_t	t	n/a
164.331	0.105	328662	keystroke_e	e	n/a
164.406	0.12	328812	keystroke_r	r	n/a
164.676	0.1345	329352	keystroke_Key.enter	Key.enter	n/a
164.815	11.6215	329630	prompt	n/a	businesses bhutan antique wayne\n
165.621	0.105	331242	keystroke_b	b	n/a
165.711	0.1045	331422	keystroke_u	u	n/a
165.8305	0.09	331661	keystroke_s	s	n/a
166.0555	0.105	332111	keystroke_i	i	n/a
166.1755	0.1055	332351	keystroke_n	n	n/a
166.296	0.09	332592	keystroke_e	e	n/a
166.371	0.075	332742	keystroke_s	s	n/a
166.521	0.0895	333042	keystroke_s	s	n/a
166.8055	0.105	333611	keystroke_e	e	n/a
166.8955	0.12	333791	keystroke_s	s	n/a
167.0755	0.09	334151	keystroke_Key.space	Key.space	n/a
167.9305	0.0895	335861	keystroke_c	c	n/a
168.2905	0.105	336581	keystroke_Key.backspace	Key.backspace	n/a
168.4255	0.09	336851	keystroke_b	b	n/a
168.5755	0.12	337151	keystroke_h	h	n/a
168.6805	0.105	337361	keystroke_u	u	n/a
168.935	0.06	337870	keystroke_t	t	n/a
169.325	0.0905	338650	keystroke_a	a	n/a
169.4605	0.105	338921	keystroke_n	n	n/a
169.715	0.075	339430	keystroke_Key.space	Key.space	n/a
169.9545	0.09	339909	keystroke_a	a	n/a
170.0305	0.105	340061	keystroke_n	n	n/a
170.2255	0.09	340451	keystroke_t	t	n/a
171.1405	0.09	342281	keystroke_i	i	n/a
171.335	0.105	342670	keystroke_q	q	n/a
171.455	0.105	342910	keystroke_u	u	n/a
171.6645	0.06	343329	keystroke_e	e	n/a
172.1005	0.1195	344201	keystroke_Key.space	Key.space	n/a
172.565	0.12	345130	keystroke_w	w	n/a
172.655	0.12	345310	keystroke_a	a	n/a
172.985	0.1345	345970	keystroke_y	y	n/a
173.1795	0.105	346359	keystroke_b	b	n/a
173.3145	0.1055	346629	keystroke_e	e	n/a
173.93	0.1045	347860	keystroke_Key.backspace	Key.backspace	n/a
174.0795	0.045	348159	keystroke_Key.backspace	Key.backspace	n/a
174.2745	0.09	348549	keystroke_m	m	n/a
174.815	0.09	349630	keystroke_Key.backspace	Key.backspace	n/a
175.7895	0.09	351579	keystroke_n	n	n/a
175.9245	0.105	351849	keystroke_e	e	n/a
176.285	0.15	352570	keystroke_Key.enter	Key.enter	n/a
176.441	11.4245	352882	prompt	n/a	represent kinase hundreds calculators\n
177.1695	0.12	354339	keystroke_r	r	n/a
177.2745	0.0905	354549	keystroke_e	e	n/a
177.41	0.089	354820	keystroke_p	p	n/a
177.529	0.12	355058	keystroke_r	r	n/a
177.604	0.09	355208	keystroke_e	e	n/a
177.815	0.1195	355630	keystroke_s	s	n/a
177.9195	0.105	355839	keystroke_e	e	n/a
178.0545	0.12	356109	keystroke_n	n	n/a
178.1595	0.105	356319	keystroke_t	t	n/a
178.384	0.06	356768	keystroke_Key.space	Key.space	n/a
178.8795	0.09	357759	keystroke_k	k	n/a
179.0595	0.105	358119	keystroke_i	i	n/a
179.1795	0.1345	358359	keystroke_a	a	n/a
179.329	0.1055	358658	keystroke_s	s	n/a
179.5245	0.105	359049	keystroke_e	e	n/a
180.154	0.09	360308	keystroke_Key.backspace	Key.backspace	n/a
180.304	0.105	360608	keystroke_Key.backspace	Key.backspace	n/a
180.605	0.09	361210	keystroke_n	n	n/a
180.9195	0.06	361839	keystroke_Key.backspace	Key.backspace	n/a
181.0545	0.06	362109	keystroke_Key.backspace	Key.backspace	n/a
181.2945	0.06	362589	keystroke_n	n	n/a
181.3995	0.15	362799	keystroke_a	a	n/a
181.5045	0.165	363009	keystroke_s	s	n/a
181.7295	0.12	363459	keystroke_e	e	n/a
182.209	0.09	364418	keystroke_Key.space	Key.space	n/a
182.464	0.075	364928	keystroke_h	h	n/a
182.509	0.09	365018	keystroke_u	u	n/a
183.139	0.0905	366278	keystroke_n	n	n/a
183.2745	0.1195	366549	keystroke_d	d	n/a
183.484	0.12	366968	keystroke_r	r	n/a
183.559	0.105	367118	keystroke_e	e	n/a
183.844	0.091	367688	keystroke_d	d	n/a
184.1595	0.06	368319	keystroke_s	s	n/a
184.384	0.09	368768	keystroke_Key.space	Key.space	n/a
184.519	0.12	369038	keystroke_c	c	n/a
184.624	0.105	369248	keystroke_a	a	n/a
184.804	0.12	369608	keystroke_l	l	n/a
185.374	0.12	370748	keystroke_c	c	n/a
185.509	0.075	371018	keystroke_u	u	n/a
185.8085	0.03	371617	keystroke_l	l	n/a
185.8685	0.121	371737	keystroke_a	a	n/a
186.904	0.09	373808	keystroke_t	t	n/a
187.099	0.075	374198	keystroke_o	o	n/a
187.204	0.09	374408	keystroke_r	r	n/a
187.4445	0.12	374889	keystroke_s	s	n/a
187.729	0.135	375458	keystroke_Key.enter	Key.enter	n/a
187.874	7.476	375748	prompt	n/a	killer grave seminars paying\n
188.6735	0.09	377347	keystroke_k	k	n/a
188.8235	0.075	377647	keystroke_i	i	n/a
189.0795	0.03	378159	keystroke_l	l	n/a
189.2145	0.045	378429	keystroke_l	l	n/a
189.3495	0.0595	378699	keystroke_e	e	n/a
189.394	0.09	378788	keystroke_r	r	n/a
189.514	0.09	379028	keystroke_Key.space	Key.space	n/a
189.979	0.09	379958	keystroke_g	g	n/a
190.0845	0.075	380169	keystroke_r	r	n/a
190.2495	0.0895	380499	keystroke_a	a	n/a
190.369	0.165	380738	keystroke_c	c	n/a
190.519	0.075	381038	keystroke_e	e	n/a
191.014	0.06	382028	keystroke_Key.backspace	Key.backspace	n/a
191.149	0.09	382298	keystroke_Key.backspace	Key.backspace	n/a
191.254	0.09	382508	keystroke_v	v	n/a
191.314	0.105	382628	keystroke_e	e	n/a
191.629	0.135	383258	keystroke_Key.space	Key.space	n/a
192.0485	0.06	384097	keystroke_s	s	n/a
192.4385	0.075	384877	keystroke_e	e	n/a
192.7085	0.105	385417	keystroke_m	m	n/a
192.9185	0.0905	385837	keystroke_i	i	n/a
193.204	0.075	386408	keystroke_n	n	n/a
193.3985	0.15	386797	keystroke_a	a	n/a
193.4735	0.12	386947	keystroke_r	r	n/a
194.029	0.075	388058	keystroke_s	s	n/a
194.149	0.105	388298	keystroke_Key.space	Key.space	n/a
194.3585	0.105	388717	keystroke_p	p	n/a
194.4185	0.12	388837	keystroke_a	a	n/a
194.6585	0.09	389317	keystroke_y	y	n/a
194.9135	0.09	389827	keystroke_i	i	n/a
194.9435	0.105	389887	keystroke_n	n	n/a
195.0635	0.075	390127	keystroke_g	g	n/a
195.258	0.0905	390516	keystroke_Key.enter	Key.enter	n/a
195.3525	5.997	390705	prompt	n/a	peers heel lovers stuck\n
196.0085	0.03	392017	keystroke_o	o	n/a
196.098	0.06	392196	keystroke_e	e	n/a
196.413	0.06	392826	keystroke_Key.backspace	Key.backspace	n/a
196.5635	0.06	393127	keystroke_Key.backspace	Key.backspace	n/a
196.6835	0.105	393367	keystroke_p	p	n/a
196.8185	0.0595	393637	keystroke_e	e	n/a
196.968	0.12	393936	keystroke_e	e	n/a
197.089	0.089	394178	keystroke_r	r	n/a
197.298	0.0755	394596	keystroke_s	s	n/a
197.3885	0.105	394777	keystroke_Key.space	Key.space	n/a
197.853	0.075	395706	keystroke_e	e	n/a
198.183	0.075	396366	keystroke_Key.backspace	Key.backspace	n/a
198.4535	0.03	396907	keystroke_h	h	n/a
198.5435	0.045	397087	keystroke_e	e	n/a
198.6935	0.09	397387	keystroke_e	e	n/a
198.7985	0.105	397597	keystroke_l	l	n/a
199.0685	0.09	398137	keystroke_Key.space	Key.space	n/a
199.6235	0.03	399247	keystroke_l	l	n/a
199.7585	0.075	399517	keystroke_o	o	n/a
199.8635	0.0895	399727	keystroke_v	v	n/a
200.058	0.075	400116	keystroke_e	e	n/a
200.118	0.075	400236	keystroke_r	r	n/a
200.268	0.09	400536	keystroke_s	s	n/a
200.373	0.09	400746	keystroke_Key.space	Key.space	n/a
200.508	0.03	401016	keystroke_s	s	n/a
200.613	0.1055	401226	keystroke_t	t	n/a
200.7035	0.0745	401407	keystroke_u	u	n/a
200.853	0.09	401706	keystroke_c	c	n/a
200.928	0.09	401856	keystroke_k	k	n/a
201.243	0.105	402486	keystroke_Key.enter	Key.enter	n/a
201.3525	14.2465	402705	prompt	n/a	who'd've luther ctrl pattern\n
202.1735	0.075	404347	keystroke_w	w	n/a
202.278	0.105	404556	keystroke_h	h	n/a
202.398	0.09	404796	keystroke_o	o	n/a
202.653	0.1195	405306	keystroke_'	'	n/a
202.9075	0.075	405815	keystroke_v	v	n/a
202.9975	0.09	405995	keystroke_e	e	n/a
203.5535	0.06	407107	keystroke_Key.backspace	Key.backspace	n/a
203.703	0.075	407406	keystroke_Key.backspace	Key.backspace	n/a
203.853	0.075	407706	keystroke_Key.backspace	Key.backspace	n/a
204.6625	0.105	409325	keystroke_0	0	n/a
205.2935	0.0745	410587	keystroke_Key.backspace	Key.backspace	n/a
207.303	0.09	414606	keystroke_'	'	n/a
208.1135	0.03	416227	keystroke_d	d	n/a
208.2335	0.0895	416467	keystroke_'	'	n/a
208.428	0.105	416856	keystroke_v	v	n/a
208.518	0.105	417036	keystroke_e	e	n/a
209.133	0.09	418266	keystroke_Key.space	Key.space	n/a
209.4475	0.09	418895	keystroke_l	l	n/a
209.6875	0.09	419375	keystroke_u	u	n/a
209.7925	0.09	419585	keystroke_t	t	n/a
209.9125	0.1205	419825	keystroke_e	e	n/a
210.018	0.09	420036	keystroke_r	r	n/a
210.153	0.0745	420306	keystroke_Key.space	Key.space	n/a
211.038	0.0595	422076	keystroke_Key.backspace	Key.backspace	n/a
211.1875	0.09	422375	keystroke_Key.backspace	Key.backspace	n/a
211.383	0.0595	422766	keystroke_Key.backspace	Key.backspace	n/a
211.638	0.075	423276	keystroke_h	h	n/a
211.803	0.06	423606	keystroke_e	e	n/a
211.848	0.09	423696	keystroke_r	r	n/a
212.0575	0.105	424115	keystroke_Key.space	Key.space	n/a
212.373	0.09	424746	keystroke_c	c	n/a
212.598	0.09	425196	keystroke_t	t	n/a
212.912	0.075	425824	keystroke_r	r	n/a
213.108	0.059	426216	keystroke_i	i	n/a
213.5125	0.075	427025	keystroke_Key.backspace	Key.backspace	n/a
213.7675	0.1195	427535	keystroke_l	l	n/a
214.112	0.09	428224	keystroke_Key.space	Key.space	n/a
214.4725	0.075	428945	keystroke_p	p	n/a
214.5775	0.09	429155	keystroke_a	a	n/a
214.7425	0.06	429485	keystroke_t	t	n/a
214.9075	0.0745	429815	keystroke_t	t	n/a
215.012	0.105	430024	keystroke_e	e	n/a
215.087	0.105	430174	keystroke_r	r	n/a
215.177	0.09	430354	keystroke_n	n	n/a
215.448	0.15	430896	keystroke_Key.enter	Key.enter	n/a
215.609	9.1995	431218	prompt	n/a	signal clusters background senate\n
216.347	0.075	432694	keystroke_s	s	n/a
216.452	0.076	432904	keystroke_i	i	n/a
216.543	0.09	433086	keystroke_g	g	n/a
216.6475	0.075	433295	keystroke_n	n	n/a
216.7375	0.105	433475	keystroke_a	a	n/a
216.8575	0.075	433715	keystroke_;	;	n/a
217.067	0.09	434134	keystroke_Key.space	Key.space	n/a
217.577	0.09	435154	keystroke_Key.backspace	Key.backspace	n/a
217.728	0.06	435456	keystroke_Key.backspace	Key.backspace	n/a
218.628	0.06	437256	keystroke_l	l	n/a
218.8075	0.12	437615	keystroke_Key.space	Key.space	n/a
219.1525	0.12	438305	keystroke_c	c	n/a
219.2575	0.09	438515	keystroke_l	l	n/a
219.4675	0.06	438935	keystroke_u	u	n/a
219.5875	0.075	439175	keystroke_s	s	n/a
219.7975	0.0445	439595	keystroke_t	t	n/a
219.917	0.09	439834	keystroke_e	e	n/a
219.992	0.075	439984	keystroke_r	r	n/a
220.172	0.09	440344	keystroke_s	s	n/a
220.6675	0.135	441335	keystroke_Key.space	Key.space	n/a
221.147	0.075	442294	keystroke_b	b	n/a
221.237	0.165	442474	keystroke_a	a	n/a
221.357	0.105	442714	keystroke_c	c	n/a
221.432	0.0895	442864	keystroke_k	k	n/a
221.8225	0.105	443645	keystroke_g	g	n/a
221.9425	0.105	443885	keystroke_r	r	n/a
222.0925	0.135	444185	keystroke_o	o	n/a
222.1675	0.075	444335	keystroke_u	u	n/a
222.437	0.0905	444874	keystroke_n	n	n/a
222.572	0.075	445144	keystroke_f	f	n/a
223.157	0.105	446314	keystroke_Key.backspace	Key.backspace	n/a
223.217	0.12	446434	keystroke_d	d	n/a
223.6665	0.075	447333	keystroke_Key.space	Key.space	n/a
224.0425	0.075	448085	keystroke_s	s	n/a
224.1475	0.12	448295	keystroke_e	e	n/a
224.2825	0.075	448565	keystroke_n	n	n/a
224.2975	0.09	448595	keystroke_a	a	n/a
224.4475	0.09	448895	keystroke_t	t	n/a
224.5525	0.1045	449105	keystroke_e	e	n/a
224.702	0.105	449404	keystroke_Key.enter	Key.enter	n/a
224.814	9.5345	449628	prompt	n/a	merchant fares perception hunter\n
225.4975	0.09	450995	keystroke_m	m	n/a
225.5725	0.1345	451145	keystroke_e	e	n/a
225.647	0.075	451294	keystroke_r	r	n/a
225.842	0.105	451684	keystroke_c	c	n/a
225.932	0.06	451864	keystroke_h	h	n/a
226.007	0.09	452014	keystroke_a	a	n/a
226.127	0.09	452254	keystroke_n	n	n/a
226.5465	0.09	453093	keystroke_t	t	n/a
226.8015	0.121	453603	keystroke_Key.space	Key.space	n/a
227.282	0.12	454564	keystroke_f	f	n/a
227.357	0.135	454714	keystroke_a	a	n/a
227.552	0.15	455104	keystroke_r	r	n/a
227.672	0.09	455344	keystroke_e	e	n/a
227.882	0.09	455764	keystroke_s	s	n/a
228.017	0.12	456034	keystroke_Key.space	Key.space	n/a
229.187	0.1345	458374	keystroke_p	p	n/a
229.382	0.105	458764	keystroke_e	e	n/a
229.442	0.105	458884	keystroke_r	r	n/a
229.817	0.105	459634	keystroke_c	c	n/a
230.3565	0.105	460713	keystroke_e	e	n/a
230.657	0.105	461314	keystroke_o	o	n/a
231.1215	0.09	462243	keystroke_Key.backspace	Key.backspace	n/a
231.332	0.09	462664	keystroke_p	p	n/a
231.467	0.105	462934	keystroke_t	t	n/a
231.9165	0.1195	463833	keystroke_i	i	n/a
232.187	0.1345	464374	keystroke_o	o	n/a
232.2915	0.135	464583	keystroke_n	n	n/a
232.5915	0.09	465183	keystroke_Key.space	Key.space	n/a
232.831	0.03	465662	keystroke_h	h	n/a
232.847	0.18	465694	keystroke_u	u	n/a
232.981	0.105	465962	keystroke_n	n	n/a
233.161	0.091	466322	keystroke_t	t	n/a
233.327	0.075	466654	keystroke_e	e	n/a
233.387	0.105	466774	keystroke_r	r	n/a
234.1665	0.18	468333	keystroke_Key.enter	Key.enter	n/a
234.355	6.683	468710	prompt	n/a	affairs cuba broken sony\n
235.0665	0.075	470133	keystroke_a	a	n/a
235.4865	0.045	470973	keystroke_f	f	n/a
235.6365	0.06	471273	keystroke_f	f	n/a
235.7265	0.12	471453	keystroke_a	a	n/a
235.8315	0.1045	471663	keystroke_i	i	n/a
235.9515	0.0745	471903	keystroke_r	r	n/a
236.1465	0.105	472293	keystroke_s	s	n/a
236.3715	0.105	472743	keystroke_Key.space	Key.space	n/a
236.6115	0.105	473223	keystroke_c	c	n/a
236.7175	0.074	473435	keystroke_u	u	n/a
236.8815	0.075	473763	keystroke_b	b	n/a
237.0315	0.09	474063	keystroke_a	a	n/a
237.1365	0.0895	474273	keystroke_n	n	n/a
237.362	0.0745	474724	keystroke_Key.space	Key.space	n/a
237.571	0.09	475142	keystroke_b	b	n/a
237.751	0.075	475502	keystroke_r	r	n/a
237.811	0.1205	475622	keystroke_o	o	n/a
238.1865	0.045	476373	keystroke_k	k	n/a
238.441	0.03	476882	keystroke_e	e	n/a
238.516	0.09	477032	keystroke_n	n	n/a
238.831	0.105	477662	keystroke_Key.space	Key.space	n/a
239.011	0.09	478022	keystroke_s	s	n/a
239.162	0.045	478324	keystroke_p	p	n/a
239.192	0.075	478384	keystroke_o	o	n/a
239.761	0.06	479522	keystroke_Key.backspace	Key.backspace	n/a
239.911	0.06	479822	keystroke_Key.backspace	Key.backspace	n/a
240.1965	0.135	480393	keystroke_o	o	n/a
240.3015	0.1195	480603	keystroke_n	n	n/a
240.556	0.105	481112	keystroke_y	y	n/a
240.9315	0.105	481863	keystroke_Key.enter	Key.enter	n/a
241.041	8.7415	482082	prompt	n/a	motivated operated prairie regardless\n
241.846	0.105	483692	keystroke_m	m	n/a
242.041	0.075	484082	keystroke_o	o	n/a
242.326	0.09	484652	keystroke_t	t	n/a
242.461	0.075	484922	keystroke_i	i	n/a
242.641	0.075	485282	keystroke_v	v	n/a
242.7315	0.12	485463	keystroke_a	a	n/a
242.8665	0.104	485733	keystroke_t	t	n/a
243.0165	0.075	486033	keystroke_e	e	n/a
243.1965	0.09	486393	keystroke_d	d	n/a
243.391	0.09	486782	keystroke_Key.space	Key.space	n/a
243.5715	0.09	487143	keystroke_o	o	n/a
244.5155	0.061	489031	keystroke_p	p	n/a
244.6665	0.105	489333	keystroke_e	e	n/a
244.7565	0.105	489513	keystroke_r	r	n/a
245.0415	0.015	490083	keystroke_a	a	n/a
245.071	0.12	490142	keystroke_t	t	n/a
245.206	0.075	490412	keystroke_e	e	n/a
245.401	0.075	490802	keystroke_d	d	n/a
245.6255	0.045	491251	keystroke_Key.space	Key.space	n/a
246.0615	0.045	492123	keystroke_p	p	n/a
246.3165	0.0895	492633	keystroke_r	r	n/a
246.466	0.135	492932	keystroke_a	a	n/a
246.631	0.09	493262	keystroke_i	i	n/a
246.856	0.09	493712	keystroke_r	r	n/a
247.0515	0.06	494103	keystroke_i	i	n/a
247.1565	0.09	494313	keystroke_e	e	n/a
247.651	0.105	495302	keystroke_Key.space	Key.space	n/a
248.0705	0.105	496141	keystroke_r	r	n/a
248.1305	0.105	496261	keystroke_e	e	n/a
248.3265	0.1345	496653	keystroke_a	a	n/a
248.506	0.135	497012	keystroke_g	g	n/a
248.746	0.1045	497492	keystroke_r	r	n/a
248.9255	0.09	497851	keystroke_d	d	n/a
249.0615	0.089	498123	keystroke_l	l	n/a
249.1655	0.106	498331	keystroke_e	e	n/a
249.3905	0.061	498781	keystroke_s	s	n/a
249.5415	0.075	499083	keystroke_s	s	n/a
249.646	0.135	499292	keystroke_Key.enter	Key.enter	n/a
249.7855	11.457	499571	prompt	n/a	count davis computer lifestyle\n
250.726	0.105	501452	keystroke_c	c	n/a
250.846	0.165	501692	keystroke_o	o	n/a
250.936	0.09	501872	keystroke_u	u	n/a
251.1755	0.075	502351	keystroke_n	n	n/a
251.356	0.0745	502712	keystroke_t	t	n/a
251.4755	0.075	502951	keystroke_Key.space	Key.space	n/a
251.6405	0.105	503281	keystroke_d	d	n/a
251.7155	0.105	503431	keystroke_a	a	n/a
251.9705	0.076	503941	keystroke_v	v	n/a
252.091	0.075	504182	keystroke_i	i	n/a
252.241	0.105	504482	keystroke_d	d	n/a
252.421	0.105	504842	keystroke_Key.space	Key.space	n/a
252.721	0.075	505442	keystroke_c	c	n/a
253.0355	0.06	506071	keystroke_Key.backspace	Key.backspace	n/a
253.1855	0.06	506371	keystroke_Key.backspace	Key.backspace	n/a
253.4105	0.06	506821	keystroke_s	s	n/a
253.6955	0.1055	507391	keystroke_Key.backspace	Key.backspace	n/a
253.861	0.06	507722	keystroke_Key.backspace	Key.backspace	n/a
253.951	0.09	507902	keystroke_s	s	n/a
254.101	0.12	508202	keystroke_Key.space	Key.space	n/a
254.2505	0.12	508501	keystroke_c	c	n/a
254.3555	0.105	508711	keystroke_o	o	n/a
254.4755	0.105	508951	keystroke_m	m	n/a
254.7155	0.045	509431	keystroke_[	[	n/a
255.226	0.0895	510452	keystroke_Key.backspace	Key.backspace	n/a
255.586	0.045	511172	keystroke_p	p	n/a
255.976	0.075	511952	keystroke_u	u	n/a
256.156	0.06	512312	keystroke_t	t	n/a
256.381	0.0895	512762	keystroke_e	e	n/a
256.4255	0.136	512851	keystroke_r	r	n/a
256.605	0.105	513210	keystroke_Key.space	Key.space	n/a
256.816	0.105	513632	keystroke_l	l	n/a
257.041	0.075	514082	keystroke_u	u	n/a
257.281	0.09	514562	keystroke_p	p	n/a
257.626	0.06	515252	keystroke_Key.backspace	Key.backspace	n/a
257.7455	0.075	515491	keystroke_Key.backspace	Key.backspace	n/a
257.986	0.09	515972	keystroke_u	u	n/a
258.091	0.165	516182	keystroke_f	f	n/a
258.241	0.09	516482	keystroke_e	e	n/a
258.481	0.075	516962	keystroke_Key.backspace	Key.backspace	n/a
258.6305	0.06	517261	keystroke_Key.backspace	Key.backspace	n/a
258.7655	0.06	517531	keystroke_Key.backspace	Key.backspace	n/a
258.9455	0.09	517891	keystroke_i	i	n/a
259.0365	0.119	518073	keystroke_f	f	n/a
259.1105	0.135	518221	keystroke_e	e	n/a
259.651	0.09	519302	keystroke_s	s	n/a
259.831	0.12	519662	keystroke_t	t	n/a
260.3555	0.09	520711	keystroke_y	y	n/a
260.5505	0.0895	521101	keystroke_l	l	n/a
260.686	0.105	521372	keystroke_e	e	n/a
261.1355	0.105	522271	keystroke_Key.enter	Key.enter	n/a
261.2495	8.6925	522499	prompt	n/a	without citations racing nissan\n
261.961	0.06	523922	keystroke_w	w	n/a
262.3355	0.09	524671	keystroke_u	u	n/a
262.4405	0.12	524881	keystroke_t	t	n/a
262.5455	0.105	525091	keystroke_h	h	n/a
262.9655	0.0595	525931	keystroke_Key.backspace	Key.backspace	n/a
263.1	0.075	526200	keystroke_Key.backspace	Key.backspace	n/a
263.25	0.0755	526500	keystroke_Key.backspace	Key.backspace	n/a
263.4305	0.09	526861	keystroke_i	i	n/a
263.5655	0.09	527131	keystroke_t	t	n/a
263.6855	0.075	527371	keystroke_h	h	n/a
263.8805	0.1795	527761	keystroke_o	o	n/a
263.9555	0.1195	527911	keystroke_u	u	n/a
264.15	0.105	528300	keystroke_t	t	n/a
264.555	0.075	529110	keystroke_Key.space	Key.space	n/a
265.425	0.12	530850	keystroke_c	c	n/a
265.56	0.075	531120	keystroke_i	i	n/a
265.665	0.09	531330	keystroke_t	t	n/a
265.816	0.089	531632	keystroke_a	a	n/a
265.936	0.1035	531872	keystroke_t	t	n/a
266.085	0.105	532170	keystroke_i	i	n/a
266.265	0.1505	532530	keystroke_o	o	n/a
266.3705	0.12	532741	keystroke_n	n	n/a
266.5055	0.12	533011	keystroke_s	s	n/a
266.9855	0.105	533971	keystroke_Key.space	Key.space	n/a
267.4355	0.09	534871	keystroke_r	r	n/a
267.5705	0.09	535141	keystroke_a	a	n/a
267.7355	0.1195	535471	keystroke_c	c	n/a
267.975	0.075	535950	keystroke_i	i	n/a
267.99	0.12	535980	keystroke_n	n	n/a
268.155	0.075	536310	keystroke_g	g	n/a
268.35	0.106	536700	keystroke_Key.space	Key.space	n/a
268.6355	0.075	537271	keystroke_n	n	n/a
268.9505	0.075	537901	keystroke_i	i	n/a
269.1605	0.06	538321	keystroke_s	s	n/a
269.3255	0.075	538651	keystroke_s	s	n/a
269.4155	0.09	538831	keystroke_a	a	n/a
269.5355	0.075	539071	keystroke_n	n	n/a
269.835	0.1055	539670	keystroke_Key.enter	Key.enter	n/a
269.9465	13.405	539893	prompt	n/a	gotten efficiency philippines ericsson\n
270.855	0.06	541710	keystroke_g	g	n/a
270.93	0.09	541860	keystroke_o	o	n/a
271.05	0.06	542100	keystroke_t	t	n/a
271.185	0.09	542370	keystroke_t	t	n/a
271.3205	0.09	542641	keystroke_e	e	n/a
271.3955	0.1045	542791	keystroke_n	n	n/a
271.62	0.045	543240	keystroke_Key.space	Key.space	n/a
271.695	0.0905	543390	keystroke_e	e	n/a
271.9055	0.09	543811	keystroke_f	f	n/a
272.1005	0.0745	544201	keystroke_f	f	n/a
272.58	0.105	545160	keystroke_i	i	n/a
273.075	0.15	546150	keystroke_e	e	n/a
273.945	0.075	547890	keystroke_Key.backspace	Key.backspace	n/a
274.155	0.1045	548310	keystroke_c	c	n/a
274.2895	0.09	548579	keystroke_i	i	n/a
274.4695	0.09	548939	keystroke_e	e	n/a
274.5745	0.09	549149	keystroke_n	n	n/a
274.7255	0.104	549451	keystroke_t	t	n/a
275.085	0.075	550170	keystroke_Key.backspace	Key.backspace	n/a
275.205	0.09	550410	keystroke_c	c	n/a
275.34	0.12	550680	keystroke_y	y	n/a
275.865	0.09	551730	keystroke_Key.space	Key.space	n/a
276.225	0.0895	552450	keystroke_p	p	n/a
276.4195	0.075	552839	keystroke_h	h	n/a
276.9155	0.075	553831	keystroke_i	i	n/a
277.185	0.045	554370	keystroke_l	l	n/a
277.3045	0.06	554609	keystroke_l	l	n/a
277.4705	0.074	554941	keystroke_i	i	n/a
277.6955	0.075	555391	keystroke_p	p	n/a
278.6245	0.151	557249	keystroke_i	i	n/a
278.7305	0.105	557461	keystroke_n	n	n/a
278.8505	0.09	557701	keystroke_e	e	n/a
279.15	0.09	558300	keystroke_s	s	n/a
279.4045	0.09	558809	keystroke_Key.space	Key.space	n/a
279.6745	0.12	559349	keystroke_e	e	n/a
279.9155	0.074	559831	keystroke_r	r	n/a
280.77	0.045	561540	keystroke_u	u	n/a
281.385	0.0895	562770	keystroke_Key.backspace	Key.backspace	n/a
281.5945	0.075	563189	keystroke_i	i	n/a
281.6995	0.135	563399	keystroke_c	c	n/a
282.555	0.075	565110	keystroke_s	s	n/a
282.735	0.06	565470	keystroke_s	s	n/a
282.81	0.135	565620	keystroke_o	o	n/a
282.885	0.12	565770	keystroke_n	n	n/a
283.2295	0.12	566459	keystroke_Key.enter	Key.enter	n/a
283.3605	10.2655	566721	prompt	n/a	avoiding societies wealth communities\n
284.37	0.075	568740	keystroke_a	a	n/a
284.52	0.12	569040	keystroke_v	v	n/a
284.655	0.1945	569310	keystroke_o	o	n/a
284.8195	0.105	569639	keystroke_i	i	n/a
285.0145	0.105	570029	keystroke_d	d	n/a
285.1345	0.105	570269	keystroke_i	i	n/a
285.1795	0.1205	570359	keystroke_n	n	n/a
285.33	0.09	570660	keystroke_g	g	n/a
285.465	0.09	570930	keystroke_Key.space	Key.space	n/a
285.5995	0.09	571199	keystroke_s	s	n/a
285.7795	0.105	571559	keystroke_o	o	n/a
286.0045	0.09	572009	keystroke_c	c	n/a
286.1095	0.12	572219	keystroke_i	i	n/a
286.3645	0.1205	572729	keystroke_e	e	n/a
286.71	0.09	573420	keystroke_t	t	n/a
286.875	0.09	573750	keystroke_i	i	n/a
287.055	0.09	574110	keystroke_e	e	n/a
287.31	0.0595	574620	keystroke_s	s	n/a
287.865	0.075	575730	keystroke_Key.space	Key.space	n/a
288.105	0.24	576210	keystroke_w	w	n/a
288.3	0.135	576600	keystroke_a	a	n/a
288.6895	0.105	577379	keystroke_Key.backspace	Key.backspace	n/a
288.8095	0.09	577619	keystroke_e	e	n/a
289.0495	0.075	578099	keystroke_a	a	n/a
289.1695	0.135	578339	keystroke_l	l	n/a
289.364	0.075	578728	keystroke_t	t	n/a
289.484	0.105	578968	keystroke_h	h	n/a
289.709	0.091	579418	keystroke_Key.space	Key.space	n/a
289.875	0.105	579750	keystroke_c	c	n/a
289.995	0.105	579990	keystroke_o	o	n/a
290.19	0.06	580380	keystroke_m	m	n/a
290.3395	0.06	580679	keystroke_m	m	n/a
290.4895	0.1045	580979	keystroke_u	u	n/a
290.5645	0.1045	581129	keystroke_n	n	n/a
290.729	0.076	581458	keystroke_i	i	n/a
290.865	0.105	581730	keystroke_t	t	n/a
291.015	0.105	582030	keystroke_u	u	n/a
291.2395	0.09	582479	keystroke_e	e	n/a
291.449	0.06	582898	keystroke_s	s	n/a
291.644	0.045	583288	keystroke_=	=	n/a
291.809	0.045	583618	keystroke_Key.backspace	Key.backspace	n/a
291.959	0.076	583918	keystroke_Key.backspace	Key.backspace	n/a
292.125	0.06	584250	keystroke_Key.backspace	Key.backspace	n/a
292.32	0.09	584640	keystroke_i	i	n/a
292.6945	0.045	585389	keystroke_Key.backspace	Key.backspace	n/a
292.8295	0.06	585659	keystroke_Key.backspace	Key.backspace	n/a
293.0245	0.075	586049	keystroke_i	i	n/a
293.2195	0.03	586439	keystroke_e	e	n/a
293.2345	0.1355	586469	keystroke_s	s	n/a
293.5195	0.105	587039	keystroke_Key.enter	Key.enter	n/a
293.629	8.832	587258	prompt	n/a	components rated fear symbols\n
294.374	0.12	588748	keystroke_c	c	n/a
294.509	0.135	589018	keystroke_o	o	n/a
294.629	0.1055	589258	keystroke_m	m	n/a
294.7945	0.09	589589	keystroke_p	p	n/a
295.484	0.075	590968	keystroke_o	o	n/a
295.77	0.105	591540	keystroke_n	n	n/a
296.0695	0.105	592139	keystroke_e	e	n/a
296.2195	0.09	592439	keystroke_n	n	n/a
296.3695	0.105	592739	keystroke_t	t	n/a
297.239	0.09	594478	keystroke_s	s	n/a
297.419	0.075	594838	keystroke_Key.space	Key.space	n/a
297.8995	0.105	595799	keystroke_r	r	n/a
298.0185	0.091	596037	keystroke_a	a	n/a
298.2145	0.105	596429	keystroke_t	t	n/a
298.3045	0.105	596609	keystroke_e	e	n/a
298.5745	0.12	597149	keystroke_d	d	n/a
298.7695	0.12	597539	keystroke_Key.space	Key.space	n/a
298.9045	0.1195	597809	keystroke_r	r	n/a
298.994	0.1205	597988	keystroke_e	e	n/a
299.294	0.075	598588	keystroke_Key.backspace	Key.backspace	n/a
299.459	0.09	598918	keystroke_Key.backspace	Key.backspace	n/a
299.474	0.135	598948	keystroke_f	f	n/a
299.61	0.119	599220	keystroke_e	e	n/a
299.759	0.165	599518	keystroke_a	a	n/a
299.879	0.135	599758	keystroke_r	r	n/a
300.0735	0.12	600147	keystroke_Key.space	Key.space	n/a
300.3745	0.12	600749	keystroke_s	s	n/a
300.5545	0.12	601109	keystroke_y	y	n/a
301.064	0.075	602128	keystroke_m	m	n/a
301.304	0.075	602608	keystroke_b	b	n/a
301.4995	0.075	602999	keystroke_o	o	n/a
301.8595	0.105	603719	keystroke_l	l	n/a
302.099	0.09	604198	keystroke_s	s	n/a
302.324	0.135	604648	keystroke_Key.enter	Key.enter	n/a
302.4645	7.136	604929	prompt	n/a	dodge bush connector hired\n
303.374	0.075	606748	keystroke_d	d	n/a
303.434	0.106	606868	keystroke_o	o	n/a
304.035	0.044	608070	keystroke_d	d	n/a
304.1085	0.076	608217	keystroke_g	g	n/a
304.259	0.09	608518	keystroke_e	e	n/a
304.394	0.09	608788	keystroke_Key.space	Key.space	n/a
304.559	0.09	609118	keystroke_b	b	n/a
304.664	0.105	609328	keystroke_u	u	n/a
304.784	0.09	609568	keystroke_s	s	n/a
305.2195	0.1195	610439	keystroke_h	h	n/a
305.519	0.09	611038	keystroke_Key.space	Key.space	n/a
305.654	0.09	611308	keystroke_c	c	n/a
305.759	0.105	611518	keystroke_o	o	n/a
305.9245	0.06	611849	keystroke_n	n	n/a
306.0145	0.1195	612029	keystroke_n	n	n/a
306.434	0.12	612868	keystroke_e	e	n/a
306.584	0.12	613168	keystroke_c	c	n/a
306.794	0.075	613588	keystroke_t	t	n/a
306.884	0.09	613768	keystroke_o	o	n/a
307.0185	0.091	614037	keystroke_r	r	n/a
307.2595	0.1045	614519	keystroke_Key.space	Key.space	n/a
307.529	0.12	615058	keystroke_h	h	n/a
307.829	0.015	615658	keystroke_u	u	n/a
307.8735	0.105	615747	keystroke_r	r	n/a
307.9635	0.0905	615927	keystroke_e	e	n/a
308.354	0.06	616708	keystroke_Key.backspace	Key.backspace	n/a
308.519	0.06	617038	keystroke_Key.backspace	Key.backspace	n/a
308.669	0.075	617338	keystroke_Key.backspace	Key.backspace	n/a
308.8785	0.075	617757	keystroke_i	i	n/a
309.0435	0.121	618087	keystroke_r	r	n/a
309.1195	0.105	618239	keystroke_e	e	n/a
309.3285	0.121	618657	keystroke_d	d	n/a
309.4795	0.12	618959	keystroke_Key.enter	Key.enter	n/a
309.6105	9.875	619221	prompt	n/a	intended graduated sync understand\n
310.6785	0.135	621357	keystroke_i	i	n/a
310.7535	0.15	621507	keystroke_n	n	n/a
310.8885	0.09	621777	keystroke_t	t	n/a
310.9945	0.104	621989	keystroke_e	e	n/a
311.0845	0.104	622169	keystroke_n	n	n/a
311.2335	0.1205	622467	keystroke_d	d	n/a
311.309	0.12	622618	keystroke_e	e	n/a
311.474	0.12	622948	keystroke_d	d	n/a
311.549	0.0895	623098	keystroke_e	e	n/a
311.6835	0.09	623367	keystroke_Key.space	Key.space	n/a
312.2085	0.076	624417	keystroke_Key.backspace	Key.backspace	n/a
312.3735	0.076	624747	keystroke_Key.backspace	Key.backspace	n/a
312.599	0.0895	625198	keystroke_Key.space	Key.space	n/a
313.109	0.135	626218	keystroke_g	g	n/a
313.214	0.105	626428	keystroke_r	r	n/a
313.4085	0.12	626817	keystroke_a	a	n/a
313.5135	0.105	627027	keystroke_d	d	n/a
314.759	0.105	629518	keystroke_u	u	n/a
314.909	0.015	629818	keystroke_a	a	n/a
314.954	0.105	629908	keystroke_t	t	n/a
315.044	0.1205	630088	keystroke_e	e	n/a
315.4035	0.12	630807	keystroke_d	d	n/a
315.5685	0.12	631137	keystroke_Key.space	Key.space	n/a
315.8845	0.075	631769	keystroke_s	s	n/a
315.9745	0.045	631949	keystroke_u	u	n/a
316.4845	0.075	632969	keystroke_Key.backspace	Key.backspace	n/a
316.799	0.09	633598	keystroke_y	y	n/a
316.979	0.12	633958	keystroke_n	n	n/a
317.174	0.075	634348	keystroke_c	c	n/a
317.3385	0.076	634677	keystroke_Key.space	Key.space	n/a
317.999	0.12	635998	keystroke_u	u	n/a
318.089	0.09	636178	keystroke_n	n	n/a
318.149	0.12	636298	keystroke_d	d	n/a
318.314	0.12	636628	keystroke_e	e	n/a
318.389	0.09	636778	keystroke_r	r	n/a
318.539	0.09	637078	keystroke_s	s	n/a
318.689	0.09	637378	keystroke_t	t	n/a
318.794	0.105	637588	keystroke_a	a	n/a
318.9	0.104	637800	keystroke_n	n	n/a
319.005	0.1035	638010	keystroke_d	d	n/a
319.3635	0.12	638727	keystroke_Key.enter	Key.enter	n/a
319.488	5.877	638976	prompt	n/a	button flash creatures mesh\n
320.279	0.06	640558	keystroke_b	b	n/a
320.414	0.09	640828	keystroke_u	u	n/a
320.549	0.09	641098	keystroke_t	t	n/a
320.729	0.075	641458	keystroke_t	t	n/a
320.819	0.135	641638	keystroke_o	o	n/a
320.939	0.1045	641878	keystroke_n	n	n/a
321.1935	0.06	642387	keystroke_Key.space	Key.space	n/a
321.7785	0.09	643557	keystroke_f	f	n/a
321.8835	0.0905	643767	keystroke_l	l	n/a
322.004	0.12	644008	keystroke_a	a	n/a
322.094	0.12	644188	keystroke_s	s	n/a
322.259	0.075	644518	keystroke_h	h	n/a
322.454	0.075	644908	keystroke_Key.space	Key.space	n/a
322.6785	0.105	645357	keystroke_c	c	n/a
322.9035	0.09	645807	keystroke_r	r	n/a
322.9485	0.09	645897	keystroke_e	e	n/a
323.0535	0.09	646107	keystroke_a	a	n/a
323.2035	0.09	646407	keystroke_t	t	n/a
323.3835	0.09	646767	keystroke_u	u	n/a
323.578	0.105	647156	keystroke_r	r	n/a
323.653	0.09	647306	keystroke_e	e	n/a
323.879	0.09	647758	keystroke_s	s	n/a
323.984	0.12	647968	keystroke_Key.space	Key.space	n/a
324.239	0.1045	648478	keystroke_m	m	n/a
324.3735	0.105	648747	keystroke_e	e	n/a
324.5835	0.09	649167	keystroke_s	s	n/a
324.6885	0.09	649377	keystroke_h	h	n/a
325.2285	0.1345	650457	keystroke_Key.enter	Key.enter	n/a
325.3755	6.0495	650751	prompt	n/a	any fork images spray\n
326.009	0.105	652018	keystroke_a	a	n/a
326.159	0.075	652318	keystroke_n	n	n/a
326.339	0.0745	652678	keystroke_y	y	n/a
326.5485	0.06	653097	keystroke_Key.space	Key.space	n/a
326.6985	0.015	653397	keystroke_f	f	n/a
326.7435	0.075	653487	keystroke_o	o	n/a
327.3885	0.105	654777	keystroke_r	r	n/a
327.5235	0.105	655047	keystroke_k	k	n/a
327.8235	0.06	655647	keystroke_Key.space	Key.space	n/a
328.0335	0.12	656067	keystroke_i	i	n/a
328.1385	0.1045	656277	keystroke_m	m	n/a
328.2585	0.0295	656517	keystroke_a	a	n/a
328.438	0.075	656876	keystroke_g	g	n/a
328.589	0.06	657178	keystroke_e	e	n/a
328.769	0.12	657538	keystroke_s	s	n/a
328.934	0.135	657868	keystroke_Key.space	Key.space	n/a
329.3085	0.075	658617	keystroke_s	s	n/a
329.4285	0.105	658857	keystroke_p	p	n/a
329.684	0.074	659368	keystroke_r	r	n/a
329.894	0.075	659788	keystroke_a	a	n/a
330.1635	0.1045	660327	keystroke_y	y	n/a
331.2885	0.135	662577	keystroke_Key.enter	Key.enter	n/a
331.4285	11.2915	662857	prompt	n/a	hero exceptional born telecom\n
332.353	0.046	664706	keystroke_h	h	n/a
332.413	0.09	664826	keystroke_e	e	n/a
332.474	0.105	664948	keystroke_r	r	n/a
332.594	0.12	665188	keystroke_o	o	n/a
332.8185	0.06	665637	keystroke_Key.space	Key.space	n/a
332.9235	0.075	665847	keystroke_e	e	n/a
333.1185	0.105	666237	keystroke_x	x	n/a
333.5535	0.12	667107	keystroke_e	e	n/a
335.173	0.1055	670346	keystroke_Key.backspace	Key.backspace	n/a
335.6385	0.015	671277	keystroke_c	c	n/a
336.1785	0.105	672357	keystroke_e	e	n/a
336.568	0.105	673136	keystroke_p	p	n/a
336.793	0.075	673586	keystroke_t	t	n/a
336.9135	0.135	673827	keystroke_i	i	n/a
337.1385	0.135	674277	keystroke_o	o	n/a
337.2285	0.12	674457	keystroke_n	n	n/a
337.453	0.105	674906	keystroke_a	a	n/a
337.543	0.075	675086	keystroke_;	;	n/a
338.5785	0.09	677157	keystroke_Key.backspace	Key.backspace	n/a
338.893	0.06	677786	keystroke_l	l	n/a
338.908	0.06	677816	keystroke_;	;	n/a
339.4485	0.105	678897	keystroke_Key.backspace	Key.backspace	n/a
339.7185	0.135	679437	keystroke_Key.space	Key.space	n/a
339.8835	0.135	679767	keystroke_b	b	n/a
340.0335	0.09	680067	keystroke_o	o	n/a
340.258	0.075	680516	keystroke_r	r	n/a
340.393	0.105	680786	keystroke_n	n	n/a
340.648	0.075	681296	keystroke_Key.space	Key.space	n/a
340.948	0.09	681896	keystroke_t	t	n/a
341.128	0.06	682256	keystroke_e	e	n/a
341.218	0.091	682436	keystroke_l	l	n/a
341.324	0.1195	682648	keystroke_e	e	n/a
341.5635	0.09	683127	keystroke_c	c	n/a
341.6985	0.165	683397	keystroke_o	o	n/a
342.0885	0.09	684177	keystroke_m	m	n/a
342.6735	0.045	685347	keystroke_Key.enter	Key.enter	n/a
342.7235	7.6165	685447	prompt	n/a	promising opening strength sticker\n
343.633	0.075	687266	keystroke_p	p	n/a
343.798	0.09	687596	keystroke_r	r	n/a
343.918	0.12	687836	keystroke_o	o	n/a
344.128	0.091	688256	keystroke_m	m	n/a
344.2785	0.075	688557	keystroke_i	i	n/a
344.3985	0.09	688797	keystroke_s	s	n/a
344.4885	0.09	688977	keystroke_i	i	n/a
344.5485	0.12	689097	keystroke_n	n	n/a
344.6985	0.09	689397	keystroke_g	g	n/a
344.8485	0.06	689697	keystroke_Key.space	Key.space	n/a
345.0735	0.1195	690147	keystroke_o	o	n/a
345.2685	0.09	690537	keystroke_p	p	n/a
345.4335	0.09	690867	keystroke_e	e	n/a
345.5685	0.06	691137	keystroke_n	n	n/a
346.3035	0.105	692607	keystroke_i	i	n/a
346.3335	0.135	692667	keystroke_n	n	n/a
346.4835	0.09	692967	keystroke_g	g	n/a
346.618	0.09	693236	keystroke_Key.space	Key.space	n/a
346.813	0.075	693626	keystroke_s	s	n/a
346.978	0.12	693956	keystroke_t	t	n/a
347.038	0.12	694076	keystroke_r	r	n/a
347.248	0.09	694496	keystroke_e	e	n/a
347.398	0.0755	694796	keystroke_n	n	n/a
347.7885	0.09	695577	keystroke_g	g	n/a
348.0285	0.075	696057	keystroke_t	t	n/a
348.1185	0.075	696237	keystroke_h	h	n/a
348.2985	0.075	696597	keystroke_Key.space	Key.space	n/a
348.4185	0.0595	696837	keystroke_s	s	n/a
348.583	0.09	697166	keystroke_t	t	n/a
349.213	0.106	698426	keystroke_i	i	n/a
349.5435	0.12	699087	keystroke_c	c	n/a
349.7685	0.12	699537	keystroke_k	k	n/a
349.9485	0.105	699897	keystroke_e	e	n/a
350.0085	0.105	700017	keystroke_r	r	n/a
350.278	0.06	700556	keystroke_Key.enter	Key.enter	n/a
350.3425	11.817	700685	prompt	n/a	compaq rome people closing\n
351.3435	0.075	702687	keystroke_c	c	n/a
351.5235	0.09	703047	keystroke_o	o	n/a
351.5835	0.09	703167	keystroke_m	m	n/a
351.8085	0.045	703617	keystroke_[	[	n/a
352.438	0.045	704876	keystroke_Key.backspace	Key.backspace	n/a
352.753	0.09	705506	keystroke_Key.backspace	Key.backspace	n/a
353.4125	0.106	706825	keystroke_m	m	n/a
353.6685	0.09	707337	keystroke_p	p	n/a
353.9385	0.045	707877	keystroke_a	a	n/a
354.793	0.09	709586	keystroke_q	q	n/a
355.6485	0.075	711297	keystroke_Key.space	Key.space	n/a
355.8585	0.12	711717	keystroke_r	r	n/a
355.9335	0.1645	711867	keystroke_o	o	n/a
356.0535	0.1195	712107	keystroke_m	m	n/a
356.353	0.09	712706	keystroke_e	e	n/a
356.518	0.105	713036	keystroke_Key.space	Key.space	n/a
356.743	0.09	713486	keystroke_p	p	n/a
356.803	0.135	713606	keystroke_e	e	n/a
356.953	0.12	713906	keystroke_p	p	n/a
357.6425	0.09	715285	keystroke_Key.backspace	Key.backspace	n/a
357.9585	0.09	715917	keystroke_p	p	n/a
358.483	0.1045	716966	keystroke_Key.backspace	Key.backspace	n/a
358.7825	0.105	717565	keystroke_o	o	n/a
358.8725	0.165	717745	keystroke_p	p	n/a
358.9935	0.105	717987	keystroke_l	l	n/a
359.1285	0.1195	718257	keystroke_e	e	n/a
359.533	0.09	719066	keystroke_Key.space	Key.space	n/a
359.8625	0.135	719725	keystroke_c	c	n/a
360.1635	0.105	720327	keystroke_l	l	n/a
360.3585	0.12	720717	keystroke_o	o	n/a
360.4935	0.1345	720987	keystroke_s	s	n/a
360.793	0.12	721586	keystroke_n	n	n/a
361.213	0.0755	722426	keystroke_Key.backspace	Key.backspace	n/a
361.528	0.15	723056	keystroke_i	i	n/a
361.603	0.105	723206	keystroke_n	n	n/a
361.768	0.0745	723536	keystroke_g	g	n/a
362.0675	0.09	724135	keystroke_Key.enter	Key.enter	n/a
362.164	10.752	724328	prompt	n/a	firmware secret signature horrible\n
362.9375	0.06	725875	keystroke_f	f	n/a
362.9825	0.105	725965	keystroke_i	i	n/a
363.1175	0.105	726235	keystroke_r	r	n/a
363.2385	0.105	726477	keystroke_m	m	n/a
363.7035	0.1195	727407	keystroke_w	w	n/a
363.793	0.18	727586	keystroke_a	a	n/a
364.078	0.0605	728156	keystroke_r	r	n/a
364.618	0.12	729236	keystroke_e	e	n/a
364.843	0.105	729686	keystroke_Key.space	Key.space	n/a
365.0675	0.06	730135	keystroke_s	s	n/a
365.2625	0.105	730525	keystroke_e	e	n/a
365.593	0.105	731186	keystroke_c	c	n/a
365.848	0.1195	731696	keystroke_r	r	n/a
365.938	0.1045	731876	keystroke_e	e	n/a
366.1475	0.12	732295	keystroke_t	t	n/a
366.5675	0.121	733135	keystroke_Key.space	Key.space	n/a
367.1225	0.106	734245	keystroke_s	s	n/a
367.2885	0.075	734577	keystroke_i	i	n/a
367.4685	0.0895	734937	keystroke_g	g	n/a
367.9185	0.09	735837	keystroke_n	n	n/a
368.098	0.0895	736196	keystroke_a	a	n/a
368.308	0.1045	736616	keystroke_t	t	n/a
368.5175	0.075	737035	keystroke_u	u	n/a
368.6375	0.105	737275	keystroke_r	r	n/a
368.6975	0.105	737395	keystroke_e	e	n/a
368.9975	0.105	737995	keystroke_Key.space	Key.space	n/a
369.388	0.09	738776	keystroke_b	b	n/a
369.6725	0.105	739345	keystroke_o	o	n/a
370.0775	0.046	740155	keystroke_Key.backspace	Key.backspace	n/a
370.2135	0.1045	740427	keystroke_Key.backspace	Key.backspace	n/a
370.963	0.09	741926	keystroke_h	h	n/a
371.068	0.09	742136	keystroke_o	o	n/a
371.3525	0.045	742705	keystroke_r	r	n/a
371.4725	0.12	742945	keystroke_r	r	n/a
371.7125	0.105	743425	keystroke_i	i	n/a
371.8775	0.091	743755	keystroke_b	b	n/a
372.2525	0.1205	744505	keystroke_l	l	n/a
372.448	0.105	744896	keystroke_e	e	n/a
372.778	0.1345	745556	keystroke_Key.enter	Key.enter	n/a
372.9195	6.25	745839	prompt	n/a	stress overseas compaq mass\n
373.6025	0.1055	747205	keystroke_s	s	n/a
373.8125	0.12	747625	keystroke_t	t	n/a
373.8725	0.105	747745	keystroke_r	r	n/a
374.0825	0.09	748165	keystroke_e	e	n/a
374.2925	0.03	748585	keystroke_s	s	n/a
374.4275	0.06	748855	keystroke_s	s	n/a
374.4885	0.1345	748977	keystroke_Key.space	Key.space	n/a
374.638	0.06	749276	keystroke_o	o	n/a
374.743	0.105	749486	keystroke_v	v	n/a
375.013	0.0895	750026	keystroke_e	e	n/a
375.0725	0.09	750145	keystroke_r	r	n/a
375.3425	0.105	750685	keystroke_s	s	n/a
375.4625	0.106	750925	keystroke_e	e	n/a
375.5835	0.1185	751167	keystroke_a	a	n/a
375.688	0.135	751376	keystroke_s	s	n/a
375.988	0.105	751976	keystroke_Key.space	Key.space	n/a
376.258	0.12	752516	keystroke_c	c	n/a
376.393	0.135	752786	keystroke_o	o	n/a
376.513	0.1345	753026	keystroke_m	m	n/a
376.8425	0.09	753685	keystroke_p	p	n/a
377.0525	0.105	754105	keystroke_a	a	n/a
377.953	0.1045	755906	keystroke_q	q	n/a
378.2225	0.105	756445	keystroke_Key.space	Key.space	n/a
378.4925	0.12	756985	keystroke_m	m	n/a
378.5975	0.12	757195	keystroke_a	a	n/a
378.7025	0.076	757405	keystroke_s	s	n/a
378.8685	0.1045	757737	keystroke_s	s	n/a
379.048	0.1195	758096	keystroke_Key.enter	Key.enter	n/a
379.1725	6.7465	758345	prompt	n/a	happiness pray triangle quit\n
379.948	0.06	759896	keystroke_h	h	n/a
380.023	0.1045	760046	keystroke_a	a	n/a
380.1875	0.045	760375	keystroke_p	p	n/a
380.3525	0.045	760705	keystroke_p	p	n/a
380.578	0.105	761156	keystroke_i	i	n/a
380.653	0.135	761306	keystroke_n	n	n/a
380.773	0.09	761546	keystroke_e	e	n/a
380.953	0.0745	761906	keystroke_s	s	n/a
381.1175	0.075	762235	keystroke_s	s	n/a
381.2825	0.105	762565	keystroke_Key.space	Key.space	n/a
381.5375	0.105	763075	keystroke_p	p	n/a
381.7925	0.12	763585	keystroke_r	r	n/a
381.9275	0.105	763855	keystroke_a	a	n/a
382.0625	0.135	764125	keystroke_y	y	n/a
382.347	0.121	764694	keystroke_Key.space	Key.space	n/a
382.543	0.12	765086	keystroke_t	t	n/a
382.633	0.12	765266	keystroke_r	r	n/a
382.783	0.12	765566	keystroke_i	i	n/a
382.948	0.12	765896	keystroke_a	a	n/a
383.1275	0.045	766255	keystroke_b	b	n/a
383.833	0.09	767666	keystroke_Key.backspace	Key.backspace	n/a
384.073	0.09	768146	keystroke_n	n	n/a
384.2525	0.105	768505	keystroke_g	g	n/a
384.3875	0.09	768775	keystroke_l	l	n/a
384.5375	0.075	769075	keystroke_e	e	n/a
384.6275	0.09	769255	keystroke_Key.space	Key.space	n/a
384.8675	0.105	769735	keystroke_q	q	n/a
385.0025	0.1055	770005	keystroke_u	u	n/a
385.182	0.1205	770364	keystroke_i	i	n/a
385.3775	0.09	770755	keystroke_t	t	n/a
385.7825	0.135	771565	keystroke_Key.enter	Key.enter	n/a
385.922	11.4725	771844	prompt	n/a	vocabulary cables geological interactions\n
386.803	0.09	773606	keystroke_v	v	n/a
386.983	0.045	773966	keystroke_a	a	n/a
387.748	0.09	775496	keystroke_Key.backspace	Key.backspace	n/a
387.9425	0.075	775885	keystroke_o	o	n/a
388.1225	0.12	776245	keystroke_c	c	n/a
388.2275	0.09	776455	keystroke_a	a	n/a
389.0075	0.03	778015	keystroke_b	b	n/a
389.1575	0.0905	778315	keystroke_u	u	n/a
389.383	0.105	778766	keystroke_l	l	n/a
389.503	0.1195	779006	keystroke_a	a	n/a
389.5775	0.12	779155	keystroke_r	r	n/a
389.7125	0.075	779425	keystroke_y	y	n/a
390.298	0.105	780596	keystroke_Key.space	Key.space	n/a
390.9875	0.09	781975	keystroke_c	c	n/a
391.0625	0.12	782125	keystroke_a	a	n/a
391.1975	0.06	782395	keystroke_b	b	n/a
391.3925	0.0905	782785	keystroke_l	l	n/a
391.498	0.06	782996	keystroke_e	e	n/a
391.678	0.0745	783356	keystroke_s	s	n/a
391.7825	0.075	783565	keystroke_Key.space	Key.space	n/a
392.5175	0.06	785035	keystroke_g	g	n/a
392.697	0.0905	785394	keystroke_e	e	n/a
392.8925	0.09	785785	keystroke_o	o	n/a
393.493	0.12	786986	keystroke_l	l	n/a
393.748	0.09	787496	keystroke_o	o	n/a
394.1375	0.075	788275	keystroke_g	g	n/a
394.3775	0.105	788755	keystroke_i	i	n/a
394.5425	0.105	789085	keystroke_c	c	n/a
394.6325	0.12	789265	keystroke_a	a	n/a
394.7675	0.105	789535	keystroke_l	l	n/a
395.037	0.09	790074	keystroke_Key.space	Key.space	n/a
395.412	0.076	790824	keystroke_i	i	n/a
395.563	0.1045	791126	keystroke_n	n	n/a
395.6825	0.09	791365	keystroke_t	t	n/a
395.8475	0.075	791695	keystroke_e	e	n/a
395.8925	0.12	791785	keystroke_r	r	n/a
396.0725	0.09	792145	keystroke_a	a	n/a
396.3125	0.09	792625	keystroke_c	c	n/a
396.5225	0.0745	793045	keystroke_t	t	n/a
396.612	0.106	793224	keystroke_i	i	n/a
396.823	0.15	793646	keystroke_o	o	n/a
396.913	0.135	793826	keystroke_n	n	n/a
397.108	0.1195	794216	keystroke_s	s	n/a
397.273	0.1195	794546	keystroke_Key.enter	Key.enter	n/a
397.397	9.807	794794	prompt	n/a	paint nominations bosnia hosted\n
398.068	0.09	796136	keystroke_p	p	n/a
398.173	0.075	796346	keystroke_a	a	n/a
398.293	0.135	796586	keystroke_i	i	n/a
398.368	0.1195	796736	keystroke_n	n	n/a
398.443	0.1045	796886	keystroke_t	t	n/a
398.6375	0.075	797275	keystroke_Key.space	Key.space	n/a
398.8475	0.105	797695	keystroke_n	n	n/a
399.0125	0.165	798025	keystroke_o	o	n/a
399.1785	0.134	798357	keystroke_m	m	n/a
399.3875	0.0895	798775	keystroke_i	i	n/a
399.522	0.09	799044	keystroke_n	n	n/a
399.657	0.06	799314	keystroke_a	a	n/a
399.777	0.1205	799554	keystroke_t	t	n/a
400.1975	0.09	800395	keystroke_i	i	n/a
400.3925	0.1345	800785	keystroke_o	o	n/a
400.467	0.135	800934	keystroke_n	n	n/a
400.768	0.09	801536	keystroke_s	s	n/a
400.917	0.075	801834	keystroke_Key.space	Key.space	n/a
401.6225	0.075	803245	keystroke_b	b	n/a
402.0575	0.105	804115	keystroke_o	o	n/a
402.2075	0.105	804415	keystroke_z	z	n/a
402.3575	0.075	804715	keystroke_n	n	n/a
402.462	0.09	804924	keystroke_i	i	n/a
402.897	0.06	805794	keystroke_Key.backspace	Key.backspace	n/a
403.048	0.074	806096	keystroke_Key.backspace	Key.backspace	n/a
403.198	0.075	806396	keystroke_Key.backspace	Key.backspace	n/a
403.288	0.09	806576	keystroke_x	x	n/a
403.872	0.075	807744	keystroke_Key.backspace	Key.backspace	n/a
404.263	0.0895	808526	keystroke_s	s	n/a
404.7125	0.105	809425	keystroke_n	n	n/a
404.8475	0.075	809695	keystroke_i	i	n/a
404.9525	0.09	809905	keystroke_a	a	n/a
405.177	0.1055	810354	keystroke_Key.space	Key.space	n/a
405.8825	0.045	811765	keystroke_h	h	n/a
406.1975	0.105	812395	keystroke_o	o	n/a
406.3325	0.075	812665	keystroke_s	s	n/a
406.4975	0.075	812995	keystroke_t	t	n/a
406.6175	0.075	813235	keystroke_e	e	n/a
406.8575	0.105	813715	keystroke_d	d	n/a
407.0975	0.105	814195	keystroke_Key.enter	Key.enter	n/a
407.208	11.276	814416	prompt	n/a	apparatus motorcycle womens importance\n
407.863	0.075	815726	keystroke_a	a	n/a
407.998	0.075	815996	keystroke_p	p	n/a
408.1475	0.135	816295	keystroke_p	p	n/a
408.2225	0.135	816445	keystroke_a	a	n/a
408.4475	0.105	816895	keystroke_r	r	n/a
408.6725	0.135	817345	keystroke_a	a	n/a
408.8375	0.09	817675	keystroke_s	s	n/a
409.182	0.09	818364	keystroke_t	t	n/a
409.753	0.045	819506	keystroke_Key.backspace	Key.backspace	n/a
409.828	0.09	819656	keystroke_Key.backspace	Key.backspace	n/a
409.9325	0.075	819865	keystroke_t	t	n/a
410.1125	0.06	820225	keystroke_u	u	n/a
410.2025	0.105	820405	keystroke_s	s	n/a
410.4425	0.12	820885	keystroke_Key.space	Key.space	n/a
410.8025	0.09	821605	keystroke_m	m	n/a
410.9975	0.06	821995	keystroke_o	o	n/a
411.117	0.075	822234	keystroke_t	t	n/a
411.237	0.075	822474	keystroke_o	o	n/a
411.687	0.106	823374	keystroke_r	r	n/a
412.2275	0.135	824455	keystroke_c	c	n/a
412.3925	0.045	824785	keystroke_u	u	n/a
412.4975	0.09	824995	keystroke_c	c	n/a
412.9175	0.09	825835	keystroke_Key.backspace	Key.backspace	n/a
413.0825	0.06	826165	keystroke_Key.backspace	Key.backspace	n/a
413.277	0.09	826554	keystroke_y	y	n/a
413.352	0.12	826704	keystroke_c	c	n/a
413.593	0.105	827186	keystroke_l	l	n/a
413.8025	0.075	827605	keystroke_e	e	n/a
414.0125	0.075	828025	keystroke_Key.space	Key.space	n/a
414.598	0.075	829196	keystroke_w	w	n/a
414.7175	0.135	829435	keystroke_o	o	n/a
414.7925	0.12	829585	keystroke_m	m	n/a
414.9725	0.075	829945	keystroke_e	e	n/a
415.1375	0.075	830275	keystroke_n	n	n/a
415.5125	0.06	831025	keystroke_s	s	n/a
415.707	0.105	831414	keystroke_Key.space	Key.space	n/a
415.9925	0.045	831985	keystroke_p	p	n/a
416.3225	0.075	832645	keystroke_Key.backspace	Key.backspace	n/a
416.5625	0.12	833125	keystroke_i	i	n/a
416.6225	0.1045	833245	keystroke_m	m	n/a
416.877	0.135	833754	keystroke_p	p	n/a
416.907	0.09	833814	keystroke_o	o	n/a
417.373	0.195	834746	keystroke_r	r	n/a
417.522	0.1055	835044	keystroke_t	t	n/a
417.8375	0.105	835675	keystroke_a	a	n/a
417.9575	0.075	835915	keystroke_n	n	n/a
418.0925	0.12	836185	keystroke_c	c	n/a
418.1675	0.105	836335	keystroke_e	e	n/a
418.3475	0.135	836695	keystroke_Key.enter	Key.enter	n/a
418.487	9.177	836974	prompt	n/a	electric breach associations replied\n
419.277	0.061	838554	keystroke_e	e	n/a
419.367	0.105	838734	keystroke_l	l	n/a
419.503	0.0895	839006	keystroke_e	e	n/a
419.7425	0.09	839485	keystroke_c	c	n/a
419.9675	0.09	839935	keystroke_t	t	n/a
419.9975	0.12	839995	keystroke_r	r	n/a
420.1325	0.075	840265	keystroke_i	i	n/a
420.2825	0.105	840565	keystroke_c	c	n/a
420.4025	0.075	840805	keystroke_Key.space	Key.space	n/a
420.537	0.09	841074	keystroke_b	b	n/a
420.612	0.105	841224	keystroke_e	e	n/a
420.732	0.075	841464	keystroke_a	a	n/a
420.852	0.12	841704	keystroke_c	c	n/a
420.987	0.09	841974	keystroke_h	h	n/a
421.287	0.0605	842574	keystroke_Key.space	Key.space	n/a
421.797	0.105	843594	keystroke_a	a	n/a
421.917	0.03	843834	keystroke_s	s	n/a
422.022	0.076	844044	keystroke_s	s	n/a
422.263	0.0895	844526	keystroke_o	o	n/a
422.3825	0.075	844765	keystroke_c	c	n/a
422.5025	0.09	845005	keystroke_a	a	n/a
422.5175	0.06	845035	keystroke_i	i	n/a
423.507	0.075	847014	keystroke_Key.backspace	Key.backspace	n/a
423.657	0.075	847314	keystroke_Key.backspace	Key.backspace	n/a
424.077	0.0605	848154	keystroke_i	i	n/a
424.407	0.09	848814	keystroke_a	a	n/a
424.557	0.105	849114	keystroke_t	t	n/a
424.677	0.105	849354	keystroke_i	i	n/a
424.887	0.12	849774	keystroke_o	o	n/a
424.978	0.1035	849956	keystroke_n	n	n/a
425.1565	0.106	850313	keystroke_s	s	n/a
425.3675	0.105	850735	keystroke_Key.space	Key.space	n/a
425.9225	0.105	851845	keystroke_r	r	n/a
425.9825	0.1345	851965	keystroke_e	e	n/a
426.132	0.12	852264	keystroke_p	p	n/a
426.462	0.09	852924	keystroke_l	l	n/a
426.672	0.075	853344	keystroke_i	i	n/a
426.777	0.075	853554	keystroke_e	e	n/a
426.957	0.0905	853914	keystroke_s	s	n/a
427.272	0.09	854544	keystroke_Key.backspace	Key.backspace	n/a
427.363	0.104	854726	keystroke_d	d	n/a
427.572	0.09	855144	keystroke_Key.enter	Key.enter	n/a
427.667	6.417	855334	prompt	n/a	rider dynamics recruitment case\n
428.457	0.06	856914	keystroke_r	r	n/a
428.562	0.075	857124	keystroke_i	i	n/a
428.667	0.12	857334	keystroke_d	d	n/a
428.832	0.1045	857664	keystroke_e	e	n/a
428.8915	0.106	857783	keystroke_r	r	n/a
429.0125	0.105	858025	keystroke_Key.space	Key.space	n/a
429.7775	0.045	859555	keystroke_d	d	n/a
429.8375	0.09	859675	keystroke_y	y	n/a
430.1075	0.075	860215	keystroke_n	n	n/a
430.2415	0.106	860483	keystroke_a	a	n/a
430.3325	0.075	860665	keystroke_m	m	n/a
430.4375	0.105	860875	keystroke_i	i	n/a
430.5725	0.12	861145	keystroke_c	c	n/a
430.6925	0.06	861385	keystroke_s	s	n/a
430.8575	0.1495	861715	keystroke_Key.space	Key.space	n/a
431.517	0.105	863034	keystroke_r	r	n/a
431.607	0.075	863214	keystroke_e	e	n/a
431.9825	0.075	863965	keystroke_c	c	n/a
432.207	0.105	864414	keystroke_r	r	n/a
432.297	0.03	864594	keystroke_e	e	n/a
432.672	0.075	865344	keystroke_Key.backspace	Key.backspace	n/a
432.913	0.1195	865826	keystroke_u	u	n/a
432.972	0.0895	865944	keystroke_i	i	n/a
433.0775	0.105	866155	keystroke_t	t	n/a
433.392	0.09	866784	keystroke_m	m	n/a
433.542	0.075	867084	keystroke_e	e	n/a
433.632	0.105	867264	keystroke_n	n	n/a
433.752	0.12	867504	keystroke_t	t	n/a
434.007	0.075	868014	keystroke_Key.enter	Key.enter	n/a
434.0955	8.7035	868191	prompt	n/a	logan euro kiss cambodia\n
436.17	0.027	872340	keystroke_l	l	n/a
436.302	0.075	872604	keystroke_o	o	n/a
436.392	0.06	872784	keystroke_g	g	n/a
436.542	0.1045	873084	keystroke_a	a	n/a
436.6615	0.046	873323	keystroke_n	n	n/a
436.8275	0.059	873655	keystroke_Key.space	Key.space	n/a
436.9175	0.105	873835	keystroke_c	c	n/a
436.9925	0.105	873985	keystroke_a	a	n/a
437.4575	0.0595	874915	keystroke_Key.backspace	Key.backspace	n/a
437.607	0.075	875214	keystroke_Key.backspace	Key.backspace	n/a
437.697	0.09	875394	keystroke_e	e	n/a
438.4175	0.09	876835	keystroke_u	u	n/a
438.552	0.075	877104	keystroke_r	r	n/a
438.657	0.09	877314	keystroke_o	o	n/a
438.852	0.12	877704	keystroke_Key.space	Key.space	n/a
440.0825	0.075	880165	keystroke_k	k	n/a
440.2625	0.06	880525	keystroke_i	i	n/a
440.6815	0.076	881363	keystroke_s	s	n/a
440.8775	0.105	881755	keystroke_s	s	n/a
441.0575	0.09	882115	keystroke_Key.space	Key.space	n/a
441.1775	0.1045	882355	keystroke_c	c	n/a
441.252	0.1045	882504	keystroke_a	a	n/a
441.342	0.1045	882684	keystroke_m	m	n/a
441.6725	0.09	883345	keystroke_b	b	n/a
441.9425	0.045	883885	keystroke_o	o	n/a
442.2425	0.105	884485	keystroke_d	d	n/a
442.3625	0.0595	884725	keystroke_i	i	n/a
442.467	0.09	884934	keystroke_a	a	n/a
442.707	0.09	885414	keystroke_Key.enter	Key.enter	n/a
442.802	6.7915	885604	prompt	n/a	mainstream coding ordering dirt\n
443.577	0.06	887154	keystroke_m	m	n/a
443.652	0.0905	887304	keystroke_a	a	n/a
443.7575	0.105	887515	keystroke_i	i	n/a
443.8325	0.09	887665	keystroke_n	n	n/a
444.0725	0.09	888145	keystroke_s	s	n/a
444.252	0.105	888504	keystroke_t	t	n/a
444.358	0.104	888716	keystroke_e	e	n/a
444.9875	0.09	889975	keystroke_Key.backspace	Key.backspace	n/a
445.0625	0.1195	890125	keystroke_r	r	n/a
445.137	0.09	890274	keystroke_e	e	n/a
445.332	0.075	890664	keystroke_a	a	n/a
445.437	0.09	890874	keystroke_m	m	n/a
445.647	0.12	891294	keystroke_Key.space	Key.space	n/a
445.932	0.105	891864	keystroke_c	c	n/a
446.082	0.0595	892164	keystroke_o	o	n/a
446.2015	0.105	892403	keystroke_d	d	n/a
446.3665	0.106	892733	keystroke_i	i	n/a
446.4425	0.105	892885	keystroke_n	n	n/a
446.5625	0.09	893125	keystroke_g	g	n/a
446.7425	0.105	893485	keystroke_Key.space	Key.space	n/a
447.4465	0.091	894893	keystroke_o	o	n/a
447.5975	0.075	895195	keystroke_r	r	n/a
447.8075	0.06	895615	keystroke_d	d	n/a
447.8975	0.12	895795	keystroke_e	e	n/a
447.9875	0.09	895975	keystroke_r	r	n/a
448.0625	0.1195	896125	keystroke_i	i	n/a
448.092	0.135	896184	keystroke_n	n	n/a
448.228	0.1035	896456	keystroke_g	g	n/a
448.3765	0.105	896753	keystroke_Key.space	Key.space	n/a
448.6775	0.12	897355	keystroke_d	d	n/a
448.7675	0.09	897535	keystroke_i	i	n/a
448.9775	0.105	897955	keystroke_r	r	n/a
449.0525	0.06	898105	keystroke_t	t	n/a
449.5015	0.09	899003	keystroke_Key.enter	Key.enter	n/a
449.5985	13.9005	899197	prompt	n/a	permission literally cuba specifications\n
450.972	0.09	901944	keystroke_p	p	n/a
451.0775	0.075	902155	keystroke_e	e	n/a
451.1375	0.1195	902275	keystroke_r	r	n/a
451.272	0.075	902544	keystroke_m	m	n/a
451.392	0.105	902784	keystroke_i	i	n/a
451.528	0.0735	903056	keystroke_s	s	n/a
451.6915	0.076	903383	keystroke_s	s	n/a
451.7965	0.105	903593	keystroke_i	i	n/a
451.9775	0.135	903955	keystroke_o	o	n/a
452.0975	0.09	904195	keystroke_n	n	n/a
452.2925	0.12	904585	keystroke_Key.space	Key.space	n/a
452.472	0.045	904944	keystroke_l	l	n/a
452.727	0.045	905454	keystroke_u	u	n/a
452.817	0.12	905634	keystroke_t	t	n/a
453.2075	0.045	906415	keystroke_Key.backspace	Key.backspace	n/a
453.3425	0.0595	906685	keystroke_Key.backspace	Key.backspace	n/a
453.522	0.09	907044	keystroke_u	u	n/a
453.597	0.105	907194	keystroke_t	t	n/a
453.807	0.045	907614	keystroke_e	e	n/a
453.867	0.075	907734	keystroke_r	r	n/a
454.092	0.06	908184	keystroke_Key.backspace	Key.backspace	n/a
454.242	0.06	908484	keystroke_Key.backspace	Key.backspace	n/a
454.377	0.0895	908754	keystroke_Key.backspace	Key.backspace	n/a
454.5875	0.089	909175	keystroke_u	u	n/a
454.9775	0.06	909955	keystroke_Key.backspace	Key.backspace	n/a
455.1125	0.075	910225	keystroke_Key.backspace	Key.backspace	n/a
455.3225	0.075	910645	keystroke_i	i	n/a
455.4125	0.104	910825	keystroke_t	t	n/a
455.5765	0.09	911153	keystroke_e	e	n/a
455.6375	0.105	911275	keystroke_r	r	n/a
455.8625	0.075	911725	keystroke_a	a	n/a
456.0275	0.045	912055	keystroke_l	l	n/a
456.552	0.105	913104	keystroke_;	;	n/a
457.062	0.06	914124	keystroke_Key.backspace	Key.backspace	n/a
457.317	0.075	914634	keystroke_l	l	n/a
458.202	0.0895	916404	keystroke_y	y	n/a
458.4265	0.045	916853	keystroke_Key.space	Key.space	n/a
458.5775	0.104	917155	keystroke_c	c	n/a
458.6525	0.12	917305	keystroke_u	u	n/a
458.7425	0.12	917485	keystroke_b	b	n/a
458.9675	0.105	917935	keystroke_a	a	n/a
459.1025	0.0895	918205	keystroke_Key.space	Key.space	n/a
459.537	0.075	919074	keystroke_s	s	n/a
459.657	0.12	919314	keystroke_p	p	n/a
459.762	0.12	919524	keystroke_e	e	n/a
460.047	0.09	920094	keystroke_c	c	n/a
460.182	0.0745	920364	keystroke_i	i	n/a
460.3315	0.091	920663	keystroke_f	f	n/a
460.4675	0.075	920935	keystroke_i	i	n/a
460.6625	0.09	921325	keystroke_c	c	n/a
461.097	0.0745	922194	keystroke_a	a	n/a
461.2615	0.106	922523	keystroke_t	t	n/a
461.7125	0.105	923425	keystroke_i	i	n/a
462.0725	0.015	924145	keystroke_o	o	n/a
462.4475	0.075	924895	keystroke_n	n	n/a
462.9725	0.0745	925945	keystroke_s	s	n/a
463.3615	0.135	926723	keystroke_Key.enter	Key.enter	n/a
463.502	8.4565	927004	prompt	n/a	votes bool recovery inter\n
464.7425	0.105	929485	keystroke_v	v	n/a
464.8625	0.075	929725	keystroke_o	o	n/a
464.982	0.105	929964	keystroke_t	t	n/a
465.132	0.09	930264	keystroke_e	e	n/a
465.3425	0.09	930685	keystroke_s	s	n/a
465.4475	0.09	930895	keystroke_Key.space	Key.space	n/a
465.7025	0.015	931405	keystroke_b	b	n/a
465.972	0.105	931944	keystroke_o	o	n/a
466.152	0.075	932304	keystroke_o	o	n/a
466.617	0.105	933234	keystroke_;	;	n/a
467.1125	0.09	934225	keystroke_Key.backspace	Key.backspace	n/a
467.4425	0.075	934885	keystroke_k	k	n/a
468.027	0.03	936054	keystroke_Key.backspace	Key.backspace	n/a
468.9725	0.014	937945	keystroke_l	l	n/a
469.1365	0.0905	938273	keystroke_Key.space	Key.space	n/a
469.482	0.09	938964	keystroke_r	r	n/a
469.557	0.09	939114	keystroke_e	e	n/a
469.737	0.12	939474	keystroke_c	c	n/a
469.8715	0.075	939743	keystroke_o	o	n/a
470.0965	0.151	940193	keystroke_v	v	n/a
470.4125	0.06	940825	keystroke_e	e	n/a
470.4425	0.09	940885	keystroke_r	r	n/a
470.5775	0.105	941155	keystroke_y	y	n/a
470.8175	0.0895	941635	keystroke_Key.space	Key.space	n/a
470.967	0.075	941934	keystroke_i	i	n/a
471.012	0.105	942024	keystroke_n	n	n/a
471.162	0.09	942324	keystroke_t	t	n/a
471.342	0.09	942684	keystroke_e	e	n/a
471.402	0.09	942804	keystroke_r	r	n/a
471.8515	0.105	943703	keystroke_Key.enter	Key.enter	n/a
471.9615	11.022	943923	prompt	n/a	lose browser robinson economics\n
472.8125	0.0895	945625	keystroke_l	l	n/a
472.992	0.075	945984	keystroke_o	o	n/a
473.068	0.1345	946136	keystroke_s	s	n/a
473.2475	0.105	946495	keystroke_e	e	n/a
473.4575	0.09	946915	keystroke_Key.space	Key.space	n/a
473.712	0.09	947424	keystroke_b	b	n/a
473.832	0.12	947664	keystroke_r	r	n/a
473.997	0.105	947994	keystroke_o	o	n/a
474.327	0.03	948654	keystroke_s	s	n/a
474.8975	0.09	949795	keystroke_Key.backspace	Key.backspace	n/a
475.1075	0.105	950215	keystroke_w	w	n/a
475.5725	0.0895	951145	keystroke_s	s	n/a
475.812	0.12	951624	keystroke_e	e	n/a
475.902	0.105	951804	keystroke_r	r	n/a
476.5175	0.09	953035	keystroke_Key.space	Key.space	n/a
477.102	0.09	954204	keystroke_r	r	n/a
477.2525	0.12	954505	keystroke_o	o	n/a
477.4175	0.09	954835	keystroke_b	b	n/a
477.642	0.105	955284	keystroke_i	i	n/a
477.702	0.12	955404	keystroke_n	n	n/a
477.927	0.06	955854	keystroke_s	s	n/a
478.047	0.135	956094	keystroke_o	o	n/a
478.122	0.105	956244	keystroke_n	n	n/a
478.4965	0.076	956993	keystroke_Key.space	Key.space	n/a
478.8115	0.12	957623	keystroke_e	e	n/a
479.0665	0.105	958133	keystroke_x	x	n/a
479.8465	0.09	959693	keystroke_Key.backspace	Key.backspace	n/a
479.9215	0.12	959843	keystroke_c	c	n/a
481.182	0.09	962364	keystroke_o	o	n/a
481.4675	0.06	962935	keystroke_n	n	n/a
481.6925	0.1195	963385	keystroke_o	o	n/a
481.857	0.105	963714	keystroke_m	m	n/a
482.007	0.12	964014	keystroke_i	i	n/a
482.172	0.12	964344	keystroke_c	c	n/a
482.6215	0.06	965243	keystroke_s	s	n/a
482.8315	0.15	965663	keystroke_Key.enter	Key.enter	n/a
482.987	13.5415	965974	prompt	n/a	beneath gravity symptoms coordinator\n
483.9715	0.046	967943	keystroke_e	e	n/a
484.257	0.09	968514	keystroke_Key.backspace	Key.backspace	n/a
484.5415	0.12	969083	keystroke_e	e	n/a
484.6165	0.135	969233	keystroke_a	a	n/a
485.1425	0.0745	970285	keystroke_Key.backspace	Key.backspace	n/a
485.307	0.075	970614	keystroke_Key.backspace	Key.backspace	n/a
485.8325	0.075	971665	keystroke_n	n	n/a
486.1775	0.09	972355	keystroke_Key.backspace	Key.backspace	n/a
486.4775	0.0595	972955	keystroke_b	b	n/a
486.627	0.1205	973254	keystroke_e	e	n/a
487.047	0.075	974094	keystroke_n	n	n/a
487.167	0.165	974334	keystroke_e	e	n/a
487.302	0.12	974604	keystroke_a	a	n/a
487.467	0.1195	974934	keystroke_t	t	n/a
487.6015	0.09	975203	keystroke_h	h	n/a
487.7965	0.105	975593	keystroke_Key.space	Key.space	n/a
488.397	0.12	976794	keystroke_g	g	n/a
488.547	0.075	977094	keystroke_r	r	n/a
488.727	0.09	977454	keystroke_a	a	n/a
488.862	0.105	977724	keystroke_v	v	n/a
489.027	0.09	978054	keystroke_i	i	n/a
489.207	0.075	978414	keystroke_t	t	n/a
489.3265	0.075	978653	keystroke_y	y	n/a
489.5075	0.1045	979015	keystroke_Key.space	Key.space	n/a
489.852	0.09	979704	keystroke_s	s	n/a
490.002	0.06	980004	keystroke_i	i	n/a
490.227	0.12	980454	keystroke_m	m	n/a
490.6465	0.06	981293	keystroke_Key.backspace	Key.backspace	n/a
490.797	0.0745	981594	keystroke_Key.backspace	Key.backspace	n/a
491.3225	0.09	982645	keystroke_y	y	n/a
491.5775	0.075	983155	keystroke_m	m	n/a
491.7275	0.09	983455	keystroke_p	p	n/a
491.8775	0.0745	983755	keystroke_t	t	n/a
492.0865	0.1205	984173	keystroke_o	o	n/a
492.1765	0.0905	984353	keystroke_m	m	n/a
492.282	0.105	984564	keystroke_s	s	n/a
492.7315	0.0905	985463	keystroke_Key.space	Key.space	n/a
493.137	0.12	986274	keystroke_c	c	n/a
493.242	0.06	986484	keystroke_o	o	n/a
493.407	0.06	986814	keystroke_o	o	n/a
493.9165	0.075	987833	keystroke_r	r	n/a
494.1565	0.061	988313	keystroke_d	d	n/a
494.637	0.105	989274	keystroke_i	i	n/a
494.727	0.12	989454	keystroke_n	n	n/a
494.967	0.12	989934	keystroke_a	a	n/a
495.102	0.1195	990204	keystroke_r	r	n/a
495.6415	0.09	991283	keystroke_Key.backspace	Key.backspace	n/a
495.7625	0.089	991525	keystroke_t	t	n/a
495.9415	0.075	991883	keystroke_o	o	n/a
496.0325	0.09	992065	keystroke_r	r	n/a
496.422	0.105	992844	keystroke_Key.enter	Key.enter	n/a
496.5315	8.172	993063	prompt	n/a	rocket assault coastal strength\n
497.217	0.0895	994434	keystroke_r	r	n/a
497.3215	0.075	994643	keystroke_o	o	n/a
497.4565	0.12	994913	keystroke_c	c	n/a
497.5615	0.0905	995123	keystroke_k	k	n/a
497.667	0.15	995334	keystroke_e	e	n/a
497.757	0.12	995514	keystroke_t	t	n/a
497.922	0.09	995844	keystroke_Key.space	Key.space	n/a
498.027	0.12	996054	keystroke_a	a	n/a
498.1765	0.075	996353	keystroke_s	s	n/a
498.3265	0.105	996653	keystroke_s	s	n/a
498.4165	0.135	996833	keystroke_a	a	n/a
498.5365	0.075	997073	keystroke_u	u	n/a
498.7465	0.106	997493	keystroke_l	l	n/a
498.8375	0.12	997675	keystroke_t	t	n/a
499.122	0.09	998244	keystroke_Key.space	Key.space	n/a
499.5115	0.105	999023	keystroke_c	c	n/a
499.6315	0.105	999263	keystroke_o	o	n/a
499.7515	0.106	999503	keystroke_a	a	n/a
499.8275	0.12	999655	keystroke_s	s	n/a
500.097	0.075	1000194	keystroke_t	t	n/a
500.277	0.09	1000554	keystroke_a	a	n/a
500.382	0.12	1000764	keystroke_l	l	n/a
500.607	0.09	1001214	keystroke_Key.space	Key.space	n/a
500.742	0.105	1001484	keystroke_s	s	n/a
500.967	0.1045	1001934	keystroke_t	t	n/a
501.012	0.1045	1002024	keystroke_e	e	n/a
501.5965	0.121	1003193	keystroke_Key.backspace	Key.backspace	n/a
501.7025	0.0745	1003405	keystroke_r	r	n/a
501.747	0.105	1003494	keystroke_e	e	n/a
501.912	0.06	1003824	keystroke_t	t	n/a
502.1215	0.105	1004243	keystroke_n	n	n/a
502.5865	0.03	1005173	keystroke_Key.backspace	Key.backspace	n/a
502.6765	0.075	1005353	keystroke_Key.backspace	Key.backspace	n/a
502.9175	0.09	1005835	keystroke_n	n	n/a
503.0375	0.075	1006075	keystroke_c	c	n/a
503.367	0.0445	1006734	keystroke_t	t	n/a
503.622	0.075	1007244	keystroke_Key.backspace	Key.backspace	n/a
503.757	0.0895	1007514	keystroke_Key.backspace	Key.backspace	n/a
503.8765	0.09	1007753	keystroke_g	g	n/a
504.1025	0.075	1008205	keystroke_t	t	n/a
504.2075	0.105	1008415	keystroke_h	h	n/a
504.5665	0.135	1009133	keystroke_Key.enter	Key.enter	n/a
504.714	10.9395	1009428	prompt	n/a	undergraduate consistent suzuki jewish\n
505.542	0.045	1011084	keystroke_u	u	n/a
505.557	0.09	1011114	keystroke_n	n	n/a
505.977	0.135	1011954	keystroke_d	d	n/a
506.172	0.1045	1012344	keystroke_e	e	n/a
506.2465	0.075	1012493	keystroke_r	r	n/a
506.7115	0.03	1013423	keystroke_g	g	n/a
506.7265	0.031	1013453	keystroke_r	r	n/a
506.8915	0.075	1013783	keystroke_a	a	n/a
507.0125	0.12	1014025	keystroke_d	d	n/a
507.192	0.12	1014384	keystroke_u	u	n/a
507.402	0.105	1014804	keystroke_a	a	n/a
507.672	0.09	1015344	keystroke_t	t	n/a
507.747	0.135	1015494	keystroke_e	e	n/a
507.942	0.0895	1015884	keystroke_Key.space	Key.space	n/a
508.2265	0.09	1016453	keystroke_c	c	n/a
508.5115	0.106	1017023	keystroke_o	o	n/a
508.6015	0.106	1017203	keystroke_n	n	n/a
508.7515	0.1205	1017503	keystroke_s	s	n/a
508.9775	0.1045	1017955	keystroke_o	o	n/a
509.142	0.105	1018284	keystroke_s	s	n/a
509.4565	0.06	1018913	keystroke_Key.backspace	Key.backspace	n/a
509.5915	0.075	1019183	keystroke_Key.backspace	Key.backspace	n/a
509.7565	0.121	1019513	keystroke_i	i	n/a
509.8325	0.089	1019665	keystroke_s	s	n/a
510.0115	0.106	1020023	keystroke_t	t	n/a
510.1025	0.105	1020205	keystroke_e	e	n/a
510.237	0.09	1020474	keystroke_n	n	n/a
510.372	0.135	1020744	keystroke_t	t	n/a
510.627	0.105	1021254	keystroke_Key.space	Key.space	n/a
511.137	0.045	1022274	keystroke_s	s	n/a
511.197	0.045	1022394	keystroke_u	u	n/a
511.872	0.135	1023744	keystroke_z	z	n/a
512.142	0.06	1024284	keystroke_u	u	n/a
512.337	0.06	1024674	keystroke_k	k	n/a
513.0565	0.09	1026113	keystroke_i	i	n/a
513.612	0.09	1027224	keystroke_Key.space	Key.space	n/a
514.407	0.075	1028814	keystroke_j	j	n/a
514.542	0.075	1029084	keystroke_e	e	n/a
514.557	0.12	1029114	keystroke_w	w	n/a
514.7815	0.075	1029563	keystroke_i	i	n/a
514.9765	0.075	1029953	keystroke_s	s	n/a
515.0965	0.09	1030193	keystroke_h	h	n/a
515.517	0.135	1031034	keystroke_Key.enter	Key.enter	n/a
515.656	15.1325	1031312	prompt	n/a	monetary biology selective criminal\n
516.477	0.075	1032954	keystroke_m	m	n/a
516.657	0.0595	1033314	keystroke_o	o	n/a
516.852	0.075	1033704	keystroke_n	n	n/a
517.017	0.075	1034034	keystroke_e	e	n/a
517.137	0.0745	1034274	keystroke_y	y	n/a
517.797	0.12	1035594	keystroke_Key.backspace	Key.backspace	n/a
517.962	0.105	1035924	keystroke_r	r	n/a
518.187	0.09	1036374	keystroke_a	a	n/a
518.5165	0.075	1037033	keystroke_Key.backspace	Key.backspace	n/a
518.667	0.105	1037334	keystroke_Key.backspace	Key.backspace	n/a
518.817	0.0745	1037634	keystroke_t	t	n/a
518.9665	0.105	1037933	keystroke_a	a	n/a
519.3265	0.09	1038653	keystroke_r	r	n/a
519.4765	0.076	1038953	keystroke_u	u	n/a
520.077	0.09	1040154	keystroke_Key.backspace	Key.backspace	n/a
520.7815	0.045	1041563	keystroke_y	y	n/a
521.5765	0.075	1043153	keystroke_Key.space	Key.space	n/a
522.0415	0.06	1044083	keystroke_b	b	n/a
522.3265	0.091	1044653	keystroke_i	i	n/a
522.552	0.09	1045104	keystroke_o	o	n/a
522.762	0.06	1045524	keystroke_l	l	n/a
522.897	0.105	1045794	keystroke_o	o	n/a
523.2115	0.061	1046423	keystroke_g	g	n/a
523.392	0.075	1046784	keystroke_y	y	n/a
523.647	0.075	1047294	keystroke_Key.space	Key.space	n/a
524.9675	0.0745	1049935	keystroke_s	s	n/a
525.8815	0.076	1051763	keystroke_e	e	n/a
525.9875	0.1045	1051975	keystroke_l	l	n/a
526.077	0.105	1052154	keystroke_e	e	n/a
526.272	0.09	1052544	keystroke_c	c	n/a
526.467	0.075	1052934	keystroke_t	t	n/a
526.557	0.075	1053114	keystroke_i	i	n/a
526.767	0.105	1053534	keystroke_v	v	n/a
526.857	0.0895	1053714	keystroke_e	e	n/a
527.0215	0.045	1054043	keystroke_Key.space	Key.space	n/a
528.1915	0.09	1056383	keystroke_c	c	n/a
528.4015	0.075	1056803	keystroke_r	r	n/a
528.5215	0.09	1057043	keystroke_i	i	n/a
528.7315	0.091	1057463	keystroke_m	m	n/a
528.8965	0.0895	1057793	keystroke_i	i	n/a
528.972	0.09	1057944	keystroke_n	n	n/a
529.7365	0.106	1059473	keystroke_a	a	n/a
529.887	0.075	1059774	keystroke_l	l	n/a
530.637	0.15	1061274	keystroke_Key.enter	Key.enter	n/a
530.7915	7.3765	1061583	prompt	n/a	travelers academic respective lawyers\n
531.642	0.1645	1063284	keystroke_t	t	n/a
531.7615	0.12	1063523	keystroke_r	r	n/a
531.971	0.061	1063942	keystroke_a	a	n/a
532.122	0.12	1064244	keystroke_v	v	n/a
532.257	0.06	1064514	keystroke_e	e	n/a
532.302	0.09	1064604	keystroke_l	l	n/a
532.437	0.075	1064874	keystroke_e	e	n/a
532.482	0.105	1064964	keystroke_r	r	n/a
532.662	0.105	1065324	keystroke_s	s	n/a
532.782	0.0895	1065564	keystroke_Key.space	Key.space	n/a
532.8865	0.105	1065773	keystroke_a	a	n/a
533.0065	0.1655	1066013	keystroke_c	c	n/a
533.202	0.165	1066404	keystroke_a	a	n/a
533.442	0.105	1066884	keystroke_d	d	n/a
533.7715	0.09	1067543	keystroke_e	e	n/a
533.8765	0.09	1067753	keystroke_m	m	n/a
534.0865	0.06	1068173	keystroke_i	i	n/a
534.1915	0.135	1068383	keystroke_c	c	n/a
534.492	0.09	1068984	keystroke_Key.space	Key.space	n/a
534.672	0.09	1069344	keystroke_r	r	n/a
534.747	0.075	1069494	keystroke_e	e	n/a
534.9415	0.0755	1069883	keystroke_s	s	n/a
535.0615	0.075	1070123	keystroke_p	p	n/a
535.152	0.06	1070304	keystroke_e	e	n/a
535.437	0.105	1070874	keystroke_c	c	n/a
535.677	0.075	1071354	keystroke_t	t	n/a
535.7665	0.1055	1071533	keystroke_i	i	n/a
535.901	0.121	1071802	keystroke_v	v	n/a
536.037	0.075	1072074	keystroke_e	e	n/a
536.127	0.09	1072254	keystroke_Key.space	Key.space	n/a
536.247	0.105	1072494	keystroke_l	l	n/a
536.337	0.105	1072674	keystroke_a	a	n/a
536.592	0.0895	1073184	keystroke_w	w	n/a
537.5065	0.06	1075013	keystroke_y	y	n/a
537.5975	0.0735	1075195	keystroke_e	e	n/a
537.641	0.105	1075282	keystroke_r	r	n/a
537.837	0.09	1075674	keystroke_s	s	n/a
538.017	0.15	1076034	keystroke_Key.enter	Key.enter	n/a
538.172	6.0415	1076344	prompt	n/a	landing imagine tennis customs\n
538.857	0.0745	1077714	keystroke_l	l	n/a
538.9465	0.105	1077893	keystroke_a	a	n/a
539.0815	0.09	1078163	keystroke_n	n	n/a
539.1565	0.12	1078313	keystroke_d	d	n/a
539.3065	0.1195	1078613	keystroke_i	i	n/a
539.411	0.09	1078822	keystroke_n	n	n/a
539.502	0.089	1079004	keystroke_g	g	n/a
539.667	0.09	1079334	keystroke_Key.space	Key.space	n/a
539.9215	0.09	1079843	keystroke_i	i	n/a
540.1765	0.09	1080353	keystroke_m	m	n/a
540.312	0.0745	1080624	keystroke_a	a	n/a
540.717	0.0595	1081434	keystroke_g	g	n/a
541.0165	0.1205	1082033	keystroke_i	i	n/a
541.0915	0.105	1082183	keystroke_n	n	n/a
541.2265	0.09	1082453	keystroke_e	e	n/a
541.3465	0.105	1082693	keystroke_Key.space	Key.space	n/a
541.5715	0.075	1083143	keystroke_t	t	n/a
541.7365	0.0595	1083473	keystroke_e	e	n/a
541.841	0.031	1083682	keystroke_n	n	n/a
541.992	0.015	1083984	keystroke_n	n	n/a
542.142	0.075	1084284	keystroke_i	i	n/a
542.562	0.09	1085124	keystroke_s	s	n/a
542.712	0.1045	1085424	keystroke_Key.space	Key.space	n/a
542.8615	0.135	1085723	keystroke_c	c	n/a
543.0265	0.105	1086053	keystroke_u	u	n/a
543.2065	0.06	1086413	keystroke_s	s	n/a
543.3865	0.075	1086773	keystroke_t	t	n/a
543.4765	0.18	1086953	keystroke_o	o	n/a
543.5965	0.1495	1087193	keystroke_m	m	n/a
543.852	0.09	1087704	keystroke_s	s	n/a
544.0915	0.12	1088183	keystroke_Key.enter	Key.enter	n/a
544.2165	6.657	1088433	prompt	n/a	careful food kind shorts\n
544.977	0.09	1089954	keystroke_c	c	n/a
545.052	0.075	1090104	keystroke_a	a	n/a
545.2165	0.105	1090433	keystroke_r	r	n/a
545.2615	0.1055	1090523	keystroke_e	e	n/a
546.0865	0.075	1092173	keystroke_f	f	n/a
546.2215	0.09	1092443	keystroke_u	u	n/a
546.5065	0.0595	1093013	keystroke_l	l	n/a
546.8215	0.09	1093643	keystroke_Key.space	Key.space	n/a
547.7065	0.075	1095413	keystroke_f	f	n/a
547.8115	0.075	1095623	keystroke_o	o	n/a
547.9765	0.0755	1095953	keystroke_o	o	n/a
548.172	0.105	1096344	keystroke_d	d	n/a
548.322	0.09	1096644	keystroke_Key.space	Key.space	n/a
548.532	0.075	1097064	keystroke_k	k	n/a
548.712	0.1195	1097424	keystroke_i	i	n/a
548.802	0.12	1097604	keystroke_n	n	n/a
549.1915	0.06	1098383	keystroke_d	d	n/a
549.2665	0.0595	1098533	keystroke_Key.space	Key.space	n/a
549.401	0.0605	1098802	keystroke_s	s	n/a
549.4765	0.135	1098953	keystroke_h	h	n/a
549.6415	0.075	1099283	keystroke_o	o	n/a
549.7765	0.12	1099553	keystroke_r	r	n/a
550.1815	0.09	1100363	keystroke_t	t	n/a
550.422	0.075	1100844	keystroke_s	s	n/a
550.7665	0.1055	1101533	keystroke_Key.enter	Key.enter	n/a
550.878	12.6705	1101756	prompt	n/a	screenshot voyuer yorkshire region\n
551.711	0.091	1103422	keystroke_s	s	n/a
551.892	0.09	1103784	keystroke_c	c	n/a
552.492	0.1195	1104984	keystroke_r	r	n/a
552.5965	0.075	1105193	keystroke_e	e	n/a
552.8515	0.105	1105703	keystroke_e	e	n/a
553.0615	0.0905	1106123	keystroke_n	n	n/a
553.182	0.12	1106364	keystroke_s	s	n/a
553.287	0.105	1106574	keystroke_h	h	n/a
553.452	0.1195	1106904	keystroke_o	o	n/a
553.5865	0.105	1107173	keystroke_t	t	n/a
554.0665	0.12	1108133	keystroke_Key.space	Key.space	n/a
555.0115	0.105	1110023	keystroke_v	v	n/a
555.1615	0.105	1110323	keystroke_o	o	n/a
555.4015	0.09	1110803	keystroke_y	y	n/a
555.5965	0.045	1111193	keystroke_t	t	n/a
555.9565	0.075	1111913	keystroke_Key.backspace	Key.backspace	n/a
556.0765	0.105	1112153	keystroke_e	e	n/a
556.227	0.075	1112454	keystroke_u	u	n/a
556.347	0.0895	1112694	keystroke_r	r	n/a
556.7215	0.105	1113443	keystroke_Key.space	Key.space	n/a
557.0365	0.1205	1114073	keystroke_y	y	n/a
557.337	0.105	1114674	keystroke_o	o	n/a
557.472	0.1045	1114944	keystroke_r	r	n/a
557.6065	0.135	1115213	keystroke_k	k	n/a
558.0115	0.1045	1116023	keystroke_s	s	n/a
559.767	0.12	1119534	keystroke_h	h	n/a
559.947	0.09	1119894	keystroke_i	i	n/a
560.097	0.0895	1120194	keystroke_r	r	n/a
560.1565	0.105	1120313	keystroke_e	e	n/a
560.3065	0.0895	1120613	keystroke_Key.space	Key.space	n/a
560.397	0.12	1120794	keystroke_r	r	n/a
560.486	0.076	1120972	keystroke_e	e	n/a
560.817	0.105	1121634	keystroke_g	g	n/a
561.251	0.09	1122502	keystroke_o	o	n/a
561.611	0.106	1123222	keystroke_Key.backspace	Key.backspace	n/a
561.912	0.105	1123824	keystroke_u	u	n/a
562.4965	0.09	1124993	keystroke_Key.backspace	Key.backspace	n/a
562.8415	0.09	1125683	keystroke_i	i	n/a
563.006	0.15	1126012	keystroke_o	o	n/a
563.096	0.135	1126192	keystroke_n	n	n/a
563.4415	0.105	1126883	keystroke_Key.enter	Key.enter	n/a
563.5515	9.8215	1127103	prompt	n/a	compromise cent displays buffalo\n
564.4315	0.09	1128863	keystroke_c	c	n/a
564.5365	0.12	1129073	keystroke_o	o	n/a
564.6115	0.12	1129223	keystroke_m	m	n/a
564.791	0.075	1129582	keystroke_p	p	n/a
