onset	duration	sample	value	key	prompt_text
5.431	6.684	10862	prompt	n/a	the quick brown fox jumps over a lazy dog\n
7.119	0.011	14238	keystroke_t	t	n/a
7.146	0.09	14292	keystroke_h	h	n/a
7.221	0.09	14442	keystroke_e	e	n/a
7.326	0.06	14652	keystroke_Key.space	Key.space	n/a
7.416	0.136	14832	keystroke_q	q	n/a
7.536	0.06	15072	keystroke_u	u	n/a
7.687	0.074	15374	keystroke_i	i	n/a
7.806	0.12	15612	keystroke_c	c	n/a
7.912	0.074	15824	keystroke_k	k	n/a
8.0615	0.0445	16123	keystroke_Key.space	Key.space	n/a
8.2115	0.0895	16423	keystroke_b	b	n/a
8.331	0.105	16662	keystroke_r	r	n/a
8.451	0.075	16902	keystroke_o	o	n/a
8.556	0.105	17112	keystroke_w	w	n/a
8.646	0.09	17292	keystroke_n	n	n/a
8.781	0.06	17562	keystroke_Key.space	Key.space	n/a
8.856	0.105	17712	keystroke_f	f	n/a
8.976	0.105	17952	keystroke_o	o	n/a
9.126	0.105	18252	keystroke_x	x	n/a
9.246	0.075	18492	keystroke_Key.space	Key.space	n/a
9.411	0.06	18822	keystroke_j	j	n/a
9.531	0.091	19062	keystroke_u	u	n/a
9.696	0.091	19392	keystroke_m	m	n/a
9.8165	0.105	19633	keystroke_p	p	n/a
10.0115	0.105	20023	keystroke_s	s	n/a
10.1465	0.075	20293	keystroke_Key.space	Key.space	n/a
10.2665	0.09	20533	keystroke_o	o	n/a
10.3865	0.09	20773	keystroke_v	v	n/a
10.5365	0.12	21073	keystroke_e	e	n/a
10.6115	0.09	21223	keystroke_r	r	n/a
10.7165	0.075	21433	keystroke_Key.space	Key.space	n/a
10.7915	0.12	21583	keystroke_a	a	n/a
10.8955	0.06	21791	keystroke_Key.space	Key.space	n/a
11.0315	0.09	22063	keystroke_l	l	n/a
11.1065	0.075	22213	keystroke_a	a	n/a
11.3005	0.09	22601	keystroke_z	z	n/a
11.4215	0.06	22843	keystroke_y	y	n/a
11.5115	0.0745	23023	keystroke_Key.space	Key.space	n/a
11.6165	0.12	23233	keystroke_d	d	n/a
11.7205	0.076	23441	keystroke_o	o	n/a
11.8265	0.074	23653	keystroke_g	g	n/a
12.0065	0.105	24013	keystroke_Key.enter	Key.enter	n/a
12.123	7.7445	24246	prompt	n/a	tasks hydrocodone convention bolt\n
12.9365	0.089	25873	keystroke_t	t	n/a
13.0565	0.1495	26113	keystroke_a	a	n/a
13.162	0.12	26324	keystroke_s	s	n/a
13.356	0.076	26712	keystroke_k	k	n/a
13.507	0.089	27014	keystroke_s	s	n/a
13.626	0.075	27252	keystroke_Key.space	Key.space	n/a
13.837	0.09	27674	keystroke_h	h	n/a
14.212	0.104	28424	keystroke_y	y	n/a
14.451	0.106	28902	keystroke_d	d	n/a
14.6915	0.09	29383	keystroke_r	r	n/a
14.8715	0.075	29743	keystroke_o	o	n/a
15.1265	0.09	30253	keystroke_c	c	n/a
15.3065	0.075	30613	keystroke_o	o	n/a
15.666	0.091	31332	keystroke_d	d	n/a
15.8915	0.06	31783	keystroke_o	o	n/a
16.1315	0.12	32263	keystroke_n	n	n/a
16.3555	0.091	32711	keystroke_e	e	n/a
16.536	0.09	33072	keystroke_Key.space	Key.space	n/a
17.061	0.12	34122	keystroke_c	c	n/a
17.271	0.1055	34542	keystroke_o	o	n/a
17.5115	0.089	35023	keystroke_n	n	n/a
17.6765	0.075	35353	keystroke_v	v	n/a
17.8555	0.09	35711	keystroke_e	e	n/a
17.9905	0.091	35981	keystroke_n	n	n/a
18.0955	0.076	36191	keystroke_t	t	n/a
18.2165	0.075	36433	keystroke_i	i	n/a
18.3205	0.121	36641	keystroke_o	o	n/a
18.4265	0.09	36853	keystroke_n	n	n/a
18.8005	0.06	37601	keystroke_Key.space	Key.space	n/a
18.981	0.09	37962	keystroke_b	b	n/a
19.131	0.105	38262	keystroke_o	o	n/a
19.356	0.105	38712	keystroke_l	l	n/a
19.566	0.075	39132	keystroke_t	t	n/a
19.761	0.105	39522	keystroke_Key.enter	Key.enter	n/a
19.8715	6.837	39743	prompt	n/a	kenya dedicated brought compute\n
20.6765	0.074	41353	keystroke_k	k	n/a
20.7815	0.105	41563	keystroke_e	e	n/a
21.051	0.075	42102	keystroke_n	n	n/a
21.291	0.075	42582	keystroke_y	y	n/a
21.441	0.15	42882	keystroke_a	a	n/a
21.606	0.105	43212	keystroke_Key.space	Key.space	n/a
21.861	0.09	43722	keystroke_d	d	n/a
22.086	0.075	44172	keystroke_e	e	n/a
22.326	0.105	44652	keystroke_d	d	n/a
22.506	0.09	45012	keystroke_i	i	n/a
22.671	0.12	45342	keystroke_c	c	n/a
22.836	0.15	45672	keystroke_a	a	n/a
23.0015	0.0895	46003	keystroke_t	t	n/a
23.166	0.075	46332	keystroke_e	e	n/a
23.361	0.075	46722	keystroke_d	d	n/a
23.481	0.075	46962	keystroke_Key.space	Key.space	n/a
23.676	0.1055	47352	keystroke_b	b	n/a
23.811	0.105	47622	keystroke_r	r	n/a
23.961	0.105	47922	keystroke_o	o	n/a
24.201	0.09	48402	keystroke_u	u	n/a
24.531	0.09	49062	keystroke_g	g	n/a
24.711	0.105	49422	keystroke_h	h	n/a
24.936	0.09	49872	keystroke_t	t	n/a
25.131	0.09	50262	keystroke_Key.space	Key.space	n/a
25.356	0.12	50712	keystroke_c	c	n/a
25.521	0.105	51042	keystroke_o	o	n/a
25.656	0.105	51312	keystroke_m	m	n/a
25.746	0.09	51492	keystroke_p	p	n/a
25.956	0.075	51912	keystroke_u	u	n/a
26.091	0.075	52182	keystroke_t	t	n/a
26.256	0.105	52512	keystroke_e	e	n/a
26.601	0.105	53202	keystroke_Key.enter	Key.enter	n/a
26.714	5.589	53428	prompt	n/a	dealtime becoming columbia pills\n
27.411	0.09	54822	keystroke_d	d	n/a
27.591	0.09	55182	keystroke_e	e	n/a
27.651	0.165	55302	keystroke_a	a	n/a
27.786	0.09	55572	keystroke_l	l	n/a
27.906	0.1045	55812	keystroke_t	t	n/a
28.0265	0.089	56053	keystroke_i	i	n/a
28.1465	0.104	56293	keystroke_m	m	n/a
28.2515	0.089	56503	keystroke_e	e	n/a
28.3555	0.06	56711	keystroke_Key.space	Key.space	n/a
28.5655	0.09	57131	keystroke_b	b	n/a
28.6705	0.075	57341	keystroke_e	e	n/a
28.8215	0.135	57643	keystroke_c	c	n/a
28.9415	0.074	57883	keystroke_o	o	n/a
28.9855	0.121	57971	keystroke_m	m	n/a
29.1665	0.134	58333	keystroke_i	i	n/a
29.2565	0.119	58513	keystroke_n	n	n/a
29.4215	0.089	58843	keystroke_g	g	n/a
29.6905	0.09	59381	keystroke_Key.space	Key.space	n/a
29.9155	0.106	59831	keystroke_c	c	n/a
30.0215	0.09	60043	keystroke_o	o	n/a
30.2015	0.074	60403	keystroke_l	l	n/a
30.3655	0.06	60731	keystroke_u	u	n/a
30.5305	0.076	61061	keystroke_m	m	n/a
30.7255	0.075	61451	keystroke_b	b	n/a
30.861	0.09	61722	keystroke_i	i	n/a
31.026	0.15	62052	keystroke_a	a	n/a
31.191	0.0895	62382	keystroke_Key.space	Key.space	n/a
31.4155	0.075	62831	keystroke_p	p	n/a
31.6105	0.06	63221	keystroke_i	i	n/a
31.7755	0.06	63551	keystroke_l	l	n/a
31.9255	0.06	63851	keystroke_l	l	n/a
32.0165	0.089	64033	keystroke_s	s	n/a
32.2105	0.09	64421	keystroke_Key.enter	Key.enter	n/a
32.3075	6.716	64615	prompt	n/a	daughters temporal hoping inter\n
33.1255	0.075	66251	keystroke_d	d	n/a
33.2905	0.165	66581	keystroke_a	a	n/a
33.4405	0.09	66881	keystroke_u	u	n/a
33.5615	0.089	67123	keystroke_g	g	n/a
33.7255	0.075	67451	keystroke_h	h	n/a
33.8455	0.09	67691	keystroke_t	t	n/a
34.0255	0.136	68051	keystroke_e	e	n/a
34.1305	0.09	68261	keystroke_r	r	n/a
34.2955	0.105	68591	keystroke_s	s	n/a
34.8205	0.12	69641	keystroke_Key.space	Key.space	n/a
35.0905	0.075	70181	keystroke_t	t	n/a
35.2105	0.12	70421	keystroke_e	e	n/a
35.3605	0.075	70721	keystroke_m	m	n/a
35.4955	0.0755	70991	keystroke_p	p	n/a
35.691	0.09	71382	keystroke_o	o	n/a
35.796	0.075	71592	keystroke_r	r	n/a
35.901	0.135	71802	keystroke_a	a	n/a
36.051	0.09	72102	keystroke_l	l	n/a
36.216	0.09	72432	keystroke_Key.space	Key.space	n/a
36.621	0.075	73242	keystroke_h	h	n/a
36.801	0.075	73602	keystroke_o	o	n/a
36.981	0.06	73962	keystroke_p	p	n/a
37.176	0.121	74352	keystroke_i	i	n/a
37.266	0.12	74532	keystroke_n	n	n/a
37.461	0.09	74922	keystroke_g	g	n/a
37.641	0.12	75282	keystroke_Key.space	Key.space	n/a
37.942	0.089	75884	keystroke_i	i	n/a
38.136	0.09	76272	keystroke_n	n	n/a
38.271	0.075	76542	keystroke_t	t	n/a
38.451	0.135	76902	keystroke_e	e	n/a
38.541	0.12	77082	keystroke_r	r	n/a
38.916	0.105	77832	keystroke_Key.enter	Key.enter	n/a
39.0295	9.7745	78059	prompt	n/a	upper municipality theme hydraulic\n
39.666	0.075	79332	keystroke_u	u	n/a
39.861	0.076	79722	keystroke_p	p	n/a
40.011	0.09	80022	keystroke_p	p	n/a
40.161	0.09	80322	keystroke_e	e	n/a
40.371	0.076	80742	keystroke_r	r	n/a
40.476	0.075	80952	keystroke_Key.space	Key.space	n/a
40.656	0.075	81312	keystroke_m	m	n/a
40.836	0.06	81672	keystroke_u	u	n/a
41.016	0.075	82032	keystroke_n	n	n/a
41.212	0.089	82424	keystroke_i	i	n/a
41.676	0.105	83352	keystroke_c	c	n/a
41.856	0.12	83712	keystroke_i	i	n/a
42.246	0.09	84492	keystroke_p	p	n/a
42.471	0.165	84942	keystroke_a	a	n/a
42.681	0.105	85362	keystroke_l	l	n/a
42.936	0.09	85872	keystroke_i	i	n/a
43.162	0.09	86324	keystroke_t	t	n/a
43.371	0.091	86742	keystroke_y	y	n/a
43.581	0.09	87162	keystroke_Key.space	Key.space	n/a
43.821	0.105	87642	keystroke_t	t	n/a
43.987	0.104	87974	keystroke_h	h	n/a
44.106	0.135	88212	keystroke_e	e	n/a
44.301	0.105	88602	keystroke_m	m	n/a
44.481	0.09	88962	keystroke_e	e	n/a
44.677	0.089	89354	keystroke_Key.space	Key.space	n/a
45.382	0.089	90764	keystroke_h	h	n/a
45.726	0.075	91452	keystroke_Key.backspace	Key.backspace	n/a
46.041	0.091	92082	keystroke_h	h	n/a
46.267	0.105	92534	keystroke_y	y	n/a
46.596	0.091	93192	keystroke_d	d	n/a
47.001	0.106	94002	keystroke_r	r	n/a
47.286	0.165	94572	keystroke_a	a	n/a
47.556	0.106	95112	keystroke_u	u	n/a
47.871	0.045	95742	keystroke_l	l	n/a
48.081	0.09	96162	keystroke_i	i	n/a
48.232	0.104	96464	keystroke_c	c	n/a
48.696	0.105	97392	keystroke_Key.enter	Key.enter	n/a
48.809	7.824	97618	prompt	n/a	frequently puzzles stories headset\n
49.5215	0.0905	99043	keystroke_f	f	n/a
49.7165	0.12	99433	keystroke_r	r	n/a
49.792	0.105	99584	keystroke_e	e	n/a
50.0165	0.1205	100033	keystroke_q	q	n/a
50.1965	0.105	100393	keystroke_u	u	n/a
50.3465	0.135	100693	keystroke_e	e	n/a
50.4965	0.135	100993	keystroke_n	n	n/a
50.6465	0.06	101293	keystroke_t	t	n/a
50.7665	0.135	101533	keystroke_l	l	n/a
51.0515	0.075	102103	keystroke_y	y	n/a
51.2615	0.089	102523	keystroke_Key.space	Key.space	n/a
51.8615	0.075	103723	keystroke_p	p	n/a
52.0565	0.09	104113	keystroke_u	u	n/a
52.1915	0.24	104383	keystroke_z	z	n/a
52.8515	0.12	105703	keystroke_z	z	n/a
53.137	0.104	106274	keystroke_l	l	n/a
53.466	0.075	106932	keystroke_e	e	n/a
53.691	0.106	107382	keystroke_s	s	n/a
53.901	0.105	107802	keystroke_Key.space	Key.space	n/a
54.186	0.075	108372	keystroke_s	s	n/a
54.351	0.075	108702	keystroke_t	t	n/a
54.516	0.075	109032	keystroke_o	o	n/a
54.576	0.105	109152	keystroke_r	r	n/a
54.741	0.105	109482	keystroke_i	i	n/a
54.862	0.089	109724	keystroke_e	e	n/a
54.936	0.105	109872	keystroke_s	s	n/a
55.131	0.105	110262	keystroke_Key.space	Key.space	n/a
55.507	0.089	111014	keystroke_h	h	n/a
55.582	0.104	111164	keystroke_e	e	n/a
55.687	0.134	111374	keystroke_a	a	n/a
55.792	0.09	111584	keystroke_d	d	n/a
55.956	0.135	111912	keystroke_s	s	n/a
56.106	0.135	112212	keystroke_e	e	n/a
56.242	0.09	112484	keystroke_t	t	n/a
56.512	0.119	113024	keystroke_Key.enter	Key.enter	n/a
56.6405	4.2075	113281	prompt	n/a	nature tribe pins inform\n
57.321	0.105	114642	keystroke_n	n	n/a
57.442	0.134	114884	keystroke_a	a	n/a
57.546	0.091	115092	keystroke_t	t	n/a
57.696	0.105	115392	keystroke_u	u	n/a
57.802	0.104	115604	keystroke_r	r	n/a
57.846	0.105	115692	keystroke_e	e	n/a
57.996	0.105	115992	keystroke_Key.space	Key.space	n/a
58.116	0.06	116232	keystroke_t	t	n/a
58.251	0.105	116502	keystroke_r	r	n/a
58.371	0.06	116742	keystroke_i	i	n/a
58.551	0.106	117102	keystroke_b	b	n/a
58.702	0.09	117404	keystroke_e	e	n/a
58.851	0.105	117702	keystroke_Key.space	Key.space	n/a
59.151	0.061	118302	keystroke_p	p	n/a
59.332	0.105	118664	keystroke_i	i	n/a
59.421	0.15	118842	keystroke_n	n	n/a
59.616	0.135	119232	keystroke_s	s	n/a
59.781	0.105	119562	keystroke_Key.space	Key.space	n/a
60.007	0.074	120014	keystroke_i	i	n/a
60.111	0.121	120222	keystroke_n	n	n/a
60.246	0.075	120492	keystroke_f	f	n/a
60.351	0.091	120702	keystroke_o	o	n/a
60.457	0.089	120914	keystroke_r	r	n/a
60.576	0.075	121152	keystroke_m	m	n/a
60.756	0.09	121512	keystroke_Key.enter	Key.enter	n/a
60.852	6.2815	121704	prompt	n/a	crimes nations angels ceramic\n
61.567	0.075	123134	keystroke_c	c	n/a
61.717	0.104	123434	keystroke_r	r	n/a
61.807	0.059	123614	keystroke_i	i	n/a
61.942	0.134	123884	keystroke_m	m	n/a
62.091	0.075	124182	keystroke_e	e	n/a
62.151	0.136	124302	keystroke_s	s	n/a
62.436	0.12	124872	keystroke_Key.space	Key.space	n/a
62.767	0.089	125534	keystroke_n	n	n/a
62.857	0.179	125714	keystroke_a	a	n/a
62.991	0.105	125982	keystroke_t	t	n/a
63.112	0.059	126224	keystroke_i	i	n/a
63.216	0.15	126432	keystroke_o	o	n/a
63.291	0.121	126582	keystroke_n	n	n/a
63.487	0.089	126974	keystroke_s	s	n/a
63.696	0.105	127392	keystroke_Key.space	Key.space	n/a
64.207	0.12	128414	keystroke_a	a	n/a
64.401	0.12	128802	keystroke_n	n	n/a
64.582	0.075	129164	keystroke_g	g	n/a
64.746	0.106	129492	keystroke_e	e	n/a
64.956	0.12	129912	keystroke_l	l	n/a
65.136	0.106	130272	keystroke_s	s	n/a
65.421	0.075	130842	keystroke_Key.space	Key.space	n/a
65.706	0.09	131412	keystroke_c	c	n/a
65.887	0.105	131774	keystroke_e	e	n/a
66.142	0.059	132284	keystroke_r	r	n/a
66.337	0.134	132674	keystroke_a	a	n/a
66.576	0.075	133152	keystroke_m	m	n/a
66.711	0.09	133422	keystroke_i	i	n/a
66.831	0.09	133662	keystroke_c	c	n/a
67.011	0.12	134022	keystroke_Key.enter	Key.enter	n/a
67.1375	6.4005	134275	prompt	n/a	wearing ahead thru conduct\n
67.882	0.209	135764	keystroke_w	w	n/a
68.062	0.134	136124	keystroke_e	e	n/a
68.212	0.12	136424	keystroke_a	a	n/a
68.272	0.135	136544	keystroke_r	r	n/a
68.467	0.12	136934	keystroke_i	i	n/a
68.542	0.179	137084	keystroke_n	n	n/a
68.752	0.089	137504	keystroke_g	g	n/a
68.976	0.09	137952	keystroke_Key.space	Key.space	n/a
69.262	0.134	138524	keystroke_a	a	n/a
69.997	0.105	139994	keystroke_h	h	n/a
70.132	0.089	140264	keystroke_e	e	n/a
70.282	0.119	140564	keystroke_a	a	n/a
70.447	0.119	140894	keystroke_d	d	n/a
70.671	0.09	141342	keystroke_Key.space	Key.space	n/a
70.851	0.091	141702	keystroke_t	t	n/a
70.972	0.105	141944	keystroke_h	h	n/a
71.091	0.091	142182	keystroke_r	r	n/a
71.452	0.119	142904	keystroke_u	u	n/a
72.171	0.075	144342	keystroke_Key.space	Key.space	n/a
72.307	0.105	144614	keystroke_c	c	n/a
72.426	0.045	144852	keystroke_o	o	n/a
72.516	0.121	145032	keystroke_n	n	n/a
72.667	0.075	145334	keystroke_d	d	n/a
72.786	0.091	145572	keystroke_u	u	n/a
72.892	0.09	145784	keystroke_c	c	n/a
73.132	0.044	146264	keystroke_t	t	n/a
73.4315	0.105	146863	keystroke_Key.enter	Key.enter	n/a
73.542	21.4005	147084	prompt	n/a	thin illustrations uploaded entirely\n
74.3465	0.09	148693	keystroke_t	t	n/a
74.4515	0.06	148903	keystroke_h	h	n/a
74.5415	0.135	149083	keystroke_i	i	n/a
74.6615	0.105	149323	keystroke_n	n	n/a
74.7815	0.075	149563	keystroke_Key.space	Key.space	n/a
74.9465	0.075	149893	keystroke_i	i	n/a
75.1715	0.075	150343	keystroke_l	l	n/a
75.3365	0.06	150673	keystroke_l	l	n/a
75.5315	0.09	151063	keystroke_u	u	n/a
75.6515	0.075	151303	keystroke_s	s	n/a
75.7415	0.09	151483	keystroke_t	t	n/a
75.7565	0.015	151513	keystroke_s	s	n/a
75.8915	0.105	151783	keystroke_r	r	n/a
76.0115	0.15	152023	keystroke_a	a	n/a
76.0865	0.12	152173	keystroke_t	t	n/a
76.2515	0.09	152503	keystroke_i	i	n/a
76.3565	0.15	152713	keystroke_o	o	n/a
76.4615	0.105	152923	keystroke_n	n	n/a
76.5965	0.105	153193	keystroke_s	s	n/a
76.7465	0.105	153493	keystroke_Key.space	Key.space	n/a
77.1365	0.075	154273	keystroke_u	u	n/a
77.3165	0.09	154633	keystroke_p	p	n/a
77.6165	0.075	155233	keystroke_l	l	n/a
77.7665	0.12	155533	keystroke_o	o	n/a
77.8715	0.1045	155743	keystroke_a	a	n/a
77.9465	0.1045	155893	keystroke_d	d	n/a
78.142	0.06	156284	keystroke_e	e	n/a
78.352	0.06	156704	keystroke_d	d	n/a
78.546	0.09	157092	keystroke_Key.space	Key.space	n/a
80.391	0.075	160782	keystroke_Key.backspace	Key.backspace	n/a
80.706	0.06	161412	keystroke_Key.backspace	Key.backspace	n/a
82.341	0.075	164682	keystroke_Key.backspace	Key.backspace	n/a
82.626	0.06	165252	keystroke_Key.backspace	Key.backspace	n/a
82.896	0.075	165792	keystroke_Key.backspace	Key.backspace	n/a
83.181	0.06	166362	keystroke_Key.backspace	Key.backspace	n/a
83.511	0.06	167022	keystroke_Key.backspace	Key.backspace	n/a
83.826	0.075	167652	keystroke_Key.backspace	Key.backspace	n/a
85.701	0.09	171402	keystroke_Key.backspace	Key.backspace	n/a
86.136	0.075	172272	keystroke_Key.backspace	Key.backspace	n/a
86.886	0.09	173772	keystroke_r	r	n/a
87.111	0.12	174222	keystroke_a	a	n/a
87.396	0.09	174792	keystroke_t	t	n/a
87.591	0.105	175182	keystroke_i	i	n/a
87.801	0.105	175602	keystroke_o	o	n/a
87.981	0.135	175962	keystroke_n	n	n/a
88.251	0.105	176502	keystroke_s	s	n/a
88.866	0.12	177732	keystroke_Key.space	Key.space	n/a
89.121	0.09	178242	keystroke_u	u	n/a
89.331	0.09	178662	keystroke_p	p	n/a
89.556	0.075	179112	keystroke_l	l	n/a
89.706	0.105	179412	keystroke_o	o	n/a
89.826	0.09	179652	keystroke_a	a	n/a
89.961	0.105	179922	keystroke_d	d	n/a
90.246	0.075	180492	keystroke_e	e	n/a
90.531	0.075	181062	keystroke_d	d	n/a
90.936	0.105	181872	keystroke_Key.space	Key.space	n/a
91.296	0.105	182592	keystroke_e	e	n/a
91.491	0.12	182982	keystroke_n	n	n/a
91.671	0.09	183342	keystroke_t	t	n/a
91.821	0.12	183642	keystroke_i	i	n/a
91.971	0.135	183942	keystroke_r	r	n/a
92.091	0.12	184182	keystroke_e	e	n/a
92.271	0.105	184542	keystroke_l	l	n/a
92.586	0.09	185172	keystroke_y	y	n/a
94.914	0.027	189828	keystroke_Key.enter	Key.enter	n/a
94.948	8.6195	189896	prompt	n/a	emphasis bubble pavilion five\n
95.706	0.105	191412	keystroke_e	e	n/a
95.961	0.075	191922	keystroke_m	m	n/a
96.201	0.12	192402	keystroke_p	p	n/a
96.516	0.09	193032	keystroke_h	h	n/a
96.696	0.09	193392	keystroke_a	a	n/a
96.951	0.12	193902	keystroke_s	s	n/a
97.161	0.15	194322	keystroke_i	i	n/a
97.461	0.09	194922	keystroke_s	s	n/a
97.911	0.105	195822	keystroke_Key.space	Key.space	n/a
98.241	0.075	196482	keystroke_b	b	n/a
98.451	0.09	196902	keystroke_u	u	n/a
98.706	0.075	197412	keystroke_b	b	n/a
98.886	0.09	197772	keystroke_b	b	n/a
99.141	0.135	198282	keystroke_l	l	n/a
99.411	0.105	198822	keystroke_e	e	n/a
99.591	0.09	199182	keystroke_Key.space	Key.space	n/a
99.816	0.09	199632	keystroke_p	p	n/a
100.011	0.12	200022	keystroke_a	a	n/a
100.236	0.105	200472	keystroke_v	v	n/a
100.491	0.09	200982	keystroke_i	i	n/a
100.731	0.09	201462	keystroke_l	l	n/a
101.001	0.105	202002	keystroke_i	i	n/a
101.256	0.09	202512	keystroke_o	o	n/a
101.496	0.105	202992	keystroke_n	n	n/a
101.766	0.1055	203532	keystroke_Key.space	Key.space	n/a
102.081	0.12	204162	keystroke_f	f	n/a
102.321	0.105	204642	keystroke_i	i	n/a
102.516	0.075	205032	keystroke_v	v	n/a
102.726	0.075	205452	keystroke_e	e	n/a
103.461	0.105	206922	keystroke_Key.enter	Key.enter	n/a
103.572	6.4905	207144	prompt	n/a	add showtimes candy crew\n
104.256	0.105	208512	keystroke_a	a	n/a
104.496	0.075	208992	keystroke_d	d	n/a
104.691	0.06	209382	keystroke_d	d	n/a
104.871	0.09	209742	keystroke_Key.space	Key.space	n/a
105.186	0.105	210372	keystroke_s	s	n/a
105.351	0.09	210702	keystroke_h	h	n/a
105.546	0.12	211092	keystroke_o	o	n/a
105.801	0.105	211602	keystroke_w	w	n/a
106.266	0.105	212532	keystroke_t	t	n/a
106.446	0.075	212892	keystroke_i	i	n/a
106.641	0.105	213282	keystroke_m	m	n/a
106.791	0.075	213582	keystroke_e	e	n/a
107.016	0.09	214032	keystroke_s	s	n/a
107.466	0.105	214932	keystroke_Key.space	Key.space	n/a
107.646	0.105	215292	keystroke_c	c	n/a
107.796	0.135	215592	keystroke_a	a	n/a
107.961	0.09	215922	keystroke_n	n	n/a
108.096	0.12	216192	keystroke_d	d	n/a
108.321	0.075	216642	keystroke_y	y	n/a
108.681	0.105	217362	keystroke_Key.space	Key.space	n/a
108.951	0.09	217902	keystroke_c	c	n/a
109.206	0.09	218412	keystroke_r	r	n/a
109.416	0.105	218832	keystroke_e	e	n/a
109.656	0.09	219312	keystroke_w	w	n/a
109.926	0.135	219852	keystroke_Key.enter	Key.enter	n/a
110.0665	8.606	220133	prompt	n/a	portraits sage suggests imagine\n
110.811	0.09	221622	keystroke_p	p	n/a
111.096	0.105	222192	keystroke_o	o	n/a
111.351	0.09	222702	keystroke_r	r	n/a
111.606	0.09	223212	keystroke_t	t	n/a
111.921	0.075	223842	keystroke_r	r	n/a
112.191	0.105	224382	keystroke_a	a	n/a
112.476	0.09	224952	keystroke_i	i	n/a
112.701	0.075	225402	keystroke_t	t	n/a
112.926	0.105	225852	keystroke_s	s	n/a
113.451	0.105	226902	keystroke_Key.space	Key.space	n/a
113.826	0.09	227652	keystroke_s	s	n/a
113.991	0.15	227982	keystroke_a	a	n/a
114.201	0.09	228402	keystroke_g	g	n/a
114.426	0.075	228852	keystroke_e	e	n/a
114.651	0.09	229302	keystroke_Key.space	Key.space	n/a
115.026	0.105	230052	keystroke_s	s	n/a
115.206	0.09	230412	keystroke_u	u	n/a
115.386	0.06	230772	keystroke_g	g	n/a
115.521	0.075	231042	keystroke_g	g	n/a
115.701	0.075	231402	keystroke_e	e	n/a
115.866	0.105	231732	keystroke_s	s	n/a
116.106	0.06	232212	keystroke_t	t	n/a
116.556	0.09	233112	keystroke_s	s	n/a
116.886	0.075	233772	keystroke_Key.space	Key.space	n/a
117.066	0.09	234132	keystroke_i	i	n/a
117.276	0.105	234552	keystroke_m	m	n/a
117.531	0.105	235062	keystroke_a	a	n/a
117.711	0.105	235422	keystroke_g	g	n/a
117.846	0.075	235692	keystroke_i	i	n/a
118.026	0.09	236052	keystroke_n	n	n/a
118.176	0.075	236352	keystroke_e	e	n/a
118.566	0.105	237132	keystroke_Key.enter	Key.enter	n/a
118.676	8.6815	237352	prompt	n/a	viking veterinary rider contents\n
119.451	0.045	238902	keystroke_v	v	n/a
119.556	0.09	239112	keystroke_i	i	n/a
119.811	0.105	239622	keystroke_k	k	n/a
120.066	0.075	240132	keystroke_i	i	n/a
120.291	0.12	240582	keystroke_n	n	n/a
120.546	0.09	241092	keystroke_g	g	n/a
121.041	0.105	242082	keystroke_Key.space	Key.space	n/a
121.296	0.12	242592	keystroke_v	v	n/a
121.581	0.075	243162	keystroke_e	e	n/a
121.791	0.075	243582	keystroke_t	t	n/a
122.031	0.075	244062	keystroke_e	e	n/a
122.241	0.075	244482	keystroke_r	r	n/a
122.601	0.09	245202	keystroke_i	i	n/a
122.856	0.09	245712	keystroke_n	n	n/a
123.021	0.135	246042	keystroke_a	a	n/a
123.246	0.105	246492	keystroke_r	r	n/a
123.501	0.075	247002	keystroke_y	y	n/a
123.741	0.09	247482	keystroke_Key.space	Key.space	n/a
124.416	0.09	248832	keystroke_r	r	n/a
124.806	0.09	249612	keystroke_i	i	n/a
124.986	0.09	249972	keystroke_d	d	n/a
125.211	0.09	250422	keystroke_e	e	n/a
125.451	0.075	250902	keystroke_r	r	n/a
125.616	0.105	251232	keystroke_Key.space	Key.space	n/a
125.811	0.09	251622	keystroke_c	c	n/a
125.916	0.06	251832	keystroke_o	o	n/a
126.081	0.09	252162	keystroke_n	n	n/a
126.261	0.075	252522	keystroke_t	t	n/a
126.351	0.12	252702	keystroke_e	e	n/a
126.561	0.09	253122	keystroke_n	n	n/a
126.711	0.06	253422	keystroke_t	t	n/a
126.906	0.09	253812	keystroke_s	s	n/a
127.236	0.12	254472	keystroke_Key.enter	Key.enter	n/a
127.362	9.0115	254724	prompt	n/a	industries books exciting persons\n
127.971	0.075	255942	keystroke_i	i	n/a
128.181	0.105	256362	keystroke_n	n	n/a
128.331	0.105	256662	keystroke_d	d	n/a
128.466	0.105	256932	keystroke_u	u	n/a
128.616	0.105	257232	keystroke_s	s	n/a
128.811	0.075	257622	keystroke_t	t	n/a
128.991	0.105	257982	keystroke_r	r	n/a
129.186	0.12	258372	keystroke_i	i	n/a
129.381	0.075	258762	keystroke_e	e	n/a
129.516	0.09	259032	keystroke_s	s	n/a
130.266	0.075	260532	keystroke_Key.space	Key.space	n/a
130.476	0.075	260952	keystroke_b	b	n/a
130.641	0.09	261282	keystroke_o	o	n/a
130.851	0.105	261702	keystroke_o	o	n/a
131.091	0.105	262182	keystroke_k	k	n/a
131.286	0.105	262572	keystroke_s	s	n/a
131.466	0.09	262932	keystroke_Key.space	Key.space	n/a
131.736	0.09	263472	keystroke_e	e	n/a
132.006	0.105	264012	keystroke_x	x	n/a
132.246	0.105	264492	keystroke_c	c	n/a
132.411	0.15	264822	keystroke_i	i	n/a
132.681	0.09	265362	keystroke_t	t	n/a
132.861	0.075	265722	keystroke_i	i	n/a
133.071	0.12	266142	keystroke_n	n	n/a
133.281	0.09	266562	keystroke_g	g	n/a
133.701	0.105	267402	keystroke_Key.space	Key.space	n/a
134.001	0.105	268002	keystroke_p	p	n/a
134.466	0.105	268932	keystroke_e	e	n/a
134.661	0.09	269322	keystroke_r	r	n/a
135.021	0.105	270042	keystroke_s	s	n/a
135.306	0.105	270612	keystroke_o	o	n/a
135.501	0.135	271002	keystroke_n	n	n/a
135.741	0.075	271482	keystroke_s	s	n/a
136.281	0.09	272562	keystroke_Key.enter	Key.enter	n/a
136.3795	9.278	272759	prompt	n/a	selective threat techniques prison\n
137.077	0.074	274154	keystroke_s	s	n/a
137.316	0.09	274632	keystroke_e	e	n/a
137.481	0.12	274962	keystroke_l	l	n/a
137.706	0.09	275412	keystroke_e	e	n/a
137.886	0.105	275772	keystroke_c	c	n/a
138.126	0.09	276252	keystroke_t	t	n/a
138.291	0.12	276582	keystroke_i	i	n/a
138.501	0.075	277002	keystroke_v	v	n/a
138.711	0.075	277422	keystroke_e	e	n/a
139.086	0.135	278172	keystroke_Key.space	Key.space	n/a
139.356	0.105	278712	keystroke_t	t	n/a
139.551	0.105	279102	keystroke_h	h	n/a
139.731	0.105	279462	keystroke_r	r	n/a
140.136	0.09	280272	keystroke_e	e	n/a
140.331	0.12	280662	keystroke_a	a	n/a
140.856	0.105	281712	keystroke_t	t	n/a
141.171	0.105	282342	keystroke_Key.space	Key.space	n/a
141.336	0.105	282672	keystroke_t	t	n/a
141.756	0.09	283512	keystroke_e	e	n/a
142.071	0.105	284142	keystroke_c	c	n/a
142.296	0.09	284592	keystroke_h	h	n/a
142.581	0.09	285162	keystroke_n	n	n/a
142.821	0.09	285642	keystroke_i	i	n/a
143.016	0.12	286032	keystroke_q	q	n/a
143.211	0.09	286422	keystroke_u	u	n/a
143.376	0.075	286752	keystroke_e	e	n/a
143.631	0.105	287262	keystroke_s	s	n/a
143.856	0.09	287712	keystroke_Key.space	Key.space	n/a
144.006	0.12	288012	keystroke_p	p	n/a
144.291	0.105	288582	keystroke_r	r	n/a
144.741	0.12	289482	keystroke_i	i	n/a
144.936	0.105	289872	keystroke_s	s	n/a
145.131	0.09	290262	keystroke_o	o	n/a
145.266	0.105	290532	keystroke_n	n	n/a
145.551	0.105	291102	keystroke_Key.enter	Key.enter	n/a
145.6625	7.6755	291325	prompt	n/a	cleanup byte intention positions\n
146.346	0.105	292692	keystroke_c	c	n/a
146.496	0.09	292992	keystroke_l	l	n/a
146.601	0.105	293202	keystroke_e	e	n/a
146.721	0.135	293442	keystroke_a	a	n/a
146.901	0.09	293802	keystroke_n	n	n/a
147.156	0.09	294312	keystroke_u	u	n/a
147.411	0.09	294822	keystroke_p	p	n/a
147.726	0.06	295452	keystroke_Key.space	Key.space	n/a
147.936	0.0745	295872	keystroke_b	b	n/a
148.131	0.09	296262	keystroke_y	y	n/a
148.326	0.0895	296652	keystroke_t	t	n/a
148.581	0.0895	297162	keystroke_e	e	n/a
148.806	0.105	297612	keystroke_Key.space	Key.space	n/a
149.1955	0.09	298391	keystroke_i	i	n/a
149.421	0.1045	298842	keystroke_n	n	n/a
149.6305	0.0905	299261	keystroke_t	t	n/a
149.8255	0.105	299651	keystroke_e	e	n/a
150.0355	0.09	300071	keystroke_n	n	n/a
150.1855	0.1055	300371	keystroke_t	t	n/a
150.3505	0.105	300701	keystroke_i	i	n/a
150.5605	0.105	301121	keystroke_o	o	n/a
150.6955	0.165	301391	keystroke_n	n	n/a
151.071	0.1045	302142	keystroke_Key.space	Key.space	n/a
151.3255	0.09	302651	keystroke_p	p	n/a
151.5805	0.105	303161	keystroke_o	o	n/a
151.761	0.1195	303522	keystroke_s	s	n/a
152.0155	0.135	304031	keystroke_i	i	n/a
152.2105	0.09	304421	keystroke_t	t	n/a
152.3755	0.105	304751	keystroke_i	i	n/a
152.5705	0.06	305141	keystroke_o	o	n/a
152.6755	0.12	305351	keystroke_n	n	n/a
152.916	0.0745	305832	keystroke_s	s	n/a
153.2305	0.105	306461	keystroke_Key.enter	Key.enter	n/a
153.342	9.851	306684	prompt	n/a	differential montana budgets aspect\n
154.0405	0.105	308081	keystroke_d	d	n/a
154.2355	0.09	308471	keystroke_i	i	n/a
154.4605	0.075	308921	keystroke_f	f	n/a
154.6405	0.075	309281	keystroke_f	f	n/a
154.8955	0.105	309791	keystroke_e	e	n/a
155.1505	0.09	310301	keystroke_r	r	n/a
155.7055	0.121	311411	keystroke_e	e	n/a
155.9755	0.12	311951	keystroke_n	n	n/a
156.2455	0.075	312491	keystroke_t	t	n/a
156.4105	0.09	312821	keystroke_i	i	n/a
156.6505	0.12	313301	keystroke_a	a	n/a
156.8905	0.09	313781	keystroke_l	l	n/a
157.1305	0.105	314261	keystroke_Key.space	Key.space	n/a
157.5955	0.09	315191	keystroke_m	m	n/a
157.7755	0.09	315551	keystroke_o	o	n/a
158.0005	0.09	316001	keystroke_n	n	n/a
158.1805	0.075	316361	keystroke_t	t	n/a
158.2855	0.12	316571	keystroke_a	a	n/a
158.5555	0.105	317111	keystroke_n	n	n/a
158.8855	0.135	317771	keystroke_a	a	n/a
159.2455	0.12	318491	keystroke_Key.space	Key.space	n/a
159.7405	0.075	319481	keystroke_b	b	n/a
159.9505	0.09	319901	keystroke_u	u	n/a
160.1005	0.105	320201	keystroke_d	d	n/a
160.3105	0.075	320621	keystroke_g	g	n/a
160.4755	0.105	320951	keystroke_e	e	n/a
160.6555	0.09	321311	keystroke_t	t	n/a
160.8955	0.105	321791	keystroke_s	s	n/a
161.4355	0.105	322871	keystroke_Key.space	Key.space	n/a
161.6315	0.119	323263	keystroke_a	a	n/a
161.9455	0.105	323891	keystroke_s	s	n/a
162.2005	0.09	324401	keystroke_p	p	n/a
162.3955	0.09	324791	keystroke_e	e	n/a
162.5605	0.121	325121	keystroke_c	c	n/a
162.8155	0.075	325631	keystroke_t	t	n/a
163.0855	0.105	326171	keystroke_Key.enter	Key.enter	n/a
163.2	8.4675	326400	prompt	n/a	commitments wildlife miss calls\n
163.8215	0.06	327643	keystroke_a	a	n/a
164.1355	0.105	328271	keystroke_Key.backspace	Key.backspace	n/a
164.3005	0.105	328601	keystroke_c	c	n/a
164.6315	0.089	329263	keystroke_o	o	n/a
164.9605	0.075	329921	keystroke_m	m	n/a
165.1705	0.09	330341	keystroke_m	m	n/a
165.4715	0.074	330943	keystroke_i	i	n/a
165.7405	0.105	331481	keystroke_t	t	n/a
166.0405	0.12	332081	keystroke_m	m	n/a
166.2955	0.12	332591	keystroke_e	e	n/a
166.4605	0.12	332921	keystroke_n	n	n/a
166.6865	0.104	333373	keystroke_t	t	n/a
167.0155	0.09	334031	keystroke_s	s	n/a
167.2705	0.105	334541	keystroke_Key.space	Key.space	n/a
167.6305	0.12	335261	keystroke_w	w	n/a
167.8255	0.09	335651	keystroke_i	i	n/a
168.0365	0.104	336073	keystroke_l	l	n/a
168.1865	0.119	336373	keystroke_d	d	n/a
168.6055	0.075	337211	keystroke_l	l	n/a
168.8315	0.089	337663	keystroke_i	i	n/a
168.9965	0.089	337993	keystroke_f	f	n/a
169.1905	0.09	338381	keystroke_e	e	n/a
169.3705	0.06	338741	keystroke_Key.space	Key.space	n/a
169.5955	0.075	339191	keystroke_m	m	n/a
169.7755	0.09	339551	keystroke_i	i	n/a
170.0315	0.074	340063	keystroke_s	s	n/a
170.2405	0.075	340481	keystroke_s	s	n/a
170.3605	0.09	340721	keystroke_Key.space	Key.space	n/a
170.4955	0.12	340991	keystroke_c	c	n/a
170.6165	0.134	341233	keystroke_a	a	n/a
170.8265	0.119	341653	keystroke_l	l	n/a
171.0955	0.105	342191	keystroke_l	l	n/a
171.3055	0.075	342611	keystroke_s	s	n/a
171.5455	0.12	343091	keystroke_Key.enter	Key.enter	n/a
171.6735	9.7585	343347	prompt	n/a	supervisors ceremony shower elliott\n
172.2655	0.135	344531	keystroke_s	s	n/a
172.4765	0.089	344953	keystroke_u	u	n/a
172.7005	0.105	345401	keystroke_p	p	n/a
172.9105	0.075	345821	keystroke_e	e	n/a
173.151	0.075	346302	keystroke_r	r	n/a
173.495	0.106	346990	keystroke_v	v	n/a
173.75	0.09	347500	keystroke_i	i	n/a
173.99	0.106	347980	keystroke_s	s	n/a
174.2	0.09	348400	keystroke_o	o	n/a
174.38	0.076	348760	keystroke_r	r	n/a
174.59	0.106	349180	keystroke_s	s	n/a
174.905	0.105	349810	keystroke_Key.space	Key.space	n/a
175.34	0.091	350680	keystroke_c	c	n/a
175.506	0.089	351012	keystroke_e	e	n/a
175.73	0.075	351460	keystroke_r	r	n/a
175.985	0.075	351970	keystroke_e	e	n/a
176.225	0.09	352450	keystroke_m	m	n/a
176.436	0.09	352872	keystroke_o	o	n/a
176.646	0.09	353292	keystroke_n	n	n/a
176.916	0.074	353832	keystroke_y	y	n/a
177.125	0.09	354250	keystroke_Key.space	Key.space	n/a
177.32	0.12	354640	keystroke_c	c	n/a
177.695	0.105	355390	keystroke_Key.backspace	Key.backspace	n/a
177.906	0.12	355812	keystroke_s	s	n/a
178.16	0.09	356320	keystroke_h	h	n/a
178.31	0.1055	356620	keystroke_o	o	n/a
178.5055	0.135	357011	keystroke_w	w	n/a
178.7605	0.12	357521	keystroke_e	e	n/a
178.9855	0.105	357971	keystroke_r	r	n/a
179.2555	0.12	358511	keystroke_Key.space	Key.space	n/a
179.6305	0.075	359261	keystroke_e	e	n/a
179.9155	0.075	359831	keystroke_l	l	n/a
180.0805	0.09	360161	keystroke_l	l	n/a
180.3205	0.075	360641	keystroke_i	i	n/a
180.5155	0.105	361031	keystroke_o	o	n/a
180.7705	0.09	361541	keystroke_t	t	n/a
181.0105	0.09	362021	keystroke_t	t	n/a
181.3255	0.105	362651	keystroke_Key.enter	Key.enter	n/a
181.4355	9.4485	362871	prompt	n/a	search association touched rhythm\n
182.1055	0.075	364211	keystroke_s	s	n/a
182.3005	0.09	364601	keystroke_e	e	n/a
182.4055	0.15	364811	keystroke_a	a	n/a
182.5405	0.075	365081	keystroke_r	r	n/a
182.7805	0.09	365561	keystroke_c	c	n/a
183.0055	0.075	366011	keystroke_h	h	n/a
183.2005	0.105	366401	keystroke_Key.space	Key.space	n/a
183.3805	0.09	366761	keystroke_s	s	n/a
183.7705	0.09	367541	keystroke_Key.backspace	Key.backspace	n/a
183.9805	0.105	367961	keystroke_a	a	n/a
184.2055	0.075	368411	keystroke_s	s	n/a
184.3555	0.105	368711	keystroke_s	s	n/a
184.5205	0.105	369041	keystroke_o	o	n/a
184.9105	0.105	369821	keystroke_c	c	n/a
185.1355	0.09	370271	keystroke_i	i	n/a
185.3455	0.105	370691	keystroke_a	a	n/a
185.5405	0.105	371081	keystroke_t	t	n/a
185.7655	0.09	371531	keystroke_i	i	n/a
185.9305	0.12	371861	keystroke_o	o	n/a
186.1255	0.12	372251	keystroke_n	n	n/a
187.0555	0.09	374111	keystroke_Key.space	Key.space	n/a
187.2055	0.105	374411	keystroke_t	t	n/a
187.3555	0.06	374711	keystroke_o	o	n/a
187.5355	0.09	375071	keystroke_u	u	n/a
187.6855	0.09	375371	keystroke_c	c	n/a
187.8055	0.09	375611	keystroke_h	h	n/a
188.0155	0.075	376031	keystroke_e	e	n/a
188.2405	0.06	376481	keystroke_d	d	n/a
188.7655	0.075	377531	keystroke_Key.space	Key.space	n/a
189.2605	0.12	378521	keystroke_r	r	n/a
189.5305	0.105	379061	keystroke_h	h	n/a
189.7855	0.09	379571	keystroke_y	y	n/a
190.0555	0.09	380111	keystroke_t	t	n/a
190.2055	0.105	380411	keystroke_h	h	n/a
190.5055	0.09	381011	keystroke_m	m	n/a
190.7755	0.105	381551	keystroke_Key.enter	Key.enter	n/a
190.889	8.168	381778	prompt	n/a	romance truly editing louis\n
191.6005	0.105	383201	keystroke_r	r	n/a
191.7955	0.075	383591	keystroke_o	o	n/a
192.0655	0.09	384131	keystroke_m	m	n/a
192.2755	0.135	384551	keystroke_a	a	n/a
192.4855	0.105	384971	keystroke_n	n	n/a
192.8005	0.105	385601	keystroke_c	c	n/a
193.0855	0.09	386171	keystroke_e	e	n/a
193.3855	0.09	386771	keystroke_Key.space	Key.space	n/a
193.6555	0.06	387311	keystroke_t	t	n/a
193.8955	0.09	387791	keystroke_r	r	n/a
194.1655	0.015	388331	keystroke_u	u	n/a
194.3005	0.09	388601	keystroke_l	l	n/a
194.6155	0.09	389231	keystroke_y	y	n/a
194.8555	0.09	389711	keystroke_Key.space	Key.space	n/a
195.2905	0.075	390581	keystroke_e	e	n/a
195.7855	0.075	391571	keystroke_d	d	n/a
195.9955	0.135	391991	keystroke_i	i	n/a
196.2655	0.09	392531	keystroke_t	t	n/a
196.5055	0.09	393011	keystroke_i	i	n/a
196.8355	0.12	393671	keystroke_n	n	n/a
197.1055	0.09	394211	keystroke_g	g	n/a
197.5405	0.105	395081	keystroke_Key.space	Key.space	n/a
197.9755	0.06	395951	keystroke_l	l	n/a
198.1405	0.09	396281	keystroke_o	o	n/a
198.3655	0.075	396731	keystroke_u	u	n/a
198.5455	0.09	397091	keystroke_i	i	n/a
198.7405	0.075	397481	keystroke_s	s	n/a
198.9655	0.09	397931	keystroke_Key.enter	Key.enter	n/a
199.061	9.358	398122	prompt	n/a	liberty experts joseph expenditures\n
199.7905	0.075	399581	keystroke_l	l	n/a
199.9855	0.075	399971	keystroke_i	i	n/a
200.2255	0.075	400451	keystroke_b	b	n/a
200.4055	0.105	400811	keystroke_e	e	n/a
200.6005	0.09	401201	keystroke_r	r	n/a
200.7955	0.09	401591	keystroke_t	t	n/a
201.0505	0.09	402101	keystroke_y	y	n/a
201.2155	0.105	402431	keystroke_Key.space	Key.space	n/a
201.4555	0.09	402911	keystroke_e	e	n/a
201.6955	0.12	403391	keystroke_x	x	n/a
201.8605	0.105	403721	keystroke_p	p	n/a
202.0855	0.09	404171	keystroke_e	e	n/a
202.2955	0.09	404591	keystroke_r	r	n/a
202.4905	0.075	404981	keystroke_t	t	n/a
202.745	0.1055	405490	keystroke_s	s	n/a
203.0305	0.015	406061	keystroke_Key.space	Key.space	n/a
203.27	0.0905	406540	keystroke_j	j	n/a
203.4805	0.105	406961	keystroke_o	o	n/a
203.75	0.105	407500	keystroke_s	s	n/a
204.035	0.105	408070	keystroke_e	e	n/a
204.2755	0.0895	408551	keystroke_p	p	n/a
204.53	0.09	409060	keystroke_h	h	n/a
204.755	0.105	409510	keystroke_Key.space	Key.space	n/a
205.0405	0.0595	410081	keystroke_e	e	n/a
205.2955	0.12	410591	keystroke_x	x	n/a
205.4905	0.105	410981	keystroke_p	p	n/a
205.76	0.12	411520	keystroke_e	e	n/a
206.045	0.09	412090	keystroke_n	n	n/a
206.315	0.09	412630	keystroke_d	d	n/a
206.6	0.105	413200	keystroke_i	i	n/a
206.96	0.105	413920	keystroke_t	t	n/a
207.26	0.12	414520	keystroke_u	u	n/a
207.485	0.06	414970	keystroke_r	r	n/a
207.785	0.075	415570	keystroke_e	e	n/a
208.04	0.09	416080	keystroke_s	s	n/a
208.31	0.105	416620	keystroke_Key.enter	Key.enter	n/a
208.4245	9.0225	416849	prompt	n/a	receives clinic hang evaluate\n
209.03	0.09	418060	keystroke_r	r	n/a
209.225	0.09	418450	keystroke_e	e	n/a
209.495	0.075	418990	keystroke_c	c	n/a
210.05	0.105	420100	keystroke_e	e	n/a
210.35	0.105	420700	keystroke_i	i	n/a
210.635	0.075	421270	keystroke_v	v	n/a
210.86	0.075	421720	keystroke_e	e	n/a
211.1	0.09	422200	keystroke_s	s	n/a
211.64	0.12	423280	keystroke_Key.space	Key.space	n/a
211.91	0.105	423820	keystroke_c	c	n/a
212.165	0.075	424330	keystroke_l	l	n/a
212.39	0.09	424780	keystroke_i	i	n/a
212.615	0.09	425230	keystroke_n	n	n/a
212.825	0.076	425650	keystroke_i	i	n/a
213.11	0.105	426220	keystroke_c	c	n/a
213.62	0.09	427240	keystroke_Key.space	Key.space	n/a
213.875	0.075	427750	keystroke_h	h	n/a
214.01	0.15	428020	keystroke_a	a	n/a
214.16	0.15	428320	keystroke_n	n	n/a
214.385	0.09	428770	keystroke_g	g	n/a
214.58	0.12	429160	keystroke_Key.space	Key.space	n/a
214.88	0.09	429760	keystroke_e	e	n/a
215.105	0.09	430210	keystroke_v	v	n/a
215.3305	0.12	430661	keystroke_a	a	n/a
215.6305	0.015	431261	keystroke_l	l	n/a
215.7505	0.075	431501	keystroke_u	u	n/a
216.0655	0.06	432131	keystroke_t	t	n/a
216.5155	0.09	433031	keystroke_Key.backspace	Key.backspace	n/a
216.6355	0.15	433271	keystroke_a	a	n/a
216.8755	0.075	433751	keystroke_t	t	n/a
217.0555	0.09	434111	keystroke_e	e	n/a
217.3255	0.12	434651	keystroke_Key.enter	Key.enter	n/a
217.451	6.401	434902	prompt	n/a	minnesota movie five make\n
218.1955	0.075	436391	keystroke_m	m	n/a
218.3905	0.075	436781	keystroke_i	i	n/a
218.6005	0.075	437201	keystroke_n	n	n/a
218.7805	0.105	437561	keystroke_n	n	n/a
218.9755	0.075	437951	keystroke_e	e	n/a
219.2005	0.105	438401	keystroke_s	s	n/a
219.4255	0.09	438851	keystroke_o	o	n/a
219.6355	0.09	439271	keystroke_t	t	n/a
219.8005	0.12	439601	keystroke_a	a	n/a
220.3555	0.09	440711	keystroke_Key.space	Key.space	n/a
220.5805	0.075	441161	keystroke_m	m	n/a
220.8205	0.105	441641	keystroke_o	o	n/a
221.0605	0.105	442121	keystroke_v	v	n/a
221.2255	0.12	442451	keystroke_i	i	n/a
221.4805	0.09	442961	keystroke_e	e	n/a
221.6755	0.105	443351	keystroke_Key.space	Key.space	n/a
221.9155	0.105	443831	keystroke_f	f	n/a
222.1105	0.09	444221	keystroke_i	i	n/a
222.2755	0.06	444551	keystroke_v	v	n/a
222.5755	0.09	445151	keystroke_e	e	n/a
222.8455	0.09	445691	keystroke_Key.space	Key.space	n/a
223.0705	0.09	446141	keystroke_m	m	n/a
223.2055	0.15	446411	keystroke_a	a	n/a
223.3255	0.09	446651	keystroke_k	k	n/a
223.5055	0.06	447011	keystroke_e	e	n/a
223.7305	0.12	447461	keystroke_Key.enter	Key.enter	n/a
223.856	7.2265	447712	prompt	n/a	gardens hoping warm comply\n
224.4805	0.09	448961	keystroke_g	g	n/a
224.6155	0.12	449231	keystroke_a	a	n/a
224.8255	0.075	449651	keystroke_r	r	n/a
225.1105	0.105	450221	keystroke_d	d	n/a
225.4555	0.105	450911	keystroke_e	e	n/a
225.6805	0.09	451361	keystroke_n	n	n/a
226.1755	0.09	452351	keystroke_s	s	n/a
226.4005	0.075	452801	keystroke_Key.space	Key.space	n/a
226.6255	0.09	453251	keystroke_h	h	n/a
226.7905	0.09	453581	keystroke_o	o	n/a
227.0155	0.075	454031	keystroke_p	p	n/a
227.2405	0.075	454481	keystroke_i	i	n/a
227.4655	0.09	454931	keystroke_n	n	n/a
227.7355	0.075	455471	keystroke_g	g	n/a
228.0505	0.105	456101	keystroke_Key.space	Key.space	n/a
228.2605	0.09	456521	keystroke_w	w	n/a
228.5005	0.09	457001	keystroke_a	a	n/a
228.6805	0.105	457361	keystroke_r	r	n/a
228.9055	0.09	457811	keystroke_m	m	n/a
229.1305	0.105	458261	keystroke_Key.space	Key.space	n/a
229.5505	0.105	459101	keystroke_c	c	n/a
229.7455	0.075	459491	keystroke_o	o	n/a
229.9405	0.09	459881	keystroke_m	m	n/a
230.1505	0.0605	460301	keystroke_p	p	n/a
230.346	0.09	460692	keystroke_l	l	n/a
230.661	0.075	461322	keystroke_y	y	n/a
230.976	0.105	461952	keystroke_Key.enter	Key.enter	n/a
231.0875	9.6255	462175	prompt	n/a	rwanda templates zealand than\n
231.741	0.135	463482	keystroke_w	w	n/a
232.071	0.105	464142	keystroke_r	r	n/a
232.881	0.075	465762	keystroke_Key.backspace	Key.backspace	n/a
233.061	0.09	466122	keystroke_Key.backspace	Key.backspace	n/a
233.391	0.12	466782	keystroke_r	r	n/a
233.751	0.09	467502	keystroke_w	w	n/a
234.006	0.135	468012	keystroke_a	a	n/a
234.321	0.12	468642	keystroke_n	n	n/a
234.576	0.09	469152	keystroke_d	d	n/a
234.831	0.135	469662	keystroke_a	a	n/a
235.101	0.105	470202	keystroke_Key.space	Key.space	n/a
235.431	0.075	470862	keystroke_t	t	n/a
235.641	0.105	471282	keystroke_e	e	n/a
235.866	0.09	471732	keystroke_m	m	n/a
236.091	0.075	472182	keystroke_p	p	n/a
236.2855	0.1205	472571	keystroke_l	l	n/a
236.466	0.12	472932	keystroke_a	a	n/a
236.691	0.09	473382	keystroke_t	t	n/a
236.916	0.09	473832	keystroke_e	e	n/a
237.126	0.09	474252	keystroke_s	s	n/a
237.59	0.106	475180	keystroke_Key.space	Key.space	n/a
237.965	0.12	475930	keystroke_z	z	n/a
238.205	0.06	476410	keystroke_e	e	n/a
238.415	0.135	476830	keystroke_a	a	n/a
238.64	0.09	477280	keystroke_l	l	n/a
238.91	0.15	477820	keystroke_a	a	n/a
239.121	0.105	478242	keystroke_n	n	n/a
239.361	0.149	478722	keystroke_d	d	n/a
239.57	0.105	479140	keystroke_Key.space	Key.space	n/a
239.705	0.105	479410	keystroke_t	t	n/a
239.84	0.106	479680	keystroke_h	h	n/a
239.99	0.15	479980	keystroke_a	a	n/a
240.2	0.121	480400	keystroke_n	n	n/a
240.605	0.105	481210	keystroke_Key.enter	Key.enter	n/a
240.718	7.614	481436	prompt	n/a	refuse compromise sigma north\n
241.355	0.09	482710	keystroke_r	r	n/a
241.505	0.105	483010	keystroke_e	e	n/a
241.745	0.121	483490	keystroke_f	f	n/a
241.941	0.104	483882	keystroke_u	u	n/a
242.105	0.09	484210	keystroke_s	s	n/a
242.345	0.076	484690	keystroke_e	e	n/a
242.9	0.105	485800	keystroke_Key.space	Key.space	n/a
243.096	0.134	486192	keystroke_c	c	n/a
243.291	0.089	486582	keystroke_o	o	n/a
243.5	0.09	487000	keystroke_m	m	n/a
243.77	0.106	487540	keystroke_p	p	n/a
243.98	0.105	487960	keystroke_r	r	n/a
244.221	0.105	488442	keystroke_o	o	n/a
244.536	0.089	489072	keystroke_m	m	n/a
244.761	0.104	489522	keystroke_i	i	n/a
244.941	0.089	489882	keystroke_s	s	n/a
245.211	0.09	490422	keystroke_e	e	n/a
245.435	0.09	490870	keystroke_Key.space	Key.space	n/a
245.6	0.121	491200	keystroke_s	s	n/a
245.811	0.09	491622	keystroke_i	i	n/a
245.976	0.12	491952	keystroke_g	g	n/a
246.201	0.12	492402	keystroke_m	m	n/a
246.47	0.106	492940	keystroke_a	a	n/a
246.77	0.105	493540	keystroke_Key.space	Key.space	n/a
247.071	0.075	494142	keystroke_n	n	n/a
247.265	0.121	494530	keystroke_o	o	n/a
247.43	0.12	494860	keystroke_r	r	n/a
247.626	0.105	495252	keystroke_t	t	n/a
247.866	0.075	495732	keystroke_h	h	n/a
248.211	0.119	496422	keystroke_Key.enter	Key.enter	n/a
248.336	9.431	496672	prompt	n/a	sometimes hats enemies charlotte\n
248.901	0.149	497802	keystroke_s	s	n/a
249.141	0.089	498282	keystroke_o	o	n/a
249.41	0.076	498820	keystroke_m	m	n/a
249.606	0.09	499212	keystroke_e	e	n/a
249.861	0.09	499722	keystroke_t	t	n/a
250.041	0.075	500082	keystroke_i	i	n/a
250.221	0.119	500442	keystroke_m	m	n/a
250.461	0.075	500922	keystroke_e	e	n/a
250.76	0.106	501520	keystroke_s	s	n/a
251.211	0.089	502422	keystroke_Key.space	Key.space	n/a
251.48	0.076	502960	keystroke_h	h	n/a
251.631	0.135	503262	keystroke_a	a	n/a
251.856	0.075	503712	keystroke_t	t	n/a
252.156	0.105	504312	keystroke_s	s	n/a
252.411	0.09	504822	keystroke_Key.space	Key.space	n/a
252.726	0.135	505452	keystroke_e	e	n/a
253.281	0.089	506562	keystroke_n	n	n/a
253.551	0.06	507102	keystroke_e	e	n/a
254.136	0.105	508272	keystroke_m	m	n/a
254.376	0.09	508752	keystroke_i	i	n/a
254.616	0.06	509232	keystroke_e	e	n/a
254.871	0.105	509742	keystroke_s	s	n/a
255.126	0.089	510252	keystroke_Key.space	Key.space	n/a
255.456	0.09	510912	keystroke_c	c	n/a
255.681	0.075	511362	keystroke_h	h	n/a
255.92	0.091	511840	keystroke_a	a	n/a
256.191	0.09	512382	keystroke_r	r	n/a
256.491	0.105	512982	keystroke_l	l	n/a
256.761	0.105	513522	keystroke_o	o	n/a
257.016	0.06	514032	keystroke_t	t	n/a
257.166	0.075	514332	keystroke_t	t	n/a
257.391	0.075	514782	keystroke_e	e	n/a
257.645	0.121	515290	keystroke_Key.enter	Key.enter	n/a
257.7735	8.469	515547	prompt	n/a	auditor dare companion norway\n
258.366	0.15	516732	keystroke_a	a	n/a
258.621	0.105	517242	keystroke_u	u	n/a
258.831	0.12	517662	keystroke_d	d	n/a
259.041	0.119	518082	keystroke_i	i	n/a
259.266	0.105	518532	keystroke_t	t	n/a
259.461	0.15	518922	keystroke_o	o	n/a
259.701	0.09	519402	keystroke_r	r	n/a
260	0.106	520000	keystroke_Key.space	Key.space	n/a
260.256	0.09	520512	keystroke_d	d	n/a
260.466	0.15	520932	keystroke_a	a	n/a
260.811	0.105	521622	keystroke_r	r	n/a
261.066	0.075	522132	keystroke_e	e	n/a
261.336	0.09	522672	keystroke_Key.space	Key.space	n/a
261.726	0.12	523452	keystroke_c	c	n/a
261.996	0.09	523992	keystroke_o	o	n/a
262.281	0.12	524562	keystroke_m	m	n/a
262.521	0.09	525042	keystroke_p	p	n/a
262.716	0.135	525432	keystroke_a	a	n/a
262.911	0.075	525822	keystroke_n	n	n/a
263.121	0.09	526242	keystroke_i	i	n/a
263.316	0.105	526632	keystroke_o	o	n/a
263.571	0.105	527142	keystroke_n	n	n/a
264.036	0.09	528072	keystroke_Key.space	Key.space	n/a
264.261	0.09	528522	keystroke_n	n	n/a
264.426	0.12	528852	keystroke_o	o	n/a
264.591	0.105	529182	keystroke_r	r	n/a
264.726	0.12	529452	keystroke_m	m	n/a
265.086	0.09	530172	keystroke_Key.backspace	Key.backspace	n/a
265.251	0.105	530502	keystroke_w	w	n/a
265.656	0.105	531312	keystroke_a	a	n/a
265.836	0.09	531672	keystroke_y	y	n/a
266.136	0.105	532272	keystroke_Key.enter	Key.enter	n/a
266.247	10.06	532494	prompt	n/a	jacksonville sources ones remaining\n
266.871	0.12	533742	keystroke_j	j	n/a
267.141	0.135	534282	keystroke_a	a	n/a
267.306	0.135	534612	keystroke_c	c	n/a
267.561	0.09	535122	keystroke_k	k	n/a
267.771	0.105	535542	keystroke_s	s	n/a
268.071	0.09	536142	keystroke_o	o	n/a
268.341	0.09	536682	keystroke_n	n	n/a
268.641	0.105	537282	keystroke_v	v	n/a
268.866	0.09	537732	keystroke_i	i	n/a
269.061	0.105	538122	keystroke_l	l	n/a
269.301	0.09	538602	keystroke_l	l	n/a
269.5855	0.105	539171	keystroke_e	e	n/a
269.8255	0.09	539651	keystroke_Key.space	Key.space	n/a
270.7405	0.12	541481	keystroke_s	s	n/a
270.9355	0.12	541871	keystroke_o	o	n/a
271.1605	0.105	542321	keystroke_u	u	n/a
271.3405	0.09	542681	keystroke_r	r	n/a
271.5655	0.075	543131	keystroke_c	c	n/a
271.7755	0.06	543551	keystroke_e	e	n/a
272.0005	0.12	544001	keystroke_s	s	n/a
272.3005	0.09	544601	keystroke_Key.space	Key.space	n/a
272.5105	0.075	545021	keystroke_o	o	n/a
272.7055	0.105	545411	keystroke_n	n	n/a
272.9455	0.075	545891	keystroke_e	e	n/a
273.1555	0.105	546311	keystroke_s	s	n/a
273.4855	0.12	546971	keystroke_Key.space	Key.space	n/a
273.7705	0.075	547541	keystroke_r	r	n/a
273.9805	0.09	547961	keystroke_e	e	n/a
274.3255	0.075	548651	keystroke_m	m	n/a
274.8055	0.15	549611	keystroke_a	a	n/a
275.1055	0.06	550211	keystroke_i	i	n/a
275.3605	0.09	550721	keystroke_n	n	n/a
275.6005	0.075	551201	keystroke_i	i	n/a
275.7955	0.075	551591	keystroke_n	n	n/a
275.9455	0.09	551891	keystroke_g	g	n/a
276.2155	0.09	552431	keystroke_Key.enter	Key.enter	n/a
276.3115	9.416	552623	prompt	n/a	stakeholders symbols dairy providers\n
276.9355	0.09	553871	keystroke_s	s	n/a
277.1605	0.09	554321	keystroke_t	t	n/a
277.3705	0.105	554741	keystroke_a	a	n/a
277.6405	0.105	555281	keystroke_k	k	n/a
277.8505	0.075	555701	keystroke_e	e	n/a
278.0755	0.09	556151	keystroke_h	h	n/a
278.1805	0.09	556361	keystroke_o	o	n/a
278.4055	0.12	556811	keystroke_l	l	n/a
278.6305	0.09	557261	keystroke_d	d	n/a
278.8705	0.12	557741	keystroke_e	e	n/a
279.0205	0.12	558041	keystroke_r	r	n/a
279.3355	0.105	558671	keystroke_s	s	n/a
279.8905	0.105	559781	keystroke_Key.space	Key.space	n/a
280.2055	0.12	560411	keystroke_s	s	n/a
280.4305	0.075	560861	keystroke_y	y	n/a
280.6705	0.075	561341	keystroke_m	m	n/a
280.9105	0.075	561821	keystroke_b	b	n/a
281.1055	0.09	562211	keystroke_o	o	n/a
281.3455	0.105	562691	keystroke_l	l	n/a
281.6455	0.135	563291	keystroke_s	s	n/a
281.9455	0.135	563891	keystroke_Key.space	Key.space	n/a
282.2155	0.105	564431	keystroke_d	d	n/a
282.4555	0.12	564911	keystroke_a	a	n/a
282.6505	0.09	565301	keystroke_i	i	n/a
282.8905	0.09	565781	keystroke_r	r	n/a
283.1755	0.09	566351	keystroke_y	y	n/a
283.4155	0.075	566831	keystroke_Key.space	Key.space	n/a
283.6705	0.105	567341	keystroke_p	p	n/a
283.8505	0.12	567701	keystroke_r	r	n/a
284.0755	0.105	568151	keystroke_o	o	n/a
284.2405	0.105	568481	keystroke_v	v	n/a
284.4055	0.09	568811	keystroke_i	i	n/a
284.5705	0.09	569141	keystroke_d	d	n/a
284.8255	0.12	569651	keystroke_e	e	n/a
285.0055	0.12	570011	keystroke_r	r	n/a
285.3055	0.105	570611	keystroke_s	s	n/a
285.6055	0.12	571211	keystroke_Key.enter	Key.enter	n/a
285.732	8.2595	571464	prompt	n/a	tale intelligence shades jeans\n
286.5355	0.09	573071	keystroke_t	t	n/a
286.6405	0.135	573281	keystroke_a	a	n/a
286.8205	0.105	573641	keystroke_l	l	n/a
287.0305	0.105	574061	keystroke_e	e	n/a
287.1805	0.075	574361	keystroke_Key.space	Key.space	n/a
287.4205	0.075	574841	keystroke_i	i	n/a
287.6755	0.09	575351	keystroke_n	n	n/a
287.8555	0.09	575711	keystroke_t	t	n/a
288.0505	0.075	576101	keystroke_e	e	n/a
288.2455	0.105	576491	keystroke_l	l	n/a
288.4405	0.09	576881	keystroke_l	l	n/a
288.7255	0.09	577451	keystroke_i	i	n/a
288.9805	0.09	577961	keystroke_g	g	n/a
289.2205	0.105	578441	keystroke_e	e	n/a
289.4605	0.12	578921	keystroke_n	n	n/a
289.7305	0.075	579461	keystroke_c	c	n/a
290.0005	0.09	580001	keystroke_e	e	n/a
290.2705	0.09	580541	keystroke_Key.space	Key.space	n/a
290.4205	0.135	580841	keystroke_s	s	n/a
290.6455	0.09	581291	keystroke_h	h	n/a
290.8405	0.105	581681	keystroke_a	a	n/a
291.0655	0.09	582131	keystroke_d	d	n/a
291.2905	0.075	582581	keystroke_e	e	n/a
291.5305	0.105	583061	keystroke_s	s	n/a
291.8005	0.09	583601	keystroke_Key.space	Key.space	n/a
291.9655	0.105	583931	keystroke_j	j	n/a
292.1305	0.105	584261	keystroke_a	a	n/a
292.73	0.09	585460	keystroke_Key.backspace	Key.backspace	n/a
292.94	0.09	585880	keystroke_e	e	n/a
293.15	0.12	586300	keystroke_a	a	n/a
293.405	0.09	586810	keystroke_n	n	n/a
293.63	0.09	587260	keystroke_s	s	n/a
293.885	0.105	587770	keystroke_Key.enter	Key.enter	n/a
293.995	12.2365	587990	prompt	n/a	christians challenge illustration powered\n
294.68	0.12	589360	keystroke_c	c	n/a
294.875	0.105	589750	keystroke_h	h	n/a
295.115	0.09	590230	keystroke_r	r	n/a
295.34	0.15	590680	keystroke_i	i	n/a
295.58	0.105	591160	keystroke_s	s	n/a
296.045	0.105	592090	keystroke_t	t	n/a
296.33	0.105	592660	keystroke_i	i	n/a
296.51	0.15	593020	keystroke_a	a	n/a
296.765	0.105	593530	keystroke_n	n	n/a
297.035	0.09	594070	keystroke_s	s	n/a
297.545	0.09	595090	keystroke_Key.space	Key.space	n/a
297.695	0.15	595390	keystroke_c	c	n/a
297.905	0.09	595810	keystroke_h	h	n/a
298.055	0.135	596110	keystroke_a	a	n/a
298.37	0.12	596740	keystroke_l	l	n/a
298.7	0.09	597400	keystroke_l	l	n/a
298.94	0.09	597880	keystroke_e	e	n/a
299.135	0.075	598270	keystroke_n	n	n/a
299.375	0.09	598750	keystroke_g	g	n/a
299.615	0.09	599230	keystroke_e	e	n/a
299.84	0.075	599680	keystroke_Key.space	Key.space	n/a
300.08	0.06	600160	keystroke_i	i	n/a
300.35	0.075	600700	keystroke_l	l	n/a
300.56	0.06	601120	keystroke_l	l	n/a
300.8	0.09	601600	keystroke_u	u	n/a
300.995	0.075	601990	keystroke_s	s	n/a
301.82	0.06	603640	keystroke_t	t	n/a
302.045	0.09	604090	keystroke_r	r	n/a
302.285	0.1195	604570	keystroke_a	a	n/a
302.5095	0.09	605019	keystroke_t	t	n/a
302.7195	0.091	605439	keystroke_i	i	n/a
302.9295	0.075	605859	keystroke_o	o	n/a
303.0495	0.15	606099	keystroke_n	n	n/a
303.9495	0.091	607899	keystroke_Key.space	Key.space	n/a
304.1905	0.089	608381	keystroke_p	p	n/a
304.4155	0.089	608831	keystroke_o	o	n/a
304.5955	0.105	609191	keystroke_w	w	n/a
304.8195	0.091	609639	keystroke_e	e	n/a
305.0155	0.104	610031	keystroke_r	r	n/a
305.2545	0.091	610509	keystroke_e	e	n/a
305.5855	0.074	611171	keystroke_d	d	n/a
306.1255	0.104	612251	keystroke_Key.enter	Key.enter	n/a
306.236	8.3665	612472	prompt	n/a	broadcast recipients jesus oclc\n
306.9805	0.105	613961	keystroke_b	b	n/a
307.1155	0.105	614231	keystroke_r	r	n/a
307.2495	0.105	614499	keystroke_o	o	n/a
307.3855	0.119	614771	keystroke_a	a	n/a
307.5955	0.105	615191	keystroke_d	d	n/a
307.8345	0.106	615669	keystroke_c	c	n/a
308.0455	0.12	616091	keystroke_a	a	n/a
308.2545	0.106	616509	keystroke_s	s	n/a
308.4955	0.075	616991	keystroke_t	t	n/a
308.7495	0.105	617499	keystroke_Key.space	Key.space	n/a
309.0055	0.09	618011	keystroke_r	r	n/a
309.275	0.06	618550	keystroke_e	e	n/a
309.515	0.09	619030	keystroke_c	c	n/a
309.68	0.12	619360	keystroke_i	i	n/a
309.92	0.105	619840	keystroke_p	p	n/a
310.22	0.09	620440	keystroke_i	i	n/a
310.415	0.135	620830	keystroke_e	e	n/a
310.58	0.105	621160	keystroke_n	n	n/a
310.79	0.075	621580	keystroke_t	t	n/a
311.015	0.105	622030	keystroke_s	s	n/a
311.465	0.09	622930	keystroke_Key.space	Key.space	n/a
311.615	0.12	623230	keystroke_j	j	n/a
311.765	0.09	623530	keystroke_e	e	n/a
312.035	0.12	624070	keystroke_s	s	n/a
312.23	0.135	624460	keystroke_u	u	n/a
312.455	0.09	624910	keystroke_s	s	n/a
313.01	0.105	626020	keystroke_Key.space	Key.space	n/a
313.28	0.105	626560	keystroke_o	o	n/a
313.58	0.12	627160	keystroke_c	c	n/a
313.865	0.135	627730	keystroke_l	l	n/a
314.18	0.105	628360	keystroke_c	c	n/a
314.495	0.105	628990	keystroke_Key.enter	Key.enter	n/a
314.609	6.4285	629218	prompt	n/a	wall taken blogger seal\n
315.65	0.09	631300	keystroke_w	w	n/a
315.875	0.12	631750	keystroke_a	a	n/a
316.1	0.075	632200	keystroke_l	l	n/a
316.28	0.06	632560	keystroke_l	l	n/a
316.415	0.105	632830	keystroke_Key.space	Key.space	n/a
316.55	0.09	633100	keystroke_t	t	n/a
316.7	0.15	633400	keystroke_a	a	n/a
316.925	0.09	633850	keystroke_k	k	n/a
317.165	0.075	634330	keystroke_e	e	n/a
317.435	0.075	634870	keystroke_n	n	n/a
317.66	0.09	635320	keystroke_Key.space	Key.space	n/a
317.93	0.105	635860	keystroke_b	b	n/a
318.185	0.075	636370	keystroke_l	l	n/a
318.395	0.09	636790	keystroke_o	o	n/a
318.68	0.075	637360	keystroke_g	g	n/a
318.83	0.105	637660	keystroke_g	g	n/a
319.07	0.105	638140	keystroke_e	e	n/a
319.34	0.09	638680	keystroke_r	r	n/a
319.61	0.105	639220	keystroke_Key.space	Key.space	n/a
319.895	0.15	639790	keystroke_s	s	n/a
320.21	0.075	640420	keystroke_e	e	n/a
320.375	0.12	640750	keystroke_a	a	n/a
320.555	0.105	641110	keystroke_l	l	n/a
320.93	0.105	641860	keystroke_Key.enter	Key.enter	n/a
321.043	8.289	642086	prompt	n/a	bars enormous subaru nickname\n
321.725	0.09	643450	keystroke_b	b	n/a
321.875	0.12	643750	keystroke_a	a	n/a
322.055	0.09	644110	keystroke_r	r	n/a
322.295	0.09	644590	keystroke_s	s	n/a
322.73	0.105	645460	keystroke_Key.space	Key.space	n/a
323.15	0.105	646300	keystroke_e	e	n/a
323.405	0.09	646810	keystroke_n	n	n/a
323.75	0.12	647500	keystroke_o	o	n/a
324.005	0.105	648010	keystroke_r	r	n/a
324.23	0.09	648460	keystroke_m	m	n/a
324.485	0.106	648970	keystroke_o	o	n/a
324.8	0.12	649600	keystroke_u	u	n/a
325.085	0.075	650170	keystroke_s	s	n/a
325.4	0.135	650800	keystroke_Key.space	Key.space	n/a
325.82	0.09	651640	keystroke_s	s	n/a
326.075	0.105	652150	keystroke_u	u	n/a
326.391	0.089	652782	keystroke_b	b	n/a
326.585	0.09	653170	keystroke_a	a	n/a
326.78	0.09	653560	keystroke_r	r	n/a
327.035	0.09	654070	keystroke_u	u	n/a
327.59	0.09	655180	keystroke_Key.space	Key.space	n/a
327.815	0.09	655630	keystroke_n	n	n/a
327.98	0.106	655960	keystroke_i	i	n/a
328.13	0.12	656260	keystroke_c	c	n/a
328.265	0.09	656530	keystroke_k	k	n/a
328.535	0.075	657070	keystroke_n	n	n/a
328.685	0.135	657370	keystroke_a	a	n/a
328.805	0.09	657610	keystroke_m	m	n/a
328.985	0.075	657970	keystroke_e	e	n/a
329.24	0.09	658480	keystroke_Key.enter	Key.enter	n/a
329.3375	6.8195	658675	prompt	n/a	monitors until confirm crazy\n
330.17	0.09	660340	keystroke_m	m	n/a
330.365	0.105	660730	keystroke_o	o	n/a
330.605	0.075	661210	keystroke_n	n	n/a
330.8	0.12	661600	keystroke_i	i	n/a
330.965	0.09	661930	keystroke_t	t	n/a
331.115	0.12	662230	keystroke_o	o	n/a
331.295	0.121	662590	keystroke_r	r	n/a
331.58	0.105	663160	keystroke_s	s	n/a
331.955	0.09	663910	keystroke_Key.space	Key.space	n/a
332.18	0.105	664360	keystroke_u	u	n/a
332.42	0.105	664840	keystroke_n	n	n/a
332.616	0.104	665232	keystroke_t	t	n/a
332.825	0.09	665650	keystroke_i	i	n/a
333.035	0.105	666070	keystroke_l	l	n/a
333.26	0.09	666520	keystroke_Key.space	Key.space	n/a
333.455	0.12	666910	keystroke_c	c	n/a
333.62	0.135	667240	keystroke_o	o	n/a
333.711	0.149	667422	keystroke_n	n	n/a
333.875	0.12	667750	keystroke_f	f	n/a
334.025	0.105	668050	keystroke_i	i	n/a
334.16	0.105	668320	keystroke_r	r	n/a
334.325	0.105	668650	keystroke_m	m	n/a
334.58	0.105	669160	keystroke_Key.space	Key.space	n/a
334.82	0.105	669640	keystroke_c	c	n/a
335.06	0.06	670120	keystroke_r	r	n/a
335.21	0.09	670420	keystroke_a	a	n/a
335.45	0.105	670900	keystroke_z	z	n/a
335.675	0.075	671350	keystroke_y	y	n/a
336.05	0.105	672100	keystroke_Key.enter	Key.enter	n/a
336.1605	10.2865	672321	prompt	n/a	limitation india shipment advanced\n
336.8	0.075	673600	keystroke_i	i	n/a
337.25	0.09	674500	keystroke_Key.backspace	Key.backspace	n/a
337.58	0.09	675160	keystroke_l	l	n/a
337.835	0.075	675670	keystroke_i	i	n/a
338.075	0.075	676150	keystroke_m	m	n/a
338.33	0.09	676660	keystroke_i	i	n/a
338.6	0.0895	677200	keystroke_t	t	n/a
338.7645	0.1355	677529	keystroke_a	a	n/a
339.2145	0.12	678429	keystroke_t	t	n/a
340.01	0.12	680020	keystroke_i	i	n/a
340.25	0.0895	680500	keystroke_o	o	n/a
340.4445	0.105	680889	keystroke_n	n	n/a
340.6695	0.135	681339	keystroke_Key.space	Key.space	n/a
340.9245	0.075	681849	keystroke_i	i	n/a
341.1345	0.09	682269	keystroke_n	n	n/a
341.3	0.1045	682600	keystroke_d	d	n/a
341.4495	0.105	682899	keystroke_i	i	n/a
341.6145	0.12	683229	keystroke_a	a	n/a
341.8095	0.09	683619	keystroke_Key.space	Key.space	n/a
342.1705	0.134	684341	keystroke_s	s	n/a
342.4245	0.075	684849	keystroke_h	h	n/a
342.5595	0.09	685119	keystroke_i	i	n/a
342.7695	0.09	685539	keystroke_p	p	n/a
343.0095	0.09	686019	keystroke_m	m	n/a
343.1895	0.135	686379	keystroke_e	e	n/a
343.3405	0.104	686681	keystroke_n	n	n/a
343.5345	0.09	687069	keystroke_t	t	n/a
344.0895	0.09	688179	keystroke_Key.space	Key.space	n/a
344.4345	0.15	688869	keystroke_a	a	n/a
344.7495	0.09	689499	keystroke_d	d	n/a
344.9745	0.105	689949	keystroke_v	v	n/a
345.2745	0.135	690549	keystroke_a	a	n/a
345.4395	0.105	690879	keystroke_n	n	n/a
345.6195	0.106	691239	keystroke_c	c	n/a
345.8145	0.075	691629	keystroke_e	e	n/a
346.0545	0.06	692109	keystroke_d	d	n/a
346.3395	0.105	692679	keystroke_Key.enter	Key.enter	n/a
346.4545	6.3375	692909	prompt	n/a	hiring lens mesa cleared\n
347.0895	0.06	694179	keystroke_h	h	n/a
347.2855	0.134	694571	keystroke_i	i	n/a
347.4795	0.135	694959	keystroke_r	r	n/a
347.7045	0.091	695409	keystroke_i	i	n/a
347.9745	0.135	695949	keystroke_n	n	n/a
348.2145	0.06	696429	keystroke_g	g	n/a
348.4995	0.075	696999	keystroke_Key.space	Key.space	n/a
348.7845	0.09	697569	keystroke_l	l	n/a
348.9345	0.105	697869	keystroke_e	e	n/a
349.0995	0.135	698199	keystroke_n	n	n/a
349.355	0.12	698710	keystroke_s	s	n/a
349.655	0.09	699310	keystroke_Key.space	Key.space	n/a
350.015	0.105	700030	keystroke_m	m	n/a
350.18	0.075	700360	keystroke_e	e	n/a
350.405	0.09	700810	keystroke_s	s	n/a
350.615	0.135	701230	keystroke_a	a	n/a
350.915	0.105	701830	keystroke_Key.space	Key.space	n/a
351.23	0.105	702460	keystroke_c	c	n/a
351.455	0.105	702910	keystroke_l	l	n/a
351.59	0.075	703180	keystroke_e	e	n/a
351.71	0.12	703420	keystroke_a	a	n/a
351.905	0.09	703810	keystroke_r	r	n/a
352.16	0.06	704320	keystroke_e	e	n/a
352.37	0.06	704740	keystroke_d	d	n/a
352.67	0.12	705340	keystroke_Key.enter	Key.enter	n/a
352.797	6.2945	705594	prompt	n/a	resort come flour symantec\n
353.6	0.075	707200	keystroke_r	r	n/a
353.795	0.075	707590	keystroke_e	e	n/a
354.005	0.09	708010	keystroke_s	s	n/a
354.14	0.105	708280	keystroke_o	o	n/a
354.275	0.09	708550	keystroke_r	r	n/a
354.44	0.09	708880	keystroke_t	t	n/a
354.59	0.09	709180	keystroke_Key.space	Key.space	n/a
354.725	0.1195	709450	keystroke_c	c	n/a
354.8595	0.18	709719	keystroke_o	o	n/a
354.9495	0.18	709899	keystroke_m	m	n/a
355.1605	0.104	710321	keystroke_e	e	n/a
355.3095	0.075	710619	keystroke_Key.space	Key.space	n/a
355.3995	0.135	710799	keystroke_f	f	n/a
355.6245	0.061	711249	keystroke_l	l	n/a
355.8345	0.09	711669	keystroke_o	o	n/a
356.0905	0.134	712181	keystroke_u	u	n/a
356.3605	0.089	712721	keystroke_r	r	n/a
356.8245	0.105	713649	keystroke_Key.space	Key.space	n/a
357.0195	0.121	714039	keystroke_s	s	n/a
357.3045	0.09	714609	keystroke_y	y	n/a
357.6045	0.1205	715209	keystroke_m	m	n/a
357.8595	0.09	715719	keystroke_a	a	n/a
358.0995	0.09	716199	keystroke_n	n	n/a
358.3105	0.089	716621	keystroke_t	t	n/a
358.5045	0.075	717009	keystroke_e	e	n/a
358.7155	0.075	717431	keystroke_c	c	n/a
358.9845	0.105	717969	keystroke_Key.enter	Key.enter	n/a
359.1025	5.389	718205	prompt	n/a	gets genius treat leather\n
359.7345	0.076	719469	keystroke_g	g	n/a
359.9295	0.09	719859	keystroke_e	e	n/a
360.1095	0.09	720219	keystroke_t	t	n/a
360.3495	0.09	720699	keystroke_s	s	n/a
360.6045	0.105	721209	keystroke_Key.space	Key.space	n/a
360.7845	0.091	721569	keystroke_g	g	n/a
360.9345	0.106	721869	keystroke_e	e	n/a
361.1145	0.091	722229	keystroke_n	n	n/a
361.3245	0.091	722649	keystroke_i	i	n/a
361.5345	0.09	723069	keystroke_u	u	n/a
361.7445	0.105	723489	keystroke_s	s	n/a
361.9545	0.09	723909	keystroke_Key.space	Key.space	n/a
362.1495	0.09	724299	keystroke_t	t	n/a
362.3455	0.134	724691	keystroke_r	r	n/a
362.4355	0.105	724871	keystroke_e	e	n/a
362.6155	0.149	725231	keystroke_a	a	n/a
362.7795	0.09	725559	keystroke_t	t	n/a
362.9595	0.075	725919	keystroke_Key.space	Key.space	n/a
363.1705	0.09	726341	keystroke_l	l	n/a
363.2745	0.105	726549	keystroke_e	e	n/a
363.3945	0.135	726789	keystroke_a	a	n/a
363.6355	0.089	727271	keystroke_t	t	n/a
363.8155	0.104	727631	keystroke_h	h	n/a
363.9955	0.134	727991	keystroke_e	e	n/a
364.0855	0.089	728171	keystroke_r	r	n/a
364.3695	0.12	728739	keystroke_Key.enter	Key.enter	n/a
364.4965	8.2605	728993	prompt	n/a	xbox potato brilliant plugin\n
365.1645	0.105	730329	keystroke_x	x	n/a
365.3145	0.075	730629	keystroke_o	o	n/a
365.7345	0.075	731469	keystroke_Key.backspace	Key.backspace	n/a
365.9905	0.074	731981	keystroke_b	b	n/a
366.1845	0.09	732369	keystroke_o	o	n/a
366.3955	0.105	732791	keystroke_x	x	n/a
366.5595	0.075	733119	keystroke_Key.space	Key.space	n/a
366.8005	0.104	733601	keystroke_p	p	n/a
367.0845	0.105	734169	keystroke_o	o	n/a
367.3095	0.09	734619	keystroke_t	t	n/a
367.5355	0.104	735071	keystroke_a	a	n/a
367.7445	0.09	735489	keystroke_t	t	n/a
367.9855	0.105	735971	keystroke_o	o	n/a
368.5395	0.075	737079	keystroke_Key.space	Key.space	n/a
368.7645	0.075	737529	keystroke_b	b	n/a
369.0045	0.106	738009	keystroke_r	r	n/a
369.1995	0.09	738399	keystroke_i	i	n/a
369.3945	0.091	738789	keystroke_l	l	n/a
369.5595	0.09	739119	keystroke_l	l	n/a
369.8445	0.09	739689	keystroke_i	i	n/a
370.0395	0.135	740079	keystroke_a	a	n/a
370.2355	0.104	740471	keystroke_n	n	n/a
370.4445	0.075	740889	keystroke_t	t	n/a
370.8495	0.105	741699	keystroke_Key.space	Key.space	n/a
371.2105	0.089	742421	keystroke_p	p	n/a
371.5405	0.09	743081	keystroke_l	l	n/a
371.8105	0.075	743621	keystroke_u	u	n/a
372.0055	0.09	744011	keystroke_g	g	n/a
372.1695	0.061	744339	keystroke_i	i	n/a
372.3505	0.09	744701	keystroke_n	n	n/a
372.6505	0.104	745301	keystroke_Key.enter	Key.enter	n/a
372.762	7.915	745524	prompt	n/a	machine mayor debut carefully\n
373.4155	0.104	746831	keystroke_m	m	n/a
373.5955	0.119	747191	keystroke_a	a	n/a
373.7895	0.121	747579	keystroke_c	c	n/a
373.9245	0.076	747849	keystroke_h	h	n/a
374.1045	0.076	748209	keystroke_i	i	n/a
374.2405	0.134	748481	keystroke_n	n	n/a
374.4805	0.104	748961	keystroke_e	e	n/a
374.7945	0.105	749589	keystroke_Key.space	Key.space	n/a
374.9895	0.075	749979	keystroke_m	m	n/a
375.1105	0.134	750221	keystroke_a	a	n/a
375.3505	0.0745	750701	keystroke_y	y	n/a
375.59	0.105	751180	keystroke_o	o	n/a
375.8	0.09	751600	keystroke_r	r	n/a
375.92	0.09	751840	keystroke_Key.space	Key.space	n/a
376.175	0.045	752350	keystroke_b	b	n/a
376.535	0.09	753070	keystroke_Key.backspace	Key.backspace	n/a
376.7	0.09	753400	keystroke_d	d	n/a
376.895	0.105	753790	keystroke_e	e	n/a
377.06	0.105	754120	keystroke_b	b	n/a
377.24	0.12	754480	keystroke_u	u	n/a
377.48	0.105	754960	keystroke_t	t	n/a
377.75	0.12	755500	keystroke_Key.space	Key.space	n/a
378.065	0.06	756130	keystroke_c	c	n/a
378.26	0.06	756520	keystroke_r	r	n/a
378.71	0.09	757420	keystroke_Key.backspace	Key.backspace	n/a
378.86	0.135	757720	keystroke_a	a	n/a
379.16	0.03	758320	keystroke_r	r	n/a
379.265	0.09	758530	keystroke_e	e	n/a
379.445	0.12	758890	keystroke_f	f	n/a
379.625	0.105	759250	keystroke_u	u	n/a
379.85	0.075	759700	keystroke_l	l	n/a
380.015	0.075	760030	keystroke_l	l	n/a
380.27	0.075	760540	keystroke_y	y	n/a
380.57	0.105	761140	keystroke_Key.enter	Key.enter	n/a
380.6825	6.579	761365	prompt	n/a	italy gauge coffee thumb\n
381.41	0.075	762820	keystroke_i	i	n/a
381.62	0.075	763240	keystroke_t	t	n/a
381.785	0.105	763570	keystroke_a	a	n/a
381.965	0.09	763930	keystroke_l	l	n/a
382.25	0.09	764500	keystroke_y	y	n/a
382.505	0.09	765010	keystroke_Key.space	Key.space	n/a
382.64	0.105	765280	keystroke_g	g	n/a
383.06	0.135	766120	keystroke_a	a	n/a
383.285	0.075	766570	keystroke_u	u	n/a
383.495	0.09	766990	keystroke_g	g	n/a
383.9	0.075	767800	keystroke_e	e	n/a
384.125	0.09	768250	keystroke_Key.space	Key.space	n/a
384.29	0.105	768580	keystroke_c	c	n/a
384.44	0.09	768880	keystroke_o	o	n/a
384.575	0.09	769150	keystroke_f	f	n/a
384.77	0.09	769540	keystroke_f	f	n/a
385.04	0.075	770080	keystroke_e	e	n/a
385.28	0.06	770560	keystroke_e	e	n/a
385.535	0.075	771070	keystroke_Key.space	Key.space	n/a
385.76	0.075	771520	keystroke_t	t	n/a
385.88	0.075	771760	keystroke_h	h	n/a
386.09	0.045	772180	keystroke_u	u	n/a
386.66	0.06	773320	keystroke_m	m	n/a
386.87	0.09	773740	keystroke_b	b	n/a
387.155	0.105	774310	keystroke_Key.enter	Key.enter	n/a
387.2655	10.7065	774531	prompt	n/a	stretch useful complicated area\n
387.905	0.09	775810	keystroke_s	s	n/a
388.07	0.075	776140	keystroke_t	t	n/a
388.265	0.105	776530	keystroke_r	r	n/a
388.28	0.06	776560	keystroke_t	t	n/a
388.355	0.105	776710	keystroke_e	e	n/a
388.565	0.09	777130	keystroke_t	t	n/a
388.835	0.09	777670	keystroke_c	c	n/a
389.12	0.075	778240	keystroke_Key.backspace	Key.backspace	n/a
389.27	0.09	778540	keystroke_Key.backspace	Key.backspace	n/a
389.42	0.105	778840	keystroke_Key.backspace	Key.backspace	n/a
389.735	0.06	779470	keystroke_Key.backspace	Key.backspace	n/a
390.17	0.045	780340	keystroke_Key.backspace	Key.backspace	n/a
391.13	0.075	782260	keystroke_r	r	n/a
391.355	0.09	782710	keystroke_e	e	n/a
391.535	0.075	783070	keystroke_t	t	n/a
391.76	0.105	783520	keystroke_c	c	n/a
392.015	0.09	784030	keystroke_h	h	n/a
392.21	0.09	784420	keystroke_Key.space	Key.space	n/a
392.33	0.12	784660	keystroke_s	s	n/a
392.78	0.105	785560	keystroke_Key.backspace	Key.backspace	n/a
393.08	0.105	786160	keystroke_u	u	n/a
393.35	0.075	786700	keystroke_s	s	n/a
393.56	0.09	787120	keystroke_e	e	n/a
393.8	0.09	787600	keystroke_f	f	n/a
393.95	0.09	787900	keystroke_u	u	n/a
394.205	0.09	788410	keystroke_l	l	n/a
394.43	0.09	788860	keystroke_Key.space	Key.space	n/a
394.61	0.105	789220	keystroke_c	c	n/a
394.85	0.075	789700	keystroke_o	o	n/a
395.09	0.09	790180	keystroke_m	m	n/a
395.315	0.075	790630	keystroke_p	p	n/a
395.51	0.075	791020	keystroke_l	l	n/a
395.705	0.075	791410	keystroke_i	i	n/a
395.825	0.12	791650	keystroke_c	c	n/a
396.02	0.135	792040	keystroke_a	a	n/a
396.185	0.09	792370	keystroke_t	t	n/a
396.41	0.09	792820	keystroke_e	e	n/a
396.635	0.075	793270	keystroke_d	d	n/a
396.815	0.09	793630	keystroke_Key.space	Key.space	n/a
396.995	0.12	793990	keystroke_a	a	n/a
397.22	0.075	794440	keystroke_r	r	n/a
397.385	0.09	794770	keystroke_e	e	n/a
397.52	0.12	795040	keystroke_a	a	n/a
397.85	0.12	795700	keystroke_Key.enter	Key.enter	n/a
397.9775	6.6095	795955	prompt	n/a	robbie lesbians bomb hits\n
398.63	0.105	797260	keystroke_r	r	n/a
398.855	0.075	797710	keystroke_o	o	n/a
399.14	0.06	798280	keystroke_b	b	n/a
399.305	0.06	798610	keystroke_b	b	n/a
399.53	0.09	799060	keystroke_i	i	n/a
399.755	0.09	799510	keystroke_e	e	n/a
399.935	0.075	799870	keystroke_Key.space	Key.space	n/a
400.16	0.105	800320	keystroke_l	l	n/a
400.37	0.06	800740	keystroke_e	e	n/a
400.61	0.105	801220	keystroke_s	s	n/a
400.895	0.075	801790	keystroke_b	b	n/a
401.105	0.09	802210	keystroke_i	i	n/a
401.3	0.12	802600	keystroke_a	a	n/a
401.525	0.105	803050	keystroke_n	n	n/a
401.765	0.075	803530	keystroke_s	s	n/a
402.095	0.075	804190	keystroke_Key.space	Key.space	n/a
402.485	0.075	804970	keystroke_b	b	n/a
402.695	0.09	805390	keystroke_o	o	n/a
402.875	0.075	805750	keystroke_m	m	n/a
403.13	0.075	806260	keystroke_b	b	n/a
403.37	0.075	806740	keystroke_Key.space	Key.space	n/a
403.61	0.075	807220	keystroke_h	h	n/a
403.79	0.09	807580	keystroke_i	i	n/a
403.955	0.09	807910	keystroke_t	t	n/a
404.165	0.09	808330	keystroke_s	s	n/a
404.48	0.105	808960	keystroke_Key.enter	Key.enter	n/a
404.5905	8.1715	809181	prompt	n/a	royalty collectors severe josh\n
405.185	0.106	810370	keystroke_r	r	n/a
405.395	0.06	810790	keystroke_o	o	n/a
405.62	0.075	811240	keystroke_y	y	n/a
405.755	0.15	811510	keystroke_a	a	n/a
406.07	0.12	812140	keystroke_l	l	n/a
406.31	0.106	812620	keystroke_t	t	n/a
406.58	0.105	813160	keystroke_y	y	n/a
406.82	0.105	813640	keystroke_Key.space	Key.space	n/a
407.195	0.075	814390	keystroke_c	c	n/a
407.361	0.074	814722	keystroke_o	o	n/a
407.645	0.12	815290	keystroke_l	l	n/a
407.975	0.09	815950	keystroke_l	l	n/a
408.215	0.075	816430	keystroke_e	e	n/a
408.425	0.075	816850	keystroke_c	c	n/a
408.635	0.09	817270	keystroke_t	t	n/a
408.845	0.12	817690	keystroke_o	o	n/a
409.025	0.0595	818050	keystroke_r	r	n/a
409.2495	0.0905	818499	keystroke_s	s	n/a
409.6545	0.09	819309	keystroke_Key.space	Key.space	n/a
409.9395	0.0915	819879	keystroke_s	s	n/a
410.1645	0.0755	820329	keystroke_e	e	n/a
410.4645	0.091	820929	keystroke_v	v	n/a
410.705	0.106	821410	keystroke_e	e	n/a
410.9595	0.09	821919	keystroke_r	r	n/a
411.2445	0.06	822489	keystroke_e	e	n/a
411.5145	0.0905	823029	keystroke_Key.space	Key.space	n/a
411.7395	0.09	823479	keystroke_j	j	n/a
411.9645	0.105	823929	keystroke_o	o	n/a
412.1595	0.0905	824319	keystroke_s	s	n/a
412.3245	0.075	824649	keystroke_h	h	n/a
412.6245	0.135	825249	keystroke_Key.enter	Key.enter	n/a
412.767	10.3455	825534	prompt	n/a	objectives cotton enforcement movie\n
413.4645	0.09	826929	keystroke_o	o	n/a
413.7345	0.09	827469	keystroke_b	b	n/a
413.9745	0.105	827949	keystroke_j	j	n/a
414.1845	0.075	828369	keystroke_e	e	n/a
414.3495	0.075	828699	keystroke_c	c	n/a
414.5745	0.105	829149	keystroke_t	t	n/a
414.7845	0.165	829569	keystroke_i	i	n/a
415.0695	0.09	830139	keystroke_v	v	n/a
415.5345	0.06	831069	keystroke_e	e	n/a
415.7745	0.105	831549	keystroke_s	s	n/a
416.0445	0.09	832089	keystroke_Key.space	Key.space	n/a
416.2395	0.09	832479	keystroke_c	c	n/a
416.4195	0.075	832839	keystroke_o	o	n/a
416.6445	0.075	833289	keystroke_t	t	n/a
416.8395	0.075	833679	keystroke_t	t	n/a
417.0945	0.06	834189	keystroke_o	o	n/a
417.3355	0.074	834671	keystroke_n	n	n/a
417.6195	0.09	835239	keystroke_Key.space	Key.space	n/a
417.8595	0.09	835719	keystroke_e	e	n/a
418.0845	0.075	836169	keystroke_n	n	n/a
418.4155	0.089	836831	keystroke_f	f	n/a
418.6095	0.09	837219	keystroke_o	o	n/a
418.7895	0.075	837579	keystroke_r	r	n/a
419.6445	0.09	839289	keystroke_c	c	n/a
419.8995	0.105	839799	keystroke_e	e	n/a
420.2745	0.105	840549	keystroke_m	m	n/a
420.5445	0.09	841089	keystroke_e	e	n/a
420.7245	0.12	841449	keystroke_n	n	n/a
420.9495	0.06	841899	keystroke_t	t	n/a
421.6245	0.12	843249	keystroke_Key.space	Key.space	n/a
421.9545	0.075	843909	keystroke_m	m	n/a
422.1805	0.089	844361	keystroke_o	o	n/a
422.4045	0.105	844809	keystroke_v	v	n/a
422.5545	0.105	845109	keystroke_i	i	n/a
422.7495	0.075	845499	keystroke_e	e	n/a
423.0195	0.09	846039	keystroke_Key.enter	Key.enter	n/a
423.1185	9.909	846237	prompt	n/a	composition candidates steven shaped\n
423.7695	0.105	847539	keystroke_c	c	n/a
423.9955	0.089	847991	keystroke_o	o	n/a
424.2195	0.075	848439	keystroke_m	m	n/a
424.4595	0.075	848919	keystroke_p	p	n/a
424.6995	0.12	849399	keystroke_o	o	n/a
424.9395	0.105	849879	keystroke_s	s	n/a
425.1795	0.165	850359	keystroke_i	i	n/a
425.3895	0.09	850779	keystroke_t	t	n/a
425.5695	0.12	851139	keystroke_i	i	n/a
425.8245	0.12	851649	keystroke_o	o	n/a
426.0495	0.09	852099	keystroke_n	n	n/a
426.5895	0.105	853179	keystroke_Key.space	Key.space	n/a
426.9495	0.105	853899	keystroke_c	c	n/a
427.1295	0.165	854259	keystroke_a	a	n/a
427.3855	0.104	854771	keystroke_n	n	n/a
427.6405	0.134	855281	keystroke_d	d	n/a
427.8945	0.105	855789	keystroke_i	i	n/a
428.1195	0.12	856239	keystroke_d	d	n/a
428.3745	0.135	856749	keystroke_a	a	n/a
428.6305	0.074	857261	keystroke_t	t	n/a
428.8395	0.075	857679	keystroke_e	e	n/a
429.0345	0.121	858069	keystroke_s	s	n/a
429.575	0.135	859150	keystroke_Key.space	Key.space	n/a
429.8	0.105	859600	keystroke_s	s	n/a
430.115	0.075	860230	keystroke_t	t	n/a
430.28	0.12	860560	keystroke_e	e	n/a
430.49	0.15	860980	keystroke_v	v	n/a
430.625	0.105	861250	keystroke_e	e	n/a
430.895	0.12	861790	keystroke_n	n	n/a
431.24	0.105	862480	keystroke_Key.space	Key.space	n/a
431.525	0.105	863050	keystroke_s	s	n/a
431.825	0.09	863650	keystroke_h	h	n/a
431.975	0.135	863950	keystroke_a	a	n/a
432.14	0.09	864280	keystroke_p	p	n/a
432.32	0.09	864640	keystroke_e	e	n/a
432.56	0.09	865120	keystroke_d	d	n/a
432.92	0.105	865840	keystroke_Key.enter	Key.enter	n/a
433.0335	7.138	866067	prompt	n/a	toolkit mile mathematics chance\n
433.7	0.09	867400	keystroke_t	t	n/a
433.925	0.09	867850	keystroke_o	o	n/a
434.12	0.09	868240	keystroke_o	o	n/a
434.345	0.12	868690	keystroke_l	l	n/a
434.675	0.105	869350	keystroke_k	k	n/a
434.975	0.105	869950	keystroke_i	i	n/a
435.185	0.09	870370	keystroke_t	t	n/a
435.32	0.075	870640	keystroke_Key.space	Key.space	n/a
435.515	0.075	871030	keystroke_m	m	n/a
435.8	0.075	871600	keystroke_i	i	n/a
435.995	0.12	871990	keystroke_l	l	n/a
436.265	0.12	872530	keystroke_e	e	n/a
436.46	0.075	872920	keystroke_Key.space	Key.space	n/a
436.715	0.09	873430	keystroke_m	m	n/a
436.895	0.12	873790	keystroke_a	a	n/a
437.06	0.12	874120	keystroke_t	t	n/a
437.24	0.09	874480	keystroke_h	h	n/a
437.375	0.12	874750	keystroke_e	e	n/a
437.54	0.105	875080	keystroke_m	m	n/a
437.735	0.105	875470	keystroke_a	a	n/a
437.945	0.09	875890	keystroke_t	t	n/a
438.155	0.09	876310	keystroke_i	i	n/a
438.32	0.09	876640	keystroke_c	c	n/a
438.575	0.09	877150	keystroke_s	s	n/a
438.845	0.105	877690	keystroke_Key.space	Key.space	n/a
439.145	0.105	878290	keystroke_c	c	n/a
439.34	0.075	878680	keystroke_h	h	n/a
439.445	0.135	878890	keystroke_a	a	n/a
439.565	0.075	879130	keystroke_n	n	n/a
439.685	0.12	879370	keystroke_c	c	n/a
439.79	0.09	879580	keystroke_e	e	n/a
440.06	0.105	880120	keystroke_Key.enter	Key.enter	n/a
440.178	12.1085	880356	prompt	n/a	handhelds evanescence baskets holding\n
440.8395	0.091	881679	keystroke_h	h	n/a
441.2145	0.135	882429	keystroke_a	a	n/a
441.4705	0.119	882941	keystroke_n	n	n/a
441.7095	0.09	883419	keystroke_d	d	n/a
442.3245	0.09	884649	keystroke_h	h	n/a
442.5045	0.06	885009	keystroke_e	e	n/a
442.6545	0.105	885309	keystroke_l	l	n/a
442.8945	0.06	885789	keystroke_d	d	n/a
443.0895	0.09	886179	keystroke_s	s	n/a
443.7195	0.12	887439	keystroke_Key.space	Key.space	n/a
443.9905	0.09	887981	keystroke_e	e	n/a
444.395	0.075	888790	keystroke_v	v	n/a
444.59	0.135	889180	keystroke_a	a	n/a
445.01	0.12	890020	keystroke_n	n	n/a
445.64	0.09	891280	keystroke_e	e	n/a
446.18	0.105	892360	keystroke_s	s	n/a
446.6	0.09	893200	keystroke_c	c	n/a
446.96	0.105	893920	keystroke_e	e	n/a
447.35	0.09	894700	keystroke_n	n	n/a
447.8	0.075	895600	keystroke_c	c	n/a
448.19	0.105	896380	keystroke_e	e	n/a
448.55	0.075	897100	keystroke_Key.space	Key.space	n/a
448.76	0.09	897520	keystroke_b	b	n/a
449.075	0.075	898150	keystroke_a	a	n/a
449.3	0.09	898600	keystroke_s	s	n/a
449.57	0.105	899140	keystroke_k	k	n/a
449.765	0.105	899530	keystroke_e	e	n/a
449.99	0.105	899980	keystroke_t	t	n/a
450.215	0.12	900430	keystroke_s	s	n/a
450.545	0.06	901090	keystroke_Key.space	Key.space	n/a
450.755	0.09	901510	keystroke_h	h	n/a
450.965	0.12	901930	keystroke_o	o	n/a
451.175	0.135	902350	keystroke_l	l	n/a
451.37	0.12	902740	keystroke_d	d	n/a
451.52	0.105	903040	keystroke_i	i	n/a
451.7	0.12	903400	keystroke_n	n	n/a
451.865	0.09	903730	keystroke_g	g	n/a
452.18	0.105	904360	keystroke_Key.enter	Key.enter	n/a
452.291	10.976	904582	prompt	n/a	bruce webcam absent floating\n
453.005	0.09	906010	keystroke_b	b	n/a
453.17	0.135	906340	keystroke_r	r	n/a
453.32	0.09	906640	keystroke_u	u	n/a
453.515	0.09	907030	keystroke_c	c	n/a
453.77	0.105	907540	keystroke_e	e	n/a
454.085	0.105	908170	keystroke_Key.space	Key.space	n/a
454.295	0.09	908590	keystroke_w	w	n/a
454.625	0.09	909250	keystroke_e	e	n/a
454.91	0.075	909820	keystroke_b	b	n/a
455.135	0.135	910270	keystroke_c	c	n/a
455.225	0.165	910450	keystroke_a	a	n/a
455.405	0.165	910810	keystroke_m	m	n/a
455.675	0.06	911350	keystroke_e	e	n/a
456.05	0.09	912100	keystroke_Key.backspace	Key.backspace	n/a
456.41	0.09	912820	keystroke_Key.space	Key.space	n/a
456.62	0.15	913240	keystroke_a	a	n/a
456.905	0.105	913810	keystroke_b	b	n/a
457.16	0.09	914320	keystroke_s	s	n/a
457.37	0.105	914740	keystroke_e	e	n/a
457.61	0.09	915220	keystroke_t	t	n/a
457.82	0.09	915640	keystroke_Key.space	Key.space	n/a
457.94	0.105	915880	keystroke_f	f	n/a
458.18	0.135	916360	keystroke_l	l	n/a
458.645	0.075	917290	keystroke_Key.backspace	Key.backspace	n/a
458.825	0.075	917650	keystroke_Key.backspace	Key.backspace	n/a
459.035	0.105	918070	keystroke_Key.backspace	Key.backspace	n/a
459.365	0.075	918730	keystroke_Key.backspace	Key.backspace	n/a
459.635	0.075	919270	keystroke_Key.backspace	Key.backspace	n/a
459.89	0.06	919780	keystroke_Key.backspace	Key.backspace	n/a
460.52	0.09	921040	keystroke_s	s	n/a
460.73	0.12	921460	keystroke_e	e	n/a
460.925	0.1345	921850	keystroke_n	n	n/a
461.165	0.1055	922330	keystroke_t	t	n/a
461.3595	0.12	922719	keystroke_Key.space	Key.space	n/a
461.5395	0.09	923079	keystroke_f	f	n/a
461.7355	0.12	923471	keystroke_l	l	n/a
461.9595	0.106	923919	keystroke_o	o	n/a
462.1255	0.134	924251	keystroke_a	a	n/a
462.3355	0.105	924671	keystroke_t	t	n/a
462.5005	0.0885	925001	keystroke_i	i	n/a
462.709	0.091	925418	keystroke_n	n	n/a
462.9205	0.0735	925841	keystroke_g	g	n/a
463.144	0.12	926288	keystroke_Key.enter	Key.enter	n/a
463.271	11.2755	926542	prompt	n/a	introduced installing such dance\n
464.014	0.091	928028	keystroke_i	i	n/a
464.224	0.12	928448	keystroke_n	n	n/a
464.405	0.089	928810	keystroke_t	t	n/a
464.915	0.104	929830	keystroke_r	r	n/a
465.185	0.12	930370	keystroke_o	o	n/a
465.53	0.105	931060	keystroke_u	u	n/a
466.01	0.089	932020	keystroke_Key.backspace	Key.backspace	n/a
466.384	0.136	932768	keystroke_d	d	n/a
466.625	0.089	933250	keystroke_u	u	n/a
466.79	0.09	933580	keystroke_c	c	n/a
467.135	0.12	934270	keystroke_e	e	n/a
467.555	0.089	935110	keystroke_d	d	n/a
468.785	0.09	937570	keystroke_Key.space	Key.space	n/a
469.01	0.075	938020	keystroke_i	i	n/a
469.235	0.09	938470	keystroke_n	n	n/a
469.415	0.09	938830	keystroke_s	s	n/a
469.64	0.09	939280	keystroke_t	t	n/a
469.805	0.105	939610	keystroke_a	a	n/a
470.03	0.09	940060	keystroke_l	l	n/a
470.239	0.121	940478	keystroke_l	l	n/a
470.525	0.105	941050	keystroke_i	i	n/a
470.78	0.12	941560	keystroke_n	n	n/a
471.005	0.09	942010	keystroke_g	g	n/a
471.545	0.104	943090	keystroke_Key.space	Key.space	n/a
471.71	0.135	943420	keystroke_s	s	n/a
472.145	0.135	944290	keystroke_u	u	n/a
472.355	0.09	944710	keystroke_c	c	n/a
472.565	0.12	945130	keystroke_h	h	n/a
473.24	0.105	946480	keystroke_Key.space	Key.space	n/a
473.375	0.105	946750	keystroke_d	d	n/a
473.57	0.12	947140	keystroke_a	a	n/a
473.735	0.105	947470	keystroke_n	n	n/a
473.9	0.135	947800	keystroke_c	c	n/a
474.005	0.12	948010	keystroke_e	e	n/a
474.425	0.12	948850	keystroke_Key.enter	Key.enter	n/a
474.5515	8.276	949103	prompt	n/a	elite rolled alerts counting\n
475.205	0.09	950410	keystroke_e	e	n/a
475.505	0.09	951010	keystroke_l	l	n/a
475.73	0.105	951460	keystroke_i	i	n/a
475.97	0.075	951940	keystroke_t	t	n/a
476.225	0.09	952450	keystroke_e	e	n/a
476.495	0.09	952990	keystroke_Key.space	Key.space	n/a
476.975	0.09	953950	keystroke_r	r	n/a
477.155	0.09	954310	keystroke_o	o	n/a
477.44	0.09	954880	keystroke_l	l	n/a
477.785	0.105	955570	keystroke_l	l	n/a
478.07	0.105	956140	keystroke_e	e	n/a
478.34	0.09	956680	keystroke_d	d	n/a
478.625	0.09	957250	keystroke_Key.space	Key.space	n/a
478.805	0.12	957610	keystroke_a	a	n/a
479.06	0.09	958120	keystroke_l	l	n/a
479.255	0.09	958510	keystroke_e	e	n/a
479.48	0.09	958960	keystroke_r	r	n/a
479.675	0.09	959350	keystroke_t	t	n/a
479.975	0.105	959950	keystroke_s	s	n/a
480.275	0.105	960550	keystroke_Key.space	Key.space	n/a
480.665	0.105	961330	keystroke_c	c	n/a
480.86	0.09	961720	keystroke_o	o	n/a
481.085	0.075	962170	keystroke_u	u	n/a
481.295	0.105	962590	keystroke_n	n	n/a
481.475	0.105	962950	keystroke_t	t	n/a
481.655	0.09	963310	keystroke_i	i	n/a
481.79	0.165	963580	keystroke_n	n	n/a
482.015	0.075	964030	keystroke_g	g	n/a
482.69	0.135	965380	keystroke_Key.enter	Key.enter	n/a
482.832	8.4695	965664	prompt	n/a	auburn participants dear bite\n
483.425	0.18	966850	keystroke_a	a	n/a
483.86	0.105	967720	keystroke_u	u	n/a
484.145	0.09	968290	keystroke_b	b	n/a
484.4	0.105	968800	keystroke_u	u	n/a
484.64	0.105	969280	keystroke_r	r	n/a
484.91	0.09	969820	keystroke_n	n	n/a
485.42	0.075	970840	keystroke_Key.space	Key.space	n/a
485.69	0.09	971380	keystroke_p	p	n/a
485.96	0.105	971920	keystroke_a	a	n/a
486.2	0.075	972400	keystroke_r	r	n/a
486.425	0.09	972850	keystroke_t	t	n/a
486.71	0.135	973420	keystroke_i	i	n/a
487.055	0.105	974110	keystroke_c	c	n/a
487.37	0.09	974740	keystroke_i	i	n/a
487.61	0.105	975220	keystroke_p	p	n/a
487.82	0.135	975640	keystroke_a	a	n/a
488.045	0.105	976090	keystroke_n	n	n/a
488.255	0.075	976510	keystroke_t	t	n/a
488.54	0.105	977080	keystroke_s	s	n/a
488.81	0.12	977620	keystroke_Key.space	Key.space	n/a
489.08	0.09	978160	keystroke_d	d	n/a
489.29	0.09	978580	keystroke_e	e	n/a
489.47	0.105	978940	keystroke_a	a	n/a
489.68	0.075	979360	keystroke_r	r	n/a
489.92	0.06	979840	keystroke_Key.space	Key.space	n/a
490.115	0.075	980230	keystroke_b	b	n/a
490.31	0.105	980620	keystroke_i	i	n/a
490.655	0.075	981310	keystroke_t	t	n/a
490.88	0.09	981760	keystroke_e	e	n/a
491.18	0.1195	982360	keystroke_Key.enter	Key.enter	n/a
491.3055	10.211	982611	prompt	n/a	closest covering stickers initiative\n
492.0645	0.12	984129	keystroke_c	c	n/a
492.3195	0.09	984639	keystroke_l	l	n/a
492.5595	0.091	985119	keystroke_o	o	n/a
492.7695	0.105	985539	keystroke_s	s	n/a
493.0245	0.075	986049	keystroke_e	e	n/a
493.2345	0.105	986469	keystroke_s	s	n/a
493.5205	0.089	987041	keystroke_t	t	n/a
494.0445	0.105	988089	keystroke_Key.space	Key.space	n/a
494.3445	0.106	988689	keystroke_c	c	n/a
494.5545	0.105	989109	keystroke_o	o	n/a
494.7645	0.09	989529	keystroke_v	v	n/a
494.9895	0.105	989979	keystroke_e	e	n/a
495.2145	0.09	990429	keystroke_r	r	n/a
495.4395	0.075	990879	keystroke_i	i	n/a
495.6645	0.105	991329	keystroke_n	n	n/a
495.9045	0.09	991809	keystroke_g	g	n/a
496.1595	0.105	992319	keystroke_Key.space	Key.space	n/a
496.3695	0.105	992739	keystroke_s	s	n/a
496.5945	0.106	993189	keystroke_t	t	n/a
496.8945	0.12	993789	keystroke_i	i	n/a
497.1205	0.089	994241	keystroke_c	c	n/a
497.2545	0.0895	994509	keystroke_k	k	n/a
497.449	0.105	994898	keystroke_e	e	n/a
497.644	0.09	995288	keystroke_r	r	n/a
497.914	0.09	995828	keystroke_s	s	n/a
498.259	0.09	996518	keystroke_Key.space	Key.space	n/a
498.829	0.09	997658	keystroke_i	i	n/a
499.085	0.074	998170	keystroke_n	n	n/a
499.324	0.105	998648	keystroke_i	i	n/a
499.534	0.09	999068	keystroke_t	t	n/a
500.059	0.09	1000118	keystroke_i	i	n/a
500.254	0.12	1000508	keystroke_a	a	n/a
500.524	0.075	1001048	keystroke_t	t	n/a
500.659	0.105	1001318	keystroke_i	i	n/a
500.825	0.059	1001650	keystroke_v	v	n/a
501.094	0.075	1002188	keystroke_e	e	n/a
501.424	0.09	1002848	keystroke_Key.enter	Key.enter	n/a
501.521	8.335	1003042	prompt	n/a	bangkok victims symptoms trend\n
502.264	0.09	1004528	keystroke_b	b	n/a
502.414	0.136	1004828	keystroke_a	a	n/a
502.535	0.119	1005070	keystroke_n	n	n/a
502.729	0.12	1005458	keystroke_g	g	n/a
502.94	0.09	1005880	keystroke_k	k	n/a
503.179	0.09	1006358	keystroke_o	o	n/a
503.42	0.105	1006840	keystroke_k	k	n/a
503.794	0.09	1007588	keystroke_Key.space	Key.space	n/a
504.109	0.091	1008218	keystroke_v	v	n/a
504.244	0.106	1008488	keystroke_i	i	n/a
504.424	0.12	1008848	keystroke_c	c	n/a
504.694	0.075	1009388	keystroke_t	t	n/a
504.934	0.091	1009868	keystroke_i	i	n/a
505.16	0.104	1010320	keystroke_m	m	n/a
505.685	0.104	1011370	keystroke_s	s	n/a
505.939	0.105	1011878	keystroke_Key.space	Key.space	n/a
506.194	0.106	1012388	keystroke_s	s	n/a
506.479	0.09	1012958	keystroke_y	y	n/a
506.794	0.09	1013588	keystroke_m	m	n/a
507.079	0.105	1014158	keystroke_p	p	n/a
507.305	0.089	1014610	keystroke_t	t	n/a
507.605	0.104	1015210	keystroke_o	o	n/a
507.875	0.089	1015750	keystroke_m	m	n/a
508.159	0.105	1016318	keystroke_s	s	n/a
508.429	0.135	1016858	keystroke_Key.space	Key.space	n/a
508.775	0.074	1017550	keystroke_t	t	n/a
508.984	0.091	1017968	keystroke_r	r	n/a
509.044	0.135	1018088	keystroke_e	e	n/a
509.299	0.105	1018598	keystroke_n	n	n/a
509.479	0.0905	1018958	keystroke_d	d	n/a
509.7495	0.105	1019499	keystroke_Key.enter	Key.enter	n/a
509.8605	8.7865	1019721	prompt	n/a	developed woman tyler comfortable\n
510.4245	0.09	1020849	keystroke_d	d	n/a
510.6945	0.075	1021389	keystroke_e	e	n/a
510.9045	0.075	1021809	keystroke_v	v	n/a
511.1445	0.075	1022289	keystroke_e	e	n/a
511.4595	0.09	1022919	keystroke_l	l	n/a
511.6995	0.105	1023399	keystroke_o	o	n/a
511.9395	0.12	1023879	keystroke_p	p	n/a
512.3145	0.09	1024629	keystroke_e	e	n/a
512.5995	0.06	1025199	keystroke_d	d	n/a
512.7945	0.075	1025589	keystroke_Key.space	Key.space	n/a
513.0195	0.135	1026039	keystroke_w	w	n/a
513.2295	0.075	1026459	keystroke_o	o	n/a
513.4545	0.09	1026909	keystroke_m	m	n/a
513.7095	0.105	1027419	keystroke_a	a	n/a
514.0095	0.09	1028019	keystroke_n	n	n/a
514.2645	0.12	1028529	keystroke_Key.space	Key.space	n/a
514.4745	0.105	1028949	keystroke_t	t	n/a
514.7145	0.075	1029429	keystroke_y	y	n/a
514.9545	0.105	1029909	keystroke_l	l	n/a
515.1945	0.105	1030389	keystroke_e	e	n/a
515.4645	0.075	1030929	keystroke_r	r	n/a
515.7945	0.075	1031589	keystroke_Key.space	Key.space	n/a
515.9895	0.09	1031979	keystroke_c	c	n/a
516.1995	0.075	1032399	keystroke_o	o	n/a
516.4245	0.09	1032849	keystroke_m	m	n/a
516.6645	0.105	1033329	keystroke_f	f	n/a
516.8895	0.09	1033779	keystroke_o	o	n/a
517.0845	0.09	1034169	keystroke_r	r	n/a
517.3395	0.075	1034679	keystroke_t	t	n/a
517.5495	0.165	1035099	keystroke_a	a	n/a
517.7445	0.09	1035489	keystroke_b	b	n/a
517.9845	0.105	1035969	keystroke_l	l	n/a
518.2245	0.09	1036449	keystroke_e	e	n/a
518.5395	0.105	1037079	keystroke_Key.enter	Key.enter	n/a
518.652	8.0795	1037304	prompt	n/a	feedback bytes tackle this's\n
519.3495	0.09	1038699	keystroke_f	f	n/a
519.5595	0.06	1039119	keystroke_e	e	n/a
519.7545	0.045	1039509	keystroke_e	e	n/a
519.9345	0.075	1039869	keystroke_d	d	n/a
520.1745	0.105	1040349	keystroke_b	b	n/a
520.3695	0.12	1040739	keystroke_a	a	n/a
520.5945	0.09	1041189	keystroke_c	c	n/a
520.8495	0.105	1041699	keystroke_k	k	n/a
521.1795	0.09	1042359	keystroke_Key.space	Key.space	n/a
521.7495	0.09	1043499	keystroke_b	b	n/a
522.0045	0.075	1044009	keystroke_y	y	n/a
522.2445	0.075	1044489	keystroke_t	t	n/a
522.5145	0.12	1045029	keystroke_e	e	n/a
522.8295	0.09	1045659	keystroke_s	s	n/a
523.2195	0.12	1046439	keystroke_Key.space	Key.space	n/a
523.6245	0.075	1047249	keystroke_t	t	n/a
523.7895	0.12	1047579	keystroke_a	a	n/a
523.9695	0.09	1047939	keystroke_c	c	n/a
524.1645	0.09	1048329	keystroke_k	k	n/a
524.3895	0.12	1048779	keystroke_l	l	n/a
524.6745	0.105	1049349	keystroke_e	e	n/a
524.8845	0.09	1049769	keystroke_Key.space	Key.space	n/a
525.1545	0.075	1050309	keystroke_t	t	n/a
525.274	0.09	1050548	keystroke_h	h	n/a
525.425	0.134	1050850	keystroke_i	i	n/a
525.619	0.105	1051238	keystroke_s	s	n/a
525.889	0.106	1051778	keystroke_'	'	n/a
526.234	0.09	1052468	keystroke_s	s	n/a
526.609	0.12	1053218	keystroke_Key.enter	Key.enter	n/a
526.7365	7.7355	1053473	prompt	n/a	reply june watches producing\n
527.449	0.091	1054898	keystroke_r	r	n/a
527.614	0.136	1055228	keystroke_e	e	n/a
527.795	0.104	1055590	keystroke_p	p	n/a
528.019	0.076	1056038	keystroke_l	l	n/a
528.275	0.074	1056550	keystroke_y	y	n/a
528.454	0.075	1056908	keystroke_Key.space	Key.space	n/a
528.664	0.075	1057328	keystroke_j	j	n/a
528.875	0.059	1057750	keystroke_u	u	n/a
529.055	0.104	1058110	keystroke_n	n	n/a
529.249	0.105	1058498	keystroke_e	e	n/a
529.445	0.074	1058890	keystroke_Key.space	Key.space	n/a
529.639	0.09	1059278	keystroke_w	w	n/a
529.85	0.105	1059700	keystroke_a	a	n/a
530.06	0.074	1060120	keystroke_t	t	n/a
530.314	0.091	1060628	keystroke_c	c	n/a
530.465	0.105	1060930	keystroke_h	h	n/a
530.704	0.106	1061408	keystroke_e	e	n/a
530.914	0.12	1061828	keystroke_s	s	n/a
531.259	0.105	1062518	keystroke_Key.space	Key.space	n/a
531.575	0.089	1063150	keystroke_p	p	n/a
531.904	0.121	1063808	keystroke_r	r	n/a
532.145	0.104	1064290	keystroke_o	o	n/a
532.64	0.119	1065280	keystroke_d	d	n/a
532.879	0.09	1065758	keystroke_u	u	n/a
533.105	0.089	1066210	keystroke_c	c	n/a
533.42	0.089	1066840	keystroke_i	i	n/a
533.689	0.121	1067378	keystroke_n	n	n/a
533.959	0.076	1067918	keystroke_g	g	n/a
534.35	0.12	1068700	keystroke_Key.enter	Key.enter	n/a
534.477	9.1745	1068954	prompt	n/a	assure thong configuration expects\n
535.145	0.105	1070290	keystroke_a	a	n/a
535.46	0.075	1070920	keystroke_s	s	n/a
535.684	0.09	1071368	keystroke_s	s	n/a
535.925	0.105	1071850	keystroke_u	u	n/a
536.134	0.061	1072268	keystroke_r	r	n/a
536.33	0.104	1072660	keystroke_e	e	n/a
536.614	0.075	1073228	keystroke_Key.space	Key.space	n/a
536.735	0.104	1073470	keystroke_t	t	n/a
536.9	0.12	1073800	keystroke_h	h	n/a
537.14	0.12	1074280	keystroke_o	o	n/a
537.38	0.12	1074760	keystroke_n	n	n/a
537.725	0.089	1075450	keystroke_g	g	n/a
538.084	0.09	1076168	keystroke_Key.space	Key.space	n/a
538.37	0.105	1076740	keystroke_c	c	n/a
538.564	0.075	1077128	keystroke_o	o	n/a
538.82	0.09	1077640	keystroke_n	n	n/a
539.059	0.091	1078118	keystroke_f	f	n/a
539.3	0.12	1078600	keystroke_i	i	n/a
539.555	0.075	1079110	keystroke_g	g	n/a
539.78	0.09	1079560	keystroke_u	u	n/a
539.945	0.105	1079890	keystroke_r	r	n/a
540.215	0.119	1080430	keystroke_a	a	n/a
540.425	0.089	1080850	keystroke_t	t	n/a
540.68	0.134	1081360	keystroke_i	i	n/a
540.92	0.135	1081840	keystroke_o	o	n/a
541.25	0.104	1082500	keystroke_n	n	n/a
541.55	0.104	1083100	keystroke_Key.space	Key.space	n/a
541.82	0.075	1083640	keystroke_e	e	n/a
542.089	0.121	1084178	keystroke_x	x	n/a
542.27	0.105	1084540	keystroke_p	p	n/a
542.435	0.09	1084870	keystroke_e	e	n/a
542.63	0.09	1085260	keystroke_c	c	n/a
542.899	0.091	1085798	keystroke_t	t	n/a
543.125	0.089	1086250	keystroke_s	s	n/a
543.529	0.121	1087058	keystroke_Key.enter	Key.enter	n/a
543.657	9.2645	1087314	prompt	n/a	occurred jenny textiles provider\n
544.43	0.09	1088860	keystroke_o	o	n/a
544.685	0.075	1089370	keystroke_c	c	n/a
544.88	0.09	1089760	keystroke_c	c	n/a
545.105	0.09	1090210	keystroke_u	u	n/a
545.255	0.09	1090510	keystroke_r	r	n/a
545.825	0.075	1091650	keystroke_r	r	n/a
546.095	0.104	1092190	keystroke_e	e	n/a
546.38	0.09	1092760	keystroke_d	d	n/a
546.725	0.104	1093450	keystroke_Key.space	Key.space	n/a
547.22	0.105	1094440	keystroke_j	j	n/a
547.445	0.09	1094890	keystroke_e	e	n/a
547.655	0.075	1095310	keystroke_n	n	n/a
547.925	0.104	1095850	keystroke_n	n	n/a
548.24	0.075	1096480	keystroke_y	y	n/a
548.375	0.104	1096750	keystroke_Key.space	Key.space	n/a
548.795	0.075	1097590	keystroke_t	t	n/a
549.005	0.09	1098010	keystroke_e	e	n/a
549.455	0.09	1098910	keystroke_x	x	n/a
549.725	0.09	1099450	keystroke_t	t	n/a
549.935	0.06	1099870	keystroke_i	i	n/a
550.115	0.105	1100230	keystroke_l	l	n/a
550.34	0.075	1100680	keystroke_e	e	n/a
550.58	0.105	1101160	keystroke_s	s	n/a
551.24	0.09	1102480	keystroke_Key.space	Key.space	n/a
551.45	0.075	1102900	keystroke_p	p	n/a
551.54	0.12	1103080	keystroke_r	r	n/a
551.69	0.12	1103380	keystroke_o	o	n/a
551.825	0.09	1103650	keystroke_v	v	n/a
551.99	0.09	1103980	keystroke_i	i	n/a
552.095	0.075	1104190	keystroke_d	d	n/a
552.32	0.09	1104640	keystroke_e	e	n/a
552.485	0.09	1104970	keystroke_r	r	n/a
552.8	0.12	1105600	keystroke_Key.enter	Key.enter	n/a
552.929	9.2925	1105858	prompt	n/a	hunt threads testimonials using\n
553.79	0.075	1107580	keystroke_h	h	n/a
553.97	0.09	1107940	keystroke_u	u	n/a
554.21	0.12	1108420	keystroke_n	n	n/a
554.435	0.105	1108870	keystroke_t	t	n/a
554.825	0.105	1109650	keystroke_Key.space	Key.space	n/a
555.2	0.105	1110400	keystroke_t	t	n/a
555.38	0.105	1110760	keystroke_h	h	n/a
555.515	0.09	1111030	keystroke_r	r	n/a
555.71	0.09	1111420	keystroke_e	e	n/a
555.935	0.09	1111870	keystroke_a	a	n/a
556.13	0.09	1112260	keystroke_d	d	n/a
556.46	0.105	1112920	keystroke_s	s	n/a
556.85	0.105	1113700	keystroke_Key.space	Key.space	n/a
557.03	0.09	1114060	keystroke_t	t	n/a
557.285	0.075	1114570	keystroke_e	e	n/a
557.465	0.135	1114930	keystroke_s	s	n/a
557.57	0.105	1115140	keystroke_t	t	n/a
557.87	0.105	1115740	keystroke_i	i	n/a
558.155	0.105	1116310	keystroke_o	o	n/a
558.875	0.075	1117750	keystroke_Key.backspace	Key.backspace	n/a
559.175	0.075	1118350	keystroke_m	m	n/a
559.385	0.075	1118770	keystroke_o	o	n/a
559.64	0.075	1119280	keystroke_n	n	n/a
559.85	0.09	1119700	keystroke_i	i	n/a
560	0.15	1120000	keystroke_a	a	n/a
560.195	0.15	1120390	keystroke_l	l	n/a
560.405	0.09	1120810	keystroke_s	s	n/a
560.93	0.075	1121860	keystroke_Key.space	Key.space	n/a
561.14	0.105	1122280	keystroke_u	u	n/a
561.29	0.135	1122580	keystroke_s	s	n/a
561.44	0.075	1122880	keystroke_i	i	n/a
561.62	0.105	1123240	keystroke_n	n	n/a
561.815	0.09	1123630	keystroke_g	g	n/a
562.1	0.12	1124200	keystroke_Key.enter	Key.enter	n/a
562.2255	8.081	1124451	prompt	n/a	doctor captured frequency texture\n
562.835	0.12	1125670	keystroke_d	d	n/a
562.985	0.105	1125970	keystroke_o	o	n/a
563.165	0.0895	1126330	keystroke_c	c	n/a
563.36	0.0895	1126720	keystroke_t	t	n/a
563.5545	0.105	1127109	keystroke_o	o	n/a
563.7195	0.09	1127439	keystroke_r	r	n/a
563.9445	0.09	1127889	keystroke_Key.space	Key.space	n/a
564.17	0.0745	1128340	keystroke_d	d	n/a
564.4695	0.09	1128939	keystroke_Key.backspace	Key.backspace	n/a
564.6795	0.09	1129359	keystroke_c	c	n/a
564.8745	0.12	1129749	keystroke_a	a	n/a
565.0395	0.105	1130079	keystroke_p	p	n/a
565.2495	0.105	1130499	keystroke_t	t	n/a
565.4595	0.12	1130919	keystroke_u	u	n/a
565.6395	0.09	1131279	keystroke_r	r	n/a
565.8945	0.075	1131789	keystroke_e	e	n/a
566.1645	0.09	1132329	keystroke_d	d	n/a
566.3595	0.105	1132719	keystroke_Key.space	Key.space	n/a
566.5095	0.09	1133019	keystroke_f	f	n/a
566.7195	0.105	1133439	keystroke_r	r	n/a
566.9145	0.09	1133829	keystroke_e	e	n/a
567.23	0.1195	1134460	keystroke_q	q	n/a
567.4395	0.12	1134879	keystroke_u	u	n/a
567.6345	0.12	1135269	keystroke_e	e	n/a
567.7995	0.135	1135599	keystroke_n	n	n/a
567.9945	0.105	1135989	keystroke_c	c	n/a
568.2195	0.075	1136439	keystroke_y	y	n/a
568.4295	0.09	1136859	keystroke_Key.space	Key.space	n/a
568.6395	0.09	1137279	keystroke_t	t	n/a
569.0145	0.06	1138029	keystroke_e	e	n/a
569.2395	0.105	1138479	keystroke_x	x	n/a
569.3895	0.105	1138779	keystroke_t	t	n/a
569.5995	0.135	1139199	keystroke_u	u	n/a
569.7795	0.09	1139559	keystroke_r	r	n/a
569.8545	0.09	1139709	keystroke_e	e	n/a
570.1995	0.105	1140399	keystroke_Key.enter	Key.enter	n/a
570.312	13.18	1140624	prompt	n/a	transparent companies debut maria\n
571.0245	0.075	1142049	keystroke_t	t	n/a
571.2195	0.075	1142439	keystroke_r	r	n/a
571.3545	0.135	1142709	keystroke_a	a	n/a
571.6095	0.12	1143219	keystroke_n	n	n/a
571.7895	0.135	1143579	keystroke_s	s	n/a
572.0445	0.091	1144089	keystroke_p	p	n/a
572.2545	0.105	1144509	keystroke_e	e	n/a
572.5245	0.105	1145049	keystroke_r	r	n/a
573.0945	0.09	1146189	keystroke_e	e	n/a
573.3195	0.09	1146639	keystroke_n	n	n/a
573.7245	0.09	1147449	keystroke_Key.backspace	Key.backspace	n/a
574.0845	0.105	1148169	keystroke_Key.backspace	Key.backspace	n/a
574.4445	0.09	1148889	keystroke_Key.backspace	Key.backspace	n/a
574.7745	0.09	1149549	keystroke_Key.backspace	Key.backspace	n/a
577.1025	0.072	1154205	keystroke_a	a	n/a
577.3395	0.09	1154679	keystroke_r	r	n/a
577.5945	0.15	1155189	keystroke_e	e	n/a
577.8495	0.135	1155699	keystroke_n	n	n/a
578.0745	0.09	1156149	keystroke_t	t	n/a
578.2695	0.135	1156539	keystroke_Key.space	Key.space	n/a
578.5095	0.105	1157019	keystroke_c	c	n/a
578.6895	0.135	1157379	keystroke_o	o	n/a
578.9895	0.105	1157979	keystroke_m	m	n/a
579.2595	0.136	1158519	keystroke_p	p	n/a
579.5595	0.12	1159119	keystroke_a	a	n/a
579.8145	0.075	1159629	keystroke_n	n	n/a
580.0245	0.12	1160049	keystroke_i	i	n/a
580.2195	0.075	1160439	keystroke_e	e	n/a
580.4445	0.105	1160889	keystroke_s	s	n/a
580.6845	0.09	1161369	keystroke_Key.space	Key.space	n/a
580.8795	0.075	1161759	keystroke_d	d	n/a
581.0895	0.105	1162179	keystroke_e	e	n/a
581.3445	0.075	1162689	keystroke_b	b	n/a
581.5245	0.135	1163049	keystroke_u	u	n/a
581.7645	0.09	1163529	keystroke_t	t	n/a
581.9745	0.09	1163949	keystroke_Key.space	Key.space	n/a
582.1845	0.105	1164369	keystroke_m	m	n/a
582.3645	0.105	1164729	keystroke_a	a	n/a
582.6045	0.09	1165209	keystroke_r	r	n/a
582.7995	0.09	1165599	keystroke_i	i	n/a
582.9645	0.105	1165929	keystroke_a	a	n/a
583.3995	0.09	1166799	keystroke_Key.enter	Key.enter	n/a
583.497	8.0645	1166994	prompt	n/a	industrial ford pads coupled\n
584.1345	0.075	1168269	keystroke_i	i	n/a
584.3745	0.105	1168749	keystroke_n	n	n/a
584.6145	0.105	1169229	keystroke_d	d	n/a
584.8095	0.105	1169619	keystroke_u	u	n/a
584.9745	0.105	1169949	keystroke_s	s	n/a
585.2445	0.075	1170489	keystroke_t	t	n/a
585.4245	0.105	1170849	keystroke_r	r	n/a
585.6345	0.105	1171269	keystroke_i	i	n/a
585.8295	0.165	1171659	keystroke_a	a	n/a
586.0545	0.12	1172109	keystroke_l	l	n/a
586.2795	0.105	1172559	keystroke_Key.space	Key.space	n/a
586.4895	0.12	1172979	keystroke_f	f	n/a
586.6695	0.135	1173339	keystroke_o	o	n/a
586.8945	0.09	1173789	keystroke_r	r	n/a
587.1645	0.075	1174329	keystroke_d	d	n/a
587.3295	0.105	1174659	keystroke_Key.space	Key.space	n/a
587.6745	0.09	1175349	keystroke_p	p	n/a
587.8245	0.15	1175649	keystroke_a	a	n/a
588.0795	0.105	1176159	keystroke_n	n	n/a
588.6645	0.105	1177329	keystroke_Key.backspace	Key.backspace	n/a
588.9645	0.075	1177929	keystroke_d	d	n/a
589.2045	0.105	1178409	keystroke_s	s	n/a
589.4595	0.075	1178919	keystroke_Key.space	Key.space	n/a
589.5945	0.105	1179189	keystroke_c	c	n/a
589.7145	0.105	1179429	keystroke_o	o	n/a
589.9395	0.075	1179879	keystroke_u	u	n/a
590.1345	0.075	1180269	keystroke_p	p	n/a
590.5845	0.105	1181169	keystroke_l	l	n/a
590.8995	0.06	1181799	keystroke_e	e	n/a
591.1545	0.06	1182309	keystroke_d	d	n/a
591.4545	0.105	1182909	keystroke_Key.enter	Key.enter	n/a
591.565	12.296	1183130	prompt	n/a	biological mandatory justify letter\n
592.2945	0.09	1184589	keystroke_b	b	n/a
592.5045	0.09	1185009	keystroke_i	i	n/a
592.7145	0.105	1185429	keystroke_o	o	n/a
592.9395	0.105	1185879	keystroke_l	l	n/a
593.2395	0.12	1186479	keystroke_o	o	n/a
593.5245	0.09	1187049	keystroke_g	g	n/a
593.7345	0.09	1187469	keystroke_i	i	n/a
594.1095	0.12	1188219	keystroke_a	a	n/a
594.4095	0.075	1188819	keystroke_l	l	n/a
594.6495	0.09	1189299	keystroke_Key.space	Key.space	n/a
595.4595	0.09	1190919	keystroke_Key.backspace	Key.backspace	n/a
595.8045	0.09	1191609	keystroke_Key.backspace	Key.backspace	n/a
596.2995	0.075	1192599	keystroke_Key.backspace	Key.backspace	n/a
596.4945	0.12	1192989	keystroke_c	c	n/a
597.1995	0.135	1194399	keystroke_a	a	n/a
597.4245	0.09	1194849	keystroke_l	l	n/a
597.6645	0.135	1195329	keystroke_Key.space	Key.space	n/a
598.3095	0.09	1196619	keystroke_m	m	n/a
598.4745	0.135	1196949	keystroke_a	a	n/a
598.7005	0.089	1197401	keystroke_n	n	n/a
598.8945	0.09	1197789	keystroke_d	d	n/a
599.1045	0.09	1198209	keystroke_a	a	n/a
599.3145	0.12	1198629	keystroke_t	t	n/a
599.5395	0.09	1199079	keystroke_o	o	n/a
599.7495	0.075	1199499	keystroke_r	r	n/a
599.9595	0.075	1199919	keystroke_y	y	n/a
600.1695	0.075	1200339	keystroke_Key.space	Key.space	n/a
600.5745	0.09	1201149	keystroke_j	j	n/a
600.7995	0.09	1201599	keystroke_u	u	n/a
600.9345	0.12	1201869	keystroke_s	s	n/a
601.1445	0.105	1202289	keystroke_t	t	n/a
601.3545	0.105	1202709	keystroke_i	i	n/a
601.5645	0.12	1203129	keystroke_f	f	n/a
601.8195	0.09	1203639	keystroke_y	y	n/a
602.0595	0.09	1204119	keystroke_Key.space	Key.space	n/a
602.3295	0.09	1204659	keystroke_l	l	n/a
602.5695	0.075	1205139	keystroke_e	e	n/a
602.7795	0.06	1205559	keystroke_t	t	n/a
602.9295	0.075	1205859	keystroke_t	t	n/a
603.1395	0.135	1206279	keystroke_e	e	n/a
603.2295	0.105	1206459	keystroke_r	r	n/a
603.7545	0.105	1207509	keystroke_Key.enter	Key.enter	n/a
603.8655	15.8355	1207731	prompt	n/a	establishment jimmy meals virginia\n
604.7145	0.06	1209429	keystroke_e	e	n/a
604.8795	0.105	1209759	keystroke_s	s	n/a
605.0295	0.09	1210059	keystroke_t	t	n/a
605.1345	0.135	1210269	keystroke_a	a	n/a
605.2845	0.06	1210569	keystroke_b	b	n/a
605.4195	0.135	1210839	keystroke_l	l	n/a
605.4795	0.135	1210959	keystroke_i	i	n/a
605.6445	0.12	1211289	keystroke_s	s	n/a
605.8095	0.09	1211619	keystroke_m	m	n/a
605.9445	0.105	1211889	keystroke_e	e	n/a
606.0795	0.12	1212159	keystroke_n	n	n/a
606.2295	0.09	1212459	keystroke_t	t	n/a
606.3795	0.105	1212759	keystroke_Key.space	Key.space	n/a
606.4695	0.135	1212939	keystroke_j	j	n/a
606.7245	0.075	1213449	keystroke_i	i	n/a
