onset	duration	sample	value	key	prompt_text
10.9225	0.118	21845	keystroke	h	n/a
11.002	0.1405	22004	keystroke	o	n/a
11.1425	0.117	22285	keystroke	m	n/a
11.243	0.1175	22486	keystroke	e	n/a
11.3325	0.102	22665	keystroke	Key.space	n/a
11.4595	0.126	22919	keystroke	r	n/a
11.5375	0.1255	23075	keystroke	e	n/a
11.6635	0.1245	23327	keystroke	s	n/a
11.7355	0.1335	23471	keystroke	o	n/a
11.8365	0.0775	23673	keystroke	n	n/a
11.9875	0.095	23975	keystroke	a	n/a
12.1025	0.101	24205	keystroke	n	n/a
12.2045	0.1165	24409	keystroke	c	n/a
12.2655	0.117	24531	keystroke	e	n/a
12.3615	0.078	24723	keystroke	Key.enter	n/a
116.6845	0.11	233369	keystroke	m	n/a
116.74	0.157	233480	keystroke	i	n/a
116.881	0.1105	233762	keystroke	n	n/a
117.012	0.096	234024	keystroke	a	n/a
117.1075	0.1785	234215	keystroke	f	n/a
117.1765	0.1105	234353	keystroke	a	n/a
117.286	0.0635	234572	keystroke	h	n/a
117.4565	0.1265	234913	keystroke	m	n/a
117.4795	0.103	234959	keystroke	i	n/a
119.491	0.286	238982	keystroke	Key.ctrl_l	n/a
135.406	0.396	270812	keystroke	Key.ctrl_l	n/a
136.4985	0.1965	272997	keystroke	Key.ctrl_l	n/a
136.5635	0.1105	273127	keystroke		n/a
147.43	10.05	294860	prompt	n/a	the quick brown fox jumps over a lazy dog\n
149.288	0.0435	298576	keystroke	Key.space	n/a
149.9015	0.12	299803	keystroke	Key.backspace	n/a
150.8915	0.0905	301783	keystroke	t	n/a
151.0265	0.106	302053	keystroke	h	n/a
151.116	0.106	302232	keystroke	e	n/a
151.2815	0.076	302563	keystroke	Key.space	n/a
151.417	0.1055	302834	keystroke	q	n/a
151.567	0.09	303134	keystroke	u	n/a
151.777	0.1045	303554	keystroke	i	n/a
151.927	0.1195	303854	keystroke	c	n/a
152.0615	0.105	304123	keystroke	k	n/a
152.212	0.0895	304424	keystroke	Key.space	n/a
152.467	0.09	304934	keystroke	b	n/a
152.6925	0.1045	305385	keystroke	r	n/a
152.8115	0.09	305623	keystroke	o	n/a
152.917	0.1045	305834	keystroke	w	n/a
153.067	0.105	306134	keystroke	n	n/a
153.2765	0.075	306553	keystroke	Key.space	n/a
153.3975	0.119	306795	keystroke	f	n/a
153.5625	0.105	307125	keystroke	o	n/a
153.7715	0.106	307543	keystroke	x	n/a
153.8615	0.0605	307723	keystroke	Key.space	n/a
154.0715	0.12	308143	keystroke	j	n/a
154.297	0.0895	308594	keystroke	u	n/a
154.4915	0.106	308983	keystroke	m	n/a
154.6425	0.105	309285	keystroke	p	n/a
154.7925	0.119	309585	keystroke	s	n/a
154.927	0.0895	309854	keystroke	Key.space	n/a
155.122	0.1205	310244	keystroke	o	n/a
155.362	0.1045	310724	keystroke	v	n/a
155.6025	0.119	311205	keystroke	e	n/a
155.677	0.1055	311354	keystroke	r	n/a
155.827	0.075	311654	keystroke	Key.space	n/a
156.037	0.1045	312074	keystroke	a	n/a
156.1565	0.06	312313	keystroke	Key.space	n/a
156.3065	0.135	312613	keystroke	l	n/a
156.412	0.0895	312824	keystroke	a	n/a
156.622	0.0895	313244	keystroke	z	n/a
156.7275	0.089	313455	keystroke	y	n/a
156.877	0.075	313754	keystroke	Key.space	n/a
157.027	0.1205	314054	keystroke	d	n/a
157.132	0.09	314264	keystroke	o	n/a
157.267	0.0895	314534	keystroke	g	n/a
157.4015	0.0755	314803	keystroke	Key.enter	n/a
157.484	8.1245	314968	prompt	n/a	leader comm safari users\n
161.3635	0.029	322727	keystroke	l	n/a
161.4065	0.091	322813	keystroke	e	n/a
161.6025	0.1045	323205	keystroke	a	n/a
161.7665	0.1055	323533	keystroke	d	n/a
161.9915	0.1505	323983	keystroke	e	n/a
162.0815	0.1055	324163	keystroke	r	n/a
162.2915	0.061	324583	keystroke	Key.space	n/a
162.3665	0.12	324733	keystroke	c	n/a
162.5015	0.0605	325003	keystroke	o	n/a
162.712	0.0755	325424	keystroke	m	n/a
162.892	0.1045	325784	keystroke	m	n/a
163.1015	0.0755	326203	keystroke	Key.space	n/a
163.2215	0.0905	326443	keystroke	s	n/a
163.432	0.12	326864	keystroke	a	n/a
163.6275	0.104	327255	keystroke	f	n/a
163.8075	0.089	327615	keystroke	a	n/a
164.0165	0.075	328033	keystroke	r	n/a
164.137	0.0895	328274	keystroke	i	n/a
164.332	0.0745	328664	keystroke	Key.space	n/a
164.572	0.0755	329144	keystroke	u	n/a
164.6765	0.121	329353	keystroke	s	n/a
164.917	0.135	329834	keystroke	e	n/a
165.1565	0.105	330313	keystroke	r	n/a
165.367	0.0605	330734	keystroke	s	n/a
165.5315	0.0755	331063	keystroke	Key.enter	n/a
165.613	7.9455	331226	prompt	n/a	cowboy independence thirty biological\n
166.3565	0.1205	332713	keystroke	c	n/a
166.4915	0.075	332983	keystroke	o	n/a
166.627	0.1205	333254	keystroke	w	n/a
166.9265	0.0605	333853	keystroke	b	n/a
167.0465	0.0905	334093	keystroke	o	n/a
167.2725	0.09	334545	keystroke	y	n/a
167.4515	0.075	334903	keystroke	Key.space	n/a
167.6315	0.106	335263	keystroke	i	n/a
167.8425	0.104	335685	keystroke	n	n/a
168.022	0.0755	336044	keystroke	d	n/a
168.2615	0.075	336523	keystroke	e	n/a
168.4565	0.061	336913	keystroke	p	n/a
168.727	0.1045	337454	keystroke	e	n/a
168.862	0.09	337724	keystroke	n	n/a
168.9825	0.089	337965	keystroke	d	n/a
169.1765	0.1055	338353	keystroke	e	n/a
169.2975	0.1045	338595	keystroke	n	n/a
169.4465	0.105	338893	keystroke	c	n/a
169.6725	0.1195	339345	keystroke	e	n/a
169.837	0.105	339674	keystroke	Key.space	n/a
170.092	0.075	340184	keystroke	t	n/a
170.2115	0.075	340423	keystroke	h	n/a
170.3915	0.1205	340783	keystroke	i	n/a
170.527	0.1055	341054	keystroke	r	n/a
170.737	0.0895	341474	keystroke	t	n/a
170.812	0.1195	341624	keystroke	y	n/a
171.007	0.075	342014	keystroke	Key.space	n/a
171.2465	0.091	342493	keystroke	b	n/a
171.367	0.1045	342734	keystroke	i	n/a
171.5615	0.105	343123	keystroke	o	n/a
171.7725	0.105	343545	keystroke	l	n/a
171.9665	0.106	343933	keystroke	o	n/a
172.147	0.0595	344294	keystroke	g	n/a
172.2665	0.1055	344533	keystroke	i	n/a
172.3865	0.1655	344773	keystroke	c	n/a
172.8525	0.1045	345705	keystroke	a	n/a
173.0775	0.134	346155	keystroke	l	n/a
173.4815	0.0755	346963	keystroke	Key.enter	n/a
173.5635	5.2	347127	prompt	n/a	dairy jungle tips tested\n
174.3975	0.119	348795	keystroke	d	n/a
174.5925	0.104	349185	keystroke	a	n/a
174.6665	0.121	349333	keystroke	i	n/a
174.8615	0.105	349723	keystroke	r	n/a
175.0115	0.105	350023	keystroke	y	n/a
175.2065	0.0905	350413	keystroke	Key.space	n/a
175.4915	0.091	350983	keystroke	j	n/a
175.6865	0.0755	351373	keystroke	u	n/a
175.882	0.1045	351764	keystroke	n	n/a
176.0175	0.119	352035	keystroke	g	n/a
176.167	0.12	352334	keystroke	l	n/a
176.302	0.1195	352604	keystroke	e	n/a
176.467	0.09	352934	keystroke	Key.space	n/a
176.6315	0.075	353263	keystroke	t	n/a
176.7515	0.1055	353503	keystroke	i	n/a
176.962	0.0905	353924	keystroke	p	n/a
177.1115	0.106	354223	keystroke	s	n/a
177.2315	0.0755	354463	keystroke	Key.space	n/a
177.456	0.121	354912	keystroke	t	n/a
177.637	0.0745	355274	keystroke	e	n/a
177.8165	0.09	355633	keystroke	s	n/a
178.0415	0.12	356083	keystroke	t	n/a
178.2665	0.06	356533	keystroke	e	n/a
178.4615	0.12	356923	keystroke	d	n/a
178.702	0.0595	357404	keystroke	Key.enter	n/a
178.768	6.7605	357536	prompt	n/a	executed bike developments bids\n
179.482	0.089	358964	keystroke	e	n/a
179.7225	0.119	359445	keystroke	x	n/a
179.9465	0.105	359893	keystroke	e	n/a
180.142	0.1345	360284	keystroke	c	n/a
180.3515	0.09	360703	keystroke	u	n/a
180.577	0.1045	361154	keystroke	t	n/a
180.7725	0.074	361545	keystroke	e	n/a
180.952	0.1345	361904	keystroke	d	n/a
181.1165	0.09	362233	keystroke	Key.space	n/a
181.297	0.0905	362594	keystroke	b	n/a
181.5365	0.045	363073	keystroke	i	n/a
181.7165	0.076	363433	keystroke	k	n/a
181.8365	0.091	363673	keystroke	e	n/a
182.0015	0.0755	364003	keystroke	Key.space	n/a
182.152	0.1045	364304	keystroke	d	n/a
182.362	0.0905	364724	keystroke	e	n/a
182.587	0.09	365174	keystroke	v	n/a
182.782	0.0755	365564	keystroke	e	n/a
182.961	0.106	365922	keystroke	l	n/a
183.187	0.0895	366374	keystroke	o	n/a
183.3965	0.0905	366793	keystroke	p	n/a
183.621	0.106	367242	keystroke	m	n/a
183.8615	0.0905	367723	keystroke	e	n/a
184.0415	0.076	368083	keystroke	n	n/a
184.2515	0.0905	368503	keystroke	t	n/a
184.417	0.1195	368834	keystroke	s	n/a
184.597	0.09	369194	keystroke	Key.space	n/a
184.792	0.0905	369584	keystroke	b	n/a
185.0015	0.1205	370003	keystroke	i	n/a
185.107	0.1045	370214	keystroke	d	n/a
185.2865	0.091	370573	keystroke	s	n/a
185.4515	0.075	370903	keystroke	Key.enter	n/a
185.5335	5.5295	371067	prompt	n/a	guide forest gourmet stick\n
186.3515	0.1055	372703	keystroke	g	n/a
186.4865	0.075	372973	keystroke	u	n/a
186.6965	0.1055	373393	keystroke	i	n/a
186.8615	0.09	373723	keystroke	d	n/a
187.0715	0.105	374143	keystroke	e	n/a
187.2665	0.09	374533	keystroke	Key.space	n/a
187.4325	0.1195	374865	keystroke	f	n/a
187.6115	0.0905	375223	keystroke	o	n/a
187.747	0.1045	375494	keystroke	r	n/a
187.957	0.09	375914	keystroke	e	n/a
188.1665	0.09	376333	keystroke	s	n/a
188.3765	0.0905	376753	keystroke	t	n/a
188.527	0.0595	377054	keystroke	Key.space	n/a
188.676	0.105	377352	keystroke	g	n/a
188.8715	0.09	377743	keystroke	o	n/a
189.0815	0.09	378163	keystroke	u	n/a
189.1865	0.105	378373	keystroke	r	n/a
189.381	0.1205	378762	keystroke	m	n/a
189.547	0.135	379094	keystroke	e	n/a
189.7565	0.1055	379513	keystroke	t	n/a
189.922	0.075	379844	keystroke	Key.space	n/a
190.086	0.09	380172	keystroke	s	n/a
190.296	0.076	380592	keystroke	t	n/a
190.446	0.091	380892	keystroke	i	n/a
190.6115	0.09	381223	keystroke	c	n/a
190.7465	0.075	381493	keystroke	k	n/a
190.9865	0.075	381973	keystroke	Key.enter	n/a
191.0705	7.1475	382141	prompt	n/a	altered varying locator where'd\n
191.917	0.1195	383834	keystroke	a	n/a
192.0665	0.1055	384133	keystroke	l	n/a
192.276	0.12	384552	keystroke	t	n/a
192.516	0.105	385032	keystroke	e	n/a
192.712	0.0895	385424	keystroke	r	n/a
192.921	0.0905	385842	keystroke	e	n/a
193.1315	0.105	386263	keystroke	d	n/a
193.2665	0.09	386533	keystroke	Key.space	n/a
193.642	0.1045	387284	keystroke	v	n/a
193.8515	0.0905	387703	keystroke	a	n/a
194.1365	0.016	388273	keystroke	r	n/a
194.181	0.0905	388362	keystroke	y	n/a
194.392	0.09	388784	keystroke	i	n/a
194.5865	0.09	389173	keystroke	n	n/a
194.7515	0.0905	389503	keystroke	g	n/a
194.9165	0.09	389833	keystroke	Key.space	n/a
195.1265	0.1055	390253	keystroke	l	n/a
195.3365	0.1055	390673	keystroke	o	n/a
195.4265	0.135	390853	keystroke	c	n/a
195.667	0.09	391334	keystroke	a	n/a
195.8915	0.075	391783	keystroke	t	n/a
196.026	0.121	392052	keystroke	o	n/a
196.162	0.1045	392324	keystroke	r	n/a
196.3415	0.09	392683	keystroke	Key.space	n/a
196.552	0.075	393104	keystroke	w	n/a
196.7615	0.09	393523	keystroke	h	n/a
196.8965	0.1345	393793	keystroke	e	n/a
197.107	0.164	394214	keystroke	r	n/a
197.2415	0.12	394483	keystroke	e	n/a
197.617	0.119	395234	keystroke	'	n/a
197.8565	0.105	395713	keystroke	d	n/a
198.1565	0.06	396313	keystroke	Key.enter	n/a
198.2225	7.961	396445	prompt	n/a	compact satisfied injection remember\n
199.131	0.1505	398262	keystroke	c	n/a
199.251	0.105	398502	keystroke	o	n/a
199.477	0.09	398954	keystroke	m	n/a
199.6715	0.12	399343	keystroke	p	n/a
199.8365	0.09	399673	keystroke	a	n/a
200.032	0.1195	400064	keystroke	c	n/a
200.332	0.06	400664	keystroke	t	n/a
200.482	0.0745	400964	keystroke	Key.space	n/a
200.6465	0.075	401293	keystroke	s	n/a
200.856	0.09	401712	keystroke	a	n/a
201.082	0.09	402164	keystroke	t	n/a
201.232	0.119	402464	keystroke	i	n/a
201.3815	0.0755	402763	keystroke	s	n/a
201.531	0.136	403062	keystroke	f	n/a
201.697	0.119	403394	keystroke	i	n/a
201.831	0.0905	403662	keystroke	e	n/a
202.071	0.121	404142	keystroke	d	n/a
202.251	0.0905	404502	keystroke	Key.space	n/a
202.4795	0.087	404959	keystroke	i	n/a
202.687	0.105	405374	keystroke	n	n/a
202.9265	0.1045	405853	keystroke	j	n/a
203.091	0.106	406182	keystroke	e	n/a
203.301	0.15	406602	keystroke	c	n/a
203.5865	0.0595	407173	keystroke	t	n/a
203.7515	0.0755	407503	keystroke	i	n/a
203.9465	0.075	407893	keystroke	o	n/a
204.127	0.105	408254	keystroke	n	n/a
204.336	0.0755	408672	keystroke	Key.space	n/a
204.546	0.121	409092	keystroke	r	n/a
204.727	0.1195	409454	keystroke	e	n/a
204.951	0.12	409902	keystroke	m	n/a
205.1315	0.1355	410263	keystroke	e	n/a
205.2815	0.1055	410563	keystroke	m	n/a
205.4465	0.0905	410893	keystroke	b	n/a
205.687	0.0895	411374	keystroke	e	n/a
205.927	0.09	411854	keystroke	r	n/a
206.107	0.074	412214	keystroke	Key.enter	n/a
206.194	7.324	412388	prompt	n/a	sublime inclusive lookup pure\n
206.947	0.12	413894	keystroke	s	n/a
207.171	0.0905	414342	keystroke	u	n/a
207.4415	0.1055	414883	keystroke	b	n/a
207.5915	0.1055	415183	keystroke	l	n/a
207.8465	0.0905	415693	keystroke	m	n/a
208.1765	0.0895	416353	keystroke	Key.backspace	n/a
208.4765	0.0905	416953	keystroke	i	n/a
208.7015	0.1205	417403	keystroke	m	n/a
208.8665	0.1205	417733	keystroke	e	n/a
209.046	0.121	418092	keystroke	Key.space	n/a
209.272	0.09	418544	keystroke	i	n/a
209.482	0.089	418964	keystroke	n	n/a
209.662	0.1195	419324	keystroke	c	n/a
209.797	0.1045	419594	keystroke	l	n/a
210.051	0.091	420102	keystroke	u	n/a
210.187	0.105	420374	keystroke	s	n/a
210.4265	0.0895	420853	keystroke	i	n/a
210.577	0.105	421154	keystroke	v	n/a
210.846	0.076	421692	keystroke	e	n/a
211.011	0.1055	422022	keystroke	Key.space	n/a
211.237	0.0745	422474	keystroke	l	n/a
211.446	0.061	422892	keystroke	o	n/a
211.642	0.0895	423284	keystroke	o	n/a
211.836	0.1055	423672	keystroke	k	n/a
212.0765	0.1055	424153	keystroke	u	n/a
212.2565	0.075	424513	keystroke	p	n/a
212.4365	0.1045	424873	keystroke	Key.space	n/a
212.6465	0.0745	425293	keystroke	p	n/a
212.856	0.121	425712	keystroke	u	n/a
213.037	0.104	426074	keystroke	r	n/a
213.2465	0.0755	426493	keystroke	e	n/a
213.442	0.075	426884	keystroke	Key.enter	n/a
213.527	6.186	427054	prompt	n/a	switched browsing genesis kyle\n
214.162	0.09	428324	keystroke	s	n/a
214.371	0.106	428742	keystroke	w	n/a
214.507	0.135	429014	keystroke	i	n/a
214.687	0.089	429374	keystroke	t	n/a
214.942	0.0745	429884	keystroke	c	n/a
215.0315	0.1055	430063	keystroke	h	n/a
215.271	0.0755	430542	keystroke	e	n/a
215.482	0.1055	430964	keystroke	d	n/a
215.6315	0.0905	431263	keystroke	Key.space	n/a
215.827	0.0745	431654	keystroke	b	n/a
216.067	0.0905	432134	keystroke	r	n/a
216.2015	0.1205	432403	keystroke	o	n/a
216.3515	0.075	432703	keystroke	w	n/a
216.5765	0.0895	433153	keystroke	s	n/a
216.681	0.106	433362	keystroke	i	n/a
216.907	0.1045	433814	keystroke	n	n/a
217.042	0.105	434084	keystroke	g	n/a
217.192	0.105	434384	keystroke	Key.space	n/a
217.4015	0.105	434803	keystroke	g	n/a
217.627	0.09	435254	keystroke	e	n/a
217.777	0.1045	435554	keystroke	n	n/a
217.9715	0.075	435943	keystroke	e	n/a
218.196	0.09	436392	keystroke	s	n/a
218.3615	0.1055	436723	keystroke	i	n/a
218.5115	0.105	437023	keystroke	s	n/a
218.661	0.1205	437322	keystroke	Key.space	n/a
218.872	0.075	437744	keystroke	k	n/a
219.097	0.09	438194	keystroke	y	n/a
219.322	0.09	438644	keystroke	l	n/a
219.442	0.09	438884	keystroke	e	n/a
219.6365	0.0755	439273	keystroke	Key.enter	n/a
219.719	7.524	439438	prompt	n/a	reforms expects invasion processor\n
220.492	0.1045	440984	keystroke	r	n/a
220.6865	0.1055	441373	keystroke	e	n/a
220.8965	0.105	441793	keystroke	f	n/a
221.0465	0.09	442093	keystroke	o	n/a
221.1965	0.0905	442393	keystroke	r	n/a
221.3315	0.12	442663	keystroke	m	n/a
221.512	0.09	443024	keystroke	s	n/a
221.646	0.105	443292	keystroke	Key.space	n/a
221.857	0.06	443714	keystroke	e	n/a
222.0665	0.135	444133	keystroke	x	n/a
222.2615	0.1205	444523	keystroke	p	n/a
222.457	0.105	444914	keystroke	e	n/a
222.667	0.1195	445334	keystroke	c	n/a
222.9665	0.0745	445933	keystroke	t	n/a
223.1615	0.09	446323	keystroke	s	n/a
223.327	0.0745	446654	keystroke	Key.space	n/a
223.5515	0.0755	447103	keystroke	i	n/a
223.7465	0.09	447493	keystroke	n	n/a
223.882	0.09	447764	keystroke	v	n/a
224.0915	0.105	448183	keystroke	a	n/a
224.3015	0.09	448603	keystroke	s	n/a
224.497	0.089	448994	keystroke	i	n/a
224.7215	0.0895	449443	keystroke	o	n/a
224.9315	0.12	449863	keystroke	n	n/a
225.127	0.089	450254	keystroke	Key.space	n/a
225.3365	0.105	450673	keystroke	p	n/a
225.5765	0.105	451153	keystroke	r	n/a
225.6815	0.1055	451363	keystroke	o	n/a
225.9365	0.0755	451873	keystroke	c	n/a
226.192	0.0595	452384	keystroke	e	n/a
226.4165	0.0605	452833	keystroke	s	n/a
226.6115	0.0905	453223	keystroke	s	n/a
226.837	0.075	453674	keystroke	o	n/a
226.957	0.0595	453914	keystroke	r	n/a
227.197	0.0445	454394	keystroke	Key.enter	n/a
227.2475	6.4905	454495	prompt	n/a	canberra czech cave drilling\n
227.9915	0.105	455983	keystroke	c	n/a
228.202	0.0895	456404	keystroke	a	n/a
228.322	0.075	456644	keystroke	n	n/a
228.592	0.09	457184	keystroke	b	n/a
228.8175	0.0885	457635	keystroke	e	n/a
228.997	0.0745	457994	keystroke	r	n/a
229.1915	0.105	458383	keystroke	r	n/a
229.4015	0.1205	458803	keystroke	a	n/a
229.5965	0.1045	459193	keystroke	Key.space	n/a
229.7915	0.1045	459583	keystroke	c	n/a
230.0165	0.12	460033	keystroke	z	n/a
230.2865	0.075	460573	keystroke	e	n/a
230.5115	0.105	461023	keystroke	c	n/a
230.7065	0.0905	461413	keystroke	h	n/a
230.9015	0.09	461803	keystroke	Key.space	n/a
231.0815	0.15	462163	keystroke	c	n/a
231.3365	0.12	462673	keystroke	a	n/a
231.5615	0.1055	463123	keystroke	v	n/a
231.801	0.0755	463602	keystroke	e	n/a
231.9665	0.0905	463933	keystroke	Key.space	n/a
232.1315	0.0905	464263	keystroke	d	n/a
232.357	0.09	464714	keystroke	r	n/a
232.4765	0.0905	464953	keystroke	i	n/a
232.6865	0.09	465373	keystroke	l	n/a
232.8965	0.1055	465793	keystroke	l	n/a
233.1365	0.075	466273	keystroke	i	n/a
233.317	0.1195	466634	keystroke	n	n/a
233.4665	0.0755	466933	keystroke	g	n/a
233.6615	0.075	467323	keystroke	Key.enter	n/a
233.743	5.62	467486	prompt	n/a	shine creek additions funk\n
234.4265	0.105	468853	keystroke	s	n/a
234.5915	0.09	469183	keystroke	h	n/a
234.8165	0.06	469633	keystroke	i	n/a
234.9815	0.105	469963	keystroke	n	n/a
235.162	0.1195	470324	keystroke	e	n/a
235.3115	0.0905	470623	keystroke	Key.space	n/a
235.627	0.0145	471254	keystroke	c	n/a
235.7915	0.09	471583	keystroke	r	n/a
236.0165	0.0605	472033	keystroke	e	n/a
236.2265	0.1045	472453	keystroke	e	n/a
236.3915	0.06	472783	keystroke	k	n/a
236.5865	0.09	473173	keystroke	Key.space	n/a
236.7215	0.0905	473443	keystroke	a	n/a
236.9315	0.075	473863	keystroke	d	n/a
237.1115	0.15	474223	keystroke	d	n/a
237.3365	0.1045	474673	keystroke	i	n/a
237.546	0.0605	475092	keystroke	t	n/a
237.6815	0.105	475363	keystroke	i	n/a
237.877	0.09	475754	keystroke	o	n/a
238.0865	0.1055	476173	keystroke	n	n/a
238.237	0.105	476474	keystroke	s	n/a
238.3565	0.1045	476713	keystroke	Key.space	n/a
238.566	0.091	477132	keystroke	f	n/a
238.6575	0.089	477315	keystroke	u	n/a
238.881	0.091	477762	keystroke	n	n/a
239.0615	0.09	478123	keystroke	k	n/a
239.2715	0.09	478543	keystroke	Key.enter	n/a
239.3685	6.8345	478737	prompt	n/a	documents boys eastern approx\n
240.0065	0.12	480013	keystroke	d	n/a
240.1415	0.12	480283	keystroke	o	n/a
240.276	0.12	480552	keystroke	c	n/a
240.3975	0.1035	480795	keystroke	u	n/a
240.622	0.0895	481244	keystroke	m	n/a
240.7415	0.135	481483	keystroke	e	n/a
240.8775	0.104	481755	keystroke	n	n/a
241.0115	0.1045	482023	keystroke	t	n/a
241.2215	0.06	482443	keystroke	s	n/a
241.3565	0.0905	482713	keystroke	Key.space	n/a
241.582	0.1195	483164	keystroke	b	n/a
241.7165	0.105	483433	keystroke	o	n/a
241.926	0.106	483852	keystroke	y	n/a
242.077	0.105	484154	keystroke	s	n/a
242.226	0.075	484452	keystroke	Key.space	n/a
242.4965	0.06	484993	keystroke	e	n/a
242.707	0.135	485414	keystroke	a	n/a
242.9315	0.075	485863	keystroke	s	n/a
243.172	0.0595	486344	keystroke	t	n/a
243.366	0.15	486732	keystroke	e	n/a
243.4415	0.105	486883	keystroke	r	n/a
243.621	0.0905	487242	keystroke	n	n/a
243.8315	0.09	487663	keystroke	Key.space	n/a
244.0415	0.12	488083	keystroke	a	n/a
244.1915	0.0595	488383	keystroke	p	n/a
244.387	0.0895	488774	keystroke	p	n/a
244.5665	0.0595	489133	keystroke	r	n/a
244.641	0.1205	489282	keystroke	o	n/a
244.8365	0.0905	489673	keystroke	d	n/a
245.4365	0.0745	490873	keystroke	Key.backspace	n/a
245.856	0.1355	491712	keystroke	x	n/a
246.1265	0.075	492253	keystroke	Key.enter	n/a
246.2075	8.5155	492415	prompt	n/a	mpegs essentially revealed severe\n
247.206	0.0905	494412	keystroke	m	n/a
247.3865	0.06	494773	keystroke	g	n/a
247.716	0.1055	495432	keystroke	Key.backspace	n/a
248.317	0.1195	496634	keystroke	p	n/a
248.5115	0.1355	497023	keystroke	e	n/a
248.7215	0.12	497443	keystroke	g	n/a
248.9015	0.09	497803	keystroke	s	n/a
249.0215	0.135	498043	keystroke	Key.space	n/a
249.262	0.0595	498524	keystroke	e	n/a
249.4565	0.0895	498913	keystroke	s	n/a
249.6665	0.135	499333	keystroke	e	n/a
250.0265	0.09	500053	keystroke	Key.backspace	n/a
250.132	0.105	500264	keystroke	s	n/a
250.357	0.119	500714	keystroke	e	n/a
250.4615	0.12	500923	keystroke	n	n/a
250.6265	0.105	501253	keystroke	t	n/a
250.747	0.0895	501494	keystroke	i	n/a
250.8665	0.1355	501733	keystroke	a	n/a
250.9865	0.045	501973	keystroke	l	n/a
251.107	0.0745	502214	keystroke	l	n/a
251.3465	0.06	502693	keystroke	y	n/a
251.5265	0.09	503053	keystroke	Key.space	n/a
251.7515	0.1055	503503	keystroke	r	n/a
251.9465	0.105	503893	keystroke	e	n/a
252.2015	0.09	504403	keystroke	v	n/a
252.3965	0.0745	504793	keystroke	e	n/a
252.546	0.121	505092	keystroke	a	n/a
252.6815	0.165	505363	keystroke	l	n/a
252.831	0.09	505662	keystroke	e	n/a
253.0415	0.0895	506083	keystroke	d	n/a
253.1765	0.105	506353	keystroke	Key.space	n/a
253.341	0.1055	506682	keystroke	s	n/a
253.5515	0.075	507103	keystroke	e	n/a
253.7615	0.105	507523	keystroke	v	n/a
254.002	0.1045	508004	keystroke	e	n/a
254.2115	0.09	508423	keystroke	r	n/a
254.4215	0.075	508843	keystroke	e	n/a
254.616	0.1055	509232	keystroke	Key.enter	n/a
254.73	6.818	509460	prompt	n/a	encoding perth distinguished matched\n
255.4565	0.105	510913	keystroke	e	n/a
255.636	0.1205	511272	keystroke	n	n/a
255.7865	0.1345	511573	keystroke	c	n/a
255.906	0.121	511812	keystroke	o	n/a
256.0715	0.1495	512143	keystroke	d	n/a
256.2065	0.12	512413	keystroke	i	n/a
256.431	0.1055	512862	keystroke	n	n/a
256.596	0.135	513192	keystroke	g	n/a
256.7165	0.075	513433	keystroke	Key.space	n/a
256.9115	0.1355	513823	keystroke	p	n/a
257.0165	0.1205	514033	keystroke	e	n/a
257.2565	0.1195	514513	keystroke	r	n/a
257.4515	0.0905	514903	keystroke	h	n/a
257.7665	0.075	515533	keystroke	Key.backspace	n/a
257.9765	0.075	515953	keystroke	t	n/a
258.156	0.1055	516312	keystroke	h	n/a
258.3365	0.105	516673	keystroke	Key.space	n/a
258.4565	0.1355	516913	keystroke	d	n/a
258.6215	0.12	517243	keystroke	i	n/a
258.801	0.1205	517602	keystroke	s	n/a
259.0565	0.0905	518113	keystroke	t	n/a
259.2065	0.119	518413	keystroke	i	n/a
259.4465	0.105	518893	keystroke	n	n/a
259.6565	0.105	519313	keystroke	g	n/a
259.7915	0.105	519583	keystroke	u	n/a
259.9565	0.075	519913	keystroke	s	n/a
260.0015	0.1205	520003	keystroke	i	n/a
260.3315	0.06	520663	keystroke	Key.backspace	n/a
260.4965	0.09	520993	keystroke	Key.backspace	n/a
260.722	0.1195	521444	keystroke	i	n/a
260.8565	0.09	521713	keystroke	s	n/a
260.9915	0.09	521983	keystroke	h	n/a
261.097	0.0895	522194	keystroke	e	n/a
261.3065	0.1205	522613	keystroke	d	n/a
261.471	0.0745	522942	keystroke	Key.enter	n/a
261.5525	5.6775	523105	prompt	n/a	gaps pierre cool balanced\n
262.7315	0.075	525463	keystroke	g	n/a
262.8665	0.0895	525733	keystroke	a	n/a
262.9865	0.12	525973	keystroke	p	n/a
263.1365	0.1345	526273	keystroke	s	n/a
263.286	0.09	526572	keystroke	Key.space	n/a
263.4955	0.1055	526991	keystroke	p	n/a
263.736	0.1045	527472	keystroke	i	n/a
263.9005	0.0905	527801	keystroke	e	n/a
264.1405	0.059	528281	keystroke	r	n/a
264.335	0.0895	528670	keystroke	r	n/a
264.5595	0.1055	529119	keystroke	e	n/a
264.695	0.075	529390	keystroke	Key.space	n/a
264.875	0.12	529750	keystroke	c	n/a
264.9795	0.0605	529959	keystroke	o	n/a
265.1895	0.075	530379	keystroke	o	n/a
265.3845	0.0745	530769	keystroke	l	n/a
265.534	0.1055	531068	keystroke	Key.space	n/a
265.7445	0.104	531489	keystroke	b	n/a
265.939	0.075	531878	keystroke	a	n/a
266.074	0.12	532148	keystroke	l	n/a
266.239	0.12	532478	keystroke	a	n/a
266.4185	0.121	532837	keystroke	n	n/a
266.5835	0.1055	533167	keystroke	c	n/a
266.7935	0.075	533587	keystroke	e	n/a
266.9885	0.1055	533977	keystroke	d	n/a
267.1685	0.06	534337	keystroke	Key.enter	n/a
267.237	6.936	534474	prompt	n/a	reseller register human mother\n
267.963	0.105	535926	keystroke	r	n/a
268.203	0.09	536406	keystroke	e	n/a
268.4575	0.1055	536915	keystroke	s	n/a
268.697	0.0755	537394	keystroke	e	n/a
268.833	0.0895	537666	keystroke	l	n/a
269.0575	0.074	538115	keystroke	l	n/a
269.2525	0.1345	538505	keystroke	e	n/a
269.4925	0.105	538985	keystroke	r	n/a
269.657	0.09	539314	keystroke	Key.space	n/a
269.8525	0.119	539705	keystroke	r	n/a
270.0915	0.1055	540183	keystroke	e	n/a
270.332	0.106	540664	keystroke	g	n/a
270.4525	0.1045	540905	keystroke	i	n/a
270.572	0.1195	541144	keystroke	s	n/a
270.811	0.046	541622	keystroke	t	n/a
271.007	0.135	542014	keystroke	e	n/a
271.247	0.09	542494	keystroke	r	n/a
271.3515	0.105	542703	keystroke	Key.space	n/a
271.577	0.089	543154	keystroke	h	n/a
271.757	0.089	543514	keystroke	u	n/a
272.0115	0.105	544023	keystroke	m	n/a
272.1915	0.12	544383	keystroke	a	n/a
272.357	0.09	544714	keystroke	n	n/a
272.582	0.09	545164	keystroke	Key.space	n/a
272.837	0.105	545674	keystroke	m	n/a
273.0615	0.075	546123	keystroke	o	n/a
273.272	0.105	546544	keystroke	t	n/a
273.452	0.0895	546904	keystroke	h	n/a
273.6615	0.0905	547323	keystroke	e	n/a
273.917	0.09	547834	keystroke	r	n/a
274.0965	0.0745	548193	keystroke	Key.enter	n/a
274.183	9.455	548366	prompt	n/a	preparing accessibility ministers bedford\n
274.9515	0.1055	549903	keystroke	p	n/a
275.102	0.119	550204	keystroke	r	n/a
275.327	0.09	550654	keystroke	e	n/a
275.432	0.119	550864	keystroke	p	n/a
275.6715	0.105	551343	keystroke	a	n/a
275.867	0.105	551734	keystroke	r	n/a
276.032	0.089	552064	keystroke	i	n/a
276.242	0.1055	552484	keystroke	n	n/a
276.467	0.1195	552934	keystroke	g	n/a
276.6915	0.075	553383	keystroke	Key.space	n/a
276.902	0.075	553804	keystroke	a	n/a
277.142	0.0755	554284	keystroke	c	n/a
277.337	0.1045	554674	keystroke	c	n/a
277.577	0.075	555154	keystroke	e	n/a
277.787	0.0745	555574	keystroke	s	n/a
277.997	0.105	555994	keystroke	s	n/a
278.282	0.1345	556564	keystroke	i	n/a
278.507	0.105	557014	keystroke	b	n/a
278.6265	0.1195	557253	keystroke	i	n/a
278.897	0.1045	557794	keystroke	l	n/a
279.1065	0.1055	558213	keystroke	i	n/a
279.347	0.09	558694	keystroke	t	n/a
279.5115	0.1205	559023	keystroke	y	n/a
279.7365	0.0745	559473	keystroke	Key.space	n/a
280.007	0.1045	560014	keystroke	m	n/a
280.232	0.105	560464	keystroke	i	n/a
280.4715	0.1055	560943	keystroke	n	n/a
280.682	0.1045	561364	keystroke	i	n/a
280.802	0.105	561604	keystroke	s	n/a
281.057	0.09	562114	keystroke	t	n/a
281.281	0.091	562562	keystroke	e	n/a
281.4915	0.0905	562983	keystroke	r	n/a
281.701	0.0755	563402	keystroke	s	n/a
281.896	0.076	563792	keystroke	Key.space	n/a
282.1215	0.1045	564243	keystroke	b	n/a
282.3615	0.0745	564723	keystroke	e	n/a
282.556	0.1355	565112	keystroke	d	n/a
282.7665	0.1055	565533	keystroke	f	n/a
282.961	0.1205	565922	keystroke	o	n/a
283.1405	0.091	566281	keystroke	r	n/a
283.3815	0.105	566763	keystroke	d	n/a
283.5915	0.0445	567183	keystroke	Key.enter	n/a
283.6435	7.45	567287	prompt	n/a	confidentiality nicole sauce short\n
284.462	0.135	568924	keystroke	c	n/a
284.537	0.105	569074	keystroke	o	n/a
284.747	0.12	569494	keystroke	n	n/a
284.9265	0.1055	569853	keystroke	f	n/a
285.076	0.136	570152	keystroke	i	n/a
285.226	0.105	570452	keystroke	d	n/a
285.481	0.1205	570962	keystroke	e	n/a
285.616	0.1055	571232	keystroke	n	n/a
285.8715	0.0605	571743	keystroke	t	n/a
286.037	0.1045	572074	keystroke	i	n/a
286.276	0.121	572552	keystroke	a	n/a
286.442	0.134	572884	keystroke	l	n/a
286.682	0.105	573364	keystroke	i	n/a
286.952	0.09	573904	keystroke	t	n/a
287.057	0.1045	574114	keystroke	y	n/a
287.2965	0.0745	574593	keystroke	Key.space	n/a
287.552	0.075	575104	keystroke	n	n/a
287.762	0.1055	575524	keystroke	i	n/a
287.926	0.135	575852	keystroke	c	n/a
288.077	0.105	576154	keystroke	o	n/a
288.287	0.12	576574	keystroke	l	n/a
288.421	0.105	576842	keystroke	e	n/a
288.6615	0.0745	577323	keystroke	Key.space	n/a
288.856	0.091	577712	keystroke	s	n/a
289.082	0.1195	578164	keystroke	a	n/a
289.306	0.0755	578612	keystroke	u	n/a
289.486	0.135	578972	keystroke	c	n/a
289.7415	0.105	579483	keystroke	e	n/a
289.9665	0.06	579933	keystroke	Key.space	n/a
290.102	0.1495	580204	keystroke	s	n/a
290.2965	0.0905	580593	keystroke	h	n/a
290.507	0.1205	581014	keystroke	o	n/a
290.642	0.09	581284	keystroke	r	n/a
290.867	0.075	581734	keystroke	t	n/a
291.032	0.06	582064	keystroke	Key.enter	n/a
291.1035	8.27	582207	prompt	n/a	ballet polo reliance administrators\n
291.992	0.105	583984	keystroke	b	n/a
292.202	0.0745	584404	keystroke	a	n/a
292.337	0.074	584674	keystroke	l	n/a
292.5615	0.1055	585123	keystroke	l	n/a
292.7265	0.1205	585453	keystroke	e	n/a
292.967	0.0745	585934	keystroke	t	n/a
293.1915	0.09	586383	keystroke	Key.space	n/a
293.372	0.12	586744	keystroke	p	n/a
293.597	0.09	587194	keystroke	o	n/a
293.776	0.0905	587552	keystroke	l	n/a
294.032	0.0745	588064	keystroke	o	n/a
294.241	0.091	588482	keystroke	Key.space	n/a
294.511	0.106	589022	keystroke	r	n/a
294.722	0.105	589444	keystroke	e	n/a
294.901	0.1215	589802	keystroke	l	n/a
295.1425	0.1195	590285	keystroke	i	n/a
295.2765	0.1355	590553	keystroke	a	n/a
295.472	0.09	590944	keystroke	n	n/a
295.6665	0.105	591333	keystroke	c	n/a
295.9215	0.1055	591843	keystroke	e	n/a
296.087	0.09	592174	keystroke	Key.space	n/a
296.2365	0.1045	592473	keystroke	a	n/a
296.552	0.135	593104	keystroke	d	n/a
296.806	0.0755	593612	keystroke	m	n/a
297.0015	0.105	594003	keystroke	i	n/a
297.226	0.1055	594452	keystroke	n	n/a
297.4655	0.1065	594931	keystroke	i	n/a
297.6015	0.105	595203	keystroke	s	n/a
297.871	0.075	595742	keystroke	t	n/a
298.0365	0.1355	596073	keystroke	r	n/a
298.276	0.1055	596552	keystroke	a	n/a
298.532	0.075	597064	keystroke	t	n/a
298.7265	0.1205	597453	keystroke	o	n/a
298.862	0.09	597724	keystroke	r	n/a
299.071	0.061	598142	keystroke	s	n/a
299.3115	0.0605	598623	keystroke	Key.enter	n/a
299.3785	6.22	598757	prompt	n/a	suggesting locks use motors\n
300.032	0.12	600064	keystroke	s	n/a
300.257	0.075	600514	keystroke	u	n/a
300.4215	0.1055	600843	keystroke	g	n/a
300.6765	0.1055	601353	keystroke	g	n/a
300.8865	0.0905	601773	keystroke	e	n/a
301.097	0.104	602194	keystroke	s	n/a
301.3065	0.0755	602613	keystroke	t	n/a
301.5015	0.1055	603003	keystroke	i	n/a
301.727	0.105	603454	keystroke	n	n/a
301.8615	0.1205	603723	keystroke	g	n/a
302.041	0.076	604082	keystroke	Key.space	n/a
302.2825	0.104	604565	keystroke	l	n/a
302.522	0.09	605044	keystroke	o	n/a
302.657	0.1195	605314	keystroke	c	n/a
302.8665	0.1205	605733	keystroke	k	n/a
303.062	0.1045	606124	keystroke	s	n/a
303.242	0.074	606484	keystroke	Key.space	n/a
303.5115	0.12	607023	keystroke	u	n/a
303.707	0.1045	607414	keystroke	s	n/a
303.9465	0.1205	607893	keystroke	e	n/a
304.096	0.076	608192	keystroke	Key.space	n/a
304.3365	0.1205	608673	keystroke	m	n/a
304.562	0.12	609124	keystroke	o	n/a
304.757	0.1045	609514	keystroke	t	n/a
304.9815	0.1205	609963	keystroke	o	n/a
305.1315	0.0755	610263	keystroke	r	n/a
305.341	0.0605	610682	keystroke	s	n/a
305.537	0.06	611074	keystroke	Key.enter	n/a
305.6035	8.5	611207	prompt	n/a	bradford development stuart learned\n
306.631	0.0755	613262	keystroke	b	n/a
306.841	0.091	613682	keystroke	r	n/a
307.0815	0.12	614163	keystroke	a	n/a
307.3215	0.135	614643	keystroke	d	n/a
307.546	0.136	615092	keystroke	f	n/a
307.817	0.12	615634	keystroke	o	n/a
308.0265	0.09	616053	keystroke	r	n/a
308.266	0.1355	616532	keystroke	d	n/a
308.4465	0.09	616893	keystroke	Key.space	n/a
308.596	0.1355	617192	keystroke	d	n/a
308.8215	0.1205	617643	keystroke	e	n/a
309.077	0.105	618154	keystroke	v	n/a
309.301	0.091	618602	keystroke	e	n/a
309.4665	0.12	618933	keystroke	l	n/a
309.7065	0.0895	619413	keystroke	o	n/a
309.9165	0.105	619833	keystroke	p	n/a
310.1565	0.12	620313	keystroke	m	n/a
310.3065	0.165	620613	keystroke	e	n/a
310.4865	0.0745	620973	keystroke	n	n/a
310.6955	0.0905	621391	keystroke	t	n/a
310.861	0.075	621722	keystroke	Key.space	n/a
311.041	0.1205	622082	keystroke	s	n/a
311.3115	0.075	622623	keystroke	t	n/a
311.5215	0.0905	623043	keystroke	u	n/a
311.702	0.12	623404	keystroke	a	n/a
311.957	0.104	623914	keystroke	r	n/a
312.272	0.075	624544	keystroke	t	n/a
312.4965	0.0755	624993	keystroke	Key.space	n/a
312.722	0.15	625444	keystroke	l	n/a
312.887	0.105	625774	keystroke	e	n/a
313.096	0.121	626192	keystroke	a	n/a
313.292	0.104	626584	keystroke	r	n/a
313.4415	0.1045	626883	keystroke	n	n/a
313.5615	0.09	627123	keystroke	e	n/a
313.8005	0.121	627601	keystroke	d	n/a
314.0415	0.0595	628083	keystroke	Key.enter	n/a
314.109	11.8	628218	prompt	n/a	interpretation absolutely search machines\n
314.791	0.09	629582	keystroke	i	n/a
315.016	0.1355	630032	keystroke	n	n/a
315.181	0.1195	630362	keystroke	t	n/a
315.421	0.136	630842	keystroke	e	n/a
316.6815	0.09	633363	keystroke	Key.backspace	n/a
317.446	0.121	634892	keystroke	e	n/a
317.746	0.09	635492	keystroke	r	n/a
317.911	0.136	635822	keystroke	p	n/a
318.1215	0.1045	636243	keystroke	r	n/a
318.3465	0.12	636693	keystroke	e	n/a
318.721	0.0755	637442	keystroke	t	n/a
318.9015	0.1495	637803	keystroke	a	n/a
319.036	0.105	638072	keystroke	t	n/a
319.3515	0.1045	638703	keystroke	i	n/a
319.622	0.074	639244	keystroke	o	n/a
319.8615	0.1055	639723	keystroke	n	n/a
320.0715	0.0755	640143	keystroke	Key.space	n/a
320.207	0.12	640414	keystroke	a	n/a
320.4315	0.136	640863	keystroke	b	n/a
320.672	0.104	641344	keystroke	s	n/a
320.9115	0.075	641823	keystroke	o	n/a
321.0915	0.075	642183	keystroke	l	n/a
321.3325	0.0895	642665	keystroke	u	n/a
321.556	0.0905	643112	keystroke	t	n/a
321.767	0.0905	643534	keystroke	e	n/a
321.917	0.0895	643834	keystroke	l	n/a
322.172	0.075	644344	keystroke	y	n/a
322.352	0.0595	644704	keystroke	Key.space	n/a
322.5165	0.1055	645033	keystroke	s	n/a
322.742	0.12	645484	keystroke	e	n/a
322.997	0.1345	645994	keystroke	a	n/a
323.207	0.1195	646414	keystroke	r	n/a
323.4765	0.1355	646953	keystroke	c	n/a
323.5815	0.1055	647163	keystroke	h	n/a
323.837	0.075	647674	keystroke	Key.space	n/a
324.0925	0.105	648185	keystroke	m	n/a
324.2275	0.1045	648455	keystroke	a	n/a
324.4375	0.165	648875	keystroke	c	n/a
324.677	0.0905	649354	keystroke	h	n/a
324.9025	0.09	649805	keystroke	i	n/a
325.1115	0.121	650223	keystroke	n	n/a
325.3665	0.075	650733	keystroke	e	n/a
325.5915	0.076	651183	keystroke	s	n/a
325.817	0.0905	651634	keystroke	Key.enter	n/a
325.913	6.879	651826	prompt	n/a	johns treaty phantom believe\n
326.5975	0.105	653195	keystroke	j	n/a
326.8075	0.09	653615	keystroke	o	n/a
327.077	0.075	654154	keystroke	h	n/a
327.272	0.09	654544	keystroke	n	n/a
327.467	0.15	654934	keystroke	s	n/a
327.767	0.0745	655534	keystroke	Key.space	n/a
328.097	0.0745	656194	keystroke	t	n/a
328.3075	0.12	656615	keystroke	r	n/a
328.547	0.105	657094	keystroke	e	n/a
328.772	0.1195	657544	keystroke	a	n/a
329.0115	0.09	658023	keystroke	t	n/a
329.1315	0.105	658263	keystroke	y	n/a
329.3415	0.09	658683	keystroke	Key.space	n/a
329.5815	0.075	659163	keystroke	p	n/a
329.9115	0.105	659823	keystroke	h	n/a
330.0615	0.135	660123	keystroke	a	n/a
330.2115	0.075	660423	keystroke	n	n/a
330.4655	0.076	660931	keystroke	t	n/a
330.6015	0.075	661203	keystroke	o	n/a
330.8115	0.1345	661623	keystroke	m	n/a
331.0215	0.0605	662043	keystroke	Key.space	n/a
331.231	0.121	662462	keystroke	b	n/a
331.516	0.061	663032	keystroke	e	n/a
331.7415	0.075	663483	keystroke	l	n/a
331.9505	0.105	663901	keystroke	i	n/a
332.1165	0.089	664233	keystroke	e	n/a
332.2955	0.12	664591	keystroke	v	n/a
332.5195	0.076	665039	keystroke	e	n/a
332.716	0.074	665432	keystroke	Key.enter	n/a
332.7985	8.4395	665597	prompt	n/a	rolled personnel functional governor\n
333.601	0.1205	667202	keystroke	r	n/a
333.736	0.09	667472	keystroke	o	n/a
333.9605	0.061	667921	keystroke	l	n/a
334.1565	0.1055	668313	keystroke	l	n/a
334.3665	0.0595	668733	keystroke	e	n/a
334.5605	0.12	669121	keystroke	d	n/a
334.741	0.06	669482	keystroke	Key.space	n/a
334.9505	0.121	669901	keystroke	p	n/a
335.146	0.1205	670292	keystroke	e	n/a
335.3255	0.106	670651	keystroke	r	n/a
335.5665	0.09	671133	keystroke	s	n/a
335.7315	0.104	671463	keystroke	o	n/a
335.9565	0.06	671913	keystroke	n	n/a
336.1505	0.105	672301	keystroke	n	n/a
336.361	0.1055	672722	keystroke	e	n/a
336.481	0.1045	672962	keystroke	l	n/a
336.7055	0.0755	673411	keystroke	Key.space	n/a
336.916	0.1045	673832	keystroke	f	n/a
337.096	0.0755	674192	keystroke	u	n/a
337.306	0.0905	674612	keystroke	n	n/a
337.4105	0.135	674821	keystroke	c	n/a
337.6965	0.075	675393	keystroke	t	n/a
337.9065	0.105	675813	keystroke	i	n/a
338.131	0.0605	676262	keystroke	o	n/a
338.312	0.1195	676624	keystroke	n	n/a
338.462	0.12	676924	keystroke	a	n/a
338.612	0.1345	677224	keystroke	l	n/a
338.8215	0.1055	677643	keystroke	Key.space	n/a
339.107	0.089	678214	keystroke	g	n/a
339.407	0.0145	678814	keystroke	o	n/a
339.467	0.0745	678934	keystroke	v	n/a
339.6915	0.09	679383	keystroke	e	n/a
339.917	0.089	679834	keystroke	r	n/a
340.126	0.0755	680252	keystroke	n	n/a
340.3665	0.09	680733	keystroke	o	n/a
340.6815	0.029	681363	keystroke	r	n/a
341.1915	0.045	682383	keystroke	Key.enter	n/a
341.2435	8.027	682487	prompt	n/a	scenarios home dangerous limits\n
341.912	0.1045	683824	keystroke	s	n/a
342.1365	0.105	684273	keystroke	c	n/a
342.361	0.12	684722	keystroke	e	n/a
342.496	0.105	684992	keystroke	n	n/a
342.7045	0.112	685409	keystroke	a	n/a
342.9235	0.089	685847	keystroke	r	n/a
343.1175	0.075	686235	keystroke	i	n/a
343.2975	0.09	686595	keystroke	o	n/a
343.448	0.1195	686896	keystroke	s	n/a
343.628	0.0595	687256	keystroke	Key.space	n/a
343.868	0.1055	687736	keystroke	h	n/a
344.063	0.09	688126	keystroke	o	n/a
344.303	0.0905	688606	keystroke	m	n/a
344.544	0.12	689088	keystroke	e	n/a
344.709	0.09	689418	keystroke	Key.space	n/a
344.9185	0.1205	689837	keystroke	d	n/a
345.1285	0.12	690257	keystroke	a	n/a
345.2935	0.09	690587	keystroke	n	n/a
345.4585	0.12	690917	keystroke	g	n/a
345.699	0.105	691398	keystroke	e	n/a
345.908	0.105	691816	keystroke	r	n/a
346.1785	0.1045	692357	keystroke	o	n/a
346.358	0.105	692716	keystroke	u	n/a
346.508	0.12	693016	keystroke	s	n/a
346.673	0.075	693346	keystroke	Key.space	n/a
346.9285	0.105	693857	keystroke	s	n/a
347.0185	0.075	694037	keystroke	l	n/a
347.3485	0.0895	694697	keystroke	Key.backspace	n/a
347.6335	0.0595	695267	keystroke	Key.backspace	n/a
347.8585	0.1205	695717	keystroke	l	n/a
348.0835	0.09	696167	keystroke	i	n/a
348.2935	0.105	696587	keystroke	m	n/a
348.534	0.105	697068	keystroke	i	n/a
348.789	0.0745	697578	keystroke	t	n/a
348.9685	0.075	697937	keystroke	s	n/a
349.1785	0.09	698357	keystroke	Key.enter	n/a
349.2745	6.4915	698549	prompt	n/a	hadn't july winner pending\n
349.9285	0.105	699857	keystroke	h	n/a
350.079	0.105	700158	keystroke	a	n/a
350.379	0.1045	700758	keystroke	d	n/a
350.709	0.0595	701418	keystroke	n	n/a
350.904	0.1045	701808	keystroke	'	n/a
351.2495	0.105	702499	keystroke	t	n/a
351.474	0.0755	702948	keystroke	Key.space	n/a
351.6685	0.0905	703337	keystroke	j	n/a
351.8645	0.104	703729	keystroke	u	n/a
352.089	0.1045	704178	keystroke	l	n/a
352.3135	0.1055	704627	keystroke	y	n/a
352.539	0.09	705078	keystroke	Key.space	n/a
352.7635	0.09	705527	keystroke	w	n/a
352.9585	0.09	705917	keystroke	i	n/a
353.1835	0.0905	706367	keystroke	n	n/a
353.379	0.12	706758	keystroke	n	n/a
353.634	0.1645	707268	keystroke	e	n/a
353.9035	0.0905	707807	keystroke	r	n/a
354.039	0.0895	708078	keystroke	Key.space	n/a
354.3535	0.135	708707	keystroke	p	n/a
354.609	0.1045	709218	keystroke	e	n/a
354.774	0.12	709548	keystroke	n	n/a
354.969	0.15	709938	keystroke	d	n/a
355.164	0.1055	710328	keystroke	i	n/a
355.3745	0.0895	710749	keystroke	n	n/a
355.4945	0.1045	710989	keystroke	g	n/a
355.703	0.0615	711406	keystroke	Key.enter	n/a
355.7715	7.584	711543	prompt	n/a	webmaster copyright we letter\n
356.4835	0.135	712967	keystroke	w	n/a
356.724	0.105	713448	keystroke	e	n/a
357.009	0.0755	714018	keystroke	b	n/a
357.2635	0.12	714527	keystroke	m	n/a
357.444	0.1355	714888	keystroke	a	n/a
357.6685	0.0905	715337	keystroke	s	n/a
357.939	0.0895	715878	keystroke	t	n/a
358.164	0.1195	716328	keystroke	e	n/a
358.404	0.09	716808	keystroke	r	n/a
358.554	0.09	717108	keystroke	Key.space	n/a
358.719	0.135	717438	keystroke	c	n/a
358.839	0.075	717678	keystroke	o	n/a
359.0185	0.0905	718037	keystroke	p	n/a
359.274	0.0745	718548	keystroke	y	n/a
359.484	0.0595	718968	keystroke	Key.space	n/a
359.7095	0.09	719419	keystroke	r	n/a
360.1585	0.0755	720317	keystroke	Key.backspace	n/a
360.354	0.075	720708	keystroke	Key.backspace	n/a
360.579	0.1055	721158	keystroke	r	n/a
360.7135	0.1205	721427	keystroke	i	n/a
360.939	0.105	721878	keystroke	g	n/a
361.059	0.0755	722118	keystroke	h	n/a
361.194	0.0905	722388	keystroke	t	n/a
361.329	0.0745	722658	keystroke	Key.space	n/a
361.5245	0.1045	723049	keystroke	w	n/a
361.7345	0.12	723469	keystroke	e	n/a
361.869	0.0595	723738	keystroke	Key.space	n/a
362.0945	0.074	724189	keystroke	l	n/a
362.1835	0.1055	724367	keystroke	e	n/a
362.439	0.0895	724878	keystroke	t	n/a
362.619	0.105	725238	keystroke	t	n/a
362.8445	0.134	725689	keystroke	e	n/a
363.0845	0.0895	726169	keystroke	r	n/a
363.2945	0.059	726589	keystroke	Key.enter	n/a
363.3595	8.216	726719	prompt	n/a	velocity ratio suggests occasion\n
364.3295	0.1345	728659	keystroke	v	n/a
364.554	0.06	729108	keystroke	e	n/a
364.689	0.1055	729378	keystroke	o	n/a
364.8995	0.1055	729799	keystroke	l	n/a
365.349	0.0905	730698	keystroke	Key.backspace	n/a
365.5595	0.09	731119	keystroke	Key.backspace	n/a
365.7995	0.1045	731599	keystroke	l	n/a
366.009	0.0905	732018	keystroke	o	n/a
366.129	0.15	732258	keystroke	c	n/a
366.249	0.105	732498	keystroke	i	n/a
366.459	0.12	732918	keystroke	t	n/a
366.564	0.1205	733128	keystroke	y	n/a
366.774	0.0755	733548	keystroke	Key.space	n/a
366.9695	0.0895	733939	keystroke	r	n/a
367.1345	0.1345	734269	keystroke	a	n/a
367.3595	0.0895	734719	keystroke	t	n/a
367.4945	0.119	734989	keystroke	i	n/a
367.7185	0.0755	735437	keystroke	o	n/a
367.929	0.06	735858	keystroke	Key.space	n/a
368.169	0.1195	736338	keystroke	s	n/a
368.3795	0.074	736759	keystroke	u	n/a
368.5145	0.0895	737029	keystroke	g	n/a
368.754	0.1045	737508	keystroke	g	n/a
368.9635	0.0755	737927	keystroke	e	n/a
369.159	0.0895	738318	keystroke	s	n/a
369.4135	0.076	738827	keystroke	t	n/a
369.6085	0.06	739217	keystroke	s	n/a
369.699	0.0905	739398	keystroke	Key.space	n/a
369.9245	0.12	739849	keystroke	o	n/a
370.045	0.0595	740090	keystroke	c	n/a
370.224	0.0895	740448	keystroke	c	n/a
370.4485	0.1055	740897	keystroke	a	n/a
370.659	0.0895	741318	keystroke	s	n/a
370.884	0.1055	741768	keystroke	i	n/a
371.0945	0.0895	742189	keystroke	o	n/a
371.274	0.0905	742548	keystroke	n	n/a
371.514	0.0595	743028	keystroke	Key.enter	n/a
371.5795	6.7465	743159	prompt	n/a	judicial hazards thereof inline\n
372.204	0.1055	744408	keystroke	j	n/a
372.429	0.0905	744858	keystroke	u	n/a
372.579	0.1205	745158	keystroke	d	n/a
372.7745	0.0895	745549	keystroke	i	n/a
372.879	0.1505	745758	keystroke	c	n/a
373.059	0.105	746118	keystroke	i	n/a
373.269	0.135	746538	keystroke	a	n/a
373.405	0.0745	746810	keystroke	l	n/a
373.569	0.075	747138	keystroke	Key.space	n/a
373.7635	0.105	747527	keystroke	h	n/a
373.8095	0.105	747619	keystroke	a	n/a
374.094	0.0905	748188	keystroke	z	n/a
374.319	0.12	748638	keystroke	a	n/a
374.559	0.0905	749118	keystroke	r	n/a
374.8145	0.1345	749629	keystroke	d	n/a
375.0545	0.105	750109	keystroke	s	n/a
375.279	0.09	750558	keystroke	Key.space	n/a
375.744	0.0905	751488	keystroke	t	n/a
375.8795	0.1045	751759	keystroke	h	n/a
376.074	0.1055	752148	keystroke	e	n/a
376.2845	0.12	752569	keystroke	r	n/a
376.509	0.0905	753018	keystroke	e	n/a
376.659	0.1055	753318	keystroke	o	n/a
376.839	0.121	753678	keystroke	f	n/a
377.0045	0.0745	754009	keystroke	Key.space	n/a
377.1845	0.0895	754369	keystroke	i	n/a
377.394	0.1205	754788	keystroke	n	n/a
377.6195	0.075	755239	keystroke	l	n/a
377.7995	0.09	755599	keystroke	i	n/a
377.9495	0.12	755899	keystroke	n	n/a
378.099	0.1055	756198	keystroke	e	n/a
378.2495	0.0745	756499	keystroke	Key.enter	n/a
378.3325	7.2235	756665	prompt	n/a	side bored mitchell careful\n
379.4495	0.1045	758899	keystroke	s	n/a
379.599	0.1205	759198	keystroke	i	n/a
379.749	0.12	759498	keystroke	d	n/a
380.0195	0.105	760039	keystroke	e	n/a
380.139	0.075	760278	keystroke	Key.space	n/a
380.3195	0.12	760639	keystroke	b	n/a
380.5445	0.105	761089	keystroke	o	n/a
380.695	0.1195	761390	keystroke	r	n/a
380.9195	0.0745	761839	keystroke	e	n/a
381.1445	0.12	762289	keystroke	d	n/a
381.2345	0.075	762469	keystroke	Key.space	n/a
381.5345	0.09	763069	keystroke	m	n/a
381.744	0.1195	763488	keystroke	i	n/a
381.8795	0.105	763759	keystroke	t	n/a
382.1495	0.1195	764299	keystroke	c	n/a
382.284	0.1055	764568	keystroke	h	n/a
382.4345	0.0895	764869	keystroke	e	n/a
382.6445	0.0895	765289	keystroke	l	n/a
382.839	0.0905	765678	keystroke	l	n/a
383.0495	0.09	766099	keystroke	Key.space	n/a
383.184	0.1205	766368	keystroke	c	n/a
383.3795	0.135	766759	keystroke	a	n/a
383.5745	0.1195	767149	keystroke	r	n/a
383.739	0.12	767478	keystroke	e	n/a
383.9495	0.15	767899	keystroke	f	n/a
384.0845	0.1045	768169	keystroke	u	n/a
384.3245	0.0895	768649	keystroke	l	n/a
384.52	0.1195	769040	keystroke	l	n/a
384.894	0.0605	769788	keystroke	Key.backspace	n/a
385.4795	0.0745	770959	keystroke	Key.enter	n/a
385.56	5.4405	771120	prompt	n/a	causes front http three\n
386.1995	0.12	772399	keystroke	c	n/a
386.424	0.1205	772848	keystroke	a	n/a
386.6495	0.105	773299	keystroke	u	n/a
386.785	0.119	773570	keystroke	s	n/a
387.0095	0.075	774019	keystroke	e	n/a
387.2195	0.0895	774439	keystroke	s	n/a
387.369	0.1205	774738	keystroke	Key.space	n/a
387.61	0.0895	775220	keystroke	f	n/a
387.7745	0.1055	775549	keystroke	r	n/a
387.9695	0.075	775939	keystroke	o	n/a
388.1945	0.105	776389	keystroke	n	n/a
388.345	0.09	776690	keystroke	t	n/a
388.4795	0.09	776959	keystroke	Key.space	n/a
388.7495	0.06	777499	keystroke	h	n/a
388.929	0.0755	777858	keystroke	t	n/a
389.259	0.076	778518	keystroke	t	n/a
389.4395	0.105	778879	keystroke	p	n/a
389.6645	0.059	779329	keystroke	Key.space	n/a
389.8595	0.089	779719	keystroke	t	n/a
390.0245	0.09	780049	keystroke	h	n/a
390.2785	0.091	780557	keystroke	r	n/a
390.504	0.0905	781008	keystroke	e	n/a
390.729	0.12	781458	keystroke	e	n/a
390.924	0.0755	781848	keystroke	Key.enter	n/a
391.0055	5.9805	782011	prompt	n/a	dogs usda bones songs\n
391.7195	0.135	783439	keystroke	d	n/a
391.8695	0.105	783739	keystroke	o	n/a
392.0195	0.09	784039	keystroke	g	n/a
392.2135	0.1055	784427	keystroke	s	n/a
392.349	0.12	784698	keystroke	Key.space	n/a
392.6645	0.0745	785329	keystroke	u	n/a
392.769	0.1055	785538	keystroke	s	n/a
393.025	0.0745	786050	keystroke	a	n/a
393.309	0.0905	786618	keystroke	Key.backspace	n/a
393.5495	0.1195	787099	keystroke	d	n/a
393.805	0.104	787610	keystroke	a	n/a
394.0595	0.074	788119	keystroke	Key.space	n/a
394.3745	0.1195	788749	keystroke	b	n/a
394.6145	0.0905	789229	keystroke	o	n/a
394.8395	0.1205	789679	keystroke	n	n/a
395.0345	0.0595	790069	keystroke	e	n/a
395.2445	0.12	790489	keystroke	s	n/a
395.4545	0.09	790909	keystroke	Key.space	n/a
395.68	0.104	791360	keystroke	s	n/a
395.964	0.061	791928	keystroke	o	n/a
396.2045	0.075	792409	keystroke	n	n/a
396.4295	0.09	792859	keystroke	g	n/a
396.6245	0.075	793249	keystroke	s	n/a
396.9095	0.0755	793819	keystroke	Key.enter	n/a
396.9895	9.1315	793979	prompt	n/a	furniture mercedes locally kingdom\n
397.7345	0.1355	795469	keystroke	f	n/a
397.899	0.106	795798	keystroke	u	n/a
398.0795	0.135	796159	keystroke	r	n/a
398.2895	0.1055	796579	keystroke	n	n/a
398.5295	0.105	797059	keystroke	i	n/a
398.6645	0.105	797329	keystroke	t	n/a
398.89	0.1045	797780	keystroke	u	n/a
399.0395	0.12	798079	keystroke	r	n/a
399.2795	0.1345	798559	keystroke	e	n/a
399.7445	0.105	799489	keystroke	Key.space	n/a
400.0745	0.1195	800149	keystroke	m	n/a
400.3145	0.12	800629	keystroke	e	n/a
400.5395	0.09	801079	keystroke	r	n/a
400.7795	0.1045	801559	keystroke	c	n/a
401.0195	0.09	802039	keystroke	e	n/a
401.2145	0.12	802429	keystroke	d	n/a
401.44	0.0745	802880	keystroke	e	n/a
401.6345	0.1205	803269	keystroke	s	n/a
401.8295	0.105	803659	keystroke	Key.space	n/a
402.039	0.1055	804078	keystroke	l	n/a
402.279	0.1055	804558	keystroke	o	n/a
402.505	0.1345	805010	keystroke	c	n/a
402.684	0.1205	805368	keystroke	a	n/a
402.8795	0.0605	805759	keystroke	l	n/a
403.0595	0.105	806119	keystroke	l	n/a
403.3295	0.09	806659	keystroke	y	n/a
403.5245	0.0455	807049	keystroke	Key.space	n/a
403.72	0.1045	807440	keystroke	k	n/a
403.9	0.1045	807800	keystroke	i	n/a
404.1245	0.0905	808249	keystroke	n	n/a
404.35	0.1195	808700	keystroke	g	n/a
404.545	0.1045	809090	keystroke	o	n/a
405.2045	0.06	810409	keystroke	Key.backspace	n/a
405.385	0.135	810770	keystroke	d	n/a
405.5345	0.105	811069	keystroke	o	n/a
405.789	0.106	811578	keystroke	m	n/a
406.0445	0.075	812089	keystroke	Key.enter	n/a
406.125	6.776	812250	prompt	n/a	mall preceding consistent gross\n
406.885	0.105	813770	keystroke	m	n/a
407.0195	0.12	814039	keystroke	a	n/a
407.155	0.075	814310	keystroke	l	n/a
407.3795	0.09	814759	keystroke	l	n/a
407.604	0.0605	815208	keystroke	Key.space	n/a
407.7845	0.1355	815569	keystroke	p	n/a
407.9945	0.12	815989	keystroke	r	n/a
408.1745	0.12	816349	keystroke	e	n/a
408.4595	0.1045	816919	keystroke	c	n/a
408.7	0.0745	817400	keystroke	e	n/a
408.8945	0.1355	817789	keystroke	d	n/a
409.0895	0.105	818179	keystroke	i	n/a
409.315	0.09	818630	keystroke	n	n/a
409.465	0.0895	818930	keystroke	g	n/a
409.585	0.09	819170	keystroke	Key.space	n/a
409.7945	0.1205	819589	keystroke	c	n/a
409.945	0.105	819890	keystroke	o	n/a
410.155	0.089	820310	keystroke	n	n/a
410.29	0.0745	820580	keystroke	s	n/a
410.4545	0.09	820909	keystroke	i	n/a
410.5895	0.1355	821179	keystroke	s	n/a
410.8445	0.09	821689	keystroke	t	n/a
411.009	0.1355	822018	keystroke	e	n/a
411.1895	0.06	822379	keystroke	n	n/a
411.3845	0.12	822769	keystroke	t	n/a
411.5645	0.0745	823129	keystroke	Key.space	n/a
411.715	0.104	823430	keystroke	g	n/a
411.9245	0.0905	823849	keystroke	r	n/a
412.1045	0.1055	824209	keystroke	o	n/a
412.404	0.09	824808	keystroke	s	n/a
412.614	0.0905	825228	keystroke	s	n/a
412.825	0.0745	825650	keystroke	Key.enter	n/a
412.9055	5.2455	825811	prompt	n/a	focus lack graph controls\n
413.65	0.015	827300	keystroke	f	n/a
413.74	0.104	827480	keystroke	o	n/a
413.9195	0.0905	827839	keystroke	c	n/a
414.07	0.075	828140	keystroke	u	n/a
414.1895	0.1205	828379	keystroke	s	n/a
414.3245	0.0905	828649	keystroke	Key.space	n/a
414.5645	0.12	829129	keystroke	l	n/a
414.6545	0.105	829309	keystroke	a	n/a
414.8495	0.12	829699	keystroke	c	n/a
414.985	0.1045	829970	keystroke	k	n/a
415.1345	0.12	830269	keystroke	Key.space	n/a
415.3595	0.0895	830719	keystroke	g	n/a
415.5545	0.105	831109	keystroke	r	n/a
415.795	0.119	831590	keystroke	a	n/a
416.02	0.0895	832040	keystroke	p	n/a
416.259	0.0895	832518	keystroke	h	n/a
416.439	0.1055	832878	keystroke	Key.space	n/a
416.6345	0.1355	833269	keystroke	c	n/a
416.785	0.105	833570	keystroke	o	n/a
416.9945	0.0905	833989	keystroke	n	n/a
417.175	0.0745	834350	keystroke	t	n/a
417.384	0.106	834768	keystroke	r	n/a
417.535	0.09	835070	keystroke	o	n/a
417.7445	0.12	835489	keystroke	l	n/a
417.88	0.09	835760	keystroke	s	n/a
418.089	0.0605	836178	keystroke	Key.enter	n/a
418.1555	6.131	836311	prompt	n/a	scenes religion abuse blogging\n
418.81	0.1045	837620	keystroke	s	n/a
418.9895	0.135	837979	keystroke	c	n/a
419.2	0.075	838400	keystroke	e	n/a
419.3045	0.135	838609	keystroke	n	n/a
419.4545	0.105	838909	keystroke	e	n/a
419.68	0.075	839360	keystroke	s	n/a
419.829	0.12	839658	keystroke	Key.space	n/a
420.0095	0.1055	840019	keystroke	r	n/a
420.249	0.136	840498	keystroke	e	n/a
420.415	0.1355	840830	keystroke	l	n/a
420.6845	0.1055	841369	keystroke	i	n/a
420.9095	0.0905	841819	keystroke	g	n/a
421.015	0.12	842030	keystroke	i	n/a
421.2395	0.105	842479	keystroke	o	n/a
421.4505	0.0745	842901	keystroke	n	n/a
421.57	0.135	843140	keystroke	Key.space	n/a
421.7355	0.0895	843471	keystroke	a	n/a
421.9595	0.105	843919	keystroke	b	n/a
422.0795	0.0905	844159	keystroke	u	n/a
422.2595	0.1205	844519	keystroke	s	n/a
422.47	0.12	844940	keystroke	e	n/a
422.604	0.106	845208	keystroke	Key.space	n/a
422.845	0.12	845690	keystroke	b	n/a
422.98	0.105	845960	keystroke	l	n/a
423.2195	0.0905	846439	keystroke	o	n/a
423.325	0.1045	846650	keystroke	g	n/a
423.5355	0.104	847071	keystroke	g	n/a
423.6695	0.076	847339	keystroke	i	n/a
423.88	0.105	847760	keystroke	n	n/a
424.03	0.075	848060	keystroke	g	n/a
424.2095	0.076	848419	keystroke	Key.enter	n/a
424.2905	6.971	848581	prompt	n/a	limited nomination rose contact\n
424.96	0.1055	849920	keystroke	l	n/a
425.1695	0.0755	850339	keystroke	i	n/a
425.38	0.105	850760	keystroke	m	n/a
425.605	0.0905	851210	keystroke	i	n/a
425.7845	0.09	851569	keystroke	t	n/a
425.9945	0.0905	851989	keystroke	e	n/a
426.205	0.135	852410	keystroke	d	n/a
426.31	0.0895	852620	keystroke	Key.space	n/a
426.535	0.0895	853070	keystroke	n	n/a
426.7155	0.089	853431	keystroke	o	n/a
426.94	0.105	853880	keystroke	m	n/a
427.165	0.09	854330	keystroke	i	n/a
427.3745	0.1055	854749	keystroke	n	n/a
427.525	0.12	855050	keystroke	a	n/a
427.765	0.09	855530	keystroke	t	n/a
427.9595	0.0905	855919	keystroke	i	n/a
428.1695	0.1055	856339	keystroke	o	n/a
428.365	0.09	856730	keystroke	n	n/a
428.545	0.105	857090	keystroke	Key.space	n/a
428.77	0.0895	857540	keystroke	r	n/a
429.01	0.12	858020	keystroke	o	n/a
429.145	0.1055	858290	keystroke	s	n/a
429.385	0.12	858770	keystroke	e	n/a
429.565	0.09	859130	keystroke	Key.space	n/a
429.7	0.1495	859400	keystroke	c	n/a
429.88	0.1345	859760	keystroke	o	n/a
430.135	0.12	860270	keystroke	n	n/a
430.3	0.106	860600	keystroke	t	n/a
430.5255	0.1345	861051	keystroke	a	n/a
430.7045	0.1355	861409	keystroke	c	n/a
431.005	0.044	862010	keystroke	t	n/a
431.1995	0.06	862399	keystroke	Key.enter	n/a
431.2655	7.436	862531	prompt	n/a	corrections reference mars router\n
431.935	0.1645	863870	keystroke	c	n/a
432.085	0.1205	864170	keystroke	o	n/a
432.31	0.09	864620	keystroke	r	n/a
432.5195	0.1055	865039	keystroke	r	n/a
432.7	0.105	865400	keystroke	e	n/a
432.91	0.12	865820	keystroke	c	n/a
433.2095	0.0455	866419	keystroke	t	n/a
433.375	0.105	866750	keystroke	i	n/a
433.6155	0.0745	867231	keystroke	o	n/a
433.81	0.089	867620	keystroke	n	n/a
433.9445	0.135	867889	keystroke	s	n/a
434.0795	0.091	868159	keystroke	Key.space	n/a
434.26	0.104	868520	keystroke	r	n/a
434.4845	0.0755	868969	keystroke	e	n/a
434.65	0.12	869300	keystroke	f	n/a
434.874	0.091	869748	keystroke	e	n/a
435.1145	0.091	870229	keystroke	r	n/a
435.31	0.135	870620	keystroke	e	n/a
435.475	0.1055	870950	keystroke	n	n/a
435.61	0.1055	871220	keystroke	c	n/a
435.8495	0.0905	871699	keystroke	e	n/a
435.955	0.06	871910	keystroke	Key.space	n/a
436.18	0.09	872360	keystroke	m	n/a
436.614	0.12	873228	keystroke	a	n/a
436.795	0.1195	873590	keystroke	r	n/a
437.05	0.09	874100	keystroke	s	n/a
437.2445	0.105	874489	keystroke	Key.space	n/a
437.4245	0.1055	874849	keystroke	r	n/a
437.664	0.136	875328	keystroke	o	n/a
437.86	0.135	875720	keystroke	u	n/a
438.01	0.06	876020	keystroke	t	n/a
438.235	0.104	876470	keystroke	e	n/a
438.445	0.075	876890	keystroke	r	n/a
438.64	0.06	877280	keystroke	Key.enter	n/a
438.7055	7.7655	877411	prompt	n/a	gardens mention batteries recent\n
439.4195	0.09	878839	keystroke	g	n/a
439.6145	0.15	879229	keystroke	a	n/a
439.839	0.121	879678	keystroke	r	n/a
440.095	0.1045	880190	keystroke	d	n/a
440.3195	0.0755	880639	keystroke	e	n/a
440.455	0.105	880910	keystroke	n	n/a
440.605	0.075	881210	keystroke	s	n/a
440.709	0.09	881418	keystroke	Key.space	n/a
440.9195	0.1505	881839	keystroke	m	n/a
441.295	0.135	882590	keystroke	e	n/a
441.52	0.105	883040	keystroke	n	n/a
441.715	0.0895	883430	keystroke	t	n/a
441.91	0.089	883820	keystroke	i	n/a
442.12	0.1045	884240	keystroke	o	n/a
442.299	0.12	884598	keystroke	n	n/a
442.494	0.091	884988	keystroke	Key.space	n/a
443.0645	0.091	886129	keystroke	b	n/a
443.2445	0.105	886489	keystroke	a	n/a
443.4695	0.0605	886939	keystroke	t	n/a
443.68	0.0905	887360	keystroke	t	n/a
443.9045	0.1355	887809	keystroke	e	n/a
444.115	0.105	888230	keystroke	r	n/a
444.295	0.1055	888590	keystroke	i	n/a
444.4595	0.1055	888919	keystroke	e	n/a
444.7	0.105	889400	keystroke	s	n/a
444.895	0.105	889790	keystroke	Key.space	n/a
445.0745	0.1205	890149	keystroke	r	n/a
445.284	0.1055	890568	keystroke	e	n/a
445.54	0.119	891080	keystroke	c	n/a
445.779	0.136	891558	keystroke	e	n/a
445.9895	0.1355	891979	keystroke	n	n/a
446.14	0.105	892280	keystroke	t	n/a
446.3945	0.0755	892789	keystroke	Key.enter	n/a
446.476	6.5205	892952	prompt	n/a	freeware larger governor near\n
447.1	0.12	894200	keystroke	f	n/a
447.354	0.106	894708	keystroke	r	n/a
447.58	0.089	895160	keystroke	e	n/a
447.82	0.1055	895640	keystroke	e	n/a
448.0295	0.075	896059	keystroke	w	n/a
448.2245	0.1505	896449	keystroke	a	n/a
448.4495	0.1355	896899	keystroke	r	n/a
448.705	0.105	897410	keystroke	e	n/a
448.87	0.09	897740	keystroke	Key.space	n/a
449.065	0.1055	898130	keystroke	l	n/a
449.2145	0.136	898429	keystroke	a	n/a
449.41	0.1355	898820	keystroke	r	n/a
449.6945	0.0905	899389	keystroke	g	n/a
449.9195	0.0905	899839	keystroke	e	n/a
450.1145	0.091	900229	keystroke	r	n/a
450.22	0.09	900440	keystroke	Key.space	n/a
450.52	0.104	901040	keystroke	g	n/a
450.6995	0.135	901399	keystroke	o	n/a
450.8355	0.0895	901671	keystroke	v	n/a
451.06	0.1505	902120	keystroke	e	n/a
451.18	0.1195	902360	keystroke	r	n/a
451.4195	0.091	902839	keystroke	n	n/a
451.6745	0.09	903349	keystroke	o	n/a
451.7945	0.1055	903589	keystroke	r	n/a
451.96	0.0905	903920	keystroke	Key.space	n/a
452.1995	0.0905	904399	keystroke	n	n/a
452.2905	0.0895	904581	keystroke	e	n/a
452.5	0.165	905000	keystroke	a	n/a
452.6795	0.121	905359	keystroke	r	n/a
452.95	0.045	905900	keystroke	Key.enter	n/a
453.004	8.9475	906008	prompt	n/a	inclusion households ralph yourself\n
453.7155	0.0595	907431	keystroke	i	n/a
453.8955	0.0895	907791	keystroke	n	n/a
454.075	0.15	908150	keystroke	c	n/a
454.21	0.09	908420	keystroke	l	n/a
454.48	0.12	908960	keystroke	u	n/a
454.615	0.09	909230	keystroke	s	n/a
454.885	0.1045	909770	keystroke	i	n/a
455.094	0.121	910188	keystroke	o	n/a
455.29	0.105	910580	keystroke	n	n/a
455.455	0.0895	910910	keystroke	Key.space	n/a
455.7695	0.105	911539	keystroke	h	n/a
456.025	0.105	912050	keystroke	o	n/a
456.2345	0.1055	912469	keystroke	u	n/a
456.4155	0.105	912831	keystroke	s	n/a
456.67	0.12	913340	keystroke	e	n/a
456.865	0.075	913730	keystroke	h	n/a
457.0455	0.1035	914091	keystroke	o	n/a
457.24	0.1505	914480	keystroke	l	n/a
457.345	0.12	914690	keystroke	d	n/a
457.585	0.135	915170	keystroke	e	n/a
458.065	0.0595	916130	keystroke	Key.backspace	n/a
458.245	0.09	916490	keystroke	s	n/a
458.635	0.104	917270	keystroke	Key.space	n/a
458.9795	0.106	917959	keystroke	r	n/a
459.19	0.135	918380	keystroke	a	n/a
459.355	0.105	918710	keystroke	l	n/a
459.595	0.105	919190	keystroke	p	n/a
459.805	0.12	919610	keystroke	h	n/a
459.9095	0.0755	919819	keystroke	Key.space	n/a
460.15	0.105	920300	keystroke	y	n/a
460.405	0.12	920810	keystroke	o	n/a
460.629	0.106	921258	keystroke	u	n/a
460.84	0.09	921680	keystroke	r	n/a
461.05	0.0895	922100	keystroke	s	n/a
461.3195	0.0905	922639	keystroke	e	n/a
461.44	0.1045	922880	keystroke	l	n/a
461.62	0.105	923240	keystroke	f	n/a
461.875	0.075	923750	keystroke	Key.enter	n/a
461.959	7.972	923918	prompt	n/a	repeated adaptation coffee merchandise\n
462.6555	0.09	925311	keystroke	r	n/a
462.85	0.105	925700	keystroke	e	n/a
463.0145	0.0905	926029	keystroke	p	n/a
463.135	0.12	926270	keystroke	e	n/a
463.3305	0.1345	926661	keystroke	a	n/a
463.615	0.0895	927230	keystroke	t	n/a
463.855	0.075	927710	keystroke	e	n/a
464.079	0.0915	928158	keystroke	d	n/a
464.215	0.12	928430	keystroke	Key.space	n/a
464.395	0.12	928790	keystroke	a	n/a
464.6495	0.0905	929299	keystroke	d	n/a
464.86	0.12	929720	keystroke	a	n/a
465.025	0.105	930050	keystroke	p	n/a
465.25	0.0905	930500	keystroke	t	n/a
465.4755	0.1035	930951	keystroke	a	n/a
465.699	0.091	931398	keystroke	t	n/a
465.835	0.135	931670	keystroke	i	n/a
466.0605	0.09	932121	keystroke	o	n/a
466.285	0.09	932570	keystroke	n	n/a
466.495	0.09	932990	keystroke	Key.space	n/a
466.765	0.12	933530	keystroke	c	n/a
466.9	0.15	933800	keystroke	o	n/a
467.034	0.091	934068	keystroke	f	n/a
467.229	0.106	934458	keystroke	f	n/a
467.4705	0.0435	934941	keystroke	e	n/a
467.635	0.135	935270	keystroke	e	n/a
467.814	0.0905	935628	keystroke	Key.space	n/a
468.0255	0.1495	936051	keystroke	m	n/a
468.189	0.106	936378	keystroke	e	n/a
468.399	0.076	936798	keystroke	r	n/a
468.61	0.09	937220	keystroke	c	n/a
468.7145	0.135	937429	keystroke	h	n/a
468.835	0.12	937670	keystroke	a	n/a
469	0.12	938000	keystroke	n	n/a
469.1495	0.12	938299	keystroke	d	n/a
469.315	0.105	938630	keystroke	i	n/a
469.479	0.1055	938958	keystroke	s	n/a
469.6905	0.104	939381	keystroke	e	n/a
469.855	0.0745	939710	keystroke	Key.enter	n/a
469.935	8.637	939870	prompt	n/a	commissions optional prominent football\n
470.635	0.1495	941270	keystroke	c	n/a
470.77	0.1045	941540	keystroke	o	n/a
471.0245	0.075	942049	keystroke	m	n/a
471.235	0.0755	942470	keystroke	m	n/a
471.445	0.1195	942890	keystroke	i	n/a
471.5795	0.061	943159	keystroke	s	n/a
471.7905	0.075	943581	keystroke	s	n/a
472.0145	0.076	944029	keystroke	i	n/a
472.2105	0.0895	944421	keystroke	o	n/a
472.39	0.0905	944780	keystroke	n	n/a
472.5405	0.104	945081	keystroke	s	n/a
472.675	0.135	945350	keystroke	Key.space	n/a
472.945	0.1195	945890	keystroke	o	n/a
473.2	0.12	946400	keystroke	p	n/a
473.4695	0.06	946939	keystroke	t	n/a
473.65	0.0895	947300	keystroke	i	n/a
473.86	0.0895	947720	keystroke	o	n/a
474.0395	0.135	948079	keystroke	n	n/a
474.2355	0.104	948471	keystroke	a	n/a
474.3245	0.1355	948649	keystroke	l	n/a
474.5045	0.106	949009	keystroke	Key.space	n/a
474.6555	0.105	949311	keystroke	p	n/a
474.9095	0.1055	949819	keystroke	r	n/a
475.0155	0.104	950031	keystroke	o	n/a
475.2545	0.106	950509	keystroke	m	n/a
475.5245	0.105	951049	keystroke	i	n/a
475.7195	0.12	951439	keystroke	n	n/a
475.8405	0.1195	951681	keystroke	e	n/a
476.0205	0.1345	952041	keystroke	n	n/a
476.245	0.1055	952490	keystroke	t	n/a
476.4095	0.105	952819	keystroke	Key.space	n/a
476.5755	0.15	953151	keystroke	f	n/a
476.77	0.1055	953540	keystroke	o	n/a
477.01	0.12	954020	keystroke	o	n/a
477.4005	0.1045	954801	keystroke	t	n/a
477.6695	0.0905	955339	keystroke	b	n/a
477.88	0.1205	955760	keystroke	a	n/a
478.001	0.089	956002	keystroke	l	n/a
478.24	0.1355	956480	keystroke	l	n/a
478.525	0.0455	957050	keystroke	Key.enter	n/a
478.576	5.426	957152	prompt	n/a	muscles triple cnet stage\n
479.29	0.1045	958580	keystroke	m	n/a
479.545	0.1205	959090	keystroke	u	n/a
479.6195	0.121	959239	keystroke	s	n/a
479.8605	0.134	959721	keystroke	c	n/a
480.04	0.135	960080	keystroke	l	n/a
480.22	0.09	960440	keystroke	e	n/a
480.4305	0.1195	960861	keystroke	s	n/a
480.595	0.105	961190	keystroke	Key.space	n/a
480.7755	0.0895	961551	keystroke	t	n/a
480.955	0.121	961910	keystroke	r	n/a
481.09	0.12	962180	keystroke	i	n/a
481.3005	0.105	962601	keystroke	p	n/a
481.51	0.1205	963020	keystroke	l	n/a
481.645	0.105	963290	keystroke	e	n/a
481.765	0.0905	963530	keystroke	Key.space	n/a
482.0205	0.1345	964041	keystroke	c	n/a
482.275	0.12	964550	keystroke	n	n/a
482.41	0.135	964820	keystroke	e	n/a
482.665	0.076	965330	keystroke	t	n/a
482.785	0.105	965570	keystroke	Key.space	n/a
482.935	0.121	965870	keystroke	s	n/a
483.191	0.0745	966382	keystroke	t	n/a
483.341	0.119	966682	keystroke	a	n/a
483.505	0.15	967010	keystroke	g	n/a
483.7155	0.0895	967431	keystroke	e	n/a
483.9255	0.075	967851	keystroke	Key.enter	n/a
484.0065	7.0605	968013	prompt	n/a	mumbai scroll gimme interactive\n
484.765	0.12	969530	keystroke	m	n/a
485.0355	0.075	970071	keystroke	u	n/a
485.26	0.09	970520	keystroke	m	n/a
485.56	0.0905	971120	keystroke	b	n/a
485.74	0.135	971480	keystroke	a	n/a
485.92	0.105	971840	keystroke	i	n/a
486.175	0.045	972350	keystroke	Key.space	n/a
486.265	0.12	972530	keystroke	s	n/a
486.4445	0.1365	972889	keystroke	c	n/a
486.7	0.09	973400	keystroke	r	n/a
486.805	0.0605	973610	keystroke	o	n/a
487.0155	0.06	974031	keystroke	l	n/a
487.1955	0.09	974391	keystroke	l	n/a
487.5255	0.0745	975051	keystroke	Key.space	n/a
487.7205	0.1045	975441	keystroke	g	n/a
487.8705	0.09	975741	keystroke	i	n/a
488.0955	0.0745	976191	keystroke	m	n/a
488.335	0.09	976670	keystroke	m	n/a
488.485	0.12	976970	keystroke	e	n/a
488.6955	0.0595	977391	keystroke	Key.space	n/a
488.905	0.0755	977810	keystroke	i	n/a
489.1155	0.1345	978231	keystroke	n	n/a
489.235	0.1055	978470	keystroke	t	n/a
489.4605	0.1045	978921	keystroke	e	n/a
489.67	0.09	979340	keystroke	r	n/a
489.835	0.15	979670	keystroke	a	n/a
490.03	0.1355	980060	keystroke	c	n/a
490.315	0.061	980630	keystroke	t	n/a
490.4655	0.12	980931	keystroke	i	n/a
490.571	0.104	981142	keystroke	v	n/a
490.825	0.045	981650	keystroke	e	n/a
491.005	0.06	982010	keystroke	Key.enter	n/a
491.0745	7.3885	982149	prompt	n/a	thin allied india sophisticated\n
491.8755	0.105	983751	keystroke	t	n/a
492.04	0.09	984080	keystroke	h	n/a
492.25	0.0905	984500	keystroke	i	n/a
492.4605	0.1045	984921	keystroke	n	n/a
492.6705	0.09	985341	keystroke	Key.space	n/a
492.9105	0.15	985821	keystroke	a	n/a
493.076	0.075	986152	keystroke	l	n/a
493.315	0.105	986630	keystroke	l	n/a
493.5555	0.1355	987111	keystroke	i	n/a
493.9905	0.09	987981	keystroke	e	n/a
494.2155	0.15	988431	keystroke	d	n/a
494.3805	0.0895	988761	keystroke	Key.space	n/a
494.605	0.1055	989210	keystroke	i	n/a
494.8305	0.1045	989661	keystroke	n	n/a
495.04	0.12	990080	keystroke	d	n/a
495.19	0.12	990380	keystroke	i	n/a
495.34	0.12	990680	keystroke	a	n/a
495.505	0.1205	991010	keystroke	Key.space	n/a
495.715	0.1055	991430	keystroke	s	n/a
495.8355	0.105	991671	keystroke	o	n/a
496.03	0.135	992060	keystroke	p	n/a
496.256	0.1045	992512	keystroke	h	n/a
496.465	0.12	992930	keystroke	i	n/a
496.66	0.105	993320	keystroke	s	n/a
496.93	0.1055	993860	keystroke	t	n/a
497.125	0.121	994250	keystroke	i	n/a
497.3055	0.1195	994611	keystroke	c	n/a
497.5155	0.12	995031	keystroke	a	n/a
497.801	0.12	995602	keystroke	t	n/a
497.981	0.09	995962	keystroke	e	n/a
498.1905	0.1205	996381	keystroke	d	n/a
498.3855	0.075	996771	keystroke	Key.enter	n/a
498.469	6.818	996938	prompt	n/a	negotiation ipod eddie alike\n
499.1055	0.1055	998211	keystroke	n	n/a
499.3305	0.0905	998661	keystroke	e	n/a
499.616	0.105	999232	keystroke	g	n/a
499.766	0.104	999532	keystroke	o	n/a
500.0805	0.0755	1000161	keystroke	t	n/a
500.2905	0.1055	1000581	keystroke	i	n/a
500.4555	0.1345	1000911	keystroke	a	n/a
500.6955	0.09	1001391	keystroke	t	n/a
500.9505	0.09	1001901	keystroke	i	n/a
501.1755	0.1045	1002351	keystroke	o	n/a
501.385	0.0755	1002770	keystroke	n	n/a
501.565	0.105	1003130	keystroke	Key.space	n/a
501.851	0.104	1003702	keystroke	i	n/a
502.0605	0.105	1004121	keystroke	p	n/a
502.285	0.1205	1004570	keystroke	o	n/a
502.4805	0.1495	1004961	keystroke	d	n/a
502.6155	0.0895	1005231	keystroke	Key.space	n/a
502.945	0.09	1005890	keystroke	e	n/a
503.2155	0.1045	1006431	keystroke	d	n/a
503.41	0.135	1006820	keystroke	d	n/a
503.605	0.1055	1007210	keystroke	i	n/a
503.845	0.1055	1007690	keystroke	e	n/a
503.9655	0.1045	1007931	keystroke	Key.space	n/a
504.19	0.135	1008380	keystroke	a	n/a
504.3555	0.1345	1008711	keystroke	l	n/a
504.595	0.0905	1009190	keystroke	i	n/a
504.7905	0.12	1009581	keystroke	k	n/a
505.0005	0.09	1010001	keystroke	e	n/a
505.2255	0.06	1010451	keystroke	Key.enter	n/a
505.2905	11.8765	1010581	prompt	n/a	roads significantly quest attract\n
506.08	0.1205	1012160	keystroke	r	n/a
506.2905	0.0905	1012581	keystroke	o	n/a
506.365	0.12	1012730	keystroke	a	n/a
506.59	0.1055	1013180	keystroke	d	n/a
506.83	0.0755	1013660	keystroke	s	n/a
506.95	0.0755	1013900	keystroke	Key.space	n/a
507.1305	0.1345	1014261	keystroke	s	n/a
507.326	0.119	1014652	keystroke	i	n/a
507.52	0.1055	1015040	keystroke	g	n/a
507.64	0.12	1015280	keystroke	n	n/a
507.9705	0.1195	1015941	keystroke	i	n/a
508.135	0.105	1016270	keystroke	f	n/a
508.27	0.1355	1016540	keystroke	i	n/a
508.421	0.1045	1016842	keystroke	c	n/a
508.57	0.12	1017140	keystroke	a	n/a
508.6755	0.12	1017351	keystroke	n	n/a
508.9	0.075	1017800	keystroke	t	n/a
509.0505	0.12	1018101	keystroke	l	n/a
509.2905	0.135	1018581	keystroke	y	n/a
509.3805	0.105	1018761	keystroke	Key.space	n/a
509.7705	0.0755	1019541	keystroke	q	n/a
509.8605	0.12	1019721	keystroke	u	n/a
510.056	0.1345	1020112	keystroke	e	n/a
510.296	0.104	1020592	keystroke	s	n/a
510.52	0.0905	1021040	keystroke	t	n/a
510.6555	0.0745	1021311	keystroke	Key.space	n/a
511.001	0.134	1022002	keystroke	a	n/a
511.315	0.1055	1022630	keystroke	t	n/a
511.81	0.0755	1023620	keystroke	t	n/a
511.9605	0.12	1023921	keystroke	r	n/a
512.17	0.091	1024340	keystroke	a	n/a
512.305	0.135	1024610	keystroke	c	n/a
512.56	0.1205	1025120	keystroke	k	n/a
512.6955	0.075	1025391	keystroke	e	n/a
512.89	0.12	1025780	keystroke	d	n/a
513.445	0.045	1026890	keystroke	Key.backspace	n/a
513.535	0.0755	1027070	keystroke	Key.backspace	n/a
513.73	0.0755	1027460	keystroke	Key.backspace	n/a
513.9245	0.106	1027849	keystroke	Key.backspace	n/a
515.0205	0.09	1030041	keystroke	t	n/a
515.6805	0.0895	1031361	keystroke	Key.space	n/a
516.1005	0.0755	1032201	keystroke	Key.backspace	n/a
516.2805	0.09	1032561	keystroke	Key.backspace	n/a
516.4155	0.1055	1032831	keystroke	c	n/a
516.656	0.0895	1033312	keystroke	t	n/a
517.0905	0.075	1034181	keystroke	Key.enter	n/a
517.171	8.3665	1034342	prompt	n/a	becomes michelle appreciate resident\n
518.0505	0.0905	1036101	keystroke	b	n/a
518.276	0.1045	1036552	keystroke	e	n/a
518.5005	0.12	1037001	keystroke	c	n/a
518.6955	0.1205	1037391	keystroke	o	n/a
518.92	0.1045	1037840	keystroke	m	n/a
519.026	0.089	1038052	keystroke	e	n/a
519.235	0.09	1038470	keystroke	s	n/a
519.3705	0.075	1038741	keystroke	Key.space	n/a
519.595	0.09	1039190	keystroke	m	n/a
519.865	0.1055	1039730	keystroke	i	n/a
520.105	0.1055	1040210	keystroke	c	n/a
520.3	0.1055	1040600	keystroke	h	n/a
520.4205	0.12	1040841	keystroke	e	n/a
520.615	0.0755	1041230	keystroke	l	n/a
520.8255	0.09	1041651	keystroke	l	n/a
521.0055	0.12	1042011	keystroke	e	n/a
521.11	0.061	1042220	keystroke	Key.space	n/a
521.2905	0.105	1042581	keystroke	a	n/a
521.4255	0.09	1042851	keystroke	p	n/a
521.635	0.1355	1043270	keystroke	p	n/a
521.8005	0.12	1043601	keystroke	r	n/a
522.0255	0.1195	1044051	keystroke	e	n/a
522.295	0.135	1044590	keystroke	c	n/a
522.4005	0.135	1044801	keystroke	i	n/a
522.596	0.134	1045192	keystroke	a	n/a
522.88	0.09	1045760	keystroke	t	n/a
523.0755	0.105	1046151	keystroke	e	n/a
523.2255	0.0745	1046451	keystroke	Key.space	n/a
523.406	0.134	1046812	keystroke	r	n/a
523.57	0.091	1047140	keystroke	e	n/a
523.8255	0.1195	1047651	keystroke	i	n/a
524.005	0.09	1048010	keystroke	s	n/a
524.2155	0.105	1048431	keystroke	d	n/a
524.426	0.119	1048852	keystroke	e	n/a
524.56	0.09	1049120	keystroke	n	n/a
524.726	0.0895	1049452	keystroke	t	n/a
525.4305	0.105	1050861	keystroke	Key.enter	n/a
525.5415	6.2355	1051083	prompt	n/a	pmid newest snake selected\n
526.3155	0.105	1052631	keystroke	p	n/a
526.57	0.1205	1053140	keystroke	m	n/a
526.7955	0.12	1053591	keystroke	i	n/a
526.93	0.1505	1053860	keystroke	d	n/a
527.0655	0.075	1054131	keystroke	Key.space	n/a
527.335	0.1355	1054670	keystroke	n	n/a
527.5155	0.1045	1055031	keystroke	e	n/a
527.7255	0.1045	1055451	keystroke	w	n/a
527.9355	0.09	1055871	keystroke	e	n/a
528.131	0.1045	1056262	keystroke	s	n/a
528.355	0.076	1056710	keystroke	t	n/a
528.4605	0.105	1056921	keystroke	Key.space	n/a
528.6105	0.105	1057221	keystroke	s	n/a
528.7755	0.12	1057551	keystroke	n	n/a
528.925	0.075	1057850	keystroke	a	n/a
529.0455	0.1205	1058091	keystroke	k	n/a
529.196	0.075	1058392	keystroke	e	n/a
529.3005	0.105	1058601	keystroke	Key.space	n/a
529.495	0.1205	1058990	keystroke	s	n/a
529.735	0.0755	1059470	keystroke	l	n/a
530.0655	0.075	1060131	keystroke	Key.backspace	n/a
530.2905	0.0905	1060581	keystroke	e	n/a
530.3955	0.1055	1060791	keystroke	l	n/a
530.5155	0.12	1061031	keystroke	e	n/a
530.801	0.12	1061602	keystroke	c	n/a
531.1305	0.105	1062261	keystroke	t	n/a
531.3405	0.0905	1062681	keystroke	e	n/a
531.5055	0.1195	1063011	keystroke	d	n/a
531.7005	0.075	1063401	keystroke	Key.enter	n/a
531.781	7.4815	1063562	prompt	n/a	availability tactics conf friday\n
532.3605	0.1055	1064721	keystroke	a	n/a
532.571	0.135	1065142	keystroke	v	n/a
532.826	0.09	1065652	keystroke	a	n/a
532.991	0.12	1065982	keystroke	i	n/a
533.2305	0.09	1066461	keystroke	l	n/a
533.381	0.09	1066762	keystroke	a	n/a
533.606	0.105	1067212	keystroke	b	n/a
533.7255	0.12	1067451	keystroke	i	n/a
533.98	0.121	1067960	keystroke	l	n/a
534.191	0.12	1068382	keystroke	i	n/a
534.386	0.0745	1068772	keystroke	t	n/a
534.5055	0.105	1069011	keystroke	y	n/a
534.701	0.09	1069402	keystroke	Key.space	n/a
534.88	0.09	1069760	keystroke	t	n/a
535.0755	0.0755	1070151	keystroke	a	n/a
535.27	0.106	1070540	keystroke	c	n/a
535.6005	0.0755	1071201	keystroke	t	n/a
535.766	0.075	1071532	keystroke	i	n/a
535.991	0.0595	1071982	keystroke	c	n/a
536.171	0.0745	1072342	keystroke	s	n/a
536.306	0.075	1072612	keystroke	Key.space	n/a
536.546	0.09	1073092	keystroke	f	n/a
536.861	0.0745	1073722	keystroke	Key.backspace	n/a
537.0265	0.12	1074053	keystroke	c	n/a
537.221	0.105	1074442	keystroke	o	n/a
537.476	0.105	1074952	keystroke	n	n/a
537.656	0.12	1075312	keystroke	f	n/a
537.806	0.075	1075612	keystroke	Key.space	n/a
538.046	0.1055	1076092	keystroke	f	n/a
538.3165	0.1195	1076633	keystroke	r	n/a
538.421	0.105	1076842	keystroke	i	n/a
538.616	0.1355	1077232	keystroke	d	n/a
538.7215	0.135	1077443	keystroke	a	n/a
538.976	0.0755	1077952	keystroke	y	n/a
539.201	0.06	1078402	keystroke	Key.enter	n/a
539.2675	6.4	1078535	prompt	n/a	omaha accused part approximate\n
539.9965	0.1045	1079993	keystroke	o	n/a
540.236	0.135	1080472	keystroke	m	n/a
540.4315	0.1045	1080863	keystroke	a	n/a
540.656	0.12	1081312	keystroke	h	n/a
540.8815	0.0895	1081763	keystroke	a	n/a
541.0165	0.075	1082033	keystroke	Key.space	n/a
541.196	0.09	1082392	keystroke	a	n/a
541.4215	0.0745	1082843	keystroke	c	n/a
541.6155	0.1055	1083231	keystroke	c	n/a
541.8255	0.106	1083651	keystroke	u	n/a
541.9615	0.0895	1083923	keystroke	s	n/a
542.201	0.045	1084402	keystroke	e	n/a
542.3655	0.136	1084731	keystroke	d	n/a
542.456	0.075	1084912	keystroke	Key.space	n/a
542.651	0.105	1085302	keystroke	p	n/a
542.7715	0.12	1085543	keystroke	a	n/a
542.9815	0.0895	1085963	keystroke	r	n/a
543.191	0.09	1086382	keystroke	t	n/a
543.296	0.09	1086592	keystroke	Key.space	n/a
543.4615	0.135	1086923	keystroke	a	n/a
543.6265	0.105	1087253	keystroke	p	n/a
543.8655	0.106	1087731	keystroke	p	n/a
544.0315	0.104	1088063	keystroke	r	n/a
544.166	0.12	1088332	keystroke	o	n/a
544.4965	0.1205	1088993	keystroke	x	n/a
544.601	0.105	1089202	keystroke	i	n/a
544.8265	0.1195	1089653	keystroke	m	n/a
544.931	0.1205	1089862	keystroke	a	n/a
545.1865	0.1045	1090373	keystroke	t	n/a
545.396	0.0905	1090792	keystroke	e	n/a
545.5915	0.0745	1091183	keystroke	Key.enter	n/a
545.674	6.2635	1091348	prompt	n/a	noted infants improving patrick\n
546.401	0.0905	1092802	keystroke	n	n/a
546.626	0.105	1093252	keystroke	o	n/a
546.821	0.075	1093642	keystroke	t	n/a
546.986	0.09	1093972	keystroke	e	n/a
547.1955	0.136	1094391	keystroke	d	n/a
547.3315	0.059	1094663	keystroke	Key.space	n/a
547.526	0.0895	1095052	keystroke	i	n/a
547.721	0.12	1095442	keystroke	n	n/a
547.856	0.12	1095712	keystroke	f	n/a
548.051	0.105	1096102	keystroke	a	n/a
548.2165	0.119	1096433	keystroke	n	n/a
548.4265	0.0895	1096853	keystroke	t	n/a
548.6215	0.0595	1097243	keystroke	s	n/a
548.756	0.075	1097512	keystroke	Key.space	n/a
548.9665	0.0745	1097933	keystroke	i	n/a
549.1915	0.1045	1098383	keystroke	m	n/a
549.386	0.1055	1098772	keystroke	p	n/a
549.551	0.0755	1099102	keystroke	r	n/a
549.656	0.105	1099312	keystroke	o	n/a
549.8215	0.1195	1099643	keystroke	v	n/a
549.942	0.074	1099884	keystroke	i	n/a
550.151	0.105	1100302	keystroke	n	n/a
550.346	0.1045	1100692	keystroke	g	n/a
550.436	0.06	1100872	keystroke	Key.space	n/a
550.6465	0.105	1101293	keystroke	p	n/a
550.7805	0.09	1101561	keystroke	a	n/a
551.0055	0.061	1102011	keystroke	t	n/a
551.156	0.105	1102312	keystroke	r	n/a
551.336	0.09	1102672	keystroke	i	n/a
551.4855	0.1055	1102971	keystroke	c	n/a
551.636	0.0905	1103272	keystroke	k	n/a
551.8605	0.0755	1103721	keystroke	Key.enter	n/a
551.9445	6.684	1103889	prompt	n/a	patents victorian musical blues\n
552.581	0.09	1105162	keystroke	p	n/a
552.701	0.105	1105402	keystroke	a	n/a
552.9565	0.105	1105913	keystroke	t	n/a
553.1365	0.119	1106273	keystroke	e	n/a
553.3005	0.0905	1106601	keystroke	n	n/a
553.4365	0.1045	1106873	keystroke	t	n/a
553.676	0.12	1107352	keystroke	s	n/a
553.8115	0.0595	1107623	keystroke	Key.space	n/a
554.351	0.09	1108702	keystroke	v	n/a
554.516	0.09	1109032	keystroke	i	n/a
554.696	0.12	1109392	keystroke	c	n/a
554.996	0.075	1109992	keystroke	t	n/a
555.206	0.1205	1110412	keystroke	o	n/a
555.3565	0.09	1110713	keystroke	r	n/a
555.4915	0.135	1110983	keystroke	i	n/a
555.6115	0.105	1111223	keystroke	a	n/a
555.926	0.075	1111852	keystroke	n	n/a
556.1655	0.075	1112331	keystroke	Key.space	n/a
556.376	0.105	1112752	keystroke	m	n/a
556.6165	0.0895	1113233	keystroke	u	n/a
556.7365	0.105	1113473	keystroke	s	n/a
556.976	0.1045	1113952	keystroke	i	n/a
557.0955	0.151	1114191	keystroke	c	n/a
557.321	0.1195	1114642	keystroke	a	n/a
557.4255	0.105	1114851	keystroke	l	n/a
557.5905	0.091	1115181	keystroke	Key.space	n/a
557.7865	0.1045	1115573	keystroke	b	n/a
557.8765	0.1045	1115753	keystroke	l	n/a
558.0865	0.09	1116173	keystroke	u	n/a
558.2065	0.0745	1116413	keystroke	e	n/a
558.3865	0.0745	1116773	keystroke	s	n/a
558.5665	0.06	1117133	keystroke	Key.enter	n/a
558.6335	7.662	1117267	prompt	n/a	neon respected periods virginia\n
559.391	0.1205	1118782	keystroke	n	n/a
559.4965	0.0745	1118993	keystroke	e	n/a
559.6905	0.091	1119381	keystroke	o	n/a
559.8865	0.1195	1119773	keystroke	n	n/a
560.081	0.0745	1120162	keystroke	Key.space	n/a
560.246	0.105	1120492	keystroke	r	n/a
560.456	0.09	1120912	keystroke	e	n/a
560.681	0.12	1121362	keystroke	p	n/a
561.101	0.075	1122202	keystroke	Key.backspace	n/a
561.2355	0.1055	1122471	keystroke	s	n/a
561.401	0.105	1122802	keystroke	p	n/a
561.5365	0.075	1123073	keystroke	e	n/a
561.7915	0.1495	1123583	keystroke	c	n/a
562.0765	0.1045	1124153	keystroke	t	n/a
562.271	0.075	1124542	keystroke	e	n/a
562.481	0.1205	1124962	keystroke	d	n/a
562.586	0.045	1125172	keystroke	Key.space	n/a
562.766	0.105	1125532	keystroke	p	n/a
562.9465	0.15	1125893	keystroke	e	n/a
563.1865	0.0755	1126373	keystroke	r	n/a
563.292	0.12	1126584	keystroke	i	n/a
563.5315	0.075	1127063	keystroke	o	n/a
563.652	0.1195	1127304	keystroke	d	n/a
563.877	0.0895	1127754	keystroke	s	n/a
563.9815	0.0905	1127963	keystroke	Key.space	n/a
564.7925	0.0905	1129585	keystroke	v	n/a
565.0325	0.12	1130065	keystroke	i	n/a
565.168	0.075	1130336	keystroke	r	n/a
565.3625	0.09	1130725	keystroke	g	n/a
565.4375	0.091	1130875	keystroke	i	n/a
565.618	0.1805	1131236	keystroke	n	n/a
565.7835	0.105	1131567	keystroke	i	n/a
565.9935	0.135	1131987	keystroke	a	n/a
566.1885	0.1055	1132377	keystroke	Key.enter	n/a
566.301	8.1895	1132602	prompt	n/a	cancellation scout watch robertson\n
566.9395	0.1345	1133879	keystroke	c	n/a
567.1185	0.1205	1134237	keystroke	a	n/a
567.2845	0.09	1134569	keystroke	n	n/a
567.4345	0.09	1134869	keystroke	c	n/a
567.66	0.0595	1135320	keystroke	e	n/a
567.8095	0.09	1135619	keystroke	l	n/a
568.0495	0.0755	1136099	keystroke	l	n/a
568.2895	0.0605	1136579	keystroke	a	n/a
568.5	0.0905	1137000	keystroke	t	n/a
568.7555	0.09	1137511	keystroke	i	n/a
569.0095	0.091	1138019	keystroke	o	n/a
569.1905	0.1045	1138381	keystroke	n	n/a
569.4305	0.0745	1138861	keystroke	Key.space	n/a
569.6405	0.0905	1139281	keystroke	s	n/a
569.835	0.151	1139670	keystroke	c	n/a
570.061	0.165	1140122	keystroke	o	n/a
570.4065	0.104	1140813	keystroke	u	n/a
570.796	0.0905	1141592	keystroke	t	n/a
570.9165	0.0905	1141833	keystroke	Key.space	n/a
571.082	0.0745	1142164	keystroke	w	n/a
571.2765	0.1205	1142553	keystroke	a	n/a
571.5015	0.0605	1143003	keystroke	t	n/a
571.727	0.12	1143454	keystroke	c	n/a
571.817	0.1505	1143634	keystroke	h	n/a
571.937	0.09	1143874	keystroke	Key.space	n/a
572.117	0.1055	1144234	keystroke	r	n/a
572.2825	0.075	1144565	keystroke	o	n/a
572.4925	0.0905	1144985	keystroke	b	n/a
572.748	0.1045	1145496	keystroke	e	n/a
572.9275	0.12	1145855	keystroke	r	n/a
573.138	0.12	1146276	keystroke	t	n/a
573.287	0.106	1146574	keystroke	o	n/a
573.708	0.0745	1147416	keystroke	Key.backspace	n/a
573.8575	0.1055	1147715	keystroke	s	n/a
573.9775	0.136	1147955	keystroke	o	n/a
574.1735	0.0895	1148347	keystroke	n	n/a
574.414	0.075	1148828	keystroke	Key.enter	n/a
574.4955	6.164	1148991	prompt	n/a	drives nathan darkness works\n
575.224	0.0905	1150448	keystroke	d	n/a
575.4345	0.0745	1150869	keystroke	r	n/a
575.5845	0.105	1151169	keystroke	i	n/a
575.7045	0.0745	1151409	keystroke	v	n/a
575.915	0.059	1151830	keystroke	e	n/a
576.1095	0.0905	1152219	keystroke	s	n/a
576.26	0.12	1152520	keystroke	Key.space	n/a
576.5	0.12	1153000	keystroke	n	n/a
576.635	0.06	1153270	keystroke	a	n/a
576.8155	0.09	1153631	keystroke	t	n/a
576.9205	0.0895	1153841	keystroke	h	n/a
577.025	0.1495	1154050	keystroke	a	n/a
577.1895	0.076	1154379	keystroke	n	n/a
577.3555	0.075	1154711	keystroke	Key.space	n/a
577.6255	0.105	1155251	keystroke	d	n/a
577.791	0.165	1155582	keystroke	a	n/a
578.0305	0.1205	1156061	keystroke	r	n/a
578.181	0.105	1156362	keystroke	k	n/a
578.361	0.105	1156722	keystroke	e	n/a
578.4515	0.1045	1156903	keystroke	n	n/a
578.7665	0.06	1157533	keystroke	Key.backspace	n/a
578.9465	0.075	1157893	keystroke	Key.backspace	n/a
579.157	0.0745	1158314	keystroke	n	n/a
579.247	0.06	1158494	keystroke	e	n/a
579.442	0.045	1158884	keystroke	s	n/a
579.577	0.1045	1159154	keystroke	s	n/a
579.741	0.09	1159482	keystroke	Key.space	n/a
579.922	0.1045	1159844	keystroke	w	n/a
580.0575	0.105	1160115	keystroke	o	n/a
580.1775	0.09	1160355	keystroke	r	n/a
580.2965	0.136	1160593	keystroke	k	n/a
580.4175	0.105	1160835	keystroke	s	n/a
580.5825	0.0745	1161165	keystroke	Key.enter	n/a
580.668	7.1355	1161336	prompt	n/a	live walnut pharmaceuticals coastal\n
581.4235	0.105	1162847	keystroke	l	n/a
581.6185	0.12	1163237	keystroke	i	n/a
581.7685	0.09	1163537	keystroke	v	n/a
581.9635	0.09	1163927	keystroke	e	n/a
582.0835	0.075	1164167	keystroke	Key.space	n/a
582.2335	0.0755	1164467	keystroke	w	n/a
582.3985	0.135	1164797	keystroke	a	n/a
582.519	0.0745	1165038	keystroke	l	n/a
582.714	0.09	1165428	keystroke	n	n/a
582.924	0.075	1165848	keystroke	u	n/a
583.0745	0.0895	1166149	keystroke	t	n/a
583.209	0.0455	1166418	keystroke	Key.space	n/a
583.359	0.1055	1166718	keystroke	p	n/a
583.5835	0.09	1167167	keystroke	h	n/a
583.6895	0.12	1167379	keystroke	a	n/a
583.899	0.1055	1167798	keystroke	r	n/a
584.29	0.09	1168580	keystroke	m	n/a
584.455	0.09	1168910	keystroke	a	n/a
584.9655	0.1045	1169931	keystroke	c	n/a
585.1755	0.12	1170351	keystroke	e	n/a
585.5205	0.09	1171041	keystroke	u	n/a
585.6855	0.0755	1171371	keystroke	t	n/a
585.88	0.121	1171760	keystroke	i	n/a
585.9855	0.1355	1171971	keystroke	c	n/a
586.061	0.0745	1172122	keystroke	a	n/a
586.241	0.105	1172482	keystroke	l	n/a
586.406	0.12	1172812	keystroke	s	n/a
586.57	0.0755	1173140	keystroke	Key.space	n/a
586.7065	0.12	1173413	keystroke	c	n/a
586.8565	0.09	1173713	keystroke	o	n/a
586.9765	0.105	1173953	keystroke	s	n/a
587.1865	0.119	1174373	keystroke	t	n/a
587.2915	0.1205	1174583	keystroke	a	n/a
587.501	0.076	1175002	keystroke	l	n/a
587.727	0.0745	1175454	keystroke	Key.enter	n/a
587.8135	7.8395	1175627	prompt	n/a	swingers afternoon threat indiana\n
588.537	0.0155	1177074	keystroke	s	n/a
588.6725	0.12	1177345	keystroke	w	n/a
588.7925	0.0745	1177585	keystroke	i	n/a
588.9875	0.1195	1177975	keystroke	n	n/a
589.122	0.091	1178244	keystroke	g	n/a
589.3175	0.1055	1178635	keystroke	e	n/a
589.543	0.12	1179086	keystroke	r	n/a
589.798	0.12	1179596	keystroke	s	n/a
590.008	0.105	1180016	keystroke	Key.space	n/a
590.1585	0.1495	1180317	keystroke	a	n/a
590.3685	0.105	1180737	keystroke	f	n/a
590.7735	0.0905	1181547	keystroke	t	n/a
590.9835	0.1655	1181967	keystroke	e	n/a
591.074	0.135	1182148	keystroke	r	n/a
591.313	0.076	1182626	keystroke	n	n/a
591.524	0.06	1183048	keystroke	o	n/a
591.689	0.1045	1183378	keystroke	o	n/a
591.8685	0.136	1183737	keystroke	n	n/a
591.9885	0.0905	1183977	keystroke	Key.space	n/a
592.2445	0.075	1184489	keystroke	t	n/a
592.4095	0.1055	1184819	keystroke	h	n/a
592.53	0.15	1185060	keystroke	r	n/a
592.664	0.091	1185328	keystroke	e	n/a
592.875	0.135	1185750	keystroke	a	n/a
593.0995	0.1355	1186199	keystroke	d	n/a
593.3095	0.0905	1186619	keystroke	Key.space	n/a
593.76	0.0755	1187520	keystroke	Key.backspace	n/a
593.97	0.0755	1187940	keystroke	Key.backspace	n/a
594.1355	0.059	1188271	keystroke	t	n/a
594.24	0.075	1188480	keystroke	Key.space	n/a
594.451	0.075	1188902	keystroke	i	n/a
594.646	0.09	1189292	keystroke	n	n/a
594.781	0.12	1189562	keystroke	d	n/a
594.916	0.09	1189832	keystroke	i	n/a
595.021	0.1055	1190042	keystroke	a	n/a
595.1705	0.12	1190341	keystroke	n	n/a
595.3055	0.0905	1190611	keystroke	a	n/a
595.576	0.075	1191152	keystroke	Key.enter	n/a
595.6615	7.045	1191323	prompt	n/a	connected physiology hack comparing\n
596.5665	0.15	1193133	keystroke	c	n/a
596.7315	0.0905	1193463	keystroke	o	n/a
596.942	0.075	1193884	keystroke	n	n/a
597.122	0.12	1194244	keystroke	n	n/a
597.212	0.0905	1194424	keystroke	e	n/a
597.3775	0.12	1194755	keystroke	c	n/a
597.6765	0.076	1195353	keystroke	t	n/a
597.857	0.0605	1195714	keystroke	e	n/a
598.0375	0.1505	1196075	keystroke	d	n/a
598.2025	0.075	1196405	keystroke	Key.space	n/a
598.3375	0.105	1196675	keystroke	p	n/a
598.547	0.061	1197094	keystroke	h	n/a
598.728	0.089	1197456	keystroke	y	n/a
598.878	0.105	1197756	keystroke	s	n/a
599.133	0.12	1198266	keystroke	i	n/a
599.3275	0.091	1198655	keystroke	o	n/a
599.508	0.0905	1199016	keystroke	l	n/a
599.6885	0.135	1199377	keystroke	o	n/a
599.868	0.0905	1199736	keystroke	g	n/a
599.943	0.1495	1199886	keystroke	y	n/a
600.078	0.0455	1200156	keystroke	Key.space	n/a
600.2585	0.12	1200517	keystroke	h	n/a
600.3635	0.12	1200727	keystroke	a	n/a
600.5885	0.1355	1201177	keystroke	c	n/a
600.829	0.09	1201658	keystroke	k	n/a
601.0085	0.0745	1202017	keystroke	Key.space	n/a
601.293	0.151	1202586	keystroke	c	n/a
601.3845	0.1045	1202769	keystroke	o	n/a
601.699	0.0155	1203398	keystroke	m	n/a
601.7595	0.12	1203519	keystroke	p	n/a
601.9395	0.074	1203879	keystroke	a	n/a
602.119	0.1055	1204238	keystroke	r	n/a
602.2095	0.075	1204419	keystroke	i	n/a
602.374	0.1055	1204748	keystroke	n	n/a
602.494	0.0755	1204988	keystroke	g	n/a
602.644	0.06	1205288	keystroke	Key.enter	n/a
602.716	6.533	1205432	prompt	n/a	formation gnome oclc thats\n
603.575	0.12	1207150	keystroke	f	n/a
603.74	0.09	1207480	keystroke	o	n/a
603.8445	0.1355	1207689	keystroke	r	n/a
604.0105	0.12	1208021	keystroke	m	n/a
604.1445	0.135	1208289	keystroke	a	n/a
604.34	0.1055	1208680	keystroke	t	n/a
604.4605	0.119	1208921	keystroke	i	n/a
604.6705	0.074	1209341	keystroke	o	n/a
604.835	0.1205	1209670	keystroke	n	n/a
605.0605	0.06	1210121	keystroke	Key.space	n/a
605.271	0.12	1210542	keystroke	g	n/a
605.4505	0.0905	1210901	keystroke	n	n/a
605.661	0.06	1211322	keystroke	o	n/a
605.825	0.1055	1211650	keystroke	m	n/a
605.976	0.0895	1211952	keystroke	e	n/a
606.096	0.0895	1212192	keystroke	Key.space	n/a
606.2755	0.106	1212551	keystroke	c	n/a
606.396	0.1055	1212792	keystroke	o	n/a
606.7865	0.075	1213573	keystroke	Key.backspace	n/a
607.012	0.119	1214024	keystroke	l	n/a
607.282	0.119	1214564	keystroke	c	n/a
607.432	0.089	1214864	keystroke	Key.space	n/a
607.686	0.106	1215372	keystroke	t	n/a
607.8665	0.1055	1215733	keystroke	h	n/a
607.9575	0.1335	1215915	keystroke	a	n/a
608.166	0.106	1216332	keystroke	t	n/a
608.4215	0.105	1216843	keystroke	a	n/a
608.887	0.0755	1217774	keystroke	Key.backspace	n/a
608.9775	0.09	1217955	keystroke	s	n/a
609.1715	0.076	1218343	keystroke	Key.enter	n/a
609.2565	5.7535	1218513	prompt	n/a	frontier dish brochure carried\n
609.938	0.1045	1219876	keystroke	f	n/a
610.148	0.12	1220296	keystroke	r	n/a
610.252	0.091	1220504	keystroke	o	n/a
610.417	0.135	1220834	keystroke	n	n/a
610.567	0.091	1221134	keystroke	t	n/a
610.703	0.12	1221406	keystroke	i	n/a
610.8385	0.1045	1221677	keystroke	e	n/a
611.063	0.09	1222126	keystroke	r	n/a
611.1535	0.1195	1222307	keystroke	Key.space	n/a
611.393	0.0905	1222786	keystroke	d	n/a
611.4675	0.136	1222935	keystroke	i	n/a
611.618	0.09	1223236	keystroke	s	n/a
611.738	0.0905	1223476	keystroke	h	n/a
611.9035	0.104	1223807	keystroke	Key.space	n/a
612.158	0.0755	1224316	keystroke	b	n/a
612.4885	0.09	1224977	keystroke	r	n/a
612.6685	0.119	1225337	keystroke	o	n/a
612.8635	0.134	1225727	keystroke	c	n/a
612.9675	0.0915	1225935	keystroke	h	n/a
613.178	0.105	1226356	keystroke	u	n/a
613.2835	0.105	1226567	keystroke	r	n/a
613.4935	0.134	1226987	keystroke	e	n/a
613.613	0.075	1227226	keystroke	Key.space	n/a
613.7185	0.1345	1227437	keystroke	c	n/a
614.047	0.0905	1228094	keystroke	a	n/a
614.258	0.075	1228516	keystroke	r	n/a
614.4235	0.075	1228847	keystroke	r	n/a
614.528	0.1345	1229056	keystroke	i	n/a
614.633	0.075	1229266	keystroke	e	n/a
614.828	0.0605	1229656	keystroke	d	n/a
614.933	0.0755	1229866	keystroke	Key.enter	n/a
615.0195	7.91	1230039	prompt	n/a	melbourne finds nights identification\n
615.7125	0.1055	1231425	keystroke	m	n/a
615.8775	0.165	1231755	keystroke	e	n/a
616.0275	0.105	1232055	keystroke	l	n/a
616.238	0.1495	1232476	keystroke	b	n/a
616.4775	0.1355	1232955	keystroke	o	n/a
616.8825	0.0765	1233765	keystroke	u	n/a
617.0035	0.1495	1234007	keystroke	r	n/a
617.1835	0.1195	1234367	keystroke	n	n/a
617.318	0.075	1234636	keystroke	e	n/a
618.023	0.0905	1236046	keystroke	Key.space	n/a
618.1875	0.1505	1236375	keystroke	f	n/a
618.3835	0.1045	1236767	keystroke	i	n/a
618.563	0.12	1237126	keystroke	n	n/a
618.653	0.1805	1237306	keystroke	d	n/a
618.7425	0.1355	1237485	keystroke	s	n/a
618.863	0.06	1237726	keystroke	Key.space	n/a
619.283	0.0905	1238566	keystroke	n	n/a
619.598	0.1045	1239196	keystroke	i	n/a
619.7335	0.0895	1239467	keystroke	g	n/a
619.8985	0.105	1239797	keystroke	h	n/a
620.0185	0.089	1240037	keystroke	t	n/a
620.198	0.1045	1240396	keystroke	s	n/a
620.3475	0.0455	1240695	keystroke	Key.space	n/a
620.558	0.09	1241116	keystroke	i	n/a
620.633	0.0905	1241266	keystroke	d	n/a
620.814	0.134	1241628	keystroke	e	n/a
620.933	0.0905	1241866	keystroke	n	n/a
621.0685	0.089	1242137	keystroke	t	n/a
621.2335	0.1195	1242467	keystroke	i	n/a
621.3385	0.075	1242677	keystroke	f	n/a
621.4585	0.1195	1242917	keystroke	i	n/a
621.548	0.075	1243096	keystroke	c	n/a
621.6535	0.105	1243307	keystroke	a	n/a
622.0585	0.104	1244117	keystroke	t	n/a
622.1785	0.1495	1244357	keystroke	i	n/a
622.2685	0.1805	1244537	keystroke	o	n/a
622.5835	0.104	1245167	keystroke	n	n/a
622.8525	0.075	1245705	keystroke	Key.enter	n/a
622.9345	16.945	1245869	prompt	n/a	otherwise marcus moments environments\n
631.3755	0.0725	1262751	keystroke	o	n/a
631.463	0.1045	1262926	keystroke	t	n/a
631.628	0.12	1263256	keystroke	h	n/a
631.7925	0.12	1263585	keystroke	e	n/a
631.9135	0.104	1263827	keystroke	r	n/a
632.182	0.0755	1264364	keystroke	s	n/a
632.2725	0.1205	1264545	keystroke	i	n/a
633.292	0.0905	1266584	keystroke	Key.backspace	n/a
633.4875	0.105	1266975	keystroke	Key.backspace	n/a
633.9375	0.075	1267875	keystroke	w	n/a
634.1175	0.105	1268235	keystroke	i	n/a
634.2375	0.09	1268475	keystroke	s	n/a
634.462	0.091	1268924	keystroke	e	n/a
634.568	0.0895	1269136	keystroke	Key.space	n/a
634.7925	0.1055	1269585	keystroke	m	n/a
634.883	0.0895	1269766	keystroke	a	n/a
635.0925	0.1055	1270185	keystroke	r	n/a
635.363	0.1195	1270726	keystroke	c	n/a
635.498	0.1045	1270996	keystroke	u	n/a
635.618	0.0745	1271236	keystroke	s	n/a
635.7525	0.0755	1271505	keystroke	Key.space	n/a
635.9925	0.1055	1271985	keystroke	m	n/a
636.3075	0.075	1272615	keystroke	o	n/a
636.5775	0.1205	1273155	keystroke	m	n/a
636.743	0.1195	1273486	keystroke	e	n/a
636.9225	0.1205	1273845	keystroke	n	n/a
637.1175	0.105	1274235	keystroke	t	n/a
637.328	0.0745	1274656	keystroke	s	n/a
637.448	0.105	1274896	keystroke	Key.space	n/a
637.6725	0.105	1275345	keystroke	e	n/a
637.8075	0.0895	1275615	keystroke	n	n/a
638.003	0.12	1276006	keystroke	v	n/a
638.317	0.1355	1276634	keystroke	i	n/a
638.513	0.1195	1277026	keystroke	r	n/a
638.678	0.0895	1277356	keystroke	o	n/a
638.8425	0.105	1277685	keystroke	n	n/a
639.0675	0.1045	1278135	keystroke	m	n/a
639.1875	0.1495	1278375	keystroke	e	n/a
639.3225	0.1195	1278645	keystroke	n	n/a
639.457	0.1055	1278914	keystroke	t	n/a
639.6675	0.06	1279335	keystroke	s	n/a
639.817	0.0605	1279634	keystroke	Key.enter	n/a
639.886	8.662	1279772	prompt	n/a	comes faster considerations feelings\n
641.767	0.135	1283534	keystroke	c	n/a
641.872	0.075	1283744	keystroke	o	n/a
642.0965	0.1055	1284193	keystroke	m	n/a
642.262	0.0895	1284524	keystroke	e	n/a
642.517	0.075	1285034	keystroke	s	n/a
642.637	0.135	1285274	keystroke	Key.space	n/a
642.9065	0.121	1285813	keystroke	f	n/a
643.132	0.1355	1286264	keystroke	a	n/a
643.372	0.0905	1286744	keystroke	s	n/a
643.612	0.0755	1287224	keystroke	t	n/a
643.822	0.12	1287644	keystroke	e	n/a
644.0475	0.0895	1288095	keystroke	r	n/a
644.167	0.09	1288334	keystroke	Key.space	n/a
644.392	0.165	1288784	keystroke	c	n/a
644.542	0.135	1289084	keystroke	o	n/a
644.737	0.12	1289474	keystroke	n	n/a
644.902	0.1045	1289804	keystroke	s	n/a
645.0365	0.1355	1290073	keystroke	i	n/a
645.202	0.1045	1290404	keystroke	d	n/a
645.411	0.136	1290822	keystroke	e	n/a
645.517	0.105	1291034	keystroke	r	n/a
645.7415	0.1355	1291483	keystroke	a	n/a
645.9215	0.1355	1291843	keystroke	t	n/a
646.087	0.12	1292174	keystroke	i	n/a
646.2815	0.12	1292563	keystroke	o	n/a
646.4765	0.1055	1292953	keystroke	n	n/a
646.642	0.1195	1293284	keystroke	s	n/a
646.7465	0.09	1293493	keystroke	Key.space	n/a
646.9115	0.135	1293823	keystroke	f	n/a
647.1525	0.059	1294305	keystroke	e	n/a
647.287	0.1495	1294574	keystroke	e	n/a
647.496	0.091	1294992	keystroke	l	n/a
647.6915	0.1045	1295383	keystroke	i	n/a
647.8715	0.15	1295743	keystroke	n	n/a
648.022	0.0895	1296044	keystroke	g	n/a
648.2015	0.075	1296403	keystroke	s	n/a
648.471	0.0755	1296942	keystroke	Key.enter	n/a
648.5525	6.5355	1297105	prompt	n/a	citation dozens kill pleased\n
649.4615	0.15	1298923	keystroke	c	n/a
649.5965	0.12	1299193	keystroke	i	n/a
649.821	0.105	1299642	keystroke	t	n/a
649.9865	0.135	1299973	keystroke	a	n/a
650.241	0.0895	1300482	keystroke	t	n/a
650.346	0.0895	1300692	keystroke	i	n/a
650.5565	0.09	1301113	keystroke	o	n/a
650.7365	0.0895	1301473	keystroke	n	n/a
650.9015	0.089	1301803	keystroke	Key.space	n/a
651.2015	0.1045	1302403	keystroke	d	n/a
651.351	0.1055	1302702	keystroke	o	n/a
651.5015	0.105	1303003	keystroke	z	n/a
651.741	0.1205	1303482	keystroke	e	n/a
651.8915	0.1055	1303783	keystroke	n	n/a
652.2215	0.0895	1304443	keystroke	s	n/a
652.3715	0.09	1304743	keystroke	Key.space	n/a
652.581	0.09	1305162	keystroke	k	n/a
652.7765	0.0745	1305553	keystroke	i	n/a
652.9865	0.0745	1305973	keystroke	l	n/a
653.1815	0.09	1306363	keystroke	l	n/a
653.316	0.09	1306632	keystroke	Key.space	n/a
653.5265	0.075	1307053	keystroke	p	n/a
653.751	0.105	1307502	keystroke	l	n/a
653.946	0.0895	1307892	keystroke	e	n/a
654.186	0.135	1308372	keystroke	a	n/a
654.3955	0.1205	1308791	keystroke	s	n/a
654.6215	0.0745	1309243	keystroke	e	n/a
654.801	0.1505	1309602	keystroke	d	n/a
654.996	0.0905	1309992	keystroke	Key.enter	n/a
655.092	5.7555	1310184	prompt	n/a	strings count unity asset\n
655.836	0.105	1311672	keystroke	s	n/a
656.075	0.076	1312150	keystroke	t	n/a
656.256	0.1195	1312512	keystroke	r	n/a
656.421	0.0745	1312842	keystroke	i	n/a
656.615	0.1055	1313230	keystroke	n	n/a
656.736	0.09	1313472	keystroke	g	n/a
656.9305	0.1055	1313861	keystroke	s	n/a
657.0655	0.06	1314131	keystroke	Key.space	n/a
657.2905	0.06	1314581	keystroke	c	n/a
657.561	0.09	1315122	keystroke	o	n/a
657.786	0.0895	1315572	keystroke	u	n/a
657.996	0.089	1315992	keystroke	n	n/a
658.1455	0.1205	1316291	keystroke	t	n/a
658.2805	0.075	1316561	keystroke	Key.space	n/a
658.491	0.0895	1316982	keystroke	u	n/a
658.6855	0.225	1317371	keystroke	n	n/a
658.8955	0.105	1317791	keystroke	i	n/a
659.1655	0.1195	1318331	keystroke	t	n/a
659.3005	0.1055	1318601	keystroke	y	n/a
659.4805	0.075	1318961	keystroke	Key.space	n/a
659.6905	0.105	1319381	keystroke	a	n/a
659.901	0.0885	1319802	keystroke	s	n/a
660.1105	0.0905	1320221	keystroke	s	n/a
660.3355	0.12	1320671	keystroke	e	n/a
660.5905	0.1055	1321181	keystroke	t	n/a
660.7845	0.061	1321569	keystroke	Key.enter	n/a
660.8525	5.469	1321705	prompt	n/a	telling frank normally when\n
661.5205	0.105	1323041	keystroke	t	n/a
661.7305	0.105	1323461	keystroke	e	n/a
661.9105	0.09	1323821	keystroke	l	n/a
662.1355	0.075	1324271	keystroke	l	n/a
662.3455	0.06	1324691	keystroke	i	n/a
662.5245	0.091	1325049	keystroke	n	n/a
662.6755	0.105	1325351	keystroke	g	n/a
662.81	0.0755	1325620	keystroke	Key.space	n/a
662.975	0.1045	1325950	keystroke	f	n/a
663.1705	0.104	1326341	keystroke	r	n/a
663.3055	0.1345	1326611	keystroke	a	n/a
663.4995	0.075	1326999	keystroke	n	n/a
663.6805	0.105	1327361	keystroke	k	n/a
663.8455	0.1045	1327691	keystroke	Key.space	n/a
664.13	0.09	1328260	keystroke	n	n/a
664.325	0.075	1328650	keystroke	o	n/a
664.445	0.119	1328890	keystroke	r	n/a
664.5655	0.1195	1329131	keystroke	m	n/a
664.67	0.12	1329340	keystroke	a	n/a
664.805	0.0595	1329610	keystroke	l	n/a
664.9845	0.105	1329969	keystroke	l	n/a
665.254	0.1055	1330508	keystroke	y	n/a
665.48	0.045	1330960	keystroke	Key.space	n/a
665.674	0.106	1331348	keystroke	w	n/a
665.795	0.0895	1331590	keystroke	h	n/a
665.945	0.12	1331890	keystroke	e	n/a
666.035	0.0595	1332070	keystroke	n	n/a
666.259	0.061	1332518	keystroke	Key.enter	n/a
666.325	6.3855	1332650	prompt	n/a	exposed austin medal february\n
666.965	0.075	1333930	keystroke	e	n/a
667.16	0.15	1334320	keystroke	x	n/a
667.325	0.0905	1334650	keystroke	p	n/a
667.535	0.105	1335070	keystroke	o	n/a
667.655	0.09	1335310	keystroke	s	n/a
667.865	0.06	1335730	keystroke	e	n/a
668.0445	0.135	1336089	keystroke	d	n/a
668.1645	0.0905	1336329	keystroke	Key.space	n/a
668.359	0.1365	1336718	keystroke	a	n/a
668.569	0.0905	1337138	keystroke	u	n/a
668.809	0.105	1337618	keystroke	s	n/a
669.0485	0.106	1338097	keystroke	t	n/a
669.1695	0.105	1338339	keystroke	i	n/a
669.3795	0.105	1338759	keystroke	n	n/a
669.499	0.1055	1338998	keystroke	Key.space	n/a
669.769	0.1055	1339538	keystroke	m	n/a
669.904	0.091	1339808	keystroke	e	n/a
670.0845	0.1355	1340169	keystroke	d	n/a
670.31	0.1195	1340620	keystroke	a	n/a
670.4595	0.1055	1340919	keystroke	l	n/a
670.6695	0.0905	1341339	keystroke	Key.space	n/a
670.7895	0.1195	1341579	keystroke	f	n/a
670.9995	0.12	1341999	keystroke	e	n/a
671.2845	0.105	1342569	keystroke	b	n/a
671.5385	0.106	1343077	keystroke	r	n/a
671.8395	0.09	1343679	keystroke	u	n/a
671.9895	0.149	1343979	keystroke	a	n/a
672.1995	0.15	1344399	keystroke	r	n/a
672.3785	0.09	1344757	keystroke	y	n/a
672.6485	0.06	1345297	keystroke	Key.enter	n/a
672.7145	7.1055	1345429	prompt	n/a	jaguar classics sections infection\n
673.3685	0.1355	1346737	keystroke	j	n/a
673.624	0.1345	1347248	keystroke	a	n/a
673.8635	0.1205	1347727	keystroke	g	n/a
673.999	0.12	1347998	keystroke	u	n/a
674.179	0.105	1348358	keystroke	a	n/a
674.389	0.1045	1348778	keystroke	r	n/a
674.509	0.09	1349018	keystroke	Key.space	n/a
674.689	0.12	1349378	keystroke	c	n/a
674.839	0.134	1349678	keystroke	l	n/a
674.989	0.0445	1349978	keystroke	a	n/a
675.169	0.104	1350338	keystroke	s	n/a
675.394	0.12	1350788	keystroke	s	n/a
675.604	0.135	1351208	keystroke	i	n/a
675.723	0.136	1351446	keystroke	c	n/a
675.934	0.09	1351868	keystroke	s	n/a
676.0535	0.09	1352107	keystroke	Key.space	n/a
676.189	0.075	1352378	keystroke	s	n/a
676.3985	0.0905	1352797	keystroke	e	n/a
676.594	0.12	1353188	keystroke	c	n/a
676.864	0.0745	1353728	keystroke	t	n/a
676.999	0.12	1353998	keystroke	i	n/a
677.239	0.0745	1354478	keystroke	o	n/a
677.419	0.09	1354838	keystroke	n	n/a
677.5235	0.1205	1355047	keystroke	s	n/a
677.659	0.0895	1355318	keystroke	Key.space	n/a
677.9135	0.105	1355827	keystroke	i	n/a
678.0935	0.1355	1356187	keystroke	n	n/a
678.3035	0.0595	1356607	keystroke	f	n/a
678.468	0.12	1356936	keystroke	e	n/a
678.693	0.136	1357386	keystroke	c	n/a
678.979	0.1045	1357958	keystroke	t	n/a
679.098	0.121	1358196	keystroke	i	n/a
679.3535	0.0605	1358707	keystroke	o	n/a
679.5485	0.09	1359097	keystroke	n	n/a
679.7585	0.0595	1359517	keystroke	Key.enter	n/a
679.8245	7.5545	1359649	prompt	n/a	converter pumps finished subscribe\n
680.5235	0.15	1361047	keystroke	c	n/a
680.688	0.1055	1361376	keystroke	o	n/a
680.8685	0.135	1361737	keystroke	n	n/a
680.9885	0.075	1361977	keystroke	v	n/a
681.1685	0.1195	1362337	keystroke	e	n/a
681.3335	0.12	1362667	keystroke	r	n/a
681.5735	0.105	1363147	keystroke	t	n/a
681.7835	0.09	1363567	keystroke	e	n/a
681.9485	0.119	1363897	keystroke	r	n/a
682.0985	0.0895	1364197	keystroke	Key.space	n/a
682.3535	0.1345	1364707	keystroke	p	n/a
682.6385	0.09	1365277	keystroke	u	n/a
682.8785	0.1045	1365757	keystroke	m	n/a
683.088	0.105	1366176	keystroke	p	n/a
683.2835	0.1045	1366567	keystroke	s	n/a
683.463	0.0745	1366926	keystroke	Key.space	n/a
683.6725	0.1355	1367345	keystroke	f	n/a
683.823	0.1055	1367646	keystroke	i	n/a
684.0935	0.089	1368187	keystroke	n	n/a
