onset	duration	sample	value	key	prompt_text
10.4385	16.8405	20877	prompt	n/a	the quick brown fox jumps over a lazy dog\n
14.165	0.149	28330	keystroke	t	n/a
14.39	0.105	28780	keystroke	h	n/a
14.945	0.06	29890	keystroke	e	n/a
15.125	0.09	30250	keystroke	Key.space	n/a
15.395	0.12	30790	keystroke	q	n/a
15.485	0.075	30970	keystroke	u	n/a
15.635	0.075	31270	keystroke	i	n/a
15.755	0.09	31510	keystroke	c	n/a
15.875	0.075	31750	keystroke	k	n/a
16.01	0.09	32020	keystroke	Key.space	n/a
17.015	0.09	34030	keystroke	b	n/a
17.2395	0.105	34479	keystroke	r	n/a
17.3295	0.105	34659	keystroke	o	n/a
17.4495	0.12	34899	keystroke	w	n/a
17.5845	0.075	35169	keystroke	n	n/a
17.6895	0.09	35379	keystroke	Key.space	n/a
18.47	0.06	36940	keystroke	f	n/a
18.545	0.09	37090	keystroke	o	n/a
18.68	0.12	37360	keystroke	x	n/a
18.801	0.119	37602	keystroke	Key.space	n/a
19.2195	0.06	38439	keystroke	j	n/a
19.3995	0.045	38799	keystroke	i	n/a
19.5795	0.06	39159	keystroke	m	n/a
19.7295	0.075	39459	keystroke	p	n/a
19.8495	0.135	39699	keystroke	s	n/a
20.0145	0.045	40029	keystroke	Key.space	n/a
20.8695	0.06	41739	keystroke	Key.backspace	n/a
21.0495	0.075	42099	keystroke	Key.backspace	n/a
21.2295	0.075	42459	keystroke	Key.backspace	n/a
21.4095	0.09	42819	keystroke	Key.backspace	n/a
21.6045	0.09	43209	keystroke	Key.backspace	n/a
22.235	0.045	44470	keystroke	u	n/a
22.4	0.075	44800	keystroke	m	n/a
22.5805	0.1045	45161	keystroke	p	n/a
22.745	0.12	45490	keystroke	s	n/a
22.909	0.106	45818	keystroke	Key.space	n/a
23.66	0.105	47320	keystroke	o	n/a
23.766	0.104	47532	keystroke	v	n/a
23.855	0.195	47710	keystroke	e	n/a
23.99	0.105	47980	keystroke	r	n/a
24.08	0.105	48160	keystroke	Key.space	n/a
24.335	0.18	48670	keystroke	a	n/a
24.455	0.12	48910	keystroke	Key.space	n/a
24.68	0.1195	49360	keystroke	l	n/a
24.7695	0.105	49539	keystroke	a	n/a
24.995	0.09	49990	keystroke	z	n/a
25.865	0.06	51730	keystroke	y	n/a
26.015	0.105	52030	keystroke	Key.space	n/a
26.75	0.075	53500	keystroke	d	n/a
26.84	0.135	53680	keystroke	o	n/a
26.96	0.0905	53920	keystroke	g	n/a
27.1695	0.1055	54339	keystroke	Key.enter	n/a
27.286	10.5215	54572	prompt	n/a	clarity analysts posts essentially\n
28.0995	0.075	56199	keystroke	c	n/a
28.2045	0.12	56409	keystroke	l	n/a
28.3095	0.195	56619	keystroke	a	n/a
28.4895	0.105	56979	keystroke	r	n/a
28.6095	0.09	57219	keystroke	i	n/a
28.7595	0.09	57519	keystroke	t	n/a
28.8645	0.075	57729	keystroke	y	n/a
28.9845	0.09	57969	keystroke	Key.space	n/a
29.735	0.12	59470	keystroke	a	n/a
29.8695	0.09	59739	keystroke	n	n/a
30.0645	0.105	60129	keystroke	a	n/a
30.3945	0.0905	60789	keystroke	l	n/a
30.59	0.0455	61180	keystroke	y	n/a
31.7755	0.12	63551	keystroke	s	n/a
32.3455	0.075	64691	keystroke	t	n/a
32.7055	0.09	65411	keystroke	s	n/a
32.9745	0.09	65949	keystroke	Key.space	n/a
33.6955	0.075	67391	keystroke	p	n/a
33.8905	0.134	67781	keystroke	o	n/a
34.0105	0.165	68021	keystroke	s	n/a
34.1605	0.075	68321	keystroke	t	n/a
34.3105	0.135	68621	keystroke	s	n/a
34.4595	0.106	68919	keystroke	Key.space	n/a
35.2095	0.045	70419	keystroke	e	n/a
35.3905	0.075	70781	keystroke	s	n/a
35.5255	0.105	71051	keystroke	s	n/a
35.6155	0.105	71231	keystroke	e	n/a
35.7955	0.075	71591	keystroke	n	n/a
35.8855	0.089	71771	keystroke	t	n/a
36.0055	0.075	72011	keystroke	i	n/a
36.2005	0.12	72401	keystroke	a	n/a
36.3955	0.09	72791	keystroke	l	n/a
36.5605	0.075	73121	keystroke	l	n/a
36.8155	0.075	73631	keystroke	y	n/a
37.6995	0.105	75399	keystroke	Key.enter	n/a
37.811	10.8415	75622	prompt	n/a	biotechnology plan completing divx\n
38.5105	0.06	77021	keystroke	b	n/a
38.7055	0.06	77411	keystroke	i	n/a
38.8855	0.09	77771	keystroke	o	n/a
39.0655	0.09	78131	keystroke	t	n/a
39.1555	0.075	78311	keystroke	e	n/a
39.3805	0.12	78761	keystroke	c	n/a
39.4855	0.06	78971	keystroke	h	n/a
39.6805	0.075	79361	keystroke	n	n/a
39.7855	0.09	79571	keystroke	o	n/a
39.9655	0.075	79931	keystroke	l	n/a
40.1305	0.105	80261	keystroke	o	n/a
40.2655	0.105	80531	keystroke	d	n/a
40.4455	0.045	80891	keystroke	y	n/a
41.5695	0.06	83139	keystroke	Key.backspace	n/a
41.8255	0.044	83651	keystroke	Key.backspace	n/a
42.1105	0.105	84221	keystroke	g	n/a
42.2295	0.046	84459	keystroke	y	n/a
42.7105	0.074	85421	keystroke	Key.space	n/a
43.2505	0.075	86501	keystroke	p	n/a
43.4605	0.089	86921	keystroke	l	n/a
43.5655	0.135	87131	keystroke	a	n/a
43.7305	0.075	87461	keystroke	n	n/a
43.8655	0.104	87731	keystroke	Key.space	n/a
44.2255	0.12	88451	keystroke	c	n/a
44.3605	0.15	88721	keystroke	o	n/a
44.5705	0.105	89141	keystroke	m	n/a
44.8255	0.09	89651	keystroke	p	n/a
45.0355	0.105	90071	keystroke	l	n/a
45.4105	0.12	90821	keystroke	e	n/a
45.6955	0.06	91391	keystroke	t	n/a
45.8005	0.15	91601	keystroke	i	n/a
45.9055	0.09	91811	keystroke	n	n/a
45.9805	0.12	91961	keystroke	g	n/a
46.0855	0.12	92171	keystroke	Key.space	n/a
46.5055	0.09	93011	keystroke	d	n/a
46.6555	0.105	93311	keystroke	i	n/a
46.7905	0.105	93581	keystroke	v	n/a
46.9855	0.12	93971	keystroke	s	n/a
47.6755	0.12	95351	keystroke	Key.backspace	n/a
47.8405	0.09	95681	keystroke	x	n/a
48.5455	0.105	97091	keystroke	Key.enter	n/a
48.659	9.429	97318	prompt	n/a	referenced bios theatre decimal\n
49.9405	0.15	99881	keystroke	r	n/a
50.0455	0.12	100091	keystroke	e	n/a
50.3005	0.09	100601	keystroke	f	n/a
50.4805	0.09	100961	keystroke	e	n/a
50.9755	0.12	101951	keystroke	r	n/a
51.0655	0.105	102131	keystroke	e	n/a
51.2605	0.075	102521	keystroke	n	n/a
51.3805	0.06	102761	keystroke	c	n/a
51.5605	0.06	103121	keystroke	e	n/a
51.7555	0.09	103511	keystroke	d	n/a
51.8605	0.12	103721	keystroke	Key.space	n/a
52.1005	0.06	104201	keystroke	b	n/a
52.2355	0.075	104471	keystroke	i	n/a
52.4005	0.105	104801	keystroke	o	n/a
52.5205	0.15	105041	keystroke	s	n/a
52.6555	0.105	105311	keystroke	Key.space	n/a
52.9255	0.075	105851	keystroke	t	n/a
53.1055	0.075	106211	keystroke	h	n/a
53.5705	0.075	107141	keystroke	e	n/a
54.0505	0.195	108101	keystroke	a	n/a
54.2305	0.09	108461	keystroke	t	n/a
54.4255	0.135	108851	keystroke	r	n/a
54.5155	0.12	109031	keystroke	e	n/a
54.6805	0.105	109361	keystroke	Key.space	n/a
54.9355	0.075	109871	keystroke	d	n/a
55.1155	0.06	110231	keystroke	e	n/a
55.3105	0.105	110621	keystroke	c	n/a
55.4155	0.075	110831	keystroke	i	n/a
55.7155	0.09	111431	keystroke	m	n/a
55.8355	0.12	111671	keystroke	a	n/a
56.0455	0.06	112091	keystroke	;	n/a
56.8105	0.075	113621	keystroke	Key.backspace	n/a
57.1405	0.075	114281	keystroke	l	n/a
57.9955	0.09	115991	keystroke	Key.enter	n/a
58.0935	13.0895	116187	prompt	n/a	currency specify cameron melbourne\n
58.8955	0.105	117791	keystroke	c	n/a
59.3755	0.075	118751	keystroke	u	n/a
59.6005	0.06	119201	keystroke	r	n/a
59.7355	0.0895	119471	keystroke	r	n/a
59.795	0.105	119590	keystroke	e	n/a
59.915	0.075	119830	keystroke	n	n/a
60.02	0.045	120040	keystroke	t	n/a
60.2455	0.09	120491	keystroke	c	n/a
60.3505	0.0745	120701	keystroke	y	n/a
60.545	0.0905	121090	keystroke	Key.space	n/a
60.98	0.09	121960	keystroke	Key.backspace	n/a
61.175	0.075	122350	keystroke	Key.backspace	n/a
61.37	0.09	122740	keystroke	Key.backspace	n/a
61.595	0.06	123190	keystroke	Key.backspace	n/a
61.79	0.09	123580	keystroke	c	n/a
61.925	0.06	123850	keystroke	y	n/a
62.51	0.12	125020	keystroke	Key.space	n/a
62.855	0.135	125710	keystroke	s	n/a
63.005	0.105	126010	keystroke	p	n/a
63.17	0.045	126340	keystroke	e	n/a
63.8	0.06	127600	keystroke	c	n/a
63.89	0.09	127780	keystroke	i	n/a
65.18	0.105	130360	keystroke	f	n/a
65.27	0.075	130540	keystroke	y	n/a
65.495	0.075	130990	keystroke	Key.space	n/a
66.335	0.09	132670	keystroke	c	n/a
66.53	0.105	133060	keystroke	a	n/a
66.755	0.09	133510	keystroke	m	n/a
66.86	0.135	133720	keystroke	e	n/a
67.055	0.135	134110	keystroke	r	n/a
67.205	0.12	134410	keystroke	o	n/a
67.37	0.075	134740	keystroke	n	n/a
67.52	0.105	135040	keystroke	Key.space	n/a
69.095	0.09	138190	keystroke	m	n/a
69.23	0.09	138460	keystroke	e	n/a
69.35	0.105	138700	keystroke	l	n/a
69.65	0.06	139300	keystroke	b	n/a
69.785	0.15	139570	keystroke	o	n/a
69.92	0.075	139840	keystroke	u	n/a
70.07	0.105	140140	keystroke	r	n/a
70.25	0.075	140500	keystroke	n	n/a
70.355	0.075	140710	keystroke	e	n/a
71.06	0.12	142120	keystroke	Key.enter	n/a
71.188	14.4845	142376	prompt	n/a	bangladesh quantitative trusted supplemental\n
72.02	0.06	144040	keystroke	b	n/a
72.14	0.18	144280	keystroke	a	n/a
72.26	0.09	144520	keystroke	n	n/a
72.905	0.06	145810	keystroke	g	n/a
72.98	0.105	145960	keystroke	l	n/a
73.1	0.135	146200	keystroke	a	n/a
73.46	0.09	146920	keystroke	d	n/a
73.565	0.075	147130	keystroke	i	n/a
74.21	0.12	148420	keystroke	Key.backspace	n/a
74.36	0.06	148720	keystroke	e	n/a
74.555	0.12	149110	keystroke	s	n/a
74.66	0.06	149320	keystroke	h	n/a
74.84	0.105	149680	keystroke	Key.space	n/a
77.378	0.057	154756	keystroke	q	n/a
77.48	0.06	154960	keystroke	u	n/a
77.645	0.135	155290	keystroke	a	n/a
78.035	0.075	156070	keystroke	n	n/a
78.23	0.09	156460	keystroke	t	n/a
78.321	0.074	156642	keystroke	i	n/a
78.725	0.075	157450	keystroke	t	n/a
78.83	0.195	157660	keystroke	a	n/a
79.04	0.075	158080	keystroke	t	n/a
79.16	0.09	158320	keystroke	i	n/a
79.28	0.135	158560	keystroke	v	n/a
79.385	0.15	158770	keystroke	e	n/a
79.55	0.105	159100	keystroke	Key.space	n/a
80.42	0.06	160840	keystroke	t	n/a
80.615	0.075	161230	keystroke	r	n/a
80.691	0.059	161382	keystroke	u	n/a
80.825	0.135	161650	keystroke	s	n/a
80.93	0.105	161860	keystroke	e	n/a
81.8	0.105	163600	keystroke	Key.backspace	n/a
81.92	0.12	163840	keystroke	t	n/a
82.01	0.09	164020	keystroke	e	n/a
82.235	0.075	164470	keystroke	d	n/a
82.73	0.105	165460	keystroke	Key.space	n/a
83.6605	0.165	167321	keystroke	s	n/a
83.8855	0.075	167771	keystroke	u	n/a
84.1555	0.06	168311	keystroke	p	n/a
84.3055	0.045	168611	keystroke	p	n/a
84.4855	0.075	168971	keystroke	l	n/a
84.5905	0.075	169181	keystroke	e	n/a
84.7245	0.091	169449	keystroke	m	n/a
84.8455	0.09	169691	keystroke	e	n/a
84.9805	0.075	169961	keystroke	m	n/a
84.9955	0.045	169991	keystroke	n	n/a
85.0705	0.135	170141	keystroke	t	n/a
85.1905	0.135	170381	keystroke	a	n/a
85.3105	0.089	170621	keystroke	l	n/a
85.5805	0.09	171161	keystroke	Key.enter	n/a
85.6785	8.9935	171357	prompt	n/a	floppy mike tract military\n
86.5105	0.09	173021	keystroke	f	n/a
86.6155	0.075	173231	keystroke	l	n/a
86.8105	0.09	173621	keystroke	o	n/a
87.0505	0.075	174101	keystroke	p	n/a
87.2305	0.045	174461	keystroke	p	n/a
87.3655	0.045	174731	keystroke	p	n/a
88.1155	0.074	176231	keystroke	Key.backspace	n/a
88.4755	0.075	176951	keystroke	y	n/a
88.7305	0.09	177461	keystroke	Key.space	n/a
88.8805	0.075	177761	keystroke	m	n/a
89.0755	0.06	178151	keystroke	i	n/a
89.2555	0.09	178511	keystroke	k	n/a
89.3605	0.105	178721	keystroke	e	n/a
89.4655	0.075	178931	keystroke	Key.space	n/a
89.6455	0.06	179291	keystroke	t	n/a
89.8105	0.15	179621	keystroke	r	n/a
90.0205	0.06	180041	keystroke	Key.caps_lock	n/a
90.0355	0.09	180071	keystroke	a	n/a
90.9955	0.12	181991	keystroke	Key.caps_lock	n/a
91.1905	0.09	182381	keystroke	Key.backspace	n/a
91.4305	0.12	182861	keystroke	a	n/a
91.7155	0.09	183431	keystroke	c	n/a
91.9105	0.09	183821	keystroke	t	n/a
92.0455	0.075	184091	keystroke	Key.space	n/a
92.7805	0.06	185561	keystroke	m	n/a
92.9605	0.06	185921	keystroke	i	n/a
93.1255	0.09	186251	keystroke	l	n/a
93.2755	0.075	186551	keystroke	i	n/a
93.4105	0.135	186821	keystroke	t	n/a
93.8305	0.105	187661	keystroke	a	n/a
94.1755	0.105	188351	keystroke	r	n/a
94.2655	0.075	188531	keystroke	y	n/a
94.5805	0.09	189161	keystroke	Key.enter	n/a
94.6795	13.8975	189359	prompt	n/a	marble lisa zimbabwe drunk\n
95.3605	0.09	190721	keystroke	m	n/a
95.5405	0.105	191081	keystroke	a	n/a
95.6755	0.105	191351	keystroke	r	n/a
95.8705	0.06	191741	keystroke	b	n/a
95.8855	0.03	191771	keystroke	n	n/a
96.0355	0.09	192071	keystroke	l	n/a
96.1705	0.105	192341	keystroke	e	n/a
96.3505	0.105	192701	keystroke	Key.space	n/a
96.7405	0.075	193481	keystroke	Key.backspace	n/a
96.9355	0.09	193871	keystroke	Key.backspace	n/a
97.1305	0.075	194261	keystroke	Key.backspace	n/a
98.0905	0.09	196181	keystroke	Key.backspace	n/a
99.1105	0.105	198221	keystroke	l	n/a
99.2905	0.075	198581	keystroke	e	n/a
99.7855	0.12	199571	keystroke	Key.space	n/a
100.235	0.0905	200470	keystroke	l	n/a
100.415	0.075	200830	keystroke	i	n/a
100.715	0.0905	201430	keystroke	s	n/a
100.8505	0.1345	201701	keystroke	a	n/a
101.0605	0.1045	202121	keystroke	Key.space	n/a
101.3755	0.1045	202751	keystroke	z	n/a
101.75	0.09	203500	keystroke	i	n/a
101.945	0.09	203890	keystroke	m	n/a
103.7	0.075	207400	keystroke	b	n/a
103.835	0.15	207670	keystroke	a	n/a
104.09	0.075	208180	keystroke	b	n/a
104.57	0.105	209140	keystroke	w	n/a
104.78	0.105	209560	keystroke	e	n/a
106.655	0.075	213310	keystroke	Key.space	n/a
106.865	0.09	213730	keystroke	d	n/a
107.69	0.09	215380	keystroke	r	n/a
107.795	0.045	215590	keystroke	u	n/a
107.975	0.06	215950	keystroke	n	n/a
108.155	0.075	216310	keystroke	k	n/a
108.515	0.06	217030	keystroke	Key.enter	n/a
108.582	6.6845	217164	prompt	n/a	corruption patches specials fiji\n
109.31	0.09	218620	keystroke	c	n/a
109.43	0.12	218860	keystroke	o	n/a
109.685	0.075	219370	keystroke	r	n/a
109.85	0.075	219700	keystroke	r	n/a
110.135	0.06	220270	keystroke	u	n/a
110.33	0.09	220660	keystroke	p	n/a
110.66	0.09	221320	keystroke	t	n/a
110.765	0.09	221530	keystroke	i	n/a
110.915	0.18	221830	keystroke	o	n/a
111.05	0.09	222100	keystroke	n	n/a
111.141	0.119	222282	keystroke	Key.space	n/a
111.35	0.105	222700	keystroke	p	n/a
111.456	0.164	222912	keystroke	a	n/a
111.621	0.089	223242	keystroke	t	n/a
111.875	0.105	223750	keystroke	c	n/a
111.965	0.06	223930	keystroke	h	n/a
112.085	0.075	224170	keystroke	e	n/a
112.28	0.15	224560	keystroke	s	n/a
112.415	0.105	224830	keystroke	Key.space	n/a
112.805	0.135	225610	keystroke	s	n/a
112.955	0.12	225910	keystroke	p	n/a
113.09	0.06	226180	keystroke	e	n/a
113.33	0.09	226660	keystroke	c	n/a
113.435	0.075	226870	keystroke	i	n/a
113.75	0.12	227500	keystroke	a	n/a
113.885	0.105	227770	keystroke	l	n/a
114.02	0.105	228040	keystroke	s	n/a
114.185	0.12	228370	keystroke	Key.space	n/a
114.59	0.09	229180	keystroke	f	n/a
114.695	0.09	229390	keystroke	i	n/a
114.875	0.075	229750	keystroke	j	n/a
114.995	0.09	229990	keystroke	i	n/a
115.19	0.075	230380	keystroke	Key.enter	n/a
115.271	5.4405	230542	prompt	n/a	madonna dive uses chrome\n
116.015	0.09	232030	keystroke	m	n/a
116.165	0.12	232330	keystroke	a	n/a
116.585	0.075	233170	keystroke	d	n/a
116.72	0.105	233440	keystroke	o	n/a
116.96	0.06	233920	keystroke	n	n/a
117.095	0.09	234190	keystroke	n	n/a
117.23	0.15	234460	keystroke	a	n/a
117.56	0.12	235120	keystroke	Key.space	n/a
117.845	0.075	235690	keystroke	d	n/a
118.085	0.09	236170	keystroke	i	n/a
118.22	0.075	236440	keystroke	v	n/a
118.43	0.105	236860	keystroke	e	n/a
118.565	0.135	237130	keystroke	Key.space	n/a
118.805	0.075	237610	keystroke	u	n/a
118.94	0.18	237880	keystroke	s	n/a
119.075	0.105	238150	keystroke	e	n/a
119.285	0.15	238570	keystroke	s	n/a
119.42	0.105	238840	keystroke	Key.space	n/a
119.78	0.12	239560	keystroke	c	n/a
119.885	0.09	239770	keystroke	h	n/a
120.08	0.105	240160	keystroke	r	n/a
120.17	0.09	240340	keystroke	o	n/a
120.32	0.09	240640	keystroke	m	n/a
120.455	0.075	240910	keystroke	e	n/a
120.605	0.105	241210	keystroke	Key.enter	n/a
120.7155	11.442	241431	prompt	n/a	invited forums dinner manual\n
121.535	0.09	243070	keystroke	i	n/a
121.67	0.075	243340	keystroke	n	n/a
122.12	0.105	244240	keystroke	t	n/a
122.21	0.105	244420	keystroke	i	n/a
123.9345	0.06	247869	keystroke	\	n/a
124.175	0.0895	248350	keystroke	]	n/a
125.0595	0.105	250119	keystroke	Key.backspace	n/a
125.2845	0.105	250569	keystroke	Key.backspace	n/a
125.57	0.0895	251140	keystroke	Key.backspace	n/a
126.8745	0.0755	253749	keystroke	Key.backspace	n/a
127.4295	0.075	254859	keystroke	v	n/a
127.5345	0.105	255069	keystroke	i	n/a
127.6545	0.15	255309	keystroke	t	n/a
127.7595	0.105	255519	keystroke	e	n/a
128.0595	0.12	256119	keystroke	d	n/a
128.1645	0.12	256329	keystroke	Key.space	n/a
128.5395	0.0905	257079	keystroke	f	n/a
128.6605	0.119	257321	keystroke	o	n/a
128.8995	0.12	257799	keystroke	r	n/a
129.0345	0.06	258069	keystroke	u	n/a
129.2295	0.09	258459	keystroke	m	n/a
129.3045	0.135	258609	keystroke	s	n/a
129.4545	0.105	258909	keystroke	Key.space	n/a
129.8295	0.12	259659	keystroke	d	n/a
129.9195	0.075	259839	keystroke	i	n/a
130.1145	0.06	260229	keystroke	n	n/a
130.2345	0.06	260469	keystroke	n	n/a
130.3695	0.225	260739	keystroke	e	n/a
130.4445	0.12	260889	keystroke	r	n/a
130.5655	0.104	261131	keystroke	Key.space	n/a
131.0895	0.061	262179	keystroke	m	n/a
131.1945	0.135	262389	keystroke	a	n/a
131.2695	0.045	262539	keystroke	n	n/a
131.4345	0.045	262869	keystroke	u	n/a
131.6145	0.135	263229	keystroke	a	n/a
131.7045	0.075	263409	keystroke	l	n/a
132.0495	0.105	264099	keystroke	Key.enter	n/a
132.1635	7.779	264327	prompt	n/a	chaos casa purchasing accessed\n
132.8305	0.044	265661	keystroke	d	n/a
133.5945	0.09	267189	keystroke	Key.backspace	n/a
133.8495	0.075	267699	keystroke	c	n/a
133.9395	0.075	267879	keystroke	h	n/a
134.0745	0.09	268149	keystroke	a	n/a
134.6745	0.12	269349	keystroke	o	n/a
134.8095	0.105	269619	keystroke	s	n/a
134.9595	0.105	269919	keystroke	Key.space	n/a
135.3345	0.09	270669	keystroke	c	n/a
135.4695	0.105	270939	keystroke	a	n/a
135.6505	0.21	271301	keystroke	s	n/a
135.8745	0.165	271749	keystroke	a	n/a
136.0995	0.105	272199	keystroke	Key.space	n/a
136.3395	0.12	272679	keystroke	p	n/a
136.4745	0.091	272949	keystroke	u	n/a
136.5795	0.09	273159	keystroke	r	n/a
137.1345	0.12	274269	keystroke	c	n/a
137.2095	0.09	274419	keystroke	h	n/a
137.3745	0.135	274749	keystroke	a	n/a
137.6445	0.12	275289	keystroke	s	n/a
137.7045	0.135	275409	keystroke	i	n/a
137.8095	0.09	275619	keystroke	n	n/a
137.8845	0.106	275769	keystroke	g	n/a
137.9745	0.075	275949	keystroke	Key.space	n/a
138.1855	0.089	276371	keystroke	a	n/a
138.4695	0.075	276939	keystroke	c	n/a
138.6195	0.075	277239	keystroke	c	n/a
138.8145	0.075	277629	keystroke	e	n/a
139.0555	0.06	278111	keystroke	s	n/a
139.1745	0.12	278349	keystroke	s	n/a
139.4305	0.059	278861	keystroke	e	n/a
139.6095	0.075	279219	keystroke	d	n/a
139.8645	0.075	279729	keystroke	Key.enter	n/a
139.947	9.639	279894	prompt	n/a	instruments finish seats tension\n
140.5405	0.075	281081	keystroke	i	n/a
140.6905	0.09	281381	keystroke	n	n/a
140.7645	0.151	281529	keystroke	s	n/a
140.9445	0.075	281889	keystroke	t	n/a
141.1395	0.12	282279	keystroke	r	n/a
141.1845	0.06	282369	keystroke	u	n/a
141.4095	0.09	282819	keystroke	m	n/a
141.4855	0.15	282971	keystroke	e	n/a
141.6955	0.104	283391	keystroke	t	n/a
142.2495	0.105	284499	keystroke	n	n/a
142.7145	0.15	285429	keystroke	Key.backspace	n/a
143.4945	0.105	286989	keystroke	Key.backspace	n/a
143.9305	0.104	287861	keystroke	n	n/a
144.0645	0.076	288129	keystroke	t	n/a
144.2605	0.089	288521	keystroke	s	n/a
144.3795	0.12	288759	keystroke	Key.space	n/a
145.0695	0.105	290139	keystroke	f	n/a
145.1595	0.075	290319	keystroke	i	n/a
145.3395	0.075	290679	keystroke	n	n/a
145.4295	0.09	290859	keystroke	i	n/a
145.52	0.149	291040	keystroke	s	n/a
145.6245	0.0595	291249	keystroke	h	n/a
145.789	0.1055	291578	keystroke	Key.space	n/a
146.269	0.105	292538	keystroke	s	n/a
146.419	0.075	292838	keystroke	e	n/a
146.539	0.1355	293078	keystroke	a	n/a
147.319	0.09	294638	keystroke	t	n/a
147.4695	0.1195	294939	keystroke	s	n/a
147.709	0.12	295418	keystroke	Key.space	n/a
148.279	0.105	296558	keystroke	t	n/a
148.354	0.12	296708	keystroke	e	n/a
148.504	0.09	297008	keystroke	n	n/a
148.639	0.135	297278	keystroke	s	n/a
148.729	0.075	297458	keystroke	i	n/a
148.834	0.18	297668	keystroke	o	n/a
148.939	0.09	297878	keystroke	n	n/a
149.479	0.105	298958	keystroke	Key.enter	n/a
149.59	6.3115	299180	prompt	n/a	trains exact square helpful\n
150.499	0.06	300998	keystroke	t	n/a
150.724	0.09	301448	keystroke	r	n/a
150.784	0.15	301568	keystroke	a	n/a
150.919	0.135	301838	keystroke	i	n/a
151.024	0.06	302048	keystroke	n	n/a
151.085	0.149	302170	keystroke	s	n/a
151.264	0.135	302528	keystroke	Key.space	n/a
151.489	0.06	302978	keystroke	e	n/a
151.714	0.091	303428	keystroke	x	n/a
151.924	0.09	303848	keystroke	a	n/a
152.149	0.12	304298	keystroke	c	n/a
152.33	0.089	304660	keystroke	t	n/a
152.434	0.105	304868	keystroke	Key.space	n/a
152.689	0.075	305378	keystroke	s	n/a
152.929	0.135	305858	keystroke	q	n/a
153.019	0.076	306038	keystroke	u	n/a
153.334	0.165	306668	keystroke	a	n/a
153.484	0.135	306968	keystroke	r	n/a
153.559	0.12	307118	keystroke	e	n/a
153.709	0.075	307418	keystroke	Key.space	n/a
154.234	0.045	308468	keystroke	h	n/a
154.294	0.105	308588	keystroke	e	n/a
154.384	0.09	308768	keystroke	l	n/a
154.639	0.135	309278	keystroke	p	n/a
154.999	0.135	309998	keystroke	f	n/a
155.104	0.061	310208	keystroke	u	n/a
155.254	0.15	310508	keystroke	l	n/a
155.779	0.12	311558	keystroke	Key.enter	n/a
155.906	5.5755	311812	prompt	n/a	temple movement email echo\n
156.649	0.075	313298	keystroke	t	n/a
156.739	0.12	313478	keystroke	e	n/a
156.86	0.104	313720	keystroke	m	n/a
157.129	0.015	314258	keystroke	p	n/a
157.219	0.12	314438	keystroke	l	n/a
157.295	0.089	314590	keystroke	e	n/a
157.399	0.12	314798	keystroke	Key.space	n/a
157.564	0.09	315128	keystroke	m	n/a
157.669	0.121	315338	keystroke	o	n/a
157.774	0.106	315548	keystroke	v	n/a
157.849	0.106	315698	keystroke	e	n/a
157.999	0.09	315998	keystroke	m	n/a
158.419	0.105	316838	keystroke	e	n/a
158.509	0.09	317018	keystroke	n	n/a
158.614	0.075	317228	keystroke	t	n/a
158.704	0.105	317408	keystroke	Key.space	n/a
158.96	0.074	317920	keystroke	e	n/a
159.124	0.075	318248	keystroke	m	n/a
159.214	0.12	318428	keystroke	a	n/a
159.319	0.06	318638	keystroke	i	n/a
159.455	0.104	318910	keystroke	l	n/a
159.739	0.105	319478	keystroke	Key.space	n/a
160.339	0.075	320678	keystroke	e	n/a
160.579	0.09	321158	keystroke	c	n/a
160.639	0.06	321278	keystroke	h	n/a
160.714	0.135	321428	keystroke	o	n/a
161.374	0.105	322748	keystroke	Key.enter	n/a
161.4865	9.25	322973	prompt	n/a	somalia soviet flights alloy\n
162.245	0.134	324490	keystroke	s	n/a
162.349	0.09	324698	keystroke	o	n/a
162.53	0.074	325060	keystroke	m	n/a
162.724	0.09	325448	keystroke	a	n/a
162.844	0.091	325688	keystroke	l	n/a
162.979	0.105	325958	keystroke	i	n/a
163.144	0.135	326288	keystroke	a	n/a
163.309	0.09	326618	keystroke	Key.space	n/a
163.654	0.105	327308	keystroke	s	n/a
163.744	0.105	327488	keystroke	o	n/a
164.015	0.075	328030	keystroke	v	n/a
164.104	0.106	328208	keystroke	i	n/a
164.224	0.12	328448	keystroke	e	n/a
164.329	0.075	328658	keystroke	t	n/a
164.524	0.105	329048	keystroke	Key.space	n/a
165.484	0.12	330968	keystroke	f	n/a
165.574	0.075	331148	keystroke	i	n/a
167.089	0.12	334178	keystroke	Key.backspace	n/a
168.11	0.104	336220	keystroke	l	n/a
168.319	0.09	336638	keystroke	i	n/a
168.574	0.061	337148	keystroke	g	n/a
168.649	0.091	337298	keystroke	h	n/a
168.755	0.059	337510	keystroke	t	n/a
168.859	0.18	337718	keystroke	s	n/a
169.009	0.105	338018	keystroke	Key.space	n/a
169.399	0.15	338798	keystroke	a	n/a
169.565	0.089	339130	keystroke	l	n/a
169.714	0.076	339428	keystroke	l	n/a
169.909	0.06	339818	keystroke	o	n/a
170.12	0.089	340240	keystroke	y	n/a
170.644	0.09	341288	keystroke	Key.enter	n/a
170.741	5.4555	341482	prompt	n/a	rapids batteries last stem\n
171.424	0.165	342848	keystroke	r	n/a
171.575	0.149	343150	keystroke	a	n/a
171.739	0.091	343478	keystroke	p	n/a
171.949	0.075	343898	keystroke	i	n/a
172.174	0.091	344348	keystroke	d	n/a
172.355	0.149	344710	keystroke	s	n/a
172.489	0.105	344978	keystroke	Key.space	n/a
172.76	0.059	345520	keystroke	b	n/a
172.835	0.15	345670	keystroke	a	n/a
173.044	0.076	346088	keystroke	t	n/a
173.18	0.06	346360	keystroke	t	n/a
173.36	0.149	346720	keystroke	e	n/a
173.615	0.089	347230	keystroke	r	n/a
173.75	0.09	347500	keystroke	i	n/a
173.87	0.09	347740	keystroke	e	n/a
174.079	0.136	348158	keystroke	s	n/a
174.215	0.119	348430	keystroke	Key.space	n/a
174.455	0.135	348910	keystroke	l	n/a
174.575	0.135	349150	keystroke	a	n/a
174.755	0.164	349510	keystroke	s	n/a
174.98	0.105	349960	keystroke	t	n/a
175.115	0.105	350230	keystroke	Key.space	n/a
175.52	0.089	351040	keystroke	s	n/a
175.685	0.105	351370	keystroke	t	n/a
175.745	0.15	351490	keystroke	e	n/a
175.909	0.105	351818	keystroke	m	n/a
176.105	0.089	352210	keystroke	Key.enter	n/a
176.2005	7.196	352401	prompt	n/a	contribute delhi bonds dial\n
176.869	0.105	353738	keystroke	c	n/a
177.215	0.09	354430	keystroke	o	n/a
177.35	0.09	354700	keystroke	n	n/a
177.484	0.105	354968	keystroke	t	n/a
177.769	0.106	355538	keystroke	r	n/a
177.844	0.075	355688	keystroke	i	n/a
178.04	0.06	356080	keystroke	b	n/a
178.25	0.059	356500	keystroke	u	n/a
178.385	0.12	356770	keystroke	t	n/a
178.475	0.135	356950	keystroke	e	n/a
178.625	0.105	357250	keystroke	Key.space	n/a
179.09	0.06	358180	keystroke	d	n/a
179.284	0.076	358568	keystroke	e	n/a
179.51	0.089	359020	keystroke	l	n/a
179.734	0.046	359468	keystroke	h	n/a
179.885	0.09	359770	keystroke	i	n/a
180.094	0.12	360188	keystroke	Key.space	n/a
180.245	0.06	360490	keystroke	b	n/a
180.365	0.12	360730	keystroke	o	n/a
180.665	0.075	361330	keystroke	n	n/a
180.815	0.075	361630	keystroke	d	n/a
180.965	0.135	361930	keystroke	s	n/a
181.16	0.09	362320	keystroke	Key.space	n/a
182.045	0.105	364090	keystroke	d	n/a
182.21	0.075	364420	keystroke	i	n/a
182.33	0.12	364660	keystroke	a	n/a
182.465	0.09	364930	keystroke	l	n/a
183.305	0.09	366610	keystroke	Key.enter	n/a
183.405	10.7175	366810	prompt	n/a	kidney louisiana contribution starting\n
184.085	0.045	368170	keystroke	k	n/a
184.265	0.06	368530	keystroke	i	n/a
184.3995	0.09	368799	keystroke	d	n/a
184.564	0.0755	369128	keystroke	n	n/a
184.655	0.0745	369310	keystroke	e	n/a
184.9095	0.075	369819	keystroke	y	n/a
185.195	0.1345	370390	keystroke	Key.space	n/a
185.4945	0.09	370989	keystroke	l	n/a
185.8245	0.105	371649	keystroke	o	n/a
185.9595	0.09	371919	keystroke	u	n/a
186.1995	0.06	372399	keystroke	i	n/a
186.4545	0.135	372909	keystroke	s	n/a
186.5745	0.06	373149	keystroke	i	n/a
186.7845	0.135	373569	keystroke	a	n/a
186.9045	0.075	373809	keystroke	n	n/a
187.0995	0.165	374199	keystroke	a	n/a
187.2945	0.105	374589	keystroke	Key.space	n/a
187.5195	0.12	375039	keystroke	c	n/a
187.5945	0.135	375189	keystroke	o	n/a
187.9095	0.105	375819	keystroke	n	n/a
190.1625	0.001	380325	keystroke	t	n/a
190.2795	0.09	380559	keystroke	r	n/a
190.3705	0.059	380741	keystroke	i	n/a
190.5645	0.06	381129	keystroke	b	n/a
190.7745	0.06	381549	keystroke	u	n/a
190.9245	0.12	381849	keystroke	t	n/a
191.0145	0.06	382029	keystroke	i	n/a
191.1495	0.12	382299	keystroke	o	n/a
191.2395	0.09	382479	keystroke	n	n/a
191.3445	0.12	382689	keystroke	Key.space	n/a
191.5995	0.12	383199	keystroke	s	n/a
191.7795	0.105	383559	keystroke	t	n/a
191.9295	0.21	383859	keystroke	a	n/a
192.1245	0.09	384249	keystroke	t	n/a
193.0395	0.12	386079	keystroke	Key.backspace	n/a
193.1745	0.075	386349	keystroke	r	n/a
193.3695	0.075	386739	keystroke	t	n/a
193.4895	0.15	386979	keystroke	i	n/a
193.5795	0.135	387159	keystroke	n	n/a
193.6845	0.09	387369	keystroke	g	n/a
194.0445	0.075	388089	keystroke	Key.enter	n/a
194.1265	12.521	388253	prompt	n/a	measure legal timeline evaluate\n
194.7945	0.075	389589	keystroke	m	n/a
194.9145	0.105	389829	keystroke	e	n/a
195.0945	0.12	390189	keystroke	a	n/a
195.289	0.15	390578	keystroke	s	n/a
195.394	0.075	390788	keystroke	u	n/a
195.544	0.18	391088	keystroke	r	n/a
195.665	0.149	391330	keystroke	e	n/a
195.829	0.12	391658	keystroke	Key.space	n/a
196.339	0.136	392678	keystroke	l	n/a
196.444	0.075	392888	keystroke	e	n/a
196.669	0.09	393338	keystroke	g	n/a
196.684	0.06	393368	keystroke	f	n/a
196.789	0.105	393578	keystroke	a	n/a
196.924	0.09	393848	keystroke	l	n/a
197.059	0.105	394118	keystroke	Key.space	n/a
197.359	0.075	394718	keystroke	t	n/a
197.449	0.076	394898	keystroke	i	n/a
197.614	0.075	395228	keystroke	m	n/a
197.764	0.09	395528	keystroke	e	n/a
197.914	0.075	395828	keystroke	l	n/a
198.529	0.105	397058	keystroke	Key.backspace	n/a
198.769	0.105	397538	keystroke	Key.backspace	n/a
199.009	0.1055	398018	keystroke	Key.backspace	n/a
199.234	0.105	398468	keystroke	Key.backspace	n/a
199.504	0.105	399008	keystroke	Key.backspace	n/a
199.759	0.105	399518	keystroke	Key.backspace	n/a
200.029	0.105	400058	keystroke	Key.backspace	n/a
200.359	0.12	400718	keystroke	Key.backspace	n/a
200.674	0.09	401348	keystroke	Key.backspace	n/a
201.169	0.135	402338	keystroke	a	n/a
201.964	0.105	403928	keystroke	l	n/a
202.684	0.105	405368	keystroke	Key.space	n/a
203	0.089	406000	keystroke	t	n/a
203.15	0.089	406300	keystroke	i	n/a
203.284	0.09	406568	keystroke	m	n/a
203.449	0.105	406898	keystroke	e	n/a
203.824	0.075	407648	keystroke	l	n/a
203.974	0.075	407948	keystroke	i	n/a
204.109	0.09	408218	keystroke	n	n/a
204.229	0.091	408458	keystroke	e	n/a
204.499	0.09	408998	keystroke	Key.space	n/a
204.904	0.075	409808	keystroke	e	n/a
205.175	0.134	410350	keystroke	v	n/a
205.325	0.149	410650	keystroke	a	n/a
205.489	0.09	410978	keystroke	l	n/a
205.639	0.075	411278	keystroke	u	n/a
205.879	0.15	411758	keystroke	a	n/a
206.059	0.18	412118	keystroke	t	n/a
206.254	0.12	412508	keystroke	e	n/a
206.554	0.09	413108	keystroke	Key.enter	n/a
206.653	7.493	413306	prompt	n/a	terms consultant sociology regulated\n
207.365	0.074	414730	keystroke	t	n/a
207.559	0.18	415118	keystroke	e	n/a
207.709	0.106	415418	keystroke	r	n/a
207.904	0.075	415808	keystroke	m	n/a
208.039	0.135	416078	keystroke	s	n/a
208.189	0.105	416378	keystroke	Key.space	n/a
208.459	0.12	416918	keystroke	c	n/a
208.519	0.12	417038	keystroke	o	n/a
208.595	0.089	417190	keystroke	n	n/a
208.744	0.135	417488	keystroke	s	n/a
208.909	0.045	417818	keystroke	u	n/a
209.059	0.12	418118	keystroke	l	n/a
209.164	0.12	418328	keystroke	t	n/a
209.3	0.209	418600	keystroke	a	n/a
209.494	0.09	418988	keystroke	n	n/a
209.614	0.106	419228	keystroke	t	n/a
209.824	0.105	419648	keystroke	Key.space	n/a
210.469	0.12	420938	keystroke	s	n/a
210.619	0.09	421238	keystroke	o	n/a
210.769	0.09	421538	keystroke	c	n/a
210.874	0.076	421748	keystroke	i	n/a
211.174	0.075	422348	keystroke	o	n/a
211.384	0.075	422768	keystroke	l	n/a
211.564	0.075	423128	keystroke	o	n/a
211.699	0.105	423398	keystroke	g	n/a
211.819	0.06	423638	keystroke	y	n/a
211.939	0.09	423878	keystroke	Key.space	n/a
212.194	0.135	424388	keystroke	r	n/a
212.284	0.09	424568	keystroke	e	n/a
212.555	0.105	425110	keystroke	g	n/a
212.794	0.06	425588	keystroke	u	n/a
213.034	0.105	426068	keystroke	l	n/a
213.124	0.15	426248	keystroke	a	n/a
213.319	0.136	426638	keystroke	t	n/a
213.409	0.105	426818	keystroke	e	n/a
213.649	0.091	427298	keystroke	d	n/a
214.069	0.075	428138	keystroke	Key.enter	n/a
214.151	6.7005	428302	prompt	n/a	knitting footwear keeps what're\n
214.91	0.074	429820	keystroke	k	n/a
215.119	0.061	430238	keystroke	n	n/a
215.285	0.089	430570	keystroke	i	n/a
215.48	0.059	430960	keystroke	t	n/a
215.599	0.075	431198	keystroke	t	n/a
215.735	0.165	431470	keystroke	i	n/a
215.84	0.089	431680	keystroke	n	n/a
215.959	0.181	431918	keystroke	g	n/a
216.124	0.105	432248	keystroke	Key.space	n/a
216.38	0.104	432760	keystroke	f	n/a
216.559	0.076	433118	keystroke	o	n/a
216.725	0.089	433450	keystroke	o	n/a
216.875	0.135	433750	keystroke	t	n/a
217.325	0.09	434650	keystroke	w	n/a
217.505	0.12	435010	keystroke	e	n/a
217.669	0.211	435338	keystroke	a	n/a
217.835	0.15	435670	keystroke	r	n/a
218.194	0.075	436388	keystroke	Key.space	n/a
218.435	0.089	436870	keystroke	k	n/a
218.57	0.075	437140	keystroke	e	n/a
218.735	0.075	437470	keystroke	e	n/a
218.81	0.089	437620	keystroke	p	n/a
218.944	0.136	437888	keystroke	s	n/a
219.094	0.12	438188	keystroke	Key.space	n/a
219.38	0.089	438760	keystroke	w	n/a
219.455	0.09	438910	keystroke	h	n/a
219.59	0.18	439180	keystroke	a	n/a
219.725	0.119	439450	keystroke	t	n/a
220.205	0.104	440410	keystroke	'	n/a
220.355	0.135	440710	keystroke	r	n/a
220.445	0.09	440890	keystroke	e	n/a
220.774	0.076	441548	keystroke	Key.enter	n/a
220.8585	9.503	441717	prompt	n/a	barbie displaying tomorrow appreciated\n
221.84	0.0735	443680	keystroke	b	n/a
222.0485	0.136	444097	keystroke	a	n/a
222.155	0.09	444310	keystroke	r	n/a
222.4095	0.074	444819	keystroke	b	n/a
222.545	0.1185	445090	keystroke	i	n/a
222.6945	0.089	445389	keystroke	e	n/a
222.8285	0.1055	445657	keystroke	Key.space	n/a
223.0995	0.1055	446199	keystroke	d	n/a
223.2195	0.089	446439	keystroke	i	n/a
223.34	0.104	446680	keystroke	s	n/a
223.7745	0.09	447549	keystroke	p	n/a
224.0295	0.089	448059	keystroke	l	n/a
224.1795	0.15	448359	keystroke	a	n/a
224.3135	0.061	448627	keystroke	y	n/a
224.8845	0.1505	449769	keystroke	i	n/a
224.9895	0.09	449979	keystroke	n	n/a
225.0945	0.18	450189	keystroke	g	n/a
225.2895	0.135	450579	keystroke	Key.space	n/a
225.9335	0.091	451867	keystroke	t	n/a
226.0685	0.151	452137	keystroke	o	n/a
226.2345	0.09	452469	keystroke	m	n/a
226.3545	0.135	452709	keystroke	o	n/a
226.5185	0.06	453037	keystroke	r	n/a
226.6395	0.075	453279	keystroke	r	n/a
226.7595	0.135	453519	keystroke	o	n/a
226.8795	0.104	453759	keystroke	w	n/a
227.1635	0.09	454327	keystroke	Key.space	n/a
227.8095	0.12	455619	keystroke	a	n/a
228.2145	0.075	456429	keystroke	p	n/a
228.4095	0.059	456819	keystroke	p	n/a
228.6795	0.165	457359	keystroke	r	n/a
228.7845	0.104	457569	keystroke	e	n/a
229.0695	0.105	458139	keystroke	c	n/a
229.2345	0.105	458469	keystroke	i	n/a
229.3695	0.255	458739	keystroke	a	n/a
229.5345	0.225	459069	keystroke	t	n/a
229.7295	0.135	459459	keystroke	e	n/a
229.9995	0.09	459999	keystroke	d	n/a
230.2545	0.105	460509	keystroke	Key.enter	n/a
230.367	7.6	460734	prompt	n/a	segments alive danger retention\n
231.0195	0.075	462039	keystroke	s	n/a
231.4545	0.075	462909	keystroke	e	n/a
231.7395	0.075	463479	keystroke	g	n/a
232.0695	0.06	464139	keystroke	m	n/a
232.1745	0.135	464349	keystroke	e	n/a
232.2945	0.09	464589	keystroke	n	n/a
232.3845	0.12	464769	keystroke	t	n/a
232.5945	0.21	465189	keystroke	s	n/a
232.7745	0.135	465549	keystroke	Key.space	n/a
233.1045	0.135	466209	keystroke	a	n/a
233.2695	0.105	466539	keystroke	l	n/a
233.3895	0.12	466779	keystroke	i	n/a
233.4945	0.135	466989	keystroke	v	n/a
233.5995	0.165	467199	keystroke	e	n/a
233.6895	0.105	467379	keystroke	Key.space	n/a
233.9595	0.12	467919	keystroke	d	n/a
234.0645	0.12	468129	keystroke	a	n/a
234.1695	0.12	468339	keystroke	n	n/a
234.3045	0.075	468609	keystroke	g	n/a
234.3495	0.165	468699	keystroke	e	n/a
234.5445	0.135	469089	keystroke	r	n/a
234.7095	0.105	469419	keystroke	Key.space	n/a
235.0395	0.135	470079	keystroke	r	n/a
235.1595	0.09	470319	keystroke	e	n/a
235.3695	0.105	470739	keystroke	t	n/a
235.4595	0.12	470919	keystroke	e	n/a
235.6095	0.105	471219	keystroke	n	n/a
235.7445	0.105	471489	keystroke	t	n/a
235.8795	0.09	471759	keystroke	i	n/a
235.9845	0.3	471969	keystroke	o	n/a
236.1195	0.105	472239	keystroke	n	n/a
237.8295	0.135	475659	keystroke	Key.enter	n/a
237.972	8.8745	475944	prompt	n/a	routing draft hypothesis whole\n
238.8645	0.12	477729	keystroke	r	n/a
238.9395	0.09	477879	keystroke	e	n/a
239.5095	0.09	479019	keystroke	o	n/a
240.1545	0.09	480309	keystroke	Key.backspace	n/a
240.3945	0.09	480789	keystroke	Key.backspace	n/a
240.6045	0.075	481209	keystroke	Key.backspace	n/a
241.1595	0.15	482319	keystroke	r	n/a
241.3695	0.135	482739	keystroke	o	n/a
241.4895	0.09	482979	keystroke	u	n/a
241.6545	0.09	483309	keystroke	t	n/a
241.7595	0.15	483519	keystroke	i	n/a
241.8345	0.105	483669	keystroke	n	n/a
241.9845	0.15	483969	keystroke	g	n/a
242.1645	0.12	484329	keystroke	Key.space	n/a
242.8245	0.075	485649	keystroke	d	n/a
243.0045	0.135	486009	keystroke	r	n/a
243.1245	0.135	486249	keystroke	a	n/a
243.3045	0.075	486609	keystroke	f	n/a
243.4845	0.075	486969	keystroke	t	n/a
243.6045	0.09	487209	keystroke	Key.space	n/a
243.8745	0.075	487749	keystroke	h	n/a
244.0995	0.06	488199	keystroke	y	n/a
244.3545	0.12	488709	keystroke	p	n/a
244.5795	0.075	489159	keystroke	o	n/a
244.9245	0.105	489849	keystroke	t	n/a
245.0595	0.045	490119	keystroke	h	n/a
245.1495	0.075	490299	keystroke	e	n/a
245.3595	0.105	490719	keystroke	s	n/a
245.4795	0.075	490959	keystroke	i	n/a
245.5695	0.105	491139	keystroke	s	n/a
245.7045	0.12	491409	keystroke	Key.space	n/a
246.0195	0.12	492039	keystroke	w	n/a
246.1245	0.06	492249	keystroke	h	n/a
246.2295	0.09	492459	keystroke	o	n/a
246.4095	0.135	492819	keystroke	l	n/a
246.5455	0.074	493091	keystroke	e	n/a
246.7395	0.105	493479	keystroke	Key.enter	n/a
246.852	9.3835	493704	prompt	n/a	celebration stuart weapon taught\n
247.5345	0.075	495069	keystroke	c	n/a
247.7595	0.06	495519	keystroke	e	n/a
247.9245	0.105	495849	keystroke	l	n/a
248.0145	0.09	496029	keystroke	e	n/a
248.2095	0.06	496419	keystroke	b	n/a
248.3595	0.12	496719	keystroke	r	n/a
248.4645	0.165	496929	keystroke	a	n/a
248.6145	0.12	497229	keystroke	t	n/a
248.7495	0.075	497499	keystroke	i	n/a
248.8845	0.18	497769	keystroke	o	n/a
249.0045	0.105	498009	keystroke	n	n/a
249.1245	0.06	498249	keystroke	Key.space	n/a
249.3045	0.165	498609	keystroke	s	n/a
249.5295	0.12	499059	keystroke	t	n/a
249.6795	0.075	499359	keystroke	u	n/a
250.5195	0.18	501039	keystroke	a	n/a
251.5395	0.09	503079	keystroke	r	n/a
251.8245	0.12	503649	keystroke	t	n/a
251.9895	0.135	503979	keystroke	Key.space	n/a
252.4095	0.12	504819	keystroke	w	n/a
252.5895	0.105	505179	keystroke	e	n/a
252.7695	0.1495	505539	keystroke	a	n/a
254.104	0.105	508208	keystroke	p	n/a
254.284	0.105	508568	keystroke	o	n/a
254.524	0.075	509048	keystroke	n	n/a
254.659	0.12	509318	keystroke	Key.space	n/a
255.139	0.09	510278	keystroke	t	n/a
255.409	0.165	510818	keystroke	a	n/a
255.559	0.06	511118	keystroke	u	n/a
255.784	0.015	511568	keystroke	g	n/a
255.814	0.075	511628	keystroke	h	n/a
255.904	0.09	511808	keystroke	t	n/a
256.114	0.12	512228	keystroke	Key.enter	n/a
256.24	6.1015	512480	prompt	n/a	federal assessing funk months\n
256.954	0.06	513908	keystroke	f	n/a
257.149	0.075	514298	keystroke	e	n/a
257.554	0.075	515108	keystroke	d	n/a
257.749	0.075	515498	keystroke	e	n/a
257.944	0.12	515888	keystroke	r	n/a
258.034	0.15	516068	keystroke	a	n/a
258.214	0.12	516428	keystroke	l	n/a
258.319	0.09	516638	keystroke	Key.space	n/a
258.769	0.12	517538	keystroke	a	n/a
258.994	0.075	517988	keystroke	s	n/a
259.129	0.18	518258	keystroke	s	n/a
259.294	0.06	518588	keystroke	e	n/a
259.549	0.075	519098	keystroke	s	n/a
259.699	0.135	519398	keystroke	s	n/a
259.804	0.165	519608	keystroke	i	n/a
259.909	0.105	519818	keystroke	n	n/a
259.984	0.12	519968	keystroke	g	n/a
260.074	0.075	520148	keystroke	Key.space	n/a
260.599	0.15	521198	keystroke	f	n/a
260.839	0.06	521678	keystroke	u	n/a
261.049	0.075	522098	keystroke	n	n/a
261.214	0.09	522428	keystroke	k	n/a
261.319	0.12	522638	keystroke	Key.space	n/a
261.544	0.075	523088	keystroke	m	n/a
261.664	0.15	523328	keystroke	o	n/a
261.799	0.075	523598	keystroke	n	n/a
261.919	0.09	523838	keystroke	t	n/a
262.039	0.075	524078	keystroke	h	n/a
262.144	0.12	524288	keystroke	s	n/a
262.249	0.09	524498	keystroke	Key.enter	n/a
262.346	7.496	524692	prompt	n/a	humanity suggested granny surrounding\n
263.104	0.06	526208	keystroke	h	n/a
263.284	0.046	526568	keystroke	u	n/a
263.464	0.075	526928	keystroke	m	n/a
263.599	0.18	527198	keystroke	a	n/a
263.809	0.06	527618	keystroke	i	n/a
264.409	0.12	528818	keystroke	Key.backspace	n/a
264.724	0.06	529448	keystroke	n	n/a
264.814	0.12	529628	keystroke	i	n/a
264.979	0.09	529958	keystroke	t	n/a
265.084	0.075	530168	keystroke	y	n/a
265.264	0.105	530528	keystroke	Key.space	n/a
265.534	0.135	531068	keystroke	s	n/a
265.624	0.075	531248	keystroke	u	n/a
265.849	0.06	531698	keystroke	g	n/a
265.969	0.06	531938	keystroke	g	n/a
266.104	0.12	532208	keystroke	e	n/a
266.315	0.179	532630	keystroke	s	n/a
266.449	0.135	532898	keystroke	t	n/a
266.539	0.09	533078	keystroke	e	n/a
266.749	0.12	533498	keystroke	d	n/a
266.854	0.135	533708	keystroke	Key.space	n/a
267.064	0.105	534128	keystroke	g	n/a
267.349	0.09	534698	keystroke	r	n/a
267.469	0.135	534938	keystroke	a	n/a
267.649	0.0595	535298	keystroke	n	n/a
267.769	0.06	535538	keystroke	n	n/a
267.979	0.06	535958	keystroke	y	n/a
268.084	0.105	536168	keystroke	Key.space	n/a
268.264	0.1345	536528	keystroke	s	n/a
268.3535	0.0755	536707	keystroke	u	n/a
268.594	0.0595	537188	keystroke	r	n/a
268.7285	0.12	537457	keystroke	r	n/a
268.8195	0.119	537639	keystroke	o	n/a
268.8935	0.105	537787	keystroke	u	n/a
269.1035	0.0755	538207	keystroke	n	n/a
269.194	0.1045	538388	keystroke	d	n/a
269.3135	0.09	538627	keystroke	i	n/a
269.3735	0.105	538747	keystroke	n	n/a
269.494	0.1045	538988	keystroke	g	n/a
269.734	0.1045	539468	keystroke	Key.enter	n/a
269.8475	7.0445	539695	prompt	n/a	diseases angela postage outside\n
270.5585	0.06	541117	keystroke	d	n/a
270.664	0.0745	541328	keystroke	i	n/a
270.7985	0.121	541597	keystroke	s	n/a
271.0835	0.06	542167	keystroke	e	n/a
271.279	0.1345	542558	keystroke	a	n/a
271.4735	0.15	542947	keystroke	s	n/a
271.5945	0.0745	543189	keystroke	e	n/a
271.7885	0.12	543577	keystroke	s	n/a
271.9835	0.045	543967	keystroke	Key.space	n/a
272.8385	0.136	545677	keystroke	a	n/a
272.959	0.0745	545918	keystroke	n	n/a
273.2135	0.12	546427	keystroke	g	n/a
273.3185	0.105	546637	keystroke	e	n/a
273.4695	0.105	546939	keystroke	l	n/a
273.5895	0.134	547179	keystroke	a	n/a
273.8585	0.12	547717	keystroke	Key.space	n/a
274.0985	0.105	548197	keystroke	p	n/a
274.2785	0.105	548557	keystroke	o	n/a
274.4585	0.105	548917	keystroke	s	n/a
274.6685	0.09	549337	keystroke	t	n/a
274.7735	0.165	549547	keystroke	a	n/a
274.9685	0.15	549937	keystroke	g	n/a
275.0735	0.18	550147	keystroke	e	n/a
275.1935	0.09	550387	keystroke	Key.space	n/a
275.539	0.12	551078	keystroke	o	n/a
275.629	0.075	551258	keystroke	u	n/a
275.705	0.089	551410	keystroke	t	n/a
275.929	0.195	551858	keystroke	s	n/a
276.184	0.105	552368	keystroke	i	n/a
276.349	0.06	552698	keystroke	d	n/a
276.544	0.06	553088	keystroke	e	n/a
276.799	0.09	553598	keystroke	Key.enter	n/a
276.902	6.829	553804	prompt	n/a	variance managed colombia inns\n
277.6235	0.136	555247	keystroke	v	n/a
277.7885	0.21	555577	keystroke	a	n/a
278.0145	0.135	556029	keystroke	r	n/a
278.1645	0.074	556329	keystroke	i	n/a
278.2995	0.18	556599	keystroke	a	n/a
278.8385	0.09	557677	keystroke	n	n/a
278.9745	0.059	557949	keystroke	c	n/a
279.1535	0.106	558307	keystroke	e	n/a
279.2735	0.106	558547	keystroke	Key.space	n/a
279.5745	0.075	559149	keystroke	m	n/a
279.7245	0.104	559449	keystroke	a	n/a
279.8435	0.075	559687	keystroke	n	n/a
279.9345	0.12	559869	keystroke	a	n/a
280.0835	0.151	560167	keystroke	g	n/a
280.1895	0.119	560379	keystroke	e	n/a
280.4295	0.104	560859	keystroke	d	n/a
280.5635	0.12	561127	keystroke	Key.space	n/a
280.9995	0.135	561999	keystroke	c	n/a
281.1045	0.06	562209	keystroke	o	n/a
281.2845	0.075	562569	keystroke	l	n/a
281.4785	0.075	562957	keystroke	o	n/a
282.0645	0.06	564129	keystroke	m	n/a
282.3335	0.045	564667	keystroke	b	n/a
282.4695	0.089	564939	keystroke	i	n/a
282.6035	0.135	565207	keystroke	a	n/a
282.7985	0.12	565597	keystroke	Key.space	n/a
283.0085	0.075	566017	keystroke	i	n/a
283.2035	0.045	566407	keystroke	n	n/a
283.3235	0.076	566647	keystroke	n	n/a
283.4895	0.135	566979	keystroke	s	n/a
283.6395	0.089	567279	keystroke	Key.enter	n/a
283.738	9.8925	567476	prompt	n/a	blvd presentation sunny silicon\n
284.4945	0.06	568989	keystroke	b	n/a
284.6895	0.09	569379	keystroke	l	n/a
284.9745	0.105	569949	keystroke	v	n/a
285.199	0.09	570398	keystroke	d	n/a
285.664	0.135	571328	keystroke	Key.space	n/a
285.859	0.12	571718	keystroke	p	n/a
285.994	0.15	571988	keystroke	r	n/a
286.099	0.09	572198	keystroke	e	n/a
286.339	0.195	572678	keystroke	s	n/a
286.369	0.15	572738	keystroke	a	n/a
286.489	0.165	572978	keystroke	e	n/a
286.535	0.059	573070	keystroke	w	n/a
286.714	0.075	573428	keystroke	n	n/a
287.494	0.105	574988	keystroke	Key.backspace	n/a
287.704	0.09	575408	keystroke	Key.backspace	n/a
287.929	0.105	575858	keystroke	Key.backspace	n/a
288.169	0.09	576338	keystroke	Key.backspace	n/a
288.619	0.09	577238	keystroke	e	n/a
288.724	0.075	577448	keystroke	b	n/a
289.624	0.12	579248	keystroke	Key.backspace	n/a
289.909	0.105	579818	keystroke	n	n/a
290.269	0.12	580538	keystroke	t	n/a
290.374	0.18	580748	keystroke	a	n/a
290.599	0.12	581198	keystroke	t	n/a
290.689	0.105	581378	keystroke	i	n/a
290.809	0.18	581618	keystroke	o	n/a
290.929	0.09	581858	keystroke	n	n/a
291.034	0.105	582068	keystroke	Key.space	n/a
291.214	0.18	582428	keystroke	s	n/a
291.289	0.06	582578	keystroke	u	n/a
291.499	0.075	582998	keystroke	n	n/a
291.649	0.045	583298	keystroke	n	n/a
291.844	0.06	583688	keystroke	y	n/a
292.009	0.09	584018	keystroke	Key.space	n/a
292.519	0.15	585038	keystroke	s	n/a
292.624	0.06	585248	keystroke	i	n/a
292.789	0.075	585578	keystroke	l	n/a
292.939	0.06	585878	keystroke	i	n/a
293.059	0.15	586118	keystroke	c	n/a
293.224	0.135	586448	keystroke	o	n/a
293.299	0.105	586598	keystroke	n	n/a
293.569	0.06	587138	keystroke	Key.enter	n/a
293.6345	10.961	587269	prompt	n/a	reads charter joint sustainable\n
294.319	0.03	588638	keystroke	t	n/a
294.919	0.105	589838	keystroke	Key.backspace	n/a
295.144	0.12	590288	keystroke	r	n/a
295.234	0.12	590468	keystroke	e	n/a
295.399	0.12	590798	keystroke	a	n/a
295.594	0.105	591188	keystroke	d	n/a
295.924	0.12	591848	keystroke	s	n/a
296.059	0.105	592118	keystroke	Key.space	n/a
296.314	0.105	592628	keystroke	c	n/a
296.434	0.075	592868	keystroke	h	n/a
296.554	0.15	593108	keystroke	a	n/a
296.674	0.09	593348	keystroke	r	n/a
296.944	0.03	593888	keystroke	t	n/a
296.959	0.06	593918	keystroke	e	n/a
298.129	0.06	596258	keystroke	Key.backspace	n/a
298.939	0.105	597878	keystroke	e	n/a
299.254	0.135	598508	keystroke	r	n/a
299.434	0.12	598868	keystroke	Key.space	n/a
299.644	0.075	599288	keystroke	j	n/a
299.764	0.18	599528	keystroke	o	n/a
300.199	0.135	600398	keystroke	i	n/a
300.304	0.105	600608	keystroke	n	n/a
300.454	0.075	600908	keystroke	g	n/a
300.514	0.09	601028	keystroke	Key.space	n/a
301.984	0.03	603968	keystroke	Key.backspace	n/a
302.119	0.105	604238	keystroke	Key.backspace	n/a
302.329	0.09	604658	keystroke	t	n/a
302.494	0.105	604988	keystroke	Key.space	n/a
302.809	0.12	605618	keystroke	s	n/a
302.914	0.06	605828	keystroke	u	n/a
303.019	0.135	606038	keystroke	s	n/a
303.289	0.12	606578	keystroke	t	n/a
303.394	0.165	606788	keystroke	a	n/a
303.574	0.06	607148	keystroke	i	n/a
303.739	0.075	607478	keystroke	n	n/a
303.844	0.135	607688	keystroke	a	n/a
303.994	0.075	607988	keystroke	b	n/a
304.159	0.09	608318	keystroke	e	n/a
304.264	0.09	608528	keystroke	l	n/a
304.549	0.045	609098	keystroke	Key.enter	n/a
304.6015	7.4645	609203	prompt	n/a	semester flashing ultimately behavior\n
305.584	0.105	611168	keystroke	s	n/a
305.7935	0.12	611587	keystroke	e	n/a
305.9735	0.0905	611947	keystroke	m	n/a
306.0935	0.075	612187	keystroke	e	n/a
306.2735	0.135	612547	keystroke	s	n/a
306.439	0.1045	612878	keystroke	t	n/a
306.5745	0.165	613149	keystroke	e	n/a
306.6935	0.135	613387	keystroke	r	n/a
306.7985	0.0905	613597	keystroke	Key.space	n/a
306.9635	0.135	613927	keystroke	f	n/a
307.1135	0.0755	614227	keystroke	l	n/a
307.174	0.1195	614348	keystroke	a	n/a
307.3985	0.18	614797	keystroke	s	n/a
307.4735	0.075	614947	keystroke	h	n/a
307.5645	0.1195	615129	keystroke	i	n/a
307.6985	0.1055	615397	keystroke	n	n/a
307.789	0.12	615578	keystroke	g	n/a
307.8785	0.105	615757	keystroke	Key.space	n/a
308.1185	0.0455	616237	keystroke	u	n/a
308.299	0.1045	616598	keystroke	l	n/a
308.4785	0.105	616957	keystroke	t	n/a
308.6435	0.09	617287	keystroke	i	n/a
308.8395	0.089	617679	keystroke	m	n/a
308.9595	0.149	617919	keystroke	a	n/a
309.1535	0.105	618307	keystroke	t	n/a
309.2885	0.15	618577	keystroke	e	n/a
309.4535	0.09	618907	keystroke	l	n/a
309.6485	0.075	619297	keystroke	y	n/a
309.7985	0.135	619597	keystroke	Key.space	n/a
309.9935	0.09	619987	keystroke	b	n/a
310.1435	0.09	620287	keystroke	e	n/a
310.5035	0.075	621007	keystroke	h	n/a
310.6535	0.12	621307	keystroke	a	n/a
310.8185	0.136	621637	keystroke	v	n/a
310.9385	0.045	621877	keystroke	i	n/a
311.1485	0.105	622297	keystroke	o	n/a
311.2835	0.106	622567	keystroke	r	n/a
311.9585	0.105	623917	keystroke	Key.enter	n/a
312.0705	13.7055	624141	prompt	n/a	microwave champion associations philadelphia\n
312.7695	0.074	625539	keystroke	m	n/a
312.9485	0.076	625897	keystroke	i	n/a
313.2035	0.075	626407	keystroke	r	n/a
313.9685	0.075	627937	keystroke	Key.backspace	n/a
314.1645	0.134	628329	keystroke	c	n/a
314.6885	0.09	629377	keystroke	r	n/a
314.8245	0.089	629649	keystroke	o	n/a
315.1985	0.091	630397	keystroke	w	n/a
315.4085	0.136	630817	keystroke	a	n/a
315.6035	0.12	631207	keystroke	v	n/a
315.6935	0.166	631387	keystroke	e	n/a
315.8435	0.075	631687	keystroke	Key.space	n/a
316.2485	0.105	632497	keystroke	c	n/a
316.3845	0.045	632769	keystroke	h	n/a
316.5035	0.135	633007	keystroke	a	n/a
316.6085	0.075	633217	keystroke	m	n/a
316.8345	0.089	633669	keystroke	p	n/a
317.0445	0.059	634089	keystroke	i	n/a
317.2235	0.105	634447	keystroke	o	n/a
317.3745	0.075	634749	keystroke	n	n/a
317.5385	0.12	635077	keystroke	Key.space	n/a
317.7935	0.12	635587	keystroke	a	n/a
318.0195	0.075	636039	keystroke	s	n/a
318.1395	0.119	636279	keystroke	s	n/a
318.2285	0.105	636457	keystroke	o	n/a
318.3945	0.165	636789	keystroke	c	n/a
318.5435	0.075	637087	keystroke	i	n/a
318.6635	0.226	637327	keystroke	a	n/a
318.8445	0.134	637689	keystroke	t	n/a
318.9935	0.091	637987	keystroke	i	n/a
319.0985	0.255	638197	keystroke	o	n/a
320.4635	0.09	640927	keystroke	n	n/a
320.5995	0.135	641199	keystroke	s	n/a
321.2735	0.105	642547	keystroke	Key.space	n/a
321.6785	0.075	643357	keystroke	p	n/a
321.8585	0.06	643717	keystroke	h	n/a
321.9635	0.091	643927	keystroke	i	n/a
322.3535	0.105	644707	keystroke	l	n/a
322.4745	0.149	644949	keystroke	a	n/a
322.6085	0.076	645217	keystroke	d	n/a
322.7445	0.089	645489	keystroke	e	n/a
322.8635	0.091	645727	keystroke	l	n/a
323.1635	0.076	646327	keystroke	p	n/a
323.3885	0.061	646777	keystroke	h	n/a
323.5235	0.105	647047	keystroke	i	n/a
323.6735	0.135	647347	keystroke	s	n/a
324.5895	0.104	649179	keystroke	Key.backspace	n/a
324.8285	0.106	649657	keystroke	a	n/a
325.6835	0.09	651367	keystroke	Key.enter	n/a
325.783	9.863	651566	prompt	n/a	flux owns wrapping attorneys\n
326.4635	0.091	652927	keystroke	f	n/a
326.6285	0.106	653257	keystroke	l	n/a
326.8245	0.059	653649	keystroke	u	n/a
327.1085	0.09	654217	keystroke	x	n/a
327.3035	0.09	654607	keystroke	Key.space	n/a
327.5285	0.106	655057	keystroke	o	n/a
327.6485	0.091	655297	keystroke	w	n/a
327.7845	0.089	655569	keystroke	n	n/a
327.9035	0.121	655807	keystroke	s	n/a
328.0835	0.105	656167	keystroke	Key.space	n/a
328.6395	0.149	657279	keystroke	w	n/a
328.9235	0.151	657847	keystroke	r	n/a
328.9395	0.105	657879	keystroke	e	n/a
329.0595	0.15	658119	keystroke	a	n/a
329.5395	0.075	659079	keystroke	p	n/a
329.7345	0.059	659469	keystroke	p	n/a
330.4685	0.076	660937	keystroke	Key.backspace	n/a
330.7095	0.089	661419	keystroke	Key.backspace	n/a
330.9035	0.106	661807	keystroke	Key.backspace	n/a
331.1735	0.075	662347	keystroke	Key.backspace	n/a
331.3985	0.136	662797	keystroke	a	n/a
332.209	0.0605	664418	keystroke	p	n/a
332.3595	0.0745	664719	keystroke	p	n/a
332.494	0.15	664988	keystroke	i	n/a
332.584	0.0905	665168	keystroke	n	n/a
332.6595	0.074	665319	keystroke	g	n/a
332.749	0.075	665498	keystroke	Key.space	n/a
333.544	0.15	667088	keystroke	a	n/a
333.754	0.06	667508	keystroke	t	n/a
333.874	0.075	667748	keystroke	t	n/a
333.978	0.136	667956	keystroke	o	n/a
334.069	0.0905	668138	keystroke	r	n/a
334.339	0.09	668678	keystroke	n	n/a
334.429	0.09	668858	keystroke	e	n/a
334.653	0.091	669306	keystroke	y	n/a
334.849	0.104	669698	keystroke	s	n/a
335.554	0.09	671108	keystroke	Key.enter	n/a
335.653	8.5875	671306	prompt	n/a	muze invoice interventions jackie\n
336.319	0.06	672638	keystroke	m	n/a
336.499	0.059	672998	keystroke	u	n/a
336.664	0.105	673328	keystroke	z	n/a
336.859	0.12	673718	keystroke	e	n/a
336.964	0.105	673928	keystroke	Key.space	n/a
337.189	0.12	674378	keystroke	i	n/a
337.279	0.09	674558	keystroke	n	n/a
338.089	0.12	676178	keystroke	v	n/a
338.269	0.105	676538	keystroke	o	n/a
338.4795	0.0595	676959	keystroke	i	n/a
338.614	0.075	677228	keystroke	c	n/a
338.794	0.09	677588	keystroke	e	n/a
338.974	0.105	677948	keystroke	Key.space	n/a
339.499	0.165	678998	keystroke	i	n/a
339.634	0.09	679268	keystroke	n	n/a
339.739	0.075	679478	keystroke	t	n/a
339.859	0.18	679718	keystroke	e	n/a
339.979	0.12	679958	keystroke	r	n/a
340.984	0.09	681968	keystroke	v	n/a
341.164	0.135	682328	keystroke	e	n/a
341.509	0.09	683018	keystroke	n	n/a
341.719	0.12	683438	keystroke	t	n/a
341.854	0.135	683708	keystroke	i	n/a
341.974	0.195	683948	keystroke	o	n/a
342.079	0.105	684158	keystroke	n	n/a
342.199	0.135	684398	keystroke	s	n/a
342.289	0.15	684578	keystroke	Key.space	n/a
342.514	0.105	685028	keystroke	j	n/a
342.634	0.09	685268	keystroke	a	n/a
342.874	0.165	685748	keystroke	c	n/a
342.949	0.075	685898	keystroke	k	n/a
343.129	0.09	686258	keystroke	i	n/a
343.234	0.075	686468	keystroke	e	n/a
344.134	0.105	688268	keystroke	Key.enter	n/a
344.247	11.3035	688494	prompt	n/a	rebecca discussed circus opposition\n
345.139	0.15	690278	keystroke	r	n/a
345.214	0.12	690428	keystroke	e	n/a
345.499	0.06	690998	keystroke	b	n/a
345.604	0.06	691208	keystroke	e	n/a
345.904	0.075	691808	keystroke	c	n/a
346.069	0.09	692138	keystroke	c	n/a
346.219	0.24	692438	keystroke	a	n/a
346.429	0.105	692858	keystroke	Key.space	n/a
347.914	0.075	695828	keystroke	d	n/a
348.004	0.09	696008	keystroke	i	n/a
348.109	0.09	696218	keystroke	s	n/a
348.364	0.105	696728	keystroke	c	n/a
348.484	0.045	696968	keystroke	u	n/a
348.619	0.075	697238	keystroke	s	n/a
348.769	0.12	697538	keystroke	s	n/a
348.994	0.09	697988	keystroke	e	n/a
349.429	0.075	698858	keystroke	d	n/a
349.639	0.09	699278	keystroke	Key.space	n/a
350.479	0.075	700958	keystroke	c	n/a
350.569	0.09	701138	keystroke	i	n/a
350.809	0.135	701618	keystroke	r	n/a
351.184	0.075	702368	keystroke	c	n/a
351.274	0.075	702548	keystroke	u	n/a
351.394	0.105	702788	keystroke	s	n/a
351.559	0.105	703118	keystroke	Key.space	n/a
351.814	0.075	703628	keystroke	o	n/a
352.024	0.075	704048	keystroke	p	n/a
352.204	0.06	704408	keystroke	p	n/a
352.354	0.09	704708	keystroke	o	n/a
352.459	0.15	704918	keystroke	s	n/a
352.654	0.075	705308	keystroke	t	n/a
352.684	0.075	705368	keystroke	i	n/a
353.869	0.045	707738	keystroke	Key.backspace	n/a
354.0035	0.105	708007	keystroke	Key.backspace	n/a
354.2735	0.0605	708547	keystroke	i	n/a
354.484	0.09	708968	keystroke	t	n/a
354.589	0.075	709178	keystroke	i	n/a
354.724	0.1645	709448	keystroke	o	n/a
354.784	0.1195	709568	keystroke	n	n/a
355.444	0.105	710888	keystroke	Key.enter	n/a
355.5555	6.9855	711111	prompt	n/a	secondary sources bulgaria barrel\n
356.2685	0.1505	712537	keystroke	s	n/a
356.4485	0.0605	712897	keystroke	e	n/a
356.6585	0.1055	713317	keystroke	c	n/a
356.765	0.134	713530	keystroke	o	n/a
356.8685	0.09	713737	keystroke	n	n/a
356.9585	0.105	713917	keystroke	d	n/a
357.1085	0.195	714217	keystroke	a	n/a
357.2735	0.1055	714547	keystroke	r	n/a
357.409	0.0745	714818	keystroke	y	n/a
357.5435	0.12	715087	keystroke	Key.space	n/a
357.739	0.1495	715478	keystroke	s	n/a
357.8285	0.135	715657	keystroke	o	n/a
357.934	0.0895	715868	keystroke	u	n/a
357.979	0.0895	715958	keystroke	r	n/a
358.204	0.0595	716408	keystroke	c	n/a
358.3835	0.09	716767	keystroke	e	n/a
358.549	0.0895	717098	keystroke	Key.space	n/a
359.4635	0.06	718927	keystroke	b	n/a
359.6735	0.03	719347	keystroke	u	n/a
359.8535	0.09	719707	keystroke	l	n/a
359.9735	0.12	719947	keystroke	g	n/a
360.1235	0.15	720247	keystroke	a	n/a
360.379	0.1045	720758	keystroke	r	n/a
360.4845	0.074	720969	keystroke	i	n/a
360.6035	0.195	721207	keystroke	a	n/a
360.7535	0.105	721507	keystroke	Key.space	n/a
360.9785	0.075	721957	keystroke	b	n/a
361.0685	0.15	722137	keystroke	a	n/a
361.3085	0.06	722617	keystroke	r	n/a
361.4435	0.135	722887	keystroke	r	n/a
361.5635	0.135	723127	keystroke	e	n/a
361.7285	0.135	723457	keystroke	l	n/a
362.4335	0.105	724867	keystroke	Key.enter	n/a
362.5455	21.2355	725091	prompt	n/a	defense lookup festival topic\n
363.1385	0.075	726277	keystroke	d	n/a
363.2885	0.06	726577	keystroke	e	n/a
363.4835	0.15	726967	keystroke	f	n/a
363.6035	0.09	727207	keystroke	e	n/a
363.8885	0.12	727777	keystroke	n	n/a
364.0385	0.075	728077	keystroke	c	n/a
364.7285	0.165	729457	keystroke	s	n/a
365.1635	0.105	730327	keystroke	Key.backspace	n/a
365.3885	0.09	730777	keystroke	Key.backspace	n/a
365.5385	0.165	731077	keystroke	s	n/a
365.6885	0.09	731377	keystroke	e	n/a
365.9885	0.09	731977	keystroke	Key.space	n/a
366.7085	0.09	733417	keystroke	l	n/a
366.9335	0.075	733867	keystroke	o	n/a
367.0685	0.06	734137	keystroke	o	n/a
367.2335	0.06	734467	keystroke	k	n/a
367.4285	0.06	734857	keystroke	u	n/a
367.7885	0.105	735577	keystroke	p	n/a
369.3635	0.105	738727	keystroke	Key.space	n/a
369.6785	0.09	739357	keystroke	f	n/a
369.8285	0.135	739657	keystroke	s	n/a
370.8635	0.105	741727	keystroke	Key.backspace	n/a
371.1185	0.09	742237	keystroke	e	n/a
371.3285	0.12	742657	keystroke	s	n/a
371.6585	0.09	743317	keystroke	t	n/a
371.7935	0.105	743587	keystroke	i	n/a
371.9135	0.135	743827	keystroke	v	n/a
372.0185	0.18	744037	keystroke	a	n/a
372.1835	0.105	744367	keystroke	l	n/a
372.8735	0.12	745747	keystroke	Key.tab	n/a
379.4805	0.112	758961	keystroke	Key.right	n/a
380.0615	0.027	760123	keystroke	Key.space	n/a
382.024	0.075	764048	keystroke	t	n/a
382.159	0.09	764318	keystroke	o	n/a
382.339	0.09	764678	keystroke	p	n/a
382.534	0.075	765068	keystroke	i	n/a
382.774	0.105	765548	keystroke	c	n/a
383.674	0.105	767348	keystroke	Key.enter	n/a
383.785	12.041	767570	prompt	n/a	simpson developers proper computers\n
384.559	0.165	769118	keystroke	s	n/a
384.634	0.075	769268	keystroke	i	n/a
384.919	0.075	769838	keystroke	m	n/a
385.129	0.075	770258	keystroke	p	n/a
385.309	0.09	770618	keystroke	o	n/a
385.624	0.135	771248	keystroke	s	n/a
385.714	0.135	771428	keystroke	o	n/a
385.819	0.105	771638	keystroke	n	n/a
385.984	0.12	771968	keystroke	Key.space	n/a
387.859	0.06	775718	keystroke	d	n/a
388.024	0.06	776048	keystroke	e	n/a
388.204	0.105	776408	keystroke	v	n/a
388.264	0.12	776528	keystroke	e	n/a
388.444	0.105	776888	keystroke	l	n/a
389.029	0.075	778058	keystroke	o	n/a
389.1935	0.135	778387	keystroke	p	n/a
389.4185	0.165	778837	keystroke	e	n/a
389.5385	0.105	779077	keystroke	r	n/a
390.0785	0.165	780157	keystroke	s	n/a
390.2135	0.15	780427	keystroke	Key.space	n/a
391.1585	0.135	782317	keystroke	p	n/a
391.4735	0.105	782947	keystroke	r	n/a
391.5635	0.105	783127	keystroke	o	n/a
391.8485	0.135	783697	keystroke	p	n/a
391.9395	0.119	783879	keystroke	e	n/a
392.0135	0.121	784027	keystroke	r	n/a
392.2535	0.12	784507	keystroke	Key.space	n/a
392.9585	0.12	785917	keystroke	c	n/a
393.0635	0.151	786127	keystroke	o	n/a
393.1835	0.105	786367	keystroke	m	n/a
393.3935	0.165	786787	keystroke	p	n/a
393.5435	0.091	787087	keystroke	u	n/a
393.6785	0.105	787357	keystroke	t	n/a
393.7685	0.151	787537	keystroke	e	n/a
393.8885	0.09	787777	keystroke	r	n/a
394.0985	0.12	788197	keystroke	s	n/a
395.7035	0.12	791407	keystroke	Key.enter	n/a
395.833	8.1075	791666	prompt	n/a	novel appear software discounted\n
396.8885	0.075	793777	keystroke	n	n/a
397.0245	0.134	794049	keystroke	o	n/a
397.1745	0.089	794349	keystroke	v	n/a
397.2485	0.135	794497	keystroke	e	n/a
397.4595	0.104	794919	keystroke	l	n/a
398.0435	0.15	796087	keystroke	Key.space	n/a
398.4035	0.135	796807	keystroke	a	n/a
398.5835	0.076	797167	keystroke	p	n/a
398.7645	0.089	797529	keystroke	p	n/a
398.8845	0.149	797769	keystroke	e	n/a
399.1835	0.165	798367	keystroke	a	n/a
399.3185	0.105	798637	keystroke	r	n/a
399.9185	0.105	799837	keystroke	Key.space	n/a
400.2785	0.166	800557	keystroke	s	n/a
400.4145	0.134	800829	keystroke	o	n/a
400.5335	0.06	801067	keystroke	f	n/a
400.6995	0.059	801399	keystroke	t	n/a
400.8785	0.09	801757	keystroke	w	n/a
401.0585	0.21	802117	keystroke	a	n/a
401.2395	0.135	802479	keystroke	r	n/a
401.3435	0.121	802687	keystroke	e	n/a
401.6585	0.105	803317	keystroke	Key.space	n/a
402.2445	0.104	804489	keystroke	d	n/a
402.3935	0.075	804787	keystroke	i	n/a
402.4985	0.106	804997	keystroke	s	n/a
402.7385	0.136	805477	keystroke	c	n/a
402.8585	0.135	805717	keystroke	o	n/a
402.9635	0.075	805927	keystroke	u	n/a
403.1585	0.106	806317	keystroke	n	n/a
403.2485	0.15	806497	keystroke	t	n/a
403.3395	0.105	806679	keystroke	e	n/a
403.5795	0.089	807159	keystroke	d	n/a
403.8635	0.0745	807727	keystroke	Key.enter	n/a
403.945	6.8055	807890	prompt	n/a	pork efforts stylus makers\n
404.6445	0.105	809289	keystroke	p	n/a
404.839	0.12	809678	keystroke	o	n/a
404.943	0.061	809886	keystroke	r	n/a
405.1235	0.0595	810247	keystroke	t	n/a
405.303	0.1205	810606	keystroke	Key.space	n/a
405.544	0.074	811088	keystroke	e	n/a
405.754	0.06	811508	keystroke	f	n/a
405.874	0.089	811748	keystroke	f	n/a
405.979	0.12	811958	keystroke	o	n/a
406.113	0.105	812226	keystroke	r	n/a
406.429	0.075	812858	keystroke	t	n/a
406.623	0.091	813246	keystroke	s	n/a
406.818	0.105	813636	keystroke	Key.space	n/a
407.733	0.106	815466	keystroke	s	n/a
407.884	0.089	815768	keystroke	t	n/a
408.198	0.046	816396	keystroke	y	n/a
408.363	0.091	816726	keystroke	l	n/a
408.543	0.091	817086	keystroke	u	n/a
408.663	0.15	817326	keystroke	s	n/a
408.784	0.119	817568	keystroke	Key.space	n/a
408.948	0.091	817896	keystroke	m	n/a
409.053	0.136	818106	keystroke	a	n/a
409.639	0.104	819278	keystroke	k	n/a
409.729	0.164	819458	keystroke	e	n/a
409.834	0.135	819668	keystroke	r	n/a
410.433	0.105	820866	keystroke	s	n/a
410.644	0.104	821288	keystroke	Key.enter	n/a
410.757	6.0385	821514	prompt	n/a	belts abortion reporting monica\n
411.574	0.059	823148	keystroke	b	n/a
411.739	0.09	823478	keystroke	e	n/a
411.829	0.105	823658	keystroke	l	n/a
411.963	0.075	823926	keystroke	t	n/a
412.143	0.181	824286	keystroke	s	n/a
412.279	0.105	824558	keystroke	Key.space	n/a
412.534	0.18	825068	keystroke	a	n/a
412.654	0.06	825308	keystroke	b	n/a
412.758	0.15	825516	keystroke	o	n/a
412.879	0.105	825758	keystroke	r	n/a
413.089	0.12	826178	keystroke	t	n/a
413.163	0.136	826326	keystroke	i	n/a
413.284	0.21	826568	keystroke	o	n/a
413.404	0.104	826808	keystroke	n	n/a
413.523	0.09	827046	keystroke	Key.space	n/a
413.809	0.15	827618	keystroke	r	n/a
413.914	0.105	827828	keystroke	e	n/a
414.048	0.121	828096	keystroke	p	n/a
414.229	0.15	828458	keystroke	o	n/a
414.364	0.06	828728	keystroke	r	n/a
414.513	0.091	829026	keystroke	t	n/a
414.649	0.165	829298	keystroke	i	n/a
414.738	0.121	829476	keystroke	n	n/a
414.814	0.135	829628	keystroke	g	n/a
414.904	0.12	829808	keystroke	Key.space	n/a
415.668	0.075	831336	keystroke	m	n/a
415.819	0.09	831638	keystroke	o	n/a
416.029	0.075	832058	keystroke	n	n/a
416.164	0.09	832328	keystroke	i	n/a
416.299	0.165	832598	keystroke	c	n/a
416.449	0.165	832898	keystroke	a	n/a
416.674	0.12	833348	keystroke	Key.enter	n/a
416.8005	5.5295	833601	prompt	n/a	spelling touring army residence\n
417.438	0.181	834876	keystroke	s	n/a
417.589	0.12	835178	keystroke	p	n/a
417.784	0.105	835568	keystroke	e	n/a
418.219	0.09	836438	keystroke	l	n/a
418.383	0.091	836766	keystroke	l	n/a
418.564	0.165	837128	keystroke	i	n/a
418.684	0.09	837368	keystroke	n	n/a
418.864	0.135	837728	keystroke	g	n/a
418.969	0.104	837938	keystroke	Key.space	n/a
419.2085	0.105	838417	keystroke	t	n/a
419.3445	0.104	838689	keystroke	o	n/a
419.4185	0.09	838837	keystroke	u	n/a
419.5535	0.105	839107	keystroke	r	n/a
419.6735	0.105	839347	keystroke	i	n/a
419.7335	0.12	839467	keystroke	n	n/a
419.8385	0.135	839677	keystroke	g	n/a
419.9435	0.09	839887	keystroke	Key.space	n/a
420.1685	0.165	840337	keystroke	a	n/a
420.3185	0.12	840637	keystroke	r	n/a
420.4535	0.075	840907	keystroke	m	n/a
420.6785	0.06	841357	keystroke	y	n/a
420.7985	0.105	841597	keystroke	Key.space	n/a
421.0085	0.15	842017	keystroke	r	n/a
421.0985	0.09	842197	keystroke	e	n/a
421.3085	0.12	842617	keystroke	s	n/a
421.4295	0.089	842859	keystroke	i	n/a
421.5485	0.075	843097	keystroke	d	n/a
421.6835	0.075	843367	keystroke	e	n/a
421.8185	0.075	843637	keystroke	n	n/a
421.9385	0.06	843877	keystroke	c	n/a
422.1035	0.12	844207	keystroke	e	n/a
422.2685	0.06	844537	keystroke	Key.enter	n/a
422.3345	4.3615	844669	prompt	n/a	more smart know bachelor\n
423.0035	0.06	846007	keystroke	m	n/a
423.1535	0.12	846307	keystroke	o	n/a
423.2435	0.15	846487	keystroke	r	n/a
423.3185	0.165	846637	keystroke	e	n/a
423.4535	0.105	846907	keystroke	Key.space	n/a
423.7085	0.105	847417	keystroke	s	n/a
423.8285	0.075	847657	keystroke	m	n/a
423.9185	0.18	847837	keystroke	a	n/a
424.0535	0.075	848107	keystroke	r	n/a
424.2185	0.105	848437	keystroke	t	n/a
424.2935	0.12	848587	keystroke	Key.space	n/a
424.5185	0.075	849037	keystroke	k	n/a
424.6835	0.075	849367	keystroke	n	n/a
424.7435	0.165	849487	keystroke	o	n/a
424.8335	0.18	849667	keystroke	w	n/a
424.9685	0.12	849937	keystroke	Key.space	n/a
425.2235	0.06	850447	keystroke	b	n/a
425.3135	0.12	850627	keystroke	a	n/a
425.5685	0.075	851137	keystroke	c	n/a
425.6285	0.075	851257	keystroke	h	n/a
425.7785	0.075	851557	keystroke	e	n/a
425.8985	0.075	851797	keystroke	l	n/a
426.0785	0.105	852157	keystroke	o	n/a
426.1985	0.105	852397	keystroke	r	n/a
426.588	0.1055	853176	keystroke	Key.enter	n/a
426.7	7.915	853400	prompt	n/a	soft liverpool headlines range\n
427.3535	0.12	854707	keystroke	s	n/a
427.4435	0.1045	854887	keystroke	o	n/a
427.533	0.075	855066	keystroke	f	n/a
427.7135	0.0745	855427	keystroke	t	n/a
427.818	0.1055	855636	keystroke	Key.space	n/a
428.088	0.0905	856176	keystroke	l	n/a
428.253	0.09	856506	keystroke	i	n/a
428.358	0.105	856716	keystroke	v	n/a
428.493	0.195	856986	keystroke	e	n/a
428.583	0.1355	857166	keystroke	r	n/a
428.823	0.105	857646	keystroke	p	n/a
429.063	0.075	858126	keystroke	o	n/a
429.213	0.075	858426	keystroke	o	n/a
429.393	0.105	858786	keystroke	l	n/a
429.648	0.075	859296	keystroke	Key.space	n/a
431.931	0.027	863862	keystroke	h	n/a
432.018	0.105	864036	keystroke	e	n/a
432.168	0.135	864336	keystroke	a	n/a
432.348	0.12	864696	keystroke	d	n/a
432.483	0.09	864966	keystroke	l	n/a
432.633	0.075	865266	keystroke	i	n/a
432.783	0.105	865566	keystroke	n	n/a
432.873	0.075	865746	keystroke	e	n/a
433.053	0.15	866106	keystroke	s	n/a
433.233	0.105	866466	keystroke	Key.space	n/a
433.698	0.135	867396	keystroke	r	n/a
433.803	0.165	867606	keystroke	a	n/a
433.923	0.105	867846	keystroke	n	n/a
434.043	0.12	868086	keystroke	g	n/a
434.133	0.135	868266	keystroke	e	n/a
434.523	0.09	869046	keystroke	Key.enter	n/a
434.6195	6.1605	869239	prompt	n/a	rating yields chemicals landing\n
435.318	0.12	870636	keystroke	r	n/a
435.453	0.165	870906	keystroke	a	n/a
435.588	0.12	871176	keystroke	t	n/a
435.723	0.165	871446	keystroke	i	n/a
435.873	0.075	871746	keystroke	n	n/a
435.933	0.135	871866	keystroke	g	n/a
436.038	0.105	872076	keystroke	Key.space	n/a
436.683	0.06	873366	keystroke	y	n/a
437.013	0.075	874026	keystroke	i	n/a
437.223	0.09	874446	keystroke	e	n/a
437.898	0.105	875796	keystroke	l	n/a
438.033	0.075	876066	keystroke	d	n/a
438.168	0.18	876336	keystroke	s	n/a
438.318	0.09	876636	keystroke	Key.space	n/a
438.529	0.089	877058	keystroke	c	n/a
438.619	0.059	877238	keystroke	h	n/a
438.738	0.075	877476	keystroke	e	n/a
438.858	0.06	877716	keystroke	m	n/a
438.993	0.105	877986	keystroke	i	n/a
439.143	0.15	878286	keystroke	c	n/a
439.248	0.15	878496	keystroke	a	n/a
439.368	0.135	878736	keystroke	l	n/a
439.519	0.164	879038	keystroke	s	n/a
439.638	0.105	879276	keystroke	Key.space	n/a
439.833	0.121	879666	keystroke	l	n/a
439.938	0.15	879876	keystroke	a	n/a
440.058	0.076	880116	keystroke	n	n/a
440.208	0.135	880416	keystroke	d	n/a
440.313	0.135	880626	keystroke	i	n/a
440.388	0.12	880776	keystroke	n	n/a
440.493	0.105	880986	keystroke	g	n/a
440.658	0.12	881316	keystroke	Key.enter	n/a
440.7845	9.176	881569	prompt	n/a	composition roof angeles keep\n
441.423	0.09	882846	keystroke	c	n/a
441.558	0.21	883116	keystroke	o	n/a
441.753	0.105	883506	keystroke	m	n/a
441.903	0.105	883806	keystroke	p	n/a
442.113	0.075	884226	keystroke	o	n/a
442.279	0.119	884558	keystroke	s	n/a
442.413	0.045	884826	keystroke	i	n/a
442.503	0.12	885006	keystroke	t	n/a
442.608	0.105	885216	keystroke	i	n/a
442.728	0.15	885456	keystroke	o	n/a
442.803	0.105	885606	keystroke	n	n/a
443.403	0.09	886806	keystroke	Key.space	n/a
443.613	0.12	887226	keystroke	r	n/a
443.748	0.06	887496	keystroke	o	n/a
443.913	0.12	887826	keystroke	o	n/a
444.048	0.135	888096	keystroke	f	n/a
444.153	0.12	888306	keystroke	Key.space	n/a
444.874	0.165	889748	keystroke	a	n/a
445.024	0.105	890048	keystroke	n	n/a
445.158	0.105	890316	keystroke	g	n/a
445.563	0.105	891126	keystroke	e	n/a
445.728	0.136	891456	keystroke	l	n/a
445.834	0.089	891668	keystroke	e	n/a
446.029	0.194	892058	keystroke	s	n/a
446.163	0.105	892326	keystroke	Key.space	n/a
446.358	0.165	892716	keystroke	k	n/a
446.538	0.045	893076	keystroke	e	n/a
446.643	0.166	893286	keystroke	e	n/a
446.824	0.12	893648	keystroke	p	n/a
449.917	0.041	899834	keystroke	Key.enter	n/a
449.965	6.0105	899930	prompt	n/a	discusses rent asking anymore\n
450.769	0.09	901538	keystroke	d	n/a
450.874	0.105	901748	keystroke	i	n/a
450.963	0.121	901926	keystroke	s	n/a
451.219	0.119	902438	keystroke	c	n/a
451.323	0.076	902646	keystroke	u	n/a
451.503	0.076	903006	keystroke	s	n/a
451.668	0.091	903336	keystroke	s	n/a
451.773	0.09	903546	keystroke	e	n/a
451.954	0.165	903908	keystroke	s	n/a
452.103	0.105	904206	keystroke	Key.space	n/a
452.344	0.164	904688	keystroke	r	n/a
452.479	0.18	904958	keystroke	e	n/a
452.733	0.091	905466	keystroke	n	n/a
452.839	0.149	905678	keystroke	t	n/a
452.958	0.12	905916	keystroke	Key.space	n/a
453.183	0.12	906366	keystroke	a	n/a
453.408	0.151	906816	keystroke	s	n/a
453.514	0.074	907028	keystroke	k	n/a
453.709	0.149	907418	keystroke	i	n/a
453.799	0.12	907598	keystroke	n	n/a
453.904	0.134	907808	keystroke	g	n/a
453.993	0.09	907986	keystroke	Key.space	n/a
454.189	0.119	908378	keystroke	a	n/a
454.278	0.06	908556	keystroke	n	n/a
454.474	0.045	908948	keystroke	y	n/a
454.683	0.076	909366	keystroke	m	n/a
454.849	0.105	909698	keystroke	o	n/a
455.044	0.119	910088	keystroke	r	n/a
455.209	0.075	910418	keystroke	e	n/a
455.883	0.09	911766	keystroke	Key.enter	n/a
455.9815	6.864	911963	prompt	n/a	dozens blink stat wrapping\n
456.619	0.075	913238	keystroke	d	n/a
456.708	0.121	913416	keystroke	o	n/a
457.0535	0.09	914107	keystroke	z	n/a
457.2325	0.0915	914465	keystroke	e	n/a
457.3835	0.0895	914767	keystroke	n	n/a
457.5335	0.149	915067	keystroke	s	n/a
457.7435	0.1045	915487	keystroke	Key.space	n/a
457.9675	0.06	915935	keystroke	b	n/a
458.1485	0.09	916297	keystroke	l	n/a
458.3285	0.0595	916657	keystroke	i	n/a
458.494	0.0735	916988	keystroke	n	n/a
458.6885	0.0745	917377	keystroke	k	n/a
458.9885	0.105	917977	keystroke	Key.space	n/a
459.3035	0.134	918607	keystroke	s	n/a
459.5135	0.135	919027	keystroke	t	n/a
459.7385	0.179	919477	keystroke	a	n/a
460.2485	0.075	920497	keystroke	t	n/a
460.3825	0.09	920765	keystroke	Key.space	n/a
460.6235	0.075	921247	keystroke	w	n/a
460.8625	0.105	921725	keystroke	r	n/a
461.0285	0.12	922057	keystroke	a	n/a
461.2675	0.076	922535	keystroke	p	n/a
461.4485	0.075	922897	keystroke	p	n/a
461.6435	0.12	923287	keystroke	i	n/a
461.7335	0.12	923467	keystroke	n	n/a
461.9735	0.09	923947	keystroke	g	n/a
462.7385	0.105	925477	keystroke	Key.enter	n/a
462.8505	6.8495	925701	prompt	n/a	early stream perfect villages\n
463.4585	0.045	926917	keystroke	e	n/a
463.6375	0.166	927275	keystroke	a	n/a
463.7585	0.105	927517	keystroke	r	n/a
463.9235	0.089	927847	keystroke	l	n/a
464.1635	0.045	928327	keystroke	y	n/a
464.3735	0.119	928747	keystroke	Key.space	n/a
464.9285	0.105	929857	keystroke	s	n/a
465.0785	0.09	930157	keystroke	t	n/a
465.2735	0.135	930547	keystroke	r	n/a
465.3785	0.15	930757	keystroke	e	n/a
465.5135	0.18	931027	keystroke	a	n/a
465.7385	0.09	931477	keystroke	m	n/a
465.9485	0.105	931897	keystroke	Key.space	n/a
466.3835	0.12	932767	keystroke	p	n/a
466.5635	0.18	933127	keystroke	e	n/a
466.6835	0.105	933367	keystroke	r	n/a
466.9235	0.075	933847	keystroke	f	n/a
467.0435	0.075	934087	keystroke	e	n/a
467.2685	0.09	934537	keystroke	c	n/a
467.3885	0.12	934777	keystroke	t	n/a
467.5385	0.105	935077	keystroke	Key.space	n/a
468.3335	0.12	936667	keystroke	v	n/a
468.4535	0.075	936907	keystroke	i	n/a
468.6785	0.09	937357	keystroke	l	n/a
468.8135	0.105	937627	keystroke	l	n/a
468.8885	0.165	937777	keystroke	a	n/a
469.0235	0.15	938047	keystroke	g	n/a
469.1435	0.12	938287	keystroke	e	n/a
469.3385	0.135	938677	keystroke	s	n/a
469.6085	0.09	939217	keystroke	Key.enter	n/a
469.7045	10.5555	939409	prompt	n/a	bills consequences adults female\n
470.5535	0.06	941107	keystroke	b	n/a
470.7185	0.06	941437	keystroke	i	n/a
470.8985	0.06	941797	keystroke	l	n/a
471.0335	0.12	942067	keystroke	l	n/a
471.1385	0.135	942277	keystroke	s	n/a
471.2585	0.105	942517	keystroke	Key.space	n/a
471.4385	0.15	942877	keystroke	c	n/a
471.5285	0.165	943057	keystroke	o	n/a
471.6035	0.09	943207	keystroke	n	n/a
471.7535	0.12	943507	keystroke	s	n/a
472.4735	0.075	944947	keystroke	e	n/a
472.7285	0.12	945457	keystroke	q	n/a
472.8485	0.075	945697	keystroke	u	n/a
472.9835	0.09	945967	keystroke	e	n/a
473.1335	0.09	946267	keystroke	n	n/a
473.2685	0.075	946537	keystroke	c	n/a
473.4485	0.075	946897	keystroke	e	n/a
473.6285	0.135	947257	keystroke	s	n/a
473.7785	0.12	947557	keystroke	Key.space	n/a
474.0035	0.15	948007	keystroke	a	n/a
474.1835	0.105	948367	keystroke	d	n/a
474.8435	0.075	949687	keystroke	u	n/a
475.0535	0.09	950107	keystroke	l	n/a
475.1735	0.09	950347	keystroke	t	n/a
475.3535	0.195	950707	keystroke	s	n/a
475.5035	0.105	951007	keystroke	Key.space	n/a
475.7435	0.075	951487	keystroke	f	n/a
475.8935	0.135	951787	keystroke	e	n/a
476.0585	0.09	952117	keystroke	m	n/a
476.1935	0.135	952387	keystroke	a	n/a
476.3435	0.105	952687	keystroke	l	n/a
477.9935	0.09	955987	keystroke	e	n/a
480.2015	0.057	960403	keystroke	Key.enter	n/a
480.268	9.353	960536	prompt	n/a	doom hurt planet styles\n
481.0685	0.105	962137	keystroke	d	n/a
481.2335	0.075	962467	keystroke	o	n/a
481.3985	0.075	962797	keystroke	o	n/a
481.5635	0.09	963127	keystroke	m	n/a
481.6985	0.135	963397	keystroke	Key.space	n/a
481.9685	0.045	963937	keystroke	h	n/a
482.1335	0.06	964267	keystroke	u	n/a
482.2385	0.09	964477	keystroke	r	n/a
482.4485	0.075	964897	keystroke	t	n/a
482.5835	0.105	965167	keystroke	Key.space	n/a
482.9435	0.075	965887	keystroke	p	n/a
483.1535	0.105	966307	keystroke	l	n/a
483.2885	0.15	966577	keystroke	a	n/a
483.4535	0.09	966907	keystroke	n	n/a
483.5585	0.12	967117	keystroke	e	n/a
483.7235	0.105	967447	keystroke	t	n/a
483.9485	0.105	967897	keystroke	Key.space	n/a
484.6985	0.12	969397	keystroke	s	n/a
484.8785	0.06	969757	keystroke	t	n/a
484.9985	0.06	969997	keystroke	y	n/a
485.4635	0.15	970927	keystroke	l	n/a
485.5835	0.06	971167	keystroke	e	n/a
485.7485	0.105	971497	keystroke	s	n/a
487.3385	0.09	974677	keystroke	s	n/a
488.223	0.0755	976446	keystroke	Key.backspace	n/a
489.5135	0.1045	979027	keystroke	Key.enter	n/a
489.6265	8.1085	979253	prompt	n/a	unity highlights kingdom mate\n
490.638	0.03	981276	keystroke	u	n/a
490.818	0.075	981636	keystroke	n	n/a
490.908	0.12	981816	keystroke	i	n/a
491.043	0.09	982086	keystroke	t	n/a
491.178	0.075	982356	keystroke	y	n/a
491.358	0.135	982716	keystroke	Key.space	n/a
491.613	0.06	983226	keystroke	h	n/a
491.688	0.12	983376	keystroke	i	n/a
491.823	0.09	983646	keystroke	g	n/a
491.943	0.06	983886	keystroke	h	n/a
492.468	0.105	984936	keystroke	l	n/a
492.633	0.09	985266	keystroke	i	n/a
492.768	0.075	985536	keystroke	g	n/a
492.858	0.075	985716	keystroke	h	n/a
493.023	0.105	986046	keystroke	t	n/a
493.203	0.105	986406	keystroke	s	n/a
493.608	0.105	987216	keystroke	Key.space	n/a
493.953	0.075	987906	keystroke	k	n/a
494.283	0.105	988566	keystroke	i	n/a
494.448	0.105	988896	keystroke	n	n/a
494.958	0.09	989916	keystroke	g	n/a
495.318	0.075	990636	keystroke	d	n/a
495.408	0.105	990816	keystroke	o	n/a
495.573	0.075	991146	keystroke	m	n/a
496.188	0.09	992376	keystroke	Key.space	n/a
496.503	0.09	993006	keystroke	m	n/a
496.683	0.165	993366	keystroke	a	n/a
497.088	0.105	994176	keystroke	t	n/a
497.223	0.091	994446	keystroke	e	n/a
497.613	0.12	995226	keystroke	Key.enter	n/a
497.7405	8.8145	995481	prompt	n/a	trout semiconductor fall nowhere\n
498.513	0.075	997026	keystroke	t	n/a
498.708	0.09	997416	keystroke	r	n/a
498.783	0.15	997566	keystroke	o	n/a
498.903	0.09	997806	keystroke	u	n/a
499.098	0.12	998196	keystroke	t	n/a
499.233	0.12	998466	keystroke	Key.space	n/a
499.938	0.135	999876	keystroke	s	n/a
500.103	0.075	1000206	keystroke	e	n/a
500.208	0.09	1000416	keystroke	m	n/a
500.358	0.105	1000716	keystroke	i	n/a
500.598	0.09	1001196	keystroke	c	n/a
500.703	0.135	1001406	keystroke	o	n/a
500.793	0.09	1001586	keystroke	n	n/a
500.913	0.09	1001826	keystroke	d	n/a
501.048	0.06	1002096	keystroke	u	n/a
501.168	0.12	1002336	keystroke	c	n/a
501.333	0.075	1002666	keystroke	t	n/a
501.453	0.105	1002906	keystroke	o	n/a
501.573	0.09	1003146	keystroke	r	n/a
501.843	0.105	1003686	keystroke	Key.space	n/a
502.068	0.105	1004136	keystroke	f	n/a
502.158	0.15	1004316	keystroke	a	n/a
502.353	0.075	1004706	keystroke	l	n/a
502.518	0.075	1005036	keystroke	l	n/a
502.683	0.105	1005366	keystroke	Key.space	n/a
503.388	0.09	1006776	keystroke	n	n/a
503.493	0.135	1006986	keystroke	o	n/a
503.658	0.12	1007316	keystroke	w	n/a
504.813	0.075	1009626	keystroke	h	n/a
505.128	0.12	1010256	keystroke	e	n/a
505.323	0.12	1010646	keystroke	r	n/a
505.578	0.075	1011156	keystroke	e	n/a
506.448	0.105	1012896	keystroke	Key.enter	n/a
506.5605	12.9555	1013121	prompt	n/a	norton command dale obvious\n
507.168	0.076	1014336	keystroke	n	n/a
507.273	0.15	1014546	keystroke	o	n/a
507.393	0.075	1014786	keystroke	r	n/a
507.603	0.075	1015206	keystroke	t	n/a
507.708	0.135	1015416	keystroke	o	n/a
507.798	0.105	1015596	keystroke	n	n/a
507.933	0.12	1015866	keystroke	Key.space	n/a
508.428	0.105	1016856	keystroke	c	n/a
509.793	0.09	1019586	keystroke	o	n/a
509.988	0.106	1019976	keystroke	m	n/a
510.168	0.135	1020336	keystroke	a	n/a
510.963	0.12	1021926	keystroke	Key.backspace	n/a
511.218	0.075	1022436	keystroke	m	n/a
511.338	0.12	1022676	keystroke	a	n/a
511.443	0.075	1022886	keystroke	n	n/a
511.578	0.105	1023156	keystroke	d	n/a
511.728	0.12	1023456	keystroke	Key.space	n/a
512.178	0.135	1024356	keystroke	d	n/a
512.298	0.15	1024596	keystroke	a	n/a
512.553	0.12	1025106	keystroke	l	n/a
512.688	0.09	1025376	keystroke	e	n/a
512.838	0.105	1025676	keystroke	Key.space	n/a
513.678	0.105	1027356	keystroke	o	n/a
514.833	0.075	1029666	keystroke	b	n/a
516.0325	0.09	1032065	keystroke	v	n/a
516.1685	0.089	1032337	keystroke	i	n/a
516.3775	0.136	1032755	keystroke	o	n/a
516.5285	0.1045	1033057	keystroke	u	n/a
517.2035	0.104	1034407	keystroke	s	n/a
519.4715	0.041	1038943	keystroke	Key.enter	n/a
519.522	11.978	1039044	prompt	n/a	responses occurrence holes licking\n
520.2025	0.135	1040405	keystroke	r	n/a
520.2785	0.104	1040557	keystroke	e	n/a
520.4885	0.12	1040977	keystroke	s	n/a
520.6835	0.089	1041367	keystroke	p	n/a
520.8325	0.195	1041665	keystroke	o	n/a
521.0585	0.09	1042117	keystroke	i	n/a
522.1225	0.06	1044245	keystroke	Key.backspace	n/a
522.3325	0.09	1044665	keystroke	n	n/a
522.4975	0.196	1044995	keystroke	s	n/a
522.6485	0.089	1045297	keystroke	e	n/a
522.8585	0.134	1045717	keystroke	s	n/a
523.0675	0.106	1046135	keystroke	Key.space	n/a
523.9535	0.119	1047907	keystroke	o	n/a
524.1325	0.061	1048265	keystroke	c	n/a
524.2825	0.105	1048565	keystroke	c	n/a
524.5535	0.015	1049107	keystroke	u	n/a
524.6725	0.121	1049345	keystroke	r	n/a
525.0475	0.091	1050095	keystroke	e	n/a
525.5425	0.15	1051085	keystroke	Key.backspace	n/a
525.7835	0.104	1051567	keystroke	r	n/a
525.9925	0.105	1051985	keystroke	e	n/a
526.6375	0.09	1053275	keystroke	n	n/a
526.7735	0.059	1053547	keystroke	c	n/a
526.9375	0.075	1053875	keystroke	e	n/a
527.1175	0.105	1054235	keystroke	Key.space	n/a
528.3485	0.105	1056697	keystroke	h	n/a
528.5585	0.089	1057117	keystroke	o	n/a
528.7535	0.104	1057507	keystroke	l	n/a
528.9025	0.06	1057805	keystroke	e	n/a
529.0975	0.121	1058195	keystroke	s	n/a
529.2925	0.105	1058585	keystroke	Key.space	n/a
530.0875	0.09	1060175	keystroke	l	n/a
530.2835	0.06	1060567	keystroke	i	n/a
530.4025	0.136	1060805	keystroke	c	n/a
530.5235	0.059	1061047	keystroke	k	n/a
530.7035	0.105	1061407	keystroke	i	n/a
530.7625	0.121	1061525	keystroke	n	n/a
530.9575	0.105	1061915	keystroke	g	n/a
531.3935	0.104	1062787	keystroke	Key.enter	n/a
531.505	14.005	1063010	prompt	n/a	farms books utah judgment\n
532.2625	0.121	1064525	keystroke	f	n/a
532.3975	0.166	1064795	keystroke	a	n/a
532.5485	0.089	1065097	keystroke	m	n/a
532.6685	0.09	1065337	keystroke	r	n/a
534.5435	0.104	1069087	keystroke	Key.backspace	n/a
534.7975	0.105	1069595	keystroke	Key.backspace	n/a
535.0985	0.12	1070197	keystroke	r	n/a
535.3685	0.105	1070737	keystroke	s	n/a
535.9825	0.09	1071965	keystroke	Key.backspace	n/a
536.3135	0.06	1072627	keystroke	m	n/a
536.4935	0.12	1072987	keystroke	s	n/a
536.6885	0.105	1073377	keystroke	Key.space	n/a
537.5585	0.074	1075117	keystroke	b	n/a
537.7685	0.059	1075537	keystroke	o	n/a
537.9185	0.06	1075837	keystroke	o	n/a
538.0685	0.09	1076137	keystroke	k	n/a
538.2185	0.134	1076437	keystroke	s	n/a
538.3675	0.09	1076735	keystroke	Key.space	n/a
538.5335	0.06	1077067	keystroke	u	n/a
538.6985	0.105	1077397	keystroke	t	n/a
538.8185	0.135	1077637	keystroke	a	n/a
538.9835	0.075	1077967	keystroke	h	n/a
539.1625	0.106	1078325	keystroke	Key.space	n/a
540.4535	0.075	1080907	keystroke	j	n/a
540.6935	0.06	1081387	keystroke	u	n/a
540.9635	0.075	1081927	keystroke	d	n/a
541.1735	0.09	1082347	keystroke	g	n/a
541.2935	0.105	1082587	keystroke	e	n/a
543.1235	0.12	1086247	keystroke	Key.backspace	n/a
544.0985	0.09	1088197	keystroke	m	n/a
544.2035	0.12	1088407	keystroke	e	n/a
544.3385	0.09	1088677	keystroke	n	n/a
544.4435	0.09	1088887	keystroke	t	n/a
545.4185	0.09	1090837	keystroke	Key.enter	n/a
545.515	5.7255	1091030	prompt	n/a	hash dependence mayor jacket\n
546.3035	0.075	1092607	keystroke	h	n/a
546.4085	0.105	1092817	keystroke	a	n/a
546.6035	0.15	1093207	keystroke	s	n/a
546.7385	0.075	1093477	keystroke	h	n/a
546.8585	0.165	1093717	keystroke	Key.space	n/a
547.2485	0.075	1094497	keystroke	d	n/a
547.4285	0.075	1094857	keystroke	e	n/a
547.6835	0.12	1095367	keystroke	p	n/a
547.8335	0.075	1095667	keystroke	e	n/a
548.0135	0.075	1096027	keystroke	n	n/a
548.1185	0.075	1096237	keystroke	d	n/a
548.2985	0.06	1096597	keystroke	e	n/a
548.4335	0.075	1096867	keystroke	n	n/a
548.5535	0.06	1097107	keystroke	c	n/a
548.7185	0.09	1097437	keystroke	e	n/a
548.8235	0.12	1097647	keystroke	Key.space	n/a
549.0485	0.09	1098097	keystroke	m	n/a
549.2735	0.15	1098547	keystroke	a	n/a
549.4835	0.06	1098967	keystroke	y	n/a
549.6635	0.09	1099327	keystroke	o	n/a
549.8135	0.09	1099627	keystroke	r	n/a
549.9485	0.105	1099897	keystroke	Key.space	n/a
550.1585	0.09	1100317	keystroke	j	n/a
550.2935	0.09	1100587	keystroke	a	n/a
550.4885	0.105	1100977	keystroke	c	n/a
550.6085	0.105	1101217	keystroke	k	n/a
550.6985	0.12	1101397	keystroke	e	n/a
550.8635	0.09	1101727	keystroke	t	n/a
551.1485	0.09	1102297	keystroke	Key.enter	n/a
551.245	8.05	1102490	prompt	n/a	licensed elder allan basket\n
551.9135	0.075	1103827	keystroke	l	n/a
552.1235	0.06	1104247	keystroke	i	n/a
552.3035	0.075	1104607	keystroke	c	n/a
552.4685	0.06	1104937	keystroke	e	n/a
552.6035	0.075	1105207	keystroke	n	n/a
552.7235	0.15	1105447	keystroke	s	n/a
552.8285	0.075	1105657	keystroke	e	n/a
553.0085	0.12	1106017	keystroke	d	n/a
553.1435	0.09	1106287	keystroke	Key.space	n/a
553.5785	0.09	1107157	keystroke	e	n/a
553.7735	0.12	1107547	keystroke	l	n/a
553.9085	0.045	1107817	keystroke	d	n/a
554.0735	0.135	1108147	keystroke	e	n/a
554.1485	0.12	1108297	keystroke	r	n/a
554.3135	0.105	1108627	keystroke	Key.space	n/a
554.5535	0.12	1109107	keystroke	a	n/a
554.6745	0.074	1109349	keystroke	l	n/a
554.8235	0.105	1109647	keystroke	l	n/a
554.9735	0.15	1109947	keystroke	a	n/a
555.1235	0.075	1110247	keystroke	n	n/a
555.2735	0.105	1110547	keystroke	Key.space	n/a
556.3085	0.075	1112617	keystroke	b	n/a
556.4435	0.105	1112887	keystroke	a	n/a
556.6385	0.12	1113277	keystroke	s	n/a
556.8635	0.12	1113727	keystroke	k	n/a
556.9985	0.0895	1113997	keystroke	e	n/a
557.0585	0.045	1114117	keystroke	k	n/a
558.243	0.105	1116486	keystroke	Key.backspace	n/a
558.423	0.06	1116846	keystroke	t	n/a
559.2035	0.0895	1118407	keystroke	Key.enter	n/a
559.299	7.481	1118598	prompt	n/a	replacing alice argued front\n
559.968	0.15	1119936	keystroke	r	n/a
560.073	0.105	1120146	keystroke	e	n/a
560.3285	0.075	1120657	keystroke	p	n/a
560.553	0.105	1121106	keystroke	l	n/a
560.628	0.105	1121256	keystroke	a	n/a
560.898	0.12	1121796	keystroke	c	n/a
560.988	0.15	1121976	keystroke	i	n/a
561.078	0.105	1122156	keystroke	n	n/a
561.198	0.15	1122396	keystroke	g	n/a
561.303	0.105	1122606	keystroke	Key.space	n/a
561.678	0.12	1123356	keystroke	a	n/a
561.8885	0.0895	1123777	keystroke	l	n/a
562.053	0.12	1124106	keystroke	i	n/a
562.443	0.075	1124886	keystroke	c	n/a
562.653	0.06	1125306	keystroke	e	n/a
562.788	0.105	1125576	keystroke	Key.space	n/a
563.508	0.165	1127016	keystroke	a	n/a
563.883	0.135	1127766	keystroke	r	n/a
564.858	0.135	1129716	keystroke	g	n/a
565.023	0.075	1130046	keystroke	u	n/a
565.143	0.075	1130286	keystroke	e	n/a
565.353	0.075	1130706	keystroke	d	n/a
565.473	0.105	1130946	keystroke	Key.space	n/a
565.653	0.09	1131306	keystroke	f	n/a
565.938	0.105	1131876	keystroke	r	n/a
566.058	0.135	1132116	keystroke	o	n/a
566.178	0.105	1132356	keystroke	n	n/a
566.328	0.075	1132656	keystroke	t	n/a
566.703	0.075	1133406	keystroke	Key.enter	n/a
566.7835	9.807	1133567	prompt	n/a	subjective considering unemployment logs\n
567.528	0.12	1135056	keystroke	s	n/a
567.678	0.045	1135356	keystroke	u	n/a
567.873	0.06	1135746	keystroke	b	n/a
568.083	0.06	1136166	keystroke	j	n/a
568.218	0.06	1136436	keystroke	e	n/a
568.443	0.165	1136886	keystroke	c	n/a
568.623	0.075	1137246	keystroke	t	n/a
568.743	0.12	1137486	keystroke	i	n/a
568.908	0.15	1137816	keystroke	v	n/a
569.088	0.135	1138176	keystroke	e	n/a
569.238	0.09	1138476	keystroke	Key.space	n/a
569.463	0.09	1138926	keystroke	c	n/a
570.513	0.12	1141026	keystroke	o	n/a
570.663	0.075	1141326	keystroke	n	n/a
570.918	0.12	1141836	keystroke	s	n/a
571.038	0.075	1142076	keystroke	i	n/a
571.878	0.06	1143756	keystroke	d	n/a
572.058	0.135	1144116	keystroke	e	n/a
572.118	0.12	1144236	keystroke	r	n/a
572.373	0.105	1144746	keystroke	i	n/a
572.448	0.105	1144896	keystroke	n	n/a
572.598	0.165	1145196	keystroke	g	n/a
572.748	0.12	1145496	keystroke	Key.space	n/a
573.108	0.045	1146216	keystroke	u	n/a
573.303	0.075	1146606	keystroke	n	n/a
573.573	0.105	1147146	keystroke	e	n/a
573.693	0.075	1147386	keystroke	m	n/a
573.888	0.045	1147776	keystroke	p	n/a
574.068	0.075	1148136	keystroke	l	n/a
574.248	0.06	1148496	keystroke	o	n/a
574.383	0.06	1148766	keystroke	y	n/a
574.593	0.06	1149186	keystroke	m	n/a
574.683	0.12	1149366	keystroke	e	n/a
574.773	0.09	1149546	keystroke	n	n/a
574.893	0.075	1149786	keystroke	t	n/a
575.028	0.105	1150056	keystroke	Key.space	n/a
575.823	0.075	1151646	keystroke	l	n/a
576.003	0.09	1152006	keystroke	o	n/a
576.108	0.06	1152216	keystroke	g	n/a
576.213	0.135	1152426	keystroke	s	n/a
576.513	0.075	1153026	keystroke	Key.enter	n/a
576.596	8.544	1153192	prompt	n/a	breathing jennifer striking lord\n
577.278	0.075	1154556	keystroke	b	n/a
577.488	0.135	1154976	keystroke	r	n/a
577.563	0.135	1155126	keystroke	e	n/a
577.743	0.15	1155486	keystroke	a	n/a
578.118	0.105	1156236	keystroke	t	n/a
578.193	0.075	1156386	keystroke	h	n/a
578.283	0.105	1156566	keystroke	i	n/a
578.448	0.09	1156896	keystroke	n	n/a
578.613	0.105	1157226	keystroke	g	n/a
578.733	0.12	1157466	keystroke	Key.space	n/a
579.588	0.076	1159176	keystroke	j	n/a
579.753	0.0895	1159506	keystroke	e	n/a
579.963	0.0445	1159926	keystroke	n	n/a
580.1125	0.0605	1160225	keystroke	n	n/a
580.233	0.09	1160466	keystroke	i	n/a
580.6225	0.105	1161245	keystroke	f	n/a
580.848	0.1795	1161696	keystroke	e	n/a
581.013	0.1195	1162026	keystroke	r	n/a
581.253	0.0745	1162506	keystroke	Key.space	n/a
582.708	0.1195	1165416	keystroke	s	n/a
582.888	0.0595	1165776	keystroke	t	n/a
583.0675	0.09	1166135	keystroke	r	n/a
583.1725	0.0455	1166345	keystroke	i	n/a
583.338	0.06	1166676	keystroke	k	n/a
583.488	0.12	1166976	keystroke	i	n/a
583.563	0.1045	1167126	keystroke	n	n/a
583.638	0.1045	1167276	keystroke	g	n/a
583.713	0.1195	1167426	keystroke	Key.space	n/a
583.878	0.075	1167756	keystroke	l	n/a
584.0725	0.1055	1168145	keystroke	o	n/a
584.1925	0.0905	1168385	keystroke	r	n/a
584.4025	0.09	1168805	keystroke	d	n/a
585.0175	0.12	1170035	keystroke	Key.enter	n/a
585.1475	7.2825	1170295	prompt	n/a	exact checklist lists guide\n
585.8135	0.059	1171627	keystroke	e	n/a
586.0375	0.09	1172075	keystroke	x	n/a
586.2325	0.105	1172465	keystroke	a	n/a
586.4875	0.105	1172975	keystroke	c	n/a
586.6825	0.1055	1173365	keystroke	t	n/a
586.8025	0.12	1173605	keystroke	Key.space	n/a
587.5685	0.09	1175137	keystroke	c	n/a
587.6885	0.09	1175377	keystroke	h	n/a
587.7935	0.045	1175587	keystroke	e	n/a
588.1685	0.09	1176337	keystroke	c	n/a
588.3035	0.105	1176607	keystroke	k	n/a
588.6485	0.075	1177297	keystroke	l	n/a
588.8135	0.09	1177627	keystroke	i	n/a
588.8885	0.18	1177777	keystroke	s	n/a
589.0825	0.121	1178165	keystroke	t	n/a
589.1885	0.105	1178377	keystroke	Key.space	n/a
589.893	0.105	1179786	keystroke	l	n/a
590.058	0.105	1180116	keystroke	i	n/a
590.2535	0.15	1180507	keystroke	s	n/a
590.418	0.0905	1180836	keystroke	t	n/a
590.583	0.18	1181166	keystroke	s	n/a
590.7335	0.1195	1181467	keystroke	Key.space	n/a
591.1985	0.1945	1182397	keystroke	g	n/a
591.333	0.075	1182666	keystroke	u	n/a
591.498	0.135	1182996	keystroke	i	n/a
591.723	0.09	1183446	keystroke	d	n/a
591.903	0.09	1183806	keystroke	e	n/a
592.308	0.12	1184616	keystroke	Key.enter	n/a
592.4345	8.576	1184869	prompt	n/a	fell holdings latvia addressed\n
593.118	0.12	1186236	keystroke	f	n/a
593.358	0.09	1186716	keystroke	e	n/a
593.508	0.09	1187016	keystroke	l	n/a
593.658	0.09	1187316	keystroke	l	n/a
593.763	0.135	1187526	keystroke	Key.space	n/a
593.943	0.06	1187886	keystroke	h	n/a
594.078	0.075	1188156	keystroke	o	n/a
594.258	0.105	1188516	keystroke	l	n/a
594.408	0.09	1188816	keystroke	d	n/a
594.528	0.15	1189056	keystroke	i	n/a
594.633	0.105	1189266	keystroke	n	n/a
594.753	0.12	1189506	keystroke	g	n/a
594.963	0.135	1189926	keystroke	s	n/a
595.203	0.135	1190406	keystroke	Key.space	n/a
595.698	0.15	1191396	keystroke	l	n/a
595.968	0.18	1191936	keystroke	a	n/a
596.133	0.09	1192266	keystroke	t	n/a
596.688	0.12	1193376	keystroke	v	n/a
596.898	0.12	1193796	keystroke	i	n/a
597.033	0.165	1194066	keystroke	a	n/a
597.168	0.105	1194336	keystroke	Key.space	n/a
597.423	0.105	1194846	keystroke	a	n/a
597.648	0.06	1195296	keystroke	d	n/a
597.783	0.09	1195566	keystroke	d	n/a
597.978	0.12	1195956	keystroke	r	n/a
598.023	0.135	1196046	keystroke	e	n/a
598.293	0.075	1196586	keystroke	s	n/a
598.428	0.15	1196856	keystroke	s	n/a
598.548	0.075	1197096	keystroke	e	n/a
598.758	0.105	1197516	keystroke	d	n/a
600.951	0.057	1201902	keystroke	Key.enter	n/a
601.016	9.504	1202032	prompt	n/a	segments administered lamp hist\n
601.623	0.135	1203246	keystroke	s	n/a
601.788	0.075	1203576	keystroke	e	n/a
601.998	0.09	1203996	keystroke	g	n/a
602.238	0.06	1204476	keystroke	m	n/a
602.313	0.12	1204626	keystroke	e	n/a
602.433	0.09	1204866	keystroke	n	n/a
602.508	0.075	1205016	keystroke	t	n/a
602.688	0.135	1205376	keystroke	s	n/a
602.883	0.105	1205766	keystroke	Key.space	n/a
603.408	0.12	1206816	keystroke	a	n/a
603.603	0.105	1207206	keystroke	d	n/a
603.768	0.09	1207536	keystroke	m	n/a
603.873	0.09	1207746	keystroke	i	n/a
604.008	0.075	1208016	keystroke	n	n/a
604.158	0.165	1208316	keystroke	s	n/a
606.531	0.027	1213062	keystroke	Key.backspace	n/a
606.663	0.09	1213326	keystroke	i	n/a
607.098	0.135	1214196	keystroke	s	n/a
607.293	0.09	1214586	keystroke	t	n/a
607.413	0.18	1214826	keystroke	e	n/a
607.548	0.105	1215096	keystroke	r	n/a
607.908	0.09	1215816	keystroke	e	n/a
608.133	0.105	1216266	keystroke	d	n/a
608.268	0.15	1216536	keystroke	Key.space	n/a
608.523	0.135	1217046	keystroke	l	n/a
608.673	0.165	1217346	keystroke	a	n/a
608.748	0.105	1217496	keystroke	m	n/a
608.928	0.105	1217856	keystroke	p	n/a
609.288	0.12	1218576	keystroke	Key.space	n/a
609.798	0.06	1219596	keystroke	h	n/a
609.933	0.135	1219866	keystroke	i	n/a
610.053	0.12	1220106	keystroke	s	n/a
610.203	0.075	1220406	keystroke	t	n/a
610.428	0.09	1220856	keystroke	Key.enter	n/a
610.5245	7.811	1221049	prompt	n/a	y'all mail preparing describe\n
611.283	0.075	1222566	keystroke	y	n/a
611.883	0.105	1223766	keystroke	'	n/a
612.093	0.15	1224186	keystroke	a	n/a
612.258	0.09	1224516	keystroke	l	n/a
612.423	0.09	1224846	keystroke	l	n/a
612.558	0.135	1225116	keystroke	Key.space	n/a
612.723	0.075	1225446	keystroke	m	n/a
612.888	0.165	1225776	keystroke	a	n/a
613.008	0.075	1226016	keystroke	i	n/a
613.188	0.09	1226376	keystroke	l	n/a
613.473	0.09	1226946	keystroke	Key.space	n/a
614.268	0.09	1228536	keystroke	p	n/a
614.403	0.135	1228806	keystroke	r	n/a
614.463	0.12	1228926	keystroke	e	n/a
614.658	0.12	1229316	keystroke	p	n/a
614.763	0.165	1229526	keystroke	a	n/a
615.018	0.075	1230036	keystroke	r	n/a
615.123	0.15	1230246	keystroke	i	n/a
615.228	0.105	1230456	keystroke	n	n/a
615.348	0.12	1230696	keystroke	g	n/a
615.498	0.105	1230996	keystroke	Key.space	n/a
615.813	0.06	1231626	keystroke	d	n/a
615.963	0.06	1231926	keystroke	e	n/a
616.233	0.09	1232466	keystroke	s	n/a
616.443	0.09	1232886	keystroke	c	n/a
616.713	0.09	1233426	keystroke	r	n/a
616.788	0.075	1233576	keystroke	i	n/a
617.478	0.09	1234956	keystroke	b	n/a
617.628	0.06	1235256	keystroke	e	n/a
618.228	0.105	1236456	keystroke	Key.enter	n/a
618.34	9.6555	1236680	prompt	n/a	respected involved medicine chick\n
619.158	0.135	1238316	keystroke	r	n/a
619.233	0.105	1238466	keystroke	e	n/a
619.473	0.105	1238946	keystroke	s	n/a
620.223	0.105	1240446	keystroke	p	n/a
620.373	0.075	1240746	keystroke	e	n/a
620.598	0.09	1241196	keystroke	c	n/a
620.748	0.12	1241496	keystroke	t	n/a
620.823	0.12	1241646	keystroke	e	n/a
621.048	0.12	1242096	keystroke	d	n/a
621.153	0.105	1242306	keystroke	Key.space	n/a
621.498	0.075	1242996	keystroke	i	n/a
621.678	0.075	1243356	keystroke	n	n/a
621.798	0.12	1243596	keystroke	v	n/a
621.903	0.075	1243806	keystroke	o	n/a
622.323	0.105	1244646	keystroke	l	n/a
622.473	0.12	1244946	keystroke	v	n/a
622.653	0.105	1245306	keystroke	e	n/a
623.058	0.075	1246116	keystroke	d	n/a
623.193	0.12	1246386	keystroke	Key.space	n/a
623.508	0.09	1247016	keystroke	m	n/a
623.599	0.059	1247198	keystroke	e	n/a
623.778	0.105	1247556	keystroke	d	n/a
623.898	0.09	1247796	keystroke	i	n/a
624.138	0.105	1248276	keystroke	c	n/a
624.273	0.135	1248546	keystroke	i	n/a
624.393	0.06	1248786	keystroke	n	n/a
624.828	0.09	1249656	keystroke	e	n/a
625.008	0.09	1250016	keystroke	Key.space	n/a
626.148	0.12	1252296	keystroke	c	n/a
626.298	0.06	1252596	keystroke	h	n/a
626.373	0.105	1252746	keystroke	i	n/a
627.063	0.12	1254126	keystroke	c	n/a
627.1525	0.0755	1254305	keystroke	k	n/a
627.8875	0.105	1255775	keystroke	Key.enter	n/a
628.0005	9.5645	1256001	prompt	n/a	exhaust forbes bangladesh dial\n
628.653	0.075	1257306	keystroke	e	n/a
628.8925	0.09	1257785	keystroke	x	n/a
629.2375	0.075	1258475	keystroke	h	n/a
629.3425	0.15	1258685	keystroke	a	n/a
629.5225	0.075	1259045	keystroke	u	n/a
629.6575	0.135	1259315	keystroke	s	n/a
629.8525	0.0905	1259705	keystroke	t	n/a
629.9725	0.09	1259945	keystroke	Key.space	n/a
630.2275	0.075	1260455	keystroke	f	n/a
630.3335	0.104	1260667	keystroke	o	n/a
630.4385	0.089	1260877	keystroke	r	n/a
630.6175	0.06	1261235	keystroke	b	n/a
630.7075	0.06	1261415	keystroke	e	n/a
630.8575	0.12	1261715	keystroke	s	n/a
631.0225	0.09	1262045	keystroke	Key.space	n/a
632.0275	0.105	1264055	keystroke	b	n/a
632.0725	0.03	1264145	keystroke	n	n/a
633.0325	0.1355	1266065	keystroke	Key.backspace	n/a
633.723	0.15	1267446	keystroke	a	n/a
634.053	0.09	1268106	keystroke	n	n/a
634.248	0.1055	1268496	keystroke	g	n/a
634.743	0.135	1269486	keystroke	l	n/a
634.893	0.135	1269786	keystroke	a	n/a
635.793	0.06	1271586	keystroke	d	n/a
635.943	0.03	1271886	keystroke	e	n/a
636.108	0.105	1272216	keystroke	s	n/a
636.183	0.09	1272366	keystroke	h	n/a
636.288	0.105	1272576	keystroke	Key.space	n/a
636.543	0.09	1273086	keystroke	d	n/a
636.648	0.105	1273296	keystroke	i	n/a
636.768	0.15	1273536	keystroke	a	n/a
636.873	0.12	1273746	keystroke	l	n/a
637.458	0.105	1274916	keystroke	Key.enter	n/a
637.569	5.186	1275138	prompt	n/a	scout panic bucks meet\n
638.208	0.105	1276416	keystroke	s	n/a
638.448	0.12	1276896	keystroke	c	n/a
638.553	0.12	1277106	keystroke	o	n/a
638.658	0.075	1277316	keystroke	u	n/a
638.763	0.135	1277526	keystroke	t	n/a
638.868	0.105	1277736	keystroke	Key.space	n/a
639.168	0.075	1278336	keystroke	p	n/a
639.318	0.105	1278636	keystroke	a	n/a
639.588	0.06	1279176	keystroke	n	n/a
639.678	0.12	1279356	keystroke	i	n/a
639.828	0.09	1279656	keystroke	c	n/a
639.948	0.105	1279896	keystroke	Key.space	n/a
640.158	0.06	1280316	keystroke	b	n/a
640.353	0.06	1280706	keystroke	u	n/a
641.373	0.105	1282746	keystroke	c	n/a
641.523	0.09	1283046	keystroke	k	n/a
641.628	0.12	1283256	keystroke	s	n/a
641.793	0.105	1283586	keystroke	Key.space	n/a
642.018	0.0905	1284036	keystroke	m	n/a
642.138	0.075	1284276	keystroke	e	n/a
642.288	0.105	1284576	keystroke	e	n/a
642.453	0.075	1284906	keystroke	t	n/a
642.663	0.09	1285326	keystroke	Key.enter	n/a
642.7595	8.74	1285519	prompt	n/a	uploaded photographs functional general\n
643.638	0.06	1287276	keystroke	u	n/a
643.788	0.075	1287576	keystroke	p	n/a
643.983	0.06	1287966	keystroke	l	n/a
644.148	0.09	1288296	keystroke	o	n/a
644.223	0.12	1288446	keystroke	a	n/a
644.418	0.06	1288836	keystroke	d	n/a
644.553	0.06	1289106	keystroke	e	n/a
644.733	0.12	1289466	keystroke	d	n/a
644.838	0.12	1289676	keystroke	Key.space	n/a
645.018	0.075	1290036	keystroke	p	n/a
645.198	0.045	1290396	keystroke	h	n/a
645.303	0.105	1290606	keystroke	o	n/a
645.468	0.075	1290936	keystroke	t	n/a
645.558	0.12	1291116	keystroke	o	n/a
645.738	0.06	1291476	keystroke	g	n/a
645.918	0.09	1291836	keystroke	r	n/a
645.978	0.165	1291956	keystroke	a	n/a
646.203	0.09	1292406	keystroke	p	n/a
646.383	0.075	1292766	keystroke	h	n/a
646.503	0.135	1293006	keystroke	s	n/a
646.758	0.075	1293516	keystroke	Key.space	n/a
647.553	0.045	1295106	keystroke	f	n/a
648.168	0.06	1296336	keystroke	u	n/a
648.408	0.06	1296816	keystroke	n	n/a
648.543	0.12	1297086	keystroke	c	n/a
648.813	0.12	1297626	keystroke	t	n/a
648.948	0.09	1297896	keystroke	i	n/a
649.068	0.18	1298136	keystroke	o	n/a
649.173	0.12	1298346	keystroke	n	n/a
649.323	0.15	1298646	keystroke	a	n/a
649.443	0.105	1298886	keystroke	l	n/a
649.593	0.12	1299186	keystroke	Key.space	n/a
649.908	0.075	1299816	keystroke	g	n/a
650.043	0.12	1300086	keystroke	e	n/a
650.223	0.105	1300446	keystroke	n	n/a
650.313	0.135	1300626	keystroke	e	n/a
650.463	0.165	1300926	keystroke	r	n/a
650.613	0.15	1301226	keystroke	a	n/a
650.793	0.15	1301586	keystroke	l	n/a
651.393	0.105	1302786	keystroke	Key.enter	n/a
651.5035	6.7165	1303007	prompt	n/a	arabia organized panama life\n
652.293	0.18	1304586	keystroke	a	n/a
652.563	0.135	1305126	keystroke	r	n/a
652.683	0.165	1305366	keystroke	a	n/a
652.833	0.06	1305666	keystroke	b	n/a
652.968	0.105	1305936	keystroke	i	n/a
653.103	0.18	1306206	keystroke	a	n/a
653.238	0.105	1306476	keystroke	Key.space	n/a
653.553	0.12	1307106	keystroke	o	n/a
653.658	0.09	1307316	keystroke	r	n/a
654.378	0.105	1308756	keystroke	g	n/a
654.573	0.135	1309146	keystroke	a	n/a
654.963	0.075	1309926	keystroke	n	n/a
655.053	0.15	1310106	keystroke	i	n/a
655.204	0.179	1310408	keystroke	z	n/a
655.368	0.075	1310736	keystroke	e	n/a
655.548	0.15	1311096	keystroke	d	n/a
655.683	0.12	1311366	keystroke	Key.space	n/a
655.863	0.105	1311726	keystroke	p	n/a
656.028	0.12	1312056	keystroke	a	n/a
656.118	0.075	1312236	keystroke	n	n/a
656.298	0.135	1312596	keystroke	a	n/a
656.868	0.075	1313736	keystroke	m	n/a
656.973	0.135	1313946	keystroke	a	n/a
657.153	0.09	1314306	keystroke	Key.space	n/a
657.363	0.105	1314726	keystroke	l	n/a
657.513	0.12	1315026	keystroke	i	n/a
657.648	0.135	1315296	keystroke	f	n/a
657.723	0.135	1315446	keystroke	e	n/a
658.128	0.09	1316256	keystroke	Key.enter	n/a
658.224	8.411	1316448	prompt	n/a	second uncle eval oughtn't\n
658.893	0.105	1317786	keystroke	s	n/a
659.118	0.06	1318236	keystroke	e	n/a
659.343	0.105	1318686	keystroke	c	n/a
659.433	0.135	1318866	keystroke	o	n/a
659.538	0.105	1319076	keystroke	n	n/a
659.718	0.15	1319436	keystroke	d	n/a
659.838	0.12	1319676	keystroke	Key.space	n/a
660.078	0.045	1320156	keystroke	u	n/a
660.258	0.06	1320516	keystroke	n	n/a
660.378	0.075	1320756	keystroke	c	n/a
660.498	0.09	1320996	keystroke	l	n/a
660.618	0.06	1321236	keystroke	e	n/a
660.783	0.105	1321566	keystroke	Key.space	n/a
661.473	0.0745	1322946	keystroke	e	n/a
661.6825	0.15	1323365	keystroke	v	n/a
661.773	0.1645	1323546	keystroke	a	n/a
661.953	0.12	1323906	keystroke	l	n/a
662.0575	0.105	1324115	keystroke	Key.space	n/a
662.2975	0.1055	1324595	keystroke	o	n/a
662.433	0.09	1324866	keystroke	u	n/a
662.6125	0.075	1325225	keystroke	g	n/a
662.7475	0.1055	1325495	keystroke	h	n/a
662.868	0.0895	1325736	keystroke	t	n/a
