onset	duration	sample	value	key	prompt_text
3.278	21.216	6556	prompt	n/a	the quick brown fox jumps over a lazy dog\n
9.689	0.013	19378	keystroke	t	n/a
9.717	0.09	19434	keystroke	h	n/a
9.897	0.075	19794	keystroke	e	n/a
10.047	0.09	20094	keystroke	Key.space	n/a
10.6615	0.09	21323	keystroke	q	n/a
10.8715	0.075	21743	keystroke	u	n/a
11.111	0.0755	22222	keystroke	i	n/a
11.412	0.06	22824	keystroke	c	n/a
11.532	0.075	23064	keystroke	k	n/a
11.7565	0.0755	23513	keystroke	Key.space	n/a
12.312	0.075	24624	keystroke	b	n/a
12.567	0.075	25134	keystroke	r	n/a
12.732	0.09	25464	keystroke	o	n/a
12.912	0.075	25824	keystroke	w	n/a
13.1665	0.12	26333	keystroke	n	n/a
13.4515	0.105	26903	keystroke	Key.space	n/a
15.3565	0.09	30713	keystroke	f	n/a
15.6415	0.06	31283	keystroke	o	n/a
15.9265	0.105	31853	keystroke	x	n/a
16.0765	0.075	32153	keystroke	Key.space	n/a
16.3615	0.09	32723	keystroke	j	n/a
16.6615	0.075	33323	keystroke	u	n/a
16.8565	0.105	33713	keystroke	m	n/a
17.156	0.075	34312	keystroke	o	n/a
17.8615	0.0745	35723	keystroke	Key.backspace	n/a
18.387	0.089	36774	keystroke	p	n/a
18.5815	0.075	37163	keystroke	s	n/a
18.7315	0.1055	37463	keystroke	Key.space	n/a
19.242	0.09	38484	keystroke	o	n/a
19.557	0.06	39114	keystroke	b	n/a
20.4715	0.09	40943	keystroke	Key.backspace	n/a
20.862	0.075	41724	keystroke	v	n/a
21.1315	0.105	42263	keystroke	e	n/a
21.3565	0.075	42713	keystroke	r	n/a
21.4915	0.09	42983	keystroke	Key.space	n/a
21.852	0.1045	43704	keystroke	a	n/a
22.032	0.09	44064	keystroke	Key.space	n/a
22.287	0.075	44574	keystroke	l	n/a
22.4515	0.09	44903	keystroke	a	n/a
22.767	0.135	45534	keystroke	z	n/a
22.917	0.105	45834	keystroke	y	n/a
23.1565	0.12	46313	keystroke	Key.space	n/a
23.4575	0.104	46915	keystroke	d	n/a
23.6065	0.0905	47213	keystroke	o	n/a
23.846	0.0905	47692	keystroke	g	n/a
24.4165	0.075	48833	keystroke	Key.enter	n/a
24.499	14.6045	48998	prompt	n/a	specified rather decorative borough\n
25.242	0.09	50484	keystroke	s	n/a
25.422	0.09	50844	keystroke	p	n/a
25.6465	0.09	51293	keystroke	e	n/a
26.0065	0.105	52013	keystroke	c	n/a
26.2615	0.075	52523	keystroke	i	n/a
26.7715	0.015	53543	keystroke	f	n/a
26.9665	0.06	53933	keystroke	i	n/a
27.1915	0.09	54383	keystroke	e	n/a
27.4615	0.1205	54923	keystroke	d	n/a
27.807	0.09	55614	keystroke	Key.space	n/a
28.422	0.06	56844	keystroke	r	n/a
28.767	0.12	57534	keystroke	a	n/a
29.172	0.09	58344	keystroke	t	n/a
29.307	0.06	58614	keystroke	h	n/a
29.487	0.105	58974	keystroke	e	n/a
29.682	0.075	59364	keystroke	r	n/a
29.862	0.105	59724	keystroke	Key.space	n/a
30.297	0.12	60594	keystroke	d	n/a
30.5815	0.06	61163	keystroke	e	n/a
30.8665	0.105	61733	keystroke	c	n/a
31.0465	0.075	62093	keystroke	o	n/a
31.7215	0.135	63443	keystroke	r	n/a
32.0665	0.1205	64133	keystroke	a	n/a
32.591	0.046	65182	keystroke	t	n/a
33.057	0.075	66114	keystroke	i	n/a
33.3115	0.1355	66623	keystroke	v	n/a
33.672	0.105	67344	keystroke	e	n/a
33.9265	0.09	67853	keystroke	Key.space	n/a
34.3165	0.105	68633	keystroke	b	n/a
34.7215	0.06	69443	keystroke	o	n/a
34.9165	0.09	69833	keystroke	r	n/a
35.547	0.0895	71094	keystroke	o	n/a
35.9365	0.0905	71873	keystroke	u	n/a
36.552	0.015	73104	keystroke	g	n/a
36.897	0.075	73794	keystroke	h	n/a
39.089	0.013	78178	keystroke	Key.enter	n/a
39.107	20.577	78214	prompt	n/a	sells gazette burning nuclear\n
39.867	0.12	79734	keystroke	s	n/a
40.557	0.12	81114	keystroke	e	n/a
41.067	0.075	82134	keystroke	k	n/a
41.217	0.09	82434	keystroke	k	n/a
41.727	0.0445	83454	keystroke	s	n/a
42.8815	0.075	85763	keystroke	Key.backspace	n/a
43.3015	0.105	86603	keystroke	Key.backspace	n/a
43.8265	0.09	87653	keystroke	Key.backspace	n/a
44.6665	0.075	89333	keystroke	l	n/a
44.8315	0.09	89663	keystroke	l	n/a
45.3865	0.09	90773	keystroke	s	n/a
46.017	0.09	92034	keystroke	Key.space	n/a
46.3315	0.0905	92663	keystroke	g	n/a
46.5565	0.135	93113	keystroke	a	n/a
47.0225	0.1495	94045	keystroke	z	n/a
47.637	0.0895	95274	keystroke	e	n/a
48.1465	0.061	96293	keystroke	t	n/a
48.432	0.09	96864	keystroke	t	n/a
48.747	0.105	97494	keystroke	e	n/a
49.2265	0.09	98453	keystroke	Key.space	n/a
50.4115	0.075	100823	keystroke	b	n/a
50.6365	0.075	101273	keystroke	u	n/a
50.9065	0.075	101813	keystroke	r	n/a
51.0865	0.09	102173	keystroke	n	n/a
51.2965	0.09	102593	keystroke	i	n/a
51.4915	0.075	102983	keystroke	n	n/a
51.7315	0.075	103463	keystroke	g	n/a
53.742	0.09	107484	keystroke	Key.space	n/a
54.102	0.06	108204	keystroke	n	n/a
54.402	0.06	108804	keystroke	y	n/a
54.687	0.09	109374	keystroke	c	n/a
55.317	0.105	110634	keystroke	Key.backspace	n/a
55.6765	0.075	111353	keystroke	Key.backspace	n/a
56.2765	0.09	112553	keystroke	u	n/a
56.6975	0.075	113395	keystroke	c	n/a
57.8675	0.089	115735	keystroke	l	n/a
58.3915	0.075	116783	keystroke	e	n/a
58.6165	0.1355	117233	keystroke	a	n/a
58.917	0.12	117834	keystroke	r	n/a
59.562	0.1205	119124	keystroke	Key.enter	n/a
59.687	13.677	119374	prompt	n/a	goal wouldn't hardly contemporary\n
60.477	0.075	120954	keystroke	g	n/a
60.702	0.09	121404	keystroke	o	n/a
61.077	0.105	122154	keystroke	a	n/a
61.347	0.09	122694	keystroke	l	n/a
61.767	0.15	123534	keystroke	Key.space	n/a
62.217	0.09	124434	keystroke	w	n/a
62.337	0.105	124674	keystroke	o	n/a
62.622	0.09	125244	keystroke	u	n/a
63.3715	0.075	126743	keystroke	l	n/a
63.6715	0.075	127343	keystroke	d	n/a
64.227	0.09	128454	keystroke	n	n/a
64.737	0.09	129474	keystroke	'	n/a
64.932	0.09	129864	keystroke	t	n/a
65.2315	0.1205	130463	keystroke	Key.space	n/a
65.8175	0.09	131635	keystroke	h	n/a
66.0575	0.135	132115	keystroke	a	n/a
66.4175	0.075	132835	keystroke	r	n/a
66.7025	0.105	133405	keystroke	d	n/a
66.9875	0.135	133975	keystroke	l	n/a
67.3775	0.045	134755	keystroke	y	n/a
68.2475	0.09	136495	keystroke	Key.space	n/a
68.712	0.12	137424	keystroke	c	n/a
68.892	0.09	137784	keystroke	o	n/a
69.117	0.09	138234	keystroke	n	n/a
69.357	0.105	138714	keystroke	t	n/a
69.747	0.09	139494	keystroke	e	n/a
70.0615	0.09	140123	keystroke	m	n/a
70.7215	0.105	141443	keystroke	p	n/a
70.9465	0.12	141893	keystroke	o	n/a
71.337	0.09	142674	keystroke	r	n/a
71.787	0.03	143574	keystroke	a	n/a
72.132	0.135	144264	keystroke	r	n/a
72.612	0.06	145224	keystroke	y	n/a
73.2715	0.09	146543	keystroke	Key.enter	n/a
73.367	24.2515	146734	prompt	n/a	expect pursuant entries directories\n
74.187	0.09	148374	keystroke	e	n/a
74.577	0.15	149154	keystroke	x	n/a
74.997	0.1055	149994	keystroke	p	n/a
75.2665	0.09	150533	keystroke	e	n/a
75.5815	0.12	151163	keystroke	c	n/a
75.9565	0.075	151913	keystroke	t	n/a
76.182	0.12	152364	keystroke	Key.space	n/a
76.5275	0.105	153055	keystroke	p	n/a
76.7825	0.0895	153565	keystroke	u	n/a
77.097	0.1045	154194	keystroke	s	n/a
77.577	0.1355	155154	keystroke	a	n/a
78.537	0.105	157074	keystroke	Key.backspace	n/a
78.972	0.09	157944	keystroke	Key.backspace	n/a
79.2865	0.09	158573	keystroke	r	n/a
80.202	0.09	160404	keystroke	s	n/a
80.622	0.075	161244	keystroke	u	n/a
80.877	0.0905	161754	keystroke	a	n/a
81.0575	0.0595	162115	keystroke	n	n/a
81.357	0.09	162714	keystroke	t	n/a
81.552	0.09	163104	keystroke	Key.space	n/a
82.077	0.045	164154	keystroke	e	n/a
82.467	0.105	164934	keystroke	v	n/a
83.3225	0.135	166645	keystroke	Key.backspace	n/a
83.7425	0.06	167485	keystroke	n	n/a
83.8175	0.075	167635	keystroke	n	n/a
84.8075	0.075	169615	keystroke	Key.backspace	n/a
85.1975	0.075	170395	keystroke	t	n/a
85.8725	0.105	171745	keystroke	r	n/a
86.1125	0.105	172225	keystroke	e	n/a
86.5625	0.06	173125	keystroke	i	n/a
87.8815	0.12	175763	keystroke	Key.backspace	n/a
88.4815	0.105	176963	keystroke	Key.backspace	n/a
90.117	0.06	180234	keystroke	i	n/a
90.297	0.075	180594	keystroke	e	n/a
90.5075	0.075	181015	keystroke	s	n/a
90.8815	0.105	181763	keystroke	Key.space	n/a
91.3615	0.075	182723	keystroke	d	n/a
91.9615	0.046	183923	keystroke	i	n/a
92.0665	0.105	184133	keystroke	r	n/a
92.6375	0.044	185275	keystroke	e	n/a
93.4015	0.09	186803	keystroke	c	n/a
93.7915	0.105	187583	keystroke	t	n/a
94.6475	0.09	189295	keystroke	o	n/a
95.3365	0.015	190673	keystroke	r	n/a
95.8765	0.045	191753	keystroke	i	n/a
96.042	0.075	192084	keystroke	e	n/a
96.402	0.09	192804	keystroke	s	n/a
97.5265	0.09	195053	keystroke	Key.enter	n/a
97.6215	28.693	195243	prompt	n/a	stat buyer so're allah\n
98.4115	0.105	196823	keystroke	s	n/a
98.772	0.06	197544	keystroke	t	n/a
99.237	0.105	198474	keystroke	a	n/a
99.687	0.075	199374	keystroke	t	n/a
100.032	0.105	200064	keystroke	Key.space	n/a
100.722	0.0895	201444	keystroke	b	n/a
100.8725	0.089	201745	keystroke	y	n/a
101.4415	0.12	202883	keystroke	Key.backspace	n/a
102.057	0.06	204114	keystroke	u	n/a
102.252	0.075	204504	keystroke	y	n/a
102.492	0.135	204984	keystroke	e	n/a
102.987	0.09	205974	keystroke	r	n/a
103.347	0.165	206694	keystroke	Key.space	n/a
103.647	0.105	207294	keystroke	s	n/a
103.797	0.075	207594	keystroke	o	n/a
104.112	0.1055	208224	keystroke	r	n/a
104.5775	0.12	209155	keystroke	'	n/a
105.8515	0.12	211703	keystroke	Key.backspace	n/a
106.3465	0.09	212693	keystroke	Key.backspace	n/a
107.112	0.045	214224	keystroke	Key.space	n/a
107.9215	0.105	215843	keystroke	;	n/a
108.297	0.09	216594	keystroke	r	n/a
109.137	0.09	218274	keystroke	Key.backspace	n/a
109.557	0.0905	219114	keystroke	Key.backspace	n/a
110.2025	0.105	220405	keystroke	;	n/a
110.9965	0.12	221993	keystroke	Key.backspace	n/a
112.6925	0.089	225385	keystroke	'	n/a
112.962	0.105	225924	keystroke	r	n/a
113.172	0.09	226344	keystroke	e	n/a
113.9965	0.105	227993	keystroke	Key.space	n/a
114.552	0.105	229104	keystroke	a	n/a
116.427	0.105	232854	keystroke	Key.backspace	n/a
117.117	0.105	234234	keystroke	Key.backspace	n/a
117.7175	0.119	235435	keystroke	Key.backspace	n/a
118.3765	0.135	236753	keystroke	Key.backspace	n/a
118.9765	0.09	237953	keystroke	Key.backspace	n/a
119.5915	0.09	239183	keystroke	Key.backspace	n/a
121.542	0.105	243084	keystroke	'	n/a
121.8875	0.09	243775	keystroke	r	n/a
122.4875	0.06	244975	keystroke	e	n/a
123.057	0.0755	246114	keystroke	Key.space	n/a
123.312	0.09	246624	keystroke	a	n/a
123.522	0.075	247044	keystroke	l	n/a
123.687	0.075	247374	keystroke	l	n/a
124.332	0.105	248664	keystroke	s	n/a
124.977	0.075	249954	keystroke	Key.backspace	n/a
125.3825	0.105	250765	keystroke	a	n/a
125.547	0.0755	251094	keystroke	h	n/a
126.2225	0.09	252445	keystroke	Key.enter	n/a
126.3175	27.5065	252635	prompt	n/a	chemistry satisfy regulated macintosh\n
127.212	0.105	254424	keystroke	c	n/a
127.362	0.075	254724	keystroke	h	n/a
127.542	0.075	255084	keystroke	e	n/a
127.707	0.105	255414	keystroke	m	n/a
128.022	0.075	256044	keystroke	i	n/a
128.172	0.12	256344	keystroke	s	n/a
128.502	0.075	257004	keystroke	t	n/a
128.637	0.105	257274	keystroke	y	n/a
128.892	0.105	257784	keystroke	r	n/a
129.4765	0.105	258953	keystroke	Key.backspace	n/a
129.8515	0.075	259703	keystroke	Key.backspace	n/a
130.2275	0.09	260455	keystroke	r	n/a
130.3775	0.06	260755	keystroke	y	n/a
130.9175	0.075	261835	keystroke	Key.space	n/a
131.5175	0.105	263035	keystroke	s	n/a
131.7725	0.12	263545	keystroke	a	n/a
132.3275	0.03	264655	keystroke	t	n/a
132.747	0.045	265494	keystroke	i	n/a
132.987	0.045	265974	keystroke	f	n/a
133.5725	0.075	267145	keystroke	Key.backspace	n/a
133.7675	0.1195	267535	keystroke	s	n/a
134.6075	0.105	269215	keystroke	f	n/a
134.7875	0.105	269575	keystroke	y	n/a
136.152	0.075	272304	keystroke	Key.space	n/a
136.632	0.09	273264	keystroke	e	n/a
137.232	0.075	274464	keystroke	Key.backspace	n/a
137.442	0.09	274884	keystroke	r	n/a
137.697	0.075	275394	keystroke	e	n/a
138.237	0.09	276474	keystroke	q	n/a
139.2725	0.105	278545	keystroke	Key.backspace	n/a
139.6775	0.1045	279355	keystroke	g	n/a
140.427	0.0905	280854	keystroke	u	n/a
140.682	0.09	281364	keystroke	l	n/a
140.892	0.12	281784	keystroke	a	n/a
141.207	0.09	282414	keystroke	t	n/a
141.507	0.121	283014	keystroke	e	n/a
141.942	0.105	283884	keystroke	d	n/a
142.347	0.105	284694	keystroke	Key.space	n/a
142.902	0.1955	285804	keystroke	m	n/a
143.142	0.105	286284	keystroke	a	n/a
144.8675	0.09	289735	keystroke	x	n/a
145.4375	0.075	290875	keystroke	i	n/a
145.6925	0.09	291385	keystroke	n	n/a
146.3825	0.105	292765	keystroke	Key.backspace	n/a
146.7575	0.09	293515	keystroke	Key.backspace	n/a
147.3575	0.03	294715	keystroke	Key.backspace	n/a
147.6725	0.075	295345	keystroke	c	n/a
148.2425	0.06	296485	keystroke	i	n/a
148.7075	0.09	297415	keystroke	n	n/a
149.262	0.09	298524	keystroke	t	n/a
149.9975	0.075	299995	keystroke	o	n/a
150.252	0.075	300504	keystroke	s	n/a
150.402	0.075	300804	keystroke	h	n/a
153.8095	0.013	307619	keystroke	Key.enter	n/a
153.8315	14.3625	307663	prompt	n/a	styles closed fighters introduction\n
154.8275	0.12	309655	keystroke	s	n/a
155.247	0.09	310494	keystroke	t	n/a
155.622	0.06	311244	keystroke	y	n/a
156.6875	0.06	313375	keystroke	l	n/a
156.8525	0.09	313705	keystroke	e	n/a
157.0925	0.0745	314185	keystroke	s	n/a
157.3025	0.09	314605	keystroke	Key.space	n/a
157.7675	0.12	315535	keystroke	c	n/a
158.143	0.09	316286	keystroke	l	n/a
158.6975	0.06	317395	keystroke	o	n/a
158.9075	0.12	317815	keystroke	s	n/a
159.178	0.075	318356	keystroke	e	n/a
159.4025	0.09	318805	keystroke	d	n/a
159.5675	0.075	319135	keystroke	Key.space	n/a
160.0175	0.105	320035	keystroke	f	n/a
160.1675	0.0745	320335	keystroke	i	n/a
160.408	0.09	320816	keystroke	g	n/a
160.513	0.09	321026	keystroke	h	n/a
160.828	0.09	321656	keystroke	t	n/a
161.127	0.106	322254	keystroke	e	n/a
161.3375	0.075	322675	keystroke	r	n/a
162.0725	0.015	324145	keystroke	s	n/a
162.3125	0.09	324625	keystroke	Key.space	n/a
162.6875	0.075	325375	keystroke	i	n/a
162.8675	0.105	325735	keystroke	n	n/a
163.7075	0.135	327415	keystroke	f	n/a
164.4125	0.12	328825	keystroke	Key.backspace	n/a
164.758	0.105	329516	keystroke	t	n/a
165.537	0.09	331074	keystroke	r	n/a
165.732	0.075	331464	keystroke	o	n/a
165.972	0.09	331944	keystroke	d	n/a
166.272	0.075	332544	keystroke	u	n/a
166.497	0.09	332994	keystroke	c	n/a
166.9925	0.045	333985	keystroke	t	n/a
167.1575	0.135	334315	keystroke	i	n/a
167.3375	0.105	334675	keystroke	o	n/a
167.5925	0.06	335185	keystroke	n	n/a
168.1775	0.015	336355	keystroke	Key.enter	n/a
168.197	11.592	336394	prompt	n/a	adopt pound classes desire\n
168.9425	0.09	337885	keystroke	a	n/a
169.2125	0.09	338425	keystroke	d	n/a
169.4375	0.105	338875	keystroke	o	n/a
169.7075	0.09	339415	keystroke	p	n/a
170.0675	0.105	340135	keystroke	t	n/a
170.3825	0.105	340765	keystroke	Key.space	n/a
170.6525	0.135	341305	keystroke	p	n/a
170.9075	0.075	341815	keystroke	u	n/a
171.3125	0.12	342625	keystroke	n	n/a
172.332	0.09	344664	keystroke	Key.backspace	n/a
172.6925	0.12	345385	keystroke	Key.backspace	n/a
173.667	0.105	347334	keystroke	o	n/a
174.207	0.0755	348414	keystroke	u	n/a
174.5225	0.075	349045	keystroke	n	n/a
174.9875	0.0595	349975	keystroke	d	n/a
175.197	0.105	350394	keystroke	Key.space	n/a
175.542	0.0905	351084	keystroke	c	n/a
175.6925	0.09	351385	keystroke	l	n/a
175.9475	0.075	351895	keystroke	a	n/a
176.2025	0.09	352405	keystroke	s	n/a
176.367	0.135	352734	keystroke	s	n/a
176.667	0.06	353334	keystroke	e	n/a
176.937	0.105	353874	keystroke	s	n/a
177.3125	0.1045	354625	keystroke	Key.space	n/a
177.942	0.105	355884	keystroke	d	n/a
178.197	0.075	356394	keystroke	e	n/a
178.437	0.1205	356874	keystroke	s	n/a
178.6025	0.075	357205	keystroke	i	n/a
178.842	0.09	357684	keystroke	r	n/a
179.067	0.09	358134	keystroke	e	n/a
179.697	0.09	359394	keystroke	Key.enter	n/a
179.792	15.522	359584	prompt	n/a	imagination undefined ctrl published\n
180.507	0.06	361014	keystroke	i	n/a
180.762	0.105	361524	keystroke	m	n/a
181.017	0.105	362034	keystroke	a	n/a
181.542	0.105	363084	keystroke	g	n/a
181.992	0.075	363984	keystroke	i	n/a
182.232	0.075	364464	keystroke	n	n/a
182.847	0.15	365694	keystroke	a	n/a
183.252	0.09	366504	keystroke	t	n/a
183.417	0.1205	366834	keystroke	i	n/a
183.567	0.121	367134	keystroke	o	n/a
183.913	0.075	367826	keystroke	n	n/a
184.333	0.104	368666	keystroke	Key.space	n/a
184.618	0.044	369236	keystroke	u	n/a
184.813	0.12	369626	keystroke	n	n/a
185.053	0.089	370106	keystroke	d	n/a
185.337	0.12	370674	keystroke	e	n/a
185.937	0.12	371874	keystroke	f	n/a
186.657	0.0605	373314	keystroke	i	n/a
187.438	0.06	374876	keystroke	n	n/a
187.768	0.09	375536	keystroke	e	n/a
188.038	0.09	376076	keystroke	d	n/a
188.262	0.075	376524	keystroke	Key.space	n/a
188.8325	0.12	377665	keystroke	c	n/a
189.342	0.105	378684	keystroke	t	n/a
190.212	0.09	380424	keystroke	r	n/a
190.752	0.09	381504	keystroke	l	n/a
191.3675	0.09	382735	keystroke	Key.space	n/a
191.653	0.12	383306	keystroke	p	n/a
191.8925	0.105	383785	keystroke	u	n/a
192.387	0.075	384774	keystroke	b	n/a
192.702	0.0905	385404	keystroke	l	n/a
193.5275	0.06	387055	keystroke	i	n/a
193.797	0.1055	387594	keystroke	s	n/a
193.9625	0.06	387925	keystroke	h	n/a
194.2475	0.09	388495	keystroke	e	n/a
194.5925	0.075	389185	keystroke	d	n/a
195.238	0.075	390476	keystroke	Key.enter	n/a
195.317	10.2425	390634	prompt	n/a	classic union annie adults\n
196.2575	0.1045	392515	keystroke	c	n/a
196.4375	0.0745	392875	keystroke	l	n/a
196.7075	0.0895	393415	keystroke	a	n/a
196.9625	0.09	393925	keystroke	s	n/a
197.127	0.106	394254	keystroke	s	n/a
197.443	0.059	394886	keystroke	i	n/a
197.637	0.09	395274	keystroke	c	n/a
198.042	0.09	396084	keystroke	Key.space	n/a
198.522	0.09	397044	keystroke	u	n/a
198.882	0.12	397764	keystroke	n	n/a
199.588	0.09	399176	keystroke	i	n/a
199.723	0.105	399446	keystroke	o	n/a
200.0075	0.0745	400015	keystroke	n	n/a
200.337	0.12	400674	keystroke	Key.space	n/a
200.863	0.089	401726	keystroke	a	n/a
201.072	0.0455	402144	keystroke	n	n/a
201.1925	0.0895	402385	keystroke	n	n/a
201.6125	0.06	403225	keystroke	i	n/a
201.957	0.0755	403914	keystroke	e	n/a
202.4075	0.105	404815	keystroke	Key.space	n/a
203.2775	0.1045	406555	keystroke	a	n/a
203.5625	0.1505	407125	keystroke	d	n/a
203.848	0.075	407696	keystroke	u	n/a
204.073	0.075	408146	keystroke	l	n/a
204.373	0.1045	408746	keystroke	t	n/a
205.137	0.075	410274	keystroke	s	n/a
205.4675	0.09	410935	keystroke	Key.enter	n/a
205.5625	11.5915	411125	prompt	n/a	during construct kill digest\n
206.2475	0.075	412495	keystroke	d	n/a
206.4275	0.075	412855	keystroke	u	n/a
206.6375	0.0905	413275	keystroke	r	n/a
207.327	0.105	414654	keystroke	i	n/a
207.553	0.09	415106	keystroke	n	n/a
207.792	0.09	415584	keystroke	g	n/a
207.987	0.0905	415974	keystroke	Key.space	n/a
208.813	0.09	417626	keystroke	c	n/a
208.933	0.09	417866	keystroke	o	n/a
209.128	0.075	418256	keystroke	n	n/a
209.653	0.075	419306	keystroke	t	n/a
210.7175	0.105	421435	keystroke	Key.backspace	n/a
210.973	0.15	421946	keystroke	s	n/a
211.378	0.09	422756	keystroke	t	n/a
212.2925	0.09	424585	keystroke	r	n/a
212.5025	0.075	425005	keystroke	u	n/a
212.7125	0.105	425425	keystroke	c	n/a
213.327	0.06	426654	keystroke	t	n/a
213.642	0.105	427284	keystroke	Key.space	n/a
214.107	0.09	428214	keystroke	k	n/a
214.3025	0.09	428605	keystroke	i	n/a
214.5425	0.075	429085	keystroke	l	n/a
214.6925	0.09	429385	keystroke	l	n/a
214.9025	0.105	429805	keystroke	Key.space	n/a
215.2475	0.075	430495	keystroke	d	n/a
215.3525	0.06	430705	keystroke	i	n/a
215.5925	0.09	431185	keystroke	g	n/a
215.8475	0.09	431695	keystroke	e	n/a
216.0725	0.105	432145	keystroke	s	n/a
216.4475	0.075	432895	keystroke	t	n/a
217.0625	0.09	434125	keystroke	Key.enter	n/a
217.158	9.0715	434316	prompt	n/a	reading alfred outputs fans\n
217.9175	0.105	435835	keystroke	r	n/a
218.0975	0.105	436195	keystroke	e	n/a
218.3675	0.09	436735	keystroke	a	n/a
218.6225	0.105	437245	keystroke	d	n/a
218.8925	0.105	437785	keystroke	i	n/a
219.1175	0.105	438235	keystroke	n	n/a
219.3125	0.105	438625	keystroke	g	n/a
219.5225	0.075	439045	keystroke	Key.space	n/a
220.0025	0.09	440005	keystroke	a	n/a
220.4225	0.09	440845	keystroke	l	n/a
220.7225	0.09	441445	keystroke	f	n/a
221.2025	0.105	442405	keystroke	r	n/a
221.4125	0.105	442825	keystroke	e	n/a
221.908	0.045	443816	keystroke	d	n/a
222.223	0.105	444446	keystroke	Key.space	n/a
222.538	0.09	445076	keystroke	o	n/a
222.7775	0.075	445555	keystroke	u	n/a
223.0625	0.09	446125	keystroke	t	n/a
223.5125	0.12	447025	keystroke	p	n/a
223.7525	0.105	447505	keystroke	u	n/a
224.158	0.075	448316	keystroke	t	n/a
224.473	0.09	448946	keystroke	s	n/a
224.637	0.121	449274	keystroke	Key.space	n/a
224.923	0.09	449846	keystroke	f	n/a
225.1925	0.09	450385	keystroke	a	n/a
225.4025	0.045	450805	keystroke	n	n/a
225.5675	0.12	451135	keystroke	s	n/a
226.138	0.089	452276	keystroke	Key.enter	n/a
226.232	18.732	452464	prompt	n/a	exception historical breath canadian\n
227.0675	0.0755	454135	keystroke	e	n/a
227.383	0.12	454766	keystroke	x	n/a
228.763	0.134	457526	keystroke	c	n/a
229.4375	0.075	458875	keystroke	e	n/a
229.602	0.105	459204	keystroke	p	n/a
229.842	0.09	459684	keystroke	t	n/a
230.022	0.09	460044	keystroke	i	n/a
230.232	0.105	460464	keystroke	n	n/a
231.0875	0.105	462175	keystroke	Key.backspace	n/a
232.1675	0.09	464335	keystroke	o	n/a
232.407	0.075	464814	keystroke	n	n/a
233.2475	0.09	466495	keystroke	Key.space	n/a
233.5475	0.105	467095	keystroke	h	n/a
233.8625	0.075	467725	keystroke	i	n/a
234.1025	0.105	468205	keystroke	s	n/a
234.8675	0.09	469735	keystroke	t	n/a
235.138	0.075	470276	keystroke	o	n/a
236.412	0.075	472824	keystroke	r	n/a
236.998	0.015	473996	keystroke	i	n/a
237.1775	0.105	474355	keystroke	c	n/a
237.4925	0.09	474985	keystroke	a	n/a
237.6275	0.0895	475255	keystroke	l	n/a
237.867	0.12	475734	keystroke	Key.space	n/a
238.587	0.105	477174	keystroke	b	n/a
238.917	0.12	477834	keystroke	r	n/a
239.188	0.105	478376	keystroke	e	n/a
239.443	0.09	478886	keystroke	a	n/a
239.788	0.075	479576	keystroke	t	n/a
239.923	0.0745	479846	keystroke	h	n/a
240.1925	0.12	480385	keystroke	Key.space	n/a
240.507	0.105	481014	keystroke	c	n/a
240.808	0.059	481616	keystroke	a	n/a
240.928	0.06	481856	keystroke	n	n/a
241.7825	0.105	483565	keystroke	a	n/a
242.6225	0.09	485245	keystroke	d	n/a
242.863	0.06	485726	keystroke	i	n/a
243.853	0.09	487706	keystroke	a	n/a
244.033	0.075	488066	keystroke	n	n/a
244.8875	0.075	489775	keystroke	Key.enter	n/a
244.9675	20.0215	489935	prompt	n/a	betting catalyst formatting laundry\n
245.9375	0.075	491875	keystroke	b	n/a
246.2375	0.12	492475	keystroke	e	n/a
246.5825	0.075	493165	keystroke	t	n/a
246.7325	0.09	493465	keystroke	t	n/a
246.9275	0.075	493855	keystroke	i	n/a
247.108	0.089	494216	keystroke	n	n/a
247.273	0.045	494546	keystroke	g	n/a
247.648	0.09	495296	keystroke	Key.space	n/a
248.248	0.12	496496	keystroke	c	n/a
248.8625	0.12	497725	keystroke	a	n/a
249.358	0.1045	498716	keystroke	t	n/a
249.8975	0.105	499795	keystroke	a	n/a
250.3625	0.09	500725	keystroke	l	n/a
250.8725	0.075	501745	keystroke	y	n/a
251.428	0.135	502856	keystroke	s	n/a
251.848	0.105	503696	keystroke	t	n/a
252.7475	0.075	505495	keystroke	Key.space	n/a
253.3625	0.075	506725	keystroke	f	n/a
253.5125	0.105	507025	keystroke	o	n/a
253.7225	0.09	507445	keystroke	r	n/a
253.9175	0.1945	507835	keystroke	m	n/a
254.607	0.105	509214	keystroke	a	n/a
254.968	0.075	509936	keystroke	t	n/a
255.1175	0.075	510235	keystroke	i	n/a
255.2525	0.105	510505	keystroke	i	n/a
255.4775	0.075	510955	keystroke	n	n/a
256.513	0.12	513026	keystroke	Key.backspace	n/a
257.0525	0.0905	514105	keystroke	Key.backspace	n/a
257.593	0.09	515186	keystroke	Key.backspace	n/a
258.148	0.0145	516296	keystroke	t	n/a
258.4925	0.075	516985	keystroke	i	n/a
259.1675	0.09	518335	keystroke	n	n/a
260.323	0.09	520646	keystroke	g	n/a
261.0875	0.09	522175	keystroke	Key.space	n/a
261.5525	0.0905	523105	keystroke	l	n/a
261.778	0.1045	523556	keystroke	a	n/a
262.3475	0.09	524695	keystroke	u	n/a
263.1125	0.045	526225	keystroke	n	n/a
263.3225	0.105	526645	keystroke	d	n/a
263.728	0.09	527456	keystroke	r	n/a
264.208	0.075	528416	keystroke	y	n/a
264.913	0.0745	529826	keystroke	Key.enter	n/a
264.9925	13.512	529985	prompt	n/a	spears unusual reuters poems\n
265.7975	0.09	531595	keystroke	s	n/a
265.9925	0.105	531985	keystroke	p	n/a
266.2175	0.075	532435	keystroke	e	n/a
266.743	0.105	533486	keystroke	a	n/a
267.073	0.105	534146	keystroke	r	n/a
267.553	0.075	535106	keystroke	s	n/a
267.973	0.105	535946	keystroke	Key.space	n/a
268.243	0.06	536486	keystroke	u	n/a
268.438	0.12	536876	keystroke	n	n/a
268.783	0.09	537566	keystroke	u	n/a
270.133	0.09	540266	keystroke	s	n/a
270.988	0.09	541976	keystroke	u	n/a
271.243	0.09	542486	keystroke	a	n/a
271.393	0.09	542786	keystroke	l	n/a
271.768	0.09	543536	keystroke	Key.space	n/a
272.293	0.135	544586	keystroke	r	n/a
272.533	0.09	545066	keystroke	e	n/a
272.953	0.075	545906	keystroke	u	n/a
273.373	0.09	546746	keystroke	t	n/a
273.613	0.119	547226	keystroke	e	n/a
273.838	0.09	547676	keystroke	r	n/a
274.168	0.105	548336	keystroke	s	n/a
274.618	0.104	549236	keystroke	Key.space	n/a
275.2785	0.104	550557	keystroke	p	n/a
275.5775	0.09	551155	keystroke	o	n/a
276.1475	0.075	552295	keystroke	e	n/a
276.3875	0.09	552775	keystroke	m	n/a
276.6275	0.075	553255	keystroke	s	n/a
278.428	0.075	556856	keystroke	Key.enter	n/a
278.507	13.7975	557014	prompt	n/a	tickets smile rwanda genres\n
279.508	0.06	559016	keystroke	t	n/a
279.628	0.0905	559256	keystroke	i	n/a
279.8385	0.09	559677	keystroke	c	n/a
279.9425	0.09	559885	keystroke	k	n/a
280.828	0.075	561656	keystroke	e	n/a
281.473	0.0895	562946	keystroke	t	n/a
281.8025	0.09	563605	keystroke	s	n/a
282.0725	0.0905	564145	keystroke	Key.space	n/a
282.298	0.1195	564596	keystroke	s	n/a
282.433	0.105	564866	keystroke	m	n/a
282.6575	0.0755	565315	keystroke	i	n/a
282.808	0.12	565616	keystroke	l	n/a
282.988	0.075	565976	keystroke	e	n/a
283.153	0.105	566306	keystroke	Key.space	n/a
283.633	0.12	567266	keystroke	r	n/a
284.473	0.105	568946	keystroke	q	n/a
285.2075	0.105	570415	keystroke	Key.backspace	n/a
285.523	0.045	571046	keystroke	w	n/a
286.108	0.105	572216	keystroke	a	n/a
286.288	0.09	572576	keystroke	n	n/a
287.668	0.075	575336	keystroke	d	n/a
288.118	0.105	576236	keystroke	a	n/a
288.493	0.105	576986	keystroke	Key.space	n/a
289.2575	0.12	578515	keystroke	g	n/a
289.933	0.09	579866	keystroke	e	n/a
290.488	0.045	580976	keystroke	n	n/a
291.2085	0.09	582417	keystroke	r	n/a
291.4485	0.075	582897	keystroke	e	n/a
291.7035	0.104	583407	keystroke	s	n/a
292.213	0.0895	584426	keystroke	Key.enter	n/a
292.3075	12.852	584615	prompt	n/a	seven vocabulary facing teeth\n
293.158	0.1045	586316	keystroke	s	n/a
293.3675	0.09	586735	keystroke	e	n/a
293.668	0.15	587336	keystroke	v	n/a
293.953	0.12	587906	keystroke	e	n/a
294.163	0.09	588326	keystroke	n	n/a
294.463	0.09	588926	keystroke	Key.space	n/a
295.228	0.045	590456	keystroke	c	n/a
295.903	0.105	591806	keystroke	Key.backspace	n/a
296.218	0.09	592436	keystroke	v	n/a
296.668	0.1045	593336	keystroke	i	n/a
297.3725	0.09	594745	keystroke	Key.backspace	n/a
297.973	0.09	595946	keystroke	o	n/a
298.5735	0.0895	597147	keystroke	c	n/a
298.9035	0.105	597807	keystroke	a	n/a
299.3385	0.12	598677	keystroke	b	n/a
299.8335	0.075	599667	keystroke	u	n/a
300.0735	0.12	600147	keystroke	l	n/a
300.2525	0.121	600505	keystroke	a	n/a
300.538	0.105	601076	keystroke	r	n/a
300.733	0.06	601466	keystroke	y	n/a
300.958	0.12	601916	keystroke	Key.space	n/a
301.5125	0.09	603025	keystroke	f	n/a
301.7375	0.1055	603475	keystroke	a	n/a
302.023	0.12	604046	keystroke	c	n/a
302.248	0.06	604496	keystroke	i	n/a
302.413	0.09	604826	keystroke	n	n/a
302.548	0.09	605096	keystroke	g	n/a
302.953	0.105	605906	keystroke	Key.space	n/a
303.328	0.105	606656	keystroke	t	n/a
303.583	0.27	607166	keystroke	e	n/a
304.093	0.12	608186	keystroke	e	n/a
304.468	0.075	608936	keystroke	t	n/a
304.588	0.075	609176	keystroke	h	n/a
305.008	0.1505	610016	keystroke	Key.enter	n/a
305.1645	12.28	610329	prompt	n/a	visitor furthermore fame three\n
306.898	0.105	613796	keystroke	c	n/a
307.483	0.09	614966	keystroke	Key.backspace	n/a
307.6785	0.0745	615357	keystroke	v	n/a
308.2485	0.06	616497	keystroke	i	n/a
308.4425	0.091	616885	keystroke	s	n/a
308.6535	0.06	617307	keystroke	i	n/a
309.058	0.09	618116	keystroke	t	n/a
309.178	0.09	618356	keystroke	o	n/a
309.763	0.075	619526	keystroke	r	n/a
309.943	0.075	619886	keystroke	Key.space	n/a
310.273	0.0905	620546	keystroke	f	n/a
310.4535	0.06	620907	keystroke	u	n/a
310.8885	0.1195	621777	keystroke	r	n/a
311.3085	0.075	622617	keystroke	t	n/a
311.4425	0.075	622885	keystroke	h	n/a
311.9825	0.06	623965	keystroke	e	n/a
312.1775	0.09	624355	keystroke	r	n/a
312.4925	0.075	624985	keystroke	m	n/a
312.6725	0.075	625345	keystroke	o	n/a
312.8825	0.09	625765	keystroke	r	n/a
313.1525	0.1205	626305	keystroke	e	n/a
313.4075	0.09	626815	keystroke	Key.space	n/a
313.8275	0.0455	627655	keystroke	f	n/a
314.4735	0.104	628947	keystroke	a	n/a
314.6825	0.06	629365	keystroke	m	n/a
314.8485	0.089	629697	keystroke	e	n/a
315.3275	0.1055	630655	keystroke	Key.space	n/a
315.703	0.075	631406	keystroke	t	n/a
315.808	0.075	631616	keystroke	h	n/a
316.093	0.105	632186	keystroke	r	n/a
316.378	0.075	632756	keystroke	e	n/a
316.543	0.105	633086	keystroke	e	n/a
317.3825	0.06	634765	keystroke	Key.enter	n/a
317.4475	19.1825	634895	prompt	n/a	copper employment edinburgh duncan\n
318.5075	0.12	637015	keystroke	c	n/a
318.7325	0.09	637465	keystroke	o	n/a
319.0325	0.0605	638065	keystroke	p	n/a
319.183	0.105	638366	keystroke	p	n/a
319.393	0.105	638786	keystroke	e	n/a
319.648	0.075	639296	keystroke	r	n/a
319.813	0.075	639626	keystroke	Key.space	n/a
320.173	0.075	640346	keystroke	e	n/a
320.533	0.075	641066	keystroke	m	n/a
321.103	0.105	642206	keystroke	p	n/a
321.838	0.075	643676	keystroke	l	n/a
322.603	0.075	645206	keystroke	o	n/a
323.533	0.075	647066	keystroke	u	n/a
324.118	0.09	648236	keystroke	Key.backspace	n/a
324.6425	0.091	649285	keystroke	y	n/a
325.738	0.075	651476	keystroke	m	n/a
325.933	0.09	651866	keystroke	e	n/a
326.068	0.075	652136	keystroke	n	n/a
326.263	0.075	652526	keystroke	t	n/a
326.458	0.09	652916	keystroke	Key.space	n/a
327.3875	0.135	654775	keystroke	e	n/a
327.883	0.045	655766	keystroke	d	n/a
328.708	0.075	657416	keystroke	i	n/a
329.143	0.075	658286	keystroke	n	n/a
330.223	0.12	660446	keystroke	b	n/a
330.958	0.045	661916	keystroke	u	n/a
331.4375	0.09	662875	keystroke	r	n/a
331.7675	0.09	663535	keystroke	g	n/a
332.3525	0.046	664705	keystroke	h	n/a
333.148	0.0905	666296	keystroke	Key.space	n/a
333.418	0.075	666836	keystroke	d	n/a
333.598	0.0755	667196	keystroke	u	n/a
334.7385	0.075	669477	keystroke	n	n/a
335.1435	0.105	670287	keystroke	c	n/a
335.4285	0.105	670857	keystroke	a	n/a
335.5785	0.075	671157	keystroke	n	n/a
336.5535	0.074	673107	keystroke	Key.enter	n/a
336.634	11.5455	673268	prompt	n/a	sigma spas arrival pixel\n
337.378	0.09	674756	keystroke	s	n/a
337.543	0.045	675086	keystroke	i	n/a
338.158	0.105	676316	keystroke	g	n/a
338.8485	0.119	677697	keystroke	m	n/a
339.0725	0.1205	678145	keystroke	a	n/a
339.313	0.075	678626	keystroke	Key.space	n/a
339.613	0.135	679226	keystroke	s	n/a
339.778	0.09	679556	keystroke	p	n/a
340.033	0.105	680066	keystroke	a	n/a
340.768	0.12	681536	keystroke	z	n/a
341.008	0.105	682016	keystroke	Key.space	n/a
341.3085	0.1045	682617	keystroke	a	n/a
341.7725	0.12	683545	keystroke	r	n/a
341.9675	0.105	683935	keystroke	r	n/a
342.2375	0.075	684475	keystroke	i	n/a
342.4475	0.105	684895	keystroke	v	n/a
342.8085	0.09	685617	keystroke	a	n/a
342.9585	0.09	685917	keystroke	l	n/a
343.3785	0.09	686757	keystroke	Key.space	n/a
344.068	0.105	688136	keystroke	p	n/a
344.548	0.06	689096	keystroke	i	n/a
344.878	0.09	689756	keystroke	c	n/a
345.2535	0.075	690507	keystroke	e	n/a
346.1985	0.105	692397	keystroke	Key.backspace	n/a
346.7535	0.0445	693507	keystroke	Key.backspace	n/a
346.9335	0.104	693867	keystroke	x	n/a
347.3225	0.075	694645	keystroke	e	n/a
347.728	0.075	695456	keystroke	l	n/a
348.103	0.075	696206	keystroke	Key.enter	n/a
348.183	18.8665	696366	prompt	n/a	barnes acquisition phases finished\n
349.3035	0.12	698607	keystroke	b	n/a
349.6925	0.165	699385	keystroke	a	n/a
350.1725	0.091	700345	keystroke	r	n/a
350.4285	0.09	700857	keystroke	n	n/a
350.8935	0.09	701787	keystroke	e	n/a
351.1775	0.09	702355	keystroke	s	n/a
351.3875	0.09	702775	keystroke	Key.space	n/a
351.8525	0.12	703705	keystroke	a	n/a
352.738	0.135	705476	keystroke	x	n/a
355.74	0.028	711480	keystroke	Key.backspace	n/a
355.948	0.09	711896	keystroke	c	n/a
357.1475	0.105	714295	keystroke	q	n/a
357.4775	0.075	714955	keystroke	u	n/a
358.5435	0.045	717087	keystroke	i	n/a
358.8435	0.075	717687	keystroke	s	n/a
359.2025	0.076	718405	keystroke	i	n/a
359.6825	0.091	719365	keystroke	t	n/a
359.8185	0.12	719637	keystroke	i	n/a
359.9835	0.09	719967	keystroke	o	n/a
360.2375	0.076	720475	keystroke	n	n/a
360.7625	0.105	721525	keystroke	Key.space	n/a
361.0625	0.1205	722125	keystroke	p	n/a
361.558	0.075	723116	keystroke	h	n/a
361.918	0.105	723836	keystroke	a	n/a
362.158	0.12	724316	keystroke	s	n/a
362.473	0.09	724946	keystroke	e	n/a
362.713	0.12	725426	keystroke	s	n/a
363.493	0.045	726986	keystroke	Key.space	n/a
363.883	0.09	727766	keystroke	f	n/a
364.003	0.075	728006	keystroke	i	n/a
364.6325	0.015	729265	keystroke	n	n/a
365.5335	0.074	731067	keystroke	i	n/a
365.7885	0.09	731577	keystroke	s	n/a
365.8935	0.06	731787	keystroke	h	n/a
366.1035	0.075	732207	keystroke	e	n/a
366.3585	0.105	732717	keystroke	d	n/a
366.9275	0.12	733855	keystroke	Key.enter	n/a
367.052	14.8325	734104	prompt	n/a	smooth memorabilia don't knife\n
367.7075	0.045	735415	keystroke	s	n/a
368.0825	0.06	736165	keystroke	m	n/a
368.398	0.06	736796	keystroke	o	n/a
368.758	0.09	737516	keystroke	t	n/a
369.253	0.09	738506	keystroke	Key.backspace	n/a
369.778	0.09	739556	keystroke	o	n/a
370.348	0.075	740696	keystroke	t	n/a
370.438	0.09	740876	keystroke	h	n/a
370.918	0.105	741836	keystroke	Key.space	n/a
371.3985	0.089	742797	keystroke	m	n/a
371.5175	0.09	743035	keystroke	e	n/a
371.6375	0.105	743275	keystroke	m	n/a
372.5075	0.09	745015	keystroke	o	n/a
372.6125	0.015	745225	keystroke	r	n/a
373.048	0.09	746096	keystroke	a	n/a
373.438	0.105	746876	keystroke	b	n/a
374.428	0.09	748856	keystroke	l	n/a
374.893	0.075	749786	keystroke	Key.backspace	n/a
375.5835	0.09	751167	keystroke	i	n/a
375.8235	0.075	751647	keystroke	l	n/a
375.973	0.075	751946	keystroke	l	n/a
376.4385	0.09	752877	keystroke	Key.backspace	n/a
376.963	0.075	753926	keystroke	i	n/a
377.233	0.09	754466	keystroke	a	n/a
377.848	0.075	755696	keystroke	Key.space	n/a
378.163	0.09	756326	keystroke	d	n/a
378.283	0.0755	756566	keystroke	o	n/a
378.4635	0.075	756927	keystroke	n	n/a
378.9285	0.105	757857	keystroke	'	n/a
379.1225	0.06	758245	keystroke	t	n/a
379.3625	0.09	758725	keystroke	Key.space	n/a
380.0085	0.089	760017	keystroke	k	n/a
380.2185	0.104	760437	keystroke	n	n/a
380.6985	0.09	761397	keystroke	i	n/a
380.9525	0.105	761905	keystroke	f	n/a
381.238	0.075	762476	keystroke	e	n/a
381.823	0.06	763646	keystroke	Key.enter	n/a
381.8875	14.442	763775	prompt	n/a	diameter marion musical instant\n
383.0085	0.09	766017	keystroke	d	n/a
383.2485	0.06	766497	keystroke	i	n/a
383.893	0.075	767786	keystroke	a	n/a
384.088	0.075	768176	keystroke	m	n/a
384.313	0.105	768626	keystroke	e	n/a
384.628	0.075	769256	keystroke	t	n/a
384.898	0.12	769796	keystroke	e	n/a
385.543	0.075	771086	keystroke	r	n/a
385.7835	0.09	771567	keystroke	Key.space	n/a
386.1435	0.075	772287	keystroke	m	n/a
386.323	0.12	772646	keystroke	a	n/a
386.698	0.09	773396	keystroke	r	n/a
387.238	0.09	774476	keystroke	i	n/a
387.418	0.105	774836	keystroke	o	n/a
388.093	0.075	776186	keystroke	n	n/a
388.513	0.09	777026	keystroke	Key.space	n/a
388.828	0.09	777656	keystroke	m	n/a
389.158	0.09	778316	keystroke	u	n/a
389.488	0.09	778976	keystroke	s	n/a
390.838	0.075	781676	keystroke	i	n/a
391.063	0.0905	782126	keystroke	c	n/a
391.3785	0.09	782757	keystroke	a	n/a
391.5285	0.09	783057	keystroke	l	n/a
391.873	0.105	783746	keystroke	Key.space	n/a
392.368	0.045	784736	keystroke	i	n/a
392.563	0.075	785126	keystroke	n	n/a
393.2975	0.075	786595	keystroke	s	n/a
393.673	0.105	787346	keystroke	t	n/a
394.003	0.105	788006	keystroke	a	n/a
394.183	0.075	788366	keystroke	n	n/a
394.408	0.03	788816	keystroke	n	n/a
395.0085	0.089	790017	keystroke	Key.backspace	n/a
395.2785	0.09	790557	keystroke	t	n/a
396.2525	0.075	792505	keystroke	Key.enter	n/a
396.333	17.0365	792666	prompt	n/a	assurance brisbane client acquire\n
397.1225	0.0905	794245	keystroke	a	n/a
397.4075	0.075	794815	keystroke	s	n/a
397.5725	0.12	795145	keystroke	s	n/a
398.1285	0.075	796257	keystroke	u	n/a
398.758	0.105	797516	keystroke	r	n/a
399.043	0.0895	798086	keystroke	a	n/a
399.5825	0.061	799165	keystroke	n	n/a
399.7475	0.091	799495	keystroke	c	n/a
400.3325	0.075	800665	keystroke	e	n/a
400.9325	0.105	801865	keystroke	Key.space	n/a
401.488	0.105	802976	keystroke	b	n/a
402.208	0.075	804416	keystroke	r	n/a
402.613	0.06	805226	keystroke	i	n/a
402.823	0.06	805646	keystroke	s	n/a
402.943	0.075	805886	keystroke	h	n/a
403.9485	0.045	807897	keystroke	Key.backspace	n/a
404.5635	0.075	809127	keystroke	b	n/a
405.193	0.105	810386	keystroke	a	n/a
405.403	0.06	810806	keystroke	n	n/a
405.538	0.09	811076	keystroke	e	n/a
406.048	0.105	812096	keystroke	Key.space	n/a
406.423	0.09	812846	keystroke	c	n/a
406.618	0.09	813236	keystroke	l	n/a
406.858	0.075	813716	keystroke	i	n/a
407.098	0.09	814196	keystroke	e	n/a
407.323	0.075	814646	keystroke	n	n/a
407.683	0.075	815366	keystroke	t	n/a
407.9975	0.09	815995	keystroke	Key.space	n/a
408.328	0.105	816656	keystroke	a	n/a
409.123	0.12	818246	keystroke	x	n/a
409.798	0.09	819596	keystroke	Key.backspace	n/a
410.023	0.09	820046	keystroke	c	n/a
411.178	0.09	822356	keystroke	q	n/a
411.388	0.06	822776	keystroke	u	n/a
412.2135	0.045	824427	keystroke	i	n/a
412.3935	0.09	824787	keystroke	r	n/a
412.6035	0.075	825207	keystroke	e	n/a
413.293	0.075	826586	keystroke	Key.enter	n/a
413.373	10.857	826746	prompt	n/a	galaxy singer ease instances\n
414.448	0.06	828896	keystroke	g	n/a
415.078	0.1055	830156	keystroke	a	n/a
415.3485	0.09	830697	keystroke	l	n/a
415.6635	0.105	831327	keystroke	a	n/a
416.1885	0.1045	832377	keystroke	x	n/a
416.773	0.09	833546	keystroke	y	n/a
417.043	0.105	834086	keystroke	Key.space	n/a
417.358	0.06	834716	keystroke	s	n/a
417.448	0.075	834896	keystroke	i	n/a
417.628	0.0605	835256	keystroke	n	n/a
417.7485	0.09	835497	keystroke	g	n/a
418.0935	0.09	836187	keystroke	e	n/a
418.3035	0.075	836607	keystroke	r	n/a
418.4685	0.105	836937	keystroke	Key.space	n/a
418.813	0.09	837626	keystroke	e	n/a
419.0535	0.12	838107	keystroke	a	n/a
419.3535	0.09	838707	keystroke	s	n/a
419.6835	0.105	839367	keystroke	e	n/a
420.4035	0.105	840807	keystroke	Key.space	n/a
420.8235	0.09	841647	keystroke	i	n/a
421.0635	0.09	842127	keystroke	n	n/a
421.873	0.135	843746	keystroke	s	n/a
422.263	0.075	844526	keystroke	t	n/a
422.563	0.105	845126	keystroke	a	n/a
422.758	0.045	845516	keystroke	n	n/a
422.953	0.105	845906	keystroke	c	n/a
423.2385	0.075	846477	keystroke	e	n/a
423.5385	0.075	847077	keystroke	s	n/a
424.1535	0.075	848307	keystroke	Key.enter	n/a
424.233	14.937	848466	prompt	n/a	collector stevens infant holder\n
425.0085	0.1045	850017	keystroke	c	n/a
425.188	0.075	850376	keystroke	o	n/a
425.6085	0.075	851217	keystroke	l	n/a
425.7585	0.09	851517	keystroke	l	n/a
425.9685	0.09	851937	keystroke	e	n/a
426.3285	0.09	852657	keystroke	c	n/a
426.7035	0.075	853407	keystroke	t	n/a
427.363	0.045	854726	keystroke	o	n/a
427.603	0.075	855206	keystroke	r	n/a
427.888	0.09	855776	keystroke	Key.space	n/a
428.173	0.09	856346	keystroke	s	n/a
428.683	0.09	857366	keystroke	t	n/a
429.013	0.0905	858026	keystroke	e	n/a
429.2385	0.015	858477	keystroke	n	n/a
430.2435	0.045	860487	keystroke	Key.backspace	n/a
430.6485	0.09	861297	keystroke	v	n/a
430.9035	0.12	861807	keystroke	e	n/a
431.1585	0.075	862317	keystroke	n	n/a
431.6235	0.135	863247	keystroke	Key.space	n/a
432.1635	0.075	864327	keystroke	Key.backspace	n/a
432.793	0.015	865586	keystroke	s	n/a
432.823	0.045	865646	keystroke	Key.space	n/a
433.2725	0.0155	866545	keystroke	i	n/a
433.3775	0.076	866755	keystroke	n	n/a
435.1925	0.0605	870385	keystroke	f	n/a
436.2135	0.06	872427	keystroke	a	n/a
436.3635	0.06	872727	keystroke	n	n/a
436.6635	0.0745	873327	keystroke	t	n/a
437.2935	0.015	874587	keystroke	Key.space	n/a
437.3235	0.075	874647	keystroke	h	n/a
437.5635	0.045	875127	keystroke	o	n/a
437.8635	0.075	875727	keystroke	l	n/a
437.9985	0.075	875997	keystroke	d	n/a
438.3585	0.105	876717	keystroke	e	n/a
438.5985	0.09	877197	keystroke	r	n/a
439.0935	0.0745	878187	keystroke	Key.enter	n/a
439.1735	8.051	878347	prompt	n/a	cuts chen nicole soul\n
439.873	0.0455	879746	keystroke	d	n/a
440.533	0.09	881066	keystroke	Key.backspace	n/a
440.7735	0.0895	881547	keystroke	c	n/a
440.954	0.09	881908	keystroke	u	n/a
441.1935	0.06	882387	keystroke	t	n/a
441.5375	0.091	883075	keystroke	s	n/a
441.658	0.0905	883316	keystroke	Key.space	n/a
442.0185	0.12	884037	keystroke	c	n/a
442.1685	0.06	884337	keystroke	h	n/a
442.3485	0.075	884697	keystroke	e	n/a
442.4685	0.105	884937	keystroke	n	n/a
442.6935	0.09	885387	keystroke	Key.space	n/a
443.2485	0.045	886497	keystroke	n	n/a
443.3085	0.0895	886617	keystroke	i	n/a
443.5185	0.0745	887037	keystroke	c	n/a
444.7185	0.12	889437	keystroke	o	n/a
444.9885	0.074	889977	keystroke	l	n/a
445.198	0.075	890396	keystroke	e	n/a
445.558	0.09	891116	keystroke	Key.space	n/a
446.053	0.075	892106	keystroke	s	n/a
446.188	0.105	892376	keystroke	o	n/a
446.3985	0.075	892797	keystroke	u	n/a
446.6235	0.09	893247	keystroke	l	n/a
447.193	0.03	894386	keystroke	Key.enter	n/a
447.23	11.68	894460	prompt	n/a	package keyword klein occurs\n
448.003	0.105	896006	keystroke	p	n/a
448.183	0.09	896366	keystroke	a	n/a
448.483	0.09	896966	keystroke	c	n/a
448.693	0.075	897386	keystroke	k	n/a
449.233	0.105	898466	keystroke	a	n/a
449.563	0.105	899126	keystroke	g	n/a
449.8185	0.075	899637	keystroke	e	n/a
450.133	0.09	900266	keystroke	Key.space	n/a
450.4935	0.0895	900987	keystroke	k	n/a
451.0485	0.0295	902097	keystroke	e	n/a
451.2135	0.075	902427	keystroke	y	n/a
451.753	0.045	903506	keystroke	w	n/a
451.858	0.09	903716	keystroke	o	n/a
452.398	0.045	904796	keystroke	r	n/a
452.713	0.0755	905426	keystroke	d	n/a
453.4325	0.1055	906865	keystroke	Key.space	n/a
454.3775	0.0755	908755	keystroke	k	n/a
455.1435	0.06	910287	keystroke	l	n/a
455.3385	0.075	910677	keystroke	e	n/a
455.6685	0.06	911337	keystroke	i	n/a
455.8625	0.091	911725	keystroke	n	n/a
456.3275	0.09	912655	keystroke	Key.space	n/a
456.8685	0.074	913737	keystroke	o	n/a
457.1535	0.089	914307	keystroke	c	n/a
457.3175	0.0905	914635	keystroke	c	n/a
457.7075	0.06	915415	keystroke	u	n/a
458.0835	0.09	916167	keystroke	r	n/a
458.3685	0.089	916737	keystroke	s	n/a
458.833	0.075	917666	keystroke	Key.enter	n/a
458.9145	15.8355	917829	prompt	n/a	induced characterized primary ottawa\n
459.7185	0.03	919437	keystroke	i	n/a
459.8835	0.0895	919767	keystroke	n	n/a
460.093	0.09	920186	keystroke	d	n/a
460.333	0.075	920666	keystroke	u	n/a
460.573	0.09	921146	keystroke	c	n/a
461.0985	0.0745	922197	keystroke	e	n/a
461.383	0.075	922766	keystroke	d	n/a
461.548	0.09	923096	keystroke	Key.space	n/a
461.893	0.105	923786	keystroke	c	n/a
462.043	0.075	924086	keystroke	h	n/a
462.253	0.12	924506	keystroke	a	n/a
462.6875	0.105	925375	keystroke	r	n/a
462.988	0.12	925976	keystroke	a	n/a
463.528	0.135	927056	keystroke	c	n/a
463.948	0.06	927896	keystroke	t	n/a
464.203	0.105	928406	keystroke	e	n/a
464.428	0.09	928856	keystroke	r	n/a
465.073	0.045	930146	keystroke	i	n/a
465.133	0.1355	930266	keystroke	z	n/a
465.478	0.12	930956	keystroke	e	n/a
465.793	0.12	931586	keystroke	d	n/a
466.0475	0.1055	932095	keystroke	Key.space	n/a
466.618	0.135	933236	keystroke	p	n/a
466.9335	0.104	933867	keystroke	i	n/a
467.533	0.105	935066	keystroke	Key.backspace	n/a
467.938	0.075	935876	keystroke	r	n/a
468.073	0.09	936146	keystroke	i	n/a
468.268	0.1055	936536	keystroke	m	n/a
469.0635	0.12	938127	keystroke	a	n/a
469.4085	0.09	938817	keystroke	r	n/a
469.5585	0.09	939117	keystroke	y	n/a
469.8725	0.09	939745	keystroke	Key.space	n/a
470.7125	0.061	941425	keystroke	o	n/a
470.8785	0.089	941757	keystroke	t	n/a
471.0425	0.0905	942085	keystroke	t	n/a
471.5235	0.12	943047	keystroke	w	n/a
472.348	0.105	944696	keystroke	Key.backspace	n/a
472.828	0.1055	945656	keystroke	a	n/a
473.3385	0.134	946677	keystroke	w	n/a
473.713	0.09	947426	keystroke	a	n/a
474.6885	0.059	949377	keystroke	Key.enter	n/a
474.7525	20.112	949505	prompt	n/a	shoppers behalf basename anytime\n
475.5885	0.105	951177	keystroke	s	n/a
475.7235	0.09	951447	keystroke	h	n/a
475.9485	0.105	951897	keystroke	o	n/a
476.2635	0.06	952527	keystroke	p	n/a
476.4135	0.075	952827	keystroke	p	n/a
476.7135	0.105	953427	keystroke	e	n/a
476.9685	0.09	953937	keystroke	r	n/a
477.2685	0.075	954537	keystroke	s	n/a
477.4335	0.09	954867	keystroke	Key.space	n/a
477.7935	0.045	955587	keystroke	h	n/a
478.3935	0.03	956787	keystroke	Key.backspace	n/a
478.858	0.045	957716	keystroke	e	n/a
479.3075	0.105	958615	keystroke	Key.backspace	n/a
480.0735	0.06	960147	keystroke	b	n/a
480.7785	0.09	961557	keystroke	e	n/a
481.2585	0.06	962517	keystroke	h	n/a
481.5585	0.09	963117	keystroke	a	n/a
481.7085	0.075	963417	keystroke	l	n/a
481.9335	0.09	963867	keystroke	f	n/a
482.1435	0.075	964287	keystroke	Key.space	n/a
482.7285	0.06	965457	keystroke	b	n/a
483.1185	0.12	966237	keystroke	a	n/a
483.6285	0.075	967257	keystroke	s	n/a
484.0035	0.09	968007	keystroke	e	n/a
484.4085	0.12	968817	keystroke	m	n/a
485.053	0.015	970106	keystroke	Key.backspace	n/a
485.863	0.06	971726	keystroke	n	n/a
486.148	0.06	972296	keystroke	e	n/a
486.868	0.09	973736	keystroke	Key.backspace	n/a
487.6035	0.015	975207	keystroke	a	n/a
487.9485	0.045	975897	keystroke	m	n/a
488.1135	0.09	976227	keystroke	e	n/a
488.5635	0.09	977127	keystroke	Key.space	n/a
488.8035	0.105	977607	keystroke	a	n/a
488.9685	0.075	977937	keystroke	n	n/a
489.7635	0.075	979527	keystroke	y	n/a
490.408	0.075	980816	keystroke	t	n/a
490.678	0.075	981356	keystroke	u	n/a
491.398	0.105	982796	keystroke	Key.backspace	n/a
491.983	0.09	983966	keystroke	i	n/a
492.238	0.06	984476	keystroke	n	n/a
493.4385	0.075	986877	keystroke	Key.backspace	n/a
493.9485	0.075	987897	keystroke	m	n/a
494.1435	0.06	988287	keystroke	e	n/a
494.7885	0.075	989577	keystroke	Key.enter	n/a
494.868	13.722	989736	prompt	n/a	pharmacies farmers earlier luke\n
495.7485	0.12	991497	keystroke	p	n/a
496.0485	0.075	992097	keystroke	h	n/a
496.4985	0.105	992997	keystroke	a	n/a
496.9035	0.0895	993807	keystroke	r	n/a
497.1285	0.075	994257	keystroke	m	n/a
497.3235	0.12	994647	keystroke	a	n/a
498.913	0.09	997826	keystroke	c	n/a
499.6035	0.06	999207	keystroke	i	n/a
499.7985	0.075	999597	keystroke	e	n/a
500.0685	0.09	1000137	keystroke	s	n/a
500.2485	0.105	1000497	keystroke	Key.space	n/a
500.4435	0.075	1000887	keystroke	f	n/a
500.6985	0.09	1001397	keystroke	a	n/a
500.9685	0.09	1001937	keystroke	r	n/a
501.1035	0.075	1002207	keystroke	m	n/a
501.3885	0.09	1002777	keystroke	e	n/a
501.6435	0.075	1003287	keystroke	r	n/a
502.739	0.089	1005478	keystroke	s	n/a
503.068	0.0605	1006136	keystroke	Key.space	n/a
503.5935	0.045	1007187	keystroke	e	n/a
503.6535	0.075	1007307	keystroke	a	n/a
503.9235	0.09	1007847	keystroke	r	n/a
504.1785	0.075	1008357	keystroke	l	n/a
504.778	0.075	1009556	keystroke	i	n/a
505.018	0.1055	1010036	keystroke	e	n/a
505.2585	0.075	1010517	keystroke	r	n/a
505.9785	0.09	1011957	keystroke	Key.space	n/a
506.2035	0.1045	1012407	keystroke	l	n/a
507.058	0.075	1014116	keystroke	u	n/a
507.583	0.0605	1015166	keystroke	k	n/a
507.7635	0.075	1015527	keystroke	e	n/a
508.528	0.06	1017056	keystroke	Key.enter	n/a
508.593	19.887	1017186	prompt	n/a	nightlife song adjustable harold\n
509.473	0.105	1018946	keystroke	n	n/a
509.953	0.075	1019906	keystroke	i	n/a
510.253	0.075	1020506	keystroke	g	n/a
510.358	0.076	1020716	keystroke	h	n/a
511.258	0.06	1022516	keystroke	t	n/a
511.8135	0.105	1023627	keystroke	l	n/a
512.0385	0.06	1024077	keystroke	i	n/a
512.2935	0.075	1024587	keystroke	g	n/a
512.6235	0.075	1025247	keystroke	e	n/a
513.493	0.09	1026986	keystroke	Key.backspace	n/a
513.974	0.09	1027948	keystroke	Key.backspace	n/a
514.5435	0.075	1029087	keystroke	f	n/a
515.173	0.075	1030346	keystroke	e	n/a
515.578	0.09	1031156	keystroke	Key.space	n/a
515.8635	0.075	1031727	keystroke	s	n/a
515.9535	0.105	1031907	keystroke	o	n/a
516.1485	0.075	1032297	keystroke	n	n/a
516.3435	0.0895	1032687	keystroke	g	n/a
516.838	0.075	1033676	keystroke	Key.space	n/a
517.3185	0.09	1034637	keystroke	a	n/a
517.5735	0.135	1035147	keystroke	d	n/a
517.8435	0.075	1035687	keystroke	u	n/a
518.3835	0.105	1036767	keystroke	Key.backspace	n/a
518.7285	0.105	1037457	keystroke	j	n/a
519.5535	0.06	1039107	keystroke	u	n/a
519.7335	0.09	1039467	keystroke	s	n/a
520.0335	0.09	1040067	keystroke	t	n/a
520.3935	0.09	1040787	keystroke	a	n/a
520.7835	0.09	1041567	keystroke	b	n/a
520.9335	0.075	1041867	keystroke	l	n/a
521.1285	0.09	1042257	keystroke	e	n/a
521.429	0.09	1042858	keystroke	Key.space	n/a
521.984	0.075	1043968	keystroke	h	n/a
522.179	0.12	1044358	keystroke	a	n/a
522.524	0.0895	1045048	keystroke	r	n/a
523.4685	0.075	1046937	keystroke	o	n/a
524.7135	0.015	1049427	keystroke	l	n/a
525.0735	0.0755	1050147	keystroke	d	n/a
528.4505	0.028	1056901	keystroke	Key.enter	n/a
528.4845	11.622	1056969	prompt	n/a	one christ acne geographical\n
529.183	0.0905	1058366	keystroke	o	n/a
529.393	0.09	1058786	keystroke	n	n/a
529.588	0.075	1059176	keystroke	e	n/a
529.873	0.0905	1059746	keystroke	Key.space	n/a
530.293	0.09	1060586	keystroke	c	n/a
530.398	0.075	1060796	keystroke	h	n/a
530.668	0.09	1061336	keystroke	r	n/a
530.8485	0.0595	1061697	keystroke	i	n/a
531.058	0.0905	1062116	keystroke	s	n/a
531.3735	0.075	1062747	keystroke	t	n/a
531.5535	0.09	1063107	keystroke	Key.space	n/a
532.034	0.09	1064068	keystroke	a	n/a
532.529	0.045	1065058	keystroke	n	n/a
533.068	0.0905	1066136	keystroke	Key.backspace	n/a
533.3385	0.06	1066677	keystroke	c	n/a
533.4885	0.075	1066977	keystroke	n	n/a
534.0585	0.09	1068117	keystroke	e	n/a
534.509	0.075	1069018	keystroke	Key.space	n/a
535.259	0.135	1070518	keystroke	g	n/a
535.633	0.0905	1071266	keystroke	e	n/a
536.1585	0.09	1072317	keystroke	o	n/a
536.6235	0.09	1073247	keystroke	g	n/a
536.9985	0.0905	1073997	keystroke	r	n/a
537.358	0.091	1074716	keystroke	a	n/a
537.9585	0.09	1075917	keystroke	p	n/a
538.333	0.09	1076666	keystroke	h	n/a
538.9335	0.06	1077867	keystroke	i	n/a
539.144	0.075	1078288	keystroke	c	n/a
539.429	0.074	1078858	keystroke	a	n/a
539.533	0.105	1079066	keystroke	l	n/a
540.028	0.075	1080056	keystroke	Key.enter	n/a
540.11	24.1305	1080220	prompt	n/a	integrating accessing exempt guitar\n
540.793	0.076	1081586	keystroke	i	n/a
541.019	0.06	1082038	keystroke	n	n/a
541.573	0.09	1083146	keystroke	s	n/a
541.949	0.09	1083898	keystroke	t	n/a
542.384	0.06	1084768	keystroke	e	n/a
543.284	0.12	1086568	keystroke	Key.backspace	n/a
543.809	0.12	1087618	keystroke	Key.backspace	n/a
544.304	0.09	1088608	keystroke	Key.backspace	n/a
544.6035	0.075	1089207	keystroke	t	n/a
544.8585	0.09	1089717	keystroke	e	n/a
545.6685	0.075	1091337	keystroke	r	n/a
546.3585	0.075	1092717	keystroke	Key.backspace	n/a
546.9885	0.09	1093977	keystroke	g	n/a
547.3785	0.06	1094757	keystroke	r	n/a
547.6335	0.12	1095267	keystroke	a	n/a
548.0985	0.075	1096197	keystroke	t	n/a
548.7435	0.06	1097487	keystroke	i	n/a
548.9235	0.075	1097847	keystroke	n	n/a
549.1335	0.075	1098267	keystroke	g	n/a
549.4035	0.09	1098807	keystroke	Key.space	n/a
550.0635	0.12	1100127	keystroke	a	n/a
550.4235	0.0895	1100847	keystroke	c	n/a
550.679	0.0595	1101358	keystroke	c	n/a
551.324	0.09	1102648	keystroke	e	n/a
551.894	0.12	1103788	keystroke	s	n/a
552.104	0.135	1104208	keystroke	s	n/a
552.479	0.075	1104958	keystroke	i	n/a
552.734	0.075	1105468	keystroke	n	n/a
552.944	0.09	1105888	keystroke	g	n/a
553.2135	0.09	1106427	keystroke	Key.space	n/a
554.369	0.075	1108738	keystroke	e	n/a
554.744	0.105	1109488	keystroke	x	n/a
555.8235	0.0605	1111647	keystroke	e	n/a
556.034	0.075	1112068	keystroke	m	n/a
556.304	0.075	1112608	keystroke	p	n/a
556.784	0.075	1113568	keystroke	t	n/a
557.159	0.104	1114318	keystroke	Key.space	n/a
557.594	0.075	1115188	keystroke	a	n/a
558.179	0.09	1116358	keystroke	Key.backspace	n/a
559.6185	0.045	1119237	keystroke	g	n/a
559.829	0.06	1119658	keystroke	u	n/a
560.4285	0.06	1120857	keystroke	i	n/a
560.6235	0.105	1121247	keystroke	a	n/a
561.5535	0.09	1123107	keystroke	Key.backspace	n/a
562.094	0.09	1124188	keystroke	t	n/a
562.364	0.12	1124728	keystroke	a	n/a
563.579	0.104	1127158	keystroke	r	n/a
564.148	0.09	1128296	keystroke	Key.enter	n/a
564.244	13.106	1128488	prompt	n/a	brake recommendations freelance calls\n
564.9585	0.09	1129917	keystroke	b	n/a
565.2435	0.105	1130487	keystroke	r	n/a
565.4985	0.1055	1130997	keystroke	a	n/a
565.709	0.06	1131418	keystroke	k	n/a
565.874	0.06	1131748	keystroke	e	n/a
566.084	0.075	1132168	keystroke	Key.space	n/a
566.579	0.075	1133158	keystroke	r	n/a
566.804	0.09	1133608	keystroke	e	n/a
567.269	0.105	1134538	keystroke	c	n/a
567.509	0.074	1135018	keystroke	o	n/a
567.719	0.0595	1135438	keystroke	m	n/a
567.973	0.076	1135946	keystroke	m	n/a
568.304	0.0745	1136608	keystroke	e	n/a
568.483	0.061	1136966	keystroke	n	n/a
569.8935	0.075	1139787	keystroke	d	n/a
570.3735	0.12	1140747	keystroke	a	n/a
570.8385	0.075	1141677	keystroke	t	n/a
571.2585	0.105	1142517	keystroke	i	n/a
571.6035	0.09	1143207	keystroke	o	n/a
571.7985	0.09	1143597	keystroke	n	n/a
572.0385	0.09	1144077	keystroke	s	n/a
572.6535	0.045	1145307	keystroke	Key.space	n/a
572.8335	0.075	1145667	keystroke	f	n/a
573.284	0.105	1146568	keystroke	r	n/a
573.5535	0.105	1147107	keystroke	e	n/a
573.7185	0.105	1147437	keystroke	e	n/a
574.1235	0.09	1148247	keystroke	l	n/a
574.3485	0.09	1148697	keystroke	a	n/a
574.529	0.075	1149058	keystroke	n	n/a
574.739	0.09	1149478	keystroke	c	n/a
575.0235	0.06	1150047	keystroke	e	n/a
575.5185	0.09	1151037	keystroke	Key.space	n/a
575.789	0.09	1151578	keystroke	c	n/a
576.089	0.0755	1152178	keystroke	a	n/a
576.254	0.0595	1152508	keystroke	l	n/a
576.404	0.09	1152808	keystroke	l	n/a
576.854	0.105	1153708	keystroke	s	n/a
577.2435	0.105	1154487	keystroke	Key.enter	n/a
577.354	10.3615	1154708	prompt	n/a	reductions fancy unto trouble\n
578.0235	0.09	1156047	keystroke	r	n/a
578.2335	0.06	1156467	keystroke	e	n/a
578.9535	0.105	1157907	keystroke	d	n/a
579.629	0.06	1159258	keystroke	u	n/a
579.8685	0.1055	1159737	keystroke	c	n/a
580.274	0.075	1160548	keystroke	t	n/a
580.484	0.09	1160968	keystroke	i	n/a
580.664	0.09	1161328	keystroke	o	n/a
580.919	0.045	1161838	keystroke	n	n/a
581.114	0.09	1162228	keystroke	s	n/a
581.339	0.105	1162678	keystroke	Key.space	n/a
581.744	0.075	1163488	keystroke	f	n/a
581.969	0.075	1163938	keystroke	a	n/a
582.149	0.06	1164298	keystroke	n	n/a
582.358	0.091	1164716	keystroke	c	n/a
582.749	0.09	1165498	keystroke	y	n/a
583.049	0.0595	1166098	keystroke	Key.space	n/a
583.4535	0.091	1166907	keystroke	u	n/a
583.7385	0.06	1167477	keystroke	n	n/a
584.1285	0.075	1168257	keystroke	t	n/a
584.2335	0.105	1168467	keystroke	o	n/a
584.5785	0.09	1169157	keystroke	Key.space	n/a
585.1785	0.09	1170357	keystroke	t	n/a
585.4485	0.06	1170897	keystroke	r	n/a
585.6435	0.09	1171287	keystroke	o	n/a
585.8985	0.06	1171797	keystroke	u	n/a
586.4235	0.06	1172847	keystroke	b	n/a
586.8585	0.06	1173717	keystroke	l	n/a
587.0535	0.075	1174107	keystroke	e	n/a
587.579	0.135	1175158	keystroke	Key.enter	n/a
587.7205	16.795	1175441	prompt	n/a	changelog match pipeline championships\n
588.674	0.09	1177348	keystroke	c	n/a
588.779	0.075	1177558	keystroke	h	n/a
589.004	0.075	1178008	keystroke	a	n/a
589.8135	0.045	1179627	keystroke	n	n/a
590.159	0.075	1180318	keystroke	g	n/a
591.179	0.075	1182358	keystroke	e	n/a
591.389	0.09	1182778	keystroke	l	n/a
591.809	0.06	1183618	keystroke	o	n/a
592.6935	0.06	1185387	keystroke	g	n/a
593.2185	0.075	1186437	keystroke	Key.space	n/a
593.684	0.09	1187368	keystroke	m	n/a
593.849	0.105	1187698	keystroke	a	n/a
594.209	0.075	1188418	keystroke	t	n/a
594.584	0.06	1189168	keystroke	c	n/a
594.674	0.075	1189348	keystroke	h	n/a
594.9135	0.09	1189827	keystroke	Key.space	n/a
595.559	0.165	1191118	keystroke	p	n/a
595.8885	0.12	1191777	keystroke	i	n/a
596.309	0.075	1192618	keystroke	p	n/a
597.239	0.06	1194478	keystroke	e	n/a
597.509	0.09	1195018	keystroke	l	n/a
597.689	0.075	1195378	keystroke	i	n/a
597.914	0.075	1195828	keystroke	n	n/a
598.124	0.075	1196248	keystroke	e	n/a
598.574	0.075	1197148	keystroke	Key.space	n/a
599.174	0.09	1198348	keystroke	c	n/a
599.369	0.06	1198738	keystroke	h	n/a
599.684	0.09	1199368	keystroke	a	n/a
600.119	0.075	1200238	keystroke	m	n/a
600.584	0.12	1201168	keystroke	p	n/a
601.1695	0.059	1202339	keystroke	i	n/a
601.6335	0.09	1203267	keystroke	o	n/a
601.8745	0.074	1203749	keystroke	n	n/a
602.7135	0.121	1205427	keystroke	s	n/a
602.7735	0.075	1205547	keystroke	h	n/a
603.0735	0.105	1206147	keystroke	i	n/a
603.509	0.15	1207018	keystroke	p	n/a
603.989	0.09	1207978	keystroke	s	n/a
604.4085	0.105	1208817	keystroke	Key.enter	n/a
604.5205	18.3705	1209041	prompt	n/a	childhood thriller stream sequences\n
605.3085	0.075	1210617	keystroke	c	n/a
605.4435	0.075	1210887	keystroke	h	n/a
605.6835	0.075	1211367	keystroke	i	n/a
605.9385	0.105	1211877	keystroke	l	n/a
606.1785	0.076	1212357	keystroke	d	n/a
606.4785	0.12	1212957	keystroke	e	n/a
607.544	0.075	1215088	keystroke	Key.backspace	n/a
608.3535	0.105	1216707	keystroke	h	n/a
608.5945	0.09	1217189	keystroke	o	n/a
608.8195	0.0595	1217639	keystroke	d	n/a
608.969	0.105	1217938	keystroke	d	n/a
609.704	0.12	1219408	keystroke	Key.backspace	n/a
610.184	0.09	1220368	keystroke	Key.backspace	n/a
610.8885	0.09	1221777	keystroke	o	n/a
611.1445	0.104	1222289	keystroke	d	n/a
611.3535	0.105	1222707	keystroke	Key.space	n/a
612.1335	0.076	1224267	keystroke	t	n/a
612.2545	0.06	1224509	keystroke	h	n/a
612.4345	0.075	1224869	keystroke	r	n/a
612.6595	0.089	1225319	keystroke	i	n/a
612.9285	0.061	1225857	keystroke	l	n/a
613.0635	0.09	1226127	keystroke	l	n/a
613.3335	0.12	1226667	keystroke	e	n/a
613.6035	0.075	1227207	keystroke	r	n/a
613.7685	0.075	1227537	keystroke	Key.space	n/a
614.4585	0.106	1228917	keystroke	s	n/a
614.7885	0.105	1229577	keystroke	t	n/a
615.0735	0.135	1230147	keystroke	r	n/a
615.374	0.105	1230748	keystroke	e	n/a
615.779	0.09	1231558	keystroke	a	n/a
615.974	0.045	1231948	keystroke	m	n/a
616.319	0.09	1232638	keystroke	Key.space	n/a
616.874	0.075	1233748	keystroke	s	n/a
617.414	0.09	1234828	keystroke	q	n/a
618.2995	0.105	1236599	keystroke	Key.backspace	n/a
618.5845	0.09	1237169	keystroke	e	n/a
619.439	0.135	1238878	keystroke	q	n/a
619.709	0.06	1239418	keystroke	u	n/a
619.979	0.06	1239958	keystroke	e	n/a
620.6995	0.06	1241399	keystroke	n	n/a
620.9545	0.09	1241909	keystroke	c	n/a
621.344	0.09	1242688	keystroke	e	n/a
621.7635	0.075	1243527	keystroke	s	n/a
622.8735	0.015	1245747	keystroke	Key.enter	n/a
622.894	12.057	1245788	prompt	n/a	grants adobe chassis addressed\n
624.134	0.105	1248268	keystroke	g	n/a
624.479	0.09	1248958	keystroke	r	n/a
624.734	0.1045	1249468	keystroke	a	n/a
624.884	0.075	1249768	keystroke	n	n/a
625.0935	0.0905	1250187	keystroke	t	n/a
625.4235	0.09	1250847	keystroke	s	n/a
625.589	0.0895	1251178	keystroke	Key.space	n/a
625.949	0.09	1251898	keystroke	a	n/a
626.564	0.165	1253128	keystroke	d	n/a
627.164	0.09	1254328	keystroke	o	n/a
627.869	0.06	1255738	keystroke	b	n/a
628.409	0.09	1256818	keystroke	e	n/a
628.724	0.09	1257448	keystroke	Key.space	n/a
629.1135	0.121	1258227	keystroke	c	n/a
629.2635	0.075	1258527	keystroke	h	n/a
629.4735	0.09	1258947	keystroke	a	n/a
629.7585	0.09	1259517	keystroke	s	n/a
629.9385	0.105	1259877	keystroke	s	n/a
630.1635	0.06	1260327	keystroke	i	n/a
630.6885	0.105	1261377	keystroke	s	n/a
630.8985	0.105	1261797	keystroke	Key.space	n/a
631.1545	0.075	1262309	keystroke	a	n/a
631.439	0.09	1262878	keystroke	d	n/a
631.619	0.105	1263238	keystroke	d	n/a
632.429	0.09	1264858	keystroke	r	n/a
632.654	0.09	1265308	keystroke	e	n/a
632.954	0.09	1265908	keystroke	s	n/a
633.134	0.12	1266268	keystroke	s	n/a
633.539	0.075	1267078	keystroke	e	n/a
634.154	0.09	1268308	keystroke	d	n/a
634.799	0.1495	1269598	keystroke	Key.enter	n/a
634.954	9.7765	1269908	prompt	n/a	trade tahoe in bars\n
635.7145	0.09	1271429	keystroke	t	n/a
636.0895	0.1195	1272179	keystroke	r	n/a
636.449	0.105	1272898	keystroke	a	n/a
636.749	0.105	1273498	keystroke	d	n/a
637.259	0.075	1274518	keystroke	e	n/a
637.649	0.15	1275298	keystroke	Key.space	n/a
638.249	0.015	1276498	keystroke	t	n/a
638.489	0.09	1276978	keystroke	a	n/a
639.104	0.105	1278208	keystroke	h	n/a
639.3295	0.105	1278659	keystroke	o	n/a
639.7495	0.0895	1279499	keystroke	r	n/a
640.4695	0.09	1280939	keystroke	Key.backspace	n/a
640.6945	0.06	1281389	keystroke	e	n/a
640.8595	0.104	1281719	keystroke	Key.space	n/a
641.0985	0.09	1282197	keystroke	i	n/a
641.4135	0.075	1282827	keystroke	n	n/a
641.6535	0.105	1283307	keystroke	Key.space	n/a
642.4485	0.09	1284897	keystroke	b	n/a
642.7495	0.104	1285499	keystroke	a	n/a
643.0185	0.105	1286037	keystroke	r	n/a
643.3335	0.12	1286667	keystroke	s	n/a
644.654	0.075	1289308	keystroke	Key.enter	n/a
644.7335	30.852	1289467	prompt	n/a	admissions powerseller metallic voyeurweb\n
645.5985	0.091	1291197	keystroke	s	n/a
646.1395	0.09	1292279	keystroke	Key.backspace	n/a
646.3345	0.075	1292669	keystroke	a	n/a
646.5735	0.12	1293147	keystroke	d	n/a
647.174	0.12	1294348	keystroke	i	n/a
647.759	0.075	1295518	keystroke	Key.backspace	n/a
648.164	0.105	1296328	keystroke	m	n/a
648.509	0.075	1297018	keystroke	i	n/a
648.734	0.09	1297468	keystroke	s	n/a
648.899	0.12	1297798	keystroke	s	n/a
649.139	0.135	1298278	keystroke	i	n/a
649.349	0.105	1298698	keystroke	o	n/a
649.874	0.105	1299748	keystroke	n	n/a
650.129	0.09	1300258	keystroke	s	n/a
650.354	0.09	1300708	keystroke	Key.space	n/a
650.894	0.135	1301788	keystroke	p	n/a
651.1645	0.06	1302329	keystroke	o	n/a
651.3895	0.12	1302779	keystroke	w	n/a
651.644	0.135	1303288	keystroke	e	n/a
651.929	0.105	1303858	keystroke	r	n/a
652.604	0.18	1305208	keystroke	s	n/a
652.799	0.09	1305598	keystroke	e	n/a
653.024	0.0605	1306048	keystroke	l	n/a
653.159	0.09	1306318	keystroke	l	n/a
653.399	0.12	1306798	keystroke	e	n/a
653.684	0.09	1307368	keystroke	r	n/a
654.239	0.06	1308478	keystroke	Key.space	n/a
654.554	0.09	1309108	keystroke	m	n/a
654.734	0.09	1309468	keystroke	e	n/a
655.034	0.0905	1310068	keystroke	t	n/a
655.4245	0.135	1310849	keystroke	a	n/a
656.399	0.09	1312798	keystroke	l	n/a
656.549	0.135	1313098	keystroke	l	n/a
656.894	0.075	1313788	keystroke	i	n/a
657.119	0.09	1314238	keystroke	c	n/a
658.2145	0.045	1316429	keystroke	Key.space	n/a
658.5745	0.015	1317149	keystroke	b	n/a
658.6495	0.075	1317299	keystroke	o	n/a
659.399	0.12	1318798	keystroke	Key.backspace	n/a
659.894	0.06	1319788	keystroke	Key.backspace	n/a
660.1345	0.089	1320269	keystroke	v	n/a
660.6445	0.089	1321289	keystroke	i	n/a
660.9285	0.076	1321857	keystroke	y	n/a
661.634	0.075	1323268	keystroke	e	n/a
662.009	0.06	1324018	keystroke	u	n/a
662.3085	0.0905	1324617	keystroke	r	n/a
663.524	0.075	1327048	keystroke	Key.backspace	n/a
664.049	0.1055	1328098	keystroke	Key.backspace	n/a
664.589	0.09	1329178	keystroke	Key.backspace	n/a
665.144	0.09	1330288	keystroke	Key.backspace	n/a
665.6995	0.074	1331399	keystroke	Key.backspace	n/a
666.2535	0.09	1332507	keystroke	o	n/a
667.739	0.075	1335478	keystroke	y	n/a
668.009	0.075	1336018	keystroke	e	n/a
669.659	0.075	1339318	keystroke	y	n/a
670.424	0.105	1340848	keystroke	Key.backspace	n/a
671.054	0.0745	1342108	keystroke	u	n/a
672.479	0.09	1344958	keystroke	r	n/a
673.544	0.105	1347088	keystroke	w	n/a
673.754	0.09	1347508	keystroke	e	n/a
674.4895	0.105	1348979	keystroke	b	n/a
675.479	0.105	1350958	keystroke	Key.enter	n/a
675.5885	13.242	1351177	prompt	n/a	current hats outreach creature\n
676.619	0.09	1353238	keystroke	c	n/a
676.844	0.06	1353688	keystroke	u	n/a
677.7895	0.075	1355579	keystroke	r	n/a
677.9245	0.105	1355849	keystroke	r	n/a
678.4495	0.045	1356899	keystroke	e	n/a
678.5695	0.075	1357139	keystroke	n	n/a
678.7785	0.061	1357557	keystroke	t	n/a
678.9145	0.09	1357829	keystroke	Key.space	n/a
679.4385	0.075	1358877	keystroke	h	n/a
679.5885	0.105	1359177	keystroke	a	n/a
680.0385	0.075	1360077	keystroke	t	n/a
680.594	0.06	1361188	keystroke	s	n/a
680.7295	0.1195	1361459	keystroke	Key.space	n/a
681.014	0.06	1362028	keystroke	o	n/a
681.284	0.0755	1362568	keystroke	u	n/a
681.4935	0.075	1362987	keystroke	t	n/a
682.0635	0.0755	1364127	keystroke	Key.space	n/a
682.664	0.075	1365328	keystroke	Key.backspace	n/a
682.979	0.075	1365958	keystroke	r	n/a
683.189	0.09	1366378	keystroke	e	n/a
683.444	0.09	1366888	keystroke	a	n/a
683.744	0.09	1367488	keystroke	c	n/a
683.879	0.09	1367758	keystroke	h	n/a
684.134	0.105	1368268	keystroke	Key.space	n/a
684.734	0.075	1369468	keystroke	c	n/a
685.139	0.105	1370278	keystroke	r	n/a
685.364	0.105	1370728	keystroke	e	n/a
685.6345	0.09	1371269	keystroke	a	n/a
685.9795	0.075	1371959	keystroke	t	n/a
686.1295	0.089	1372259	keystroke	i	n/a
686.744	0.105	1373488	keystroke	Key.backspace	n/a
687.329	0.105	1374658	keystroke	u	n/a
687.734	0.105	1375468	keystroke	r	n/a
687.989	0.09	1375978	keystroke	e	n/a
688.754	0.075	1377508	keystroke	Key.enter	n/a
688.8335	22.3175	1377667	prompt	n/a	express repository counting bracelet\n
689.8345	0.075	1379669	keystroke	e	n/a
690.2095	0.09	1380419	keystroke	x	n/a
690.6595	0.075	1381319	keystroke	p	n/a
690.9145	0.075	1381829	keystroke	r	n/a
691.4695	0.09	1382939	keystroke	e	n/a
691.769	0.09	1383538	keystroke	s	n/a
691.934	0.105	1383868	keystroke	s	n/a
692.219	0.105	1384438	keystroke	Key.space	n/a
692.759	0.135	1385518	keystroke	r	n/a
693.029	0.09	1386058	keystroke	e	n/a
693.869	0.105	1387738	keystroke	p	n/a
694.349	0.06	1388698	keystroke	o	n/a
694.559	0.09	1389118	keystroke	s	n/a
695.504	0.06	1391008	keystroke	i	n/a
695.849	0.075	1391698	keystroke	t	n/a
696.029	0.09	1392058	keystroke	i	n/a
696.719	0.075	1393438	keystroke	o	n/a
697.904	0.24	1395808	keystroke	Key.backspace	n/a
698.504	0.12	1397008	keystroke	Key.backspace	n/a
699.7945	0.1045	1399589	keystroke	o	n/a
700.274	0.06	1400548	keystroke	r	n/a
700.379	0.075	1400758	keystroke	y	n/a
701.084	0.1055	1402168	keystroke	Key.space	n/a
701.3395	0.075	1402679	keystroke	c	n/a
701.4445	0.12	1402889	keystroke	o	n/a
701.6695	0.12	1403339	keystroke	u	n/a
702.0745	0.09	1404149	keystroke	n	n/a
702.6745	0.015	1405349	keystroke	t	n/a
702.8095	0.075	1405619	keystroke	i	n/a
703.0045	0.075	1406009	keystroke	n	n/a
703.1695	0.06	1406339	keystroke	g	n/a
703.5145	0.06	1407029	keystroke	Key.space	n/a
704.8645	0.09	1409729	keystroke	b	n/a
705.1945	0.045	1410389	keystroke	e	n/a
705.2545	0.0445	1410509	keystroke	r	n/a
706.094	0.09	1412188	keystroke	Key.backspace	n/a
706.544	0.075	1413088	keystroke	Key.backspace	n/a
706.919	0.09	1413838	keystroke	r	n/a
707.204	0.12	1414408	keystroke	a	n/a
707.534	0.105	1415068	keystroke	c	n/a
708.479	0.1045	1416958	keystroke	e	n/a
708.884	0.0755	1417768	keystroke	l	n/a
709.109	0.09	1418218	keystroke	e	n/a
709.469	0.075	1418938	keystroke	t	n/a
711.074	0.075	1422148	keystroke	Key.enter	n/a
711.154	11.6965	1422308	prompt	n/a	programming wealth evil controls\n
711.9295	0.089	1423859	keystroke	p	n/a
712.1695	0.075	1424339	keystroke	r	n/a
712.3645	0.075	1424729	keystroke	o	n/a
712.9795	0.15	1425959	keystroke	g	n/a
713.2785	0.106	1426557	keystroke	r	n/a
713.594	0.12	1427188	keystroke	a	n/a
713.819	0.0605	1427638	keystroke	m	n/a
713.9545	0.075	1427909	keystroke	m	n/a
714.3445	0.075	1428689	keystroke	i	n/a
714.5245	0.09	1429049	keystroke	n	n/a
714.6895	0.09	1429379	keystroke	g	n/a
714.9145	0.0745	1429829	keystroke	Key.space	n/a
715.4695	0.105	1430939	keystroke	w	n/a
715.8145	0.075	1431629	keystroke	e	n/a
716.0845	0.12	1432169	keystroke	a	n/a
716.774	0.075	1433548	keystroke	l	n/a
717.089	0.075	1434178	keystroke	t	n/a
717.224	0.105	1434448	keystroke	h	n/a
717.404	0.12	1434808	keystroke	Key.space	n/a
717.734	0.09	1435468	keystroke	e	n/a
718.124	0.12	1436248	keystroke	v	n/a
718.664	0.075	1437328	keystroke	i	n/a
718.874	0.105	1437748	keystroke	l	n/a
719.2045	0.075	1438409	keystroke	Key.space	n/a
719.5495	0.09	1439099	keystroke	c	n/a
719.6545	0.09	1439309	keystroke	o	n/a
719.8645	0.075	1439729	keystroke	n	n/a
720.9895	0.105	1441979	keystroke	t	n/a
721.2445	0.09	1442489	keystroke	r	n/a
721.7395	0.09	1443479	keystroke	o	n/a
721.9945	0.105	1443989	keystroke	l	n/a
722.2345	0.0905	1444469	keystroke	s	n/a
722.789	0.06	1445578	keystroke	Key.enter	n/a
722.8535	14.8325	1445707	prompt	n/a	hong objectives trader surrounding\n
723.644	0.09	1447288	keystroke	h	n/a
723.854	0.09	1447708	keystroke	o	n/a
724.124	0.06	1448248	keystroke	n	n/a
724.319	0.06	1448638	keystroke	g	n/a
724.484	0.0755	1448968	keystroke	Key.space	n/a
725.2045	0.09	1450409	keystroke	o	n/a
727.139	0.075	1454278	keystroke	b	n/a
727.499	0.06	1454998	keystroke	j	n/a
728.114	0.06	1456228	keystroke	e	n/a
728.369	0.12	1456738	keystroke	c	n/a
728.759	0.075	1457518	keystroke	t	n/a
728.969	0.075	1457938	keystroke	i	n/a
729.224	0.105	1458448	keystroke	v	n/a
729.539	0.09	1459078	keystroke	e	n/a
730.754	0.09	1461508	keystroke	s	n/a
731.115	0.0745	1462230	keystroke	Key.space	n/a
731.625	0.09	1463250	keystroke	t	n/a
731.955	0.089	1463910	keystroke	r	n/a
732.3	0.09	1464600	keystroke	a	n/a
732.569	0.105	1465138	keystroke	d	n/a
732.824	0.09	1465648	keystroke	e	n/a
733.1245	0.075	1466249	keystroke	r	n/a
733.5145	0.09	1467029	keystroke	Key.space	n/a
733.7995	0.09	1467599	keystroke	s	n/a
734.055	0.075	1468110	keystroke	u	n/a
734.34	0.075	1468680	keystroke	r	n/a
734.504	0.091	1469008	keystroke	r	n/a
735.06	0.089	1470120	keystroke	o	n/a
735.944	0.076	1471888	keystroke	u	n/a
736.199	0.075	1472398	keystroke	n	n/a
736.379	0.09	1472758	keystroke	d	n/a
736.664	0.075	1473328	keystroke	i	n/a
736.8595	0.09	1473719	keystroke	n	n/a
737.1145	0.09	1474229	keystroke	g	n/a
737.5945	0.09	1475189	keystroke	Key.enter	n/a
737.6895	14.351	1475379	prompt	n/a	portable copyright arrangement luther\n
738.51	0.104	1477020	keystroke	p	n/a
738.809	0.09	1477618	keystroke	o	n/a
739.1395	0.09	1478279	keystroke	r	n/a
739.5445	0.06	1479089	keystroke	t	n/a
739.8445	0.105	1479689	keystroke	a	n/a
740.1595	0.075	1480319	keystroke	b	n/a
740.2945	0.09	1480589	keystroke	l	n/a
740.4895	0.09	1480979	keystroke	e	n/a
740.8345	0.09	1481669	keystroke	Key.space	n/a
741.419	0.09	1482838	keystroke	c	n/a
741.584	0.1055	1483168	keystroke	o	n/a
742.0195	0.105	1484039	keystroke	p	n/a
742.3195	0.075	1484639	keystroke	y	n/a
742.829	0.075	1485658	keystroke	r	n/a
743.009	0.06	1486018	keystroke	i	n/a
743.9995	0.06	1487999	keystroke	g	n/a
744.1045	0.075	1488209	keystroke	h	n/a
744.2695	0.075	1488539	keystroke	t	n/a
744.8545	0.075	1489709	keystroke	Key.space	n/a
745.2595	0.09	1490519	keystroke	a	n/a
745.6495	0.075	1491299	keystroke	r	n/a
745.8295	0.0905	1491659	keystroke	r	n/a
746.219	0.1055	1492438	keystroke	a	n/a
746.94	0.075	1493880	keystroke	n	n/a
747.554	0.105	1495108	keystroke	g	n/a
748.0195	0.06	1496039	keystroke	e	n/a
748.334	0.0605	1496668	keystroke	m	n/a
748.6795	0.074	1497359	keystroke	e	n/a
748.8295	0.0305	1497659	keystroke	n	n/a
749.1595	0.075	1498319	keystroke	t	n/a
749.6695	0.09	1499339	keystroke	Key.space	n/a
750.1795	0.1055	1500359	keystroke	l	n/a
750.48	0.089	1500960	keystroke	u	n/a
750.899	0.09	1501798	keystroke	t	n/a
751.004	0.09	1502008	keystroke	h	n/a
751.214	0.12	1502428	keystroke	e	n/a
751.455	0.075	1502910	keystroke	r	n/a
751.964	0.075	1503928	keystroke	Key.enter	n/a
752.044	16.227	1504088	prompt	n/a	deeper producers arab growing\n
753.0295	0.1045	1506059	keystroke	d	n/a
753.344	0.09	1506688	keystroke	e	n/a
753.494	0.105	1506988	keystroke	e	n/a
753.764	0.06	1507528	keystroke	p	n/a
753.884	0.045	1507768	keystroke	p	n/a
754.649	0.075	1509298	keystroke	Key.backspace	n/a
755.009	0.0905	1510018	keystroke	e	n/a
755.2645	0.075	1510529	keystroke	r	n/a
755.3995	0.105	1510799	keystroke	Key.space	n/a
755.8795	0.09	1511759	keystroke	p	n/a
756.0595	0.075	1512119	keystroke	r	n/a
756.1945	0.09	1512389	keystroke	o	n/a
756.4345	0.075	1512869	keystroke	d	n/a
756.7645	0.0895	1513529	keystroke	u	n/a
757.364	0.09	1514728	keystroke	c	n/a
757.679	0.09	1515358	keystroke	e	n/a
758.069	0.105	1516138	keystroke	r	n/a
759.539	0.075	1519078	keystroke	s	n/a
759.8845	0.075	1519769	keystroke	Key.space	n/a
760.3795	0.12	1520759	keystroke	a	n/a
760.709	0.0905	1521418	keystroke	r	n/a
760.9645	0.135	1521929	keystroke	a	n/a
761.4295	0.12	1522859	keystroke	b	n/a
762.029	0.105	1524058	keystroke	Key.space	n/a
763.424	0.09	1526848	keystroke	g	n/a
763.829	0.0605	1527658	keystroke	r	n/a
764.0095	0.09	1528019	keystroke	o	n/a
764.3095	0.09	1528619	keystroke	w	n/a
765.2995	0.075	1530599	keystroke	u	n/a
766.1845	0.09	1532369	keystroke	Key.backspace	n/a
767.174	0.0605	1534348	keystroke	i	n/a
767.3545	0.0905	1534709	keystroke	n	n/a
767.58	0.074	1535160	keystroke	g	n/a
768.179	0.09	1536358	keystroke	Key.enter	n/a
768.276	11.35	1536552	prompt	n/a	leading backup top clocks\n
769.004	0.1055	1538008	keystroke	l	n/a
769.1695	0.0755	1538339	keystroke	e	n/a
769.394	0.06	1538788	keystroke	a	n/a
769.7395	0.09	1539479	keystroke	d	n/a
769.8745	0.075	1539749	keystroke	i	n/a
770.4745	0.0895	1540949	keystroke	n	n/a
770.6695	0.075	1541339	keystroke	g	n/a
770.8795	0.105	1541759	keystroke	Key.space	n/a
771.614	0.075	1543228	keystroke	b	n/a
771.8995	0.09	1543799	keystroke	a	n/a
772.1845	0.105	1544369	keystroke	c	n/a
772.3495	0.06	1544699	keystroke	k	n/a
772.8745	0.06	1545749	keystroke	u	n/a
773.0395	0.1055	1546079	keystroke	p	n/a
773.295	0.03	1546590	keystroke	p	n/a
773.9695	0.1195	1547939	keystroke	Key.backspace	n/a
774.569	0.105	1549138	keystroke	Key.space	n/a
774.929	0.06	1549858	keystroke	t	n/a
775.049	0.106	1550098	keystroke	o	n/a
775.29	0.09	1550580	keystroke	p	n/a
775.5	0.104	1551000	keystroke	Key.space	n/a
776.025	0.075	1552050	keystroke	c	n/a
776.249	0.075	1552498	keystroke	l	n/a
776.444	0.09	1552888	keystroke	o	n/a
776.849	0.09	1553698	keystroke	c	n/a
777.044	0.03	1554088	keystroke	k	n/a
777.209	0.06	1554418	keystroke	k	n/a
777.944	0.09	1555888	keystroke	Key.backspace	n/a
779.1145	0.075	1558229	keystroke	s	n/a
779.534	0.09	1559068	keystroke	Key.enter	n/a
779.629	17.952	1559258	prompt	n/a	chances joke tournament australia\n
780.374	0.09	1560748	keystroke	c	n/a
780.494	0.075	1560988	keystroke	h	n/a
780.689	0.075	1561378	keystroke	a	n/a
780.809	0.09	1561618	keystroke	n	n/a
781.019	0.105	1562038	keystroke	c	n/a
781.274	0.075	1562548	keystroke	e	n/a
781.5145	0.0905	1563029	keystroke	s	n/a
781.679	0.09	1563358	keystroke	Key.space	n/a
781.979	0.105	1563958	keystroke	j	n/a
782.234	0.09	1564468	keystroke	i	n/a
783.149	0.105	1566298	keystroke	Key.backspace	n/a
783.809	0.225	1567618	keystroke	o	n/a
784.049	0.03	1568098	keystroke	k	n/a
784.214	0.075	1568428	keystroke	e	n/a
784.364	0.09	1568728	keystroke	Key.space	n/a
785.25	0.09	1570500	keystroke	t	n/a
785.49	0.09	1570980	keystroke	o	n/a
785.7145	0.06	1571429	keystroke	u	n/a
786.2545	0.09	1572509	keystroke	r	n/a
786.734	0.075	1573468	keystroke	n	n/a
787.109	0.09	1574218	keystroke	a	n/a
787.814	0.09	1575628	keystroke	m	n/a
788.054	0.075	1576108	keystroke	e	n/a
788.204	0.075	1576408	keystroke	n	n/a
788.369	0.075	1576738	keystroke	r	n/a
788.5195	0.075	1577039	keystroke	Key.space	n/a
789.6145	0.0305	1579229	keystroke	Key.backspace	n/a
789.884	0.09	1579768	keystroke	Key.backspace	n/a
790.8	0.059	1581600	keystroke	t	n/a
790.979	0.075	1581958	keystroke	Key.space	n/a
791.9245	0.045	1583849	keystroke	a	n/a
792.3445	0.075	1584689	keystroke	u	n/a
793.064	0.015	1586128	keystroke	s	n/a
793.469	0.045	1586938	keystroke	t	n/a
794.474	0.06	1588948	keystroke	r	n/a
794.984	0.075	1589968	keystroke	a	n/a
795.749	0.12	1591498	keystroke	l	n/a
796.439	0.06	1592878	keystroke	i	n/a
797.024	0.075	1594048	keystroke	a	n/a
797.489	0.09	1594978	keystroke	Key.enter	n/a
797.584	16.047	1595168	prompt	n/a	cloud absorption meyer herself\n
798.555	0.06	1597110	keystroke	c	n/a
798.69	0.075	1597380	keystroke	l	n/a
798.945	0.06	1597890	keystroke	o	n/a
799.335	0.0745	1598670	keystroke	u	n/a
800.0095	0.075	1600019	keystroke	d	n/a
800.2495	0.09	1600499	keystroke	Key.space	n/a
800.5195	0.105	1601039	keystroke	a	n/a
801.3745	0.03	1602749	keystroke	v	n/a
801.3895	0.12	1602779	keystroke	b	n/a
802.245	0.0895	1604490	keystroke	Key.backspace	n/a
802.8	0.0745	1605600	keystroke	Key.backspace	n/a
803.5345	0.06	1607069	keystroke	b	n/a
804.5695	0.09	1609139	keystroke	s	n/a
804.7795	0.075	1609559	keystroke	o	n/a
805.0645	0.105	1610129	keystroke	r	n/a
805.9795	0.105	1611959	keystroke	p	n/a
807.1045	0.06	1614209	keystroke	t	n/a
807.2245	0.105	1614449	keystroke	i	n/a
807.4045	0.09	1614809	keystroke	o	n/a
807.9895	0.045	1615979	keystroke	n	n/a
808.1995	0.105	1616399	keystroke	Key.space	n/a
808.4845	0.075	1616969	keystroke	m	n/a
808.8295	0.0905	1617659	keystroke	e	n/a
809.04	0.0595	1618080	keystroke	y	n/a
809.2795	0.09	1618559	keystroke	e	n/a
809.73	0.12	1619460	keystroke	r	n/a
810.165	0.105	1620330	keystroke	Key.space	n/a
810.42	0.075	1620840	keystroke	h	n/a
810.555	0.12	1621110	keystroke	e	n/a
810.84	0.09	1621680	keystroke	r	n/a
811.859	0.106	1623718	keystroke	s	n/a
812.3695	0.105	1624739	keystroke	e	n/a
812.6245	0.075	1625249	keystroke	l	n/a
812.834	0.105	1625668	keystroke	f	n/a
813.57	0.06	1627140	keystroke	Key.enter	n/a
813.634	14.412	1627268	prompt	n/a	becoming holidays costume plenty\n
814.5445	0.09	1629089	keystroke	b	n/a
814.8595	0.09	1629719	keystroke	e	n/a
815.2495	0.09	1630499	keystroke	c	n/a
815.4145	0.12	1630829	keystroke	o	n/a
815.6395	0.1205	1631279	keystroke	m	n/a
815.88	0.075	1631760	keystroke	i	n/a
816.06	0.075	1632120	keystroke	n	n/a
816.225	0.09	1632450	keystroke	g	n/a
816.45	0.105	1632900	keystroke	Key.space	n/a
817.275	0.105	1634550	keystroke	h	n/a
817.5	0.09	1635000	keystroke	o	n/a
817.755	0.119	1635510	keystroke	l	n/a
818.58	0.045	1637160	keystroke	i	n/a
818.745	0.09	1637490	keystroke	d	n/a
819.045	0.075	1638090	keystroke	a	n/a
819.255	0.075	1638510	keystroke	y	n/a
819.8695	0.075	1639739	keystroke	s	n/a
820.1545	0.06	1640309	keystroke	Key.space	n/a
820.4845	0.09	1640969	keystroke	c	n/a
820.6645	0.075	1641329	keystroke	o	n/a
821.3395	0.105	1642679	keystroke	s	n/a
821.7445	0.075	1643489	keystroke	t	n/a
821.8945	0.075	1643789	keystroke	u	n/a
822.1495	0.075	1644299	keystroke	e	n/a
822.8395	0.045	1645679	keystroke	Key.backspace	n/a
823.38	0.075	1646760	keystroke	m	n/a
823.575	0.06	1647150	keystroke	e	n/a
824.1745	0.09	1648349	keystroke	Key.space	n/a
824.6245	0.075	1649249	keystroke	p	n/a
824.8195	0.09	1649639	keystroke	l	n/a
825.0595	0.1055	1650119	keystroke	e	n/a
825.315	0.06	1650630	keystroke	n	n/a
825.54	0.06	1651080	keystroke	t	n/a
825.839	0.076	1651678	keystroke	y	n/a
828.017	0.027	1656034	keystroke	Key.enter	n/a
828.049	13.437	1656098	prompt	n/a	promo fortune what've credits\n
828.9	0.105	1657800	keystroke	p	n/a
829.139	0.091	1658278	keystroke	r	n/a
829.304	0.105	1658608	keystroke	o	n/a
829.754	0.09	1659508	keystroke	m	n/a
829.994	0.09	1659988	keystroke	o	n/a
831.015	0.09	1662030	keystroke	Key.space	n/a
831.72	0.059	1663440	keystroke	f	n/a
831.855	0.09	1663710	keystroke	o	n/a
832.439	0.106	1664878	keystroke	r	n/a
832.815	0.075	1665630	keystroke	t	n/a
832.995	0.075	1665990	keystroke	u	n/a
833.8045	0.06	1667609	keystroke	n	n/a
834.0295	0.09	1668059	keystroke	e	n/a
834.3445	0.09	1668689	keystroke	Key.space	n/a
834.8395	0.075	1669679	keystroke	w	n/a
834.9595	0.09	1669919	keystroke	h	n/a
835.185	0.105	1670370	keystroke	a	n/a
835.53	0.09	1671060	keystroke	t	n/a
836.1595	0.075	1672319	keystroke	'	n/a
836.5795	0.045	1673159	keystroke	b	n/a
837.1195	0.0745	1674239	keystroke	Key.backspace	n/a
837.299	0.075	1674598	keystroke	v	n/a
837.5845	0.075	1675169	keystroke	e	n/a
838.185	0.0145	1676370	keystroke	Key.space	n/a
838.829	0.121	1677658	keystroke	c	n/a
839.459	0.105	1678918	keystroke	r	n/a
839.684	0.09	1679368	keystroke	e	n/a
840.014	0.105	1680028	keystroke	d	n/a
840.165	0.074	1680330	keystroke	i	n/a
840.435	0.074	1680870	keystroke	t	n/a
840.854	0.106	1681708	keystroke	s	n/a
841.409	0.075	1682818	keystroke	Key.enter	n/a
841.489	14.802	1682978	prompt	n/a	controversy marsh slots appearing\n
842.2345	0.075	1684469	keystroke	c	n/a
842.355	0.09	1684710	keystroke	o	n/a
842.55	0.075	1685100	keystroke	n	n/a
842.865	0.0745	1685730	keystroke	t	n/a
843.255	0.075	1686510	keystroke	e	n/a
843.884	0.09	1687768	keystroke	Key.backspace	n/a
844.11	0.059	1688220	keystroke	r	n/a
844.769	0.076	1689538	keystroke	o	n/a
844.994	0.09	1689988	keystroke	v	n/a
845.339	0.12	1690678	keystroke	e	n/a
845.67	0.0745	1691340	keystroke	r	n/a
846.5845	0.09	1693169	keystroke	Key.backspace	n/a
847.3495	0.06	1694699	keystroke	r	n/a
847.8145	0.09	1695629	keystroke	s	n/a
848.0995	0.075	1696199	keystroke	y	n/a
848.4295	0.1055	1696859	keystroke	Key.space	n/a
849.06	0.06	1698120	keystroke	m	n/a
849.24	0.12	1698480	keystroke	a	n/a
849.63	0.09	1699260	keystroke	r	n/a
850.6045	0.105	1701209	keystroke	s	n/a
850.7545	0.075	1701509	keystroke	h	n/a
851.2345	0.12	1702469	keystroke	Key.space	n/a
851.6545	0.09	1703309	keystroke	s	n/a
851.8045	0.075	1703609	keystroke	l	n/a
851.9995	0.09	1703999	keystroke	o	n/a
852.2695	0.09	1704539	keystroke	t	n/a
852.7795	0.06	1705559	keystroke	s	n/a
852.9445	0.09	1705889	keystroke	Key.space	n/a
853.2745	0.09	1706549	keystroke	a	n/a
853.4545	0.09	1706909	keystroke	p	n/a
853.6495	0.09	1707299	keystroke	p	n/a
854.01	0.09	1708020	keystroke	e	n/a
854.37	0.1195	1708740	keystroke	a	n/a
854.85	0.075	1709700	keystroke	r	n/a
855.06	0.09	1710120	keystroke	i	n/a
855.2695	0.09	1710539	keystroke	n	n/a
855.4645	0.06	1710929	keystroke	g	n/a
856.2445	0.045	1712489	keystroke	Key.enter	n/a
856.2945	14.9665	1712589	prompt	n/a	istanbul disagree cinema hobbies\n
857.175	0.075	1714350	keystroke	i	n/a
857.3395	0.1055	1714679	keystroke	s	n/a
857.6545	0.09	1715309	keystroke	t	n/a
857.94	0.105	1715880	keystroke	a	n/a
858.285	0.015	1716570	keystroke	b	n/a
858.945	0.089	1717890	keystroke	Key.backspace	n/a
859.514	0.075	1719028	keystroke	n	n/a
861.12	0.059	1722240	keystroke	b	n/a
861.299	0.075	1722598	keystroke	u	n/a
861.5545	0.0905	1723109	keystroke	l	n/a
862.2745	0.075	1724549	keystroke	Key.space	n/a
862.6645	0.09	1725329	keystroke	d	n/a
862.8295	0.075	1725659	keystroke	i	n/a
863.13	0.09	1726260	keystroke	s	n/a
863.94	0.09	1727880	keystroke	a	n/a
864.2395	0.105	1728479	keystroke	g	n/a
864.5695	0.105	1729139	keystroke	r	n/a
864.8395	0.075	1729679	keystroke	e	n/a
865.004	0.1055	1730008	keystroke	e	n/a
865.4395	0.075	1730879	keystroke	Key.space	n/a
865.8295	0.09	1731659	keystroke	c	n/a
865.9795	0.06	1731959	keystroke	i	n/a
866.175	0.075	1732350	keystroke	n	n/a
866.925	0.075	1733850	keystroke	e	n/a
867.48	0.06	1734960	keystroke	m	n/a
867.72	0.0895	1735440	keystroke	a	n/a
868.1545	0.09	1736309	keystroke	Key.space	n/a
868.5445	0.105	1737089	keystroke	h	n/a
868.845	0.0895	1737690	keystroke	o	n/a
869.3845	0.105	1738769	keystroke	b	n/a
869.5795	0.09	1739159	keystroke	b	n/a
869.8645	0.075	1739729	keystroke	i	n/a
870.1195	0.09	1740239	keystroke	e	n/a
870.4645	0.075	1740929	keystroke	s	n/a
871.1845	0.075	1742369	keystroke	Key.enter	n/a
871.264	11.307	1742528	prompt	n/a	binding peak colin styles\n
872.0995	0.105	1744199	keystroke	b	n/a
872.3545	0.075	1744709	keystroke	i	n/a
872.5495	0.12	1745099	keystroke	n	n/a
872.8045	0.12	1745609	keystroke	d	n/a
873.6145	0.06	1747229	keystroke	i	n/a
873.8095	0.06	1747619	keystroke	n	n/a
873.9745	0.075	1747949	keystroke	g	n/a
874.154	0.0755	1748308	keystroke	Key.space	n/a
874.4995	0.105	1748999	keystroke	p	n/a
874.8455	0.104	1749691	keystroke	i	n/a
875.3245	0.075	1750649	keystroke	Key.backspace	n/a
875.5645	0.075	1751129	keystroke	e	n/a
876.0145	0.09	1752029	keystroke	a	n/a
876.1495	0.075	1752299	keystroke	k	n/a
876.7045	0.09	1753409	keystroke	Key.space	n/a
877.02	0.0895	1754040	keystroke	c	n/a
877.1545	0.075	1754309	keystroke	o	n/a
877.3645	0.12	1754729	keystroke	l	n/a
877.6045	0.09	1755209	keystroke	i	n/a
878.2345	0.075	1756469	keystroke	n	n/a
878.684	0.09	1757368	keystroke	Key.space	n/a
878.9245	0.105	1757849	keystroke	s	n/a
880.5445	0.075	1761089	keystroke	t	n/a
880.6945	0.06	1761389	keystroke	y	n/a
881.0245	0.0745	1762049	keystroke	l	n/a
881.19	0.075	1762380	keystroke	e	n/a
882.015	0.09	1764030	keystroke	s	n/a
882.4795	0.09	1764959	keystroke	Key.enter	n/a
882.575	16.886	1765150	prompt	n/a	grass anthony lucky representing\n
883.455	0.1045	1766910	keystroke	g	n/a
883.7695	0.105	1767539	keystroke	r	n/a
884.0395	0.105	1768079	keystroke	e	n/a
884.4445	0.075	1768889	keystroke	a	n/a
885.089	0.1205	1770178	keystroke	Key.backspace	n/a
885.4795	0.09	1770959	keystroke	Key.backspace	n/a
885.9145	0.0905	1771829	keystroke	a	n/a
886.215	0.075	1772430	keystroke	s	n/a
886.41	0.09	1772820	keystroke	s	n/a
886.68	0.104	1773360	keystroke	Key.space	n/a
887.2045	0.0895	1774409	keystroke	a	n/a
887.384	0.106	1774768	keystroke	n	n/a
888.15	0.09	1776300	keystroke	t	n/a
888.27	0.0895	1776540	keystroke	h	n/a
888.5095	0.09	1777019	keystroke	o	n/a
888.72	0.075	1777440	keystroke	n	n/a
889.005	0.075	1778010	keystroke	y	n/a
889.35	0.09	1778700	keystroke	Key.space	n/a
889.68	0.105	1779360	keystroke	l	n/a
889.92	0.09	1779840	keystroke	i	n/a
890.505	0.1045	1781010	keystroke	Key.backspace	n/a
891.315	0.06	1782630	keystroke	u	n/a
891.87	0.09	1783740	keystroke	c	n/a
892.035	0.06	1784070	keystroke	k	n/a
892.9345	0.09	1785869	keystroke	y	n/a
893.1295	0.105	1786259	keystroke	Key.space	n/a
893.5345	0.075	1787069	keystroke	r	n/a
893.7145	0.105	1787429	keystroke	e	n/a
894.3895	0.09	1788779	keystroke	p	n/a
894.6145	0.105	1789229	keystroke	r	n/a
894.8995	0.09	1789799	keystroke	e	n/a
895.1845	0.105	1790369	keystroke	s	n/a
895.7545	0.06	1791509	keystroke	e	n/a
896.4145	0.06	1792829	keystroke	n	n/a
896.8645	0.06	1793729	keystroke	t	n/a
898.1545	0.015	1796309	keystroke	i	n/a
898.1845	0.03	1796369	keystroke	n	n/a
898.3645	0.075	1796729	keystroke	g	n/a
899.3995	0.06	1798799	keystroke	Key.enter	n/a
899.467	18.9845	1798934	prompt	n/a	chubby satisfied sharing employee\n
900.3145	0.105	1800629	keystroke	c	n/a
900.4945	0.06	1800989	keystroke	h	n/a
901.259	0.09	1802518	keystroke	u	n/a
901.62	0.09	1803240	keystroke	b	n/a
901.815	0.06	1803630	keystroke	b	n/a
902.039	0.075	1804078	keystroke	y	n/a
902.264	0.09	1804528	keystroke	Key.space	n/a
902.8345	0.136	1805669	keystroke	s	n/a
903.4645	0.015	1806929	keystroke	a	n/a
903.8395	0.09	1807679	keystroke	t	n/a
904.3795	0.045	1808759	keystroke	i	n/a
904.6195	0.09	1809239	keystroke	s	n/a
906.1645	0.09	1812329	keystroke	f	n/a
906.8545	0.075	1813709	keystroke	i	n/a
907.2745	0.09	1814549	keystroke	e	n/a
907.5445	0.075	1815089	keystroke	d	n/a
908.2495	0.09	1816499	keystroke	Key.space	n/a
908.4595	0.09	1816919	keystroke	s	n/a
908.5795	0.075	1817159	keystroke	h	n/a
908.7895	0.09	1817579	keystroke	a	n/a
909.0595	0.09	1818119	keystroke	r	n/a
909.2245	0.075	1818449	keystroke	i	n/a
910.2295	0.09	1820459	keystroke	b	n/a
910.8895	0.09	1821779	keystroke	Key.backspace	n/a
911.5045	0.075	1823009	keystroke	n	n/a
911.6845	0.075	1823369	keystroke	g	n/a
912.2695	0.09	1824539	keystroke	Key.space	n/a
912.7495	0.03	1825499	keystroke	e	n/a
913.4095	0.196	1826819	keystroke	m	n/a
914.7145	0.09	1829429	keystroke	p	n/a
915.7795	0.06	1831559	keystroke	l	n/a
916.1095	0.09	1832219	keystroke	o	n/a
916.8145	0.045	1833629	keystroke	y	n/a
917.1145	0.09	1834229	keystroke	e	n/a
917.4745	0.09	1834949	keystroke	e	n/a
918.3745	0.075	1836749	keystroke	Key.enter	n/a
918.4565	15.8505	1836913	prompt	n/a	dreams florida indeed josh\n
919.3495	0.09	1838699	keystroke	d	n/a
919.6345	0.09	1839269	keystroke	r	n/a
919.8595	0.09	1839719	keystroke	e	n/a
920.1745	0.075	1840349	keystroke	a	n/a
920.3545	0.075	1840709	keystroke	m	n/a
920.8645	0.09	1841729	keystroke	s	n/a
921.0445	0.0755	1842089	keystroke	Key.space	n/a
921.4795	0.075	1842959	keystroke	f	n/a
921.7195	0.075	1843439	keystroke	l	n/a
921.9445	0.09	1843889	keystroke	o	n/a
922.3495	0.075	1844699	keystroke	d	n/a
922.95	0.09	1845900	keystroke	r	n/a
923.1	0.075	1846200	keystroke	i	n/a
924.33	0.09	1848660	keystroke	Key.backspace	n/a
924.825	0.105	1849650	keystroke	Key.backspace	n/a
925.32	0.09	1850640	keystroke	Key.backspace	n/a
925.71	0.06	1851420	keystroke	r	n/a
926.8495	0.06	1853699	keystroke	i	n/a
927.3445	0.06	1854689	keystroke	d	n/a
927.645	0.0895	1855290	keystroke	a	n/a
928.215	0.045	1856430	keystroke	Key.space	n/a
928.62	0.075	1857240	keystroke	i	n/a
928.8	0.09	1857600	keystroke	n	n/a
929.7745	0.09	1859549	keystroke	d	n/a
930.8395	0.09	1861679	keystroke	e	n/a
931.0645	0.105	1862129	keystroke	e	n/a
931.4095	0.09	1862819	keystroke	d	n/a
932.1595	0.09	1864319	keystroke	Key.space	n/a
932.4145	0.105	1864829	keystroke	j	n/a
933.2695	0.0755	1866539	keystroke	o	n/a
933.525	0.09	1867050	keystroke	s	n/a
933.66	0.09	1867320	keystroke	h	n/a
934.23	0.075	1868460	keystroke	Key.enter	n/a
934.31	15.641	1868620	prompt	n/a	conditions hollow discounts bloggers\n
935.1745	0.0905	1870349	keystroke	c	n/a
935.3095	0.075	1870619	keystroke	o	n/a
935.4895	0.105	1870979	keystroke	n	n/a
935.8645	0.075	1871729	keystroke	d	n/a
936.7495	0.075	1873499	keystroke	i	n/a
937.0195	0.075	1874039	keystroke	t	n/a
937.1695	0.075	1874339	keystroke	i	n/a
937.2895	0.12	1874579	keystroke	o	n/a
937.7995	0.06	1875599	keystroke	n	n/a
938.49	0.12	1876980	keystroke	s	n/a
938.625	0.03	1877250	keystroke	Key.space	n/a
938.835	0.09	1877670	keystroke	h	n/a
939.3	0.075	1878600	keystroke	o	n/a
939.6	0.075	1879200	keystroke	l	n/a
939.75	0.09	1879500	keystroke	l	n/a
939.99	0.075	1879980	keystroke	o	n/a
940.17	0.09	1880340	keystroke	w	n/a
940.455	0.09	1880910	keystroke	Key.space	n/a
940.92	0.06	1881840	keystroke	d	n/a
941.4445	0.06	1882889	keystroke	i	n/a
941.6545	0.09	1883309	keystroke	s	n/a
942.1645	0.075	1884329	keystroke	c	n/a
942.2995	0.09	1884599	keystroke	o	n/a
942.5245	0.06	1885049	keystroke	u	n/a
942.84	0.0745	1885680	keystroke	n	n/a
943.29	0.015	1886580	keystroke	t	n/a
943.59	0.09	1887180	keystroke	s	n/a
943.74	0.0895	1887480	keystroke	Key.space	n/a
944.2195	0.105	1888439	keystroke	b	n/a
944.5045	0.075	1889009	keystroke	l	n/a
945.0895	0.0755	1890179	keystroke	o	n/a
945.4345	0.075	1890869	keystroke	f	n/a
945.5995	0.105	1891199	keystroke	f	n/a
945.9145	0.105	1891829	keystroke	e	n/a
946.8445	0.09	1893689	keystroke	Key.backspace	n/a
947.28	0.1045	1894560	keystroke	Key.backspace	n/a
947.715	0.0895	1895430	keystroke	Key.backspace	n/a
947.9695	0.105	1895939	keystroke	g	n/a
948.3295	0.09	1896659	keystroke	g	n/a
948.7795	0.12	1897559	keystroke	e	n/a
949.1245	0.12	1898249	keystroke	r	n/a
949.4845	0.09	1898969	keystroke	s	n/a
949.8595	0.09	1899719	keystroke	Key.enter	n/a
949.954	13.917	1899908	prompt	n/a	thermal laptops deadline cricket\n
950.7445	0.09	1901489	keystroke	t	n/a
951.6145	0.075	1903229	keystroke	h	n/a
951.9145	0.075	1903829	keystroke	e	n/a
952.2745	0.075	1904549	keystroke	r	n/a
952.4545	0.09	1904909	keystroke	m	n/a
952.71	0.09	1905420	keystroke	a	n/a
952.845	0.09	1905690	keystroke	l	n/a
953.0695	0.09	1906139	keystroke	Key.space	n/a
953.3095	0.09	1906619	keystroke	l	n/a
953.5045	0.105	1907009	keystroke	a	n/a
953.955	0.06	1907910	keystroke	p	n/a
954.57	0.045	1909140	keystroke	t	n/a
954.63	0.015	1909260	keystroke	i	n/a
955.215	0.105	1910430	keystroke	Key.backspace	n/a
955.875	0.09	1911750	keystroke	o	n/a
956.114	0.076	1912228	keystroke	p	n/a
956.4445	0.09	1912889	keystroke	s	n/a
956.7595	0.105	1913519	keystroke	Key.space	n/a
957.63	0.09	1915260	keystroke	d	n/a
957.93	0.075	1915860	keystroke	e	n/a
958.14	0.09	1916280	keystroke	a	n/a
958.38	0.105	1916760	keystroke	d	n/a
958.995	0.06	1917990	keystroke	l	n/a
959.1595	0.06	1918319	keystroke	i	n/a
959.3845	0.06	1918769	keystroke	n	n/a
959.5645	0.076	1919129	keystroke	e	n/a
960.4355	0.075	1920871	keystroke	Key.space	n/a
960.7195	0.09	1921439	keystroke	c	n/a
961.0645	0.09	1922129	keystroke	r	n/a
961.2895	0.06	1922579	keystroke	i	n/a
962.0695	0.09	1924139	keystroke	c	n/a
962.2195	0.075	1924439	keystroke	k	n/a
962.5345	0.105	1925069	keystroke	e	n/a
962.9545	0.075	1925909	keystroke	t	n/a
963.7795	0.09	1927559	keystroke	Key.enter	n/a
963.8755	17.306	1927751	prompt	n/a	notified foam jungle professionals\n
964.9195	0.075	1929839	keystroke	n	n/a
965.265	0.0905	1930530	keystroke	o	n/a
965.7	0.075	1931400	keystroke	t	n/a
966.225	0.06	1932450	keystroke	i	n/a
966.84	0.105	1933680	keystroke	f	n/a
967.125	0.075	1934250	keystroke	i	n/a
967.38	0.075	1934760	keystroke	e	n/a
967.62	0.075	1935240	keystroke	d	n/a
967.86	0.09	1935720	keystroke	Key.space	n/a
968.6845	0.06	1937369	keystroke	f	n/a
968.8945	0.06	1937789	keystroke	o	n/a
969.1645	0.09	1938329	keystroke	w	n/a
969.824	0.09	1939648	keystroke	Key.backspace	n/a
970.545	0.075	1941090	keystroke	a	n/a
970.665	0.09	1941330	keystroke	m	n/a
970.98	0.105	1941960	keystroke	Key.space	n/a
971.625	0.075	1943250	keystroke	j	n/a
972.015	0.075	1944030	keystroke	u	n/a
972.24	0.105	1944480	keystroke	n	n/a
972.495	0.09	1944990	keystroke	g	n/a
973.35	0.075	1946700	keystroke	l	n/a
973.605	0.12	1947210	keystroke	e	n/a
974.0845	0.09	1948169	keystroke	Key.space	n/a
974.8495	0.09	1949699	keystroke	p	n/a
975.0445	0.075	1950089	keystroke	r	n/a
975.1495	0.09	1950299	keystroke	o	n/a
975.75	0.075	1951500	keystroke	f	n/a
976.02	0.105	1952040	keystroke	e	n/a
976.29	0.09	1952580	keystroke	s	n/a
976.47	0.09	1952940	keystroke	s	n/a
976.755	0.09	1953510	keystroke	i	n/a
977.355	0.075	1954710	keystroke	n	n/a
978.135	0.09	1956270	keystroke	Key.backspace	n/a
978.7355	0.03	1957471	keystroke	o	n/a
978.8845	0.09	1957769	keystroke	n	n/a
979.4695	0.09	1958939	keystroke	a	n/a
979.9345	0.075	1959869	keystroke	l	n/a
980.1745	0.075	1960349	keystroke	s	n/a
981.0895	0.09	1962179	keystroke	Key.enter	n/a
981.1845	20.172	1962369	prompt	n/a	packing cruz wallace contents\n
982.065	0.105	1964130	keystroke	p	n/a
982.2745	0.09	1964549	keystroke	a	n/a
982.6495	0.09	1965299	keystroke	c	n/a
982.7845	0.09	1965569	keystroke	l	n/a
983.91	0.09	1967820	keystroke	Key.backspace	n/a
984.39	0.09	1968780	keystroke	k	n/a
984.735	0.075	1969470	keystroke	i	n/a
984.93	0.12	1969860	keystroke	n	n/a
985.155	0.09	1970310	keystroke	g	n/a
985.74	0.105	1971480	keystroke	Key.space	n/a
986.0695	0.09	1972139	keystroke	c	n/a
987.0595	0.0755	1974119	keystroke	r	n/a
987.42	0.06	1974840	keystroke	u	n/a
987.615	0.09	1975230	keystroke	s	n/a
988.2	0.09	1976400	keystroke	Key.space	n/a
991.277	0.028	1982554	keystroke	q	n/a
991.8305	0.09	1983661	keystroke	Key.backspace	n/a
992.1605	0.12	1984321	keystroke	e	n/a
993.4205	0.045	1986841	keystroke	Key.backspace	n/a
993.7955	0.045	1987591	keystroke	e	n/a
994.83	0.09	1989660	keystroke	Key.backspace	n/a
995.4	0.12	1990800	keystroke	w	n/a
995.73	0.09	1991460	keystroke	a	n/a
995.895	0.075	1991790	keystroke	l	n/a
996.03	0.09	1992060	keystroke	l	n/a
996.69	0.075	1993380	keystroke	a	n/a
996.96	0.12	1993920	keystroke	c	n/a
997.2455	0.059	1994491	keystroke	e	n/a
997.3795	0.1205	1994759	keystroke	Key.space	n/a
998.145	0.105	1996290	keystroke	c	n/a
998.31	0.0905	1996620	keystroke	o	n/a
998.6255	0.075	1997251	keystroke	n	n/a
998.9705	0.075	1997941	keystroke	t	n/a
999.3595	0.09	1998719	keystroke	e	n/a
999.5705	0.059	1999141	keystroke	n	n/a
999.8845	0.09	1999769	keystroke	t	n/a
1000.2595	0.105	2000519	keystroke	s	n/a
1001.2795	0.075	2002559	keystroke	Key.enter	n/a
1001.359	15.703	2002718	prompt	n/a	independently midlands dressing himself\n
1002.33	0.0595	2004660	keystroke	i	n/a
1002.5255	0.075	2005051	keystroke	n	n/a
1002.7055	0.104	2005411	keystroke	d	n/a
1002.9895	0.091	2005979	keystroke	e	n/a
1003.6805	0.059	2007361	keystroke	p	n/a
1003.9205	0.075	2007841	keystroke	e	n/a
1004.1005	0.06	2008201	keystroke	n	n/a
1004.8505	0.09	2009701	keystroke	d	n/a
1005.975	0.06	2011950	keystroke	e	n/a
1006.1405	0.0595	2012281	keystroke	n	n/a
1006.485	0.0905	2012970	keystroke	t	n/a
1006.8005	0.09	2013601	keystroke	l	n/a
1007.085	0.0905	2014170	keystroke	y	n/a
1007.4155	0.0895	2014831	keystroke	Key.space	n/a
1008.15	0.06	2016300	keystroke	m	n/a
1008.36	0.0605	2016720	keystroke	i	n/a
1008.5405	0.09	2017081	keystroke	d	n/a
1009.2755	0.09	2018551	keystroke	l	n/a
1009.4705	0.075	2018941	keystroke	a	n/a
1009.6655	0.06	2019331	keystroke	n	n/a
1009.8455	0.075	2019691	keystroke	d	n/a
1010.5205	0.09	2021041	keystroke	s	n/a
1010.76	0.09	2021520	keystroke	Key.space	n/a
1011.03	0.09	2022060	keystroke	d	n/a
1011.4495	0.1055	2022899	keystroke	r	n/a
1011.7945	0.105	2023589	keystroke	e	n/a
1012.1245	0.075	2024249	keystroke	s	n/a
1012.2745	0.105	2024549	keystroke	s	n/a
1012.4695	0.06	2024939	keystroke	i	n/a
1012.635	0.09	2025270	keystroke	n	n/a
1012.7695	0.09	2025539	keystroke	g	n/a
1012.935	0.09	2025870	keystroke	Key.space	n/a
1013.1605	0.0895	2026321	keystroke	h	n/a
1013.385	0.075	2026770	keystroke	i	n/a
1013.6695	0.0755	2027339	keystroke	m	n/a
1014.18	0.0895	2028360	keystroke	s	n/a
1014.5095	0.106	2029019	keystroke	e	n/a
1015.6805	0.09	2031361	keystroke	l	n/a
1015.9055	0.075	2031811	keystroke	f	n/a
1016.9695	0.09	2033939	keystroke	Key.enter	n/a
1017.0645	42.3725	2034129	prompt	n/a	christianity consecutive similarly athletic\n
1017.915	0.0895	2035830	keystroke	c	n/a
1018.0495	0.0755	2036099	keystroke	h	n/a
1018.3045	0.075	2036609	keystroke	r	n/a
1018.4695	0.075	2036939	keystroke	i	n/a
1018.695	0.1205	2037390	keystroke	s	n/a
1020.525	0.075	2041050	keystroke	t	n/a
1020.99	0.0755	2041980	keystroke	i	n/a
1021.6355	0.105	2043271	keystroke	a	n/a
1021.9205	0.075	2043841	keystroke	n	n/a
1022.4905	0.06	2044981	keystroke	i	n/a
1022.8055	0.045	2045611	keystroke	t	n/a
1022.9255	0.075	2045851	keystroke	y	n/a
1023.5395	0.165	2047079	keystroke	Key.space	n/a
1023.7945	0.09	2047589	keystroke	c	n/a
1023.9155	0.089	2047831	keystroke	o	n/a
1024.11	0.09	2048220	keystroke	n	n/a
1024.4855	0.105	2048971	keystroke	s	n/a
1024.8155	0.09	2049631	keystroke	e	n/a
1026.06	0.09	2052120	keystroke	c	n/a
1027.2305	0.09	2054461	keystroke	u	n/a
1027.5905	0.075	2055181	keystroke	t	n/a
1027.8755	0.075	2055751	keystroke	i	n/a
1029.21	0.0895	2058420	keystroke	c	n/a
1029.7955	0.075	2059591	keystroke	Key.backspace	n/a
1029.9905	0.075	2059981	keystroke	v	n/a
1030.2905	0.075	2060581	keystroke	e	n/a
1030.8155	0.09	2061631	keystroke	Key.space	n/a
1031.0255	0.075	2062051	keystroke	s	n/a
1031.1605	0.0745	2062321	keystroke	i	n/a
1031.37	0.0605	2062740	keystroke	m	n/a
1031.67	0.09	2063340	keystroke	i	n/a
1032.4355	0.075	2064871	keystroke	i	n/a
1032.6755	0.075	2065351	keystroke	l	n/a
1032.8855	0.105	2065771	keystroke	a	n/a
1033.365	0.045	2066730	keystroke	r	n/a
1033.425	0.045	2066850	keystroke	y	n/a
1034.13	0.105	2068260	keystroke	Key.space	n/a
1034.715	0.106	2069430	keystroke	a	n/a
1035.06	0.075	2070120	keystroke	t	n/a
1035.18	0.06	2070360	keystroke	h	n/a
1039.832	0.043	2079664	keystroke	Key.backspace	n/a
1040.43	0.09	2080860	keystroke	Key.backspace	n/a
1040.985	0.1205	2081970	keystroke	Key.backspace	n/a
1041.5105	0.09	2083021	keystroke	Key.backspace	n/a
1041.7205	0.075	2083441	keystroke	Key.backspace	n/a
1042.6055	0.09	2085211	keystroke	Key.backspace	n/a
1043.2505	0.09	2086501	keystroke	Key.backspace	n/a
1043.9255	0.09	2087851	keystroke	Key.backspace	n/a
1044.93	0.09	2089860	keystroke	Key.backspace	n/a
1046.97	0.0755	2093940	keystroke	l	n/a
1047.9005	0.105	2095801	keystroke	a	n/a
1048.6805	0.075	2097361	keystroke	r	n/a
1050.675	0.09	2101350	keystroke	l	n/a
1051.14	0.075	2102280	keystroke	y	n/a
1051.725	0.09	2103450	keystroke	Key.space	n/a
1052.445	0.105	2104890	keystroke	a	n/a
1052.745	0.075	2105490	keystroke	t	n/a
1052.8955	0.045	2105791	keystroke	h	n/a
1053.2105	0.075	2106421	keystroke	e	n/a
1053.4655	0.075	2106931	keystroke	l	n/a
1054.2	0.105	2108400	keystroke	Key.backspace	n/a
1054.6355	0.075	2109271	keystroke	Key.backspace	n/a
1055.2055	0.06	2110411	keystroke	l	n/a
1055.4005	0.105	2110801	keystroke	e	n/a
1055.7755	0.075	2111551	keystroke	t	n/a
1055.9705	0.075	2111941	keystroke	h	n/a
1056.9755	0.12	2113951	keystroke	Key.backspace	n/a
1058.145	0.076	2116290	keystroke	i	n/a
1058.386	0.09	2116772	keystroke	c	n/a
1059.346	0.089	2118692	keystroke	Key.enter	n/a
1059.44	13.077	2118880	prompt	n/a	colleges highly urls critical\n
1060.26	0.09	2120520	keystroke	c	n/a
1060.426	0.09	2120852	keystroke	o	n/a
1060.801	0.089	2121602	keystroke	l	n/a
1060.95	0.1055	2121900	keystroke	l	n/a
1061.2505	0.105	2122501	keystroke	e	n/a
1061.5955	0.06	2123191	keystroke	g	n/a
1061.8505	0.075	2123701	keystroke	e	n/a
1062.1355	0.09	2124271	keystroke	s	n/a
1062.676	0.09	2125352	keystroke	Key.space	n/a
1062.946	0.075	2125892	keystroke	h	n/a
1063.1855	0.0595	2126371	keystroke	i	n/a
1064.145	0.0605	2128290	keystroke	g	n/a
1064.265	0.0755	2128530	keystroke	h	n/a
1065.2255	0.06	2130451	keystroke	l	n/a
1065.4655	0.09	2130931	keystroke	y	n/a
1065.7055	0.105	2131411	keystroke	Key.space	n/a
1066.3955	0.09	2132791	keystroke	u	n/a
1066.8905	0.105	2133781	keystroke	r	n/a
1067.2955	0.075	2134591	keystroke	l	n/a
1067.5805	0.0905	2135161	keystroke	s	n/a
1068.45	0.045	2136900	keystroke	Key.space	n/a
1068.945	0.03	2137890	keystroke	c	n/a
1069.261	0.075	2138522	keystroke	r	n/a
1069.441	0.075	2138882	keystroke	i	n/a
1070.2955	0.06	2140591	keystroke	t	n/a
1070.4605	0.06	2140921	keystroke	i	n/a
1070.7605	0.12	2141521	keystroke	c	n/a
1071.0755	0.045	2142151	keystroke	a	n/a
1071.1955	0.0755	2142391	keystroke	l	n/a
1072.441	0.075	2144882	keystroke	Key.enter	n/a
