onset	duration	sample	value	key	prompt_text
5.33	10.768	10660	prompt	n/a	the quick brown fox jumps over a lazy dog\n
9.089	0.182	18178	keystroke_t	t	n/a
9.216	0.095	18432	keystroke_h	h	n/a
9.319	0.151	18638	keystroke_e	e	n/a
9.454	0.1385	18908	keystroke_Key.space	Key.space	n/a
9.935	0.118	19870	keystroke_q	q	n/a
10.0055	0.1545	20011	keystroke_u	u	n/a
10.1285	0.103	20257	keystroke_i	i	n/a
10.3035	0.1185	20607	keystroke_c	c	n/a
10.406	0.1355	20812	keystroke_k	k	n/a
10.5415	0.1865	21083	keystroke_Key.space	Key.space	n/a
10.7205	0.0945	21441	keystroke_b	b	n/a
10.8315	0.095	21663	keystroke_r	r	n/a
10.95	0.0795	21900	keystroke_o	o	n/a
11.03	0.09	22060	keystroke_w	w	n/a
11.144	0.143	22288	keystroke_n	n	n/a
11.295	0.134	22590	keystroke_Key.space	Key.space	n/a
11.64	0.0715	23280	keystroke_f	f	n/a
11.7195	0.095	23439	keystroke_o	o	n/a
11.8545	0.11	23709	keystroke_x	x	n/a
11.9175	0.135	23835	keystroke_Key.space	Key.space	n/a
12.0365	0.0915	24073	keystroke_j	j	n/a
12.152	0.0875	24304	keystroke_u	u	n/a
12.3345	0.0795	24669	keystroke_m	m	n/a
12.517	0.107	25034	keystroke_p	p	n/a
12.625	0.102	25250	keystroke_s	s	n/a
12.6955	0.1585	25391	keystroke_Key.space	Key.space	n/a
12.862	0.1115	25724	keystroke_o	o	n/a
12.9655	0.0955	25931	keystroke_v	v	n/a
13.159	0.151	26318	keystroke_e	e	n/a
13.2545	0.1355	26509	keystroke_r	r	n/a
13.365	0.112	26730	keystroke_Key.space	Key.space	n/a
13.485	0.097	26970	keystroke_a	a	n/a
13.573	0.1365	27146	keystroke_Key.space	Key.space	n/a
13.711	0.1025	27422	keystroke_l	l	n/a
13.821	0.0795	27642	keystroke_a	a	n/a
14.103	0.119	28206	keystroke_y	y	n/a
14.508	0.083	29016	keystroke_Key.backspace	Key.backspace	n/a
14.6545	0.127	29309	keystroke_z	z	n/a
14.8295	0.079	29659	keystroke_y	y	n/a
16.0205	0.0745	32041	keystroke_Key.enter	Key.enter	n/a
16.104	6.2385	32208	prompt	n/a	invite cambridge trends ain't\n
17.1435	0.1025	34287	keystroke_i	i	n/a
17.3415	0.0875	34683	keystroke_n	n	n/a
17.453	0.089	34906	keystroke_v	v	n/a
17.5985	0.1115	35197	keystroke_i	i	n/a
17.8135	0.174	35627	keystroke_t	t	n/a
17.9005	0.137	35801	keystroke_e	e	n/a
18.0035	0.1705	36007	keystroke_Key.space	Key.space	n/a
18.46	0.1705	36920	keystroke_c	c	n/a
18.646	0.1275	37292	keystroke_a	a	n/a
18.7655	0.0795	37531	keystroke_m	m	n/a
19.014	0.096	38028	keystroke_b	b	n/a
19.1575	0.095	38315	keystroke_r	r	n/a
19.2765	0.111	38553	keystroke_i	i	n/a
19.4115	0.0805	38823	keystroke_d	d	n/a
19.6535	0.1035	39307	keystroke_g	g	n/a
19.7325	0.127	39465	keystroke_e	e	n/a
19.876	0.144	39752	keystroke_Key.space	Key.space	n/a
20.118	0.1195	40236	keystroke_t	t	n/a
20.3485	0.1435	40697	keystroke_r	r	n/a
20.5155	0.147	41031	keystroke_e	e	n/a
20.678	0.095	41356	keystroke_n	n	n/a
20.813	0.1355	41626	keystroke_d	d	n/a
20.9005	0.1275	41801	keystroke_s	s	n/a
21.094	0.143	42188	keystroke_Key.space	Key.space	n/a
21.2375	0.135	42475	keystroke_a	a	n/a
21.3165	0.0875	42633	keystroke_i	i	n/a
21.491	0.091	42982	keystroke_n	n	n/a
21.7495	0.0955	43499	keystroke_'	'	n/a
21.861	0.1695	43722	keystroke_t	t	n/a
22.2605	0.0795	44521	keystroke_Key.enter	Key.enter	n/a
22.3555	8.9305	44711	prompt	n/a	philippines halifax suppliers encoding\n
23.3005	0.0795	46601	keystroke_p	p	n/a
23.589	0.112	47178	keystroke_h	h	n/a
23.717	0.1115	47434	keystroke_i	i	n/a
23.8285	0.143	47657	keystroke_l	l	n/a
23.94	0.087	47880	keystroke_i	i	n/a
24.2295	0.095	48459	keystroke_p	p	n/a
24.853	0.0705	49706	keystroke_p	p	n/a
25.1815	0.063	50363	keystroke_e	e	n/a
25.5415	0.0715	51083	keystroke_Key.backspace	Key.backspace	n/a
25.8275	0.0885	51655	keystroke_i	i	n/a
26.0195	0.1215	52039	keystroke_n	n	n/a
26.1175	0.1115	52235	keystroke_e	e	n/a
26.1965	0.135	52393	keystroke_s	s	n/a
26.308	0.143	52616	keystroke_Key.space	Key.space	n/a
26.483	0.13	52966	keystroke_h	h	n/a
26.621	0.1435	53242	keystroke_a	a	n/a
26.7645	0.0635	53529	keystroke_l	l	n/a
26.884	0.0955	53768	keystroke_i	i	n/a
27.101	0.1195	54202	keystroke_f	f	n/a
27.404	0.055	54808	keystroke_a	a	n/a
27.645	0.1035	55290	keystroke_x	x	n/a
27.7645	0.1435	55529	keystroke_Key.space	Key.space	n/a
28.0275	0.1135	56055	keystroke_s	s	n/a
28.117	0.088	56234	keystroke_u	u	n/a
28.5805	0.04	57161	keystroke_p	p	n/a
28.708	0.0795	57416	keystroke_p	p	n/a
28.907	0.1775	57814	keystroke_l	l	n/a
29.2445	0.1195	58489	keystroke_i	i	n/a
29.3	0.1515	58600	keystroke_e	e	n/a
29.4115	0.129	58823	keystroke_r	r	n/a
29.541	0.127	59082	keystroke_s	s	n/a
29.708	0.1435	59416	keystroke_Key.space	Key.space	n/a
30.0925	0.151	60185	keystroke_e	e	n/a
30.2515	0.103	60503	keystroke_n	n	n/a
30.3705	0.113	60741	keystroke_c	c	n/a
30.5165	0.08	61033	keystroke_o	o	n/a
30.6525	0.0955	61305	keystroke_d	d	n/a
30.724	0.088	61448	keystroke_i	i	n/a
30.8595	0.1035	61719	keystroke_n	n	n/a
30.971	0.113	61942	keystroke_g	g	n/a
31.212	0.071	62424	keystroke_Key.enter	Key.enter	n/a
31.292	8.465	62584	prompt	n/a	period philadelphia quizzes safari\n
32.021	0.0635	64042	keystroke_o	o	n/a
32.428	0.08	64856	keystroke_Key.backspace	Key.backspace	n/a
32.7235	0.072	65447	keystroke_p	p	n/a
32.851	0.17	65702	keystroke_e	e	n/a
32.98	0.1275	65960	keystroke_r	r	n/a
33.2275	0.1275	66455	keystroke_i	i	n/a
33.363	0.081	66726	keystroke_o	o	n/a
33.4765	0.087	66953	keystroke_d	d	n/a
33.691	0.1675	67382	keystroke_Key.space	Key.space	n/a
33.906	0.098	67812	keystroke_p	p	n/a
34.2265	0.152	68453	keystroke_h	h	n/a
34.3465	0.146	68693	keystroke_i	i	n/a
34.4685	0.1275	68937	keystroke_l	l	n/a
34.692	0.1115	69384	keystroke_a	a	n/a
34.9885	0.135	69977	keystroke_d	d	n/a
35.1	0.1275	70200	keystroke_e	e	n/a
35.2275	0.096	70455	keystroke_l	l	n/a
35.452	0.0475	70904	keystroke_p	p	n/a
35.843	0.0975	71686	keystroke_h	h	n/a
35.988	0.1435	71976	keystroke_i	i	n/a
36.1235	0.1205	72247	keystroke_a	a	n/a
36.267	0.137	72534	keystroke_Key.space	Key.space	n/a
36.763	0.1115	73526	keystroke_q	q	n/a
36.8665	0.138	73733	keystroke_u	u	n/a
36.9565	0.1195	73913	keystroke_i	i	n/a
37.436	0.032	74872	keystroke_z	z	n/a
37.6275	0.064	75255	keystroke_z	z	n/a
37.827	0.1855	75654	keystroke_e	e	n/a
37.924	0.1595	75848	keystroke_s	s	n/a
38.115	0.1515	76230	keystroke_Key.space	Key.space	n/a
38.2275	0.072	76455	keystroke_s	s	n/a
38.4295	0.1425	76859	keystroke_a	a	n/a
38.6505	0.0885	77301	keystroke_f	f	n/a
38.778	0.144	77556	keystroke_a	a	n/a
38.9805	0.1435	77961	keystroke_r	r	n/a
39.099	0.0875	78198	keystroke_i	i	n/a
39.6515	0.1035	79303	keystroke_Key.enter	Key.enter	n/a
39.7605	4.9975	79521	prompt	n/a	gathered openings drew scout\n
40.524	0.1035	81048	keystroke_g	g	n/a
40.7155	0.1355	81431	keystroke_a	a	n/a
40.835	0.145	81670	keystroke_t	t	n/a
40.971	0.113	81942	keystroke_h	h	n/a
41.02	0.1515	82040	keystroke_e	e	n/a
41.1395	0.152	82279	keystroke_r	r	n/a
41.2585	0.1935	82517	keystroke_e	e	n/a
41.46	0.096	82920	keystroke_d	d	n/a
41.532	0.1515	83064	keystroke_Key.space	Key.space	n/a
41.843	0.1925	83686	keystroke_o	o	n/a
41.948	0.1595	83896	keystroke_p	p	n/a
42.0835	0.1355	84167	keystroke_e	e	n/a
42.251	0.1115	84502	keystroke_n	n	n/a
42.355	0.1685	84710	keystroke_i	i	n/a
42.515	0.1125	85030	keystroke_n	n	n/a
42.595	0.1595	85190	keystroke_g	g	n/a
42.755	0.1345	85510	keystroke_s	s	n/a
42.8815	0.1615	85763	keystroke_Key.space	Key.space	n/a
43.0905	0.097	86181	keystroke_d	d	n/a
43.3385	0.177	86677	keystroke_r	r	n/a
43.387	0.192	86774	keystroke_e	e	n/a
43.4995	0.144	86999	keystroke_w	w	n/a
43.667	0.1595	87334	keystroke_Key.space	Key.space	n/a
43.8665	0.0885	87733	keystroke_s	s	n/a
44.0515	0.096	88103	keystroke_c	c	n/a
44.1395	0.0715	88279	keystroke_o	o	n/a
44.2835	0.103	88567	keystroke_u	u	n/a
44.4505	0.0895	88901	keystroke_t	t	n/a
44.6835	0.072	89367	keystroke_Key.enter	Key.enter	n/a
44.7625	6.082	89525	prompt	n/a	subject lexus eligible trades\n
45.4035	0.1115	90807	keystroke_s	s	n/a
45.516	0.111	91032	keystroke_u	u	n/a
45.699	0.0875	91398	keystroke_b	b	n/a
45.93	0.1215	91860	keystroke_j	j	n/a
46.0195	0.128	92039	keystroke_e	e	n/a
46.162	0.0885	92324	keystroke_c	c	n/a
46.4975	0.138	92995	keystroke_t	t	n/a
46.6115	0.1515	93223	keystroke_Key.space	Key.space	n/a
46.7715	0.111	93543	keystroke_l	l	n/a
46.9065	0.0645	93813	keystroke_e	e	n/a
47.18	0.0785	94360	keystroke_x	x	n/a
47.2435	0.104	94487	keystroke_u	u	n/a
47.41	0.0965	94820	keystroke_s	s	n/a
47.643	0.1435	95286	keystroke_Key.space	Key.space	n/a
48.5695	0.082	97139	keystroke_e	e	n/a
48.6825	0.0965	97365	keystroke_l	l	n/a
48.907	0.0945	97814	keystroke_i	i	n/a
49.066	0.1295	98132	keystroke_g	g	n/a
49.1475	0.0875	98295	keystroke_i	i	n/a
49.355	0.1115	98710	keystroke_b	b	n/a
49.569	0.122	99138	keystroke_l	l	n/a
49.6825	0.112	99365	keystroke_e	e	n/a
49.762	0.1595	99524	keystroke_Key.space	Key.space	n/a
49.9065	0.1195	99813	keystroke_t	t	n/a
50.139	0.1195	100278	keystroke_r	r	n/a
50.251	0.104	100502	keystroke_a	a	n/a
50.4505	0.12	100901	keystroke_d	d	n/a
50.522	0.1365	101044	keystroke_e	e	n/a
50.594	0.121	101188	keystroke_s	s	n/a
50.7465	0.096	101493	keystroke_Key.enter	Key.enter	n/a
50.8615	4.711	101723	prompt	n/a	needs sorry answers grad\n
51.603	0.0885	103206	keystroke_n	n	n/a
51.7075	0.0785	103415	keystroke_e	e	n/a
51.875	0.0955	103750	keystroke_e	e	n/a
51.9785	0.096	103957	keystroke_d	d	n/a
52.0505	0.129	104101	keystroke_s	s	n/a
52.1635	0.1435	104327	keystroke_Key.space	Key.space	n/a
52.322	0.096	104644	keystroke_s	s	n/a
52.4025	0.111	104805	keystroke_o	o	n/a
52.5065	0.1125	105013	keystroke_r	r	n/a
52.707	0.1195	105414	keystroke_r	r	n/a
52.7855	0.113	105571	keystroke_y	y	n/a
52.9215	0.1355	105843	keystroke_Key.space	Key.space	n/a
53.243	0.0955	106486	keystroke_a	a	n/a
53.3225	0.096	106645	keystroke_n	n	n/a
53.5375	0.081	107075	keystroke_s	s	n/a
53.778	0.056	107556	keystroke_w	w	n/a
53.9695	0.1205	107939	keystroke_e	e	n/a
54.0495	0.1445	108099	keystroke_r	r	n/a
54.218	0.1195	108436	keystroke_s	s	n/a
54.4015	0.153	108803	keystroke_Key.space	Key.space	n/a
54.682	0.0875	109364	keystroke_g	g	n/a
54.9065	0.104	109813	keystroke_r	r	n/a
55.0105	0.1605	110021	keystroke_a	a	n/a
55.1785	0.088	110357	keystroke_d	d	n/a
55.474	0.097	110948	keystroke_Key.enter	Key.enter	n/a
55.5765	5.5875	111153	prompt	n/a	associated genome ignore rental\n
56.298	0.096	112596	keystroke_a	a	n/a
56.474	0.0795	112948	keystroke_s	s	n/a
56.6745	0.056	113349	keystroke_s	s	n/a
56.7865	0.0875	113573	keystroke_o	o	n/a
56.938	0.145	113876	keystroke_c	c	n/a
57.0585	0.096	114117	keystroke_i	i	n/a
57.2345	0.1835	114469	keystroke_a	a	n/a
57.4345	0.1675	114869	keystroke_t	t	n/a
57.5945	0.1995	115189	keystroke_e	e	n/a
57.77	0.12	115540	keystroke_d	d	n/a
57.866	0.1355	115732	keystroke_Key.space	Key.space	n/a
58.0655	0.1205	116131	keystroke_g	g	n/a
58.1625	0.135	116325	keystroke_e	e	n/a
58.2985	0.1115	116597	keystroke_n	n	n/a
58.6185	0.096	117237	keystroke_o	o	n/a
58.7785	0.1435	117557	keystroke_m	m	n/a
58.914	0.121	117828	keystroke_e	e	n/a
59.0505	0.184	118101	keystroke_Key.space	Key.space	n/a
59.2425	0.1275	118485	keystroke_i	i	n/a
59.45	0.121	118900	keystroke_g	g	n/a
59.6025	0.112	119205	keystroke_n	n	n/a
59.7705	0.144	119541	keystroke_o	o	n/a
59.8505	0.1195	119701	keystroke_r	r	n/a
59.93	0.1605	119860	keystroke_e	e	n/a
60.0105	0.16	120021	keystroke_Key.space	Key.space	n/a
60.1865	0.12	120373	keystroke_r	r	n/a
60.274	0.152	120548	keystroke_e	e	n/a
60.402	0.1125	120804	keystroke_n	n	n/a
60.498	0.1205	120996	keystroke_t	t	n/a
60.6505	0.128	121301	keystroke_a	a	n/a
60.762	0.1115	121524	keystroke_l	l	n/a
61.0905	0.071	122181	keystroke_Key.enter	Key.enter	n/a
61.1675	8.1485	122335	prompt	n/a	biological christian unlikely featuring\n
61.771	0.0955	123542	keystroke_b	b	n/a
61.9785	0.16	123957	keystroke_i	i	n/a
62.0745	0.136	124149	keystroke_o	o	n/a
62.33	0.0805	124660	keystroke_l	l	n/a
62.5145	0.088	125029	keystroke_o	o	n/a
62.642	0.104	125284	keystroke_g	g	n/a
62.73	0.0955	125460	keystroke_i	i	n/a
62.93	0.1205	125860	keystroke_c	c	n/a
63.0345	0.128	126069	keystroke_a	a	n/a
63.1145	0.1275	126229	keystroke_l	l	n/a
63.2265	0.168	126453	keystroke_Key.space	Key.space	n/a
63.45	0.112	126900	keystroke_c	c	n/a
63.57	0.112	127140	keystroke_h	h	n/a
64.0665	0.095	128133	keystroke_r	r	n/a
64.1695	0.088	128339	keystroke_i	i	n/a
64.306	0.1525	128612	keystroke_s	s	n/a
64.4825	0.1195	128965	keystroke_t	t	n/a
64.666	0.088	129332	keystroke_i	i	n/a
64.794	0.1125	129588	keystroke_a	a	n/a
64.9075	0.111	129815	keystroke_n	n	n/a
65.074	0.168	130148	keystroke_Key.space	Key.space	n/a
65.227	0.104	130454	keystroke_u	u	n/a
65.3705	0.12	130741	keystroke_n	n	n/a
65.5705	0.152	131141	keystroke_l	l	n/a
65.6985	0.112	131397	keystroke_i	i	n/a
65.915	0.0795	131830	keystroke_k	k	n/a
66.059	0.0875	132118	keystroke_e	e	n/a
66.1385	0.088	132277	keystroke_l	l	n/a
66.363	0.111	132726	keystroke_y	y	n/a
66.53	0.152	133060	keystroke_Key.space	Key.space	n/a
66.6975	0.1125	133395	keystroke_f	f	n/a
66.8265	0.1435	133653	keystroke_e	e	n/a
66.962	0.144	133924	keystroke_a	a	n/a
67.074	0.128	134148	keystroke_t	t	n/a
67.2415	0.089	134483	keystroke_u	u	n/a
67.354	0.0875	134708	keystroke_r	r	n/a
67.4655	0.073	134931	keystroke_i	i	n/a
67.5935	0.0965	135187	keystroke_n	n	n/a
67.6735	0.1115	135347	keystroke_g	g	n/a
69.194	0.12	138388	keystroke_Key.enter	Key.enter	n/a
69.319	7.7965	138638	prompt	n/a	held arrange students latvia\n
70.018	0.088	140036	keystroke_h	h	n/a
70.1865	0.1035	140373	keystroke_e	e	n/a
70.275	0.119	140550	keystroke_l	l	n/a
70.426	0.104	140852	keystroke_f	f	n/a
70.5375	0.1925	141075	keystroke_Key.space	Key.space	n/a
71.0825	0.104	142165	keystroke_Key.backspace	Key.backspace	n/a
71.2825	0.0885	142565	keystroke_Key.backspace	Key.backspace	n/a
71.419	0.12	142838	keystroke_d	d	n/a
71.491	0.1435	142982	keystroke_Key.space	Key.space	n/a
71.8905	0.152	143781	keystroke_a	a	n/a
72.0265	0.104	144053	keystroke_r	r	n/a
72.2025	0.1115	144405	keystroke_r	r	n/a
72.306	0.1205	144612	keystroke_a	a	n/a
72.4745	0.128	144949	keystroke_n	n	n/a
72.6105	0.128	145221	keystroke_g	g	n/a
72.715	0.1355	145430	keystroke_e	e	n/a
72.8585	0.16	145717	keystroke_Key.space	Key.space	n/a
73.035	0.1755	146070	keystroke_s	s	n/a
73.195	0.1355	146390	keystroke_t	t	n/a
73.3545	0.096	146709	keystroke_u	u	n/a
73.5305	0.0965	147061	keystroke_d	d	n/a
73.618	0.1365	147236	keystroke_e	e	n/a
73.731	0.1435	147462	keystroke_n	n	n/a
73.8105	0.16	147621	keystroke_t	t	n/a
73.939	0.1275	147878	keystroke_s	s	n/a
74.0745	0.176	148149	keystroke_Key.space	Key.space	n/a
74.4195	0.087	148839	keystroke_t	t	n/a
74.523	0.0875	149046	keystroke_l	l	n/a
74.8345	0.056	149669	keystroke_Key.backspace	Key.backspace	n/a
74.994	0.048	149988	keystroke_Key.backspace	Key.backspace	n/a
75.274	0.097	150548	keystroke_l	l	n/a
75.371	0.12	150742	keystroke_a	a	n/a
75.459	0.096	150918	keystroke_t	t	n/a
75.6345	0.0555	151269	keystroke_i	i	n/a
75.7385	0.08	151477	keystroke_v	v	n/a
76.0745	0.056	152149	keystroke_Key.backspace	Key.backspace	n/a
76.2105	0.0725	152421	keystroke_Key.backspace	Key.backspace	n/a
76.3225	0.0645	152645	keystroke_v	v	n/a
76.5065	0.0795	153013	keystroke_i	i	n/a
76.602	0.0965	153204	keystroke_a	a	n/a
77.01	0.104	154020	keystroke_Key.enter	Key.enter	n/a
77.1195	6.1005	154239	prompt	n/a	permission advocacy pull airplane\n
77.7395	0.103	155479	keystroke_p	p	n/a
77.8585	0.088	155717	keystroke_e	e	n/a
77.915	0.136	155830	keystroke_r	r	n/a
78.0825	0.112	156165	keystroke_m	m	n/a
78.1545	0.1355	156309	keystroke_i	i	n/a
78.2985	0.064	156597	keystroke_s	s	n/a
78.466	0.072	156932	keystroke_s	s	n/a
78.53	0.128	157060	keystroke_i	i	n/a
78.6265	0.0795	157253	keystroke_o	o	n/a
78.731	0.1445	157462	keystroke_n	n	n/a
78.827	0.136	157654	keystroke_Key.space	Key.space	n/a
78.947	0.144	157894	keystroke_a	a	n/a
79.107	0.0875	158214	keystroke_d	d	n/a
79.3945	0.088	158789	keystroke_v	v	n/a
79.594	0.1045	159188	keystroke_o	o	n/a
79.8425	0.08	159685	keystroke_c	c	n/a
79.994	0.088	159988	keystroke_a	a	n/a
80.218	0.0965	160436	keystroke_c	c	n/a
80.3465	0.104	160693	keystroke_y	y	n/a
80.4825	0.183	160965	keystroke_Key.space	Key.space	n/a
80.6825	0.1365	161365	keystroke_p	p	n/a
80.9465	0.081	161893	keystroke_u	u	n/a
81.171	0.072	162342	keystroke_l	l	n/a
81.33	0.1115	162660	keystroke_l	l	n/a
81.4505	0.1195	162901	keystroke_Key.space	Key.space	n/a
81.6335	0.1215	163267	keystroke_a	a	n/a
81.755	0.0955	163510	keystroke_i	i	n/a
81.923	0.0955	163846	keystroke_r	r	n/a
82.027	0.0875	164054	keystroke_p	p	n/a
82.2585	0.104	164517	keystroke_l	l	n/a
82.379	0.1195	164758	keystroke_a	a	n/a
82.571	0.0955	165142	keystroke_n	n	n/a
82.6825	0.1205	165365	keystroke_e	e	n/a
83.1385	0.0805	166277	keystroke_Key.enter	Key.enter	n/a
83.2235	6.0605	166447	prompt	n/a	issn memorial jazz richardson\n
84.075	0.0875	168150	keystroke_i	i	n/a
84.235	0.048	168470	keystroke_s	s	n/a
84.387	0.0795	168774	keystroke_s	s	n/a
84.483	0.1275	168966	keystroke_n	n	n/a
84.603	0.1355	169206	keystroke_Key.space	Key.space	n/a
84.987	0.1195	169974	keystroke_m	m	n/a
85.1225	0.144	170245	keystroke_e	e	n/a
85.2265	0.1285	170453	keystroke_m	m	n/a
85.4745	0.08	170949	keystroke_o	o	n/a
85.643	0.112	171286	keystroke_r	r	n/a
85.731	0.0885	171462	keystroke_i	i	n/a
85.883	0.112	171766	keystroke_a	a	n/a
85.955	0.1435	171910	keystroke_l	l	n/a
86.091	0.1675	172182	keystroke_Key.space	Key.space	n/a
86.3065	0.1205	172613	keystroke_j	j	n/a
86.49	0.1045	172980	keystroke_a	a	n/a
86.7705	0.0875	173541	keystroke_z	z	n/a
86.955	0.079	173910	keystroke_z	z	n/a
87.1305	0.1685	174261	keystroke_Key.space	Key.space	n/a
87.499	0.119	174998	keystroke_r	r	n/a
87.7225	0.0875	175445	keystroke_i	i	n/a
87.89	0.136	175780	keystroke_c	c	n/a
87.97	0.12	175940	keystroke_h	h	n/a
88.1705	0.144	176341	keystroke_a	a	n/a
88.3065	0.112	176613	keystroke_r	r	n/a
88.5455	0.0805	177091	keystroke_d	d	n/a
88.682	0.112	177364	keystroke_s	s	n/a
88.771	0.111	177542	keystroke_o	o	n/a
88.915	0.112	177830	keystroke_n	n	n/a
89.2185	0.064	178437	keystroke_Key.enter	Key.enter	n/a
89.2885	5.6845	178577	prompt	n/a	aspect ahead icons creativity\n
89.9225	0.088	179845	keystroke_a	a	n/a
90.0825	0.0965	180165	keystroke_s	s	n/a
90.186	0.1045	180372	keystroke_p	p	n/a
90.3065	0.104	180613	keystroke_e	e	n/a
90.4985	0.096	180997	keystroke_c	c	n/a
90.747	0.128	181494	keystroke_t	t	n/a
90.842	0.1285	181684	keystroke_Key.space	Key.space	n/a
90.9715	0.127	181943	keystroke_a	a	n/a
91.115	0.1115	182230	keystroke_h	h	n/a
91.2105	0.1205	182421	keystroke_e	e	n/a
91.7065	0.16	183413	keystroke_a	a	n/a
91.8585	0.12	183717	keystroke_d	d	n/a
91.97	0.128	183940	keystroke_Key.space	Key.space	n/a
92.25	0.089	184500	keystroke_i	i	n/a
92.4355	0.1035	184871	keystroke_c	c	n/a
92.539	0.071	185078	keystroke_o	o	n/a
92.698	0.121	185396	keystroke_n	n	n/a
92.802	0.128	185604	keystroke_s	s	n/a
92.938	0.1365	185876	keystroke_Key.space	Key.space	n/a
93.267	0.1195	186534	keystroke_c	c	n/a
93.554	0.1765	187108	keystroke_r	r	n/a
93.6415	0.185	187283	keystroke_e	e	n/a
93.7545	0.184	187509	keystroke_a	a	n/a
93.9225	0.081	187845	keystroke_t	t	n/a
94.0195	0.096	188039	keystroke_i	i	n/a
94.194	0.081	188388	keystroke_v	v	n/a
94.25	0.081	188500	keystroke_i	i	n/a
94.41	0.113	188820	keystroke_t	t	n/a
94.482	0.105	188964	keystroke_y	y	n/a
94.891	0.0795	189782	keystroke_Key.enter	Key.enter	n/a
94.9775	7.1555	189955	prompt	n/a	framing payroll meets constitutional\n
95.835	0.0715	191670	keystroke_f	f	n/a
96.0345	0.1125	192069	keystroke_r	r	n/a
96.115	0.136	192230	keystroke_a	a	n/a
96.203	0.136	192406	keystroke_m	m	n/a
96.315	0.112	192630	keystroke_i	i	n/a
96.499	0.112	192998	keystroke_n	n	n/a
96.595	0.112	193190	keystroke_g	g	n/a
96.667	0.176	193334	keystroke_Key.space	Key.space	n/a
96.8915	0.1035	193783	keystroke_p	p	n/a
97.043	0.096	194086	keystroke_a	a	n/a
97.187	0.096	194374	keystroke_y	y	n/a
97.363	0.0955	194726	keystroke_r	r	n/a
97.4505	0.088	194901	keystroke_o	o	n/a
97.6825	0.0565	195365	keystroke_l	l	n/a
97.883	0.048	195766	keystroke_l	l	n/a
98.251	0.128	196502	keystroke_Key.space	Key.space	n/a
98.403	0.104	196806	keystroke_m	m	n/a
98.4835	0.1435	196967	keystroke_e	e	n/a
98.787	0.112	197574	keystroke_e	e	n/a
98.891	0.135	197782	keystroke_t	t	n/a
99.035	0.095	198070	keystroke_s	s	n/a
99.155	0.127	198310	keystroke_Key.space	Key.space	n/a
99.386	0.1365	198772	keystroke_c	c	n/a
99.4585	0.08	198917	keystroke_o	o	n/a
99.6425	0.1205	199285	keystroke_n	n	n/a
99.7555	0.1275	199511	keystroke_s	s	n/a
99.972	0.127	199944	keystroke_t	t	n/a
100.1235	0.104	200247	keystroke_i	i	n/a
100.2745	0.128	200549	keystroke_t	t	n/a
100.4835	0.096	200967	keystroke_u	u	n/a
100.6425	0.167	201285	keystroke_t	t	n/a
100.8255	0.113	201651	keystroke_i	i	n/a
100.8905	0.128	201781	keystroke_o	o	n/a
101.0425	0.104	202085	keystroke_n	n	n/a
101.435	0.136	202870	keystroke_a	a	n/a
101.587	0.1435	203174	keystroke_l	l	n/a
102.0105	0.12	204021	keystroke_Key.enter	Key.enter	n/a
102.137	5.419	204274	prompt	n/a	mass absolute stages coupon\n
102.7235	0.1035	205447	keystroke_m	m	n/a
102.8185	0.1205	205637	keystroke_a	a	n/a
102.899	0.0965	205798	keystroke_s	s	n/a
103.091	0.08	206182	keystroke_s	s	n/a
103.1785	0.152	206357	keystroke_Key.space	Key.space	n/a
103.3625	0.12	206725	keystroke_a	a	n/a
103.4345	0.112	206869	keystroke_b	b	n/a
103.683	0.096	207366	keystroke_s	s	n/a
103.771	0.047	207542	keystroke_o	o	n/a
103.946	0.065	207892	keystroke_l	l	n/a
104.147	0.1115	208294	keystroke_u	u	n/a
104.187	0.192	208374	keystroke_t	t	n/a
104.314	0.1615	208628	keystroke_e	e	n/a
104.426	0.152	208852	keystroke_Key.space	Key.space	n/a
104.65	0.0895	209300	keystroke_s	s	n/a
104.7715	0.1195	209543	keystroke_t	t	n/a
104.899	0.0965	209798	keystroke_a	a	n/a
105.1075	0.159	210215	keystroke_g	g	n/a
105.1625	0.192	210325	keystroke_e	e	n/a
105.25	0.1445	210500	keystroke_s	s	n/a
105.395	0.151	210790	keystroke_Key.space	Key.space	n/a
105.7705	0.168	211541	keystroke_c	c	n/a
105.883	0.0715	211766	keystroke_o	o	n/a
106.051	0.072	212102	keystroke_u	u	n/a
106.283	0.0885	212566	keystroke_p	p	n/a
106.5075	0.0715	213015	keystroke_o	o	n/a
106.891	0.096	213782	keystroke_n	n	n/a
107.466	0.0885	214932	keystroke_Key.enter	Key.enter	n/a
107.5615	5.675	215123	prompt	n/a	pearl trivia elite mastercard\n
108.1785	0.08	216357	keystroke_p	p	n/a
108.3305	0.1205	216661	keystroke_e	e	n/a
108.579	0.113	217158	keystroke_a	a	n/a
108.6675	0.1275	217335	keystroke_r	r	n/a
108.811	0.08	217622	keystroke_l	l	n/a
109.0505	0.168	218101	keystroke_Key.space	Key.space	n/a
109.2105	0.0875	218421	keystroke_t	t	n/a
109.4025	0.097	218805	keystroke_r	r	n/a
109.6105	0.0565	219221	keystroke_i	i	n/a
109.699	0.112	219398	keystroke_v	v	n/a
109.819	0.104	219638	keystroke_i	i	n/a
109.971	0.1285	219942	keystroke_a	a	n/a
110.211	0.152	220422	keystroke_Key.space	Key.space	n/a
110.547	0.152	221094	keystroke_e	e	n/a
110.683	0.0635	221366	keystroke_l	l	n/a
110.835	0.096	221670	keystroke_i	i	n/a
110.9065	0.1445	221813	keystroke_t	t	n/a
111.019	0.119	222038	keystroke_e	e	n/a
111.1305	0.1365	222261	keystroke_Key.space	Key.space	n/a
111.4745	0.0725	222949	keystroke_m	m	n/a
111.538	0.1525	223076	keystroke_a	a	n/a
111.6505	0.128	223301	keystroke_s	s	n/a
111.867	0.0805	223734	keystroke_t	t	n/a
111.971	0.1765	223942	keystroke_e	e	n/a
112.0915	0.135	224183	keystroke_r	r	n/a
112.451	0.144	224902	keystroke_c	c	n/a
112.6195	0.136	225239	keystroke_a	a	n/a
112.7155	0.1115	225431	keystroke_r	r	n/a
112.963	0.1035	225926	keystroke_d	d	n/a
113.131	0.1035	226262	keystroke_Key.enter	Key.enter	n/a
113.241	7.652	226482	prompt	n/a	apparatus acceptable concord kenneth\n
113.843	0.1035	227686	keystroke_a	a	n/a
114.2915	0.0795	228583	keystroke_p	p	n/a
114.467	0.0965	228934	keystroke_p	p	n/a
114.531	0.151	229062	keystroke_a	a	n/a
114.642	0.16	229284	keystroke_r	r	n/a
115.075	0.096	230150	keystroke_a	a	n/a
115.243	0.12	230486	keystroke_t	t	n/a
115.443	0.1195	230886	keystroke_u	u	n/a
115.586	0.121	231172	keystroke_s	s	n/a
115.682	0.136	231364	keystroke_Key.space	Key.space	n/a
115.923	0.0965	231846	keystroke_a	a	n/a
116.1625	0.288	232325	keystroke_c	c	n/a
116.659	0.104	233318	keystroke_c	c	n/a
116.787	0.1685	233574	keystroke_e	e	n/a
116.946	0.121	233892	keystroke_p	p	n/a
117.1475	0.1355	234295	keystroke_t	t	n/a
117.363	0.128	234726	keystroke_a	a	n/a
117.475	0.12	234950	keystroke_b	b	n/a
117.7235	0.112	235447	keystroke_l	l	n/a
117.82	0.111	235640	keystroke_e	e	n/a
117.8915	0.183	235783	keystroke_Key.space	Key.space	n/a
118.082	0.1285	236164	keystroke_c	c	n/a
118.355	0.1035	236710	keystroke_o	o	n/a
118.5635	0.095	237127	keystroke_n	n	n/a
118.8505	0.137	237701	keystroke_c	c	n/a
119.067	0.104	238134	keystroke_o	o	n/a
119.1875	0.12	238375	keystroke_r	r	n/a
119.4185	0.1115	238837	keystroke_d	d	n/a
119.474	0.177	238948	keystroke_Key.space	Key.space	n/a
119.659	0.1035	239318	keystroke_k	k	n/a
119.7635	0.143	239527	keystroke_e	e	n/a
119.8985	0.0725	239797	keystroke_n	n	n/a
120.099	0.0555	240198	keystroke_n	n	n/a
120.2025	0.1045	240405	keystroke_e	e	n/a
120.3795	0.1515	240759	keystroke_t	t	n/a
120.4665	0.112	240933	keystroke_h	h	n/a
120.835	0.0555	241670	keystroke_Key.enter	Key.enter	n/a
120.9005	4.8955	241801	prompt	n/a	gains gale listing cinema\n
121.595	0.1205	243190	keystroke_g	g	n/a
121.7955	0.103	243591	keystroke_a	a	n/a
121.875	0.08	243750	keystroke_i	i	n/a
122.011	0.104	244022	keystroke_n	n	n/a
122.1395	0.0955	244279	keystroke_s	s	n/a
122.211	0.176	244422	keystroke_Key.space	Key.space	n/a
122.411	0.16	244822	keystroke_g	g	n/a
122.611	0.1125	245222	keystroke_a	a	n/a
122.715	0.112	245430	keystroke_l	l	n/a
122.819	0.1365	245638	keystroke_e	e	n/a
122.947	0.152	245894	keystroke_Key.space	Key.space	n/a
123.17	0.074	246340	keystroke_l	l	n/a
123.3555	0.072	246711	keystroke_i	i	n/a
123.459	0.0965	246918	keystroke_s	s	n/a
123.6515	0.12	247303	keystroke_t	t	n/a
123.7875	0.08	247575	keystroke_i	i	n/a
123.9385	0.1285	247877	keystroke_n	n	n/a
124.035	0.136	248070	keystroke_g	g	n/a
124.131	0.1765	248262	keystroke_Key.space	Key.space	n/a
124.6515	0.1195	249303	keystroke_c	c	n/a
124.6915	0.071	249383	keystroke_i	i	n/a
124.843	0.112	249686	keystroke_n	n	n/a
124.931	0.1595	249862	keystroke_e	e	n/a
125.139	0.1205	250278	keystroke_m	m	n/a
125.4195	0.0945	250839	keystroke_a	a	n/a
125.738	0.056	251476	keystroke_Key.enter	Key.enter	n/a
125.799	9.308	251598	prompt	n/a	permission theology norton attachment\n
126.4835	0.056	252967	keystroke_m	m	n/a
126.7635	0.088	253527	keystroke_Key.backspace	Key.backspace	n/a
127.075	0.064	254150	keystroke_p	p	n/a
127.2355	0.1275	254471	keystroke_e	e	n/a
127.315	0.1515	254630	keystroke_r	r	n/a
127.6675	0.143	255335	keystroke_m	m	n/a
127.7945	0.104	255589	keystroke_i	i	n/a
127.9385	0.0645	255877	keystroke_s	s	n/a
128.099	0.08	256198	keystroke_s	s	n/a
128.155	0.128	256310	keystroke_i	i	n/a
128.243	0.0965	256486	keystroke_o	o	n/a
128.3625	0.152	256725	keystroke_n	n	n/a
128.499	0.1755	256998	keystroke_Key.space	Key.space	n/a
128.7315	0.104	257463	keystroke_t	t	n/a
128.9475	0.128	257895	keystroke_h	h	n/a
129.0995	0.0955	258199	keystroke_o	o	n/a
129.4275	0.0795	258855	keystroke_Key.backspace	Key.backspace	n/a
129.539	0.1525	259078	keystroke_e	e	n/a
129.7155	0.087	259431	keystroke_o	o	n/a
129.956	0.0635	259912	keystroke_l	l	n/a
130.1475	0.0805	260295	keystroke_o	o	n/a
130.3235	0.1595	260647	keystroke_g	g	n/a
130.651	0.1125	261302	keystroke_y	y	n/a
130.851	0.1275	261702	keystroke_Key.space	Key.space	n/a
131.155	0.0875	262310	keystroke_n	n	n/a
131.3555	0.12	262711	keystroke_o	o	n/a
131.4515	0.1195	262903	keystroke_r	r	n/a
131.7075	0.16	263415	keystroke_t	t	n/a
131.8115	0.072	263623	keystroke_o	o	n/a
131.9395	0.1515	263879	keystroke_n	n	n/a
132.083	0.112	264166	keystroke_Key.space	Key.space	n/a
132.347	0.1205	264694	keystroke_a	a	n/a
132.491	0.064	264982	keystroke_t	t	n/a
132.683	0.104	265366	keystroke_t	t	n/a
132.923	0.144	265846	keystroke_a	a	n/a
133.1715	0.144	266343	keystroke_c	c	n/a
133.251	0.088	266502	keystroke_h	h	n/a
133.6355	0.12	267271	keystroke_e	e	n/a
133.9635	0.072	267927	keystroke_Key.backspace	Key.backspace	n/a
134.2375	0.112	268475	keystroke_m	m	n/a
134.366	0.153	268732	keystroke_e	e	n/a
134.495	0.112	268990	keystroke_n	n	n/a
134.5995	0.145	269199	keystroke_t	t	n/a
135.0275	0.078	270055	keystroke_Key.enter	Key.enter	n/a
135.1115	5.635	270223	prompt	n/a	calendar witch workshops high\n
135.838	0.1535	271676	keystroke_c	c	n/a
135.9985	0.11	271997	keystroke_a	a	n/a
136.102	0.0875	272204	keystroke_l	l	n/a
136.2945	0.1465	272589	keystroke_e	e	n/a
136.4245	0.1215	272849	keystroke_n	n	n/a
136.623	0.122	273246	keystroke_d	d	n/a
136.801	0.137	273602	keystroke_a	a	n/a
136.9135	0.175	273827	keystroke_r	r	n/a
137.1055	0.1125	274211	keystroke_Key.space	Key.space	n/a
137.2825	0.0975	274565	keystroke_w	w	n/a
137.34	0.096	274680	keystroke_i	i	n/a
137.437	0.1445	274874	keystroke_t	t	n/a
137.749	0.1445	275498	keystroke_c	c	n/a
137.813	0.105	275626	keystroke_h	h	n/a
137.91	0.121	275820	keystroke_Key.space	Key.space	n/a
138.3845	0.1205	276769	keystroke_w	w	n/a
138.481	0.081	276962	keystroke_o	o	n/a
138.591	0.145	277182	keystroke_r	r	n/a
138.7035	0.1145	277407	keystroke_k	k	n/a
138.9055	0.097	277811	keystroke_s	s	n/a
139.0185	0.1035	278037	keystroke_h	h	n/a
139.227	0.153	278454	keystroke_o	o	n/a
139.315	0.1615	278630	keystroke_p	p	n/a
139.4605	0.0965	278921	keystroke_s	s	n/a
139.5875	0.1695	279175	keystroke_Key.space	Key.space	n/a
139.942	0.112	279884	keystroke_h	h	n/a
140.086	0.128	280172	keystroke_i	i	n/a
140.2625	0.138	280525	keystroke_g	g	n/a
140.344	0.0965	280688	keystroke_h	h	n/a
140.648	0.0965	281296	keystroke_Key.enter	Key.enter	n/a
140.7515	6.1505	281503	prompt	n/a	suite insight privileges compare\n
141.59	0.1185	283180	keystroke_s	s	n/a
141.749	0.1205	283498	keystroke_u	u	n/a
141.8375	0.105	283675	keystroke_i	i	n/a
141.935	0.153	283870	keystroke_t	t	n/a
141.9905	0.184	283981	keystroke_e	e	n/a
142.223	0.129	284446	keystroke_Key.space	Key.space	n/a
142.578	0.095	285156	keystroke_i	i	n/a
142.786	0.113	285572	keystroke_n	n	n/a
142.867	0.0885	285734	keystroke_s	s	n/a
142.988	0.0785	285976	keystroke_i	i	n/a
143.115	0.121	286230	keystroke_g	g	n/a
143.243	0.106	286486	keystroke_h	h	n/a
143.38	0.1595	286760	keystroke_t	t	n/a
143.51	0.0945	287020	keystroke_Key.space	Key.space	n/a
143.839	0.072	287678	keystroke_p	p	n/a
143.9595	0.087	287919	keystroke_r	r	n/a
144.095	0.1205	288190	keystroke_i	i	n/a
144.2645	0.1205	288529	keystroke_v	v	n/a
144.3445	0.0975	288689	keystroke_i	i	n/a
144.538	0.103	289076	keystroke_l	l	n/a
144.722	0.113	289444	keystroke_e	e	n/a
144.916	0.137	289832	keystroke_g	g	n/a
145.0205	0.1425	290041	keystroke_e	e	n/a
145.1075	0.137	290215	keystroke_s	s	n/a
145.5505	0.16	291101	keystroke_Key.space	Key.space	n/a
145.879	0.137	291758	keystroke_c	c	n/a
145.992	0.0955	291984	keystroke_o	o	n/a
146.1115	0.097	292223	keystroke_m	m	n/a
146.337	0.097	292674	keystroke_p	p	n/a
146.4095	0.089	292819	keystroke_a	a	n/a
146.515	0.1355	293030	keystroke_r	r	n/a
146.5935	0.1295	293187	keystroke_e	e	n/a
146.8115	0.089	293623	keystroke_Key.enter	Key.enter	n/a
146.9065	6.584	293813	prompt	n/a	suffered cool consultant upon\n
147.582	0.1205	295164	keystroke_s	s	n/a
147.695	0.089	295390	keystroke_u	u	n/a
147.928	0.097	295856	keystroke_f	f	n/a
148.1285	0.089	296257	keystroke_f	f	n/a
148.225	0.162	296450	keystroke_e	e	n/a
148.3795	0.1355	296759	keystroke_r	r	n/a
148.491	0.1845	296982	keystroke_e	e	n/a
148.6675	0.137	297335	keystroke_d	d	n/a
148.868	0.153	297736	keystroke_Key.space	Key.space	n/a
149.165	0.145	298330	keystroke_c	c	n/a
149.246	0.08	298492	keystroke_o	o	n/a
149.423	0.089	298846	keystroke_o	o	n/a
149.6475	0.1125	299295	keystroke_l	l	n/a
149.8085	0.1855	299617	keystroke_Key.space	Key.space	n/a
150.4765	0.1265	300953	keystroke_c	c	n/a
150.5725	0.1035	301145	keystroke_o	o	n/a
150.8055	0.112	301611	keystroke_n	n	n/a
150.9255	0.137	301851	keystroke_s	s	n/a
151.0545	0.0875	302109	keystroke_u	u	n/a
151.279	0.105	302558	keystroke_l	l	n/a
151.4	0.153	302800	keystroke_t	t	n/a
151.5855	0.1195	303171	keystroke_a	a	n/a
151.8095	0.08	303619	keystroke_n	n	n/a
151.9065	0.136	303813	keystroke_t	t	n/a
152.0995	0.1595	304199	keystroke_Key.space	Key.space	n/a
152.5175	0.0805	305035	keystroke_u	u	n/a
152.758	0.136	305516	keystroke_p	p	n/a
152.878	0.114	305756	keystroke_o	o	n/a
153.104	0.111	306208	keystroke_n	n	n/a
153.409	0.0805	306818	keystroke_Key.enter	Key.enter	n/a
153.4935	6.692	306987	prompt	n/a	wave metallica dynamic oxygen\n
154.3655	0.121	308731	keystroke_w	w	n/a
154.4935	0.1525	308987	keystroke_a	a	n/a
154.767	0.1125	309534	keystroke_v	v	n/a
154.831	0.137	309662	keystroke_e	e	n/a
154.96	0.137	309920	keystroke_Key.space	Key.space	n/a
155.273	0.113	310546	keystroke_m	m	n/a
155.3375	0.1535	310675	keystroke_e	e	n/a
155.4655	0.154	310931	keystroke_t	t	n/a
155.651	0.0965	311302	keystroke_a	a	n/a
155.771	0.072	311542	keystroke_l	l	n/a
155.868	0.144	311736	keystroke_l	l	n/a
156.3415	0.0885	312683	keystroke_i	i	n/a
156.422	0.153	312844	keystroke_c	c	n/a
156.5505	0.1615	313101	keystroke_a	a	n/a
156.735	0.1295	313470	keystroke_Key.space	Key.space	n/a
157.065	0.1695	314130	keystroke_d	d	n/a
157.218	0.0805	314436	keystroke_y	y	n/a
157.346	0.1215	314692	keystroke_n	n	n/a
157.548	0.0955	315096	keystroke_a	a	n/a
157.693	0.128	315386	keystroke_m	m	n/a
157.797	0.1445	315594	keystroke_i	i	n/a
157.9335	0.1365	315867	keystroke_c	c	n/a
158.1105	0.1605	316221	keystroke_Key.space	Key.space	n/a
158.4315	0.0885	316863	keystroke_o	o	n/a
158.9705	0.1365	317941	keystroke_x	x	n/a
159.1635	0.096	318327	keystroke_y	y	n/a
159.4195	0.1295	318839	keystroke_g	g	n/a
159.532	0.1215	319064	keystroke_e	e	n/a
159.6375	0.145	319275	keystroke_n	n	n/a
160.0875	0.0955	320175	keystroke_Key.enter	Key.enter	n/a
160.193	7.3375	320386	prompt	n/a	bodies manitoba diane o'er\n
160.795	0.103	321590	keystroke_b	b	n/a
161.1795	0.0735	322359	keystroke_d	d	n/a
161.4685	0.082	322937	keystroke_Key.backspace	Key.backspace	n/a
161.951	0.0805	323902	keystroke_o	o	n/a
162.2415	0.0565	324483	keystroke_d	d	n/a
162.306	0.0955	324612	keystroke_i	i	n/a
162.409	0.194	324818	keystroke_e	e	n/a
162.53	0.1775	325060	keystroke_s	s	n/a
162.7635	0.1525	325527	keystroke_Key.space	Key.space	n/a
163.2295	0.121	326459	keystroke_m	m	n/a
163.43	0.073	326860	keystroke_a	a	n/a
163.511	0.1045	327022	keystroke_n	n	n/a
163.704	0.1115	327408	keystroke_i	i	n/a
163.8405	0.161	327681	keystroke_t	t	n/a
163.9775	0.0795	327955	keystroke_o	o	n/a
164.1695	0.1285	328339	keystroke_b	b	n/a
164.283	0.088	328566	keystroke_a	a	n/a
164.435	0.0965	328870	keystroke_Key.space	Key.space	n/a
164.708	0.112	329416	keystroke_d	d	n/a
164.9245	0.0645	329849	keystroke_i	i	n/a
165.11	0.1285	330220	keystroke_a	a	n/a
165.247	0.1115	330494	keystroke_n	n	n/a
165.512	0.1125	331024	keystroke_e	e	n/a
165.769	0.1685	331538	keystroke_Key.space	Key.space	n/a
165.9695	0.113	331939	keystroke_o	o	n/a
166.3475	0.1375	332695	keystroke_'	'	n/a
166.5085	0.113	333017	keystroke_v	v	n/a
166.613	0.169	333226	keystroke_e	e	n/a
166.91	0.129	333820	keystroke_r	r	n/a
167.32	0.2085	334640	keystroke_Key.enter	Key.enter	n/a
167.534	6.763	335068	prompt	n/a	accessibility skip childhood reveals\n
168.526	0.1115	337052	keystroke_a	a	n/a
168.7665	0.0805	337533	keystroke_c	c	n/a
168.9355	0.1445	337871	keystroke_c	c	n/a
169.056	0.1765	338112	keystroke_e	e	n/a
169.168	0.129	338336	keystroke_s	s	n/a
169.385	0.088	338770	keystroke_s	s	n/a
169.498	0.0965	338996	keystroke_i	i	n/a
169.683	0.1205	339366	keystroke_b	b	n/a
169.884	0.1205	339768	keystroke_i	i	n/a
169.9885	0.2005	339977	keystroke_l	l	n/a
170.117	0.0875	340234	keystroke_i	i	n/a
170.2525	0.1285	340505	keystroke_t	t	n/a
170.389	0.1055	340778	keystroke_y	y	n/a
170.502	0.1535	341004	keystroke_Key.space	Key.space	n/a
170.6955	0.1205	341391	keystroke_s	s	n/a
170.832	0.1035	341664	keystroke_k	k	n/a
171.04	0.0815	342080	keystroke_i	i	n/a
171.234	0.1195	342468	keystroke_p	p	n/a
171.3375	0.177	342675	keystroke_Key.space	Key.space	n/a
171.5475	0.1125	343095	keystroke_c	c	n/a
171.6355	0.129	343271	keystroke_h	h	n/a
171.7155	0.1365	343431	keystroke_i	i	n/a
171.812	0.113	343624	keystroke_l	l	n/a
171.9735	0.0875	343947	keystroke_d	d	n/a
172.302	0.081	344604	keystroke_h	h	n/a
172.4395	0.088	344879	keystroke_o	o	n/a
172.6	0.1275	345200	keystroke_o	o	n/a
172.7435	0.0885	345487	keystroke_d	d	n/a
172.7925	0.153	345585	keystroke_Key.space	Key.space	n/a
173.066	0.1355	346132	keystroke_r	r	n/a
173.162	0.1845	346324	keystroke_e	e	n/a
173.4355	0.112	346871	keystroke_v	v	n/a
173.596	0.1285	347192	keystroke_e	e	n/a
173.765	0.1285	347530	keystroke_a	a	n/a
173.8775	0.1125	347755	keystroke_l	l	n/a
173.966	0.1125	347932	keystroke_s	s	n/a
174.199	0.096	348398	keystroke_Key.enter	Key.enter	n/a
174.301	8.44	348602	prompt	n/a	totally surprise delay conference\n
174.858	0.1365	349716	keystroke_t	t	n/a
175.139	0.032	350278	keystroke_t	t	n/a
175.2025	0.1125	350405	keystroke_o	o	n/a
175.532	0.089	351064	keystroke_Key.backspace	Key.backspace	n/a
175.6845	0.097	351369	keystroke_Key.backspace	Key.backspace	n/a
175.9585	0.1125	351917	keystroke_o	o	n/a
176.1105	0.1765	352221	keystroke_t	t	n/a
176.3515	0.1135	352703	keystroke_a	a	n/a
176.505	0.0645	353010	keystroke_l	l	n/a
176.666	0.064	353332	keystroke_l	l	n/a
176.875	0.112	353750	keystroke_y	y	n/a
177.019	0.144	354038	keystroke_Key.space	Key.space	n/a
177.219	0.0975	354438	keystroke_s	s	n/a
177.3245	0.096	354649	keystroke_u	u	n/a
177.6375	0.0965	355275	keystroke_r	r	n/a
177.7425	0.112	355485	keystroke_p	p	n/a
177.903	0.089	355806	keystroke_r	r	n/a
178.0245	0.135	356049	keystroke_i	i	n/a
178.192	0.128	356384	keystroke_s	s	n/a
178.272	0.145	356544	keystroke_e	e	n/a
178.473	0.1445	356946	keystroke_Key.space	Key.space	n/a
178.6655	0.073	357331	keystroke_s	s	n/a
179.003	0.0885	358006	keystroke_Key.backspace	Key.backspace	n/a
179.164	0.1045	358328	keystroke_d	d	n/a
179.277	0.1035	358554	keystroke_e	e	n/a
179.4045	0.1055	358809	keystroke_l	l	n/a
179.526	0.16	359052	keystroke_a	a	n/a
179.735	0.136	359470	keystroke_y	y	n/a
179.8955	0.1765	359791	keystroke_Key.space	Key.space	n/a
180.4175	0.041	360835	keystroke_o	o	n/a
180.4985	0.088	360997	keystroke_c	c	n/a
180.8105	0.065	361621	keystroke_Key.backspace	Key.backspace	n/a
180.956	0.072	361912	keystroke_Key.backspace	Key.backspace	n/a
181.06	0.1045	362120	keystroke_c	c	n/a
181.205	0.096	362410	keystroke_o	o	n/a
181.43	0.145	362860	keystroke_n	n	n/a
181.607	0.1125	363214	keystroke_f	f	n/a
181.7835	0.137	363567	keystroke_e	e	n/a
181.88	0.1685	363760	keystroke_r	r	n/a
182.0325	0.1605	364065	keystroke_e	e	n/a
182.185	0.1365	364370	keystroke_n	n	n/a
182.3295	0.145	364659	keystroke_c	c	n/a
182.442	0.1525	364884	keystroke_e	e	n/a
182.675	0.064	365350	keystroke_Key.enter	Key.enter	n/a
182.7455	6.856	365491	prompt	n/a	smilies worry visit business\n
183.294	0.1365	366588	keystroke_s	s	n/a
183.415	0.176	366830	keystroke_m	m	n/a
183.567	0.1765	367134	keystroke_i	i	n/a
183.687	0.097	367374	keystroke_l	l	n/a
184.1045	0.097	368209	keystroke_i	i	n/a
184.2575	0.1515	368515	keystroke_e	e	n/a
184.37	0.103	368740	keystroke_s	s	n/a
184.505	0.184	369010	keystroke_Key.space	Key.space	n/a
184.802	0.1265	369604	keystroke_w	w	n/a
184.921	0.0875	369842	keystroke_o	o	n/a
185.0485	0.08	370097	keystroke_r	r	n/a
185.225	0.089	370450	keystroke_r	r	n/a
185.289	0.121	370578	keystroke_y	y	n/a
185.411	0.15	370822	keystroke_Key.space	Key.space	n/a
185.944	0.112	371888	keystroke_v	v	n/a
186.048	0.072	372096	keystroke_i	i	n/a
186.1845	0.129	372369	keystroke_s	s	n/a
186.289	0.1125	372578	keystroke_i	i	n/a
186.4095	0.1505	372819	keystroke_t	t	n/a
186.7285	0.1765	373457	keystroke_Key.space	Key.space	n/a
187.064	0.1285	374128	keystroke_b	b	n/a
187.232	0.1205	374464	keystroke_u	u	n/a
187.3455	0.1095	374691	keystroke_s	s	n/a
188.4875	0.0965	376975	keystroke_i	i	n/a
188.648	0.1125	377296	keystroke_n	n	n/a
188.769	0.1285	377538	keystroke_e	e	n/a
188.8405	0.134	377681	keystroke_s	s	n/a
189.2555	0.1205	378511	keystroke_s	s	n/a
189.471	0.1285	378942	keystroke_Key.enter	Key.enter	n/a
189.608	9.7985	379216	prompt	n/a	horizontal called pharmacology baltimore\n
190.2965	0.1255	380593	keystroke_h	h	n/a
190.4385	0.1365	380877	keystroke_o	o	n/a
190.559	0.136	381118	keystroke_r	r	n/a
190.711	0.1125	381422	keystroke_i	i	n/a
190.8555	0.1505	381711	keystroke_z	z	n/a
190.999	0.071	381998	keystroke_o	o	n/a
191.1825	0.1205	382365	keystroke_n	n	n/a
191.399	0.1425	382798	keystroke_t	t	n/a
191.5495	0.1215	383099	keystroke_a	a	n/a
191.638	0.129	383276	keystroke_l	l	n/a
191.75	0.2005	383500	keystroke_Key.space	Key.space	n/a
192.0615	0.152	384123	keystroke_c	c	n/a
192.1825	0.1125	384365	keystroke_a	a	n/a
192.31	0.041	384620	keystroke_l	l	n/a
192.4545	0.1115	384909	keystroke_l	l	n/a
192.534	0.12	385068	keystroke_e	e	n/a
192.622	0.1365	385244	keystroke_d	d	n/a
192.6935	0.1685	385387	keystroke_Key.space	Key.space	n/a
193.0775	0.088	386155	keystroke_p	p	n/a
193.3665	0.0805	386733	keystroke_h	h	n/a
193.455	0.1105	386910	keystroke_a	a	n/a
193.574	0.144	387148	keystroke_r	r	n/a
193.6855	0.121	387371	keystroke_a	a	n/a
194.0695	0.112	388139	keystroke_m	m	n/a
194.5255	0.08	389051	keystroke_Key.backspace	Key.backspace	n/a
194.702	0.096	389404	keystroke_Key.backspace	Key.backspace	n/a
195.0525	0.1205	390105	keystroke_m	m	n/a
195.2055	0.145	390411	keystroke_a	a	n/a
195.669	0.1605	391338	keystroke_c	c	n/a
195.8135	0.08	391627	keystroke_o	o	n/a
196.197	0.0725	392394	keystroke_l	l	n/a
196.3895	0.065	392779	keystroke_o	o	n/a
196.534	0.1425	393068	keystroke_g	g	n/a
196.6525	0.1285	393305	keystroke_y	y	n/a
197.053	0.143	394106	keystroke_Key.space	Key.space	n/a
197.2605	0.129	394521	keystroke_b	b	n/a
197.5965	0.136	395193	keystroke_a	a	n/a
197.7245	0.104	395449	keystroke_l	l	n/a
197.8695	0.167	395739	keystroke_t	t	n/a
198.517	0.087	397034	keystroke_i	i	n/a
198.692	0.1445	397384	keystroke_m	m	n/a
198.917	0.12	397834	keystroke_o	o	n/a
199.013	0.1345	398026	keystroke_r	r	n/a
199.085	0.159	398170	keystroke_e	e	n/a
199.292	0.112	398584	keystroke_Key.enter	Key.enter	n/a
199.4115	6.5905	398823	prompt	n/a	delivers promise book alone\n
200.115	0.1045	400230	keystroke_d	d	n/a
200.2035	0.1845	400407	keystroke_e	e	n/a
200.3965	0.0875	400793	keystroke_l	l	n/a
200.492	0.0955	400984	keystroke_i	i	n/a
200.6045	0.1105	401209	keystroke_v	v	n/a
200.739	0.1845	401478	keystroke_e	e	n/a
200.8675	0.1755	401735	keystroke_r	r	n/a
201.2505	0.1525	402501	keystroke_Key.space	Key.space	n/a
201.6415	0.088	403283	keystroke_Key.backspace	Key.backspace	n/a
201.7465	0.1195	403493	keystroke_s	s	n/a
201.842	0.169	403684	keystroke_Key.space	Key.space	n/a
202.17	0.096	404340	keystroke_p	p	n/a
202.3945	0.1525	404789	keystroke_r	r	n/a
202.5065	0.111	405013	keystroke_o	o	n/a
202.738	0.136	405476	keystroke_m	m	n/a
202.8505	0.135	405701	keystroke_i	i	n/a
202.946	0.1115	405892	keystroke_s	s	n/a
203.0255	0.128	406051	keystroke_e	e	n/a
203.2005	0.145	406401	keystroke_Key.space	Key.space	n/a
203.651	0.118	407302	keystroke_b	b	n/a
203.762	0.1115	407524	keystroke_r	r	n/a
204.1615	0.071	408323	keystroke_Key.backspace	Key.backspace	n/a
204.426	0.0715	408852	keystroke_o	o	n/a
204.578	0.1105	409156	keystroke_o	o	n/a
204.6645	0.1285	409329	keystroke_k	k	n/a
204.825	0.1595	409650	keystroke_Key.space	Key.space	n/a
204.9935	0.142	409987	keystroke_a	a	n/a
205.0965	0.08	410193	keystroke_l	l	n/a
205.3125	0.1125	410625	keystroke_o	o	n/a
205.5125	0.121	411025	keystroke_n	n	n/a
205.601	0.095	411202	keystroke_e	e	n/a
205.904	0.096	411808	keystroke_Key.enter	Key.enter	n/a
206.0065	20.5965	412013	prompt	n/a	themselves sublimedirectory detector raise\n
206.7105	0.153	413421	keystroke_t	t	n/a
206.799	0.096	413598	keystroke_h	h	n/a
206.951	0.105	413902	keystroke_e	e	n/a
207.0635	0.128	414127	keystroke_m	m	n/a
207.2145	0.12	414429	keystroke_s	s	n/a
207.4705	0.065	414941	keystroke_l	l	n/a
207.7825	0.072	415565	keystroke_Key.backspace	Key.backspace	n/a
207.927	0.1035	415854	keystroke_e	e	n/a
208.087	0.1035	416174	keystroke_l	l	n/a
208.2375	0.1365	416475	keystroke_v	v	n/a
208.326	0.1525	416652	keystroke_e	e	n/a
208.4225	0.1355	416845	keystroke_s	s	n/a
208.5665	0.159	417133	keystroke_Key.space	Key.space	n/a
208.878	0.1205	417756	keystroke_s	s	n/a
208.982	0.096	417964	keystroke_u	u	n/a
209.1665	0.127	418333	keystroke_b	b	n/a
209.4375	0.1115	418875	keystroke_l	l	n/a
209.622	0.0565	419244	keystroke_i	i	n/a
209.9165	0.16	419833	keystroke_m	m	n/a
210.15	0.1025	420300	keystroke_e	e	n/a
210.5325	0.097	421065	keystroke_d	d	n/a
210.646	0.1025	421292	keystroke_i	i	n/a
210.812	0.1205	421624	keystroke_r	r	n/a
210.964	0.1685	421928	keystroke_e	e	n/a
211.188	0.1035	422376	keystroke_c	c	n/a
211.484	0.1045	422968	keystroke_t	t	n/a
211.6205	0.079	423241	keystroke_o	o	n/a
211.7635	0.12	423527	keystroke_r	r	n/a
211.876	0.136	423752	keystroke_y	y	n/a
212.0275	0.199	424055	keystroke_Key.space	Key.space	n/a
212.26	0.095	424520	keystroke_d	d	n/a
212.339	0.1685	424678	keystroke_e	e	n/a
212.5635	0.1675	425127	keystroke_t	t	n/a
212.739	0.168	425478	keystroke_e	e	n/a
213.3465	0.0795	426693	keystroke_Key.backspace	Key.backspace	n/a
213.555	0.056	427110	keystroke_Key.backspace	Key.backspace	n/a
213.73	0.0645	427460	keystroke_Key.backspace	Key.backspace	n/a
213.9145	0.064	427829	keystroke_Key.backspace	Key.backspace	n/a
214.0985	0.0565	428197	keystroke_Key.backspace	Key.backspace	n/a
214.282	0.056	428564	keystroke_Key.backspace	Key.backspace	n/a
214.458	0.056	428916	keystroke_Key.backspace	Key.backspace	n/a
214.634	0.071	429268	keystroke_Key.backspace	Key.backspace	n/a
214.8085	0.0805	429617	keystroke_Key.backspace	Key.backspace	n/a
215.0015	0.064	430003	keystroke_Key.backspace	Key.backspace	n/a
215.1775	0.0715	430355	keystroke_Key.backspace	Key.backspace	n/a
215.3535	0.072	430707	keystroke_Key.backspace	Key.backspace	n/a
215.5215	0.112	431043	keystroke_Key.backspace	Key.backspace	n/a
215.8565	0.1125	431713	keystroke_Key.backspace	Key.backspace	n/a
216.009	0.2005	432018	keystroke_Key.space	Key.space	n/a
216.1775	0.1425	432355	keystroke_d	d	n/a
216.336	0.1125	432672	keystroke_i	i	n/a
216.4725	0.144	432945	keystroke_r	r	n/a
216.5765	0.1685	433153	keystroke_e	e	n/a
216.8165	0.08	433633	keystroke_c	c	n/a
217.0485	0.1045	434097	keystroke_t	t	n/a
217.137	0.0955	434274	keystroke_o	o	n/a
217.2795	0.1205	434559	keystroke_r	r	n/a
217.3765	0.088	434753	keystroke_y	y	n/a
218.224	0.0395	436448	keystroke_Key.backspace	Key.backspace	n/a
218.375	0.072	436750	keystroke_=	=	n/a
218.543	0.0725	437086	keystroke_=	=	n/a
218.7355	0.047	437471	keystroke_=	=	n/a
218.943	0.064	437886	keystroke_Key.backspace	Key.backspace	n/a
219.111	0.064	438222	keystroke_Key.backspace	Key.backspace	n/a
219.294	0.0635	438588	keystroke_Key.backspace	Key.backspace	n/a
219.462	0.0725	438924	keystroke_Key.backspace	Key.backspace	n/a
219.6385	0.0805	439277	keystroke_Key.backspace	Key.backspace	n/a
219.8215	0.0805	439643	keystroke_Key.backspace	Key.backspace	n/a
220.006	0.088	440012	keystroke_Key.backspace	Key.backspace	n/a
220.1985	0.08	440397	keystroke_Key.backspace	Key.backspace	n/a
220.382	0.08	440764	keystroke_Key.backspace	Key.backspace	n/a
220.558	0.0715	441116	keystroke_Key.backspace	Key.backspace	n/a
220.726	0.1185	441452	keystroke_Key.backspace	Key.backspace	n/a
220.885	0.08	441770	keystroke_Key.backspace	Key.backspace	n/a
221.3245	0.144	442649	keystroke_d	d	n/a
221.4845	0.1125	442969	keystroke_i	i	n/a
221.637	0.191	443274	keystroke_r	r	n/a
221.8125	0.168	443625	keystroke_e	e	n/a
222.2775	0.111	444555	keystroke_c	c	n/a
222.5565	0.12	445113	keystroke_t	t	n/a
222.677	0.088	445354	keystroke_o	o	n/a
222.7955	0.1285	445591	keystroke_r	r	n/a
222.9085	0.096	445817	keystroke_y	y	n/a
223.044	0.1755	446088	keystroke_Key.space	Key.space	n/a
223.284	0.207	446568	keystroke_s	s	n/a
223.6755	0.072	447351	keystroke_Key.backspace	Key.backspace	n/a
223.7955	0.1125	447591	keystroke_d	d	n/a
223.8675	0.1765	447735	keystroke_e	e	n/a
224.06	0.152	448120	keystroke_t	t	n/a
224.2195	0.1435	448439	keystroke_e	e	n/a
224.4985	0.097	448997	keystroke_c	c	n/a
224.747	0.111	449494	keystroke_t	t	n/a
225.0825	0.0965	450165	keystroke_o	o	n/a
225.155	0.128	450310	keystroke_r	r	n/a
225.275	0.151	450550	keystroke_Key.space	Key.space	n/a
225.5375	0.169	451075	keystroke_r	r	n/a
225.7145	0.0955	451429	keystroke_a	a	n/a
225.817	0.097	451634	keystroke_i	i	n/a
225.978	0.1205	451956	keystroke_s	s	n/a
226.042	0.1125	452084	keystroke_e	e	n/a
226.4965	0.1045	452993	keystroke_Key.enter	Key.enter	n/a
226.607	5.663	453214	prompt	n/a	vendors enable blanket innocent\n
227.393	0.096	454786	keystroke_v	v	n/a
227.6645	0.1425	455329	keystroke_e	e	n/a
227.784	0.0955	455568	keystroke_n	n	n/a
227.9045	0.103	455809	keystroke_d	d	n/a
228.2005	0.0795	456401	keystroke_o	o	n/a
228.2875	0.1525	456575	keystroke_r	r	n/a
228.448	0.144	456896	keystroke_s	s	n/a
228.5755	0.1195	457151	keystroke_Key.space	Key.space	n/a
228.712	0.11	457424	keystroke_e	e	n/a
228.8305	0.081	457661	keystroke_n	n	n/a
228.9825	0.12	457965	keystroke_a	a	n/a
229.0955	0.095	458191	keystroke_b	b	n/a
229.3115	0.0945	458623	keystroke_l	l	n/a
229.383	0.111	458766	keystroke_e	e	n/a
229.4625	0.1765	458925	keystroke_Key.space	Key.space	n/a
229.663	0.129	459326	keystroke_b	b	n/a
229.9985	0.096	459997	keystroke_l	l	n/a
230.1345	0.12	460269	keystroke_a	a	n/a
230.2625	0.095	460525	keystroke_n	n	n/a
230.414	0.136	460828	keystroke_k	k	n/a
230.5415	0.145	461083	keystroke_e	e	n/a
230.63	0.168	461260	keystroke_t	t	n/a
230.774	0.143	461548	keystroke_Key.space	Key.space	n/a
230.9335	0.088	461867	keystroke_i	i	n/a
231.142	0.08	462284	keystroke_n	n	n/a
231.286	0.095	462572	keystroke_n	n	n/a
231.437	0.104	462874	keystroke_o	o	n/a
231.525	0.128	463050	keystroke_c	c	n/a
231.685	0.167	463370	keystroke_e	e	n/a
231.7815	0.1185	463563	keystroke_n	n	n/a
231.908	0.1445	463816	keystroke_t	t	n/a
232.1965	0.0725	464393	keystroke_Key.enter	Key.enter	n/a
232.273	8.071	464546	prompt	n/a	shipping meter seas stephanie\n
232.9885	0.12	465977	keystroke_s	s	n/a
233.0925	0.119	466185	keystroke_h	h	n/a
233.196	0.1045	466392	keystroke_i	i	n/a
233.492	0.064	466984	keystroke_p	p	n/a
233.652	0.072	467304	keystroke_p	p	n/a
233.8285	0.078	467657	keystroke_i	i	n/a
234.0265	0.1125	468053	keystroke_n	n	n/a
234.123	0.121	468246	keystroke_g	g	n/a
234.195	0.1835	468390	keystroke_Key.space	Key.space	n/a
234.3545	0.144	468709	keystroke_m	m	n/a
234.4905	0.1205	468981	keystroke_e	e	n/a
234.603	0.1765	469206	keystroke_t	t	n/a
234.7715	0.159	469543	keystroke_e	e	n/a
234.8825	0.144	469765	keystroke_r	r	n/a
235.0415	0.1365	470083	keystroke_Key.space	Key.space	n/a
235.45	0.136	470900	keystroke_s	s	n/a
235.5705	0.128	471141	keystroke_e	e	n/a
235.7785	0.127	471557	keystroke_a	a	n/a
235.8895	0.104	471779	keystroke_s	s	n/a
236.0335	0.1355	472067	keystroke_Key.space	Key.space	n/a
236.7045	0.048	473409	keystroke_s	s	n/a
237.0245	0.1845	474049	keystroke_t	t	n/a
237.072	0.257	474144	keystroke_e	e	n/a
237.481	0.1275	474962	keystroke_p	p	n/a
237.9045	0.12	475809	keystroke_h	h	n/a
238.0715	0.112	476143	keystroke_a	a	n/a
238.1755	0.1125	476351	keystroke_n	n	n/a
238.351	0.0955	476702	keystroke_i	i	n/a
238.4475	0.1435	476895	keystroke_c	c	n/a
238.704	0.095	477408	keystroke_e	e	n/a
238.9435	0.0395	477887	keystroke_=	=	n/a
239.3195	0.072	478639	keystroke_Key.backspace	Key.backspace	n/a
239.494	0.0885	478988	keystroke_Key.backspace	Key.backspace	n/a
239.8705	0.104	479741	keystroke_Key.backspace	Key.backspace	n/a
239.9825	0.0955	479965	keystroke_e	e	n/a
240.214	0.128	480428	keystroke_Key.enter	Key.enter	n/a
240.3495	6.549	480699	prompt	n/a	span brunette tennis support\n
241.029	0.136	482058	keystroke_s	s	n/a
241.142	0.0955	482284	keystroke_p	p	n/a
241.3175	0.1435	482635	keystroke_a	a	n/a
241.4125	0.12	482825	keystroke_n	n	n/a
241.4925	0.1925	482985	keystroke_Key.space	Key.space	n/a
241.693	0.12	483386	keystroke_b	b	n/a
241.797	0.119	483594	keystroke_r	r	n/a
241.8605	0.104	483721	keystroke_u	u	n/a
242.069	0.112	484138	keystroke_n	n	n/a
242.3485	0.0955	484697	keystroke_e	e	n/a
242.692	0.1195	485384	keystroke_t	t	n/a
242.8595	0.0955	485719	keystroke_t	t	n/a
242.995	0.1925	485990	keystroke_e	e	n/a
243.227	0.144	486454	keystroke_Key.space	Key.space	n/a
243.364	0.127	486728	keystroke_t	t	n/a
243.587	0.1035	487174	keystroke_e	e	n/a
243.6915	0.2475	487383	keystroke_n	n	n/a
244.195	0.119	488390	keystroke_n	n	n/a
244.394	0.1125	488788	keystroke_i	i	n/a
244.474	0.1115	488948	keystroke_s	s	n/a
244.562	0.1845	489124	keystroke_Key.space	Key.space	n/a
244.7545	0.072	489509	keystroke_s	s	n/a
244.7545	0.08	489509	keystroke_u	u	n/a
245.386	0.0715	490772	keystroke_Key.backspace	Key.backspace	n/a
245.5205	0.096	491041	keystroke_Key.backspace	Key.backspace	n/a
245.6325	0.1845	491265	keystroke_s	s	n/a
245.81	0.087	491620	keystroke_u	u	n/a
246.0725	0.056	492145	keystroke_p	p	n/a
246.185	0.104	492370	keystroke_p	p	n/a
246.2405	0.1605	492481	keystroke_o	o	n/a
246.409	0.128	492818	keystroke_r	r	n/a
246.6325	0.169	493265	keystroke_t	t	n/a
246.777	0.1195	493554	keystroke_Key.enter	Key.enter	n/a
246.9025	7.5175	493805	prompt	n/a	suggestion glow mexico graduation\n
247.543	0.2	495086	keystroke_s	s	n/a
247.712	0.095	495424	keystroke_u	u	n/a
247.8635	0.0965	495727	keystroke_g	g	n/a
248.095	0.128	496190	keystroke_g	g	n/a
248.167	0.2245	496334	keystroke_e	e	n/a
248.2955	0.168	496591	keystroke_s	s	n/a
248.4235	0.1595	496847	keystroke_t	t	n/a
248.519	0.144	497038	keystroke_i	i	n/a
248.599	0.112	497198	keystroke_o	o	n/a
248.727	0.152	497454	keystroke_n	n	n/a
248.839	0.16	497678	keystroke_Key.space	Key.space	n/a
248.959	0.1275	497918	keystroke_g	g	n/a
249.046	0.097	498092	keystroke_l	l	n/a
249.2385	0.112	498477	keystroke_o	o	n/a
249.2945	0.128	498589	keystroke_w	w	n/a
249.4225	0.191	498845	keystroke_Key.space	Key.space	n/a
249.8215	0.096	499643	keystroke_m	m	n/a
249.8775	0.1285	499755	keystroke_e	e	n/a
250.149	0.129	500298	keystroke_x	x	n/a
250.221	0.153	500442	keystroke_i	i	n/a
250.326	0.104	500652	keystroke_o	o	n/a
250.725	0.072	501450	keystroke_Key.backspace	Key.backspace	n/a
250.8455	0.111	501691	keystroke_c	c	n/a
250.997	0.136	501994	keystroke_o	o	n/a
251.1485	0.168	502297	keystroke_Key.space	Key.space	n/a
251.588	0.0965	503176	keystroke_g	g	n/a
251.813	0.1035	503626	keystroke_r	r	n/a
251.9005	0.1675	503801	keystroke_a	a	n/a
252.076	0.12	504152	keystroke_d	d	n/a
252.3245	0.1115	504649	keystroke_u	u	n/a
252.468	0.087	504936	keystroke_a	a	n/a
252.5795	0.1435	505159	keystroke_t	t	n/a
252.668	0.136	505336	keystroke_i	i	n/a
252.7395	0.1355	505479	keystroke_o	o	n/a
252.891	0.1365	505782	keystroke_Key.space	Key.space	n/a
253.116	0.1265	506232	keystroke_n	n	n/a
253.548	0.0865	507096	keystroke_Key.backspace	Key.backspace	n/a
253.7145	0.088	507429	keystroke_Key.backspace	Key.backspace	n/a
254.0035	0.0785	508007	keystroke_n	n	n/a
254.378	0.04	508756	keystroke_Key.enter	Key.enter	n/a
254.424	3.6795	508848	prompt	n/a	karl mask kind quiz\n
255.114	0.1035	510228	keystroke_k	k	n/a
255.233	0.1195	510466	keystroke_a	a	n/a
255.337	0.144	510674	keystroke_r	r	n/a
255.426	0.1425	510852	keystroke_l	l	n/a
255.5525	0.1925	511105	keystroke_Key.space	Key.space	n/a
255.833	0.096	511666	keystroke_m	m	n/a
255.937	0.1035	511874	keystroke_a	a	n/a
256.0085	0.1275	512017	keystroke_s	s	n/a
256.088	0.112	512176	keystroke_k	k	n/a
256.184	0.176	512368	keystroke_Key.space	Key.space	n/a
256.361	0.095	512722	keystroke_k	k	n/a
256.5675	0.073	513135	keystroke_i	i	n/a
256.759	0.121	513518	keystroke_n	n	n/a
256.824	0.1285	513648	keystroke_d	d	n/a
256.9125	0.1745	513825	keystroke_Key.space	Key.space	n/a
257.1515	0.1275	514303	keystroke_q	q	n/a
257.2715	0.128	514543	keystroke_u	u	n/a
257.3435	0.1605	514687	keystroke_i	i	n/a
257.695	0.1365	515390	keystroke_z	z	n/a
258.0305	0.072	516061	keystroke_Key.enter	Key.enter	n/a
258.1075	6.5205	516215	prompt	n/a	describe specialized timeline heater\n
258.9655	0.1285	517931	keystroke_d	d	n/a
259.0625	0.1355	518125	keystroke_e	e	n/a
259.302	0.1125	518604	keystroke_s	s	n/a
259.5495	0.0955	519099	keystroke_c	c	n/a
259.7975	0.1355	519595	keystroke_r	r	n/a
259.861	0.08	519722	keystroke_i	i	n/a
260.0295	0.159	520059	keystroke_b	b	n/a
260.1245	0.12	520249	keystroke_e	e	n/a
260.2285	0.1285	520457	keystroke_Key.space	Key.space	n/a
260.613	0.0955	521226	keystroke_s	s	n/a
260.788	0.113	521576	keystroke_p	p	n/a
260.908	0.1605	521816	keystroke_e	e	n/a
261.132	0.16	522264	keystroke_c	c	n/a
261.508	0.0875	523016	keystroke_i	i	n/a
261.708	0.1035	523416	keystroke_a	a	n/a
261.82	0.08	523640	keystroke_l	l	n/a
261.924	0.12	523848	keystroke_i	i	n/a
262.1555	0.167	524311	keystroke_z	z	n/a
262.283	0.1515	524566	keystroke_e	e	n/a
262.4035	0.128	524807	keystroke_d	d	n/a
262.5075	0.159	525015	keystroke_Key.space	Key.space	n/a
262.73	0.145	525460	keystroke_t	t	n/a
262.827	0.12	525654	keystroke_i	i	n/a
262.947	0.1435	525894	keystroke_m	m	n/a
263.035	0.12	526070	keystroke_e	e	n/a
263.1695	0.1045	526339	keystroke_l	l	n/a
263.298	0.0885	526596	keystroke_i	i	n/a
263.4745	0.136	526949	keystroke_n	n	n/a
263.5545	0.144	527109	keystroke_e	e	n/a
263.6665	0.192	527333	keystroke_Key.space	Key.space	n/a
263.859	0.1195	527718	keystroke_h	h	n/a
263.9225	0.1515	527845	keystroke_e	e	n/a
264.043	0.127	528086	keystroke_a	a	n/a
264.146	0.1275	528292	keystroke_t	t	n/a
264.282	0.1515	528564	keystroke_e	e	n/a
264.386	0.1195	528772	keystroke_r	r	n/a
264.5225	0.1035	529045	keystroke_Key.enter	Key.enter	n/a
264.6315	7.5895	529263	prompt	n/a	prostate enjoyed scholarship fifth\n
265.2175	0.0875	530435	keystroke_p	p	n/a
265.345	0.088	530690	keystroke_r	r	n/a
265.425	0.128	530850	keystroke_o	o	n/a
265.657	0.128	531314	keystroke_s	s	n/a
265.873	0.112	531746	keystroke_t	t	n/a
266.137	0.1115	532274	keystroke_r	r	n/a
266.744	0.0715	533488	keystroke_Key.backspace	Key.backspace	n/a
266.8175	0.118	533635	keystroke_a	a	n/a
267.0555	0.128	534111	keystroke_t	t	n/a
267.216	0.119	534432	keystroke_e	e	n/a
267.415	0.144	534830	keystroke_Key.space	Key.space	n/a
267.6555	0.1435	535311	keystroke_e	e	n/a
267.759	0.0795	535518	keystroke_n	n	n/a
267.9585	0.1365	535917	keystroke_j	j	n/a
268.0625	0.104	536125	keystroke_o	o	n/a
268.286	0.1445	536572	keystroke_y	y	n/a
268.4305	0.1675	536861	keystroke_e	e	n/a
268.55	0.12	537100	keystroke_d	d	n/a
268.742	0.144	537484	keystroke_Key.space	Key.space	n/a
268.918	0.1445	537836	keystroke_s	s	n/a
269.1905	0.127	538381	keystroke_c	c	n/a
269.309	0.1125	538618	keystroke_h	h	n/a
269.453	0.1035	538906	keystroke_o	o	n/a
269.7575	0.0865	539515	keystroke_l	l	n/a
269.948	0.152	539896	keystroke_a	a	n/a
270.069	0.152	540138	keystroke_r	r	n/a
270.389	0.0785	540778	keystroke_s	s	n/a
270.4605	0.103	540921	keystroke_h	h	n/a
270.5805	0.136	541161	keystroke_i	i	n/a
270.8205	0.1275	541641	keystroke_p	p	n/a
270.9635	0.1915	541927	keystroke_Key.space	Key.space	n/a
271.156	0.063	542312	keystroke_f	f	n/a
271.244	0.111	542488	keystroke_i	i	n/a
271.4035	0.0715	542807	keystroke_f	f	n/a
271.643	0.1135	543286	keystroke_t	t	n/a
271.715	0.112	543430	keystroke_h	h	n/a
272.1075	0.112	544215	keystroke_Key.enter	Key.enter	n/a
272.228	6.788	544456	prompt	n/a	matching panels slovakia grove\n
272.826	0.1525	545652	keystroke_m	m	n/a
272.923	0.1195	545846	keystroke_a	a	n/a
273.0345	0.112	546069	keystroke_t	t	n/a
273.3225	0.1035	546645	keystroke_c	c	n/a
273.3945	0.0875	546789	keystroke_h	h	n/a
273.4655	0.0805	546931	keystroke_i	i	n/a
273.626	0.12	547252	keystroke_n	n	n/a
273.722	0.1515	547444	keystroke_g	g	n/a
273.802	0.1915	547604	keystroke_Key.space	Key.space	n/a
274.0415	0.096	548083	keystroke_p	p	n/a
274.1775	0.0955	548355	keystroke_a	a	n/a
274.345	0.0885	548690	keystroke_n	n	n/a
274.505	0.096	549010	keystroke_e	e	n/a
274.6735	0.056	549347	keystroke_l	l	n/a
274.769	0.088	549538	keystroke_s	s	n/a
274.984	0.169	549968	keystroke_Key.space	Key.space	n/a
275.177	0.119	550354	keystroke_s	s	n/a
275.304	0.0965	550608	keystroke_l	l	n/a
275.5045	0.12	551009	keystroke_o	o	n/a
275.6565	0.128	551313	keystroke_v	v	n/a
275.944	0.1035	551888	keystroke_a	a	n/a
276.1585	0.1135	552317	keystroke_k	k	n/a
276.4155	0.08	552831	keystroke_i	i	n/a
276.5265	0.153	553053	keystroke_a	a	n/a
276.7665	0.1595	553533	keystroke_Key.space	Key.space	n/a
277.143	0.143	554286	keystroke_g	g	n/a
277.454	0.16	554908	keystroke_r	r	n/a
277.615	0.079	555230	keystroke_o	o	n/a
277.743	0.1105	555486	keystroke_v	v	n/a
277.8375	0.088	555675	keystroke_e	e	n/a
278.869	0.1445	557738	keystroke_Key.enter	Key.enter	n/a
279.021	10.9125	558042	prompt	n/a	surveillance magic philadelphia solomon\n
280.0045	0.136	560009	keystroke_s	s	n/a
280.1485	0.063	560297	keystroke_u	u	n/a
280.228	0.1355	560456	keystroke_r	r	n/a
280.5885	0.119	561177	keystroke_v	v	n/a
280.8595	0.104	561719	keystroke_e	e	n/a
281.276	0.127	562552	keystroke_i	i	n/a
281.531	0.048	563062	keystroke_l	l	n/a
281.6905	0.0645	563381	keystroke_l	l	n/a
281.7865	0.1115	563573	keystroke_a	a	n/a
281.93	0.121	563860	keystroke_n	n	n/a
282.0985	0.12	564197	keystroke_c	c	n/a
282.17	0.152	564340	keystroke_e	e	n/a
282.25	0.1755	564500	keystroke_Key.space	Key.space	n/a
282.41	0.168	564820	keystroke_m	m	n/a
282.53	0.0635	565060	keystroke_a	a	n/a
282.729	0.105	565458	keystroke_g	g	n/a
282.826	0.104	565652	keystroke_i	i	n/a
283.0015	0.12	566003	keystroke_c	c	n/a
283.0975	0.152	566195	keystroke_Key.space	Key.space	n/a
283.2975	0.0795	566595	keystroke_p	p	n/a
283.5615	0.112	567123	keystroke_h	h	n/a
283.7525	0.129	567505	keystroke_i	i	n/a
283.8725	0.112	567745	keystroke_l	l	n/a
284.1055	0.1275	568211	keystroke_a	a	n/a
285.064	0.104	570128	keystroke_d	d	n/a
285.136	0.2395	570272	keystroke_e	e	n/a
285.5355	0.0805	571071	keystroke_l	l	n/a
285.768	0.0555	571536	keystroke_p	p	n/a
286.0315	0.12	572063	keystroke_h	h	n/a
286.1915	0.12	572383	keystroke_i	i	n/a
286.3195	0.143	572639	keystroke_a	a	n/a
286.6225	0.16	573245	keystroke_Key.space	Key.space	n/a
288.5575	0.103	577115	keystroke_s	s	n/a
288.6365	0.0565	577273	keystroke_o	o	n/a
288.821	0.079	577642	keystroke_l	l	n/a
289.0045	0.088	578009	keystroke_o	o	n/a
289.197	0.159	578394	keystroke_m	m	n/a
289.38	0.112	578760	keystroke_o	o	n/a
289.54	0.12	579080	keystroke_n	n	n/a
289.867	0.064	579734	keystroke_Key.enter	Key.enter	n/a
289.938	8.068	579876	prompt	n/a	threads worst shut deferred\n
292.8965	0.112	585793	keystroke_t	t	n/a
293.0255	0.112	586051	keystroke_h	h	n/a
293.177	0.136	586354	keystroke_r	r	n/a
293.2415	0.1515	586483	keystroke_e	e	n/a
293.441	0.136	586882	keystroke_a	a	n/a
293.6085	0.1045	587217	keystroke_d	d	n/a
293.689	0.1195	587378	keystroke_s	s	n/a
293.817	0.1355	587634	keystroke_Key.space	Key.space	n/a
293.9925	0.1445	587985	keystroke_w	w	n/a
294.1045	0.104	588209	keystroke_o	o	n/a
294.2005	0.128	588401	keystroke_r	r	n/a
294.432	0.168	588864	keystroke_s	s	n/a
294.568	0.112	589136	keystroke_t	t	n/a
294.664	0.152	589328	keystroke_Key.space	Key.space	n/a
294.808	0.1275	589616	keystroke_s	s	n/a
294.9115	0.096	589823	keystroke_h	h	n/a
295.0635	0.1515	590127	keystroke_t	t	n/a
295.391	0.0715	590782	keystroke_Key.backspace	Key.backspace	n/a
295.703	0.08	591406	keystroke_u	u	n/a
295.799	0.135	591598	keystroke_t	t	n/a
295.982	0.136	591964	keystroke_Key.space	Key.space	n/a
296.1585	0.104	592317	keystroke_d	d	n/a
296.2385	0.1595	592477	keystroke_e	e	n/a
296.4465	0.103	592893	keystroke_f	f	n/a
296.7175	0.112	593435	keystroke_e	e	n/a
296.9495	0.1035	593899	keystroke_r	r	n/a
297.1415	0.072	594283	keystroke_r	r	n/a
297.197	0.184	594394	keystroke_e	e	n/a
297.5895	0.1195	595179	keystroke_d	d	n/a
297.924	0.08	595848	keystroke_Key.enter	Key.enter	n/a
298.01	9.189	596020	prompt	n/a	insights portsmouth reality directed\n
298.693	0.0955	597386	keystroke_i	i	n/a
298.876	0.128	597752	keystroke_n	n	n/a
298.9635	0.1125	597927	keystroke_s	s	n/a
299.084	0.1045	598168	keystroke_i	i	n/a
299.204	0.096	598408	keystroke_g	g	n/a
299.316	0.128	598632	keystroke_h	h	n/a
299.4355	0.104	598871	keystroke_t	t	n/a
299.4915	0.144	598983	keystroke_s	s	n/a
299.5715	0.176	599143	keystroke_Key.space	Key.space	n/a
299.8515	0.064	599703	keystroke_p	p	n/a
300.0115	0.1195	600023	keystroke_o	o	n/a
300.1235	0.144	600247	keystroke_r	r	n/a
300.4105	0.1445	600821	keystroke_t	t	n/a
301.5945	0.088	603189	keystroke_s	s	n/a
301.7145	0.111	603429	keystroke_m	m	n/a
301.8825	0.0315	603765	keystroke_o	o	n/a
302.025	0.0965	604050	keystroke_u	u	n/a
302.137	0.161	604274	keystroke_t	t	n/a
302.225	0.1605	604450	keystroke_h	h	n/a
302.609	0.1925	605218	keystroke_Key.space	Key.space	n/a
304.0955	0.168	608191	keystroke_r	r	n/a
304.1995	0.128	608399	keystroke_e	e	n/a
304.4155	0.0955	608831	keystroke_a	a	n/a
304.471	0.12	608942	keystroke_l	l	n/a
304.567	0.0965	609134	keystroke_i	i	n/a
304.679	0.144	609358	keystroke_t	t	n/a
304.807	0.112	609614	keystroke_y	y	n/a
304.943	0.1515	609886	keystroke_Key.space	Key.space	n/a
305.2955	0.1115	610591	keystroke_d	d	n/a
305.3905	0.1125	610781	keystroke_i	i	n/a
305.5425	0.1205	611085	keystroke_r	r	n/a
305.6145	0.2	611229	keystroke_e	e	n/a
305.838	0.105	611676	keystroke_c	c	n/a
306.1105	0.1195	612221	keystroke_t	t	n/a
306.318	0.136	612636	keystroke_e	e	n/a
306.4135	0.1125	612827	keystroke_d	d	n/a
307.085	0.112	614170	keystroke_Key.enter	Key.enter	n/a
307.204	7.596	614408	prompt	n/a	detailed converted controllers directive\n
307.8295	0.1265	615659	keystroke_d	d	n/a
307.917	0.1915	615834	keystroke_e	e	n/a
308.093	0.1595	616186	keystroke_t	t	n/a
308.276	0.1035	616552	keystroke_a	a	n/a
308.348	0.152	616696	keystroke_i	i	n/a
308.452	0.128	616904	keystroke_l	l	n/a
308.5075	0.208	617015	keystroke_e	e	n/a
308.6675	0.169	617335	keystroke_d	d	n/a
308.9475	0.1755	617895	keystroke_Key.space	Key.space	n/a
309.163	0.12	618326	keystroke_c	c	n/a
309.267	0.0475	618534	keystroke_o	o	n/a
309.4195	0.12	618839	keystroke_n	n	n/a
309.708	0.087	619416	keystroke_v	v	n/a
309.843	0.1915	619686	keystroke_e	e	n/a
309.971	0.128	619942	keystroke_r	r	n/a
310.1945	0.105	620389	keystroke_t	t	n/a
310.291	0.1995	620582	keystroke_e	e	n/a
310.4425	0.096	620885	keystroke_d	d	n/a
310.5145	0.16	621029	keystroke_Key.space	Key.space	n/a
310.6825	0.128	621365	keystroke_c	c	n/a
310.7625	0.08	621525	keystroke_o	o	n/a
310.9305	0.1275	621861	keystroke_n	n	n/a
311.058	0.0805	622116	keystroke_t	t	n/a
311.258	0.088	622516	keystroke_r	r	n/a
311.3865	0.0875	622773	keystroke_o	o	n/a
311.6015	0.072	623203	keystroke_l	l	n/a
311.7535	0.1195	623507	keystroke_l	l	n/a
311.889	0.1285	623778	keystroke_e	e	n/a
311.961	0.144	623922	keystroke_r	r	n/a
312.0815	0.1275	624163	keystroke_s	s	n/a
312.233	0.1355	624466	keystroke_Key.space	Key.space	n/a
312.4405	0.1205	624881	keystroke_d	d	n/a
312.537	0.0955	625074	keystroke_e	e	n/a
312.6965	0.064	625393	keystroke_i	i	n/a
312.968	0.0565	625936	keystroke_Key.backspace	Key.backspace	n/a
313.112	0.0645	626224	keystroke_Key.backspace	Key.backspace	n/a
313.3675	0.0965	626735	keystroke_i	i	n/a
313.44	0.1195	626880	keystroke_r	r	n/a
313.6075	0.16	627215	keystroke_e	e	n/a
313.8315	0.0875	627663	keystroke_c	c	n/a
314.1195	0.04	628239	keystroke_t	t	n/a
314.1595	0.12	628319	keystroke_i	i	n/a
314.359	0.128	628718	keystroke_v	v	n/a
314.4785	0.136	628957	keystroke_e	e	n/a
314.7185	0.08	629437	keystroke_Key.enter	Key.enter	n/a
314.8035	5.8805	629607	prompt	n/a	alignment improvements header tone\n
315.622	0.104	631244	keystroke_a	a	n/a
315.7025	0.0715	631405	keystroke_l	l	n/a
315.822	0.112	631644	keystroke_i	i	n/a
315.9415	0.112	631883	keystroke_g	g	n/a
316.0375	0.112	632075	keystroke_n	n	n/a
316.3095	0.112	632619	keystroke_m	m	n/a
316.4455	0.128	632891	keystroke_e	e	n/a
316.5495	0.1125	633099	keystroke_n	n	n/a
316.6455	0.152	633291	keystroke_t	t	n/a
316.733	0.192	633466	keystroke_Key.space	Key.space	n/a
316.933	0.096	633866	keystroke_i	i	n/a
317.1405	0.1045	634281	keystroke_m	m	n/a
317.373	0.08	634746	keystroke_p	p	n/a
317.469	0.12	634938	keystroke_r	r	n/a
317.572	0.121	635144	keystroke_o	o	n/a
317.8285	0.144	635657	keystroke_v	v	n/a
317.948	0.136	635896	keystroke_e	e	n/a
318.116	0.1125	636232	keystroke_m	m	n/a
318.212	0.096	636424	keystroke_e	e	n/a
318.372	0.087	636744	keystroke_n	n	n/a
318.467	0.16	636934	keystroke_t	t	n/a
318.587	0.121	637174	keystroke_s	s	n/a
318.667	0.168	637334	keystroke_Key.space	Key.space	n/a
318.827	0.1445	637654	keystroke_h	h	n/a
318.9155	0.1525	637831	keystroke_e	e	n/a
319.027	0.1925	638054	keystroke_a	a	n/a
319.2035	0.12	638407	keystroke_d	d	n/a
319.379	0.1915	638758	keystroke_e	e	n/a
319.4995	0.1435	638999	keystroke_r	r	n/a
319.603	0.136	639206	keystroke_Key.space	Key.space	n/a
319.7945	0.096	639589	keystroke_t	t	n/a
319.9065	0.0645	639813	keystroke_o	o	n/a
320.0425	0.1125	640085	keystroke_n	n	n/a
320.138	0.129	640276	keystroke_e	e	n/a
320.5775	0.105	641155	keystroke_Key.enter	Key.enter	n/a
320.688	5.9925	641376	prompt	n/a	barriers continuing degree substance\n
321.282	0.12	642564	keystroke_b	b	n/a
321.409	0.1365	642818	keystroke_a	a	n/a
321.5135	0.112	643027	keystroke_r	r	n/a
321.6975	0.12	643395	keystroke_r	r	n/a
321.8175	0.0955	643635	keystroke_i	i	n/a
321.905	0.16	643810	keystroke_e	e	n/a
322.009	0.136	644018	keystroke_r	r	n/a
322.145	0.144	644290	keystroke_s	s	n/a
322.3285	0.1195	644657	keystroke_Key.space	Key.space	n/a
322.608	0.1205	645216	keystroke_c	c	n/a
322.68	0.072	645360	keystroke_o	o	n/a
322.84	0.1285	645680	keystroke_n	n	n/a
322.9755	0.1285	645951	keystroke_t	t	n/a
323.072	0.0955	646144	keystroke_i	i	n/a
323.2395	0.1285	646479	keystroke_n	n	n/a
323.336	0.1195	646672	keystroke_u	u	n/a
323.568	0.0955	647136	keystroke_i	i	n/a
323.744	0.127	647488	keystroke_n	n	n/a
323.815	0.1525	647630	keystroke_g	g	n/a
323.911	0.1845	647822	keystroke_Key.space	Key.space	n/a
324.2625	0.144	648525	keystroke_d	d	n/a
324.3905	0.16	648781	keystroke_e	e	n/a
324.6385	0.072	649277	keystroke_g	g	n/a
324.863	0.112	649726	keystroke_r	r	n/a
324.919	0.128	649838	keystroke_e	e	n/a
325.1265	0.097	650253	keystroke_e	e	n/a
325.246	0.12	650492	keystroke_Key.space	Key.space	n/a
325.367	0.071	650734	keystroke_s	s	n/a
325.4625	0.0875	650925	keystroke_u	u	n/a
325.63	0.112	651260	keystroke_b	b	n/a
325.767	0.135	651534	keystroke_s	s	n/a
325.903	0.079	651806	keystroke_t	t	n/a
326.0775	0.1125	652155	keystroke_a	a	n/a
326.1735	0.096	652347	keystroke_n	n	n/a
326.3345	0.143	652669	keystroke_c	c	n/a
326.406	0.1595	652812	keystroke_e	e	n/a
326.5815	0.0955	653163	keystroke_Key.enter	Key.enter	n/a
326.684	6.502	653368	prompt	n/a	holding discrete apartments chemical\n
327.3495	0.12	654699	keystroke_h	h	n/a
327.4775	0.112	654955	keystroke_o	o	n/a
327.725	0.0725	655450	keystroke_l	l	n/a
327.8295	0.096	655659	keystroke_d	d	n/a
327.8925	0.08	655785	keystroke_i	i	n/a
328.0455	0.143	656091	keystroke_n	n	n/a
328.141	0.1275	656282	keystroke_g	g	n/a
328.2205	0.176	656441	keystroke_Key.space	Key.space	n/a
328.533	0.071	657066	keystroke_d	d	n/a
328.6285	0.104	657257	keystroke_i	i	n/a
328.764	0.128	657528	keystroke_s	s	n/a
328.948	0.08	657896	keystroke_c	c	n/a
329.1965	0.1275	658393	keystroke_r	r	n/a
329.26	0.168	658520	keystroke_e	e	n/a
329.7395	0.184	659479	keystroke_t	t	n/a
329.9395	0.1115	659879	keystroke_e	e	n/a
330.2185	0.1365	660437	keystroke_Key.space	Key.space	n/a
330.443	0.119	660886	keystroke_a	a	n/a
330.571	0.072	661142	keystroke_p	p	n/a
330.8355	0.1355	661671	keystroke_a	a	n/a
330.9465	0.104	661893	keystroke_r	r	n/a
331.146	0.145	662292	keystroke_t	t	n/a
331.275	0.087	662550	keystroke_m	m	n/a
331.411	0.1035	662822	keystroke_e	e	n/a
331.4985	0.112	662997	keystroke_n	n	n/a
331.5625	0.152	663125	keystroke_t	t	n/a
331.6665	0.1355	663333	keystroke_s	s	n/a
331.7545	0.152	663509	keystroke_Key.space	Key.space	n/a
331.97	0.112	663940	keystroke_c	c	n/a
332.0425	0.1035	664085	keystroke_h	h	n/a
332.1545	0.1355	664309	keystroke_e	e	n/a
332.306	0.1275	664612	keystroke_m	m	n/a
332.4095	0.1435	664819	keystroke_i	i	n/a
332.5135	0.12	665027	keystroke_c	c	n/a
332.69	0.096	665380	keystroke_a	a	n/a
332.77	0.127	665540	keystroke_l	l	n/a
333.097	0.088	666194	keystroke_Key.enter	Key.enter	n/a
333.189	7.632	666378	prompt	n/a	tales miniature occupational itunes\n
333.825	0.1355	667650	keystroke_t	t	n/a
333.969	0.0795	667938	keystroke_a	a	n/a
334.0485	0.128	668097	keystroke_l	l	n/a
334.1445	0.2155	668289	keystroke_e	e	n/a
334.2645	0.152	668529	keystroke_s	s	n/a
334.376	0.192	668752	keystroke_Key.space	Key.space	n/a
334.5365	0.128	669073	keystroke_m	m	n/a
334.6645	0.112	669329	keystroke_i	i	n/a
334.865	0.1345	669730	keystroke_n	n	n/a
335.0475	0.0965	670095	keystroke_i	i	n/a
335.1515	0.1275	670303	keystroke_a	a	n/a
335.3275	0.1355	670655	keystroke_t	t	n/a
335.4875	0.103	670975	keystroke_u	u	n/a
335.6305	0.129	671261	keystroke_r	r	n/a
335.7275	0.1515	671455	keystroke_e	e	n/a
335.911	0.136	671822	keystroke_Key.space	Key.space	n/a
336.279	0.16	672558	keystroke_c	c	n/a
336.391	0.088	672782	keystroke_o	o	n/a
336.7105	0.048	673421	keystroke_Key.backspace	Key.backspace	n/a
336.855	0.064	673710	keystroke_Key.backspace	Key.backspace	n/a
337.0945	0.0965	674189	keystroke_o	o	n/a
337.1985	0.088	674397	keystroke_c	c	n/a
337.414	0.072	674828	keystroke_c	c	n/a
337.598	0.08	675196	keystroke_u	u	n/a
337.83	0.0955	675660	keystroke_p	p	n/a
337.9575	0.136	675915	keystroke_a	a	n/a
338.1095	0.144	676219	keystroke_t	t	n/a
338.1975	0.128	676395	keystroke_i	i	n/a
338.2775	0.096	676555	keystroke_o	o	n/a
338.4055	0.1275	676811	keystroke_n	n	n/a
338.493	0.128	676986	keystroke_a	a	n/a
338.605	0.136	677210	keystroke_l	l	n/a
338.725	0.176	677450	keystroke_Key.space	Key.space	n/a
338.9015	0.1195	677803	keystroke_t	t	n/a
339.2765	0.0645	678553	keystroke_Key.backspace	Key.backspace	n/a
339.5325	0.104	679065	keystroke_i	i	n/a
339.6125	0.128	679225	keystroke_t	t	n/a
339.988	0.08	679976	keystroke_u	u	n/a
340.1565	0.104	680313	keystroke_n	n	n/a
340.2365	0.1675	680473	keystroke_e	e	n/a
340.324	0.12	680648	keystroke_s	s	n/a
340.7395	0.08	681479	keystroke_Key.enter	Key.enter	n/a
340.825	5.2085	681650	prompt	n/a	satisfy circuit thin patio\n
341.523	0.12	683046	keystroke_s	s	n/a
341.795	0.112	683590	keystroke_a	a	n/a
341.923	0.088	683846	keystroke_t	t	n/a
342.035	0.12	684070	keystroke_i	i	n/a
342.3385	0.1285	684677	keystroke_s	s	n/a
342.5705	0.096	685141	keystroke_f	f	n/a
342.6665	0.079	685333	keystroke_y	y	n/a
342.9855	0.1685	685971	keystroke_Key.space	Key.space	n/a
343.2015	0.0885	686403	keystroke_c	c	n/a
343.258	0.096	686516	keystroke_i	i	n/a
343.45	0.072	686900	keystroke_r	r	n/a
343.682	0.1275	687364	keystroke_c	c	n/a
343.7695	0.1285	687539	keystroke_u	u	n/a
343.858	0.1435	687716	keystroke_i	i	n/a
344.0175	0.1275	688035	keystroke_t	t	n/a
344.113	0.144	688226	keystroke_Key.space	Key.space	n/a
344.297	0.137	688594	keystroke_t	t	n/a
344.369	0.144	688738	keystroke_h	h	n/a
344.425	0.1285	688850	keystroke_i	i	n/a
344.6575	0.1275	689315	keystroke_n	n	n/a
344.793	0.152	689586	keystroke_Key.space	Key.space	n/a
345.001	0.1115	690002	keystroke_p	p	n/a
345.105	0.1435	690210	keystroke_a	a	n/a
345.329	0.1755	690658	keystroke_t	t	n/a
345.5125	0.16	691025	keystroke_i	i	n/a
345.6085	0.1525	691217	keystroke_o	o	n/a
345.9605	0.071	691921	keystroke_Key.enter	Key.enter	n/a
346.0395	7.5735	692079	prompt	n/a	vienna opposite organizing adidas\n
346.7755	0.104	693551	keystroke_v	v	n/a
346.896	0.088	693792	keystroke_i	i	n/a
347.016	0.119	694032	keystroke_e	e	n/a
347.159	0.0965	694318	keystroke_n	n	n/a
347.3595	0.0645	694719	keystroke_n	n	n/a
347.5435	0.12	695087	keystroke_a	a	n/a
347.6715	0.112	695343	keystroke_Key.space	Key.space	n/a
348.071	0.096	696142	keystroke_o	o	n/a
348.255	0.064	696510	keystroke_p	p	n/a
348.407	0.088	696814	keystroke_p	p	n/a
348.4635	0.143	696927	keystroke_o	o	n/a
348.7105	0.128	697421	keystroke_s	s	n/a
348.8305	0.112	697661	keystroke_i	i	n/a
348.9505	0.152	697901	keystroke_t	t	n/a
349.0545	0.16	698109	keystroke_e	e	n/a
349.182	0.152	698364	keystroke_Key.space	Key.space	n/a
349.4305	0.111	698861	keystroke_g	g	n/a
349.8065	0.055	699613	keystroke_Key.backspace	Key.backspace	n/a
350.0535	0.096	700107	keystroke_o	o	n/a
350.1335	0.103	700267	keystroke_r	r	n/a
350.3815	0.096	700763	keystroke_g	g	n/a
350.5895	0.096	701179	keystroke_a	a	n/a
350.6525	0.089	701305	keystroke_n	n	n/a
350.805	0.0965	701610	keystroke_i	i	n/a
351.013	0.08	702026	keystroke_i	i	n/a
351.3325	0.048	702665	keystroke_Key.backspace	Key.backspace	n/a
351.6205	0.088	703241	keystroke_z	z	n/a
351.7485	0.096	703497	keystroke_i	i	n/a
351.924	0.1205	703848	keystroke_n	n	n/a
351.9885	0.128	703977	keystroke_g	g	n/a
352.1005	0.1755	704201	keystroke_Key.space	Key.space	n/a
352.3005	0.1355	704601	keystroke_a	a	n/a
352.46	0.1115	704920	keystroke_d	d	n/a
352.636	0.0715	705272	keystroke_i	i	n/a
352.7555	0.096	705511	keystroke_d	d	n/a
352.948	0.0955	705896	keystroke_a	a	n/a
353.1555	0.0795	706311	keystroke_s	s	n/a
353.523	0.0885	707046	keystroke_Key.enter	Key.enter	n/a
353.617	6.1685	707234	prompt	n/a	shipped hack thongs travelling\n
354.2265	0.096	708453	keystroke_s	s	n/a
354.3315	0.1195	708663	keystroke_h	h	n/a
354.4825	0.096	708965	keystroke_i	i	n/a
354.731	0.0635	709462	keystroke_p	p	n/a
354.882	0.0805	709764	keystroke_p	p	n/a
355.01	0.16	710020	keystroke_e	e	n/a
355.154	0.112	710308	keystroke_d	d	n/a
355.21	0.136	710420	keystroke_Key.space	Key.space	n/a
355.4175	0.112	710835	keystroke_h	h	n/a
355.4895	0.1205	710979	keystroke_a	a	n/a
355.674	0.1195	711348	keystroke_c	c	n/a
355.769	0.097	711538	keystroke_k	k	n/a
355.8665	0.167	711733	keystroke_Key.space	Key.space	n/a
356.017	0.144	712034	keystroke_t	t	n/a
356.105	0.105	712210	keystroke_h	h	n/a
356.241	0.1045	712482	keystroke_o	o	n/a
356.41	0.056	712820	keystroke_n	n	n/a
356.457	0.136	712914	keystroke_g	g	n/a
356.609	0.137	713218	keystroke_s	s	n/a
356.73	0.151	713460	keystroke_Key.space	Key.space	n/a
356.89	0.095	713780	keystroke_t	t	n/a
357.209	0.1365	714418	keystroke_r	r	n/a
357.3205	0.0885	714641	keystroke_a	a	n/a
357.569	0.0795	715138	keystroke_v	v	n/a
357.8085	0.0725	715617	keystroke_e	e	n/a
358.025	0.071	716050	keystroke_l	l	n/a
358.1285	0.112	716257	keystroke_l	l	n/a
358.5275	0.072	717055	keystroke_i	i	n/a
358.8955	0.104	717791	keystroke_n	n	n/a
358.976	0.112	717952	keystroke_g	g	n/a
359.0795	0.112	718159	keystroke_Key.space	Key.space	n/a
359.4635	0.0635	718927	keystroke_Key.backspace	Key.backspace	n/a
359.6785	0.105	719357	keystroke_Key.enter	Key.enter	n/a
359.789	8.711	719578	prompt	n/a	complaints propose merchants spouse\n
360.5745	0.112	721149	keystroke_c	c	n/a
360.615	0.1115	721230	keystroke_o	o	n/a
360.7665	0.1205	721533	keystroke_m	m	n/a
360.9585	0.1835	721917	keystroke_p	p	n/a
361.102	0.1365	722204	keystroke_l	l	n/a
361.278	0.1685	722556	keystroke_a	a	n/a
361.439	0.071	722878	keystroke_i	i	n/a
361.622	0.1115	723244	keystroke_n	n	n/a
361.7655	0.1685	723531	keystroke_t	t	n/a
361.9185	0.12	723837	keystroke_s	s	n/a
362.0455	0.1365	724091	keystroke_Key.space	Key.space	n/a
362.27	0.0955	724540	keystroke_p	p	n/a
362.3815	0.121	724763	keystroke_r	r	n/a
362.494	0.096	724988	keystroke_o	o	n/a
362.7255	0.12	725451	keystroke_m	m	n/a
362.958	0.1515	725916	keystroke_p	p	n/a
363.094	0.1195	726188	keystroke_o	o	n/a
363.4535	0.0555	726907	keystroke_Key.backspace	Key.backspace	n/a
363.605	0.064	727210	keystroke_Key.backspace	Key.backspace	n/a
363.749	0.064	727498	keystroke_Key.backspace	Key.backspace	n/a
364.005	0.112	728010	keystroke_p	p	n/a
364.109	0.096	728218	keystroke_o	o	n/a
364.285	0.168	728570	keystroke_s	s	n/a
364.42	0.1125	728840	keystroke_e	e	n/a
364.6685	0.1355	729337	keystroke_Key.space	Key.space	n/a
364.884	0.096	729768	keystroke_m	m	n/a
365.044	0.16	730088	keystroke_e	e	n/a
365.148	0.112	730296	keystroke_r	r	n/a
365.4195	0.12	730839	keystroke_c	c	n/a
365.4755	0.096	730951	keystroke_h	h	n/a
365.6195	0.112	731239	keystroke_a	a	n/a
365.7395	0.104	731479	keystroke_n	n	n/a
365.7875	0.168	731575	keystroke_t	t	n/a
365.9155	0.1445	731831	keystroke_s	s	n/a
366.1955	0.136	732391	keystroke_Key.space	Key.space	n/a
366.6835	0.1035	733367	keystroke_s	s	n/a
366.787	0.12	733574	keystroke_p	p	n/a
367.211	0.072	734422	keystroke_o	o	n/a
367.4105	0.0885	734821	keystroke_u	u	n/a
367.5465	0.0565	735093	keystroke_d	d	n/a
367.9225	0.0795	735845	keystroke_Key.backspace	Key.backspace	n/a
368.0105	0.1355	736021	keystroke_s	s	n/a
368.106	0.1125	736212	keystroke_e	e	n/a
368.394	0.104	736788	keystroke_Key.enter	Key.enter	n/a
368.504	6.464	737008	prompt	n/a	spine commodities reporters midi\n
369.1135	0.1355	738227	keystroke_s	s	n/a
369.217	0.0565	738434	keystroke_p	p	n/a
369.513	0.104	739026	keystroke_i	i	n/a
369.745	0.096	739490	keystroke_n	n	n/a
369.793	0.16	739586	keystroke_e	e	n/a
369.913	0.168	739826	keystroke_Key.space	Key.space	n/a
370.2405	0.12	740481	keystroke_c	c	n/a
370.3125	0.0565	740625	keystroke_o	o	n/a
370.481	0.08	740962	keystroke_m	m	n/a
370.641	0.104	741282	keystroke_m	m	n/a
370.801	0.1115	741602	keystroke_o	o	n/a
371.0485	0.12	742097	keystroke_d	d	n/a
371.1285	0.112	742257	keystroke_i	i	n/a
371.3365	0.1515	742673	keystroke_t	t	n/a
371.4405	0.104	742881	keystroke_i	i	n/a
371.6075	0.137	743215	keystroke_e	e	n/a
371.68	0.1435	743360	keystroke_s	s	n/a
372.0795	0.152	744159	keystroke_Key.space	Key.space	n/a
372.3675	0.1435	744735	keystroke_r	r	n/a
372.431	0.1925	744862	keystroke_e	e	n/a
372.6875	0.088	745375	keystroke_p	p	n/a
372.912	0.1185	745824	keystroke_o	o	n/a
373.0555	0.1035	746111	keystroke_r	r	n/a
373.2715	0.112	746543	keystroke_t	t	n/a
373.3905	0.1605	746781	keystroke_e	e	n/a
373.511	0.12	747022	keystroke_r	r	n/a
373.623	0.112	747246	keystroke_s	s	n/a
373.839	0.159	747678	keystroke_Key.space	Key.space	n/a
374.03	0.121	748060	keystroke_m	m	n/a
374.143	0.103	748286	keystroke_i	i	n/a
374.254	0.081	748508	keystroke_d	d	n/a
374.343	0.095	748686	keystroke_i	i	n/a
374.9025	0.0635	749805	keystroke_Key.enter	Key.enter	n/a
374.972	8.2875	749944	prompt	n/a	disturbed ring distribute polar\n
375.5905	0.096	751181	keystroke_s	s	n/a
375.934	0.072	751868	keystroke_Key.backspace	Key.backspace	n/a
376.078	0.1355	752156	keystroke_d	d	n/a
376.2295	0.104	752459	keystroke_i	i	n/a
376.3415	0.16	752683	keystroke_s	s	n/a
376.4935	0.1195	752987	keystroke_t	t	n/a
376.773	0.088	753546	keystroke_u	u	n/a
376.901	0.0965	753802	keystroke_r	r	n/a
377.437	0.104	754874	keystroke_b	b	n/a
377.5565	0.1365	755113	keystroke_e	e	n/a
377.661	0.1275	755322	keystroke_d	d	n/a
377.852	0.1835	755704	keystroke_Key.space	Key.space	n/a
378.109	0.1425	756218	keystroke_r	r	n/a
378.404	0.064	756808	keystroke_i	i	n/a
378.6195	0.096	757239	keystroke_n	n	n/a
378.668	0.144	757336	keystroke_g	g	n/a
378.7955	0.1675	757591	keystroke_Key.space	Key.space	n/a
379.0115	0.08	758023	keystroke_d	d	n/a
379.1235	0.096	758247	keystroke_i	i	n/a
379.308	0.167	758616	keystroke_s	s	n/a
379.491	0.136	758982	keystroke_t	t	n/a
379.739	0.128	759478	keystroke_r	r	n/a
380.075	0.0795	760150	keystroke_i	i	n/a
380.4905	0.112	760981	keystroke_b	b	n/a
380.6505	0.1125	761301	keystroke_u	u	n/a
380.7545	0.1445	761509	keystroke_t	t	n/a
380.8505	0.1435	761701	keystroke_e	e	n/a
381.0345	0.167	762069	keystroke_Key.space	Key.space	n/a
381.2985	0.1765	762597	keystroke_p	p	n/a
381.411	0.095	762822	keystroke_o	o	n/a
381.746	0.128	763492	keystroke_a	a	n/a
381.89	0.032	763780	keystroke_l	l	n/a
382.146	0.04	764292	keystroke_Key.backspace	Key.backspace	n/a
382.45	0.096	764900	keystroke_Key.backspace	Key.backspace	n/a
382.73	0.104	765460	keystroke_l	l	n/a
382.834	0.1445	765668	keystroke_a	a	n/a
382.9535	0.136	765907	keystroke_r	r	n/a
383.1855	0.0715	766371	keystroke_Key.enter	Key.enter	n/a
383.264	6.279	766528	prompt	n/a	pierre yarn surge highest\n
384.1685	0.072	768337	keystroke_p	p	n/a
384.3445	0.128	768689	keystroke_i	i	n/a
384.4575	0.143	768915	keystroke_e	e	n/a
384.768	0.104	769536	keystroke_r	r	n/a
384.977	0.079	769954	keystroke_r	r	n/a
385.272	0.1045	770544	keystroke_e	e	n/a
385.583	0.16	771166	keystroke_Key.space	Key.space	n/a
385.9515	0.12	771903	keystroke_y	y	n/a
386.088	0.1835	772176	keystroke_a	a	n/a
386.2315	0.1285	772463	keystroke_r	r	n/a
386.3355	0.152	772671	keystroke_n	n	n/a
386.4715	0.144	772943	keystroke_Key.space	Key.space	n/a
386.6475	0.12	773295	keystroke_s	s	n/a
386.783	0.104	773566	keystroke_u	u	n/a
387.071	0.1285	774142	keystroke_r	r	n/a
387.3835	0.1355	774767	keystroke_g	g	n/a
387.4635	0.1665	774927	keystroke_e	e	n/a
387.5675	0.1745	775135	keystroke_Key.space	Key.space	n/a
387.7825	0.081	775565	keystroke_h	h	n/a
387.975	0.08	775950	keystroke_i	i	n/a
388.079	0.1275	776158	keystroke_g	g	n/a
388.175	0.128	776350	keystroke_h	h	n/a
388.318	0.128	776636	keystroke_s	s	n/a
388.414	0.1285	776828	keystroke_e	e	n/a
388.6945	0.0555	777389	keystroke_Key.backspace	Key.backspace	n/a
388.838	0.0965	777676	keystroke_Key.backspace	Key.backspace	n/a
388.9105	0.1515	777821	keystroke_e	e	n/a
388.998	0.1115	777996	keystroke_s	s	n/a
389.0705	0.143	778141	keystroke_t	t	n/a
389.4375	0.1045	778875	keystroke_Key.enter	Key.enter	n/a
389.5465	7.409	779093	prompt	n/a	sharon remain internal southampton\n
391.6365	0.1365	783273	keystroke_s	s	n/a
391.766	0.071	783532	keystroke_h	h	n/a
392.013	0.1835	784026	keystroke_a	a	n/a
392.181	0.1435	784362	keystroke_r	r	n/a
392.4125	0.071	784825	keystroke_o	o	n/a
392.581	0.135	785162	keystroke_n	n	n/a
392.692	0.144	785384	keystroke_Key.space	Key.space	n/a
392.9395	0.152	785879	keystroke_r	r	n/a
393.036	0.1595	786072	keystroke_e	e	n/a
393.188	0.136	786376	keystroke_m	m	n/a
393.38	0.056	786760	keystroke_a	a	n/a
393.444	0.08	786888	keystroke_i	i	n/a
393.62	0.128	787240	keystroke_n	n	n/a
393.7875	0.128	787575	keystroke_Key.space	Key.space	n/a
393.9795	0.08	787959	keystroke_i	i	n/a
394.1315	0.112	788263	keystroke_n	n	n/a
394.2355	0.0965	788471	keystroke_t	t	n/a
394.3325	0.167	788665	keystroke_e	e	n/a
394.4595	0.1285	788919	keystroke_r	r	n/a
394.6345	0.089	789269	keystroke_n	n	n/a
394.7555	0.08	789511	keystroke_a	a	n/a
394.8675	0.127	789735	keystroke_l	l	n/a
394.9865	0.1285	789973	keystroke_Key.space	Key.space	n/a
395.1315	0.1355	790263	keystroke_s	s	n/a
395.331	0.1045	790662	keystroke_o	o	n/a
395.523	0.088	791046	keystroke_u	u	n/a
395.595	0.1435	791190	keystroke_t	t	n/a
395.699	0.0955	791398	keystroke_h	h	n/a
395.8985	0.0795	791797	keystroke_a	a	n/a
396.026	0.0805	792052	keystroke_m	m	n/a
396.226	0.0805	792452	keystroke_p	p	n/a
396.314	0.152	792628	keystroke_t	t	n/a
396.458	0.088	792916	keystroke_o	o	n/a
396.61	0.088	793220	keystroke_n	n	n/a
396.874	0.08	793748	keystroke_Key.enter	Key.enter	n/a
396.9595	7.184	793919	prompt	n/a	movements corp custody inspector\n
397.577	0.1355	795154	keystroke_m	m	n/a
397.7375	0.128	795475	keystroke_o	o	n/a
397.921	0.1205	795842	keystroke_v	v	n/a
398.025	0.1205	796050	keystroke_e	e	n/a
398.1695	0.087	796339	keystroke_m	m	n/a
398.2655	0.103	796531	keystroke_e	e	n/a
398.3765	0.097	796753	keystroke_n	n	n/a
398.4485	0.1285	796897	keystroke_t	t	n/a
398.569	0.096	797138	keystroke_s	s	n/a
398.697	0.1275	797394	keystroke_Key.space	Key.space	n/a
398.889	0.096	797778	keystroke_c	c	n/a
398.9685	0.1045	797937	keystroke_o	o	n/a
399.1365	0.112	798273	keystroke_r	r	n/a
399.296	0.0725	798592	keystroke_p	p	n/a
399.5925	0.16	799185	keystroke_Key.space	Key.space	n/a
399.944	0.0965	799888	keystroke_s	s	n/a
400.296	0.064	800592	keystroke_Key.backspace	Key.backspace	n/a
400.392	0.12	800784	keystroke_c	c	n/a
400.592	0.088	801184	keystroke_u	u	n/a
400.688	0.136	801376	keystroke_s	s	n/a
400.8715	0.1125	801743	keystroke_t	t	n/a
400.9915	0.08	801983	keystroke_o	o	n/a
401.303	0.04	802606	keystroke_d	d	n/a
401.335	0.1045	802670	keystroke_y	y	n/a
401.655	0.128	803310	keystroke_Key.space	Key.space	n/a
401.959	0.104	803918	keystroke_s	s	n/a
402.3185	0.08	804637	keystroke_Key.backspace	Key.backspace	n/a
402.5905	0.088	805181	keystroke_i	i	n/a
402.7825	0.096	805565	keystroke_n	n	n/a
402.87	0.0885	805740	keystroke_s	s	n/a
403.038	0.104	806076	keystroke_p	p	n/a
403.167	0.152	806334	keystroke_e	e	n/a
403.3265	0.104	806653	keystroke_c	c	n/a
403.5815	0.097	807163	keystroke_t	t	n/a
403.662	0.1205	807324	keystroke_o	o	n/a
403.8215	0.113	807643	keystroke_r	r	n/a
404.0545	0.0875	808109	keystroke_Key.enter	Key.enter	n/a
404.148	6.561	808296	prompt	n/a	page setup satisfied firewall\n
404.847	0.071	809694	keystroke_p	p	n/a
404.926	0.088	809852	keystroke_a	a	n/a
405.15	0.12	810300	keystroke_g	g	n/a
405.2135	0.1685	810427	keystroke_e	e	n/a
405.342	0.1435	810684	keystroke_Key.space	Key.space	n/a
405.478	0.1195	810956	keystroke_s	s	n/a
405.7255	0.128	811451	keystroke_e	e	n/a
405.8135	0.144	811627	keystroke_t	t	n/a
406.0375	0.1035	812075	keystroke_u	u	n/a
406.149	0.112	812298	keystroke_p	p	n/a
406.357	0.168	812714	keystroke_Key.space	Key.space	n/a
406.693	0.096	813386	keystroke_s	s	n/a
406.9085	0.0965	813817	keystroke_a	a	n/a
406.989	0.1595	813978	keystroke_t	t	n/a
407.1645	0.104	814329	keystroke_i	i	n/a
407.4845	0.16	814969	keystroke_s	s	n/a
407.7085	0.104	815417	keystroke_f	f	n/a
408.1	0.0565	816200	keystroke_i	i	n/a
408.188	0.12	816376	keystroke_e	e	n/a
408.2925	0.096	816585	keystroke_d	d	n/a
408.396	0.128	816792	keystroke_Key.space	Key.space	n/a
408.6435	0.129	817287	keystroke_f	f	n/a
408.7725	0.095	817545	keystroke_i	i	n/a
408.988	0.1515	817976	keystroke_r	r	n/a
409.1315	0.1205	818263	keystroke_e	e	n/a
409.516	0.104	819032	keystroke_w	w	n/a
409.635	0.121	819270	keystroke_a	a	n/a
409.868	0.1675	819736	keystroke_l	l	n/a
410.323	0.097	820646	keystroke_l	l	n/a
410.619	0.088	821238	keystroke_Key.enter	Key.enter	n/a
410.7135	5.1765	821427	prompt	n/a	madonna elephant ford stress\n
411.3315	0.12	822663	keystroke_m	m	n/a
411.4515	0.127	822903	keystroke_a	a	n/a
411.5865	0.1035	823173	keystroke_d	d	n/a
411.731	0.0555	823462	keystroke_o	o	n/a
412.1145	0.0795	824229	keystroke_n	n	n/a
412.2665	0.096	824533	keystroke_n	n	n/a
412.3865	0.111	824773	keystroke_a	a	n/a
412.4895	0.145	824979	keystroke_Key.space	Key.space	n/a
412.7465	0.1515	825493	keystroke_e	e	n/a
412.858	0.0965	825716	keystroke_l	l	n/a
412.9785	0.1115	825957	keystroke_e	e	n/a
413.1535	0.0885	826307	keystroke_p	p	n/a
413.3695	0.0965	826739	keystroke_h	h	n/a
413.4415	0.121	826883	keystroke_a	a	n/a
413.594	0.104	827188	keystroke_n	n	n/a
413.682	0.1435	827364	keystroke_t	t	n/a
413.7855	0.1435	827571	keystroke_Key.space	Key.space	n/a
414.0015	0.1035	828003	keystroke_f	f	n/a
414.081	0.096	828162	keystroke_o	o	n/a
414.25	0.0715	828500	keystroke_r	r	n/a
414.457	0.128	828914	keystroke_d	d	n/a
414.561	0.136	829122	keystroke_Key.space	Key.space	n/a
414.722	0.1105	829444	keystroke_s	s	n/a
414.8965	0.1285	829793	keystroke_t	t	n/a
415.137	0.1515	830274	keystroke_r	r	n/a
415.192	0.209	830384	keystroke_e	e	n/a
415.3615	0.111	830723	keystroke_s	s	n/a
415.5685	0.0965	831137	keystroke_s	s	n/a
415.7925	0.096	831585	keystroke_Key.enter	Key.enter	n/a
415.8935	6.961	831787	prompt	n/a	attribute members emergency hills\n
416.7205	0.088	833441	keystroke_a	a	n/a
416.8875	0.089	833775	keystroke_t	t	n/a
417.0565	0.087	834113	keystroke_t	t	n/a
417.272	0.1285	834544	keystroke_r	r	n/a
417.376	0.2955	834752	keystroke_i	i	n/a
418.1035	0.1205	836207	keystroke_b	b	n/a
418.2555	0.104	836511	keystroke_u	u	n/a
418.376	0.1195	836752	keystroke_t	t	n/a
418.4715	0.128	836943	keystroke_e	e	n/a
418.631	0.144	837262	keystroke_Key.space	Key.space	n/a
419.087	0.1205	838174	keystroke_m	m	n/a
419.2235	0.064	838447	keystroke_e	e	n/a
419.3355	0.08	838671	keystroke_m	m	n/a
419.583	0.096	839166	keystroke_b	b	n/a
419.639	0.112	839278	keystroke_e	e	n/a
419.703	0.128	839406	keystroke_r	r	n/a
419.823	0.135	839646	keystroke_s	s	n/a
419.951	0.1355	839902	keystroke_Key.space	Key.space	n/a
420.127	0.112	840254	keystroke_e	e	n/a
420.255	0.103	840510	keystroke_m	m	n/a
420.374	0.1445	840748	keystroke_e	e	n/a
420.4465	0.112	840893	keystroke_r	r	n/a
420.703	0.1195	841406	keystroke_g	g	n/a
420.895	0.128	841790	keystroke_e	e	n/a
421.0545	0.104	842109	keystroke_n	n	n/a
421.198	0.1205	842396	keystroke_c	c	n/a
421.3025	0.12	842605	keystroke_y	y	n/a
421.7575	0.1195	843515	keystroke_Key.space	Key.space	n/a
421.894	0.12	843788	keystroke_h	h	n/a
422.085	0.0645	844170	keystroke_i	i	n/a
422.277	0.08	844554	keystroke_l	l	n/a
422.4375	0.112	844875	keystroke_l	l	n/a
422.5255	0.1115	845051	keystroke_s	s	n/a
422.773	0.08	845546	keystroke_Key.enter	Key.enter	n/a
422.8595	6.6255	845719	prompt	n/a	rice sufficient completed slovakia\n
423.581	0.096	847162	keystroke_r	r	n/a
423.693	0.096	847386	keystroke_i	i	n/a
423.853	0.128	847706	keystroke_c	c	n/a
423.941	0.136	847882	keystroke_e	e	n/a
424.093	0.1515	848186	keystroke_Key.space	Key.space	n/a
424.221	0.0875	848442	keystroke_s	s	n/a
424.3015	0.0715	848603	keystroke_u	u	n/a
424.4925	0.0715	848985	keystroke_f	f	n/a
424.6445	0.0645	849289	keystroke_f	f	n/a
424.733	0.087	849466	keystroke_i	i	n/a
424.868	0.1205	849736	keystroke_c	c	n/a
424.9245	0.08	849849	keystroke_i	i	n/a
425.0765	0.1435	850153	keystroke_e	e	n/a
425.2045	0.095	850409	keystroke_n	n	n/a
425.308	0.1515	850616	keystroke_t	t	n/a
425.468	0.1195	850936	keystroke_Key.space	Key.space	n/a
425.8445	0.1195	851689	keystroke_c	c	n/a
425.9085	0.1195	851817	keystroke_o	o	n/a
426.06	0.12	852120	keystroke_m	m	n/a
426.2605	0.1835	852521	keystroke_p	p	n/a
426.396	0.128	852792	keystroke_l	l	n/a
426.5475	0.1285	853095	keystroke_e	e	n/a
426.7155	0.152	853431	keystroke_t	t	n/a
426.8435	0.168	853687	keystroke_e	e	n/a
427.2035	0.08	854407	keystroke_d	d	n/a
427.2835	0.1115	854567	keystroke_Key.space	Key.space	n/a
427.524	0.095	855048	keystroke_s	s	n/a
427.931	0.08	855862	keystroke_l	l	n/a
428.123	0.064	856246	keystroke_o	o	n/a
428.4345	0.136	856869	keystroke_v	v	n/a
428.6505	0.128	857301	keystroke_a	a	n/a
428.7475	0.079	857495	keystroke_k	k	n/a
428.9305	0.088	857861	keystroke_i	i	n/a
429.019	0.111	858038	keystroke_a	a	n/a
429.3865	0.096	858773	keystroke_Key.enter	Key.enter	n/a
429.4885	7.233	858977	prompt	n/a	interaction refers pizza influenced\n
430.4265	0.0795	860853	keystroke_i	i	n/a
430.6095	0.1205	861219	keystroke_n	n	n/a
430.698	0.136	861396	keystroke_t	t	n/a
430.834	0.1685	861668	keystroke_e	e	n/a
430.946	0.16	861892	keystroke_r	r	n/a
431.153	0.1125	862306	keystroke_a	a	n/a
431.3695	0.0965	862739	keystroke_c	c	n/a
431.6175	0.152	863235	keystroke_t	t	n/a
431.6575	0.12	863315	keystroke_i	i	n/a
431.7375	0.096	863475	keystroke_o	o	n/a
431.8575	0.128	863715	keystroke_n	n	n/a
431.9375	0.1515	863875	keystroke_Key.space	Key.space	n/a
432.065	0.1365	864130	keystroke_r	r	n/a
432.193	0.104	864386	keystroke_e	e	n/a
432.3615	0.1435	864723	keystroke_f	f	n/a
432.513	0.144	865026	keystroke_e	e	n/a
432.6335	0.16	865267	keystroke_r	r	n/a
432.713	0.192	865426	keystroke_e	e	n/a
433.2965	0.0565	866593	keystroke_Key.backspace	Key.backspace	n/a
433.409	0.112	866818	keystroke_s	s	n/a
433.6645	0.168	867329	keystroke_Key.space	Key.space	n/a
433.9045	0.097	867809	keystroke_p	p	n/a
434.1375	0.103	868275	keystroke_i	i	n/a
434.48	0.064	868960	keystroke_z	z	n/a
434.648	0.0645	869296	keystroke_z	z	n/a
434.848	0.112	869696	keystroke_a	a	n/a
434.968	0.12	869936	keystroke_Key.space	Key.space	n/a
435.1605	0.0955	870321	keystroke_i	i	n/a
435.376	0.088	870752	keystroke_n	n	n/a
435.497	0.111	870994	keystroke_f	f	n/a
435.56	0.096	871120	keystroke_l	l	n/a
435.76	0.0965	871520	keystroke_u	u	n/a
435.8725	0.1035	871745	keystroke_e	e	n/a
435.992	0.1125	871984	keystroke_n	n	n/a
436.1115	0.112	872223	keystroke_c	c	n/a
436.1995	0.1605	872399	keystroke_e	e	n/a
436.3755	0.1125	872751	keystroke_d	d	n/a
436.632	0.0875	873264	keystroke_Key.enter	Key.enter	n/a
436.726	6.7765	873452	prompt	n/a	viewer cheapest draft andrews\n
437.6715	0.1595	875343	keystroke_v	v	n/a
437.855	0.0805	875710	keystroke_i	i	n/a
438.1915	0.136	876383	keystroke_e	e	n/a
438.5905	0.136	877181	keystroke_w	w	n/a
438.7025	0.176	877405	keystroke_e	e	n/a
438.8305	0.152	877661	keystroke_r	r	n/a
439.0385	0.144	878077	keystroke_Key.space	Key.space	n/a
439.222	0.1445	878444	keystroke_c	c	n/a
439.335	0.0955	878670	keystroke_h	h	n/a
439.463	0.128	878926	keystroke_e	e	n/a
439.718	0.072	879436	keystroke_a	a	n/a
439.8455	0.112	879691	keystroke_p	p	n/a
439.982	0.2315	879964	keystroke_e	e	n/a
440.126	0.1205	880252	keystroke_s	s	n/a
440.2695	0.1365	880539	keystroke_t	t	n/a
440.438	0.12	880876	keystroke_Key.space	Key.space	n/a
440.7575	0.08	881515	keystroke_d	d	n/a
440.9815	0.136	881963	keystroke_r	r	n/a
441.1095	0.072	882219	keystroke_a	a	n/a
441.3175	0.0875	882635	keystroke_f	f	n/a
441.549	0.097	883098	keystroke_t	t	n/a
441.709	0.12	883418	keystroke_Key.space	Key.space	n/a
442.0215	0.104	884043	keystroke_a	a	n/a
442.1645	0.113	884329	keystroke_n	n	n/a
442.365	0.088	884730	keystroke_d	d	n/a
442.6215	0.1755	885243	keystroke_r	r	n/a
442.693	0.176	885386	keystroke_e	e	n/a
442.774	0.127	885548	keystroke_w	w	n/a
443.0445	0.1045	886089	keystroke_s	s	n/a
443.3895	0.111	886779	keystroke_Key.enter	Key.enter	n/a
443.5065	5.4355	887013	prompt	n/a	boards isbn thick demands\n
444.156	0.089	888312	keystroke_b	b	n/a
444.381	0.1035	888762	keystroke_o	o	n/a
444.4765	0.12	888953	keystroke_a	a	n/a
444.5645	0.1115	889129	keystroke_r	r	n/a
444.796	0.112	889592	keystroke_d	d	n/a
444.884	0.104	889768	keystroke_s	s	n/a
444.996	0.129	889992	keystroke_Key.space	Key.space	n/a
445.172	0.0965	890344	keystroke_i	i	n/a
445.309	0.0715	890618	keystroke_s	s	n/a
445.5405	0.088	891081	keystroke_b	b	n/a
445.7725	0.096	891545	keystroke_n	n	n/a
445.972	0.112	891944	keystroke_Key.space	Key.space	n/a
446.1955	0.1205	892391	keystroke_t	t	n/a
446.3555	0.1125	892711	keystroke_h	h	n/a
446.5325	0.1035	893065	keystroke_i	i	n/a
446.668	0.128	893336	keystroke_c	c	n/a
446.8755	0.12	893751	keystroke_k	k	n/a
447.0355	0.128	894071	keystroke_Key.space	Key.space	n/a
447.3075	0.128	894615	keystroke_d	d	n/a
447.4125	0.1505	894825	keystroke_e	e	n/a
447.5155	0.1355	895031	keystroke_m	m	n/a
447.699	0.112	895398	keystroke_a	a	n/a
447.8035	0.112	895607	keystroke_n	n	n/a
447.859	0.1275	895718	keystroke_s	s	n/a
448.291	0.088	896582	keystroke_Key.backspace	Key.backspace	n/a
448.3875	0.0795	896775	keystroke_d	d	n/a
448.427	0.112	896854	keystroke_s	s	n/a
448.843	0.0955	897686	keystroke_Key.enter	Key.enter	n/a
448.946	5.656	897892	prompt	n/a	binding discipline myth roof\n
449.499	0.096	898998	keystroke_b	b	n/a
449.699	0.0795	899398	keystroke_i	i	n/a
449.866	0.096	899732	keystroke_n	n	n/a
449.962	0.12	899924	keystroke_d	d	n/a
450.09	0.112	900180	keystroke_i	i	n/a
450.2105	0.104	900421	keystroke_n	n	n/a
450.282	0.1445	900564	keystroke_g	g	n/a
450.4185	0.128	900837	keystroke_Key.space	Key.space	n/a
450.7775	0.1125	901555	keystroke_d	d	n/a
450.8735	0.112	901747	keystroke_i	i	n/a
451.0335	0.048	902067	keystroke_s	s	n/a
451.2975	0.137	902595	keystroke_c	c	n/a
451.41	0.112	902820	keystroke_i	i	n/a
451.8345	0.1515	903669	keystroke_p	p	n/a
451.97	0.128	903940	keystroke_l	l	n/a
452.306	0.08	904612	keystroke_i	i	n/a
452.49	0.1195	904980	keystroke_n	n	n/a
452.5935	0.1045	905187	keystroke_e	e	n/a
452.6735	0.168	905347	keystroke_Key.space	Key.space	n/a
452.962	0.1195	905924	keystroke_m	m	n/a
453.21	0.071	906420	keystroke_y	y	n/a
453.3375	0.1285	906675	keystroke_t	t	n/a
453.4095	0.136	906819	keystroke_h	h	n/a
453.546	0.1275	907092	keystroke_Key.space	Key.space	n/a
453.7055	0.0875	907411	keystroke_r	r	n/a
453.849	0.0555	907698	keystroke_o	o	n/a
453.993	0.0875	907986	keystroke_o	o	n/a
454.0655	0.1115	908131	keystroke_f	f	n/a
454.52	0.081	909040	keystroke_Key.enter	Key.enter	n/a
454.6055	7.05	909211	prompt	n/a	answered burton lord algorithm\n
455.2085	0.0635	910417	keystroke_a	a	n/a
455.312	0.113	910624	keystroke_n	n	n/a
455.624	0.08	911248	keystroke_s	s	n/a
455.9925	0.0875	911985	keystroke_w	w	n/a
456.2085	0.1515	912417	keystroke_e	e	n/a
456.376	0.128	912752	keystroke_r	r	n/a
456.512	0.176	913024	keystroke_e	e	n/a
456.656	0.1365	913312	keystroke_d	d	n/a
456.784	0.12	913568	keystroke_Key.space	Key.space	n/a
457.048	0.096	914096	keystroke_b	b	n/a
457.232	0.096	914464	keystroke_u	u	n/a
457.3435	0.104	914687	keystroke_r	r	n/a
457.5755	0.1365	915151	keystroke_t	t	n/a
457.6875	0.0955	915375	keystroke_o	o	n/a
457.856	0.135	915712	keystroke_n	n	n/a
457.999	0.168	915998	keystroke_Key.space	Key.space	n/a
458.415	0.08	916830	keystroke_l	l	n/a
458.599	0.1205	917198	keystroke_o	o	n/a
458.663	0.088	917326	keystroke_r	r	n/a
458.879	0.12	917758	keystroke_d	d	n/a
458.983	0.168	917966	keystroke_Key.space	Key.space	n/a
459.231	0.1205	918462	keystroke_a	a	n/a
459.311	0.12	918622	keystroke_l	l	n/a
459.551	0.12	919102	keystroke_g	g	n/a
459.654	0.0805	919308	keystroke_o	o	n/a
459.855	0.135	919710	keystroke_r	r	n/a
459.999	0.0875	919998	keystroke_i	i	n/a
460.1745	0.136	920349	keystroke_t	t	n/a
460.5505	0.088	921101	keystroke_h	h	n/a
460.9585	0.032	921917	keystroke_m	m	n/a
461.5735	0.0795	923147	keystroke_Key.enter	Key.enter	n/a
461.659	5.083	923318	prompt	n/a	naked contacted paint rainbow\n
462.438	0.096	924876	keystroke_n	n	n/a
462.5825	0.1265	925165	keystroke_a	a	n/a
462.686	0.128	925372	keystroke_k	k	n/a
462.798	0.176	925596	keystroke_e	e	n/a
463.006	0.104	926012	keystroke_d	d	n/a
463.134	0.167	926268	keystroke_Key.space	Key.space	n/a
463.3255	0.112	926651	keystroke_c	c	n/a
463.4055	0.08	926811	keystroke_o	o	n/a
463.574	0.144	927148	keystroke_n	n	n/a
463.6535	0.1365	927307	keystroke_t	t	n/a
463.8615	0.111	927723	keystroke_a	a	n/a
464.046	0.071	928092	keystroke_c	c	n/a
