onset	duration	sample	value	key	prompt_text
1.211	9.955	2422	prompt	n/a	the quick brown fox jumps over a lazy dog\n
5.0475	0.0585	10095	keystroke_t	t	n/a
5.121	0.12	10242	keystroke_h	h	n/a
5.1955	0.1655	10391	keystroke_e	e	n/a
5.301	0.18	10602	keystroke_Key.space	Key.space	n/a
5.556	0.1505	11112	keystroke_q	q	n/a
5.691	0.1455	11382	keystroke_u	u	n/a
5.8065	0.09	11613	keystroke_i	i	n/a
6.0615	0.1345	12123	keystroke_c	c	n/a
6.1815	0.1205	12363	keystroke_k	k	n/a
6.3465	0.135	12693	keystroke_Key.space	Key.space	n/a
6.5725	0.0745	13145	keystroke_b	b	n/a
6.7525	0.075	13505	keystroke_r	r	n/a
6.8725	0.1195	13745	keystroke_o	o	n/a
6.977	0.1205	13954	keystroke_w	w	n/a
7.1125	0.1195	14225	keystroke_n	n	n/a
7.2475	0.165	14495	keystroke_Key.space	Key.space	n/a
7.3975	0.12	14795	keystroke_f	f	n/a
7.5625	0.0905	15125	keystroke_o	o	n/a
7.6825	0.12	15365	keystroke_x	x	n/a
7.832	0.135	15664	keystroke_Key.space	Key.space	n/a
8.0125	0.06	16025	keystroke_j	j	n/a
8.162	0.076	16324	keystroke_u	u	n/a
8.3575	0.075	16715	keystroke_m	m	n/a
8.567	0.091	17134	keystroke_p	p	n/a
8.703	0.15	17406	keystroke_s	s	n/a
8.8375	0.135	17675	keystroke_Key.space	Key.space	n/a
8.9575	0.09	17915	keystroke_o	o	n/a
9.063	0.089	18126	keystroke_v	v	n/a
9.243	0.1195	18486	keystroke_e	e	n/a
9.3025	0.15	18605	keystroke_r	r	n/a
9.4075	0.1645	18815	keystroke_Key.space	Key.space	n/a
9.5575	0.15	19115	keystroke_a	a	n/a
9.6775	0.135	19355	keystroke_Key.space	Key.space	n/a
9.8575	0.105	19715	keystroke_l	l	n/a
9.993	0.0895	19986	keystroke_a	a	n/a
10.187	0.106	20374	keystroke_z	z	n/a
10.323	0.0895	20646	keystroke_y	y	n/a
10.442	0.195	20884	keystroke_Key.space	Key.space	n/a
10.563	0.15	21126	keystroke_d	d	n/a
10.7275	0.105	21455	keystroke_o	o	n/a
10.8625	0.0755	21725	keystroke_g	g	n/a
11.0575	0.105	22115	keystroke_Key.enter	Key.enter	n/a
11.1745	6.5905	22349	prompt	n/a	qualifying ordered sleeps attribute\n
11.868	0.135	23736	keystroke_q	q	n/a
12.018	0.1045	24036	keystroke_u	u	n/a
12.2275	0.1205	24455	keystroke_a	a	n/a
12.362	0.0905	24724	keystroke_l	l	n/a
12.5125	0.0895	25025	keystroke_i	i	n/a
12.6325	0.12	25265	keystroke_f	f	n/a
12.8875	0.1055	25775	keystroke_y	y	n/a
13.0975	0.165	26195	keystroke_i	i	n/a
13.2175	0.12	26435	keystroke_n	n	n/a
13.353	0.09	26706	keystroke_g	g	n/a
13.3975	0.1795	26795	keystroke_Key.space	Key.space	n/a
13.5025	0.105	27005	keystroke_o	o	n/a
13.7875	0.1205	27575	keystroke_r	r	n/a
14.042	0.0905	28084	keystroke_d	d	n/a
14.2225	0.1365	28445	keystroke_e	e	n/a
14.3275	0.12	28655	keystroke_r	r	n/a
14.4925	0.0895	28985	keystroke_e	e	n/a
14.7025	0.1045	29405	keystroke_d	d	n/a
14.7925	0.21	29585	keystroke_Key.space	Key.space	n/a
14.943	0.12	29886	keystroke_s	s	n/a
15.0475	0.15	30095	keystroke_l	l	n/a
15.1675	0.0755	30335	keystroke_e	e	n/a
15.3175	0.0755	30635	keystroke_e	e	n/a
15.4375	0.06	30875	keystroke_p	p	n/a
15.588	0.1495	31176	keystroke_s	s	n/a
15.708	0.1795	31416	keystroke_Key.space	Key.space	n/a
15.8735	0.149	31747	keystroke_a	a	n/a
16.0385	0.059	32077	keystroke_t	t	n/a
16.1575	0.0895	32315	keystroke_t	t	n/a
16.3525	0.09	32705	keystroke_r	r	n/a
16.5025	0.1355	33005	keystroke_i	i	n/a
16.698	0.1045	33396	keystroke_b	b	n/a
17.1925	0.135	34385	keystroke_u	u	n/a
17.358	0.0595	34716	keystroke_t	t	n/a
17.5225	0.0605	35045	keystroke_e	e	n/a
17.6725	0.09	35345	keystroke_Key.enter	Key.enter	n/a
17.7695	6.9105	35539	prompt	n/a	legislature hills others investigation\n
18.333	0.1195	36666	keystroke_l	l	n/a
18.4375	0.105	36875	keystroke_e	e	n/a
18.9325	0.09	37865	keystroke_g	g	n/a
19.1425	0.09	38285	keystroke_i	i	n/a
19.2775	0.12	38555	keystroke_s	s	n/a
19.5175	0.1055	39035	keystroke_l	l	n/a
19.638	0.1495	39276	keystroke_a	a	n/a
19.7725	0.1055	39545	keystroke_t	t	n/a
19.9525	0.09	39905	keystroke_u	u	n/a
20.0275	0.1055	40055	keystroke_r	r	n/a
20.178	0.1495	40356	keystroke_e	e	n/a
20.2975	0.1805	40595	keystroke_Key.space	Key.space	n/a
20.463	0.105	40926	keystroke_h	h	n/a
20.5525	0.18	41105	keystroke_i	i	n/a
20.6875	0.0755	41375	keystroke_l	l	n/a
20.852	0.0905	41704	keystroke_l	l	n/a
20.9575	0.15	41915	keystroke_s	s	n/a
21.063	0.1645	42126	keystroke_Key.space	Key.space	n/a
21.2725	0.1195	42545	keystroke_o	o	n/a
21.423	0.1055	42846	keystroke_t	t	n/a
21.5575	0.12	43115	keystroke_h	h	n/a
21.6625	0.09	43325	keystroke_e	e	n/a
21.738	0.12	43476	keystroke_r	r	n/a
21.9925	0.105	43985	keystroke_s	s	n/a
22.0525	0.135	44105	keystroke_Key.space	Key.space	n/a
22.3975	0.075	44795	keystroke_i	i	n/a
22.5625	0.1205	45125	keystroke_n	n	n/a
22.758	0.105	45516	keystroke_v	v	n/a
22.953	0.0895	45906	keystroke_e	e	n/a
23.103	0.1945	46206	keystroke_s	s	n/a
23.253	0.09	46506	keystroke_t	t	n/a
23.4475	0.15	46895	keystroke_i	i	n/a
23.568	0.1045	47136	keystroke_g	g	n/a
23.7775	0.15	47555	keystroke_a	a	n/a
23.913	0.0745	47826	keystroke_t	t	n/a
24.0325	0.1655	48065	keystroke_i	i	n/a
24.153	0.1945	48306	keystroke_o	o	n/a
24.318	0.1045	48636	keystroke_n	n	n/a
24.588	0.09	49176	keystroke_Key.enter	Key.enter	n/a
24.684	6.6855	49368	prompt	n/a	chancellor peterson scales champagne\n
25.293	0.135	50586	keystroke_c	c	n/a
25.533	0.1045	51066	keystroke_h	h	n/a
25.788	0.1795	51576	keystroke_a	a	n/a
25.893	0.1045	51786	keystroke_n	n	n/a
26.072	0.0905	52144	keystroke_c	c	n/a
26.2225	0.1205	52445	keystroke_e	e	n/a
26.3275	0.045	52655	keystroke_l	l	n/a
26.463	0.075	52926	keystroke_l	l	n/a
26.642	0.0755	53284	keystroke_o	o	n/a
26.777	0.1655	53554	keystroke_r	r	n/a
26.9125	0.165	53825	keystroke_Key.space	Key.space	n/a
27.0625	0.09	54125	keystroke_p	p	n/a
27.183	0.1345	54366	keystroke_e	e	n/a
27.3625	0.105	54725	keystroke_t	t	n/a
27.5425	0.105	55085	keystroke_e	e	n/a
27.6175	0.1205	55235	keystroke_r	r	n/a
27.843	0.105	55686	keystroke_s	s	n/a
27.948	0.1645	55896	keystroke_o	o	n/a
28.0675	0.12	56135	keystroke_n	n	n/a
28.1575	0.15	56315	keystroke_Key.space	Key.space	n/a
28.323	0.1195	56646	keystroke_s	s	n/a
28.5025	0.1055	57005	keystroke_c	c	n/a
28.6675	0.1495	57335	keystroke_a	a	n/a
28.833	0.1045	57666	keystroke_l	l	n/a
28.967	0.09	57934	keystroke_e	e	n/a
29.132	0.1365	58264	keystroke_s	s	n/a
29.223	0.1495	58446	keystroke_Key.space	Key.space	n/a
29.4475	0.135	58895	keystroke_c	c	n/a
29.6275	0.0905	59255	keystroke_h	h	n/a
29.7625	0.1795	59525	keystroke_a	a	n/a
29.928	0.09	59856	keystroke_m	m	n/a
30.138	0.104	60276	keystroke_p	p	n/a
30.287	0.1515	60574	keystroke_a	a	n/a
30.723	0.105	61446	keystroke_g	g	n/a
30.9475	0.0905	61895	keystroke_n	n	n/a
31.0525	0.075	62105	keystroke_e	e	n/a
31.278	0.09	62556	keystroke_Key.enter	Key.enter	n/a
31.374	6.6715	62748	prompt	n/a	economies comfort gained packed\n
32.1775	0.0905	64355	keystroke_e	e	n/a
32.4025	0.1055	64805	keystroke_c	c	n/a
32.538	0.15	65076	keystroke_o	o	n/a
32.643	0.12	65286	keystroke_n	n	n/a
32.823	0.12	65646	keystroke_o	o	n/a
33.0775	0.09	66155	keystroke_m	m	n/a
33.2725	0.0605	66545	keystroke_i	i	n/a
33.3925	0.0905	66785	keystroke_e	e	n/a
33.603	0.1345	67206	keystroke_s	s	n/a
33.6925	0.1655	67385	keystroke_Key.space	Key.space	n/a
33.8725	0.105	67745	keystroke_c	c	n/a
33.993	0.165	67986	keystroke_o	o	n/a
34.1425	0.1055	68285	keystroke_n	n	n/a
34.8175	0.075	69635	keystroke_Key.backspace	Key.backspace	n/a
35.073	0.075	70146	keystroke_m	m	n/a
35.253	0.1195	70506	keystroke_f	f	n/a
35.3575	0.1055	70715	keystroke_o	o	n/a
35.538	0.075	71076	keystroke_r	r	n/a
35.748	0.1345	71496	keystroke_t	t	n/a
35.868	0.2395	71736	keystroke_Key.space	Key.space	n/a
36.093	0.0895	72186	keystroke_g	g	n/a
36.2425	0.151	72485	keystroke_a	a	n/a
36.378	0.1645	72756	keystroke_i	i	n/a
36.4685	0.149	72937	keystroke_n	n	n/a
36.5875	0.075	73175	keystroke_e	e	n/a
36.7825	0.09	73565	keystroke_d	d	n/a
36.7975	0.24	73595	keystroke_Key.space	Key.space	n/a
36.978	0.12	73956	keystroke_p	p	n/a
37.1125	0.135	74225	keystroke_a	a	n/a
37.3225	0.075	74645	keystroke_c	c	n/a
37.443	0.12	74886	keystroke_k	k	n/a
37.577	0.076	75154	keystroke_e	e	n/a
37.7875	0.06	75575	keystroke_d	d	n/a
37.9225	0.12	75845	keystroke_Key.enter	Key.enter	n/a
38.05	5.2595	76100	prompt	n/a	loaded gordon sleep developing\n
38.6275	0.076	77255	keystroke_l	l	n/a
38.8075	0.09	77615	keystroke_o	o	n/a
38.913	0.18	77826	keystroke_a	a	n/a
39.153	0.105	78306	keystroke_d	d	n/a
39.333	0.06	78666	keystroke_e	e	n/a
39.513	0.09	79026	keystroke_d	d	n/a
39.618	0.165	79236	keystroke_Key.space	Key.space	n/a
39.738	0.09	79476	keystroke_g	g	n/a
39.903	0.105	79806	keystroke_o	o	n/a
39.9935	0.0895	79987	keystroke_r	r	n/a
40.2625	0.0905	80525	keystroke_d	d	n/a
40.3985	0.1485	80797	keystroke_o	o	n/a
40.472	0.1515	80944	keystroke_n	n	n/a
40.637	0.136	81274	keystroke_Key.space	Key.space	n/a
40.757	0.12	81514	keystroke_s	s	n/a
40.893	0.12	81786	keystroke_l	l	n/a
41.0285	0.0595	82057	keystroke_e	e	n/a
41.162	0.121	82324	keystroke_e	e	n/a
41.268	0.089	82536	keystroke_p	p	n/a
41.402	0.136	82804	keystroke_Key.space	Key.space	n/a
41.523	0.09	83046	keystroke_d	d	n/a
41.703	0.0905	83406	keystroke_e	e	n/a
41.928	0.074	83856	keystroke_v	v	n/a
42.078	0.0755	84156	keystroke_e	e	n/a
42.213	0.09	84426	keystroke_l	l	n/a
42.423	0.12	84846	keystroke_o	o	n/a
42.5575	0.1205	85115	keystroke_p	p	n/a
42.813	0.1495	85626	keystroke_i	i	n/a
42.9175	0.12	85835	keystroke_n	n	n/a
43.0225	0.0755	86045	keystroke_g	g	n/a
43.2175	0.09	86435	keystroke_Key.enter	Key.enter	n/a
43.3145	8.8	86629	prompt	n/a	subscribers jelsoft lakes greenhouse\n
43.9525	0.135	87905	keystroke_s	s	n/a
44.1025	0.12	88205	keystroke_u	u	n/a
44.208	0.0895	88416	keystroke_b	b	n/a
44.4325	0.0905	88865	keystroke_s	s	n/a
44.613	0.0755	89226	keystroke_c	c	n/a
44.808	0.06	89616	keystroke_r	r	n/a
44.943	0.15	89886	keystroke_i	i	n/a
45.108	0.074	90216	keystroke_v	v	n/a
45.768	0.075	91536	keystroke_Key.backspace	Key.backspace	n/a
46.308	0.09	92616	keystroke_b	b	n/a
46.518	0.165	93036	keystroke_e	e	n/a
46.623	0.105	93246	keystroke_r	r	n/a
46.863	0.15	93726	keystroke_s	s	n/a
46.968	0.1495	93936	keystroke_Key.space	Key.space	n/a
47.208	0.1195	94416	keystroke_j	j	n/a
47.3725	0.12	94745	keystroke_e	e	n/a
47.538	0.12	95076	keystroke_l	l	n/a
48.483	0.12	96966	keystroke_s	s	n/a
48.678	0.09	97356	keystroke_o	o	n/a
48.798	0.075	97596	keystroke_f	f	n/a
48.993	0.09	97986	keystroke_t	t	n/a
49.098	0.194	98196	keystroke_Key.space	Key.space	n/a
49.218	0.12	98436	keystroke_l	l	n/a
49.353	0.1655	98706	keystroke_a	a	n/a
49.473	0.12	98946	keystroke_k	k	n/a
49.578	0.09	99156	keystroke_e	e	n/a
49.758	0.1195	99516	keystroke_s	s	n/a
49.8475	0.1505	99695	keystroke_Key.space	Key.space	n/a
49.9535	0.0895	99907	keystroke_g	g	n/a
50.208	0.135	100416	keystroke_r	r	n/a
50.778	0.075	101556	keystroke_e	e	n/a
50.928	0.09	101856	keystroke_e	e	n/a
51.048	0.075	102096	keystroke_n	n	n/a
51.258	0.09	102516	keystroke_h	h	n/a
51.363	0.165	102726	keystroke_o	o	n/a
51.483	0.1205	102966	keystroke_u	u	n/a
51.6775	0.135	103355	keystroke_s	s	n/a
51.798	0.1045	103596	keystroke_e	e	n/a
52.0075	0.1055	104015	keystroke_Key.enter	Key.enter	n/a
52.122	5.9325	104244	prompt	n/a	ripe bridal combinations smallest\n
52.6685	0.104	105337	keystroke_r	r	n/a
52.788	0.1495	105576	keystroke_i	i	n/a
52.908	0.1195	105816	keystroke_p	p	n/a
53.178	0.135	106356	keystroke_e	e	n/a
53.492	0.166	106984	keystroke_Key.space	Key.space	n/a
53.6435	0.089	107287	keystroke_b	b	n/a
53.853	0.045	107706	keystroke_r	r	n/a
53.9425	0.1505	107885	keystroke_i	i	n/a
54.0785	0.09	108157	keystroke_d	d	n/a
54.2285	0.1645	108457	keystroke_a	a	n/a
54.363	0.1045	108726	keystroke_l	l	n/a
54.4825	0.1505	108965	keystroke_Key.space	Key.space	n/a
54.6025	0.135	109205	keystroke_c	c	n/a
54.7225	0.1655	109445	keystroke_o	o	n/a
54.843	0.1345	109686	keystroke_m	m	n/a
55.2025	0.09	110405	keystroke_b	b	n/a
55.3675	0.1505	110735	keystroke_i	i	n/a
55.503	0.1045	111006	keystroke_n	n	n/a
55.638	0.1505	111276	keystroke_a	a	n/a
55.803	0.0745	111606	keystroke_t	t	n/a
55.9375	0.151	111875	keystroke_i	i	n/a
56.0425	0.1805	112085	keystroke_o	o	n/a
56.1935	0.119	112387	keystroke_n	n	n/a
56.2975	0.1205	112595	keystroke_s	s	n/a
56.373	0.21	112746	keystroke_Key.space	Key.space	n/a
56.553	0.15	113106	keystroke_s	s	n/a
56.7175	0.105	113435	keystroke_m	m	n/a
56.853	0.135	113706	keystroke_a	a	n/a
56.973	0.075	113946	keystroke_l	l	n/a
57.138	0.09	114276	keystroke_l	l	n/a
57.242	0.121	114484	keystroke_e	e	n/a
57.483	0.12	114966	keystroke_s	s	n/a
57.7535	0.059	115507	keystroke_t	t	n/a
57.9635	0.089	115927	keystroke_Key.enter	Key.enter	n/a
58.059	6.506	116118	prompt	n/a	simpsons bacon jesse hollow\n
58.653	0.015	117306	keystroke_s	s	n/a
58.713	0.0895	117426	keystroke_i	i	n/a
58.908	0.0745	117816	keystroke_m	m	n/a
59.0435	0.1195	118087	keystroke_p	p	n/a
59.2235	0.12	118447	keystroke_s	s	n/a
59.373	0.1795	118746	keystroke_o	o	n/a
59.5235	0.1045	119047	keystroke_n	n	n/a
59.8685	0.029	119737	keystroke_s	s	n/a
59.883	0.165	119766	keystroke_Key.space	Key.space	n/a
60.018	0.075	120036	keystroke_b	b	n/a
60.213	0.15	120426	keystroke_a	a	n/a
60.378	0.105	120756	keystroke_c	c	n/a
60.573	0.1645	121146	keystroke_o	o	n/a
60.7075	0.135	121415	keystroke_n	n	n/a
60.9775	0.135	121955	keystroke_Key.space	Key.space	n/a
61.2035	0.12	122407	keystroke_j	j	n/a
61.3085	0.09	122617	keystroke_e	e	n/a
61.503	0.0295	123006	keystroke_e	e	n/a
61.863	0.075	123726	keystroke_Key.backspace	Key.backspace	n/a
61.968	0.12	123936	keystroke_s	s	n/a
62.2075	0.091	124415	keystroke_s	s	n/a
62.4335	0.075	124867	keystroke_e	e	n/a
62.658	0.12	125316	keystroke_Key.space	Key.space	n/a
62.7935	0.1045	125587	keystroke_h	h	n/a
62.958	0.075	125916	keystroke_a	a	n/a
63.048	0.015	126096	keystroke_l	l	n/a
63.2725	0.0605	126545	keystroke_Key.backspace	Key.backspace	n/a
63.408	0.06	126816	keystroke_Key.backspace	Key.backspace	n/a
63.618	0.075	127236	keystroke_o	o	n/a
63.7985	0.0595	127597	keystroke_l	l	n/a
63.963	0.045	127926	keystroke_l	l	n/a
64.098	0.06	128196	keystroke_o	o	n/a
64.263	0.09	128526	keystroke_w	w	n/a
64.4575	0.105	128915	keystroke_Key.enter	Key.enter	n/a
64.5685	8.051	129137	prompt	n/a	enjoying disabled levitra opened\n
65.298	0.12	130596	keystroke_e	e	n/a
65.463	0.09	130926	keystroke_n	n	n/a
65.7335	0.09	131467	keystroke_j	j	n/a
65.9125	0.151	131825	keystroke_o	o	n/a
66.0325	0.09	132065	keystroke_y	y	n/a
66.2125	0.15	132425	keystroke_i	i	n/a
66.318	0.1045	132636	keystroke_n	n	n/a
66.408	0.135	132816	keystroke_g	g	n/a
66.4975	0.165	132995	keystroke_Key.space	Key.space	n/a
66.6775	0.1355	133355	keystroke_d	d	n/a
66.798	0.1345	133596	keystroke_i	i	n/a
67.203	0.105	134406	keystroke_s	s	n/a
67.4275	0.1505	134855	keystroke_a	a	n/a
67.608	0.089	135216	keystroke_b	b	n/a
67.818	0.105	135636	keystroke_l	l	n/a
67.968	0.09	135936	keystroke_e	e	n/a
68.268	0.09	136536	keystroke_d	d	n/a
68.973	0.075	137946	keystroke_Key.space	Key.space	n/a
69.258	0.105	138516	keystroke_l	l	n/a
69.393	0.105	138786	keystroke_e	e	n/a
69.648	0.1055	139296	keystroke_v	v	n/a
70.4425	0.121	140885	keystroke_i	i	n/a
70.548	0.09	141096	keystroke_t	t	n/a
70.7875	0.1355	141575	keystroke_r	r	n/a
71.013	0.1495	142026	keystroke_a	a	n/a
71.208	0.1495	142416	keystroke_o	o	n/a
71.343	0.1345	142686	keystroke_p	p	n/a
71.4625	0.1205	142925	keystroke_e	e	n/a
71.5985	0.105	143197	keystroke_n	n	n/a
71.6875	0.1055	143375	keystroke_e	e	n/a
71.8975	0.09	143795	keystroke_d	d	n/a
72.498	0.12	144996	keystroke_Key.enter	Key.enter	n/a
72.624	6.4005	145248	prompt	n/a	massage returns modelling scored\n
73.383	0.12	146766	keystroke_m	m	n/a
73.488	0.135	146976	keystroke_a	a	n/a
73.653	0.0745	147306	keystroke_s	s	n/a
73.8335	0.074	147667	keystroke_s	s	n/a
74.013	0.18	148026	keystroke_a	a	n/a
74.1475	0.105	148295	keystroke_g	g	n/a
74.3425	0.1205	148685	keystroke_e	e	n/a
74.4325	0.195	148865	keystroke_Key.space	Key.space	n/a
74.5525	0.1205	149105	keystroke_r	r	n/a
74.718	0.105	149436	keystroke_e	e	n/a
74.973	0.0295	149946	keystroke_g	g	n/a
75.4075	0.0905	150815	keystroke_Key.backspace	Key.backspace	n/a
75.5285	0.029	151057	keystroke_t	t	n/a
75.6625	0.076	151325	keystroke_u	u	n/a
76.068	0.09	152136	keystroke_r	r	n/a
76.263	0.09	152526	keystroke_n	n	n/a
76.413	0.15	152826	keystroke_s	s	n/a
76.533	0.15	153066	keystroke_Key.space	Key.space	n/a
76.698	0.09	153396	keystroke_m	m	n/a
76.848	0.12	153696	keystroke_o	o	n/a
76.983	0.0895	153966	keystroke_d	d	n/a
77.163	0.075	154326	keystroke_e	e	n/a
77.2525	0.06	154505	keystroke_l	l	n/a
77.388	0.165	154776	keystroke_l	l	n/a
77.5225	0.1355	155045	keystroke_i	i	n/a
77.5985	0.1345	155197	keystroke_n	n	n/a
77.6725	0.135	155345	keystroke_g	g	n/a
77.7775	0.195	155555	keystroke_Key.space	Key.space	n/a
77.9285	0.1495	155857	keystroke_s	s	n/a
78.0925	0.1055	156185	keystroke_c	c	n/a
78.2425	0.1205	156485	keystroke_o	o	n/a
78.3925	0.0755	156785	keystroke_r	r	n/a
78.588	0.075	157176	keystroke_e	e	n/a
78.783	0.075	157566	keystroke_d	d	n/a
78.873	0.15	157746	keystroke_Key.enter	Key.enter	n/a
79.0285	5.7715	158057	prompt	n/a	really operate professional wind\n
79.698	0.1355	159396	keystroke_r	r	n/a
79.818	0.135	159636	keystroke_e	e	n/a
79.938	0.165	159876	keystroke_a	a	n/a
80.088	0.0755	160176	keystroke_l	l	n/a
80.2535	0.1195	160507	keystroke_l	l	n/a
80.388	0.105	160776	keystroke_y	y	n/a
80.478	0.15	160956	keystroke_Key.space	Key.space	n/a
80.643	0.165	161286	keystroke_o	o	n/a
80.793	0.135	161586	keystroke_p	p	n/a
80.958	0.18	161916	keystroke_e	e	n/a
81.0925	0.12	162185	keystroke_r	r	n/a
81.3025	0.135	162605	keystroke_a	a	n/a
81.4075	0.1055	162815	keystroke_t	t	n/a
81.588	0.1195	163176	keystroke_e	e	n/a
81.678	0.135	163356	keystroke_Key.space	Key.space	n/a
81.8725	0.1205	163745	keystroke_p	p	n/a
82.128	0.135	164256	keystroke_r	r	n/a
82.2785	0.1195	164557	keystroke_o	o	n/a
82.533	0.105	165066	keystroke_f	f	n/a
82.713	0.075	165426	keystroke_e	e	n/a
82.878	0.1195	165756	keystroke_s	s	n/a
83.0875	0.1055	166175	keystroke_s	s	n/a
83.238	0.135	166476	keystroke_i	i	n/a
83.3425	0.1655	166685	keystroke_o	o	n/a
83.478	0.1195	166956	keystroke_n	n	n/a
83.628	0.135	167256	keystroke_a	a	n/a
83.778	0.0905	167556	keystroke_l	l	n/a
83.898	0.1495	167796	keystroke_Key.space	Key.space	n/a
84.1375	0.12	168275	keystroke_w	w	n/a
84.2275	0.195	168455	keystroke_i	i	n/a
84.363	0.1345	168726	keystroke_n	n	n/a
84.5135	0.0745	169027	keystroke_d	d	n/a
84.692	0.106	169384	keystroke_Key.enter	Key.enter	n/a
84.804	6.2805	169608	prompt	n/a	reprint sending elizabeth symptoms\n
85.4125	0.1055	170825	keystroke_r	r	n/a
85.563	0.105	171126	keystroke_e	e	n/a
85.788	0.105	171576	keystroke_p	p	n/a
85.893	0.12	171786	keystroke_r	r	n/a
86.028	0.18	172056	keystroke_i	i	n/a
86.1635	0.1345	172327	keystroke_n	n	n/a
86.313	0.12	172626	keystroke_t	t	n/a
86.4025	0.1655	172805	keystroke_Key.space	Key.space	n/a
86.628	0.18	173256	keystroke_s	s	n/a
86.7775	0.1055	173555	keystroke_e	e	n/a
86.898	0.12	173796	keystroke_n	n	n/a
87.033	0.09	174066	keystroke_d	d	n/a
87.168	0.1505	174336	keystroke_i	i	n/a
87.258	0.15	174516	keystroke_n	n	n/a
87.378	0.12	174756	keystroke_g	g	n/a
87.483	0.1195	174966	keystroke_Key.space	Key.space	n/a
87.8275	0.075	175655	keystroke_e	e	n/a
87.948	0.1495	175896	keystroke_l	l	n/a
88.068	0.15	176136	keystroke_i	i	n/a
88.248	0.1195	176496	keystroke_z	z	n/a
88.4725	0.0755	176945	keystroke_a	a	n/a
88.788	0.0895	177576	keystroke_b	b	n/a
88.998	0.06	177996	keystroke_e	e	n/a
89.1485	0.089	178297	keystroke_t	t	n/a
89.2975	0.135	178595	keystroke_h	h	n/a
89.418	0.1345	178836	keystroke_Key.space	Key.space	n/a
89.658	0.135	179316	keystroke_s	s	n/a
89.7785	0.0885	179557	keystroke_y	y	n/a
90.033	0.089	180066	keystroke_m	m	n/a
90.2285	0.0745	180457	keystroke_p	p	n/a
90.363	0.0745	180726	keystroke_t	t	n/a
90.4975	0.1355	180995	keystroke_o	o	n/a
90.618	0.12	181236	keystroke_m	m	n/a
90.7975	0.1055	181595	keystroke_s	s	n/a
90.978	0.1045	181956	keystroke_Key.enter	Key.enter	n/a
91.09	8.7395	182180	prompt	n/a	cookbook concerning registrar loans\n
91.758	0.15	183516	keystroke_c	c	n/a
91.909	0.074	183818	keystroke_o	o	n/a
92.043	0.12	184086	keystroke_o	o	n/a
92.283	0.0895	184566	keystroke_k	k	n/a
92.5375	0.09	185075	keystroke_b	b	n/a
92.6725	0.0605	185345	keystroke_o	o	n/a
92.838	0.0905	185676	keystroke_o	o	n/a
93.033	0.075	186066	keystroke_k	k	n/a
93.1825	0.0605	186365	keystroke_Key.space	Key.space	n/a
93.378	0.09	186756	keystroke_c	c	n/a
93.483	0.18	186966	keystroke_o	o	n/a
93.603	0.1355	187206	keystroke_n	n	n/a
93.753	0.09	187506	keystroke_c	c	n/a
93.948	0.135	187896	keystroke_e	e	n/a
94.053	0.09	188106	keystroke_r	r	n/a
94.248	0.12	188496	keystroke_n	n	n/a
94.563	0.0905	189126	keystroke_i	i	n/a
94.743	0.09	189486	keystroke_n	n	n/a
95.163	0.0905	190326	keystroke_g	g	n/a
95.358	0.135	190716	keystroke_Key.space	Key.space	n/a
95.6275	0.105	191255	keystroke_r	r	n/a
95.763	0.1045	191526	keystroke_e	e	n/a
95.9575	0.075	191915	keystroke_g	g	n/a
96.0475	0.1655	192095	keystroke_i	i	n/a
96.1985	0.1345	192397	keystroke_s	s	n/a
96.438	0.0445	192876	keystroke_t	t	n/a
96.453	0.0445	192906	keystroke_r	r	n/a
96.918	0.09	193836	keystroke_r	r	n/a
97.442	0.076	194884	keystroke_Key.backspace	Key.backspace	n/a
97.893	0.045	195786	keystroke_a	a	n/a
98.043	0.075	196086	keystroke_r	r	n/a
98.748	0.12	197496	keystroke_Key.space	Key.space	n/a
98.883	0.06	197766	keystroke_l	l	n/a
99.048	0.075	198096	keystroke_o	o	n/a
99.153	0.12	198306	keystroke_a	a	n/a
99.258	0.1055	198516	keystroke_n	n	n/a
99.498	0.0745	198996	keystroke_s	s	n/a
99.708	0.12	199416	keystroke_Key.enter	Key.enter	n/a
99.834	10.2855	199668	prompt	n/a	lots families photographic villas\n
100.398	0.0895	200796	keystroke_l	l	n/a
100.5775	0.09	201155	keystroke_o	o	n/a
100.938	0.0895	201876	keystroke_t	t	n/a
101.1475	0.12	202295	keystroke_s	s	n/a
101.2225	0.165	202445	keystroke_Key.space	Key.space	n/a
101.448	0.09	202896	keystroke_f	f	n/a
101.612	0.151	203224	keystroke_a	a	n/a
101.748	0.15	203496	keystroke_m	m	n/a
101.883	0.149	203766	keystroke_i	i	n/a
102.003	0.165	204006	keystroke_l	l	n/a
102.228	0.12	204456	keystroke_i	i	n/a
102.573	0.1045	205146	keystroke_e	e	n/a
102.7675	0.12	205535	keystroke_s	s	n/a
102.8425	0.1505	205685	keystroke_Key.space	Key.space	n/a
103.038	0.12	206076	keystroke_p	p	n/a
103.2185	0.1045	206437	keystroke_h	h	n/a
103.353	0.12	206706	keystroke_o	o	n/a
103.5935	0.1195	207187	keystroke_t	t	n/a
103.893	0.105	207786	keystroke_o	o	n/a
104.208	0.075	208416	keystroke_g	g	n/a
104.373	0.075	208746	keystroke_r	r	n/a
104.553	0.105	209106	keystroke_p	p	n/a
104.6885	0.1195	209377	keystroke_h	h	n/a
104.853	0.135	209706	keystroke_a	a	n/a
104.943	0.105	209886	keystroke_i	i	n/a
105.2875	0.0595	210575	keystroke_Key.backspace	Key.backspace	n/a
105.422	0.0755	210844	keystroke_Key.backspace	Key.backspace	n/a
105.663	0.06	211326	keystroke_i	i	n/a
105.7835	0.0895	211567	keystroke_c	c	n/a
106.308	0.075	212616	keystroke_Key.backspace	Key.backspace	n/a
106.473	0.075	212946	keystroke_Key.backspace	Key.backspace	n/a
106.668	0.075	213336	keystroke_Key.backspace	Key.backspace	n/a
106.9075	0.0305	213815	keystroke_Key.backspace	Key.backspace	n/a
107.5075	0.15	215015	keystroke_a	a	n/a
107.7625	0.12	215525	keystroke_p	p	n/a
107.8675	0.12	215735	keystroke_h	h	n/a
108.0325	0.105	216065	keystroke_i	i	n/a
108.2435	0.059	216487	keystroke_c	c	n/a
108.3775	0.135	216755	keystroke_Key.space	Key.space	n/a
108.693	0.0595	217386	keystroke_v	v	n/a
108.738	0.1355	217476	keystroke_i	i	n/a
108.8435	0.075	217687	keystroke_l	l	n/a
108.978	0.1045	217956	keystroke_l	l	n/a
109.0975	0.135	218195	keystroke_a	a	n/a
109.3825	0.09	218765	keystroke_s	s	n/a
109.998	0.1195	219996	keystroke_Key.enter	Key.enter	n/a
110.1245	7.825	220249	prompt	n/a	boat correction nasdaq sharp\n
111.408	0.135	222816	keystroke_b	b	n/a
111.648	0.1045	223296	keystroke_o	o	n/a
111.7675	0.166	223535	keystroke_a	a	n/a
111.9485	0.134	223897	keystroke_t	t	n/a
112.0675	0.18	224135	keystroke_Key.space	Key.space	n/a
112.293	0.12	224586	keystroke_c	c	n/a
112.4575	0.1055	224915	keystroke_o	o	n/a
112.743	0.09	225486	keystroke_r	r	n/a
112.938	0.09	225876	keystroke_r	r	n/a
113.0585	0.0895	226117	keystroke_e	e	n/a
113.253	0.075	226506	keystroke_c	c	n/a
113.448	0.06	226896	keystroke_t	t	n/a
113.5985	0.1345	227197	keystroke_i	i	n/a
113.6885	0.179	227377	keystroke_o	o	n/a
113.8075	0.1355	227615	keystroke_n	n	n/a
113.9435	0.1495	227887	keystroke_Key.space	Key.space	n/a
114.108	0.12	228216	keystroke_n	n	n/a
114.2425	0.18	228485	keystroke_a	a	n/a
114.408	0.12	228816	keystroke_s	s	n/a
114.753	0.09	229506	keystroke_d	d	n/a
114.9025	0.1355	229805	keystroke_a	a	n/a
115.2475	0.1055	230495	keystroke_q	q	n/a
115.5475	0.15	231095	keystroke_Key.space	Key.space	n/a
115.7275	0.135	231455	keystroke_s	s	n/a
115.9075	0.106	231815	keystroke_h	h	n/a
116.1185	0.1345	232237	keystroke_a	a	n/a
116.3885	0.029	232777	keystroke_e	e	n/a
117.138	0.06	234276	keystroke_Key.backspace	Key.backspace	n/a
117.348	0.09	234696	keystroke_r	r	n/a
117.513	0.075	235026	keystroke_p	p	n/a
117.8575	0.09	235715	keystroke_Key.enter	Key.enter	n/a
117.9535	6.071	235907	prompt	n/a	conditioning vinyl walt navy\n
118.7125	0.135	237425	keystroke_c	c	n/a
118.863	0.1205	237726	keystroke_o	o	n/a
118.9375	0.1205	237875	keystroke_n	n	n/a
119.1025	0.12	238205	keystroke_d	d	n/a
119.2375	0.0905	238475	keystroke_i	i	n/a
119.373	0.06	238746	keystroke_t	t	n/a
119.493	0.1945	238986	keystroke_i	i	n/a
119.6285	0.149	239257	keystroke_o	o	n/a
119.7175	0.106	239435	keystroke_n	n	n/a
119.9285	0.1195	239857	keystroke_i	i	n/a
120.018	0.1205	240036	keystroke_n	n	n/a
120.1385	0.12	240277	keystroke_g	g	n/a
120.5725	0.1505	241145	keystroke_Key.space	Key.space	n/a
120.768	0.12	241536	keystroke_v	v	n/a
120.948	0.165	241896	keystroke_i	i	n/a
121.0685	0.1195	242137	keystroke_n	n	n/a
121.623	0.075	243246	keystroke_y	y	n/a
121.833	0.09	243666	keystroke_l	l	n/a
122.0875	0.105	244175	keystroke_Key.space	Key.space	n/a
122.2225	0.135	244445	keystroke_w	w	n/a
122.3735	0.195	244747	keystroke_a	a	n/a
122.5235	0.105	245047	keystroke_l	l	n/a
122.733	0.075	245466	keystroke_t	t	n/a
122.7775	0.18	245555	keystroke_Key.space	Key.space	n/a
123.0325	0.1505	246065	keystroke_n	n	n/a
123.1975	0.1355	246395	keystroke_a	a	n/a
123.483	0.1045	246966	keystroke_v	v	n/a
123.678	0.0755	247356	keystroke_y	y	n/a
123.9175	0.1055	247835	keystroke_Key.enter	Key.enter	n/a
124.029	5.246	248058	prompt	n/a	dist sydney laws asked\n
124.6235	0.119	249247	keystroke_d	d	n/a
124.7435	0.134	249487	keystroke_i	i	n/a
124.8925	0.09	249785	keystroke_s	s	n/a
125.1635	0.0595	250327	keystroke_t	t	n/a
125.343	0.1495	250686	keystroke_Key.space	Key.space	n/a
125.598	0.15	251196	keystroke_s	s	n/a
125.793	0.135	251586	keystroke_y	y	n/a
126.048	0.12	252096	keystroke_d	d	n/a
126.213	0.135	252426	keystroke_n	n	n/a
126.4225	0.1055	252845	keystroke_e	e	n/a
126.5585	0.0895	253117	keystroke_y	y	n/a
126.6785	0.1345	253357	keystroke_Key.space	Key.space	n/a
126.918	0.1055	253836	keystroke_l	l	n/a
127.038	0.15	254076	keystroke_a	a	n/a
127.578	0.104	255156	keystroke_w	w	n/a
127.848	0.0905	255696	keystroke_s	s	n/a
127.9225	0.15	255845	keystroke_Key.space	Key.space	n/a
128.1785	0.165	256357	keystroke_a	a	n/a
128.313	0.1345	256626	keystroke_s	s	n/a
128.4485	0.119	256897	keystroke_k	k	n/a
128.583	0.0895	257166	keystroke_e	e	n/a
128.838	0.09	257676	keystroke_d	d	n/a
129.153	0.12	258306	keystroke_Key.enter	Key.enter	n/a
129.279	6.4005	258558	prompt	n/a	management precipitation pray feels\n
129.963	0.1355	259926	keystroke_m	m	n/a
130.083	0.1495	260166	keystroke_a	a	n/a
130.2475	0.1205	260495	keystroke_n	n	n/a
130.383	0.12	260766	keystroke_a	a	n/a
130.548	0.0895	261096	keystroke_g	g	n/a
130.7125	0.091	261425	keystroke_e	e	n/a
130.818	0.0895	261636	keystroke_m	m	n/a
130.9225	0.09	261845	keystroke_e	e	n/a
131.0135	0.1045	262027	keystroke_n	n	n/a
131.1625	0.076	262325	keystroke_t	t	n/a
131.328	0.135	262656	keystroke_Key.space	Key.space	n/a
131.643	0.1195	263286	keystroke_p	p	n/a
131.7775	0.136	263555	keystroke_r	r	n/a
131.8975	0.135	263795	keystroke_e	e	n/a
132.1975	0.1055	264395	keystroke_c	c	n/a
132.3475	0.105	264695	keystroke_i	i	n/a
132.5125	0.121	265025	keystroke_p	p	n/a
132.798	0.09	265596	keystroke_i	i	n/a
132.9335	0.1195	265867	keystroke_t	t	n/a
133.173	0.135	266346	keystroke_a	a	n/a
133.263	0.105	266526	keystroke_t	t	n/a
133.4125	0.15	266825	keystroke_i	i	n/a
133.518	0.1805	267036	keystroke_o	o	n/a
133.638	0.1355	267276	keystroke_n	n	n/a
133.758	0.1195	267516	keystroke_Key.space	Key.space	n/a
133.908	0.105	267816	keystroke_p	p	n/a
133.9985	0.1045	267997	keystroke_r	r	n/a
134.193	0.12	268386	keystroke_a	a	n/a
134.3285	0.089	268657	keystroke_y	y	n/a
134.508	0.1205	269016	keystroke_Key.space	Key.space	n/a
134.688	0.0745	269376	keystroke_f	f	n/a
134.8825	0.0755	269765	keystroke_e	e	n/a
135.033	0.12	270066	keystroke_e	e	n/a
135.1835	0.1045	270367	keystroke_l	l	n/a
135.3475	0.091	270695	keystroke_s	s	n/a
135.573	0.105	271146	keystroke_Key.enter	Key.enter	n/a
135.6855	5.4245	271371	prompt	n/a	richard essay presenting yoga\n
136.308	0.105	272616	keystroke_r	r	n/a
136.428	0.1495	272856	keystroke_i	i	n/a
136.7285	0.119	273457	keystroke_c	c	n/a
136.8335	0.1495	273667	keystroke_h	h	n/a
136.998	0.1495	273996	keystroke_a	a	n/a
137.163	0.0755	274326	keystroke_r	r	n/a
137.358	0.105	274716	keystroke_d	d	n/a
137.418	0.18	274836	keystroke_Key.space	Key.space	n/a
137.658	0.1045	275316	keystroke_e	e	n/a
137.8375	0.106	275675	keystroke_s	s	n/a
138.0175	0.121	276035	keystroke_s	s	n/a
138.1835	0.1495	276367	keystroke_a	a	n/a
138.318	0.1055	276636	keystroke_y	y	n/a
138.4535	0.164	276907	keystroke_Key.space	Key.space	n/a
138.6625	0.0905	277325	keystroke_p	p	n/a
138.7835	0.15	277567	keystroke_r	r	n/a
138.9475	0.121	277895	keystroke_e	e	n/a
139.1285	0.15	278257	keystroke_s	s	n/a
139.2485	0.135	278497	keystroke_e	e	n/a
139.3685	0.135	278737	keystroke_n	n	n/a
139.5185	0.075	279037	keystroke_t	t	n/a
139.668	0.1645	279336	keystroke_i	i	n/a
139.788	0.135	279576	keystroke_n	n	n/a
139.908	0.0895	279816	keystroke_g	g	n/a
139.9675	0.18	279935	keystroke_Key.space	Key.space	n/a
140.1625	0.09	280325	keystroke_y	y	n/a
140.4185	0.074	280837	keystroke_o	o	n/a
140.6435	0.074	281287	keystroke_g	g	n/a
140.8085	0.104	281617	keystroke_a	a	n/a
140.9875	0.12	281975	keystroke_Key.enter	Key.enter	n/a
141.114	10.2705	282228	prompt	n/a	negotiation territories bars crack\n
141.7835	0.1495	283567	keystroke_n	n	n/a
142.3385	0.1345	284677	keystroke_e	e	n/a
142.743	0.135	285486	keystroke_g	g	n/a
142.923	0.1055	285846	keystroke_o	o	n/a
143.1025	0.0905	286205	keystroke_t	t	n/a
143.2535	0.1345	286507	keystroke_i	i	n/a
143.447	0.1365	286894	keystroke_a	a	n/a
143.598	0.0905	287196	keystroke_t	t	n/a
143.7035	0.135	287407	keystroke_i	i	n/a
143.808	0.1355	287616	keystroke_o	o	n/a
143.9575	0.09	287915	keystroke_n	n	n/a
144.0625	0.195	288125	keystroke_Key.space	Key.space	n/a
144.2275	0.0905	288455	keystroke_t	t	n/a
144.423	0.135	288846	keystroke_e	e	n/a
144.498	0.1055	288996	keystroke_r	r	n/a
144.6635	0.1045	289327	keystroke_r	r	n/a
144.8285	0.0745	289657	keystroke_o	o	n/a
145.2935	0.0745	290587	keystroke_Key.backspace	Key.backspace	n/a
145.518	0.0595	291036	keystroke_i	i	n/a
145.788	0.075	291576	keystroke_t	t	n/a
145.953	0.0905	291906	keystroke_o	o	n/a
146.3425	0.121	292685	keystroke_r	r	n/a
146.583	0.0755	293166	keystroke_i	i	n/a
146.7485	0.1045	293497	keystroke_e	e	n/a
146.9875	0.1055	293975	keystroke_s	s	n/a
147.243	0.135	294486	keystroke_Key.space	Key.space	n/a
147.453	0.09	294906	keystroke_b	b	n/a
147.6335	0.165	295267	keystroke_a	a	n/a
147.7835	0.1045	295567	keystroke_r	r	n/a
147.9635	0.09	295927	keystroke_s	s	n/a
148.038	0.21	296076	keystroke_Key.space	Key.space	n/a
148.233	0.12	296466	keystroke_c	c	n/a
148.4135	0.164	296827	keystroke_a	a	n/a
148.593	0.0595	297186	keystroke_r	r	n/a
149.1175	0.06	298235	keystroke_Key.backspace	Key.backspace	n/a
149.253	0.06	298506	keystroke_Key.backspace	Key.backspace	n/a
149.4035	0.1045	298807	keystroke_r	r	n/a
149.583	0.135	299166	keystroke_a	a	n/a
149.748	0.105	299496	keystroke_s	s	n/a
150.168	0.075	300336	keystroke_Key.backspace	Key.backspace	n/a
150.798	0.1055	301596	keystroke_c	c	n/a
150.963	0.075	301926	keystroke_k	k	n/a
151.293	0.0895	302586	keystroke_Key.enter	Key.enter	n/a
151.3885	5.111	302777	prompt	n/a	facts click soccer para\n
152.148	0.135	304296	keystroke_f	f	n/a
152.328	0.15	304656	keystroke_a	a	n/a
152.463	0.09	304926	keystroke_c	c	n/a
152.6735	0.0595	305347	keystroke_t	t	n/a
152.838	0.1505	305676	keystroke_s	s	n/a
152.943	0.18	305886	keystroke_Key.space	Key.space	n/a
153.1085	0.1045	306217	keystroke_c	c	n/a
153.243	0.135	306486	keystroke_l	l	n/a
153.3335	0.1195	306667	keystroke_i	i	n/a
153.468	0.1205	306936	keystroke_c	c	n/a
153.618	0.09	307236	keystroke_k	k	n/a
153.753	0.15	307506	keystroke_Key.space	Key.space	n/a
153.9185	0.1345	307837	keystroke_s	s	n/a
154.128	0.12	308256	keystroke_c	c	n/a
154.533	0.075	309066	keystroke_Key.backspace	Key.backspace	n/a
154.7885	0.06	309577	keystroke_o	o	n/a
154.8635	0.09	309727	keystroke_c	c	n/a
155.0435	0.089	310087	keystroke_c	c	n/a
155.2225	0.136	310445	keystroke_e	e	n/a
155.3285	0.119	310657	keystroke_r	r	n/a
155.4925	0.1355	310985	keystroke_Key.space	Key.space	n/a
155.763	0.1195	311526	keystroke_p	p	n/a
155.9125	0.1655	311825	keystroke_a	a	n/a
156.063	0.105	312126	keystroke_r	r	n/a
156.213	0.12	312426	keystroke_a	a	n/a
156.363	0.135	312726	keystroke_Key.enter	Key.enter	n/a
156.5035	5.906	313007	prompt	n/a	ruth russia samsung chairman\n
157.173	0.12	314346	keystroke_r	r	n/a
157.338	0.1055	314676	keystroke_u	u	n/a
157.473	0.0905	314946	keystroke_t	t	n/a
157.593	0.1055	315186	keystroke_h	h	n/a
157.7725	0.165	315545	keystroke_Key.space	Key.space	n/a
157.9085	0.119	315817	keystroke_r	r	n/a
158.0425	0.105	316085	keystroke_u	u	n/a
158.2835	0.089	316567	keystroke_s	s	n/a
158.4485	0.104	316897	keystroke_s	s	n/a
158.568	0.12	317136	keystroke_i	i	n/a
158.7185	0.149	317437	keystroke_a	a	n/a
158.8525	0.18	317705	keystroke_Key.space	Key.space	n/a
159.0035	0.12	318007	keystroke_s	s	n/a
159.2725	0.1505	318545	keystroke_a	a	n/a
159.4685	0.1495	318937	keystroke_m	m	n/a
159.8285	0.1345	319657	keystroke_s	s	n/a
160.008	0.09	320016	keystroke_u	u	n/a
160.2485	0.0895	320497	keystroke_n	n	n/a
160.4735	0.105	320947	keystroke_g	g	n/a
160.8925	0.12	321785	keystroke_Key.space	Key.space	n/a
161.0885	0.135	322177	keystroke_c	c	n/a
161.2385	0.074	322477	keystroke_h	h	n/a
161.3575	0.151	322715	keystroke_a	a	n/a
161.4935	0.1495	322987	keystroke_i	i	n/a
161.6285	0.09	323257	keystroke_r	r	n/a
161.7635	0.1345	323527	keystroke_m	m	n/a
161.9135	0.135	323827	keystroke_a	a	n/a
162.0335	0.09	324067	keystroke_n	n	n/a
162.2885	0.1195	324577	keystroke_Key.enter	Key.enter	n/a
162.414	7.2855	324828	prompt	n/a	underwear stevens sell peripheral\n
163.1125	0.0905	326225	keystroke_u	u	n/a
163.308	0.0745	326616	keystroke_n	n	n/a
163.4275	0.106	326855	keystroke_d	d	n/a
163.6385	0.12	327277	keystroke_e	e	n/a
163.7135	0.12	327427	keystroke_r	r	n/a
163.9535	0.18	327907	keystroke_w	w	n/a
164.0885	0.135	328177	keystroke_e	e	n/a
164.313	0.1505	328626	keystroke_a	a	n/a
164.4485	0.1345	328897	keystroke_r	r	n/a
164.567	0.1655	329134	keystroke_Key.space	Key.space	n/a
164.748	0.1655	329496	keystroke_s	s	n/a
164.8835	0.12	329767	keystroke_t	t	n/a
165.168	0.1205	330336	keystroke_e	e	n/a
165.423	0.075	330846	keystroke_v	v	n/a
165.573	0.15	331146	keystroke_e	e	n/a
165.768	0.105	331536	keystroke_n	n	n/a
165.978	0.12	331956	keystroke_s	s	n/a
166.098	0.1655	332196	keystroke_Key.space	Key.space	n/a
166.248	0.135	332496	keystroke_s	s	n/a
166.413	0.105	332826	keystroke_e	e	n/a
166.578	0.075	333156	keystroke_l	l	n/a
166.743	0.12	333486	keystroke_l	l	n/a
166.864	0.119	333728	keystroke_Key.space	Key.space	n/a
167.013	0.1345	334026	keystroke_p	p	n/a
167.3425	0.181	334685	keystroke_e	e	n/a
167.508	0.12	335016	keystroke_r	r	n/a
167.778	0.12	335556	keystroke_i	i	n/a
168.033	0.12	336066	keystroke_p	p	n/a
168.198	0.09	336396	keystroke_h	h	n/a
168.333	0.1505	336666	keystroke_e	e	n/a
168.4525	0.121	336905	keystroke_r	r	n/a
168.6185	0.1195	337237	keystroke_i	i	n/a
169.0375	0.075	338075	keystroke_Key.backspace	Key.backspace	n/a
169.1585	0.105	338317	keystroke_a	a	n/a
169.3375	0.076	338675	keystroke_l	l	n/a
169.6235	0.0745	339247	keystroke_Key.enter	Key.enter	n/a
169.7035	6.2365	339407	prompt	n/a	herself ctrl patio sign\n
170.4635	0.135	340927	keystroke_h	h	n/a
170.5835	0.1645	341167	keystroke_e	e	n/a
170.703	0.105	341406	keystroke_r	r	n/a
170.8985	0.1505	341797	keystroke_s	s	n/a
171.004	0.1495	342008	keystroke_e	e	n/a
171.1685	0.105	342337	keystroke_l	l	n/a
171.303	0.1205	342606	keystroke_f	f	n/a
171.4385	0.15	342877	keystroke_Key.space	Key.space	n/a
171.6935	0.105	343387	keystroke_c	c	n/a
171.963	0.0605	343926	keystroke_t	t	n/a
172.233	0.09	344466	keystroke_r	r	n/a
172.503	0.1205	345006	keystroke_l	l	n/a
172.713	0.135	345426	keystroke_Key.space	Key.space	n/a
172.863	0.0755	345726	keystroke_p	p	n/a
172.983	0.2255	345966	keystroke_a	a	n/a
173.193	0.1205	346386	keystroke_t	t	n/a
173.3435	0.21	346687	keystroke_i	i	n/a
173.5235	0.1195	347047	keystroke_o	o	n/a
173.748	0.1495	347496	keystroke_Key.space	Key.space	n/a
173.958	0.0905	347916	keystroke_s	s	n/a
174.0185	0.044	348037	keystroke_i	i	n/a
174.708	0.0905	349416	keystroke_g	g	n/a
174.8585	0.09	349717	keystroke_h	h	n/a
175.338	0.075	350676	keystroke_Key.backspace	Key.backspace	n/a
175.578	0.0605	351156	keystroke_n	n	n/a
175.8485	0.09	351697	keystroke_Key.enter	Key.enter	n/a
175.9435	5.727	351887	prompt	n/a	pastor appropriate email pupils\n
176.6435	0.105	353287	keystroke_p	p	n/a
176.778	0.18	353556	keystroke_a	a	n/a
176.928	0.12	353856	keystroke_s	s	n/a
177.124	0.0735	354248	keystroke_t	t	n/a
177.273	0.1055	354546	keystroke_o	o	n/a
177.408	0.1645	354816	keystroke_r	r	n/a
177.5575	0.166	355115	keystroke_Key.space	Key.space	n/a
177.708	0.18	355416	keystroke_a	a	n/a
177.843	0.0755	355686	keystroke_p	p	n/a
177.9925	0.105	355985	keystroke_p	p	n/a
178.1275	0.136	356255	keystroke_r	r	n/a
178.2475	0.151	356495	keystroke_o	o	n/a
178.4435	0.105	356887	keystroke_p	p	n/a
178.6085	0.104	357217	keystroke_r	r	n/a
178.7435	0.09	357487	keystroke_i	i	n/a
178.9385	0.1345	357877	keystroke_a	a	n/a
179.088	0.09	358176	keystroke_t	t	n/a
179.238	0.1055	358476	keystroke_e	e	n/a
179.3285	0.165	358657	keystroke_Key.space	Key.space	n/a
179.4485	0.105	358897	keystroke_e	e	n/a
179.5385	0.135	359077	keystroke_m	m	n/a
179.703	0.165	359406	keystroke_a	a	n/a
179.8375	0.15	359675	keystroke_i	i	n/a
179.9425	0.1355	359885	keystroke_l	l	n/a
180.0925	0.1805	360185	keystroke_s	s	n/a
180.2125	0.166	360425	keystroke_Key.space	Key.space	n/a
180.3635	0.15	360727	keystroke_p	p	n/a
180.4985	0.105	360997	keystroke_u	u	n/a
180.813	0.105	361626	keystroke_p	p	n/a
181.0835	0.0905	362167	keystroke_i	i	n/a
181.2335	0.105	362467	keystroke_l	l	n/a
181.3835	0.12	362767	keystroke_s	s	n/a
181.5635	0.1045	363127	keystroke_Key.enter	Key.enter	n/a
181.675	9.4445	363350	prompt	n/a	rehabilitation trustees adware richardson\n
182.328	0.1505	364656	keystroke_r	r	n/a
182.4785	0.135	364957	keystroke_e	e	n/a
182.6735	0.12	365347	keystroke_h	h	n/a
182.8385	0.09	365677	keystroke_a	a	n/a
182.9735	0.105	365947	keystroke_b	b	n/a
184.7285	0.1195	369457	keystroke_i	i	n/a
184.863	0.195	369726	keystroke_l	l	n/a
185.043	0.1355	370086	keystroke_i	i	n/a
185.223	0.12	370446	keystroke_t	t	n/a
185.433	0.1505	370866	keystroke_a	a	n/a
185.5375	0.121	371075	keystroke_t	t	n/a
185.6725	0.1515	371345	keystroke_i	i	n/a
185.808	0.15	371616	keystroke_o	o	n/a
185.9285	0.105	371857	keystroke_n	n	n/a
186.003	0.1955	372006	keystroke_Key.space	Key.space	n/a
186.1385	0.105	372277	keystroke_t	t	n/a
186.3185	0.12	372637	keystroke_r	r	n/a
186.4685	0.15	372937	keystroke_u	u	n/a
186.6035	0.135	373207	keystroke_s	s	n/a
186.7535	0.09	373507	keystroke_t	t	n/a
186.9185	0.09	373837	keystroke_e	e	n/a
187.0835	0.105	374167	keystroke_e	e	n/a
187.2935	0.135	374587	keystroke_s	s	n/a
187.3985	0.1795	374797	keystroke_Key.space	Key.space	n/a
187.668	0.1355	375336	keystroke_a	a	n/a
187.8335	0.089	375667	keystroke_d	d	n/a
188.2835	0.135	376567	keystroke_w	w	n/a
188.464	0.1495	376928	keystroke_a	a	n/a
188.6275	0.1655	377255	keystroke_r	r	n/a
188.778	0.18	377556	keystroke_e	e	n/a
188.928	0.165	377856	keystroke_Key.space	Key.space	n/a
189.0635	0.12	378127	keystroke_r	r	n/a
189.168	0.1355	378336	keystroke_i	i	n/a
189.573	0.1205	379146	keystroke_c	c	n/a
189.738	0.1345	379476	keystroke_h	h	n/a
189.9185	0.165	379837	keystroke_a	a	n/a
190.0985	0.0605	380197	keystroke_r	r	n/a
190.2935	0.075	380587	keystroke_d	d	n/a
190.4885	0.12	380977	keystroke_s	s	n/a
190.6535	0.165	381307	keystroke_o	o	n/a
190.7735	0.12	381547	keystroke_n	n	n/a
190.9985	0.119	381997	keystroke_Key.enter	Key.enter	n/a
191.124	6.416	382248	prompt	n/a	lamps crucial distinct expert\n
191.718	0.1355	383436	keystroke_l	l	n/a
191.823	0.1805	383646	keystroke_a	a	n/a
191.958	0.12	383916	keystroke_m	m	n/a
192.138	0.135	384276	keystroke_p	p	n/a
192.288	0.12	384576	keystroke_s	s	n/a
192.378	0.15	384756	keystroke_Key.space	Key.space	n/a
192.543	0.105	385086	keystroke_c	c	n/a
192.6935	0.0895	385387	keystroke_u	u	n/a
193.353	0.075	386706	keystroke_Key.backspace	Key.backspace	n/a
193.488	0.0905	386976	keystroke_r	r	n/a
193.6385	0.0895	387277	keystroke_u	u	n/a
193.8035	0.119	387607	keystroke_c	c	n/a
193.998	0.1195	387996	keystroke_i	i	n/a
194.1635	0.134	388327	keystroke_a	a	n/a
194.2985	0.1045	388597	keystroke_l	l	n/a
194.448	0.1805	388896	keystroke_Key.space	Key.space	n/a
194.568	0.1355	389136	keystroke_d	d	n/a
194.7185	0.135	389437	keystroke_i	i	n/a
194.8385	0.165	389677	keystroke_s	s	n/a
195.1085	0.09	390217	keystroke_t	t	n/a
195.2735	0.18	390547	keystroke_i	i	n/a
195.378	0.1505	390756	keystroke_n	n	n/a
195.558	0.105	391116	keystroke_c	c	n/a
195.798	0.09	391596	keystroke_t	t	n/a
195.903	0.195	391806	keystroke_Key.space	Key.space	n/a
196.143	0.0905	392286	keystroke_e	e	n/a
196.368	0.12	392736	keystroke_x	x	n/a
196.608	0.1055	393216	keystroke_p	p	n/a
196.7435	0.1495	393487	keystroke_e	e	n/a
196.848	0.1205	393696	keystroke_r	r	n/a
197.193	0.06	394386	keystroke_t	t	n/a
197.433	0.1055	394866	keystroke_Key.enter	Key.enter	n/a
197.544	9.701	395088	prompt	n/a	supervisor transparency cisco countries\n
198.2735	0.12	396547	keystroke_s	s	n/a
198.3635	0.1345	396727	keystroke_u	u	n/a
198.5135	0.12	397027	keystroke_p	p	n/a
198.648	0.12	397296	keystroke_e	e	n/a
198.7385	0.1045	397477	keystroke_r	r	n/a
198.978	0.09	397956	keystroke_v	v	n/a
199.098	0.1205	398196	keystroke_i	i	n/a
199.248	0.1055	398496	keystroke_s	s	n/a
199.3835	0.1195	398767	keystroke_o	o	n/a
199.5185	0.09	399037	keystroke_r	r	n/a
199.6675	0.06	399335	keystroke_Key.space	Key.space	n/a
199.9385	0.075	399877	keystroke_t	t	n/a
200.3285	0.12	400657	keystroke_r	r	n/a
200.568	0.12	401136	keystroke_a	a	n/a
200.7335	0.1495	401467	keystroke_n	n	n/a
200.928	0.1355	401856	keystroke_s	s	n/a
201.138	0.1355	402276	keystroke_p	p	n/a
201.289	0.1645	402578	keystroke_a	a	n/a
201.468	0.105	402936	keystroke_r	r	n/a
201.648	0.1205	403296	keystroke_e	e	n/a
201.7685	0.12	403537	keystroke_n	n	n/a
201.918	0.1055	403836	keystroke_c	c	n/a
202.0835	0.09	404167	keystroke_y	y	n/a
202.2035	0.18	404407	keystroke_Key.space	Key.space	n/a
202.3985	0.1045	404797	keystroke_s	s	n/a
202.548	0.1355	405096	keystroke_i	i	n/a
202.9535	0.134	405907	keystroke_c	c	n/a
203.703	0.015	407406	keystroke_Key.backspace	Key.backspace	n/a
203.808	0.06	407616	keystroke_Key.backspace	Key.backspace	n/a
203.973	0.075	407946	keystroke_Key.backspace	Key.backspace	n/a
204.2135	0.105	408427	keystroke_c	c	n/a
204.3185	0.0745	408637	keystroke_i	i	n/a
204.454	0.119	408908	keystroke_s	s	n/a
204.873	0.09	409746	keystroke_c	c	n/a
205.248	0.1055	410496	keystroke_o	o	n/a
205.533	0.12	411066	keystroke_Key.space	Key.space	n/a
205.683	0.1355	411366	keystroke_c	c	n/a
205.8335	0.1495	411667	keystroke_o	o	n/a
205.908	0.1055	411816	keystroke_u	u	n/a
206.1185	0.075	412237	keystroke_n	n	n/a
206.2085	0.104	412417	keystroke_t	t	n/a
206.418	0.105	412836	keystroke_r	r	n/a
206.5835	0.149	413167	keystroke_i	i	n/a
206.7485	0.0445	413497	keystroke_e	e	n/a
206.943	0.1055	413886	keystroke_s	s	n/a
207.1075	0.135	414215	keystroke_Key.enter	Key.enter	n/a
207.2515	5.9635	414503	prompt	n/a	arguments adams debt finger\n
207.8875	0.1805	415775	keystroke_a	a	n/a
208.0235	0.1055	416047	keystroke_r	r	n/a
208.248	0.091	416496	keystroke_g	g	n/a
208.384	0.0895	416768	keystroke_u	u	n/a
208.5935	0.09	417187	keystroke_m	m	n/a
208.6985	0.135	417397	keystroke_e	e	n/a
208.803	0.0905	417606	keystroke_n	n	n/a
208.9085	0.09	417817	keystroke_t	t	n/a
209.088	0.1205	418176	keystroke_s	s	n/a
209.1785	0.1795	418357	keystroke_Key.space	Key.space	n/a
209.3285	0.1795	418657	keystroke_a	a	n/a
209.493	0.09	418986	keystroke_d	d	n/a
209.628	0.1505	419256	keystroke_a	a	n/a
209.7485	0.135	419497	keystroke_m	m	n/a
209.9135	0.135	419827	keystroke_s	s	n/a
210.0025	0.195	420005	keystroke_Key.space	Key.space	n/a
210.1235	0.1345	420247	keystroke_a	a	n/a
210.498	0.1055	420996	keystroke_Key.backspace	Key.backspace	n/a
210.7835	0.09	421567	keystroke_d	d	n/a
210.9785	0.0755	421957	keystroke_e	e	n/a
211.1885	0.09	422377	keystroke_b	b	n/a
211.4735	0.09	422947	keystroke_t	t	n/a
211.9835	0.1195	423967	keystroke_Key.space	Key.space	n/a
212.2085	0.09	424417	keystroke_f	f	n/a
212.283	0.1505	424566	keystroke_i	i	n/a
212.358	0.1655	424716	keystroke_n	n	n/a
212.6285	0.06	425257	keystroke_g	g	n/a
212.8085	0.075	425617	keystroke_e	e	n/a
212.8535	0.1205	425707	keystroke_r	r	n/a
213.1235	0.09	426247	keystroke_Key.enter	Key.enter	n/a
213.219	5.546	426438	prompt	n/a	lows addressed proxy puzzles\n
213.858	0.0755	427716	keystroke_l	l	n/a
214.0385	0.075	428077	keystroke_o	o	n/a
214.1585	0.135	428317	keystroke_w	w	n/a
214.5335	0.12	429067	keystroke_s	s	n/a
214.593	0.1655	429186	keystroke_Key.space	Key.space	n/a
214.759	0.179	429518	keystroke_a	a	n/a
214.8935	0.1045	429787	keystroke_d	d	n/a
215.058	0.12	430116	keystroke_d	d	n/a
215.314	0.12	430628	keystroke_r	r	n/a
215.435	0.1635	430870	keystroke_e	e	n/a
215.658	0.1055	431316	keystroke_s	s	n/a
215.8685	0.15	431737	keystroke_s	s	n/a
216.0035	0.075	432007	keystroke_e	e	n/a
216.2135	0.09	432427	keystroke_d	d	n/a
216.2875	0.166	432575	keystroke_Key.space	Key.space	n/a
216.4085	0.135	432817	keystroke_p	p	n/a
216.5585	0.105	433117	keystroke_r	r	n/a
216.6485	0.15	433297	keystroke_o	o	n/a
216.8585	0.119	433717	keystroke_x	x	n/a
217.0385	0.09	434077	keystroke_y	y	n/a
217.2185	0.12	434437	keystroke_Key.space	Key.space	n/a
217.3235	0.12	434647	keystroke_p	p	n/a
217.488	0.1055	434976	keystroke_u	u	n/a
217.833	0.1205	435666	keystroke_z	z	n/a
218.0285	0.09	436057	keystroke_z	z	n/a
218.133	0.12	436266	keystroke_l	l	n/a
218.268	0.0455	436536	keystroke_e	e	n/a
218.494	0.074	436988	keystroke_s	s	n/a
218.6585	0.1045	437317	keystroke_Key.enter	Key.enter	n/a
218.7685	7.0915	437537	prompt	n/a	tutorials standing attitudes convenient\n
219.468	0.12	438936	keystroke_t	t	n/a
219.603	0.12	439206	keystroke_u	u	n/a
219.6935	0.1505	439387	keystroke_t	t	n/a
219.888	0.12	439776	keystroke_o	o	n/a
220.054	0.134	440108	keystroke_r	r	n/a
220.2185	0.12	440437	keystroke_i	i	n/a
220.3835	0.12	440767	keystroke_a	a	n/a
220.4885	0.1205	440977	keystroke_l	l	n/a
220.6535	0.12	441307	keystroke_s	s	n/a
220.7585	0.165	441517	keystroke_Key.space	Key.space	n/a
220.9085	0.12	441817	keystroke_s	s	n/a
221.0585	0.075	442117	keystroke_t	t	n/a
221.1935	0.165	442387	keystroke_a	a	n/a
221.3135	0.09	442627	keystroke_n	n	n/a
221.464	0.0895	442928	keystroke_d	d	n/a
221.5685	0.15	443137	keystroke_i	i	n/a
221.6585	0.15	443317	keystroke_n	n	n/a
221.778	0.1055	443556	keystroke_g	g	n/a
221.8385	0.21	443677	keystroke_Key.space	Key.space	n/a
222.0035	0.1945	444007	keystroke_a	a	n/a
222.168	0.075	444336	keystroke_t	t	n/a
222.3185	0.0895	444637	keystroke_t	t	n/a
222.424	0.1195	444848	keystroke_i	i	n/a
222.5585	0.075	445117	keystroke_t	t	n/a
222.678	0.1205	445356	keystroke_u	u	n/a
223.039	0.0895	446078	keystroke_d	d	n/a
223.2185	0.075	446437	keystroke_e	e	n/a
223.4135	0.15	446827	keystroke_s	s	n/a
223.5485	0.15	447097	keystroke_Key.space	Key.space	n/a
223.6985	0.105	447397	keystroke_c	c	n/a
223.833	0.1355	447666	keystroke_o	o	n/a
223.9235	0.1505	447847	keystroke_n	n	n/a
224.2085	0.09	448417	keystroke_v	v	n/a
224.4035	0.075	448807	keystroke_e	e	n/a
224.944	0.029	449888	keystroke_n	n	n/a
225.1085	0.1195	450217	keystroke_i	i	n/a
225.243	0.1055	450486	keystroke_e	e	n/a
225.363	0.09	450726	keystroke_n	n	n/a
225.529	0.0745	451058	keystroke_t	t	n/a
225.7535	0.105	451507	keystroke_Key.enter	Key.enter	n/a
225.8645	6.3705	451729	prompt	n/a	morris wholesale hoped connection\n
226.4735	0.12	452947	keystroke_m	m	n/a
226.5945	0.149	453189	keystroke_o	o	n/a
226.7285	0.075	453457	keystroke_r	r	n/a
226.894	0.1195	453788	keystroke_r	r	n/a
226.9985	0.12	453997	keystroke_i	i	n/a
227.1335	0.135	454267	keystroke_s	s	n/a
227.6885	0.1195	455377	keystroke_Key.space	Key.space	n/a
227.8685	0.1355	455737	keystroke_w	w	n/a
227.9885	0.135	455977	keystroke_h	h	n/a
228.1085	0.09	456217	keystroke_o	o	n/a
228.3335	0.06	456667	keystroke_l	l	n/a
228.4085	0.15	456817	keystroke_e	e	n/a
228.813	0.1355	457626	keystroke_s	s	n/a
228.978	0.195	457956	keystroke_a	a	n/a
229.1435	0.105	458287	keystroke_l	l	n/a
229.2785	0.15	458557	keystroke_e	e	n/a
229.3835	0.164	458767	keystroke_Key.space	Key.space	n/a
229.5635	0.135	459127	keystroke_h	h	n/a
229.6835	0.195	459367	keystroke_o	o	n/a
229.8485	0.15	459697	keystroke_p	p	n/a
229.9835	0.12	459967	keystroke_e	e	n/a
230.2235	0.135	460447	keystroke_d	d	n/a
230.2985	0.165	460597	keystroke_Key.space	Key.space	n/a
230.629	0.134	461258	keystroke_c	c	n/a
230.733	0.195	461466	keystroke_o	o	n/a
230.869	0.104	461738	keystroke_n	n	n/a
231.0485	0.15	462097	keystroke_n	n	n/a
231.169	0.104	462338	keystroke_e	e	n/a
231.408	0.0755	462816	keystroke_c	c	n/a
231.603	0.06	463206	keystroke_t	t	n/a
231.7235	0.165	463447	keystroke_i	i	n/a
231.8135	0.18	463627	keystroke_o	o	n/a
231.9035	0.135	463807	keystroke_n	n	n/a
232.1135	0.12	464227	keystroke_Key.enter	Key.enter	n/a
232.2395	8.5155	464479	prompt	n/a	must entrepreneurs expenditure stress\n
232.713	0.0755	465426	keystroke_m	m	n/a
232.9085	0.06	465817	keystroke_u	u	n/a
232.9985	0.18	465997	keystroke_s	s	n/a
233.1635	0.119	466327	keystroke_t	t	n/a
233.2675	0.1805	466535	keystroke_Key.space	Key.space	n/a
233.4335	0.1195	466867	keystroke_e	e	n/a
233.568	0.1205	467136	keystroke_n	n	n/a
233.763	0.091	467526	keystroke_t	t	n/a
234.018	0.091	468036	keystroke_r	r	n/a
234.1535	0.1045	468307	keystroke_e	e	n/a
234.408	0.1505	468816	keystroke_p	p	n/a
234.723	0.105	469446	keystroke_r	r	n/a
234.888	0.135	469776	keystroke_e	e	n/a
235.1135	0.0895	470227	keystroke_n	n	n/a
235.413	0.135	470826	keystroke_e	e	n/a
235.608	0.1205	471216	keystroke_u	u	n/a
236.5385	0.12	473077	keystroke_r	r	n/a
236.808	0.1055	473616	keystroke_s	s	n/a
236.9875	0.151	473975	keystroke_Key.space	Key.space	n/a
237.1535	0.075	474307	keystroke_e	e	n/a
237.3635	0.105	474727	keystroke_x	x	n/a
237.5285	0.12	475057	keystroke_p	p	n/a
237.724	0.12	475448	keystroke_e	e	n/a
237.933	0.1055	475866	keystroke_n	n	n/a
238.1135	0.0905	476227	keystroke_d	d	n/a
238.233	0.1205	476466	keystroke_i	i	n/a
238.4135	0.075	476827	keystroke_t	t	n/a
238.608	0.1055	477216	keystroke_u	u	n/a
238.773	0.12	477546	keystroke_r	r	n/a
238.939	0.104	477878	keystroke_e	e	n/a
239.418	0.1055	478836	keystroke_Key.space	Key.space	n/a
239.6435	0.1045	479287	keystroke_s	s	n/a
239.808	0.0905	479616	keystroke_t	t	n/a
239.9725	0.135	479945	keystroke_r	r	n/a
240.1085	0.105	480217	keystroke_e	e	n/a
240.3025	0.0905	480605	keystroke_s	s	n/a
240.468	0.105	480936	keystroke_s	s	n/a
240.633	0.1205	481266	keystroke_Key.enter	Key.enter	n/a
240.759	7.211	481518	prompt	n/a	claimed households toll consult\n
241.3835	0.134	482767	keystroke_c	c	n/a
241.548	0.1205	483096	keystroke_l	l	n/a
241.6835	0.1645	483367	keystroke_a	a	n/a
241.849	0.0745	483698	keystroke_i	i	n/a
241.9985	0.105	483997	keystroke_m	m	n/a
242.118	0.106	484236	keystroke_e	e	n/a
242.328	0.1355	484656	keystroke_d	d	n/a
242.493	0.135	484986	keystroke_Key.space	Key.space	n/a
242.673	0.105	485346	keystroke_h	h	n/a
242.793	0.18	485586	keystroke_o	o	n/a
242.9435	0.1045	485887	keystroke_u	u	n/a
243.169	0.1495	486338	keystroke_s	s	n/a
243.288	0.1355	486576	keystroke_e	e	n/a
243.454	0.1195	486908	keystroke_h	h	n/a
243.5885	0.12	487177	keystroke_o	o	n/a
243.8435	0.06	487687	keystroke_l	l	n/a
243.919	0.1195	487838	keystroke_d	d	n/a
244.2185	0.1355	488437	keystroke_s	s	n/a
244.3385	0.2095	488677	keystroke_Key.space	Key.space	n/a
244.4885	0.12	488977	keystroke_t	t	n/a
244.639	0.1045	489278	keystroke_o	o	n/a
244.8335	0.06	489667	keystroke_l	l	n/a
244.9985	0.1055	489997	keystroke_l	l	n/a
245.104	0.1495	490208	keystroke_Key.space	Key.space	n/a
245.2385	0.105	490477	keystroke_c	c	n/a
245.3285	0.1795	490657	keystroke_o	o	n/a
245.4635	0.1495	490927	keystroke_n	n	n/a
245.628	0.166	491256	keystroke_s	s	n/a
245.7635	0.0905	491527	keystroke_t	t	n/a
245.914	0.15	491828	keystroke_u	u	n/a
246.078	0.0755	492156	keystroke_l	l	n/a
246.3475	0.046	492695	keystroke_Key.backspace	Key.backspace	n/a
246.4835	0.075	492967	keystroke_Key.backspace	Key.backspace	n/a
246.9935	0.059	493987	keystroke_u	u	n/a
247.1585	0.105	494317	keystroke_l	l	n/a
247.518	0.06	495036	keystroke_t	t	n/a
247.878	0.09	495756	keystroke_Key.enter	Key.enter	n/a
247.9745	6.7455	495949	prompt	n/a	rider asthma considering brighton\n
248.778	0.09	497556	keystroke_r	r	n/a
248.8835	0.1345	497767	keystroke_i	i	n/a
248.988	0.09	497976	keystroke_d	d	n/a
249.153	0.151	498306	keystroke_e	e	n/a
249.2885	0.135	498577	keystroke_r	r	n/a
249.4685	0.165	498937	keystroke_Key.space	Key.space	n/a
249.663	0.18	499326	keystroke_a	a	n/a
249.813	0.1055	499626	keystroke_s	s	n/a
250.039	0.074	500078	keystroke_t	t	n/a
250.084	0.1045	500168	keystroke_h	h	n/a
250.3235	0.09	500647	keystroke_m	m	n/a
250.5035	0.105	501007	keystroke_a	a	n/a
250.878	0.12	501756	keystroke_Key.space	Key.space	n/a
251.1035	0.1195	502207	keystroke_c	c	n/a
251.238	0.136	502476	keystroke_o	o	n/a
251.328	0.135	502656	keystroke_n	n	n/a
251.508	0.1055	503016	keystroke_s	s	n/a
251.6285	0.1345	503257	keystroke_i	i	n/a
251.779	0.059	503558	keystroke_d	d	n/a
251.973	0.091	503946	keystroke_e	e	n/a
252.033	0.106	504066	keystroke_r	r	n/a
252.213	0.1805	504426	keystroke_i	i	n/a
252.319	0.1495	504638	keystroke_n	n	n/a
252.4235	0.12	504847	keystroke_g	g	n/a
252.5285	0.15	505057	keystroke_Key.space	Key.space	n/a
253.4135	0.0595	506827	keystroke_b	b	n/a
253.6085	0.075	507217	keystroke_r	r	n/a
253.7435	0.12	507487	keystroke_i	i	n/a
253.9085	0.0755	507817	keystroke_g	g	n/a
253.9985	0.09	507997	keystroke_h	h	n/a
254.1035	0.075	508207	keystroke_t	t	n/a
254.2385	0.165	508477	keystroke_o	o	n/a
254.3585	0.105	508717	keystroke_n	n	n/a
254.6135	0.1045	509227	keystroke_Key.enter	Key.enter	n/a
254.7235	7.617	509447	prompt	n/a	annex disclosure messaging mary\n
255.3335	0.1645	510667	keystroke_a	a	n/a
255.424	0.09	510848	keystroke_n	n	n/a
255.604	0.074	511208	keystroke_n	n	n/a
255.6935	0.0905	511387	keystroke_e	e	n/a
255.9185	0.1055	511837	keystroke_x	x	n/a
256.0075	0.18	512015	keystroke_Key.space	Key.space	n/a
256.1725	0.091	512345	keystroke_d	d	n/a
256.2935	0.135	512587	keystroke_i	i	n/a
256.4435	0.105	512887	keystroke_s	s	n/a
256.6535	0.105	513307	keystroke_c	c	n/a
256.8635	0.1055	513727	keystroke_l	l	n/a
257.0435	0.105	514087	keystroke_o	o	n/a
257.5085	0.135	515017	keystroke_s	s	n/a
257.778	0.1355	515556	keystroke_u	u	n/a
257.9285	0.1195	515857	keystroke_r	r	n/a
258.0935	0.1495	516187	keystroke_e	e	n/a
258.228	0.1655	516456	keystroke_Key.space	Key.space	n/a
258.3485	0.15	516697	keystroke_m	m	n/a
258.484	0.105	516968	keystroke_e	e	n/a
258.648	0.121	517296	keystroke_s	s	n/a
258.858	0.091	517716	keystroke_s	s	n/a
259.0075	0.151	518015	keystroke_a	a	n/a
259.1285	0.105	518257	keystroke_g	g	n/a
259.2935	0.1805	518587	keystroke_i	i	n/a
259.429	0.119	518858	keystroke_n	n	n/a
259.564	0.15	519128	keystroke_g	g	n/a
259.6685	0.15	519337	keystroke_Key.space	Key.space	n/a
259.954	0.1495	519908	keystroke_a	a	n/a
260.0735	0.105	520147	keystroke_r	r	n/a
260.2085	0.09	520417	keystroke_y	y	n/a
261.0635	0.075	522127	keystroke_Key.backspace	Key.backspace	n/a
261.2285	0.075	522457	keystroke_Key.backspace	Key.backspace	n/a
261.3935	0.06	522787	keystroke_Key.backspace	Key.backspace	n/a
261.6035	0.06	523207	keystroke_m	m	n/a
261.7535	0.1645	523507	keystroke_a	a	n/a
261.888	0.1055	523776	keystroke_r	r	n/a
262.0085	0.0745	524017	keystroke_y	y	n/a
262.2035	0.135	524407	keystroke_Key.enter	Key.enter	n/a
262.3445	6.9855	524689	prompt	n/a	miscellaneous industrial cloth eleven\n
263.0135	0.105	526027	keystroke_m	m	n/a
263.164	0.1195	526328	keystroke_i	i	n/a
263.2985	0.105	526597	keystroke_s	s	n/a
263.4935	0.09	526987	keystroke_c	c	n/a
263.689	0.074	527378	keystroke_e	e	n/a
263.7935	0.0455	527587	keystroke_l	l	n/a
263.9435	0.105	527887	keystroke_l	l	n/a
264.0935	0.15	528187	keystroke_a	a	n/a
264.2285	0.1195	528457	keystroke_n	n	n/a
264.4085	0.0895	528817	keystroke_e	e	n/a
264.6035	0.1795	529207	keystroke_o	o	n/a
264.7235	0.1195	529447	keystroke_u	u	n/a
264.873	0.15	529746	keystroke_s	s	n/a
264.978	0.15	529956	keystroke_Key.space	Key.space	n/a
265.144	0.18	530288	keystroke_i	i	n/a
265.2485	0.1505	530497	keystroke_n	n	n/a
265.519	0.1195	531038	keystroke_d	d	n/a
265.6535	0.1055	531307	keystroke_u	u	n/a
265.8185	0.105	531637	keystroke_s	s	n/a
266.0435	0.075	532087	keystroke_t	t	n/a
266.1935	0.061	532387	keystroke_r	r	n/a
266.343	0.105	532686	keystroke_i	i	n/a
266.478	0.136	532956	keystroke_a	a	n/a
266.614	0.0895	533228	keystroke_l	l	n/a
266.7635	0.1945	533527	keystroke_Key.space	Key.space	n/a
266.9285	0.12	533857	keystroke_c	c	n/a
267.0635	0.075	534127	keystroke_l	l	n/a
267.2135	0.105	534427	keystroke_o	o	n/a
267.3785	0.09	534757	keystroke_t	t	n/a
267.499	0.104	534998	keystroke_h	h	n/a
267.753	0.135	535506	keystroke_Key.space	Key.space	n/a
267.9485	0.105	535897	keystroke_e	e	n/a
268.0835	0.105	536167	keystroke_l	l	n/a
268.204	0.0745	536408	keystroke_e	e	n/a
268.489	0.059	536978	keystroke_v	v	n/a
268.7285	0.0745	537457	keystroke_e	e	n/a
268.969	0.075	537938	keystroke_n	n	n/a
269.208	0.12	538416	keystroke_Key.enter	Key.enter	n/a
269.334	5.576	538668	prompt	n/a	haiti salem weeks brought\n
270.123	0.1205	540246	keystroke_h	h	n/a
270.2885	0.1195	540577	keystroke_a	a	n/a
270.393	0.135	540786	keystroke_i	i	n/a
270.618	0.0755	541236	keystroke_t	t	n/a
270.7835	0.1205	541567	keystroke_i	i	n/a
270.9335	0.15	541867	keystroke_Key.space	Key.space	n/a
271.0985	0.135	542197	keystroke_s	s	n/a
271.3235	0.15	542647	keystroke_a	a	n/a
271.5335	0.135	543067	keystroke_l	l	n/a
271.7735	0.0905	543547	keystroke_e	e	n/a
271.9835	0.105	543967	keystroke_m	m	n/a
272.1035	0.135	544207	keystroke_Key.space	Key.space	n/a
272.463	0.03	544926	keystroke_w	w	n/a
272.478	0.09	544956	keystroke_e	e	n/a
272.643	0.09	545286	keystroke_e	e	n/a
272.823	0.1055	545646	keystroke_k	k	n/a
272.944	0.1195	545888	keystroke_s	s	n/a
273.0335	0.2095	546067	keystroke_Key.space	Key.space	n/a
273.2285	0.075	546457	keystroke_b	b	n/a
273.4085	0.075	546817	keystroke_r	r	n/a
273.5435	0.2245	547087	keystroke_o	o	n/a
273.709	0.119	547418	keystroke_u	u	n/a
273.9935	0.105	547987	keystroke_g	g	n/a
274.2035	0.105	548407	keystroke_h	h	n/a
274.384	0.0595	548768	keystroke_t	t	n/a
274.7735	0.135	549547	keystroke_Key.enter	Key.enter	n/a
274.9175	4.0725	549835	prompt	n/a	soul sony meter rage\n
275.884	0.1795	551768	keystroke_s	s	n/a
276.0185	0.18	552037	keystroke_o	o	n/a
276.1685	0.1055	552337	keystroke_u	u	n/a
276.3485	0.12	552697	keystroke_l	l	n/a
276.4835	0.15	552967	keystroke_Key.space	Key.space	n/a
276.6035	0.135	553207	keystroke_s	s	n/a
276.7235	0.15	553447	keystroke_o	o	n/a
276.8435	0.09	553687	keystroke_n	n	n/a
277.083	0.076	554166	keystroke_y	y	n/a
277.2175	0.1205	554435	keystroke_Key.space	Key.space	n/a
277.3985	0.1195	554797	keystroke_m	m	n/a
277.503	0.12	555006	keystroke_e	e	n/a
277.668	0.091	555336	keystroke_t	t	n/a
277.849	0.119	555698	keystroke_e	e	n/a
277.9235	0.15	555847	keystroke_r	r	n/a
278.028	0.195	556056	keystroke_Key.space	Key.space	n/a
278.194	0.1195	556388	keystroke_r	r	n/a
278.343	0.165	556686	keystroke_a	a	n/a
278.553	0.045	557106	keystroke_g	g	n/a
278.673	0.076	557346	keystroke_e	e	n/a
278.8835	0.105	557767	keystroke_Key.enter	Key.enter	n/a
278.9955	11.1245	557991	prompt	n/a	computers investigate what's northwest\n
279.724	0.135	559448	keystroke_c	c	n/a
279.8435	0.1655	559687	keystroke_o	o	n/a
279.9635	0.134	559927	keystroke_m	m	n/a
280.144	0.1795	560288	keystroke_p	p	n/a
280.3085	0.105	560617	keystroke_u	u	n/a
280.429	0.0895	560858	keystroke_t	t	n/a
280.5935	0.165	561187	keystroke_e	e	n/a
280.699	0.12	561398	keystroke_r	r	n/a
280.938	0.12	561876	keystroke_s	s	n/a
281.0435	0.1345	562087	keystroke_Key.space	Key.space	n/a
281.194	0.149	562388	keystroke_i	i	n/a
281.2985	0.15	562597	keystroke_n	n	n/a
281.719	0.09	563438	keystroke_v	v	n/a
281.9135	0.12	563827	keystroke_e	e	n/a
282.0785	0.165	564157	keystroke_s	s	n/a
282.2285	0.1055	564457	keystroke_t	t	n/a
282.379	0.1495	564758	keystroke_i	i	n/a
282.5585	0.06	565117	keystroke_v	v	n/a
282.9185	0.1205	565837	keystroke_g	g	n/a
283.1135	0.15	566227	keystroke_a	a	n/a
283.3085	0.075	566617	keystroke_t	t	n/a
283.5635	0.105	567127	keystroke_e	e	n/a
283.818	0.105	567636	keystroke_Key.space	Key.space	n/a
284.0135	0.135	568027	keystroke_w	w	n/a
284.133	0.1205	568266	keystroke_h	h	n/a
284.238	0.091	568476	keystroke_o	o	n/a
284.763	0.0605	569526	keystroke_Key.backspace	Key.backspace	n/a
285.048	0.12	570096	keystroke_a	a	n/a
285.213	0.075	570426	keystroke_t	t	n/a
285.409	0.1045	570818	keystroke_'	'	n/a
285.589	0.105	571178	keystroke_s	s	n/a
286.0385	0.105	572077	keystroke_Key.space	Key.space	n/a
286.1885	0.06	572377	keystroke_m	m	n/a
286.7435	0.075	573487	keystroke_Key.backspace	Key.backspace	n/a
287.0735	0.09	574147	keystroke_o	o	n/a
287.6885	0.06	575377	keystroke_Key.backspace	Key.backspace	n/a
287.9135	0.075	575827	keystroke_n	n	n/a
288.0485	0.09	576097	keystroke_o	o	n/a
288.1985	0.09	576397	keystroke_r	r	n/a
288.394	0.089	576788	keystroke_t	t	n/a
288.498	0.12	576996	keystroke_h	h	n/a
288.828	0.165	577656	keystroke_w	w	n/a
288.963	0.136	577926	keystroke_e	e	n/a
289.489	0.104	578978	keystroke_s	s	n/a
289.743	0.0605	579486	keystroke_t	t	n/a
290.0135	0.1045	580027	keystroke_Key.enter	Key.enter	n/a
290.1255	7.1345	580251	prompt	n/a	attempting packaging deserve saver\n
290.7635	0.165	581527	keystroke_a	a	n/a
290.9135	0.09	581827	keystroke_t	t	n/a
291.0935	0.09	582187	keystroke_t	t	n/a
291.2585	0.1045	582517	keystroke_e	e	n/a
291.378	0.1055	582756	keystroke_m	m	n/a
291.5435	0.1055	583087	keystroke_p	p	n/a
291.6935	0.09	583387	keystroke_t	t	n/a
291.813	0.1355	583626	keystroke_i	i	n/a
291.9035	0.135	583807	keystroke_n	n	n/a
292.0235	0.12	584047	keystroke_g	g	n/a
292.0985	0.195	584197	keystroke_Key.space	Key.space	n/a
292.2635	0.135	584527	keystroke_p	p	n/a
292.443	0.1655	584886	keystroke_a	a	n/a
292.8935	0.15	585787	keystroke_c	c	n/a
293.254	0.1045	586508	keystroke_k	k	n/a
293.4335	0.135	586867	keystroke_a	a	n/a
293.5985	0.09	587197	keystroke_g	g	n/a
293.749	0.179	587498	keystroke_i	i	n/a
293.8685	0.12	587737	keystroke_n	n	n/a
294.0935	0.075	588187	keystroke_g	g	n/a
294.4535	0.165	588907	keystroke_Key.space	Key.space	n/a
294.708	0.105	589416	keystroke_d	d	n/a
294.874	0.1345	589748	keystroke_e	e	n/a
295.0685	0.195	590137	keystroke_s	s	n/a
295.2185	0.1805	590437	keystroke_e	e	n/a
295.3685	0.09	590737	keystroke_r	r	n/a
295.5785	0.0905	591157	keystroke_v	v	n/a
295.774	0.1195	591548	keystroke_e	e	n/a
295.8785	0.15	591757	keystroke_Key.space	Key.space	n/a
296.149	0.1345	592298	keystroke_s	s	n/a
296.358	0.1505	592716	keystroke_a	a	n/a
296.5535	0.0905	593107	keystroke_v	v	n/a
296.7635	0.1205	593527	keystroke_e	e	n/a
296.8535	0.105	593707	keystroke_r	r	n/a
297.1385	0.12	594277	keystroke_Key.enter	Key.enter	n/a
297.2645	5.4105	594529	prompt	n/a	good calvin erotica flower\n
297.9485	0.105	595897	keystroke_g	g	n/a
298.068	0.0455	596136	keystroke_o	o	n/a
298.203	0.1505	596406	keystroke_o	o	n/a
298.309	0.1195	596618	keystroke_d	d	n/a
298.3985	0.2095	596797	keystroke_Key.space	Key.space	n/a
298.579	0.1345	597158	keystroke_c	c	n/a
298.758	0.181	597516	keystroke_a	a	n/a
298.953	0.0905	597906	keystroke_l	l	n/a
299.149	0.0745	598298	keystroke_b	b	n/a
299.2685	0.195	598537	keystroke_i	i	n/a
299.4185	0.135	598837	keystroke_n	n	n/a
299.5985	0.1495	599197	keystroke_Key.space	Key.space	n/a
299.824	0.1645	599648	keystroke_e	e	n/a
299.9435	0.12	599887	keystroke_r	r	n/a
300.0935	0.12	600187	keystroke_o	o	n/a
300.289	0.0895	600578	keystroke_t	t	n/a
300.4085	0.135	600817	keystroke_i	i	n/a
300.5735	0.09	601147	keystroke_c	c	n/a
300.798	0.1505	601596	keystroke_a	a	n/a
301.008	0.12	602016	keystroke_Key.space	Key.space	n/a
301.234	0.0745	602468	keystroke_c	c	n/a
301.6235	0.0745	603247	keystroke_Key.backspace	Key.backspace	n/a
301.7585	0.12	603517	keystroke_f	f	n/a
301.9085	0.075	603817	keystroke_l	l	n/a
302.103	0.075	604206	keystroke_o	o	n/a
302.224	0.1495	604448	keystroke_w	w	n/a
302.314	0.12	604628	keystroke_e	e	n/a
302.388	0.105	604776	keystroke_r	r	n/a
302.5835	0.0895	605167	keystroke_Key.enter	Key.enter	n/a
302.6785	5.8615	605357	prompt	n/a	spyware bound dental airport\n
303.5735	0.1195	607147	keystroke_s	s	n/a
303.678	0.1205	607356	keystroke_p	p	n/a
303.8735	0.0895	607747	keystroke_y	y	n/a
304.189	0.12	608378	keystroke_w	w	n/a
304.3675	0.166	608735	keystroke_a	a	n/a
304.5035	0.12	609007	keystroke_r	r	n/a
304.6685	0.105	609337	keystroke_e	e	n/a
304.8935	0.165	609787	keystroke_Key.space	Key.space	n/a
305.0135	0.105	610027	keystroke_b	b	n/a
305.1785	0.195	610357	keystroke_o	o	n/a
305.299	0.1045	610598	keystroke_u	u	n/a
305.5085	0.09	611017	keystroke_n	n	n/a
305.643	0.151	611286	keystroke_d	d	n/a
305.7635	0.1495	611527	keystroke_Key.space	Key.space	n/a
305.959	0.0895	611918	keystroke_d	d	n/a
306.123	0.09	612246	keystroke_e	e	n/a
306.258	0.121	612516	keystroke_n	n	n/a
306.409	0.089	612818	keystroke_t	t	n/a
306.6035	0.1355	613207	keystroke_a	a	n/a
306.7535	0.0745	613507	keystroke_l	l	n/a
306.844	0.164	613688	keystroke_Key.space	Key.space	n/a
307.024	0.15	614048	keystroke_a	a	n/a
307.143	0.1655	614286	keystroke_i	i	n/a
307.2935	0.0905	614587	keystroke_r	r	n/a
307.459	0.1495	614918	keystroke_p	p	n/a
307.594	0.2245	615188	keystroke_o	o	n/a
307.954	0.1045	615908	keystroke_r	r	n/a
308.1635	0.075	616327	keystroke_t	t	n/a
308.4185	0.12	616837	keystroke_Key.enter	Key.enter	n/a
308.544	8.171	617088	prompt	n/a	transferred encryption characters jamie\n
309.2585	0.075	618517	keystroke_t	t	n/a
309.4235	0.0755	618847	keystroke_r	r	n/a
309.544	0.1495	619088	keystroke_a	a	n/a
309.634	0.1195	619268	keystroke_n	n	n/a
309.7985	0.105	619597	keystroke_s	s	n/a
310.0985	0.09	620197	keystroke_f	f	n/a
310.3085	0.1205	620617	keystroke_e	e	n/a
310.384	0.1195	620768	keystroke_r	r	n/a
310.6085	0.12	621217	keystroke_r	r	n/a
310.7435	0.0905	621487	keystroke_e	e	n/a
310.9675	0.1065	621935	keystroke_d	d	n/a
311.0875	0.151	622175	keystroke_Key.space	Key.space	n/a
311.2385	0.1205	622477	keystroke_e	e	n/a
311.4485	0.1205	622897	keystroke_n	n	n/a
311.6135	0.0445	623227	keystroke_f	f	n/a
311.958	0.075	623916	keystroke_Key.backspace	Key.backspace	n/a
312.034	0.089	624068	keystroke_c	c	n/a
312.229	0.059	624458	keystroke_r	r	n/a
312.304	0.1045	624608	keystroke_y	y	n/a
312.514	0.1045	625028	keystroke_p	p	n/a
312.933	0.09	625866	keystroke_t	t	n/a
313.083	0.135	626166	keystroke_i	i	n/a
313.2035	0.18	626407	keystroke_o	o	n/a
313.339	0.105	626678	keystroke_n	n	n/a
313.728	0.1205	627456	keystroke_Key.space	Key.space	n/a
313.939	0.1345	627878	keystroke_c	c	n/a
314.074	0.135	628148	keystroke_h	h	n/a
314.1935	0.18	628387	keystroke_a	a	n/a
314.3585	0.09	628717	keystroke_r	r	n/a
314.554	0.1195	629108	keystroke_a	a	n/a
314.7035	0.105	629407	keystroke_c	c	n/a
315.0035	0.0455	630007	keystroke_t	t	n/a
315.168	0.121	630336	keystroke_e	e	n/a
315.244	0.119	630488	keystroke_r	r	n/a
315.4985	0.1205	630997	keystroke_s	s	n/a
315.6035	0.1195	631207	keystroke_Key.space	Key.space	n/a
315.828	0.105	631656	keystroke_j	j	n/a
315.9485	0.1345	631897	keystroke_a	a	n/a
316.099	0.0895	632198	keystroke_m	m	n/a
316.293	0.076	632586	keystroke_i	i	n/a
316.428	0.06	632856	keystroke_e	e	n/a
316.623	0.09	633246	keystroke_Key.enter	Key.enter	n/a
316.719	7.6515	633438	prompt	n/a	there recruitment investigators rebates\n
317.284	0.105	634568	keystroke_t	t	n/a
317.4335	0.075	634867	keystroke_h	h	n/a
317.5235	0.1195	635047	keystroke_e	e	n/a
317.598	0.1655	635196	keystroke_r	r	n/a
317.779	0.1195	635558	keystroke_e	e	n/a
317.853	0.09	635706	keystroke_Key.space	Key.space	n/a
318.5585	0.015	637117	keystroke_r	r	n/a
318.618	0.0755	637236	keystroke_e	e	n/a
318.828	0.09	637656	keystroke_c	c	n/a
319.069	0.0445	638138	keystroke_r	r	n/a
319.189	0.12	638378	keystroke_u	u	n/a
319.369	0.119	638738	keystroke_i	i	n/a
319.503	0.0755	639006	keystroke_t	t	n/a
319.6535	0.075	639307	keystroke_m	m	n/a
319.7585	0.1205	639517	keystroke_e	e	n/a
319.864	0.06	639728	keystroke_n	n	n/a
320.0285	0.0905	640057	keystroke_t	t	n/a
320.0885	0.1345	640177	keystroke_Key.space	Key.space	n/a
320.2385	0.1795	640477	keystroke_i	i	n/a
320.344	0.1495	640688	keystroke_n	n	n/a
320.6135	0.09	641227	keystroke_v	v	n/a
320.809	0.12	641618	keystroke_e	e	n/a
320.944	0.209	641888	keystroke_s	s	n/a
321.138	0.091	642276	keystroke_t	t	n/a
321.2735	0.1505	642547	keystroke_i	i	n/a
321.813	0.121	643626	keystroke_g	g	n/a
322.069	0.12	644138	keystroke_a	a	n/a
322.219	0.059	644438	keystroke_t	t	n/a
322.3835	0.12	644767	keystroke_o	o	n/a
322.489	0.0895	644978	keystroke_r	r	n/a
322.7435	0.1355	645487	keystroke_s	s	n/a
322.8335	0.1945	645667	keystroke_Key.space	Key.space	n/a
323.014	0.119	646028	keystroke_r	r	n/a
323.149	0.105	646298	keystroke_e	e	n/a
323.3735	0.09	646747	keystroke_b	b	n/a
323.5535	0.15	647107	keystroke_a	a	n/a
323.734	0.0745	647468	keystroke_t	t	n/a
323.913	0.09	647826	keystroke_e	e	n/a
324.033	0.1355	648066	keystroke_s	s	n/a
324.2435	0.12	648487	keystroke_Key.enter	Key.enter	n/a
324.3705	5.935	648741	prompt	n/a	scale bases laboratories preston\n
324.9635	0.1055	649927	keystroke_s	s	n/a
325.1435	0.105	650287	keystroke_c	c	n/a
325.2935	0.15	650587	keystroke_a	a	n/a
325.4585	0.12	650917	keystroke_l	l	n/a
325.624	0.1195	651248	keystroke_e	e	n/a
325.729	0.164	651458	keystroke_Key.space	Key.space	n/a
325.8785	0.0905	651757	keystroke_b	b	n/a
326.0435	0.1945	652087	keystroke_a	a	n/a
326.223	0.165	652446	keystroke_s	s	n/a
326.359	0.134	652718	keystroke_e	e	n/a
326.539	0.1345	653078	keystroke_s	s	n/a
326.6585	0.135	653317	keystroke_Key.space	Key.space	n/a
326.869	0.1645	653738	keystroke_l	l	n/a
327.019	0.1045	654038	keystroke_a	a	n/a
327.154	0.1045	654308	keystroke_b	b	n/a
327.3185	0.15	654637	keystroke_o	o	n/a
327.4835	0.06	654967	keystroke_r	r	n/a
327.6935	0.1045	655387	keystroke_a	a	n/a
327.859	0.09	655718	keystroke_t	t	n/a
328.0235	0.09	656047	keystroke_o	o	n/a
328.1285	0.12	656257	keystroke_r	r	n/a
328.309	0.135	656618	keystroke_i	i	n/a
328.429	0.0745	656858	keystroke_e	e	n/a
328.609	0.1345	657218	keystroke_s	s	n/a
328.6985	0.1355	657397	keystroke_Key.space	Key.space	n/a
328.909	0.105	657818	keystroke_p	p	n/a
329.1335	0.12	658267	keystroke_r	r	n/a
329.2685	0.135	658537	keystroke_e	e	n/a
329.5085	0.1205	659017	keystroke_s	s	n/a
329.734	0.075	659468	keystroke_t	t	n/a
329.869	0.179	659738	keystroke_o	o	n/a
329.989	0.12	659978	keystroke_n	n	n/a
330.214	0.09	660428	keystroke_Key.enter	Key.enter	n/a
330.31	7	660620	prompt	n/a	trials substantially sticks phillips\n
330.8735	0.0905	661747	keystroke_t	t	n/a
331.054	0.12	662108	keystroke_r	r	n/a
331.189	0.104	662378	keystroke_i	i	n/a
331.323	0.1355	662646	keystroke_a	a	n/a
331.429	0.1195	662858	keystroke_l	l	n/a
331.579	0.1345	663158	keystroke_s	s	n/a
331.6835	0.165	663367	keystroke_Key.space	Key.space	n/a
331.864	0.1195	663728	keystroke_s	s	n/a
332.014	0.1045	664028	keystroke_u	u	n/a
332.1335	0.105	664267	keystroke_b	b	n/a
332.388	0.075	664776	keystroke_s	s	n/a
332.524	0.105	665048	keystroke_t	t	n/a
332.733	0.135	665466	keystroke_a	a	n/a
332.929	0.014	665858	keystroke_n	n	n/a
333.318	0.0455	666636	keystroke_t	t	n/a
333.5595	0.089	667119	keystroke_i	i	n/a
333.768	0.135	667536	keystroke_a	a	n/a
333.873	0.0605	667746	keystroke_l	l	n/a
334.0235	0.0905	668047	keystroke_l	l	n/a
334.249	0.075	668498	keystroke_y	y	n/a
334.6985	0.12	669397	keystroke_Key.space	Key.space	n/a
334.864	0.12	669728	keystroke_s	s	n/a
335.0885	0.09	670177	keystroke_t	t	n/a
335.2085	0.1055	670417	keystroke_i	i	n/a
335.3735	0.1055	670747	keystroke_c	c	n/a
335.4795	0.104	670959	keystroke_k	k	n/a
335.6585	0.15	671317	keystroke_s	s	n/a
335.8535	0.135	671707	keystroke_Key.space	Key.space	n/a
336.004	0.12	672008	keystroke_p	p	n/a
336.1535	0.1055	672307	keystroke_h	h	n/a
336.289	0.164	672578	keystroke_i	i	n/a
336.424	0.164	672848	keystroke_l	l	n/a
336.558	0.12	673116	keystroke_i	i	n/a
336.798	0.091	673596	keystroke_p	p	n/a
337.008	0.09	674016	keystroke_s	s	n/a
337.203	0.105	674406	keystroke_Key.enter	Key.enter	n/a
337.313	6.147	674626	prompt	n/a	force renewable their casa\n
337.983	0.0905	675966	keystroke_f	f	n/a
338.088	0.1205	676176	keystroke_o	o	n/a
338.2085	0.075	676417	keystroke_r	r	n/a
338.434	0.075	676868	keystroke_c	c	n/a
338.614	0.119	677228	keystroke_e	e	n/a
338.7935	0.195	677587	keystroke_Key.space	Key.space	n/a
338.974	0.1345	677948	keystroke_r	r	n/a
339.094	0.135	678188	keystroke_e	e	n/a
339.2435	0.1055	678487	keystroke_n	n	n/a
339.3635	0.1055	678727	keystroke_e	e	n/a
339.5735	0.15	679147	keystroke_w	w	n/a
339.9335	0.135	679867	keystroke_a	a	n/a
340.159	0.0895	680318	keystroke_b	b	n/a
340.3385	0.1355	680677	keystroke_l	l	n/a
340.429	0.1345	680858	keystroke_e	e	n/a
340.4885	0.21	680977	keystroke_Key.space	Key.space	n/a
340.624	0.1195	681248	keystroke_t	t	n/a
340.759	0.105	681518	keystroke_h	h	n/a
340.8785	0.1355	681757	keystroke_e	e	n/a
341.0285	0.105	682057	keystroke_i	i	n/a
341.1485	0.1505	682297	keystroke_r	r	n/a
341.269	0.12	682538	keystroke_Key.space	Key.space	n/a
341.583	0.06	683166	keystroke_s	s	n/a
341.8985	0.0755	683797	keystroke_Key.backspace	Key.backspace	n/a
341.9885	0.136	683977	keystroke_c	c	n/a
342.184	0.1345	684368	keystroke_a	a	n/a
342.3035	0.15	684607	keystroke_s	s	n/a
342.619	0.075	685238	keystroke_s	s	n/a
343.039	0.09	686078	keystroke_Key.backspace	Key.backspace	n/a
343.174	0.105	686348	keystroke_a	a	n/a
343.339	0.119	686678	keystroke_Key.enter	Key.enter	n/a
343.4635	7.4665	686927	prompt	n/a	filme nine gonna amongst\n
344.419	0.12	688838	keystroke_f	f	n/a
344.6735	0.165	689347	keystroke_i	i	n/a
344.8235	0.105	689647	keystroke_l	l	n/a
345.0785	0.075	690157	keystroke_m	m	n/a
345.214	0.15	690428	keystroke_e	e	n/a
345.333	0.181	690666	keystroke_Key.space	Key.space	n/a
345.529	0.12	691058	keystroke_n	n	n/a
345.665	0.149	691330	keystroke_o	o	n/a
345.919	0.12	691838	keystroke_n	n	n/a
346.668	0.075	693336	keystroke_Key.backspace	Key.backspace	n/a
346.818	0.075	693636	keystroke_Key.backspace	Key.backspace	n/a
347.2535	0.0905	694507	keystroke_i	i	n/a
347.4785	0.09	694957	keystroke_n	n	n/a
347.6735	0.1055	695347	keystroke_e	e	n/a
347.853	0.15	695706	keystroke_Key.space	Key.space	n/a
348.124	0.0895	696248	keystroke_g	g	n/a
348.2285	0.135	696457	keystroke_o	o	n/a
348.334	0.075	696668	keystroke_n	n	n/a
348.4985	0.091	696997	keystroke_n	n	n/a
348.649	0.1655	697298	keystroke_a	a	n/a
348.7535	0.15	697507	keystroke_Key.space	Key.space	n/a
349.2935	0.15	698587	keystroke_a	a	n/a
349.4285	0.135	698857	keystroke_m	m	n/a
349.6235	0.135	699247	keystroke_o	o	n/a
349.8035	0.0905	699607	keystroke_n	n	n/a
350.1935	0.1055	700387	keystroke_g	g	n/a
350.464	0.135	700928	keystroke_s	s	n/a
350.5685	0.075	701137	keystroke_t	t	n/a
350.8235	0.105	701647	keystroke_Key.enter	Key.enter	n/a
350.942	7.3985	701884	prompt	n/a	yard separate england confidence\n
351.7235	0.105	703447	keystroke_y	y	n/a
352.0235	0.1505	704047	keystroke_a	a	n/a
352.2035	0.09	704407	keystroke_r	r	n/a
352.4285	0.1205	704857	keystroke_d	d	n/a
352.5335	0.21	705067	keystroke_Key.space	Key.space	n/a
352.729	0.18	705458	keystroke_s	s	n/a
352.894	0.1045	705788	keystroke_e	e	n/a
353.6135	0.105	707227	keystroke_p	p	n/a
353.7935	0.15	707587	keystroke_a	a	n/a
354.004	0.119	708008	keystroke_r	r	n/a
354.183	0.135	708366	keystroke_a	a	n/a
354.3035	0.0905	708607	keystroke_t	t	n/a
354.483	0.1205	708966	keystroke_e	e	n/a
354.604	0.134	709208	keystroke_Key.space	Key.space	n/a
354.7235	0.1045	709447	keystroke_e	e	n/a
354.829	0.12	709658	keystroke_n	n	n/a
355.024	0.089	710048	keystroke_g	g	n/a
355.174	0.1495	710348	keystroke_l	l	n/a
355.339	0.1495	710678	keystroke_a	a	n/a
355.4585	0.1205	710917	keystroke_n	n	n/a
355.639	0.1195	711278	keystroke_d	d	n/a
355.729	0.1495	711458	keystroke_Key.space	Key.space	n/a
355.924	0.1195	711848	keystroke_c	c	n/a
356.0735	0.165	712147	keystroke_o	o	n/a
356.1785	0.135	712357	keystroke_n	n	n/a
356.374	0.0905	712748	keystroke_f	f	n/a
356.5245	0.1335	713049	keystroke_i	i	n/a
356.884	0.0895	713768	keystroke_d	d	n/a
357.5435	0.075	715087	keystroke_e	e	n/a
357.6485	0.1205	715297	keystroke_n	n	n/a
357.829	0.074	715658	keystroke_c	c	n/a
358.023	0.0605	716046	keystroke_e	e	n/a
358.233	0.105	716466	keystroke_Key.enter	Key.enter	n/a
358.345	6.5805	716690	prompt	n/a	entering forecasts see wikipedia\n
358.9835	0.12	717967	keystroke_e	e	n/a
359.0735	0.1655	718147	keystroke_n	n	n/a
359.284	0.075	718568	keystroke_t	t	n/a
359.479	0.105	718958	keystroke_e	e	n/a
359.539	0.1495	719078	keystroke_r	r	n/a
359.7335	0.165	719467	keystroke_i	i	n/a
359.869	0.135	719738	keystroke_n	n	n/a
359.989	0.0895	719978	keystroke_g	g	n/a
360.0635	0.18	720127	keystroke_Key.space	Key.space	n/a
360.2135	0.12	720427	keystroke_f	f	n/a
360.379	0.105	720758	keystroke_o	o	n/a
360.529	0.105	721058	keystroke_r	r	n/a
360.679	0.09	721358	keystroke_e	e	n/a
360.8885	0.105	721777	keystroke_c	c	n/a
361.0535	0.1805	722107	keystroke_a	a	n/a
361.219	0.15	722438	keystroke_s	s	n/a
361.534	0.09	723068	keystroke_t	t	n/a
361.7885	0.1655	723577	keystroke_s	s	n/a
361.939	0.105	723878	keystroke_Key.space	Key.space	n/a
362.1185	0.1655	724237	keystroke_s	s	n/a
362.269	0.105	724538	keystroke_e	e	n/a
362.479	0.105	724958	keystroke_e	e	n/a
362.643	0.15	725286	keystroke_Key.space	Key.space	n/a
362.809	0.149	725618	keystroke_w	w	n/a
363.019	0.09	726038	keystroke_i	i	n/a
363.259	0.045	726518	keystroke_k	k	n/a
363.439	0.06	726878	keystroke_i	i	n/a
363.7385	0.1205	727477	keystroke_p	p	n/a
363.8885	0.1055	727777	keystroke_e	e	n/a
364.1135	0.1055	728227	keystroke_d	d	n/a
364.2485	0.105	728497	keystroke_i	i	n/a
364.5335	0.1205	729067	keystroke_a	a	n/a
364.8185	0.105	729637	keystroke_Key.enter	Key.enter	n/a
364.9295	5.186	729859	prompt	n/a	spaces port memories rays\n
366.1835	0.135	732367	keystroke_s	s	n/a
366.3485	0.1355	732697	keystroke_p	p	n/a
366.498	0.136	732996	keystroke_a	a	n/a
366.648	0.106	733296	keystroke_c	c	n/a
366.844	0.105	733688	keystroke_e	e	n/a
367.039	0.119	734078	keystroke_s	s	n/a
367.129	0.149	734258	keystroke_Key.space	Key.space	n/a
367.309	0.18	734618	keystroke_p	p	n/a
367.458	0.1655	734916	keystroke_o	o	n/a
367.654	0.0745	735308	keystroke_r	r	n/a
367.849	0.1195	735698	keystroke_t	t	n/a
367.9385	0.165	735877	keystroke_Key.space	Key.space	n/a
368.119	0.105	736238	keystroke_m	m	n/a
368.224	0.135	736448	keystroke_e	e	n/a
368.374	0.0895	736748	keystroke_m	m	n/a
368.5235	0.1205	737047	keystroke_o	o	n/a
368.644	0.135	737288	keystroke_r	r	n/a
368.794	0.1345	737588	keystroke_i	i	n/a
368.974	0.105	737948	keystroke_e	e	n/a
369.1235	0.1505	738247	keystroke_s	s	n/a
369.2135	0.2405	738427	keystroke_Key.space	Key.space	n/a
369.3485	0.1205	738697	keystroke_r	r	n/a
369.499	0.1645	738998	keystroke_a	a	n/a
369.649	0.09	739298	keystroke_y	y	n/a
369.844	0.075	739688	keystroke_s	s	n/a
370.009	0.1045	740018	keystroke_Key.enter	Key.enter	n/a
370.1195	5.0805	740239	prompt	n/a	deal finals aberdeen bears\n
370.639	0.12	741278	keystroke_d	d	n/a
370.8335	0.09	741667	keystroke_e	e	n/a
371.1935	0.15	742387	keystroke_a	a	n/a
371.4485	0.105	742897	keystroke_l	l	n/a
371.6435	0.1505	743287	keystroke_Key.space	Key.space	n/a
371.749	0.135	743498	keystroke_f	f	n/a
371.869	0.135	743738	keystroke_i	i	n/a
371.974	0.105	743948	keystroke_n	n	n/a
372.109	0.12	744218	keystroke_a	a	n/a
372.214	0.12	744428	keystroke_l	l	n/a
372.438	0.15	744876	keystroke_Key.space	Key.space	n/a
372.603	0.1505	745206	keystroke_a	a	n/a
372.7235	0.0905	745447	keystroke_b	b	n/a
373.0085	0.1205	746017	keystroke_e	e	n/a
373.099	0.1195	746198	keystroke_r	r	n/a
373.354	0.0595	746708	keystroke_d	d	n/a
373.534	0.075	747068	keystroke_e	e	n/a
373.6985	0.09	747397	keystroke_e	e	n/a
373.8635	0.1055	747727	keystroke_n	n	n/a
374.0135	0.12	748027	keystroke_Key.space	Key.space	n/a
374.239	0.0755	748478	keystroke_b	b	n/a
374.404	0.119	748808	keystroke_e	e	n/a
374.583	0.15	749166	keystroke_a	a	n/a
374.688	0.121	749376	keystroke_r	r	n/a
374.899	0.1045	749798	keystroke_s	s	n/a
375.0785	0.1195	750157	keystroke_Key.enter	Key.enter	n/a
375.2045	5.0655	750409	prompt	n/a	waves favor prefers i'm\n
375.979	0.105	751958	keystroke_w	w	n/a
376.159	0.105	752318	keystroke_a	a	n/a
376.294	0.09	752588	keystroke_v	v	n/a
376.4735	0.105	752947	keystroke_e	e	n/a
376.6085	0.1355	753217	keystroke_s	s	n/a
376.6985	0.21	753397	keystroke_Key.space	Key.space	n/a
376.8485	0.106	753697	keystroke_f	f	n/a
376.984	0.18	753968	keystroke_a	a	n/a
377.179	0.105	754358	keystroke_v	v	n/a
377.449	0.089	754898	keystroke_o	o	n/a
377.584	0.12	755168	keystroke_r	r	n/a
377.718	0.166	755436	keystroke_Key.space	Key.space	n/a
377.989	0.105	755978	keystroke_p	p	n/a
378.109	0.134	756218	keystroke_r	r	n/a
378.288	0.09	756576	keystroke_e	e	n/a
378.499	0.0895	756998	keystroke_f	f	n/a
378.648	0.15	757296	keystroke_e	e	n/a
378.753	0.106	757506	keystroke_r	r	n/a
378.964	0.119	757928	keystroke_s	s	n/a
379.308	0.1055	758616	keystroke_Key.space	Key.space	n/a
379.4885	0.1355	758977	keystroke_i	i	n/a
379.669	0.1195	759338	keystroke_'	'	n/a
379.894	0.1055	759788	keystroke_m	m	n/a
380.1785	0.09	760357	keystroke_Key.enter	Key.enter	n/a
380.273	7.5725	760546	prompt	n/a	quarters pubmed advertiser employee\n
381.244	0.135	762488	keystroke_q	q	n/a
381.3635	0.1205	762727	keystroke_u	u	n/a
381.544	0.179	763088	keystroke_a	a	n/a
381.6785	0.09	763357	keystroke_r	r	n/a
381.874	0.089	763748	keystroke_t	t	n/a
382.023	0.121	764046	keystroke_e	e	n/a
382.098	0.12	764196	keystroke_r	r	n/a
382.353	0.1055	764706	keystroke_s	s	n/a
382.429	0.1345	764858	keystroke_Key.space	Key.space	n/a
382.699	0.1345	765398	keystroke_p	p	n/a
382.8635	0.1055	765727	keystroke_u	u	n/a
383.134	0.12	766268	keystroke_b	b	n/a
383.4185	0.1505	766837	keystroke_m	m	n/a
383.539	0.105	767078	keystroke_e	e	n/a
383.779	0.0595	767558	keystroke_d	d	n/a
383.808	0.1655	767616	keystroke_Key.space	Key.space	n/a
383.989	0.1645	767978	keystroke_a	a	n/a
384.139	0.09	768278	keystroke_d	d	n/a
384.334	0.12	768668	keystroke_v	v	n/a
384.544	0.135	769088	keystroke_e	e	n/a
384.6335	0.1205	769267	keystroke_r	r	n/a
384.979	0.075	769958	keystroke_t	t	n/a
385.099	0.12	770198	keystroke_i	i	n/a
385.564	0.1345	771128	keystroke_s	s	n/a
385.7735	0.18	771547	keystroke_e	e	n/a
385.894	0.1505	771788	keystroke_r	r	n/a
386.0135	0.18	772027	keystroke_Key.space	Key.space	n/a
386.2085	0.1055	772417	keystroke_e	e	n/a
386.3285	0.15	772657	keystroke_m	m	n/a
386.5535	0.1205	773107	keystroke_p	p	n/a
386.7785	0.0905	773557	keystroke_l	l	n/a
386.9435	0.105	773887	keystroke_o	o	n/a
387.0785	0.105	774157	keystroke_y	y	n/a
387.319	0.0745	774638	keystroke_e	e	n/a
387.4685	0.09	774937	keystroke_e	e	n/a
387.7385	0.105	775477	keystroke_Key.enter	Key.enter	n/a
387.85	4.1815	775700	prompt	n/a	masters puts fear mental\n
388.474	0.15	776948	keystroke_m	m	n/a
388.609	0.165	777218	keystroke_a	a	n/a
388.729	0.1645	777458	keystroke_s	s	n/a
388.9385	0.0895	777877	keystroke_t	t	n/a
389.088	0.151	778176	keystroke_e	e	n/a
389.194	0.1195	778388	keystroke_r	r	n/a
389.4485	0.105	778897	keystroke_s	s	n/a
389.539	0.1345	779078	keystroke_Key.space	Key.space	n/a
389.7485	0.12	779497	keystroke_p	p	n/a
389.8835	0.1055	779767	keystroke_u	u	n/a
390.019	0.12	780038	keystroke_t	t	n/a
390.2435	0.105	780487	keystroke_s	s	n/a
390.3185	0.1355	780637	keystroke_Key.space	Key.space	n/a
390.514	0.09	781028	keystroke_f	f	n/a
390.679	0.1345	781358	keystroke_e	e	n/a
390.844	0.1645	781688	keystroke_a	a	n/a
390.9785	0.1505	781957	keystroke_r	r	n/a
391.0835	0.135	782167	keystroke_Key.space	Key.space	n/a
391.204	0.1045	782408	keystroke_m	m	n/a
391.324	0.12	782648	keystroke_e	e	n/a
391.429	0.105	782858	keystroke_n	n	n/a
391.549	0.1045	783098	keystroke_t	t	n/a
391.6985	0.135	783397	keystroke_a	a	n/a
391.894	0.1345	783788	keystroke_Key.enter	Key.enter	n/a
392.0375	7.778	784075	prompt	n/a	allows butterfly he'll customized\n
392.779	0.165	785558	keystroke_a	a	n/a
392.8685	0.0605	785737	keystroke_l	l	n/a
393.019	0.0595	786038	keystroke_l	l	n/a
393.214	0.075	786428	keystroke_o	o	n/a
393.303	0.135	786606	keystroke_w	w	n/a
393.6035	0.105	787207	keystroke_s	s	n/a
393.6935	0.1805	787387	keystroke_Key.space	Key.space	n/a
393.8435	0.1205	787687	keystroke_b	b	n/a
393.9785	0.1205	787957	keystroke_u	u	n/a
394.1135	0.0755	788227	keystroke_l	l	n/a
394.2785	0.1055	788557	keystroke_l	l	n/a
394.714	0.149	789428	keystroke_e	e	n/a
394.833	0.09	789666	keystroke_r	r	n/a
395.0885	0.0755	790177	keystroke_f	f	n/a
395.208	0.12	790416	keystroke_l	l	n/a
395.403	0.076	790806	keystroke_y	y	n/a
395.553	0.106	791106	keystroke_Key.space	Key.space	n/a
395.674	0.1195	791348	keystroke_h	h	n/a
395.809	0.12	791618	keystroke_e	e	n/a
395.974	0.164	791948	keystroke_'	'	n/a
396.108	0.106	792216	keystroke_l	l	n/a
396.289	0.105	792578	keystroke_l	l	n/a
396.4235	0.165	792847	keystroke_Key.space	Key.space	n/a
396.6185	0.12	793237	keystroke_c	c	n/a
396.784	0.075	793568	keystroke_u	u	n/a
396.9635	0.06	793927	keystroke_s	s	n/a
397.4135	0.105	794827	keystroke_t	t	n/a
397.864	0.12	795728	keystroke_o	o	n/a
398.089	0.09	796178	keystroke_m	m	n/a
398.254	0.15	796508	keystroke_i	i	n/a
398.479	0.045	796958	keystroke_a	a	n/a
399.019	0.1045	798038	keystroke_Key.backspace	Key.backspace	n/a
399.109	0.105	798218	keystroke_z	z	n/a
399.304	0.075	798608	keystroke_e	e	n/a
399.5285	0.075	799057	keystroke_d	d	n/a
399.709	0.105	799418	keystroke_Key.enter	Key.enter	n/a
399.82	7.66	799640	prompt	n/a	matrix destiny trustee reflection\n
400.789	0.12	801578	keystroke_m	m	n/a
400.939	0.165	801878	keystroke_a	a	n/a
401.074	0.09	802148	keystroke_t	t	n/a
401.254	0.09	802508	keystroke_r	r	n/a
401.359	0.135	802718	keystroke_i	i	n/a
401.8085	0.12	803617	keystroke_x	x	n/a
401.989	0.1495	803978	keystroke_Key.space	Key.space	n/a
402.1835	0.09	804367	keystroke_d	d	n/a
402.3635	0.0755	804727	keystroke_e	e	n/a
402.664	0.1045	805328	keystroke_s	s	n/a
402.859	0.074	805718	keystroke_t	t	n/a
403.024	0.15	806048	keystroke_i	i	n/a
403.1435	0.09	806287	keystroke_n	n	n/a
403.384	0.074	806768	keystroke_y	y	n/a
403.533	0.18	807066	keystroke_Key.space	Key.space	n/a
403.668	0.091	807336	keystroke_t	t	n/a
403.834	0.09	807668	keystroke_r	r	n/a
403.939	0.105	807878	keystroke_u	u	n/a
404.074	0.1645	808148	keystroke_s	s	n/a
404.1935	0.151	808387	keystroke_t	t	n/a
404.329	0.12	808658	keystroke_Key.space	Key.space	n/a
404.748	0.0905	809496	keystroke_Key.backspace	Key.backspace	n/a
404.8995	0.0885	809799	keystroke_e	e	n/a
405.064	0.1345	810128	keystroke_e	e	n/a
405.259	0.1195	810518	keystroke_Key.space	Key.space	n/a
405.6195	0.149	811239	keystroke_r	r	n/a
405.799	0.105	811598	keystroke_e	e	n/a
406.0535	0.1055	812107	keystroke_f	f	n/a
406.189	0.1495	812378	keystroke_l	l	n/a
406.3235	0.09	812647	keystroke_e	e	n/a
406.519	0.075	813038	keystroke_c	c	n/a
406.729	0.06	813458	keystroke_t	t	n/a
406.849	0.12	813698	keystroke_i	i	n/a
406.924	0.18	813848	keystroke_o	o	n/a
407.044	0.135	814088	keystroke_n	n	n/a
407.374	0.105	814748	keystroke_Key.enter	Key.enter	n/a
407.485	5.005	814970	prompt	n/a	buys leone staff marketing\n
408.2145	0.1195	816429	keystroke_b	b	n/a
408.319	0.06	816638	keystroke_u	u	n/a
408.484	0.06	816968	keystroke_y	y	n/a
408.634	0.135	817268	keystroke_s	s	n/a
408.7235	0.135	817447	keystroke_Key.space	Key.space	n/a
408.9485	0.09	817897	keystroke_l	l	n/a
409.0085	0.1355	818017	keystroke_e	e	n/a
409.159	0.1495	818318	keystroke_o	o	n/a
409.2795	0.135	818559	keystroke_n	n	n/a
409.474	0.15	818948	keystroke_e	e	n/a
409.594	0.1795	819188	keystroke_Key.space	Key.space	n/a
409.7745	0.1795	819549	keystroke_s	s	n/a
409.9245	0.104	819849	keystroke_t	t	n/a
410.1035	0.165	820207	keystroke_a	a	n/a
410.2535	0.09	820507	keystroke_f	f	n/a
410.4485	0.09	820897	keystroke_f	f	n/a
410.554	0.1645	821108	keystroke_Key.space	Key.space	n/a
410.704	0.195	821408	keystroke_m	m	n/a
411.109	0.2095	822218	keystroke_a	a	n/a
411.274	0.12	822548	keystroke_r	r	n/a
411.439	0.1195	822878	keystroke_k	k	n/a
411.5435	0.1655	823087	keystroke_e	e	n/a
411.814	0.0895	823628	keystroke_t	t	n/a
411.9635	0.1805	823927	keystroke_i	i	n/a
412.099	0.1195	824198	keystroke_n	n	n/a
412.204	0.0755	824408	keystroke_g	g	n/a
412.369	0.1195	824738	keystroke_Key.enter	Key.enter	n/a
412.494	8.7265	824988	prompt	n/a	exceed aquatic consistently dash\n
413.119	0.09	826238	keystroke_e	e	n/a
413.3135	0.105	826627	keystroke_x	x	n/a
413.4935	0.0755	826987	keystroke_c	c	n/a
413.6885	0.06	827377	keystroke_e	e	n/a
413.8385	0.0755	827677	keystroke_e	e	n/a
414.0485	0.061	828097	keystroke_d	d	n/a
414.11	0.149	828220	keystroke_Key.space	Key.space	n/a
414.529	0.045	829058	keystroke_s	s	n/a
414.919	0.0905	829838	keystroke_Key.backspace	Key.backspace	n/a
415.0235	0.1055	830047	keystroke_a	a	n/a
415.699	0.135	831398	keystroke_q	q	n/a
415.863	0.106	831726	keystroke_u	u	n/a
416.059	0.135	832118	keystroke_a	a	n/a
416.434	0.135	832868	keystroke_i	i	n/a
416.853	0.09	833706	keystroke_Key.backspace	Key.backspace	n/a
417.079	0.09	834158	keystroke_t	t	n/a
417.244	0.0905	834488	keystroke_i	i	n/a
417.378	0.106	834756	keystroke_c	c	n/a
417.7085	0.1355	835417	keystroke_Key.space	Key.space	n/a
418.129	0.1345	836258	keystroke_c	c	n/a
418.2485	0.1355	836497	keystroke_o	o	n/a
418.354	0.12	836708	keystroke_n	n	n/a
418.519	0.105	837038	keystroke_s	s	n/a
418.639	0.12	837278	keystroke_i	i	n/a
418.774	0.075	837548	keystroke_s	s	n/a
418.954	0.075	837908	keystroke_t	t	n/a
419.089	0.1055	838178	keystroke_e	e	n/a
419.208	0.12	838416	keystroke_n	n	n/a
419.404	0.075	838808	keystroke_t	t	n/a
419.539	0.075	839078	keystroke_l	l	n/a
419.749	0.075	839498	keystroke_y	y	n/a
419.883	0.226	839766	keystroke_Key.space	Key.space	n/a
420.063	0.076	840126	keystroke_d	d	n/a
420.184	0.21	840368	keystroke_a	a	n/a
420.409	0.105	840818	keystroke_s	s	n/a
420.619	0.105	841238	keystroke_h	h	n/a
421.114	0.105	842228	keystroke_Key.enter	Key.enter	n/a
421.2245	5.351	842449	prompt	n/a	tags cells frankfurt mixer\n
422.1045	0.1045	844209	keystroke_t	t	n/a
422.284	0.15	844568	keystroke_a	a	n/a
422.449	0.0755	844898	keystroke_g	g	n/a
422.659	0.1195	845318	keystroke_s	s	n/a
422.734	0.194	845468	keystroke_Key.space	Key.space	n/a
422.899	0.0895	845798	keystroke_c	c	n/a
423.079	0.12	846158	keystroke_e	e	n/a
423.214	0.06	846428	keystroke_l	l	n/a
423.3485	0.12	846697	keystroke_l	l	n/a
423.5285	0.136	847057	keystroke_s	s	n/a
423.649	0.1505	847298	keystroke_Key.space	Key.space	n/a
423.814	0.09	847628	keystroke_f	f	n/a
424.009	0.075	848018	keystroke_r	r	n/a
424.1445	0.1495	848289	keystroke_a	a	n/a
424.249	0.105	848498	keystroke_n	n	n/a
424.474	0.105	848948	keystroke_k	k	n/a
424.669	0.09	849338	keystroke_f	f	n/a
424.8045	0.1045	849609	keystroke_u	u	n/a
424.9685	0.0895	849937	keystroke_r	r	n/a
425.193	0.0915	850386	keystroke_t	t	n/a
425.299	0.149	850598	keystroke_Key.space	Key.space	n/a
425.4645	0.1195	850929	keystroke_m	m	n/a
425.659	0.1195	851318	keystroke_i	i	n/a
425.764	0.1045	851528	keystroke_x	x	n/a
426.079	0.105	852158	keystroke_e	e	n/a
426.214	0.075	852428	keystroke_r	r	n/a
426.484	0.0895	852968	keystroke_Key.enter	Key.enter	n/a
426.581	6.1745	853162	prompt	n/a	lenders examining travels that'd\n
427.2035	0.1055	854407	keystroke_l	l	n/a
427.3385	0.1205	854677	keystroke_e	e	n/a
427.474	0.12	854948	keystroke_n	n	n/a
427.6095	0.0595	855219	keystroke_d	d	n/a
427.774	0.1205	855548	keystroke_e	e	n/a
427.879	0.105	855758	keystroke_r	r	n/a
428.0895	0.1495	856179	keystroke_s	s	n/a
428.209	0.195	856418	keystroke_Key.space	Key.space	n/a
428.524	0.105	857048	keystroke_e	e	n/a
428.7495	0.1195	857499	keystroke_x	x	n/a
429.0035	0.15	858007	keystroke_a	a	n/a
429.0935	0.1205	858187	keystroke_m	m	n/a
429.2735	0.15	858547	keystroke_i	i	n/a
429.3785	0.105	858757	keystroke_n	n	n/a
429.6035	0.1055	859207	keystroke_i	i	n/a
429.6635	0.1205	859327	keystroke_n	n	n/a
429.859	0.15	859718	keystroke_g	g	n/a
429.993	0.241	859986	keystroke_Key.space	Key.space	n/a
430.189	0.09	860378	keystroke_t	t	n/a
430.3845	0.1045	860769	keystroke_r	r	n/a
430.594	0.135	861188	keystroke_a	a	n/a
430.773	0.076	861546	keystroke_v	v	n/a
430.939	0.1055	861878	keystroke_e	e	n/a
431.089	0.12	862178	keystroke_l	l	n/a
431.269	0.105	862538	keystroke_s	s	n/a
431.358	0.196	862716	keystroke_Key.space	Key.space	n/a
431.4785	0.0905	862957	keystroke_t	t	n/a
431.5835	0.1355	863167	keystroke_h	h	n/a
431.689	0.1795	863378	keystroke_a	a	n/a
431.809	0.0745	863618	keystroke_t	t	n/a
431.9285	0.105	863857	keystroke_'	'	n/a
432.154	0.0745	864308	keystroke_d	d	n/a
432.6485	0.105	865297	keystroke_Key.enter	Key.enter	n/a
432.7595	7.646	865519	prompt	n/a	graphics planned nissan instructor\n
433.399	0.075	866798	keystroke_g	g	n/a
433.5785	0.0755	867157	keystroke_r	r	n/a
433.6985	0.165	867397	keystroke_a	a	n/a
433.8195	0.1195	867639	keystroke_p	p	n/a
433.9535	0.1205	867907	keystroke_h	h	n/a
434.1195	0.1045	868239	keystroke_i	i	n/a
434.299	0.075	868598	keystroke_c	c	n/a
434.929	0.135	869858	keystroke_s	s	n/a
435.093	0.136	870186	keystroke_Key.space	Key.space	n/a
435.529	0.105	871058	keystroke_p	p	n/a
435.739	0.12	871478	keystroke_l	l	n/a
435.9045	0.1495	871809	keystroke_a	a	n/a
436.0095	0.0745	872019	keystroke_n	n	n/a
436.174	0.09	872348	keystroke_n	n	n/a
436.294	0.09	872588	keystroke_e	e	n/a
436.5185	0.075	873037	keystroke_d	d	n/a
436.5635	0.15	873127	keystroke_Key.space	Key.space	n/a
436.7145	0.104	873429	keystroke_n	n	n/a
436.834	0.105	873668	keystroke_i	i	n/a
437.014	0.075	874028	keystroke_s	s	n/a
437.179	0.105	874358	keystroke_s	s	n/a
437.329	0.15	874658	keystroke_a	a	n/a
437.464	0.105	874928	keystroke_n	n	n/a
437.8085	0.1195	875617	keystroke_Key.space	Key.space	n/a
437.974	0.18	875948	keystroke_i	i	n/a
438.544	0.03	877088	keystroke_n	n	n/a
438.784	0.135	877568	keystroke_s	s	n/a
439.009	0.09	878018	keystroke_t	t	n/a
439.174	0.09	878348	keystroke_r	r	n/a
439.414	0.0905	878828	keystroke_u	u	n/a
439.564	0.105	879128	keystroke_c	c	n/a
439.819	0.0445	879638	keystroke_t	t	n/a
439.939	0.1345	879878	keystroke_o	o	n/a
440.0895	0.059	880179	keystroke_r	r	n/a
440.2985	0.105	880597	keystroke_Key.enter	Key.enter	n/a
440.41	8.4105	880820	prompt	n/a	bailey opponents listening long\n
441.4385	0.0155	882877	keystroke_b	b	n/a
441.4985	0.0305	882997	keystroke_b	b	n/a
441.6185	0.06	883237	keystroke_b	b	n/a
442.069	0.074	884138	keystroke_Key.backspace	Key.backspace	n/a
442.2635	0.06	884527	keystroke_Key.backspace	Key.backspace	n/a
442.5485	0.135	885097	keystroke_a	a	n/a
442.6985	0.09	885397	keystroke_i	i	n/a
442.8785	0.1205	885757	keystroke_l	l	n/a
444.0645	0.0445	888129	keystroke_e	e	n/a
444.439	0.075	888878	keystroke_y	y	n/a
444.784	0.135	889568	keystroke_Key.space	Key.space	n/a
444.994	0.1955	889988	keystroke_o	o	n/a
445.159	0.09	890318	keystroke_p	p	n/a
445.339	0.105	890678	keystroke_p	p	n/a
445.5495	0.1495	891099	keystroke_o	o	n/a
445.684	0.1055	891368	keystroke_n	n	n/a
445.894	0.105	891788	keystroke_e	e	n/a
446.074	0.135	892148	keystroke_n	n	n/a
446.224	0.0905	892448	keystroke_t	t	n/a
446.4195	0.119	892839	keystroke_s	s	n/a
446.5085	0.135	893017	keystroke_Key.space	Key.space	n/a
446.824	0.1645	893648	keystroke_l	l	n/a
446.959	0.1205	893918	keystroke_i	i	n/a
447.1235	0.135	894247	keystroke_s	s	n/a
447.229	0.1045	894458	keystroke_t	t	n/a
447.3635	0.1205	894727	keystroke_e	e	n/a
447.4695	0.104	894939	keystroke_n	n	n/a
447.6035	0.1805	895207	keystroke_i	i	n/a
447.739	0.12	895478	keystroke_n	n	n/a
447.8735	0.106	895747	keystroke_g	g	n/a
447.919	0.1645	895838	keystroke_Key.space	Key.space	n/a
448.1135	0.0755	896227	keystroke_l	l	n/a
448.294	0.135	896588	keystroke_o	o	n/a
448.3985	0.1055	896797	keystroke_n	n	n/a
448.519	0.09	897038	keystroke_g	g	n/a
448.729	0.09	897458	keystroke_Key.enter	Key.enter	n/a
448.8245	5.831	897649	prompt	n/a	triple dying villas mutual\n
449.509	0.0745	899018	keystroke_t	t	n/a
449.6435	0.1055	899287	keystroke_r	r	n/a
449.764	0.135	899528	keystroke_i	i	n/a
449.914	0.105	899828	keystroke_p	p	n/a
450.124	0.0905	900248	keystroke_l	l	n/a
450.259	0.15	900518	keystroke_e	e	n/a
450.364	0.21	900728	keystroke_Key.space	Key.space	n/a
450.5595	0.1035	901119	keystroke_d	d	n/a
450.783	0.076	901566	keystroke_y	y	n/a
450.949	0.195	901898	keystroke_i	i	n/a
451.099	0.105	902198	keystroke_n	n	n/a
451.234	0.06	902468	keystroke_g	g	n/a
451.249	0.15	902498	keystroke_Key.space	Key.space	n/a
451.459	0.1195	902918	keystroke_v	v	n/a
451.5945	0.164	903189	keystroke_i	i	n/a
451.774	0.075	903548	keystroke_l	l	n/a
451.9685	0.12	903937	keystroke_l	l	n/a
452.8685	0.1355	905737	keystroke_a	a	n/a
453.094	0.119	906188	keystroke_s	s	n/a
453.1835	0.1505	906367	keystroke_Key.space	Key.space	n/a
453.484	0.075	906968	keystroke_m	m	n/a
453.678	0.075	907356	keystroke_u	u	n/a
453.8135	0.0905	907627	keystroke_t	t	n/a
453.949	0.105	907898	keystroke_u	u	n/a
454.219	0.135	908438	keystroke_a	a	n/a
454.369	0.06	908738	keystroke_l	l	n/a
454.564	0.0895	909128	keystroke_Key.enter	Key.enter	n/a
454.66	5.14	909320	prompt	n/a	pleasure learners hack arrives\n
455.3895	0.1045	910779	keystroke_p	p	n/a
455.614	0.12	911228	keystroke_l	l	n/a
455.749	0.0755	911498	keystroke_e	e	n/a
455.839	0.195	911678	keystroke_a	a	n/a
456.004	0.195	912008	keystroke_s	s	n/a
456.244	0.1045	912488	keystroke_u	u	n/a
456.364	0.1195	912728	keystroke_r	r	n/a
456.499	0.1345	912998	keystroke_e	e	n/a
456.5885	0.15	913177	keystroke_Key.space	Key.space	n/a
456.6795	0.104	913359	keystroke_l	l	n/a
456.7995	0.119	913599	keystroke_e	e	n/a
456.9035	0.181	913807	keystroke_a	a	n/a
457.0235	0.121	914047	keystroke_r	r	n/a
457.1445	0.105	914289	keystroke_n	n	n/a
457.3085	0.165	914617	keystroke_e	e	n/a
457.429	0.12	914858	keystroke_r	r	n/a
457.67	0.119	915340	keystroke_s	s	n/a
457.714	0.165	915428	keystroke_Key.space	Key.space	n/a
457.894	0.12	915788	keystroke_h	h	n/a
458.029	0.105	916058	keystroke_a	a	n/a
458.164	0.135	916328	keystroke_c	c	n/a
458.374	0.105	916748	keystroke_k	k	n/a
458.464	0.135	916928	keystroke_Key.space	Key.space	n/a
458.614	0.165	917228	keystroke_a	a	n/a
458.764	0.09	917528	keystroke_r	r	n/a
458.9295	0.0895	917859	keystroke_r	r	n/a
459.034	0.135	918068	keystroke_i	i	n/a
459.154	0.0745	918308	keystroke_v	v	n/a
459.349	0.06	918698	keystroke_e	e	n/a
459.499	0.1195	918998	keystroke_s	s	n/a
459.724	0.075	919448	keystroke_Key.enter	Key.enter	n/a
459.804	7.9915	919608	prompt	n/a	blogger tourist bids carnival\n
460.4885	0.1205	920977	keystroke_b	b	n/a
460.654	0.0895	921308	keystroke_l	l	n/a
460.8485	0.0905	921697	keystroke_o	o	n/a
461.509	0.06	923018	keystroke_g	g	n/a
461.659	0.0895	923318	keystroke_g	g	n/a
461.8995	0.1345	923799	keystroke_e	e	n/a
461.943	0.1515	923886	keystroke_r	r	n/a
462.0785	0.1955	924157	keystroke_Key.space	Key.space	n/a
462.2445	0.135	924489	keystroke_t	t	n/a
462.4395	0.225	924879	keystroke_o	o	n/a
462.6185	0.106	925237	keystroke_u	u	n/a
462.7545	0.134	925509	keystroke_r	r	n/a
462.9035	0.1505	925807	keystroke_i	i	n/a
463.039	0.135	926078	keystroke_s	s	n/a
463.249	0.09	926498	keystroke_t	t	n/a
463.3995	0.1345	926799	keystroke_s	s	n/a
463.5485	0.1805	927097	keystroke_Key.space	Key.space	n/a
463.6685	0.1205	927337	keystroke_b	b	n/a
463.909	0.105	927818	keystroke_i	i	n/a
464.359	0.09	928718	keystroke_e	e	n/a
464.9885	0.075	929977	keystroke_Key.backspace	Key.backspace	n/a
465.0785	0.0905	930157	keystroke_d	d	n/a
465.3045	0.134	930609	keystroke_s	s	n/a
465.4685	0.15	930937	keystroke_Key.space	Key.space	n/a
465.649	0.12	931298	keystroke_c	c	n/a
465.904	0.18	931808	keystroke_a	a	n/a
466.0545	0.09	932109	keystroke_r	r	n/a
466.234	0.105	932468	keystroke_n	n	n/a
466.353	0.1505	932706	keystroke_i	i	n/a
466.5635	0.106	933127	keystroke_c	c	n/a
467.0735	0.0755	934147	keystroke_Key.backspace	Key.backspace	n/a
467.1645	0.1045	934329	keystroke_v	v	n/a
467.329	0.1505	934658	keystroke_a	a	n/a
467.4635	0.0755	934927	keystroke_l	l	n/a
467.689	0.105	935378	keystroke_Key.enter	Key.enter	n/a
467.8	5.3955	935600	prompt	n/a	he'd indexes touch bufing\n
468.454	0.1345	936908	keystroke_h	h	n/a
468.5745	0.119	937149	keystroke_e	e	n/a
