onset	duration	sample	value	key	prompt_text
7.3785	11.4095	14757	prompt	n/a	the quick brown fox jumps over a lazy dog\n
9.2915	0.001	18583	keystroke	t	n/a
9.3195	0.09	18639	keystroke	h	n/a
9.4245	0.045	18849	keystroke	e	n/a
9.5295	0.12	19059	keystroke	Key.space	n/a
10.0395	0.075	20079	keystroke	q	n/a
10.1445	0.18	20289	keystroke	u	n/a
10.4445	0.09	20889	keystroke	i	n/a
10.6695	0.06	21339	keystroke	c	n/a
10.7595	0.105	21519	keystroke	k	n/a
10.9845	0.09	21969	keystroke	Key.space	n/a
11.3145	0.09	22629	keystroke	b	n/a
11.4345	0.06	22869	keystroke	r	n/a
11.5545	0.09	23109	keystroke	o	n/a
11.6595	0.045	23319	keystroke	w	n/a
11.7495	0.06	23499	keystroke	n	n/a
11.9295	0.105	23859	keystroke	Key.space	n/a
12.0795	0.09	24159	keystroke	f	n/a
12.1845	0.075	24369	keystroke	o	n/a
12.3945	0.09	24789	keystroke	x	n/a
12.7845	0.09	25569	keystroke	Key.space	n/a
12.9495	0.105	25899	keystroke	j	n/a
13.1445	0.06	26289	keystroke	u	n/a
13.3095	0.135	26619	keystroke	m	n/a
13.4295	0.09	26859	keystroke	p	n/a
13.5795	0.075	27159	keystroke	s	n/a
13.8495	0.09	27699	keystroke	Key.space	n/a
13.9695	0.09	27939	keystroke	o	n/a
14.8695	0.075	29739	keystroke	v	n/a
15.0495	0.12	30099	keystroke	e	n/a
15.1545	0.075	30309	keystroke	r	n/a
15.2895	0.09	30579	keystroke	Key.space	n/a
15.3495	0.09	30699	keystroke	a	n/a
15.4545	0.105	30909	keystroke	Key.space	n/a
15.7405	0.059	31481	keystroke	l	n/a
15.8145	0.12	31629	keystroke	a	n/a
16.1745	0.105	32349	keystroke	z	n/a
16.2945	0.075	32589	keystroke	y	n/a
16.5195	0.075	33039	keystroke	Key.space	n/a
16.9095	0.09	33819	keystroke	d	n/a
17.1795	0.03	34359	keystroke	g	n/a
17.8245	0.06	35649	keystroke	Key.backspace	n/a
18.0945	0.09	36189	keystroke	o	n/a
18.2295	0.075	36459	keystroke	g	n/a
18.7095	0.075	37419	keystroke	Key.enter	n/a
18.7935	8.903	37587	prompt	n/a	combine undo italian here\n
19.7595	0.06	39519	keystroke	c	n/a
19.8345	0.075	39669	keystroke	o	n/a
19.9695	0.135	39939	keystroke	m	n/a
20.2245	0.075	40449	keystroke	b	n/a
20.4195	0.075	40839	keystroke	i	n/a
20.5545	0.075	41109	keystroke	n	n/a
20.6305	0.074	41261	keystroke	e	n/a
20.7495	0.045	41499	keystroke	Key.space	n/a
20.9155	0.075	41831	keystroke	u	n/a
21.0645	0.09	42129	keystroke	n	n/a
21.1695	0.075	42339	keystroke	d	n/a
21.3795	0.061	42759	keystroke	o	n/a
22.7295	0.105	45459	keystroke	Key.space	n/a
22.9245	0.075	45849	keystroke	i	n/a
23.1495	0.06	46299	keystroke	t	n/a
23.4195	0.075	46839	keystroke	a	n/a
23.5105	0.105	47021	keystroke	l	n/a
23.7045	0.0755	47409	keystroke	i	n/a
23.9445	0.075	47889	keystroke	e	n/a
24.2445	0.091	48489	keystroke	n	n/a
24.7395	0.075	49479	keystroke	Key.backspace	n/a
24.8755	0.09	49751	keystroke	a	n/a
25.4445	0.06	50889	keystroke	Key.backspace	n/a
25.6845	0.015	51369	keystroke	Key.backspace	n/a
25.7905	0.075	51581	keystroke	a	n/a
26.2995	0.075	52599	keystroke	n	n/a
26.5245	0.091	53049	keystroke	Key.space	n/a
26.7195	0.06	53439	keystroke	h	n/a
26.8105	0.119	53621	keystroke	e	n/a
26.9455	0.09	53891	keystroke	r	n/a
27.0195	0.09	54039	keystroke	e	n/a
27.6195	0.075	55239	keystroke	Key.enter	n/a
27.6995	7.707	55399	prompt	n/a	functioning priority objects exam\n
28.6405	0.075	57281	keystroke	f	n/a
28.7745	0.061	57549	keystroke	u	n/a
28.9245	0.075	57849	keystroke	n	n/a
28.9855	0.075	57971	keystroke	c	n/a
29.6605	0.059	59321	keystroke	t	n/a
29.7495	0.151	59499	keystroke	i	n/a
29.8245	0.12	59649	keystroke	o	n/a
30.0055	0.075	60011	keystroke	n	n/a
30.2155	0.059	60431	keystroke	i	n/a
30.3355	0.09	60671	keystroke	n	n/a
30.4545	0.076	60909	keystroke	g	n/a
30.5605	0.119	61121	keystroke	Key.space	n/a
30.7255	0.09	61451	keystroke	p	n/a
30.8305	0.075	61661	keystroke	r	n/a
31.6705	0.12	63341	keystroke	i	n/a
31.7605	0.105	63521	keystroke	o	n/a
31.9555	0.075	63911	keystroke	r	n/a
32.0605	0.06	64121	keystroke	i	n/a
32.2105	0.075	64421	keystroke	t	n/a
32.3755	0.075	64751	keystroke	y	n/a
32.5695	0.105	65139	keystroke	Key.space	n/a
32.6905	0.105	65381	keystroke	o	n/a
32.8705	0.075	65741	keystroke	b	n/a
33.0795	0.046	66159	keystroke	j	n/a
33.1405	0.075	66281	keystroke	e	n/a
33.2905	0.12	66581	keystroke	c	n/a
33.6055	0.045	67211	keystroke	t	n/a
33.7705	0.09	67541	keystroke	s	n/a
33.9205	0.105	67841	keystroke	Key.space	n/a
34.0105	0.06	68021	keystroke	e	n/a
34.6555	0.105	69311	keystroke	x	n/a
34.9555	0.09	69911	keystroke	a	n/a
35.0605	0.06	70121	keystroke	m	n/a
35.3305	0.074	70661	keystroke	Key.enter	n/a
35.41	10.6045	70820	prompt	n/a	stadium induction displaying jerusalem\n
36.3355	0.105	72671	keystroke	s	n/a
36.5305	0.06	73061	keystroke	t	n/a
36.6805	0.06	73361	keystroke	a	n/a
36.8755	0.03	73751	keystroke	d	n/a
37.4155	0.045	74831	keystroke	i	n/a
37.5955	0.06	75191	keystroke	u	n/a
38.0755	0.06	76151	keystroke	m	n/a
38.3755	0.09	76751	keystroke	Key.space	n/a
38.5105	0.075	77021	keystroke	i	n/a
38.6755	0.06	77351	keystroke	n	n/a
38.7655	0.075	77531	keystroke	d	n/a
38.8855	0.06	77771	keystroke	u	n/a
39.0655	0.09	78131	keystroke	c	n/a
39.3495	0.075	78699	keystroke	t	n/a
39.4395	0.135	78879	keystroke	i	n/a
39.4995	0.105	78999	keystroke	o	n/a
39.6945	0.06	79389	keystroke	n	n/a
40.1145	0.105	80229	keystroke	Key.space	n/a
40.2345	0.075	80469	keystroke	d	n/a
40.2945	0.09	80589	keystroke	i	n/a
40.4145	0.075	80829	keystroke	s	n/a
40.9995	0.06	81999	keystroke	p	n/a
41.1795	0.09	82359	keystroke	l	n/a
41.4045	0.09	82809	keystroke	a	n/a
41.5095	0.045	83019	keystroke	y	n/a
41.6745	0.075	83349	keystroke	i	n/a
41.8395	0.09	83679	keystroke	n	n/a
41.9595	0.075	83919	keystroke	g	n/a
42.0495	0.12	84099	keystroke	Key.space	n/a
42.6045	0.075	85209	keystroke	j	n/a
42.9345	0.075	85869	keystroke	e	n/a
43.1895	0.06	86379	keystroke	r	n/a
44.374	0.12	88748	keystroke	u	n/a
44.914	0.06	89828	keystroke	s	n/a
45.139	0.06	90278	keystroke	a	n/a
45.274	0.09	90548	keystroke	l	n/a
45.469	0.03	90938	keystroke	e	n/a
45.544	0.09	91088	keystroke	m	n/a
45.949	0.06	91898	keystroke	Key.enter	n/a
46.0185	7.868	92037	prompt	n/a	onion refuse baths zambia\n
46.684	0.076	93368	keystroke	o	n/a
46.834	0.075	93668	keystroke	n	n/a
46.984	0.09	93968	keystroke	i	n/a
47.254	0.09	94508	keystroke	o	n/a
47.404	0.06	94808	keystroke	n	n/a
47.659	0.105	95318	keystroke	Key.space	n/a
47.869	0.075	95738	keystroke	r	n/a
48.454	0.075	96908	keystroke	e	n/a
48.6795	0.0445	97359	keystroke	f	n/a
48.829	0.06	97658	keystroke	u	n/a
49.279	0.075	98558	keystroke	s	n/a
50.239	0.045	100478	keystroke	e	n/a
50.509	0.12	101018	keystroke	Key.space	n/a
50.735	0.075	101470	keystroke	b	n/a
50.854	0.075	101708	keystroke	a	n/a
50.974	0.09	101948	keystroke	t	n/a
51.049	0.105	102098	keystroke	h	n/a
51.229	0.09	102458	keystroke	s	n/a
51.394	0.12	102788	keystroke	Key.space	n/a
52.16	0.074	104320	keystroke	z	n/a
52.369	0.06	104738	keystroke	a	n/a
52.474	0.076	104948	keystroke	m	n/a
52.685	0.059	105370	keystroke	b	n/a
52.894	0.045	105788	keystroke	i	n/a
52.969	0.091	105938	keystroke	a	n/a
53.839	0.045	107678	keystroke	Key.enter	n/a
53.8895	15.5065	107779	prompt	n/a	ministers performing penny replace\n
54.62	0.104	109240	keystroke	m	n/a
54.769	0.075	109538	keystroke	i	n/a
54.904	0.09	109808	keystroke	n	n/a
55.01	0.089	110020	keystroke	i	n/a
55.339	0.15	110678	keystroke	s	n/a
55.58	0.089	111160	keystroke	t	n/a
55.774	0.105	111548	keystroke	e	n/a
55.835	0.089	111670	keystroke	r	n/a
56.06	0.059	112120	keystroke	s	n/a
56.254	0.12	112508	keystroke	Key.space	n/a
56.419	0.091	112838	keystroke	p	n/a
56.479	0.106	112958	keystroke	e	n/a
56.554	0.09	113108	keystroke	r	n/a
57.019	0.03	114038	keystroke	g	n/a
57.619	0.075	115238	keystroke	Key.backspace	n/a
57.724	0.075	115448	keystroke	f	n/a
57.889	0.076	115778	keystroke	o	n/a
58.069	0.061	116138	keystroke	r	n/a
58.189	0.06	116378	keystroke	m	n/a
58.61	0.089	117220	keystroke	e	n/a
58.805	0.075	117610	keystroke	r	n/a
59.03	0.059	118060	keystroke	i	n/a
59.195	0.059	118390	keystroke	n	n/a
59.285	0.075	118570	keystroke	g	n/a
59.374	0.075	118748	keystroke	Key.space	n/a
59.465	0.12	118930	keystroke	p	n/a
59.599	0.061	119198	keystroke	e	n/a
59.735	0.029	119470	keystroke	n	n/a
59.854	0.076	119708	keystroke	n	n/a
60.155	0.044	120310	keystroke	y	n/a
60.514	0.121	121028	keystroke	Key.backspace	n/a
62.164	0.06	124328	keystroke	Key.backspace	n/a
62.494	0.061	124988	keystroke	Key.backspace	n/a
62.674	0.061	125348	keystroke	Key.backspace	n/a
64.37	0.06	128740	keystroke	i	n/a
64.564	0.061	129128	keystroke	n	n/a
64.64	0.09	129280	keystroke	g	n/a
65.78	0.12	131560	keystroke	Key.space	n/a
65.93	0.12	131860	keystroke	p	n/a
66.125	0.06	132250	keystroke	e	n/a
66.23	0.06	132460	keystroke	n	n/a
66.38	0.06	132760	keystroke	n	n/a
66.635	0.06	133270	keystroke	y	n/a
67.07	0.075	134140	keystroke	Key.space	n/a
67.385	0.06	134770	keystroke	r	n/a
67.52	0.06	135040	keystroke	e	n/a
67.73	0.06	135460	keystroke	p	n/a
67.9095	0.09	135819	keystroke	l	n/a
68.0295	0.0905	136059	keystroke	a	n/a
68.225	0.135	136450	keystroke	c	n/a
68.465	0.06	136930	keystroke	e	n/a
69.3045	0.09	138609	keystroke	Key.enter	n/a
69.402	7.675	138804	prompt	n/a	rated basename writer king\n
70.6845	0.075	141369	keystroke	r	n/a
70.8645	0.075	141729	keystroke	a	n/a
71.2095	0.075	142419	keystroke	t	n/a
71.3595	0.075	142719	keystroke	e	n/a
71.5845	0.045	143169	keystroke	d	n/a
71.7795	0.075	143559	keystroke	Key.space	n/a
72.0345	0.06	144069	keystroke	b	n/a
72.1845	0.075	144369	keystroke	a	n/a
72.3345	0.12	144669	keystroke	s	n/a
72.5895	0.06	145179	keystroke	e	n/a
72.9345	0.06	145869	keystroke	n	n/a
73.4145	0.09	146829	keystroke	a	n/a
73.5645	0.105	147129	keystroke	m	n/a
73.7145	0.045	147429	keystroke	e	n/a
73.7895	0.12	147579	keystroke	Key.space	n/a
74.1195	0.075	148239	keystroke	w	n/a
74.3145	0.075	148629	keystroke	r	n/a
74.4795	0.075	148959	keystroke	i	n/a
75.6795	0.06	151359	keystroke	t	n/a
75.8145	0.135	151629	keystroke	e	n/a
75.9195	0.075	151839	keystroke	r	n/a
76.1145	0.075	152229	keystroke	Key.space	n/a
76.2645	0.09	152529	keystroke	k	n/a
76.4745	0.06	152949	keystroke	i	n/a
76.6245	0.12	153249	keystroke	n	n/a
76.7595	0.045	153519	keystroke	g	n/a
76.9695	0.105	153939	keystroke	Key.enter	n/a
77.0805	7.2855	154161	prompt	n/a	omega prospect investor debian\n
77.8545	0.09	155709	keystroke	o	n/a
78.0495	0.045	156099	keystroke	m	n/a
78.1095	0.105	156219	keystroke	e	n/a
78.3795	0.075	156759	keystroke	g	n/a
78.5145	0.075	157029	keystroke	a	n/a
78.6645	0.105	157329	keystroke	Key.space	n/a
78.8445	0.09	157689	keystroke	p	n/a
78.9795	0.075	157959	keystroke	r	n/a
79.0995	0.075	158199	keystroke	o	n/a
79.714	0.09	159428	keystroke	s	n/a
80.03	0.074	160060	keystroke	p	n/a
80.854	0.06	161708	keystroke	e	n/a
81.034	0.105	162068	keystroke	c	n/a
81.364	0.075	162728	keystroke	t	n/a
81.424	0.105	162848	keystroke	Key.space	n/a
81.574	0.075	163148	keystroke	i	n/a
81.724	0.061	163448	keystroke	n	n/a
81.814	0.075	163628	keystroke	v	n/a
81.994	0.06	163988	keystroke	e	n/a
82.159	0.105	164318	keystroke	s	n/a
82.369	0.06	164738	keystroke	t	n/a
82.594	0.075	165188	keystroke	o	n/a
82.685	0.044	165370	keystroke	r	n/a
82.789	0.09	165578	keystroke	Key.space	n/a
82.955	0.089	165910	keystroke	d	n/a
83.149	0.061	166298	keystroke	e	n/a
83.374	0.12	166748	keystroke	b	n/a
83.629	0.06	167258	keystroke	i	n/a
83.78	0.059	167560	keystroke	a	n/a
83.869	0.075	167738	keystroke	n	n/a
84.274	0.09	168548	keystroke	Key.enter	n/a
84.3685	8.4425	168737	prompt	n/a	immunology grade classroom austria\n
85.219	0.075	170438	keystroke	i	n/a
85.684	0.046	171368	keystroke	m	n/a
85.834	0.075	171668	keystroke	m	n/a
86.089	0.06	172178	keystroke	u	n/a
86.239	0.105	172478	keystroke	n	n/a
86.389	0.076	172778	keystroke	o	n/a
86.644	0.105	173288	keystroke	l	n/a
86.855	0.074	173710	keystroke	o	n/a
87.109	0.06	174218	keystroke	g	n/a
87.214	0.091	174428	keystroke	y	n/a
87.574	0.09	175148	keystroke	Key.space	n/a
87.919	0.091	175838	keystroke	g	n/a
88.205	0.089	176410	keystroke	r	n/a
88.324	0.106	176648	keystroke	a	n/a
88.52	0.074	177040	keystroke	d	n/a
88.714	0.046	177428	keystroke	e	n/a
88.774	0.106	177548	keystroke	Key.space	n/a
88.985	0.09	177970	keystroke	c	n/a
89.059	0.106	178118	keystroke	l	n/a
89.195	0.105	178390	keystroke	a	n/a
89.42	0.044	178840	keystroke	s	n/a
89.539	0.121	179078	keystroke	s	n/a
90.23	0.06	180460	keystroke	r	n/a
90.634	0.046	181268	keystroke	o	n/a
90.785	0.075	181570	keystroke	o	n/a
91.115	0.075	182230	keystroke	m	n/a
91.28	0.104	182560	keystroke	Key.space	n/a
91.61	0.075	183220	keystroke	a	n/a
91.82	0.074	183640	keystroke	u	n/a
91.97	0.12	183940	keystroke	s	n/a
92.195	0.06	184390	keystroke	t	n/a
92.314	0.091	184628	keystroke	r	n/a
92.435	0.12	184870	keystroke	a	n/a
92.705	0.104	185410	keystroke	Key.enter	n/a
92.814	10.842	185628	prompt	n/a	bufing badge cure strategic\n
94.9115	0.001	189823	keystroke	b	n/a
95.0595	0.06	190119	keystroke	u	n/a
95.6145	0.075	191229	keystroke	f	n/a
96.409	0.075	192818	keystroke	i	n/a
96.604	0.075	193208	keystroke	n	n/a
96.724	0.06	193448	keystroke	g	n/a
96.964	0.105	193928	keystroke	Key.space	n/a
97.279	0.075	194558	keystroke	b	n/a
97.429	0.075	194858	keystroke	a	n/a
97.594	0.09	195188	keystroke	d	n/a
97.954	0.075	195908	keystroke	g	n/a
98.3145	0.0295	196629	keystroke	e	n/a
98.869	0.09	197738	keystroke	Key.space	n/a
99.079	0.09	198158	keystroke	c	n/a
99.184	0.045	198368	keystroke	u	n/a
99.664	0.06	199328	keystroke	r	n/a
99.79	0.054	199580	keystroke	e	n/a
100.324	0.09	200648	keystroke	Key.space	n/a
100.639	0.075	201278	keystroke	s	n/a
100.849	0.045	201698	keystroke	t	n/a
100.954	0.075	201908	keystroke	r	n/a
101.824	0.045	203648	keystroke	a	n/a
102.094	0.06	204188	keystroke	t	n/a
102.229	0.075	204458	keystroke	e	n/a
102.469	0.075	204938	keystroke	g	n/a
102.634	0.075	205268	keystroke	i	n/a
102.784	0.075	205568	keystroke	c	n/a
103.564	0.09	207128	keystroke	Key.enter	n/a
103.6595	10.1365	207319	prompt	n/a	arrangements optimum weather iraqi\n
104.464	0.09	208928	keystroke	a	n/a
104.614	0.09	209228	keystroke	r	n/a
104.764	0.09	209528	keystroke	r	n/a
104.929	0.105	209858	keystroke	a	n/a
105.049	0.075	210098	keystroke	n	n/a
105.229	0.075	210458	keystroke	g	n/a
106.369	0.061	212738	keystroke	e	n/a
106.624	0.076	213248	keystroke	m	n/a
106.73	0.074	213460	keystroke	e	n/a
106.834	0.075	213668	keystroke	n	n/a
106.969	0.075	213938	keystroke	t	n/a
107.194	0.09	214388	keystroke	s	n/a
107.285	0.104	214570	keystroke	Key.space	n/a
107.524	0.15	215048	keystroke	o	n/a
107.644	0.105	215288	keystroke	p	n/a
107.854	0.076	215708	keystroke	t	n/a
108.2	0.074	216400	keystroke	i	n/a
108.469	0.075	216938	keystroke	m	n/a
108.694	0.075	217388	keystroke	u	n/a
108.889	0.091	217778	keystroke	m	n/a
109.084	0.09	218168	keystroke	Key.space	n/a
109.894	0.061	219788	keystroke	w	n/a
110.029	0.09	220058	keystroke	e	n/a
110.164	0.135	220328	keystroke	a	n/a
110.374	0.06	220748	keystroke	t	n/a
110.48	0.089	220960	keystroke	h	n/a
110.554	0.121	221108	keystroke	e	n/a
110.629	0.076	221258	keystroke	r	n/a
110.705	0.104	221410	keystroke	Key.space	n/a
110.9	0.059	221800	keystroke	i	n/a
111.259	0.06	222518	keystroke	r	n/a
111.755	0.089	223510	keystroke	a	n/a
112.084	0.075	224168	keystroke	q	n/a
112.399	0.06	224798	keystroke	i	n/a
113.719	0.075	227438	keystroke	Key.enter	n/a
113.799	8.3825	227598	prompt	n/a	buddy allah kirk restoration\n
114.859	0.06	229718	keystroke	b	n/a
114.98	0.075	229960	keystroke	u	n/a
115.115	0.075	230230	keystroke	d	n/a
115.28	0.09	230560	keystroke	d	n/a
115.4	0.075	230800	keystroke	y	n/a
115.639	0.09	231278	keystroke	Key.space	n/a
116.075	0.059	232150	keystroke	a	n/a
116.209	0.061	232418	keystroke	l	n/a
116.375	0.075	232750	keystroke	l	n/a
116.509	0.076	233018	keystroke	a	n/a
116.66	0.029	233320	keystroke	h	n/a
117.064	0.06	234128	keystroke	Key.space	n/a
117.365	0.059	234730	keystroke	k	n/a
118.13	0.059	236260	keystroke	i	n/a
118.25	0.06	236500	keystroke	r	n/a
118.37	0.06	236740	keystroke	k	n/a
119.464	0.105	238928	keystroke	Key.space	n/a
119.72	0.075	239440	keystroke	r	n/a
119.855	0.059	239710	keystroke	e	n/a
120.019	0.091	240038	keystroke	s	n/a
120.275	0.059	240550	keystroke	t	n/a
120.395	0.09	240790	keystroke	o	n/a
120.5	0.089	241000	keystroke	r	n/a
120.95	0.09	241900	keystroke	a	n/a
121.115	0.09	242230	keystroke	t	n/a
121.175	0.15	242350	keystroke	i	n/a
121.235	0.134	242470	keystroke	o	n/a
121.415	0.09	242830	keystroke	n	n/a
122.09	0.09	244180	keystroke	Key.enter	n/a
122.193	8.3725	244386	prompt	n/a	participating mental induced recommends\n
122.96	0.089	245920	keystroke	p	n/a
123.26	0.075	246520	keystroke	a	n/a
123.41	0.09	246820	keystroke	r	n/a
123.74	0.06	247480	keystroke	t	n/a
123.83	0.089	247660	keystroke	i	n/a
124.07	0.06	248140	keystroke	c	n/a
124.16	0.06	248320	keystroke	i	n/a
124.4	0.075	248800	keystroke	p	n/a
124.52	0.09	249040	keystroke	a	n/a
124.7	0.075	249400	keystroke	t	n/a
124.775	0.09	249550	keystroke	i	n/a
124.94	0.09	249880	keystroke	n	n/a
125.045	0.075	250090	keystroke	g	n/a
125.165	0.059	250330	keystroke	Key.space	n/a
125.3	0.06	250600	keystroke	m	n/a
125.45	0.075	250900	keystroke	e	n/a
125.6	0.075	251200	keystroke	n	n/a
125.93	0.045	251860	keystroke	t	n/a
126.14	0.075	252280	keystroke	a	n/a
126.245	0.105	252490	keystroke	l	n/a
126.41	0.105	252820	keystroke	Key.space	n/a
126.65	0.075	253300	keystroke	i	n/a
126.815	0.075	253630	keystroke	n	n/a
126.935	0.075	253870	keystroke	d	n/a
127.055	0.075	254110	keystroke	u	n/a
127.205	0.0745	254410	keystroke	c	n/a
127.4295	0.06	254859	keystroke	e	n/a
127.6245	0.075	255249	keystroke	d	n/a
127.7445	0.12	255489	keystroke	Key.space	n/a
128.345	0.03	256690	keystroke	r	n/a
128.435	0.075	256870	keystroke	e	n/a
128.705	0.075	257410	keystroke	c	n/a
128.81	0.075	257620	keystroke	o	n/a
128.99	0.06	257980	keystroke	m	n/a
129.14	0.09	258280	keystroke	m	n/a
129.275	0.0745	258550	keystroke	e	n/a
129.3795	0.06	258759	keystroke	n	n/a
129.875	0.075	259750	keystroke	d	n/a
130.025	0.09	260050	keystroke	s	n/a
130.5045	0.06	261009	keystroke	Key.enter	n/a
130.569	8.8615	261138	prompt	n/a	actor worried hyundai comics\n
131.3595	0.075	262719	keystroke	a	n/a
131.5095	0.12	263019	keystroke	c	n/a
131.9145	0.075	263829	keystroke	t	n/a
132.0345	0.09	264069	keystroke	o	n/a
132.1545	0.045	264309	keystroke	r	n/a
132.4095	0.105	264819	keystroke	Key.space	n/a
132.6495	0.12	265299	keystroke	w	n/a
132.8445	0.09	265689	keystroke	o	n/a
133.2945	0.045	266589	keystroke	r	n/a
133.4295	0.075	266859	keystroke	r	n/a
133.5795	0.06	267159	keystroke	i	n/a
133.6545	0.06	267309	keystroke	e	n/a
133.8795	0.06	267759	keystroke	d	n/a
133.9545	0.075	267909	keystroke	Key.space	n/a
134.8395	0.09	269679	keystroke	h	n/a
135.0195	0.045	270039	keystroke	y	n/a
135.1995	0.06	270399	keystroke	u	n/a
135.7995	0.15	271599	keystroke	l	n/a
136.4145	0.06	272829	keystroke	Key.backspace	n/a
136.6845	0.045	273369	keystroke	n	n/a
136.8945	0.105	273789	keystroke	d	n/a
137.1495	0.03	274299	keystroke	a	n/a
137.2095	0.06	274419	keystroke	i	n/a
138.0045	0.105	276009	keystroke	Key.space	n/a
138.1545	0.09	276309	keystroke	c	n/a
138.2295	0.075	276459	keystroke	o	n/a
138.4095	0.105	276819	keystroke	m	n/a
138.5295	0.075	277059	keystroke	i	n/a
138.6495	0.075	277299	keystroke	c	n/a
138.8445	0.075	277689	keystroke	s	n/a
139.3395	0.09	278679	keystroke	Key.enter	n/a
139.434	10.122	278868	prompt	n/a	indirect hull citation israeli\n
140.4645	0.06	280929	keystroke	i	n/a
140.6295	0.045	281259	keystroke	n	n/a
140.7495	0.03	281499	keystroke	d	n/a
141.1845	0.075	282369	keystroke	i	n/a
141.4245	0.06	282849	keystroke	r	n/a
141.5295	0.075	283059	keystroke	e	n/a
141.8145	0.045	283629	keystroke	c	n/a
142.1145	0.075	284229	keystroke	t	n/a
142.2045	0.075	284409	keystroke	Key.space	n/a
142.4145	0.09	284829	keystroke	h	n/a
142.5945	0.075	285189	keystroke	u	n/a
142.8495	0.03	285699	keystroke	l	n/a
142.9845	0.09	285969	keystroke	l	n/a
143.1195	0.12	286239	keystroke	Key.space	n/a
143.2695	0.09	286539	keystroke	c	n/a
143.3295	0.075	286659	keystroke	i	n/a
143.6145	0.09	287229	keystroke	t	n/a
143.7645	0.15	287529	keystroke	a	n/a
143.8845	0.09	287769	keystroke	t	n/a
144.0495	0.18	288099	keystroke	i	n/a
144.1395	0.12	288279	keystroke	o	n/a
144.3495	0.06	288699	keystroke	n	n/a
144.4695	0.09	288939	keystroke	Key.space	n/a
144.5745	0.105	289149	keystroke	i	n/a
144.7545	0.09	289509	keystroke	s	n/a
145.9245	0.06	291849	keystroke	r	n/a
146.2245	0.075	292449	keystroke	a	n/a
147.5295	0.045	295059	keystroke	e	n/a
147.6945	0.105	295389	keystroke	l	n/a
147.9045	0.075	295809	keystroke	i	n/a
149.4945	0.06	298989	keystroke	Key.enter	n/a
149.559	7.1965	299118	prompt	n/a	hobbies senior managers entry\n
150.4395	0.135	300879	keystroke	h	n/a
150.5595	0.105	301119	keystroke	o	n/a
150.7695	0.06	301539	keystroke	b	n/a
150.9345	0.045	301869	keystroke	b	n/a
151.1145	0.045	302229	keystroke	i	n/a
151.2495	0.06	302499	keystroke	e	n/a
151.4295	0.06	302859	keystroke	s	n/a
151.6995	0.105	303399	keystroke	Key.space	n/a
151.8345	0.075	303669	keystroke	s	n/a
152.0895	0.03	304179	keystroke	e	n/a
152.1945	0.06	304389	keystroke	n	n/a
152.6295	0.135	305259	keystroke	i	n/a
152.7345	0.09	305469	keystroke	o	n/a
152.8695	0.06	305739	keystroke	r	n/a
153.4545	0.105	306909	keystroke	Key.space	n/a
153.6345	0.06	307269	keystroke	m	n/a
153.7695	0.03	307539	keystroke	a	n/a
153.8445	0.06	307689	keystroke	n	n/a
153.9645	0.09	307929	keystroke	a	n/a
154.2345	0.045	308469	keystroke	g	n/a
154.4145	0.12	308829	keystroke	e	n/a
154.5045	0.075	309009	keystroke	r	n/a
155.4795	0.075	310959	keystroke	s	n/a
155.5995	0.105	311199	keystroke	Key.space	n/a
155.7795	0.045	311559	keystroke	e	n/a
155.8545	0.105	311709	keystroke	n	n/a
155.9745	0.075	311949	keystroke	t	n/a
156.1245	0.075	312249	keystroke	r	n/a
156.2445	0.075	312489	keystroke	y	n/a
156.7095	0.045	313419	keystroke	Key.enter	n/a
156.761	8.008	313522	prompt	n/a	attempting balanced romania topics\n
157.4595	0.06	314919	keystroke	a	n/a
157.6545	0.06	315309	keystroke	t	n/a
157.8045	0.09	315609	keystroke	t	n/a
158.284	0.045	316568	keystroke	e	n/a
158.449	0.1355	316898	keystroke	m	n/a
158.614	0.12	317228	keystroke	p	n/a
158.794	0.0755	317588	keystroke	t	n/a
158.884	0.09	317768	keystroke	i	n/a
159.0495	0.1045	318099	keystroke	n	n/a
159.169	0.0755	318338	keystroke	g	n/a
159.2145	0.09	318429	keystroke	Key.space	n/a
159.4395	0.075	318879	keystroke	b	n/a
159.859	0.06	319718	keystroke	a	n/a
159.949	0.12	319898	keystroke	l	n/a
160.084	0.0755	320168	keystroke	a	n/a
160.2045	0.03	320409	keystroke	n	n/a
160.9845	0.0895	321969	keystroke	c	n/a
161.164	0.075	322328	keystroke	e	n/a
161.374	0.06	322748	keystroke	d	n/a
161.479	0.105	322958	keystroke	Key.space	n/a
161.824	0.06	323648	keystroke	r	n/a
161.9145	0.0895	323829	keystroke	o	n/a
162.064	0.105	324128	keystroke	m	n/a
162.184	0.09	324368	keystroke	a	n/a
162.319	0.075	324638	keystroke	n	n/a
162.875	0.074	325750	keystroke	i	n/a
163.024	0.075	326048	keystroke	a	n/a
163.219	0.12	326438	keystroke	Key.space	n/a
163.519	0.075	327038	keystroke	t	n/a
163.654	0.09	327308	keystroke	o	n/a
163.714	0.15	327428	keystroke	p	n/a
164.059	0.09	328118	keystroke	i	n/a
164.164	0.075	328328	keystroke	c	n/a
164.345	0.089	328690	keystroke	s	n/a
164.674	0.09	329348	keystroke	Key.enter	n/a
164.769	8.142	329538	prompt	n/a	jaguar richmond broker habits\n
165.859	0.091	331718	keystroke	j	n/a
165.994	0.075	331988	keystroke	a	n/a
166.579	0.06	333158	keystroke	g	n/a
166.939	0.061	333878	keystroke	u	n/a
167.059	0.091	334118	keystroke	a	n/a
167.314	0.06	334628	keystroke	r	n/a
167.569	0.12	335138	keystroke	Key.space	n/a
168.274	0.06	336548	keystroke	r	n/a
168.394	0.105	336788	keystroke	i	n/a
168.544	0.06	337088	keystroke	c	n/a
168.634	0.045	337268	keystroke	h	n/a
168.844	0.135	337688	keystroke	m	n/a
168.98	0.12	337960	keystroke	o	n/a
169.145	0.074	338290	keystroke	n	n/a
169.249	0.06	338498	keystroke	d	n/a
169.354	0.09	338708	keystroke	Key.space	n/a
169.579	0.075	339158	keystroke	b	n/a
169.699	0.06	339398	keystroke	r	n/a
169.804	0.06	339608	keystroke	o	n/a
169.999	0.075	339998	keystroke	k	n/a
170.104	0.135	340208	keystroke	e	n/a
170.254	0.075	340508	keystroke	r	n/a
171.649	0.075	343298	keystroke	Key.space	n/a
171.874	0.06	343748	keystroke	h	n/a
171.965	0.059	343930	keystroke	a	n/a
172.054	0.075	344108	keystroke	b	n/a
172.249	0.076	344498	keystroke	i	n/a
172.339	0.09	344678	keystroke	t	n/a
172.594	0.09	345188	keystroke	s	n/a
172.834	0.075	345668	keystroke	Key.enter	n/a
172.9145	8.757	345829	prompt	n/a	pound vary nurse japan\n
173.599	0.076	347198	keystroke	p	n/a
174.034	0.12	348068	keystroke	o	n/a
174.229	0.091	348458	keystroke	u	n/a
174.409	0.09	348818	keystroke	n	n/a
174.529	0.075	349058	keystroke	d	n/a
174.679	0.09	349358	keystroke	Key.space	n/a
175.07	0.089	350140	keystroke	v	n/a
175.354	0.076	350708	keystroke	a	n/a
175.52	0.059	351040	keystroke	r	n/a
175.655	0.074	351310	keystroke	y	n/a
176.089	0.075	352178	keystroke	Key.space	n/a
176.885	0.09	353770	keystroke	n	n/a
177.035	0.089	354070	keystroke	u	n/a
177.185	0.074	354370	keystroke	r	n/a
177.47	0.089	354940	keystroke	s	n/a
177.679	0.046	355358	keystroke	e	n/a
178.204	0.075	356408	keystroke	Key.space	n/a
178.385	0.075	356770	keystroke	j	n/a
178.655	0.075	357310	keystroke	p	n/a
179.06	0.06	358120	keystroke	Key.backspace	n/a
179.285	0.075	358570	keystroke	a	n/a
179.6	0.06	359200	keystroke	p	n/a
180.364	0.031	360728	keystroke	a	n/a
180.455	0.075	360910	keystroke	n	n/a
181.61	0.06	363220	keystroke	Key.enter	n/a
181.6745	9.342	363349	prompt	n/a	produce volunteer margaret fair\n
182.525	0.075	365050	keystroke	p	n/a
182.645	0.075	365290	keystroke	r	n/a
182.75	0.105	365500	keystroke	o	n/a
183.515	0.09	367030	keystroke	d	n/a
183.665	0.075	367330	keystroke	u	n/a
183.755	0.105	367510	keystroke	c	n/a
183.995	0.045	367990	keystroke	e	n/a
184.145	0.12	368290	keystroke	Key.space	n/a
184.37	0.06	368740	keystroke	v	n/a
184.595	0.06	369190	keystroke	o	n/a
184.76	0.105	369520	keystroke	l	n/a
184.985	0.075	369970	keystroke	u	n/a
185.21	0.06	370420	keystroke	n	n/a
185.42	0.075	370840	keystroke	t	n/a
185.69	0.09	371380	keystroke	e	n/a
185.84	0.09	371680	keystroke	e	n/a
185.96	0.09	371920	keystroke	r	n/a
186.14	0.105	372280	keystroke	Key.space	n/a
186.275	0.105	372550	keystroke	m	n/a
186.455	0.015	372910	keystroke	a	n/a
186.665	0.015	373330	keystroke	r	n/a
187.265	0.06	374530	keystroke	g	n/a
187.43	0.09	374860	keystroke	a	n/a
187.73	0.06	375460	keystroke	r	n/a
187.925	0.06	375850	keystroke	e	n/a
188.525	0.06	377050	keystroke	t	n/a
188.75	0.135	377500	keystroke	Key.space	n/a
188.99	0.105	377980	keystroke	f	n/a
189.155	0.06	378310	keystroke	a	n/a
189.275	0.06	378550	keystroke	i	n/a
189.395	0.045	378790	keystroke	r	n/a
190.925	0.09	381850	keystroke	Key.enter	n/a
191.019	8.6225	382038	prompt	n/a	postal attempted pittsburgh decimal\n
192.035	0.075	384070	keystroke	p	n/a
192.23	0.06	384460	keystroke	o	n/a
192.32	0.105	384640	keystroke	s	n/a
192.56	0.06	385120	keystroke	t	n/a
192.74	0.09	385480	keystroke	a	n/a
192.815	0.135	385630	keystroke	l	n/a
192.98	0.105	385960	keystroke	Key.space	n/a
193.16	0.09	386320	keystroke	a	n/a
193.355	0.06	386710	keystroke	t	n/a
193.49	0.075	386980	keystroke	t	n/a
193.67	0.06	387340	keystroke	e	n/a
193.76	0.15	387520	keystroke	m	n/a
193.895	0.09	387790	keystroke	p	n/a
194.015	0.075	388030	keystroke	t	n/a
194.165	0.09	388330	keystroke	e	n/a
194.375	0.06	388750	keystroke	d	n/a
194.48	0.075	388960	keystroke	Key.space	n/a
194.66	0.09	389320	keystroke	p	n/a
194.93	0.03	389860	keystroke	i	n/a
195.305	0.045	390610	keystroke	t	n/a
195.425	0.075	390850	keystroke	t	n/a
195.815	0.075	391630	keystroke	s	n/a
196.325	0.06	392650	keystroke	b	n/a
196.46	0.09	392920	keystroke	u	n/a
196.535	0.045	393070	keystroke	r	n/a
196.925	0.045	393850	keystroke	g	n/a
197	0.075	394000	keystroke	h	n/a
197.525	0.12	395050	keystroke	Key.space	n/a
197.735	0.045	395470	keystroke	d	n/a
197.885	0.06	395770	keystroke	e	n/a
198.08	0.075	396160	keystroke	c	n/a
198.23	0.075	396460	keystroke	i	n/a
198.965	0.12	397930	keystroke	m	n/a
199.16	0.075	398320	keystroke	a	n/a
199.25	0.075	398500	keystroke	l	n/a
199.58	0.06	399160	keystroke	Key.enter	n/a
199.6445	6.311	399289	prompt	n/a	wheel buyers providers slight\n
200.585	0.09	401170	keystroke	w	n/a
200.66	0.105	401320	keystroke	h	n/a
200.795	0.06	401590	keystroke	e	n/a
201.5595	0.06	403119	keystroke	e	n/a
201.6945	0.09	403389	keystroke	l	n/a
201.9195	0.105	403839	keystroke	Key.space	n/a
202.1445	0.06	404289	keystroke	b	n/a
202.2945	0.09	404589	keystroke	u	n/a
202.5195	0.06	405039	keystroke	y	n/a
202.7295	0.09	405459	keystroke	e	n/a
202.8345	0.075	405669	keystroke	r	n/a
203.0445	0.06	406089	keystroke	s	n/a
203.3745	0.075	406749	keystroke	Key.space	n/a
203.5245	0.09	407049	keystroke	p	n/a
203.6295	0.06	407259	keystroke	r	n/a
203.7345	0.06	407469	keystroke	o	n/a
203.8545	0.06	407709	keystroke	v	n/a
203.9745	0.06	407949	keystroke	i	n/a
204.0645	0.105	408129	keystroke	d	n/a
204.2595	0.105	408519	keystroke	e	n/a
204.3645	0.075	408729	keystroke	r	n/a
204.5295	0.075	409059	keystroke	s	n/a
204.8445	0.09	409689	keystroke	Key.space	n/a
204.9195	0.09	409839	keystroke	s	n/a
205.0245	0.075	410049	keystroke	l	n/a
205.1895	0.09	410379	keystroke	i	n/a
205.3095	0.045	410619	keystroke	g	n/a
205.3695	0.09	410739	keystroke	h	n/a
205.5045	0.045	411009	keystroke	t	n/a
205.8945	0.06	411789	keystroke	Key.enter	n/a
205.9585	14.746	411917	prompt	n/a	latitude alarm supposed shoulder\n
206.6445	0.075	413289	keystroke	l	n/a
206.7795	0.075	413559	keystroke	a	n/a
206.9295	0.075	413859	keystroke	t	n/a
207.0495	0.045	414099	keystroke	i	n/a
207.1695	0.06	414339	keystroke	t	n/a
207.7095	0.075	415419	keystroke	u	n/a
207.8595	0.105	415719	keystroke	t	n/a
208.1745	0.075	416349	keystroke	d	n/a
208.3545	0.06	416709	keystroke	e	n/a
208.4895	0.075	416979	keystroke	Key.space	n/a
208.5795	0.075	417159	keystroke	a	n/a
208.6695	0.105	417339	keystroke	l	n/a
208.8345	0.075	417669	keystroke	a	n/a
209.4045	0.06	418809	keystroke	r	n/a
210.0945	0.075	420189	keystroke	Key.backspace	n/a
210.2745	0.075	420549	keystroke	Key.backspace	n/a
210.4545	0.06	420909	keystroke	Key.backspace	n/a
210.6345	0.045	421269	keystroke	Key.backspace	n/a
210.7995	0.06	421599	keystroke	Key.backspace	n/a
210.9795	0.06	421959	keystroke	Key.backspace	n/a
211.1595	0.06	422319	keystroke	Key.backspace	n/a
211.3395	0.06	422679	keystroke	Key.backspace	n/a
211.5345	0.06	423069	keystroke	Key.backspace	n/a
215.167	0.001	430334	keystroke	u	n/a
215.195	0.09	430390	keystroke	d	n/a
215.39	0.075	430780	keystroke	e	n/a
215.615	0.105	431230	keystroke	Key.space	n/a
215.795	0.06	431590	keystroke	a	n/a
215.87	0.09	431740	keystroke	l	n/a
215.99	0.06	431980	keystroke	a	n/a
216.47	0.045	432940	keystroke	r	n/a
216.965	0.06	433930	keystroke	m	n/a
217.22	0.12	434440	keystroke	Key.space	n/a
217.445	0.06	434890	keystroke	s	n/a
217.58	0.075	435160	keystroke	u	n/a
217.82	0.06	435640	keystroke	p	n/a
217.94	0.075	435880	keystroke	p	n/a
218.15	0.06	436300	keystroke	o	n/a
218.405	0.075	436810	keystroke	s	n/a
218.6	0.06	437200	keystroke	e	n/a
218.78	0.075	437560	keystroke	d	n/a
218.915	0.105	437830	keystroke	Key.space	n/a
219.065	0.075	438130	keystroke	s	n/a
219.17	0.105	438340	keystroke	h	n/a
219.26	0.105	438520	keystroke	o	n/a
219.455	0.045	438910	keystroke	u	n/a
219.62	0.075	439240	keystroke	l	n/a
219.725	0.075	439450	keystroke	d	n/a
219.92	0.135	439840	keystroke	e	n/a
220.04	0.075	440080	keystroke	r	n/a
220.64	0.06	441280	keystroke	Key.enter	n/a
220.7045	8.5165	441409	prompt	n/a	billion brings architecture impression\n
222.275	0.075	444550	keystroke	b	n/a
222.44	0.075	444880	keystroke	i	n/a
222.65	0.045	445300	keystroke	l	n/a
222.8	0.105	445600	keystroke	l	n/a
223.07	0.135	446140	keystroke	i	n/a
223.19	0.09	446380	keystroke	o	n/a
223.34	0.09	446680	keystroke	n	n/a
223.58	0.06	447160	keystroke	Key.space	n/a
223.745	0.06	447490	keystroke	b	n/a
223.85	0.075	447700	keystroke	r	n/a
223.9395	0.06	447879	keystroke	i	n/a
224.0745	0.075	448149	keystroke	n	n/a
224.1645	0.06	448329	keystroke	g	n/a
224.3295	0.0755	448659	keystroke	s	n/a
224.45	0.1045	448900	keystroke	Key.space	n/a
224.7045	0.075	449409	keystroke	a	n/a
224.8395	0.06	449679	keystroke	r	n/a
225.1095	0.075	450219	keystroke	c	n/a
225.2145	0.1055	450429	keystroke	h	n/a
225.7545	0.06	451509	keystroke	i	n/a
225.9345	0.06	451869	keystroke	t	n/a
226.2345	0.09	452469	keystroke	e	n/a
226.6095	0.06	453219	keystroke	c	n/a
226.9095	0.06	453819	keystroke	t	n/a
226.9845	0.06	453969	keystroke	u	n/a
227.0745	0.075	454149	keystroke	r	n/a
227.1945	0.075	454389	keystroke	e	n/a
227.3445	0.09	454689	keystroke	Key.space	n/a
227.4795	0.09	454959	keystroke	i	n/a
227.6445	0.12	455289	keystroke	m	n/a
227.7795	0.12	455559	keystroke	p	n/a
227.9295	0.075	455859	keystroke	r	n/a
228.0645	0.075	456129	keystroke	e	n/a
228.2745	0.03	456549	keystroke	s	n/a
228.4095	0.06	456819	keystroke	s	n/a
228.5295	0.12	457059	keystroke	i	n/a
228.5895	0.105	457179	keystroke	o	n/a
228.7545	0.09	457509	keystroke	n	n/a
229.1595	0.06	458319	keystroke	Key.enter	n/a
229.2245	6.327	458449	prompt	n/a	coated new process there's\n
230.0295	0.075	460059	keystroke	c	n/a
230.1645	0.075	460329	keystroke	o	n/a
230.2995	0.075	460599	keystroke	a	n/a
231.0495	0.045	462099	keystroke	t	n/a
231.1695	0.09	462339	keystroke	e	n/a
231.4395	0.075	462879	keystroke	d	n/a
231.8295	0.045	463659	keystroke	Key.space	n/a
231.9945	0.06	463989	keystroke	n	n/a
232.0995	0.09	464199	keystroke	e	n/a
232.3095	0.06	464619	keystroke	w	n/a
232.3845	0.105	464769	keystroke	Key.space	n/a
232.5195	0.075	465039	keystroke	p	n/a
232.6845	0.09	465369	keystroke	r	n/a
232.8195	0.09	465639	keystroke	o	n/a
232.9845	0.09	465969	keystroke	c	n/a
233.1495	0.075	466299	keystroke	e	n/a
233.3295	0.075	466659	keystroke	s	n/a
233.4795	0.09	466959	keystroke	s	n/a
233.6145	0.075	467229	keystroke	Key.space	n/a
233.7795	0.075	467559	keystroke	t	n/a
233.8695	0.075	467739	keystroke	h	n/a
233.9595	0.09	467919	keystroke	e	n/a
234.0345	0.09	468069	keystroke	r	n/a
234.1095	0.075	468219	keystroke	e	n/a
234.4845	0.09	468969	keystroke	'	n/a
234.7095	0.06	469419	keystroke	s	n/a
235.4595	0.09	470919	keystroke	Key.enter	n/a
235.554	6.3875	471108	prompt	n/a	buyers galleries meet kruger\n
236.5845	0.06	473169	keystroke	b	n/a
236.7045	0.075	473409	keystroke	u	n/a
236.8995	0.06	473799	keystroke	y	n/a
237.0045	0.105	474009	keystroke	e	n/a
237.1245	0.075	474249	keystroke	r	n/a
237.3045	0.075	474609	keystroke	s	n/a
237.5145	0.09	475029	keystroke	Key.space	n/a
237.83	0.075	475660	keystroke	g	n/a
238.025	0.06	476050	keystroke	a	n/a
238.13	0.075	476260	keystroke	l	n/a
238.28	0.105	476560	keystroke	l	n/a
238.535	0.045	477070	keystroke	e	n/a
238.76	0.075	477520	keystroke	r	n/a
238.895	0.075	477790	keystroke	i	n/a
239.015	0.06	478030	keystroke	e	n/a
239.21	0.075	478420	keystroke	s	n/a
239.345	0.09	478690	keystroke	Key.space	n/a
239.5105	0.0445	479021	keystroke	m	n/a
239.57	0.06	479140	keystroke	e	n/a
239.735	0.06	479470	keystroke	e	n/a
239.915	0.06	479830	keystroke	t	n/a
240.005	0.09	480010	keystroke	Key.space	n/a
240.23	0.075	480460	keystroke	k	n/a
240.395	0.045	480790	keystroke	r	n/a
241.055	0.045	482110	keystroke	u	n/a
241.16	0.06	482320	keystroke	g	n/a
241.355	0.105	482710	keystroke	e	n/a
241.43	0.09	482860	keystroke	r	n/a
241.865	0.075	483730	keystroke	Key.enter	n/a
241.9445	10.392	483889	prompt	n/a	prophet reasonable poems england\n
242.735	0.09	485470	keystroke	p	n/a
242.84	0.06	485680	keystroke	r	n/a
243.575	0.06	487150	keystroke	o	n/a
243.77	0.09	487540	keystroke	p	n/a
243.98	0.075	487960	keystroke	h	n/a
244.13	0.12	488260	keystroke	e	n/a
244.235	0.075	488470	keystroke	r	n/a
244.4	0.09	488800	keystroke	Key.space	n/a
244.64	0.075	489280	keystroke	r	n/a
244.775	0.09	489550	keystroke	e	n/a
244.94	0.09	489880	keystroke	a	n/a
245.18	0.045	490360	keystroke	s	n/a
245.585	0.06	491170	keystroke	Key.backspace	n/a
245.75	0.045	491500	keystroke	Key.backspace	n/a
245.915	0.06	491830	keystroke	Key.backspace	n/a
246.08	0.06	492160	keystroke	Key.backspace	n/a
246.26	0.06	492520	keystroke	Key.backspace	n/a
246.74	0.06	493480	keystroke	Key.backspace	n/a
246.935	0.075	493870	keystroke	t	n/a
247.13	0.075	494260	keystroke	Key.space	n/a
247.475	0.06	494950	keystroke	r	n/a
247.595	0.06	495190	keystroke	e	n/a
247.745	0.075	495490	keystroke	a	n/a
248.42	0.06	496840	keystroke	s	n/a
248.51	0.09	497020	keystroke	o	n/a
248.675	0.075	497350	keystroke	n	n/a
248.765	0.06	497530	keystroke	a	n/a
248.885	0.06	497770	keystroke	b	n/a
249.035	0.12	498070	keystroke	l	n/a
249.14	0.075	498280	keystroke	e	n/a
249.2	0.135	498400	keystroke	Key.space	n/a
249.335	0.075	498670	keystroke	p	n/a
249.545	0.06	499090	keystroke	o	n/a
249.68	0.06	499360	keystroke	e	n/a
249.815	0.06	499630	keystroke	m	n/a
249.95	0.075	499900	keystroke	s	n/a
250.25	0.09	500500	keystroke	Key.space	n/a
250.58	0.06	501160	keystroke	e	n/a
250.685	0.075	501370	keystroke	n	n/a
250.805	0.075	501610	keystroke	g	n/a
251.09	0.09	502180	keystroke	l	n/a
251.225	0.075	502450	keystroke	a	n/a
251.315	0.09	502630	keystroke	n	n/a
251.42	0.06	502840	keystroke	d	n/a
252.26	0.075	504520	keystroke	Key.enter	n/a
252.3415	11.8905	504683	prompt	n/a	searched bangkok examined document\n
253.145	0.045	506290	keystroke	s	n/a
253.28	0.075	506560	keystroke	e	n/a
253.415	0.12	506830	keystroke	a	n/a
253.625	0.105	507250	keystroke	r	n/a
254.195	0.06	508390	keystroke	c	n/a
254.33	0.075	508660	keystroke	h	n/a
254.435	0.06	508870	keystroke	e	n/a
254.645	0.045	509290	keystroke	d	n/a
254.75	0.06	509500	keystroke	Key.space	n/a
254.93	0.06	509860	keystroke	b	n/a
255.59	0.06	511180	keystroke	a	n/a
256.3855	0.075	512771	keystroke	n	n/a
256.5195	0.06	513039	keystroke	g	n/a
256.8045	0.076	513609	keystroke	k	n/a
257.0295	0.076	514059	keystroke	o	n/a
257.2395	0.076	514479	keystroke	k	n/a
257.6145	0.09	515229	keystroke	Key.space	n/a
257.7645	0.06	515529	keystroke	e	n/a
258.0355	0.075	516071	keystroke	x	n/a
258.9945	0.06	517989	keystroke	a	n/a
259.1445	0.091	518289	keystroke	m	n/a
259.2805	0.09	518561	keystroke	i	n/a
259.4295	0.09	518859	keystroke	n	n/a
259.5355	0.059	519071	keystroke	e	n/a
259.7445	0.045	519489	keystroke	d	n/a
260.5855	0.075	521171	keystroke	d	n/a
260.6905	0.09	521381	keystroke	o	n/a
260.8245	0.076	521649	keystroke	c	n/a
260.9305	0.06	521861	keystroke	u	n/a
261.3195	0.06	522639	keystroke	Key.backspace	n/a
261.4855	0.059	522971	keystroke	Key.backspace	n/a
261.6495	0.061	523299	keystroke	Key.backspace	n/a
261.8145	0.06	523629	keystroke	Key.backspace	n/a
262.7895	0.105	525579	keystroke	Key.space	n/a
263.0305	0.06	526061	keystroke	d	n/a
263.2105	0.075	526421	keystroke	o	n/a
263.3605	0.075	526721	keystroke	c	n/a
263.4505	0.044	526901	keystroke	u	n/a
263.6155	0.09	527231	keystroke	m	n/a
263.7205	0.045	527441	keystroke	e	n/a
263.8255	0.06	527651	keystroke	n	n/a
263.9155	0.06	527831	keystroke	t	n/a
264.1855	0.044	528371	keystroke	Key.enter	n/a
264.2345	8.742	528469	prompt	n/a	critics theaters occasion alike\n
265.0555	0.075	530111	keystroke	c	n/a
265.2945	0.046	530589	keystroke	r	n/a
265.7755	0.075	531551	keystroke	i	n/a
265.91	0.06	531820	keystroke	t	n/a
266	0.06	532000	keystroke	i	n/a
266.195	0.075	532390	keystroke	c	n/a
266.405	0.09	532810	keystroke	s	n/a
266.555	0.105	533110	keystroke	Key.space	n/a
266.75	0.06	533500	keystroke	t	n/a
266.825	0.075	533650	keystroke	h	n/a
266.93	0.09	533860	keystroke	e	n/a
267.14	0.09	534280	keystroke	a	n/a
267.26	0.075	534520	keystroke	t	n/a
268.22	0.09	536440	keystroke	e	n/a
268.295	0.06	536590	keystroke	r	n/a
268.505	0.075	537010	keystroke	s	n/a
268.715	0.09	537430	keystroke	Key.space	n/a
268.94	0.105	537880	keystroke	o	n/a
269.06	0.06	538120	keystroke	c	n/a
269.765	0.075	539530	keystroke	c	n/a
270.02	0.075	540040	keystroke	a	n/a
270.29	0.075	540580	keystroke	s	n/a
270.44	0.18	540880	keystroke	i	n/a
270.53	0.12	541060	keystroke	o	n/a
271.6845	0.075	543369	keystroke	n	n/a
271.8645	0.09	543729	keystroke	Key.space	n/a
272.0595	0.06	544119	keystroke	a	n/a
272.1345	0.105	544269	keystroke	l	n/a
272.3145	0.045	544629	keystroke	i	n/a
272.4795	0.09	544959	keystroke	k	n/a
272.5695	0.045	545139	keystroke	e	n/a
272.9145	0.06	545829	keystroke	Key.enter	n/a
272.9795	8.382	545959	prompt	n/a	reject spots neil what're\n
273.8445	0.06	547689	keystroke	r	n/a
274.0095	0.075	548019	keystroke	e	n/a
274.3845	0.075	548769	keystroke	j	n/a
274.4745	0.061	548949	keystroke	e	n/a
274.6545	0.075	549309	keystroke	c	n/a
274.9395	0.06	549879	keystroke	t	n/a
275.0145	0.12	550029	keystroke	Key.space	n/a
275.1645	0.09	550329	keystroke	s	n/a
275.2395	0.09	550479	keystroke	p	n/a
275.4345	0.075	550869	keystroke	o	n/a
275.6895	0.06	551379	keystroke	t	n/a
275.9145	0.09	551829	keystroke	s	n/a
276.2745	0.09	552549	keystroke	Key.space	n/a
276.4245	0.09	552849	keystroke	n	n/a
276.5595	0.09	553119	keystroke	a	n/a
276.6345	0.105	553269	keystroke	i	n/a
277.0095	0.09	554019	keystroke	Key.backspace	n/a
277.2045	0.09	554409	keystroke	Key.backspace	n/a
277.3845	0.075	554769	keystroke	e	n/a
277.5045	0.06	555009	keystroke	i	n/a
277.6995	0.09	555399	keystroke	l	n/a
278.0295	0.09	556059	keystroke	Key.space	n/a
278.3745	0.061	556749	keystroke	w	n/a
279.2895	0.075	558579	keystroke	h	n/a
279.5445	0.09	559089	keystroke	a	n/a
279.7695	0.03	559539	keystroke	t	n/a
280.2345	0.06	560469	keystroke	'	n/a
280.4445	0.045	560889	keystroke	r	n/a
280.8045	0.06	561609	keystroke	e	n/a
281.2695	0.09	562539	keystroke	Key.enter	n/a
281.3645	7.272	562729	prompt	n/a	derby double arrive bought\n
282.4545	0.075	564909	keystroke	d	n/a
282.6495	0.105	565299	keystroke	e	n/a
282.7695	0.06	565539	keystroke	r	n/a
282.9045	0.09	565809	keystroke	b	n/a
283.1445	0.045	566289	keystroke	y	n/a
284.1195	0.09	568239	keystroke	Key.space	n/a
284.2545	0.06	568509	keystroke	d	n/a
284.3445	0.12	568689	keystroke	o	n/a
284.5245	0.09	569049	keystroke	u	n/a
284.7345	0.06	569469	keystroke	b	n/a
285.6045	0.09	571209	keystroke	l	n/a
285.7245	0.06	571449	keystroke	e	n/a
285.9045	0.09	571809	keystroke	Key.space	n/a
286.1745	0.09	572349	keystroke	a	n/a
286.3695	0.06	572739	keystroke	r	n/a
286.4895	0.105	572979	keystroke	r	n/a
286.6695	0.045	573339	keystroke	i	n/a
286.7605	0.089	573521	keystroke	v	n/a
286.9845	0.045	573969	keystroke	e	n/a
287.45	0.09	574900	keystroke	Key.space	n/a
287.69	0.06	575380	keystroke	b	n/a
287.795	0.075	575590	keystroke	o	n/a
287.96	0.075	575920	keystroke	u	n/a
288.05	0.045	576100	keystroke	g	n/a
288.125	0.075	576250	keystroke	h	n/a
288.26	0.045	576520	keystroke	t	n/a
288.56	0.075	577120	keystroke	Key.enter	n/a
288.6395	8.6375	577279	prompt	n/a	tier continued permitted ferry\n
289.46	0.075	578920	keystroke	t	n/a
289.7	0.075	579400	keystroke	i	n/a
289.835	0.135	579670	keystroke	e	n/a
289.94	0.09	579880	keystroke	r	n/a
290.315	0.09	580630	keystroke	Key.space	n/a
290.435	0.075	580870	keystroke	d	n/a
290.555	0.135	581110	keystroke	o	n/a
291.035	0.06	582070	keystroke	n	n/a
291.44	0.045	582880	keystroke	Key.backspace	n/a
291.59	0.06	583180	keystroke	Key.backspace	n/a
291.725	0.075	583450	keystroke	Key.backspace	n/a
291.95	0.06	583900	keystroke	c	n/a
292.025	0.075	584050	keystroke	o	n/a
292.205	0.045	584410	keystroke	n	n/a
293.015	0.06	586030	keystroke	t	n/a
293.105	0.075	586210	keystroke	i	n/a
293.285	0.075	586570	keystroke	n	n/a
293.45	0.06	586900	keystroke	u	n/a
293.54	0.06	587080	keystroke	e	n/a
293.72	0.075	587440	keystroke	d	n/a
293.975	0.09	587950	keystroke	Key.space	n/a
294.185	0.105	588370	keystroke	p	n/a
294.275	0.12	588550	keystroke	e	n/a
294.365	0.09	588730	keystroke	r	n/a
294.575	0.09	589150	keystroke	m	n/a
294.725	0.075	589450	keystroke	i	n/a
295.34	0.045	590680	keystroke	t	n/a
295.475	0.06	590950	keystroke	t	n/a
295.61	0.09	591220	keystroke	e	n/a
295.82	0.075	591640	keystroke	d	n/a
295.94	0.105	591880	keystroke	Key.space	n/a
296.105	0.075	592210	keystroke	f	n/a
296.39	0.075	592780	keystroke	e	n/a
296.555	0.075	593110	keystroke	r	n/a
296.705	0.075	593410	keystroke	r	n/a
296.825	0.09	593650	keystroke	y	n/a
297.2	0.0745	594400	keystroke	Key.enter	n/a
297.28	7.0465	594560	prompt	n/a	either greece coach definitely\n
297.9795	0.045	595959	keystroke	e	n/a
298.2195	0.09	596439	keystroke	i	n/a
298.3395	0.075	596679	keystroke	t	n/a
298.4595	0.06	596919	keystroke	h	n/a
298.5045	0.105	597009	keystroke	e	n/a
298.5645	0.09	597129	keystroke	r	n/a
298.6695	0.12	597339	keystroke	Key.space	n/a
298.9395	0.06	597879	keystroke	g	n/a
299.1795	0.045	598359	keystroke	r	n/a
299.2845	0.075	598569	keystroke	e	n/a
299.4345	0.075	598869	keystroke	e	n/a
299.7195	0.09	599439	keystroke	c	n/a
299.9145	0.075	599829	keystroke	e	n/a
300.0195	0.12	600039	keystroke	Key.space	n/a
300.2295	0.09	600459	keystroke	c	n/a
300.3345	0.09	600669	keystroke	o	n/a
300.4995	0.06	600999	keystroke	a	n/a
300.7395	0.045	601479	keystroke	c	n/a
300.9645	0.09	601929	keystroke	h	n/a
301.2345	0.09	602469	keystroke	Key.space	n/a
301.4295	0.06	602859	keystroke	d	n/a
301.6245	0.045	603249	keystroke	e	n/a
301.7745	0.075	603549	keystroke	f	n/a
301.9395	0.075	603879	keystroke	i	n/a
302.3895	0.105	604779	keystroke	n	n/a
302.5845	0.105	605169	keystroke	i	n/a
302.7045	0.075	605409	keystroke	t	n/a
302.9295	0.03	605859	keystroke	e	n/a
303.3495	0.09	606699	keystroke	l	n/a
303.6945	0.06	607389	keystroke	y	n/a
304.2795	0.045	608559	keystroke	Key.enter	n/a
304.33	9.7315	608660	prompt	n/a	workforce hospital lifestyle confident\n
304.9845	0.09	609969	keystroke	w	n/a
305.1345	0.06	610269	keystroke	o	n/a
305.2245	0.06	610449	keystroke	r	n/a
305.3595	0.075	610719	keystroke	k	n/a
305.6895	0.045	611379	keystroke	f	n/a
306.1395	0.075	612279	keystroke	o	n/a
306.2305	0.075	612461	keystroke	r	n/a
306.5305	0.059	613061	keystroke	c	n/a
306.6805	0.074	613361	keystroke	e	n/a
307.4445	0.105	614889	keystroke	Key.space	n/a
307.6845	0.105	615369	keystroke	h	n/a
307.7595	0.09	615519	keystroke	o	n/a
307.8645	0.091	615729	keystroke	s	n/a
308.1045	0.06	616209	keystroke	p	n/a
308.2995	0.06	616599	keystroke	i	n/a
308.4805	0.059	616961	keystroke	t	n/a
308.6595	0.09	617319	keystroke	a	n/a
308.7505	0.089	617501	keystroke	l	n/a
309.1395	0.12	618279	keystroke	Key.space	n/a
309.2895	0.09	618579	keystroke	l	n/a
309.4695	0.09	618939	keystroke	i	n/a
309.5745	0.06	619149	keystroke	f	n/a
309.9345	0.045	619869	keystroke	e	n/a
310.1745	0.106	620349	keystroke	s	n/a
310.4305	0.059	620861	keystroke	t	n/a
310.8345	0.09	621669	keystroke	y	n/a
311.1195	0.09	622239	keystroke	l	n/a
311.2395	0.075	622479	keystroke	e	n/a
311.5245	0.105	623049	keystroke	Key.space	n/a
311.855	0.09	623710	keystroke	c	n/a
311.915	0.075	623830	keystroke	o	n/a
312.035	0.105	624070	keystroke	n	n/a
312.155	0.075	624310	keystroke	f	n/a
312.26	0.06	624520	keystroke	i	n/a
312.74	0.06	625480	keystroke	d	n/a
313.01	0.03	626020	keystroke	e	n/a
313.16	0.06	626320	keystroke	n	n/a
313.385	0.03	626770	keystroke	t	n/a
313.97	0.09	627940	keystroke	Key.enter	n/a
314.0645	9.387	628129	prompt	n/a	antivirus pleasure swiss distant\n
315.02	0.075	630040	keystroke	a	n/a
315.125	0.045	630250	keystroke	n	n/a
315.41	0.045	630820	keystroke	t	n/a
315.56	0.06	631120	keystroke	i	n/a
316.13	0.045	632260	keystroke	v	n/a
316.25	0.045	632500	keystroke	i	n/a
316.37	0.045	632740	keystroke	r	n/a
316.88	0.06	633760	keystroke	u	n/a
317.045	0.06	634090	keystroke	s	n/a
317.255	0.105	634510	keystroke	Key.space	n/a
317.39	0.09	634780	keystroke	l	n/a
317.75	0.075	635500	keystroke	Key.backspace	n/a
318.005	0.09	636010	keystroke	p	n/a
318.23	0.09	636460	keystroke	l	n/a
318.335	0.09	636670	keystroke	e	n/a
318.695	0.075	637390	keystroke	s	n/a
319.085	0.045	638170	keystroke	Key.backspace	n/a
319.22	0.075	638440	keystroke	a	n/a
319.745	0.09	639490	keystroke	s	n/a
319.85	0.075	639700	keystroke	u	n/a
320.03	0.045	640060	keystroke	r	n/a
320.465	0.06	640930	keystroke	e	n/a
320.63	0.09	641260	keystroke	Key.space	n/a
320.87	0.06	641740	keystroke	s	n/a
321.125	0.075	642250	keystroke	w	n/a
321.245	0.06	642490	keystroke	i	n/a
321.365	0.075	642730	keystroke	s	n/a
321.56	0.06	643120	keystroke	s	n/a
321.875	0.09	643750	keystroke	Key.space	n/a
322.085	0.06	644170	keystroke	d	n/a
322.235	0.06	644470	keystroke	i	n/a
322.295	0.105	644590	keystroke	s	n/a
322.505	0.06	645010	keystroke	t	n/a
322.625	0.09	645250	keystroke	a	n/a
322.745	0.06	645490	keystroke	n	n/a
322.85	0.075	645700	keystroke	t	n/a
323.375	0.075	646750	keystroke	Key.enter	n/a
323.4545	9.717	646909	prompt	n/a	programmers essay hash cents\n
324.125	0.075	648250	keystroke	p	n/a
324.23	0.045	648460	keystroke	r	n/a
324.335	0.075	648670	keystroke	o	n/a
324.485	0.06	648970	keystroke	g	n/a
324.605	0.075	649210	keystroke	r	n/a
324.785	0.0745	649570	keystroke	a	n/a
324.9195	0.06	649839	keystroke	m	n/a
325.0545	0.075	650109	keystroke	m	n/a
325.5345	0.12	651069	keystroke	e	n/a
325.9245	0.045	651849	keystroke	r	n/a
326.1045	0.075	652209	keystroke	s	n/a
326.2695	0.075	652539	keystroke	Key.space	n/a
326.9445	0.06	653889	keystroke	e	n/a
327.1245	0.06	654249	keystroke	s	n/a
327.2895	0.075	654579	keystroke	s	n/a
327.4695	0.075	654939	keystroke	a	n/a
327.6645	0.06	655329	keystroke	r	n/a
327.7845	0.105	655569	keystroke	y	n/a
327.9945	0.09	655989	keystroke	Key.space	n/a
328.2045	0.06	656409	keystroke	h	n/a
328.2945	0.075	656589	keystroke	a	n/a
328.8945	0.06	657789	keystroke	Key.backspace	n/a
329.0595	0.045	658119	keystroke	Key.backspace	n/a
329.2095	0.06	658419	keystroke	Key.backspace	n/a
329.3745	0.06	658749	keystroke	Key.backspace	n/a
330.2745	0.06	660549	keystroke	Key.backspace	n/a
330.5895	0.075	661179	keystroke	y	n/a
330.9795	0.12	661959	keystroke	Key.space	n/a
331.1745	0.075	662349	keystroke	h	n/a
331.2795	0.075	662559	keystroke	a	n/a
331.4295	0.075	662859	keystroke	s	n/a
331.5195	0.075	663039	keystroke	h	n/a
331.7145	0.105	663429	keystroke	Key.space	n/a
331.8795	0.12	663759	keystroke	c	n/a
332.0745	0.075	664149	keystroke	e	n/a
332.1945	0.075	664389	keystroke	n	n/a
332.3445	0.045	664689	keystroke	t	n/a
332.5845	0.075	665169	keystroke	s	n/a
333.1095	0.06	666219	keystroke	Key.enter	n/a
333.174	8.1425	666348	prompt	n/a	depending decrease connected listings\n
334.0095	0.075	668019	keystroke	d	n/a
334.2045	0.045	668409	keystroke	e	n/a
334.2945	0.075	668589	keystroke	p	n/a
334.3995	0.06	668799	keystroke	e	n/a
335.0445	0.075	670089	keystroke	n	n/a
335.1345	0.075	670269	keystroke	d	n/a
335.2395	0.061	670479	keystroke	i	n/a
335.3745	0.075	670749	keystroke	n	n/a
335.4645	0.06	670929	keystroke	g	n/a
335.5395	0.12	671079	keystroke	Key.space	n/a
335.6745	0.075	671349	keystroke	d	n/a
335.8845	0.03	671769	keystroke	e	n/a
336.0945	0.09	672189	keystroke	c	n/a
336.3645	0.045	672729	keystroke	r	n/a
336.4695	0.075	672939	keystroke	e	n/a
337.1445	0.09	674289	keystroke	a	n/a
337.2945	0.106	674589	keystroke	s	n/a
337.4895	0.061	674979	keystroke	e	n/a
337.985	0.09	675970	keystroke	Key.space	n/a
338.48	0.075	676960	keystroke	c	n/a
338.57	0.075	677140	keystroke	o	n/a
338.72	0.06	677440	keystroke	n	n/a
338.855	0.06	677710	keystroke	n	n/a
338.9	0.075	677800	keystroke	e	n/a
339.08	0.075	678160	keystroke	c	n/a
339.41	0.06	678820	keystroke	t	n/a
339.485	0.09	678970	keystroke	Key.space	n/a
339.635	0.09	679270	keystroke	l	n/a
339.815	0.075	679630	keystroke	i	n/a
339.905	0.06	679810	keystroke	s	n/a
340.1	0.075	680200	keystroke	t	n/a
340.16	0.075	680320	keystroke	i	n/a
340.295	0.09	680590	keystroke	n	n/a
340.4	0.06	680800	keystroke	g	n/a
340.58	0.075	681160	keystroke	s	n/a
341.225	0.09	682450	keystroke	Key.enter	n/a
341.321	12.4155	682642	prompt	n/a	cheers manufacture ultimately wallpapers\n
342.05	0.09	684100	keystroke	c	n/a
342.125	0.09	684250	keystroke	h	n/a
342.26	0.045	684520	keystroke	e	n/a
342.41	0.075	684820	keystroke	e	n/a
342.56	0.075	685120	keystroke	r	n/a
342.725	0.09	685450	keystroke	s	n/a
342.905	0.09	685810	keystroke	Key.space	n/a
343.085	0.075	686170	keystroke	m	n/a
343.22	0.045	686440	keystroke	a	n/a
343.295	0.06	686590	keystroke	n	n/a
343.52	0.045	687040	keystroke	u	n/a
344.3	0.09	688600	keystroke	f	n/a
344.63	0.045	689260	keystroke	c	n/a
344.99	0.075	689980	keystroke	Key.backspace	n/a
345.11	0.06	690220	keystroke	a	n/a
345.305	0.105	690610	keystroke	c	n/a
345.755	0.06	691510	keystroke	t	n/a
345.845	0.045	691690	keystroke	u	n/a
345.935	0.06	691870	keystroke	r	n/a
346.055	0.075	692110	keystroke	e	n/a
347.03	0.09	694060	keystroke	Key.space	n/a
347.225	0.075	694450	keystroke	u	n/a
347.42	0.06	694840	keystroke	l	n/a
347.915	0.075	695830	keystroke	t	n/a
348.035	0.09	696070	keystroke	i	n/a
349.805	0.09	699610	keystroke	m	n/a
350	0.105	700000	keystroke	a	n/a
350.195	0.075	700390	keystroke	t	n/a
350.36	0.06	700720	keystroke	e	n/a
350.45	0.09	700900	keystroke	l	n/a
350.735	0.06	701470	keystroke	y	n/a
350.945	0.09	701890	keystroke	Key.space	n/a
351.17	0.075	702340	keystroke	w	n/a
351.335	0.09	702670	keystroke	a	n/a
351.44	0.075	702880	keystroke	l	n/a
351.605	0.075	703210	keystroke	l	n/a
351.89	0.075	703780	keystroke	p	n/a
352.055	0.03	704110	keystroke	a	n/a
352.115	0.075	704230	keystroke	p	n/a
352.31	0.12	704620	keystroke	e	n/a
352.415	0.075	704830	keystroke	r	n/a
352.655	0.06	705310	keystroke	s	n/a
353.675	0.06	707350	keystroke	Key.enter	n/a
353.7395	9.597	707479	prompt	n/a	situation rated pays replacement\n
354.59	0.06	709180	keystroke	s	n/a
354.68	0.075	709360	keystroke	i	n/a
354.905	0.045	709810	keystroke	t	n/a
355.235	0.06	710470	keystroke	u	n/a
355.49	0.075	710980	keystroke	a	n/a
355.64	0.075	711280	keystroke	t	n/a
355.67	0.15	711340	keystroke	i	n/a
355.745	0.12	711490	keystroke	o	n/a
355.925	0.075	711850	keystroke	n	n/a
356.06	0.12	712120	keystroke	Key.space	n/a
356.285	0.075	712570	keystroke	r	n/a
356.495	0.06	712990	keystroke	a	n/a
356.6	0.045	713200	keystroke	t	n/a
356.735	0.075	713470	keystroke	e	n/a
356.975	0.09	713950	keystroke	d	n/a
357.485	0.105	714970	keystroke	Key.space	n/a
357.695	0.06	715390	keystroke	p	n/a
357.815	0.06	715630	keystroke	a	n/a
357.935	0.105	715870	keystroke	y	n/a
358.145	0.075	716290	keystroke	s	n/a
358.25	0.105	716500	keystroke	Key.space	n/a
358.445	0.045	716890	keystroke	r	n/a
358.595	0.06	717190	keystroke	e	n/a
359.24	0.075	718480	keystroke	p	n/a
359.66	0.075	719320	keystroke	l	n/a
359.81	0.075	719620	keystroke	a	n/a
360.02	0.105	720040	keystroke	c	n/a
360.155	0.075	720310	keystroke	l	n/a
360.245	0.075	720490	keystroke	e	n/a
360.68	0.045	721360	keystroke	Key.backspace	n/a
360.89	0.015	721780	keystroke	Key.backspace	n/a
361.655	0.075	723310	keystroke	e	n/a
361.775	0.105	723550	keystroke	m	n/a
361.895	0.06	723790	keystroke	e	n/a
362	0.06	724000	keystroke	n	n/a
362.105	0.06	724210	keystroke	t	n/a
363.26	0.075	726520	keystroke	Key.enter	n/a
363.3395	14.832	726679	prompt	n/a	boulder jelsoft kijiji drink\n
364.235	0.12	728470	keystroke	b	n/a
364.655	0.06	729310	keystroke	y	n/a
365.18	0.045	730360	keystroke	Key.backspace	n/a
365.93	0.03	731860	keystroke	o	n/a
366.02	0.075	732040	keystroke	u	n/a
366.2	0.09	732400	keystroke	l	n/a
366.305	0.075	732610	keystroke	d	n/a
366.485	0.105	732970	keystroke	e	n/a
366.56	0.075	733120	keystroke	r	n/a
367.16	0.09	734320	keystroke	Key.space	n/a
367.355	0.075	734710	keystroke	j	n/a
367.745	0.075	735490	keystroke	e	n/a
367.865	0.09	735730	keystroke	l	n/a
368.195	0.075	736390	keystroke	s	n/a
368.345	0.06	736690	keystroke	o	n/a
368.465	0.105	736930	keystroke	f	n/a
368.75	0.045	737500	keystroke	t	n/a
369.32	0.105	738640	keystroke	Key.space	n/a
370.715	0.09	741430	keystroke	k	n/a
371	0.075	742000	keystroke	i	n/a
371.9	0.09	743800	keystroke	k	n/a
372.125	0.09	744250	keystroke	i	n/a
372.71	0.09	745420	keystroke	Key.backspace	n/a
372.875	0.09	745750	keystroke	Key.backspace	n/a
373.04	0.06	746080	keystroke	Key.backspace	n/a
373.895	0.06	747790	keystroke	i	n/a
374.135	0.075	748270	keystroke	j	n/a
374.375	0.045	748750	keystroke	i	n/a
375.155	0.075	750310	keystroke	j	n/a
376.025	0.045	752050	keystroke	i	n/a
376.565	0.09	753130	keystroke	Key.space	n/a
376.64	0.075	753280	keystroke	d	n/a
376.85	0.075	753700	keystroke	r	n/a
376.91	0.09	753820	keystroke	i	n/a
377.09	0.105	754180	keystroke	n	n/a
377.18	0.075	754360	keystroke	k	n/a
378.1095	0.06	756219	keystroke	Key.enter	n/a
378.1745	7.347	756349	prompt	n/a	chicken singer laptops refers\n
379.0395	0.09	758079	keystroke	c	n/a
379.1145	0.0905	758229	keystroke	h	n/a
379.1745	0.0905	758349	keystroke	i	n/a
379.2495	0.105	758499	keystroke	c	n/a
379.4145	0.105	758829	keystroke	k	n/a
379.58	0.0595	759160	keystroke	e	n/a
379.6695	0.045	759339	keystroke	n	n/a
380.3295	0.12	760659	keystroke	Key.space	n/a
380.6295	0.105	761259	keystroke	s	n/a
381.1995	0.075	762399	keystroke	i	n/a
381.3495	0.075	762699	keystroke	n	n/a
381.4995	0.045	762999	keystroke	g	n/a
381.6645	0.12	763329	keystroke	e	n/a
381.7545	0.12	763509	keystroke	r	n/a
381.8295	0.105	763659	keystroke	Key.space	n/a
381.9945	0.09	763989	keystroke	l	n/a
382.1145	0.075	764229	keystroke	a	n/a
382.2495	0.075	764499	keystroke	p	n/a
382.6545	0.075	765309	keystroke	t	n/a
382.7145	0.135	765429	keystroke	o	n/a
382.7745	0.09	765549	keystroke	p	n/a
382.9395	0.075	765879	keystroke	s	n/a
383.3595	0.105	766719	keystroke	Key.space	n/a
383.7795	0.06	767559	keystroke	r	n/a
383.9145	0.06	767829	keystroke	e	n/a
384.1245	0.075	768249	keystroke	f	n/a
384.3045	0.105	768609	keystroke	e	n/a
384.3945	0.075	768789	keystroke	r	n/a
384.8595	0.045	769719	keystroke	s	n/a
385.4745	0.045	770949	keystroke	Key.enter	n/a
385.5245	7.587	771049	prompt	n/a	film beast inform simon\n
388.0115	0.001	776023	keystroke	f	n/a
388.0545	0.06	776109	keystroke	i	n/a
388.2645	0.015	776529	keystroke	l	n/a
388.3705	0.074	776741	keystroke	m	n/a
389.3445	0.105	778689	keystroke	Key.space	n/a
389.5545	0.075	779109	keystroke	b	n/a
389.6145	0.09	779229	keystroke	e	n/a
389.7795	0.09	779559	keystroke	a	n/a
389.9295	0.075	779859	keystroke	s	n/a
390.3045	0.045	780609	keystroke	t	n/a
390.8595	0.105	781719	keystroke	Key.space	n/a
390.9655	0.089	781931	keystroke	i	n/a
391.1145	0.09	782229	keystroke	n	n/a
391.2205	0.074	782441	keystroke	f	n/a
391.3245	0.075	782649	keystroke	o	n/a
391.4295	0.045	782859	keystroke	r	n/a
391.5045	0.075	783009	keystroke	m	n/a
391.7895	0.135	783579	keystroke	Key.space	n/a
392.0455	0.074	784091	keystroke	s	n/a
392.1205	0.059	784241	keystroke	i	n/a
392.2705	0.15	784541	keystroke	m	n/a
392.4045	0.135	784809	keystroke	o	n/a
392.5545	0.075	785109	keystroke	n	n/a
393.0495	0.06	786099	keystroke	Key.enter	n/a
393.114	6.0725	786228	prompt	n/a	knit a sports peterson\n
393.8295	0.075	787659	keystroke	k	n/a
393.9795	0.091	787959	keystroke	n	n/a
394.1295	0.105	788259	keystroke	i	n/a
394.2355	0.06	788471	keystroke	g	n/a
394.3395	0.06	788679	keystroke	h	n/a
394.4455	0.059	788891	keystroke	t	n/a
394.8195	0.09	789639	keystroke	Key.space	n/a
394.9395	0.06	789879	keystroke	a	n/a
395.0005	0.119	790001	keystroke	Key.space	n/a
395.8405	0.059	791681	keystroke	s	n/a
395.9455	0.059	791891	keystroke	p	n/a
396.1245	0.075	792249	keystroke	o	n/a
396.259	0.0905	792518	keystroke	r	n/a
396.424	0.0605	792848	keystroke	t	n/a
396.62	0.075	793240	keystroke	s	n/a
396.8445	0.06	793689	keystroke	Key.space	n/a
397.1145	0.075	794229	keystroke	p	n/a
397.2345	0.106	794469	keystroke	e	n/a
397.3545	0.091	794709	keystroke	r	n/a
397.6245	0.06	795249	keystroke	t	n/a
397.8045	0.105	795609	keystroke	e	n/a
397.8795	0.091	795759	keystroke	r	n/a
398.2245	0.075	796449	keystroke	s	n/a
398.3295	0.075	796659	keystroke	o	n/a
398.4645	0.075	796929	keystroke	n	n/a
399.1405	0.044	798281	keystroke	Key.enter	n/a
399.189	8.1425	798378	prompt	n/a	offerings view contains except\n
399.8455	0.0885	799691	keystroke	o	n/a
399.949	0.091	799898	keystroke	f	n/a
400.159	0.09	800318	keystroke	f	n/a
400.445	0.119	800890	keystroke	e	n/a
400.984	0.106	801968	keystroke	r	n/a
401.99	0.089	803980	keystroke	i	n/a
402.155	0.075	804310	keystroke	n	n/a
402.275	0.03	804550	keystroke	g	n/a
402.47	0.09	804940	keystroke	s	n/a
402.56	0.12	805120	keystroke	Key.space	n/a
402.755	0.045	805510	keystroke	v	n/a
402.815	0.074	805630	keystroke	i	n/a
402.98	0.06	805960	keystroke	e	n/a
403.145	0.075	806290	keystroke	w	n/a
403.295	0.135	806590	keystroke	Key.space	n/a
403.55	0.12	807100	keystroke	c	n/a
403.625	0.075	807250	keystroke	o	n/a
403.745	0.09	807490	keystroke	n	n/a
403.865	0.045	807730	keystroke	t	n/a
403.984	0.091	807968	keystroke	a	n/a
404.149	0.061	808298	keystroke	i	n/a
404.285	0.075	808570	keystroke	n	n/a
404.375	0.09	808750	keystroke	s	n/a
405.529	0.106	811058	keystroke	Key.space	n/a
405.65	0.06	811300	keystroke	e	n/a
405.965	0.075	811930	keystroke	x	n/a
406.28	0.03	812560	keystroke	c	n/a
406.445	0.059	812890	keystroke	e	n/a
406.55	0.09	813100	keystroke	p	n/a
406.685	0.075	813370	keystroke	t	n/a
407.255	0.075	814510	keystroke	Key.enter	n/a
407.3355	6.866	814671	prompt	n/a	rides become adapted combined\n
408.29	0.06	816580	keystroke	r	n/a
408.38	0.075	816760	keystroke	i	n/a
408.515	0.045	817030	keystroke	d	n/a
408.71	0.075	817420	keystroke	e	n/a
408.965	0.075	817930	keystroke	s	n/a
409.28	0.105	818560	keystroke	Key.space	n/a
409.565	0.075	819130	keystroke	b	n/a
409.61	0.06	819220	keystroke	e	n/a
409.76	0.09	819520	keystroke	c	n/a
409.865	0.075	819730	keystroke	o	n/a
410.18	0.09	820360	keystroke	m	n/a
410.405	0.06	820810	keystroke	e	n/a
410.51	0.105	821020	keystroke	Key.space	n/a
410.75	0.075	821500	keystroke	a	n/a
410.945	0.06	821890	keystroke	d	n/a
411.2	0.045	822400	keystroke	a	n/a
411.2755	0.0595	822551	keystroke	p	n/a
411.44	0.06	822880	keystroke	t	n/a
411.59	0.06	823180	keystroke	e	n/a
411.785	0.06	823570	keystroke	d	n/a
411.92	0.105	823840	keystroke	Key.space	n/a
412.295	0.075	824590	keystroke	c	n/a
412.385	0.06	824770	keystroke	o	n/a
412.52	0.105	825040	keystroke	m	n/a
412.76	0.075	825520	keystroke	b	n/a
412.94	0.075	825880	keystroke	i	n/a
413.075	0.075	826150	keystroke	n	n/a
413.135	0.09	826270	keystroke	e	n/a
413.36	0.06	826720	keystroke	d	n/a
414.125	0.075	828250	keystroke	Key.enter	n/a
414.205	8.0215	828410	prompt	n/a	plains stainless displayed normal\n
414.83	0.075	829660	keystroke	p	n/a
415.025	0.09	830050	keystroke	l	n/a
415.13	0.09	830260	keystroke	a	n/a
415.235	0.075	830470	keystroke	i	n/a
415.385	0.105	830770	keystroke	n	n/a
415.505	0.075	831010	keystroke	s	n/a
415.67	0.105	831340	keystroke	Key.space	n/a
415.79	0.09	831580	keystroke	s	n/a
416.015	0.06	832030	keystroke	t	n/a
416.18	0.105	832360	keystroke	a	n/a
416.3	0.075	832600	keystroke	i	n/a
416.48	0.06	832960	keystroke	n	n/a
416.615	0.12	833230	keystroke	l	n/a
416.75	0.06	833500	keystroke	e	n/a
417.2	0.06	834400	keystroke	s	n/a
417.38	0.045	834760	keystroke	s	n/a
417.71	0.105	835420	keystroke	Key.space	n/a
417.935	0.045	835870	keystroke	d	n/a
418.055	0.09	836110	keystroke	i	n/a
418.13	0.06	836260	keystroke	s	n/a
418.295	0.06	836590	keystroke	p	n/a
418.475	0.09	836950	keystroke	l	n/a
418.715	0.075	837430	keystroke	a	n/a
419.735	0.09	839470	keystroke	y	n/a
419.84	0.075	839680	keystroke	e	n/a
420.095	0.045	840190	keystroke	d	n/a
420.26	0.06	840520	keystroke	Key.space	n/a
420.875	0.12	841750	keystroke	n	n/a
420.965	0.12	841930	keystroke	o	n/a
421.115	0.045	842230	keystroke	r	n/a
421.235	0.12	842470	keystroke	m	n/a
421.55	0.105	843100	keystroke	a	n/a
421.685	0.075	843370	keystroke	l	n/a
422.15	0.075	844300	keystroke	Key.enter	n/a
422.2295	11.142	844459	prompt	n/a	parker trainer railroad stevens\n
423.425	0.105	846850	keystroke	p	n/a
423.83	0.06	847660	keystroke	a	n/a
424.1	0.06	848200	keystroke	r	n/a
424.25	0.075	848500	keystroke	k	n/a
424.4	0.15	848800	keystroke	e	n/a
424.535	0.045	849070	keystroke	r	n/a
424.79	0.135	849580	keystroke	Key.space	n/a
424.94	0.045	849880	keystroke	t	n/a
425.045	0.075	850090	keystroke	r	n/a
425.405	0.075	850810	keystroke	a	n/a
425.675	0.075	851350	keystroke	i	n/a
425.84	0.075	851680	keystroke	n	n/a
425.975	0.12	851950	keystroke	e	n/a
426.05	0.09	852100	keystroke	r	n/a
426.41	0.105	852820	keystroke	Key.space	n/a
426.77	0.075	853540	keystroke	r	n/a
426.89	0.06	853780	keystroke	e	n/a
428.12	0.075	856240	keystroke	Key.backspace	n/a
428.285	0.03	856570	keystroke	a	n/a
428.435	0.06	856870	keystroke	i	n/a
429.095	0.09	858190	keystroke	l	n/a
429.815	0.06	859630	keystroke	r	n/a
430.01	0.075	860020	keystroke	o	n/a
430.52	0.06	861040	keystroke	a	n/a
430.715	0.06	861430	keystroke	d	n/a
431.105	0.105	862210	keystroke	Key.space	n/a
431.225	0.105	862450	keystroke	s	n/a
431.45	0.06	862900	keystroke	t	n/a
431.615	0.045	863230	keystroke	e	n/a
431.81	0.06	863620	keystroke	v	n/a
431.99	0.06	863980	keystroke	e	n/a
432.11	0.06	864220	keystroke	n	n/a
432.215	0.06	864430	keystroke	s	n/a
433.295	0.075	866590	keystroke	Key.enter	n/a
433.376	8.966	866752	prompt	n/a	crucial exciting predicted initiative\n
434.945	0.105	869890	keystroke	c	n/a
435.215	0.045	870430	keystroke	r	n/a
435.29	0.09	870580	keystroke	u	n/a
435.41	0.075	870820	keystroke	c	n/a
435.665	0.06	871330	keystroke	i	n/a
435.83	0.075	871660	keystroke	a	n/a
435.935	0.06	871870	keystroke	l	n/a
436.19	0.105	872380	keystroke	Key.space	n/a
436.355	0.045	872710	keystroke	e	n/a
436.625	0.075	873250	keystroke	x	n/a
437.21	0.06	874420	keystroke	c	n/a
437.315	0.06	874630	keystroke	i	n/a
437.525	0.045	875050	keystroke	t	n/a
437.585	0.045	875170	keystroke	i	n/a
437.735	0.075	875470	keystroke	n	n/a
437.84	0.06	875680	keystroke	g	n/a
438.23	0.12	876460	keystroke	Key.space	n/a
438.47	0.09	876940	keystroke	p	n/a
438.59	0.06	877180	keystroke	r	n/a
438.74	0.03	877480	keystroke	e	n/a
438.92	0.075	877840	keystroke	d	n/a
439.04	0.06	878080	keystroke	i	n/a
439.16	0.09	878320	keystroke	c	n/a
439.445	0.06	878890	keystroke	t	n/a
439.58	0.06	879160	keystroke	e	n/a
439.775	0.045	879550	keystroke	d	n/a
439.865	0.12	879730	keystroke	Key.space	n/a
440.03	0.06	880060	keystroke	i	n/a
440.165	0.12	880330	keystroke	n	n/a
440.3	0.075	880600	keystroke	i	n/a
440.435	0.06	880870	keystroke	t	n/a
440.66	0.06	881320	keystroke	i	n/a
440.855	0.075	881710	keystroke	a	n/a
440.975	0.06	881950	keystroke	t	n/a
441.08	0.06	882160	keystroke	i	n/a
441.215	0.075	882430	keystroke	v	n/a
441.44	0.045	882880	keystroke	e	n/a
442.28	0.06	884560	keystroke	Key.enter	n/a
442.345	7.9765	884690	prompt	n/a	welcome joan radios narrow\n
442.985	0.06	885970	keystroke	w	n/a
443.285	0.06	886570	keystroke	e	n/a
443.375	0.105	886750	keystroke	l	n/a
443.54	0.045	887080	keystroke	c	n/a
443.6	0.09	887200	keystroke	o	n/a
443.78	0.075	887560	keystroke	m	n/a
443.915	0.075	887830	keystroke	e	n/a
444.125	0.09	888250	keystroke	Key.space	n/a
444.335	0.12	888670	keystroke	j	n/a
444.44	0.105	888880	keystroke	o	n/a
444.635	0.075	889270	keystroke	a	n/a
444.77	0.06	889540	keystroke	n	n/a
445.4	0.09	890800	keystroke	Key.space	n/a
445.655	0.061	891310	keystroke	r	n/a
445.805	0.06	891610	keystroke	a	n/a
446	0.075	892000	keystroke	d	n/a
447.005	0.105	894010	keystroke	i	n/a
447.815	0.075	895630	keystroke	o	n/a
447.92	0.09	895840	keystroke	s	n/a
448.19	0.09	896380	keystroke	Key.space	n/a
448.34	0.105	896680	keystroke	n	n/a
448.46	0.06	896920	keystroke	a	n/a
448.625	0.045	897250	keystroke	r	n/a
448.76	0.045	897520	keystroke	r	n/a
448.925	0.075	897850	keystroke	o	n/a
449.045	0.06	898090	keystroke	w	n/a
450.23	0.09	900460	keystroke	Key.enter	n/a
450.325	7.662	900650	prompt	n/a	zero vault democracy am\n
451.31	0.09	902620	keystroke	z	n/a
451.55	0.106	903100	keystroke	e	n/a
451.685	0.075	903370	keystroke	r	n/a
451.82	0.06	903640	keystroke	o	n/a
452.9155	0.105	905831	keystroke	Key.space	n/a
453.0355	0.06	906071	keystroke	v	n/a
453.2305	0.06	906461	keystroke	a	n/a
453.9205	0.06	907841	keystroke	u	n/a
454.1305	0.075	908261	keystroke	l	n/a
454.2655	0.03	908531	keystroke	t	n/a
454.5355	0.105	909071	keystroke	Key.space	n/a
454.9105	0.075	909821	keystroke	d	n/a
455.1055	0.06	910211	keystroke	e	n/a
455.1955	0.075	910391	keystroke	m	n/a
455.6305	0.075	911261	keystroke	o	n/a
455.8255	0.075	911651	keystroke	c	n/a
456.0955	0.06	912191	keystroke	r	n/a
456.3655	0.075	912731	keystroke	a	n/a
456.5755	0.06	913151	keystroke	c	n/a
456.6505	0.075	913301	keystroke	y	n/a
456.8905	0.105	913781	keystroke	Key.space	n/a
457.0705	0.075	914141	keystroke	a	n/a
457.1605	0.06	914321	keystroke	m	n/a
457.9255	0.0595	915851	keystroke	Key.enter	n/a
457.989	15.62	915978	prompt	n/a	sunday participating zoloft conservation\n
458.7655	0.045	917531	keystroke	s	n/a
458.8405	0.06	917681	keystroke	u	n/a
459.0055	0.0745	918011	keystroke	n	n/a
459.11	0.0905	918220	keystroke	d	n/a
459.3355	0.0895	918671	keystroke	a	n/a
459.515	0.0605	919030	keystroke	r	n/a
459.605	0.09	919210	keystroke	y	n/a
460.295	0.06	920590	keystroke	Key.backspace	n/a
460.46	0.045	920920	keystroke	Key.backspace	n/a
460.805	0.105	921610	keystroke	y	n/a
461.15	0.12	922300	keystroke	Key.space	n/a
461.33	0.09	922660	keystroke	p	n/a
461.465	0.06	922930	keystroke	a	n/a
461.615	0.09	923230	keystroke	r	n/a
461.735	0.09	923470	keystroke	t	n/a
461.855	0.075	923710	keystroke	i	n/a
462.62	0.075	925240	keystroke	c	n/a
465.9185	0	931837	keystroke	i	n/a
466.126	0.075	932252	keystroke	p	n/a
466.3055	0.075	932611	keystroke	a	n/a
466.4255	0.1045	932851	keystroke	t	n/a
466.4705	0.0745	932941	keystroke	i	n/a
466.62	0.0895	933240	keystroke	n	n/a
466.7395	0.06	933479	keystroke	g	n/a
467.054	0.0895	934108	keystroke	Key.space	n/a
467.368	0.105	934736	keystroke	z	n/a
467.488	0.045	934976	keystroke	o	n/a
467.683	0.1045	935366	keystroke	l	n/a
467.9525	0.0745	935905	keystroke	o	n/a
468.342	0.03	936684	keystroke	f	n/a
468.6275	0.045	937255	keystroke	t	n/a
469.4515	0.075	938903	keystroke	Key.space	n/a
469.5875	0.075	939175	keystroke	c	n/a
469.6475	0.075	939295	keystroke	o	n/a
469.812	0.06	939624	keystroke	n	n/a
469.962	0.03	939924	keystroke	v	n/a
470.9075	0.0745	941815	keystroke	Key.backspace	n/a
471.027	0.106	942054	keystroke	s	n/a
471.2675	0.09	942535	keystroke	e	n/a
471.3425	0.09	942685	keystroke	r	n/a
471.598	0.075	943196	keystroke	v	n/a
471.7925	0.105	943585	keystroke	a	n/a
471.9125	0.0895	943825	keystroke	t	n/a
472.002	0.166	944004	keystroke	i	n/a
472.063	0.135	944126	keystroke	o	n/a
472.512	0.061	945024	keystroke	n	n/a
473.533	0.075	947066	keystroke	Key.enter	n/a
473.612	17.9375	947224	prompt	n/a	pensions patches temperatures asylum\n
474.4775	0.0905	948955	keystroke	p	n/a
474.613	0.1345	949226	keystroke	e	n/a
474.733	0.0745	949466	keystroke	r	n/a
474.9575	0.03	949915	keystroke	n	n/a
475.033	0.075	950066	keystroke	s	n/a
475.1375	0.12	950275	keystroke	i	n/a
475.2125	0.12	950425	keystroke	o	n/a
475.377	0.075	950754	keystroke	n	n/a
475.482	0.0755	950964	keystroke	s	n/a
476.188	0.1195	952376	keystroke	Key.space	n/a
476.3225	0.075	952645	keystroke	p	n/a
476.4275	0.1055	952855	keystroke	a	n/a
476.6675	0.06	953335	keystroke	t	n/a
476.982	0.091	953964	keystroke	c	n/a
477.103	0.075	954206	keystroke	h	n/a
477.2375	0.06	954475	keystroke	e	n/a
477.462	0.076	954924	keystroke	s	n/a
477.942	0.076	955884	keystroke	Key.backspace	n/a
478.1225	0.06	956245	keystroke	Key.backspace	n/a
478.3175	0.0595	956635	keystroke	Key.backspace	n/a
478.528	0.06	957056	keystroke	Key.backspace	n/a
478.7375	0.045	957475	keystroke	Key.backspace	n/a
478.977	0.045	957954	keystroke	Key.backspace	n/a
479.2475	0.045	958495	keystroke	Key.backspace	n/a
479.4725	0.015	958945	keystroke	Key.backspace	n/a
479.6825	0.06	959365	keystroke	Key.backspace	n/a
480.103	0.06	960206	keystroke	Key.backspace	n/a
480.2825	0.06	960565	keystroke	Key.backspace	n/a
480.462	0.076	960924	keystroke	Key.backspace	n/a
480.6725	0.075	961345	keystroke	Key.backspace	n/a
480.8675	0.0895	961735	keystroke	Key.backspace	n/a
481.093	0.075	962186	keystroke	Key.backspace	n/a
481.6475	0.105	963295	keystroke	n	n/a
481.8125	0.06	963625	keystroke	s	n/a
481.8875	0.1505	963775	keystroke	i	n/a
481.977	0.091	963954	keystroke	o	n/a
482.128	0.075	964256	keystroke	n	n/a
482.2625	0.03	964525	keystroke	s	n/a
482.548	0.09	965096	keystroke	Key.space	n/a
482.803	0.0895	965606	keystroke	p	n/a
482.9525	0.1055	965905	keystroke	a	n/a
483.178	0.0745	966356	keystroke	t	n/a
483.4775	0.0755	966955	keystroke	c	n/a
483.568	0.075	967136	keystroke	h	n/a
483.703	0.045	967406	keystroke	e	n/a
483.8375	0.09	967675	keystroke	s	n/a
484.0025	0.1055	968005	keystroke	Key.space	n/a
484.3925	0.0445	968785	keystroke	t	n/a
484.557	0.031	969114	keystroke	e	n/a
484.6175	0.09	969235	keystroke	m	n/a
484.8575	0.0745	969715	keystroke	p	n/a
485.007	0.136	970014	keystroke	e	n/a
485.128	0.06	970256	keystroke	r	n/a
485.3375	0.075	970675	keystroke	a	n/a
485.3975	0.075	970795	keystroke	t	n/a
485.668	0.075	971336	keystroke	u	n/a
485.9375	0.045	971875	keystroke	r	n/a
486.1185	0.0445	972237	keystroke	e	n/a
486.298	0.06	972596	keystroke	s	n/a
487.153	0.105	974306	keystroke	Key.space	n/a
487.318	0.09	974636	keystroke	a	n/a
487.5125	0.06	975025	keystroke	s	n/a
488.4575	0.045	976915	keystroke	y	n/a
489.8975	0.075	979795	keystroke	l	n/a
490.1675	0.075	980335	keystroke	u	n/a
490.467	0.06	980934	keystroke	m	n/a
491.4725	0.075	982945	keystroke	Key.enter	n/a
491.552	8.218	983104	prompt	n/a	headphones noise applicable with\n
492.3725	0.0595	984745	keystroke	h	n/a
492.462	0.09	984924	keystroke	e	n/a
492.627	0.0755	985254	keystroke	a	n/a
492.822	0.06	985644	keystroke	d	n/a
493.482	0.165	986964	keystroke	p	n/a
493.677	0.1055	987354	keystroke	h	n/a
493.7675	0.105	987535	keystroke	o	n/a
493.9475	0.09	987895	keystroke	n	n/a
494.0525	0.0895	988105	keystroke	e	n/a
494.2625	0.075	988525	keystroke	s	n/a
495.358	0.1195	990716	keystroke	Key.space	n/a
495.5375	0.12	991075	keystroke	n	n/a
495.673	0.0895	991346	keystroke	o	n/a
495.8375	0.09	991675	keystroke	i	n/a
496.0175	0.09	992035	keystroke	s	n/a
496.2125	0.045	992425	keystroke	e	n/a
496.3475	0.06	992695	keystroke	s	n/a
497.1125	0.1055	994225	keystroke	Key.space	n/a
497.3075	0.075	994615	keystroke	a	n/a
497.3835	0.059	994767	keystroke	p	n/a
497.5175	0.0895	995035	keystroke	p	n/a
497.697	0.0905	995394	keystroke	l	n/a
497.8625	0.09	995725	keystroke	i	n/a
497.9535	0.104	995907	keystroke	c	n/a
498.238	0.06	996476	keystroke	a	n/a
498.3875	0.06	996775	keystroke	b	n/a
498.6425	0.015	997285	keystroke	l	n/a
498.6575	0.03	997315	keystroke	e	n/a
498.9875	0.09	997975	keystroke	Key.space	n/a
499.0625	0.075	998125	keystroke	w	n/a
499.1525	0.0755	998305	keystroke	i	n/a
499.258	0.075	998516	keystroke	t	n/a
499.318	0.0745	998636	keystroke	h	n/a
499.6925	0.075	999385	keystroke	Key.enter	n/a
499.7725	9.8365	999545	prompt	n/a	zoloft celebrity warm weighted\n
500.7875	0.1045	1001575	keystroke	z	n/a
500.922	0.06	1001844	keystroke	o	n/a
501.117	0.0905	1002234	keystroke	l	n/a
501.387	0.075	1002774	keystroke	o	n/a
501.627	0.045	1003254	keystroke	f	n/a
501.883	0.0445	1003766	keystroke	t	n/a
502.0325	0.105	1004065	keystroke	Key.space	n/a
502.828	0.09	1005656	keystroke	c	n/a
503.038	0.045	1006076	keystroke	e	n/a
503.308	0.06	1006616	keystroke	l	n/a
503.4275	0.045	1006855	keystroke	e	n/a
503.6675	0.0755	1007335	keystroke	b	n/a
503.788	0.0445	1007576	keystroke	r	n/a
504.0125	0.06	1008025	keystroke	i	n/a
504.1625	0.045	1008325	keystroke	t	n/a
504.283	0.045	1008566	keystroke	y	n/a
504.5825	0.12	1009165	keystroke	Key.space	n/a
504.763	0.09	1009526	keystroke	w	n/a
504.9275	0.105	1009855	keystroke	a	n/a
505.1225	0.075	1010245	keystroke	r	n/a
505.273	0.105	1010546	keystroke	m	n/a
505.408	0.12	1010816	keystroke	Key.space	n/a
505.723	0.075	1011446	keystroke	w	n/a
505.888	0.06	1011776	keystroke	i	n/a
506.653	0.0605	1013306	keystroke	Key.backspace	n/a
506.7435	0.0595	1013487	keystroke	e	n/a
506.938	0.045	1013876	keystroke	i	n/a
507.043	0.045	1014086	keystroke	g	n/a
507.148	0.06	1014296	keystroke	h	n/a
507.283	0.015	1014566	keystroke	t	n/a
507.9875	0.06	1015975	keystroke	e	n/a
508.1675	0.0605	1016335	keystroke	d	n/a
508.6025	0.045	1017205	keystroke	Key.space	n/a
509.233	0.105	1018466	keystroke	Key.backspace	n/a
509.578	0.0295	1019156	keystroke	Key.enter	n/a
509.612	8.2025	1019224	prompt	n/a	milton indicates although influenced\n
510.538	0.0895	1021076	keystroke	m	n/a
510.658	0.075	1021316	keystroke	i	n/a
510.838	0.09	1021676	keystroke	l	n/a
511.183	0.06	1022366	keystroke	t	n/a
511.258	0.105	1022516	keystroke	o	n/a
511.438	0.075	1022876	keystroke	n	n/a
511.633	0.09	1023266	keystroke	Key.space	n/a
511.753	0.09	1023506	keystroke	i	n/a
511.903	0.0745	1023806	keystroke	n	n/a
511.9925	0.075	1023985	keystroke	d	n/a
512.0825	0.075	1024165	keystroke	i	n/a
512.1875	0.09	1024375	keystroke	c	n/a
512.4875	0.075	1024975	keystroke	a	n/a
512.652	0.0755	1025304	keystroke	t	n/a
512.8025	0.06	1025605	keystroke	e	n/a
512.9675	0.06	1025935	keystroke	s	n/a
513.733	0.105	1027466	keystroke	Key.space	n/a
513.898	0.09	1027796	keystroke	a	n/a
513.958	0.12	1027916	keystroke	l	n/a
514.138	0.0605	1028276	keystroke	t	n/a
514.2135	0.0895	1028427	keystroke	h	n/a
514.288	0.06	1028576	keystroke	o	n/a
514.438	0.075	1028876	keystroke	u	n/a
514.543	0.045	1029086	keystroke	g	n/a
514.603	0.075	1029206	keystroke	h	n/a
514.753	0.12	1029506	keystroke	Key.space	n/a
514.888	0.075	1029776	keystroke	i	n/a
515.038	0.075	1030076	keystroke	n	n/a
515.173	0.06	1030346	keystroke	f	n/a
515.368	0.075	1030736	keystroke	l	n/a
515.833	0.06	1031666	keystroke	u	n/a
516.433	0.0595	1032866	keystroke	e	n/a
516.5975	0.0755	1033195	keystroke	n	n/a
516.703	0.09	1033406	keystroke	c	n/a
516.868	0.06	1033736	keystroke	e	n/a
517.063	0.045	1034126	keystroke	d	n/a
517.723	0.09	1035446	keystroke	Key.enter	n/a
517.817	5.7875	1035634	prompt	n/a	kent naked planets together\n
518.4275	0.09	1036855	keystroke	k	n/a
518.5325	0.075	1037065	keystroke	e	n/a
518.638	0.0745	1037276	keystroke	n	n/a
518.7725	0.075	1037545	keystroke	t	n/a
519.208	0.105	1038416	keystroke	Key.space	n/a
519.478	0.0745	1038956	keystroke	n	n/a
519.5825	0.0755	1039165	keystroke	a	n/a
519.688	0.075	1039376	keystroke	k	n/a
519.793	0.06	1039586	keystroke	e	n/a
520.018	0.03	1040036	keystroke	d	n/a
520.558	0.105	1041116	keystroke	Key.space	n/a
520.753	0.03	1041506	keystroke	p	n/a
520.933	0.09	1041866	keystroke	l	n/a
521.053	0.0745	1042106	keystroke	a	n/a
521.173	0.045	1042346	keystroke	n	n/a
521.263	0.075	1042526	keystroke	e	n/a
521.398	0.0895	1042796	keystroke	t	n/a
521.6225	0.0605	1043245	keystroke	s	n/a
521.908	0.06	1043816	keystroke	Key.space	n/a
522.238	0.045	1044476	keystroke	t	n/a
522.298	0.105	1044596	keystroke	o	n/a
522.4625	0.045	1044925	keystroke	g	n/a
522.6425	0.0755	1045285	keystroke	e	n/a
522.748	0.09	1045496	keystroke	t	n/a
522.853	0.09	1045706	keystroke	h	n/a
522.928	0.09	1045856	keystroke	e	n/a
522.988	0.075	1045976	keystroke	r	n/a
523.528	0.075	1047056	keystroke	Key.enter	n/a
523.6075	8.008	1047215	prompt	n/a	thou assists lows interaction\n
524.353	0.03	1048706	keystroke	t	n/a
524.368	0.105	1048736	keystroke	h	n/a
524.428	0.12	1048856	keystroke	o	n/a
524.668	0.105	1049336	keystroke	Key.space	n/a
525.493	0.03	1050986	keystroke	Key.backspace	n/a
525.763	0.09	1051526	keystroke	u	n/a
525.973	0.12	1051946	keystroke	Key.space	n/a
526.123	0.09	1052246	keystroke	a	n/a
526.333	0.06	1052666	keystroke	s	n/a
526.498	0.06	1052996	keystroke	s	n/a
527.323	0.06	1054646	keystroke	i	n/a
527.443	0.105	1054886	keystroke	s	n/a
527.653	0.06	1055306	keystroke	t	n/a
527.818	0.045	1055636	keystroke	s	n/a
528.388	0.105	1056776	keystroke	Key.space	n/a
528.553	0.09	1057106	keystroke	l	n/a
528.733	0.105	1057466	keystroke	o	n/a
528.853	0.06	1057706	keystroke	w	n/a
529.063	0.0605	1058126	keystroke	s	n/a
529.2285	0.1045	1058457	keystroke	Key.space	n/a
529.363	0.075	1058726	keystroke	i	n/a
529.498	0.105	1058996	keystroke	n	n/a
529.633	0.09	1059266	keystroke	t	n/a
529.933	0.135	1059866	keystroke	e	n/a
530.038	0.105	1060076	keystroke	r	n/a
530.473	0.075	1060946	keystroke	a	n/a
530.623	0.075	1061246	keystroke	c	n/a
530.893	0.075	1061786	keystroke	t	n/a
530.953	0.105	1061906	keystroke	i	n/a
530.998	0.105	1061996	keystroke	o	n/a
531.163	0.075	1062326	keystroke	n	n/a
531.5375	0.0755	1063075	keystroke	Key.enter	n/a
531.62	9.3255	1063240	prompt	n/a	scale benefits himself abstract\n
532.258	0.09	1064516	keystroke	s	n/a
532.423	0.12	1064846	keystroke	c	n/a
532.648	0.045	1065296	keystroke	a	n/a
532.708	0.09	1065416	keystroke	l	n/a
532.813	0.045	1065626	keystroke	e	n/a
532.978	0.075	1065956	keystroke	Key.space	n/a
533.233	0.045	1066466	keystroke	e	n/a
533.608	0.09	1067216	keystroke	Key.backspace	n/a
534.1925	0.045	1068385	keystroke	b	n/a
534.2675	0.06	1068535	keystroke	e	n/a
534.3875	0.03	1068775	keystroke	n	n/a
534.988	0.06	1069976	keystroke	e	n/a
535.288	0.03	1070576	keystroke	f	n/a
535.363	0.075	1070726	keystroke	i	n/a
535.543	0.045	1071086	keystroke	t	n/a
535.768	0.075	1071536	keystroke	s	n/a
536.833	0.105	1073666	keystroke	Key.space	n/a
537.013	0.12	1074026	keystroke	h	n/a
537.103	0.09	1074206	keystroke	i	n/a
537.268	0.12	1074536	keystroke	m	n/a
537.373	0.09	1074746	keystroke	s	n/a
537.568	0.06	1075136	keystroke	e	n/a
537.674	0.089	1075348	keystroke	l	n/a
537.793	0.06	1075586	keystroke	f	n/a
538.4675	0.09	1076935	keystroke	Key.space	n/a
538.6475	0.075	1077295	keystroke	a	n/a
538.7235	0.089	1077447	keystroke	b	n/a
538.8425	0.12	1077685	keystroke	s	n/a
539.0375	0.0755	1078075	keystroke	t	n/a
539.188	0.075	1078376	keystroke	r	n/a
539.308	0.105	1078616	keystroke	a	n/a
539.488	0.075	1078976	keystroke	c	n/a
539.8025	0.046	1079605	keystroke	t	n/a
540.868	0.075	1081736	keystroke	Key.enter	n/a
540.9495	6.8655	1081899	prompt	n/a	springer keys can armstrong\n
541.633	0.091	1083266	keystroke	s	n/a
541.753	0.091	1083506	keystroke	p	n/a
541.903	0.06	1083806	keystroke	r	n/a
541.978	0.061	1083956	keystroke	i	n/a
542.1285	0.0745	1084257	keystroke	n	n/a
542.219	0.059	1084438	keystroke	g	n/a
542.369	0.134	1084738	keystroke	e	n/a
542.474	0.075	1084948	keystroke	r	n/a
542.848	0.09	1085696	keystroke	Key.space	n/a
542.939	0.105	1085878	keystroke	k	n/a
543.073	0.06	1086146	keystroke	e	n/a
543.223	0.105	1086446	keystroke	y	n/a
543.433	0.045	1086866	keystroke	s	n/a
543.8675	0.105	1087735	keystroke	Key.space	n/a
543.9885	0.09	1087977	keystroke	c	n/a
544.2275	0.061	1088455	keystroke	a	n/a
544.3025	0.045	1088605	keystroke	n	n/a
544.4685	0.075	1088937	keystroke	Key.space	n/a
544.964	0.075	1089928	keystroke	a	n/a
545.129	0.045	1090258	keystroke	r	n/a
545.339	0.03	1090678	keystroke	m	n/a
545.444	0.135	1090888	keystroke	s	n/a
545.909	0.015	1091818	keystroke	t	n/a
546.074	0.06	1092148	keystroke	r	n/a
546.284	0.075	1092568	keystroke	o	n/a
546.419	0.075	1092838	keystroke	n	n/a
546.539	0.06	1093078	keystroke	g	n/a
547.754	0.06	1095508	keystroke	Key.enter	n/a
547.8175	7.317	1095635	prompt	n/a	chance removal medline taylor\n
548.5485	0.105	1097097	keystroke	c	n/a
548.6075	0.076	1097215	keystroke	h	n/a
548.7135	0.075	1097427	keystroke	a	n/a
548.8035	0.09	1097607	keystroke	n	n/a
548.8785	0.165	1097757	keystroke	c	n/a
549.0585	0.0755	1098117	keystroke	e	n/a
549.299	0.105	1098598	keystroke	Key.space	n/a
549.5385	0.0455	1099077	keystroke	r	n/a
549.644	0.075	1099288	keystroke	e	n/a
549.824	0.105	1099648	keystroke	m	n/a
549.944	0.075	1099888	keystroke	o	n/a
550.049	0.0595	1100098	keystroke	v	n/a
550.2885	0.075	1100577	keystroke	a	n/a
550.3785	0.105	1100757	keystroke	l	n/a
550.5875	0.106	1101175	keystroke	Key.space	n/a
550.7535	0.105	1101507	keystroke	m	n/a
550.8435	0.075	1101687	keystroke	e	n/a
551.219	0.045	1102438	keystroke	d	n/a
551.294	0.105	1102588	keystroke	l	n/a
551.489	0.075	1102978	keystroke	i	n/a
551.684	0.045	1103368	keystroke	n	n/a
552.0735	0.045	1104147	keystroke	e	n/a
552.3135	0.09	1104627	keystroke	Key.space	n/a
553.109	0.09	1106218	keystroke	t	n/a
553.274	0.105	1106548	keystroke	a	n/a
553.424	0.06	1106848	keystroke	y	n/a
553.634	0.075	1107268	keystroke	l	n/a
553.859	0.03	1107718	keystroke	o	n/a
553.904	0.06	1107808	keystroke	r	n/a
555.0585	0.075	1110117	keystroke	Key.enter	n/a
555.1375	7.2575	1110275	prompt	n/a	composite considers reserve drugs\n
556.0485	0.075	1112097	keystroke	c	n/a
556.1385	0.0755	1112277	keystroke	o	n/a
556.274	0.135	1112548	keystroke	m	n/a
556.379	0.12	1112758	keystroke	p	n/a
556.604	0.075	1113208	keystroke	o	n/a
556.679	0.105	1113358	keystroke	s	n/a
556.844	0.09	1113688	keystroke	i	n/a
557.069	0.045	1114138	keystroke	t	n/a
557.234	0.045	1114468	keystroke	e	n/a
557.384	0.12	1114768	keystroke	Key.space	n/a
557.654	0.075	1115308	keystroke	c	n/a
557.729	0.09	1115458	keystroke	o	n/a
557.864	0.09	1115728	keystroke	n	n/a
557.954	0.09	1115908	keystroke	s	n/a
558.074	0.0745	1116148	keystroke	i	n/a
558.1785	0.06	1116357	keystroke	d	n/a
558.3435	0.105	1116687	keystroke	e	n/a
558.4335	0.075	1116867	keystroke	r	n/a
558.5835	0.075	1117167	keystroke	s	n/a
558.7335	0.105	1117467	keystroke	Key.space	n/a
559.3035	0.045	1118607	keystroke	r	n/a
559.4235	0.06	1118847	keystroke	e	n/a
560.1135	0.0755	1120227	keystroke	s	n/a
560.309	0.06	1120618	keystroke	e	n/a
560.459	0.06	1120918	keystroke	r	n/a
560.684	0.0745	1121368	keystroke	v	n/a
560.8785	0.06	1121757	keystroke	e	n/a
561.0135	0.09	1122027	keystroke	Key.space	n/a
561.1185	0.045	1122237	keystroke	d	n/a
561.3135	0.06	1122627	keystroke	r	n/a
561.4185	0.09	1122837	keystroke	u	n/a
561.5235	0.045	1123047	keystroke	g	n/a
561.704	0.06	1123408	keystroke	s	n/a
562.3335	0.06	1124667	keystroke	Key.enter	n/a
562.398	10.827	1124796	prompt	n/a	mitsubishi gave field officers\n
563.2485	0.12	1126497	keystroke	m	n/a
563.4285	0.09	1126857	keystroke	i	n/a
563.744	0.06	1127488	keystroke	t	n/a
564.239	0.06	1128478	keystroke	s	n/a
566.1285	0.0605	1132257	keystroke	u	n/a
566.399	0.06	1132798	keystroke	b	n/a
566.609	0.075	1133218	keystroke	i	n/a
566.699	0.045	1133398	keystroke	s	n/a
566.774	0.09	1133548	keystroke	h	n/a
566.879	0.075	1133758	keystroke	i	n/a
567.164	0.135	1134328	keystroke	Key.space	n/a
569.6705	0.001	1139341	keystroke	g	n/a
569.7135	0.09	1139427	keystroke	a	n/a
569.8635	0.075	1139727	keystroke	v	n/a
570.0285	0.06	1140057	keystroke	e	n/a
570.2085	0.075	1140417	keystroke	Key.space	n/a
570.7185	0.075	1141437	keystroke	f	n/a
570.8235	0.075	1141647	keystroke	i	n/a
570.8985	0.045	1141797	keystroke	e	n/a
571.0185	0.075	1142037	keystroke	l	n/a
571.1085	0.045	1142217	keystroke	d	n/a
571.3185	0.105	1142637	keystroke	Key.space	n/a
571.5735	0.075	1143147	keystroke	o	n/a
571.6635	0.03	1143327	keystroke	f	n/a
571.8135	0.045	1143627	keystroke	f	n/a
571.9335	0.075	1143867	keystroke	i	n/a
572.1285	0.045	1144257	keystroke	c	n/a
572.2935	0.105	1144587	keystroke	e	n/a
572.3835	0.06	1144767	keystroke	r	n/a
572.5635	0.06	1145127	keystroke	s	n/a
573.1635	0.06	1146327	keystroke	Key.enter	n/a
573.2275	10.948	1146455	prompt	n/a	alternate geological mysql bite\n
573.8985	0.075	1147797	keystroke	a	n/a
573.9585	0.075	1147917	keystroke	l	n/a
574.1835	0.075	1148367	keystroke	t	n/a
574.3485	0.135	1148697	keystroke	e	n/a
574.4235	0.09	1148847	keystroke	r	n/a
574.6185	0.075	1149237	keystroke	n	n/a
574.7085	0.075	1149417	keystroke	a	n/a
574.7535	0.09	1149507	keystroke	t	n/a
574.9485	0.06	1149897	keystroke	e	n/a
575.9085	0.09	1151817	keystroke	Key.space	n/a
576.2235	0.075	1152447	keystroke	g	n/a
576.6585	0.06	1153317	keystroke	e	n/a
576.8085	0.06	1153617	keystroke	o	n/a
576.9885	0.09	1153977	keystroke	l	n/a
577.168	0.09	1154336	keystroke	o	n/a
578.0835	0.045	1156167	keystroke	g	n/a
578.1585	0.075	1156317	keystroke	i	n/a
578.3535	0.075	1156707	keystroke	c	n/a
578.6085	0.105	1157217	keystroke	a	n/a
578.7285	0.075	1157457	keystroke	l	n/a
578.8785	0.09	1157757	keystroke	Key.space	n/a
579.0585	0.105	1158117	keystroke	m	n/a
579.3735	0.06	1158747	keystroke	y	n/a
579.5985	0.06	1159197	keystroke	s	n/a
581.2485	0.06	1162497	keystroke	q	n/a
581.3985	0.075	1162797	keystroke	l	n/a
582.3285	0.105	1164657	keystroke	Key.space	n/a
582.4935	0.105	1164987	keystroke	b	n/a
582.6735	0.09	1165347	keystroke	i	n/a
582.749	0.0745	1165498	keystroke	t	n/a
582.9135	0.0605	1165827	keystroke	e	n/a
584.099	0.0745	1168198	keystroke	Key.enter	n/a
584.1785	11.412	1168357	prompt	n/a	specialty orleans hdtv greek\n
585.044	0.105	1170088	keystroke	s	n/a
585.194	0.105	1170388	keystroke	p	n/a
585.344	0.045	1170688	keystroke	e	n/a
585.5535	0.09	1171107	keystroke	c	n/a
585.6585	0.075	1171317	keystroke	i	n/a
585.9885	0.09	1171977	keystroke	a	n/a
586.6035	0.09	1173207	keystroke	l	n/a
586.7535	0.06	1173507	keystroke	t	n/a
586.9035	0.075	1173807	keystroke	y	n/a
587.3535	0.12	1174707	keystroke	Key.space	n/a
587.5035	0.075	1175007	keystroke	o	n/a
587.6085	0.06	1175217	keystroke	r	n/a
587.7145	0.089	1175429	keystroke	e	n/a
589.0185	0.075	1178037	keystroke	Key.backspace	n/a
589.2885	0.09	1178577	keystroke	l	n/a
589.5145	0.089	1179029	keystroke	e	n/a
589.7985	0.075	1179597	keystroke	a	n/a
590.2785	0.075	1180557	keystroke	n	n/a
590.4285	0.061	1180857	keystroke	s	n/a
590.6235	0.105	1181247	keystroke	Key.space	n/a
591.2835	0.075	1182567	keystroke	h	n/a
591.6285	0.09	1183257	keystroke	d	n/a
591.8685	0.06	1183737	keystroke	t	n/a
592.814	0.06	1185628	keystroke	c	n/a
593.414	0.105	1186828	keystroke	Key.backspace	n/a
593.894	0.06	1187788	keystroke	v	n/a
594.119	0.09	1188238	keystroke	Key.space	n/a
594.419	0.06	1188838	keystroke	g	n/a
594.599	0.045	1189198	keystroke	r	n/a
594.704	0.06	1189408	keystroke	e	n/a
594.839	0.06	1189678	keystroke	e	n/a
594.959	0.075	1189918	keystroke	k	n/a
595.559	0.03	1191118	keystroke	Key.enter	n/a
595.593	8.788	1191186	prompt	n/a	margaret derby alien instant\n
596.639	0.09	1193278	keystroke	m	n/a
596.744	0.09	1193488	keystroke	a	n/a
596.894	0.06	1193788	keystroke	r	n/a
597.704	0.105	1195408	keystroke	g	n/a
597.989	0.075	1195978	keystroke	a	n/a
598.259	0.045	1196518	keystroke	r	n/a
598.379	0.06	1196758	keystroke	e	n/a
598.529	0.06	1197058	keystroke	t	n/a
599.369	0.09	1198738	keystroke	Key.space	n/a
600.584	0.09	1201168	keystroke	d	n/a
600.779	0.105	1201558	keystroke	e	n/a
600.899	0.06	1201798	keystroke	r	n/a
601.064	0.09	1202128	keystroke	b	n/a
601.274	0.075	1202548	keystroke	y	n/a
601.484	0.105	1202968	keystroke	Key.space	n/a
601.964	0.075	1203928	keystroke	a	n/a
602.219	0.015	1204438	keystroke	l	n/a
602.294	0.09	1204588	keystroke	i	n/a
602.519	0.03	1205038	keystroke	e	n/a
602.594	0.075	1205188	keystroke	n	n/a
602.834	0.09	1205668	keystroke	Key.space	n/a
602.999	0.075	1205998	keystroke	i	n/a
603.149	0.075	1206298	keystroke	n	n/a
603.254	0.075	1206508	keystroke	s	n/a
603.434	0.06	1206868	keystroke	t	n/a
603.554	0.09	1207108	keystroke	a	n/a
603.704	0.075	1207408	keystroke	n	n/a
603.809	0.045	1207618	keystroke	t	n/a
604.304	0.0755	1208608	keystroke	Key.enter	n/a
604.384	9.686	1208768	prompt	n/a	members turtle identification mere\n
604.994	0.09	1209988	keystroke	m	n/a
605.085	0.044	1210170	keystroke	e	n/a
605.189	0.06	1210378	keystroke	m	n/a
605.894	0.075	1211788	keystroke	b	n/a
605.984	0.135	1211968	keystroke	e	n/a
606.104	0.075	1212208	keystroke	r	n/a
606.299	0.06	1212598	keystroke	s	n/a
606.494	0.09	1212988	keystroke	Key.space	n/a
606.644	0.06	1213288	keystroke	t	n/a
606.7785	0.06	1213557	keystroke	u	n/a
606.929	0.06	1213858	keystroke	r	n/a
607.454	0.06	1214908	keystroke	t	n/a
607.574	0.09	1215148	keystroke	l	n/a
607.694	0.06	1215388	keystroke	e	n/a
607.934	0.105	1215868	keystroke	Key.space	n/a
608.099	0.06	1216198	keystroke	i	n/a
608.219	0.075	1216438	keystroke	d	n/a
608.429	0.045	1216858	keystroke	e	n/a
609.299	0.06	1218598	keystroke	n	n/a
610.004	0.045	1220008	keystroke	t	n/a
610.154	0.06	1220308	keystroke	i	n/a
610.859	0.06	1221718	keystroke	f	n/a
611.024	0.06	1222048	keystroke	i	n/a
611.189	0.09	1222378	keystroke	c	n/a
611.354	0.09	1222708	keystroke	a	n/a
611.504	0.09	1223008	keystroke	t	n/a
611.519	0.1795	1223038	keystroke	i	n/a
611.609	0.1195	1223218	keystroke	o	n/a
611.7885	0.06	1223577	keystroke	n	n/a
612.5085	0.12	1225017	keystroke	Key.space	n/a
612.688	0.09	1225376	keystroke	m	n/a
612.793	0.15	1225586	keystroke	e	n/a
612.913	0.075	1225826	keystroke	r	n/a
613.243	0.045	1226486	keystroke	e	n/a
613.9935	0.075	1227987	keystroke	Key.enter	n/a
614.073	6.268	1228146	prompt	n/a	network motivation chelsea spend\n
614.7145	0.059	1229429	keystroke	n	n/a
614.8935	0.06	1229787	keystroke	e	n/a
615.0435	0.06	1230087	keystroke	t	n/a
615.2535	0.06	1230507	keystroke	w	n/a
615.3585	0.06	1230717	keystroke	o	n/a
615.4335	0.06	1230867	keystroke	r	n/a
615.569	0.0445	1231138	keystroke	k	n/a
616.034	0.105	1232068	keystroke	Key.space	n/a
616.184	0.12	1232368	keystroke	m	n/a
616.289	0.09	1232578	keystroke	o	n/a
616.364	0.06	1232728	keystroke	t	n/a
616.499	0.075	1232998	keystroke	i	n/a
616.604	0.12	1233208	keystroke	v	n/a
616.829	0.075	1233658	keystroke	a	n/a
616.949	0.06	1233898	keystroke	t	n/a
617.054	0.135	1234108	keystroke	i	n/a
617.099	0.12	1234198	keystroke	o	n/a
617.294	0.075	1234588	keystroke	n	n/a
617.564	0.075	1235128	keystroke	Key.space	n/a
617.819	0.06	1235638	keystroke	c	n/a
617.864	0.09	1235728	keystroke	h	n/a
617.969	0.06	1235938	keystroke	e	n/a
618.104	0.06	1236208	keystroke	l	n/a
618.329	0.075	1236658	keystroke	s	n/a
618.479	0.06	1236958	keystroke	e	n/a
618.599	0.105	1237198	keystroke	a	n/a
618.8985	0.0905	1237797	keystroke	Key.space	n/a
618.99	0.074	1237980	keystroke	s	n/a
619.079	0.075	1238158	keystroke	p	n/a
619.199	0.045	1238398	keystroke	e	n/a
619.349	0.045	1238698	keystroke	n	n/a
619.454	0.03	1238908	keystroke	d	n/a
620.279	0.06	1240558	keystroke	Key.enter	n/a
620.3435	6.3875	1240687	prompt	n/a	severe raises head souls\n
621.089	0.09	1242178	keystroke	s	n/a
621.285	0.119	1242570	keystroke	e	n/a
621.629	0.045	1243258	keystroke	v	n/a
621.794	0.12	1243588	keystroke	e	n/a
621.884	0.075	1243768	keystroke	r	n/a
622.079	0.045	1244158	keystroke	e	n/a
622.484	0.12	1244968	keystroke	Key.space	n/a
622.949	0.045	1245898	keystroke	r	n/a
623.084	0.09	1246168	keystroke	a	n/a
623.564	0.06	1247128	keystroke	i	n/a
623.729	0.075	1247458	keystroke	s	n/a
623.924	0.045	1247848	keystroke	e	n/a
624.059	0.075	1248118	keystroke	s	n/a
624.2985	0.0905	1248597	keystroke	Key.space	n/a
624.509	0.09	1249018	keystroke	h	n/a
624.569	0.091	1249138	keystroke	e	n/a
624.719	0.075	1249438	keystroke	a	n/a
624.915	0.059	1249830	keystroke	d	n/a
625.229	0.075	1250458	keystroke	Key.space	n/a
625.365	0.074	1250730	keystroke	s	n/a
625.454	0.105	1250908	keystroke	o	n/a
625.635	0.044	1251270	keystroke	u	n/a
625.799	0.105	1251598	keystroke	l	n/a
625.889	0.06	1251778	keystroke	s	n/a
626.654	0.075	1253308	keystroke	Key.enter	n/a
626.7375	7.1935	1253475	prompt	n/a	touched blow savannah describe\n
627.5095	0.075	1255019	keystroke	t	n/a
627.6135	0.076	1255227	keystroke	o	n/a
627.7935	0.061	1255587	keystroke	u	n/a
627.8685	0.06	1255737	keystroke	c	n/a
627.9885	0.046	1255977	keystroke	h	n/a
628.784	0.06	1257568	keystroke	e	n/a
628.964	0.06	1257928	keystroke	d	n/a
629.084	0.06	1258168	keystroke	Key.space	n/a
629.234	0.075	1258468	keystroke	b	n/a
629.369	0.09	1258738	keystroke	l	n/a
629.564	0.075	1259128	keystroke	o	n/a
629.624	0.075	1259248	keystroke	w	n/a
629.759	0.105	1259518	keystroke	Key.space	n/a
629.924	0.075	1259848	keystroke	s	n/a
630.119	0.06	1260238	keystroke	a	n/a
630.284	0.09	1260568	keystroke	v	n/a
630.494	0.045	1260988	keystroke	a	n/a
630.599	0.045	1261198	keystroke	n	n/a
630.779	0.06	1261558	keystroke	n	n/a
631.034	0.03	1262068	keystroke	a	n/a
631.094	0.06	1262188	keystroke	h	n/a
631.949	0.1205	1263898	keystroke	Key.space	n/a
632.2045	0.06	1264409	keystroke	d	n/a
632.3695	0.045	1264739	keystroke	e	n/a
632.5045	0.09	1265009	keystroke	s	n/a
632.6695	0.135	1265339	keystroke	c	n/a
632.9545	0.06	1265909	keystroke	r	n/a
633.0295	0.075	1266059	keystroke	i	n/a
633.1945	0.075	1266389	keystroke	b	n/a
633.3145	0.045	1266629	keystroke	e	n/a
633.8695	0.0595	1267739	keystroke	Key.enter	n/a
633.9335	9.8525	1267867	prompt	n/a	educators marked exchange gossip\n
634.6345	0.045	1269269	keystroke	e	n/a
634.8295	0.045	1269659	keystroke	d	n/a
634.9345	0.075	1269869	keystroke	u	n/a
635.0545	0.105	1270109	keystroke	c	n/a
635.3245	0.075	1270649	keystroke	a	n/a
635.5345	0.06	1271069	keystroke	t	n/a
635.7445	0.075	1271489	keystroke	o	n/a
635.8345	0.06	1271669	keystroke	r	n/a
636.704	0.06	1273408	keystroke	s	n/a
636.839	0.135	1273678	keystroke	Key.space	n/a
636.989	0.105	1273978	keystroke	m	n/a
637.679	0.0755	1275358	keystroke	a	n/a
637.8445	0.045	1275689	keystroke	r	n/a
637.949	0.09	1275898	keystroke	k	n/a
638.3095	0.06	1276619	keystroke	e	n/a
638.804	0.0455	1277608	keystroke	d	n/a
639.3295	0.1195	1278659	keystroke	Key.space	n/a
639.615	0.045	1279230	keystroke	e	n/a
639.84	0.075	1279680	keystroke	x	n/a
640.215	0.09	1280430	keystroke	c	n/a
640.71	0.045	1281420	keystroke	h	n/a
640.8	0.075	1281600	keystroke	a	n/a
640.905	0.06	1281810	keystroke	n	n/a
641.01	0.06	1282020	keystroke	g	n/a
641.535	0.03	1283070	keystroke	e	n/a
641.82	0.135	1283640	keystroke	Key.space	n/a
642.1795	0.045	1284359	keystroke	g	n/a
642.2395	0.0905	1284479	keystroke	o	n/a
642.36	0.09	1284720	keystroke	s	n/a
642.54	0.0745	1285080	keystroke	s	n/a
642.7495	0.06	1285499	keystroke	i	n/a
642.9595	0.06	1285919	keystroke	p	n/a
643.71	0.075	1287420	keystroke	Key.enter	n/a
643.7895	9.822	1287579	prompt	n/a	hats belgium minolta script\n
644.52	0.09	1289040	keystroke	h	n/a
644.625	0.06	1289250	keystroke	a	n/a
644.775	0.09	1289550	keystroke	t	n/a
645.0745	0.045	1290149	keystroke	s	n/a
645.39	0.12	1290780	keystroke	Key.space	n/a
645.6	0.075	1291200	keystroke	b	n/a
645.66	0.045	1291320	keystroke	e	n/a
645.825	0.09	1291650	keystroke	l	n/a
646.035	0.03	1292070	keystroke	i	n/a
646.7995	0.06	1293599	keystroke	Key.backspace	n/a
647.1445	0.06	1294289	keystroke	g	n/a
647.2195	0.06	1294439	keystroke	i	n/a
647.4145	0.06	1294829	keystroke	u	n/a
647.6995	0.075	1295399	keystroke	m	n/a
647.9695	0.09	1295939	keystroke	Key.space	n/a
648.1645	0.105	1296329	keystroke	m	n/a
648.3295	0.09	1296659	keystroke	i	n/a
650.31	0.135	1300620	keystroke	n	n/a
650.5645	0.09	1301129	keystroke	o	n/a
650.79	0.105	1301580	keystroke	l	n/a
651.315	0.06	1302630	keystroke	t	n/a
651.51	0.06	1303020	keystroke	a	n/a
651.825	0.12	1303650	keystroke	Key.space	n/a
651.96	0.09	1303920	keystroke	s	n/a
652.11	0.09	1304220	keystroke	c	n/a
652.35	0.045	1304700	keystroke	r	n/a
652.44	0.075	1304880	keystroke	i	n/a
652.665	0.075	1305330	keystroke	p	n/a
652.8	0.03	1305600	keystroke	t	n/a
653.55	0.06	1307100	keystroke	Key.enter	n/a
653.615	15.806	1307230	prompt	n/a	ranger eagle administrators symantec\n
654.51	0.06	1309020	keystroke	r	n/a
654.7195	0.06	1309439	keystroke	n	n/a
654.8245	0.09	1309649	keystroke	a	n/a
655.245	0.06	1310490	keystroke	g	n/a
655.44	0.105	1310880	keystroke	e	n/a
655.515	0.075	1311030	keystroke	r	n/a
655.8	0.12	1311600	keystroke	Key.space	n/a
656.055	0.075	1312110	keystroke	e	n/a
656.475	0.075	1312950	keystroke	Key.backspace	n/a
656.64	0.09	1313280	keystroke	Key.backspace	n/a
656.805	0.09	1313610	keystroke	Key.backspace	n/a
657.015	0.06	1314030	keystroke	Key.backspace	n/a
657.195	0.0595	1314390	keystroke	Key.backspace	n/a
657.3745	0.075	1314749	keystroke	Key.backspace	n/a
657.5995	0.06	1315199	keystroke	Key.backspace	n/a
657.8995	0.09	1315799	keystroke	a	n/a
658.0045	0.075	1316009	keystroke	n	n/a
658.1245	0.09	1316249	keystroke	g	n/a
658.3345	0.105	1316669	keystroke	e	n/a
658.3945	0.09	1316789	keystroke	r	n/a
658.6045	0.12	1317209	keystroke	Key.space	n/a
658.7695	0.09	1317539	keystroke	e	n/a
658.92	0.09	1317840	keystroke	a	n/a
659.085	0.075	1318170	keystroke	g	n/a
659.2645	0.075	1318529	keystroke	l	n/a
659.3695	0.03	1318739	keystroke	e	n/a
660.075	0.1195	1320150	keystroke	Key.space	n/a
660.2245	0.0605	1320449	keystroke	a	n/a
660.36	0.075	1320720	keystroke	d	n/a
660.48	0.09	1320960	keystroke	m	n/a
660.645	0.0745	1321290	keystroke	i	n/a
660.8095	0.075	1321619	keystroke	n	n/a
660.9595	0.075	1321919	keystroke	i	n/a
661.1395	0.06	1322279	keystroke	s	n/a
661.41	0.0445	1322820	keystroke	t	n/a
662.2045	0.03	1324409	keystroke	r	n/a
662.4145	0.075	1324829	keystroke	a	n/a
662.5645	0.06	1325129	keystroke	t	n/a
662.6995	0.075	1325399	keystroke	o	n/a
662.7895	0.075	1325579	keystroke	r	n/a
663.0145	0.045	1326029	keystroke	s	n/a
663.2695	0.105	1326539	keystroke	Key.space	n/a
663.8245	0.06	1327649	keystroke	s	n/a
664.6945	0.075	1329389	keystroke	y	n/a
665.6545	0.03	1331309	keystroke	n	n/a
666.314	0.0605	1332628	keystroke	Key.backspace	n/a
666.5995	0.045	1333199	keystroke	m	n/a
667.4395	0.09	1334879	keystroke	a	n/a
667.6945	0.075	1335389	keystroke	n	n/a
667.8595	0.06	1335719	keystroke	t	n/a
667.9645	0.06	1335929	keystroke	i	n/a
668.3695	0.06	1336739	keystroke	Key.backspace	n/a
668.4445	0.06	1336889	keystroke	e	n/a
668.6095	0.09	1337219	keystroke	c	n/a
669.3145	0.105	1338629	keystroke	Key.enter	n/a
669.424	8.082	1338848	prompt	n/a	reported an naughty river\n
670.14	0.045	1340280	keystroke	r	n/a
670.2445	0.06	1340489	keystroke	e	n/a
670.3645	0.075	1340729	keystroke	p	n/a
670.5445	0.06	1341089	keystroke	o	n/a
670.6345	0.075	1341269	keystroke	r	n/a
670.799	0.0755	1341598	keystroke	t	n/a
670.9495	0.06	1341899	keystroke	e	n/a
671.1295	0.075	1342259	keystroke	d	n/a
671.2345	0.135	1342469	keystroke	Key.space	n/a
671.4295	0.09	1342859	keystroke	a	n/a
671.5495	0.075	1343099	keystroke	n	n/a
672.0595	0.105	1344119	keystroke	Key.space	n/a
672.6145	0.06	1345229	keystroke	a	n/a
672.6895	0.075	1345379	keystroke	n	n/a
672.8695	0.09	1345739	keystroke	u	n/a
672.9445	0.06	1345889	keystroke	g	n/a
673.0645	0.06	1346129	keystroke	h	n/a
673.6495	0.06	1347299	keystroke	Key.backspace	n/a
673.8295	0.045	1347659	keystroke	Key.backspace	n/a
673.9795	0.06	1347959	keystroke	Key.backspace	n/a
