onset	duration	sample	value	key	prompt_text
3.593	19.3135	7186	prompt	n/a	the quick brown fox jumps over a lazy dog\n
5.6355	0.026	11271	keystroke_t	t	n/a
5.6765	0.09	11353	keystroke_h	h	n/a
7.3715	0.105	14743	keystroke_e	e	n/a
8.1215	0.12	16243	keystroke_Key.space	Key.space	n/a
8.4965	0.09	16993	keystroke_q	q	n/a
8.7065	0.105	17413	keystroke_u	u	n/a
8.797	0.1045	17594	keystroke_i	i	n/a
9.0965	0.12	18193	keystroke_c	c	n/a
9.2765	0.09	18553	keystroke_k	k	n/a
9.6515	0.09	19303	keystroke_Key.space	Key.space	n/a
10.0865	0.105	20173	keystroke_b	b	n/a
10.4915	0.12	20983	keystroke_r	r	n/a
10.6415	0.105	21283	keystroke_o	o	n/a
12.0815	0.09	24163	keystroke_w	w	n/a
12.2015	0.105	24403	keystroke_n	n	n/a
12.4265	0.105	24853	keystroke_Key.space	Key.space	n/a
12.8015	0.12	25603	keystroke_f	f	n/a
13.1915	0.105	26383	keystroke_o	o	n/a
13.4765	0.12	26953	keystroke_x	x	n/a
13.6415	0.09	27283	keystroke_Key.space	Key.space	n/a
13.9265	0.075	27853	keystroke_j	j	n/a
14.1215	0.075	28243	keystroke_u	u	n/a
14.3765	0.12	28753	keystroke_m	m	n/a
14.5115	0.135	29023	keystroke_p	p	n/a
14.7215	0.12	29443	keystroke_s	s	n/a
14.8715	0.09	29743	keystroke_Key.space	Key.space	n/a
15.097	0.1045	30194	keystroke_o	o	n/a
15.3515	0.12	30703	keystroke_v	v	n/a
15.7715	0.1355	31543	keystroke_e	e	n/a
15.877	0.18	31754	keystroke_r	r	n/a
16.087	0.09	32174	keystroke_Key.space	Key.space	n/a
16.882	0.09	33764	keystroke_t	t	n/a
16.957	0.09	33914	keystroke_h	h	n/a
17.437	0.105	34874	keystroke_e	e	n/a
17.587	0.09	35174	keystroke_Key.space	Key.space	n/a
18.052	0.105	36104	keystroke_l	l	n/a
18.292	0.105	36584	keystroke_z	z	n/a
19.552	0.09	39104	keystroke_Key.backspace	Key.backspace	n/a
20.032	0.09	40064	keystroke_a	a	n/a
20.347	0.105	40694	keystroke_z	z	n/a
20.617	0.09	41234	keystroke_y	y	n/a
20.797	0.105	41594	keystroke_Key.space	Key.space	n/a
21.352	0.045	42704	keystroke_d	d	n/a
21.427	0.075	42854	keystroke_o	o	n/a
21.802	0.09	43604	keystroke_g	g	n/a
22.777	0.12	45554	keystroke_Key.enter	Key.enter	n/a
22.9115	24.4905	45823	prompt	n/a	robbie absolute current expense\n
24.1415	0.105	48283	keystroke_r	r	n/a
24.5465	0.09	49093	keystroke_o	o	n/a
25.1165	0.09	50233	keystroke_b	b	n/a
25.2665	0.12	50533	keystroke_b	b	n/a
25.4765	0.09	50953	keystroke_i	i	n/a
25.9565	0.135	51913	keystroke_e	e	n/a
26.7215	0.075	53443	keystroke_Key.space	Key.space	n/a
27.0815	0.12	54163	keystroke_a	a	n/a
29.6485	0.043	59297	keystroke_b	b	n/a
31.327	0.135	62654	keystroke_s	s	n/a
31.522	0.12	63044	keystroke_o	o	n/a
33.112	0.075	66224	keystroke_l	l	n/a
33.367	0.09	66734	keystroke_u	u	n/a
33.757	0.12	67514	keystroke_t	t	n/a
33.907	0.12	67814	keystroke_e	e	n/a
34.132	0.12	68264	keystroke_Key.space	Key.space	n/a
34.957	0.105	69914	keystroke_c	c	n/a
35.167	0.09	70334	keystroke_u	u	n/a
35.767	0.09	71534	keystroke_r	r	n/a
35.917	0.105	71834	keystroke_r	r	n/a
36.097	0.149	72194	keystroke_e	e	n/a
36.276	0.121	72552	keystroke_n	n	n/a
36.457	0.1345	72914	keystroke_t	t	n/a
36.7715	0.135	73543	keystroke_Key.space	Key.space	n/a
37.6565	0.075	75313	keystroke_e	e	n/a
38.0915	0.105	76183	keystroke_x	x	n/a
38.3615	0.075	76723	keystroke_p	p	n/a
38.8565	0.15	77713	keystroke_e	e	n/a
38.9615	0.165	77923	keystroke_r	r	n/a
43.7345	0.042	87469	keystroke_Key.backspace	Key.backspace	n/a
46.1495	0.027	92299	keystroke_n	n	n/a
46.4165	0.12	92833	keystroke_s	s	n/a
46.6565	0.12	93313	keystroke_e	e	n/a
47.2865	0.105	94573	keystroke_Key.enter	Key.enter	n/a
47.4065	13.592	94813	prompt	n/a	humans demo losing separate\n
49.132	0.075	98264	keystroke_h	h	n/a
49.282	0.075	98564	keystroke_u	u	n/a
49.8665	0.105	99733	keystroke_m	m	n/a
50.7665	0.21	101533	keystroke_a	a	n/a
51.2765	0.105	102553	keystroke_n	n	n/a
51.5465	0.12	103093	keystroke_s	s	n/a
52.0415	0.12	104083	keystroke_Key.space	Key.space	n/a
52.3865	0.12	104773	keystroke_d	d	n/a
52.6565	0.15	105313	keystroke_e	e	n/a
52.7765	0.12	105553	keystroke_m	m	n/a
52.9565	0.165	105913	keystroke_o	o	n/a
53.3015	0.12	106603	keystroke_Key.space	Key.space	n/a
53.8415	0.105	107683	keystroke_l	l	n/a
54.0515	0.12	108103	keystroke_o	o	n/a
54.2765	0.165	108553	keystroke_s	s	n/a
54.8165	0.15	109633	keystroke_i	i	n/a
54.9065	0.12	109813	keystroke_n	n	n/a
55.2815	0.105	110563	keystroke_g	g	n/a
55.612	0.105	111224	keystroke_Key.space	Key.space	n/a
56.3325	0.12	112665	keystroke_s	s	n/a
56.8125	0.12	113625	keystroke_e	e	n/a
56.9625	0.12	113925	keystroke_p	p	n/a
57.3075	0.12	114615	keystroke_a	a	n/a
58.0875	0.195	116175	keystroke_r	r	n/a
58.2975	0.12	116595	keystroke_a	a	n/a
58.9725	0.135	117945	keystroke_t	t	n/a
59.1975	0.15	118395	keystroke_e	e	n/a
60.8915	0.105	121783	keystroke_Key.enter	Key.enter	n/a
61.001	16.9925	122002	prompt	n/a	mechanical vernon pricing pavilion\n
62.0465	0.136	124093	keystroke_m	m	n/a
62.3175	0.135	124635	keystroke_e	e	n/a
62.6325	0.18	125265	keystroke_c	c	n/a
62.8425	0.12	125685	keystroke_h	h	n/a
64.0265	0.105	128053	keystroke_c	c	n/a
64.5515	0.075	129103	keystroke_a	a	n/a
64.7465	0.091	129493	keystroke_n	n	n/a
65.0015	0.105	130003	keystroke_i	i	n/a
65.6025	0.09	131205	keystroke_a	a	n/a
65.7225	0.105	131445	keystroke_l	l	n/a
66.0225	0.105	132045	keystroke_Key.space	Key.space	n/a
66.5775	0.165	133155	keystroke_v	v	n/a
67.1175	0.165	134235	keystroke_e	e	n/a
67.2375	0.165	134475	keystroke_r	r	n/a
69.819	0.058	139638	keystroke_n	n	n/a
70.357	0.135	140714	keystroke_o	o	n/a
70.462	0.12	140924	keystroke_n	n	n/a
71.317	0.09	142634	keystroke_Key.space	Key.space	n/a
71.632	0.12	143264	keystroke_p	p	n/a
71.812	0.165	143624	keystroke_r	r	n/a
71.992	0.105	143984	keystroke_i	i	n/a
72.367	0.135	144734	keystroke_c	c	n/a
72.982	0.15	145964	keystroke_i	i	n/a
73.057	0.135	146114	keystroke_n	n	n/a
73.327	0.1205	146654	keystroke_g	g	n/a
74.1075	0.105	148215	keystroke_Key.space	Key.space	n/a
74.3775	0.09	148755	keystroke_p	p	n/a
75.2475	0.09	150495	keystroke_a	a	n/a
75.7275	0.12	151455	keystroke_v	v	n/a
76.1925	0.105	152385	keystroke_i	i	n/a
76.7175	0.09	153435	keystroke_l	l	n/a
76.9415	0.136	153883	keystroke_i	i	n/a
77.1225	0.104	154245	keystroke_o	o	n/a
77.3615	0.136	154723	keystroke_n	n	n/a
77.9015	0.09	155803	keystroke_Key.enter	Key.enter	n/a
77.9995	17.124	155999	prompt	n/a	alexander belt verde bathrooms\n
79.3125	0.09	158625	keystroke_a	a	n/a
79.4765	0.091	158953	keystroke_l	l	n/a
80.4365	0.105	160873	keystroke_e	e	n/a
80.7065	0.1205	161413	keystroke_x	x	n/a
81.577	0.09	163154	keystroke_a	a	n/a
81.802	0.12	163604	keystroke_n	n	n/a
81.997	0.135	163994	keystroke_d	d	n/a
82.282	0.15	164564	keystroke_e	e	n/a
82.387	0.135	164774	keystroke_r	r	n/a
82.627	0.09	165254	keystroke_Key.space	Key.space	n/a
83.047	0.09	166094	keystroke_b	b	n/a
83.677	0.06	167354	keystroke_l	l	n/a
85.117	0.09	170234	keystroke_Key.backspace	Key.backspace	n/a
85.837	0.105	171674	keystroke_e	e	n/a
85.957	0.09	171914	keystroke_l	l	n/a
86.167	0.12	172334	keystroke_t	t	n/a
86.392	0.105	172784	keystroke_Key.space	Key.space	n/a
86.827	0.12	173654	keystroke_v	v	n/a
87.157	0.135	174314	keystroke_e	e	n/a
87.247	0.18	174494	keystroke_r	r	n/a
87.997	0.12	175994	keystroke_d	d	n/a
88.627	0.15	177254	keystroke_e	e	n/a
89.0325	0.09	178065	keystroke_Key.space	Key.space	n/a
89.5425	0.12	179085	keystroke_v	v	n/a
91.5375	0.075	183075	keystroke_Key.backspace	Key.backspace	n/a
92.0325	0.105	184065	keystroke_b	b	n/a
92.5275	0.12	185055	keystroke_a	a	n/a
92.6625	0.15	185325	keystroke_t	t	n/a
92.8425	0.135	185685	keystroke_h	h	n/a
93.3375	0.105	186675	keystroke_r	r	n/a
93.6075	0.075	187215	keystroke_o	o	n/a
93.7265	0.121	187453	keystroke_o	o	n/a
93.9525	0.105	187905	keystroke_m	m	n/a
94.6715	0.121	189343	keystroke_s	s	n/a
95.0465	0.075	190093	keystroke_Key.enter	Key.enter	n/a
95.1275	15.4615	190255	prompt	n/a	leaving left refinance wiley\n
96.8315	0.015	193663	keystroke_l	l	n/a
97.0575	0.135	194115	keystroke_e	e	n/a
97.2525	0.134	194505	keystroke_a	a	n/a
97.5965	0.105	195193	keystroke_v	v	n/a
98.4065	0.105	196813	keystroke_i	i	n/a
98.4825	0.089	196965	keystroke_n	n	n/a
98.6615	0.121	197323	keystroke_g	g	n/a
98.8415	0.09	197683	keystroke_Key.space	Key.space	n/a
99.1865	0.09	198373	keystroke_l	l	n/a
99.3065	0.12	198613	keystroke_e	e	n/a
99.5465	0.075	199093	keystroke_g	g	n/a
99.7725	0.134	199545	keystroke_t	t	n/a
101.1365	0.075	202273	keystroke_Key.backspace	Key.backspace	n/a
101.2715	0.105	202543	keystroke_Key.backspace	Key.backspace	n/a
101.9615	0.105	203923	keystroke_f	f	n/a
102.2015	0.105	204403	keystroke_t	t	n/a
102.6665	0.075	205333	keystroke_Key.space	Key.space	n/a
103.2815	0.135	206563	keystroke_r	r	n/a
103.3865	0.135	206773	keystroke_e	e	n/a
105.6995	0.012	211399	keystroke_f	f	n/a
105.9815	0.18	211963	keystroke_i	i	n/a
106.0865	0.15	212173	keystroke_n	n	n/a
106.4915	0.135	212983	keystroke_a	a	n/a
106.6565	0.105	213313	keystroke_n	n	n/a
106.9265	0.105	213853	keystroke_c	c	n/a
107.1665	0.12	214333	keystroke_e	e	n/a
107.4665	0.015	214933	keystroke_Key.space	Key.space	n/a
108.0965	0.105	216193	keystroke_w	w	n/a
108.3065	0.12	216613	keystroke_i	i	n/a
108.9665	0.09	217933	keystroke_l	l	n/a
109.3865	0.12	218773	keystroke_e	e	n/a
109.6715	0.105	219343	keystroke_y	y	n/a
110.4965	0.09	220993	keystroke_Key.enter	Key.enter	n/a
110.5915	17.3075	221183	prompt	n/a	jobs rally shops fairy\n
114.0995	0	228199	keystroke_p	p	n/a
115.4165	0.075	230833	keystroke_Key.backspace	Key.backspace	n/a
116.1065	0.075	232213	keystroke_j	j	n/a
116.2265	0.09	232453	keystroke_o	o	n/a
116.5265	0.12	233053	keystroke_b	b	n/a
116.7065	0.1355	233413	keystroke_s	s	n/a
117.052	0.105	234104	keystroke_Key.space	Key.space	n/a
117.457	0.165	234914	keystroke_r	r	n/a
117.637	0.165	235274	keystroke_e	e	n/a
118.087	0.1045	236174	keystroke_a	a	n/a
118.9115	0.076	237823	keystroke_Key.backspace	Key.backspace	n/a
119.0775	0.075	238155	keystroke_Key.backspace	Key.backspace	n/a
120.187	0.09	240374	keystroke_a	a	n/a
120.832	0.06	241664	keystroke_l	l	n/a
120.952	0.09	241904	keystroke_l	l	n/a
121.3575	0.045	242715	keystroke_y	y	n/a
121.6415	0.075	243283	keystroke_Key.space	Key.space	n/a
122.3315	0.1055	244663	keystroke_s	s	n/a
123.322	0.12	246644	keystroke_h	h	n/a
123.562	0.12	247124	keystroke_o	o	n/a
123.757	0.105	247514	keystroke_p	p	n/a
124.282	0.135	248564	keystroke_s	s	n/a
124.507	0.105	249014	keystroke_Key.space	Key.space	n/a
124.972	0.165	249944	keystroke_f	f	n/a
125.857	0.09	251714	keystroke_a	a	n/a
126.157	0.075	252314	keystroke_i	i	n/a
126.337	0.15	252674	keystroke_r	r	n/a
126.787	0.12	253574	keystroke_y	y	n/a
127.7765	0.12	255553	keystroke_Key.enter	Key.enter	n/a
127.9035	20.224	255807	prompt	n/a	restaurants valley channels wikipedia\n
128.9315	0.18	257863	keystroke_r	r	n/a
129.1565	0.15	258313	keystroke_e	e	n/a
129.907	0.1345	259814	keystroke_s	s	n/a
132.7445	0.043	265489	keystroke_t	t	n/a
132.8325	0.105	265665	keystroke_u	u	n/a
135.0695	0.012	270139	keystroke_Key.backspace	Key.backspace	n/a
137.7695	0.058	275539	keystroke_a	a	n/a
137.857	0.105	275714	keystroke_u	u	n/a
138.907	0.135	277814	keystroke_r	r	n/a
139.057	0.15	278114	keystroke_a	a	n/a
139.192	0.09	278384	keystroke_n	n	n/a
139.342	0.15	278684	keystroke_t	t	n/a
139.567	0.15	279134	keystroke_s	s	n/a
139.882	0.09	279764	keystroke_Key.space	Key.space	n/a
140.317	0.165	280634	keystroke_v	v	n/a
140.602	0.15	281204	keystroke_a	a	n/a
141.022	0.075	282044	keystroke_l	l	n/a
141.157	0.105	282314	keystroke_l	l	n/a
141.457	0.105	282914	keystroke_e	e	n/a
141.637	0.12	283274	keystroke_y	y	n/a
141.967	0.075	283934	keystroke_Key.space	Key.space	n/a
142.3575	0.119	284715	keystroke_c	c	n/a
142.5375	0.105	285075	keystroke_h	h	n/a
142.7315	0.12	285463	keystroke_a	a	n/a
143.3765	0.09	286753	keystroke_n	n	n/a
143.5275	0.09	287055	keystroke_n	n	n/a
143.7675	0.1045	287535	keystroke_e	e	n/a
144.217	0.09	288434	keystroke_l	l	n/a
144.4725	0.12	288945	keystroke_s	s	n/a
144.7125	0.09	289425	keystroke_Key.space	Key.space	n/a
145.2825	0.1195	290565	keystroke_w	w	n/a
145.432	0.12	290864	keystroke_i	i	n/a
145.732	0.12	291464	keystroke_k	k	n/a
145.957	0.105	291914	keystroke_i	i	n/a
146.407	0.09	292814	keystroke_p	p	n/a
146.647	0.09	293294	keystroke_e	e	n/a
147.022	0.12	294044	keystroke_d	d	n/a
147.337	0.105	294674	keystroke_i	i	n/a
147.502	0.135	295004	keystroke_a	a	n/a
147.9965	0.12	295993	keystroke_Key.enter	Key.enter	n/a
148.1325	20.019	296265	prompt	n/a	lines busy elementary seniors\n
149.0315	0.105	298063	keystroke_l	l	n/a
149.2115	0.18	298423	keystroke_i	i	n/a
149.3765	0.135	298753	keystroke_n	n	n/a
149.5415	0.15	299083	keystroke_e	e	n/a
149.7665	0.1505	299533	keystroke_s	s	n/a
149.947	0.105	299894	keystroke_Key.space	Key.space	n/a
150.292	0.135	300584	keystroke_v	v	n/a
150.457	0.12	300914	keystroke_u	u	n/a
150.607	0.15	301214	keystroke_s	s	n/a
150.832	0.12	301664	keystroke_y	y	n/a
151.057	0.09	302114	keystroke_Key.space	Key.space	n/a
151.372	0.075	302744	keystroke_e	e	n/a
151.507	0.105	303014	keystroke_l	l	n/a
151.642	0.15	303284	keystroke_e	e	n/a
153.022	0.075	306044	keystroke_=	=	n/a
153.1875	0.06	306375	keystroke_=	=	n/a
153.3675	0.075	306735	keystroke_=	=	n/a
154.2075	0.075	308415	keystroke_Key.backspace	Key.backspace	n/a
154.417	0.06	308834	keystroke_Key.backspace	Key.backspace	n/a
154.597	0.075	309194	keystroke_Key.backspace	Key.backspace	n/a
154.822	0.06	309644	keystroke_Key.backspace	Key.backspace	n/a
155.002	0.0595	310004	keystroke_Key.backspace	Key.backspace	n/a
155.1815	0.075	310363	keystroke_Key.backspace	Key.backspace	n/a
155.4365	0.06	310873	keystroke_Key.backspace	Key.backspace	n/a
155.6165	0.075	311233	keystroke_Key.backspace	Key.backspace	n/a
155.8115	0.075	311623	keystroke_Key.backspace	Key.backspace	n/a
155.9915	0.09	311983	keystroke_Key.backspace	Key.backspace	n/a
156.1865	0.075	312373	keystroke_Key.backspace	Key.backspace	n/a
157.387	0.09	314774	keystroke_b	b	n/a
157.5965	0.075	315193	keystroke_u	u	n/a
157.957	0.1645	315914	keystroke_s	s	n/a
158.3765	0.09	316753	keystroke_y	y	n/a
158.7365	0.075	317473	keystroke_Key.space	Key.space	n/a
159.2015	0.09	318403	keystroke_e	e	n/a
159.3075	0.089	318615	keystroke_l	l	n/a
159.4425	0.15	318885	keystroke_e	e	n/a
159.862	0.12	319724	keystroke_m	m	n/a
160.552	0.135	321104	keystroke_e	e	n/a
160.672	0.12	321344	keystroke_n	n	n/a
160.942	0.165	321884	keystroke_t	t	n/a
161.3775	0.18	322755	keystroke_a	a	n/a
161.5725	0.135	323145	keystroke_r	r	n/a
161.7225	0.1345	323445	keystroke_y	y	n/a
161.977	0.09	323954	keystroke_Key.space	Key.space	n/a
162.6375	0.15	325275	keystroke_s	s	n/a
163.327	0.09	326654	keystroke_e	e	n/a
163.447	0.0905	326894	keystroke_i	i	n/a
164.347	0.075	328694	keystroke_Key.backspace	Key.backspace	n/a
165.112	0.06	330224	keystroke_e	e	n/a
166.192	0.075	332384	keystroke_Key.backspace	Key.backspace	n/a
166.747	0.015	333494	keystroke_n	n	n/a
167.032	0.075	334064	keystroke_i	i	n/a
167.212	0.09	334424	keystroke_o	o	n/a
167.347	0.105	334694	keystroke_r	r	n/a
167.5565	0.09	335113	keystroke_s	s	n/a
168.0365	0.105	336073	keystroke_Key.enter	Key.enter	n/a
168.156	13.9225	336312	prompt	n/a	latino customer cosmetics earn\n
168.9975	0.089	337995	keystroke_l	l	n/a
169.3575	0.1045	338715	keystroke_a	a	n/a
169.8665	0.105	339733	keystroke_r	r	n/a
170.1665	0.15	340333	keystroke_i	i	n/a
171.0965	0.075	342193	keystroke_Key.backspace	Key.backspace	n/a
171.2615	0.09	342523	keystroke_Key.backspace	Key.backspace	n/a
171.9665	0.076	343933	keystroke_t	t	n/a
172.732	0.03	345464	keystroke_i	i	n/a
173.212	0.105	346424	keystroke_n	n	n/a
173.437	0.105	346874	keystroke_o	o	n/a
173.722	0.09	347444	keystroke_Key.space	Key.space	n/a
174.157	0.105	348314	keystroke_c	c	n/a
174.277	0.09	348554	keystroke_u	u	n/a
174.412	0.18	348824	keystroke_s	s	n/a
174.9675	0.15	349935	keystroke_t	t	n/a
175.1325	0.15	350265	keystroke_o	o	n/a
175.2675	0.12	350535	keystroke_m	m	n/a
175.5525	0.15	351105	keystroke_e	e	n/a
175.6725	0.135	351345	keystroke_r	r	n/a
175.8815	0.09	351763	keystroke_Key.space	Key.space	n/a
176.737	0.12	353474	keystroke_c	c	n/a
176.917	0.09	353834	keystroke_o	o	n/a
177.067	0.165	354134	keystroke_s	s	n/a
177.9825	0.105	355965	keystroke_m	m	n/a
178.1775	0.12	356355	keystroke_e	e	n/a
178.5825	0.105	357165	keystroke_t	t	n/a
178.7175	0.09	357435	keystroke_i	i	n/a
179.092	0.135	358184	keystroke_c	c	n/a
179.332	0.165	358664	keystroke_s	s	n/a
179.8715	0.09	359743	keystroke_Key.space	Key.space	n/a
180.562	0.1345	361124	keystroke_e	e	n/a
180.7865	0.165	361573	keystroke_a	a	n/a
180.997	0.15	361994	keystroke_r	r	n/a
181.2365	0.1205	362473	keystroke_n	n	n/a
181.9725	0.105	363945	keystroke_Key.enter	Key.enter	n/a
182.0825	28.849	364165	prompt	n/a	guidelines advertisers cars origins\n
183.6675	0.105	367335	keystroke_g	g	n/a
183.817	0.06	367634	keystroke_u	u	n/a
183.862	0.105	367724	keystroke_i	i	n/a
184.207	0.135	368414	keystroke_d	d	n/a
184.7465	0.075	369493	keystroke_e	e	n/a
185.0465	0.105	370093	keystroke_l	l	n/a
185.3165	0.135	370633	keystroke_i	i	n/a
185.3915	0.135	370783	keystroke_n	n	n/a
185.5715	0.15	371143	keystroke_e	e	n/a
185.767	0.12	371534	keystroke_e	e	n/a
187.2065	0.06	374413	keystroke_Key.backspace	Key.backspace	n/a
187.4765	0.105	374953	keystroke_s	s	n/a
187.912	0.09	375824	keystroke_Key.space	Key.space	n/a
189.2465	0.12	378493	keystroke_a	a	n/a
189.5315	0.15	379063	keystroke_d	d	n/a
190.672	0.1195	381344	keystroke_v	v	n/a
190.9115	0.18	381823	keystroke_e	e	n/a
191.0465	0.135	382093	keystroke_r	r	n/a
193.2695	0.057	386539	keystroke_r	r	n/a
194.977	0.09	389954	keystroke_Key.backspace	Key.backspace	n/a
195.247	0.09	390494	keystroke_t	t	n/a
198.22	0.012	396440	keystroke_i	i	n/a
198.442	0.105	396884	keystroke_s	s	n/a
198.682	0.21	397364	keystroke_e	e	n/a
198.907	0.15	397814	keystroke_r	r	n/a
199.147	0.135	398294	keystroke_s	s	n/a
199.417	0.105	398834	keystroke_Key.space	Key.space	n/a
199.747	0.18	399494	keystroke_c	c	n/a
199.972	0.165	399944	keystroke_a	a	n/a
200.347	0.135	400694	keystroke_r	r	n/a
200.617	0.1055	401234	keystroke_d	d	n/a
200.752	0.075	401504	keystroke_s	s	n/a
200.782	0.075	401564	keystroke_d	d	n/a
201.772	0.075	403544	keystroke_Key.backspace	Key.backspace	n/a
201.982	0.06	403964	keystroke_Key.backspace	Key.backspace	n/a
202.252	0.045	404504	keystroke_Key.backspace	Key.backspace	n/a
203.4065	0.105	406813	keystroke_s	s	n/a
203.6165	0.09	407233	keystroke_Key.space	Key.space	n/a
205.687	0.075	411374	keystroke_o	o	n/a
206.197	0.075	412394	keystroke_r	r	n/a
206.407	0.06	412814	keystroke_i	i	n/a
207.022	0.015	414044	keystroke_g	g	n/a
207.607	0.09	415214	keystroke_i	i	n/a
208.8365	0.09	417673	keystroke_n	n	n/a
209.0165	0.12	418033	keystroke_s	s	n/a
210.8475	0.075	421695	keystroke_Key.enter	Key.enter	n/a
210.9355	10.323	421871	prompt	n/a	charge locked recall assessments\n
212.4375	0.105	424875	keystroke_c	c	n/a
212.5575	0.075	425115	keystroke_h	h	n/a
212.8125	0.15	425625	keystroke_a	a	n/a
212.9175	0.15	425835	keystroke_r	r	n/a
213.8025	0.09	427605	keystroke_g	g	n/a
214.0575	0.105	428115	keystroke_e	e	n/a
214.3125	0.105	428625	keystroke_Key.space	Key.space	n/a
214.6275	0.105	429255	keystroke_l	l	n/a
214.8375	0.09	429675	keystroke_o	o	n/a
214.9875	0.1195	429975	keystroke_c	c	n/a
215.122	0.105	430244	keystroke_k	k	n/a
215.257	0.12	430514	keystroke_e	e	n/a
215.497	0.12	430994	keystroke_d	d	n/a
215.647	0.075	431294	keystroke_Key.space	Key.space	n/a
215.9475	0.105	431895	keystroke_r	r	n/a
216.2625	0.105	432525	keystroke_e	e	n/a
216.6215	0.121	433243	keystroke_c	c	n/a
217.2375	0.105	434475	keystroke_a	a	n/a
217.5675	0.06	435135	keystroke_l	l	n/a
217.6875	0.09	435375	keystroke_l	l	n/a
217.9875	0.09	435975	keystroke_Key.space	Key.space	n/a
218.3325	0.09	436665	keystroke_a	a	n/a
218.5875	0.12	437175	keystroke_s	s	n/a
218.7525	0.12	437505	keystroke_s	s	n/a
219.0225	0.12	438045	keystroke_e	e	n/a
219.6075	0.09	439215	keystroke_m	m	n/a
219.9975	0.135	439995	keystroke_e	e	n/a
220.1625	0.105	440325	keystroke_n	n	n/a
220.2975	0.12	440595	keystroke_t	t	n/a
220.5375	0.15	441075	keystroke_s	s	n/a
221.1075	0.15	442215	keystroke_Key.enter	Key.enter	n/a
221.261	11.6975	442522	prompt	n/a	nested shape fraud peas\n
222.397	0.105	444794	keystroke_n	n	n/a
222.577	0.15	445154	keystroke_e	e	n/a
222.862	0.12	445724	keystroke_s	s	n/a
223.102	0.1345	446204	keystroke_t	t	n/a
223.3115	0.136	446623	keystroke_e	e	n/a
223.5515	0.135	447103	keystroke_d	d	n/a
223.8065	0.091	447613	keystroke_Key.space	Key.space	n/a
224.2575	0.105	448515	keystroke_s	s	n/a
224.4525	0.12	448905	keystroke_h	h	n/a
224.5875	0.105	449175	keystroke_e	e	n/a
225.6525	0.105	451305	keystroke_Key.backspace	Key.backspace	n/a
226.117	0.09	452234	keystroke_a	a	n/a
227.5575	0.12	455115	keystroke_p	p	n/a
227.812	0.105	455624	keystroke_e	e	n/a
228.157	0.075	456314	keystroke_Key.space	Key.space	n/a
228.877	0.105	457754	keystroke_f	f	n/a
229.117	0.105	458234	keystroke_r	r	n/a
229.942	0.09	459884	keystroke_a	a	n/a
230.092	0.12	460184	keystroke_u	u	n/a
230.452	0.135	460904	keystroke_d	d	n/a
230.7375	0.09	461475	keystroke_Key.space	Key.space	n/a
231.2025	0.12	462405	keystroke_p	p	n/a
231.4425	0.15	462885	keystroke_e	e	n/a
231.6375	0.09	463275	keystroke_a	a	n/a
232.3725	0.105	464745	keystroke_s	s	n/a
232.8215	0.135	465643	keystroke_Key.enter	Key.enter	n/a
232.9615	24.2155	465923	prompt	n/a	nottingham hereby editorials syndrome\n
234.0075	0.149	468015	keystroke_n	n	n/a
234.2315	0.136	468463	keystroke_o	o	n/a
235.6425	0.075	471285	keystroke_t	t	n/a
235.8075	0.1045	471615	keystroke_t	t	n/a
236.257	0.135	472514	keystroke_i	i	n/a
236.317	0.135	472634	keystroke_n	n	n/a
236.497	0.12	472994	keystroke_g	g	n/a
237.157	0.105	474314	keystroke_h	h	n/a
237.532	0.1345	475064	keystroke_a	a	n/a
237.967	0.09	475934	keystroke_m	m	n/a
238.2365	0.0755	476473	keystroke_Key.space	Key.space	n/a
238.537	0.09	477074	keystroke_h	h	n/a
240.5325	0.18	481065	keystroke_e	e	n/a
240.6975	0.18	481395	keystroke_r	r	n/a
240.8625	0.15	481725	keystroke_e	e	n/a
242.7975	0.135	485595	keystroke_v	v	n/a
242.9775	0.1345	485955	keystroke_u	u	n/a
243.997	0.06	487994	keystroke_Key.backspace	Key.backspace	n/a
244.147	0.09	488294	keystroke_Key.backspace	Key.backspace	n/a
244.357	0.135	488714	keystroke_b	b	n/a
244.792	0.135	489584	keystroke_y	y	n/a
245.737	0.105	491474	keystroke_Key.space	Key.space	n/a
246.172	0.135	492344	keystroke_d	d	n/a
247.387	0.06	494774	keystroke_Key.backspace	Key.backspace	n/a
247.8075	0.09	495615	keystroke_e	e	n/a
249.1125	0.09	498225	keystroke_d	d	n/a
249.5325	0.105	499065	keystroke_i	i	n/a
251.1975	0.09	502395	keystroke_t	t	n/a
251.4225	0.105	502845	keystroke_o	o	n/a
251.8275	0.105	503655	keystroke_r	r	n/a
251.9775	0.105	503955	keystroke_u	u	n/a
253.147	0.09	506294	keystroke_Key.backspace	Key.backspace	n/a
253.687	0.075	507374	keystroke_i	i	n/a
253.912	0.075	507824	keystroke_a	a	n/a
254.017	0.075	508034	keystroke_l	l	n/a
254.197	0.105	508394	keystroke_s	s	n/a
254.422	0.09	508844	keystroke_Key.space	Key.space	n/a
254.8275	0.15	509655	keystroke_s	s	n/a
254.9925	0.135	509985	keystroke_y	y	n/a
255.2775	0.105	510555	keystroke_n	n	n/a
255.6225	0.105	511245	keystroke_d	d	n/a
256.0575	0.12	512115	keystroke_r	r	n/a
256.1925	0.18	512385	keystroke_o	o	n/a
256.2825	0.15	512565	keystroke_m	m	n/a
256.4775	0.135	512955	keystroke_e	e	n/a
257.0325	0.135	514065	keystroke_Key.enter	Key.enter	n/a
257.181	15.8125	514362	prompt	n/a	invest regulatory diary brooks\n
258.8475	0.165	517695	keystroke_i	i	n/a
258.9375	0.12	517875	keystroke_n	n	n/a
259.3125	0.105	518625	keystroke_v	v	n/a
259.5525	0.15	519105	keystroke_e	e	n/a
259.9575	0.135	519915	keystroke_s	s	n/a
260.1825	0.105	520365	keystroke_t	t	n/a
260.6925	0.0745	521385	keystroke_Key.space	Key.space	n/a
261.022	0.165	522044	keystroke_r	r	n/a
261.172	0.12	522344	keystroke_e	e	n/a
262.957	0.09	525914	keystroke_q	q	n/a
263.302	0.105	526604	keystroke_u	u	n/a
265.6445	0.028	531289	keystroke_l	l	n/a
265.7775	0.12	531555	keystroke_a	a	n/a
267.0075	0.059	534015	keystroke_t	t	n/a
267.1115	0.09	534223	keystroke_o	o	n/a
267.2315	0.12	534463	keystroke_r	r	n/a
267.4415	0.075	534883	keystroke_y	y	n/a
267.8015	0.0905	535603	keystroke_Key.space	Key.space	n/a
268.102	0.105	536204	keystroke_d	d	n/a
268.282	0.09	536564	keystroke_i	i	n/a
268.762	0.18	537524	keystroke_a	a	n/a
268.972	0.135	537944	keystroke_r	r	n/a
269.137	0.15	538274	keystroke_y	y	n/a
269.452	0.09	538904	keystroke_Key.space	Key.space	n/a
270.697	0.15	541394	keystroke_b	b	n/a
271.462	0.15	542924	keystroke_r	r	n/a
272.0475	0.075	544095	keystroke_o	o	n/a
272.1825	0.09	544365	keystroke_o	o	n/a
272.4075	0.12	544815	keystroke_k	k	n/a
272.5725	0.105	545145	keystroke_s	s	n/a
272.8725	0.12	545745	keystroke_Key.enter	Key.enter	n/a
272.9965	10.482	545993	prompt	n/a	angle indoor satellite glen\n
274.2525	0.12	548505	keystroke_a	a	n/a
274.4025	0.09	548805	keystroke_n	n	n/a
275.0475	0.134	550095	keystroke_g	g	n/a
275.3765	0.09	550753	keystroke_l	l	n/a
275.5265	0.1505	551053	keystroke_e	e	n/a
275.827	0.06	551654	keystroke_Key.space	Key.space	n/a
276.142	0.15	552284	keystroke_i	i	n/a
276.217	0.12	552434	keystroke_n	n	n/a
276.382	0.135	552764	keystroke_d	d	n/a
276.652	0.12	553304	keystroke_o	o	n/a
276.847	0.09	553694	keystroke_o	o	n/a
277.072	0.09	554144	keystroke_r	r	n/a
277.732	0.1205	555464	keystroke_Key.space	Key.space	n/a
278.4665	0.135	556933	keystroke_s	s	n/a
278.7975	0.134	557595	keystroke_a	a	n/a
279.0375	0.12	558075	keystroke_t	t	n/a
279.4565	0.105	558913	keystroke_e	e	n/a
279.9815	0.075	559963	keystroke_l	l	n/a
280.1165	0.09	560233	keystroke_l	l	n/a
280.297	0.12	560594	keystroke_i	i	n/a
280.492	0.135	560984	keystroke_t	t	n/a
280.672	0.15	561344	keystroke_e	e	n/a
281.002	0.09	562004	keystroke_Key.space	Key.space	n/a
282.082	0.12	564164	keystroke_g	g	n/a
282.697	0.06	565394	keystroke_l	l	n/a
282.817	0.105	565634	keystroke_e	e	n/a
282.952	0.12	565904	keystroke_n	n	n/a
283.372	0.1055	566744	keystroke_Key.enter	Key.enter	n/a
283.481	19.596	566962	prompt	n/a	northeast compensation rental indicators\n
284.8125	0.105	569625	keystroke_n	n	n/a
284.9175	0.135	569835	keystroke_o	o	n/a
285.7725	0.15	571545	keystroke_t	t	n/a
288.2045	0.013	576409	keystroke_Key.backspace	Key.backspace	n/a
290.002	0.135	580004	keystroke_r	r	n/a
290.3625	0.12	580725	keystroke_t	t	n/a
290.4825	0.12	580965	keystroke_h	h	n/a
291.0375	0.18	582075	keystroke_e	e	n/a
291.9825	0.15	583965	keystroke_a	a	n/a
292.2825	0.135	584565	keystroke_s	s	n/a
292.5375	0.12	585075	keystroke_t	t	n/a
292.9125	0.09	585825	keystroke_Key.space	Key.space	n/a
293.3775	0.12	586755	keystroke_c	c	n/a
293.5125	0.21	587025	keystroke_o	o	n/a
293.6325	0.12	587265	keystroke_m	m	n/a
293.8575	0.105	587715	keystroke_p	p	n/a
294.7275	0.12	589455	keystroke_e	e	n/a
294.8175	0.12	589635	keystroke_n	n	n/a
295.1475	0.15	590295	keystroke_s	s	n/a
295.3875	0.135	590775	keystroke_a	a	n/a
295.8075	0.12	591615	keystroke_t	t	n/a
296.2725	0.12	592545	keystroke_i	i	n/a
296.3325	0.1795	592665	keystroke_o	o	n/a
296.587	0.135	593174	keystroke_n	n	n/a
296.917	0.09	593834	keystroke_Key.space	Key.space	n/a
297.337	0.15	594674	keystroke_r	r	n/a
297.502	0.105	595004	keystroke_e	e	n/a
297.727	0.105	595454	keystroke_n	n	n/a
298.5825	0.12	597165	keystroke_t	t	n/a
298.8225	0.135	597645	keystroke_a	a	n/a
299.0925	0.105	598185	keystroke_l	l	n/a
299.3925	0.06	598785	keystroke_Key.space	Key.space	n/a
300.1275	0.195	600255	keystroke_i	i	n/a
300.2325	0.135	600465	keystroke_n	n	n/a
301.0275	0.09	602055	keystroke_i	i	n/a
301.2525	0.12	602505	keystroke_c	c	n/a
301.3875	0.18	602775	keystroke_a	a	n/a
301.6575	0.135	603315	keystroke_t	t	n/a
301.9415	0.105	603883	keystroke_o	o	n/a
302.0775	0.119	604155	keystroke_r	r	n/a
302.3625	0.119	604725	keystroke_s	s	n/a
302.9465	0.12	605893	keystroke_Key.enter	Key.enter	n/a
303.0805	11.943	606161	prompt	n/a	enjoyed term funded bend\n
304.0125	0.134	608025	keystroke_e	e	n/a
304.1615	0.105	608323	keystroke_n	n	n/a
305.602	0.1205	611204	keystroke_j	j	n/a
305.692	0.1355	611384	keystroke_o	o	n/a
306.1575	0.09	612315	keystroke_y	y	n/a
306.3825	0.09	612765	keystroke_e	e	n/a
306.6225	0.12	613245	keystroke_d	d	n/a
306.9675	0.075	613935	keystroke_Key.space	Key.space	n/a
307.5975	0.105	615195	keystroke_t	t	n/a
307.8375	0.15	615675	keystroke_e	e	n/a
307.9425	0.15	615885	keystroke_r	r	n/a
308.3325	0.09	616665	keystroke_m	m	n/a
308.6915	0.06	617383	keystroke_Key.space	Key.space	n/a
309.7265	0.091	619453	keystroke_f	f	n/a
309.8765	0.075	619753	keystroke_u	u	n/a
310.1325	0.105	620265	keystroke_n	n	n/a
310.7315	0.12	621463	keystroke_d	d	n/a
310.9415	0.105	621883	keystroke_e	e	n/a
311.1365	0.15	622273	keystroke_d	d	n/a
311.3015	0.105	622603	keystroke_Key.space	Key.space	n/a
311.5865	0.165	623173	keystroke_v	v	n/a
312.6375	0.075	625275	keystroke_Key.backspace	Key.backspace	n/a
312.9825	0.075	625965	keystroke_b	b	n/a
313.537	0.105	627074	keystroke_e	e	n/a
314.107	0.075	628214	keystroke_n	n	n/a
314.287	0.12	628574	keystroke_d	d	n/a
314.932	0.09	629864	keystroke_Key.enter	Key.enter	n/a
315.0275	15.011	630055	prompt	n/a	we'll reproduce smart strategy\n
315.952	0.045	631904	keystroke_e	e	n/a
316.897	0.06	633794	keystroke_Key.backspace	Key.backspace	n/a
317.872	0.165	635744	keystroke_w	w	n/a
317.947	0.12	635894	keystroke_e	e	n/a
318.6375	0.12	637275	keystroke_'	'	n/a
319.1025	0.09	638205	keystroke_l	l	n/a
319.2525	0.105	638505	keystroke_l	l	n/a
319.6575	0.075	639315	keystroke_Key.space	Key.space	n/a
320.1525	0.18	640305	keystroke_r	r	n/a
320.3475	0.1645	640695	keystroke_e	e	n/a
320.8425	0.12	641685	keystroke_p	p	n/a
321.1275	0.135	642255	keystroke_r	r	n/a
321.4725	0.075	642945	keystroke_o	o	n/a
322.132	0.075	644264	keystroke_d	d	n/a
322.312	0.12	644624	keystroke_u	u	n/a
322.702	0.12	645404	keystroke_c	c	n/a
322.957	0.12	645914	keystroke_e	e	n/a
323.227	0.105	646454	keystroke_Key.space	Key.space	n/a
323.677	0.12	647354	keystroke_s	s	n/a
323.827	0.135	647654	keystroke_m	m	n/a
324.067	0.165	648134	keystroke_a	a	n/a
324.742	0.105	649484	keystroke_r	r	n/a
324.997	0.12	649994	keystroke_t	t	n/a
325.237	0.09	650474	keystroke_Key.space	Key.space	n/a
325.672	0.105	651344	keystroke_s	s	n/a
325.957	0.09	651914	keystroke_t	t	n/a
326.437	0.12	652874	keystroke_r	r	n/a
326.632	0.15	653264	keystroke_a	a	n/a
327.172	0.12	654344	keystroke_t	t	n/a
328.372	0.12	656744	keystroke_e	e	n/a
328.657	0.15	657314	keystroke_g	g	n/a
328.9125	0.15	657825	keystroke_y	y	n/a
329.9615	0.076	659923	keystroke_Key.enter	Key.enter	n/a
330.041	15.4775	660082	prompt	n/a	burns acting exemption snapshot\n
331.1465	0.12	662293	keystroke_b	b	n/a
332.572	0.135	665144	keystroke_u	u	n/a
333.067	0.12	666134	keystroke_r	r	n/a
333.517	0.09	667034	keystroke_n	n	n/a
333.682	0.105	667364	keystroke_s	s	n/a
334.072	0.09	668144	keystroke_Key.space	Key.space	n/a
334.4025	0.165	668805	keystroke_a	a	n/a
334.6715	0.166	669343	keystroke_c	c	n/a
335.0015	0.105	670003	keystroke_t	t	n/a
335.5115	0.21	671023	keystroke_i	i	n/a
335.6625	0.119	671325	keystroke_n	n	n/a
335.8715	0.105	671743	keystroke_g	g	n/a
336.1115	0.105	672223	keystroke_Key.space	Key.space	n/a
336.7415	0.105	673483	keystroke_e	e	n/a
337.057	0.1045	674114	keystroke_x	x	n/a
337.5075	0.135	675015	keystroke_e	e	n/a
337.6715	0.15	675343	keystroke_m	m	n/a
337.8065	0.1205	675613	keystroke_p	p	n/a
338.107	0.135	676214	keystroke_t	t	n/a
338.212	0.15	676424	keystroke_i	i	n/a
338.302	0.15	676604	keystroke_o	o	n/a
338.782	0.09	677564	keystroke_n	n	n/a
339.112	0.075	678224	keystroke_Key.space	Key.space	n/a
339.487	0.12	678974	keystroke_s	s	n/a
339.832	0.105	679664	keystroke_n	n	n/a
340.102	0.09	680204	keystroke_a	a	n/a
340.822	0.105	681644	keystroke_p	p	n/a
341.9925	0.105	683985	keystroke_s	s	n/a
342.2025	0.06	684405	keystroke_h	h	n/a
344.514	0.001	689028	keystroke_o	o	n/a
344.677	0.105	689354	keystroke_t	t	n/a
345.442	0.075	690884	keystroke_Key.enter	Key.enter	n/a
345.521	10.3775	691042	prompt	n/a	jewelry crisis suite bear\n
346.387	0.12	692774	keystroke_j	j	n/a
346.882	0.27	693764	keystroke_e	e	n/a
347.002	0.165	694004	keystroke_w	w	n/a
347.782	0.12	695564	keystroke_e	e	n/a
348.232	0.075	696464	keystroke_l	l	n/a
348.667	0.12	697334	keystroke_r	r	n/a
348.832	0.1205	697664	keystroke_y	y	n/a
349.1925	0.09	698385	keystroke_Key.space	Key.space	n/a
349.7775	0.2095	699555	keystroke_c	c	n/a
350.122	0.12	700244	keystroke_r	r	n/a
351.5625	0.09	703125	keystroke_i	i	n/a
351.7125	0.12	703425	keystroke_s	s	n/a
351.9075	0.12	703815	keystroke_i	i	n/a
352.0575	0.105	704115	keystroke_s	s	n/a
352.2825	0.075	704565	keystroke_Key.space	Key.space	n/a
352.6875	0.105	705375	keystroke_s	s	n/a
352.7925	0.15	705585	keystroke_u	u	n/a
352.9275	0.15	705855	keystroke_i	i	n/a
353.1225	0.135	706245	keystroke_t	t	n/a
353.4825	0.105	706965	keystroke_e	e	n/a
353.6925	0.075	707385	keystroke_Key.space	Key.space	n/a
354.142	0.015	708284	keystroke_b	b	n/a
354.862	0.15	709724	keystroke_e	e	n/a
355.087	0.165	710174	keystroke_a	a	n/a
355.222	0.15	710444	keystroke_r	r	n/a
355.792	0.105	711584	keystroke_Key.enter	Key.enter	n/a
355.901	27.8765	711802	prompt	n/a	complications messages plot commissioners\n
356.962	0.015	713924	keystroke_c	c	n/a
357.292	0.075	714584	keystroke_o	o	n/a
359.138	0.104	718276	keystroke_m	m	n/a
359.497	0.105	718994	keystroke_p	p	n/a
360.3675	0.09	720735	keystroke_l	l	n/a
360.5325	0.105	721065	keystroke_i	i	n/a
360.7725	0.18	721545	keystroke_c	c	n/a
360.9975	0.195	721995	keystroke_a	a	n/a
361.3275	0.105	722655	keystroke_r	r	n/a
361.5075	0.1345	723015	keystroke_i	i	n/a
361.597	0.15	723194	keystroke_o	o	n/a
362.482	0.075	724964	keystroke_Key.backspace	Key.backspace	n/a
362.6475	0.0895	725295	keystroke_Key.backspace	Key.backspace	n/a
362.842	0.075	725684	keystroke_Key.backspace	Key.backspace	n/a
363.232	0.105	726464	keystroke_t	t	n/a
363.337	0.135	726674	keystroke_i	i	n/a
363.502	0.06	727004	keystroke_o	o	n/a
363.817	0.1055	727634	keystroke_n	n	n/a
364.042	0.12	728084	keystroke_s	s	n/a
364.417	0.105	728834	keystroke_Key.space	Key.space	n/a
364.942	0.09	729884	keystroke_m	m	n/a
365.092	0.135	730184	keystroke_e	e	n/a
365.3925	0.105	730785	keystroke_s	s	n/a
365.5125	0.165	731025	keystroke_s	s	n/a
366.3225	0.12	732645	keystroke_a	a	n/a
366.6225	0.045	733245	keystroke_f	f	n/a
366.6975	0.06	733395	keystroke_f	f	n/a
366.9675	0.105	733935	keystroke_e	e	n/a
368.7075	0.09	737415	keystroke_Key.backspace	Key.backspace	n/a
368.8725	0.09	737745	keystroke_Key.backspace	Key.backspace	n/a
369.3825	0.06	738765	keystroke_Key.backspace	Key.backspace	n/a
371.6345	0.073	743269	keystroke_g	g	n/a
372.2925	0.135	744585	keystroke_e	e	n/a
372.5475	0.15	745095	keystroke_s	s	n/a
372.9525	0.09	745905	keystroke_Key.space	Key.space	n/a
373.597	0.1055	747194	keystroke_p	p	n/a
373.8225	0.105	747645	keystroke_l	l	n/a
373.9425	0.09	747885	keystroke_a	a	n/a
375.5625	0.105	751125	keystroke_Key.backspace	Key.backspace	n/a
376.0875	0.075	752175	keystroke_o	o	n/a
376.6425	0.09	753285	keystroke_t	t	n/a
376.9275	0.075	753855	keystroke_Key.space	Key.space	n/a
377.3175	0.105	754635	keystroke_c	c	n/a
377.4825	0.18	754965	keystroke_o	o	n/a
377.6175	0.105	755235	keystroke_m	m	n/a
378.3225	0.09	756645	keystroke_s	s	n/a
378.5175	0.075	757035	keystroke_s	s	n/a
378.6675	0.165	757335	keystroke_i	i	n/a
378.8025	0.15	757605	keystroke_o	o	n/a
379.0425	0.12	758085	keystroke_n	n	n/a
379.3125	0.06	758625	keystroke_s	s	n/a
380.4525	0.09	760905	keystroke_Key.backspace	Key.backspace	n/a
382.8845	0.073	765769	keystroke_e	e	n/a
382.9275	0.135	765855	keystroke_r	r	n/a
383.1375	0.12	766275	keystroke_s	s	n/a
383.6775	0.09	767355	keystroke_Key.enter	Key.enter	n/a
383.781	18.596	767562	prompt	n/a	enquiries richards ride cooperation\n
385.0575	0.12	770115	keystroke_e	e	n/a
385.3425	0.105	770685	keystroke_n	n	n/a
385.987	0.105	771974	keystroke_q	q	n/a
386.212	0.135	772424	keystroke_u	u	n/a
386.332	0.105	772664	keystroke_i	i	n/a
389.737	0.09	779474	keystroke_r	r	n/a
390.817	0.03	781634	keystroke_Key.down	Key.down	n/a
390.832	0.06	781664	keystroke_i	i	n/a
390.922	0.135	781844	keystroke_e	e	n/a
391.147	0.09	782294	keystroke_s	s	n/a
391.297	0.105	782594	keystroke_Key.space	Key.space	n/a
392.512	0.135	785024	keystroke_r	r	n/a
393.517	0.06	787034	keystroke_i	i	n/a
393.847	0.105	787694	keystroke_c	c	n/a
393.953	0.089	787906	keystroke_h	h	n/a
394.237	0.165	788474	keystroke_a	a	n/a
394.417	0.12	788834	keystroke_r	r	n/a
394.987	0.09	789974	keystroke_d	d	n/a
395.812	0.09	791624	keystroke_Key.space	Key.space	n/a
396.232	0.12	792464	keystroke_r	r	n/a
396.412	0.09	792824	keystroke_i	i	n/a
396.592	0.12	793184	keystroke_d	d	n/a
396.802	0.105	793604	keystroke_e	e	n/a
397.372	0.06	794744	keystroke_Key.space	Key.space	n/a
398.002	0.15	796004	keystroke_c	c	n/a
398.347	0.075	796694	keystroke_o	o	n/a
398.482	0.105	796964	keystroke_o	o	n/a
398.707	0.0755	797414	keystroke_p	p	n/a
399.037	0.1955	798074	keystroke_e	e	n/a
399.217	0.135	798434	keystroke_r	r	n/a
399.937	0.165	799874	keystroke_a	a	n/a
400.702	0.12	801404	keystroke_t	t	n/a
400.823	0.209	801646	keystroke_i	i	n/a
400.912	0.135	801824	keystroke_o	o	n/a
401.332	0.15	802664	keystroke_n	n	n/a
402.2925	0.075	804585	keystroke_Key.enter	Key.enter	n/a
402.381	20.816	804762	prompt	n/a	represented emotional paste smithsonian\n
403.582	0.165	807164	keystroke_r	r	n/a
404.0175	0.09	808035	keystroke_e	e	n/a
404.1525	0.135	808305	keystroke_p	p	n/a
407.7525	0.18	815505	keystroke_r	r	n/a
407.9025	0.135	815805	keystroke_e	e	n/a
408.4575	0.105	816915	keystroke_s	s	n/a
408.6375	0.12	817275	keystroke_e	e	n/a
408.7725	0.12	817545	keystroke_n	n	n/a
408.9225	0.105	817845	keystroke_t	t	n/a
409.1025	0.105	818205	keystroke_e	e	n/a
409.3275	0.135	818655	keystroke_d	d	n/a
409.4925	0.09	818985	keystroke_Key.space	Key.space	n/a
409.7625	0.12	819525	keystroke_e	e	n/a
409.8975	0.03	819795	keystroke_m	m	n/a
410.4525	0.105	820905	keystroke_o	o	n/a
410.7975	0.15	821595	keystroke_t	t	n/a
410.9325	0.165	821865	keystroke_i	i	n/a
411.0075	0.195	822015	keystroke_o	o	n/a
411.5325	0.12	823065	keystroke_n	n	n/a
412.1325	0.09	824265	keystroke_a	a	n/a
412.2675	0.105	824535	keystroke_l	l	n/a
412.4775	0.105	824955	keystroke_Key.space	Key.space	n/a
412.8825	0.075	825765	keystroke_p	p	n/a
413.0025	0.12	826005	keystroke_a	a	n/a
413.2425	0.165	826485	keystroke_s	s	n/a
413.6475	0.09	827295	keystroke_t	t	n/a
413.9025	0.075	827805	keystroke_e	e	n/a
414.4725	0.09	828945	keystroke_Key.space	Key.space	n/a
415.1475	0.105	830295	keystroke_s	s	n/a
415.8075	0.0595	831615	keystroke_m	m	n/a
416.362	0.0755	832724	keystroke_e	e	n/a
417.622	0.0755	835244	keystroke_Key.backspace	Key.backspace	n/a
418.372	0.075	836744	keystroke_i	i	n/a
418.477	0.12	836954	keystroke_t	t	n/a
418.612	0.09	837224	keystroke_h	h	n/a
419.062	0.09	838124	keystroke_s	s	n/a
419.197	0.09	838394	keystroke_o	o	n/a
420.743	0.104	841486	keystroke_n	n	n/a
421.507	0.135	843014	keystroke_i	i	n/a
422.092	0.09	844184	keystroke_a	a	n/a
422.198	0.104	844396	keystroke_n	n	n/a
423.127	0.06	846254	keystroke_Key.enter	Key.enter	n/a
423.201	25.2715	846402	prompt	n/a	only hose equilibrium contracting\n
424.627	0.135	849254	keystroke_o	o	n/a
424.777	0.135	849554	keystroke_n	n	n/a
426.472	0.075	852944	keystroke_l	l	n/a
428.377	0.12	856754	keystroke_y	y	n/a
429.247	0.12	858494	keystroke_Key.space	Key.space	n/a
429.922	0.105	859844	keystroke_h	h	n/a
430.057	0.135	860114	keystroke_o	o	n/a
430.432	0.18	860864	keystroke_s	s	n/a
430.582	0.135	861164	keystroke_e	e	n/a
430.777	0.09	861554	keystroke_Key.space	Key.space	n/a
431.152	0.12	862304	keystroke_e	e	n/a
431.632	0.105	863264	keystroke_q	q	n/a
431.842	0.21	863684	keystroke_u	u	n/a
432.022	0.18	864044	keystroke_i	i	n/a
432.772	0.09	865544	keystroke_o	o	n/a
432.997	0.045	865994	keystroke_i	i	n/a
435.549	0.028	871098	keystroke_Key.backspace	Key.backspace	n/a
436.747	0.075	873494	keystroke_Key.backspace	Key.backspace	n/a
438.503	0.074	877006	keystroke_l	l	n/a
439.0575	0.0755	878115	keystroke_i	i	n/a
439.837	0.105	879674	keystroke_b	b	n/a
440.347	0.105	880694	keystroke_r	r	n/a
440.857	0.09	881714	keystroke_u	u	n/a
443.095	0.001	886190	keystroke_u	u	n/a
443.5125	0.09	887025	keystroke_m	m	n/a
443.7375	0.1195	887475	keystroke_Key.space	Key.space	n/a
445.297	0.091	890594	keystroke_c	c	n/a
445.432	0.165	890864	keystroke_o	o	n/a
445.507	0.135	891014	keystroke_n	n	n/a
445.882	0.105	891764	keystroke_t	t	n/a
446.152	0.09	892304	keystroke_r	r	n/a
446.378	0.135	892756	keystroke_a	a	n/a
446.6925	0.135	893385	keystroke_c	c	n/a
446.9475	0.105	893895	keystroke_t	t	n/a
447.4875	0.135	894975	keystroke_i	i	n/a
447.5475	0.105	895095	keystroke_n	n	n/a
447.8925	0.09	895785	keystroke_g	g	n/a
448.3425	0.12	896685	keystroke_Key.enter	Key.enter	n/a
448.4765	23.8605	896953	prompt	n/a	attempt northern tragedy yamaha\n
449.617	0.105	899234	keystroke_a	a	n/a
450.8775	0.075	901755	keystroke_t	t	n/a
450.9975	0.09	901995	keystroke_t	t	n/a
451.2375	0.105	902475	keystroke_e	e	n/a
451.3275	0.12	902655	keystroke_m	m	n/a
451.4625	0.12	902925	keystroke_p	p	n/a
451.8975	0.09	903795	keystroke_t	t	n/a
452.0775	0.09	904155	keystroke_Key.space	Key.space	n/a
452.9325	0.09	905865	keystroke_n	n	n/a
453.4725	0.09	906945	keystroke_o	o	n/a
453.6975	0.075	907395	keystroke_t	t	n/a
454.7625	0.075	909525	keystroke_Key.backspace	Key.backspace	n/a
456.2775	0.06	912555	keystroke_o	o	n/a
456.4875	0.09	912975	keystroke_r	r	n/a
457.4775	0.045	914955	keystroke_Key.backspace	Key.backspace	n/a
457.6275	0.075	915255	keystroke_Key.backspace	Key.backspace	n/a
459.323	0.089	918646	keystroke_r	r	n/a
459.5475	0.15	919095	keystroke_t	t	n/a
459.9975	0.09	919995	keystroke_h	h	n/a
460.5075	0.15	921015	keystroke_e	e	n/a
460.6275	0.135	921255	keystroke_r	r	n/a
460.9125	0.105	921825	keystroke_n	n	n/a
461.1975	0.075	922395	keystroke_Key.space	Key.space	n/a
461.8725	0.12	923745	keystroke_t	t	n/a
462.2625	0.135	924525	keystroke_r	r	n/a
462.4425	0.135	924885	keystroke_a	a	n/a
464.8895	0.073	929779	keystroke_f	f	n/a
465.787	0.12	931574	keystroke_Key.backspace	Key.backspace	n/a
466.027	0.12	932054	keystroke_g	g	n/a
467.302	0.12	934604	keystroke_e	e	n/a
467.752	0.0905	935504	keystroke_d	d	n/a
467.992	0.12	935984	keystroke_y	y	n/a
468.877	0.09	937754	keystroke_Key.space	Key.space	n/a
470.107	0.09	940214	keystroke_y	y	n/a
470.8725	0.12	941745	keystroke_a	a	n/a
471.0225	0.15	942045	keystroke_m	m	n/a
471.1875	0.15	942375	keystroke_a	a	n/a
471.6375	0.12	943275	keystroke_h	h	n/a
471.7725	0.12	943545	keystroke_a	a	n/a
472.2225	0.105	944445	keystroke_Key.enter	Key.enter	n/a
472.341	15.6565	944682	prompt	n/a	smile durable winston barn\n
473.2275	0.15	946455	keystroke_s	s	n/a
473.4825	0.09	946965	keystroke_m	m	n/a
473.5875	0.09	947175	keystroke_m	m	n/a
473.8575	0.12	947715	keystroke_i	i	n/a
475.0575	0.09	950115	keystroke_Key.backspace	Key.backspace	n/a
475.2675	0.06	950535	keystroke_Key.backspace	Key.backspace	n/a
476.0325	0.195	952065	keystroke_i	i	n/a
476.6325	0.09	953265	keystroke_l	l	n/a
476.7975	0.135	953595	keystroke_e	e	n/a
477.5325	0.105	955065	keystroke_Key.space	Key.space	n/a
478.0125	0.15	956025	keystroke_d	d	n/a
478.1925	0.105	956385	keystroke_u	u	n/a
478.3875	0.105	956775	keystroke_r	r	n/a
479.287	0.12	958574	keystroke_a	a	n/a
480.2625	0.15	960525	keystroke_b	b	n/a
480.6525	0.105	961305	keystroke_o	o	n/a
480.7875	0.135	961575	keystroke_e	e	n/a
481.0425	0.09	962085	keystroke_Key.space	Key.space	n/a
481.3875	0.09	962775	keystroke_w	w	n/a
481.6125	0.195	963225	keystroke_n	n	n/a
482.7225	0.0895	965445	keystroke_Key.backspace	Key.backspace	n/a
483.383	0.12	966766	keystroke_i	i	n/a
483.428	0.135	966856	keystroke_n	n	n/a
484.868	0.18	969736	keystroke_s	s	n/a
485.108	0.135	970216	keystroke_t	t	n/a
485.273	0.165	970546	keystroke_o	o	n/a
485.378	0.12	970756	keystroke_n	n	n/a
485.6775	0.09	971355	keystroke_Key.space	Key.space	n/a
486.5475	0.03	973095	keystroke_b	b	n/a
487.0425	0.18	974085	keystroke_a	a	n/a
487.2075	0.105	974415	keystroke_r	r	n/a
487.3715	0.106	974743	keystroke_n	n	n/a
487.852	0.1355	975704	keystroke_Key.enter	Key.enter	n/a
488.001	14.831	976002	prompt	n/a	leaving drilling clouds models\n
489.067	0.09	978134	keystroke_l	l	n/a
489.322	0.165	978644	keystroke_e	e	n/a
489.488	0.164	978976	keystroke_a	a	n/a
489.8475	0.12	979695	keystroke_v	v	n/a
490.0425	0.195	980085	keystroke_i	i	n/a
490.1325	0.15	980265	keystroke_n	n	n/a
490.3275	0.09	980655	keystroke_g	g	n/a
490.7325	0.09	981465	keystroke_Key.space	Key.space	n/a
491.1375	0.165	982275	keystroke_d	d	n/a
491.3175	0.105	982635	keystroke_r	r	n/a
491.4525	0.195	982905	keystroke_i	i	n/a
491.5575	0.12	983115	keystroke_n	n	n/a
492.7725	0.045	985545	keystroke_Key.backspace	Key.backspace	n/a
497.3195	0.001	994639	keystroke_l	l	n/a
497.3775	0.105	994755	keystroke_l	l	n/a
497.6925	0.1495	995385	keystroke_i	i	n/a
497.7825	0.12	995565	keystroke_n	n	n/a
497.9325	0.15	995865	keystroke_g	g	n/a
498.2025	0.09	996405	keystroke_Key.space	Key.space	n/a
498.8775	0.12	997755	keystroke_c	c	n/a
499.0575	0.105	998115	keystroke_l	l	n/a
499.6575	0.15	999315	keystroke_o	o	n/a
499.7175	0.1645	999435	keystroke_u	u	n/a
499.957	0.15	999914	keystroke_d	d	n/a
500.227	0.135	1000454	keystroke_s	s	n/a
500.677	0.075	1001354	keystroke_Key.space	Key.space	n/a
501.082	0.105	1002164	keystroke_m	m	n/a
501.397	0.105	1002794	keystroke_o	o	n/a
501.742	0.12	1003484	keystroke_d	d	n/a
501.967	0.12	1003934	keystroke_e	e	n/a
502.102	0.075	1004204	keystroke_l	l	n/a
502.237	0.105	1004474	keystroke_s	s	n/a
502.702	0.12	1005404	keystroke_Key.enter	Key.enter	n/a
502.8375	20.65	1005675	prompt	n/a	removable clip albuquerque peninsula\n
503.902	0.165	1007804	keystroke_r	r	n/a
504.652	0.09	1009304	keystroke_e	e	n/a
505.012	0.105	1010024	keystroke_m	m	n/a
505.252	0.135	1010504	keystroke_o	o	n/a
506.857	0.12	1013714	keystroke_v	v	n/a
507.232	0.12	1014464	keystroke_a	a	n/a
507.532	0.09	1015064	keystroke_b	b	n/a
507.742	0.09	1015484	keystroke_l	l	n/a
507.862	0.12	1015724	keystroke_e	e	n/a
508.102	0.105	1016204	keystroke_Key.space	Key.space	n/a
508.477	0.09	1016954	keystroke_c	c	n/a
508.597	0.09	1017194	keystroke_l	l	n/a
508.792	0.135	1017584	keystroke_i	i	n/a
508.972	0.15	1017944	keystroke_p	p	n/a
509.467	0.105	1018934	keystroke_Key.space	Key.space	n/a
509.917	0.12	1019834	keystroke_a	a	n/a
510.217	0.105	1020434	keystroke_l	l	n/a
510.743	0.044	1021486	keystroke_b	b	n/a
511.042	0.136	1022084	keystroke_u	u	n/a
512.077	0.135	1024154	keystroke_q	q	n/a
512.677	0.105	1025354	keystroke_u	u	n/a
513.577	0.18	1027154	keystroke_e	e	n/a
513.697	0.15	1027394	keystroke_r	r	n/a
514.522	0.105	1029044	keystroke_q	q	n/a
515.077	0.135	1030154	keystroke_u	u	n/a
515.2725	0.1195	1030545	keystroke_w	w	n/a
516.188	0.18	1032376	keystroke_Key.backspace	Key.backspace	n/a
517.118	0.15	1034236	keystroke_e	e	n/a
517.688	0.105	1035376	keystroke_Key.space	Key.space	n/a
519.728	0.089	1039456	keystroke_p	p	n/a
521.108	0.104	1042216	keystroke_e	e	n/a
521.227	0.121	1042454	keystroke_n	n	n/a
521.513	0.135	1043026	keystroke_i	i	n/a
521.677	0.15	1043354	keystroke_n	n	n/a
522.127	0.121	1044254	keystroke_s	s	n/a
522.323	0.12	1044646	keystroke_u	u	n/a
522.518	0.149	1045036	keystroke_l	l	n/a
522.727	0.12	1045454	keystroke_a	a	n/a
523.402	0.075	1046804	keystroke_Key.enter	Key.enter	n/a
523.4915	30.8505	1046983	prompt	n/a	galleries kentucky edinburgh auburn\n
525.128	0.0445	1050256	keystroke_f	f	n/a
525.322	0.105	1050644	keystroke_g	g	n/a
525.892	0.075	1051784	keystroke_Key.backspace	Key.backspace	n/a
526.042	0.12	1052084	keystroke_Key.backspace	Key.backspace	n/a
526.357	0.135	1052714	keystroke_g	g	n/a
526.687	0.105	1053374	keystroke_a	a	n/a
527.123	0.06	1054246	keystroke_l	l	n/a
527.258	0.075	1054516	keystroke_l	l	n/a
528.6375	0.18	1057275	keystroke_e	e	n/a
528.7575	0.165	1057515	keystroke_r	r	n/a
529.1175	0.09	1058235	keystroke_i	i	n/a
529.2525	0.12	1058505	keystroke_e	e	n/a
529.4475	0.12	1058895	keystroke_s	s	n/a
529.6275	0.09	1059255	keystroke_Key.space	Key.space	n/a
529.8675	0.105	1059735	keystroke_k	k	n/a
530.3925	0.105	1060785	keystroke_e	e	n/a
530.5275	0.135	1061055	keystroke_n	n	n/a
530.9625	0.12	1061925	keystroke_t	t	n/a
531.2325	0.12	1062465	keystroke_u	u	n/a
532.1475	0.15	1064295	keystroke_c	c	n/a
532.3575	0.15	1064715	keystroke_y	y	n/a
533.8875	0.105	1067775	keystroke_Key.backspace	Key.backspace	n/a
534.1125	0.075	1068225	keystroke_Key.backspace	Key.backspace	n/a
534.2775	0.09	1068555	keystroke_Key.backspace	Key.backspace	n/a
535.9875	0.15	1071975	keystroke_u	u	n/a
536.3475	0.12	1072695	keystroke_c	c	n/a
537.4275	0.09	1074855	keystroke_k	k	n/a
537.8475	0.09	1075695	keystroke_y	y	n/a
538.1175	0.075	1076235	keystroke_Key.space	Key.space	n/a
543.145	0.058	1086290	keystroke_e	e	n/a
543.368	0.15	1086736	keystroke_d	d	n/a
543.683	0.255	1087366	keystroke_i	i	n/a
543.818	0.135	1087636	keystroke_n	n	n/a
544.5825	0.135	1089165	keystroke_b	b	n/a
545.0475	0.12	1090095	keystroke_u	u	n/a
545.2575	0.165	1090515	keystroke_r	r	n/a
546.443	0.12	1092886	keystroke_g	g	n/a
546.593	0.135	1093186	keystroke_h	h	n/a
547.658	0.105	1095316	keystroke_Key.space	Key.space	n/a
548.888	0.105	1097776	keystroke_a	a	n/a
549.083	0.135	1098166	keystroke_u	u	n/a
549.998	0.12	1099996	keystroke_b	b	n/a
551.003	0.12	1102006	keystroke_u	u	n/a
552.653	0.075	1105306	keystroke_r	r	n/a
553.103	0.089	1106206	keystroke_n	n	n/a
554.287	0.045	1108574	keystroke_Key.enter	Key.enter	n/a
554.348	20.0945	1108696	prompt	n/a	herbs bryant marble sticky\n
555.383	0.104	1110766	keystroke_h	h	n/a
555.892	0.091	1111784	keystroke_e	e	n/a
555.923	0.179	1111846	keystroke_r	r	n/a
557.138	0.164	1114276	keystroke_v	v	n/a
558.187	0.12	1116374	keystroke_Key.backspace	Key.backspace	n/a
558.412	0.105	1116824	keystroke_b	b	n/a
558.637	0.105	1117274	keystroke_s	s	n/a
559.147	0.075	1118294	keystroke_Key.space	Key.space	n/a
559.657	0.09	1119314	keystroke_b	b	n/a
560.272	0.09	1120544	keystroke_r	r	n/a
560.422	0.135	1120844	keystroke_y	y	n/a
561.0825	0.075	1122165	keystroke_a	a	n/a
562.1325	0.105	1124265	keystroke_n	n	n/a
562.4025	0.12	1124805	keystroke_t	t	n/a
562.6275	0.12	1125255	keystroke_Key.space	Key.space	n/a
563.2575	0.045	1126515	keystroke_n	n	n/a
563.6325	0.12	1127265	keystroke_a	a	n/a
564.3675	0.135	1128735	keystroke_Key.backspace	Key.backspace	n/a
564.7125	0.03	1129425	keystroke_Key.backspace	Key.backspace	n/a
565.2525	0.075	1130505	keystroke_m	m	n/a
566.3475	0.075	1132695	keystroke_a	a	n/a
567.3825	0.105	1134765	keystroke_r	r	n/a
567.6525	0.075	1135305	keystroke_k	k	n/a
567.8325	0.135	1135665	keystroke_b	b	n/a
568.4025	0.12	1136805	keystroke_Key.backspace	Key.backspace	n/a
568.5825	0.09	1137165	keystroke_Key.backspace	Key.backspace	n/a
568.8225	0.09	1137645	keystroke_b	b	n/a
570.2175	0.075	1140435	keystroke_l	l	n/a
570.3525	0.09	1140705	keystroke_e	e	n/a
570.8325	0.09	1141665	keystroke_Key.space	Key.space	n/a
571.1325	0.12	1142265	keystroke_s	s	n/a
571.2675	0.12	1142535	keystroke_t	t	n/a
571.4775	0.075	1142955	keystroke_i	i	n/a
571.7475	0.12	1143495	keystroke_c	c	n/a
571.9425	0.075	1143885	keystroke_k	k	n/a
572.7825	0.0895	1145565	keystroke_y	y	n/a
572.9625	0.06	1145925	keystroke_Key.space	Key.space	n/a
574.3575	0.075	1148715	keystroke_Key.enter	Key.enter	n/a
574.4465	23.126	1148893	prompt	n/a	vietnamese shoulder softball elect\n
575.647	0.135	1151294	keystroke_v	v	n/a
575.887	0.075	1151774	keystroke_i	i	n/a
576.908	0.12	1153816	keystroke_e	e	n/a
577.598	0.15	1155196	keystroke_r	r	n/a
577.973	0.09	1155946	keystroke_n	n	n/a
578.168	0.09	1156336	keystroke_a	a	n/a
578.303	0.12	1156606	keystroke_m	m	n/a
579.188	0.135	1158376	keystroke_e	e	n/a
579.428	0.105	1158856	keystroke_s	s	n/a
579.488	0.165	1158976	keystroke_e	e	n/a
579.878	0.075	1159756	keystroke_Key.space	Key.space	n/a
580.103	0.12	1160206	keystroke_s	s	n/a
580.163	0.12	1160326	keystroke_h	h	n/a
585.9245	0.163	1171849	keystroke_o	o	n/a
586.0425	0.135	1172085	keystroke_u	u	n/a
586.838	0.09	1173676	keystroke_l	l	n/a
587.093	0.135	1174186	keystroke_d	d	n/a
587.513	0.12	1175026	keystroke_e	e	n/a
587.558	0.135	1175116	keystroke_r	r	n/a
587.977	0.106	1175954	keystroke_Key.space	Key.space	n/a
588.278	0.105	1176556	keystroke_s	s	n/a
588.443	0.105	1176886	keystroke_o	o	n/a
589.4625	0.105	1178925	keystroke_f	f	n/a
589.7325	0.15	1179465	keystroke_t	t	n/a
590.2885	0.1495	1180577	keystroke_b	b	n/a
590.648	0.09	1181296	keystroke_a	a	n/a
590.828	0.075	1181656	keystroke_l	l	n/a
590.948	0.09	1181896	keystroke_l	l	n/a
591.518	0.09	1183036	keystroke_Key.space	Key.space	n/a
592.208	0.09	1184416	keystroke_e	e	n/a
592.313	0.06	1184626	keystroke_l	l	n/a
592.403	0.15	1184806	keystroke_e	e	n/a
592.853	0.15	1185706	keystroke_v	v	n/a
593.258	0.135	1186516	keystroke_t	t	n/a
593.858	0.075	1187716	keystroke_Key.backspace	Key.backspace	n/a
594.008	0.12	1188016	keystroke_Key.backspace	Key.backspace	n/a
594.368	0.135	1188736	keystroke_c	c	n/a
594.698	0.135	1189396	keystroke_r	r	n/a
596.1675	0.09	1192335	keystroke_Key.backspace	Key.backspace	n/a
596.3475	0.09	1192695	keystroke_t	t	n/a
597.5175	0.045	1195035	keystroke_Key.enter	Key.enter	n/a
597.5825	14.66	1195165	prompt	n/a	twins recipe geek anonymous\n
599.2425	0.105	1198485	keystroke_t	t	n/a
599.6325	0.09	1199265	keystroke_w	w	n/a
599.7375	0.15	1199475	keystroke_i	i	n/a
599.8125	0.135	1199625	keystroke_n	n	n/a
600.0975	0.135	1200195	keystroke_s	s	n/a
600.4275	0.09	1200855	keystroke_Key.space	Key.space	n/a
600.9075	0.135	1201815	keystroke_r	r	n/a
601.522	0.09	1203044	keystroke_e	e	n/a
601.792	0.136	1203584	keystroke_c	c	n/a
602.258	0.075	1204516	keystroke_i	i	n/a
602.557	0.091	1205114	keystroke_p	p	n/a
602.693	0.135	1205386	keystroke_e	e	n/a
603.007	0.076	1206014	keystroke_Key.space	Key.space	n/a
603.473	0.105	1206946	keystroke_g	g	n/a
603.818	0.075	1207636	keystroke_e	e	n/a
603.953	0.104	1207906	keystroke_e	e	n/a
604.133	0.12	1208266	keystroke_k	k	n/a
604.537	0.061	1209074	keystroke_Key.space	Key.space	n/a
604.943	0.12	1209886	keystroke_a	a	n/a
605.137	0.121	1210274	keystroke_n	n	n/a
605.363	0.105	1210726	keystroke_a	a	n/a
606.6075	0.075	1213215	keystroke_Key.backspace	Key.backspace	n/a
607.9575	0.12	1215915	keystroke_o	o	n/a
608.0925	0.12	1216185	keystroke_n	n	n/a
608.8575	0.12	1217715	keystroke_y	y	n/a
609.4425	0.106	1218885	keystroke_m	m	n/a
610.9425	0.12	1221885	keystroke_o	o	n/a
611.0185	0.134	1222037	keystroke_u	u	n/a
611.1675	0.075	1222335	keystroke_s	s	n/a
612.1585	0.074	1224317	keystroke_Key.enter	Key.enter	n/a
612.2465	20.833	1224493	prompt	n/a	papua declined professor places\n
614.0175	0.06	1228035	keystroke_p	p	n/a
614.1825	0.136	1228365	keystroke_a	a	n/a
616.1175	0.076	1232235	keystroke_p	p	n/a
616.5975	0.105	1233195	keystroke_u	u	n/a
617.0185	0.119	1234037	keystroke_a	a	n/a
617.1825	0.105	1234365	keystroke_Key.space	Key.space	n/a
617.9025	0.106	1235805	keystroke_d	d	n/a
618.5625	0.106	1237125	keystroke_e	e	n/a
618.9685	0.165	1237937	keystroke_c	c	n/a
619.2685	0.09	1238537	keystroke_l	l	n/a
619.4485	0.105	1238897	keystroke_i	i	n/a
619.6285	0.12	1239257	keystroke_n	n	n/a
621.3075	0.135	1242615	keystroke_e	e	n/a
621.6225	0.21	1243245	keystroke_d	d	n/a
624.4605	0.027	1248921	keystroke_Key.space	Key.space	n/a
624.8175	0.105	1249635	keystroke_p	p	n/a
625.1775	0.105	1250355	keystroke_r	r	n/a
625.3125	0.09	1250625	keystroke_o	o	n/a
626.5425	0.135	1253085	keystroke_f	f	n/a
626.8135	0.104	1253627	keystroke_e	e	n/a
627.1575	0.075	1254315	keystroke_s	s	n/a
627.3085	0.074	1254617	keystroke_s	s	n/a
627.8025	0.015	1255605	keystroke_o	o	n/a
628.8825	0.105	1257765	keystroke_r	r	n/a
629.1825	0.09	1258365	keystroke_Key.space	Key.space	n/a
630.5785	0.03	1261157	keystroke_p	p	n/a
630.9675	0.12	1261935	keystroke_l	l	n/a
631.1485	0.134	1262297	keystroke_a	a	n/a
631.5375	0.105	1263075	keystroke_c	c	n/a
631.7935	0.149	1263587	keystroke_e	e	n/a
631.9735	0.164	1263947	keystroke_s	s	n/a
632.9475	0.12	1265895	keystroke_Key.enter	Key.enter	n/a
633.0845	12.795	1266169	prompt	n/a	eval surrey excellent who\n
633.9085	0.119	1267817	keystroke_e	e	n/a
634.2535	0.135	1268507	keystroke_v	v	n/a
634.9885	0.105	1269977	keystroke_a	a	n/a
635.1375	0.121	1270275	keystroke_l	l	n/a
635.4975	0.12	1270995	keystroke_Key.space	Key.space	n/a
635.8425	0.106	1271685	keystroke_s	s	n/a
635.9935	0.105	1271987	keystroke_u	u	n/a
636.2485	0.075	1272497	keystroke_r	r	n/a
636.3985	0.12	1272797	keystroke_r	r	n/a
636.6835	0.105	1273367	keystroke_e	e	n/a
636.8035	0.135	1273607	keystroke_y	y	n/a
637.0135	0.074	1274027	keystroke_Key.space	Key.space	n/a
637.5835	0.12	1275167	keystroke_e	e	n/a
637.8835	0.12	1275767	keystroke_x	x	n/a
642.2805	0.043	1284561	keystroke_c	c	n/a
643.2535	0.105	1286507	keystroke_e	e	n/a
643.6735	0.045	1287347	keystroke_l	l	n/a
643.7785	0.09	1287557	keystroke_l	l	n/a
644.0935	0.12	1288187	keystroke_e	e	n/a
644.4535	0.135	1288907	keystroke_n	n	n/a
644.6935	0.135	1289387	keystroke_t	t	n/a
644.9035	0.075	1289807	keystroke_Key.space	Key.space	n/a
645.2185	0.09	1290437	keystroke_w	w	n/a
645.2935	0.135	1290587	keystroke_h	h	n/a
645.4285	0.135	1290857	keystroke_o	o	n/a
645.7285	0.15	1291457	keystroke_Key.enter	Key.enter	n/a
645.884	16.355	1291768	prompt	n/a	references offline utils encryption\n
646.8085	0.135	1293617	keystroke_r	r	n/a
647.0035	0.135	1294007	keystroke_e	e	n/a
648.758	0.15	1297516	keystroke_f	f	n/a
649.868	0.12	1299736	keystroke_e	e	n/a
650.048	0.18	1300096	keystroke_r	r	n/a
650.783	0.12	1301566	keystroke_e	e	n/a
651.308	0.135	1302616	keystroke_n	n	n/a
651.698	0.105	1303396	keystroke_c	c	n/a
651.9835	0.12	1303967	keystroke_e	e	n/a
652.1785	0.15	1304357	keystroke_s	s	n/a
652.4185	0.09	1304837	keystroke_Key.space	Key.space	n/a
652.6435	0.12	1305287	keystroke_o	o	n/a
653.0335	0.09	1306067	keystroke_f	f	n/a
653.1985	0.12	1306397	keystroke_f	f	n/a
654.0235	0.105	1308047	keystroke_l	l	n/a
654.1585	0.12	1308317	keystroke_i	i	n/a
654.3685	0.135	1308737	keystroke_n	n	n/a
654.5485	0.12	1309097	keystroke_e	e	n/a
654.7285	0.09	1309457	keystroke_Key.space	Key.space	n/a
655.4485	0.105	1310897	keystroke_u	u	n/a
656.3935	0.12	1312787	keystroke_t	t	n/a
657.2935	0.105	1314587	keystroke_i	i	n/a
657.4435	0.12	1314887	keystroke_l	l	n/a
657.8035	0.105	1315607	keystroke_s	s	n/a
658.0585	0.075	1316117	keystroke_Key.space	Key.space	n/a
658.7035	0.12	1317407	keystroke_e	e	n/a
658.8685	0.12	1317737	keystroke_n	n	n/a
659.2285	0.135	1318457	keystroke_c	c	n/a
659.5135	0.12	1319027	keystroke_r	r	n/a
659.7685	0.134	1319537	keystroke_y	y	n/a
660.3685	0.12	1320737	keystroke_p	p	n/a
660.9835	0.104	1321967	keystroke_t	t	n/a
661.0585	0.164	1322117	keystroke_i	i	n/a
661.1625	0.166	1322325	keystroke_o	o	n/a
661.3425	0.15	1322685	keystroke_n	n	n/a
662.1225	0.105	1324245	keystroke_Key.enter	Key.enter	n/a
662.2455	13.769	1324491	prompt	n/a	bizrate japan dist student\n
663.4275	0.105	1326855	keystroke_b	b	n/a
664.3725	0.09	1328745	keystroke_i	i	n/a
664.5825	0.135	1329165	keystroke_z	z	n/a
665.4225	0.12	1330845	keystroke_r	r	n/a
665.5875	0.165	1331175	keystroke_a	a	n/a
665.8725	0.135	1331745	keystroke_t	t	n/a
666.4425	0.18	1332885	keystroke_e	e	n/a
667.0875	0.09	1334175	keystroke_Key.space	Key.space	n/a
667.7325	0.135	1335465	keystroke_j	j	n/a
667.9125	0.136	1335825	keystroke_a	a	n/a
668.1525	0.12	1336305	keystroke_p	p	n/a
668.6775	0.015	1337355	keystroke_a	a	n/a
668.7375	0.105	1337475	keystroke_j	j	n/a
669.8175	0.075	1339635	keystroke_Key.backspace	Key.backspace	n/a
670.3275	0.075	1340655	keystroke_n	n	n/a
670.5375	0.09	1341075	keystroke_Key.space	Key.space	n/a
671.3025	0.12	1342605	keystroke_d	d	n/a
671.4525	0.09	1342905	keystroke_i	i	n/a
671.978	0.105	1343956	keystroke_e	e	n/a
672.158	0.18	1344316	keystroke_s	s	n/a
672.878	0.105	1345756	keystroke_Key.backspace	Key.backspace	n/a
673.013	0.12	1346026	keystroke_Key.backspace	Key.backspace	n/a
673.283	0.135	1346566	keystroke_s	s	n/a
673.373	0.12	1346746	keystroke_t	t	n/a
673.853	0.105	1347706	keystroke_Key.space	Key.space	n/a
674.258	0.18	1348516	keystroke_s	s	n/a
674.483	0.135	1348966	keystroke_t	t	n/a
674.723	0.12	1349446	keystroke_u	u	n/a
675.098	0.09	1350196	keystroke_d	d	n/a
675.308	0.12	1350616	keystroke_e	e	n/a
675.413	0.09	1350826	keystroke_n	n	n/a
675.638	0.12	1351276	keystroke_t	t	n/a
675.908	0.105	1351816	keystroke_Key.enter	Key.enter	n/a
676.019	10.7285	1352038	prompt	n/a	seas shell much episode\n
677.153	0.105	1354306	keystroke_s	s	n/a
677.348	0.105	1354696	keystroke_a	a	n/a
677.753	0.15	1355506	keystroke_e	e	n/a
677.918	0.165	1355836	keystroke_a	a	n/a
678.188	0.12	1356376	keystroke_d	d	n/a
678.758	0.105	1357516	keystroke_Key.backspace	Key.backspace	n/a
678.938	0.075	1357876	keystroke_Key.backspace	Key.backspace	n/a
679.073	0.06	1358146	keystroke_Key.backspace	Key.backspace	n/a
679.2225	0.045	1358445	keystroke_Key.backspace	Key.backspace	n/a
679.5975	0.15	1359195	keystroke_e	e	n/a
679.7635	0.134	1359527	keystroke_a	a	n/a
679.9575	0.18	1359915	keystroke_s	s	n/a
680.4525	0.105	1360905	keystroke_Key.space	Key.space	n/a
680.9775	0.135	1361955	keystroke_s	s	n/a
681.1735	0.104	1362347	keystroke_h	h	n/a
681.3225	0.135	1362645	keystroke_e	e	n/a
681.6225	0.06	1363245	keystroke_l	l	n/a
681.7575	0.105	1363515	keystroke_l	l	n/a
682.0425	0.075	1364085	keystroke_Key.space	Key.space	n/a
682.6575	0.091	1365315	keystroke_m	m	n/a
682.9725	0.121	1365945	keystroke_u	u	n/a
683.4675	0.121	1366935	keystroke_c	c	n/a
683.6175	0.12	1367235	keystroke_h	h	n/a
683.7825	0.12	1367565	keystroke_Key.space	Key.space	n/a
684.1425	0.105	1368285	keystroke_e	e	n/a
684.3225	0.105	1368645	keystroke_p	p	n/a
684.5475	0.09	1369095	keystroke_i	i	n/a
685.1025	0.12	1370205	keystroke_s	s	n/a
685.2075	0.105	1370415	keystroke_o	o	n/a
685.4475	0.105	1370895	keystroke_d	d	n/a
685.6575	0.105	1371315	keystroke_e	e	n/a
686.0025	0.0905	1372005	keystroke_Key.space	Key.space	n/a
686.6175	0.12	1373235	keystroke_Key.enter	Key.enter	n/a
686.7525	15.985	1373505	prompt	n/a	supreme subdivision attachment stat\n
687.683	0.12	1375366	keystroke_s	s	n/a
688.4325	0.09	1376865	keystroke_u	u	n/a
688.6885	0.134	1377377	keystroke_p	p	n/a
689.5425	0.15	1379085	keystroke_r	r	n/a
690.2475	0.105	1380495	keystroke_e	e	n/a
690.4725	0.075	1380945	keystroke_m	m	n/a
690.6075	0.12	1381215	keystroke_e	e	n/a
691.0125	0.075	1382025	keystroke_Key.space	Key.space	n/a
691.4175	0.135	1382835	keystroke_s	s	n/a
691.6125	0.105	1383225	keystroke_u	u	n/a
692.4975	0.135	1384995	keystroke_b	b	n/a
693.6825	0.105	1387365	keystroke_d	d	n/a
693.8325	0.12	1387665	keystroke_i	i	n/a
694.253	0.03	1388506	keystroke_v	v	n/a
694.7625	0.1355	1389525	keystroke_i	i	n/a
695.1375	0.12	1390275	keystroke_s	s	n/a
695.2275	0.12	1390455	keystroke_i	i	n/a
695.3175	0.1355	1390635	keystroke_o	o	n/a
695.528	0.135	1391056	keystroke_n	n	n/a
695.8275	0.0905	1391655	keystroke_Key.space	Key.space	n/a
696.218	0.15	1392436	keystroke_a	a	n/a
696.518	0.075	1393036	keystroke_r	r	n/a
696.713	0.12	1393426	keystroke_r	r	n/a
697.583	0.09	1395166	keystroke_Key.backspace	Key.backspace	n/a
697.718	0.105	1395436	keystroke_Key.backspace	Key.backspace	n/a
698.033	0.09	1396066	keystroke_t	t	n/a
698.183	0.12	1396366	keystroke_t	t	n/a
698.423	0.15	1396846	keystroke_a	a	n/a
698.723	0.135	1397446	keystroke_c	c	n/a
698.888	0.12	1397776	keystroke_h	h	n/a
699.413	0.045	1398826	keystroke_e	e	n/a
700.058	0.135	1400116	keystroke_Key.backspace	Key.backspace	n/a
700.493	0.12	1400986	keystroke_m	m	n/a
700.673	0.12	1401346	keystroke_e	e	n/a
700.808	0.09	1401616	keystroke_n	n	n/a
700.943	0.12	1401886	keystroke_t	t	n/a
701.258	0.075	1402516	keystroke_Key.space	Key.space	n/a
701.678	0.105	1403356	keystroke_s	s	n/a
701.933	0.135	1403866	keystroke_t	t	n/a
702.098	0.15	1404196	keystroke_a	a	n/a
702.203	0.12	1404406	keystroke_t	t	n/a
702.638	0.09	1405276	keystroke_Key.enter	Key.enter	n/a
702.7415	14.051	1405483	prompt	n/a	promo explorer marketing literally\n
703.598	0.105	1407196	keystroke_p	p	n/a
704.078	0.12	1408156	keystroke_r	r	n/a
705.098	0.075	1410196	keystroke_o	o	n/a
705.518	0.105	1411036	keystroke_m	m	n/a
705.653	0.135	1411306	keystroke_o	o	n/a
706.553	0.045	1413106	keystroke_Key.space	Key.space	n/a
707.003	0.09	1414006	keystroke_e	e	n/a
707.243	0.12	1414486	keystroke_x	x	n/a
707.408	0.105	1414816	keystroke_p	p	n/a
707.753	0.12	1415506	keystroke_l	l	n/a
708.023	0.09	1416046	keystroke_o	o	n/a
708.278	0.135	1416556	keystroke_r	r	n/a
709.343	0.15	1418686	keystroke_e	e	n/a
709.433	0.135	1418866	keystroke_r	r	n/a
710.0335	0.075	1420067	keystroke_Key.space	Key.space	n/a
710.378	0.105	1420756	keystroke_m	m	n/a
710.8435	0.195	1421687	keystroke_a	a	n/a
711.0085	0.135	1422017	keystroke_r	r	n/a
711.9375	0.091	1423875	keystroke_k	k	n/a
712.3585	0.134	1424717	keystroke_e	e	n/a
712.5375	0.106	1425075	keystroke_t	t	n/a
713.0935	0.135	1426187	keystroke_i	i	n/a
713.1535	0.12	1426307	keystroke_n	n	n/a
713.303	0.12	1426606	keystroke_g	g	n/a
713.588	0.09	1427176	keystroke_Key.space	Key.space	n/a
714.233	0.075	1428466	keystroke_l	l	n/a
714.398	0.075	1428796	keystroke_i	i	n/a
714.758	0.12	1429516	keystroke_t	t	n/a
715.043	0.195	1430086	keystroke_e	e	n/a
715.208	0.15	1430416	keystroke_r	r	n/a
715.658	0.135	1431316	keystroke_a	a	n/a
715.868	0.06	1431736	keystroke_l	l	n/a
715.988	0.135	1431976	keystroke_l	l	n/a
716.213	0.12	1432426	keystroke_y	y	n/a
716.693	0.09	1433386	keystroke_Key.enter	Key.enter	n/a
716.7965	13.7425	1433593	prompt	n/a	gazette protest slide tunisia\n
718.388	0.12	1436776	keystroke_g	g	n/a
718.553	0.12	1437106	keystroke_a	a	n/a
719.153	0.12	1438306	keystroke_z	z	n/a
719.633	0.105	1439266	keystroke_e	e	n/a
719.903	0.075	1439806	keystroke_t	t	n/a
720.053	0.105	1440106	keystroke_t	t	n/a
720.218	0.105	1440436	keystroke_e	e	n/a
720.413	0.105	1440826	keystroke_Key.space	Key.space	n/a
720.788	0.09	1441576	keystroke_p	p	n/a
721.118	0.09	1442236	keystroke_r	r	n/a
721.253	0.09	1442506	keystroke_o	o	n/a
721.643	0.09	1443286	keystroke_t	t	n/a
721.838	0.12	1443676	keystroke_e	e	n/a
722.828	0.105	1445656	keystroke_s	s	n/a
723.008	0.075	1446016	keystroke_t	t	n/a
723.293	0.09	1446586	keystroke_Key.space	Key.space	n/a
723.518	0.105	1447036	keystroke_s	s	n/a
723.6375	0.135	1447275	keystroke_l	l	n/a
723.803	0.135	1447606	keystroke_i	i	n/a
724.058	0.0895	1448116	keystroke_d	d	n/a
724.2675	0.105	1448535	keystroke_e	e	n/a
724.4175	0.0905	1448835	keystroke_Key.space	Key.space	n/a
725.6925	0.135	1451385	keystroke_t	t	n/a
725.8725	0.076	1451745	keystroke_u	u	n/a
728.05	0.028	1456100	keystroke_n	n	n/a
728.453	0.105	1456906	keystroke_i	i	n/a
728.708	0.12	1457416	keystroke_s	s	n/a
728.993	0.105	1457986	keystroke_i	i	n/a
729.233	0.105	1458466	keystroke_a	a	n/a
730.448	0.09	1460896	keystroke_Key.enter	Key.enter	n/a
730.543	7.7965	1461086	prompt	n/a	samoa folder parker insider\n
731.678	0.075	1463356	keystroke_s	s	n/a
731.693	0.045	1463386	keystroke_a	a	n/a
732.653	0.105	1465306	keystroke_m	m	n/a
733.028	0.06	1466056	keystroke_o	o	n/a
733.418	0.105	1466836	keystroke_a	a	n/a
733.793	0.09	1467586	keystroke_Key.space	Key.space	n/a
734.228	0.135	1468456	keystroke_f	f	n/a
734.378	0.075	1468756	keystroke_o	o	n/a
734.543	0.135	1469086	keystroke_l	l	n/a
734.768	0.105	1469536	keystroke_d	d	n/a
734.978	0.165	1469956	keystroke_e	e	n/a
735.068	0.135	1470136	keystroke_r	r	n/a
735.533	0.09	1471066	keystroke_Key.space	Key.space	n/a
736.013	0.1055	1472026	keystroke_p	p	n/a
736.133	0.18	1472266	keystroke_a	a	n/a
736.2835	0.1645	1472567	keystroke_r	r	n/a
736.463	0.1205	1472926	keystroke_k	k	n/a
736.7485	0.075	1473497	keystroke_Key.space	Key.space	n/a
736.9585	0.21	1473917	keystroke_i	i	n/a
737.0635	0.15	1474127	keystroke_n	n	n/a
737.2435	0.105	1474487	keystroke_s	s	n/a
737.4535	0.12	1474907	keystroke_i	i	n/a
737.7385	0.105	1475477	keystroke_d	d	n/a
737.9335	0.18	1475867	keystroke_e	e	n/a
738.0385	0.135	1476077	keystroke_r	r	n/a
738.2335	0.105	1476467	keystroke_Key.enter	Key.enter	n/a
738.3425	12.702	1476685	prompt	n/a	bradley entire england mood\n
739.2985	0.045	1478597	keystroke_b	b	n/a
740.2585	0.12	1480517	keystroke_r	r	n/a
740.4235	0.12	1480847	keystroke_a	a	n/a
740.7985	0.135	1481597	keystroke_d	d	n/a
741.1435	0.015	1482287	keystroke_l	l	n/a
741.4735	0.09	1482947	keystroke_e	e	n/a
741.5935	0.12	1483187	keystroke_u	u	n/a
741.893	0.06	1483786	keystroke_Key.space	Key.space	n/a
742.148	0.135	1484296	keystroke_e	e	n/a
742.268	0.09	1484536	keystroke_n	n	n/a
743.108	0.105	1486216	keystroke_t	t	n/a
743.228	0.075	1486456	keystroke_o	o	n/a
743.708	0.09	1487416	keystroke_Key.backspace	Key.backspace	n/a
744.143	0.12	1488286	keystroke_r	r	n/a
744.863	0.09	1489726	keystroke_e	e	n/a
745.883	0.09	1491766	keystroke_Key.backspace	Key.backspace	n/a
746.048	0.09	1492096	keystroke_Key.backspace	Key.backspace	n/a
746.888	0.06	1493776	keystroke_i	i	n/a
747.3385	0.1645	1494677	keystroke_r	r	n/a
747.443	0.15	1494886	keystroke_e	e	n/a
747.698	0.1055	1495396	keystroke_Key.space	Key.space	n/a
748.103	0.12	1496206	keystroke_e	e	n/a
748.433	0.105	1496866	keystroke_n	n	n/a
748.703	0.12	1497406	keystroke_g	g	n/a
748.883	0.09	1497766	keystroke_l	l	n/a
749.153	0.12	1498306	keystroke_a	a	n/a
749.288	0.09	1498576	keystroke_n	n	n/a
749.468	0.12	1498936	keystroke_d	d	n/a
749.633	0.105	1499266	keystroke_Key.space	Key.space	n/a
749.978	0.075	1499956	keystroke_m	m	n/a
750.248	0.075	1500496	keystroke_o	o	n/a
750.383	0.105	1500766	keystroke_o	o	n/a
750.653	0.135	1501306	keystroke_d	d	n/a
750.923	0.12	1501846	keystroke_Key.enter	Key.enter	n/a
751.047	15.351	1502094	prompt	n/a	interact indicated macro webmaster\n
752.1825	0.225	1504365	keystroke_i	i	n/a
752.3025	0.12	1504605	keystroke_n	n	n/a
752.6925	0.105	1505385	keystroke_t	t	n/a
752.9025	0.136	1505805	keystroke_e	e	n/a
752.9775	0.135	1505955	keystroke_r	r	n/a
753.2475	0.12	1506495	keystroke_a	a	n/a
753.6825	0.18	1507365	keystroke_c	c	n/a
755.3025	0.135	1510605	keystroke_t	t	n/a
756.7875	0.075	1513575	keystroke_Key.space	Key.space	n/a
757.2225	0.135	1514445	keystroke_i	i	n/a
757.2825	0.105	1514565	keystroke_n	n	n/a
758.3025	0.105	1516605	keystroke_d	d	n/a
758.4825	0.105	1516965	keystroke_i	i	n/a
758.9175	0.12	1517835	keystroke_c	c	n/a
759.0825	0.165	1518165	keystroke_a	a	n/a
759.3375	0.165	1518675	keystroke_t	t	n/a
759.6075	0.12	1519215	keystroke_e	e	n/a
760.0875	0.15	1520175	keystroke_d	d	n/a
760.6275	0.12	1521255	keystroke_Key.space	Key.space	n/a
761.1375	0.105	1522275	keystroke_m	m	n/a
761.5575	0.105	1523115	keystroke_a	a	n/a
762.473	0.15	1524946	keystroke_c	c	n/a
762.773	0.12	1525546	keystroke_r	r	n/a
762.908	0.075	1525816	keystroke_o	o	n/a
763.313	0.075	1526626	keystroke_Key.space	Key.space	n/a
764.108	0.15	1528216	keystroke_w	w	n/a
764.198	0.18	1528396	keystroke_e	e	n/a
764.573	0.12	1529146	keystroke_b	b	n/a
764.933	0.105	1529866	keystroke_m	m	n/a
765.053	0.135	1530106	keystroke_a	a	n/a
765.248	0.15	1530496	keystroke_s	s	n/a
765.473	0.12	1530946	keystroke_t	t	n/a
765.713	0.12	1531426	keystroke_e	e	n/a
765.788	0.105	1531576	keystroke_r	r	n/a
766.298	0.09	1532596	keystroke_Key.enter	Key.enter	n/a
766.4015	17.426	1532803	prompt	n/a	preventing democracy playstation occasionally\n
767.243	0.09	1534486	keystroke_p	p	n/a
767.468	0.165	1534936	keystroke_r	r	n/a
767.618	0.12	1535236	keystroke_e	e	n/a
768.173	0.12	1536346	keystroke_v	v	n/a
768.368	0.165	1536736	keystroke_e	e	n/a
768.638	0.12	1537276	keystroke_n	n	n/a
769.103	0.105	1538206	keystroke_t	t	n/a
769.523	0.15	1539046	keystroke_i	i	n/a
769.598	0.135	1539196	keystroke_n	n	n/a
769.793	0.135	1539586	keystroke_g	g	n/a
770.063	0.045	1540126	keystroke_Key.space	Key.space	n/a
770.378	0.105	1540756	keystroke_d	d	n/a
770.648	0.105	1541296	keystroke_e	e	n/a
770.813	0.105	1541626	keystroke_m	m	n/a
770.978	0.12	1541956	keystroke_o	o	n/a
771.398	0.135	1542796	keystroke_c	c	n/a
771.758	0.18	1543516	keystroke_r	r	n/a
772.118	0.18	1544236	keystroke_a	a	n/a
772.433	0.135	1544866	keystroke_c	c	n/a
773.483	0.12	1546966	keystroke_y	y	n/a
773.678	0.105	1547356	keystroke_Key.space	Key.space	n/a
774.893	0.12	1549786	keystroke_p	p	n/a
775.148	0.1495	1550296	keystroke_l	l	n/a
775.4025	0.1055	1550805	keystroke_a	a	n/a
775.583	0.12	1551166	keystroke_y	y	n/a
776.2435	0.135	1552487	keystroke_s	s	n/a
776.4385	0.12	1552877	keystroke_t	t	n/a
776.6185	0.09	1553237	keystroke_a	a	n/a
776.7085	0.15	1553417	keystroke_t	t	n/a
776.8435	0.15	1553687	keystroke_i	i	n/a
776.9185	0.15	1553837	keystroke_o	o	n/a
777.1585	0.105	1554317	keystroke_n	n	n/a
777.428	0.09	1554856	keystroke_Key.space	Key.space	n/a
778.028	0.105	1556056	keystroke_o	o	n/a
778.298	0.12	1556596	keystroke_c	c	n/a
780.925	0.0585	1561850	keystroke_c	c	n/a
781.1335	0.1645	1562267	keystroke_a	a	n/a
781.778	0.12	1563556	keystroke_s	s	n/a
781.868	0.165	1563736	keystroke_i	i	n/a
781.988	0.18	1563976	keystroke_o	o	n/a
782.303	0.12	1564606	keystroke_n	n	n/a
782.753	0.105	1565506	keystroke_a	a	n/a
782.993	0.09	1565986	keystroke_l	l	n/a
783.143	0.135	1566286	keystroke_l	l	n/a
783.398	0.09	1566796	keystroke_u	u	n/a
783.413	0.06	1566826	keystroke_y	y	n/a
783.758	0.0595	1567516	keystroke_Key.enter	Key.enter	n/a
783.833	17.38	1567666	prompt	n/a	omega renaissance darkness prayers\n
786.4	0.043	1572800	keystroke_o	o	n/a
786.518	0.12	1573036	keystroke_m	m	n/a
786.938	0.135	1573876	keystroke_e	e	n/a
787.268	0.135	1574536	keystroke_g	g	n/a
787.448	0.135	1574896	keystroke_a	a	n/a
787.628	0.1055	1575256	keystroke_Key.space	Key.space	n/a
788.528	0.105	1577056	keystroke_e	e	n/a
789.203	0.105	1578406	keystroke_Key.backspace	Key.backspace	n/a
789.563	0.15	1579126	keystroke_r	r	n/a
789.9225	0.09	1579845	keystroke_e	e	n/a
790.2225	0.135	1580445	keystroke_n	n	n/a
791.1225	0.135	1582245	keystroke_a	a	n/a
791.9325	0.135	1583865	keystroke_i	i	n/a
792.4725	0.12	1584945	keystroke_s	s	n/a
792.6375	0.15	1585275	keystroke_s	s	n/a
793.223	0.1655	1586446	keystroke_a	a	n/a
793.5085	0.105	1587017	keystroke_n	n	n/a
793.6735	0.135	1587347	keystroke_c	c	n/a
793.9435	0.12	1587887	keystroke_e	e	n/a
794.1835	0.105	1588367	keystroke_Key.space	Key.space	n/a
794.7535	0.12	1589507	keystroke_d	d	n/a
794.9035	0.225	1589807	keystroke_a	a	n/a
795.068	0.1205	1590136	keystroke_r	r	n/a
795.2335	0.135	1590467	keystroke_k	k	n/a
795.4735	0.135	1590947	keystroke_Key.space	Key.space	n/a
795.9085	0.075	1591817	keystroke_p	p	n/a
796.0435	0.195	1592087	keystroke_r	r	n/a
796.1635	0.135	1592327	keystroke_e	e	n/a
796.3135	0.15	1592627	keystroke_a	a	n/a
797.2585	0.06	1594517	keystroke_=	=	n/a
798.3685	0.09	1596737	keystroke_Key.backspace	Key.backspace	n/a
798.5035	0.12	1597007	keystroke_Key.backspace	Key.backspace	n/a
799.1775	0.15	1598355	keystroke_Key.backspace	Key.backspace	n/a
799.7775	0.106	1599555	keystroke_a	a	n/a
799.9275	0.165	1599855	keystroke_y	y	n/a
800.5125	0.195	1601025	keystroke_e	e	n/a
800.6325	0.165	1601265	keystroke_r	r	n/a
800.8275	0.165	1601655	keystroke_s	s	n/a
801.1275	0.075	1602255	keystroke_Key.enter	Key.enter	n/a
801.217	15.851	1602434	prompt	n/a	naval kelly hardwood shepherd\n
802.0125	0.12	1604025	keystroke_n	n	n/a
802.3875	0.195	1604775	keystroke_a	a	n/a
802.5975	0.075	1605195	keystroke_a	a	n/a
802.6425	0.165	1605285	keystroke_v	v	n/a
803.3625	0.12	1606725	keystroke_Key.backspace	Key.backspace	n/a
803.5725	0.12	1607145	keystroke_Key.backspace	Key.backspace	n/a
804.1425	0.15	1608285	keystroke_v	v	n/a
804.5025	0.09	1609005	keystroke_a	a	n/a
804.6525	0.06	1609305	keystroke_l	l	n/a
805.0575	0.105	1610115	keystroke_Key.space	Key.space	n/a
805.6275	0.12	1611255	keystroke_k	k	n/a
805.7925	0.105	1611585	keystroke_e	e	n/a
806.0775	0.06	1612155	keystroke_l	l	n/a
806.1975	0.1205	1612395	keystroke_l	l	n/a
806.6325	0.075	1613265	keystroke_y	y	n/a
806.9785	0.075	1613957	keystroke_Key.space	Key.space	n/a
807.7135	0.12	1615427	keystroke_h	h	n/a
807.8635	0.12	1615727	keystroke_e	e	n/a
807.9985	0.21	1615997	keystroke_a	a	n/a
808.6135	0.09	1617227	keystroke_Key.backspace	Key.backspace	n/a
808.7785	0.105	1617557	keystroke_Key.backspace	Key.backspace	n/a
809.1385	0.15	1618277	keystroke_a	a	n/a
809.2585	0.135	1618517	keystroke_r	r	n/a
809.4985	0.15	1618997	keystroke_d	d	n/a
809.9185	0.105	1619837	keystroke_w	w	n/a
810.113	0.075	1620226	keystroke_o	o	n/a
810.248	0.15	1620496	keystroke_o	o	n/a
810.548	0.135	1621096	keystroke_d	d	n/a
810.833	0.09	1621666	keystroke_Key.space	Key.space	n/a
811.403	0.15	1622806	keystroke_s	s	n/a
811.508	0.12	1623016	keystroke_h	h	n/a
812.018	0.15	1624036	keystroke_e	e	n/a
812.228	0.135	1624456	keystroke_a	a	n/a
812.348	0.12	1624696	keystroke_p	p	n/a
813.413	0.09	1626826	keystroke_Key.backspace	Key.backspace	n/a
813.608	0.105	1627216	keystroke_Key.backspace	Key.backspace	n/a
815.153	0.09	1630306	keystroke_p	p	n/a
815.753	0.0905	1631506	keystroke_h	h	n/a
816.158	0.165	1632316	keystroke_e	e	n/a
816.413	0.12	1632826	keystroke_r	r	n/a
816.638	0.15	1633276	keystroke_d	d	n/a
816.968	0.09	1633936	keystroke_Key.enter	Key.enter	n/a
817.0715	18.4615	1634143	prompt	n/a	complaints balance plaza caution\n
818.2585	0.105	1636517	keystroke_c	c	n/a
818.4235	0.255	1636847	keystroke_o	o	n/a
818.5735	0.135	1637147	keystroke_m	m	n/a
818.8435	0.12	1637687	keystroke_p	p	n/a
819.6825	0.106	1639365	keystroke_l	l	n/a
820.8235	0.105	1641647	keystroke_i	i	n/a
821.0775	0.121	1642155	keystroke_n	n	n/a
821.3035	0.104	1642607	keystroke_t	t	n/a
821.5125	0.135	1643025	keystroke_s	s	n/a
821.7525	0.105	1643505	keystroke_Key.space	Key.space	n/a
822.308	0.12	1644616	keystroke_b	b	n/a
825.2645	0.028	1650529	keystroke_a	a	n/a
825.3375	0.12	1650675	keystroke_l	l	n/a
825.4875	0.165	1650975	keystroke_a	a	n/a
825.9075	0.12	1651815	keystroke_n	n	n/a
826.0875	0.12	1652175	keystroke_c	c	n/a
826.3575	0.12	1652715	keystroke_e	e	n/a
826.5075	0.105	1653015	keystroke_Key.space	Key.space	n/a
826.7625	0.105	1653525	keystroke_p	p	n/a
826.9575	0.15	1653915	keystroke_l	l	n/a
827.8425	0.12	1655685	keystroke_a	a	n/a
828.4885	0.134	1656977	keystroke_z	z	n/a
829.0125	0.12	1658025	keystroke_a	a	n/a
829.5225	0.075	1659045	keystroke_Key.space	Key.space	n/a
829.9275	0.12	1659855	keystroke_c	c	n/a
830.7525	0.105	1661505	keystroke_u	u	n/a
831.1425	0.09	1662285	keystroke_t	t	n/a
831.2025	0.135	1662405	keystroke_i	i	n/a
831.2775	0.195	1662555	keystroke_o	o	n/a
831.4875	0.12	1662975	keystroke_n	n	n/a
832.1775	0.09	1664355	keystroke_Key.backspace	Key.backspace	n/a
832.3275	0.075	1664655	keystroke_Key.backspace	Key.backspace	n/a
832.4775	0.09	1664955	keystroke_Key.backspace	Key.backspace	n/a
832.7775	0.105	1665555	keystroke_Key.backspace	Key.backspace	n/a
833.3775	0.075	1666755	keystroke_Key.backspace	Key.backspace	n/a
833.948	0.105	1667896	keystroke_a	a	n/a
834.443	0.075	1668886	keystroke_u	u	n/a
834.6985	0.12	1669397	keystroke_t	t	n/a
834.8335	0.105	1669667	keystroke_i	i	n/a
835.0585	0.105	1670117	keystroke_n	n	n/a
835.4485	0.075	1670897	keystroke_Key.enter	Key.enter	n/a
835.5415	13.7315	1671083	prompt	n/a	andrews basement handed brave\n
837.1135	0.105	1674227	keystroke_a	a	n/a
837.2335	0.105	1674467	keystroke_n	n	n/a
837.7285	0.075	1675457	keystroke_d	d	n/a
838.0285	0.18	1676057	keystroke_r	r	n/a
838.1335	0.15	1676267	keystroke_e	e	n/a
838.9135	0.105	1677827	keystroke_Key.backspace	Key.backspace	n/a
839.4835	0.21	1678967	keystroke_e	e	n/a
839.6335	0.165	1679267	keystroke_w	w	n/a
840.053	0.135	1680106	keystroke_s	s	n/a
840.278	0.105	1680556	keystroke_Key.space	Key.space	n/a
841.118	0.105	1682236	keystroke_b	b	n/a
841.538	0.15	1683076	keystroke_a	a	n/a
841.673	0.21	1683346	keystroke_s	s	n/a
841.838	0.135	1683676	keystroke_e	e	n/a
842.138	0.09	1684276	keystroke_m	m	n/a
842.258	0.15	1684516	keystroke_e	e	n/a
842.423	0.09	1684846	keystroke_n	n	n/a
842.528	0.135	1685056	keystroke_t	t	n/a
842.783	0.09	1685566	keystroke_Key.space	Key.space	n/a
843.023	0.12	1686046	keystroke_h	h	n/a
843.128	0.12	1686256	keystroke_a	a	n/a
843.308	0.105	1686616	keystroke_n	n	n/a
843.878	0.12	1687756	keystroke_d	d	n/a
844.718	0.12	1689436	keystroke_e	e	n/a
844.928	0.18	1689856	keystroke_d	d	n/a
845.123	0.075	1690246	keystroke_Key.space	Key.space	n/a
845.423	0.12	1690846	keystroke_b	b	n/a
845.903	0.12	1691806	keystroke_r	r	n/a
846.068	0.18	1692136	keystroke_a	a	n/a
847.178	0.12	1694356	keystroke_c	c	n/a
847.673	0.045	1695346	keystroke_e	e	n/a
848.138	0.09	1696276	keystroke_Key.backspace	Key.backspace	n/a
848.303	0.135	1696606	keystroke_Key.backspace	Key.backspace	n/a
848.543	0.135	1697086	keystroke_v	v	n/a
848.663	0.165	1697326	keystroke_e	e	n/a
849.143	0.12	1698286	keystroke_Key.enter	Key.enter	n/a
849.277	23.636	1698554	prompt	n/a	edited encryption hoped resolve\n
850.313	0.105	1700626	keystroke_e	e	n/a
850.568	0.165	1701136	keystroke_d	d	n/a
850.748	0.09	1701496	keystroke_i	i	n/a
851.048	0.105	1702096	keystroke_t	t	n/a
851.213	0.135	1702426	keystroke_e	e	n/a
851.438	0.15	1702876	keystroke_d	d	n/a
851.633	0.045	1703266	keystroke_Key.space	Key.space	n/a
851.858	0.12	1703716	keystroke_e	e	n/a
851.993	0.09	1703986	keystroke_n	n	n/a
852.638	0.15	1705276	keystroke_r	r	n/a
852.803	0.165	1705606	keystroke_y	y	n/a
853.043	0.15	1706086	keystroke_o	o	n/a
853.313	0.135	1706626	keystroke_t	t	n/a
853.418	0.136	1706836	keystroke_i	i	n/a
853.493	0.225	1706986	keystroke_o	o	n/a
853.733	0.135	1707466	keystroke_n	n	n/a
854.003	0.045	1708006	keystroke_Key.space	Key.space	n/a
855.053	0.06	1710106	keystroke_=	=	n/a
855.218	0.045	1710436	keystroke_=	=	n/a
855.353	0.09	1710706	keystroke_Key.backspace	Key.backspace	n/a
855.563	0.105	1711126	keystroke_Key.backspace	Key.backspace	n/a
855.728	0.105	1711456	keystroke_Key.backspace	Key.backspace	n/a
855.878	0.075	1711756	keystroke_Key.backspace	Key.backspace	n/a
856.028	0.075	1712056	keystroke_Key.backspace	Key.backspace	n/a
856.163	0.075	1712326	keystroke_Key.backspace	Key.backspace	n/a
856.298	0.075	1712596	keystroke_Key.backspace	Key.backspace	n/a
856.433	0.105	1712866	keystroke_Key.backspace	Key.backspace	n/a
856.643	0.06	1713286	keystroke_Key.backspace	Key.backspace	n/a
856.778	0.09	1713556	keystroke_Key.backspace	Key.backspace	n/a
858.278	0.105	1716556	keystroke_c	c	n/a
859.073	0.105	1718146	keystroke_r	r	n/a
859.238	0.12	1718476	keystroke_y	y	n/a
861.8355	0.028	1723671	keystroke_o	o	n/a
862.0135	0.105	1724027	keystroke_t	t	n/a
862.1035	0.165	1724207	keystroke_i	i	n/a
862.2235	0.12	1724447	keystroke_o	o	n/a
862.5085	0.105	1725017	keystroke_n	n	n/a
863.9785	0.075	1727957	keystroke_Key.backspace	Key.backspace	n/a
864.1735	0.09	1728347	keystroke_Key.backspace	Key.backspace	n/a
864.3685	0.06	1728737	keystroke_Key.backspace	Key.backspace	n/a
864.5335	0.075	1729067	keystroke_Key.backspace	Key.backspace	n/a
864.8635	0.12	1729727	keystroke_Key.backspace	Key.backspace	n/a
865.5835	0.09	1731167	keystroke_p	p	n/a
866.138	0.12	1732276	keystroke_t	t	n/a
866.228	0.12	1732456	keystroke_i	i	n/a
866.303	0.135	1732606	keystroke_o	o	n/a
866.573	0.09	1733146	keystroke_n	n	n/a
867.533	0.09	1735066	keystroke_Key.space	Key.space	n/a
867.998	0.105	1735996	keystroke_h	h	n/a
868.223	0.1505	1736446	keystroke_o	o	n/a
868.643	0.105	1737286	keystroke_p	p	n/a
868.898	0.166	1737796	keystroke_e	e	n/a
869.1535	0.15	1738307	keystroke_d	d	n/a
869.8735	0.075	1739747	keystroke_Key.space	Key.space	n/a
870.233	0.18	1740466	keystroke_r	r	n/a
870.383	0.15	1740766	keystroke_e	e	n/a
870.638	0.135	1741276	keystroke_s	s	n/a
871.088	0.105	1742176	keystroke_o	o	n/a
871.763	0.105	1743526	keystroke_l	l	n/a
871.988	0.15	1743976	keystroke_v	v	n/a
872.153	0.135	1744306	keystroke_e	e	n/a
872.813	0.09	1745626	keystroke_Key.enter	Key.enter	n/a
872.917	12.011	1745834	prompt	n/a	nokia westminster mold strand\n
873.893	0.12	1747786	keystroke_n	n	n/a
874.148	0.135	1748296	keystroke_o	o	n/a
875.573	0.09	1751146	keystroke_k	k	n/a
875.768	0.105	1751536	keystroke_i	i	n/a
875.993	0.09	1751986	keystroke_a	a	n/a
876.188	0.105	1752376	keystroke_Key.space	Key.space	n/a
876.953	0.15	1753906	keystroke_w	w	n/a
877.178	0.12	1754356	keystroke_e	e	n/a
877.373	0.18	1754746	keystroke_s	s	n/a
877.568	0.135	1755136	keystroke_t	t	n/a
877.883	0.09	1755766	keystroke_m	m	n/a
878.123	0.18	1756246	keystroke_i	i	n/a
878.198	0.135	1756396	keystroke_n	n	n/a
878.468	0.15	1756936	keystroke_s	s	n/a
878.663	0.12	1757326	keystroke_t	t	n/a
878.888	0.135	1757776	keystroke_e	e	n/a
878.963	0.135	1757926	keystroke_r	r	n/a
879.308	0.075	1758616	keystroke_Key.space	Key.space	n/a
879.6385	0.075	1759277	keystroke_m	m	n/a
879.7735	0.105	1759547	keystroke_o	o	n/a
879.9835	0.135	1759967	keystroke_l	l	n/a
880.1635	0.135	1760327	keystroke_d	d	n/a
880.5835	0.105	1761167	keystroke_Key.space	Key.space	n/a
880.8085	0.135	1761617	keystroke_s	s	n/a
881.0335	0.12	1762067	keystroke_t	t	n/a
881.2585	0.09	1762517	keystroke_a	a	n/a
881.3635	0.105	1762727	keystroke_n	n	n/a
881.5135	0.15	1763027	keystroke_d	d	n/a
882.069	0.119	1764138	keystroke_Key.backspace	Key.backspace	n/a
882.248	0.075	1764496	keystroke_Key.backspace	Key.backspace	n/a
882.383	0.105	1764766	keystroke_Key.backspace	Key.backspace	n/a
883.478	0.135	1766956	keystroke_r	r	n/a
883.673	0.105	1767346	keystroke_a	a	n/a
883.943	0.136	1767886	keystroke_n	n	n/a
884.378	0.12	1768756	keystroke_d	d	n/a
884.783	0.135	1769566	keystroke_Key.enter	Key.enter	n/a
884.933	13.2845	1769866	prompt	n/a	manga liver velvet rice\n
885.878	0.105	1771756	keystroke_m	m	n/a
886.013	0.151	1772026	keystroke_a	a	n/a
886.178	0.105	1772356	keystroke_n	n	n/a
886.853	0.1195	1773706	keystroke_a	a	n/a
887.5425	0.105	1775085	keystroke_Key.backspace	Key.backspace	n/a
887.9175	0.135	1775835	keystroke_g	g	n/a
888.0225	0.135	1776045	keystroke_a	a	n/a
888.5025	0.09	1777005	keystroke_Key.space	Key.space	n/a
888.8925	0.12	1777785	keystroke_l	l	n/a
889.1025	0.09	1778205	keystroke_i	i	n/a
889.2525	0.135	1778505	keystroke_v	v	n/a
889.4025	0.195	1778805	keystroke_e	e	n/a
889.5675	0.105	1779135	keystroke_r	r	n/a
889.9725	0.09	1779945	keystroke_Key.space	Key.space	n/a
890.4675	0.105	1780935	keystroke_v	v	n/a
890.6625	0.15	1781325	keystroke_e	e	n/a
891.7425	0.09	1783485	keystroke_l	l	n/a
893.5125	0.165	1787025	keystroke_e	e	n/a
894.5925	0.09	1789185	keystroke_Key.backspace	Key.backspace	n/a
895.3585	0.105	1790717	keystroke_v	v	n/a
895.5835	0.12	1791167	keystroke_e	e	n/a
895.7485	0.1195	1791497	keystroke_t	t	n/a
896.003	0.075	1792006	keystroke_Key.space	Key.space	n/a
896.528	0.09	1793056	keystroke_r	r	n/a
896.813	0.075	1793626	keystroke_i	i	n/a
897.038	0.12	1794076	keystroke_c	c	n/a
897.278	0.1205	1794556	keystroke_e	e	n/a
898.103	0.1045	1796206	keystroke_Key.enter	Key.enter	n/a
898.2215	15.822	1796443	prompt	n/a	little assessments forces contracts\n
901.1055	0.012	1802211	keystroke_l	l	n/a
901.2375	0.105	1802475	keystroke_i	i	n/a
901.583	0.06	1803166	keystroke_t	t	n/a
901.733	0.105	1803466	keystroke_t	t	n/a
901.958	0.105	1803916	keystroke_l	l	n/a
902.093	0.12	1804186	keystroke_e	e	n/a
902.258	0.105	1804516	keystroke_Key.space	Key.space	n/a
902.513	0.12	1805026	keystroke_a	a	n/a
902.753	0.105	1805506	keystroke_s	s	n/a
902.933	0.105	1805866	keystroke_s	s	n/a
903.128	0.15	1806256	keystroke_e	e	n/a
903.353	0.165	1806706	keystroke_s	s	n/a
903.8025	0.105	1807605	keystroke_m	m	n/a
903.9225	0.12	1807845	keystroke_e	e	n/a
904.0875	0.136	1808175	keystroke_n	n	n/a
904.4635	0.12	1808927	keystroke_t	t	n/a
904.643	0.12	1809286	keystroke_s	s	n/a
904.943	0.1045	1809886	keystroke_Key.space	Key.space	n/a
905.468	0.135	1810936	keystroke_f	f	n/a
905.603	0.105	1811206	keystroke_o	o	n/a
905.753	0.18	1811506	keystroke_r	r	n/a
906.473	0.105	1812946	keystroke_c	c	n/a
906.698	0.1655	1813396	keystroke_e	e	n/a
906.833	0.1655	1813666	keystroke_s	s	n/a
907.3275	0.09	1814655	keystroke_Key.space	Key.space	n/a
908.348	0.12	1816696	keystroke_c	c	n/a
908.528	0.15	1817056	keystroke_o	o	n/a
908.738	0.12	1817476	keystroke_n	n	n/a
909.773	0.09	1819546	keystroke_t	t	n/a
910.088	0.105	1820176	keystroke_r	r	n/a
910.238	0.135	1820476	keystroke_a	a	n/a
910.538	0.12	1821076	keystroke_c	c	n/a
910.778	0.12	1821556	keystroke_t	t	n/a
911.0035	0.075	1822007	keystroke_e	e	n/a
911.8885	0.075	1823777	keystroke_Key.backspace	Key.backspace	n/a
912.0835	0.09	1824167	keystroke_s	s	n/a
913.9425	0.09	1827885	keystroke_Key.enter	Key.enter	n/a
914.0485	12.3995	1828097	prompt	n/a	treatment indicators prevention hear\n
915.038	0.075	1830076	keystroke_t	t	n/a
916.058	0.195	1832116	keystroke_r	r	n/a
916.223	0.135	1832446	keystroke_e	e	n/a
916.463	0.075	1832926	keystroke_s	s	n/a
917.213	0.09	1834426	keystroke_Key.backspace	Key.backspace	n/a
917.573	0.15	1835146	keystroke_a	a	n/a
917.7535	0.1495	1835507	keystroke_t	t	n/a
918.083	0.15	1836166	keystroke_m	m	n/a
918.263	0.12	1836526	keystroke_e	e	n/a
918.398	0.135	1836796	keystroke_n	n	n/a
918.578	0.135	1837156	keystroke_t	t	n/a
918.878	0.105	1837756	keystroke_Key.space	Key.space	n/a
919.3575	0.195	1838715	keystroke_i	i	n/a
919.4775	0.12	1838955	keystroke_n	n	n/a
920.0475	0.121	1840095	keystroke_d	d	n/a
920.2125	0.105	1840425	keystroke_i	i	n/a
920.5425	0.12	1841085	keystroke_c	c	n/a
920.7225	0.136	1841445	keystroke_a	a	n/a
921.0375	0.15	1842075	keystroke_t	t	n/a
921.2025	0.09	1842405	keystroke_o	o	n/a
921.5625	0.135	1843125	keystroke_r	r	n/a
921.8325	0.135	1843665	keystroke_s	s	n/a
922.1475	0.09	1844295	keystroke_Key.space	Key.space	n/a
922.5225	0.105	1845045	keystroke_p	p	n/a
923.0625	0.135	1846125	keystroke_r	r	n/a
923.243	0.135	1846486	keystroke_e	e	n/a
923.588	0.135	1847176	keystroke_v	v	n/a
923.843	0.1205	1847686	keystroke_e	e	n/a
923.9935	0.105	1847987	keystroke_n	n	n/a
924.1435	0.12	1848287	keystroke_t	t	n/a
924.2785	0.135	1848557	keystroke_i	i	n/a
924.3385	0.135	1848677	keystroke_o	o	n/a
924.5935	0.12	1849187	keystroke_n	n	n/a
924.7585	0.12	1849517	keystroke_s	s	n/a
925.1635	0.059	1850327	keystroke_Key.space	Key.space	n/a
925.5675	0.105	1851135	keystroke_h	h	n/a
925.7325	0.15	1851465	keystroke_e	e	n/a
925.8975	0.135	1851795	keystroke_a	a	n/a
925.9885	0.134	1851977	keystroke_r	r	n/a
926.3175	0.12	1852635	keystroke_Key.enter	Key.enter	n/a
926.452	11.0875	1852904	prompt	n/a	streams nursery venues item\n
927.4725	0.12	1854945	keystroke_s	s	n/a
927.7425	0.121	1855485	keystroke_t	t	n/a
927.9375	0.195	1855875	keystroke_r	r	n/a
928.0425	0.24	1856085	keystroke_e	e	n/a
928.2385	0.15	1856477	keystroke_a	a	n/a
928.4625	0.105	1856925	keystroke_m	m	n/a
928.6575	0.136	1857315	keystroke_s	s	n/a
928.8975	0.105	1857795	keystroke_Key.space	Key.space	n/a
929.2275	0.106	1858455	keystroke_n	n	n/a
929.5125	0.135	1859025	keystroke_u	u	n/a
929.843	0.1345	1859686	keystroke_r	r	n/a
930.3525	0.12	1860705	keystroke_s	s	n/a
930.6825	0.18	1861365	keystroke_e	e	n/a
930.8325	0.18	1861665	keystroke_r	r	n/a
931.0275	0.105	1862055	keystroke_y	y	n/a
931.3875	0.09	1862775	keystroke_Key.space	Key.space	n/a
931.9575	0.105	1863915	keystroke_v	v	n/a
932.1525	0.165	1864305	keystroke_e	e	n/a
932.2725	0.1205	1864545	keystroke_n	n	n/a
932.678	0.12	1865356	keystroke_u	u	n/a
933.638	0.105	1867276	keystroke_e	e	n/a
933.788	0.1355	1867576	keystroke_s	s	n/a
933.9535	0.09	1867907	keystroke_Key.space	Key.space	n/a
935.0485	0.105	1870097	keystroke_i	i	n/a
935.2585	0.12	1870517	keystroke_t	t	n/a
935.6185	0.105	1871237	keystroke_e	e	n/a
935.8135	0.09	1871627	keystroke_m	m	n/a
935.9485	0.105	1871897	keystroke_s	s	n/a
937.028	0.1055	1874056	keystroke_Key.backspace	Key.backspace	n/a
937.448	0.09	1874896	keystroke_Key.enter	Key.enter	n/a
937.542	8.7125	1875084	prompt	n/a	many sisters michel wishes\n
938.483	0.09	1876966	keystroke_m	m	n/a
938.678	0.135	1877356	keystroke_a	a	n/a
938.798	0.09	1877596	keystroke_n	n	n/a
939.578	0.09	1879156	keystroke_y	y	n/a
939.8485	0.0895	1879697	keystroke_Key.space	Key.space	n/a
940.658	0.09	1881316	keystroke_s	s	n/a
940.778	0.09	1881556	keystroke_i	i	n/a
940.883	0.12	1881766	keystroke_s	s	n/a
941.093	0.135	1882186	keystroke_t	t	n/a
941.288	0.15	1882576	keystroke_e	e	n/a
941.378	0.12	1882756	keystroke_r	r	n/a
941.603	0.12	1883206	keystroke_s	s	n/a
941.903	0.105	1883806	keystroke_Key.space	Key.space	n/a
942.413	0.09	1884826	keystroke_m	m	n/a
942.848	0.09	1885696	keystroke_i	i	n/a
943.058	0.12	1886116	keystroke_c	c	n/a
943.163	0.12	1886326	keystroke_h	h	n/a
943.418	0.135	1886836	keystroke_e	e	n/a
943.568	0.09	1887136	keystroke_l	l	n/a
943.778	0.105	1887556	keystroke_Key.space	Key.space	n/a
944.408	0.15	1888816	keystroke_w	w	n/a
944.693	0.135	1889386	keystroke_i	i	n/a
944.888	0.15	1889776	keystroke_s	s	n/a
945.233	0.09	1890466	keystroke_h	h	n/a
945.473	0.135	1890946	keystroke_e	e	n/a
945.623	0.18	1891246	keystroke_s	s	n/a
946.178	0.075	1892356	keystroke_Key.enter	Key.enter	n/a
946.257	23.646	1892514	prompt	n/a	theaters yahoo editing compound\n
947.423	0.15	1894846	keystroke_t	t	n/a
947.678	0.105	1895356	keystroke_h	h	n/a
948.128	0.15	1896256	keystroke_e	e	n/a
948.818	0.105	1897636	keystroke_a	a	n/a
950.183	0.09	1900366	keystroke_t	t	n/a
950.348	0.09	1900696	keystroke_u	u	n/a
950.6485	0.21	1901297	keystroke_e	e	n/a
950.9035	0.045	1901807	keystroke_w	w	n/a
951.5935	0.09	1903187	keystroke_Key.backspace	Key.backspace	n/a
951.7585	0.075	1903517	keystroke_Key.backspace	Key.backspace	n/a
951.9085	0.105	1903817	keystroke_Key.backspace	Key.backspace	n/a
952.6585	0.075	1905317	keystroke_Key.backspace	Key.backspace	n/a
955.2705	0.028	1910541	keystroke_t	t	n/a
955.6285	0.15	1911257	keystroke_r	r	n/a
955.7485	0.165	1911497	keystroke_e	e	n/a
956.0185	0.15	1912037	keystroke_s	s	n/a
956.1985	0.09	1912397	keystroke_Key.space	Key.space	n/a
956.6635	0.12	1913327	keystroke_y	y	n/a
957.2785	0.09	1914557	keystroke_q	q	n/a
958.8685	0.06	1917737	keystroke_Key.backspace	Key.backspace	n/a
959.2585	0.135	1918517	keystroke_a	a	n/a
959.6035	0.105	1919207	keystroke_h	h	n/a
960.5335	0.045	1921067	keystroke_o	o	n/a
960.7435	0.075	1921487	keystroke_p	p	n/a
961.6435	0.03	1923287	keystroke_=	=	n/a
961.6585	0.105	1923317	keystroke_Key.backspace	Key.backspace	n/a
962.4235	0.105	1924847	keystroke_Key.backspace	Key.backspace	n/a
963.3985	0.06	1926797	keystroke_o	o	n/a
963.6235	0.105	1927247	keystroke_Key.space	Key.space	n/a
963.9535	0.09	1927907	keystroke_e	e	n/a
964.2385	0.09	1928477	keystroke_d	d	n/a
964.5085	0.105	1929017	keystroke_i	i	n/a
965.2885	0.12	1930577	keystroke_t	t	n/a
965.7385	0.105	1931477	keystroke_i	i	n/a
966.1885	0.12	1932377	keystroke_i	i	n/a
966.2485	0.12	1932497	keystroke_n	n	n/a
966.3385	0.15	1932677	keystroke_g	g	n/a
966.6835	0.09	1933367	keystroke_Key.space	Key.space	n/a
967.2535	0.105	1934507	keystroke_c	c	n/a
967.3435	0.225	1934687	keystroke_o	o	n/a
967.4485	0.135	1934897	keystroke_m	m	n/a
967.7185	0.105	1935437	keystroke_p	p	n/a
968.1685	0.165	1936337	keystroke_o	o	n/a
968.1835	0.075	1936367	keystroke_u	u	n/a
968.9635	0.105	1937927	keystroke_n	n	n/a
969.1435	0.105	1938287	keystroke_d	d	n/a
969.8035	0.09	1939607	keystroke_Key.enter	Key.enter	n/a
969.907	11.9665	1939814	prompt	n/a	asking playing gateway absent\n
971.0935	0.15	1942187	keystroke_a	a	n/a
971.3785	0.15	1942757	keystroke_s	s	n/a
971.6035	0.09	1943207	keystroke_k	k	n/a
971.6185	0.06	1943237	keystroke_s	s	n/a
972.3535	0.075	1944707	keystroke_Key.backspace	Key.backspace	n/a
972.879	0.1195	1945758	keystroke_i	i	n/a
972.924	0.1045	1945848	keystroke_n	n	n/a
972.9835	0.1205	1945967	keystroke_g	g	n/a
973.2385	0.075	1946477	keystroke_Key.space	Key.space	n/a
974.169	0.09	1948338	keystroke_p	p	n/a
974.409	0.12	1948818	keystroke_l	l	n/a
974.544	0.105	1949088	keystroke_a	a	n/a
974.724	0.105	1949448	keystroke_y	y	n/a
975.204	0.15	1950408	keystroke_i	i	n/a
975.279	0.135	1950558	keystroke_n	n	n/a
975.368	0.135	1950736	keystroke_g	g	n/a
975.579	0.075	1951158	keystroke_Key.space	Key.space	n/a
976.614	0.12	1953228	keystroke_g	g	n/a
976.808	0.165	1953616	keystroke_a	a	n/a
977.049	0.135	1954098	keystroke_t	t	n/a
977.288	0.121	1954576	keystroke_e	e	n/a
977.709	0.105	1955418	keystroke_w	w	n/a
977.904	0.165	1955808	keystroke_a	a	n/a
978.053	0.105	1956106	keystroke_y	y	n/a
978.233	0.121	1956466	keystroke_Key.space	Key.space	n/a
979.014	0.254	1958028	keystroke_a	a	n/a
979.253	0.136	1958506	keystroke_b	b	n/a
979.284	0.06	1958568	keystroke_a	a	n/a
980.363	0.105	1960726	keystroke_Key.backspace	Key.backspace	n/a
980.768	0.12	1961536	keystroke_s	s	n/a
981.069	0.134	1962138	keystroke_e	e	n/a
981.263	0.09	1962526	keystroke_n	n	n/a
981.369	0.12	1962738	keystroke_t	t	n/a
981.803	0.0605	1963606	keystroke_Key.enter	Key.enter	n/a
981.8785	7.4415	1963757	prompt	n/a	allah aged entertainment permits\n
982.9285	0.09	1965857	keystroke_a	a	n/a
983.0335	0.06	1966067	keystroke_l	l	n/a
983.4535	0.06	1966907	keystroke_l	l	n/a
983.5735	0.075	1967147	keystroke_l	l	n/a
984.3385	0.09	1968677	keystroke_a	a	n/a
984.4435	0.105	1968887	keystroke_h	h	n/a
984.6085	0.105	1969217	keystroke_Key.space	Key.space	n/a
984.9085	0.12	1969817	keystroke_a	a	n/a
985.0885	0.15	1970177	keystroke_g	g	n/a
985.3135	0.165	1970627	keystroke_e	e	n/a
985.5685	0.15	1971137	keystroke_d	d	n/a
985.7635	0.0745	1971527	keystroke_Key.space	Key.space	n/a
986.0785	0.12	1972157	keystroke_e	e	n/a
986.2285	0.135	1972457	keystroke_n	n	n/a
986.5135	0.135	1973027	keystroke_t	t	n/a
986.7235	0.15	1973447	keystroke_e	e	n/a
986.8135	0.12	1973627	keystroke_r	r	n/a
987.3385	0.15	1974677	keystroke_t	t	n/a
987.5335	0.15	1975067	keystroke_a	a	n/a
987.6535	0.195	1975307	keystroke_i	i	n/a
987.7585	0.135	1975517	keystroke_n	n	n/a
988.2535	0.09	1976507	keystroke_m	m	n/a
988.3885	0.09	1976777	keystroke_e	e	n/a
988.5235	0.105	1977047	keystroke_n	n	n/a
988.6585	0.135	1977317	keystroke_t	t	n/a
989.2435	0.075	1978487	keystroke_Key.enter	Key.enter	n/a
989.3225	19.8355	1978645	prompt	n/a	travelling climbing feel pubmed\n
990.4135	0.105	1980827	keystroke_t	t	n/a
990.6385	0.135	1981277	keystroke_r	r	n/a
990.7735	0.075	1981547	keystroke_e	e	n/a
992.5735	0.045	1985147	keystroke_Key.backspace	Key.backspace	n/a
994.8555	0.058	1989711	keystroke_a	a	n/a
995.0335	0.12	1990067	keystroke_v	v	n/a
995.2585	0.12	1990517	keystroke_e	e	n/a
995.5735	0.06	1991147	keystroke_l	l	n/a
995.6935	0.09	1991387	keystroke_l	l	n/a
995.8885	0.165	1991777	keystroke_i	i	n/a
995.9785	0.12	1991957	keystroke_n	n	n/a
996.0985	0.12	1992197	keystroke_g	g	n/a
996.278	0.09	1992556	keystroke_Key.space	Key.space	n/a
996.5625	0.12	1993125	keystroke_c	c	n/a
996.6525	0.09	1993305	keystroke_l	l	n/a
996.8185	0.2395	1993637	keystroke_i	i	n/a
996.938	0.15	1993876	keystroke_n	n	n/a
997.808	0.105	1995616	keystroke_b	b	n/a
998.378	0.09	1996756	keystroke_Key.backspace	Key.backspace	n/a
998.543	0.06	1997086	keystroke_Key.backspace	Key.backspace	n/a
999.758	0.0905	1999516	keystroke_m	m	n/a
999.893	0.12	1999786	keystroke_b	b	n/a
1000.238	0.135	2000476	keystroke_i	i	n/a
1000.298	0.105	2000596	keystroke_n	n	n/a
1000.418	0.135	2000836	keystroke_g	g	n/a
1001.753	0.105	2003506	keystroke_Key.space	Key.space	n/a
1002.803	0.18	2005606	keystroke_f	f	n/a
1003.208	0.075	2006416	keystroke_e	e	n/a
1003.523	0.075	2007046	keystroke_e	e	n/a
1003.763	0.09	2007526	keystroke_l	l	n/a
1004.003	0.06	2008006	keystroke_Key.space	Key.space	n/a
1004.603	0.12	2009206	keystroke_p	p	n/a
1005.053	0.075	2010106	keystroke_u	u	n/a
1005.308	0.105	2010616	keystroke_m	m	n/a
1006.133	0.075	2012266	keystroke_Key.backspace	Key.backspace	n/a
1006.973	0.105	2013946	keystroke_b	b	n/a
1007.528	0.09	2015056	keystroke_m	m	n/a
1008.248	0.12	2016496	keystroke_e	e	n/a
1008.488	0.135	2016976	keystroke_d	d	n/a
1009.073	0.075	2018146	keystroke_Key.enter	Key.enter	n/a
1009.1715	11.252	2018343	prompt	n/a	thinking parker that legends\n
1011.656	0.072	2023312	keystroke_t	t	n/a
1011.743	0.09	2023486	keystroke_h	h	n/a
1011.818	0.255	2023636	keystroke_i	i	n/a
1012.013	0.15	2024026	keystroke_n	n	n/a
1012.778	0.135	2025556	keystroke_k	k	n/a
1013.018	0.18	2026036	keystroke_i	i	n/a
1013.078	0.135	2026156	keystroke_n	n	n/a
1013.183	0.135	2026366	keystroke_g	g	n/a
1013.393	0.09	2026786	keystroke_Key.space	Key.space	n/a
1013.9635	0.15	2027927	keystroke_p	p	n/a
1014.2635	0.15	2028527	keystroke_a	a	n/a
1014.7435	0.09	2029487	keystroke_r	r	n/a
1014.8635	0.105	2029727	keystroke_k	k	n/a
1015.2535	0.164	2030507	keystroke_e	e	n/a
1015.3585	0.149	2030717	keystroke_r	r	n/a
1015.5825	0.106	2031165	keystroke_Key.space	Key.space	n/a
1015.9285	0.1195	2031857	keystroke_t	t	n/a
1016.0775	0.136	2032155	keystroke_h	h	n/a
1016.2275	0.091	2032455	keystroke_a	a	n/a
1016.2875	0.1355	2032575	keystroke_t	t	n/a
1016.618	0.105	2033236	keystroke_Key.space	Key.space	n/a
1017.248	0.09	2034496	keystroke_l	l	n/a
1017.443	0.105	2034886	keystroke_e	e	n/a
1018.163	0.09	2036326	keystroke_g	g	n/a
1018.403	0.135	2036806	keystroke_e	e	n/a
1018.583	0.135	2037166	keystroke_n	n	n/a
1019.018	0.255	2038036	keystroke_d	d	n/a
1019.843	0.09	2039686	keystroke_s	s	n/a
1020.353	0.06	2040706	keystroke_Key.enter	Key.enter	n/a
1020.427	14.621	2040854	prompt	n/a	those're warehouse guardian altered\n
1021.298	0.105	2042596	keystroke_t	t	n/a
1021.433	0.09	2042866	keystroke_h	h	n/a
1021.628	0.12	2043256	keystroke_o	o	n/a
1021.778	0.195	2043556	keystroke_s	s	n/a
1021.958	0.165	2043916	keystroke_e	e	n/a
1023.788	0.12	2047576	keystroke_'	'	n/a
1024.448	0.195	2048896	keystroke_r	r	n/a
1024.613	0.15	2049226	keystroke_e	e	n/a
1024.898	0.105	2049796	keystroke_Key.space	Key.space	n/a
1025.393	0.165	2050786	keystroke_w	w	n/a
1025.723	0.12	2051446	keystroke_a	a	n/a
1025.873	0.225	2051746	keystroke_r	r	n/a
1026.083	0.165	2052166	keystroke_e	e	n/a
1026.443	0.12	2052886	keystroke_h	h	n/a
1026.638	0.24	2053276	keystroke_o	o	n/a
1026.758	0.135	2053516	keystroke_u	u	n/a
1026.908	0.18	2053816	keystroke_s	s	n/a
1027.028	0.15	2054056	keystroke_e	e	n/a
