onset	duration	sample	value	key	prompt_text
1.5475	20.897	3095	prompt	n/a	the quick brown fox jumps over a lazy dog\n
3.122	0.136	6244	keystroke	t	n/a
3.333	0.181	6666	keystroke	e	n/a
5.2205	0.092	10441	keystroke	Key.backspace	n/a
5.2215	0.0235	10443	keystroke	\	n/a
5.524	0.092	11048	keystroke	h	n/a
7.1225	0.0935	14245	keystroke	Key.backspace	n/a
7.328	0.1135	14656	keystroke	Key.backspace	n/a
8.147	0.0915	16294	keystroke	h	n/a
8.2605	0.137	16521	keystroke	e	n/a
8.3725	0.115	16745	keystroke	Key.space	n/a
9.0685	0.135	18137	keystroke	q	n/a
9.2555	0.07	18511	keystroke	u	n/a
9.4185	0.089	18837	keystroke	i	n/a
9.5575	0.139	19115	keystroke	c	n/a
9.65	0.0915	19300	keystroke	k	n/a
9.8425	0.114	19685	keystroke	Key.space	n/a
10.4955	0.0885	20991	keystroke	b	n/a
10.63	0.114	21260	keystroke	r	n/a
10.721	0.092	21442	keystroke	o	n/a
10.9565	0.161	21913	keystroke	w	n/a
11.0945	0.068	22189	keystroke	n	n/a
11.2845	0.116	22569	keystroke	Key.space	n/a
11.8875	0.0685	23775	keystroke	f	n/a
12.074	0.1135	24148	keystroke	o	n/a
12.262	0.1155	24524	keystroke	x	n/a
12.4345	0.116	24869	keystroke	Key.space	n/a
13.3225	0.069	26645	keystroke	j	n/a
13.4685	0.068	26937	keystroke	u	n/a
13.6525	0.0915	27305	keystroke	m	n/a
13.787	0.069	27574	keystroke	s	n/a
13.877	0.0895	27754	keystroke	p	n/a
14.637	0.0685	29274	keystroke	Key.backspace	n/a
14.799	0.069	29598	keystroke	Key.backspace	n/a
14.9955	0.0905	29991	keystroke	p	n/a
15.1085	0.1155	30217	keystroke	s	n/a
15.6885	0.158	31377	keystroke	Key.space	n/a
15.9435	0.1155	31887	keystroke	o	n/a
16.0885	0.1145	32177	keystroke	v	n/a
16.26	0.113	32520	keystroke	e	n/a
16.4285	0.1355	32857	keystroke	r	n/a
16.586	0.1575	33172	keystroke	a	n/a
16.608	0.0895	33216	keystroke	Key.space	n/a
17.436	0.067	34872	keystroke	Key.backspace	n/a
17.587	0.09	35174	keystroke	Key.backspace	n/a
17.758	0.116	35516	keystroke	Key.space	n/a
17.827	0.137	35654	keystroke	a	n/a
18.0445	0.136	36089	keystroke	Key.space	n/a
18.2035	0.091	36407	keystroke	k	n/a
18.761	0.069	37522	keystroke	Key.backspace	n/a
18.983	0.116	37966	keystroke	l	n/a
19.3325	0.045	38665	keystroke	a	n/a
19.7435	0.0705	39487	keystroke	Key.backspace	n/a
19.8845	0.1125	39769	keystroke	z	n/a
20.391	0.091	40782	keystroke	Key.backspace	n/a
20.569	0.068	41138	keystroke	a	n/a
20.829	0.0675	41658	keystroke	z	n/a
20.9785	0.094	41957	keystroke	y	n/a
21.1025	0.112	42205	keystroke	Key.space	n/a
21.8005	0.1145	43601	keystroke	d	n/a
21.9375	0.0905	43875	keystroke	o	n/a
22.114	0.135	44228	keystroke	g	n/a
22.35	0.091	44700	keystroke	Key.enter	n/a
22.4515	13.3	44903	prompt	n/a	lebanon jimmy strength phillips\n
23.77	0.091	47540	keystroke	l	n/a
24.7555	0.113	49511	keystroke	e	n/a
24.9495	0.1145	49899	keystroke	b	n/a
25.085	0.092	50170	keystroke	a	n/a
25.178	0.112	50356	keystroke	n	n/a
25.4615	0.092	50923	keystroke	o	n/a
25.638	0.0915	51276	keystroke	n	n/a
25.817	0.113	51634	keystroke	Key.space	n/a
28.261	0.072	56522	keystroke	j	n/a
28.437	0.07	56874	keystroke	i	n/a
28.612	0.0925	57224	keystroke	m	n/a
28.761	0.0915	57522	keystroke	m	n/a
28.9025	0.1365	57805	keystroke	y	n/a
29.079	0.1135	58158	keystroke	Key.space	n/a
29.436	0.094	58872	keystroke	s	n/a
29.6	0.091	59200	keystroke	t	n/a
29.785	0.092	59570	keystroke	r	n/a
30.664	0.1375	61328	keystroke	e	n/a
30.9135	0.116	61827	keystroke	n	n/a
31.1115	0.091	62223	keystroke	g	n/a
31.3005	0.1575	62601	keystroke	t	n/a
31.4585	0.092	62917	keystroke	h	n/a
31.7415	0.179	63483	keystroke	Key.space	n/a
32.6705	0.113	65341	keystroke	p	n/a
32.9235	0.093	65847	keystroke	h	n/a
33.0745	0.0925	66149	keystroke	i	n/a
33.2865	0.0915	66573	keystroke	l	n/a
33.4335	0.069	66867	keystroke	l	n/a
33.5905	0.0685	67181	keystroke	i	n/a
33.7735	0.047	67547	keystroke	[	n/a
33.8915	0.1135	67783	keystroke	s	n/a
34.6135	0.07	69227	keystroke	Key.backspace	n/a
34.7525	0.0905	69505	keystroke	Key.backspace	n/a
35.403	0.071	70806	keystroke	p	n/a
35.5465	0.1125	71093	keystroke	s	n/a
35.681	0.0675	71362	keystroke	Key.enter	n/a
35.7565	10.729	71513	prompt	n/a	trains reporters missouri identification\n
36.543	0.116	73086	keystroke	t	n/a
36.743	0.091	73486	keystroke	r	n/a
36.7665	0.136	73533	keystroke	a	n/a
36.9445	0.0685	73889	keystroke	i	n/a
37.1085	0.0905	74217	keystroke	n	n/a
37.2	0.069	74400	keystroke	s	n/a
37.299	0.113	74598	keystroke	Key.space	n/a
38.2975	0.091	76595	keystroke	r	n/a
38.4615	0.114	76923	keystroke	e	n/a
38.5765	0.066	77153	keystroke	p	n/a
38.71	0.0915	77420	keystroke	o	n/a
38.8025	0.0905	77605	keystroke	r	n/a
38.966	0.0905	77932	keystroke	t	n/a
39.175	0.1145	78350	keystroke	e	n/a
39.3715	0.0915	78743	keystroke	r	n/a
39.5985	0.0675	79197	keystroke	s	n/a
39.774	0.135	79548	keystroke	Key.space	n/a
40.5315	0.134	81063	keystroke	m	n/a
40.7415	0.091	81483	keystroke	i	n/a
40.855	0.089	81710	keystroke	s	n/a
41.016	0.091	82032	keystroke	s	n/a
41.129	0.1595	82258	keystroke	o	n/a
41.242	0.136	82484	keystroke	u	n/a
42.2565	0.09	84513	keystroke	r	n/a
42.387	0.1115	84774	keystroke	i	n/a
42.6865	0.137	85373	keystroke	Key.space	n/a
43.044	0.1175	86088	keystroke	i	n/a
43.2015	0.091	86403	keystroke	d	n/a
43.38	0.1155	86760	keystroke	e	n/a
43.4965	0.09	86993	keystroke	n	n/a
43.6785	0.137	87357	keystroke	t	n/a
43.7905	0.115	87581	keystroke	i	n/a
43.9755	0.092	87951	keystroke	f	n/a
44.0895	0.09	88179	keystroke	i	n/a
44.2705	0.0925	88541	keystroke	c	n/a
44.317	0.1365	88634	keystroke	a	n/a
44.496	0.1355	88992	keystroke	t	n/a
44.6325	0.068	89265	keystroke	i	n/a
44.763	0.112	89526	keystroke	o	n/a
44.9345	0.069	89869	keystroke	n	n/a
45.406	0.115	90812	keystroke	s	n/a
46.391	0.091	92782	keystroke	Key.enter	n/a
46.4905	11.372	92981	prompt	n/a	partition omaha wolf frames\n
47.231	0.138	94462	keystroke	p	n/a
47.344	0.117	94688	keystroke	a	n/a
47.434	0.116	94868	keystroke	r	n/a
47.6535	0.089	95307	keystroke	t	n/a
47.7825	0.091	95565	keystroke	i	n/a
47.9395	0.093	95879	keystroke	t	n/a
48.0335	0.067	96067	keystroke	i	n/a
48.193	0.0925	96386	keystroke	o	n/a
48.387	0.069	96774	keystroke	n	n/a
48.566	0.133	97132	keystroke	Key.space	n/a
49.5155	0.068	99031	keystroke	m	n/a
50.049	0.138	100098	keystroke	Key.backspace	n/a
50.442	0.0915	100884	keystroke	o	n/a
50.6395	0.091	101279	keystroke	m	n/a
50.8575	0.111	101715	keystroke	h	n/a
50.9695	0.0915	101939	keystroke	a	n/a
51.936	0.068	103872	keystroke	Key.backspace	n/a
52.094	0.091	104188	keystroke	Key.backspace	n/a
52.4615	0.1115	104923	keystroke	a	n/a
53.243	0.136	106486	keystroke	h	n/a
53.4225	0.114	106845	keystroke	a	n/a
53.725	0.135	107450	keystroke	Key.space	n/a
54.003	0.114	108006	keystroke	w	n/a
54.335	0.112	108670	keystroke	o	n/a
54.554	0.0945	109108	keystroke	l	n/a
54.725	0.114	109450	keystroke	d	n/a
55.122	0.138	110244	keystroke	Key.backspace	n/a
55.3	0.09	110600	keystroke	f	n/a
55.4815	0.137	110963	keystroke	Key.space	n/a
56.094	0.115	112188	keystroke	f	n/a
56.564	0.113	113128	keystroke	r	n/a
56.742	0.135	113484	keystroke	a	n/a
56.8785	0.092	113757	keystroke	m	n/a
57	0.09	114000	keystroke	e	n/a
57.2	0.1165	114400	keystroke	s	n/a
57.748	0.1125	115496	keystroke	Key.enter	n/a
57.867	33.5445	115734	prompt	n/a	sega lows mighty trading\n
76.716	0.045	153432	keystroke	s	n/a
77.3265	0.1595	154653	keystroke	s	n/a
77.441	0.0675	154882	keystroke	e	n/a
77.936	0.023	155872	keystroke	\	n/a
78.082	0.093	156164	keystroke	Key.backspace	n/a
78.176	0.091	156352	keystroke	e	n/a
78.402	0.069	156804	keystroke	Key.backspace	n/a
78.7435	0.089	157487	keystroke	Key.backspace	n/a
78.8975	0.068	157795	keystroke	Key.backspace	n/a
79.2945	0.136	158589	keystroke	e	n/a
79.5205	0.14	159041	keystroke	g	n/a
79.661	0.134	159322	keystroke	a	n/a
79.931	0.113	159862	keystroke	Key.space	n/a
80.689	0.0885	161378	keystroke	l	n/a
80.8485	0.0925	161697	keystroke	o	n/a
80.942	0.1365	161884	keystroke	w	n/a
81.1755	0.0905	162351	keystroke	e	n/a
81.6425	0.09	163285	keystroke	Key.backspace	n/a
81.8245	0.092	163649	keystroke	s	n/a
82.003	0.1125	164006	keystroke	Key.space	n/a
82.2655	0.091	164531	keystroke	m	n/a
82.5095	0.069	165019	keystroke	g	n/a
82.6565	0.068	165313	keystroke	h	n/a
83.027	0.069	166054	keystroke	Key.backspace	n/a
83.373	0.092	166746	keystroke	Key.backspace	n/a
83.671	0.09	167342	keystroke	i	n/a
83.793	0.045	167586	keystroke	g	n/a
83.905	0.0915	167810	keystroke	h	n/a
84.1105	0.115	168221	keystroke	l	n/a
84.5555	0.0695	169111	keystroke	Key.backspace	n/a
84.868	0.1335	169736	keystroke	t	n/a
85.487	0.114	170974	keystroke	y	n/a
85.741	0.1125	171482	keystroke	Key.space	n/a
86.289	0.161	172578	keystroke	t	n/a
86.45	0.136	172900	keystroke	a	n/a
86.517	0.114	173034	keystroke	r	n/a
87.0845	0.14	174169	keystroke	d	n/a
87.2465	0.023	174493	keystroke	i	n/a
87.3745	0.068	174749	keystroke	n	n/a
87.5055	0.091	175011	keystroke	g	n/a
87.8105	0.067	175621	keystroke	Key.backspace	n/a
87.952	0.093	175904	keystroke	Key.backspace	n/a
88.113	0.0705	176226	keystroke	Key.backspace	n/a
88.256	0.069	176512	keystroke	Key.backspace	n/a
88.391	0.089	176782	keystroke	Key.backspace	n/a
88.541	0.1145	177082	keystroke	r	n/a
88.656	0.1095	177312	keystroke	a	n/a
88.8665	0.068	177733	keystroke	Key.backspace	n/a
89.005	0.0935	178010	keystroke	Key.backspace	n/a
89.121	0.1355	178242	keystroke	r	n/a
89.23	0.138	178460	keystroke	a	n/a
89.547	0.068	179094	keystroke	Key.backspace	n/a
89.704	0.0695	179408	keystroke	Key.backspace	n/a
89.851	0.069	179702	keystroke	Key.backspace	n/a
89.921	0.115	179842	keystroke	r	n/a
90.038	0.134	180076	keystroke	a	n/a
90.706	0.156	181412	keystroke	d	n/a
90.884	0.0695	181768	keystroke	i	n/a
91.039	0.069	182078	keystroke	n	n/a
91.155	0.14	182310	keystroke	g	n/a
91.318	0.091	182636	keystroke	Key.enter	n/a
91.4155	10.5915	182831	prompt	n/a	wheels widespread arts rubber\n
92.128	0.116	184256	keystroke	w	n/a
92.3575	0.1585	184715	keystroke	h	n/a
92.545	0.091	185090	keystroke	e	n/a
92.7295	0.113	185459	keystroke	e	n/a
92.955	0.069	185910	keystroke	;	n/a
93.067	0.0935	186134	keystroke	s	n/a
93.21	0.137	186420	keystroke	Key.space	n/a
93.6335	0.047	187267	keystroke	w	n/a
93.752	0.0925	187504	keystroke	i	n/a
94.1445	0.071	188289	keystroke	Key.backspace	n/a
94.294	0.07	188588	keystroke	Key.backspace	n/a
94.434	0.089	188868	keystroke	Key.backspace	n/a
94.5885	0.1135	189177	keystroke	Key.backspace	n/a
94.7495	0.0915	189499	keystroke	Key.backspace	n/a
95.574	0.092	191148	keystroke	l	n/a
95.729	0.091	191458	keystroke	s	n/a
95.821	0.1345	191642	keystroke	Key.space	n/a
96.0395	0.112	192079	keystroke	w	n/a
96.1835	0.1135	192367	keystroke	i	n/a
96.4215	0.115	192843	keystroke	d	n/a
96.6145	0.114	193229	keystroke	e	n/a
97.1995	0.112	194399	keystroke	s	n/a
97.369	0.1355	194738	keystroke	p	n/a
97.5055	0.135	195011	keystroke	e	n/a
97.958	0.091	195916	keystroke	Key.backspace	n/a
98.08	0.09	196160	keystroke	r	n/a
98.2495	0.0925	196499	keystroke	e	n/a
98.364	0.18	196728	keystroke	a	n/a
98.6745	0.0905	197349	keystroke	d	n/a
99.2695	0.136	198539	keystroke	Key.space	n/a
99.5145	0.1575	199029	keystroke	a	n/a
99.673	0.11	199346	keystroke	r	n/a
100.084	0.115	200168	keystroke	t	n/a
100.352	0.1135	200704	keystroke	s	n/a
100.5735	0.136	201147	keystroke	Key.space	n/a
100.787	0.1345	201574	keystroke	r	n/a
101.042	0.069	202084	keystroke	u	n/a
101.234	0.046	202468	keystroke	b	n/a
101.384	0.093	202768	keystroke	b	n/a
101.535	0.114	203070	keystroke	e	n/a
101.731	0.1125	203462	keystroke	r	n/a
101.914	0.0905	203828	keystroke	Key.enter	n/a
102.0125	10.6865	204025	prompt	n/a	shell trail refers towards\n
102.8685	0.093	205737	keystroke	s	n/a
103.015	0.0695	206030	keystroke	h	n/a
103.132	0.1145	206264	keystroke	e	n/a
103.2465	0.045	206493	keystroke	l	n/a
103.3695	0.111	206739	keystroke	l	n/a
103.5755	0.181	207151	keystroke	Key.space	n/a
103.6895	0.091	207379	keystroke	t	n/a
103.8925	0.0925	207785	keystroke	r	n/a
103.9385	0.0925	207877	keystroke	a	n/a
104.1285	0.069	208257	keystroke	i	n/a
104.2705	0.092	208541	keystroke	n	n/a
105.163	0.067	210326	keystroke	Key.backspace	n/a
105.4285	0.113	210857	keystroke	l	n/a
105.7175	0.161	211435	keystroke	Key.space	n/a
106.4085	0.0915	212817	keystroke	r	n/a
106.614	0.045	213228	keystroke	e	n/a
106.766	0.136	213532	keystroke	e	n/a
106.9625	0.112	213925	keystroke	r	n/a
107.192	0.112	214384	keystroke	s	n/a
107.5985	0.068	215197	keystroke	Key.backspace	n/a
107.7425	0.0895	215485	keystroke	Key.backspace	n/a
107.885	0.116	215770	keystroke	Key.backspace	n/a
107.9775	0.1375	215955	keystroke	f	n/a
108.0675	0.1145	216135	keystroke	e	n/a
108.256	0.07	216512	keystroke	r	n/a
108.439	0.068	216878	keystroke	s	n/a
108.568	0.137	217136	keystroke	Key.space	n/a
109.061	0.1365	218122	keystroke	t	n/a
109.2195	0.1795	218439	keystroke	w	n/a
109.3995	0.2075	218799	keystroke	a	n/a
109.4215	0.139	218843	keystroke	o	n/a
109.5825	0.091	219165	keystroke	r	n/a
109.7715	0.0915	219543	keystroke	d	n/a
109.9565	0.0905	219913	keystroke	s	n/a
110.471	0.091	220942	keystroke	Key.backspace	n/a
110.631	0.067	221262	keystroke	Key.backspace	n/a
110.791	0.07	221582	keystroke	Key.backspace	n/a
110.9495	0.0675	221899	keystroke	Key.backspace	n/a
111.115	0.0705	222230	keystroke	Key.backspace	n/a
111.2525	0.092	222505	keystroke	Key.backspace	n/a
111.754	0.138	223508	keystroke	o	n/a
111.869	0.092	223738	keystroke	w	n/a
111.914	0.16	223828	keystroke	a	n/a
112.049	0.117	224098	keystroke	r	n/a
112.26	0.089	224520	keystroke	d	n/a
112.449	0.134	224898	keystroke	s	n/a
112.63	0.067	225260	keystroke	Key.enter	n/a
112.7065	11.355	225413	prompt	n/a	forge ground offensive guests\n
113.5145	0.114	227029	keystroke	f	n/a
113.6755	0.1615	227351	keystroke	o	n/a
113.7905	0.136	227581	keystroke	r	n/a
114.0195	0.091	228039	keystroke	g	n/a
114.2145	0.116	228429	keystroke	e	n/a
114.7375	0.1365	229475	keystroke	Key.space	n/a
115.161	0.091	230322	keystroke	g	n/a
115.359	0.1145	230718	keystroke	r	n/a
115.5865	0.1585	231173	keystroke	o	n/a
115.632	0.115	231264	keystroke	u	n/a
115.859	0.071	231718	keystroke	n	n/a
115.9615	0.0935	231923	keystroke	d	n/a
116.055	0.113	232110	keystroke	Key.space	n/a
117.5985	0.0915	235197	keystroke	o	n/a
117.762	0.137	235524	keystroke	f	n/a
117.921	0.136	235842	keystroke	f	n/a
118.011	0.1385	236022	keystroke	e	n/a
118.5605	0.091	237121	keystroke	Key.backspace	n/a
119.2425	0.115	238485	keystroke	e	n/a
119.3995	0.069	238799	keystroke	n	n/a
119.551	0.115	239102	keystroke	i	n/a
119.667	0.1125	239334	keystroke	s	n/a
119.858	0.1125	239716	keystroke	v	n/a
120.064	0.092	240128	keystroke	e	n/a
120.513	0.068	241026	keystroke	Key.backspace	n/a
120.676	0.068	241352	keystroke	Key.backspace	n/a
120.8345	0.0475	241669	keystroke	Key.backspace	n/a
120.9735	0.0895	241947	keystroke	Key.backspace	n/a
121.084	0.136	242168	keystroke	s	n/a
121.242	0.0895	242484	keystroke	i	n/a
121.3685	0.0695	242737	keystroke	v	n/a
121.535	0.112	243070	keystroke	e	n/a
121.669	0.1125	243338	keystroke	Key.space	n/a
122.559	0.091	245118	keystroke	g	n/a
122.7255	0.138	245451	keystroke	u	n/a
122.9095	0.046	245819	keystroke	e	n/a
123.0565	0.047	246113	keystroke	s	n/a
123.2765	0.136	246553	keystroke	t	n/a
123.582	0.089	247164	keystroke	s	n/a
123.9915	0.0685	247983	keystroke	Key.enter	n/a
124.0675	10.1325	248135	prompt	n/a	double epic favor orlando\n
124.8705	0.116	249741	keystroke	d	n/a
125.0695	0.1845	250139	keystroke	o	n/a
125.162	0.114	250324	keystroke	u	n/a
125.388	0.0705	250776	keystroke	b	n/a
125.5475	0.0905	251095	keystroke	l	n/a
125.6725	0.115	251345	keystroke	e	n/a
125.7875	0.134	251575	keystroke	Key.space	n/a
126.0195	0.1155	252039	keystroke	e	n/a
126.74	0.115	253480	keystroke	p	n/a
126.981	0.0905	253962	keystroke	i	n/a
127.1135	0.113	254227	keystroke	c	n/a
127.634	0.157	255268	keystroke	Key.space	n/a
128.012	0.138	256024	keystroke	f	n/a
128.1265	0.1375	256253	keystroke	a	n/a
128.495	0.114	256990	keystroke	o	n/a
128.9295	0.068	257859	keystroke	Key.backspace	n/a
129.2365	0.09	258473	keystroke	o	n/a
129.6525	0.068	259305	keystroke	Key.backspace	n/a
129.8125	0.112	259625	keystroke	c	n/a
129.949	0.0665	259898	keystroke	o	n/a
130.4245	0.07	260849	keystroke	Key.backspace	n/a
130.5715	0.0925	261143	keystroke	Key.backspace	n/a
130.7355	0.1125	261471	keystroke	v	n/a
130.87	0.069	261740	keystroke	o	n/a
130.979	0.1375	261958	keystroke	r	n/a
131.1165	0.133	262233	keystroke	Key.space	n/a
132.0955	0.093	264191	keystroke	o	n/a
132.189	0.0885	264378	keystroke	r	n/a
132.307	0.1375	264614	keystroke	l	n/a
132.5245	0.1365	265049	keystroke	a	n/a
132.6625	0.043	265325	keystroke	n	n/a
132.798	0.091	265596	keystroke	d	n/a
132.956	0.116	265912	keystroke	o	n/a
134.0845	0.114	268169	keystroke	Key.enter	n/a
134.205	14.611	268410	prompt	n/a	editions gabriel belarus pakistan\n
134.96	0.112	269920	keystroke	e	n/a
135.164	0.136	270328	keystroke	d	n/a
135.277	0.07	270554	keystroke	i	n/a
135.39	0.115	270780	keystroke	t	n/a
135.481	0.068	270962	keystroke	i	n/a
135.624	0.09	271248	keystroke	o	n/a
135.778	0.0915	271556	keystroke	n	n/a
135.8705	0.089	271741	keystroke	s	n/a
135.9605	0.157	271921	keystroke	Key.space	n/a
136.349	0.134	272698	keystroke	g	n/a
136.459	0.117	272918	keystroke	a	n/a
136.6525	0.1125	273305	keystroke	b	n/a
136.844	0.09	273688	keystroke	r	n/a
136.9565	0.0895	273913	keystroke	i	n/a
137.1135	0.1365	274227	keystroke	e	n/a
137.251	0.09	274502	keystroke	l	n/a
137.567	0.159	275134	keystroke	Key.space	n/a
138.508	0.114	277016	keystroke	e	n/a
138.645	0.136	277290	keystroke	l	n/a
138.757	0.115	277514	keystroke	a	n/a
138.916	0.114	277832	keystroke	r	n/a
139.222	0.113	278444	keystroke	s	n/a
139.597	0.069	279194	keystroke	Key.backspace	n/a
139.746	0.091	279492	keystroke	Key.backspace	n/a
139.913	0.069	279826	keystroke	Key.backspace	n/a
140.035	0.092	280070	keystroke	Key.backspace	n/a
140.2075	0.1115	280415	keystroke	Key.backspace	n/a
140.7815	0.112	281563	keystroke	b	n/a
140.915	0.112	281830	keystroke	e	n/a
141.06	0.137	282120	keystroke	l	n/a
142.615	0.113	285230	keystroke	Key.backspace	n/a
142.864	0.114	285728	keystroke	l	n/a
143.047	0.139	286094	keystroke	a	n/a
143.256	0.0925	286512	keystroke	r	n/a
143.433	0.09	286866	keystroke	u	n/a
143.589	0.092	287178	keystroke	s	n/a
143.799	0.115	287598	keystroke	Key.space	n/a
144.7025	0.0895	289405	keystroke	p	n/a
144.851	0.114	289702	keystroke	a	n/a
145.007	0.07	290014	keystroke	k	n/a
145.163	0.093	290326	keystroke	i	n/a
145.287	0.091	290574	keystroke	s	n/a
145.471	0.1125	290942	keystroke	t	n/a
145.606	0.0225	291212	keystroke	w	n/a
145.8215	0.069	291643	keystroke	n	n/a
146.2865	0.046	292573	keystroke	Key.backspace	n/a
146.4175	0.048	292835	keystroke	Key.backspace	n/a
146.5395	0.1145	293079	keystroke	Key.backspace	n/a
147.4655	0.0705	294931	keystroke	t	n/a
147.559	0.135	295118	keystroke	a	n/a
147.716	0.136	295432	keystroke	n	n/a
148.7035	0.111	297407	keystroke	Key.enter	n/a
148.8205	6.9	297641	prompt	n/a	vote refer tampa colors\n
149.71	0.092	299420	keystroke	v	n/a
149.8585	0.136	299717	keystroke	o	n/a
150.1095	0.048	300219	keystroke	e	n/a
150.5035	0.07	301007	keystroke	Key.backspace	n/a
150.6215	0.068	301243	keystroke	t	n/a
150.7765	0.092	301553	keystroke	e	n/a
150.9105	0.138	301821	keystroke	Key.space	n/a
151.0495	0.067	302099	keystroke	r	n/a
151.217	0.0675	302434	keystroke	e	n/a
151.335	0.114	302670	keystroke	f	n/a
151.38	0.1145	302760	keystroke	e	n/a
151.576	0.0935	303152	keystroke	r	n/a
152.0875	0.1575	304175	keystroke	Key.space	n/a
152.4205	0.091	304841	keystroke	t	n/a
152.5335	0.1185	305067	keystroke	a	n/a
152.6525	0.067	305305	keystroke	m	n/a
152.8015	0.112	305603	keystroke	p	n/a
152.9675	0.0705	305935	keystroke	a	n/a
153.1245	0.115	306249	keystroke	Key.space	n/a
153.717	0.1125	307434	keystroke	c	n/a
153.8515	0.069	307703	keystroke	o	n/a
154.0175	0.068	308035	keystroke	l	n/a
154.166	0.069	308332	keystroke	o	n/a
154.2755	0.0915	308551	keystroke	e	n/a
154.4855	0.069	308971	keystroke	r	n/a
154.8445	0.067	309689	keystroke	Key.backspace	n/a
154.99	0.0915	309980	keystroke	Key.backspace	n/a
155.1455	0.0925	310291	keystroke	r	n/a
155.445	0.1115	310890	keystroke	s	n/a
155.606	0.112	311212	keystroke	Key.enter	n/a
155.725	13.4765	311450	prompt	n/a	i've ladder regular contributions\n
156.9245	0.089	313849	keystroke	i	n/a
157.4335	0.092	314867	keystroke	'	n/a
157.5975	0.1115	315195	keystroke	v	n/a
157.815	0.114	315630	keystroke	e	n/a
157.9685	0.137	315937	keystroke	Key.space	n/a
158.584	0.1365	317168	keystroke	l	n/a
158.721	0.1135	317442	keystroke	a	n/a
158.899	0.0705	317798	keystroke	d	n/a
159.293	0.114	318586	keystroke	e	n/a
159.4995	0.093	318999	keystroke	r	n/a
159.6505	0.136	319301	keystroke	Key.space	n/a
160.0385	0.069	320077	keystroke	Key.backspace	n/a
160.1765	0.067	320353	keystroke	Key.backspace	n/a
160.3075	0.115	320615	keystroke	d	n/a
160.72	0.0665	321440	keystroke	Key.backspace	n/a
160.8525	0.093	321705	keystroke	Key.backspace	n/a
160.8995	0.1135	321799	keystroke	d	n/a
161.106	0.112	322212	keystroke	e	n/a
161.296	0.091	322592	keystroke	r	n/a
161.409	0.1135	322818	keystroke	Key.space	n/a
161.924	0.094	323848	keystroke	r	n/a
162.6165	0.07	325233	keystroke	e	n/a
162.802	0.0915	325604	keystroke	f	n/a
162.937	0.091	325874	keystroke	u	n/a
163.1385	0.091	326277	keystroke	l	n/a
163.2655	0.1575	326531	keystroke	a	n/a
163.3995	0.1155	326799	keystroke	r	n/a
163.5985	0.1345	327197	keystroke	Key.space	n/a
163.93	0.0675	327860	keystroke	Key.backspace	n/a
164.218	0.071	328436	keystroke	Key.backspace	n/a
164.3735	0.09	328747	keystroke	Key.backspace	n/a
164.5335	0.069	329067	keystroke	Key.backspace	n/a
164.6825	0.069	329365	keystroke	Key.backspace	n/a
164.9535	0.114	329907	keystroke	Key.backspace	n/a
165.914	0.0905	331828	keystroke	g	n/a
166.0275	0.067	332055	keystroke	u	n/a
166.2095	0.113	332419	keystroke	l	n/a
166.2995	0.093	332599	keystroke	a	n/a
166.3935	0.089	332787	keystroke	r	n/a
166.562	0.1575	333124	keystroke	Key.space	n/a
167.296	0.114	334592	keystroke	c	n/a
167.411	0.067	334822	keystroke	o	n/a
167.5655	0.068	335131	keystroke	n	n/a
167.7275	0.047	335455	keystroke	t	n/a
167.8835	0.112	335767	keystroke	r	n/a
168.0175	0.067	336035	keystroke	i	n/a
168.1455	0.068	336291	keystroke	b	n/a
168.271	0.091	336542	keystroke	u	n/a
168.3835	0.094	336767	keystroke	t	n/a
168.4985	0.0695	336997	keystroke	i	n/a
168.652	0.0685	337304	keystroke	o	n/a
168.8085	0.0695	337617	keystroke	n	n/a
168.9075	0.114	337815	keystroke	s	n/a
169.0865	0.112	338173	keystroke	Key.enter	n/a
169.206	10.301	338412	prompt	n/a	isaac standards music panama\n
170.1645	0.113	340329	keystroke	i	n/a
170.299	0.0905	340598	keystroke	s	n/a
170.4795	0.112	340959	keystroke	a	n/a
170.6565	0.1565	341313	keystroke	a	n/a
171.273	0.137	342546	keystroke	Key.space	n/a
171.636	0.0915	343272	keystroke	Key.backspace	n/a
171.787	0.1155	343574	keystroke	c	n/a
171.9665	0.137	343933	keystroke	Key.space	n/a
172.0795	0.07	344159	keystroke	s	n/a
172.199	0.1355	344398	keystroke	t	n/a
172.4035	0.1375	344807	keystroke	n	n/a
173.0815	0.113	346163	keystroke	Key.backspace	n/a
173.2425	0.09	346485	keystroke	a	n/a
173.3575	0.091	346715	keystroke	n	n/a
173.471	0.115	346942	keystroke	d	n/a
173.5625	0.179	347125	keystroke	a	n/a
173.763	0.1125	347526	keystroke	r	n/a
174	0.114	348000	keystroke	s	n/a
176.0295	0.0905	352059	keystroke	Key.backspace	n/a
176.1685	0.1125	352337	keystroke	d	n/a
176.3435	0.116	352687	keystroke	s	n/a
176.5125	0.137	353025	keystroke	Key.space	n/a
176.8045	0.09	353609	keystroke	m	n/a
177.0305	0.1125	354061	keystroke	u	n/a
177.634	0.1375	355268	keystroke	s	n/a
177.7735	0.086	355547	keystroke	i	n/a
177.9055	0.0915	355811	keystroke	c	n/a
178.09	0.114	356180	keystroke	Key.space	n/a
178.269	0.116	356538	keystroke	p	n/a
178.433	0.113	356866	keystroke	a	n/a
178.6255	0.1125	357251	keystroke	n	n/a
178.7595	0.072	357519	keystroke	a	n/a
179.0265	0.092	358053	keystroke	m	n/a
179.1485	0.091	358297	keystroke	a	n/a
179.414	0.0915	358828	keystroke	Key.enter	n/a
179.511	10.328	359022	prompt	n/a	london plumbing bonus microphone\n
180.4355	0.092	360871	keystroke	l	n/a
180.6235	0.0685	361247	keystroke	o	n/a
180.763	0.1125	361526	keystroke	n	n/a
181.101	0.091	362202	keystroke	d	n/a
181.252	0.0895	362504	keystroke	o	n/a
181.413	0.069	362826	keystroke	n	n/a
181.722	0.1345	363444	keystroke	Key.space	n/a
182.4995	0.116	364999	keystroke	p	n/a
182.7325	0.0905	365465	keystroke	l	n/a
183.014	0.0885	366028	keystroke	u	n/a
183.2535	0.114	366507	keystroke	m	n/a
183.972	0.0915	367944	keystroke	b	n/a
184.172	0.047	368344	keystroke	i	n/a
184.308	0.0905	368616	keystroke	n	n/a
184.399	0.113	368798	keystroke	g	n/a
184.533	0.092	369066	keystroke	Key.space	n/a
184.8325	0.0695	369665	keystroke	n	n/a
185.0095	0.1125	370019	keystroke	o	n/a
185.635	0.069	371270	keystroke	Key.backspace	n/a
185.7725	0.0875	371545	keystroke	Key.backspace	n/a
185.913	0.092	371826	keystroke	b	n/a
186.045	0.092	372090	keystroke	o	n/a
186.4105	0.135	372821	keystroke	n	n/a
186.655	0.047	373310	keystroke	u	n/a
187.296	0.09	374592	keystroke	s	n/a
187.4475	0.1155	374895	keystroke	Key.space	n/a
187.674	0.091	375348	keystroke	m	n/a
187.913	0.0465	375826	keystroke	i	n/a
187.981	0.0895	375962	keystroke	c	n/a
188.6925	0.1135	377385	keystroke	r	n/a
188.8615	0.088	377723	keystroke	o	n/a
189.0645	0.09	378129	keystroke	p	n/a
189.2415	0.0935	378483	keystroke	h	n/a
189.357	0.0905	378714	keystroke	o	n/a
189.4785	0.09	378957	keystroke	n	n/a
189.5915	0.091	379183	keystroke	e	n/a
189.7675	0.069	379535	keystroke	Key.enter	n/a
189.843	9.12	379686	prompt	n/a	infected sally allowing please\n
190.5745	0.093	381149	keystroke	i	n/a
190.7135	0.1335	381427	keystroke	n	n/a
190.848	0.0895	381696	keystroke	f	n/a
190.9585	0.138	381917	keystroke	e	n/a
191.222	0.1105	382444	keystroke	c	n/a
191.402	0.0675	382804	keystroke	t	n/a
191.542	0.068	383084	keystroke	e	n/a
191.6905	0.092	383381	keystroke	d	n/a
191.8045	0.111	383609	keystroke	Key.space	n/a
191.9505	0.092	383901	keystroke	s	n/a
192.0645	0.139	384129	keystroke	a	n/a
192.3655	0.067	384731	keystroke	l	n/a
193.407	0.11	386814	keystroke	Key.backspace	n/a
194.0165	0.089	388033	keystroke	l	n/a
194.3425	0.111	388685	keystroke	y	n/a
194.562	0.1125	389124	keystroke	Key.space	n/a
194.7075	0.136	389415	keystroke	a	n/a
194.8735	0.09	389747	keystroke	l	n/a
195.1565	0.07	390313	keystroke	Key.backspace	n/a
195.311	0.046	390622	keystroke	Key.backspace	n/a
195.443	0.048	390886	keystroke	Key.backspace	n/a
195.554	0.091	391108	keystroke	Key.backspace	n/a
195.9415	0.0915	391883	keystroke	l	n/a
196.2935	0.091	392587	keystroke	y	n/a
196.3845	0.094	392769	keystroke	Key.space	n/a
196.4805	0.132	392961	keystroke	a	n/a
196.6335	0.0695	393267	keystroke	l	n/a
196.772	0.09	393544	keystroke	l	n/a
196.9305	0.091	393861	keystroke	o	n/a
197.0725	0.115	394145	keystroke	w	n/a
197.1415	0.069	394283	keystroke	i	n/a
197.3025	0.067	394605	keystroke	n	n/a
197.393	0.0665	394786	keystroke	g	n/a
197.4825	0.1135	394965	keystroke	Key.space	n/a
197.877	0.1135	395754	keystroke	p	n/a
198.0745	0.1385	396149	keystroke	l	n/a
198.2135	0.112	396427	keystroke	e	n/a
198.3865	0.1115	396773	keystroke	a	n/a
198.454	0.1555	396908	keystroke	s	n/a
198.5425	0.157	397085	keystroke	e	n/a
198.847	0.113	397694	keystroke	Key.enter	n/a
198.972	14.125	397944	prompt	n/a	formula applying skip prevention\n
199.735	0.1135	399470	keystroke	f	n/a
199.872	0.092	399744	keystroke	o	n/a
199.985	0.07	399970	keystroke	r	n/a
200.077	0.066	400154	keystroke	m	n/a
200.281	0.092	400562	keystroke	u	n/a
200.471	0.071	400942	keystroke	;	n/a
200.543	0.111	401086	keystroke	a	n/a
200.715	0.1805	401430	keystroke	Key.space	n/a
201.087	0.0695	402174	keystroke	Key.backspace	n/a
201.2215	0.067	402443	keystroke	Key.backspace	n/a
201.3375	0.095	402675	keystroke	Key.backspace	n/a
201.5655	0.07	403131	keystroke	l	n/a
201.7155	0.045	403431	keystroke	a	n/a
201.783	0.137	403566	keystroke	Key.space	n/a
202.4335	0.092	404867	keystroke	a	n/a
202.5465	0.07	405093	keystroke	p	n/a
202.673	0.093	405346	keystroke	p	n/a
202.847	0.093	405694	keystroke	l	n/a
203.1485	0.092	406297	keystroke	y	n/a
203.3365	0.068	406673	keystroke	i	n/a
203.5045	0.068	407009	keystroke	n	n/a
203.5955	0.089	407191	keystroke	g	n/a
203.6855	0.0895	407371	keystroke	Key.space	n/a
203.9325	0.114	407865	keystroke	s	n/a
204.0695	0.091	408139	keystroke	l	n/a
204.2775	0.091	408555	keystroke	i	n/a
204.4985	0.092	408997	keystroke	p	n/a
205.072	0.0665	410144	keystroke	Key.backspace	n/a
205.2325	0.046	410465	keystroke	Key.backspace	n/a
205.3665	0.0895	410733	keystroke	Key.backspace	n/a
205.768	0.07	411536	keystroke	k	n/a
205.983	0.069	411966	keystroke	p	n/a
206.7215	0.1125	413443	keystroke	Key.space	n/a
206.9525	0.114	413905	keystroke	p	n/a
207.043	0.069	414086	keystroke	r	n/a
207.1985	0.0925	414397	keystroke	e	n/a
207.3585	0.093	414717	keystroke	v	n/a
207.4745	0.1135	414949	keystroke	e	n/a
207.5885	0.066	415177	keystroke	n	n/a
207.7165	0.1155	415433	keystroke	t	n/a
207.8545	0.0475	415709	keystroke	i	n/a
207.9945	0.1335	415989	keystroke	o	n/a
208.167	0.07	416334	keystroke	n	n/a
210.098	0.093	420196	keystroke	Key.left	n/a
210.2595	0.0695	420519	keystroke	Key.left	n/a
210.3905	0.1375	420781	keystroke	Key.left	n/a
211.083	0.0915	422166	keystroke	i	n/a
212.089	0.09	424178	keystroke	Key.right	n/a
212.261	0.07	424522	keystroke	Key.right	n/a
212.394	0.136	424788	keystroke	Key.right	n/a
213.049	0.046	426098	keystroke	Key.enter	n/a
213.072	0.0455	426144	keystroke	\	n/a
213.101	16.0595	426202	prompt	n/a	forest lopez moderators cursor\n
214.154	0.117	428308	keystroke	f	n/a
214.223	0.114	428446	keystroke	o	n/a
214.523	0.158	429046	keystroke	e	n/a
215.025	0.091	430050	keystroke	Key.backspace	n/a
215.149	0.092	430298	keystroke	r	n/a
215.328	0.069	430656	keystroke	e	n/a
215.478	0.091	430956	keystroke	s	n/a
215.6425	0.1365	431285	keystroke	t	n/a
215.8	0.1135	431600	keystroke	Key.space	n/a
216.654	0.069	433308	keystroke	l	n/a
216.806	0.115	433612	keystroke	o	n/a
216.972	0.112	433944	keystroke	p	n/a
217.037	0.069	434074	keystroke	e	n/a
217.253	0.139	434506	keystroke	z	n/a
217.474	0.1565	434948	keystroke	Key.space	n/a
218.191	0.1115	436382	keystroke	m	n/a
218.3425	0.138	436685	keystroke	o	n/a
218.5385	0.112	437077	keystroke	d	n/a
218.7215	0.115	437443	keystroke	e	n/a
218.907	0.069	437814	keystroke	r	n/a
218.9295	0.1815	437859	keystroke	a	n/a
219.065	0.092	438130	keystroke	t	n/a
219.188	0.136	438376	keystroke	o	n/a
219.346	0.113	438692	keystroke	r	n/a
219.72	0.18	439440	keystroke	s	n/a
220.051	0.136	440102	keystroke	Key.space	n/a
220.823	0.093	441646	keystroke	c	n/a
221.038	0.1145	442076	keystroke	u	n/a
221.1275	0.0935	442255	keystroke	r	n/a
221.67	0.092	443340	keystroke	s	n/a
221.942	0.0905	443884	keystroke	r	n/a
222.731	0.069	445462	keystroke	Key.home	n/a
223.111	0.094	446222	keystroke	o	n/a
225.2445	0.093	450489	keystroke	Key.right	n/a
225.4295	0.091	450859	keystroke	Key.right	n/a
225.5985	0.068	451197	keystroke	Key.right	n/a
225.7405	0.1135	451481	keystroke	Key.right	n/a
228.415	0.091	456830	keystroke	Key.backspace	n/a
228.8125	0.09	457625	keystroke	o	n/a
228.9325	0.0915	457865	keystroke	r	n/a
229.09	0.069	458180	keystroke	Key.enter	n/a
229.1635	13.4085	458327	prompt	n/a	spanking connectivity occurrence camping\n
229.971	0.1345	459942	keystroke	s	n/a
230.1265	0.092	460253	keystroke	p	n/a
230.2725	0.112	460545	keystroke	a	n/a
230.4285	0.0925	460857	keystroke	n	n/a
230.6095	0.068	461219	keystroke	i	n/a
230.809	0.0895	461618	keystroke	k	n/a
230.9965	0.07	461993	keystroke	i	n/a
231.1245	0.115	462249	keystroke	n	n/a
231.1935	0.0905	462387	keystroke	g	n/a
231.457	0.068	462914	keystroke	Key.backspace	n/a
231.597	0.069	463194	keystroke	Key.backspace	n/a
231.735	0.0695	463470	keystroke	Key.backspace	n/a
231.871	0.094	463742	keystroke	Key.backspace	n/a
232.015	0.092	464030	keystroke	Key.backspace	n/a
232.449	0.093	464898	keystroke	k	n/a
232.652	0.09	465304	keystroke	i	n/a
232.796	0.0925	465592	keystroke	n	n/a
232.8895	0.067	465779	keystroke	g	n/a
233.0005	0.137	466001	keystroke	Key.space	n/a
233.6745	0.0895	467349	keystroke	c	n/a
233.785	0.091	467570	keystroke	o	n/a
233.971	0.069	467942	keystroke	n	n/a
234.098	0.1175	468196	keystroke	n	n/a
234.122	0.095	468244	keystroke	e	n/a
234.334	0.112	468668	keystroke	c	n/a
234.545	0.0905	469090	keystroke	t	n/a
234.6355	0.067	469271	keystroke	i	n/a
234.792	0.115	469584	keystroke	v	n/a
235.108	0.138	470216	keystroke	t	n/a
235.2815	0.0475	470563	keystroke	y	n/a
235.565	0.092	471130	keystroke	Key.backspace	n/a
235.709	0.093	471418	keystroke	Key.backspace	n/a
236.411	0.1135	472822	keystroke	i	n/a
236.612	0.1365	473224	keystroke	t	n/a
236.7495	0.0915	473499	keystroke	y	n/a
236.8625	0.113	473725	keystroke	Key.space	n/a
237.7925	0.136	475585	keystroke	o	n/a
237.9515	0.071	475903	keystroke	c	n/a
238.1135	0.0695	476227	keystroke	c	n/a
238.2555	0.113	476511	keystroke	u	n/a
238.4125	0.116	476825	keystroke	r	n/a
238.5645	0.091	477129	keystroke	r	n/a
238.771	0.1145	477542	keystroke	e	n/a
238.9605	0.0885	477921	keystroke	n	n/a
239.122	0.114	478244	keystroke	c	n/a
239.19	0.136	478380	keystroke	e	n/a
239.6785	0.138	479357	keystroke	Key.space	n/a
240.0835	0.069	480167	keystroke	s	n/a
240.548	0.0905	481096	keystroke	Key.backspace	n/a
240.895	0.139	481790	keystroke	c	n/a
240.9645	0.137	481929	keystroke	a	n/a
241.0785	0.1125	482157	keystroke	m	n/a
241.295	0.113	482590	keystroke	p	n/a
242.077	0.068	484154	keystroke	i	n/a
242.2155	0.0925	484431	keystroke	n	n/a
242.2835	0.091	484567	keystroke	g	n/a
242.4805	0.0895	484961	keystroke	Key.enter	n/a
242.5795	7.2915	485159	prompt	n/a	clinics places standing leone\n
243.231	0.091	486462	keystroke	c	n/a
243.3515	0.092	486703	keystroke	l	n/a
243.5745	0.092	487149	keystroke	i	n/a
243.6425	0.157	487285	keystroke	n	n/a
243.7765	0.111	487553	keystroke	i	n/a
244.4705	0.093	488941	keystroke	c	n/a
244.628	0.1585	489256	keystroke	s	n/a
244.8085	0.137	489617	keystroke	Key.space	n/a
244.8985	0.093	489797	keystroke	p	n/a
245.0845	0.113	490169	keystroke	l	n/a
245.2205	0.092	490441	keystroke	a	n/a
245.3345	0.115	490669	keystroke	c	n/a
245.4245	0.116	490849	keystroke	e	n/a
245.657	0.0915	491314	keystroke	s	n/a
245.837	0.1375	491674	keystroke	Key.space	n/a
246.1685	0.113	492337	keystroke	s	n/a
246.3435	0.136	492687	keystroke	t	n/a
246.4335	0.136	492867	keystroke	a	n/a
246.5465	0.069	493093	keystroke	n	n/a
246.6795	0.0915	493359	keystroke	i	n/a
246.84	0.072	493680	keystroke	n	n/a
246.912	0.087	493824	keystroke	d	n/a
247.029	0.091	494058	keystroke	Key.space	n/a
247.929	0.07	495858	keystroke	Key.backspace	n/a
248.111	0.068	496222	keystroke	Key.backspace	n/a
248.7745	0.111	497549	keystroke	g	n/a
248.9075	0.157	497815	keystroke	Key.space	n/a
249.0185	0.0935	498037	keystroke	l	n/a
249.1335	0.091	498267	keystroke	e	n/a
249.26	0.0885	498520	keystroke	o	n/a
249.417	0.07	498834	keystroke	n	n/a
249.5235	0.092	499047	keystroke	e	n/a
249.7565	0.112	499513	keystroke	Key.enter	n/a
249.8755	6.5505	499751	prompt	n/a	kick greeting cups acids\n
250.6645	0.0695	501329	keystroke	k	n/a
250.8255	0.0705	501651	keystroke	i	n/a
250.918	0.114	501836	keystroke	c	n/a
251.0325	0.091	502065	keystroke	k	n/a
251.1455	0.112	502291	keystroke	Key.space	n/a
251.5465	0.1145	503093	keystroke	g	n/a
251.6835	0.139	503367	keystroke	r	n/a
251.887	0.094	503774	keystroke	e	n/a
252.223	0.0695	504446	keystroke	e	n/a
252.882	0.1355	505764	keystroke	t	n/a
252.993	0.069	505986	keystroke	i	n/a
253.1415	0.0915	506283	keystroke	n	n/a
253.234	0.092	506468	keystroke	g	n/a
253.366	0.09	506732	keystroke	Key.space	n/a
253.983	0.1385	507966	keystroke	c	n/a
254.23	0.136	508460	keystroke	u	n/a
254.561	0.1145	509122	keystroke	p	n/a
255.1425	0.115	510285	keystroke	s	n/a
255.2785	0.111	510557	keystroke	Key.space	n/a
255.3915	0.1565	510783	keystroke	a	n/a
255.645	0.1325	511290	keystroke	c	n/a
255.815	0.1125	511630	keystroke	i	n/a
255.9285	0.1145	511857	keystroke	d	n/a
256.1155	0.1145	512231	keystroke	s	n/a
256.3115	0.113	512623	keystroke	Key.enter	n/a
256.4295	8.5975	512859	prompt	n/a	size josh amino troubleshooting\n
257.351	0.137	514702	keystroke	s	n/a
257.539	0.135	515078	keystroke	i	n/a
257.768	0.1355	515536	keystroke	e	n/a
257.933	0.138	515866	keystroke	Key.space	n/a
258.111	0.1115	516222	keystroke	j	n/a
258.2455	0.1375	516491	keystroke	o	n/a
258.359	0.117	516718	keystroke	s	n/a
258.5715	0.1115	517143	keystroke	h	n/a
259.199	0.1355	518398	keystroke	Key.space	n/a
259.4205	0.091	518841	keystroke	a	n/a
259.5125	0.089	519025	keystroke	m	n/a
259.6835	0.07	519367	keystroke	i	n/a
259.8325	0.069	519665	keystroke	n	n/a
260.043	0.112	520086	keystroke	o	n/a
260.8145	0.1155	521629	keystroke	Key.space	n/a
261.0865	0.094	522173	keystroke	t	n/a
261.284	0.09	522568	keystroke	r	n/a
261.3515	0.1615	522703	keystroke	o	n/a
261.376	0.135	522752	keystroke	u	n/a
261.624	0.094	523248	keystroke	b	n/a
261.8395	0.1145	523679	keystroke	l	n/a
262.277	0.1815	524554	keystroke	e	n/a
262.7165	0.1115	525433	keystroke	s	n/a
262.805	0.0905	525610	keystroke	h	n/a
262.9435	0.114	525887	keystroke	o	n/a
263.153	0.1145	526306	keystroke	o	n/a
263.4285	0.1165	526857	keystroke	t	n/a
263.5675	0.09	527135	keystroke	i	n/a
263.8585	0.1145	527717	keystroke	g	n/a
264.374	0.136	528748	keystroke	Key.backspace	n/a
264.6855	0.0685	529371	keystroke	n	n/a
264.8005	0.0905	529601	keystroke	g	n/a
264.935	0.0895	529870	keystroke	Key.enter	n/a
265.0315	13.64	530063	prompt	n/a	liability guam values algorithm\n
266.033	0.112	532066	keystroke	l	n/a
266.2295	0.115	532459	keystroke	i	n/a
266.3655	0.0915	532731	keystroke	a	n/a
266.5815	0.116	533163	keystroke	i	n/a
266.7665	0.205	533533	keystroke	l	n/a
266.923	0.1365	533846	keystroke	i	n/a
266.946	0.027	533892	keystroke	k	n/a
267.163	0.1375	534326	keystroke	t	n/a
267.2775	0.1135	534555	keystroke	y	n/a
267.391	0.1115	534782	keystroke	Key.space	n/a
267.6185	0.0485	535237	keystroke	Key.backspace	n/a
267.7535	0.09	535507	keystroke	Key.backspace	n/a
267.921	0.0685	535842	keystroke	Key.backspace	n/a
268.063	0.0675	536126	keystroke	Key.backspace	n/a
268.2055	0.11	536411	keystroke	Key.backspace	n/a
268.656	0.091	537312	keystroke	Key.backspace	n/a
268.8835	0.068	537767	keystroke	Key.backspace	n/a
269.801	0.0665	539602	keystroke	b	n/a
269.951	0.048	539902	keystroke	i	n/a
270.0755	0.227	540151	keystroke	l	n/a
270.2545	0.1595	540509	keystroke	i	n/a
270.45	0.1135	540900	keystroke	t	n/a
270.5645	0.089	541129	keystroke	y	n/a
270.6765	0.091	541353	keystroke	Key.space	n/a
271.585	0.092	543170	keystroke	g	n/a
271.735	0.115	543470	keystroke	u	n/a
271.9275	0.092	543855	keystroke	a	n/a
272.0205	0.089	544041	keystroke	m	n/a
272.173	0.1145	544346	keystroke	Key.space	n/a
272.659	0.1145	545318	keystroke	v	n/a
272.774	0.114	545548	keystroke	a	n/a
272.889	0.089	545778	keystroke	l	n/a
273.091	0.132	546182	keystroke	u	n/a
273.2595	0.1125	546519	keystroke	e	n/a
273.4885	0.138	546977	keystroke	s	n/a
273.6835	0.135	547367	keystroke	Key.space	n/a
274.1475	0.0685	548295	keystroke	a	n/a
274.318	0.114	548636	keystroke	l	n/a
274.5715	0.1395	549143	keystroke	o	n/a
274.7335	0.069	549467	keystroke	g	n/a
275.647	0.0695	551294	keystroke	Key.backspace	n/a
275.7985	0.067	551597	keystroke	Key.backspace	n/a
275.8895	0.1125	551779	keystroke	g	n/a
276.04	0.088	552080	keystroke	o	n/a
277.367	0.0925	554734	keystroke	r	n/a
277.4945	0.1365	554989	keystroke	i	n/a
277.7405	0.116	555481	keystroke	t	n/a
277.8565	0.136	555713	keystroke	h	n/a
277.968	0.113	555936	keystroke	i	n/a
278.192	0.0685	556384	keystroke	m	n/a
278.3845	0.114	556769	keystroke	Key.space	n/a
278.5575	0.1115	557115	keystroke	Key.enter	n/a
278.676	15.945	557352	prompt	n/a	academic sheriff dominican orbit\n
279.44	0.134	558880	keystroke	a	n/a
279.5965	0.159	559193	keystroke	c	n/a
279.7325	0.1115	559465	keystroke	a	n/a
279.846	0.022	559692	keystroke	e	n/a
280.01	0.1575	560020	keystroke	d	n/a
280.198	0.0925	560396	keystroke	m	n/a
280.3635	0.1155	560727	keystroke	e	n/a
280.739	0.0685	561478	keystroke	Key.backspace	n/a
280.886	0.067	561772	keystroke	Key.backspace	n/a
281.03	0.069	562060	keystroke	Key.backspace	n/a
281.1685	0.134	562337	keystroke	Key.backspace	n/a
281.495	0.112	562990	keystroke	d	n/a
281.7125	0.115	563425	keystroke	e	n/a
281.8025	0.0935	563605	keystroke	m	n/a
282.0105	0.111	564021	keystroke	i	n/a
282.208	0.1355	564416	keystroke	Key.space	n/a
282.3665	0.0885	564733	keystroke	c	n/a
282.766	0.0675	565532	keystroke	Key.backspace	n/a
282.894	0.0675	565788	keystroke	Key.backspace	n/a
282.9845	0.114	565969	keystroke	c	n/a
283.171	0.112	566342	keystroke	Key.space	n/a
283.3165	0.095	566633	keystroke	s	n/a
283.4125	0.088	566825	keystroke	h	n/a
283.522	0.114	567044	keystroke	e	n/a
284.5315	0.0905	569063	keystroke	r	n/a
284.663	0.114	569326	keystroke	i	n/a
284.8255	0.066	569651	keystroke	f	n/a
284.9735	0.0715	569947	keystroke	f	n/a
285.1235	0.1335	570247	keystroke	Key.space	n/a
285.528	0.09	571056	keystroke	d	n/a
285.6565	0.0915	571313	keystroke	m	n/a
285.9845	0.094	571969	keystroke	n	n/a
286.119	0.09	572238	keystroke	i	n/a
286.466	0.0685	572932	keystroke	Key.backspace	n/a
286.609	0.091	573218	keystroke	Key.backspace	n/a
286.779	0.0925	573558	keystroke	Key.backspace	n/a
287.3635	0.09	574727	keystroke	o	n/a
287.514	0.092	575028	keystroke	m	n/a
287.636	0.1345	575272	keystroke	i	n/a
287.7925	0.0465	575585	keystroke	n	n/a
287.8945	0.1385	575789	keystroke	i	n/a
288.034	0.0885	576068	keystroke	c	n/a
288.077	0.113	576154	keystroke	a	n/a
288.7595	0.111	577519	keystroke	n	n/a
289.064	0.138	578128	keystroke	Key.space	n/a
289.177	0.1155	578354	keystroke	o	n/a
290.858	0.1135	581716	keystroke	Key.backspace	n/a
291.7525	0.091	583505	keystroke	i	n/a
291.9045	0.09	583809	keystroke	n	n/a
291.995	0.111	583990	keystroke	i	n/a
292.083	0.1145	584166	keystroke	c	n/a
292.1735	0.113	584347	keystroke	a	n/a
292.4205	0.0705	584841	keystroke	n	n/a
292.656	0.1125	585312	keystroke	Key.space	n/a
293.096	0.091	586192	keystroke	r	n/a
293.5755	0.069	587151	keystroke	Key.backspace	n/a
293.79	0.1145	587580	keystroke	o	n/a
293.905	0.11	587810	keystroke	r	n/a
294.0875	0.095	588175	keystroke	b	n/a
294.2195	0.1145	588439	keystroke	i	n/a
294.369	0.114	588738	keystroke	t	n/a
294.5295	0.089	589059	keystroke	Key.enter	n/a
294.6255	16.3195	589251	prompt	n/a	precipitation continent homeless national\n
295.583	0.1775	591166	keystroke	p	n/a
295.7625	0.0875	591525	keystroke	r	n/a
295.917	0.0915	591834	keystroke	e	n/a
296.1785	0.1345	592357	keystroke	c	n/a
297.655	0.091	595310	keystroke	i	n/a
297.8965	0.115	595793	keystroke	p	n/a
298.1665	0.1365	596333	keystroke	i	n/a
298.325	0.094	596650	keystroke	t	n/a
298.44	0.1385	596880	keystroke	a	n/a
298.508	0.139	597016	keystroke	t	n/a
298.6245	0.0915	597249	keystroke	i	n/a
298.8065	0.1595	597613	keystroke	o	n/a
299.0265	0.114	598053	keystroke	n	n/a
299.2945	0.1565	598589	keystroke	Key.space	n/a
299.498	0.092	598996	keystroke	c	n/a
299.612	0.09	599224	keystroke	o	n/a
299.768	0.069	599536	keystroke	n	n/a
300.1295	0.1145	600259	keystroke	t	n/a
300.245	0.09	600490	keystroke	i	n/a
300.417	0.0685	600834	keystroke	n	n/a
300.5085	0.1145	601017	keystroke	e	n/a
300.862	0.117	601724	keystroke	t	n/a
301.3655	0.0695	602731	keystroke	Key.backspace	n/a
301.632	0.09	603264	keystroke	n	n/a
301.781	0.09	603562	keystroke	t	n/a
302.006	0.114	604012	keystroke	Key.space	n/a
302.4115	0.0915	604823	keystroke	h	n/a
302.504	0.1335	605008	keystroke	o	n/a
302.7295	0.113	605459	keystroke	e	n/a
303.382	0.068	606764	keystroke	Key.backspace	n/a
303.6085	0.067	607217	keystroke	m	n/a
303.7235	0.113	607447	keystroke	e	n/a
303.791	0.1385	607582	keystroke	l	n/a
304.1805	0.0695	608361	keystroke	s	n/a
304.89	0.094	609780	keystroke	s	n/a
305.3055	0.067	610611	keystroke	Key.backspace	n/a
305.438	0.114	610876	keystroke	Key.backspace	n/a
305.574	0.0925	611148	keystroke	e	n/a
305.7715	0.068	611543	keystroke	s	n/a
305.9225	0.0695	611845	keystroke	s	n/a
305.993	0.111	611986	keystroke	Key.space	n/a
306.226	0.112	612452	keystroke	b	n/a
306.8925	0.091	613785	keystroke	Key.backspace	n/a
307.156	0.0915	614312	keystroke	n	n/a
307.248	0.115	614496	keystroke	t	n/a
307.339	0.115	614678	keystroke	a	n/a
307.43	0.0905	614860	keystroke	i	n/a
307.579	0.1125	615158	keystroke	o	n/a
307.749	0.068	615498	keystroke	n	n/a
307.84	0.136	615680	keystroke	a	n/a
307.977	0.0905	615954	keystroke	;	n/a
308.731	0.088	617462	keystroke	Key.backspace	n/a
308.881	0.068	617762	keystroke	Key.backspace	n/a
309.021	0.0675	618042	keystroke	Key.backspace	n/a
309.15	0.09	618300	keystroke	Key.backspace	n/a
309.29	0.0685	618580	keystroke	Key.backspace	n/a
309.4125	0.0475	618825	keystroke	Key.backspace	n/a
309.617	0.095	619234	keystroke	Key.backspace	n/a
309.794	0.1865	619588	keystroke	a	n/a
309.888	0.137	619776	keystroke	t	n/a
310.0885	0.0675	620177	keystroke	i	n/a
310.2435	0.14	620487	keystroke	o	n/a
310.3595	0.092	620719	keystroke	n	n/a
310.4525	0.1355	620905	keystroke	a	n/a
310.5635	0.1155	621127	keystroke	l	n/a
310.8535	0.089	621707	keystroke	Key.enter	n/a
310.9495	13.135	621899	prompt	n/a	critical requests templates dangerous\n
312.2285	0.1135	624457	keystroke	c	n/a
312.364	0.162	624728	keystroke	r	n/a
312.5465	0.136	625093	keystroke	i	n/a
312.7255	0.093	625451	keystroke	t	n/a
312.93	0.0905	625860	keystroke	i	n/a
313.124	0.046	626248	keystroke	c	n/a
313.293	0.113	626586	keystroke	a	n/a
313.429	0.1165	626858	keystroke	l	n/a
313.5675	0.1385	627135	keystroke	Key.space	n/a
314.2195	0.1155	628439	keystroke	r	n/a
314.4185	0.0695	628837	keystroke	e	n/a
314.6965	0.1585	629393	keystroke	u	n/a
315.186	0.068	630372	keystroke	Key.backspace	n/a
316.093	0.0905	632186	keystroke	q	n/a
316.205	0.136	632410	keystroke	u	n/a
316.3175	0.1145	632635	keystroke	e	n/a
316.625	0.183	633250	keystroke	t	n/a
317.0895	0.115	634179	keystroke	s	n/a
317.507	0.1345	635014	keystroke	Key.backspace	n/a
317.793	0.093	635586	keystroke	Key.backspace	n/a
318.67	0.139	637340	keystroke	s	n/a
318.869	0.1115	637738	keystroke	t	n/a
319.1095	0.1125	638219	keystroke	s	n/a
319.283	0.116	638566	keystroke	Key.space	n/a
320.1595	0.112	640319	keystroke	t	n/a
320.336	0.115	640672	keystroke	e	n/a
320.451	0.068	640902	keystroke	m	n/a
320.5805	0.068	641161	keystroke	p	n/a
320.7325	0.1365	641465	keystroke	l	n/a
320.7545	0.16	641509	keystroke	a	n/a
320.87	0.0895	641740	keystroke	t	n/a
321.037	0.1125	642074	keystroke	e	n/a
321.274	0.0905	642548	keystroke	s	n/a
321.4415	0.139	642883	keystroke	Key.space	n/a
322.029	0.1355	644058	keystroke	d	n/a
322.2175	0.113	644435	keystroke	a	n/a
322.3605	0.0935	644721	keystroke	n	n/a
323.069	0.094	646138	keystroke	g	n/a
323.223	0.0905	646446	keystroke	e	n/a
323.3965	0.089	646793	keystroke	r	n/a
323.5235	0.184	647047	keystroke	o	n/a
323.594	0.116	647188	keystroke	u	n/a
323.771	0.095	647542	keystroke	s	n/a
323.969	0.114	647938	keystroke	Key.enter	n/a
324.0885	19.5325	648177	prompt	n/a	heavily produced exclusion convergence\n
331.7325	0.0895	663465	keystroke	h	n/a
331.845	0.1155	663690	keystroke	e	n/a
331.914	0.0905	663828	keystroke	a	n/a
331.9605	0.136	663921	keystroke	;	n/a
332.5785	0.113	665157	keystroke	Key.backspace	n/a
333.0315	0.115	666063	keystroke	v	n/a
333.1465	0.067	666293	keystroke	i	n/a
333.302	0.116	666604	keystroke	l	n/a
333.737	0.16	667474	keystroke	y	n/a
334.016	0.135	668032	keystroke	Key.space	n/a
334.343	0.113	668686	keystroke	p	n/a
334.457	0.113	668914	keystroke	r	n/a
334.571	0.11	669142	keystroke	o	n/a
335.1825	0.1155	670365	keystroke	c	n/a
335.335	0.137	670670	keystroke	u	n/a
336.0925	0.068	672185	keystroke	Key.backspace	n/a
336.222	0.115	672444	keystroke	Key.backspace	n/a
336.3595	0.1135	672719	keystroke	d	n/a
336.5095	0.1145	673019	keystroke	u	n/a
336.599	0.094	673198	keystroke	c	n/a
336.818	0.0915	673636	keystroke	e	n/a
337.1285	0.138	674257	keystroke	s	n/a
337.319	0.136	674638	keystroke	Key.space	n/a
337.798	0.0665	675596	keystroke	Key.backspace	n/a
337.9385	0.092	675877	keystroke	Key.backspace	n/a
338.0315	0.09	676063	keystroke	d	n/a
338.1615	0.158	676323	keystroke	Key.space	n/a
338.949	0.137	677898	keystroke	e	n/a
339.2235	0.136	678447	keystroke	x	n/a
339.4845	0.1135	678969	keystroke	c	n/a
339.599	0.0685	679198	keystroke	l	n/a
339.759	0.0905	679518	keystroke	u	n/a
339.9095	0.069	679819	keystroke	s	n/a
340.0015	0.0935	680003	keystroke	i	n/a
340.1665	0.09	680333	keystroke	o	n/a
340.364	0.067	680728	keystroke	n	n/a
340.534	0.115	681068	keystroke	Key.space	n/a
340.984	0.137	681968	keystroke	c	n/a
341.1215	0.091	682243	keystroke	o	n/a
341.2875	0.09	682575	keystroke	n	n/a
341.3985	0.092	682797	keystroke	v	n/a
341.5535	0.111	683107	keystroke	e	n/a
342.35	0.1145	684700	keystroke	r	n/a
342.616	0.0915	685232	keystroke	g	n/a
342.77	0.091	685540	keystroke	e	n/a
342.837	0.0925	685674	keystroke	n	n/a
342.972	0.1365	685944	keystroke	c	n/a
343.085	0.046	686170	keystroke	e	n/a
343.5065	0.113	687013	keystroke	Key.enter	n/a
343.6255	17.8895	687251	prompt	n/a	photographers receives truly suspended\n
344.5595	0.1125	689119	keystroke	p	n/a
344.7675	0.0925	689535	keystroke	h	n/a
344.9095	0.1375	689819	keystroke	o	n/a
345.118	0.09	690236	keystroke	t	n/a
345.238	0.091	690476	keystroke	o	n/a
346.0035	0.0905	692007	keystroke	g	n/a
346.1915	0.093	692383	keystroke	r	n/a
346.2595	0.141	692519	keystroke	a	n/a
346.3755	0.07	692751	keystroke	n	n/a
346.5265	0.114	693053	keystroke	p	n/a
346.7365	0.1145	693473	keystroke	h	n/a
346.893	0.0665	693786	keystroke	e	n/a
347.0305	0.068	694061	keystroke	r	n/a
347.248	0.069	694496	keystroke	Key.backspace	n/a
347.3995	0.067	694799	keystroke	Key.backspace	n/a
347.5325	0.024	695065	keystroke	Key.backspace	n/a
347.6335	0.067	695267	keystroke	Key.backspace	n/a
347.7515	0.071	695503	keystroke	Key.backspace	n/a
348.2955	0.114	696591	keystroke	p	n/a
348.5305	0.1115	697061	keystroke	h	n/a
348.643	0.111	697286	keystroke	e	n/a
348.8125	0.068	697625	keystroke	r	n/a
349.008	0.068	698016	keystroke	s	n/a
349.133	0.135	698266	keystroke	Key.space	n/a
349.92	0.093	699840	keystroke	r	n/a
350.1605	0.091	700321	keystroke	c	n/a
350.227	0.1135	700454	keystroke	e	n/a
350.3415	0.113	700683	keystroke	i	n/a
350.4305	0.092	700861	keystroke	v	n/a
350.6035	0.089	701207	keystroke	e	n/a
350.789	0.112	701578	keystroke	s	n/a
350.925	0.1375	701850	keystroke	Key.space	n/a
351.412	0.0675	702824	keystroke	Key.backspace	n/a
351.552	0.068	703104	keystroke	Key.backspace	n/a
351.781	0.069	703562	keystroke	Key.backspace	n/a
351.9345	0.069	703869	keystroke	Key.backspace	n/a
352.0815	0.0465	704163	keystroke	Key.backspace	n/a
352.2235	0.0895	704447	keystroke	Key.backspace	n/a
352.443	0.1145	704886	keystroke	e	n/a
352.808	0.047	705616	keystroke	Key.backspace	n/a
352.9245	0.0925	705849	keystroke	Key.backspace	n/a
353.018	0.113	706036	keystroke	e	n/a
353.153	0.136	706306	keystroke	c	n/a
353.242	0.136	706484	keystroke	e	n/a
353.378	0.134	706756	keystroke	i	n/a
353.566	0.092	707132	keystroke	v	n/a
353.7795	0.1135	707559	keystroke	e	n/a
353.998	0.091	707996	keystroke	s	n/a
354.139	0.1355	708278	keystroke	Key.space	n/a
354.892	0.111	709784	keystroke	t	n/a
355.075	0.1165	710150	keystroke	r	n/a
355.2705	0.0915	710541	keystroke	y	n/a
355.6465	0.072	711293	keystroke	Key.backspace	n/a
356.3075	0.089	712615	keystroke	u	n/a
356.538	0.0915	713076	keystroke	l	n/a
356.6735	0.091	713347	keystroke	t	n/a
356.7865	0.136	713573	keystroke	Key.space	n/a
357.3795	0.067	714759	keystroke	Key.backspace	n/a
357.5055	0.113	715011	keystroke	Key.backspace	n/a
358.2455	0.089	716491	keystroke	y	n/a
358.409	0.115	716818	keystroke	Key.space	n/a
359.359	0.089	718718	keystroke	s	n/a
359.486	0.114	718972	keystroke	u	n/a
359.622	0.092	719244	keystroke	s	n/a
359.804	0.1125	719608	keystroke	p	n/a
359.9475	0.0695	719895	keystroke	e	n/a
360.0985	0.07	720197	keystroke	n	n/a
360.525	0.089	721050	keystroke	d	n/a
360.7805	0.0935	721561	keystroke	e	n/a
361.08	0.115	722160	keystroke	d	n/a
361.421	0.0925	722842	keystroke	Key.enter	n/a
361.5195	9.201	723039	prompt	n/a	facilitate bucks cheats courts\n
362.4525	0.114	724905	keystroke	f	n/a
362.5675	0.1335	725135	keystroke	a	n/a
362.7015	0.113	725403	keystroke	c	n/a
362.8145	0.069	725629	keystroke	i	n/a
362.966	0.206	725932	keystroke	l	n/a
363.144	0.0725	726288	keystroke	i	n/a
363.272	0.1355	726544	keystroke	t	n/a
363.383	0.091	726766	keystroke	i	n/a
363.4965	0.1375	726993	keystroke	a	n/a
363.565	0.091	727130	keystroke	t	n/a
363.74	0.1135	727480	keystroke	e	n/a
363.892	0.136	727784	keystroke	Key.space	n/a
364.61	0.067	729220	keystroke	Key.backspace	n/a
364.7615	0.071	729523	keystroke	Key.backspace	n/a
364.9115	0.068	729823	keystroke	Key.backspace	n/a
365.046	0.092	730092	keystroke	Key.backspace	n/a
365.199	0.068	730398	keystroke	Key.backspace	n/a
365.572	0.1865	731144	keystroke	a	n/a
365.687	0.0735	731374	keystroke	t	n/a
365.845	0.113	731690	keystroke	e	n/a
366.011	0.1345	732022	keystroke	Key.space	n/a
366.991	0.0915	733982	keystroke	b	n/a
367.132	0.094	734264	keystroke	u	n/a
367.262	0.09	734524	keystroke	c	n/a
367.4015	0.0915	734803	keystroke	k	n/a
367.581	0.067	735162	keystroke	s	n/a
367.681	0.093	735362	keystroke	Key.space	n/a
368.2945	0.093	736589	keystroke	c	n/a
368.438	0.135	736876	keystroke	h	n/a
368.5955	0.1405	737191	keystroke	e	n/a
368.711	0.139	737422	keystroke	a	n/a
368.8825	0.135	737765	keystroke	t	n/a
369.3805	0.114	738761	keystroke	s	n/a
369.5565	0.112	739113	keystroke	Key.space	n/a
369.784	0.0915	739568	keystroke	c	n/a
369.897	0.181	739794	keystroke	o	n/a
369.9665	0.114	739933	keystroke	u	n/a
370.101	0.114	740202	keystroke	r	n/a
370.2775	0.093	740555	keystroke	t	n/a
370.479	0.09	740958	keystroke	s	n/a
370.6275	0.0915	741255	keystroke	Key.enter	n/a
370.7275	9.662	741455	prompt	n/a	partnership driver bolt merchant\n
371.571	0.183	743142	keystroke	p	n/a
371.706	0.139	743412	keystroke	a	n/a
371.8205	0.1135	743641	keystroke	r	n/a
372.013	0.0675	744026	keystroke	t	n/a
372.228	0.134	744456	keystroke	n	n/a
372.3165	0.1365	744633	keystroke	e	n/a
372.968	0.093	745936	keystroke	r	n/a
373.206	0.09	746412	keystroke	s	n/a
373.318	0.114	746636	keystroke	h	n/a
373.408	0.113	746816	keystroke	i	n/a
374.095	0.1345	748190	keystroke	l	n/a
375.1195	0.092	750239	keystroke	Key.backspace	n/a
375.526	0.092	751052	keystroke	p	n/a
375.663	0.1365	751326	keystroke	Key.space	n/a
375.8215	0.0925	751643	keystroke	d	n/a
376.002	0.114	752004	keystroke	r	n/a
376.147	0.117	752294	keystroke	i	n/a
376.24	0.067	752480	keystroke	v	n/a
376.385	0.093	752770	keystroke	e	n/a
376.581	0.047	753162	keystroke	r	n/a
376.691	0.1345	753382	keystroke	Key.space	n/a
377.0365	0.0685	754073	keystroke	b	n/a
377.1945	0.114	754389	keystroke	o	n/a
377.447	0.113	754894	keystroke	l	n/a
377.604	0.1145	755208	keystroke	t	n/a
377.899	0.1165	755798	keystroke	Key.space	n/a
378.576	0.1385	757152	keystroke	m	n/a
378.6895	0.1135	757379	keystroke	e	n/a
378.865	0.068	757730	keystroke	r	n/a
379.077	0.1145	758154	keystroke	c	n/a
379.1695	0.113	758339	keystroke	h	n/a
379.2825	0.049	758565	keystroke	a	n/a
379.4995	0.092	758999	keystroke	n	n/a
379.6235	0.112	759247	keystroke	t	n/a
380.294	0.093	760588	keystroke	Key.enter	n/a
380.394	10.161	760788	prompt	n/a	tickets interior improved genius\n
381.1485	0.112	762297	keystroke	t	n/a
381.3675	0.0915	762735	keystroke	i	n/a
381.508	0.088	763016	keystroke	c	n/a
381.634	0.115	763268	keystroke	k	n/a
381.724	0.115	763448	keystroke	e	n/a
381.927	0.114	763854	keystroke	s	n/a
382.0935	0.113	764187	keystroke	t	n/a
382.287	0.139	764574	keystroke	Key.space	n/a
382.6095	0.0695	765219	keystroke	Key.backspace	n/a
382.7345	0.114	765469	keystroke	Key.backspace	n/a
382.8705	0.114	765741	keystroke	t	n/a
383.0825	0.113	766165	keystroke	s	n/a
383.3385	0.0695	766677	keystroke	Key.backspace	n/a
383.4785	0.0465	766957	keystroke	Key.backspace	n/a
383.578	0.1575	767156	keystroke	Key.backspace	n/a
383.7665	0.0905	767533	keystroke	t	n/a
384.099	0.138	768198	keystroke	Key.space	n/a
384.607	0.1145	769214	keystroke	i	n/a
384.813	0.1125	769626	keystroke	n	n/a
384.9475	0.092	769895	keystroke	t	n/a
385.2935	0.092	770587	keystroke	r	n/a
385.7585	0.092	771517	keystroke	Key.backspace	n/a
385.8985	0.117	771797	keystroke	e	n/a
386.0815	0.09	772163	keystroke	r	n/a
386.3745	0.117	772749	keystroke	i	n/a
386.648	0.136	773296	keystroke	o	n/a
386.824	0.0905	773648	keystroke	r	n/a
387.1825	0.114	774365	keystroke	Key.space	n/a
387.5535	0.114	775107	keystroke	i	n/a
387.7435	0.0685	775487	keystroke	m	n/a
387.9095	0.115	775819	keystroke	p	n/a
388.0255	0.0895	776051	keystroke	r	n/a
388.1615	0.115	776323	keystroke	o	n/a
388.208	0.114	776416	keystroke	v	n/a
388.418	0.0905	776836	keystroke	e	n/a
388.5985	0.092	777197	keystroke	d	n/a
388.7865	0.1125	777573	keystroke	Key.space	n/a
389.588	0.09	779176	keystroke	g	n/a
389.74	0.1355	779480	keystroke	e	n/a
389.852	0.07	779704	keystroke	n	n/a
390.0035	0.07	780007	keystroke	i	n/a
390.1705	0.0695	780341	keystroke	u	n/a
390.294	0.066	780588	keystroke	s	n/a
390.484	0.069	780968	keystroke	Key.enter	n/a
390.559	11.306	781118	prompt	n/a	strengthening snapshot lodge preservation\n
391.3895	0.113	782779	keystroke	s	n/a
391.575	0.092	783150	keystroke	t	n/a
391.744	0.112	783488	keystroke	r	n/a
391.993	0.138	783986	keystroke	e	n/a
392.153	0.112	784306	keystroke	n	n/a
392.6095	0.112	785219	keystroke	g	n/a
392.889	0.1145	785778	keystroke	t	n/a
393.0535	0.091	786107	keystroke	h	n/a
393.2065	0.1355	786413	keystroke	e	n/a
393.3645	0.09	786729	keystroke	n	n/a
393.691	0.0675	787382	keystroke	i	n/a
393.854	0.069	787708	keystroke	n	n/a
393.9545	0.0675	787909	keystroke	g	n/a
394.168	0.113	788336	keystroke	Key.space	n/a
394.946	0.0915	789892	keystroke	s	n/a
395.0685	0.092	790137	keystroke	n	n/a
395.201	0.117	790402	keystroke	a	n/a
395.2935	0.115	790587	keystroke	p	n/a
396.336	0.1135	792672	keystroke	s	n/a
396.426	0.091	792852	keystroke	h	n/a
396.539	0.135	793078	keystroke	o	n/a
396.74	0.135	793480	keystroke	t	n/a
396.959	0.14	793918	keystroke	Key.space	n/a
397.7075	0.0925	795415	keystroke	l	n/a
397.8715	0.116	795743	keystroke	o	n/a
397.988	0.089	795976	keystroke	d	n/a
398.302	0.113	796604	keystroke	g	n/a
398.469	0.114	796938	keystroke	e	n/a
399.702	0.11	799404	keystroke	p	n/a
399.835	0.112	799670	keystroke	r	n/a
400.01	0.092	800020	keystroke	e	n/a
400.185	0.1385	800370	keystroke	s	n/a
400.231	0.138	800462	keystroke	e	n/a
400.4715	0.092	800943	keystroke	r	n/a
400.824	0.1115	801648	keystroke	v	n/a
400.9575	0.181	801915	keystroke	a	n/a
401.1155	0.091	802231	keystroke	t	n/a
401.1395	0.089	802279	keystroke	i	n/a
401.304	0.1135	802608	keystroke	o	n/a
401.4715	0.094	802943	keystroke	n	n/a
401.7695	0.093	803539	keystroke	Key.enter	n/a
401.869	9.9735	803738	prompt	n/a	usps walks charity wayne\n
402.9895	0.09	805979	keystroke	u	n/a
403.1865	0.069	806373	keystroke	s	n/a
403.2775	0.092	806555	keystroke	p	n/a
403.4	0.0675	806800	keystroke	s	n/a
403.6225	0.138	807245	keystroke	Key.space	n/a
404.204	0.1365	808408	keystroke	w	n/a
404.317	0.16	808634	keystroke	a	n/a
404.6085	0.0905	809217	keystroke	k	n/a
404.7355	0.092	809471	keystroke	s	n/a
404.8505	0.1355	809701	keystroke	Key.space	n/a
405.4985	0.068	810997	keystroke	Key.backspace	n/a
405.6655	0.092	811331	keystroke	Key.backspace	n/a
405.8195	0.1135	811639	keystroke	Key.backspace	n/a
406.184	0.093	812368	keystroke	l	n/a
406.3925	0.1135	812785	keystroke	s	n/a
406.527	0.0915	813054	keystroke	k	n/a
406.9315	0.068	813863	keystroke	Key.backspace	n/a
407.0715	0.0915	814143	keystroke	Key.backspace	n/a
407.3025	0.0925	814605	keystroke	k	n/a
407.447	0.0915	814894	keystroke	s	n/a
407.582	0.115	815164	keystroke	Key.space	n/a
408.2455	0.112	816491	keystroke	c	n/a
408.4645	0.135	816929	keystroke	h	n/a
408.6215	0.113	817243	keystroke	a	n/a
409.6025	0.138	819205	keystroke	r	n/a
409.7615	0.067	819523	keystroke	i	n/a
409.9095	0.1355	819819	keystroke	t	n/a
410.0675	0.1135	820135	keystroke	y	n/a
410.181	0.1345	820362	keystroke	Key.space	n/a
410.811	0.114	821622	keystroke	w	n/a
410.926	0.179	821852	keystroke	a	n/a
411.165	0.0915	822330	keystroke	y	n/a
411.391	0.068	822782	keystroke	n	n/a
411.482	0.092	822964	keystroke	e	n/a
411.726	0.1145	823452	keystroke	Key.enter	n/a
411.848	10.6355	823696	prompt	n/a	cafe graduate regardless mineral\n
412.6015	0.136	825203	keystroke	c	n/a
412.6915	0.16	825383	keystroke	a	n/a
413.0395	0.09	826079	keystroke	f	n/a
413.2315	0.1345	826463	keystroke	e	n/a
413.367	0.133	826734	keystroke	Key.space	n/a
413.501	0.089	827002	keystroke	f	n/a
413.687	0.117	827374	keystroke	r	n/a
413.8045	0.1545	827609	keystroke	a	n/a
413.9915	0.113	827983	keystroke	d	n/a
414.1055	0.1365	828211	keystroke	u	n/a
414.194	0.1595	828388	keystroke	a	n/a
414.308	0.0925	828616	keystroke	t	n/a
414.498	0.0905	828996	keystroke	e	n/a
414.6215	0.1165	829243	keystroke	Key.space	n/a
415.681	0.068	831362	keystroke	Key.backspace	n/a
416.308	0.0915	832616	keystroke	g	n/a
416.485	0.0895	832970	keystroke	r	n/a
416.575	0.1575	833150	keystroke	a	n/a
416.7095	0.114	833419	keystroke	d	n/a
416.853	0.135	833706	keystroke	u	n/a
416.9415	0.16	833883	keystroke	a	n/a
417.0775	0.0465	834155	keystroke	t	n/a
417.2225	0.1125	834445	keystroke	e	n/a
417.3755	0.114	834751	keystroke	Key.space	n/a
418	0.1135	836000	keystroke	r	n/a
418.186	0.094	836372	keystroke	e	n/a
418.4245	0.092	836849	keystroke	f	n/a
418.47	0.1145	836940	keystroke	a	n/a
418.54	0.1125	837080	keystroke	r	n/a
419.2095	0.067	838419	keystroke	Key.backspace	n/a
419.3745	0.046	838749	keystroke	Key.backspace	n/a
419.4995	0.114	838999	keystroke	Key.backspace	n/a
419.5895	0.115	839179	keystroke	g	n/a
419.6575	0.182	839315	keystroke	a	n/a
419.7495	0.113	839499	keystroke	r	n/a
419.9465	0.093	839893	keystroke	d	n/a
420.2615	0.112	840523	keystroke	l	n/a
420.4575	0.0915	840915	keystroke	e	n/a
420.6465	0.069	841293	keystroke	s	n/a
420.802	0.0905	841604	keystroke	s	n/a
420.8935	0.157	841787	keystroke	Key.space	n/a
420.9825	0.1125	841965	keystroke	m	n/a
421.0955	0.134	842191	keystroke	i	n/a
421.272	0.069	842544	keystroke	n	n/a
421.621	0.09	843242	keystroke	e	n/a
421.793	0.1145	843586	keystroke	r	n/a
421.944	0.1125	843888	keystroke	a	n/a
422.096	0.114	844192	keystroke	l	n/a
422.4355	0.0465	844871	keystroke	Key.enter	n/a
422.488	17.974	844976	prompt	n/a	association candidates flush twins\n
423.1925	0.114	846385	keystroke	a	n/a
423.419	0.0455	846838	keystroke	s	n/a
423.659	0.1185	847318	keystroke	o	n/a
423.778	0.109	847556	keystroke	c	n/a
423.8645	0.115	847729	keystroke	a	n/a
424.2405	0.071	848481	keystroke	Key.backspace	n/a
424.3965	0.092	848793	keystroke	Key.backspace	n/a
424.5675	0.0935	849135	keystroke	Key.backspace	n/a
425.2635	0.112	850527	keystroke	s	n/a
425.3985	0.09	850797	keystroke	o	n/a
425.4895	0.1105	850979	keystroke	c	n/a
425.555	0.2255	851110	keystroke	a	n/a
425.757	0.115	851514	keystroke	t	n/a
425.8465	0.071	851693	keystroke	i	n/a
425.979	0.1145	851958	keystroke	o	n/a
426.171	0.0685	852342	keystroke	n	n/a
426.338	0.1155	852676	keystroke	Key.space	n/a
427.067	0.112	854134	keystroke	Key.backspace	n/a
427.2725	0.089	854545	keystroke	Key.backspace	n/a
427.4245	0.091	854849	keystroke	Key.backspace	n/a
427.577	0.114	855154	keystroke	Key.backspace	n/a
427.713	0.115	855426	keystroke	Key.backspace	n/a
427.948	0.091	855896	keystroke	Key.backspace	n/a
429.2715	0.09	858543	keystroke	i	n/a
429.3825	0.1815	858765	keystroke	a	n/a
429.5645	0.1115	859129	keystroke	t	n/a
430.373	0.1115	860746	keystroke	t	n/a
430.874	0.091	861748	keystroke	Key.backspace	n/a
431.1495	0.092	862299	keystroke	o	n/a
431.3125	0.0695	862625	keystroke	p	n/a
431.869	0.0705	863738	keystroke	Key.backspace	n/a
432.01	0.068	864020	keystroke	Key.backspace	n/a
432.223	0.0905	864446	keystroke	i	n/a
432.375	0.157	864750	keystroke	o	n/a
432.533	0.1125	865066	keystroke	n	n/a
432.698	0.1135	865396	keystroke	Key.space	n/a
433.5175	0.159	867035	keystroke	c	n/a
433.6065	0.139	867213	keystroke	a	n/a
433.6985	0.114	867397	keystroke	n	n/a
433.8445	0.089	867689	keystroke	d	n/a
433.965	0.136	867930	keystroke	i	n/a
434.055	0.1595	868110	keystroke	a	n/a
434.168	0.092	868336	keystroke	t	n/a
434.322	0.1365	868644	keystroke	e	n/a
434.892	0.0685	869784	keystroke	Key.backspace	n/a
435.0095	0.096	870019	keystroke	Key.backspace	n/a
436.2215	0.092	872443	keystroke	Key.backspace	n/a
436.336	0.0925	872672	keystroke	d	n/a
436.429	0.1555	872858	keystroke	a	n/a
436.539	0.091	873078	keystroke	t	n/a
436.695	0.133	873390	keystroke	e	n/a
436.907	0.115	873814	keystroke	s	n/a
437.052	0.093	874104	keystroke	Key.space	n/a
437.8825	0.116	875765	keystroke	f	n/a
438.0435	0.1115	876087	keystroke	l	n/a
438.222	0.0685	876444	keystroke	u	n/a
438.321	0.1155	876642	keystroke	s	n/a
438.4125	0.137	876825	keystroke	h	n/a
438.5505	0.134	877101	keystroke	Key.space	n/a
438.7585	0.112	877517	keystroke	t	n/a
438.9745	0.0925	877949	keystroke	w	n/a
439.0885	0.068	878177	keystroke	i	n/a
439.3725	0.091	878745	keystroke	s	n/a
439.823	0.091	879646	keystroke	Key.backspace	n/a
440.085	0.069	880170	keystroke	n	n/a
440.204	0.115	880408	keystroke	s	n/a
440.348	0.112	880696	keystroke	Key.enter	n/a
440.4665	7	880933	prompt	n/a	temple windows bent lets\n
441.4135	0.113	882827	keystroke	e	n/a
441.83	0.0685	883660	keystroke	Key.backspace	n/a
441.9955	0.067	883991	keystroke	Key.backspace	n/a
442.3715	0.093	884743	keystroke	t	n/a
442.5495	0.1145	885099	keystroke	e	n/a
442.618	0.0915	885236	keystroke	m	n/a
442.7685	0.0905	885537	keystroke	p	n/a
442.949	0.093	885898	keystroke	l	n/a
443.042	0.091	886084	keystroke	e	n/a
443.177	0.159	886354	keystroke	Key.space	n/a
443.88	0.0915	887760	keystroke	w	n/a
443.972	0.0685	887944	keystroke	i	n/a
444.108	0.0915	888216	keystroke	n	n/a
444.239	0.09	888478	keystroke	d	n/a
444.3295	0.09	888659	keystroke	o	n/a
444.469	0.1115	888938	keystroke	w	n/a
445.1395	0.0895	890279	keystroke	s	n/a
445.2825	0.114	890565	keystroke	Key.space	n/a
445.51	0.1145	891020	keystroke	b	n/a
445.6015	0.1355	891203	keystroke	e	n/a
445.835	0.0915	891670	keystroke	n	n/a
446.19	0.0915	892380	keystroke	t	n/a
446.4305	0.092	892861	keystroke	Key.space	n/a
446.5745	0.1595	893149	keystroke	l	n/a
446.709	0.1155	893418	keystroke	e	n/a
446.9565	0.114	893913	keystroke	t	n/a
447.1685	0.112	894337	keystroke	s	n/a
447.3715	0.093	894743	keystroke	Key.enter	n/a
447.4705	13.893	894941	prompt	n/a	latest vermont tiles moderate\n
448.2435	0.092	896487	keystroke	;	n/a
448.3355	0.182	896671	keystroke	a	n/a
448.5185	0.068	897037	keystroke	t	n/a
448.657	0.112	897314	keystroke	e	n/a
448.8445	0.1135	897689	keystroke	s	n/a
448.98	0.093	897960	keystroke	t	n/a
449.2135	0.1355	898427	keystroke	Key.space	n/a
449.861	0.066	899722	keystroke	Key.backspace	n/a
450.012	0.07	900024	keystroke	Key.backspace	n/a
450.155	0.069	900310	keystroke	Key.backspace	n/a
450.286	0.068	900572	keystroke	Key.backspace	n/a
450.43	0.067	900860	keystroke	Key.backspace	n/a
450.555	0.047	901110	keystroke	Key.backspace	n/a
450.686	0.0695	901372	keystroke	Key.backspace	n/a
450.8405	0.092	901681	keystroke	Key.backspace	n/a
451.1575	0.1125	902315	keystroke	a	n/a
451.535	0.0685	903070	keystroke	Key.backspace	n/a
451.6525	0.091	903305	keystroke	Key.backspace	n/a
451.8945	0.1125	903789	keystroke	l	n/a
451.962	0.1845	903924	keystroke	a	n/a
452.051	0.094	904102	keystroke	t	n/a
452.232	0.115	904464	keystroke	e	n/a
452.612	0.0915	905224	keystroke	s	n/a
452.798	0.116	905596	keystroke	t	n/a
452.993	0.113	905986	keystroke	Key.space	n/a
453.441	0.095	906882	keystroke	v	n/a
453.6235	0.0895	907247	keystroke	e	n/a
453.7905	0.0925	907581	keystroke	r	n/a
453.905	0.088	907810	keystroke	m	n/a
454.041	0.092	908082	keystroke	o	n/a
454.193	0.094	908386	keystroke	n	n/a
454.241	0.114	908482	keystroke	e	n/a
454.792	0.069	909584	keystroke	Key.backspace	n/a
454.935	0.115	909870	keystroke	t	n/a
455.051	0.1345	910102	keystroke	Key.space	n/a
455.6685	0.09	911337	keystroke	t	n/a
455.8015	0.1125	911603	keystroke	i	n/a
456.8195	0.1165	913639	keystroke	l	n/a
456.937	0.09	913874	keystroke	e	n/a
457.128	0.068	914256	keystroke	s	n/a
457.246	0.116	914492	keystroke	Key.space	n/a
457.7575	0.1155	915515	keystroke	m	n/a
457.9415	0.1135	915883	keystroke	o	n/a
458.031	0.069	916062	keystroke	d	n/a
458.207	0.113	916414	keystroke	e	n/a
458.397	0.093	916794	keystroke	r	n/a
458.4425	0.1385	916885	keystroke	a	n/a
458.533	0.024	917066	keystroke	q	n/a
458.604	0.068	917208	keystroke	t	n/a
458.8315	0.1135	917663	keystroke	e	n/a
459.223	0.0905	918446	keystroke	Key.backspace	n/a
459.386	0.1575	918772	keystroke	Key.backspace	n/a
459.6335	0.09	919267	keystroke	Key.backspace	n/a
460.2475	0.0905	920495	keystroke	e	n/a
460.859	0.114	921718	keystroke	Key.backspace	n/a
461.008	0.0685	922016	keystroke	t	n/a
461.2025	0.068	922405	keystroke	e	n/a
461.2715	0.09	922543	keystroke	Key.enter	n/a
461.368	13.3035	922736	prompt	n/a	wins crystal divided horizon\n
462.265	0.111	924530	keystroke	w	n/a
462.399	0.068	924798	keystroke	o	n/a
462.5595	0.0905	925119	keystroke	n	n/a
462.9195	0.0675	925839	keystroke	Key.backspace	n/a
463.072	0.068	926144	keystroke	Key.backspace	n/a
463.366	0.0915	926732	keystroke	i	n/a
463.5245	0.069	927049	keystroke	n	n/a
463.6505	0.115	927301	keystroke	d	n/a
463.7665	0.135	927533	keystroke	s	n/a
464.271	0.0695	928542	keystroke	Key.backspace	n/a
464.3995	0.1115	928799	keystroke	Key.backspace	n/a
464.6325	0.0685	929265	keystroke	s	n/a
464.791	0.1365	929582	keystroke	Key.space	n/a
464.974	0.113	929948	keystroke	c	n/a
465.174	0.0905	930348	keystroke	r	n/a
465.8365	0.1375	931673	keystroke	y	n/a
465.95	0.091	931900	keystroke	s	n/a
466.1355	0.115	932271	keystroke	t	n/a
466.2515	0.134	932503	keystroke	a	n/a
466.4385	0.112	932877	keystroke	l	n/a
466.6135	0.1615	933227	keystroke	Key.space	n/a
467.2845	0.112	934569	keystroke	d	n/a
467.419	0.114	934838	keystroke	i	n/a
467.5665	0.138	935133	keystroke	v	n/a
468.8985	0.1345	937797	keystroke	d	n/a
469.082	0.1105	938164	keystroke	i	n/a
469.6625	0.048	939325	keystroke	Key.backspace	n/a
469.776	0.0915	939552	keystroke	Key.backspace	n/a
469.9975	0.1135	939995	keystroke	i	n/a
470.112	0.089	940224	keystroke	d	n/a
470.844	0.068	941688	keystroke	Key.backspace	n/a
471.4185	0.09	942837	keystroke	d	n/a
471.6555	0.091	943311	keystroke	e	n/a
471.8465	0.0905	943693	keystroke	d	n/a
471.959	0.1145	943918	keystroke	Key.space	n/a
472.9485	0.1385	945897	keystroke	h	n/a
473.0875	0.092	946175	keystroke	o	n/a
473.1555	0.093	946311	keystroke	r	n/a
473.303	0.112	946606	keystroke	i	n/a
473.528	0.047	947056	keystroke	s	n/a
473.948	0.089	947896	keystroke	Key.backspace	n/a
474.0915	0.1155	948183	keystroke	z	n/a
474.208	0.067	948416	keystroke	o	n/a
474.362	0.07	948724	keystroke	n	n/a
474.58	0.09	949160	keystroke	Key.enter	n/a
474.675	18.769	949350	prompt	n/a	winning invention worthy reflections\n
475.419	0.0935	950838	keystroke	w	n/a
475.5335	0.046	951067	keystroke	i	n/a
475.6825	0.069	951365	keystroke	n	n/a
475.8075	0.069	951615	keystroke	n	n/a
475.9675	0.068	951935	keystroke	i	n/a
476.1395	0.092	952279	keystroke	n	n/a
476.1835	0.095	952367	keystroke	g	n/a
476.3005	0.1135	952601	keystroke	Key.space	n/a
476.6665	0.067	953333	keystroke	i	n/a
476.8205	0.114	953641	keystroke	n	n/a
476.8885	0.0925	953777	keystroke	t	n/a
477.721	0.091	955442	keystroke	Key.backspace	n/a
477.8135	0.09	955627	keystroke	v	n/a
477.932	0.1155	955864	keystroke	e	n/a
478.0705	0.0675	956141	keystroke	n	n/a
478.1785	0.1375	956357	keystroke	t	n/a
478.292	0.069	956584	keystroke	i	n/a
478.423	0.1135	956846	keystroke	o	n/a
478.624	0.068	957248	keystroke	n	n/a
478.813	0.112	957626	keystroke	Key.space	n/a
479.306	0.091	958612	keystroke	r	n/a
479.462	0.113	958924	keystroke	o	n/a
479.552	0.068	959104	keystroke	w	n/a
479.708	0.113	959416	keystroke	r	n/a
479.731	0.113	959462	keystroke	k	n/a
480.2335	0.068	960467	keystroke	Key.backspace	n/a
480.3715	0.0915	960743	keystroke	Key.backspace	n/a
480.5125	0.091	961025	keystroke	Key.backspace	n/a
480.6725	0.112	961345	keystroke	Key.backspace	n/a
481.0835	0.069	962167	keystroke	Key.backspace	n/a
481.4325	0.093	962865	keystroke	w	n/a
481.5265	0.0675	963053	keystroke	o	n/a
481.6625	0.113	963325	keystroke	r	n/a
481.8085	0.046	963617	keystroke	k	n/a
481.9615	0.1125	963923	keystroke	t	n/a
482.3445	0.069	964689	keystroke	Key.backspace	n/a
482.4905	0.088	964981	keystroke	Key.backspace	n/a
482.9235	0.0685	965847	keystroke	r	n/a
482.993	0.09	965986	keystroke	h	n/a
483.274	0.073	966548	keystroke	y	n/a
484.0065	0.07	968013	keystroke	Key.backspace	n/a
484.1705	0.045	968341	keystroke	Key.backspace	n/a
484.3135	0.094	968627	keystroke	Key.backspace	n/a
484.4755	0.113	968951	keystroke	t	n/a
485.1315	0.0905	970263	keystroke	h	n/a
485.332	0.091	970664	keystroke	y	n/a
485.4905	0.116	970981	keystroke	Key.space	n/a
485.8455	0.092	971691	keystroke	r	n/a
486.0325	0.092	972065	keystroke	e	n/a
486.214	0.0685	972428	keystroke	f	n/a
486.3035	0.121	972607	keystroke	e	n/a
486.3515	0.05	972703	keystroke	l	n/a
486.545	0.1345	973090	keystroke	c	n/a
486.7715	0.133	973543	keystroke	t	n/a
486.9055	0.089	973811	keystroke	i	n/a
487.0585	0.07	974117	keystroke	o	n/a
487.2215	0.091	974443	keystroke	n	n/a
487.3795	0.047	974759	keystroke	s	n/a
487.496	0.067	974992	keystroke	Key.backspace	n/a
487.632	0.07	975264	keystroke	Key.backspace	n/a
487.767	0.068	975534	keystroke	Key.backspace	n/a
487.913	0.067	975826	keystroke	Key.backspace	n/a
488.056	0.091	976112	keystroke	Key.backspace	n/a
488.203	0.092	976406	keystroke	Key.backspace	n/a
488.385	0.112	976770	keystroke	Key.backspace	n/a
489.032	0.023	978064	keystroke	Key.backspace	n/a
489.26	0.091	978520	keystroke	l	n/a
489.6215	0.09	979243	keystroke	Key.backspace	n/a
490.399	0.0925	980798	keystroke	l	n/a
490.513	0.0895	981026	keystroke	e	n/a
490.721	0.138	981442	keystroke	c	n/a
491.66	0.113	983320	keystroke	t	n/a
491.966	0.1625	983932	keystroke	o	n/a
492.514	0.069	985028	keystroke	Key.backspace	n/a
492.7745	0.0895	985549	keystroke	i	n/a
492.94	0.137	985880	keystroke	o	n/a
493.0535	0.0895	986107	keystroke	n	n/a
493.195	0.1145	986390	keystroke	s	n/a
493.3495	0.092	986699	keystroke	Key.enter	n/a
493.4515	7.075	986903	prompt	n/a	terminal busy practical carmen\n
494.286	0.115	988572	keystroke	t	n/a
494.483	0.1125	988966	keystroke	e	n/a
494.664	0.113	989328	keystroke	r	n/a
494.798	0.091	989596	keystroke	m	n/a
494.943	0.1135	989886	keystroke	i	n/a
495.0785	0.0915	990157	keystroke	n	n/a
495.171	0.113	990342	keystroke	a	n/a
495.285	0.11	990570	keystroke	l	n/a
495.426	0.1345	990852	keystroke	Key.space	n/a
496.087	0.091	992174	keystroke	b	n/a
496.179	0.1345	992358	keystroke	u	n/a
496.314	0.0915	992628	keystroke	s	n/a
496.5365	0.1345	993073	keystroke	y	n/a
496.693	0.136	993386	keystroke	Key.space	n/a
496.905	0.1615	993810	keystroke	p	n/a
497.0415	0.115	994083	keystroke	r	n/a
497.239	0.138	994478	keystroke	a	n/a
497.4175	0.1145	994835	keystroke	c	n/a
497.7325	0.134	995465	keystroke	t	n/a
497.8675	0.135	995735	keystroke	i	n/a
498.1245	0.114	996249	keystroke	c	n/a
498.2615	0.0925	996523	keystroke	a	n/a
498.384	0.0685	996768	keystroke	l	n/a
498.493	0.09	996986	keystroke	Key.space	n/a
499.471	0.137	998942	keystroke	c	n/a
499.5625	0.1615	999125	keystroke	a	n/a
499.7	0.0905	999400	keystroke	r	n/a
499.9425	0.0905	999885	keystroke	m	n/a
500.1	0.115	1000200	keystroke	e	n/a
500.216	0.066	1000432	keystroke	n	n/a
500.456	0.0685	1000912	keystroke	Key.enter	n/a
500.531	20.96	1001062	prompt	n/a	expiration techniques epinions setting\n
501.6335	0.092	1003267	keystroke	e	n/a
501.9365	0.1585	1003873	keystroke	x	n/a
502.162	0.16	1004324	keystroke	p	n/a
502.6835	0.1385	1005367	keystroke	i	n/a
502.9085	0.1585	1005817	keystroke	r	n/a
503.445	0.1815	1006890	keystroke	a	n/a
503.6025	0.1365	1007205	keystroke	t	n/a
503.8955	0.113	1007791	keystroke	o	n/a
504.3445	0.09	1008689	keystroke	Key.backspace	n/a
504.622	0.0915	1009244	keystroke	i	n/a
504.7935	0.1155	1009587	keystroke	o	n/a
504.968	0.0695	1009936	keystroke	n	n/a
505.294	0.1375	1010588	keystroke	Key.space	n/a
505.92	0.113	1011840	keystroke	t	n/a
506.11	0.112	1012220	keystroke	e	n/a
506.2665	0.091	1012533	keystroke	h	n/a
506.3795	0.0695	1012759	keystroke	c	n/a
506.4835	0.0905	1012967	keystroke	n	n/a
506.611	0.137	1013222	keystroke	i	n/a
507.562	0.114	1015124	keystroke	u	n/a
508.2165	0.113	1016433	keystroke	Key.backspace	n/a
509.035	0.135	1018070	keystroke	q	n/a
509.1935	0.139	1018387	keystroke	u	n/a
509.307	0.0925	1018614	keystroke	e	n/a
509.5005	0.1135	1019001	keystroke	s	n/a
509.636	0.115	1019272	keystroke	Key.space	n/a
511.565	0.069	1023130	keystroke	Key.backspace	n/a
511.705	0.069	1023410	keystroke	Key.backspace	n/a
511.841	0.0685	1023682	keystroke	Key.backspace	n/a
511.9705	0.096	1023941	keystroke	Key.backspace	n/a
512.122	0.0905	1024244	keystroke	Key.backspace	n/a
512.2605	0.088	1024521	keystroke	Key.backspace	n/a
512.3705	0.091	1024741	keystroke	Key.backspace	n/a
512.5275	0.069	1025055	keystroke	Key.backspace	n/a
512.6715	0.0925	1025343	keystroke	Key.backspace	n/a
513.0345	0.136	1026069	keystroke	c	n/a
513.2915	0.09	1026583	keystroke	h	n/a
513.488	0.1175	1026976	keystroke	n	n/a
513.6065	0.111	1027213	keystroke	i	n/a
513.796	0.134	1027592	keystroke	a	n/a
514.3135	0.113	1028627	keystroke	Key.backspace	n/a
514.9765	0.1145	1029953	keystroke	q	n/a
515.092	0.113	1030184	keystroke	u	n/a
515.206	0.088	1030412	keystroke	e	n/a
515.3875	0.092	1030775	keystroke	s	n/a
515.515	0.136	1031030	keystroke	Key.space	n/a
516.602	0.1355	1033204	keystroke	e	n/a
516.938	0.0905	1033876	keystroke	p	n/a
517.4405	0.091	1034881	keystroke	i	n/a
517.681	0.091	1035362	keystroke	n	n/a
517.866	0.092	1035732	keystroke	i	n/a
518.0245	0.0905	1036049	keystroke	o	n/a
518.194	0.092	1036388	keystroke	n	n/a
518.3535	0.1125	1036707	keystroke	s	n/a
518.5075	0.112	1037015	keystroke	Key.space	n/a
520.329	0.1155	1040658	keystroke	s	n/a
520.475	0.1375	1040950	keystroke	e	n/a
520.747	0.112	1041494	keystroke	t	n/a
520.93	0.135	1041860	keystroke	t	n/a
521.066	0.0655	1042132	keystroke	i	n/a
521.218	0.0695	1042436	keystroke	n	n/a
521.3305	0.0685	1042661	keystroke	g	n/a
521.444	0.045	1042888	keystroke	Key.enter	n/a
521.496	14.396	1042992	prompt	n/a	printable australia handy palestine\n
522.4995	0.1375	1044999	keystroke	p	n/a
522.681	0.116	1045362	keystroke	r	n/a
522.773	0.092	1045546	keystroke	i	n/a
522.953	0.068	1045906	keystroke	n	n/a
523.0435	0.091	1046087	keystroke	t	n/a
523.5595	0.0915	1047119	keystroke	a	n/a
523.651	0.067	1047302	keystroke	b	n/a
523.8115	0.0905	1047623	keystroke	l	n/a
523.9255	0.0905	1047851	keystroke	e	n/a
524.051	0.111	1048102	keystroke	Key.space	n/a
524.727	0.161	1049454	keystroke	a	n/a
524.9695	0.114	1049939	keystroke	u	n/a
525.0845	0.065	1050169	keystroke	s	n/a
525.2505	0.0905	1050501	keystroke	t	n/a
525.4395	0.114	1050879	keystroke	r	n/a
525.554	0.135	1051108	keystroke	a	n/a
525.6895	0.0915	1051379	keystroke	t	n/a
525.8105	0.113	1051621	keystroke	l	n/a
526.037	0.114	1052074	keystroke	i	n/a
526.8625	0.046	1053725	keystroke	Key.backspace	n/a
526.996	0.072	1053992	keystroke	Key.backspace	n/a
527.089	0.138	1054178	keystroke	Key.backspace	n/a
528.205	0.0895	1056410	keystroke	l	n/a
528.4005	0.089	1056801	keystroke	i	n/a
528.554	0.114	1057108	keystroke	a	n/a
528.689	0.1155	1057378	keystroke	Key.space	n/a
529.585	0.1135	1059170	keystroke	h	n/a
529.6995	0.0945	1059399	keystroke	a	n/a
529.795	0.0925	1059590	keystroke	n	n/a
529.8885	0.1125	1059777	keystroke	d	n/a
530.1235	0.1585	1060247	keystroke	y	n/a
530.3035	0.135	1060607	keystroke	Key.space	n/a
531.0765	0.114	1062153	keystroke	p	n/a
531.221	0.113	1062442	keystroke	a	n/a
531.311	0.137	1062622	keystroke	l	n/a
531.423	0.115	1062846	keystroke	e	n/a
531.59	0.1135	1063180	keystroke	t	n/a
531.824	0.0705	1063648	keystroke	s	n/a
531.9495	0.09	1063899	keystroke	i	n/a
532.1385	0.069	1064277	keystroke	n	n/a
532.626	0.0685	1065252	keystroke	Key.backspace	n/a
532.7975	0.069	1065595	keystroke	Key.backspace	n/a
532.9375	0.067	1065875	keystroke	Key.backspace	n/a
533.062	0.09	1066124	keystroke	Key.backspace	n/a
533.222	0.179	1066444	keystroke	s	n/a
533.8985	0.0915	1067797	keystroke	t	n/a
534.012	0.0685	1068024	keystroke	i	n/a
534.3015	0.1345	1068603	keystroke	e	n/a
534.7875	0.0915	1069575	keystroke	Key.backspace	n/a
535.535	0.0935	1071070	keystroke	n	n/a
535.6615	0.1385	1071323	keystroke	e	n/a
535.8005	0.09	1071601	keystroke	Key.enter	n/a
535.8965	9.476	1071793	prompt	n/a	silk explicit couldn't arrested\n
536.7465	0.089	1073493	keystroke	s	n/a
537.0105	0.07	1074021	keystroke	i	n/a
537.1755	0.069	1074351	keystroke	l	n/a
537.3415	0.092	1074683	keystroke	k	n/a
537.4925	0.0915	1074985	keystroke	Key.space	n/a
537.6335	0.0925	1075267	keystroke	e	n/a
537.9195	0.136	1075839	keystroke	x	n/a
538.6705	0.091	1077341	keystroke	p	n/a
538.8435	0.091	1077687	keystroke	l	n/a
539.0215	0.07	1078043	keystroke	i	n/a
539.1125	0.0915	1078225	keystroke	c	n/a
539.2045	0.1115	1078409	keystroke	i	n/a
539.415	0.11	1078830	keystroke	t	n/a
539.563	0.133	1079126	keystroke	Key.space	n/a
540.2795	0.134	1080559	keystroke	c	n/a
540.4365	0.1825	1080873	keystroke	o	n/a
540.5045	0.116	1081009	keystroke	u	n/a
540.7645	0.0675	1081529	keystroke	n	n/a
541.2835	0.0905	1082567	keystroke	Key.backspace	n/a
541.5295	0.091	1083059	keystroke	l	n/a
541.621	0.09	1083242	keystroke	d	n/a
542.246	0.092	1084492	keystroke	n	n/a
542.998	0.1125	1085996	keystroke	'	n/a
543.1485	0.1135	1086297	keystroke	t	n/a
543.297	0.156	1086594	keystroke	Key.space	n/a
543.6155	0.1365	1087231	keystroke	a	n/a
543.7945	0.09	1087589	keystroke	r	n/a
543.943	0.09	1087886	keystroke	r	n/a
544.422	0.091	1088844	keystroke	e	n/a
544.595	0.134	1089190	keystroke	s	n/a
544.7515	0.112	1089503	keystroke	t	n/a
544.9265	0.1155	1089853	keystroke	e	n/a
545.1215	0.092	1090243	keystroke	d	n/a
545.3035	0.068	1090607	keystroke	Key.enter	n/a
545.376	9.358	1090752	prompt	n/a	habitat action combines develops\n
546.37	0.114	1092740	keystroke	h	n/a
546.485	0.09	1092970	keystroke	a	n/a
546.576	0.089	1093152	keystroke	b	n/a
546.666	0.1555	1093332	keystroke	i	n/a
546.892	0.115	1093784	keystroke	t	n/a
547.076	0.091	1094152	keystroke	a	n/a
547.7435	0.1125	1095487	keystroke	t	n/a
548	0.136	1096000	keystroke	Key.space	n/a
548.25	0.136	1096500	keystroke	a	n/a
548.426	0.0895	1096852	keystroke	c	n/a
548.638	0.1135	1097276	keystroke	t	n/a
548.729	0.0675	1097458	keystroke	i	n/a
548.987	0.023	1097974	keystroke	o	n/a
549.827	0.1115	1099654	keystroke	n	n/a
550.046	0.137	1100092	keystroke	Key.space	n/a
550.881	0.1375	1101762	keystroke	c	n/a
551.2245	0.114	1102449	keystroke	o	n/a
551.4335	0.116	1102867	keystroke	m	n/a
551.709	0.092	1103418	keystroke	b	n/a
551.87	0.068	1103740	keystroke	i	n/a
552.017	0.069	1104034	keystroke	n	n/a
552.124	0.092	1104248	keystroke	e	n/a
552.354	0.091	1104708	keystroke	s	n/a
552.798	0.134	1105596	keystroke	Key.space	n/a
553.297	0.0905	1106594	keystroke	d	n/a
553.4835	0.0905	1106967	keystroke	e	n/a
553.651	0.046	1107302	keystroke	v	n/a
553.7935	0.136	1107587	keystroke	e	n/a
553.93	0.067	1107860	keystroke	l	n/a
554.08	0.115	1108160	keystroke	o	n/a
554.225	0.092	1108450	keystroke	p	n/a
554.317	0.0675	1108634	keystroke	e	n/a
554.4945	0.0915	1108989	keystroke	s	n/a
554.64	0.0925	1109280	keystroke	Key.enter	n/a
554.739	9.2165	1109478	prompt	n/a	sites various msie directory\n
555.6875	0.114	1111375	keystroke	s	n/a
555.825	0.1115	1111650	keystroke	i	n/a
555.9375	0.09	1111875	keystroke	t	n/a
556.1055	0.134	1112211	keystroke	e	n/a
556.324	0.0915	1112648	keystroke	s	n/a
556.4735	0.135	1112947	keystroke	Key.space	n/a
556.6425	0.091	1113285	keystroke	v	n/a
556.7635	0.161	1113527	keystroke	a	n/a
556.878	0.1365	1113756	keystroke	r	n/a
557.0165	0.0895	1114033	keystroke	i	n/a
557.1875	0.114	1114375	keystroke	o	n/a
557.9665	0.1145	1115933	keystroke	u	n/a
558.1015	0.115	1116203	keystroke	s	n/a
558.2175	0.111	1116435	keystroke	Key.space	n/a
558.962	0.1125	1117924	keystroke	m	n/a
559.2605	0.114	1118521	keystroke	s	n/a
559.409	0.1125	1118818	keystroke	i	n/a
559.5725	0.092	1119145	keystroke	e	n/a
559.774	0.114	1119548	keystroke	Key.space	n/a
560.491	0.1145	1120982	keystroke	d	n/a
560.6275	0.158	1121255	keystroke	i	n/a
560.7625	0.1125	1121525	keystroke	r	n/a
560.964	0.0695	1121928	keystroke	e	n/a
561.158	0.117	1122316	keystroke	c	n/a
561.3805	0.1115	1122761	keystroke	t	n/a
561.639	0.116	1123278	keystroke	r	n/a
561.7765	0.09	1123553	keystroke	y	n/a
562.2255	0.09	1124451	keystroke	Key.backspace	n/a
562.395	0.069	1124790	keystroke	Key.backspace	n/a
563.106	0.1145	1126212	keystroke	o	n/a
563.328	0.115	1126656	keystroke	r	n/a
563.501	0.091	1127002	keystroke	y	n/a
563.863	0.091	1127726	keystroke	Key.enter	n/a
563.9605	12.874	1127921	prompt	n/a	revenge particles complex shape\n
564.931	0.1785	1129862	keystroke	e	n/a
565.371	0.115	1130742	keystroke	Key.backspace	n/a
565.487	0.1355	1130974	keystroke	r	n/a
565.6935	0.1155	1131387	keystroke	g	n/a
565.9	0.112	1131800	keystroke	e	n/a
566.034	0.1155	1132068	keystroke	n	n/a
566.3	0.091	1132600	keystroke	g	n/a
566.492	0.115	1132984	keystroke	e	n/a
566.7145	0.071	1133429	keystroke	Key.backspace	n/a
566.872	0.048	1133744	keystroke	Key.backspace	n/a
567.011	0.0685	1134022	keystroke	Key.backspace	n/a
567.157	0.047	1134314	keystroke	Key.backspace	n/a
567.275	0.094	1134550	keystroke	Key.backspace	n/a
567.3905	0.0895	1134781	keystroke	e	n/a
567.572	0.069	1135144	keystroke	v	n/a
567.7405	0.136	1135481	keystroke	e	n/a
567.898	0.0685	1135796	keystroke	n	n/a
568.7975	0.1135	1137595	keystroke	g	n/a
568.9885	0.135	1137977	keystroke	e	n/a
569.1465	0.1135	1138293	keystroke	Key.space	n/a
569.428	0.1615	1138856	keystroke	p	n/a
569.519	0.1365	1139038	keystroke	a	n/a
569.632	0.114	1139264	keystroke	r	n/a
569.827	0.093	1139654	keystroke	t	n/a
570.002	0.1145	1140004	keystroke	i	n/a
570.271	0.0935	1140542	keystroke	c	n/a
570.442	0.1145	1140884	keystroke	l	n/a
570.587	0.068	1141174	keystroke	e	n/a
570.7735	0.0695	1141547	keystroke	s	n/a
571.208	0.1375	1142416	keystroke	Key.space	n/a
571.6735	0.094	1143347	keystroke	c	n/a
571.935	0.091	1143870	keystroke	m	n/a
572.5325	0.1135	1145065	keystroke	Key.backspace	n/a
572.7945	0.1345	1145589	keystroke	o	n/a
572.9905	0.0455	1145981	keystroke	m	n/a
573.1175	0.091	1146235	keystroke	p	n/a
573.27	0.1125	1146540	keystroke	l	n/a
573.3145	0.0905	1146629	keystroke	e	n/a
573.5375	0.094	1147075	keystroke	s	n/a
573.739	0.1375	1147478	keystroke	Key.space	n/a
574.1015	0.0455	1148203	keystroke	Key.backspace	n/a
574.2155	0.0925	1148431	keystroke	Key.backspace	n/a
574.331	0.1125	1148662	keystroke	x	n/a
574.5115	0.115	1149023	keystroke	Key.space	n/a
575.226	0.14	1150452	keystroke	s	n/a
575.3665	0.1125	1150733	keystroke	h	n/a
575.48	0.1365	1150960	keystroke	a	n/a
575.6495	0.112	1151299	keystroke	p	n/a
576.1095	0.1145	1152219	keystroke	e	n/a
576.74	0.0925	1153480	keystroke	Key.enter	n/a
576.8385	6.298	1153677	prompt	n/a	tales dear libs cayman\n
577.7975	0.136	1155595	keystroke	t	n/a
577.9105	0.1815	1155821	keystroke	a	n/a
578.093	0.1375	1156186	keystroke	l	n/a
578.2315	0.09	1156463	keystroke	e	n/a
578.4345	0.0895	1156869	keystroke	s	n/a
578.578	0.1375	1157156	keystroke	Key.space	n/a
578.7455	0.0945	1157491	keystroke	d	n/a
578.912	0.113	1157824	keystroke	e	n/a
579.079	0.1615	1158158	keystroke	a	n/a
580.305	0.112	1160610	keystroke	r	n/a
580.4575	0.114	1160915	keystroke	Key.space	n/a
580.6875	0.0895	1161375	keystroke	l	n/a
580.8895	0.0935	1161779	keystroke	i	n/a
581.068	0.0905	1162136	keystroke	b	n/a
581.2245	0.092	1162449	keystroke	s	n/a
581.34	0.09	1162680	keystroke	Key.space	n/a
581.7925	0.115	1163585	keystroke	c	n/a
581.9315	0.181	1163863	keystroke	a	n/a
582.089	0.047	1164178	keystroke	y	n/a
582.2735	0.092	1164547	keystroke	m	n/a
582.3865	0.0915	1164773	keystroke	a	n/a
582.479	0.068	1164958	keystroke	n	n/a
582.9755	0.1585	1165951	keystroke	Key.enter	n/a
583.1415	17.2345	1166283	prompt	n/a	victims murray occasionally representing\n
584.1745	0.0915	1168349	keystroke	v	n/a
584.3455	0.142	1168691	keystroke	i	n/a
584.5175	0.093	1169035	keystroke	c	n/a
584.795	0.0915	1169590	keystroke	t	n/a
584.862	0.1145	1169724	keystroke	i	n/a
585.068	0.068	1170136	keystroke	m	n/a
585.2045	0.095	1170409	keystroke	s	n/a
585.3605	0.1155	1170721	keystroke	Key.space	n/a
586.0805	0.138	1172161	keystroke	s	n/a
586.2195	0.1115	1172439	keystroke	m	n/a
586.5805	0.0705	1173161	keystroke	Key.backspace	n/a
586.701	0.091	1173402	keystroke	Key.backspace	n/a
586.951	0.1135	1173902	keystroke	m	n/a
587.264	0.1365	1174528	keystroke	u	n/a
587.4225	0.1135	1174845	keystroke	r	n/a
587.601	0.1345	1175202	keystroke	r	n/a
587.7575	0.136	1175515	keystroke	a	n/a
587.9385	0.115	1175877	keystroke	y	n/a
588.0835	0.1345	1176167	keystroke	Key.space	n/a
588.8305	0.138	1177661	keystroke	o	n/a
589.055	0.0935	1178110	keystroke	c	n/a
589.2305	0.1145	1178461	keystroke	c	n/a
589.439	0.1325	1178878	keystroke	a	n/a
589.644	0.0925	1179288	keystroke	s	n/a
589.76	0.113	1179520	keystroke	i	n/a
589.9215	0.112	1179843	keystroke	o	n/a
590.09	0.0895	1180180	keystroke	n	n/a
590.7825	0.1155	1181565	keystroke	a	n/a
591.7825	0.046	1183565	keystroke	l	n/a
591.937	0.069	1183874	keystroke	l	n/a
592.1265	0.069	1184253	keystroke	y	n/a
592.379	0.1185	1184758	keystroke	Key.space	n/a
592.578	0.0915	1185156	keystroke	r	n/a
592.755	0.0695	1185510	keystroke	e	n/a
593.055	0.1155	1186110	keystroke	[	n/a
593.1715	0.09	1186343	keystroke	r	n/a
593.363	0.046	1186726	keystroke	e	n/a
593.948	0.0895	1187896	keystroke	Key.backspace	n/a
594.0985	0.07	1188197	keystroke	Key.backspace	n/a
594.2395	0.069	1188479	keystroke	Key.backspace	n/a
594.918	0.137	1189836	keystroke	p	n/a
595.0775	0.094	1190155	keystroke	r	n/a
595.24	0.09	1190480	keystroke	e	n/a
595.4535	0.1375	1190907	keystroke	e	n/a
595.613	0.0685	1191226	keystroke	n	n/a
595.7605	0.117	1191521	keystroke	t	n/a
595.8525	0.094	1191705	keystroke	i	n/a
596.046	0.048	1192092	keystroke	n	n/a
596.117	0.091	1192234	keystroke	g	n/a
596.2515	0.0905	1192503	keystroke	Key.space	n/a
597.052	0.0675	1194104	keystroke	Key.backspace	n/a
597.2215	0.0675	1194443	keystroke	Key.backspace	n/a
597.379	0.0685	1194758	keystroke	Key.backspace	n/a
597.524	0.068	1195048	keystroke	Key.backspace	n/a
597.67	0.0685	1195340	keystroke	Key.backspace	n/a
597.7605	0.0915	1195521	keystroke	Key.backspace	n/a
597.9845	0.1145	1195969	keystroke	Key.backspace	n/a
598.325	0.159	1196650	keystroke	s	n/a
598.4145	0.116	1196829	keystroke	e	n/a
598.508	0.047	1197016	keystroke	n	n/a
598.652	0.1365	1197304	keystroke	t	n/a
598.7895	0.0665	1197579	keystroke	i	n/a
598.9595	0.069	1197919	keystroke	n	n/a
599.0655	0.1105	1198131	keystroke	g	n/a
599.917	0.18	1199834	keystroke	Key.space	n/a
600.2825	0.0905	1200565	keystroke	Key.enter	n/a
600.382	11.4765	1200764	prompt	n/a	acting costa seemed strips\n
601.131	0.18	1202262	keystroke	a	n/a
601.474	0.139	1202948	keystroke	t	n/a
601.6135	0.043	1203227	keystroke	i	n/a
601.7425	0.0705	1203485	keystroke	n	n/a
601.813	0.091	1203626	keystroke	g	n/a
601.9045	0.0895	1203809	keystroke	Key.space	n/a
602.4715	0.091	1204943	keystroke	c	n/a
602.5995	0.114	1205199	keystroke	o	n/a
602.7145	0.068	1205429	keystroke	s	n/a
602.822	0.091	1205644	keystroke	t	n/a
603.008	0.117	1206016	keystroke	a	n/a
603.191	0.114	1206382	keystroke	Key.space	n/a
604.8515	0.0695	1209703	keystroke	Key.backspace	n/a
604.9785	0.049	1209957	keystroke	Key.backspace	n/a
605.58	0.09	1211160	keystroke	c	n/a
605.826	0.112	1211652	keystroke	t	n/a
605.939	0.0665	1211878	keystroke	i	n/a
606.0755	0.0925	1212151	keystroke	n	n/a
606.1445	0.069	1212289	keystroke	g	n/a
606.237	0.1155	1212474	keystroke	Key.space	n/a
606.3965	0.073	1212793	keystroke	c	n/a
606.492	0.137	1212984	keystroke	o	n/a
606.604	0.1165	1213208	keystroke	s	n/a
606.802	0.1135	1213604	keystroke	t	n/a
607.311	0.1125	1214622	keystroke	t	n/a
608.05	0.0905	1216100	keystroke	Key.backspace	n/a
608.2055	0.091	1216411	keystroke	a	n/a
608.3305	0.1355	1216661	keystroke	Key.space	n/a
609.2155	0.115	1218431	keystroke	s	n/a
609.401	0.0685	1218802	keystroke	e	n/a
609.5465	0.067	1219093	keystroke	e	n/a
609.6355	0.1165	1219271	keystroke	m	n/a
609.7915	0.0925	1219583	keystroke	e	n/a
609.972	0.0705	1219944	keystroke	d	n/a
610.1075	0.112	1220215	keystroke	Key.space	n/a
610.2715	0.115	1220543	keystroke	s	n/a
610.4305	0.0925	1220861	keystroke	t	n/a
610.599	0.1165	1221198	keystroke	r	n/a
610.7545	0.0915	1221509	keystroke	i	n/a
611.474	0.112	1222948	keystroke	p	n/a
611.6075	0.1145	1223215	keystroke	s	n/a
611.7435	0.1125	1223487	keystroke	Key.enter	n/a
611.866	9.2055	1223732	prompt	n/a	enforcement amended wool close\n
612.5385	0.114	1225077	keystroke	e	n/a
612.6735	0.116	1225347	keystroke	n	n/a
613.0295	0.1155	1226059	keystroke	f	n/a
613.146	0.1135	1226292	keystroke	o	n/a
613.2355	0.113	1226471	keystroke	r	n/a
613.6185	0.117	1227237	keystroke	c	n/a
613.71	0.1395	1227420	keystroke	e	n/a
613.8035	0.0915	1227607	keystroke	m	n/a
613.9735	0.1625	1227947	keystroke	e	n/a
614.0685	0.09	1228137	keystroke	n	n/a
614.28	0.138	1228560	keystroke	t	n/a
614.4565	0.111	1228913	keystroke	Key.space	n/a
615.1655	0.1135	1230331	keystroke	a	n/a
615.308	0.07	1230616	keystroke	m	n/a
615.4385	0.09	1230877	keystroke	m	n/a
615.9575	0.1115	1231915	keystroke	Key.backspace	n/a
616.3855	0.091	1232771	keystroke	e	n/a
616.4975	0.113	1232995	keystroke	n	n/a
616.6115	0.0905	1233223	keystroke	d	n/a
616.7785	0.0905	1233557	keystroke	e	n/a
616.96	0.092	1233920	keystroke	d	n/a
617.0745	0.134	1234149	keystroke	Key.space	n/a
617.434	0.0915	1234868	keystroke	w	n/a
617.5475	0.068	1235095	keystroke	o	n/a
617.6855	0.0685	1235371	keystroke	o	n/a
619.038	0.136	1238076	keystroke	l	n/a
619.2915	0.116	1238583	keystroke	Key.space	n/a
619.5405	0.092	1239081	keystroke	l	n/a
620.0905	0.091	1240181	keystroke	Key.backspace	n/a
620.231	0.093	1240462	keystroke	c	n/a
620.345	0.092	1240690	keystroke	l	n/a
620.525	0.138	1241050	keystroke	o	n/a
620.6385	0.092	1241277	keystroke	a	n/a
620.7065	0.162	1241413	keystroke	s	n/a
620.7535	0.0255	1241507	keystroke	a	n/a
620.7795	0.1575	1241559	keystroke	e	n/a
620.958	0.111	1241916	keystroke	Key.enter	n/a
621.0765	9.7455	1242153	prompt	n/a	dude robbie giants occur\n
621.8595	0.093	1243719	keystroke	d	n/a
622.1105	0.114	1244221	keystroke	u	n/a
622.2005	0.0905	1244401	keystroke	d	n/a
622.446	0.136	1244892	keystroke	e	n/a
622.6645	0.131	1245329	keystroke	Key.space	n/a
623.3455	0.1345	1246691	keystroke	r	n/a
623.592	0.112	1247184	keystroke	o	n/a
623.8265	0.091	1247653	keystroke	b	n/a
623.9575	0.1385	1247915	keystroke	b	n/a
624.17	0.1345	1248340	keystroke	i	n/a
624.334	0.114	1248668	keystroke	e	n/a
624.525	0.136	1249050	keystroke	Key.space	n/a
625.169	0.111	1250338	keystroke	f	n/a
625.301	0.1135	1250602	keystroke	i	n/a
625.979	0.07	1251958	keystroke	Key.backspace	n/a
626.121	0.089	1252242	keystroke	Key.backspace	n/a
626.232	0.112	1252464	keystroke	g	n/a
626.378	0.0895	1252756	keystroke	i	n/a
626.5505	0.0895	1253101	keystroke	n	n/a
627.28	0.0915	1254560	keystroke	Key.backspace	n/a
627.4935	0.093	1254987	keystroke	a	n/a
627.6085	0.067	1255217	keystroke	n	n/a
627.7235	0.0695	1255447	keystroke	t	n/a
627.9195	0.093	1255839	keystroke	e	n/a
628.626	0.0935	1257252	keystroke	Key.backspace	n/a
628.925	0.18	1257850	keystroke	Key.space	n/a
629.331	0.1145	1258662	keystroke	Key.backspace	n/a
629.5285	0.1155	1259057	keystroke	s	n/a
629.6185	0.2035	1259237	keystroke	Key.space	n/a
629.754	0.138	1259508	keystroke	o	n/a
629.8655	0.0955	1259731	keystroke	c	n/a
630.03	0.1135	1260060	keystroke	c	n/a
630.1765	0.0905	1260353	keystroke	u	n/a
630.314	0.114	1260628	keystroke	r	n/a
630.7065	0.1145	1261413	keystroke	Key.enter	n/a
630.825	12.5155	1261650	prompt	n/a	neither comments capable february\n
631.7665	0.0905	1263533	keystroke	n	n/a
631.895	0.1365	1263790	keystroke	e	n/a
631.92	0.1135	1263840	keystroke	i	n/a
632.1025	0.113	1264205	keystroke	g	n/a
632.2155	0.093	1264431	keystroke	h	n/a
632.3095	0.113	1264619	keystroke	t	n/a
632.696	0.1135	1265392	keystroke	r	n/a
632.832	0.1575	1265664	keystroke	Key.space	n/a
633.1795	0.069	1266359	keystroke	Key.backspace	n/a
633.3235	0.0905	1266647	keystroke	Key.backspace	n/a
633.436	0.092	1266872	keystroke	Key.backspace	n/a
633.616	0.07	1267232	keystroke	Key.backspace	n/a
633.7615	0.091	1267523	keystroke	Key.backspace	n/a
634.3465	0.1375	1268693	keystroke	t	n/a
634.486	0.1145	1268972	keystroke	h	n/a
634.6015	0.067	1269203	keystroke	e	n/a
634.7445	0.1125	1269489	keystroke	r	n/a
634.879	0.18	1269758	keystroke	Key.space	n/a
635.188	0.113	1270376	keystroke	c	n/a
635.3235	0.0685	1270647	keystroke	o	n/a
635.455	0.0905	1270910	keystroke	m	n/a
635.589	0.0895	1271178	keystroke	m	n/a
635.7435	0.137	1271487	keystroke	e	n/a
635.8345	0.091	1271669	keystroke	n	n/a
635.9665	0.113	1271933	keystroke	t	n/a
636.2045	0.0915	1272409	keystroke	s	n/a
636.379	0.137	1272758	keystroke	Key.space	n/a
636.8495	0.136	1273699	keystroke	c	n/a
636.939	0.1155	1273878	keystroke	a	n/a
637.0555	0.1345	1274111	keystroke	p	n/a
637.222	0.135	1274444	keystroke	a	n/a
638.3155	0.09	1276631	keystroke	b	n/a
638.5715	0.0675	1277143	keystroke	;	n/a
638.6765	0.1145	1277353	keystroke	e	n/a
638.812	0.092	1277624	keystroke	Key.space	n/a
639.219	0.068	1278438	keystroke	Key.backspace	n/a
639.354	0.071	1278708	keystroke	Key.backspace	n/a
639.495	0.0895	1278990	keystroke	Key.backspace	n/a
639.72	0.116	1279440	keystroke	l	n/a
639.858	0.0915	1279716	keystroke	e	n/a
639.972	0.092	1279944	keystroke	Key.space	n/a
640.836	0.114	1281672	keystroke	f	n/a
640.973	0.138	1281946	keystroke	e	n/a
641.174	0.1125	1282348	keystroke	b	n/a
641.763	0.092	1283526	keystroke	r	n/a
641.936	0.0945	1283872	keystroke	u	n/a
642.0305	0.113	1284061	keystroke	a	n/a
642.1185	0.1135	1284237	keystroke	r	n/a
642.93	0.092	1285860	keystroke	y	n/a
643.267	0.071	1286534	keystroke	Key.enter	n/a
643.3445	15.3675	1286689	prompt	n/a	moore exercise freedom specially\n
644.2785	0.0935	1288557	keystroke	m	n/a
644.465	0.068	1288930	keystroke	o	n/a
644.598	0.113	1289196	keystroke	o	n/a
644.7325	0.0895	1289465	keystroke	r	n/a
644.8995	0.091	1289799	keystroke	e	n/a
645.0135	0.1115	1290027	keystroke	Key.space	n/a
645.157	0.0685	1290314	keystroke	e	n/a
645.954	0.1585	1291908	keystroke	x	n/a
646.233	0.139	1292466	keystroke	c	n/a
646.303	0.16	1292606	keystroke	e	n/a
646.5255	0.069	1293051	keystroke	r	n/a
646.7235	0.113	1293447	keystroke	c	n/a
646.874	0.09	1293748	keystroke	i	n/a
646.964	0.138	1293928	keystroke	s	n/a
647.079	0.089	1294158	keystroke	e	n/a
647.2025	0.1115	1294405	keystroke	Key.space	n/a
647.864	0.09	1295728	keystroke	Key.backspace	n/a
648.0655	0.0455	1296131	keystroke	Key.backspace	n/a
648.2275	0.046	1296455	keystroke	Key.backspace	n/a
648.371	0.069	1296742	keystroke	Key.backspace	n/a
648.532	0.072	1297064	keystroke	Key.backspace	n/a
649.3375	0.068	1298675	keystroke	Key.backspace	n/a
649.4945	0.0685	1298989	keystroke	Key.backspace	n/a
649.605	0.068	1299210	keystroke	Key.backspace	n/a
649.8445	0.1135	1299689	keystroke	e	n/a
650.056	0.1155	1300112	keystroke	r	n/a
650.3545	0.091	1300709	keystroke	c	n/a
650.4225	0.091	1300845	keystroke	e	n/a
650.5675	0.134	1301135	keystroke	o	n/a
650.753	0.0905	1301506	keystroke	s	n/a
651.0105	0.0695	1302021	keystroke	Key.backspace	n/a
651.1575	0.069	1302315	keystroke	Key.backspace	n/a
651.285	0.0895	1302570	keystroke	Key.backspace	n/a
651.5025	0.0925	1303005	keystroke	i	n/a
651.684	0.135	1303368	keystroke	e	n/a
651.82	0.1355	1303640	keystroke	Key.space	n/a
652.3275	0.0665	1304655	keystroke	Key.backspace	n/a
652.793	0.067	1305586	keystroke	Key.backspace	n/a
652.9275	0.137	1305855	keystroke	s	n/a
652.995	0.115	1305990	keystroke	e	n/a
653.1315	0.134	1306263	keystroke	Key.space	n/a
653.9005	0.112	1307801	keystroke	f	n/a
654.0615	0.1115	1308123	keystroke	r	n/a
654.2615	0.112	1308523	keystroke	e	n/a
654.438	0.091	1308876	keystroke	e	n/a
654.6215	0.11	1309243	keystroke	d	n/a
654.7625	0.0685	1309525	keystroke	o	n/a
654.916	0.111	1309832	keystroke	m	n/a
655.0975	0.1145	1310195	keystroke	Key.space	n/a
655.901	0.0885	1311802	keystroke	s	n/a
656.0115	0.1145	1312023	keystroke	p	n/a
656.17	0.113	1312340	keystroke	e	n/a
656.4065	0.131	1312813	keystroke	c	n/a
656.5595	0.047	1313119	keystroke	i	n/a
656.701	0.0925	1313402	keystroke	a	n/a
656.815	0.069	1313630	keystroke	l	n/a
656.948	0.0925	1313896	keystroke	l	n/a
657.9105	0.068	1315821	keystroke	y	n/a
658.5955	0.114	1317191	keystroke	Key.enter	n/a
658.716	8.707	1317432	prompt	n/a	lindsay bomb known armenia\n
659.639	0.09	1319278	keystroke	l	n/a
659.8675	0.046	1319735	keystroke	i	n/a
659.9745	0.115	1319949	keystroke	n	n/a
660.0665	0.092	1320133	keystroke	d	n/a
660.267	0.1365	1320534	keystroke	s	n/a
660.4045	0.1585	1320809	keystroke	a	n/a
660.539	0.093	1321078	keystroke	y	n/a
660.6865	0.1135	1321373	keystroke	Key.space	n/a
661.3265	0.07	1322653	keystroke	n	n/a
661.4765	0.1125	1322953	keystroke	o	n/a
662.1155	0.069	1324231	keystroke	Key.backspace	n/a
662.2595	0.092	1324519	keystroke	Key.backspace	n/a
662.4215	0.089	1324843	keystroke	b	n/a
662.546	0.088	1325092	keystroke	o	n/a
662.718	0.071	1325436	keystroke	m	n/a
663.021	0.092	1326042	keystroke	b	n/a
663.6535	0.1135	1327307	keystroke	Key.space	n/a
664.1155	0.157	1328231	keystroke	k	n/a
664.1835	0.158	1328367	keystroke	n	n/a
664.363	0.135	1328726	keystroke	o	n/a
664.5295	0.1115	1329059	keystroke	w	n/a
664.643	0.086	1329286	keystroke	n	n/a
664.9235	0.135	1329847	keystroke	Key.space	n/a
666.326	0.138	1332652	keystroke	a	n/a
666.4965	0.09	1332993	keystroke	r	n/a
