onset	duration	sample	value	key	prompt_text
4.433	15.9075	8866	prompt	n/a	the quick brown fox jumps over a lazy dog\n
10.888	0.0745	21776	keystroke_t	t	n/a
10.9775	0.075	21955	keystroke_h	h	n/a
11.082	0.0755	22164	keystroke_e	e	n/a
11.1725	0.105	22345	keystroke_Key.space	Key.space	n/a
11.818	0.0745	23636	keystroke_q	q	n/a
11.967	0.0615	23934	keystroke_u	u	n/a
12.1325	0.075	24265	keystroke_i	i	n/a
12.3275	0.06	24655	keystroke_c	c	n/a
12.4025	0.09	24805	keystroke_k	k	n/a
12.5525	0.12	25105	keystroke_Key.space	Key.space	n/a
12.7325	0.09	25465	keystroke_b	b	n/a
12.867	0.076	25734	keystroke_r	r	n/a
12.9725	0.046	25945	keystroke_i	i	n/a
13.0935	0.0735	26187	keystroke_w	w	n/a
13.2425	0.1355	26485	keystroke_n	n	n/a
13.3325	0.1355	26665	keystroke_Key.space	Key.space	n/a
14.158	0.045	28316	keystroke_Key.backspace	Key.backspace	n/a
14.218	0.0745	28436	keystroke_Key.backspace	Key.backspace	n/a
14.3525	0.06	28705	keystroke_Key.backspace	Key.backspace	n/a
14.473	0.0895	28946	keystroke_Key.backspace	Key.backspace	n/a
15.3135	0.0595	30627	keystroke_o	o	n/a
15.4785	0.0595	30957	keystroke_w	w	n/a
15.5835	0.1495	31167	keystroke_n	n	n/a
15.673	0.15	31346	keystroke_Key.space	Key.space	n/a
15.868	0.0745	31736	keystroke_f	f	n/a
15.9725	0.075	31945	keystroke_o	o	n/a
16.1525	0.0605	32305	keystroke_x	x	n/a
16.2275	0.12	32455	keystroke_Key.space	Key.space	n/a
16.4225	0.075	32845	keystroke_j	j	n/a
16.6025	0.06	33205	keystroke_u	u	n/a
16.7675	0.1055	33535	keystroke_m	m	n/a
16.948	0.075	33896	keystroke_p	p	n/a
17.6075	0.076	35215	keystroke_s	s	n/a
17.743	0.0895	35486	keystroke_Key.space	Key.space	n/a
17.908	0.09	35816	keystroke_o	o	n/a
18.148	0.105	36296	keystroke_v	v	n/a
18.238	0.045	36476	keystroke_e	e	n/a
18.3725	0.075	36745	keystroke_r	r	n/a
18.477	0.0905	36954	keystroke_Key.space	Key.space	n/a
18.5825	0.075	37165	keystroke_a	a	n/a
18.6725	0.075	37345	keystroke_Key.space	Key.space	n/a
18.8525	0.03	37705	keystroke_l	l	n/a
18.9275	0.076	37855	keystroke_a	a	n/a
19.1225	0.075	38245	keystroke_z	z	n/a
19.2575	0.09	38515	keystroke_y	y	n/a
19.4225	0.1195	38845	keystroke_Key.space	Key.space	n/a
19.557	0.0905	39114	keystroke_d	d	n/a
19.677	0.106	39354	keystroke_o	o	n/a
19.8135	0.09	39627	keystroke_g	g	n/a
20.2325	0.105	40465	keystroke_Key.enter	Key.enter	n/a
20.3475	7.7325	40695	prompt	n/a	grant essential peripheral general\n
21.283	0.075	42566	keystroke_g	g	n/a
21.417	0.0615	42834	keystroke_r	r	n/a
21.598	0.0905	43196	keystroke_a	a	n/a
21.7175	0.075	43435	keystroke_n	n	n/a
21.853	0.0605	43706	keystroke_t	t	n/a
21.9875	0.075	43975	keystroke_Key.space	Key.space	n/a
22.1375	0.09	44275	keystroke_e	e	n/a
22.3635	0.0595	44727	keystroke_s	s	n/a
22.5125	0.09	45025	keystroke_s	s	n/a
22.678	0.09	45356	keystroke_e	e	n/a
22.798	0.09	45596	keystroke_n	n	n/a
22.903	0.06	45806	keystroke_t	t	n/a
23.068	0.075	46136	keystroke_i	i	n/a
23.173	0.075	46346	keystroke_a	a	n/a
23.323	0.015	46646	keystroke_l	l	n/a
23.458	0.105	46916	keystroke_Key.space	Key.space	n/a
24.778	0.075	49556	keystroke_p	p	n/a
24.868	0.0595	49736	keystroke_e	e	n/a
25.0325	0.0605	50065	keystroke_r	r	n/a
25.183	0.0745	50366	keystroke_i	i	n/a
25.468	0.09	50936	keystroke_p	p	n/a
25.7375	0.075	51475	keystroke_h	h	n/a
25.8575	0.0755	51715	keystroke_e	e	n/a
26.0385	0.0595	52077	keystroke_r	r	n/a
26.248	0.0895	52496	keystroke_a	a	n/a
26.3525	0.0905	52705	keystroke_l	l	n/a
26.5325	0.105	53065	keystroke_Key.space	Key.space	n/a
26.968	0.09	53936	keystroke_g	g	n/a
27.073	0.0745	54146	keystroke_e	e	n/a
27.208	0.0905	54416	keystroke_n	n	n/a
27.283	0.075	54566	keystroke_e	e	n/a
27.447	0.076	54894	keystroke_r	r	n/a
27.673	0.075	55346	keystroke_a	a	n/a
27.763	0.09	55526	keystroke_l	l	n/a
28.003	0.0745	56006	keystroke_Key.enter	Key.enter	n/a
28.0855	14.3195	56171	prompt	n/a	genealogy lopez finally enormous\n
29.0225	0.0755	58045	keystroke_n	n	n/a
29.5775	0.09	59155	keystroke_=	=	n/a
30.1025	0.06	60205	keystroke_g	g	n/a
30.2235	0.075	60447	keystroke_e	e	n/a
30.3435	0.0745	60687	keystroke_n	n	n/a
30.973	0.0595	61946	keystroke_Key.backspace	Key.backspace	n/a
31.1225	0.06	62245	keystroke_Key.backspace	Key.backspace	n/a
31.258	0.06	62516	keystroke_Key.backspace	Key.backspace	n/a
31.378	0.045	62756	keystroke_Key.backspace	Key.backspace	n/a
31.498	0.045	62996	keystroke_Key.backspace	Key.backspace	n/a
31.6475	0.0305	63295	keystroke_Key.backspace	Key.backspace	n/a
31.7525	0.06	63505	keystroke_Key.backspace	Key.backspace	n/a
32.2475	0.076	64495	keystroke_g	g	n/a
32.4125	0.06	64825	keystroke_e	e	n/a
32.5025	0.0605	65005	keystroke_n	n	n/a
32.638	0.059	65276	keystroke_e	e	n/a
34.633	0.0605	69266	keystroke_a	a	n/a
35.878	0.06	71756	keystroke_l	l	n/a
36.013	0.06	72026	keystroke_o	o	n/a
36.4635	0.059	72927	keystroke_g	g	n/a
36.5975	0.076	73195	keystroke_y	y	n/a
36.7475	0.1055	73495	keystroke_Key.space	Key.space	n/a
37.0635	0.074	74127	keystroke_l	l	n/a
37.2285	0.059	74457	keystroke_o	o	n/a
37.3925	0.0755	74785	keystroke_p	p	n/a
37.588	0.0755	75176	keystroke_e	e	n/a
37.8275	0.06	75655	keystroke_z	z	n/a
37.9175	0.09	75835	keystroke_Key.space	Key.space	n/a
39.163	0.09	78326	keystroke_f	f	n/a
39.2975	0.136	78595	keystroke_i	i	n/a
39.3575	0.135	78715	keystroke_n	n	n/a
39.5375	0.03	79075	keystroke_a	a	n/a
39.643	0.0455	79286	keystroke_l	l	n/a
39.7925	0.075	79585	keystroke_l	l	n/a
39.9275	0.09	79855	keystroke_y	y	n/a
40.1375	0.1055	80275	keystroke_Key.space	Key.space	n/a
40.6925	0.075	81385	keystroke_e	e	n/a
40.8125	0.075	81625	keystroke_n	n	n/a
40.9475	0.105	81895	keystroke_o	o	n/a
41.1425	0.0605	82285	keystroke_r	r	n/a
41.667	0.1355	83334	keystroke_m	m	n/a
41.788	0.135	83576	keystroke_o	o	n/a
42.013	0.0905	84026	keystroke_u	u	n/a
42.163	0.105	84326	keystroke_s	s	n/a
42.3275	0.075	84655	keystroke_Key.enter	Key.enter	n/a
42.41	14.5745	84820	prompt	n/a	fails subscriber penalties tiles\n
43.273	0.09	86546	keystroke_f	f	n/a
43.498	0.15	86996	keystroke_a	a	n/a
43.632	0.0315	87264	keystroke_i	i	n/a
43.7675	0.0905	87535	keystroke_l	l	n/a
43.933	0.075	87866	keystroke_s	s	n/a
44.0525	0.12	88105	keystroke_Key.space	Key.space	n/a
44.3225	0.0905	88645	keystroke_s	s	n/a
44.5925	0.075	89185	keystroke_u	u	n/a
45.0585	0.0595	90117	keystroke_b	b	n/a
45.193	0.0745	90386	keystroke_s	s	n/a
45.4185	0.074	90837	keystroke_c	c	n/a
45.6135	0.075	91227	keystroke_r	r	n/a
45.7035	0.059	91407	keystroke_u	u	n/a
45.943	0.03	91886	keystroke_v	v	n/a
46.482	0.016	92964	keystroke_Key.backspace	Key.backspace	n/a
46.588	0.0595	93176	keystroke_Key.backspace	Key.backspace	n/a
46.7375	0.0455	93475	keystroke_Key.backspace	Key.backspace	n/a
47.7425	0.045	95485	keystroke_i	i	n/a
47.953	0.0905	95906	keystroke_b	b	n/a
48.118	0.0605	96236	keystroke_e	e	n/a
48.268	0.075	96536	keystroke_r	r	n/a
48.403	0.105	96806	keystroke_Key.space	Key.space	n/a
49.498	0.0445	98996	keystroke_Key.backspace	Key.backspace	n/a
49.6625	0.045	99325	keystroke_Key.backspace	Key.backspace	n/a
49.8125	0.061	99625	keystroke_Key.backspace	Key.backspace	n/a
49.978	0.06	99956	keystroke_Key.backspace	Key.backspace	n/a
53.056	0.057	106112	keystroke_Key.backspace	Key.backspace	n/a
53.278	0.075	106556	keystroke_r	r	n/a
53.383	0.074	106766	keystroke_i	i	n/a
53.5925	0.075	107185	keystroke_b	b	n/a
53.6985	0.0895	107397	keystroke_e	e	n/a
53.8775	0.075	107755	keystroke_r	r	n/a
53.9225	0.0905	107845	keystroke_Key.space	Key.space	n/a
54.1325	0.0455	108265	keystroke_p	p	n/a
54.2825	0.045	108565	keystroke_e	e	n/a
54.4175	0.0905	108835	keystroke_n	n	n/a
54.5525	0.1055	109105	keystroke_a	a	n/a
54.793	0.075	109586	keystroke_l	l	n/a
55.033	0.09	110066	keystroke_t	t	n/a
55.182	0.106	110364	keystroke_i	i	n/a
55.303	0.12	110606	keystroke_e	e	n/a
55.5125	0.0605	111025	keystroke_s	s	n/a
55.663	0.1055	111326	keystroke_Key.space	Key.space	n/a
56.203	0.075	112406	keystroke_t	t	n/a
56.3525	0.06	112705	keystroke_i	i	n/a
56.6075	0.015	113215	keystroke_l	l	n/a
56.638	0.0595	113276	keystroke_e	e	n/a
56.7725	0.1055	113545	keystroke_s	s	n/a
56.908	0.075	113816	keystroke_Key.enter	Key.enter	n/a
56.9895	13.45	113979	prompt	n/a	carmen centuries correspondence consulting\n
62.025	0.013	124050	keystroke_c	c	n/a
62.158	0.107	124316	keystroke_a	a	n/a
62.428	0.075	124856	keystroke_r	r	n/a
62.608	0.075	125216	keystroke_m	m	n/a
62.713	0.0905	125426	keystroke_e	e	n/a
62.833	0.1205	125666	keystroke_n	n	n/a
62.923	0.135	125846	keystroke_Key.space	Key.space	n/a
63.298	0.075	126596	keystroke_c	c	n/a
63.4785	0.044	126957	keystroke_e	e	n/a
63.5685	0.0895	127137	keystroke_n	n	n/a
63.703	0.0605	127406	keystroke_t	t	n/a
64.198	0.09	128396	keystroke_u	u	n/a
64.363	0.0755	128726	keystroke_r	r	n/a
64.468	0.06	128936	keystroke_i	i	n/a
64.558	0.09	129116	keystroke_e	e	n/a
64.753	0.075	129506	keystroke_s	s	n/a
64.873	0.09	129746	keystroke_Key.space	Key.space	n/a
65.1735	0.09	130347	keystroke_c	c	n/a
65.3075	0.076	130615	keystroke_o	o	n/a
65.518	0.075	131036	keystroke_r	r	n/a
65.668	0.09	131336	keystroke_r	r	n/a
65.893	0.075	131786	keystroke_e	e	n/a
66.058	0.09	132116	keystroke_s	s	n/a
66.163	0.075	132326	keystroke_p	p	n/a
66.343	0.15	132686	keystroke_o	o	n/a
66.463	0.12	132926	keystroke_n	n	n/a
66.5985	0.059	133197	keystroke_d	d	n/a
66.733	0.09	133466	keystroke_e	e	n/a
66.853	0.0895	133706	keystroke_n	n	n/a
66.9735	0.09	133947	keystroke_c	c	n/a
67.1825	0.06	134365	keystroke_e	e	n/a
67.633	0.0905	135266	keystroke_Key.space	Key.space	n/a
67.828	0.09	135656	keystroke_c	c	n/a
67.933	0.165	135866	keystroke_o	o	n/a
68.008	0.15	136016	keystroke_n	n	n/a
68.188	0.0755	136376	keystroke_s	s	n/a
68.338	0.0905	136676	keystroke_u	u	n/a
68.654	0.059	137308	keystroke_t	t	n/a
69.028	0.09	138056	keystroke_Key.backspace	Key.backspace	n/a
69.7185	0.074	139437	keystroke_l	l	n/a
69.868	0.075	139736	keystroke_t	t	n/a
69.988	0.15	139976	keystroke_i	i	n/a
70.063	0.1355	140126	keystroke_n	n	n/a
70.183	0.075	140366	keystroke_g	g	n/a
70.333	0.105	140666	keystroke_Key.enter	Key.enter	n/a
70.4455	9.64	140891	prompt	n/a	gambling exhibits template it'll\n
71.3535	0.059	142707	keystroke_g	g	n/a
71.578	0.06	143156	keystroke_a	a	n/a
71.6975	0.0905	143395	keystroke_m	m	n/a
71.8935	0.06	143787	keystroke_b	b	n/a
71.9985	0.059	143997	keystroke_l	l	n/a
72.1635	0.135	144327	keystroke_i	i	n/a
72.2535	0.12	144507	keystroke_n	n	n/a
72.3285	0.09	144657	keystroke_g	g	n/a
72.478	0.1345	144956	keystroke_Key.space	Key.space	n/a
72.8535	0.09	145707	keystroke_e	e	n/a
73.2125	0.0755	146425	keystroke_x	x	n/a
73.4375	0.09	146875	keystroke_h	h	n/a
73.663	0.0905	147326	keystroke_i	i	n/a
73.8275	0.075	147655	keystroke_b	b	n/a
73.948	0.0595	147896	keystroke_i	i	n/a
74.1735	0.0605	148347	keystroke_t	t	n/a
74.249	0.059	148498	keystroke_i	i	n/a
74.578	0.105	149156	keystroke_s	s	n/a
74.728	0.09	149456	keystroke_Key.space	Key.space	n/a
75.2535	0.0895	150507	keystroke_Key.backspace	Key.backspace	n/a
75.403	0.075	150806	keystroke_Key.backspace	Key.backspace	n/a
75.568	0.045	151136	keystroke_Key.backspace	Key.backspace	n/a
75.688	0.06	151376	keystroke_Key.backspace	Key.backspace	n/a
76.858	0.09	153716	keystroke_t	t	n/a
76.9625	0.076	153925	keystroke_s	s	n/a
77.0525	0.1355	154105	keystroke_Key.space	Key.space	n/a
77.218	0.09	154436	keystroke_t	t	n/a
77.428	0.075	154856	keystroke_e	e	n/a
77.5475	0.09	155095	keystroke_m	m	n/a
77.7575	0.105	155515	keystroke_p	p	n/a
77.8485	0.074	155697	keystroke_l	l	n/a
78.0735	0.06	156147	keystroke_a	a	n/a
78.2525	0.0755	156505	keystroke_t	t	n/a
78.3575	0.0605	156715	keystroke_e	e	n/a
78.4625	0.0905	156925	keystroke_Key.space	Key.space	n/a
78.6585	0.075	157317	keystroke_i	i	n/a
78.763	0.06	157526	keystroke_t	t	n/a
79.333	0.06	158666	keystroke_'	'	n/a
79.573	0.06	159146	keystroke_l	l	n/a
79.693	0.105	159386	keystroke_l	l	n/a
79.993	0.0895	159986	keystroke_Key.enter	Key.enter	n/a
80.092	5.8145	160184	prompt	n/a	lemon prisoners fiction reason\n
80.9535	0.06	161907	keystroke_l	l	n/a
81.0735	0.0745	162147	keystroke_e	e	n/a
81.1625	0.0905	162325	keystroke_m	m	n/a
81.418	0.165	162836	keystroke_o	o	n/a
81.5085	0.105	163017	keystroke_n	n	n/a
81.6735	0.1195	163347	keystroke_Key.space	Key.space	n/a
81.912	0.106	163824	keystroke_p	p	n/a
82.0485	0.0895	164097	keystroke_r	r	n/a
82.228	0.0605	164456	keystroke_i	i	n/a
82.363	0.06	164726	keystroke_s	s	n/a
82.498	0.12	164996	keystroke_o	o	n/a
82.588	0.105	165176	keystroke_n	n	n/a
82.708	0.09	165416	keystroke_e	e	n/a
82.903	0.075	165806	keystroke_r	r	n/a
83.083	0.09	166166	keystroke_s	s	n/a
83.203	0.09	166406	keystroke_Key.space	Key.space	n/a
83.7275	0.0605	167455	keystroke_f	f	n/a
83.8625	0.0905	167725	keystroke_i	i	n/a
83.984	0.104	167968	keystroke_c	c	n/a
84.253	0.045	168506	keystroke_t	t	n/a
84.343	0.06	168686	keystroke_i	i	n/a
84.523	0.151	169046	keystroke_o	o	n/a
84.6275	0.09	169255	keystroke_n	n	n/a
84.8075	0.0905	169615	keystroke_Key.space	Key.space	n/a
84.913	0.091	169826	keystroke_r	r	n/a
85.078	0.0905	170156	keystroke_e	e	n/a
85.288	0.091	170576	keystroke_a	a	n/a
85.484	0.0745	170968	keystroke_s	s	n/a
85.5435	0.1495	171087	keystroke_o	o	n/a
85.6035	0.1195	171207	keystroke_n	n	n/a
85.798	0.1055	171596	keystroke_Key.enter	Key.enter	n/a
85.937	8.0525	171874	prompt	n/a	mortgages spend testimony emirates\n
87.043	0.12	174086	keystroke_m	m	n/a
87.118	0.105	174236	keystroke_o	o	n/a
87.208	0.075	174416	keystroke_r	r	n/a
87.388	0.075	174776	keystroke_t	t	n/a
87.808	0.0755	175616	keystroke_g	g	n/a
87.9135	0.0595	175827	keystroke_a	a	n/a
88.003	0.075	176006	keystroke_g	g	n/a
88.123	0.0905	176246	keystroke_e	e	n/a
88.3175	0.016	176635	keystroke_s	s	n/a
88.3485	0.075	176697	keystroke_Key.space	Key.space	n/a
88.4245	0.119	176849	keystroke_s	s	n/a
89.4585	0.0745	178917	keystroke_p	p	n/a
89.594	0.089	179188	keystroke_e	e	n/a
89.788	0.045	179576	keystroke_n	n	n/a
90.013	0.076	180026	keystroke_d	d	n/a
90.208	0.09	180416	keystroke_Key.space	Key.space	n/a
90.493	0.075	180986	keystroke_t	t	n/a
90.703	0.076	181406	keystroke_e	e	n/a
90.8685	0.1045	181737	keystroke_s	s	n/a
91.108	0.06	182216	keystroke_t	t	n/a
91.229	0.074	182458	keystroke_i	i	n/a
91.453	0.09	182906	keystroke_m	m	n/a
91.6635	0.1195	183327	keystroke_o	o	n/a
91.768	0.135	183536	keystroke_n	n	n/a
92.008	0.09	184016	keystroke_y	y	n/a
92.1875	0.1355	184375	keystroke_Key.space	Key.space	n/a
92.623	0.09	185246	keystroke_e	e	n/a
92.774	0.074	185548	keystroke_m	m	n/a
93.013	0.0595	186026	keystroke_i	i	n/a
93.1335	0.0745	186267	keystroke_r	r	n/a
93.343	0.1045	186686	keystroke_a	a	n/a
93.4625	0.0755	186925	keystroke_t	t	n/a
93.5985	0.09	187197	keystroke_e	e	n/a
93.7625	0.106	187525	keystroke_s	s	n/a
93.9125	0.075	187825	keystroke_Key.enter	Key.enter	n/a
93.994	6.325	187988	prompt	n/a	instrumentation gave booth hills\n
94.813	0.135	189626	keystroke_i	i	n/a
94.874	0.1345	189748	keystroke_n	n	n/a
94.993	0.0755	189986	keystroke_s	s	n/a
95.2475	0.061	190495	keystroke_t	t	n/a
95.4135	0.06	190827	keystroke_r	r	n/a
95.4575	0.091	190915	keystroke_u	u	n/a
95.668	0.091	191336	keystroke_m	m	n/a
95.773	0.0755	191546	keystroke_e	e	n/a
95.8935	0.075	191787	keystroke_n	n	n/a
96.028	0.076	192056	keystroke_t	t	n/a
96.284	0.104	192568	keystroke_a	a	n/a
96.598	0.075	193196	keystroke_t	t	n/a
96.7035	0.0745	193407	keystroke_i	i	n/a
96.883	0.135	193766	keystroke_o	o	n/a
96.958	0.105	193916	keystroke_n	n	n/a
97.138	0.1055	194276	keystroke_Key.space	Key.space	n/a
97.5425	0.09	195085	keystroke_g	g	n/a
97.6475	0.0755	195295	keystroke_a	a	n/a
97.753	0.09	195506	keystroke_v	v	n/a
97.888	0.075	195776	keystroke_e	e	n/a
97.948	0.105	195896	keystroke_Key.space	Key.space	n/a
98.053	0.105	196106	keystroke_b	b	n/a
98.3975	0.015	196795	keystroke_o	o	n/a
98.518	0.1055	197036	keystroke_o	o	n/a
98.6985	0.09	197397	keystroke_t	t	n/a
98.833	0.135	197666	keystroke_h	h	n/a
99.0135	0.164	198027	keystroke_Key.space	Key.space	n/a
99.3125	0.091	198625	keystroke_h	h	n/a
99.613	0.075	199226	keystroke_i	i	n/a
99.8225	0.0605	199645	keystroke_l	l	n/a
99.958	0.105	199916	keystroke_l	l	n/a
100.108	0.0595	200216	keystroke_s	s	n/a
100.2275	0.0905	200455	keystroke_Key.enter	Key.enter	n/a
100.322	14.3975	200644	prompt	n/a	theta occurrence opponents controlling\n
101.308	0.09	202616	keystroke_t	t	n/a
101.473	0.105	202946	keystroke_h	h	n/a
101.6385	0.0895	203277	keystroke_e	e	n/a
101.773	0.105	203546	keystroke_t	t	n/a
101.938	0.0755	203876	keystroke_a	a	n/a
102.073	0.1205	204146	keystroke_Key.space	Key.space	n/a
102.3135	0.105	204627	keystroke_o	o	n/a
102.5225	0.0605	205045	keystroke_c	c	n/a
102.6425	0.105	205285	keystroke_c	c	n/a
102.808	0.09	205616	keystroke_u	u	n/a
102.928	0.076	205856	keystroke_r	r	n/a
103.0935	0.0595	206187	keystroke_e	e	n/a
103.1975	0.075	206395	keystroke_n	n	n/a
103.288	0.0905	206576	keystroke_c	c	n/a
103.483	0.06	206966	keystroke_e	e	n/a
103.5725	0.136	207145	keystroke_Key.space	Key.space	n/a
103.8725	0.106	207745	keystroke_o	o	n/a
104.1135	0.06	208227	keystroke_p	p	n/a
104.248	0.135	208496	keystroke_p	p	n/a
104.5485	0.075	209097	keystroke_o	o	n/a
104.9525	0.061	209905	keystroke_n	n	n/a
105.1175	0.06	210235	keystroke_e	e	n/a
105.1925	0.06	210385	keystroke_n	n	n/a
105.3425	0.105	210685	keystroke_t	t	n/a
105.463	0.105	210926	keystroke_Key.space	Key.space	n/a
108.1175	0.06	216235	keystroke_Key.backspace	Key.backspace	n/a
108.2825	0.0455	216565	keystroke_Key.backspace	Key.backspace	n/a
108.418	0.045	216836	keystroke_Key.backspace	Key.backspace	n/a
108.5525	0.045	217105	keystroke_Key.backspace	Key.backspace	n/a
108.703	0.045	217406	keystroke_Key.backspace	Key.backspace	n/a
108.823	0.06	217646	keystroke_Key.backspace	Key.backspace	n/a
108.958	0.0755	217916	keystroke_Key.backspace	Key.backspace	n/a
109.2735	0.074	218547	keystroke_Key.backspace	Key.backspace	n/a
110.113	0.06	220226	keystroke_r	r	n/a
110.263	0.075	220526	keystroke_e	e	n/a
110.398	0.09	220796	keystroke_n	n	n/a
110.503	0.075	221006	keystroke_c	c	n/a
110.6985	0.0445	221397	keystroke_e	e	n/a
110.818	0.1195	221636	keystroke_Key.space	Key.space	n/a
111.4025	0.06	222805	keystroke_o	o	n/a
111.583	0.0605	223166	keystroke_p	p	n/a
111.718	0.0745	223436	keystroke_p	p	n/a
111.8835	0.075	223767	keystroke_o	o	n/a
112.1085	0.0745	224217	keystroke_n	n	n/a
112.273	0.06	224546	keystroke_e	e	n/a
112.363	0.075	224726	keystroke_n	n	n/a
112.4825	0.0755	224965	keystroke_t	t	n/a
112.7225	0.0605	225445	keystroke_s	s	n/a
112.842	0.09	225684	keystroke_Key.space	Key.space	n/a
113.083	0.075	226166	keystroke_c	c	n/a
113.203	0.15	226406	keystroke_o	o	n/a
113.263	0.1505	226526	keystroke_n	n	n/a
113.4285	0.0595	226857	keystroke_t	t	n/a
113.593	0.045	227186	keystroke_r	r	n/a
113.6535	0.0445	227307	keystroke_o	o	n/a
113.848	0.045	227696	keystroke_l	l	n/a
113.9835	0.06	227967	keystroke_l	l	n/a
114.1775	0.1655	228355	keystroke_i	i	n/a
114.2385	0.1495	228477	keystroke_n	n	n/a
114.328	0.09	228656	keystroke_g	g	n/a
114.628	0.09	229256	keystroke_Key.enter	Key.enter	n/a
114.724	5.726	229448	prompt	n/a	wool that's year tribe\n
115.7235	0.0595	231447	keystroke_w	w	n/a
115.8425	0.076	231685	keystroke_o	o	n/a
116.008	0.0895	232016	keystroke_o	o	n/a
116.188	0.0905	232376	keystroke_l	l	n/a
116.398	0.12	232796	keystroke_Key.space	Key.space	n/a
116.743	0.075	233486	keystroke_t	t	n/a
116.8785	0.06	233757	keystroke_h	h	n/a
117.013	0.0605	234026	keystroke_a	a	n/a
117.088	0.075	234176	keystroke_t	t	n/a
117.4175	0.061	234835	keystroke_'	'	n/a
117.5535	0.06	235107	keystroke_s	s	n/a
117.6275	0.091	235255	keystroke_Key.space	Key.space	n/a
117.8075	0.0765	235615	keystroke_y	y	n/a
117.8525	0.121	235705	keystroke_e	e	n/a
118.168	0.075	236336	keystroke_a	a	n/a
118.213	0.075	236426	keystroke_r	r	n/a
118.378	0.1195	236756	keystroke_Key.space	Key.space	n/a
118.7235	0.074	237447	keystroke_t	t	n/a
118.8725	0.09	237745	keystroke_r	r	n/a
119.0075	0.075	238015	keystroke_i	i	n/a
119.2185	0.0745	238437	keystroke_b	b	n/a
119.2485	0.015	238497	keystroke_v	v	n/a
119.383	0.06	238766	keystroke_e	e	n/a
119.953	0.045	239906	keystroke_Key.backspace	Key.backspace	n/a
120.088	0.075	240176	keystroke_Key.backspace	Key.backspace	n/a
120.238	0.0755	240476	keystroke_e	e	n/a
120.3725	0.0755	240745	keystroke_Key.enter	Key.enter	n/a
120.4555	10.059	240911	prompt	n/a	agent fruit sells examinations\n
121.168	0.06	242336	keystroke_a	a	n/a
121.2875	0.0905	242575	keystroke_g	g	n/a
121.4375	0.076	242875	keystroke_e	e	n/a
121.529	0.09	243058	keystroke_n	n	n/a
121.664	0.0895	243328	keystroke_t	t	n/a
121.7385	0.105	243477	keystroke_Key.space	Key.space	n/a
121.8735	0.104	243747	keystroke_f	f	n/a
122.0825	0.046	244165	keystroke_r	r	n/a
122.2175	0.0755	244435	keystroke_u	u	n/a
122.368	0.075	244736	keystroke_i	i	n/a
122.444	0.074	244888	keystroke_t	t	n/a
122.563	0.105	245126	keystroke_Key.space	Key.space	n/a
122.698	0.1045	245396	keystroke_s	s	n/a
122.879	0.059	245758	keystroke_e	e	n/a
123.0135	0.0595	246027	keystroke_l	l	n/a
123.148	0.12	246296	keystroke_l	l	n/a
123.328	0.0595	246656	keystroke_s	s	n/a
123.4625	0.1055	246925	keystroke_Key.space	Key.space	n/a
123.5835	0.0595	247167	keystroke_s	s	n/a
124.0035	0.0745	248007	keystroke_=	=	n/a
124.1985	0.059	248397	keystroke_e	e	n/a
124.3785	0.0745	248757	keystroke_x	x	n/a
124.5735	0.06	249147	keystroke_a	a	n/a
124.7235	0.059	249447	keystroke_m	m	n/a
125.278	0.0595	250556	keystroke_Key.backspace	Key.backspace	n/a
125.4125	0.06	250825	keystroke_Key.backspace	Key.backspace	n/a
125.5775	0.045	251155	keystroke_Key.backspace	Key.backspace	n/a
125.6975	0.0605	251395	keystroke_Key.backspace	Key.backspace	n/a
125.8485	0.03	251697	keystroke_Key.backspace	Key.backspace	n/a
125.9525	0.03	251905	keystroke_Key.backspace	Key.backspace	n/a
126.253	0.0605	252506	keystroke_e	e	n/a
126.508	0.0895	253016	keystroke_x	x	n/a
126.7475	0.046	253495	keystroke_a	a	n/a
126.883	0.0755	253766	keystroke_m	m	n/a
127.1385	0.0895	254277	keystroke_i	i	n/a
127.2425	0.105	254485	keystroke_n	n	n/a
127.4085	0.074	254817	keystroke_a	a	n/a
127.708	0.045	255416	keystroke_t	t	n/a
127.978	0.06	255956	keystroke_o	o	n/a
129.253	0.075	258506	keystroke_Key.backspace	Key.backspace	n/a
129.553	0.0605	259106	keystroke_i	i	n/a
129.7335	0.135	259467	keystroke_o	o	n/a
129.8385	0.105	259677	keystroke_n	n	n/a
130.2885	0.091	260577	keystroke_s	s	n/a
130.4385	0.0745	260877	keystroke_Key.enter	Key.enter	n/a
130.5185	9.611	261037	prompt	n/a	samuel oecd tune dubai\n
131.293	0.06	262586	keystroke_d	d	n/a
131.6985	0.09	263397	keystroke_Key.backspace	Key.backspace	n/a
132.0435	0.06	264087	keystroke_s	s	n/a
132.2075	0.121	264415	keystroke_a	a	n/a
132.268	0.0745	264536	keystroke_m	m	n/a
132.4785	0.074	264957	keystroke_u	u	n/a
132.6575	0.0455	265315	keystroke_e	e	n/a
132.748	0.0905	265496	keystroke_l	l	n/a
132.9135	0.105	265827	keystroke_Key.space	Key.space	n/a
133.213	0.06	266426	keystroke_o	o	n/a
133.7535	0.1045	267507	keystroke_Key.backspace	Key.backspace	n/a
134.249	0.0585	268498	keystroke_o	o	n/a
134.368	0.061	268736	keystroke_e	e	n/a
134.549	0.104	269098	keystroke_c	c	n/a
134.7735	0.0595	269547	keystroke_d	d	n/a
134.893	0.1055	269786	keystroke_Key.space	Key.space	n/a
135.2835	0.0595	270567	keystroke_t	t	n/a
135.388	0.15	270776	keystroke_u	u	n/a
135.493	0.075	270986	keystroke_n	n	n/a
135.5985	0.03	271197	keystroke_e	e	n/a
137.188	0.075	274376	keystroke_Key.space	Key.space	n/a
138.298	0.075	276596	keystroke_d	d	n/a
138.417	0.1665	276834	keystroke_u	u	n/a
138.4935	0.15	276987	keystroke_b	b	n/a
138.6575	0.061	277315	keystroke_a	a	n/a
138.778	0.0905	277556	keystroke_u	u	n/a
139.393	0.0305	278786	keystroke_Key.backspace	Key.backspace	n/a
139.873	0.075	279746	keystroke_i	i	n/a
140.0685	0.06	280137	keystroke_Key.enter	Key.enter	n/a
140.134	7.3005	280268	prompt	n/a	ain't surrey referrals huge\n
140.893	0.09	281786	keystroke_a	a	n/a
141.0135	0.12	282027	keystroke_i	i	n/a
141.0735	0.0895	282147	keystroke_n	n	n/a
141.958	0.0755	283916	keystroke_'	'	n/a
142.1075	0.061	284215	keystroke_t	t	n/a
142.3025	0.09	284605	keystroke_Key.space	Key.space	n/a
142.7225	0.1055	285445	keystroke_s	s	n/a
142.8425	0.075	285685	keystroke_u	u	n/a
143.0075	0.076	286015	keystroke_r	r	n/a
143.158	0.105	286316	keystroke_r	r	n/a
143.3535	0.1045	286707	keystroke_e	e	n/a
143.428	0.091	286856	keystroke_y	y	n/a
143.5785	0.15	287157	keystroke_Key.space	Key.space	n/a
143.8185	0.075	287637	keystroke_r	r	n/a
143.9535	0.0895	287907	keystroke_e	e	n/a
144.178	0.09	288356	keystroke_f	f	n/a
144.3885	0.06	288777	keystroke_e	e	n/a
144.553	0.0595	289106	keystroke_r	r	n/a
144.703	0.0605	289406	keystroke_r	r	n/a
144.914	0.075	289828	keystroke_a	a	n/a
145.0185	0.0745	290037	keystroke_l	l	n/a
145.168	0.06	290336	keystroke_s	s	n/a
145.2885	0.0895	290577	keystroke_Key.space	Key.space	n/a
145.6785	0.06	291357	keystroke_j	j	n/a
146.368	0.09	292736	keystroke_Key.backspace	Key.backspace	n/a
146.7135	0.0755	293427	keystroke_h	h	n/a
146.878	0.0745	293756	keystroke_u	u	n/a
147.0575	0.075	294115	keystroke_g	g	n/a
147.1775	0.06	294355	keystroke_e	e	n/a
147.358	0.075	294716	keystroke_Key.enter	Key.enter	n/a
147.44	4.6315	294880	prompt	n/a	plane asking moms early\n
148.213	0.1195	296426	keystroke_p	p	n/a
148.288	0.1055	296576	keystroke_l	l	n/a
148.469	0.1045	296938	keystroke_a	a	n/a
148.6175	0.0755	297235	keystroke_n	n	n/a
148.738	0.0595	297476	keystroke_e	e	n/a
148.828	0.1045	297656	keystroke_Key.space	Key.space	n/a
149.1725	0.0755	298345	keystroke_a	a	n/a
149.383	0.06	298766	keystroke_s	s	n/a
149.773	0.075	299546	keystroke_k	k	n/a
149.953	0.135	299906	keystroke_i	i	n/a
150.029	0.119	300058	keystroke_n	n	n/a
150.118	0.06	300236	keystroke_g	g	n/a
150.268	0.0595	300536	keystroke_Key.space	Key.space	n/a
150.4475	0.09	300895	keystroke_m	m	n/a
150.6275	0.1805	301255	keystroke_o	o	n/a
150.748	0.135	301496	keystroke_m	m	n/a
150.868	0.06	301736	keystroke_s	s	n/a
150.988	0.105	301976	keystroke_Key.space	Key.space	n/a
151.123	0.09	302246	keystroke_e	e	n/a
151.318	0.105	302636	keystroke_a	a	n/a
151.5585	0.089	303117	keystroke_r	r	n/a
151.6635	0.105	303327	keystroke_l	l	n/a
151.8435	0.0745	303687	keystroke_y	y	n/a
151.9785	0.0895	303957	keystroke_Key.enter	Key.enter	n/a
152.0835	6.391	304167	prompt	n/a	sell largest twist ferrari\n
152.7285	0.09	305457	keystroke_s	s	n/a
152.908	0.09	305816	keystroke_e	e	n/a
153.073	0.061	306146	keystroke_l	l	n/a
153.208	0.105	306416	keystroke_l	l	n/a
153.4775	0.09	306955	keystroke_Key.space	Key.space	n/a
154.093	0.106	308186	keystroke_l	l	n/a
154.303	0.106	308606	keystroke_a	a	n/a
154.5425	0.046	309085	keystroke_r	r	n/a
154.6335	0.09	309267	keystroke_g	g	n/a
154.7385	0.09	309477	keystroke_e	e	n/a
154.9185	0.075	309837	keystroke_s	s	n/a
154.948	0.1055	309896	keystroke_t	t	n/a
155.113	0.105	310226	keystroke_Key.space	Key.space	n/a
155.3235	0.0595	310647	keystroke_t	t	n/a
156.1775	0.0605	312355	keystroke_w	w	n/a
156.343	0.06	312686	keystroke_i	i	n/a
156.478	0.075	312956	keystroke_s	s	n/a
156.643	0.09	313286	keystroke_t	t	n/a
156.793	0.15	313586	keystroke_Key.space	Key.space	n/a
156.9135	0.1195	313827	keystroke_f	f	n/a
157.138	0.075	314276	keystroke_e	e	n/a
157.348	0.0455	314696	keystroke_r	r	n/a
157.4675	0.0755	314935	keystroke_r	r	n/a
157.7235	0.0905	315447	keystroke_a	a	n/a
157.993	0.045	315986	keystroke_r	r	n/a
158.083	0.09	316166	keystroke_i	i	n/a
158.3835	0.089	316767	keystroke_Key.enter	Key.enter	n/a
158.48	10.21	316960	prompt	n/a	invention ebooks carefully multimedia\n
159.4335	0.1345	318867	keystroke_i	i	n/a
159.4935	0.1345	318987	keystroke_n	n	n/a
159.6425	0.076	319285	keystroke_v	v	n/a
159.8535	0.075	319707	keystroke_e	e	n/a
159.9435	0.089	319887	keystroke_n	n	n/a
160.093	0.0755	320186	keystroke_t	t	n/a
160.2575	0.091	320515	keystroke_i	i	n/a
160.4385	0.165	320877	keystroke_o	o	n/a
160.5425	0.136	321085	keystroke_n	n	n/a
160.7535	0.149	321507	keystroke_Key.space	Key.space	n/a
161.083	0.09	322166	keystroke_e	e	n/a
161.368	0.09	322736	keystroke_b	b	n/a
161.5185	0.0595	323037	keystroke_o	o	n/a
161.653	0.1055	323306	keystroke_o	o	n/a
161.848	0.105	323696	keystroke_k	k	n/a
161.983	0.075	323966	keystroke_s	s	n/a
162.073	0.105	324146	keystroke_Key.space	Key.space	n/a
162.433	0.09	324866	keystroke_c	c	n/a
162.688	0.06	325376	keystroke_a	a	n/a
162.973	0.045	325946	keystroke_r	r	n/a
163.108	0.075	326216	keystroke_e	e	n/a
163.318	0.091	326636	keystroke_f	f	n/a
163.423	0.075	326846	keystroke_u	u	n/a
163.648	0.0455	327296	keystroke_l	l	n/a
163.783	0.075	327566	keystroke_l	l	n/a
163.873	0.06	327746	keystroke_y	y	n/a
163.963	0.12	327926	keystroke_Key.space	Key.space	n/a
164.219	0.059	328438	keystroke_m	m	n/a
165.0735	0.06	330147	keystroke_i	i	n/a
165.2375	0.077	330475	keystroke_l	l	n/a
165.374	0.0445	330748	keystroke_t	t	n/a
166.544	0.0595	333088	keystroke_Key.backspace	Key.backspace	n/a
166.6935	0.045	333387	keystroke_Key.backspace	Key.backspace	n/a
166.813	0.045	333626	keystroke_Key.backspace	Key.backspace	n/a
167.383	0.0755	334766	keystroke_u	u	n/a
167.593	0.075	335186	keystroke_l	l	n/a
167.683	0.061	335366	keystroke_t	t	n/a
167.818	0.105	335636	keystroke_i	i	n/a
167.878	0.121	335756	keystroke_m	m	n/a
168.058	0.0755	336116	keystroke_e	e	n/a
168.2235	0.0745	336447	keystroke_d	d	n/a
168.343	0.075	336686	keystroke_i	i	n/a
168.478	0.075	336956	keystroke_a	a	n/a
168.5985	0.09	337197	keystroke_Key.enter	Key.enter	n/a
168.6975	7.822	337395	prompt	n/a	looking archives liked reported\n
169.3485	0.075	338697	keystroke_l	l	n/a
169.5425	0.0605	339085	keystroke_o	o	n/a
169.6775	0.09	339355	keystroke_o	o	n/a
169.8735	0.059	339747	keystroke_k	k	n/a
170.0385	0.1195	340077	keystroke_i	i	n/a
170.098	0.1195	340196	keystroke_n	n	n/a
170.128	0.1055	340256	keystroke_g	g	n/a
170.278	0.1195	340556	keystroke_Key.space	Key.space	n/a
170.4135	0.105	340827	keystroke_a	a	n/a
170.6685	0.045	341337	keystroke_r	r	n/a
170.8335	0.075	341667	keystroke_c	c	n/a
170.9235	0.075	341847	keystroke_h	h	n/a
171.1035	0.089	342207	keystroke_i	i	n/a
171.3435	0.0745	342687	keystroke_v	v	n/a
171.433	0.09	342866	keystroke_e	e	n/a
171.598	0.09	343196	keystroke_s	s	n/a
171.733	0.105	343466	keystroke_Key.space	Key.space	n/a
171.928	0.09	343856	keystroke_a	a	n/a
173.0835	0.075	346167	keystroke_Key.backspace	Key.backspace	n/a
173.4585	0.075	346917	keystroke_l	l	n/a
173.668	0.045	347336	keystroke_i	i	n/a
173.803	0.075	347606	keystroke_k	k	n/a
173.848	0.0755	347696	keystroke_e	e	n/a
174.0125	0.0905	348025	keystroke_d	d	n/a
174.058	0.075	348116	keystroke_Key.space	Key.space	n/a
174.2085	0.0905	348417	keystroke_r	r	n/a
174.3735	0.0595	348747	keystroke_e	e	n/a
174.5835	0.029	349167	keystroke_o	o	n/a
174.7025	0.091	349405	keystroke_i	i	n/a
175.1225	0.0445	350245	keystroke_Key.backspace	Key.backspace	n/a
175.257	0.076	350514	keystroke_Key.backspace	Key.backspace	n/a
175.498	0.09	350996	keystroke_p	p	n/a
175.678	0.0755	351356	keystroke_o	o	n/a
175.768	0.06	351536	keystroke_r	r	n/a
175.903	0.105	351806	keystroke_t	t	n/a
176.128	0.075	352256	keystroke_e	e	n/a
176.308	0.09	352616	keystroke_d	d	n/a
176.428	0.09	352856	keystroke_Key.enter	Key.enter	n/a
176.5295	5.645	353059	prompt	n/a	worthy shade linked machine\n
177.239	0.104	354478	keystroke_w	w	n/a
177.358	0.09	354716	keystroke_o	o	n/a
177.538	0.09	355076	keystroke_r	r	n/a
177.7025	0.09	355405	keystroke_t	t	n/a
177.8375	0.061	355675	keystroke_h	h	n/a
177.9875	0.075	355975	keystroke_y	y	n/a
178.1225	0.15	356245	keystroke_Key.space	Key.space	n/a
178.4075	0.075	356815	keystroke_s	s	n/a
178.5275	0.0605	357055	keystroke_h	h	n/a
178.6335	0.0895	357267	keystroke_a	a	n/a
178.858	0.0755	357716	keystroke_d	d	n/a
179.0235	0.075	358047	keystroke_e	e	n/a
179.143	0.105	358286	keystroke_Key.space	Key.space	n/a
179.5785	0.03	359157	keystroke_l	l	n/a
180.1775	0.12	360355	keystroke_i	i	n/a
180.313	0.1795	360626	keystroke_n	n	n/a
180.4185	0.1345	360837	keystroke_k	k	n/a
180.5675	0.075	361135	keystroke_e	e	n/a
180.748	0.091	361496	keystroke_d	d	n/a
180.853	0.105	361706	keystroke_Key.space	Key.space	n/a
181.018	0.1055	362036	keystroke_m	m	n/a
181.183	0.09	362366	keystroke_a	a	n/a
181.423	0.075	362846	keystroke_c	c	n/a
181.513	0.06	363026	keystroke_h	h	n/a
181.693	0.15	363386	keystroke_i	i	n/a
181.783	0.1505	363566	keystroke_n	n	n/a
181.918	0.0755	363836	keystroke_e	e	n/a
182.068	0.105	364136	keystroke_Key.enter	Key.enter	n/a
182.178	6.0115	364356	prompt	n/a	antique farmers monetary able\n
182.789	0.1045	365578	keystroke_a	a	n/a
182.939	0.0895	365878	keystroke_n	n	n/a
183.1635	0.074	366327	keystroke_t	t	n/a
183.2835	0.074	366567	keystroke_i	i	n/a
183.4775	0.061	366955	keystroke_q	q	n/a
183.5985	0.075	367197	keystroke_u	u	n/a
183.7335	0.0745	367467	keystroke_e	e	n/a
183.867	0.09	367734	keystroke_Key.space	Key.space	n/a
184.2435	0.06	368487	keystroke_f	f	n/a
184.4675	0.076	368935	keystroke_a	a	n/a
184.7075	0.061	369415	keystroke_r	r	n/a
184.798	0.0755	369596	keystroke_m	m	n/a
184.8885	0.09	369777	keystroke_e	e	n/a
185.0535	0.0895	370107	keystroke_r	r	n/a
185.2475	0.0605	370495	keystroke_s	s	n/a
185.3375	0.12	370675	keystroke_Key.space	Key.space	n/a
185.5325	0.1055	371065	keystroke_m	m	n/a
185.7885	0.149	371577	keystroke_o	o	n/a
185.8635	0.165	371727	keystroke_n	n	n/a
186.0725	0.045	372145	keystroke_e	e	n/a
186.208	0.09	372416	keystroke_t	t	n/a
186.373	0.105	372746	keystroke_a	a	n/a
186.6285	0.0595	373257	keystroke_r	r	n/a
186.703	0.075	373406	keystroke_y	y	n/a
186.8535	0.1345	373707	keystroke_Key.space	Key.space	n/a
187.3475	0.0905	374695	keystroke_a	a	n/a
187.5725	0.075	375145	keystroke_b	b	n/a
187.7835	0.089	375567	keystroke_l	l	n/a
187.9485	0.0445	375897	keystroke_e	e	n/a
188.098	0.09	376196	keystroke_Key.enter	Key.enter	n/a
188.1935	7.031	376387	prompt	n/a	reel throw persistent gotta\n
188.9975	0.076	377995	keystroke_r	r	n/a
189.1775	0.0755	378355	keystroke_e	e	n/a
189.328	0.09	378656	keystroke_e	e	n/a
189.448	0.075	378896	keystroke_l	l	n/a
189.6125	0.075	379225	keystroke_Key.space	Key.space	n/a
189.704	0.074	379408	keystroke_t	t	n/a
189.808	0.09	379616	keystroke_h	h	n/a
189.914	0.0895	379828	keystroke_r	r	n/a
190.048	0.075	380096	keystroke_o	o	n/a
190.228	0.0895	380456	keystroke_w	w	n/a
190.3625	0.105	380725	keystroke_Key.space	Key.space	n/a
190.6035	0.089	381207	keystroke_p	p	n/a
190.9025	0.0755	381805	keystroke_r	r	n/a
191.2485	0.075	382497	keystroke_=	=	n/a
191.5475	0.0455	383095	keystroke_Key.backspace	Key.backspace	n/a
191.833	0.1045	383666	keystroke_Key.backspace	Key.backspace	n/a
192.2975	0.06	384595	keystroke_e	e	n/a
192.4625	0.0755	384925	keystroke_r	r	n/a
192.673	0.075	385346	keystroke_s	s	n/a
192.793	0.105	385586	keystroke_i	i	n/a
192.913	0.075	385826	keystroke_s	s	n/a
193.2585	0.0445	386517	keystroke_t	t	n/a
193.4375	0.0755	386875	keystroke_e	e	n/a
193.573	0.09	387146	keystroke_n	n	n/a
193.709	0.074	387418	keystroke_t	t	n/a
193.843	0.104	387686	keystroke_Key.space	Key.space	n/a
194.3235	0.0595	388647	keystroke_g	g	n/a
194.4125	0.075	388825	keystroke_o	o	n/a
194.548	0.0755	389096	keystroke_t	t	n/a
194.713	0.09	389426	keystroke_t	t	n/a
194.983	0.09	389966	keystroke_a	a	n/a
195.133	0.09	390266	keystroke_Key.enter	Key.enter	n/a
195.229	7.8855	390458	prompt	n/a	learning hockey combining pillow\n
195.9575	0.076	391915	keystroke_l	l	n/a
196.2435	0.0595	392487	keystroke_e	e	n/a
196.4225	0.0755	392845	keystroke_a	a	n/a
196.663	0.061	393326	keystroke_r	r	n/a
196.7525	0.061	393505	keystroke_n	n	n/a
196.904	0.135	393808	keystroke_i	i	n/a
196.9775	0.076	393955	keystroke_n	n	n/a
197.0395	0.0585	394079	keystroke_g	g	n/a
197.1425	0.1055	394285	keystroke_Key.space	Key.space	n/a
197.383	0.06	394766	keystroke_j	j	n/a
197.728	0.045	395456	keystroke_Key.backspace	Key.backspace	n/a
197.998	0.09	395996	keystroke_h	h	n/a
198.2235	0.0745	396447	keystroke_o	o	n/a
198.3885	0.09	396777	keystroke_c	c	n/a
198.5085	0.075	397017	keystroke_k	k	n/a
198.6575	0.0455	397315	keystroke_e	e	n/a
198.7785	0.105	397557	keystroke_y	y	n/a
198.9575	0.121	397915	keystroke_Key.space	Key.space	n/a
199.4535	0.0745	398907	keystroke_c	c	n/a
199.573	0.1495	399146	keystroke_o	o	n/a
199.6335	0.135	399267	keystroke_m	m	n/a
199.8135	0.0745	399627	keystroke_b	b	n/a
199.9185	0.1205	399837	keystroke_i	i	n/a
200.023	0.0895	400046	keystroke_n	n	n/a
200.203	0.135	400406	keystroke_i	i	n/a
200.293	0.12	400586	keystroke_n	n	n/a
200.3835	0.0595	400767	keystroke_g	g	n/a
200.5325	0.0905	401065	keystroke_Key.space	Key.space	n/a
200.743	0.0605	401486	keystroke_p	p	n/a
200.953	0.0605	401906	keystroke_u	u	n/a
201.194	0.0595	402388	keystroke_l	l	n/a
201.508	0.075	403016	keystroke_Key.backspace	Key.backspace	n/a
201.658	0.06	403316	keystroke_Key.backspace	Key.backspace	n/a
202.228	0.0745	404456	keystroke_i	i	n/a
202.4075	0.06	404815	keystroke_l	l	n/a
202.6475	0.016	405295	keystroke_l	l	n/a
202.723	0.106	405446	keystroke_o	o	n/a
202.933	0.06	405866	keystroke_w	w	n/a
203.038	0.075	406076	keystroke_Key.enter	Key.enter	n/a
203.1185	6.266	406237	prompt	n/a	friendship rank there's if\n
203.983	0.075	407966	keystroke_f	f	n/a
204.163	0.075	408326	keystroke_r	r	n/a
204.388	0.0905	408776	keystroke_i	i	n/a
204.553	0.06	409106	keystroke_e	e	n/a
204.703	0.09	409406	keystroke_n	n	n/a
204.8685	0.0745	409737	keystroke_d	d	n/a
205.0635	0.0905	410127	keystroke_s	s	n/a
205.139	0.0895	410278	keystroke_h	h	n/a
205.4085	0.0745	410817	keystroke_i	i	n/a
205.618	0.0595	411236	keystroke_p	p	n/a
205.8135	0.0895	411627	keystroke_Key.space	Key.space	n/a
206.1885	0.075	412377	keystroke_r	r	n/a
206.4135	0.089	412827	keystroke_a	a	n/a
206.5335	0.1645	413067	keystroke_n	n	n/a
206.6075	0.1355	413215	keystroke_k	k	n/a
206.848	0.12	413696	keystroke_Key.space	Key.space	n/a
206.983	0.076	413966	keystroke_t	t	n/a
207.118	0.09	414236	keystroke_h	h	n/a
207.238	0.1205	414476	keystroke_e	e	n/a
207.463	0.075	414926	keystroke_r	r	n/a
207.613	0.0895	415226	keystroke_e	e	n/a
207.868	0.075	415736	keystroke_'	'	n/a
208.018	0.0755	416036	keystroke_s	s	n/a
208.1535	0.105	416307	keystroke_Key.space	Key.space	n/a
209.0075	0.091	418015	keystroke_i	i	n/a
209.1135	0.06	418227	keystroke_f	f	n/a
209.2785	0.104	418557	keystroke_Key.enter	Key.enter	n/a
209.399	19.47	418798	prompt	n/a	complimentary visits cdna bibliography\n
210.1335	0.09	420267	keystroke_c	c	n/a
210.2675	0.181	420535	keystroke_o	o	n/a
210.358	0.1355	420716	keystroke_m	m	n/a
210.5985	0.12	421197	keystroke_p	p	n/a
210.6575	0.0905	421315	keystroke_l	l	n/a
210.8985	0.075	421797	keystroke_i	i	n/a
211.124	0.075	422248	keystroke_m	m	n/a
211.213	0.106	422426	keystroke_e	e	n/a
211.3935	0.075	422787	keystroke_n	n	n/a
211.5885	0.0745	423177	keystroke_t	t	n/a
211.8425	0.0905	423685	keystroke_a	a	n/a
212.0825	0.061	424165	keystroke_r	r	n/a
212.189	0.104	424378	keystroke_y	y	n/a
212.383	0.12	424766	keystroke_Key.space	Key.space	n/a
212.8485	0.075	425697	keystroke_v	v	n/a
213.0275	0.106	426055	keystroke_i	i	n/a
213.1485	0.045	426297	keystroke_s	s	n/a
213.2985	0.0895	426597	keystroke_s	s	n/a
213.388	0.0755	426776	keystroke_i	i	n/a
213.5825	0.0455	427165	keystroke_t	t	n/a
213.8075	0.061	427615	keystroke_s	s	n/a
213.9275	0.09	427855	keystroke_Key.space	Key.space	n/a
214.2435	0.089	428487	keystroke_c	c	n/a
214.4225	0.0755	428845	keystroke_d	d	n/a
214.5585	0.0745	429117	keystroke_n	n	n/a
214.693	0.0595	429386	keystroke_a	a	n/a
214.8725	0.09	429745	keystroke_Key.space	Key.space	n/a
215.638	0.0595	431276	keystroke_b	b	n/a
215.8035	0.089	431607	keystroke_i	i	n/a
216.043	0.0605	432086	keystroke_b	b	n/a
216.1175	0.076	432235	keystroke_l	l	n/a
216.328	0.0905	432656	keystroke_i	i	n/a
216.838	0.225	433676	keystroke_Key.backspace	Key.backspace	n/a
217.169	0.059	434338	keystroke_Key.backspace	Key.backspace	n/a
217.3175	0.075	434635	keystroke_Key.backspace	Key.backspace	n/a
217.483	0.0455	434966	keystroke_Key.backspace	Key.backspace	n/a
217.6175	0.0455	435235	keystroke_Key.backspace	Key.backspace	n/a
217.738	0.075	435476	keystroke_Key.backspace	Key.backspace	n/a
217.858	0.06	435716	keystroke_Key.backspace	Key.backspace	n/a
217.963	0.0745	435926	keystroke_Key.backspace	Key.backspace	n/a
218.1435	0.045	436287	keystroke_Key.backspace	Key.backspace	n/a
218.2775	0.0605	436555	keystroke_Key.backspace	Key.backspace	n/a
218.4125	0.045	436825	keystroke_Key.backspace	Key.backspace	n/a
218.518	0.0295	437036	keystroke_Key.backspace	Key.backspace	n/a
218.6375	0.045	437275	keystroke_Key.backspace	Key.backspace	n/a
218.7735	0.075	437547	keystroke_Key.backspace	Key.backspace	n/a
219.1625	0.06	438325	keystroke_Key.backspace	Key.backspace	n/a
219.5385	0.0745	439077	keystroke_i	i	n/a
219.778	0.045	439556	keystroke_t	t	n/a
219.958	0.075	439916	keystroke_s	s	n/a
220.153	0.075	440306	keystroke_Key.space	Key.space	n/a
220.7985	0.06	441597	keystroke_c	c	n/a
220.9635	0.075	441927	keystroke_d	d	n/a
221.1135	0.06	442227	keystroke_n	n	n/a
221.2185	0.075	442437	keystroke_a	a	n/a
221.353	0.105	442706	keystroke_Key.space	Key.space	n/a
222.0885	0.074	444177	keystroke_b	b	n/a
222.268	0.09	444536	keystroke_i	i	n/a
222.4935	0.06	444987	keystroke_b	b	n/a
222.5825	0.075	445165	keystroke_l	l	n/a
222.7625	0.09	445525	keystroke_i	i	n/a
222.9275	0.0755	445855	keystroke_o	o	n/a
223.1075	0.0755	446215	keystroke_p	p	n/a
223.5435	0.0745	447087	keystroke_g	g	n/a
223.6935	0.0595	447387	keystroke_r	r	n/a
223.888	0.075	447776	keystroke_a	a	n/a
224.083	0.06	448166	keystroke_h	h	n/a
224.293	0.0745	448586	keystroke_y	y	n/a
224.473	0.105	448946	keystroke_Key.space	Key.space	n/a
224.968	0.045	449936	keystroke_Key.backspace	Key.backspace	n/a
225.103	0.0455	450206	keystroke_Key.backspace	Key.backspace	n/a
225.253	0.045	450506	keystroke_Key.backspace	Key.backspace	n/a
226.9485	0.0595	453897	keystroke_p	p	n/a
227.173	0.0745	454346	keystroke_h	h	n/a
227.293	0.075	454586	keystroke_y	y	n/a
228.808	0.0595	457616	keystroke_Key.enter	Key.enter	n/a
228.8845	7.965	457769	prompt	n/a	succeed third declaration sleep\n
229.753	0.06	459506	keystroke_s	s	n/a
229.9035	0.044	459807	keystroke_u	u	n/a
230.0235	0.075	460047	keystroke_c	c	n/a
230.2785	0.059	460557	keystroke_e	e	n/a
230.443	0.0905	460886	keystroke_e	e	n/a
230.6675	0.0455	461335	keystroke_d	d	n/a
230.7875	0.09	461575	keystroke_Key.space	Key.space	n/a
231.1175	0.06	462235	keystroke_t	t	n/a
231.2225	0.0755	462445	keystroke_h	h	n/a
231.403	0.0745	462806	keystroke_i	i	n/a
231.4935	0.089	462987	keystroke_r	r	n/a
231.6735	0.0755	463347	keystroke_d	d	n/a
231.793	0.1045	463586	keystroke_Key.space	Key.space	n/a
232.0485	0.0895	464097	keystroke_d	d	n/a
232.2725	0.045	464545	keystroke_e	e	n/a
232.6935	0.0745	465387	keystroke_c	c	n/a
232.8135	0.09	465627	keystroke_l	l	n/a
232.993	0.0455	465986	keystroke_a	a	n/a
233.2185	0.0445	466437	keystroke_r	r	n/a
233.4285	0.074	466857	keystroke_a	a	n/a
233.848	0.045	467696	keystroke_i	i	n/a
234.2075	0.09	468415	keystroke_Key.backspace	Key.backspace	n/a
234.613	0.075	469226	keystroke_t	t	n/a
234.793	0.091	469586	keystroke_i	i	n/a
234.9735	0.165	469947	keystroke_o	o	n/a
235.0775	0.1355	470155	keystroke_n	n	n/a
235.3335	0.119	470667	keystroke_Key.space	Key.space	n/a
235.8125	0.091	471625	keystroke_s	s	n/a
236.0375	0.075	472075	keystroke_l	l	n/a
236.2925	0.0605	472585	keystroke_e	e	n/a
236.458	0.075	472916	keystroke_e	e	n/a
236.578	0.075	473156	keystroke_p	p	n/a
236.743	0.105	473486	keystroke_Key.enter	Key.enter	n/a
236.854	6.7905	473708	prompt	n/a	text frost production those're\n
237.703	0.0605	475406	keystroke_t	t	n/a
237.793	0.09	475586	keystroke_e	e	n/a
237.958	0.105	475916	keystroke_x	x	n/a
238.0775	0.0605	476155	keystroke_t	t	n/a
238.2125	0.12	476425	keystroke_Key.space	Key.space	n/a
238.2725	0.09	476545	keystroke_f	f	n/a
238.4525	0.09	476905	keystroke_r	r	n/a
238.5885	0.06	477177	keystroke_o	o	n/a
238.7675	0.0755	477535	keystroke_s	s	n/a
239.0075	0.0605	478015	keystroke_t	t	n/a
239.157	0.076	478314	keystroke_Key.space	Key.space	n/a
239.4125	0.0905	478825	keystroke_p	p	n/a
239.549	0.074	479098	keystroke_r	r	n/a
239.653	0.0745	479306	keystroke_o	o	n/a
239.7725	0.075	479545	keystroke_d	d	n/a
239.8775	0.091	479755	keystroke_u	u	n/a
240.043	0.0455	480086	keystroke_c	c	n/a
240.2685	0.045	480537	keystroke_t	t	n/a
240.4335	0.075	480867	keystroke_i	i	n/a
240.5985	0.1195	481197	keystroke_o	o	n/a
240.7025	0.1055	481405	keystroke_n	n	n/a
240.8975	0.1055	481795	keystroke_Key.space	Key.space	n/a
241.468	0.075	482936	keystroke_t	t	n/a
241.588	0.09	483176	keystroke_h	h	n/a
241.7985	0.0745	483597	keystroke_o	o	n/a
241.918	0.09	483836	keystroke_s	s	n/a
242.097	0.076	484194	keystroke_e	e	n/a
243.0435	0.045	486087	keystroke_'	'	n/a
243.1485	0.074	486297	keystroke_r	r	n/a
243.3125	0.0755	486625	keystroke_e	e	n/a
243.5525	0.09	487105	keystroke_Key.enter	Key.enter	n/a
243.6515	8.153	487303	prompt	n/a	scholarships rotary currency sodium\n
244.333	0.09	488666	keystroke_s	s	n/a
244.573	0.06	489146	keystroke_c	c	n/a
244.693	0.0895	489386	keystroke_h	h	n/a
244.918	0.0595	489836	keystroke_o	o	n/a
245.1585	0.014	490317	keystroke_l	l	n/a
245.1885	0.09	490377	keystroke_a	a	n/a
245.4275	0.0605	490855	keystroke_r	r	n/a
246.1775	0.075	492355	keystroke_s	s	n/a
246.283	0.0905	492566	keystroke_h	h	n/a
246.6125	0.076	493225	keystroke_i	i	n/a
246.8235	0.074	493647	keystroke_p	p	n/a
247.018	0.0755	494036	keystroke_s	s	n/a
247.2875	0.015	494575	keystroke_Key.space	Key.space	n/a
247.4525	0.075	494905	keystroke_r	r	n/a
247.543	0.06	495086	keystroke_o	o	n/a
247.7085	0.075	495417	keystroke_t	t	n/a
247.993	0.06	495986	keystroke_a	a	n/a
248.203	0.06	496406	keystroke_r	r	n/a
248.293	0.09	496586	keystroke_y	y	n/a
248.458	0.135	496916	keystroke_Key.space	Key.space	n/a
248.698	0.09	497396	keystroke_c	c	n/a
248.8625	0.0455	497725	keystroke_u	u	n/a
248.998	0.0445	497996	keystroke_r	r	n/a
249.118	0.09	498236	keystroke_r	r	n/a
249.2975	0.0765	498595	keystroke_e	e	n/a
249.418	0.09	498836	keystroke_n	n	n/a
249.553	0.0755	499106	keystroke_c	c	n/a
249.7035	0.075	499407	keystroke_y	y	n/a
249.898	0.1045	499796	keystroke_Key.space	Key.space	n/a
250.0935	0.074	500187	keystroke_s	s	n/a
250.723	0.075	501446	keystroke_o	o	n/a
250.933	0.045	501866	keystroke_d	d	n/a
251.1135	0.0745	502227	keystroke_i	i	n/a
251.2785	0.089	502557	keystroke_u	u	n/a
251.5025	0.105	503005	keystroke_m	m	n/a
251.7275	0.0755	503455	keystroke_Key.enter	Key.enter	n/a
251.8125	5.9015	503625	prompt	n/a	endless classified wish minus\n
252.5535	0.075	505107	keystroke_e	e	n/a
252.6735	0.075	505347	keystroke_n	n	n/a
252.8075	0.075	505615	keystroke_d	d	n/a
252.9425	0.061	505885	keystroke_l	l	n/a
253.0635	0.075	506127	keystroke_e	e	n/a
253.2435	0.0595	506487	keystroke_s	s	n/a
253.4075	0.06	506815	keystroke_s	s	n/a
253.4975	0.0895	506995	keystroke_Key.space	Key.space	n/a
253.708	0.0755	507416	keystroke_c	c	n/a
253.8135	0.06	507627	keystroke_l	l	n/a
253.9935	0.045	507987	keystroke_a	a	n/a
254.143	0.0745	508286	keystroke_s	s	n/a
254.4575	0.046	508915	keystroke_s	s	n/a
254.668	0.06	509336	keystroke_i	i	n/a
254.818	0.075	509636	keystroke_f	f	n/a
254.953	0.0605	509906	keystroke_i	i	n/a
255.058	0.06	510116	keystroke_e	e	n/a
255.223	0.06	510446	keystroke_d	d	n/a
255.343	0.06	510686	keystroke_Key.space	Key.space	n/a
255.6575	0.061	511315	keystroke_w	w	n/a
255.8235	0.06	511647	keystroke_i	i	n/a
255.943	0.06	511886	keystroke_s	s	n/a
256.0935	0.105	512187	keystroke_h	h	n/a
256.2135	0.089	512427	keystroke_Key.space	Key.space	n/a
256.9175	0.0465	513835	keystroke_m	m	n/a
257.1125	0.1055	514225	keystroke_i	i	n/a
257.1885	0.165	514377	keystroke_n	n	n/a
257.3235	0.1195	514647	keystroke_u	u	n/a
257.473	0.09	514946	keystroke_s	s	n/a
257.623	0.09	515246	keystroke_Key.enter	Key.enter	n/a
257.72	8.6795	515440	prompt	n/a	kelly adopted queen permits\n
258.643	0.075	517286	keystroke_k	k	n/a
258.748	0.075	517496	keystroke_e	e	n/a
258.929	0.044	517858	keystroke_l	l	n/a
259.063	0.09	518126	keystroke_l	l	n/a
259.213	0.03	518426	keystroke_y	y	n/a
259.303	0.0755	518606	keystroke_Key.space	Key.space	n/a
259.5275	0.106	519055	keystroke_a	a	n/a
259.7835	0.09	519567	keystroke_d	d	n/a
259.9185	0.075	519837	keystroke_o	o	n/a
260.0675	0.09	520135	keystroke_p	p	n/a
260.1735	0.104	520347	keystroke_t	t	n/a
260.4285	0.045	520857	keystroke_e	e	n/a
260.6225	0.031	521245	keystroke_d	d	n/a
260.893	0.03	521786	keystroke_Key.backspace	Key.backspace	n/a
261.8085	0.0745	523617	keystroke_d	d	n/a
261.913	0.09	523826	keystroke_Key.space	Key.space	n/a
262.138	0.0595	524276	keystroke_q	q	n/a
262.2875	0.0765	524575	keystroke_u	u	n/a
262.4225	0.0755	524845	keystroke_e	e	n/a
262.5875	0.0915	525175	keystroke_e	e	n/a
262.753	0.1195	525506	keystroke_n	n	n/a
262.8425	0.12	525685	keystroke_Key.space	Key.space	n/a
263.1135	0.059	526227	keystroke_o	o	n/a
263.2775	0.061	526555	keystroke_e	e	n/a
263.4575	0.0905	526915	keystroke_r	r	n/a
263.563	0.075	527126	keystroke_n	n	n/a
263.773	0.015	527546	keystroke_i	i	n/a
264.0425	0.06	528085	keystroke_Key.backspace	Key.backspace	n/a
264.1925	0.06	528385	keystroke_Key.backspace	Key.backspace	n/a
264.3725	0.03	528745	keystroke_Key.backspace	Key.backspace	n/a
264.5075	0.03	529015	keystroke_Key.backspace	Key.backspace	n/a
264.7925	0.0455	529585	keystroke_Key.backspace	Key.backspace	n/a
265.2875	0.06	530575	keystroke_p	p	n/a
265.3925	0.1055	530785	keystroke_e	e	n/a
265.603	0.09	531206	keystroke_r	r	n/a
265.7085	0.1195	531417	keystroke_m	m	n/a
265.8135	0.105	531627	keystroke_i	i	n/a
265.9485	0.0745	531897	keystroke_t	t	n/a
266.188	0.0755	532376	keystroke_s	s	n/a
266.323	0.075	532646	keystroke_Key.enter	Key.enter	n/a
266.4095	4.205	532819	prompt	n/a	race tech driver audit\n
267.298	0.075	534596	keystroke_r	r	n/a
267.3885	0.0745	534777	keystroke_a	a	n/a
267.508	0.09	535016	keystroke_c	c	n/a
267.613	0.0595	535226	keystroke_e	e	n/a
267.6875	0.09	535375	keystroke_Key.space	Key.space	n/a
267.8835	0.0445	535767	keystroke_t	t	n/a
267.973	0.06	535946	keystroke_e	e	n/a
268.1535	0.1045	536307	keystroke_c	c	n/a
268.243	0.0895	536486	keystroke_h	h	n/a
268.363	0.1195	536726	keystroke_Key.space	Key.space	n/a
268.4685	0.0745	536937	keystroke_d	d	n/a
268.6485	0.075	537297	keystroke_r	r	n/a
268.7385	0.09	537477	keystroke_i	i	n/a
268.9925	0.09	537985	keystroke_v	v	n/a
269.1725	0.09	538345	keystroke_e	e	n/a
269.3525	0.0755	538705	keystroke_r	r	n/a
269.503	0.09	539006	keystroke_Key.space	Key.space	n/a
269.8025	0.0905	539605	keystroke_a	a	n/a
269.983	0.075	539966	keystroke_u	u	n/a
270.089	0.074	540178	keystroke_d	d	n/a
270.223	0.0905	540446	keystroke_i	i	n/a
270.403	0.06	540806	keystroke_t	t	n/a
270.553	0.06	541106	keystroke_Key.enter	Key.enter	n/a
270.618	9.0715	541236	prompt	n/a	short edward emails patrick\n
271.318	0.075	542636	keystroke_s	s	n/a
271.4085	0.0905	542817	keystroke_h	h	n/a
271.6185	0.0605	543237	keystroke_o	o	n/a
271.738	0.06	543476	keystroke_r	r	n/a
271.888	0.075	543776	keystroke_t	t	n/a
272.008	0.06	544016	keystroke_Key.space	Key.space	n/a
272.128	0.0755	544256	keystroke_e	e	n/a
272.2785	0.074	544557	keystroke_d	d	n/a
272.473	0.0905	544946	keystroke_w	w	n/a
272.668	0.06	545336	keystroke_a	a	n/a
272.788	0.15	545576	keystroke_r	r	n/a
272.8935	0.1195	545787	keystroke_d	d	n/a
273.163	0.105	546326	keystroke_Key.space	Key.space	n/a
275.083	0.09	550166	keystroke_e	e	n/a
275.233	0.0755	550466	keystroke_m	m	n/a
275.3375	0.091	550675	keystroke_a	a	n/a
275.4435	0.0745	550887	keystroke_i	i	n/a
275.6385	0.06	551277	keystroke_l	l	n/a
275.7425	0.06	551485	keystroke_s	s	n/a
275.7875	0.0905	551575	keystroke_Key.space	Key.space	n/a
275.9835	0.075	551967	keystroke_o	o	n/a
276.1035	0.0895	552207	keystroke_a	a	n/a
276.343	0.06	552686	keystroke_t	t	n/a
276.493	0.0905	552986	keystroke_r	r	n/a
276.628	0.09	553256	keystroke_i	i	n/a
276.7485	0.09	553497	keystroke_c	c	n/a
276.868	0.09	553736	keystroke_k	k	n/a
277.213	0.06	554426	keystroke_Key.backspace	Key.backspace	n/a
277.348	0.06	554696	keystroke_Key.backspace	Key.backspace	n/a
277.483	0.031	554966	keystroke_Key.backspace	Key.backspace	n/a
277.603	0.045	555206	keystroke_Key.backspace	Key.backspace	n/a
277.723	0.0605	555446	keystroke_Key.backspace	Key.backspace	n/a
277.873	0.06	555746	keystroke_Key.backspace	Key.backspace	n/a
278.278	0.06	556556	keystroke_Key.backspace	Key.backspace	n/a
278.563	0.06	557126	keystroke_p	p	n/a
278.669	0.074	557338	keystroke_a	a	n/a
278.9085	0.0745	557817	keystroke_t	t	n/a
279.058	0.09	558116	keystroke_r	r	n/a
279.178	0.0745	558356	keystroke_i	i	n/a
279.313	0.075	558626	keystroke_c	c	n/a
279.402	0.091	558804	keystroke_k	k	n/a
279.628	0.06	559256	keystroke_Key.enter	Key.enter	n/a
279.7	8.8995	559400	prompt	n/a	sufficiently solving riverside physiology\n
280.438	0.075	560876	keystroke_s	s	n/a
280.573	0.0745	561146	keystroke_u	u	n/a
280.8585	0.059	561717	keystroke_f	f	n/a
280.9925	0.105	561985	keystroke_f	f	n/a
281.113	0.09	562226	keystroke_i	i	n/a
281.2625	0.09	562525	keystroke_c	c	n/a
281.3675	0.0605	562735	keystroke_i	i	n/a
281.488	0.09	562976	keystroke_e	e	n/a
281.593	0.075	563186	keystroke_n	n	n/a
281.728	0.0745	563456	keystroke_t	t	n/a
281.8625	0.091	563725	keystroke_l	l	n/a
282.0285	0.015	564057	keystroke_y	y	n/a
282.1185	0.0745	564237	keystroke_Key.space	Key.space	n/a
282.4625	0.0905	564925	keystroke_s	s	n/a
282.614	0.105	565228	keystroke_o	o	n/a
282.883	0.06	565766	keystroke_l	l	n/a
282.898	0.075	565796	keystroke_v	v	n/a
283.048	0.135	566096	keystroke_i	i	n/a
283.1235	0.1345	566247	keystroke_n	n	n/a
283.273	0.0605	566546	keystroke_g	g	n/a
283.423	0.1355	566846	keystroke_Key.space	Key.space	n/a
283.8885	0.06	567777	keystroke_r	r	n/a
283.9935	0.06	567987	keystroke_i	i	n/a
284.2185	0.075	568437	keystroke_v	v	n/a
284.3085	0.0745	568617	keystroke_e	e	n/a
284.5035	0.0605	569007	keystroke_r	r	n/a
284.698	0.0595	569396	keystroke_s	s	n/a
284.803	0.061	569606	keystroke_i	i	n/a
284.8935	0.0745	569787	keystroke_d	d	n/a
285.058	0.076	570116	keystroke_e	e	n/a
285.134	0.089	570268	keystroke_Key.space	Key.space	n/a
285.373	0.0455	570746	keystroke_p	p	n/a
285.9275	0.091	571855	keystroke_h	h	n/a
286.1385	0.0745	572277	keystroke_y	y	n/a
287.203	0.06	574406	keystroke_s	s	n/a
287.519	0.059	575038	keystroke_i	i	n/a
287.653	0.105	575306	keystroke_o	o	n/a
287.8325	0.0755	575665	keystroke_l	l	n/a
287.9835	0.0745	575967	keystroke_o	o	n/a
288.133	0.0605	576266	keystroke_g	g	n/a
288.253	0.09	576506	keystroke_y	y	n/a
288.523	0.075	577046	keystroke_Key.enter	Key.enter	n/a
288.605	6.9395	577210	prompt	n/a	controlling johns guaranteed relate\n
289.649	0.0595	579298	keystroke_c	c	n/a
289.783	0.121	579566	keystroke_o	o	n/a
289.843	0.12	579686	keystroke_n	n	n/a
290.008	0.075	580016	keystroke_t	t	n/a
290.158	0.0605	580316	keystroke_r	r	n/a
290.248	0.075	580496	keystroke_o	o	n/a
290.443	0.03	580886	keystroke_l	l	n/a
290.564	0.089	581128	keystroke_l	l	n/a
290.788	0.135	581576	keystroke_i	i	n/a
290.848	0.105	581696	keystroke_n	n	n/a
290.908	0.105	581816	keystroke_g	g	n/a
291.043	0.105	582086	keystroke_Key.space	Key.space	n/a
291.283	0.09	582566	keystroke_j	j	n/a
291.493	0.0605	582986	keystroke_o	o	n/a
291.7035	0.0605	583407	keystroke_h	h	n/a
291.8685	0.074	583737	keystroke_n	n	n/a
291.9725	0.061	583945	keystroke_s	s	n/a
292.0775	0.105	584155	keystroke_Key.space	Key.space	n/a
292.4375	0.09	584875	keystroke_g	g	n/a
292.6325	0.045	585265	keystroke_u	u	n/a
292.7385	0.105	585477	keystroke_a	a	n/a
292.9635	0.045	585927	keystroke_r	r	n/a
293.1585	0.074	586317	keystroke_a	a	n/a
293.2475	0.0755	586495	keystroke_n	n	n/a
293.458	0.046	586916	keystroke_t	t	n/a
293.549	0.074	587098	keystroke_e	e	n/a
293.714	0.09	587428	keystroke_e	e	n/a
293.9085	0.075	587817	keystroke_d	d	n/a
294.043	0.075	588086	keystroke_Key.space	Key.space	n/a
294.6135	0.075	589227	keystroke_r	r	n/a
294.7775	0.09	589555	keystroke_e	e	n/a
294.883	0.0605	589766	keystroke_l	l	n/a
295.0035	0.075	590007	keystroke_a	a	n/a
295.1535	0.075	590307	keystroke_t	t	n/a
295.2735	0.06	590547	keystroke_e	e	n/a
295.468	0.0745	590936	keystroke_Key.enter	Key.enter	n/a
295.5485	6.5515	591097	prompt	n/a	bear teachers outdoor relaxation\n
296.383	0.06	592766	keystroke_b	b	n/a
296.458	0.09	592916	keystroke_e	e	n/a
296.6525	0.0915	593305	keystroke_a	a	n/a
296.7285	0.0745	593457	keystroke_r	r	n/a
296.877	0.091	593754	keystroke_Key.space	Key.space	n/a
297.058	0.06	594116	keystroke_t	t	n/a
297.133	0.0905	594266	keystroke_e	e	n/a
297.328	0.09	594656	keystroke_a	a	n/a
297.583	0.09	595166	keystroke_c	c	n/a
297.688	0.0595	595376	keystroke_h	h	n/a
297.793	0.0895	595586	keystroke_e	e	n/a
297.9425	0.0905	595885	keystroke_r	r	n/a
298.1385	0.09	596277	keystroke_s	s	n/a
298.243	0.0745	596486	keystroke_Key.space	Key.space	n/a
298.453	0.06	596906	keystroke_o	o	n/a
298.6485	0.075	597297	keystroke_u	u	n/a
298.7385	0.0745	597477	keystroke_t	t	n/a
298.919	0.089	597838	keystroke_d	d	n/a
299.023	0.0755	598046	keystroke_o	o	n/a
299.1735	0.0905	598347	keystroke_o	o	n/a
299.308	0.1055	598616	keystroke_r	r	n/a
299.428	0.09	598856	keystroke_Key.space	Key.space	n/a
299.818	0.0745	599636	keystroke_r	r	n/a
299.983	0.0755	599966	keystroke_e	e	n/a
300.089	0.0735	600178	keystroke_l	l	n/a
300.3585	0.074	600717	keystroke_a	a	n/a
300.9435	0.06	601887	keystroke_x	x	n/a
301.138	0.075	602276	keystroke_a	a	n/a
301.4385	0.0595	602877	keystroke_t	t	n/a
301.558	0.0605	603116	keystroke_i	i	n/a
301.7235	0.12	603447	keystroke_o	o	n/a
301.798	0.1055	603596	keystroke_n	n	n/a
302.0675	0.0305	604135	keystroke_Key.enter	Key.enter	n/a
302.105	8.1545	604210	prompt	n/a	martha suse shouldn't lobby\n
302.878	0.045	605756	keystroke_m	m	n/a
302.9835	0.075	605967	keystroke_a	a	n/a
303.1925	0.045	606385	keystroke_r	r	n/a
303.358	0.06	606716	keystroke_t	t	n/a
303.5385	0.06	607077	keystroke_h	h	n/a
303.6275	0.09	607255	keystroke_a	a	n/a
303.7625	0.0605	607525	keystroke_Key.space	Key.space	n/a
303.943	0.0745	607886	keystroke_s	s	n/a
304.1675	0.06	608335	keystroke_u	u	n/a
304.3025	0.076	608605	keystroke_s	s	n/a
304.558	0.045	609116	keystroke_e	e	n/a
306.103	0.105	612206	keystroke_Key.space	Key.space	n/a
306.478	0.075	612956	keystroke_s	s	n/a
306.613	0.105	613226	keystroke_h	h	n/a
306.853	0.06	613706	keystroke_o	o	n/a
307.018	0.0895	614036	keystroke_u	u	n/a
307.2285	0.06	614457	keystroke_l	l	n/a
307.3635	0.0595	614727	keystroke_d	d	n/a
307.4525	0.09	614905	keystroke_n	n	n/a
307.7675	0.046	615535	keystroke_'	'	n/a
307.9175	0.06	615835	keystroke_t	t	n/a
308.0825	0.12	616165	keystroke_Key.space	Key.space	n/a
309.028	0.1045	618056	keystroke_l	l	n/a
309.2525	0.06	618505	keystroke_o	o	n/a
309.5075	0.046	619015	keystroke_b	b	n/a
309.658	0.0595	619316	keystroke_b	b	n/a
309.853	0.0755	619706	keystroke_y	y	n/a
310.198	0.0595	620396	keystroke_Key.enter	Key.enter	n/a
310.263	8.501	620526	prompt	n/a	hindu hewlett congressional criterion\n
311.2185	0.06	622437	keystroke_h	h	n/a
311.413	0.12	622826	keystroke_i	i	n/a
311.4885	0.1195	622977	keystroke_n	n	n/a
311.593	0.09	623186	keystroke_d	d	n/a
311.698	0.06	623396	keystroke_u	u	n/a
311.818	0.1055	623636	keystroke_Key.space	Key.space	n/a
311.9835	0.104	623967	keystroke_h	h	n/a
312.1175	0.0605	624235	keystroke_e	e	n/a
312.8075	0.061	625615	keystroke_w	w	n/a
312.898	0.0755	625796	keystroke_l	l	n/a
313.0775	0.06	626155	keystroke_e	e	n/a
313.408	0.075	626816	keystroke_t	t	n/a
313.573	0.075	627146	keystroke_t	t	n/a
313.903	0.09	627806	keystroke_Key.space	Key.space	n/a
314.368	0.075	628736	keystroke_c	c	n/a
314.458	0.15	628916	keystroke_o	o	n/a
314.518	0.135	629036	keystroke_n	n	n/a
314.7885	0.0595	629577	keystroke_g	g	n/a
314.923	0.045	629846	keystroke_r	r	n/a
315.043	0.09	630086	keystroke_e	e	n/a
315.253	0.075	630506	keystroke_s	s	n/a
315.403	0.075	630806	keystroke_s	s	n/a
315.508	0.0895	631016	keystroke_i	i	n/a
315.7185	0.1345	631437	keystroke_o	o	n/a
315.7935	0.135	631587	keystroke_n	n	n/a
316.048	0.1205	632096	keystroke_a	a	n/a
316.183	0.1195	632366	keystroke_l	l	n/a
316.3475	0.12	632695	keystroke_Key.space	Key.space	n/a
317.0535	0.09	634107	keystroke_c	c	n/a
317.248	0.0745	634496	keystroke_r	r	n/a
317.3685	0.075	634737	keystroke_i	i	n/a
317.4875	0.09	634975	keystroke_t	t	n/a
317.7135	0.045	635427	keystroke_e	e	n/a
317.863	0.075	635726	keystroke_r	r	n/a
318.0125	0.106	636025	keystroke_i	i	n/a
318.2075	0.1505	636415	keystroke_o	o	n/a
318.283	0.15	636566	keystroke_n	n	n/a
318.688	0.075	637376	keystroke_Key.enter	Key.enter	n/a
318.7675	5.367	637535	prompt	n/a	copy profiles puppy french\n
319.618	0.0755	639236	keystroke_c	c	n/a
319.768	0.0895	639536	keystroke_o	o	n/a
319.9625	0.045	639925	keystroke_p	p	n/a
320.0825	0.075	640165	keystroke_y	y	n/a
320.188	0.1045	640376	keystroke_Key.space	Key.space	n/a
320.398	0.0895	640796	keystroke_p	p	n/a
320.5475	0.075	641095	keystroke_r	r	n/a
320.6835	0.074	641367	keystroke_o	o	n/a
320.8175	0.076	641635	keystroke_f	f	n/a
320.9685	0.074	641937	keystroke_i	i	n/a
321.1635	0.0745	642327	keystroke_l	l	n/a
321.2985	0.089	642597	keystroke_e	e	n/a
321.493	0.075	642986	keystroke_s	s	n/a
321.628	0.105	643256	keystroke_Key.space	Key.space	n/a
321.883	0.105	643766	keystroke_p	p	n/a
322.198	0.09	644396	keystroke_u	u	n/a
322.438	0.06	644876	keystroke_p	p	n/a
322.6025	0.06	645205	keystroke_p	p	n/a
322.6925	0.061	645385	keystroke_y	y	n/a
322.8285	0.1195	645657	keystroke_Key.space	Key.space	n/a
322.9935	0.075	645987	keystroke_f	f	n/a
323.173	0.075	646346	keystroke_r	r	n/a
323.353	0.09	646706	keystroke_e	e	n/a
323.4885	0.09	646977	keystroke_n	n	n/a
323.6235	0.0745	647247	keystroke_c	c	n/a
323.7435	0.104	647487	keystroke_h	h	n/a
324.0585	0.074	648117	keystroke_Key.enter	Key.enter	n/a
324.1385	5.081	648277	prompt	n/a	inquire writes wallet fruits\n
324.9125	0.1505	649825	keystroke_i	i	n/a
324.9725	0.1355	649945	keystroke_n	n	n/a
325.0925	0.075	650185	keystroke_q	q	n/a
325.2275	0.075	650455	keystroke_u	u	n/a
325.3925	0.075	650785	keystroke_i	i	n/a
325.5125	0.075	651025	keystroke_r	r	n/a
325.678	0.09	651356	keystroke_e	e	n/a
325.798	0.09	651596	keystroke_Key.space	Key.space	n/a
326.053	0.09	652106	keystroke_w	w	n/a
326.398	0.045	652796	keystroke_r	r	n/a
326.548	0.06	653096	keystroke_i	i	n/a
326.668	0.06	653336	keystroke_t	t	n/a
326.8635	0.0595	653727	keystroke_e	e	n/a
327.043	0.075	654086	keystroke_s	s	n/a
327.163	0.09	654326	keystroke_Key.space	Key.space	n/a
327.268	0.0755	654536	keystroke_w	w	n/a
327.433	0.0755	654866	keystroke_a	a	n/a
327.5375	0.046	655075	keystroke_l	l	n/a
327.673	0.1205	655346	keystroke_l	l	n/a
327.853	0.06	655706	keystroke_e	e	n/a
328.0335	0.045	656067	keystroke_t	t	n/a
328.1235	0.089	656247	keystroke_Key.space	Key.space	n/a
328.228	0.075	656456	keystroke_f	f	n/a
328.378	0.1045	656756	keystroke_r	r	n/a
328.498	0.0605	656996	keystroke_u	u	n/a
328.6485	0.089	657297	keystroke_i	i	n/a
328.7685	0.089	657537	keystroke_t	t	n/a
329.008	0.0905	658016	keystroke_s	s	n/a
329.1425	0.0755	658285	keystroke_Key.enter	Key.enter	n/a
329.2255	6.504	658451	prompt	n/a	fifteen indicates study date\n
330.0135	0.0595	660027	keystroke_f	f	n/a
330.118	0.06	660236	keystroke_i	i	n/a
330.208	0.09	660416	keystroke_f	f	n/a
330.388	0.075	660776	keystroke_t	t	n/a
330.7925	0.06	661585	keystroke_e	e	n/a
331.498	0.06	662996	keystroke_e	e	n/a
331.7525	0.105	663505	keystroke_n	n	n/a
331.843	0.105	663686	keystroke_Key.space	Key.space	n/a
332.083	0.166	664166	keystroke_i	i	n/a
332.204	0.1045	664408	keystroke_n	n	n/a
332.3235	0.06	664647	keystroke_d	d	n/a
332.4275	0.09	664855	keystroke_i	i	n/a
332.5625	0.0905	665125	keystroke_c	c	n/a
332.803	0.0745	665606	keystroke_a	a	n/a
332.9375	0.0605	665875	keystroke_t	t	n/a
333.0435	0.089	666087	keystroke_e	e	n/a
333.2225	0.0905	666445	keystroke_s	s	n/a
333.3275	0.075	666655	keystroke_Key.space	Key.space	n/a
333.5235	0.0895	667047	keystroke_s	s	n/a
333.748	0.0755	667496	keystroke_t	t	n/a
333.868	0.0745	667736	keystroke_u	u	n/a
334.003	0.0755	668006	keystroke_d	d	n/a
334.123	0.0595	668246	keystroke_y	y	n/a
334.2275	0.1205	668455	keystroke_Key.space	Key.space	n/a
334.3325	0.09	668665	keystroke_r	r	n/a
334.783	0.075	669566	keystroke_Key.backspace	Key.backspace	n/a
334.963	0.0745	669926	keystroke_d	d	n/a
335.1725	0.09	670345	keystroke_a	a	n/a
335.3085	0.075	670617	keystroke_t	t	n/a
335.4285	0.059	670857	keystroke_e	e	n/a
335.653	0.075	671306	keystroke_Key.enter	Key.enter	n/a
335.741	6.5285	671482	prompt	n/a	only searching ownership solomon\n
336.583	0.105	673166	keystroke_o	o	n/a
336.673	0.21	673346	keystroke_n	n	n/a
336.793	0.15	673586	keystroke_l	l	n/a
336.929	0.074	673858	keystroke_y	y	n/a
337.033	0.09	674066	keystroke_Key.space	Key.space	n/a
337.228	0.09	674456	keystroke_s	s	n/a
337.4085	0.0745	674817	keystroke_e	e	n/a
337.603	0.09	675206	keystroke_a	a	n/a
337.8275	0.045	675655	keystroke_r	r	n/a
338.0225	0.106	676045	keystroke_c	c	n/a
338.1435	0.045	676287	keystroke_h	h	n/a
338.3235	0.104	676647	keystroke_i	i	n/a
338.3685	0.134	676737	keystroke_n	n	n/a
338.4425	0.0905	676885	keystroke_g	g	n/a
338.5925	0.12	677185	keystroke_Key.space	Key.space	n/a
338.8625	0.0765	677725	keystroke_o	o	n/a
339.0285	0.059	678057	keystroke_w	w	n/a
339.208	0.0895	678416	keystroke_n	n	n/a
339.4035	0.0595	678807	keystroke_e	e	n/a
339.5525	0.105	679105	keystroke_r	r	n/a
339.7485	0.104	679497	keystroke_s	s	n/a
339.838	0.0905	679676	keystroke_h	h	n/a
340.0485	0.075	680097	keystroke_i	i	n/a
340.2575	0.076	680515	keystroke_p	p	n/a
340.4525	0.105	680905	keystroke_Key.space	Key.space	n/a
340.6325	0.0905	681265	keystroke_s	s	n/a
340.7375	0.076	681475	keystroke_o	o	n/a
340.9175	0.0755	681835	keystroke_l	l	n/a
341.068	0.06	682136	keystroke_o	o	n/a
341.3375	0.09	682675	keystroke_m	m	n/a
341.7885	0.1495	683577	keystroke_o	o	n/a
341.893	0.135	683786	keystroke_n	n	n/a
342.208	0.06	684416	keystroke_Key.enter	Key.enter	n/a
342.2735	12.641	684547	prompt	n/a	logan recovery castle macintosh\n
342.973	0.0755	685946	keystroke_l	l	n/a
343.138	0.0445	686276	keystroke_o	o	n/a
343.3635	0.0745	686727	keystroke_g	g	n/a
343.5135	0.0735	687027	keystroke_a	a	n/a
343.6025	0.1505	687205	keystroke_n	n	n/a
343.708	0.105	687416	keystroke_Key.space	Key.space	n/a
344.143	0.075	688286	keystroke_r	r	n/a
344.368	0.074	688736	keystroke_e	e	n/a
344.563	0.06	689126	keystroke_s	s	n/a
344.758	0.075	689516	keystroke_c	c	n/a
344.8635	0.0595	689727	keystroke_o	o	n/a
345.118	0.06	690236	keystroke_v	v	n/a
345.2535	0.0445	690507	keystroke_e	e	n/a
345.433	0.015	690866	keystroke_r	r	n/a
345.5525	0.09	691105	keystroke_y	y	n/a
345.748	0.09	691496	keystroke_Key.space	Key.space	n/a
346.843	0.0595	693686	keystroke_Key.backspace	Key.backspace	n/a
348.4625	0.0605	696925	keystroke_Key.backspace	Key.backspace	n/a
348.613	0.06	697226	keystroke_Key.backspace	Key.backspace	n/a
348.763	0.045	697526	keystroke_Key.backspace	Key.backspace	n/a
348.913	0.045	697826	keystroke_Key.backspace	Key.backspace	n/a
349.078	0.045	698156	keystroke_Key.backspace	Key.backspace	n/a
349.228	0.06	698456	keystroke_Key.backspace	Key.backspace	n/a
349.393	0.06	698786	keystroke_Key.backspace	Key.backspace	n/a
349.9475	0.0755	699895	keystroke_c	c	n/a
350.0985	0.089	700197	keystroke_o	o	n/a
350.3985	0.06	700797	keystroke_v	v	n/a
350.518	0.0745	701036	keystroke_e	e	n/a
350.6975	0.075	701395	keystroke_r	r	n/a
350.788	0.0905	701576	keystroke_y	y	n/a
350.9825	0.09	701965	keystroke_Key.space	Key.space	n/a
351.2825	0.0905	702565	keystroke_c	c	n/a
351.524	0.059	703048	keystroke_a	a	n/a
351.703	0.0755	703406	keystroke_s	s	n/a
351.9435	0.06	703887	keystroke_t	t	n/a
352.1085	0.09	704217	keystroke_l	l	n/a
352.2585	0.059	704517	keystroke_e	e	n/a
352.4235	0.0895	704847	keystroke_Key.space	Key.space	n/a
352.9035	0.0885	705807	keystroke_m	m	n/a
353.068	0.09	706136	keystroke_a	a	n/a
353.308	0.075	706616	keystroke_c	c	n/a
353.5185	0.1345	707037	keystroke_i	i	n/a
353.593	0.135	707186	keystroke_n	n	n/a
353.743	0.06	707486	keystroke_t	t	n/a
353.9235	0.089	707847	keystroke_o	o	n/a
354.088	0.075	708176	keystroke_s	s	n/a
354.2525	0.09	708505	keystroke_h	h	n/a
354.8375	0.075	709675	keystroke_Key.enter	Key.enter	n/a
354.9295	7.365	709859	prompt	n/a	negative alleged respective marion\n
355.723	0.045	711446	keystroke_n	n	n/a
356.0525	0.105	712105	keystroke_e	e	n/a
356.233	0.0745	712466	keystroke_g	g	n/a
356.413	0.0755	712826	keystroke_a	a	n/a
356.638	0.06	713276	keystroke_t	t	n/a
356.743	0.03	713486	keystroke_i	i	n/a
356.953	0.0605	713906	keystroke_v	v	n/a
357.058	0.06	714116	keystroke_e	e	n/a
357.238	0.075	714476	keystroke_Key.space	Key.space	n/a
357.598	0.06	715196	keystroke_a	a	n/a
357.703	0.06	715406	keystroke_l	l	n/a
357.9435	0.0145	715887	keystroke_l	l	n/a
358.078	0.075	716156	keystroke_e	e	n/a
358.2425	0.0455	716485	keystroke_g	g	n/a
358.348	0.06	716696	keystroke_e	e	n/a
358.513	0.0755	717026	keystroke_d	d	n/a
358.633	0.075	717266	keystroke_Key.space	Key.space	n/a
358.8435	0.075	717687	keystroke_r	r	n/a
359.023	0.075	718046	keystroke_e	e	n/a
359.203	0.09	718406	keystroke_s	s	n/a
359.3235	0.059	718647	keystroke_p	p	n/a
359.4435	0.075	718887	keystroke_e	e	n/a
359.593	0.105	719186	keystroke_c	c	n/a
359.818	0.075	719636	keystroke_t	t	n/a
359.938	0.06	719876	keystroke_i	i	n/a
360.148	0.09	720296	keystroke_v	v	n/a
360.283	0.0605	720566	keystroke_e	e	n/a
360.433	0.075	720866	keystroke_Key.space	Key.space	n/a
360.958	0.06	721916	keystroke_m	m	n/a
361.078	0.09	722156	keystroke_a	a	n/a
361.318	0.06	722636	keystroke_r	r	n/a
361.468	0.0755	722936	keystroke_i	i	n/a
361.6485	0.12	723297	keystroke_o	o	n/a
361.7235	0.1195	723447	keystroke_n	n	n/a
362.2325	0.06	724465	keystroke_Key.enter	Key.enter	n/a
362.2985	7.241	724597	prompt	n/a	relief college mold accepting\n
362.9975	0.09	725995	keystroke_r	r	n/a
363.1625	0.09	726325	keystroke_e	e	n/a
363.2675	0.06	726535	keystroke_l	l	n/a
363.4485	0.044	726897	keystroke_i	i	n/a
363.5235	0.0595	727047	keystroke_e	e	n/a
363.703	0.075	727406	keystroke_f	f	n/a
363.838	0.09	727676	keystroke_Key.space	Key.space	n/a
364.138	0.0905	728276	keystroke_c	c	n/a
364.2725	0.045	728545	keystroke_o	o	n/a
364.438	0.0445	728876	keystroke_l	l	n/a
364.5585	0.09	729117	keystroke_l	l	n/a
364.768	0.076	729536	keystroke_e	e	n/a
364.888	0.105	729776	keystroke_g	g	n/a
365.0975	0.09	730195	keystroke_Key.space	Key.space	n/a
365.398	0.1045	730796	keystroke_m	m	n/a
365.893	0.045	731786	keystroke_Key.backspace	Key.backspace	n/a
366.013	0.09	732026	keystroke_Key.backspace	Key.backspace	n/a
366.238	0.06	732476	keystroke_e	e	n/a
366.373	0.09	732746	keystroke_Key.space	Key.space	n/a
366.838	0.0745	733676	keystroke_m	m	n/a
367.0025	0.091	734005	keystroke_o	o	n/a
367.168	0.0895	734336	keystroke_l	l	n/a
367.3025	0.075	734605	keystroke_d	d	n/a
367.4675	0.09	734935	keystroke_Key.space	Key.space	n/a
367.9475	0.105	735895	keystroke_a	a	n/a
368.2175	0.06	736435	keystroke_c	c	n/a
368.3535	0.0895	736707	keystroke_c	c	n/a
368.578	0.075	737156	keystroke_e	e	n/a
368.6975	0.075	737395	keystroke_p	p	n/a
368.848	0.06	737696	keystroke_t	t	n/a
369.013	0.1045	738026	keystroke_i	i	n/a
369.103	0.105	738206	keystroke_n	n	n/a
369.2225	0.075	738445	keystroke_g	g	n/a
369.4475	0.0905	738895	keystroke_Key.enter	Key.enter	n/a
369.5435	5.427	739087	prompt	n/a	walk capture castle creatures\n
370.183	0.0895	740366	keystroke_w	w	n/a
370.3775	0.1055	740755	keystroke_a	a	n/a
370.4675	0.075	740935	keystroke_l	l	n/a
370.6335	0.104	741267	keystroke_k	k	n/a
370.7525	0.09	741505	keystroke_Key.space	Key.space	n/a
370.7825	0.105	741565	keystroke_c	c	n/a
371.038	0.0895	742076	keystroke_a	a	n/a
371.1735	0.059	742347	keystroke_p	p	n/a
371.383	0.075	742766	keystroke_t	t	n/a
371.518	0.0455	743036	keystroke_u	u	n/a
371.5925	0.075	743185	keystroke_r	r	n/a
371.7725	0.076	743545	keystroke_e	e	n/a
371.8775	0.091	743755	keystroke_Key.space	Key.space	n/a
372.1935	0.075	744387	keystroke_c	c	n/a
372.4325	0.075	744865	keystroke_a	a	n/a
372.598	0.1045	745196	keystroke_s	s	n/a
372.8825	0.076	745765	keystroke_t	t	n/a
373.0175	0.075	746035	keystroke_l	l	n/a
373.138	0.0745	746276	keystroke_e	e	n/a
373.243	0.09	746486	keystroke_Key.space	Key.space	n/a
373.5135	0.134	747027	keystroke_c	c	n/a
373.6035	0.1045	747207	keystroke_r	r	n/a
373.6925	0.091	747385	keystroke_e	e	n/a
373.888	0.09	747776	keystroke_a	a	n/a
374.158	0.075	748316	keystroke_t	t	n/a
374.2475	0.06	748495	keystroke_u	u	n/a
374.3975	0.0895	748795	keystroke_r	r	n/a
374.563	0.105	749126	keystroke_e	e	n/a
374.773	0.089	749546	keystroke_s	s	n/a
374.877	0.091	749754	keystroke_Key.enter	Key.enter	n/a
374.979	8.4655	749958	prompt	n/a	recommend offshore writings madison\n
375.733	0.06	751466	keystroke_r	r	n/a
375.868	0.0905	751736	keystroke_e	e	n/a
376.063	0.09	752126	keystroke_c	c	n/a
376.213	0.03	752426	keystroke_o	o	n/a
376.3785	0.059	752757	keystroke_m	m	n/a
376.5135	0.075	753027	keystroke_m	m	n/a
376.6475	0.06	753295	keystroke_e	e	n/a
376.7685	0.075	753537	keystroke_n	n	n/a
376.8885	0.075	753777	keystroke_d	d	n/a
377.0085	0.0745	754017	keystroke_Key.space	Key.space	n/a
377.233	0.0595	754466	keystroke_o	o	n/a
377.518	0.0295	755036	keystroke_f	f	n/a
377.6225	0.075	755245	keystroke_f	f	n/a
377.8635	0.06	755727	keystroke_s	s	n/a
377.953	0.105	755906	keystroke_h	h	n/a
378.1785	0.044	756357	keystroke_o	o	n/a
378.253	0.075	756506	keystroke_r	r	n/a
378.4485	0.074	756897	keystroke_e	e	n/a
378.5975	0.075	757195	keystroke_Key.space	Key.space	n/a
378.8975	0.0905	757795	keystroke_w	w	n/a
379.153	0.075	758306	keystroke_r	r	n/a
379.273	0.075	758546	keystroke_i	i	n/a
379.408	0.0605	758816	keystroke_t	t	n/a
379.573	0.0605	759146	keystroke_t	t	n/a
379.8125	0.105	759625	keystroke_i	i	n/a
379.8725	0.136	759745	keystroke_n	n	n/a
380.0225	0.0755	760045	keystroke_g	g	n/a
380.5025	0.06	761005	keystroke_Key.backspace	Key.backspace	n/a
380.653	0.045	761306	keystroke_Key.backspace	Key.backspace	n/a
380.773	0.045	761546	keystroke_Key.backspace	Key.backspace	n/a
380.863	0.105	761726	keystroke_Key.backspace	Key.backspace	n/a
381.493	0.12	762986	keystroke_i	i	n/a
381.5685	0.1045	763137	keystroke_n	n	n/a
381.793	0.075	763586	keystroke_g	g	n/a
381.9435	0.0595	763887	keystroke_s	s	n/a
382.048	0.105	764096	keystroke_Key.space	Key.space	n/a
382.318	0.075	764636	keystroke_m	m	n/a
382.438	0.0755	764876	keystroke_a	a	n/a
382.6775	0.045	765355	keystroke_d	d	n/a
382.8135	0.045	765627	keystroke_i	i	n/a
382.8885	0.074	765777	keystroke_s	s	n/a
383.0225	0.15	766045	keystroke_o	o	n/a
383.128	0.1195	766256	keystroke_n	n	n/a
383.3525	0.0905	766705	keystroke_Key.enter	Key.enter	n/a
383.4515	5.318	766903	prompt	n/a	raid focused undergraduate cork\n
384.1635	0.06	768327	keystroke_r	r	n/a
384.3885	0.06	768777	keystroke_a	a	n/a
384.5085	0.0745	769017	keystroke_i	i	n/a
384.613	0.0755	769226	keystroke_d	d	n/a
384.7025	0.091	769405	keystroke_Key.space	Key.space	n/a
384.8235	0.075	769647	keystroke_f	f	n/a
384.9125	0.061	769825	keystroke_o	o	n/a
385.033	0.0905	770066	keystroke_c	c	n/a
385.1375	0.0755	770275	keystroke_u	u	n/a
385.258	0.075	770516	keystroke_s	s	n/a
385.453	0.075	770906	keystroke_e	e	n/a
385.6335	0.075	771267	keystroke_d	d	n/a
385.7525	0.0755	771505	keystroke_Key.space	Key.space	n/a
386.0085	0.105	772017	keystroke_u	u	n/a
386.0835	0.1195	772167	keystroke_n	n	n/a
386.2325	0.1055	772465	keystroke_d	d	n/a
386.4125	0.076	772825	keystroke_e	e	n/a
386.608	0.06	773216	keystroke_r	r	n/a
386.773	0.0605	773546	keystroke_g	g	n/a
386.893	0.045	773786	keystroke_r	r	n/a
387.103	0.075	774206	keystroke_a	a	n/a
387.313	0.075	774626	keystroke_d	d	n/a
387.403	0.075	774806	keystroke_u	u	n/a
387.523	0.0755	775046	keystroke_a	a	n/a
387.643	0.06	775286	keystroke_t	t	n/a
387.748	0.06	775496	keystroke_e	e	n/a
387.853	0.105	775706	keystroke_Key.space	Key.space	n/a
388.1085	0.09	776217	keystroke_c	c	n/a
388.213	0.06	776426	keystroke_o	o	n/a
388.378	0.045	776756	keystroke_r	r	n/a
388.4835	0.0895	776967	keystroke_k	k	n/a
388.723	0.045	777446	keystroke_Key.enter	Key.enter	n/a
388.7735	9.026	777547	prompt	n/a	inspections decimal awarded rachel\n
389.6225	0.091	779245	keystroke_n	n	n/a
390.028	0.0895	780056	keystroke_Key.backspace	Key.backspace	n/a
390.4185	0.12	780837	keystroke_i	i	n/a
390.509	0.12	781018	keystroke_n	n	n/a
390.6585	0.0895	781317	keystroke_s	s	n/a
390.793	0.045	781586	keystroke_p	p	n/a
390.928	0.0455	781856	keystroke_e	e	n/a
391.108	0.06	782216	keystroke_c	c	n/a
391.3485	0.015	782697	keystroke_t	t	n/a
391.4835	0.09	782967	keystroke_i	i	n/a
391.6775	0.121	783355	keystroke_o	o	n/a
391.7385	0.134	783477	keystroke_n	n	n/a
392.203	0.075	784406	keystroke_s	s	n/a
392.368	0.09	784736	keystroke_Key.space	Key.space	n/a
392.533	0.09	785066	keystroke_d	d	n/a
392.683	0.0905	785366	keystroke_e	e	n/a
392.908	0.075	785816	keystroke_c	c	n/a
392.969	0.059	785938	keystroke_i	i	n/a
393.1925	0.046	786385	keystroke_m	m	n/a
393.2685	0.06	786537	keystroke_a	a	n/a
393.4185	0.045	786837	keystroke_l	l	n/a
393.583	0.105	787166	keystroke_Key.space	Key.space	n/a
393.838	0.075	787676	keystroke_a	a	n/a
394.033	0.0605	788066	keystroke_w	w	n/a
394.2125	0.0755	788425	keystroke_a	a	n/a
394.5435	0.0445	789087	keystroke_r	r	n/a
395.2035	0.0895	790407	keystroke_d	d	n/a
395.399	0.075	790798	keystroke_e	e	n/a
395.564	0.089	791128	keystroke_d	d	n/a
395.683	0.09	791366	keystroke_Key.space	Key.space	n/a
396.3425	0.075	792685	keystroke_r	r	n/a
396.5675	0.0755	793135	keystroke_a	a	n/a
396.823	0.06	793646	keystroke_c	c	n/a
396.913	0.09	793826	keystroke_h	h	n/a
397.0485	0.0595	794097	keystroke_e	e	n/a
397.183	0.045	794366	keystroke_l	l	n/a
397.738	0.06	795476	keystroke_Key.enter	Key.enter	n/a
397.8125	15.677	795625	prompt	n/a	counters bizrate teen norfolk\n
398.668	0.0595	797336	keystroke_c	c	n/a
398.758	0.0755	797516	keystroke_o	o	n/a
398.9685	0.105	797937	keystroke_u	u	n/a
399.0435	0.1195	798087	keystroke_n	n	n/a
399.134	0.074	798268	keystroke_t	t	n/a
399.343	0.089	798686	keystroke_e	e	n/a
399.523	0.09	799046	keystroke_r	r	n/a
399.7485	0.059	799497	keystroke_s	s	n/a
399.8525	0.0755	799705	keystroke_Key.space	Key.space	n/a
401.1425	0.09	802285	keystroke_v	v	n/a
402.178	0.06	804356	keystroke_Key.backspace	Key.backspace	n/a
402.433	0.075	804866	keystroke_b	b	n/a
402.598	0.0605	805196	keystroke_i	i	n/a
402.793	0.075	805586	keystroke_z	z	n/a
402.9725	0.0755	805945	keystroke_r	r	n/a
403.078	0.0895	806156	keystroke_a	a	n/a
403.2285	0.06	806457	keystroke_t	t	n/a
403.3475	0.091	806695	keystroke_e	e	n/a
403.5425	0.106	807085	keystroke_s	s	n/a
403.6335	0.0895	807267	keystroke_Key.space	Key.space	n/a
403.858	0.075	807716	keystroke_t	t	n/a
404.0685	0.059	808137	keystroke_e	e	n/a
404.2185	0.09	808437	keystroke_e	e	n/a
404.369	0.119	808738	keystroke_n	n	n/a
404.413	0.165	808826	keystroke_Key.space	Key.space	n/a
405.913	0.045	811826	keystroke_Key.backspace	Key.backspace	n/a
406.0625	0.06	812125	keystroke_Key.backspace	Key.backspace	n/a
406.303	0.045	812606	keystroke_Key.backspace	Key.backspace	n/a
406.4675	0.045	812935	keystroke_Key.backspace	Key.backspace	n/a
406.6035	0.059	813207	keystroke_Key.backspace	Key.backspace	n/a
406.753	0.06	813506	keystroke_Key.backspace	Key.backspace	n/a
406.9175	0.045	813835	keystroke_Key.backspace	Key.backspace	n/a
407.2625	0.06	814525	keystroke_Key.space	Key.space	n/a
407.6535	0.075	815307	keystroke_t	t	n/a
407.8775	0.061	815755	keystroke_e	e	n/a
408.0575	0.075	816115	keystroke_e	e	n/a
408.223	0.1055	816446	keystroke_n	n	n/a
408.358	0.12	816716	keystroke_Key.space	Key.space	n/a
410.1875	0.121	820375	keystroke_n	n	n/a
410.2625	0.12	820525	keystroke_o	o	n/a
410.368	0.1055	820736	keystroke_r	r	n/a
410.5635	0.044	821127	keystroke_t	t	n/a
410.893	0.0445	821786	keystroke_Key.backspace	Key.backspace	n/a
411.028	0.0745	822056	keystroke_Key.backspace	Key.backspace	n/a
411.7485	0.0445	823497	keystroke_r	r	n/a
411.928	0.0605	823856	keystroke_f	f	n/a
412.063	0.09	824126	keystroke_o	o	n/a
412.258	0.06	824516	keystroke_l	l	n/a
412.918	0.075	825836	keystroke_k	k	n/a
413.398	0.09	826796	keystroke_Key.enter	Key.enter	n/a
413.5075	6.282	827015	prompt	n/a	bowl keys jane nevertheless\n
414.3875	0.076	828775	keystroke_b	b	n/a
414.598	0.075	829196	keystroke_o	o	n/a
414.703	0.075	829406	keystroke_w	w	n/a
414.823	0.105	829646	keystroke_l	l	n/a
415.018	0.09	830036	keystroke_Key.space	Key.space	n/a
415.228	0.0595	830456	keystroke_k	k	n/a
415.3325	0.09	830665	keystroke_e	e	n/a
415.5275	0.061	831055	keystroke_y	y	n/a
415.6335	0.089	831267	keystroke_s	s	n/a
415.7975	0.075	831595	keystroke_Key.space	Key.space	n/a
416.4125	0.0755	832825	keystroke_j	j	n/a
416.5335	0.075	833067	keystroke_a	a	n/a
416.6235	0.074	833247	keystroke_n	n	n/a
416.7435	0.075	833487	keystroke_e	e	n/a
416.8925	0.076	833785	keystroke_Key.space	Key.space	n/a
417.4625	0.0755	834925	keystroke_n	n	n/a
417.599	0.0745	835198	keystroke_e	e	n/a
417.7035	0.06	835407	keystroke_v	v	n/a
417.7935	0.09	835587	keystroke_e	e	n/a
417.958	0.075	835916	keystroke_r	r	n/a
418.169	0.0745	836338	keystroke_t	t	n/a
418.2885	0.0745	836577	keystroke_h	h	n/a
418.933	0.075	837866	keystroke_e	e	n/a
419.0985	0.059	838197	keystroke_l	l	n/a
419.248	0.0455	838496	keystroke_e	e	n/a
419.398	0.075	838796	keystroke_s	s	n/a
419.5475	0.09	839095	keystroke_s	s	n/a
419.7135	0.074	839427	keystroke_Key.enter	Key.enter	n/a
419.7935	7.6615	839587	prompt	n/a	nuclear workers organizer lance\n
420.6135	0.0745	841227	keystroke_n	n	n/a
420.793	0.075	841586	keystroke_u	u	n/a
420.884	0.089	841768	keystroke_c	c	n/a
421.048	0.09	842096	keystroke_l	l	n/a
421.0935	0.0295	842187	keystroke_k	k	n/a
421.1535	0.0745	842307	keystroke_e	e	n/a
421.378	0.075	842756	keystroke_a	a	n/a
421.618	0.061	843236	keystroke_r	r	n/a
421.783	0.0445	843566	keystroke_Key.space	Key.space	n/a
422.308	0.06	844616	keystroke_Key.backspace	Key.backspace	n/a
422.443	0.0755	844886	keystroke_Key.backspace	Key.backspace	n/a
422.608	0.045	845216	keystroke_Key.backspace	Key.backspace	n/a
422.743	0.06	845486	keystroke_Key.backspace	Key.backspace	n/a
422.8635	0.0745	845727	keystroke_Key.backspace	Key.backspace	n/a
423.058	0.06	846116	keystroke_e	e	n/a
423.2385	0.0745	846477	keystroke_a	a	n/a
423.463	0.06	846926	keystroke_r	r	n/a
423.598	0.075	847196	keystroke_Key.space	Key.space	n/a
423.943	0.075	847886	keystroke_w	w	n/a
424.078	0.075	848156	keystroke_o	o	n/a
424.213	0.0755	848426	keystroke_r	r	n/a
424.319	0.074	848638	keystroke_k	k	n/a
424.4085	0.06	848817	keystroke_e	e	n/a
424.5585	0.075	849117	keystroke_r	r	n/a
424.7685	0.0745	849537	keystroke_s	s	n/a
424.844	0.0745	849688	keystroke_Key.space	Key.space	n/a
425.039	0.0595	850078	keystroke_o	o	n/a
425.173	0.09	850346	keystroke_r	r	n/a
425.3525	0.076	850705	keystroke_g	g	n/a
425.5025	0.0605	851005	keystroke_a	a	n/a
425.623	0.12	851246	keystroke_n	n	n/a
425.7125	0.106	851425	keystroke_i	i	n/a
425.8035	0.09	851607	keystroke_z	z	n/a
426.0425	0.061	852085	keystroke_e	e	n/a
426.2525	0.06	852505	keystroke_r	r	n/a
426.3875	0.105	852775	keystroke_Key.space	Key.space	n/a
426.6885	0.059	853377	keystroke_l	l	n/a
426.7935	0.075	853587	keystroke_a	a	n/a
426.9275	0.075	853855	keystroke_n	n	n/a
427.0485	0.0905	854097	keystroke_c	c	n/a
427.2585	0.06	854517	keystroke_e	e	n/a
427.3785	0.0745	854757	keystroke_Key.enter	Key.enter	n/a
427.461	6.143	854922	prompt	n/a	parenting locking pens vaccine\n
428.2185	0.0445	856437	keystroke_p	p	n/a
428.2935	0.075	856587	keystroke_a	a	n/a
428.533	0.0605	857066	keystroke_r	r	n/a
428.713	0.045	857426	keystroke_e	e	n/a
428.8175	0.075	857635	keystroke_n	n	n/a
428.938	0.075	857876	keystroke_t	t	n/a
429.104	0.134	858208	keystroke_i	i	n/a
429.1775	0.105	858355	keystroke_n	n	n/a
429.2525	0.031	858505	keystroke_g	g	n/a
429.3575	0.09	858715	keystroke_Key.space	Key.space	n/a
429.5525	0.0455	859105	keystroke_l	l	n/a
429.703	0.0455	859406	keystroke_o	o	n/a
429.7335	0.0755	859467	keystroke_c	c	n/a
429.8825	0.0905	859765	keystroke_k	k	n/a
430.258	0.1345	860516	keystroke_i	i	n/a
430.3185	0.164	860637	keystroke_n	n	n/a
430.423	0.075	860846	keystroke_g	g	n/a
430.588	0.075	861176	keystroke_Key.space	Key.space	n/a
430.784	0.0735	861568	keystroke_p	p	n/a
430.9625	0.0455	861925	keystroke_e	e	n/a
431.158	0.0745	862316	keystroke_n	n	n/a
431.308	0.075	862616	keystroke_s	s	n/a
431.4425	0.09	862885	keystroke_Key.space	Key.space	n/a
431.638	0.0905	863276	keystroke_c	c	n/a
432.088	0.075	864176	keystroke_Key.backspace	Key.backspace	n/a
432.433	0.046	864866	keystroke_v	v	n/a
432.493	0.045	864986	keystroke_a	a	n/a
432.718	0.075	865436	keystroke_c	c	n/a
432.883	0.105	865766	keystroke_c	c	n/a
433.093	0.15	866186	keystroke_i	i	n/a
433.169	0.119	866338	keystroke_n	n	n/a
433.333	0.09	866666	keystroke_e	e	n/a
433.573	0.03	867146	keystroke_Key.enter	Key.enter	n/a
433.6085	6.206	867217	prompt	n/a	concentrate spec smith titles\n
434.3535	0.075	868707	keystroke_c	c	n/a
434.443	0.1355	868886	keystroke_o	o	n/a
434.5185	0.119	869037	keystroke_n	n	n/a
434.6075	0.076	869215	keystroke_c	c	n/a
434.7735	0.09	869547	keystroke_e	e	n/a
434.8785	0.06	869757	keystroke_n	n	n/a
435.028	0.0595	870056	keystroke_t	t	n/a
435.178	0.06	870356	keystroke_r	r	n/a
435.403	0.0605	870806	keystroke_a	a	n/a
435.553	0.045	871106	keystroke_t	t	n/a
435.673	0.06	871346	keystroke_e	e	n/a
435.838	0.075	871676	keystroke_Key.space	Key.space	n/a
435.9735	0.0895	871947	keystroke_s	s	n/a
436.093	0.045	872186	keystroke_p	p	n/a
436.228	0.0605	872456	keystroke_e	e	n/a
436.453	0.075	872906	keystroke_c	c	n/a
436.588	0.09	873176	keystroke_Key.space	Key.space	n/a
437.009	0.0895	874018	keystroke_s	s	n/a
437.143	0.0595	874286	keystroke_m	m	n/a
437.2635	0.0745	874527	keystroke_i	i	n/a
437.428	0.06	874856	keystroke_t	t	n/a
437.533	0.09	875066	keystroke_h	h	n/a
437.653	0.105	875306	keystroke_Key.space	Key.space	n/a
437.7585	0.074	875517	keystroke_t	t	n/a
437.893	0.075	875786	keystroke_i	i	n/a
438.118	0.0745	876236	keystroke_t	t	n/a
438.5375	0.016	877075	keystroke_k	k	n/a
439.0775	0.106	878155	keystroke_Key.backspace	Key.backspace	n/a
439.364	0.074	878728	keystroke_l	l	n/a
439.468	0.075	878936	keystroke_e	e	n/a
439.633	0.075	879266	keystroke_s	s	n/a
439.723	0.09	879446	keystroke_Key.enter	Key.enter	n/a
439.818	5.217	879636	prompt	n/a	extract females laptops modem\n
440.608	0.0755	881216	keystroke_e	e	n/a
440.758	0.0895	881516	keystroke_x	x	n/a
440.892	0.061	881784	keystroke_t	t	n/a
441.0575	0.0605	882115	keystroke_r	r	n/a
441.2525	0.0605	882505	keystroke_a	a	n/a
441.5075	0.0605	883015	keystroke_c	c	n/a
441.643	0.0605	883286	keystroke_t	t	n/a
441.793	0.075	883586	keystroke_Key.space	Key.space	n/a
442.063	0.06	884126	keystroke_f	f	n/a
442.2435	0.0595	884487	keystroke_e	e	n/a
442.318	0.06	884636	keystroke_m	m	n/a
442.438	0.1055	884876	keystroke_a	a	n/a
442.5585	0.06	885117	keystroke_l	l	n/a
442.6935	0.12	885387	keystroke_e	e	n/a
442.8435	0.09	885687	keystroke_s	s	n/a
442.9485	0.06	885897	keystroke_Key.space	Key.space	n/a
443.1285	0.059	886257	keystroke_l	l	n/a
443.2335	0.09	886467	keystroke_a	a	n/a
443.4135	0.06	886827	keystroke_p	p	n/a
443.5935	0.0595	887187	keystroke_t	t	n/a
443.698	0.0605	887396	keystroke_o	o	n/a
443.8625	0.06	887725	keystroke_p	p	n/a
444.0135	0.045	888027	keystroke_s	s	n/a
444.0725	0.076	888145	keystroke_Key.space	Key.space	n/a
444.283	0.136	888566	keystroke_m	m	n/a
444.358	0.12	888716	keystroke_o	o	n/a
444.464	0.0745	888928	keystroke_d	d	n/a
444.628	0.06	889256	keystroke_e	e	n/a
444.718	0.1055	889436	keystroke_m	m	n/a
444.973	0.06	889946	keystroke_Key.enter	Key.enter	n/a
445.04	5.7995	890080	prompt	n/a	ebony controller polished holly\n
445.783	0.0905	891566	keystroke_e	e	n/a
446.038	0.09	892076	keystroke_b	b	n/a
446.143	0.165	892286	keystroke_o	o	n/a
446.233	0.12	892466	keystroke_n	n	n/a
446.338	0.075	892676	keystroke_y	y	n/a
446.443	0.1195	892886	keystroke_Key.space	Key.space	n/a
446.848	0.0755	893696	keystroke_c	c	n/a
446.938	0.15	893876	keystroke_o	o	n/a
446.998	0.12	893996	keystroke_n	n	n/a
447.133	0.075	894266	keystroke_t	t	n/a
447.268	0.105	894536	keystroke_r	r	n/a
447.388	0.046	894776	keystroke_o	o	n/a
447.538	0.0605	895076	keystroke_l	l	n/a
447.6885	0.06	895377	keystroke_l	l	n/a
447.7635	0.06	895527	keystroke_e	e	n/a
447.914	0.09	895828	keystroke_r	r	n/a
447.9725	0.0915	895945	keystroke_Key.space	Key.space	n/a
448.3035	0.0895	896607	keystroke_p	p	n/a
448.498	0.075	896996	keystroke_o	o	n/a
448.6485	0.0745	897297	keystroke_l	l	n/a
448.828	0.06	897656	keystroke_i	i	n/a
448.948	0.105	897896	keystroke_s	s	n/a
449.0685	0.0445	898137	keystroke_h	h	n/a
449.173	0.0905	898346	keystroke_e	e	n/a
449.3385	0.0895	898677	keystroke_d	d	n/a
449.443	0.06	898886	keystroke_Key.space	Key.space	n/a
450.0735	0.075	900147	keystroke_h	h	n/a
450.1785	0.105	900357	keystroke_o	o	n/a
450.373	0.0455	900746	keystroke_l	l	n/a
450.6135	0.0145	901227	keystroke_l	l	n/a
450.659	0.0295	901318	keystroke_y	y	n/a
450.778	0.06	901556	keystroke_Key.enter	Key.enter	n/a
450.843	6.9415	901686	prompt	n/a	dressing ryan we buses\n
451.5575	0.09	903115	keystroke_d	d	n/a
451.768	0.06	903536	keystroke_r	r	n/a
451.903	0.076	903806	keystroke_e	e	n/a
452.083	0.06	904166	keystroke_s	s	n/a
452.234	0.089	904468	keystroke_s	s	n/a
453.1935	0.135	906387	keystroke_i	i	n/a
453.253	0.149	906506	keystroke_n	n	n/a
453.4635	0.06	906927	keystroke_g	g	n/a
453.6285	0.09	907257	keystroke_Key.space	Key.space	n/a
453.9885	0.06	907977	keystroke_r	r	n/a
454.1975	0.076	908395	keystroke_y	y	n/a
454.3485	0.0745	908697	keystroke_a	a	n/a
454.5285	0.1045	909057	keystroke_n	n	n/a
454.603	0.12	909206	keystroke_Key.space	Key.space	n/a
454.9935	0.1205	909987	keystroke_w	w	n/a
455.233	0.075	910466	keystroke_e	e	n/a
455.398	0.09	910796	keystroke_Key.space	Key.space	n/a
455.8625	0.09	911725	keystroke_b	b	n/a
456.0575	0.061	912115	keystroke_u	u	n/a
456.1635	0.0745	912327	keystroke_s	s	n/a
456.328	0.105	912656	keystroke_s	s	n/a
456.523	0.075	913046	keystroke_e	e	n/a
456.673	0.0895	913346	keystroke_s	s	n/a
457.0025	0.045	914005	keystroke_Key.backspace	Key.backspace	n/a
457.1385	0.06	914277	keystroke_Key.backspace	Key.backspace	n/a
457.2735	0.045	914547	keystroke_Key.backspace	Key.backspace	n/a
457.4235	0.075	914847	keystroke_e	e	n/a
457.5735	0.09	915147	keystroke_s	s	n/a
457.7075	0.075	915415	keystroke_Key.enter	Key.enter	n/a
457.7905	5.604	915581	prompt	n/a	drivers she contracts sphere\n
458.579	0.0735	917158	keystroke_d	d	n/a
458.7575	0.061	917515	keystroke_r	r	n/a
458.8635	0.089	917727	keystroke_i	i	n/a
459.1025	0.091	918205	keystroke_v	v	n/a
459.1945	0.088	918389	keystroke_e	e	n/a
459.389	0.089	918778	keystroke_r	r	n/a
459.5835	0.074	919167	keystroke_s	s	n/a
459.6725	0.075	919345	keystroke_Key.space	Key.space	n/a
459.794	0.074	919588	keystroke_s	s	n/a
459.883	0.075	919766	keystroke_h	h	n/a
460.003	0.061	920006	keystroke_e	e	n/a
460.109	0.0895	920218	keystroke_Key.space	Key.space	n/a
460.2735	0.089	920547	keystroke_c	c	n/a
460.378	0.1205	920756	keystroke_o	o	n/a
460.4535	0.12	920907	keystroke_n	n	n/a
460.5875	0.061	921175	keystroke_t	t	n/a
460.7225	0.091	921445	keystroke_r	r	n/a
460.993	0.045	921986	keystroke_a	a	n/a
461.203	0.0605	922406	keystroke_c	c	n/a
461.338	0.075	922676	keystroke_t	t	n/a
461.458	0.0745	922916	keystroke_s	s	n/a
461.578	0.105	923156	keystroke_Key.space	Key.space	n/a
461.8335	0.0445	923667	keystroke_s	s	n/a
462.463	0.09	924926	keystroke_p	p	n/a
462.7475	0.075	925495	keystroke_h	h	n/a
462.8685	0.0745	925737	keystroke_e	e	n/a
463.063	0.0755	926126	keystroke_r	r	n/a
463.2285	0.0745	926457	keystroke_e	e	n/a
463.333	0.06	926666	keystroke_Key.enter	Key.enter	n/a
463.4015	6.818	926803	prompt	n/a	treasury first powerful para\n
464.2785	0.075	928557	keystroke_t	t	n/a
464.4435	0.075	928887	keystroke_r	r	n/a
464.6085	0.09	929217	keystroke_e	e	n/a
464.8035	0.06	929607	keystroke_a	a	n/a
464.9535	0.09	929907	keystroke_s	s	n/a
465.0575	0.076	930115	keystroke_u	u	n/a
465.2525	0.076	930505	keystroke_r	r	n/a
465.4475	0.061	930895	keystroke_y	y	n/a
465.6135	0.09	931227	keystroke_Key.space	Key.space	n/a
466.1535	0.06	932307	keystroke_f	f	n/a
466.2435	0.06	932487	keystroke_i	i	n/a
466.3775	0.046	932755	keystroke_r	r	n/a
466.5435	0.089	933087	keystroke_s	s	n/a
466.6485	0.09	933297	keystroke_t	t	n/a
466.8275	0.1055	933655	keystroke_Key.space	Key.space	n/a
467.188	0.0905	934376	keystroke_p	p	n/a
467.3525	0.0755	934705	keystroke_o	o	n/a
467.488	0.06	934976	keystroke_w	w	n/a
467.6685	0.0745	935337	keystroke_e	e	n/a
467.908	0.0745	935816	keystroke_r	r	n/a
468.1475	0.06	936295	keystroke_f	f	n/a
468.238	0.0755	936476	keystroke_u	u	n/a
468.448	0.09	936896	keystroke_l	l	n/a
468.613	0.105	937226	keystroke_Key.space	Key.space	n/a
469.423	0.06	938846	keystroke_p	p	n/a
469.5435	0.09	939087	keystroke_a	a	n/a
469.754	0.059	939508	keystroke_r	r	n/a
469.9935	0.09	939987	keystroke_a	a	n/a
470.143	0.075	940286	keystroke_Key.enter	Key.enter	n/a
470.225	12.0545	940450	prompt	n/a	liechtenstein she desired compiled\n
471.2235	0.0905	942447	keystroke_l	l	n/a
471.4485	0.06	942897	keystroke_i	i	n/a
471.568	0.091	943136	keystroke_e	e	n/a
471.778	0.075	943556	keystroke_c	c	n/a
471.898	0.0755	943796	keystroke_h	h	n/a
472.348	0.09	944696	keystroke_s	s	n/a
472.453	0.0895	944906	keystroke_t	t	n/a
473.443	0.075	946886	keystroke_Key.backspace	Key.backspace	n/a
473.608	0.045	947216	keystroke_Key.backspace	Key.backspace	n/a
476.2055	0.001	952411	keystroke_t	t	n/a
476.3375	0.061	952675	keystroke_e	e	n/a
476.459	0.09	952918	keystroke_n	n	n/a
476.698	0.075	953396	keystroke_s	s	n/a
476.968	0.06	953936	keystroke_t	t	n/a
477.148	0.075	954296	keystroke_e	e	n/a
477.2835	0.1195	954567	keystroke_i	i	n/a
477.358	0.12	954716	keystroke_n	n	n/a
477.5535	0.1045	955107	keystroke_Key.space	Key.space	n/a
477.6435	0.0905	955287	keystroke_s	s	n/a
477.778	0.075	955556	keystroke_h	h	n/a
477.855	0.059	955710	keystroke_e	e	n/a
477.9585	0.1195	955917	keystroke_Key.space	Key.space	n/a
479.8035	0.0755	959607	keystroke_d	d	n/a
480.014	0.0745	960028	keystroke_e	e	n/a
480.2085	0.0755	960417	keystroke_s	s	n/a
480.328	0.0755	960656	keystroke_i	i	n/a
480.4475	0.09	960895	keystroke_r	r	n/a
480.6285	0.06	961257	keystroke_e	e	n/a
480.7785	0.089	961557	keystroke_d	d	n/a
480.8825	0.1055	961765	keystroke_Key.space	Key.space	n/a
481.0325	0.075	962065	keystroke_c	c	n/a
481.1375	0.151	962275	keystroke_o	o	n/a
481.2285	0.12	962457	keystroke_m	m	n/a
481.4235	0.09	962847	keystroke_p	p	n/a
481.633	0.061	963266	keystroke_i	i	n/a
481.8285	0.074	963657	keystroke_l	l	n/a
481.9175	0.1055	963835	keystroke_e	e	n/a
482.113	0.076	964226	keystroke_d	d	n/a
482.203	0.075	964406	keystroke_Key.enter	Key.enter	n/a
482.2955	8.4745	964591	prompt	n/a	clinics bent shuttle reward\n
483.014	0.074	966028	keystroke_c	c	n/a
483.089	0.074	966178	keystroke_l	l	n/a
483.2835	0.1055	966567	keystroke_i	i	n/a
483.358	0.18	966716	keystroke_n	n	n/a
483.494	0.1045	966988	keystroke_i	i	n/a
483.748	0.0755	967496	keystroke_c	c	n/a
483.9735	0.06	967947	keystroke_s	s	n/a
484.078	0.0895	968156	keystroke_Key.space	Key.space	n/a
484.708	0.0455	969416	keystroke_b	b	n/a
484.7235	0.015	969447	keystroke_v	v	n/a
484.7985	0.0895	969597	keystroke_e	e	n/a
485.353	0.06	970706	keystroke_Key.backspace	Key.backspace	n/a
485.5335	0.0145	971067	keystroke_Key.backspace	Key.backspace	n/a
485.9985	0.09	971997	keystroke_e	e	n/a
486.1185	0.0745	972237	keystroke_n	n	n/a
486.238	0.0755	972476	keystroke_t	t	n/a
486.3285	0.1045	972657	keystroke_Key.space	Key.space	n/a
486.464	0.09	972928	keystroke_s	s	n/a
486.5835	0.0445	973167	keystroke_h	h	n/a
486.7185	0.0595	973437	keystroke_u	u	n/a
486.8385	0.06	973677	keystroke_f	f	n/a
486.9885	0.1045	973977	keystroke_f	f	n/a
487.153	0.0605	974306	keystroke_l	l	n/a
487.273	0.06	974546	keystroke_e	e	n/a
487.4385	0.074	974877	keystroke_Key.space	Key.space	n/a
487.7825	0.045	975565	keystroke_Key.backspace	Key.backspace	n/a
487.9325	0.045	975865	keystroke_Key.backspace	Key.backspace	n/a
488.0835	0.044	976167	keystroke_Key.backspace	Key.backspace	n/a
488.2475	0.0455	976495	keystroke_Key.backspace	Key.backspace	n/a
488.383	0.0745	976766	keystroke_Key.backspace	Key.backspace	n/a
488.5635	0.074	977127	keystroke_t	t	n/a
488.743	0.0755	977486	keystroke_t	t	n/a
488.8635	0.075	977727	keystroke_l	l	n/a
488.9985	0.075	977997	keystroke_e	e	n/a
489.1935	0.059	978387	keystroke_Key.space	Key.space	n/a
489.5235	0.0895	979047	keystroke_r	r	n/a
489.7025	0.076	979405	keystroke_e	e	n/a
489.9285	0.06	979857	keystroke_w	w	n/a
490.168	0.0605	980336	keystroke_a	a	n/a
490.2425	0.135	980485	keystroke_r	r	n/a
490.303	0.1045	980606	keystroke_d	d	n/a
490.6785	0.0895	981357	keystroke_Key.enter	Key.enter	n/a
490.776	7.075	981552	prompt	n/a	consistency pump drinking differential\n
491.5785	0.075	983157	keystroke_c	c	n/a
491.743	0.09	983486	keystroke_o	o	n/a
491.758	0.1205	983516	keystroke_n	n	n/a
491.908	0.03	983816	keystroke_s	s	n/a
491.999	0.06	983998	keystroke_i	i	n/a
492.088	0.076	984176	keystroke_s	s	n/a
492.3135	0.0595	984627	keystroke_t	t	n/a
492.493	0.075	984986	keystroke_e	e	n/a
492.583	0.06	985166	keystroke_n	n	n/a
492.718	0.075	985436	keystroke_c	c	n/a
492.808	0.091	985616	keystroke_y	y	n/a
492.973	0.1045	985946	keystroke_Key.space	Key.space	n/a
493.2585	0.09	986517	keystroke_p	p	n/a
493.573	0.0755	987146	keystroke_u	u	n/a
493.7085	0.1195	987417	keystroke_m	m	n/a
493.8725	0.091	987745	keystroke_p	p	n/a
494.0675	0.091	988135	keystroke_Key.space	Key.space	n/a
494.1885	0.075	988377	keystroke_d	d	n/a
494.3835	0.0595	988767	keystroke_r	r	n/a
494.5035	0.1195	989007	keystroke_i	i	n/a
494.5635	0.1795	989127	keystroke_n	n	n/a
494.713	0.1205	989426	keystroke_k	k	n/a
494.9385	0.1495	989877	keystroke_i	i	n/a
495.0135	0.15	990027	keystroke_n	n	n/a
495.1785	0.075	990357	keystroke_g	g	n/a
495.3575	0.106	990715	keystroke_Key.space	Key.space	n/a
495.913	0.075	991826	keystroke_d	d	n/a
496.0485	0.0595	992097	keystroke_i	i	n/a
496.1535	0.0595	992307	keystroke_f	f	n/a
496.303	0.105	992606	keystroke_f	f	n/a
496.528	0.06	993056	keystroke_e	e	n/a
496.708	0.06	993416	keystroke_r	r	n/a
496.873	0.075	993746	keystroke_e	e	n/a
496.994	0.089	993988	keystroke_n	n	n/a
497.113	0.0605	994226	keystroke_t	t	n/a
497.278	0.075	994556	keystroke_i	i	n/a
497.413	0.06	994826	keystroke_a	a	n/a
497.533	0.0905	995066	keystroke_l	l	n/a
497.8025	0.0455	995605	keystroke_Key.enter	Key.enter	n/a
497.858	9.8015	995716	prompt	n/a	clinics admissions mechanisms belly\n
498.583	0.061	997166	keystroke_c	c	n/a
498.704	0.044	997408	keystroke_l	l	n/a
498.8675	0.0905	997735	keystroke_i	i	n/a
499.0035	0.134	998007	keystroke_n	n	n/a
499.169	0.1045	998338	keystroke_i	i	n/a
499.3325	0.0915	998665	keystroke_c	c	n/a
499.588	0.045	999176	keystroke_s	s	n/a
499.6775	0.09	999355	keystroke_Key.space	Key.space	n/a
499.8425	0.0605	999685	keystroke_a	a	n/a
500.038	0.076	1000076	keystroke_d	d	n/a
500.098	0.0755	1000196	keystroke_m	m	n/a
500.2785	0.0755	1000557	keystroke_i	i	n/a
500.368	0.03	1000736	keystroke_s	s	n/a
500.503	0.075	1001006	keystroke_s	s	n/a
500.683	0.0605	1001366	keystroke_i	i	n/a
500.8635	0.1045	1001727	keystroke_o	o	n/a
500.9385	0.1195	1001877	keystroke_n	n	n/a
501.1485	0.06	1002297	keystroke_s	s	n/a
501.3125	0.105	1002625	keystroke_Key.space	Key.space	n/a
501.5685	0.074	1003137	keystroke_m	m	n/a
501.674	0.0745	1003348	keystroke_e	e	n/a
501.883	0.0905	1003766	keystroke_c	c	n/a
501.988	0.076	1003976	keystroke_h	h	n/a
502.1535	0.06	1004307	keystroke_a	a	n/a
502.2725	0.1355	1004545	keystroke_n	n	n/a
502.3475	0.106	1004695	keystroke_i	i	n/a
502.513	0.0605	1005026	keystroke_s	s	n/a
502.7085	0.12	1005417	keystroke_i	i	n/a
502.8885	0.12	1005777	keystroke_m	m	n/a
503.0985	0.075	1006197	keystroke_s	s	n/a
503.2775	0.1055	1006555	keystroke_Key.space	Key.space	n/a
505.2725	0.0305	1010545	keystroke_Key.backspace	Key.backspace	n/a
505.4225	0.0455	1010845	keystroke_Key.backspace	Key.backspace	n/a
505.5735	0.075	1011147	keystroke_Key.backspace	Key.backspace	n/a
505.963	0.1045	1011926	keystroke_Key.backspace	Key.backspace	n/a
506.5635	0.075	1013127	keystroke_m	m	n/a
506.6535	0.135	1013307	keystroke_s	s	n/a
506.7435	0.09	1013487	keystroke_Key.space	Key.space	n/a
506.8635	0.09	1013727	keystroke_b	b	n/a
506.9835	0.075	1013967	keystroke_e	e	n/a
507.1335	0.06	1014267	keystroke_l	l	n/a
507.2985	0.075	1014597	keystroke_l	l	n/a
507.3885	0.06	1014777	keystroke_y	y	n/a
507.5675	0.09	1015135	keystroke_Key.enter	Key.enter	n/a
507.675	7.3495	1015350	prompt	n/a	adipex medicines fold excluded\n
508.3175	0.091	1016635	keystroke_a	a	n/a
508.5875	0.046	1017175	keystroke_d	d	n/a
508.7085	0.074	1017417	keystroke_i	i	n/a
508.888	0.061	1017776	keystroke_p	p	n/a
509.0385	0.0755	1018077	keystroke_e	e	n/a
509.3085	0.0755	1018617	keystroke_x	x	n/a
509.5785	0.0745	1019157	keystroke_Key.space	Key.space	n/a
510.028	0.075	1020056	keystroke_m	m	n/a
510.148	0.06	1020296	keystroke_e	e	n/a
510.313	0.076	1020626	keystroke_d	d	n/a
510.434	0.0745	1020868	keystroke_i	i	n/a
510.583	0.075	1021166	keystroke_c	c	n/a
510.703	0.1205	1021406	keystroke_i	i	n/a
510.7785	0.135	1021557	keystroke_n	n	n/a
510.8975	0.106	1021795	keystroke_e	e	n/a
511.1085	0.09	1022217	keystroke_s	s	n/a
511.2435	0.104	1022487	keystroke_Key.space	Key.space	n/a
512.548	0.075	1025096	keystroke_f	f	n/a
512.654	0.089	1025308	keystroke_o	o	n/a
512.833	0.09	1025666	keystroke_l	l	n/a
512.983	0.075	1025966	keystroke_d	d	n/a
513.103	0.105	1026206	keystroke_Key.space	Key.space	n/a
513.463	0.091	1026926	keystroke_e	e	n/a
513.7035	0.0745	1027407	keystroke_x	x	n/a
513.883	0.106	1027766	keystroke_c	c	n/a
514.033	0.045	1028066	keystroke_l	l	n/a
514.229	0.0595	1028458	keystroke_u	u	n/a
514.348	0.075	1028696	keystroke_d	d	n/a
514.5425	0.076	1029085	keystroke_e	e	n/a
514.7235	0.09	1029447	keystroke_d	d	n/a
