onset	duration	sample	value	key	prompt_text
16.616	0.0895	33232	keystroke_a	a	n/a
16.66	0.1355	33320	keystroke_d	d	n/a
16.765	0.1355	33530	keystroke_a	a	n/a
16.8855	0.09	33771	keystroke_m	m	n/a
17.0655	0.0915	34131	keystroke_b	b	n/a
23.755	0.0905	47510	keystroke_1	1	n/a
31.8255	0.45	63651	keystroke_Key.cmd	Key.cmd	n/a
32.2305	0.09	64461	keystroke_c	c	n/a
32.5155	0.2395	65031	keystroke_Key.cmd	Key.cmd	n/a
32.6805	0.1	65361	keystroke_2	2	n/a
34.0155	0.12	68031	keystroke_Key.cmd	Key.cmd	n/a
34.0905	0.09	68181	keystroke_v	v	n/a
39.927	10.021	79854	prompt	n/a	the quick brown fox jumps over a lazy dog\n
42.3705	0.075	84741	keystroke_t	t	n/a
42.4605	0.09	84921	keystroke_h	h	n/a
42.5655	0.06	85131	keystroke_e	e	n/a
42.641	0.1195	85282	keystroke_Key.space	Key.space	n/a
43.466	0.1195	86932	keystroke_q	q	n/a
43.5855	0.15	87171	keystroke_u	u	n/a
43.661	0.0895	87322	keystroke_i	i	n/a
43.796	0.135	87592	keystroke_c	c	n/a
43.9455	0.1205	87891	keystroke_k	k	n/a
44.051	0.1205	88102	keystroke_Key.space	Key.space	n/a
44.2005	0.0755	88401	keystroke_b	b	n/a
44.411	0.0745	88822	keystroke_r	r	n/a
44.501	0.105	89002	keystroke_o	o	n/a
44.621	0.075	89242	keystroke_w	w	n/a
44.711	0.1195	89422	keystroke_n	n	n/a
44.801	0.12	89602	keystroke_Key.space	Key.space	n/a
45.101	0.075	90202	keystroke_f	f	n/a
45.221	0.12	90442	keystroke_o	o	n/a
45.3555	0.0755	90711	keystroke_x	x	n/a
45.477	0.104	90954	keystroke_Key.space	Key.space	n/a
45.596	0.0745	91192	keystroke_j	j	n/a
45.746	0.075	91492	keystroke_u	u	n/a
46.0755	0.0755	92151	keystroke_p	p	n/a
46.436	0.075	92872	keystroke_Key.backspace	Key.backspace	n/a
46.706	0.0445	93412	keystroke_m	m	n/a
46.886	0.135	93772	keystroke_p	p	n/a
47.066	0.075	94132	keystroke_s	s	n/a
47.1705	0.091	94341	keystroke_Key.space	Key.space	n/a
47.351	0.075	94702	keystroke_o	o	n/a
47.396	0.105	94792	keystroke_v	v	n/a
47.591	0.09	95182	keystroke_e	e	n/a
47.636	0.09	95272	keystroke_r	r	n/a
47.741	0.1205	95482	keystroke_Key.space	Key.space	n/a
47.846	0.105	95692	keystroke_a	a	n/a
47.966	0.1045	95932	keystroke_Key.space	Key.space	n/a
48.131	0.045	96262	keystroke_l	l	n/a
48.236	0.0755	96472	keystroke_a	a	n/a
48.746	0.105	97492	keystroke_z	z	n/a
48.896	0.0745	97792	keystroke_y	y	n/a
49.001	0.12	98002	keystroke_Key.space	Key.space	n/a
49.2555	0.0755	98511	keystroke_d	d	n/a
49.316	0.1045	98632	keystroke_o	o	n/a
49.4205	0.0755	98841	keystroke_g	g	n/a
49.8705	0.0755	99741	keystroke_Key.enter	Key.enter	n/a
49.951	11.126	99902	prompt	n/a	network stronger bishop given\n
56.066	0.12	112132	keystroke_n	n	n/a
56.1705	0.0605	112341	keystroke_e	e	n/a
56.246	0.06	112492	keystroke_t	t	n/a
56.5315	0.0745	113063	keystroke_w	w	n/a
56.621	0.12	113242	keystroke_o	o	n/a
56.726	0.09	113452	keystroke_r	r	n/a
56.831	0.09	113662	keystroke_k	k	n/a
56.906	0.1645	113812	keystroke_Key.space	Key.space	n/a
57.146	0.075	114292	keystroke_s	s	n/a
57.3865	0.0745	114773	keystroke_t	t	n/a
57.8665	0.0595	115733	keystroke_r	r	n/a
58.1665	0.12	116333	keystroke_o	o	n/a
58.2415	0.1045	116483	keystroke_n	n	n/a
58.3315	0.0895	116663	keystroke_g	g	n/a
58.511	0.12	117022	keystroke_e	e	n/a
58.586	0.09	117172	keystroke_r	r	n/a
58.721	0.09	117442	keystroke_Key.space	Key.space	n/a
59.037	0.1185	118074	keystroke_b	b	n/a
59.1705	0.0905	118341	keystroke_i	i	n/a
59.246	0.091	118492	keystroke_s	s	n/a
59.381	0.0745	118762	keystroke_h	h	n/a
59.741	0.06	119482	keystroke_o	o	n/a
59.921	0.1345	119842	keystroke_p	p	n/a
60.056	0.1345	120112	keystroke_Key.space	Key.space	n/a
60.431	0.105	120862	keystroke_g	g	n/a
60.551	0.075	121102	keystroke_i	i	n/a
60.641	0.105	121282	keystroke_v	v	n/a
60.761	0.0615	121522	keystroke_e	e	n/a
60.8225	0.074	121645	keystroke_n	n	n/a
61.001	0.075	122002	keystroke_Key.enter	Key.enter	n/a
61.08	6.402	122160	prompt	n/a	transaction water asthma reputation\n
62.996	0.0605	125992	keystroke_t	t	n/a
63.131	0.0905	126262	keystroke_r	r	n/a
63.207	0.104	126414	keystroke_a	a	n/a
63.3265	0.105	126653	keystroke_n	n	n/a
63.401	0.106	126802	keystroke_s	s	n/a
63.581	0.105	127162	keystroke_a	a	n/a
63.791	0.135	127582	keystroke_c	c	n/a
63.9705	0.0755	127941	keystroke_t	t	n/a
64.061	0.225	128122	keystroke_i	i	n/a
64.166	0.135	128332	keystroke_o	o	n/a
64.241	0.09	128482	keystroke_n	n	n/a
64.316	0.12	128632	keystroke_Key.space	Key.space	n/a
64.4815	0.0745	128963	keystroke_w	w	n/a
64.661	0.0905	129322	keystroke_a	a	n/a
64.7215	0.09	129443	keystroke_t	t	n/a
64.886	0.1205	129772	keystroke_e	e	n/a
64.9615	0.105	129923	keystroke_r	r	n/a
65.0515	0.1195	130103	keystroke_Key.space	Key.space	n/a
65.2465	0.15	130493	keystroke_a	a	n/a
65.3215	0.12	130643	keystroke_s	s	n/a
65.456	0.0755	130912	keystroke_t	t	n/a
65.6065	0.0895	131213	keystroke_h	h	n/a
65.8915	0.1195	131783	keystroke_m	m	n/a
65.996	0.09	131992	keystroke_a	a	n/a
66.101	0.15	132202	keystroke_Key.space	Key.space	n/a
66.4165	0.0895	132833	keystroke_r	r	n/a
66.4915	0.0595	132983	keystroke_e	e	n/a
66.642	0.149	133284	keystroke_p	p	n/a
66.716	0.09	133432	keystroke_u	u	n/a
66.821	0.1205	133642	keystroke_t	t	n/a
66.956	0.1205	133912	keystroke_a	a	n/a
67.031	0.135	134062	keystroke_t	t	n/a
67.091	0.1795	134182	keystroke_i	i	n/a
67.181	0.105	134362	keystroke_o	o	n/a
67.256	0.075	134512	keystroke_n	n	n/a
67.376	0.105	134752	keystroke_Key.enter	Key.enter	n/a
67.487	4.6005	134974	prompt	n/a	conventions timer precision supplier\n
68.156	0.045	136312	keystroke_c	c	n/a
68.1865	0.12	136373	keystroke_o	o	n/a
68.2465	0.09	136493	keystroke_n	n	n/a
68.3215	0.0895	136643	keystroke_v	v	n/a
68.427	0.104	136854	keystroke_e	e	n/a
68.591	0.03	137182	keystroke_n	n	n/a
68.651	0.0755	137302	keystroke_t	t	n/a
68.7415	0.18	137483	keystroke_i	i	n/a
68.8165	0.165	137633	keystroke_o	o	n/a
68.8765	0.1195	137753	keystroke_n	n	n/a
68.9365	0.1195	137873	keystroke_s	s	n/a
69.071	0.135	138142	keystroke_Key.space	Key.space	n/a
69.2215	0.075	138443	keystroke_t	t	n/a
69.311	0.12	138622	keystroke_i	i	n/a
69.3865	0.1645	138773	keystroke_m	m	n/a
69.476	0.09	138952	keystroke_e	e	n/a
69.5815	0.1045	139163	keystroke_r	r	n/a
69.701	0.105	139402	keystroke_Key.space	Key.space	n/a
69.9115	0.0895	139823	keystroke_p	p	n/a
70.046	0.1195	140092	keystroke_r	r	n/a
70.1215	0.0895	140243	keystroke_e	e	n/a
70.286	0.1055	140572	keystroke_c	c	n/a
70.406	0.0755	140812	keystroke_i	i	n/a
70.5265	0.09	141053	keystroke_s	s	n/a
70.571	0.2255	141142	keystroke_i	i	n/a
70.662	0.1645	141324	keystroke_o	o	n/a
70.7365	0.1195	141473	keystroke_n	n	n/a
70.8265	0.15	141653	keystroke_Key.space	Key.space	n/a
71.051	0.09	142102	keystroke_s	s	n/a
71.1265	0.075	142253	keystroke_u	u	n/a
71.2165	0.105	142433	keystroke_p	p	n/a
71.3965	0.135	142793	keystroke_p	p	n/a
71.6065	0.1795	143213	keystroke_l	l	n/a
71.711	0.0905	143422	keystroke_i	i	n/a
71.8165	0.12	143633	keystroke_e	e	n/a
71.8915	0.105	143783	keystroke_r	r	n/a
71.9815	0.105	143963	keystroke_Key.enter	Key.enter	n/a
72.092	6.2055	144184	prompt	n/a	claims strand dollars volunteer\n
72.791	0.1505	145582	keystroke_c	c	n/a
72.8515	0.1195	145703	keystroke_l	l	n/a
72.956	0.1205	145912	keystroke_i	i	n/a
73.046	0.045	146092	keystroke_a	a	n/a
73.1365	0.15	146273	keystroke_m	m	n/a
73.2415	0.12	146483	keystroke_s	s	n/a
73.3465	0.12	146693	keystroke_Key.space	Key.space	n/a
73.571	0.0155	147142	keystroke_s	s	n/a
73.6765	0.015	147353	keystroke_t	t	n/a
73.7665	0.0895	147533	keystroke_r	r	n/a
73.8415	0.09	147683	keystroke_a	a	n/a
73.9465	0.135	147893	keystroke_n	n	n/a
74.0665	0.0895	148133	keystroke_d	d	n/a
74.171	0.1655	148342	keystroke_Key.space	Key.space	n/a
74.8015	0.0895	149603	keystroke_d	d	n/a
74.8765	0.06	149753	keystroke_o	o	n/a
75.0265	0.0445	150053	keystroke_l	l	n/a
75.1615	0.09	150323	keystroke_l	l	n/a
75.2215	0.12	150443	keystroke_a	a	n/a
75.282	0.1045	150564	keystroke_r	r	n/a
75.4325	0.1035	150865	keystroke_s	s	n/a
75.5815	0.105	151163	keystroke_Key.space	Key.space	n/a
75.8215	0.06	151643	keystroke_o	o	n/a
75.956	0.1655	151912	keystroke_l	l	n/a
76.0165	0.09	152033	keystroke_u	u	n/a
76.3325	0.059	152665	keystroke_Key.backspace	Key.backspace	n/a
76.4515	0.045	152903	keystroke_Key.backspace	Key.backspace	n/a
76.556	0.0755	153112	keystroke_Key.backspace	Key.backspace	n/a
76.6015	0.105	153203	keystroke_v	v	n/a
76.7815	0.12	153563	keystroke_o	o	n/a
77.351	0.135	154702	keystroke_l	l	n/a
77.3665	0.1045	154733	keystroke_u	u	n/a
77.6215	0.105	155243	keystroke_n	n	n/a
77.7415	0.06	155483	keystroke_t	t	n/a
77.8765	0.12	155753	keystroke_e	e	n/a
78.0415	0.12	156083	keystroke_e	e	n/a
78.117	0.0895	156234	keystroke_r	r	n/a
78.2215	0.075	156443	keystroke_Key.enter	Key.enter	n/a
78.301	4.3465	156602	prompt	n/a	coral require wrist serious\n
78.9115	0.075	157823	keystroke_c	c	n/a
79.0015	0.075	158003	keystroke_o	o	n/a
79.0915	0.075	158183	keystroke_r	r	n/a
79.2415	0.105	158483	keystroke_a	a	n/a
79.3615	0.0905	158723	keystroke_l	l	n/a
79.4365	0.1195	158873	keystroke_Key.space	Key.space	n/a
79.571	0.1205	159142	keystroke_r	r	n/a
79.6765	0.075	159353	keystroke_e	e	n/a
79.7065	0.12	159413	keystroke_q	q	n/a
79.8415	0.09	159683	keystroke_u	u	n/a
79.9165	0.075	159833	keystroke_i	i	n/a
79.9765	0.105	159953	keystroke_r	r	n/a
80.0365	0.0895	160073	keystroke_e	e	n/a
80.2015	0.165	160403	keystroke_Key.space	Key.space	n/a
80.756	0.0605	161512	keystroke_w	w	n/a
80.8315	0.075	161663	keystroke_r	r	n/a
80.9515	0.09	161903	keystroke_i	i	n/a
81.0265	0.09	162053	keystroke_s	s	n/a
81.1015	0.09	162203	keystroke_t	t	n/a
81.2365	0.105	162473	keystroke_Key.space	Key.space	n/a
81.5665	0.12	163133	keystroke_s	s	n/a
81.671	0.0755	163342	keystroke_e	e	n/a
81.7015	0.105	163403	keystroke_r	r	n/a
81.7915	0.105	163583	keystroke_i	i	n/a
82.0765	0.1795	164153	keystroke_o	o	n/a
82.1515	0.1195	164303	keystroke_u	u	n/a
82.3165	0.09	164633	keystroke_s	s	n/a
82.5415	0.105	165083	keystroke_Key.enter	Key.enter	n/a
82.6525	5.2755	165305	prompt	n/a	wave weighted solved angry\n
83.276	0.0905	166552	keystroke_w	w	n/a
83.4715	0.135	166943	keystroke_a	a	n/a
83.6065	0.12	167213	keystroke_v	v	n/a
83.8315	0.045	167663	keystroke_e	e	n/a
83.8915	0.135	167783	keystroke_Key.space	Key.space	n/a
83.9965	0.075	167993	keystroke_w	w	n/a
84.1465	0.12	168293	keystroke_i	i	n/a
84.671	0.045	169342	keystroke_Key.backspace	Key.backspace	n/a
84.7915	0.015	169583	keystroke_e	e	n/a
84.8515	0.1045	169703	keystroke_i	i	n/a
84.9865	0.075	169973	keystroke_g	g	n/a
85.1065	0.105	170213	keystroke_h	h	n/a
85.1815	0.135	170363	keystroke_t	t	n/a
85.3615	0.075	170723	keystroke_e	e	n/a
85.6165	0.015	171233	keystroke_d	d	n/a
85.7065	0.0595	171413	keystroke_Key.space	Key.space	n/a
86.2615	0.09	172523	keystroke_s	s	n/a
86.3665	0.075	172733	keystroke_o	o	n/a
86.5465	0.06	173093	keystroke_l	l	n/a
86.6215	0.105	173243	keystroke_v	v	n/a
86.8015	0.075	173603	keystroke_e	e	n/a
86.9965	0.0745	173993	keystroke_d	d	n/a
87.086	0.0905	174172	keystroke_Key.space	Key.space	n/a
87.1615	0.09	174323	keystroke_a	a	n/a
87.2665	0.1045	174533	keystroke_n	n	n/a
87.3865	0.045	174773	keystroke_g	g	n/a
87.5365	0.075	175073	keystroke_r	r	n/a
87.6265	0.09	175253	keystroke_y	y	n/a
87.8065	0.12	175613	keystroke_Key.enter	Key.enter	n/a
87.931	5.2465	175862	prompt	n/a	venue anywhere packed discussed\n
88.676	0.1205	177352	keystroke_v	v	n/a
88.871	0.105	177742	keystroke_e	e	n/a
89.0215	0.045	178043	keystroke_n	n	n/a
89.1865	0.045	178373	keystroke_u	u	n/a
89.3065	0.075	178613	keystroke_e	e	n/a
89.3965	0.135	178793	keystroke_Key.space	Key.space	n/a
89.5765	0.075	179153	keystroke_a	a	n/a
89.6965	0.0745	179393	keystroke_n	n	n/a
89.8765	0.075	179753	keystroke_y	y	n/a
89.9665	0.0755	179933	keystroke_w	w	n/a
90.0865	0.09	180173	keystroke_h	h	n/a
90.266	0.1205	180532	keystroke_e	e	n/a
90.4465	0.105	180893	keystroke_r	r	n/a
90.4915	0.105	180983	keystroke_e	e	n/a
90.6415	0.105	181283	keystroke_Key.space	Key.space	n/a
90.8215	0.12	181643	keystroke_p	p	n/a
90.9275	0.119	181855	keystroke_a	a	n/a
91.0915	0.1645	182183	keystroke_c	c	n/a
91.242	0.074	182484	keystroke_k	k	n/a
91.4215	0.045	182843	keystroke_e	e	n/a
91.6015	0.06	183203	keystroke_d	d	n/a
91.677	0.1045	183354	keystroke_Key.space	Key.space	n/a
91.871	0.1065	183742	keystroke_d	d	n/a
92.0065	0.075	184013	keystroke_i	i	n/a
92.1265	0.09	184253	keystroke_s	s	n/a
92.201	0.1055	184402	keystroke_c	c	n/a
92.2915	0.06	184583	keystroke_u	u	n/a
92.3815	0.105	184763	keystroke_s	s	n/a
92.562	0.1195	185124	keystroke_s	s	n/a
92.6665	0.075	185333	keystroke_e	e	n/a
92.8615	0.09	185723	keystroke_d	d	n/a
93.1015	0.075	186203	keystroke_Key.enter	Key.enter	n/a
93.182	4.6155	186364	prompt	n/a	wise mysql tuning names\n
93.881	0.075	187762	keystroke_w	w	n/a
93.987	0.09	187974	keystroke_i	i	n/a
94.1815	0.0895	188363	keystroke_s	s	n/a
94.3765	0.075	188753	keystroke_e	e	n/a
94.5265	0.09	189053	keystroke_Key.space	Key.space	n/a
94.751	0.0755	189502	keystroke_m	m	n/a
94.947	0.0745	189894	keystroke_y	y	n/a
95.1265	0.0445	190253	keystroke_s	s	n/a
95.3965	0.0745	190793	keystroke_q	q	n/a
95.5465	0.105	191093	keystroke_l	l	n/a
95.7265	0.075	191453	keystroke_Key.space	Key.space	n/a
96.3265	0.09	192653	keystroke_t	t	n/a
96.4015	0.06	192803	keystroke_u	u	n/a
96.5515	0.075	193103	keystroke_n	n	n/a
96.6415	0.135	193283	keystroke_i	i	n/a
96.7465	0.105	193493	keystroke_n	n	n/a
96.8365	0.075	193673	keystroke_g	g	n/a
96.8965	0.12	193793	keystroke_Key.space	Key.space	n/a
97.0615	0.075	194123	keystroke_n	n	n/a
97.1515	0.1045	194303	keystroke_a	a	n/a
97.271	0.0755	194542	keystroke_m	m	n/a
97.3915	0.105	194783	keystroke_e	e	n/a
97.5865	0.075	195173	keystroke_s	s	n/a
97.7215	0.075	195443	keystroke_Key.enter	Key.enter	n/a
97.8005	8.172	195601	prompt	n/a	clubs colombia waste acute\n
98.456	0.0455	196912	keystroke_c	c	n/a
98.5165	0.1355	197033	keystroke_l	l	n/a
98.8015	0.105	197603	keystroke_b	b	n/a
99.071	0.0755	198142	keystroke_s	s	n/a
99.387	0.0145	198774	keystroke_Key.backspace	Key.backspace	n/a
99.507	0.0445	199014	keystroke_Key.backspace	Key.backspace	n/a
99.6265	0.0445	199253	keystroke_Key.backspace	Key.backspace	n/a
100.0175	0.0745	200035	keystroke_u	u	n/a
100.3765	0.06	200753	keystroke_Key.backspace	Key.backspace	n/a
100.6175	0.119	201235	keystroke_l	l	n/a
100.6915	0.0605	201383	keystroke_u	u	n/a
100.856	0.0905	201712	keystroke_b	b	n/a
101.052	0.045	202104	keystroke_s	s	n/a
101.202	0.075	202404	keystroke_Key.space	Key.space	n/a
101.802	0.12	203604	keystroke_c	c	n/a
101.877	0.075	203754	keystroke_o	o	n/a
102.0715	0.1205	204143	keystroke_l	l	n/a
102.1165	0.09	204233	keystroke_u	u	n/a
102.3565	0.0905	204713	keystroke_m	m	n/a
102.462	0.105	204924	keystroke_b	b	n/a
102.627	0.105	205254	keystroke_i	i	n/a
102.717	0.09	205434	keystroke_a	a	n/a
102.852	0.135	205704	keystroke_Key.space	Key.space	n/a
103.452	0.045	206904	keystroke_w	w	n/a
103.617	0.1205	207234	keystroke_a	a	n/a
103.662	0.135	207324	keystroke_s	s	n/a
103.9015	0.0455	207803	keystroke_t	t	n/a
103.9915	0.1055	207983	keystroke_e	e	n/a
104.1715	0.1055	208343	keystroke_Key.space	Key.space	n/a
104.322	0.1495	208644	keystroke_a	a	n/a
104.427	0.09	208854	keystroke_c	c	n/a
105.117	0.075	210234	keystroke_u	u	n/a
105.192	0.15	210384	keystroke_t	t	n/a
105.327	0.09	210654	keystroke_e	e	n/a
105.912	0.0595	211824	keystroke_Key.enter	Key.enter	n/a
105.9775	8.4875	211955	prompt	n/a	related hydrogen commissioners letter\n
106.6765	0.1055	213353	keystroke_r	r	n/a
106.737	0.09	213474	keystroke_e	e	n/a
106.872	0.09	213744	keystroke_l	l	n/a
107.007	0.09	214014	keystroke_a	a	n/a
107.052	0.1205	214104	keystroke_t	t	n/a
107.5315	0.0605	215063	keystroke_e	e	n/a
107.697	0.105	215394	keystroke_d	d	n/a
107.817	0.135	215634	keystroke_Key.space	Key.space	n/a
108.8215	0.0455	217643	keystroke_h	h	n/a
108.942	0.06	217884	keystroke_y	y	n/a
109.047	0.1195	218094	keystroke_d	d	n/a
109.227	0.105	218454	keystroke_r	r	n/a
109.5715	0.0755	219143	keystroke_o	o	n/a
110.022	0.045	220044	keystroke_g	g	n/a
110.1715	0.0605	220343	keystroke_e	e	n/a
110.247	0.12	220494	keystroke_n	n	n/a
110.352	0.135	220704	keystroke_Key.space	Key.space	n/a
110.502	0.135	221004	keystroke_c	c	n/a
110.592	0.09	221184	keystroke_o	o	n/a
110.7565	0.0605	221513	keystroke_m	m	n/a
110.922	0.09	221844	keystroke_m	m	n/a
110.997	0.09	221994	keystroke_i	i	n/a
111.192	0.075	222384	keystroke_s	s	n/a
111.6715	0.0475	223343	keystroke_s	s	n/a
111.792	0.195	223584	keystroke_i	i	n/a
111.897	0.1345	223794	keystroke_o	o	n/a
111.9715	0.1355	223943	keystroke_n	n	n/a
112.182	0.165	224364	keystroke_e	e	n/a
112.362	0.075	224724	keystroke_r	r	n/a
112.512	0.09	225024	keystroke_s	s	n/a
113.113	0.104	226226	keystroke_Key.space	Key.space	n/a
113.412	0.0445	226824	keystroke_l	l	n/a
113.532	0.075	227064	keystroke_e	e	n/a
113.7125	0.059	227425	keystroke_t	t	n/a
113.847	0.1045	227694	keystroke_t	t	n/a
114.0295	0.1335	228059	keystroke_e	e	n/a
114.102	0.105	228204	keystroke_r	r	n/a
114.328	0.135	228656	keystroke_Key.enter	Key.enter	n/a
114.4705	5.543	228941	prompt	n/a	counsel rehab create locally\n
115.212	0.12	230424	keystroke_c	c	n/a
115.317	0.105	230634	keystroke_o	o	n/a
115.377	0.06	230754	keystroke_u	u	n/a
115.542	0.105	231084	keystroke_n	n	n/a
115.782	0.045	231564	keystroke_s	s	n/a
115.842	0.135	231684	keystroke_e	e	n/a
116.082	0.0755	232164	keystroke_l	l	n/a
116.1575	0.1195	232315	keystroke_Key.space	Key.space	n/a
116.637	0.09	233274	keystroke_r	r	n/a
116.712	0.12	233424	keystroke_e	e	n/a
116.847	0.105	233694	keystroke_h	h	n/a
116.967	0.1045	233934	keystroke_a	a	n/a
117.582	0.0745	235164	keystroke_b	b	n/a
117.747	0.18	235494	keystroke_Key.space	Key.space	n/a
117.942	0.075	235884	keystroke_c	c	n/a
118.122	0.09	236244	keystroke_r	r	n/a
118.182	0.135	236364	keystroke_e	e	n/a
118.392	0.1795	236784	keystroke_a	a	n/a
118.5565	0.076	237113	keystroke_t	t	n/a
118.617	0.075	237234	keystroke_e	e	n/a
118.767	0.1045	237534	keystroke_Key.space	Key.space	n/a
119.082	0.105	238164	keystroke_l	l	n/a
119.232	0.12	238464	keystroke_o	o	n/a
119.337	0.105	238674	keystroke_c	c	n/a
119.367	0.15	238734	keystroke_a	a	n/a
119.502	0.031	239004	keystroke_l	l	n/a
119.637	0.15	239274	keystroke_l	l	n/a
119.742	0.06	239484	keystroke_y	y	n/a
119.937	0.075	239874	keystroke_Key.enter	Key.enter	n/a
120.0175	5.0205	240035	prompt	n/a	tons vitamin cooked connectivity\n
120.7015	0.0325	241403	keystroke_t	t	n/a
120.777	0.15	241554	keystroke_o	o	n/a
120.912	0.12	241824	keystroke_n	n	n/a
121.047	0.06	242094	keystroke_s	s	n/a
121.122	0.12	242244	keystroke_Key.space	Key.space	n/a
121.287	0.135	242574	keystroke_v	v	n/a
121.437	0.075	242874	keystroke_i	i	n/a
121.527	0.075	243054	keystroke_t	t	n/a
121.677	0.12	243354	keystroke_a	a	n/a
121.842	0.075	243684	keystroke_m	m	n/a
122.022	0.1495	244044	keystroke_i	i	n/a
122.097	0.12	244194	keystroke_n	n	n/a
122.232	0.12	244464	keystroke_Key.space	Key.space	n/a
122.4715	0.0905	244943	keystroke_c	c	n/a
122.517	0.06	245034	keystroke_o	o	n/a
122.6675	0.1345	245335	keystroke_o	o	n/a
122.847	0.105	245694	keystroke_k	k	n/a
122.9675	0.0595	245935	keystroke_e	e	n/a
123.147	0.045	246294	keystroke_d	d	n/a
123.267	0.075	246534	keystroke_Key.space	Key.space	n/a
123.5365	0.12	247073	keystroke_c	c	n/a
123.612	0.0905	247224	keystroke_o	o	n/a
123.777	0.075	247554	keystroke_n	n	n/a
123.897	0.09	247794	keystroke_n	n	n/a
123.942	0.09	247884	keystroke_e	e	n/a
124.077	0.0895	248154	keystroke_c	c	n/a
124.242	0.075	248484	keystroke_t	t	n/a
124.362	0.045	248724	keystroke_i	i	n/a
124.452	0.075	248904	keystroke_v	v	n/a
124.542	0.045	249084	keystroke_i	i	n/a
124.662	0.075	249324	keystroke_t	t	n/a
124.797	0.045	249594	keystroke_y	y	n/a
124.962	0.075	249924	keystroke_Key.enter	Key.enter	n/a
125.041	5.592	250082	prompt	n/a	determined religion religious is\n
125.682	0.0745	251364	keystroke_d	d	n/a
125.8025	0.1195	251605	keystroke_e	e	n/a
125.907	0.1495	251814	keystroke_t	t	n/a
126.0715	0.1205	252143	keystroke_e	e	n/a
126.177	0.105	252354	keystroke_r	r	n/a
126.267	0.0895	252534	keystroke_m	m	n/a
126.402	0.165	252804	keystroke_i	i	n/a
126.507	0.075	253014	keystroke_n	n	n/a
126.5525	0.0745	253105	keystroke_e	e	n/a
126.717	0.105	253434	keystroke_d	d	n/a
126.867	0.15	253734	keystroke_Key.space	Key.space	n/a
127.002	0.075	254004	keystroke_r	r	n/a
127.032	0.12	254064	keystroke_e	e	n/a
127.1675	0.1195	254335	keystroke_l	l	n/a
127.2715	0.12	254543	keystroke_i	i	n/a
127.4375	0.0745	254875	keystroke_g	g	n/a
127.527	0.18	255054	keystroke_i	i	n/a
127.692	0.1955	255384	keystroke_o	o	n/a
127.842	0.1645	255684	keystroke_n	n	n/a
127.992	0.12	255984	keystroke_Key.space	Key.space	n/a
128.637	0.075	257274	keystroke_r	r	n/a
128.682	0.0745	257364	keystroke_e	e	n/a
128.952	0.15	257904	keystroke_l	l	n/a
129.252	0.0445	258504	keystroke_i	i	n/a
129.582	0.0745	259164	keystroke_g	g	n/a
129.6715	0.1055	259343	keystroke_i	i	n/a
129.807	0.1495	259614	keystroke_o	o	n/a
129.882	0.135	259764	keystroke_u	u	n/a
129.972	0.09	259944	keystroke_s	s	n/a
130.107	0.12	260214	keystroke_Key.space	Key.space	n/a
130.362	0.09	260724	keystroke_i	i	n/a
130.437	0.09	260874	keystroke_s	s	n/a
130.5865	0.0455	261173	keystroke_Key.enter	Key.enter	n/a
130.636	7.407	261272	prompt	n/a	judicial mary january surrey\n
131.3075	0.0445	262615	keystroke_j	j	n/a
131.442	0.12	262884	keystroke_u	u	n/a
131.547	0.06	263094	keystroke_d	d	n/a
131.622	0.075	263244	keystroke_i	i	n/a
131.727	0.1195	263454	keystroke_c	c	n/a
131.802	0.12	263604	keystroke_i	i	n/a
131.937	0.105	263874	keystroke_a	a	n/a
132.087	0.135	264174	keystroke_l	l	n/a
132.327	0.135	264654	keystroke_Key.space	Key.space	n/a
132.852	0.135	265704	keystroke_m	m	n/a
132.912	0.105	265824	keystroke_a	a	n/a
133.002	0.09	266004	keystroke_r	r	n/a
133.1365	0.0755	266273	keystroke_y	y	n/a
133.227	0.135	266454	keystroke_Key.space	Key.space	n/a
133.377	0.105	266754	keystroke_j	j	n/a
133.542	0.09	267084	keystroke_a	a	n/a
133.617	0.09	267234	keystroke_n	n	n/a
133.947	0.045	267894	keystroke_u	u	n/a
134.082	0.135	268164	keystroke_a	a	n/a
134.1715	0.12	268343	keystroke_r	r	n/a
134.307	0.075	268614	keystroke_y	y	n/a
134.4265	0.1055	268853	keystroke_Key.space	Key.space	n/a
134.697	0.0595	269394	keystroke_s	s	n/a
134.802	0.045	269604	keystroke_u	u	n/a
135.1015	0.1055	270203	keystroke_r	r	n/a
135.3715	0.0905	270743	keystroke_r	r	n/a
135.432	0.12	270864	keystroke_e	e	n/a
135.6275	0.0745	271255	keystroke_y	y	n/a
137.9815	0.0605	275963	keystroke_Key.enter	Key.enter	n/a
138.0465	5.111	276093	prompt	n/a	language citations booking lower\n
138.8365	0.0305	277673	keystroke_l	l	n/a
138.882	0.12	277764	keystroke_a	a	n/a
139.077	0.075	278154	keystroke_n	n	n/a
139.1665	0.105	278333	keystroke_g	g	n/a
139.287	0.06	278574	keystroke_u	u	n/a
139.332	0.135	278664	keystroke_a	a	n/a
139.392	0.105	278784	keystroke_g	g	n/a
139.482	0.0895	278964	keystroke_e	e	n/a
139.5865	0.1505	279173	keystroke_Key.space	Key.space	n/a
140.1715	0.1205	280343	keystroke_c	c	n/a
140.307	0.105	280614	keystroke_i	i	n/a
140.4275	0.0745	280855	keystroke_t	t	n/a
140.547	0.12	281094	keystroke_a	a	n/a
140.652	0.09	281304	keystroke_t	t	n/a
140.7565	0.1955	281513	keystroke_i	i	n/a
140.8165	0.1655	281633	keystroke_o	o	n/a
140.877	0.15	281754	keystroke_n	n	n/a
140.967	0.1045	281934	keystroke_s	s	n/a
141.087	0.165	282174	keystroke_Key.space	Key.space	n/a
141.417	0.105	282834	keystroke_b	b	n/a
141.537	0.045	283074	keystroke_o	o	n/a
141.687	0.06	283374	keystroke_o	o	n/a
141.852	0.0905	283704	keystroke_k	k	n/a
142.047	0.15	284094	keystroke_i	i	n/a
142.152	0.1045	284304	keystroke_n	n	n/a
142.227	0.075	284454	keystroke_g	g	n/a
142.3325	0.1195	284665	keystroke_Key.space	Key.space	n/a
142.497	0.105	284994	keystroke_l	l	n/a
142.677	0.12	285354	keystroke_o	o	n/a
142.7515	0.1355	285503	keystroke_w	w	n/a
142.842	0.105	285684	keystroke_e	e	n/a
142.9325	0.0895	285865	keystroke_r	r	n/a
143.083	0.0735	286166	keystroke_Key.enter	Key.enter	n/a
143.1605	8.443	286321	prompt	n/a	harold literature altered quad\n
143.817	0.075	287634	keystroke_h	h	n/a
143.967	0.1045	287934	keystroke_a	a	n/a
144.042	0.075	288084	keystroke_r	r	n/a
144.2225	0.105	288445	keystroke_d	d	n/a
144.312	0.0305	288624	keystroke_o	o	n/a
144.447	0.105	288894	keystroke_l	l	n/a
144.537	0.0905	289074	keystroke_s	s	n/a
144.702	0.0895	289404	keystroke_Key.space	Key.space	n/a
145.197	0.0455	290394	keystroke_Key.backspace	Key.backspace	n/a
145.287	0.09	290574	keystroke_Key.backspace	Key.backspace	n/a
145.482	0.045	290964	keystroke_Key.backspace	Key.backspace	n/a
145.6325	0.0445	291265	keystroke_Key.backspace	Key.backspace	n/a
145.782	0.045	291564	keystroke_Key.backspace	Key.backspace	n/a
145.962	0.06	291924	keystroke_o	o	n/a
146.127	0.105	292254	keystroke_l	l	n/a
146.218	0.029	292436	keystroke_d	d	n/a
146.2925	0.135	292585	keystroke_Key.space	Key.space	n/a
146.6675	0.135	293335	keystroke_l	l	n/a
146.7425	0.1345	293485	keystroke_i	i	n/a
146.8925	0.105	293785	keystroke_t	t	n/a
147.0425	0.1495	294085	keystroke_e	e	n/a
147.1175	0.12	294235	keystroke_r	r	n/a
147.253	0.119	294506	keystroke_a	a	n/a
147.3275	0.0895	294655	keystroke_t	t	n/a
147.492	0.0455	294984	keystroke_u	u	n/a
148.0475	0.12	296095	keystroke_r	r	n/a
148.1225	0.0895	296245	keystroke_e	e	n/a
148.287	0.1355	296574	keystroke_Key.space	Key.space	n/a
148.6175	0.075	297235	keystroke_a	a	n/a
148.7075	0.076	297415	keystroke_l	l	n/a
148.7975	0.0745	297595	keystroke_t	t	n/a
148.9635	0.0885	297927	keystroke_e	e	n/a
149.038	0.134	298076	keystroke_r	r	n/a
149.157	0.1355	298314	keystroke_e	e	n/a
149.877	0.105	299754	keystroke_d	d	n/a
150.027	0.105	300054	keystroke_Key.space	Key.space	n/a
150.5975	0.0895	301195	keystroke_q	q	n/a
150.672	0.12	301344	keystroke_u	u	n/a
151.0775	0.1345	302155	keystroke_a	a	n/a
151.3475	0.105	302695	keystroke_d	d	n/a
151.5275	0.0745	303055	keystroke_Key.enter	Key.enter	n/a
151.607	7.003	303214	prompt	n/a	organizer kyle yugoslavia babe\n
152.2475	0.1345	304495	keystroke_o	o	n/a
152.3225	0.0745	304645	keystroke_r	r	n/a
152.5625	0.105	305125	keystroke_g	g	n/a
152.7425	0.1045	305485	keystroke_a	a	n/a
152.952	0.105	305904	keystroke_n	n	n/a
153.0425	0.1195	306085	keystroke_i	i	n/a
153.1625	0.1195	306325	keystroke_z	z	n/a
153.267	0.135	306534	keystroke_e	e	n/a
153.357	0.09	306714	keystroke_r	r	n/a
153.582	0.15	307164	keystroke_Key.space	Key.space	n/a
154.407	0.075	308814	keystroke_k	k	n/a
154.677	0.075	309354	keystroke_y	y	n/a
154.827	0.135	309654	keystroke_l	l	n/a
154.977	0.075	309954	keystroke_e	e	n/a
155.097	0.195	310194	keystroke_Key.space	Key.space	n/a
155.667	0.045	311334	keystroke_y	y	n/a
155.847	0.105	311694	keystroke_u	u	n/a
156.027	0.12	312054	keystroke_g	g	n/a
156.132	0.09	312264	keystroke_o	o	n/a
156.522	0.045	313044	keystroke_s	s	n/a
156.582	0.12	313164	keystroke_l	l	n/a
156.687	0.105	313374	keystroke_a	a	n/a
156.777	0.09	313554	keystroke_v	v	n/a
156.912	0.09	313824	keystroke_i	i	n/a
156.987	0.12	313974	keystroke_a	a	n/a
157.422	0.105	314844	keystroke_Key.space	Key.space	n/a
157.812	0.075	315624	keystroke_b	b	n/a
157.902	0.15	315804	keystroke_a	a	n/a
158.037	0.075	316074	keystroke_b	b	n/a
158.1875	0.12	316375	keystroke_e	e	n/a
158.5025	0.105	317005	keystroke_Key.enter	Key.enter	n/a
158.6205	7.203	317241	prompt	n/a	conclusion hawk consultant everywhere\n
159.282	0.12	318564	keystroke_c	c	n/a
159.5525	0.1195	319105	keystroke_o	o	n/a
159.657	0.105	319314	keystroke_n	n	n/a
159.7475	0.1195	319495	keystroke_c	c	n/a
159.912	0.135	319824	keystroke_l	l	n/a
160.0025	0.09	320005	keystroke_u	u	n/a
160.0925	0.09	320185	keystroke_s	s	n/a
160.227	0.27	320454	keystroke_i	i	n/a
160.3775	0.1645	320755	keystroke_o	o	n/a
160.452	0.165	320904	keystroke_n	n	n/a
160.632	0.105	321264	keystroke_Key.space	Key.space	n/a
160.797	0.135	321594	keystroke_h	h	n/a
160.9175	0.0745	321835	keystroke_a	a	n/a
161.007	0.1355	322014	keystroke_w	w	n/a
161.157	0.075	322314	keystroke_k	k	n/a
161.6975	0.1045	323395	keystroke_Key.space	Key.space	n/a
161.997	0.09	323994	keystroke_c	c	n/a
162.0425	0.1045	324085	keystroke_o	o	n/a
162.132	0.06	324264	keystroke_n	n	n/a
162.1925	0.105	324385	keystroke_s	s	n/a
162.313	0.149	324626	keystroke_u	u	n/a
162.4475	0.119	324895	keystroke_l	l	n/a
162.582	0.105	325164	keystroke_t	t	n/a
162.762	0.0755	325524	keystroke_a	a	n/a
162.912	0.1355	325824	keystroke_n	n	n/a
163.0925	0.0745	326185	keystroke_t	t	n/a
163.212	0.1205	326424	keystroke_Key.space	Key.space	n/a
163.7075	0.0445	327415	keystroke_e	e	n/a
163.827	0.121	327654	keystroke_v	v	n/a
163.992	0.1505	327984	keystroke_e	e	n/a
164.098	0.089	328196	keystroke_r	r	n/a
164.157	0.1055	328314	keystroke_y	y	n/a
164.8475	0.135	329695	keystroke_w	w	n/a
164.9985	0.089	329997	keystroke_h	h	n/a
165.0425	0.1045	330085	keystroke_e	e	n/a
165.1475	0.152	330295	keystroke_r	r	n/a
165.2525	0.09	330505	keystroke_e	e	n/a
165.777	0.045	331554	keystroke_Key.enter	Key.enter	n/a
165.8305	7.148	331661	prompt	n/a	insert photo may nominated\n
166.7975	0.1345	333595	keystroke_i	i	n/a
166.8875	0.1195	333775	keystroke_n	n	n/a
167.037	0.0755	334074	keystroke_s	s	n/a
167.127	0.0905	334254	keystroke_e	e	n/a
167.2025	0.09	334405	keystroke_r	r	n/a
167.3375	0.1345	334675	keystroke_t	t	n/a
167.4875	0.105	334975	keystroke_Key.space	Key.space	n/a
167.697	0.0905	335394	keystroke_p	p	n/a
167.7425	0.12	335485	keystroke_h	h	n/a
167.8475	0.1205	335695	keystroke_o	o	n/a
168.1475	0.135	336295	keystroke_t	t	n/a
168.3125	0.135	336625	keystroke_o	o	n/a
170.0525	0.06	340105	keystroke_Key.space	Key.space	n/a
170.262	0.1205	340524	keystroke_m	m	n/a
170.3975	0.0895	340795	keystroke_a	a	n/a
170.5025	0.09	341005	keystroke_y	y	n/a
170.6375	0.1345	341275	keystroke_Key.space	Key.space	n/a
170.8475	0.105	341695	keystroke_n	n	n/a
170.9675	0.0895	341935	keystroke_o	o	n/a
171.3275	0.105	342655	keystroke_m	m	n/a
171.4775	0.1495	342955	keystroke_i	i	n/a
171.5825	0.105	343165	keystroke_n	n	n/a
171.703	0.1195	343406	keystroke_a	a	n/a
171.7925	0.15	343585	keystroke_t	t	n/a
171.9275	0.09	343855	keystroke_e	e	n/a
172.1225	0.105	344245	keystroke_d	d	n/a
172.888	0.0895	345776	keystroke_Key.enter	Key.enter	n/a
172.982	10.076	345964	prompt	n/a	philip newest nano physiology\n
173.922	0.0755	347844	keystroke_p	p	n/a
174.3425	0.06	348685	keystroke_h	h	n/a
174.373	0.1345	348746	keystroke_i	i	n/a
174.6125	0.0445	349225	keystroke_l	l	n/a
175.0175	0.075	350035	keystroke_o	o	n/a
175.1375	0.1195	350275	keystroke_p	p	n/a
175.6025	0.015	351205	keystroke_Key.backspace	Key.backspace	n/a
175.6925	0.0305	351385	keystroke_Key.backspace	Key.backspace	n/a
176.667	0.075	353334	keystroke_o	o	n/a
177.7775	0.06	355555	keystroke_Key.backspace	Key.backspace	n/a
178.242	0.1055	356484	keystroke_i	i	n/a
178.4225	0.105	356845	keystroke_p	p	n/a
178.887	0.1505	357774	keystroke_Key.space	Key.space	n/a
179.4275	0.075	358855	keystroke_n	n	n/a
179.5175	0.135	359035	keystroke_e	e	n/a
179.6525	0.135	359305	keystroke_w	w	n/a
179.8325	0.135	359665	keystroke_e	e	n/a
179.9975	0.12	359995	keystroke_s	s	n/a
180.1025	0.091	360205	keystroke_t	t	n/a
180.2375	0.106	360475	keystroke_Key.space	Key.space	n/a
180.8675	0.0745	361735	keystroke_n	n	n/a
181.0025	0.0755	362005	keystroke_a	a	n/a
181.152	0.1505	362304	keystroke_n	n	n/a
181.2875	0.12	362575	keystroke_o	o	n/a
181.3625	0.1495	362725	keystroke_Key.space	Key.space	n/a
181.557	0.1205	363114	keystroke_p	p	n/a
181.6325	0.09	363265	keystroke_h	h	n/a
181.7975	0.165	363595	keystroke_y	y	n/a
181.9775	0.09	363955	keystroke_s	s	n/a
182.0525	0.1195	364105	keystroke_i	i	n/a
182.1875	0.12	364375	keystroke_o	o	n/a
182.442	0.075	364884	keystroke_l	l	n/a
182.6225	0.09	365245	keystroke_o	o	n/a
182.6975	0.105	365395	keystroke_g	g	n/a
182.8025	0.075	365605	keystroke_y	y	n/a
182.9525	0.1045	365905	keystroke_Key.enter	Key.enter	n/a
183.0625	5.3955	366125	prompt	n/a	patrol makeup luke submitting\n
183.792	0.1355	367584	keystroke_p	p	n/a
183.8825	0.0895	367765	keystroke_a	a	n/a
183.972	0.0755	367944	keystroke_t	t	n/a
184.1225	0.09	368245	keystroke_r	r	n/a
184.2125	0.0445	368425	keystroke_o	o	n/a
184.363	0.1195	368726	keystroke_l	l	n/a
184.4375	0.09	368875	keystroke_Key.space	Key.space	n/a
184.572	0.1355	369144	keystroke_m	m	n/a
184.6625	0.06	369325	keystroke_a	a	n/a
184.872	0.0755	369744	keystroke_k	k	n/a
185.0075	0.075	370015	keystroke_e	e	n/a
185.2775	0.135	370555	keystroke_u	u	n/a
185.4275	0.12	370855	keystroke_p	p	n/a
185.5025	0.1195	371005	keystroke_Key.space	Key.space	n/a
185.9075	0.1495	371815	keystroke_l	l	n/a
186.012	0.0905	372024	keystroke_u	u	n/a
186.372	0.1055	372744	keystroke_k	k	n/a
186.5525	0.075	373105	keystroke_e	e	n/a
186.7025	0.135	373405	keystroke_Key.space	Key.space	n/a
186.9275	0.105	373855	keystroke_s	s	n/a
187.0475	0.075	374095	keystroke_u	u	n/a
187.1975	0.0745	374395	keystroke_b	b	n/a
187.3775	0.12	374755	keystroke_m	m	n/a
187.4825	0.0895	374965	keystroke_i	i	n/a
187.6475	0.075	375295	keystroke_t	t	n/a
187.7975	0.0745	375595	keystroke_t	t	n/a
187.917	0.1655	375834	keystroke_i	i	n/a
188.0375	0.1195	376075	keystroke_n	n	n/a
188.187	0.1055	376374	keystroke_g	g	n/a
188.3525	0.1045	376705	keystroke_Key.enter	Key.enter	n/a
188.4605	8.429	376921	prompt	n/a	a televisions jesus supporters\n
189.1175	0.135	378235	keystroke_a	a	n/a
189.357	0.0305	378714	keystroke_Key.space	Key.space	n/a
189.417	0.0605	378834	keystroke_t	t	n/a
189.762	0.1355	379524	keystroke_l	l	n/a
189.8825	0.0895	379765	keystroke_e	e	n/a
190.1225	0.105	380245	keystroke_v	v	n/a
190.4675	0.0745	380935	keystroke_Key.backspace	Key.backspace	n/a
190.6175	0.045	381235	keystroke_Key.backspace	Key.backspace	n/a
190.768	0.0445	381536	keystroke_Key.backspace	Key.backspace	n/a
190.872	0.075	381744	keystroke_e	e	n/a
191.022	0.0755	382044	keystroke_l	l	n/a
191.1125	0.105	382225	keystroke_e	e	n/a
191.3225	0.075	382645	keystroke_v	v	n/a
191.457	0.0455	382914	keystroke_i	i	n/a
191.5775	0.075	383155	keystroke_s	s	n/a
191.7125	0.075	383425	keystroke_i	i	n/a
192.072	0.1355	384144	keystroke_o	o	n/a
192.3125	0.15	384625	keystroke_n	n	n/a
192.4775	0.105	384955	keystroke_s	s	n/a
192.5975	0.135	385195	keystroke_Key.space	Key.space	n/a
192.7925	0.09	385585	keystroke_j	j	n/a
192.9125	0.075	385825	keystroke_e	e	n/a
193.1825	0.0745	386365	keystroke_s	s	n/a
193.3325	0.09	386665	keystroke_u	u	n/a
193.453	0.089	386906	keystroke_s	s	n/a
193.6175	0.105	387235	keystroke_Key.space	Key.space	n/a
193.8125	0.105	387625	keystroke_s	s	n/a
193.9625	0.0755	387925	keystroke_u	u	n/a
194.0825	0.105	388165	keystroke_p	p	n/a
194.3225	0.045	388645	keystroke_p	p	n/a
194.6975	0.105	389395	keystroke_o	o	n/a
195.1175	0.075	390235	keystroke_r	r	n/a
195.2975	0.105	390595	keystroke_t	t	n/a
195.5075	0.105	391015	keystroke_e	e	n/a
195.6275	0.0455	391255	keystroke_e	e	n/a
195.6885	0.104	391377	keystroke_r	r	n/a
196.2425	0.045	392485	keystroke_Key.backspace	Key.backspace	n/a
196.3775	0.075	392755	keystroke_Key.backspace	Key.backspace	n/a
196.3925	0.1045	392785	keystroke_r	r	n/a
196.6175	0.075	393235	keystroke_s	s	n/a
196.7525	0.135	393505	keystroke_Key.enter	Key.enter	n/a
196.8935	6.8645	393787	prompt	n/a	republicans donations lovely static\n
197.5025	0.105	395005	keystroke_r	r	n/a
197.6525	0.12	395305	keystroke_e	e	n/a
197.8325	0.195	395665	keystroke_p	p	n/a
198.042	0.0905	396084	keystroke_u	u	n/a
198.1775	0.09	396355	keystroke_b	b	n/a
198.2525	0.1645	396505	keystroke_l	l	n/a
198.4025	0.15	396805	keystroke_i	i	n/a
198.5675	0.15	397135	keystroke_c	c	n/a
198.7325	0.105	397465	keystroke_a	a	n/a
198.8825	0.12	397765	keystroke_n	n	n/a
198.9875	0.09	397975	keystroke_s	s	n/a
199.0925	0.135	398185	keystroke_Key.space	Key.space	n/a
199.272	0.0755	398544	keystroke_d	d	n/a
199.3625	0.105	398725	keystroke_o	o	n/a
199.5125	0.135	399025	keystroke_n	n	n/a
199.6625	0.135	399325	keystroke_a	a	n/a
199.7375	0.1345	399475	keystroke_t	t	n/a
199.9175	0.075	399835	keystroke_i	i	n/a
200.2625	0.165	400525	keystroke_o	o	n/a
200.4875	0.135	400975	keystroke_n	n	n/a
200.6975	0.09	401395	keystroke_s	s	n/a
200.8925	0.135	401785	keystroke_Key.space	Key.space	n/a
201.0875	0.105	402175	keystroke_l	l	n/a
201.2675	0.0745	402535	keystroke_o	o	n/a
201.357	0.1055	402714	keystroke_v	v	n/a
201.5975	0.105	403195	keystroke_e	e	n/a
201.9875	0.12	403975	keystroke_l	l	n/a
202.1825	0.1045	404365	keystroke_y	y	n/a
202.3325	0.12	404665	keystroke_Key.space	Key.space	n/a
202.468	0.089	404936	keystroke_s	s	n/a
202.572	0.0905	405144	keystroke_t	t	n/a
202.7375	0.1195	405475	keystroke_a	a	n/a
202.8125	0.12	405625	keystroke_t	t	n/a
202.9775	0.105	405955	keystroke_i	i	n/a
203.1875	0.06	406375	keystroke_c	c	n/a
203.637	0.12	407274	keystroke_Key.enter	Key.enter	n/a
203.761	10.5585	407522	prompt	n/a	relating tomorrow previously decent\n
204.5675	0.12	409135	keystroke_r	r	n/a
204.672	0.0755	409344	keystroke_e	e	n/a
204.7925	0.075	409585	keystroke_l	l	n/a
204.972	0.1355	409944	keystroke_a	a	n/a
205.0475	0.06	410095	keystroke_t	t	n/a
205.2125	0.105	410425	keystroke_e	e	n/a
205.572	0.0905	411144	keystroke_i	i	n/a
205.8875	0.045	411775	keystroke_Key.backspace	Key.backspace	n/a
206.0225	0.0745	412045	keystroke_Key.backspace	Key.backspace	n/a
206.2175	0.12	412435	keystroke_i	i	n/a
206.3825	0.105	412765	keystroke_n	n	n/a
206.5175	0.105	413035	keystroke_g	g	n/a
206.607	0.12	413214	keystroke_Key.space	Key.space	n/a
206.742	0.1055	413484	keystroke_t	t	n/a
206.8475	0.075	413695	keystroke_o	o	n/a
206.9675	0.18	413935	keystroke_m	m	n/a
207.163	0.1045	414326	keystroke_o	o	n/a
207.7025	0.075	415405	keystroke_r	r	n/a
207.8225	0.09	415645	keystroke_r	r	n/a
208.048	0.0445	416096	keystroke_o	o	n/a
208.2275	0.0445	416455	keystroke_w	w	n/a
208.3775	0.075	416755	keystroke_Key.space	Key.space	n/a
208.7075	0.06	417415	keystroke_p	p	n/a
208.872	0.0905	417744	keystroke_r	r	n/a
208.8875	0.09	417775	keystroke_e	e	n/a
209.142	0.0755	418284	keystroke_v	v	n/a
209.742	0.1205	419484	keystroke_i	i	n/a
209.9075	0.075	419815	keystroke_s	s	n/a
209.9975	0.135	419995	keystroke_o	o	n/a
210.5075	0.045	421015	keystroke_Key.backspace	Key.backspace	n/a
210.5975	0.0745	421195	keystroke_Key.backspace	Key.backspace	n/a
211.512	0.0905	423024	keystroke_o	o	n/a
211.557	0.1055	423114	keystroke_u	u	n/a
211.6475	0.06	423295	keystroke_s	s	n/a
211.783	0.2095	423566	keystroke_l	l	n/a
212.157	0.015	424314	keystroke_Key.space	Key.space	n/a
212.5475	0.045	425095	keystroke_Key.backspace	Key.backspace	n/a
212.7275	0.075	425455	keystroke_y	y	n/a
212.9375	0.075	425875	keystroke_Key.space	Key.space	n/a
213.4475	0.075	426895	keystroke_d	d	n/a
213.5975	0.09	427195	keystroke_e	e	n/a
213.7185	0.164	427437	keystroke_c	c	n/a
213.8975	0.105	427795	keystroke_e	e	n/a
214.0175	0.105	428035	keystroke_n	n	n/a
214.1225	0.075	428245	keystroke_t	t	n/a
214.242	0.0755	428484	keystroke_Key.enter	Key.enter	n/a
214.324	8.4545	428648	prompt	n/a	fragrances containers daniel evaluate\n
214.9775	0.105	429955	keystroke_f	f	n/a
215.172	0.0605	430344	keystroke_r	r	n/a
215.2175	0.135	430435	keystroke_a	a	n/a
215.3675	0.0745	430735	keystroke_g	g	n/a
215.727	0.1205	431454	keystroke_r	r	n/a
215.9225	0.045	431845	keystroke_a	a	n/a
215.9825	0.105	431965	keystroke_n	n	n/a
216.1325	0.1945	432265	keystroke_c	c	n/a
216.5975	0.075	433195	keystroke_e	e	n/a
216.7475	0.1065	433495	keystroke_s	s	n/a
216.9575	0.09	433915	keystroke_Key.space	Key.space	n/a
217.1225	0.18	434245	keystroke_c	c	n/a
217.2425	0.1055	434485	keystroke_o	o	n/a
217.3625	0.15	434725	keystroke_n	n	n/a
217.4675	0.09	434935	keystroke_t	t	n/a
217.6025	0.075	435205	keystroke_a	a	n/a
217.7225	0.1195	435445	keystroke_i	i	n/a
217.9475	0.105	435895	keystroke_n	n	n/a
218.0975	0.1495	436195	keystroke_e	e	n/a
218.2325	0.09	436465	keystroke_r	r	n/a
218.3675	0.1045	436735	keystroke_s	s	n/a
218.5475	0.105	437095	keystroke_Key.space	Key.space	n/a
218.6675	0.0745	437335	keystroke_d	d	n/a
218.8175	0.045	437635	keystroke_e	e	n/a
219.2825	0.0745	438565	keystroke_n	n	n/a
219.372	0.0455	438744	keystroke_a	a	n/a
219.672	0.0605	439344	keystroke_Key.backspace	Key.backspace	n/a
219.7925	0.075	439585	keystroke_Key.backspace	Key.backspace	n/a
219.942	0.0605	439884	keystroke_Key.backspace	Key.backspace	n/a
219.9875	0.09	439975	keystroke_a	a	n/a
220.1075	0.12	440215	keystroke_n	n	n/a
220.542	0.1055	441084	keystroke_i	i	n/a
220.6925	0.09	441385	keystroke_e	e	n/a
220.8425	0.105	441685	keystroke_l	l	n/a
220.9625	0.105	441925	keystroke_Key.space	Key.space	n/a
221.263	0.0445	442526	keystroke_e	e	n/a
221.3825	0.1345	442765	keystroke_v	v	n/a
221.502	0.1505	443004	keystroke_a	a	n/a
221.7875	0.21	443575	keystroke_l	l	n/a
221.9225	0.105	443845	keystroke_u	u	n/a
222.0125	0.1955	444025	keystroke_a	a	n/a
222.1325	0.18	444265	keystroke_t	t	n/a
222.3125	0.165	444625	keystroke_e	e	n/a
222.6575	0.12	445315	keystroke_Key.enter	Key.enter	n/a
222.782	7.661	445564	prompt	n/a	voyeurweb griffin wright corn\n
223.6625	0.09	447325	keystroke_v	v	n/a
223.8275	0.1795	447655	keystroke_o	o	n/a
223.9925	0.0595	447985	keystroke_y	y	n/a
224.6375	0.075	449275	keystroke_e	e	n/a
224.7875	0.106	449575	keystroke_r	r	n/a
224.9525	0.075	449905	keystroke_u	u	n/a
225.448	0.046	450896	keystroke_Key.backspace	Key.backspace	n/a
225.5675	0.045	451135	keystroke_Key.backspace	Key.backspace	n/a
225.718	0.1045	451436	keystroke_u	u	n/a
225.8375	0.105	451675	keystroke_r	r	n/a
226.0775	0.09	452155	keystroke_w	w	n/a
226.153	0.075	452306	keystroke_e	e	n/a
226.393	0.105	452786	keystroke_b	b	n/a
226.708	0.015	453416	keystroke_Key.space	Key.space	n/a
226.7375	0.0605	453475	keystroke_g	g	n/a
227.398	0.0745	454796	keystroke_r	r	n/a
227.578	0.105	455156	keystroke_i	i	n/a
227.698	0.105	455396	keystroke_f	f	n/a
227.8775	0.0755	455755	keystroke_f	f	n/a
228.0275	0.1515	456055	keystroke_i	i	n/a
228.133	0.12	456266	keystroke_n	n	n/a
228.2675	0.1355	456535	keystroke_Key.space	Key.space	n/a
228.5075	0.1055	457015	keystroke_w	w	n/a
228.688	0.0895	457376	keystroke_r	r	n/a
228.8075	0.135	457615	keystroke_i	i	n/a
228.898	0.0895	457796	keystroke_g	g	n/a
229.0475	0.135	458095	keystroke_h	h	n/a
229.123	0.0895	458246	keystroke_t	t	n/a
229.2875	0.15	458575	keystroke_Key.space	Key.space	n/a
229.483	0.15	458966	keystroke_c	c	n/a
229.6175	0.06	459235	keystroke_o	o	n/a
230.0225	0.1055	460045	keystroke_r	r	n/a
230.172	0.0755	460344	keystroke_n	n	n/a
230.368	0.0745	460736	keystroke_Key.enter	Key.enter	n/a
230.4465	6.342	460893	prompt	n/a	variance placing informed attention\n
231.1625	0.06	462325	keystroke_v	v	n/a
231.2975	0.09	462595	keystroke_a	a	n/a
231.3725	0.1055	462745	keystroke_r	r	n/a
231.523	0.1195	463046	keystroke_i	i	n/a
231.628	0.1345	463256	keystroke_a	a	n/a
231.7485	0.134	463497	keystroke_n	n	n/a
231.838	0.1645	463676	keystroke_c	c	n/a
231.9275	0.1055	463855	keystroke_e	e	n/a
232.0625	0.15	464125	keystroke_Key.space	Key.space	n/a
232.198	0.1195	464396	keystroke_p	p	n/a
232.3625	0.15	464725	keystroke_l	l	n/a
232.4675	0.135	464935	keystroke_a	a	n/a
232.5575	0.15	465115	keystroke_c	c	n/a
232.7375	0.15	465475	keystroke_i	i	n/a
232.8425	0.3	465685	keystroke_n	n	n/a
232.948	0.0895	465896	keystroke_g	g	n/a
233.083	0.1045	466166	keystroke_Key.space	Key.space	n/a
233.263	0.135	466526	keystroke_i	i	n/a
233.4575	0.09	466915	keystroke_n	n	n/a
233.533	0.0895	467066	keystroke_f	f	n/a
233.668	0.0745	467336	keystroke_o	o	n/a
233.7575	0.105	467515	keystroke_r	r	n/a
233.8775	0.15	467755	keystroke_m	m	n/a
234.013	0.0895	468026	keystroke_e	e	n/a
234.238	0.1045	468476	keystroke_d	d	n/a
234.448	0.0745	468896	keystroke_Key.space	Key.space	n/a
234.868	0.1045	469736	keystroke_a	a	n/a
235.123	0.045	470246	keystroke_t	t	n/a
235.303	0.075	470606	keystroke_t	t	n/a
235.348	0.12	470696	keystroke_e	e	n/a
235.483	0.12	470966	keystroke_n	n	n/a
235.618	0.045	471236	keystroke_t	t	n/a
235.798	0.165	471596	keystroke_i	i	n/a
236.293	0.1795	472586	keystroke_o	o	n/a
236.4575	0.09	472915	keystroke_n	n	n/a
236.683	0.1045	473366	keystroke_Key.enter	Key.enter	n/a
236.7925	4.901	473585	prompt	n/a	smile minolta folks specially\n
237.508	0.12	475016	keystroke_s	s	n/a
237.583	0.1795	475166	keystroke_m	m	n/a
237.718	0.12	475436	keystroke_i	i	n/a
237.898	0.1345	475796	keystroke_l	l	n/a
238.018	0.0895	476036	keystroke_e	e	n/a
238.138	0.1195	476276	keystroke_Key.space	Key.space	n/a
238.303	0.12	476606	keystroke_m	m	n/a
238.408	0.27	476816	keystroke_i	i	n/a
238.498	0.1945	476996	keystroke_n	n	n/a
238.633	0.075	477266	keystroke_o	o	n/a
238.7825	0.1055	477565	keystroke_l	l	n/a
238.933	0.075	477866	keystroke_t	t	n/a
239.128	0.105	478256	keystroke_a	a	n/a
239.278	0.135	478556	keystroke_Key.space	Key.space	n/a
239.428	0.12	478856	keystroke_f	f	n/a
239.533	0.09	479066	keystroke_o	o	n/a
239.668	0.15	479336	keystroke_l	l	n/a
239.803	0.135	479606	keystroke_k	k	n/a
239.893	0.09	479786	keystroke_s	s	n/a
239.998	0.105	479996	keystroke_Key.space	Key.space	n/a
240.178	0.105	480356	keystroke_s	s	n/a
240.3425	0.1205	480685	keystroke_p	p	n/a
240.418	0.0895	480836	keystroke_e	e	n/a
240.583	0.1045	481166	keystroke_c	c	n/a
240.733	0.135	481466	keystroke_i	i	n/a
240.9425	0.0755	481885	keystroke_a	a	n/a
241.093	0.0445	482186	keystroke_l	l	n/a
241.2425	0.1505	482485	keystroke_l	l	n/a
241.363	0.015	482726	keystroke_y	y	n/a
241.5575	0.1355	483115	keystroke_Key.enter	Key.enter	n/a
241.697	8.187	483394	prompt	n/a	jimmy accomplish fixes nepal\n
242.323	0.045	484646	keystroke_j	j	n/a
242.4425	0.0755	484885	keystroke_u	u	n/a
242.6525	0.0455	485305	keystroke_m	m	n/a
243.148	0.045	486296	keystroke_Key.backspace	Key.backspace	n/a
243.238	0.075	486476	keystroke_Key.backspace	Key.backspace	n/a
243.448	0.075	486896	keystroke_i	i	n/a
243.568	0.0745	487136	keystroke_m	m	n/a
243.733	0.075	487466	keystroke_m	m	n/a
243.9425	0.0755	487885	keystroke_y	y	n/a
244.033	0.135	488066	keystroke_Key.space	Key.space	n/a
244.453	0.015	488906	keystroke_c	c	n/a
244.768	0.0745	489536	keystroke_Key.backspace	Key.backspace	n/a
244.8575	0.0905	489715	keystroke_a	a	n/a
244.933	0.12	489866	keystroke_c	c	n/a
245.1275	0.0905	490255	keystroke_c	c	n/a
245.293	0.1495	490586	keystroke_o	o	n/a
245.383	0.135	490766	keystroke_m	m	n/a
245.503	0.09	491006	keystroke_p	p	n/a
245.698	0.15	491396	keystroke_l	l	n/a
245.833	0.135	491666	keystroke_i	i	n/a
246.028	0.12	492056	keystroke_s	s	n/a
246.163	0.15	492326	keystroke_h	h	n/a
246.298	0.09	492596	keystroke_Key.space	Key.space	n/a
246.838	0.045	493676	keystroke_f	f	n/a
246.9575	0.1355	493915	keystroke_i	i	n/a
247.828	0.15	495656	keystroke_x	x	n/a
248.1425	0.0905	496285	keystroke_e	e	n/a
248.413	0.075	496826	keystroke_s	s	n/a
248.563	0.135	497126	keystroke_Key.space	Key.space	n/a
248.908	0.1345	497816	keystroke_n	n	n/a
249.0575	0.0455	498115	keystroke_e	e	n/a
249.208	0.1495	498416	keystroke_p	p	n/a
249.3425	0.1205	498685	keystroke_a	a	n/a
249.538	0.1345	499076	keystroke_l	l	n/a
249.748	0.135	499496	keystroke_Key.enter	Key.enter	n/a
249.889	7.3605	499778	prompt	n/a	viewed obesity permitted turkey\n
250.5425	0.0605	501085	keystroke_v	v	n/a
250.618	0.12	501236	keystroke_i	i	n/a
251.5925	0.1355	503185	keystroke_e	e	n/a
252.163	0.15	504326	keystroke_w	w	n/a
252.298	0.09	504596	keystroke_e	e	n/a
252.493	0.105	504986	keystroke_d	d	n/a
252.6725	0.135	505345	keystroke_Key.space	Key.space	n/a
253.003	0.135	506006	keystroke_o	o	n/a
253.153	0.075	506306	keystroke_b	b	n/a
253.378	0.0745	506756	keystroke_e	e	n/a
253.528	0.09	507056	keystroke_s	s	n/a
253.633	0.12	507266	keystroke_i	i	n/a
253.753	0.075	507506	keystroke_t	t	n/a
253.8575	0.0755	507715	keystroke_y	y	n/a
253.948	0.135	507896	keystroke_Key.space	Key.space	n/a
254.1575	0.1355	508315	keystroke_p	p	n/a
254.278	0.1205	508556	keystroke_e	e	n/a
254.383	0.0895	508766	keystroke_r	r	n/a
254.608	0.1795	509216	keystroke_m	m	n/a
254.713	0.105	509426	keystroke_i	i	n/a
254.878	0.075	509756	keystroke_s	s	n/a
255.299	0.0735	510598	keystroke_Key.backspace	Key.backspace	n/a
255.449	0.044	510898	keystroke_t	t	n/a
255.568	0.0745	511136	keystroke_t	t	n/a
255.719	0.104	511438	keystroke_e	e	n/a
255.928	0.1055	511856	keystroke_d	d	n/a
256.078	0.105	512156	keystroke_Key.space	Key.space	n/a
256.228	0.105	512456	keystroke_t	t	n/a
256.378	0.045	512756	keystroke_u	u	n/a
256.4835	0.1045	512967	keystroke_r	r	n/a
256.633	0.135	513266	keystroke_k	k	n/a
256.753	0.1045	513506	keystroke_e	e	n/a
256.948	0.105	513896	keystroke_y	y	n/a
257.1725	0.0755	514345	keystroke_Key.enter	Key.enter	n/a
257.2545	7.6295	514509	prompt	n/a	monaco demonstrates exposure watching\n
257.9975	0.1205	515995	keystroke_m	m	n/a
258.103	0.09	516206	keystroke_a	a	n/a
258.688	0.075	517376	keystroke_Key.backspace	Key.backspace	n/a
258.869	0.119	517738	keystroke_o	o	n/a
258.9575	0.1355	517915	keystroke_n	n	n/a
259.108	0.1045	518216	keystroke_a	a	n/a
259.2575	0.1355	518515	keystroke_c	c	n/a
259.393	0.1495	518786	keystroke_o	o	n/a
259.498	0.1205	518996	keystroke_Key.space	Key.space	n/a
259.663	0.075	519326	keystroke_d	d	n/a
259.813	0.0745	519626	keystroke_e	e	n/a
259.9175	0.1055	519835	keystroke_m	m	n/a
260.038	0.15	520076	keystroke_o	o	n/a
260.1425	0.1355	520285	keystroke_n	n	n/a
260.263	0.06	520526	keystroke_s	s	n/a
260.368	0.0745	520736	keystroke_t	t	n/a
260.4875	0.1355	520975	keystroke_r	r	n/a
260.638	0.225	521276	keystroke_a	a	n/a
260.7575	0.1655	521515	keystroke_t	t	n/a
260.908	0.075	521816	keystroke_e	e	n/a
261.118	0.105	522236	keystroke_s	s	n/a
261.2975	0.106	522595	keystroke_Key.space	Key.space	n/a
261.463	0.075	522926	keystroke_e	e	n/a
261.6575	0.0905	523315	keystroke_x	x	n/a
261.718	0.09	523436	keystroke_p	p	n/a
261.883	0.105	523766	keystroke_o	o	n/a
262.288	0.105	524576	keystroke_s	s	n/a
262.498	0.105	524996	keystroke_u	u	n/a
262.678	0.1195	525356	keystroke_r	r	n/a
262.753	0.0895	525506	keystroke_e	e	n/a
262.948	0.1195	525896	keystroke_Key.space	Key.space	n/a
263.1725	0.1355	526345	keystroke_w	w	n/a
263.413	0.12	526826	keystroke_a	a	n/a
263.518	0.09	527036	keystroke_t	t	n/a
263.7425	0.1505	527485	keystroke_c	c	n/a
263.878	0.06	527756	keystroke_h	h	n/a
264.0425	0.1805	528085	keystroke_i	i	n/a
264.133	0.1945	528266	keystroke_n	n	n/a
264.4475	0.0605	528895	keystroke_g	g	n/a
264.748	0.135	529496	keystroke_Key.enter	Key.enter	n/a
264.887	4.317	529774	prompt	n/a	ultram stan sync doesn't\n
265.6325	0.0915	531265	keystroke_u	u	n/a
265.753	0.15	531506	keystroke_l	l	n/a
265.9475	0.076	531895	keystroke_t	t	n/a
266.098	0.12	532196	keystroke_r	r	n/a
266.1425	0.12	532285	keystroke_a	a	n/a
266.3235	0.149	532647	keystroke_m	m	n/a
266.4575	0.136	532915	keystroke_Key.space	Key.space	n/a
266.608	0.075	533216	keystroke_s	s	n/a
266.6985	0.105	533397	keystroke_t	t	n/a
266.848	0.105	533696	keystroke_a	a	n/a
267.028	0.15	534056	keystroke_n	n	n/a
267.163	0.15	534326	keystroke_Key.space	Key.space	n/a
267.388	0.1055	534776	keystroke_s	s	n/a
267.508	0.075	535016	keystroke_y	y	n/a
267.703	0.105	535406	keystroke_n	n	n/a
267.838	0.1345	535676	keystroke_c	c	n/a
267.988	0.165	535976	keystroke_Key.space	Key.space	n/a
268.168	0.045	536336	keystroke_d	d	n/a
268.243	0.1355	536486	keystroke_o	o	n/a
268.363	0.03	536726	keystroke_e	e	n/a
268.468	0.12	536936	keystroke_s	s	n/a
268.5425	0.1205	537085	keystroke_n	n	n/a
268.708	0.135	537416	keystroke_'	'	n/a
268.888	0.105	537776	keystroke_t	t	n/a
269.098	0.105	538196	keystroke_Key.enter	Key.enter	n/a
269.207	4.677	538414	prompt	n/a	wish paradise meals cabin\n
269.9075	0.0905	539815	keystroke_w	w	n/a
270.0425	0.151	540085	keystroke_i	i	n/a
270.178	0.09	540356	keystroke_s	s	n/a
270.313	0.12	540626	keystroke_h	h	n/a
270.388	0.135	540776	keystroke_Key.space	Key.space	n/a
270.553	0.1195	541106	keystroke_p	p	n/a
270.6575	0.136	541315	keystroke_a	a	n/a
270.778	0.105	541556	keystroke_r	r	n/a
270.868	0.12	541736	keystroke_a	a	n/a
271.168	0.0755	542336	keystroke_d	d	n/a
271.288	0.075	542576	keystroke_i	i	n/a
271.408	0.195	542816	keystroke_s	s	n/a
271.588	0.06	543176	keystroke_e	e	n/a
271.693	0.09	543386	keystroke_Key.space	Key.space	n/a
271.8425	0.165	543685	keystroke_m	m	n/a
271.993	0.06	543986	keystroke_e	e	n/a
272.128	0.105	544256	keystroke_a	a	n/a
272.278	0.165	544556	keystroke_l	l	n/a
272.443	0.075	544886	keystroke_s	s	n/a
272.533	0.105	545066	keystroke_Key.space	Key.space	n/a
272.7425	0.1505	545485	keystroke_c	c	n/a
272.848	0.1655	545696	keystroke_a	a	n/a
273.088	0.105	546176	keystroke_b	b	n/a
273.328	0.105	546656	keystroke_i	i	n/a
273.448	0.135	546896	keystroke_n	n	n/a
273.7775	0.1055	547555	keystroke_Key.enter	Key.enter	n/a
273.887	6.0275	547774	prompt	n/a	pure consumption anderson paso\n
274.6175	0.0905	549235	keystroke_p	p	n/a
274.798	0.0595	549596	keystroke_u	u	n/a
274.948	0.105	549896	keystroke_r	r	n/a
275.008	0.12	550016	keystroke_e	e	n/a
275.1425	0.106	550285	keystroke_Key.space	Key.space	n/a
275.248	0.18	550496	keystroke_c	c	n/a
275.4425	0.0755	550885	keystroke_o	o	n/a
275.503	0.09	551006	keystroke_n	n	n/a
275.668	0.0895	551336	keystroke_s	s	n/a
275.788	0.0745	551576	keystroke_u	u	n/a
276.028	0.12	552056	keystroke_m	m	n/a
276.103	0.15	552206	keystroke_p	p	n/a
276.268	0.0895	552536	keystroke_t	t	n/a
276.433	0.135	552866	keystroke_i	i	n/a
276.913	0.165	553826	keystroke_o	o	n/a
277.1525	0.1505	554305	keystroke_n	n	n/a
277.333	0.1655	554666	keystroke_Key.space	Key.space	n/a
277.663	0.15	555326	keystroke_a	a	n/a
277.993	0.105	555986	keystroke_n	n	n/a
278.113	0.0445	556226	keystroke_d	d	n/a
278.323	0.15	556646	keystroke_e	e	n/a
278.428	0.12	556856	keystroke_r	r	n/a
278.623	0.105	557246	keystroke_s	s	n/a
278.7885	0.1345	557577	keystroke_o	o	n/a
278.878	0.12	557756	keystroke_n	n	n/a
278.9985	0.1495	557997	keystroke_Key.space	Key.space	n/a
279.1345	0.1635	558269	keystroke_p	p	n/a
279.2535	0.104	558507	keystroke_a	a	n/a
279.508	0.105	559016	keystroke_s	s	n/a
279.628	0.0745	559256	keystroke_o	o	n/a
279.808	0.105	559616	keystroke_Key.enter	Key.enter	n/a
279.919	5.26	559838	prompt	n/a	though dylan margaret ferrari\n
280.7385	0.1495	561477	keystroke_t	t	n/a
280.8135	0.105	561627	keystroke_h	h	n/a
280.963	0.1655	561926	keystroke_o	o	n/a
281.0535	0.0895	562107	keystroke_u	u	n/a
281.1885	0.105	562377	keystroke_g	g	n/a
281.2935	0.1645	562587	keystroke_h	h	n/a
281.443	0.1055	562886	keystroke_Key.space	Key.space	n/a
281.6535	0.0445	563307	keystroke_d	d	n/a
281.713	0.09	563426	keystroke_y	y	n/a
281.9235	0.1195	563847	keystroke_l	l	n/a
282.058	0.105	564116	keystroke_a	a	n/a
282.178	0.1205	564356	keystroke_n	n	n/a
282.2835	0.15	564567	keystroke_Key.space	Key.space	n/a
282.478	0.135	564956	keystroke_m	m	n/a
282.628	0.09	565256	keystroke_a	a	n/a
282.6725	0.1205	565345	keystroke_r	r	n/a
282.8975	0.075	565795	keystroke_g	g	n/a
283.018	0.105	566036	keystroke_a	a	n/a
283.303	0.045	566606	keystroke_r	r	n/a
283.423	0.1045	566846	keystroke_e	e	n/a
283.618	0.105	567236	keystroke_t	t	n/a
283.7385	0.1495	567477	keystroke_Key.space	Key.space	n/a
283.8725	0.0905	567745	keystroke_f	f	n/a
284.098	0.1055	568196	keystroke_e	e	n/a
284.218	0.105	568436	keystroke_r	r	n/a
284.398	0.1055	568796	keystroke_r	r	n/a
284.548	0.135	569096	keystroke_a	a	n/a
284.683	0.105	569366	keystroke_r	r	n/a
284.863	0.105	569726	keystroke_i	i	n/a
285.0425	0.1355	570085	keystroke_Key.enter	Key.enter	n/a
285.1825	6.0715	570365	prompt	n/a	allen testing paradise intensity\n
285.853	0.0455	571706	keystroke_a	a	n/a
285.958	0.1205	571916	keystroke_l	l	n/a
286.1535	0.15	572307	keystroke_l	l	n/a
286.258	0.1355	572516	keystroke_e	e	n/a
286.3785	0.105	572757	keystroke_n	n	n/a
286.4535	0.1365	572907	keystroke_Key.space	Key.space	n/a
286.543	0.0905	573086	keystroke_t	t	n/a
286.7685	0.1045	573537	keystroke_e	e	n/a
286.9335	0.105	573867	keystroke_s	s	n/a
287.0535	0.1045	574107	keystroke_t	t	n/a
287.2635	0.1495	574527	keystroke_i	i	n/a
287.3985	0.0745	574797	keystroke_n	n	n/a
287.458	0.12	574916	keystroke_g	g	n/a
287.653	0.135	575306	keystroke_Key.space	Key.space	n/a
287.863	0.1795	575726	keystroke_p	p	n/a
287.998	0.09	575996	keystroke_a	a	n/a
288.103	0.105	576206	keystroke_r	r	n/a
288.193	0.12	576386	keystroke_a	a	n/a
288.508	0.075	577016	keystroke_d	d	n/a
288.6725	0.1055	577345	keystroke_i	i	n/a
288.793	0.12	577586	keystroke_s	s	n/a
288.898	0.09	577796	keystroke_e	e	n/a
289.093	0.075	578186	keystroke_Key.space	Key.space	n/a
289.3025	0.1355	578605	keystroke_i	i	n/a
289.753	0.075	579506	keystroke_n	n	n/a
289.9325	0.0755	579865	keystroke_t	t	n/a
290.1135	0.0745	580227	keystroke_e	e	n/a
290.263	0.135	580526	keystroke_n	n	n/a
290.5635	0.1045	581127	keystroke_s	s	n/a
290.7135	0.1045	581427	keystroke_i	i	n/a
290.833	0.077	581666	keystroke_t	t	n/a
290.953	0.075	581906	keystroke_y	y	n/a
291.178	0.075	582356	keystroke_Key.enter	Key.enter	n/a
291.2575	6.2965	582515	prompt	n/a	threats approve uniform publisher\n
292.003	0.045	584006	keystroke_t	t	n/a
292.063	0.105	584126	keystroke_h	h	n/a
292.213	0.09	584426	keystroke_r	r	n/a
292.2885	0.0895	584577	keystroke_e	e	n/a
292.543	0.075	585086	keystroke_a	a	n/a
292.648	0.105	585296	keystroke_t	t	n/a
292.8575	0.136	585715	keystroke_s	s	n/a
293.038	0.12	586076	keystroke_Key.space	Key.space	n/a
293.263	0.075	586526	keystroke_a	a	n/a
293.443	0.045	586886	keystroke_p	p	n/a
293.503	0.1655	587006	keystroke_p	p	n/a
293.6835	0.0745	587367	keystroke_r	r	n/a
294.163	0.105	588326	keystroke_o	o	n/a
294.313	0.1045	588626	keystroke_v	v	n/a
294.4325	0.1355	588865	keystroke_e	e	n/a
294.583	0.105	589166	keystroke_Key.space	Key.space	n/a
294.8235	0.0445	589647	keystroke_u	u	n/a
294.988	0.12	589976	keystroke_n	n	n/a
295.063	0.12	590126	keystroke_i	i	n/a
295.1685	0.0895	590337	keystroke_f	f	n/a
295.4835	0.1045	590967	keystroke_o	o	n/a
295.603	0.09	591206	keystroke_r	r	n/a
295.7075	0.1955	591415	keystroke_m	m	n/a
295.918	0.105	591836	keystroke_Key.space	Key.space	n/a
296.068	0.18	592136	keystroke_p	p	n/a
296.143	0.09	592286	keystroke_u	u	n/a
296.4135	0.0745	592827	keystroke_b	b	n/a
296.6685	0.1495	593337	keystroke_l	l	n/a
296.743	0.135	593486	keystroke_i	i	n/a
296.8635	0.119	593727	keystroke_s	s	n/a
296.998	0.105	593996	keystroke_h	h	n/a
297.1785	0.1645	594357	keystroke_e	e	n/a
297.283	0.105	594566	keystroke_r	r	n/a
297.433	0.1205	594866	keystroke_Key.enter	Key.enter	n/a
297.5575	7.0015	595115	prompt	n/a	complexity pale transexual since\n
298.2135	0.1645	596427	keystroke_c	c	n/a
298.303	0.165	596606	keystroke_o	o	n/a
298.4235	0.1345	596847	keystroke_m	m	n/a
298.4835	0.1195	596967	keystroke_p	p	n/a
298.678	0.15	597356	keystroke_l	l	n/a
298.8135	0.0595	597627	keystroke_e	e	n/a
299.3685	0.12	598737	keystroke_x	x	n/a
299.5035	0.105	599007	keystroke_i	i	n/a
299.7285	0.0595	599457	keystroke_t	t	n/a
299.8935	0.105	599787	keystroke_y	y	n/a
300.073	0.0905	600146	keystroke_Key.space	Key.space	n/a
300.4935	0.1055	600987	keystroke_p	p	n/a
300.6135	0.105	601227	keystroke_a	a	n/a
300.7635	0.12	601527	keystroke_l	l	n/a
300.8385	0.1345	601677	keystroke_e	e	n/a
300.958	0.1205	601916	keystroke_Key.space	Key.space	n/a
301.0935	0.075	602187	keystroke_t	t	n/a
301.2135	0.135	602427	keystroke_r	r	n/a
301.3335	0.165	602667	keystroke_a	a	n/a
301.543	0.1055	603086	keystroke_n	n	n/a
301.768	0.09	603536	keystroke_s	s	n/a
302.2635	0.015	604527	keystroke_e	e	n/a
302.4135	0.135	604827	keystroke_x	x	n/a
302.6235	0.075	605247	keystroke_u	u	n/a
302.7135	0.135	605427	keystroke_a	a	n/a
302.9835	0.105	605967	keystroke_l	l	n/a
303.3135	0.0745	606627	keystroke_Key.space	Key.space	n/a
303.7635	0.03	607527	keystroke_s	s	n/a
303.973	0.1355	607946	keystroke_i	i	n/a
304.0635	0.12	608127	keystroke_n	n	n/a
304.169	0.1945	608338	keystroke_c	c	n/a
304.273	0.135	608546	keystroke_e	e	n/a
304.469	0.089	608938	keystroke_Key.enter	Key.enter	n/a
304.5615	7.9325	609123	prompt	n/a	nascar securities manually usps\n
305.158	0.0905	610316	keystroke_n	n	n/a
305.669	0.1195	611338	keystroke_a	a	n/a
305.743	0.1505	611486	keystroke_s	s	n/a
305.9085	0.1345	611817	keystroke_c	c	n/a
306.1485	0.1045	612297	keystroke_a	a	n/a
306.3885	0.09	612777	keystroke_r	r	n/a
306.4635	0.09	612927	keystroke_e	e	n/a
306.5985	0.1055	613197	keystroke_Key.space	Key.space	n/a
306.7185	0.09	613437	keystroke_s	s	n/a
306.913	0.0755	613826	keystroke_e	e	n/a
307.213	0.045	614426	keystroke_Key.backspace	Key.backspace	n/a
307.3335	0.075	614667	keystroke_Key.backspace	Key.backspace	n/a
307.4835	0.0745	614967	keystroke_Key.backspace	Key.backspace	n/a
307.6335	0.075	615267	keystroke_Key.backspace	Key.backspace	n/a
307.7385	0.1045	615477	keystroke_Key.space	Key.space	n/a
308.2335	0.09	616467	keystroke_s	s	n/a
308.443	0.045	616886	keystroke_e	e	n/a
308.5635	0.105	617127	keystroke_c	c	n/a
308.6835	0.0745	617367	keystroke_u	u	n/a
308.8035	0.1355	617607	keystroke_r	r	n/a
308.9535	0.1045	617907	keystroke_i	i	n/a
309.073	0.0905	618146	keystroke_t	t	n/a
309.148	0.1205	618296	keystroke_i	i	n/a
309.2835	0.105	618567	keystroke_e	e	n/a
309.4635	0.105	618927	keystroke_s	s	n/a
309.673	0.0755	619346	keystroke_Key.space	Key.space	n/a
309.8535	0.0895	619707	keystroke_m	m	n/a
309.9285	0.12	619857	keystroke_a	a	n/a
310.0635	0.0755	620127	keystroke_n	n	n/a
310.273	0.0605	620546	keystroke_u	u	n/a
310.543	0.0755	621086	keystroke_a	a	n/a
310.6335	0.075	621267	keystroke_l	l	n/a
310.8135	0.18	621627	keystroke_l	l	n/a
310.9185	0.09	621837	keystroke_y	y	n/a
311.0235	0.1195	622047	keystroke_Key.space	Key.space	n/a
311.6535	0.0895	623307	keystroke_u	u	n/a
311.7285	0.105	623457	keystroke_s	s	n/a
311.924	0.1645	623848	keystroke_p	p	n/a
312.0285	0.105	624057	keystroke_s	s	n/a
312.4185	0.075	624837	keystroke_Key.enter	Key.enter	n/a
312.497	7.962	624994	prompt	n/a	apnic compensation warren rochester\n
313.348	0.09	626696	keystroke_a	a	n/a
313.5135	0.1045	627027	keystroke_p	p	n/a
313.7235	0.1195	627447	keystroke_n	n	n/a
313.8585	0.135	627717	keystroke_i	i	n/a
314.0985	0.135	628197	keystroke_c	c	n/a
314.248	0.0905	628496	keystroke_Key.space	Key.space	n/a
315.118	0.1205	630236	keystroke_c	c	n/a
315.2235	0.165	630447	keystroke_o	o	n/a
315.343	0.1505	630686	keystroke_m	m	n/a
315.4335	0.1195	630867	keystroke_p	p	n/a
315.8835	0.0745	631767	keystroke_e	e	n/a
316.0335	0.075	632067	keystroke_n	n	n/a
316.1535	0.0895	632307	keystroke_s	s	n/a
316.3185	0.105	632637	keystroke_a	a	n/a
316.6035	0.09	633207	keystroke_t	t	n/a
316.7385	0.1345	633477	keystroke_i	i	n/a
316.9945	0.1485	633989	keystroke_o	o	n/a
317.1285	0.09	634257	keystroke_n	n	n/a
317.2035	0.135	634407	keystroke_Key.space	Key.space	n/a
317.3385	0.075	634677	keystroke_w	w	n/a
317.7885	0.075	635577	keystroke_a	a	n/a
317.9685	0.0745	635937	keystroke_r	r	n/a
318.088	0.091	636176	keystroke_r	r	n/a
318.373	0.0755	636746	keystroke_e	e	n/a
318.5235	0.1055	637047	keystroke_n	n	n/a
318.643	0.105	637286	keystroke_Key.space	Key.space	n/a
318.8685	0.0745	637737	keystroke_r	r	n/a
319.0485	0.09	638097	keystroke_o	o	n/a
319.1535	0.1195	638307	keystroke_c	c	n/a
319.258	0.0905	638516	keystroke_h	h	n/a
319.3635	0.075	638727	keystroke_e	e	n/a
319.5885	0.045	639177	keystroke_s	s	n/a
319.6785	0.105	639357	keystroke_t	t	n/a
319.9785	0.15	639957	keystroke_e	e	n/a
320.1135	0.12	640227	keystroke_r	r	n/a
320.3685	0.0895	640737	keystroke_Key.enter	Key.enter	n/a
320.4625	9.4025	640925	prompt	n/a	strictly peninsula hypothesis milton\n
321.1035	0.075	642207	keystroke_s	s	n/a
321.2085	0.1045	642417	keystroke_t	t	n/a
321.4485	0.075	642897	keystroke_r	r	n/a
321.5685	0.1045	643137	keystroke_i	i	n/a
321.6885	0.09	643377	keystroke_c	c	n/a
321.8685	0.135	643737	keystroke_t	t	n/a
322.0785	0.1945	644157	keystroke_l	l	n/a
322.2135	0.09	644427	keystroke_y	y	n/a
322.3185	0.105	644637	keystroke_Key.space	Key.space	n/a
322.499	0.1345	644998	keystroke_p	p	n/a
322.6485	0.09	645297	keystroke_e	e	n/a
322.7385	0.075	645477	keystroke_n	n	n/a
322.858	0.1505	645716	keystroke_i	i	n/a
322.9935	0.12	645987	keystroke_n	n	n/a
323.173	0.1205	646346	keystroke_s	s	n/a
323.3385	0.15	646677	keystroke_u	u	n/a
323.5035	0.075	647007	keystroke_l	l	n/a
323.6535	0.045	647307	keystroke_a	a	n/a
324.1185	0.105	648237	keystroke_Key.space	Key.space	n/a
324.553	0.0755	649106	keystroke_p	p	n/a
324.9885	0.075	649977	keystroke_Key.backspace	Key.backspace	n/a
325.1985	0.0745	650397	keystroke_n	n	n/a
325.4085	0.045	650817	keystroke_y	y	n/a
325.843	0.0455	651686	keystroke_Key.backspace	Key.backspace	n/a
325.9335	0.09	651867	keystroke_Key.backspace	Key.backspace	n/a
326.788	0.0605	653576	keystroke_h	h	n/a
327.043	0.0755	654086	keystroke_y	y	n/a
327.1635	0.106	654327	keystroke_p	p	n/a
327.343	0.1355	654686	keystroke_o	o	n/a
327.6435	0.09	655287	keystroke_t	t	n/a
327.719	0.0595	655438	keystroke_h	h	n/a
327.7935	0.09	655587	keystroke_e	e	n/a
327.9735	0.12	655947	keystroke_s	s	n/a
328.1085	0.12	656217	keystroke_i	i	n/a
328.1835	0.0895	656367	keystroke_s	s	n/a
328.348	0.136	656696	keystroke_Key.space	Key.space	n/a
328.754	0.15	657508	keystroke_m	m	n/a
328.9185	0.135	657837	keystroke_i	i	n/a
329.0985	0.12	658197	keystroke_l	l	n/a
329.2335	0.105	658467	keystroke_t	t	n/a
329.3835	0.135	658767	keystroke_o	o	n/a
329.5485	0.105	659097	keystroke_n	n	n/a
329.8185	0.045	659637	keystroke_Key.enter	Key.enter	n/a
329.872	6.9825	659744	prompt	n/a	beverage occupations webster defense\n
330.5835	0.06	661167	keystroke_b	b	n/a
330.7485	0.075	661497	keystroke_e	e	n/a
331.0785	0.0755	662157	keystroke_v	v	n/a
331.2285	0.12	662457	keystroke_e	e	n/a
331.3335	0.06	662667	keystroke_r	r	n/a
331.439	0.1795	662878	keystroke_a	a	n/a
331.573	0.1055	663146	keystroke_g	g	n/a
331.6335	0.12	663267	keystroke_e	e	n/a
331.8135	0.12	663627	keystroke_Key.space	Key.space	n/a
331.9485	0.15	663897	keystroke_c	c	n/a
332.309	0.0445	664618	keystroke_Key.backspace	Key.backspace	n/a
332.4885	0.0745	664977	keystroke_o	o	n/a
332.6385	0.09	665277	keystroke_c	c	n/a
332.833	0.0605	665666	keystroke_c	c	n/a
332.8785	0.12	665757	keystroke_u	u	n/a
333.1185	0.1055	666237	keystroke_p	p	n/a
333.2385	0.1045	666477	keystroke_a	a	n/a
333.3285	0.09	666657	keystroke_t	t	n/a
333.569	0.1645	667138	keystroke_i	i	n/a
333.6135	0.135	667227	keystroke_o	o	n/a
333.719	0.135	667438	keystroke_n	n	n/a
333.8835	0.075	667767	keystroke_s	s	n/a
333.989	0.137	667978	keystroke_Key.space	Key.space	n/a
334.2585	0.1205	668517	keystroke_w	w	n/a
334.364	0.0895	668728	keystroke_e	e	n/a
334.6035	0.045	669207	keystroke_b	b	n/a
334.7685	0.075	669537	keystroke_s	s	n/a
334.858	0.1055	669716	keystroke_t	t	n/a
335.1285	0.105	670257	keystroke_e	e	n/a
335.2485	0.0755	670497	keystroke_r	r	n/a
335.3985	0.0745	670797	keystroke_Key.space	Key.space	n/a
335.5185	0.06	671037	keystroke_d	d	n/a
335.668	0.0605	671336	keystroke_e	e	n/a
335.773	0.1055	671546	keystroke_f	f	n/a
335.9535	0.1195	671907	keystroke_e	e	n/a
336.1185	0.135	672237	keystroke_n	n	n/a
336.3135	0.1205	672627	keystroke_s	s	n/a
336.4335	0.12	672867	keystroke_e	e	n/a
336.7485	0.105	673497	keystroke_Key.enter	Key.enter	n/a
336.859	6.6855	673718	prompt	n/a	pocket nobody cottages computation\n
337.573	0.0755	675146	keystroke_p	p	n/a
337.753	0.1355	675506	keystroke_o	o	n/a
338.158	0.1505	676316	keystroke_c	c	n/a
338.473	0.12	676946	keystroke_k	k	n/a
338.6985	0.12	677397	keystroke_e	e	n/a
338.773	0.0905	677546	keystroke_t	t	n/a
338.9385	0.1195	677877	keystroke_Key.space	Key.space	n/a
339.1035	0.1045	678207	keystroke_n	n	n/a
339.1935	0.09	678387	keystroke_o	o	n/a
339.2985	0.1055	678597	keystroke_b	b	n/a
339.4185	0.12	678837	keystroke_o	o	n/a
339.673	0.076	679346	keystroke_d	d	n/a
339.7935	0.105	679587	keystroke_y	y	n/a
339.9135	0.135	679827	keystroke_Key.space	Key.space	n/a
340.3035	0.12	680607	keystroke_c	c	n/a
340.4835	0.12	680967	keystroke_o	o	n/a
340.5735	0.09	681147	keystroke_t	t	n/a
340.7385	0.075	681477	keystroke_t	t	n/a
340.8885	0.18	681777	keystroke_a	a	n/a
340.9935	0.09	681987	keystroke_g	g	n/a
341.1585	0.1055	682317	keystroke_e	e	n/a
341.3385	0.105	682677	keystroke_s	s	n/a
341.4885	0.166	682977	keystroke_Key.space	Key.space	n/a
341.7	0.1635	683400	keystroke_c	c	n/a
341.9085	0.225	683817	keystroke_o	o	n/a
342.0135	0.135	684027	keystroke_m	m	n/a
342.1185	0.195	684237	keystroke_p	p	n/a
342.3285	0.12	684657	keystroke_u	u	n/a
342.433	0.1205	684866	keystroke_t	t	n/a
342.5685	0.15	685137	keystroke_a	a	n/a
342.673	0.1505	685346	keystroke_t	t	n/a
342.9585	0.2845	685917	keystroke_i	i	n/a
343.0335	0.21	686067	keystroke_o	o	n/a
343.1685	0.105	686337	keystroke_n	n	n/a
343.4085	0.1345	686817	keystroke_Key.enter	Key.enter	n/a
343.5475	8.922	687095	prompt	n/a	making anonymous scholarships navigate\n
344.1735	0.15	688347	keystroke_m	m	n/a
344.3685	0.0895	688737	keystroke_a	a	n/a
344.4885	0.105	688977	keystroke_k	k	n/a
344.7285	0.09	689457	keystroke_i	i	n/a
344.773	0.1055	689546	keystroke_n	n	n/a
344.8635	0.09	689727	keystroke_g	g	n/a
344.998	0.075	689996	keystroke_Key.space	Key.space	n/a
345.1185	0.12	690237	keystroke_a	a	n/a
345.2235	0.09	690447	keystroke_n	n	n/a
345.509	0.1195	691018	keystroke_o	o	n/a
345.6135	0.09	691227	keystroke_n	n	n/a
345.869	0.0445	691738	keystroke_y	y	n/a
346.3785	0.045	692757	keystroke_m	m	n/a
346.6185	0.15	693237	keystroke_o	o	n/a
346.6635	0.12	693327	keystroke_u	u	n/a
346.7985	0.0745	693597	keystroke_s	s	n/a
346.9185	0.105	693837	keystroke_Key.space	Key.space	n/a
347.1135	0.1205	694227	keystroke_s	s	n/a
347.219	0.135	694438	keystroke_c	c	n/a
347.3385	0.1345	694677	keystroke_h	h	n/a
347.458	0.076	694916	keystroke_o	o	n/a
347.6085	0.105	695217	keystroke_l	l	n/a
348.2385	0.12	696477	keystroke_a	a	n/a
348.314	0.09	696628	keystroke_r	r	n/a
348.689	0.119	697378	keystroke_s	s	n/a
348.7635	0.12	697527	keystroke_c	c	n/a
349.258	0.0755	698516	keystroke_Key.backspace	Key.backspace	n/a
349.5285	0.06	699057	keystroke_h	h	n/a
349.843	0.1055	699686	keystroke_i	i	n/a
349.9635	0.165	699927	keystroke_p	p	n/a
350.173	0.0755	700346	keystroke_s	s	n/a
350.3385	0.1045	700677	keystroke_Key.space	Key.space	n/a
350.9385	0.1195	701877	keystroke_n	n	n/a
351.043	0.121	702086	keystroke_a	a	n/a
351.2385	0.06	702477	keystroke_v	v	n/a
351.2835	0.0895	702567	keystroke_i	i	n/a
351.419	0.1045	702838	keystroke_g	g	n/a
351.6585	0.0785	703317	keystroke_a	a	n/a
351.8385	0.09	703677	keystroke_t	t	n/a
352.1835	0.0745	704367	keystroke_e	e	n/a
352.3335	0.135	704667	keystroke_Key.enter	Key.enter	n/a
352.4725	6.942	704945	prompt	n/a	receivers mobility organ dice\n
353.2035	0.12	706407	keystroke_r	r	n/a
353.3085	0.09	706617	keystroke_e	e	n/a
353.5035	0.1355	707007	keystroke_c	c	n/a
353.953	0.1055	707906	keystroke_e	e	n/a
354.2835	0.1055	708567	keystroke_i	i	n/a
354.4035	0.1055	708807	keystroke_v	v	n/a
354.614	0.1195	709228	keystroke_e	e	n/a
354.7185	0.0745	709437	keystroke_r	r	n/a
355.0935	0.105	710187	keystroke_s	s	n/a
355.273	0.0755	710546	keystroke_Key.space	Key.space	n/a
355.4085	0.1495	710817	keystroke_m	m	n/a
355.4535	0.1355	710907	keystroke_o	o	n/a
355.573	0.0905	711146	keystroke_b	b	n/a
355.678	0.1055	711356	keystroke_i	i	n/a
355.858	0.0905	711716	keystroke_l	l	n/a
355.9335	0.09	711867	keystroke_i	i	n/a
356.6985	0.03	713397	keystroke_t	t	n/a
356.8035	0.105	713607	keystroke_y	y	n/a
356.9535	0.135	713907	keystroke_Key.space	Key.space	n/a
357.5535	0.0895	715107	keystroke_o	o	n/a
357.6285	0.09	715257	keystroke_r	r	n/a
357.793	0.1355	715586	keystroke_g	g	n/a
357.973	0.1355	715946	keystroke_a	a	n/a
358.1535	0.1195	716307	keystroke_n	n	n/a
358.258	0.0905	716516	keystroke_Key.space	Key.space	n/a
358.5285	0.105	717057	keystroke_d	d	n/a
358.7985	0.105	717597	keystroke_i	i	n/a
358.9485	0.1945	717897	keystroke_c	c	n/a
359.0385	0.1205	718077	keystroke_e	e	n/a
359.2635	0.15	718527	keystroke_Key.enter	Key.enter	n/a
359.418	5.232	718836	prompt	n/a	wondering shuttle located income\n
360.223	0.0905	720446	keystroke_w	w	n/a
360.328	0.1205	720656	keystroke_o	o	n/a
360.4335	0.105	720867	keystroke_n	n	n/a
360.5235	0.06	721047	keystroke_d	d	n/a
360.658	0.1055	721316	keystroke_e	e	n/a
360.7485	0.12	721497	keystroke_r	r	n/a
360.944	0.1345	721888	keystroke_i	i	n/a
361.0185	0.105	722037	keystroke_n	n	n/a
361.0635	0.105	722127	keystroke_g	g	n/a
361.1835	0.12	722367	keystroke_Key.space	Key.space	n/a
361.2885	0.09	722577	keystroke_s	s	n/a
361.3935	0.105	722787	keystroke_h	h	n/a
361.604	0.0745	723208	keystroke_u	u	n/a
361.7835	0.045	723567	keystroke_t	t	n/a
361.9035	0.105	723807	keystroke_t	t	n/a
362.0535	0.1195	724107	keystroke_l	l	n/a
362.158	0.09	724316	keystroke_e	e	n/a
362.3235	0.105	724647	keystroke_Key.space	Key.space	n/a
362.473	0.0605	724946	keystroke_l	l	n/a
362.6085	0.12	725217	keystroke_o	o	n/a
362.6535	0.15	725307	keystroke_c	c	n/a
362.8485	0.18	725697	keystroke_a	a	n/a
362.9535	0.135	725907	keystroke_t	t	n/a
363.073	0.0755	726146	keystroke_e	e	n/a
363.2235	0.165	726447	keystroke_d	d	n/a
363.373	0.0605	726746	keystroke_Key.space	Key.space	n/a
363.4485	0.15	726897	keystroke_i	i	n/a
363.5235	0.106	727047	keystroke_n	n	n/a
363.6135	0.135	727227	keystroke_c	c	n/a
363.7335	0.15	727467	keystroke_o	o	n/a
363.8535	0.165	727707	keystroke_m	m	n/a
364.1085	0.09	728217	keystroke_e	e	n/a
364.5285	0.12	729057	keystroke_Key.enter	Key.enter	n/a
364.653	5.5765	729306	prompt	n/a	toner followed webcast patches\n
365.3535	0.1045	730707	keystroke_t	t	n/a
365.4435	0.105	730887	keystroke_o	o	n/a
365.5785	0.1355	731157	keystroke_n	n	n/a
365.7435	0.1655	731487	keystroke_e	e	n/a
365.8935	0.09	731787	keystroke_r	r	n/a
366.058	0.1355	732116	keystroke_Key.space	Key.space	n/a
366.449	0.09	732898	keystroke_f	f	n/a
366.5235	0.06	733047	keystroke_o	o	n/a
366.719	0.0445	733438	keystroke_l	l	n/a
366.8535	0.0455	733707	keystroke_l	l	n/a
367.0935	0.0155	734187	keystroke_o	o	n/a
367.109	0.1195	734218	keystroke_w	w	n/a
367.2135	0.09	734427	keystroke_e	e	n/a
367.4085	0.09	734817	keystroke_d	d	n/a
367.558	0.076	735116	keystroke_Key.space	Key.space	n/a
367.6785	0.09	735357	keystroke_w	w	n/a
367.754	0.089	735508	keystroke_e	e	n/a
367.9495	0.0735	735899	keystroke_b	b	n/a
368.354	0.1645	736708	keystroke_c	c	n/a
368.5335	0.0905	737067	keystroke_a	a	n/a
368.5785	0.12	737157	keystroke_s	s	n/a
368.773	0.1055	737546	keystroke_t	t	n/a
368.9235	0.1195	737847	keystroke_Key.space	Key.space	n/a
369.0885	0.12	738177	keystroke_p	p	n/a
369.164	0.1345	738328	keystroke_a	a	n/a
369.284	0.0595	738568	keystroke_t	t	n/a
369.4635	0.135	738927	keystroke_c	c	n/a
369.6285	0.106	739257	keystroke_h	h	n/a
369.7485	0.1355	739497	keystroke_e	e	n/a
369.9885	0.09	739977	keystroke_s	s	n/a
370.1235	0.105	740247	keystroke_Key.enter	Key.enter	n/a
370.2335	6.2665	740467	prompt	n/a	created grateful border dollars\n
370.9035	0.09	741807	keystroke_c	c	n/a
371.099	0.1195	742198	keystroke_r	r	n/a
371.3535	0.15	742707	keystroke_e	e	n/a
371.5335	0.15	743067	keystroke_a	a	n/a
371.669	0.0595	743338	keystroke_t	t	n/a
371.8485	0.09	743697	keystroke_e	e	n/a
372.0435	0.09	744087	keystroke_d	d	n/a
372.1935	0.135	744387	keystroke_Key.space	Key.space	n/a
372.539	0.0445	745078	keystroke_g	g	n/a
372.6885	0.075	745377	keystroke_r	r	n/a
372.794	0.1495	745588	keystroke_a	a	n/a
373.3635	0.075	746727	keystroke_t	t	n/a
373.5135	0.105	747027	keystroke_e	e	n/a
373.6935	0.15	747387	keystroke_f	f	n/a
373.8885	0.075	747777	keystroke_u	u	n/a
374.0685	0.0895	748137	keystroke_l	l	n/a
374.1435	0.15	748287	keystroke_Key.space	Key.space	n/a
374.3085	0.1045	748617	keystroke_b	b	n/a
374.458	0.1205	748916	keystroke_o	o	n/a
374.5635	0.0905	749127	keystroke_r	r	n/a
374.7885	0.045	749577	keystroke_d	d	n/a
374.9085	0.1345	749817	keystroke_e	e	n/a
375.0135	0.1045	750027	keystroke_r	r	n/a
375.1635	0.0905	750327	keystroke_Key.space	Key.space	n/a
375.2685	0.1205	750537	keystroke_d	d	n/a
375.389	0.045	750778	keystroke_o	o	n/a
375.584	0.045	751168	keystroke_l	l	n/a
375.719	0.105	751438	keystroke_l	l	n/a
375.779	0.1945	751558	keystroke_a	a	n/a
375.929	0.0895	751858	keystroke_r	r	n/a
376.1545	0.1345	752309	keystroke_s	s	n/a
376.394	0.105	752788	keystroke_Key.enter	Key.enter	n/a
376.504	6.5955	753008	prompt	n/a	elsewhere family history mumbai\n
377.2335	0.0905	754467	keystroke_e	e	n/a
377.384	0.135	754768	keystroke_l	l	n/a
377.594	0.075	755188	keystroke_s	s	n/a
378.0435	0.015	756087	keystroke_e	e	n/a
378.3585	0.09	756717	keystroke_h	h	n/a
378.6435	0.09	757287	keystroke_Key.backspace	Key.backspace	n/a
378.7635	0.0605	757527	keystroke_w	w	n/a
378.869	0.135	757738	keystroke_h	h	n/a
378.9585	0.09	757917	keystroke_e	e	n/a
379.094	0.1195	758188	keystroke_r	r	n/a
379.169	0.1045	758338	keystroke_e	e	n/a
379.2885	0.1355	758577	keystroke_Key.space	Key.space	n/a
379.379	0.12	758758	keystroke_f	f	n/a
379.514	0.1045	759028	keystroke_a	a	n/a
379.919	0.1945	759838	keystroke_m	m	n/a
380.1285	0.135	760257	keystroke_i	i	n/a
380.339	0.2395	760678	keystroke_l	l	n/a
380.534	0.12	761068	keystroke_y	y	n/a
380.669	0.1045	761338	keystroke_Key.space	Key.space	n/a
380.849	0.075	761698	keystroke_h	h	n/a
381.029	0.105	762058	keystroke_i	i	n/a
381.149	0.09	762298	keystroke_s	s	n/a
381.269	0.09	762538	keystroke_t	t	n/a
381.3735	0.1205	762747	keystroke_o	o	n/a
381.494	0.105	762988	keystroke_r	r	n/a
381.6435	0.1505	763287	keystroke_y	y	n/a
381.734	0.1345	763468	keystroke_Key.space	Key.space	n/a
381.989	0.075	763978	keystroke_m	m	n/a
382.169	0.06	764338	keystroke_u	u	n/a
382.364	0.09	764728	keystroke_m	m	n/a
382.469	0.12	764938	keystroke_b	b	n/a
382.634	0.1195	765268	keystroke_a	a	n/a
382.799	0.105	765598	keystroke_i	i	n/a
383.024	0.0745	766048	keystroke_Key.enter	Key.enter	n/a
383.1025	6.4175	766205	prompt	n/a	miss federal constitute hostel\n
383.699	0.135	767398	keystroke_m	m	n/a
383.864	0.075	767728	keystroke_i	i	n/a
383.954	0.09	767908	keystroke_s	s	n/a
384.134	0.1045	768268	keystroke_s	s	n/a
384.284	0.105	768568	keystroke_Key.space	Key.space	n/a
384.479	0.075	768958	keystroke_d	d	n/a
384.749	0.06	769498	keystroke_e	e	n/a
384.989	0.045	769978	keystroke_Key.backspace	Key.backspace	n/a
385.139	0.045	770278	keystroke_Key.backspace	Key.backspace	n/a
385.199	0.12	770398	keystroke_f	f	n/a
385.3035	0.0905	770607	keystroke_e	e	n/a
385.5585	0.0755	771117	keystroke_d	d	n/a
385.739	0.1195	771478	keystroke_e	e	n/a
385.8435	0.09	771687	keystroke_r	r	n/a
385.9485	0.1055	771897	keystroke_a	a	n/a
386.1585	0.1205	772317	keystroke_l	l	n/a
386.264	0.09	772528	keystroke_Key.space	Key.space	n/a
386.4585	0.1505	772917	keystroke_c	c	n/a
386.564	0.105	773128	keystroke_o	o	n/a
386.654	0.0895	773308	keystroke_n	n	n/a
386.819	0.075	773638	keystroke_s	s	n/a
386.939	0.1345	773878	keystroke_t	t	n/a
387.149	0.105	774298	keystroke_i	i	n/a
387.704	0.105	775408	keystroke_t	t	n/a
387.884	0.0895	775768	keystroke_u	u	n/a
388.034	0.15	776068	keystroke_t	t	n/a
388.139	0.1195	776278	keystroke_e	e	n/a
388.364	0.1345	776728	keystroke_Key.space	Key.space	n/a
388.5585	0.1055	777117	keystroke_h	h	n/a
388.649	0.075	777298	keystroke_o	o	n/a
388.769	0.0745	777538	keystroke_s	s	n/a
388.889	0.12	777778	keystroke_t	t	n/a
389.084	0.135	778168	keystroke_e	e	n/a
389.279	0.045	778558	keystroke_l	l	n/a
389.429	0.09	778858	keystroke_Key.enter	Key.enter	n/a
389.5225	5.322	779045	prompt	n/a	submission brokers launches were\n
390.2235	0.0905	780447	keystroke_s	s	n/a
390.329	0.1045	780658	keystroke_u	u	n/a
390.449	0.0745	780898	keystroke_b	b	n/a
390.584	0.12	781168	keystroke_m	m	n/a
390.6735	0.1055	781347	keystroke_i	i	n/a
390.809	0.105	781618	keystroke_s	s	n/a
390.989	0.135	781978	keystroke_s	s	n/a
391.139	0.24	782278	keystroke_i	i	n/a
391.214	0.15	782428	keystroke_o	o	n/a
391.319	0.12	782638	keystroke_n	n	n/a
391.424	0.1495	782848	keystroke_Key.space	Key.space	n/a
391.589	0.075	783178	keystroke_b	b	n/a
391.784	0.12	783568	keystroke_r	r	n/a
391.919	0.09	783838	keystroke_o	o	n/a
392.129	0.15	784258	keystroke_k	k	n/a
392.294	0.12	784588	keystroke_e	e	n/a
392.399	0.12	784798	keystroke_r	r	n/a
392.579	0.105	785158	keystroke_s	s	n/a
392.699	0.105	785398	keystroke_Key.space	Key.space	n/a
392.819	0.1495	785638	keystroke_l	l	n/a
392.9835	0.09	785967	keystroke_a	a	n/a
393.0735	0.0755	786147	keystroke_u	u	n/a
393.254	0.075	786508	keystroke_n	n	n/a
393.3435	0.1655	786687	keystroke_c	c	n/a
393.4345	0.1045	786869	keystroke_h	h	n/a
393.554	0.135	787108	keystroke_e	e	n/a
393.764	0.105	787528	keystroke_s	s	n/a
393.899	0.105	787798	keystroke_Key.space	Key.space	n/a
394.094	0.09	788188	keystroke_w	w	n/a
394.334	0.06	788668	keystroke_e	e	n/a
394.439	0.1345	788878	keystroke_r	r	n/a
394.5435	0.1055	789087	keystroke_e	e	n/a
394.754	0.0895	789508	keystroke_Key.enter	Key.enter	n/a
394.8475	6.8075	789695	prompt	n/a	consistency tree final design\n
395.5485	0.1055	791097	keystroke_c	c	n/a
395.609	0.1345	791218	keystroke_o	o	n/a
395.699	0.135	791398	keystroke_n	n	n/a
395.849	0.105	791698	keystroke_s	s	n/a
395.969	0.12	791938	keystroke_i	i	n/a
396.0735	0.0905	792147	keystroke_s	s	n/a
396.209	0.1495	792418	keystroke_t	t	n/a
396.3435	0.0905	792687	keystroke_e	e	n/a
396.509	0.105	793018	keystroke_n	n	n/a
396.6585	0.165	793317	keystroke_c	c	n/a
396.8235	0.0755	793647	keystroke_y	y	n/a
396.9435	0.1055	793887	keystroke_Key.space	Key.space	n/a
397.304	0.015	794608	keystroke_t	t	n/a
397.709	0.045	795418	keystroke_Key.backspace	Key.backspace	n/a
398.0535	0.0305	796107	keystroke_Key.backspace	Key.backspace	n/a
398.0985	0.1055	796197	keystroke_t	t	n/a
398.3545	0.1345	796709	keystroke_r	r	n/a
398.7435	0.045	797487	keystroke_Key.backspace	Key.backspace	n/a
398.849	0.075	797698	keystroke_Key.backspace	Key.backspace	n/a
398.969	0.1205	797938	keystroke_Key.space	Key.space	n/a
399.0735	0.0905	798147	keystroke_t	t	n/a
399.329	0.0445	798658	keystroke_r	r	n/a
399.3435	0.0755	798687	keystroke_e	e	n/a
399.494	0.1345	798988	keystroke_e	e	n/a
399.6735	0.1055	799347	keystroke_Key.space	Key.space	n/a
399.794	0.135	799588	keystroke_f	f	n/a
399.929	0.15	799858	keystroke_i	i	n/a
400.064	0.135	800128	keystroke_n	n	n/a
400.214	0.105	800428	keystroke_a	a	n/a
400.364	0.135	800728	keystroke_l	l	n/a
400.439	0.15	800878	keystroke_Key.space	Key.space	n/a
400.5735	0.09	801147	keystroke_d	d	n/a
400.739	0.1045	801478	keystroke_e	e	n/a
400.949	0.1045	801898	keystroke_s	s	n/a
401.099	0.105	802198	keystroke_i	i	n/a
401.189	0.1195	802378	keystroke_g	g	n/a
401.354	0.1045	802708	keystroke_n	n	n/a
401.549	0.105	803098	keystroke_Key.enter	Key.enter	n/a
401.6585	5.7445	803317	prompt	n/a	bracket buyer corporate mailed\n
402.269	0.09	804538	keystroke_b	b	n/a
402.4645	0.1045	804929	keystroke_r	r	n/a
402.614	0.1055	805228	keystroke_a	a	n/a
402.9735	0.0905	805947	keystroke_c	c	n/a
403.139	0.135	806278	keystroke_k	k	n/a
403.304	0.12	806608	keystroke_e	e	n/a
403.3645	0.0745	806729	keystroke_t	t	n/a
403.484	0.12	806968	keystroke_Key.space	Key.space	n/a
403.604	0.12	807208	keystroke_b	b	n/a
403.739	0.06	807478	keystroke_u	u	n/a
403.964	0.09	807928	keystroke_y	y	n/a
404.114	0.12	808228	keystroke_e	e	n/a
404.219	0.091	808438	keystroke_r	r	n/a
404.5035	0.106	809007	keystroke_Key.space	Key.space	n/a
404.954	0.1195	809908	keystroke_c	c	n/a
405.0585	0.0905	810117	keystroke_o	o	n/a
405.194	0.075	810388	keystroke_r	r	n/a
405.3145	0.12	810629	keystroke_p	p	n/a
405.449	0.12	810898	keystroke_o	o	n/a
405.554	0.15	811108	keystroke_r	r	n/a
405.719	0.18	811438	keystroke_a	a	n/a
405.824	0.1345	811648	keystroke_t	t	n/a
405.944	0.06	811888	keystroke_e	e	n/a
406.1385	0.1065	812277	keystroke_Key.space	Key.space	n/a
406.4085	0.135	812817	keystroke_m	m	n/a
406.5585	0.1055	813117	keystroke_a	a	n/a
406.679	0.15	813358	keystroke_i	i	n/a
406.814	0.12	813628	keystroke_l	l	n/a
406.934	0.105	813868	keystroke_e	e	n/a
407.1445	0.1195	814289	keystroke_d	d	n/a
407.2495	0.1225	814499	keystroke_Key.enter	Key.enter	n/a
407.403	5.1875	814806	prompt	n/a	eric cloud happen surprised\n
408.089	0.045	816178	keystroke_c	c	n/a
408.539	0.045	817078	keystroke_Key.backspace	Key.backspace	n/a
408.599	0.09	817198	keystroke_e	e	n/a
408.6735	0.0605	817347	keystroke_r	r	n/a
408.9585	0.1505	817917	keystroke_i	i	n/a
409.049	0.12	818098	keystroke_c	c	n/a
409.154	0.15	818308	keystroke_Key.space	Key.space	n/a
409.349	0.06	818698	keystroke_c	c	n/a
409.394	0.0745	818788	keystroke_l	l	n/a
409.589	0.15	819178	keystroke_o	o	n/a
409.664	0.135	819328	keystroke_u	u	n/a
409.784	0.0595	819568	keystroke_d	d	n/a
409.919	0.075	819838	keystroke_Key.space	Key.space	n/a
410.039	0.1045	820078	keystroke_h	h	n/a
410.1735	0.0905	820347	keystroke_a	a	n/a
410.279	0.06	820558	keystroke_p	p	n/a
410.414	0.135	820828	keystroke_p	p	n/a
410.624	0.0905	821248	keystroke_e	e	n/a
410.7585	0.135	821517	keystroke_n	n	n/a
410.9085	0.135	821817	keystroke_Key.space	Key.space	n/a
411.254	0.1045	822508	keystroke_s	s	n/a
411.3735	0.0755	822747	keystroke_u	u	n/a
411.509	0.075	823018	keystroke_r	r	n/a
411.599	0.12	823198	keystroke_p	p	n/a
411.704	0.1045	823408	keystroke_r	r	n/a
411.8235	0.12	823647	keystroke_i	i	n/a
411.929	0.18	823858	keystroke_s	s	n/a
412.079	0.12	824158	keystroke_e	e	n/a
412.319	0.12	824638	keystroke_d	d	n/a
412.484	0.105	824968	keystroke_Key.enter	Key.enter	n/a
412.594	5.486	825188	prompt	n/a	herein wisdom frost unlikely\n
413.3545	0.0745	826709	keystroke_h	h	n/a
413.594	0.015	827188	keystroke_e	e	n/a
413.624	0.1345	827248	keystroke_r	r	n/a
413.744	0.06	827488	keystroke_e	e	n/a
413.984	0.0745	827968	keystroke_i	i	n/a
414.224	0.105	828448	keystroke_n	n	n/a
414.3435	0.106	828687	keystroke_Key.space	Key.space	n/a
414.6735	0.1655	829347	keystroke_w	w	n/a
414.914	0.105	829828	keystroke_i	i	n/a
415.0635	0.0755	830127	keystroke_s	s	n/a
415.364	0.105	830728	keystroke_d	d	n/a
415.529	0.18	831058	keystroke_o	o	n/a
415.634	0.195	831268	keystroke_m	m	n/a
415.814	0.09	831628	keystroke_Key.space	Key.space	n/a
415.979	0.06	831958	keystroke_f	f	n/a
416.114	0.09	832228	keystroke_r	r	n/a
416.249	0.105	832498	keystroke_o	o	n/a
416.369	0.0745	832738	keystroke_s	s	n/a
416.4435	0.1355	832887	keystroke_t	t	n/a
416.5935	0.075	833187	keystroke_Key.space	Key.space	n/a
416.7435	0.0605	833487	keystroke_u	u	n/a
416.894	0.12	833788	keystroke_n	n	n/a
416.999	0.135	833998	keystroke_l	l	n/a
417.089	0.15	834178	keystroke_i	i	n/a
417.284	0.1355	834568	keystroke_k	k	n/a
417.494	0.09	834988	keystroke_e	e	n/a
417.5695	0.2545	835139	keystroke_l	l	n/a
417.749	0.09	835498	keystroke_y	y	n/a
417.9735	0.1055	835947	keystroke_Key.enter	Key.enter	n/a
418.083	5.097	836166	prompt	n/a	tail king orleans park\n
418.7245	0.1045	837449	keystroke_t	t	n/a
418.874	0.105	837748	keystroke_a	a	n/a
419.024	0.1345	838048	keystroke_i	i	n/a
419.1735	0.1805	838347	keystroke_l	l	n/a
419.279	0.15	838558	keystroke_Key.space	Key.space	n/a
419.4435	0.1055	838887	keystroke_k	k	n/a
419.624	0.1495	839248	keystroke_i	i	n/a
419.699	0.12	839398	keystroke_n	n	n/a
419.834	0.075	839668	keystroke_g	g	n/a
419.924	0.1345	839848	keystroke_Key.space	Key.space	n/a
420.164	0.105	840328	keystroke_o	o	n/a
420.4045	0.104	840809	keystroke_l	l	n/a
420.4935	0.1355	840987	keystroke_e	e	n/a
421.049	0.06	842098	keystroke_Key.backspace	Key.backspace	n/a
421.2135	0.0755	842427	keystroke_Key.backspace	Key.backspace	n/a
421.304	0.075	842608	keystroke_r	r	n/a
421.409	0.12	842818	keystroke_l	l	n/a
421.514	0.105	843028	keystroke_e	e	n/a
421.664	0.1195	843328	keystroke_a	a	n/a
421.799	0.15	843598	keystroke_n	n	n/a
421.934	0.135	843868	keystroke_s	s	n/a
422.054	0.1045	844108	keystroke_Key.space	Key.space	n/a
422.294	0.1345	844588	keystroke_p	p	n/a
422.4135	0.1505	844827	keystroke_a	a	n/a
422.549	0.091	845098	keystroke_r	r	n/a
422.7435	0.1505	845487	keystroke_k	k	n/a
423.074	0.105	846148	keystroke_Key.enter	Key.enter	n/a
423.183	5.5475	846366	prompt	n/a	praise archive robin caribbean\n
423.959	0.075	847918	keystroke_p	p	n/a
424.079	0.075	848158	keystroke_r	r	n/a
424.3335	0.0755	848667	keystroke_a	a	n/a
424.514	0.135	849028	keystroke_i	i	n/a
424.664	0.09	849328	keystroke_s	s	n/a
424.739	0.09	849478	keystroke_e	e	n/a
424.904	0.105	849808	keystroke_Key.space	Key.space	n/a
425.3245	0.0745	850649	keystroke_a	a	n/a
425.429	0.075	850858	keystroke_r	r	n/a
425.6245	0.119	851249	keystroke_c	c	n/a
425.729	0.12	851458	keystroke_h	h	n/a
425.834	0.15	851668	keystroke_i	i	n/a
425.879	0.1195	851758	keystroke_v	v	n/a
426.119	0.09	852238	keystroke_e	e	n/a
426.284	0.12	852568	keystroke_Key.space	Key.space	n/a
426.389	0.09	852778	keystroke_r	r	n/a
426.554	0.105	853108	keystroke_o	o	n/a
426.704	0.075	853408	keystroke_b	b	n/a
426.839	0.15	853678	keystroke_i	i	n/a
426.944	0.135	853888	keystroke_n	n	n/a
427.034	0.135	854068	keystroke_Key.space	Key.space	n/a
427.154	0.1495	854308	keystroke_c	c	n/a
427.4545	0.1195	854909	keystroke_a	a	n/a
427.529	0.09	855058	keystroke_r	r	n/a
427.694	0.105	855388	keystroke_i	i	n/a
427.8735	0.0755	855747	keystroke_b	b	n/a
428.024	0.075	856048	keystroke_b	b	n/a
428.204	0.105	856408	keystroke_e	e	n/a
428.324	0.1345	856648	keystroke_a	a	n/a
428.474	0.06	856948	keystroke_n	n	n/a
428.6235	0.1055	857247	keystroke_Key.enter	Key.enter	n/a
428.733	8.4575	857466	prompt	n/a	regarded appropriations developing tunnel\n
429.4945	0.0895	858989	keystroke_r	r	n/a
429.569	0.105	859138	keystroke_e	e	n/a
429.734	0.09	859468	keystroke_g	g	n/a
429.899	0.12	859798	keystroke_a	a	n/a
429.944	0.12	859888	keystroke_r	r	n/a
430.169	0.09	860338	keystroke_d	d	n/a
430.304	0.105	860608	keystroke_e	e	n/a
430.4845	0.105	860969	keystroke_d	d	n/a
430.604	0.1055	861208	keystroke_Key.space	Key.space	n/a
430.7245	0.0745	861449	keystroke_a	a	n/a
430.8295	0.1045	861659	keystroke_p	p	n/a
430.9795	0.1195	861959	keystroke_p	p	n/a
431.144	0.09	862288	keystroke_r	r	n/a
431.2795	0.1645	862559	keystroke_o	o	n/a
432.014	0.1355	864028	keystroke_p	p	n/a
432.134	0.12	864268	keystroke_r	r	n/a
432.269	0.1355	864538	keystroke_i	i	n/a
432.359	0.195	864718	keystroke_a	a	n/a
432.509	0.09	865018	keystroke_t	t	n/a
432.7645	0.2245	865529	keystroke_i	i	n/a
432.8695	0.1495	865739	keystroke_o	o	n/a
432.944	0.15	865888	keystroke_n	n	n/a
433.079	0.075	866158	keystroke_s	s	n/a
433.184	0.12	866368	keystroke_Key.space	Key.space	n/a
433.379	0.075	866758	keystroke_d	d	n/a
433.499	0.135	866998	keystroke_e	e	n/a
433.649	0.1655	867298	keystroke_v	v	n/a
433.8295	0.1045	867659	keystroke_e	e	n/a
433.949	0.1505	867898	keystroke_l	l	n/a
434.5045	0.0605	869009	keystroke_o	o	n/a
434.5495	0.1795	869099	keystroke_p	p	n/a
434.969	0.105	869938	keystroke_i	i	n/a
435.044	0.165	870088	keystroke_n	n	n/a
435.165	0.0895	870330	keystroke_g	g	n/a
435.2995	0.105	870599	keystroke_Key.space	Key.space	n/a
435.4345	0.075	870869	keystroke_t	t	n/a
435.5245	0.105	871049	keystroke_u	u	n/a
435.7045	0.225	871409	keystroke_n	n	n/a
435.959	0.091	871918	keystroke_e	e	n/a
436.4845	0.045	872969	keystroke_Key.backspace	Key.backspace	n/a
436.6645	0.105	873329	keystroke_n	n	n/a
436.7845	0.0745	873569	keystroke_e	e	n/a
436.874	0.1055	873748	keystroke_l	l	n/a
437.0845	0.1045	874169	keystroke_Key.enter	Key.enter	n/a
437.1945	5.4405	874389	prompt	n/a	gasoline lips islam assure\n
438.029	0.0905	876058	keystroke_g	g	n/a
438.1645	0.135	876329	keystroke_a	a	n/a
438.2855	0.1635	876571	keystroke_s	s	n/a
438.5245	0.075	877049	keystroke_o	o	n/a
438.7045	0.15	877409	keystroke_l	l	n/a
438.8095	0.1645	877619	keystroke_i	i	n/a
438.8995	0.135	877799	keystroke_n	n	n/a
438.9895	0.09	877979	keystroke_e	e	n/a
439.124	0.15	878248	keystroke_Key.space	Key.space	n/a
439.3795	0.075	878759	keystroke_l	l	n/a
439.6795	0.075	879359	keystroke_i	i	n/a
439.844	0.1355	879688	keystroke_p	p	n/a
440.0245	0.075	880049	keystroke_s	s	n/a
440.159	0.1205	880318	keystroke_Key.space	Key.space	n/a
440.4295	0.105	880859	keystroke_i	i	n/a
440.5045	0.09	881009	keystroke_s	s	n/a
440.67	0.104	881340	keystroke_l	l	n/a
440.774	0.1355	881548	keystroke_a	a	n/a
440.9245	0.165	881849	keystroke_m	m	n/a
441.104	0.1355	882208	keystroke_Key.space	Key.space	n/a
441.3145	0.105	882629	keystroke_a	a	n/a
441.4945	0.105	882989	keystroke_s	s	n/a
441.674	0.0755	883348	keystroke_s	s	n/a
441.7645	0.105	883529	keystroke_u	u	n/a
441.9145	0.12	883829	keystroke_r	r	n/a
441.9895	0.12	883979	keystroke_e	e	n/a
442.5295	0.105	885059	keystroke_Key.enter	Key.enter	n/a
442.638	5.1425	885276	prompt	n/a	ringtone teen teams watched\n
443.444	0.015	886888	keystroke_r	r	n/a
443.474	0.0905	886948	keystroke_i	i	n/a
443.6695	0.1045	887339	keystroke_n	n	n/a
443.7295	0.09	887459	keystroke_g	g	n/a
443.9095	0.105	887819	keystroke_t	t	n/a
444.044	0.1055	888088	keystroke_o	o	n/a
444.1195	0.135	888239	keystroke_n	n	n/a
444.2395	0.09	888479	keystroke_e	e	n/a
444.344	0.1355	888688	keystroke_Key.space	Key.space	n/a
444.4945	0.09	888989	keystroke_t	t	n/a
444.644	0.0755	889288	keystroke_e	e	n/a
444.824	0.0905	889648	keystroke_e	e	n/a
444.8995	0.15	889799	keystroke_n	n	n/a
445.0645	0.09	890129	keystroke_Key.space	Key.space	n/a
445.1395	0.1045	890279	keystroke_t	t	n/a
445.3195	0.105	890639	keystroke_e	e	n/a
445.44	0.134	890880	keystroke_a	a	n/a
445.6195	0.135	891239	keystroke_m	m	n/a
445.7095	0.09	891419	keystroke_s	s	n/a
445.844	0.0905	891688	keystroke_Key.space	Key.space	n/a
446.0245	0.045	892049	keystroke_w	w	n/a
446.174	0.0905	892348	keystroke_a	a	n/a
446.2345	0.105	892469	keystroke_t	t	n/a
446.4895	0.075	892979	keystroke_v	v	n/a
446.6095	0.105	893219	keystroke_h	h	n/a
446.9845	0.045	893969	keystroke_Key.backspace	Key.backspace	n/a
447.0895	0.075	894179	keystroke_Key.backspace	Key.backspace	n/a
447.1495	0.135	894299	keystroke_c	c	n/a
447.2695	0.1195	894539	keystroke_h	h	n/a
447.404	0.0455	894808	keystroke_e	e	n/a
447.5395	0.1195	895079	keystroke_d	d	n/a
447.7345	0.045	895469	keystroke_Key.enter	Key.enter	n/a
447.783	7.0175	895566	prompt	n/a	decisions equations pioneer host\n
448.4545	0.075	896909	keystroke_d	d	n/a
448.8145	0.0595	897629	keystroke_e	e	n/a
448.9645	0.15	897929	keystroke_c	c	n/a
449.1295	0.0145	898259	keystroke_i	i	n/a
449.1895	0.09	898379	keystroke_s	s	n/a
449.2645	0.225	898529	keystroke_i	i	n/a
449.4295	0.12	898859	keystroke_o	o	n/a
449.5345	0.12	899069	keystroke_n	n	n/a
449.6395	0.09	899279	keystroke_s	s	n/a
449.774	0.1055	899548	keystroke_Key.space	Key.space	n/a
449.9845	0.0745	899969	keystroke_e	e	n/a
450.1045	0.105	900209	keystroke_q	q	n/a
450.2545	0.075	900509	keystroke_u	u	n/a
450.359	0.1505	900718	keystroke_a	a	n/a
450.5245	0.105	901049	keystroke_t	t	n/a
450.644	0.1955	901288	keystroke_i	i	n/a
450.7195	0.135	901439	keystroke_o	o	n/a
450.7945	0.135	901589	keystroke_n	n	n/a
450.9145	0.09	901829	keystroke_s	s	n/a
451.0495	0.135	902099	keystroke_Key.space	Key.space	n/a
451.6945	0.1795	903389	keystroke_i	i	n/a
451.859	0.1505	903718	keystroke_o	o	n/a
452.2045	0.0445	904409	keystroke_Key.backspace	Key.backspace	n/a
452.3245	0.045	904649	keystroke_Key.backspace	Key.backspace	n/a
452.504	0.1205	905008	keystroke_p	p	n/a
452.6695	0.18	905339	keystroke_i	i	n/a
452.8345	0.2095	905669	keystroke_o	o	n/a
453.0295	0.15	906059	keystroke_n	n	n/a
453.3145	0.075	906629	keystroke_e	e	n/a
453.4645	0.09	906929	keystroke_e	e	n/a
453.5395	0.1195	907079	keystroke_r	r	n/a
453.7345	0.135	907469	keystroke_Key.space	Key.space	n/a
454.1245	0.1195	908249	keystroke_h	h	n/a
454.23	0.1045	908460	keystroke_o	o	n/a
454.3495	0.09	908699	keystroke_s	s	n/a
454.424	0.106	908848	keystroke_t	t	n/a
454.6645	0.135	909329	keystroke_Key.enter	Key.enter	n/a
454.8035	5.322	909607	prompt	n/a	reid promoted postal parish\n
455.504	0.0605	911008	keystroke_r	r	n/a
455.9395	0.075	911879	keystroke_e	e	n/a
456.1195	0.165	912239	keystroke_i	i	n/a
456.2545	0.045	912509	keystroke_d	d	n/a
456.344	0.121	912688	keystroke_Key.space	Key.space	n/a
456.4945	0.12	912989	keystroke_p	p	n/a
456.629	0.1055	913258	keystroke_r	r	n/a
456.7195	0.105	913439	keystroke_o	o	n/a
456.8395	0.18	913679	keystroke_m	m	n/a
456.9295	0.1365	913859	keystroke_o	o	n/a
457.2295	0.09	914459	keystroke_t	t	n/a
457.4395	0.0755	914879	keystroke_e	e	n/a
457.619	0.1055	915238	keystroke_d	d	n/a
457.7695	0.105	915539	keystroke_Key.space	Key.space	n/a
458.0395	0.1045	916079	keystroke_p	p	n/a
458.2195	0.075	916439	keystroke_o	o	n/a
458.3095	0.075	916619	keystroke_s	s	n/a
458.459	0.0755	916918	keystroke_t	t	n/a
458.759	0.135	917518	keystroke_a	a	n/a
458.909	0.09	917818	keystroke_l	l	n/a
458.9845	0.0895	917969	keystroke_Key.space	Key.space	n/a
459.1795	0.105	918359	keystroke_p	p	n/a
459.3	0.1045	918600	keystroke_a	a	n/a
459.4195	0.105	918839	keystroke_r	r	n/a
459.5995	0.0745	919199	keystroke_i	i	n/a
459.7195	0.12	919439	keystroke_s	s	n/a
459.8245	0.105	919649	keystroke_h	h	n/a
460.0495	0.0745	920099	keystroke_Key.enter	Key.enter	n/a
460.1285	6.5825	920257	prompt	n/a	replacing economy foster richards\n
460.859	0.0905	921718	keystroke_r	r	n/a
461.2645	0.1205	922529	keystroke_e	e	n/a
461.459	0.1355	922918	keystroke_p	p	n/a
461.669	0.1505	923338	keystroke_l	l	n/a
461.8945	0.1495	923789	keystroke_a	a	n/a
462.074	0.1505	924148	keystroke_c	c	n/a
462.3295	0.12	924659	keystroke_i	i	n/a
462.374	0.1655	924748	keystroke_n	n	n/a
462.4945	0.09	924989	keystroke_g	g	n/a
462.6895	0.075	925379	keystroke_Key.space	Key.space	n/a
462.9145	0.075	925829	keystroke_e	e	n/a
463.0945	0.12	926189	keystroke_c	c	n/a
463.1695	0.0895	926339	keystroke_o	o	n/a
463.3345	0.12	926669	keystroke_n	n	n/a
463.4095	0.18	926819	keystroke_o	o	n/a
463.6645	0.1055	927329	keystroke_m	m	n/a
464.0395	0.1345	928079	keystroke_y	y	n/a
464.1895	0.105	928379	keystroke_Key.space	Key.space	n/a
464.4895	0.075	928979	keystroke_f	f	n/a
464.6095	0.105	929219	keystroke_o	o	n/a
464.7295	0.0755	929459	keystroke_s	s	n/a
464.8345	0.09	929669	keystroke_t	t	n/a
465.044	0.1505	930088	keystroke_e	e	n/a
465.1645	0.105	930329	keystroke_r	r	n/a
465.285	0.1345	930570	keystroke_Key.space	Key.space	n/a
465.3895	0.09	930779	keystroke_r	r	n/a
465.4945	0.135	930989	keystroke_i	i	n/a
465.6145	0.135	931229	keystroke_c	c	n/a
465.7345	0.09	931469	keystroke_h	h	n/a
465.8395	0.1045	931679	keystroke_a	a	n/a
465.9145	0.105	931829	keystroke_r	r	n/a
466.155	0.2095	932310	keystroke_d	d	n/a
466.3195	0.12	932639	keystroke_s	s	n/a
466.604	0.1055	933208	keystroke_Key.enter	Key.enter	n/a
466.716	6.894	933432	prompt	n/a	gorgeous gently winners aerial\n
467.4295	0.0605	934859	keystroke_g	g	n/a
467.5345	0.0895	935069	keystroke_o	o	n/a
467.64	0.1045	935280	keystroke_r	r	n/a
467.8495	0.075	935699	keystroke_g	g	n/a
468.0295	0.105	936059	keystroke_e	e	n/a
468.21	0.1195	936420	keystroke_o	o	n/a
468.3145	0.09	936629	keystroke_u	u	n/a
468.4495	0.105	936899	keystroke_s	s	n/a
468.57	0.1345	937140	keystroke_Key.space	Key.space	n/a
468.7795	0.1055	937559	keystroke_g	g	n/a
468.9445	0.12	937889	keystroke_e	e	n/a
469.05	0.1195	938100	keystroke_n	n	n/a
469.29	0.1045	938580	keystroke_t	t	n/a
469.4695	0.256	938939	keystroke_l	l	n/a
469.5895	0.12	939179	keystroke_y	y	n/a
469.7395	0.09	939479	keystroke_Key.space	Key.space	n/a
470.3245	0.075	940649	keystroke_w	w	n/a
470.3695	0.1055	940739	keystroke_i	i	n/a
470.5645	0.075	941129	keystroke_n	n	n/a
470.6995	0.105	941399	keystroke_n	n	n/a
470.7895	0.195	941579	keystroke_e	e	n/a
470.8795	0.15	941759	keystroke_r	r	n/a
471.104	0.1505	942208	keystroke_s	s	n/a
471.2995	0.15	942599	keystroke_Key.space	Key.space	n/a
471.5845	0.075	943169	keystroke_a	a	n/a
471.8105	0.1335	943621	keystroke_e	e	n/a
472.0645	0.0745	944129	keystroke_r	r	n/a
472.334	0.076	944668	keystroke_i	i	n/a
472.544	0.0905	945088	keystroke_e	e	n/a
473.0845	0.0595	946169	keystroke_Key.backspace	Key.backspace	n/a
473.159	0.1055	946318	keystroke_a	a	n/a
473.2945	0.135	946589	keystroke_l	l	n/a
473.5045	0.1045	947009	keystroke_Key.enter	Key.enter	n/a
473.613	13.0025	947226	prompt	n/a	universal receives shock restricted\n
474.269	0.0605	948538	keystroke_u	u	n/a
474.4345	0.135	948869	keystroke_n	n	n/a
474.5395	0.1195	949079	keystroke_i	i	n/a
474.674	0.1055	949348	keystroke_v	v	n/a
474.8545	0.135	949709	keystroke_e	e	n/a
474.944	0.1055	949888	keystroke_r	r	n/a
475.1095	0.255	950219	keystroke_s	s	n/a
475.3795	0.075	950759	keystroke_a	a	n/a
475.589	0.0905	951178	keystroke_a	a	n/a
476.0245	0.075	952049	keystroke_Key.backspace	Key.backspace	n/a
476.2495	0.15	952499	keystroke_l	l	n/a
476.3545	0.195	952709	keystroke_Key.space	Key.space	n/a
476.5945	0.1355	953189	keystroke_r	r	n/a
476.6845	0.0895	953369	keystroke_e	e	n/a
476.8795	0.09	953759	keystroke_c	c	n/a
477.0445	0.12	954089	keystroke_i	i	n/a
477.1195	0.12	954239	keystroke_e	e	n/a
477.3145	0.12	954629	keystroke_v	v	n/a
477.4195	0.15	954839	keystroke_e	e	n/a
477.674	0.0905	955348	keystroke_s	s	n/a
477.8695	0.12	955739	keystroke_Key.space	Key.space	n/a
478.2295	0.12	956459	keystroke_s	s	n/a
478.3345	0.135	956669	keystroke_h	h	n/a
478.4545	0.1195	956909	keystroke_o	o	n/a
478.6795	0.12	957359	keystroke_c	c	n/a
478.9045	0.135	957809	keystroke_k	k	n/a
480.3	0.0595	960600	keystroke_Key.backspace	Key.backspace	n/a
480.42	0.075	960840	keystroke_Key.backspace	Key.backspace	n/a
480.615	0.0445	961230	keystroke_Key.backspace	Key.backspace	n/a
480.84	0.075	961680	keystroke_Key.backspace	Key.backspace	n/a
481.08	0.015	962160	keystroke_Key.backspace	Key.backspace	n/a
481.32	0.045	962640	keystroke_Key.backspace	Key.backspace	n/a
482.2945	0.045	964589	keystroke_Key.backspace	Key.backspace	n/a
482.49	0.0455	964980	keystroke_Key.backspace	Key.backspace	n/a
482.6395	0.0455	965279	keystroke_Key.backspace	Key.backspace	n/a
482.8045	0.0905	965609	keystroke_Key.backspace	Key.backspace	n/a
482.97	0.0745	965940	keystroke_Key.backspace	Key.backspace	n/a
483.0745	0.0605	966149	keystroke_e	e	n/a
483.165	0.0595	966330	keystroke_i	i	n/a
483.57	0.0745	967140	keystroke_v	v	n/a
483.72	0.0745	967440	keystroke_e	e	n/a
483.8995	0.09	967799	keystroke_s	s	n/a
484.0195	0.105	968039	keystroke_Key.space	Key.space	n/a
484.1395	0.1195	968279	keystroke_s	s	n/a
484.274	0.1055	968548	keystroke_h	h	n/a
484.3495	0.12	968699	keystroke_o	o	n/a
484.544	0.1355	969088	keystroke_c	c	n/a
484.6945	0.12	969389	keystroke_k	k	n/a
