onset	duration	sample	value	key	prompt_text
14.5115	5.973	29023	prompt	n/a	the quick brown fox jumps over a lazy dog\n
15.5615	0.014	31123	keystroke_t	t	n/a
15.59	0.076	31180	keystroke_h	h	n/a
15.681	0.0745	31362	keystroke_e	e	n/a
15.7705	0.09	31541	keystroke_Key.space	Key.space	n/a
15.8755	0.075	31751	keystroke_q	q	n/a
15.9805	0.105	31961	keystroke_u	u	n/a
16.0555	0.09	32111	keystroke_i	i	n/a
16.1755	0.075	32351	keystroke_c	c	n/a
16.2655	0.0745	32531	keystroke_k	k	n/a
16.37	0.0755	32740	keystroke_Key.space	Key.space	n/a
16.5205	0.0745	33041	keystroke_b	b	n/a
16.625	0.0765	33250	keystroke_r	r	n/a
16.716	0.075	33432	keystroke_o	o	n/a
16.8205	0.09	33641	keystroke_w	w	n/a
16.926	0.0745	33852	keystroke_n	n	n/a
17.0455	0.0895	34091	keystroke_Key.space	Key.space	n/a
17.3605	0.06	34721	keystroke_f	f	n/a
17.406	0.075	34812	keystroke_o	o	n/a
17.5555	0.075	35111	keystroke_x	x	n/a
17.6005	0.075	35201	keystroke_Key.space	Key.space	n/a
17.72	0.0755	35440	keystroke_j	j	n/a
17.871	0.0595	35742	keystroke_u	u	n/a
18.0805	0.045	36161	keystroke_m	m	n/a
18.2755	0.06	36551	keystroke_p	p	n/a
18.3805	0.0745	36761	keystroke_s	s	n/a
18.5	0.0755	37000	keystroke_Key.space	Key.space	n/a
18.635	0.0605	37270	keystroke_o	o	n/a
18.6805	0.075	37361	keystroke_v	v	n/a
18.8605	0.074	37721	keystroke_e	e	n/a
18.9505	0.09	37901	keystroke_r	r	n/a
19.0405	0.075	38081	keystroke_Key.space	Key.space	n/a
19.1305	0.0895	38261	keystroke_a	a	n/a
19.2045	0.061	38409	keystroke_Key.space	Key.space	n/a
19.3405	0.075	38681	keystroke_l	l	n/a
19.3855	0.06	38771	keystroke_a	a	n/a
19.5655	0.0755	39131	keystroke_z	z	n/a
19.6255	0.06	39251	keystroke_y	y	n/a
19.7455	0.0745	39491	keystroke_Key.space	Key.space	n/a
19.8355	0.06	39671	keystroke_d	d	n/a
19.9255	0.06	39851	keystroke_o	o	n/a
20.1055	0.0605	40211	keystroke_g	g	n/a
20.405	0.0755	40810	keystroke_Key.enter	Key.enter	n/a
20.4905	4.717	40981	prompt	n/a	overhead tutorials northern counters\n
21.0955	0.0455	42191	keystroke_o	o	n/a
21.1555	0.075	42311	keystroke_v	v	n/a
21.3055	0.075	42611	keystroke_e	e	n/a
21.411	0.089	42822	keystroke_r	r	n/a
21.516	0.059	43032	keystroke_h	h	n/a
21.576	0.105	43152	keystroke_e	e	n/a
21.7405	0.135	43481	keystroke_a	a	n/a
21.8455	0.09	43691	keystroke_d	d	n/a
21.936	0.0895	43872	keystroke_Key.space	Key.space	n/a
22.116	0.0595	44232	keystroke_t	t	n/a
22.1905	0.0605	44381	keystroke_u	u	n/a
22.2955	0.075	44591	keystroke_t	t	n/a
22.3855	0.075	44771	keystroke_o	o	n/a
22.4905	0.075	44981	keystroke_r	r	n/a
22.581	0.0595	45162	keystroke_i	i	n/a
22.6855	0.074	45371	keystroke_a	a	n/a
22.7755	0.075	45551	keystroke_l	l	n/a
22.865	0.0755	45730	keystroke_s	s	n/a
22.9405	0.06	45881	keystroke_Key.space	Key.space	n/a
23.0755	0.0455	46151	keystroke_n	n	n/a
23.2105	0.075	46421	keystroke_o	o	n/a
23.27	0.0605	46540	keystroke_r	r	n/a
23.4055	0.0755	46811	keystroke_t	t	n/a
23.481	0.059	46962	keystroke_h	h	n/a
23.5705	0.0905	47141	keystroke_e	e	n/a
23.6455	0.09	47291	keystroke_r	r	n/a
23.7505	0.06	47501	keystroke_n	n	n/a
23.8405	0.075	47681	keystroke_Key.space	Key.space	n/a
23.9755	0.105	47951	keystroke_c	c	n/a
24.0355	0.06	48071	keystroke_o	o	n/a
24.201	0.0445	48402	keystroke_u	u	n/a
24.3655	0.0455	48731	keystroke_n	n	n/a
24.38	0.0605	48760	keystroke_t	t	n/a
24.5455	0.0745	49091	keystroke_e	e	n/a
24.6055	0.12	49211	keystroke_r	r	n/a
24.831	0.059	49662	keystroke_s	s	n/a
25.1305	0.075	50261	keystroke_Key.enter	Key.enter	n/a
25.211	6.626	50422	prompt	n/a	sarah targets alexandria instruction\n
25.775	0.1055	51550	keystroke_s	s	n/a
26	0.0605	52000	keystroke_r	r	n/a
26.1655	0.045	52331	keystroke_a	a	n/a
26.45	0.0455	52900	keystroke_Key.backspace	Key.backspace	n/a
26.5855	0.0595	53171	keystroke_Key.backspace	Key.backspace	n/a
26.661	0.0895	53322	keystroke_a	a	n/a
26.7955	0.075	53591	keystroke_r	r	n/a
26.9155	0.075	53831	keystroke_a	a	n/a
27.0355	0.06	54071	keystroke_h	h	n/a
27.1705	0.075	54341	keystroke_Key.space	Key.space	n/a
27.3205	0.09	54641	keystroke_t	t	n/a
27.4705	0.105	54941	keystroke_a	a	n/a
27.5905	0.0755	55181	keystroke_r	r	n/a
27.6955	0.075	55391	keystroke_g	g	n/a
27.7855	0.075	55571	keystroke_e	e	n/a
27.906	0.0595	55812	keystroke_t	t	n/a
28.01	0.091	56020	keystroke_s	s	n/a
28.101	0.0595	56202	keystroke_Key.space	Key.space	n/a
28.2355	0.09	56471	keystroke_a	a	n/a
28.3105	0.0755	56621	keystroke_l	l	n/a
28.445	0.076	56890	keystroke_e	e	n/a
28.9705	0.105	57941	keystroke_x	x	n/a
29.2105	0.075	58421	keystroke_a	a	n/a
29.3005	0.06	58601	keystroke_n	n	n/a
29.4205	0.09	58841	keystroke_d	d	n/a
29.6305	0.06	59261	keystroke_r	r	n/a
29.7055	0.09	59411	keystroke_i	i	n/a
29.8105	0.09	59621	keystroke_a	a	n/a
29.8705	0.075	59741	keystroke_Key.space	Key.space	n/a
29.991	0.074	59982	keystroke_i	i	n/a
30.155	0.075	60310	keystroke_n	n	n/a
30.2	0.09	60400	keystroke_s	s	n/a
30.3805	0.06	60761	keystroke_t	t	n/a
30.5605	0.045	61121	keystroke_r	r	n/a
30.6205	0.06	61241	keystroke_u	u	n/a
30.8005	0.06	61601	keystroke_c	c	n/a
31.0405	0.06	62081	keystroke_t	t	n/a
31.1155	0.075	62231	keystroke_i	i	n/a
31.1455	0.075	62291	keystroke_o	o	n/a
31.3705	0.06	62741	keystroke_n	n	n/a
31.775	0.0595	63550	keystroke_Key.enter	Key.enter	n/a
31.841	6.5075	63682	prompt	n/a	dimensional brunswick terrorists lexmark\n
32.405	0.09	64810	keystroke_d	d	n/a
32.51	0.031	65020	keystroke_i	i	n/a
32.6605	0.06	65321	keystroke_m	m	n/a
32.7355	0.0605	65471	keystroke_e	e	n/a
32.8105	0.075	65621	keystroke_n	n	n/a
32.9305	0.075	65861	keystroke_s	s	n/a
33.0205	0.105	66041	keystroke_i	i	n/a
33.1105	0.045	66221	keystroke_o	o	n/a
33.2755	0.075	66551	keystroke_n	n	n/a
33.381	0.1045	66762	keystroke_a	a	n/a
33.47	0.0605	66940	keystroke_l	l	n/a
33.575	0.0755	67150	keystroke_Key.space	Key.space	n/a
33.7255	0.06	67451	keystroke_b	b	n/a
33.7705	0.105	67541	keystroke_r	r	n/a
33.8905	0.045	67781	keystroke_u	u	n/a
34.0555	0.06	68111	keystroke_n	n	n/a
34.1305	0.0605	68261	keystroke_s	s	n/a
34.3405	0.045	68681	keystroke_w	w	n/a
34.4005	0.045	68801	keystroke_i	i	n/a
34.5355	0.0755	69071	keystroke_c	c	n/a
34.581	0.09	69162	keystroke_k	k	n/a
34.7005	0.075	69401	keystroke_Key.space	Key.space	n/a
34.88	0.0755	69760	keystroke_t	t	n/a
35.0455	0.06	70091	keystroke_e	e	n/a
35.1355	0.105	70271	keystroke_r	r	n/a
35.3155	0.075	70631	keystroke_r	r	n/a
35.4055	0.06	70811	keystroke_o	o	n/a
35.5405	0.075	71081	keystroke_r	r	n/a
35.6905	0.06	71381	keystroke_i	i	n/a
36.0505	0.09	72101	keystroke_s	s	n/a
36.26	0.075	72520	keystroke_t	t	n/a
36.455	0.06	72910	keystroke_s	s	n/a
36.8155	0.075	73631	keystroke_Key.space	Key.space	n/a
37.341	0.075	74682	keystroke_l	l	n/a
37.386	0.075	74772	keystroke_e	e	n/a
37.611	0.06	75222	keystroke_x	x	n/a
37.671	0.075	75342	keystroke_m	m	n/a
37.776	0.09	75552	keystroke_a	a	n/a
37.986	0.059	75972	keystroke_r	r	n/a
38.0465	0.0745	76093	keystroke_k	k	n/a
38.3005	0.0455	76601	keystroke_Key.enter	Key.enter	n/a
38.3525	4.586	76705	prompt	n/a	part alternative studied answering\n
38.946	0.045	77892	keystroke_p	p	n/a
39.006	0.1045	78012	keystroke_a	a	n/a
39.1255	0.0755	78251	keystroke_r	r	n/a
39.306	0.06	78612	keystroke_t	t	n/a
39.3805	0.0745	78761	keystroke_Key.space	Key.space	n/a
39.485	0.091	78970	keystroke_a	a	n/a
39.561	0.059	79122	keystroke_l	l	n/a
39.681	0.06	79362	keystroke_t	t	n/a
39.816	0.075	79632	keystroke_e	e	n/a
39.876	0.105	79752	keystroke_r	r	n/a
39.995	0.046	79990	keystroke_n	n	n/a
40.071	0.074	80142	keystroke_a	a	n/a
40.221	0.075	80442	keystroke_t	t	n/a
40.311	0.06	80622	keystroke_i	i	n/a
40.43	0.075	80860	keystroke_v	v	n/a
40.5955	0.06	81191	keystroke_e	e	n/a
40.6705	0.0745	81341	keystroke_Key.space	Key.space	n/a
40.7755	0.0595	81551	keystroke_s	s	n/a
40.926	0.06	81852	keystroke_t	t	n/a
41.001	0.06	82002	keystroke_u	u	n/a
41.121	0.074	82242	keystroke_d	d	n/a
41.211	0.044	82422	keystroke_i	i	n/a
41.315	0.061	82630	keystroke_e	e	n/a
41.511	0.0445	83022	keystroke_d	d	n/a
41.556	0.074	83112	keystroke_Key.space	Key.space	n/a
41.645	0.09	83290	keystroke_a	a	n/a
41.751	0.0595	83502	keystroke_n	n	n/a
41.8405	0.09	83681	keystroke_s	s	n/a
42.0505	0.135	84101	keystroke_w	w	n/a
42.1255	0.15	84251	keystroke_e	e	n/a
42.2305	0.12	84461	keystroke_r	r	n/a
42.366	0.0445	84732	keystroke_i	i	n/a
42.531	0.0595	85062	keystroke_n	n	n/a
42.6055	0.0905	85211	keystroke_g	g	n/a
42.8755	0.06	85751	keystroke_Key.enter	Key.enter	n/a
42.9435	7.914	85887	prompt	n/a	mobility metropolitan yeast computational\n
43.596	0.075	87192	keystroke_m	m	n/a
43.761	0.059	87522	keystroke_o	o	n/a
43.851	0.074	87702	keystroke_b	b	n/a
43.956	0.0445	87912	keystroke_i	i	n/a
44.135	0.06	88270	keystroke_l	l	n/a
44.301	0.044	88602	keystroke_i	i	n/a
44.375	0.076	88750	keystroke_t	t	n/a
44.6155	0.0745	89231	keystroke_y	y	n/a
44.871	0.119	89742	keystroke_Key.space	Key.space	n/a
45.231	0.059	90462	keystroke_m	m	n/a
45.275	0.09	90550	keystroke_e	e	n/a
45.455	0.09	90910	keystroke_t	t	n/a
45.62	0.076	91240	keystroke_r	r	n/a
45.6655	0.1195	91331	keystroke_o	o	n/a
45.8	0.0905	91600	keystroke_p	p	n/a
45.9655	0.075	91931	keystroke_o	o	n/a
46.16	0.0605	92320	keystroke_l	l	n/a
46.6105	0.06	93221	keystroke_i	i	n/a
46.761	0.1045	93522	keystroke_t	t	n/a
47.0455	0.075	94091	keystroke_a	a	n/a
47.1655	0.06	94331	keystroke_n	n	n/a
47.3155	0.075	94631	keystroke_Key.space	Key.space	n/a
47.5255	0.06	95051	keystroke_y	y	n/a
47.5705	0.076	95141	keystroke_e	e	n/a
47.6905	0.135	95381	keystroke_a	a	n/a
47.7955	0.09	95591	keystroke_s	s	n/a
47.8555	0.075	95711	keystroke_t	t	n/a
48.0055	0.06	96011	keystroke_Key.space	Key.space	n/a
48.1855	0.06	96371	keystroke_c	c	n/a
48.2305	0.045	96461	keystroke_o	o	n/a
48.3955	0.06	96791	keystroke_m	m	n/a
48.5755	0.03	97151	keystroke_p	p	n/a
48.7105	0.075	97421	keystroke_u	u	n/a
48.771	0.0895	97542	keystroke_t	t	n/a
49.4755	0.09	98951	keystroke_a	a	n/a
49.716	0.0745	99432	keystroke_t	t	n/a
49.8055	0.1205	99611	keystroke_i	i	n/a
49.881	0.075	99762	keystroke_o	o	n/a
50.136	0.06	100272	keystroke_n	n	n/a
50.255	0.075	100510	keystroke_a	a	n/a
50.391	0.0595	100782	keystroke_l	l	n/a
50.7955	0.06	101591	keystroke_Key.enter	Key.enter	n/a
50.8625	4.6595	101725	prompt	n/a	smilies display left terrorism\n
51.4405	0.075	102881	keystroke_s	s	n/a
51.5005	0.075	103001	keystroke_m	m	n/a
51.6955	0.045	103391	keystroke_i	i	n/a
51.8905	0.075	103781	keystroke_l	l	n/a
52.1155	0.06	104231	keystroke_i	i	n/a
52.2355	0.105	104471	keystroke_e	e	n/a
52.4455	0.09	104891	keystroke_s	s	n/a
52.5505	0.075	105101	keystroke_Key.space	Key.space	n/a
52.6705	0.075	105341	keystroke_d	d	n/a
52.7755	0.045	105551	keystroke_i	i	n/a
52.8655	0.09	105731	keystroke_s	s	n/a
52.9705	0.045	105941	keystroke_p	p	n/a
53.0755	0.09	106151	keystroke_l	l	n/a
53.2105	0.09	106421	keystroke_a	a	n/a
53.3305	0.06	106661	keystroke_y	y	n/a
53.451	0.0745	106902	keystroke_Key.space	Key.space	n/a
53.6155	0.06	107231	keystroke_l	l	n/a
53.661	0.0745	107322	keystroke_e	e	n/a
53.8405	0.06	107681	keystroke_f	f	n/a
53.9905	0.0745	107981	keystroke_t	t	n/a
54.08	0.075	108160	keystroke_Key.space	Key.space	n/a
54.17	0.06	108340	keystroke_t	t	n/a
54.305	0.0755	108610	keystroke_e	e	n/a
54.44	0.0755	108880	keystroke_r	r	n/a
54.606	0.06	109212	keystroke_r	r	n/a
54.6805	0.0755	109361	keystroke_o	o	n/a
54.845	0.061	109690	keystroke_r	r	n/a
54.9805	0.0745	109961	keystroke_i	i	n/a
55.146	0.09	110292	keystroke_s	s	n/a
55.25	0.061	110500	keystroke_m	m	n/a
55.4755	0.045	110951	keystroke_Key.enter	Key.enter	n/a
55.529	3.608	111058	prompt	n/a	oldest wash canyon think\n
56.0905	0.045	112181	keystroke_o	o	n/a
56.2555	0.06	112511	keystroke_l	l	n/a
56.271	0.0595	112542	keystroke_d	d	n/a
56.4055	0.075	112811	keystroke_e	e	n/a
56.5555	0.09	113111	keystroke_s	s	n/a
56.7055	0.0745	113411	keystroke_t	t	n/a
56.765	0.0755	113530	keystroke_Key.space	Key.space	n/a
56.8705	0.075	113741	keystroke_w	w	n/a
57.021	0.1195	114042	keystroke_a	a	n/a
57.0805	0.09	114161	keystroke_s	s	n/a
57.1555	0.06	114311	keystroke_h	h	n/a
57.2755	0.09	114551	keystroke_Key.space	Key.space	n/a
57.4555	0.06	114911	keystroke_c	c	n/a
57.5755	0.075	115151	keystroke_a	a	n/a
57.6515	0.059	115303	keystroke_n	n	n/a
57.8455	0.06	115691	keystroke_y	y	n/a
57.8905	0.0605	115781	keystroke_o	o	n/a
58.071	0.0595	116142	keystroke_n	n	n/a
58.1605	0.075	116321	keystroke_Key.space	Key.space	n/a
58.2365	0.0745	116473	keystroke_t	t	n/a
58.341	0.0595	116682	keystroke_h	h	n/a
58.4755	0.045	116951	keystroke_i	i	n/a
58.6255	0.06	117251	keystroke_n	n	n/a
58.7755	0.06	117551	keystroke_k	k	n/a
59.0905	0.045	118181	keystroke_Key.enter	Key.enter	n/a
59.1405	5.127	118281	prompt	n/a	researchers reason glasses powder\n
59.8405	0.0905	119681	keystroke_r	r	n/a
59.96	0.09	119920	keystroke_e	e	n/a
60.155	0.0455	120310	keystroke_s	s	n/a
60.3205	0.0595	120641	keystroke_e	e	n/a
60.471	0.074	120942	keystroke_a	a	n/a
60.546	0.1045	121092	keystroke_r	r	n/a
60.8005	0.0755	121601	keystroke_c	c	n/a
60.8905	0.075	121781	keystroke_h	h	n/a
61.0105	0.06	122021	keystroke_e	e	n/a
61.1005	0.1055	122201	keystroke_r	r	n/a
61.2505	0.075	122501	keystroke_s	s	n/a
61.3405	0.09	122681	keystroke_Key.space	Key.space	n/a
61.46	0.09	122920	keystroke_r	r	n/a
61.5955	0.09	123191	keystroke_e	e	n/a
61.745	0.1055	123490	keystroke_a	a	n/a
61.7905	0.105	123581	keystroke_s	s	n/a
61.9105	0.06	123821	keystroke_o	o	n/a
62.091	0.075	124182	keystroke_n	n	n/a
62.211	0.0745	124422	keystroke_Key.space	Key.space	n/a
62.346	0.044	124692	keystroke_g	g	n/a
62.421	0.06	124842	keystroke_l	l	n/a
62.51	0.121	125020	keystroke_a	a	n/a
62.616	0.0895	125232	keystroke_s	s	n/a
62.7955	0.0755	125591	keystroke_s	s	n/a
62.931	0.075	125862	keystroke_e	e	n/a
63.126	0.074	126252	keystroke_s	s	n/a
63.215	0.075	126430	keystroke_Key.space	Key.space	n/a
63.381	0.0595	126762	keystroke_p	p	n/a
63.5305	0.075	127061	keystroke_o	o	n/a
63.576	0.06	127152	keystroke_w	w	n/a
63.7255	0.105	127451	keystroke_d	d	n/a
63.8905	0.09	127781	keystroke_e	e	n/a
63.9955	0.09	127991	keystroke_r	r	n/a
64.2205	0.045	128441	keystroke_Key.enter	Key.enter	n/a
64.2715	5.081	128543	prompt	n/a	oecd childrens altered makes\n
64.821	0.045	129642	keystroke_o	o	n/a
65.0605	0.06	130121	keystroke_e	e	n/a
65.3005	0.045	130601	keystroke_c	c	n/a
65.6155	0.075	131231	keystroke_d	d	n/a
65.8255	0.0755	131651	keystroke_Key.space	Key.space	n/a
66.0205	0.06	132041	keystroke_c	c	n/a
66.1105	0.0605	132221	keystroke_h	h	n/a
66.29	0.0455	132580	keystroke_i	i	n/a
66.441	0.075	132882	keystroke_l	l	n/a
66.486	0.0745	132972	keystroke_d	d	n/a
66.651	0.075	133302	keystroke_r	r	n/a
66.755	0.1205	133510	keystroke_e	e	n/a
66.906	0.0595	133812	keystroke_n	n	n/a
67.16	0.0905	134320	keystroke_s	s	n/a
67.2955	0.0895	134591	keystroke_Key.space	Key.space	n/a
67.476	0.105	134952	keystroke_a	a	n/a
67.581	0.06	135162	keystroke_l	l	n/a
67.685	0.061	135370	keystroke_t	t	n/a
67.8055	0.12	135611	keystroke_e	e	n/a
67.9105	0.1355	135821	keystroke_r	r	n/a
68.0305	0.1495	136061	keystroke_e	e	n/a
68.2405	0.135	136481	keystroke_d	d	n/a
68.3905	0.045	136781	keystroke_Key.space	Key.space	n/a
68.5555	0.0755	137111	keystroke_m	m	n/a
68.6155	0.09	137231	keystroke_a	a	n/a
68.736	0.06	137472	keystroke_k	k	n/a
68.781	0.075	137562	keystroke_e	e	n/a
69.006	0.0595	138012	keystroke_s	s	n/a
69.3205	0.03	138641	keystroke_Key.enter	Key.enter	n/a
69.3555	4.812	138711	prompt	n/a	types shan't washer sans\n
69.9205	0.0895	139841	keystroke_t	t	n/a
70.1	0.0755	140200	keystroke_y	y	n/a
70.1905	0.0445	140381	keystroke_p	p	n/a
70.2805	0.075	140561	keystroke_e	e	n/a
70.4755	0.0745	140951	keystroke_s	s	n/a
70.535	0.075	141070	keystroke_Key.space	Key.space	n/a
70.6405	0.0605	141281	keystroke_s	s	n/a
70.7155	0.045	141431	keystroke_h	h	n/a
70.8055	0.075	141611	keystroke_a	a	n/a
70.8955	0.0595	141791	keystroke_n	n	n/a
71.105	0.076	142210	keystroke_t	t	n/a
71.465	0.045	142930	keystroke_Key.backspace	Key.backspace	n/a
71.841	0.045	143682	keystroke_'	'	n/a
72.111	0.075	144222	keystroke_t	t	n/a
72.2905	0.0895	144581	keystroke_Key.space	Key.space	n/a
72.53	0.091	145060	keystroke_w	w	n/a
72.741	0.105	145482	keystroke_a	a	n/a
72.786	0.119	145572	keystroke_s	s	n/a
72.921	0.06	145842	keystroke_h	h	n/a
73.041	0.09	146082	keystroke_e	e	n/a
73.1455	0.105	146291	keystroke_r	r	n/a
73.2655	0.0755	146531	keystroke_Key.space	Key.space	n/a
73.5205	0.0905	147041	keystroke_s	s	n/a
73.7	0.091	147400	keystroke_a	a	n/a
73.776	0.045	147552	keystroke_n	n	n/a
73.866	0.075	147732	keystroke_s	s	n/a
74.105	0.06	148210	keystroke_Key.enter	Key.enter	n/a
74.172	6.6555	148344	prompt	n/a	celebrity various biotechnology designing\n
74.811	0.0895	149622	keystroke_c	c	n/a
75.0205	0.09	150041	keystroke_e	e	n/a
75.1255	0.0305	150251	keystroke_l	l	n/a
75.1705	0.0905	150341	keystroke_e	e	n/a
75.3055	0.06	150611	keystroke_b	b	n/a
75.3655	0.09	150731	keystroke_r	r	n/a
75.5005	0.06	151001	keystroke_i	i	n/a
75.6055	0.075	151211	keystroke_t	t	n/a
75.7105	0.06	151421	keystroke_y	y	n/a
75.9505	0.015	151901	keystroke_Key.space	Key.space	n/a
76.0705	0.06	152141	keystroke_c	c	n/a
76.4605	0.06	152921	keystroke_Key.backspace	Key.backspace	n/a
76.551	0.0745	153102	keystroke_v	v	n/a
76.701	0.0895	153402	keystroke_a	a	n/a
76.851	0.0895	153702	keystroke_r	r	n/a
76.9415	0.104	153883	keystroke_i	i	n/a
77.0005	0.09	154001	keystroke_o	o	n/a
77.1955	0.0895	154391	keystroke_u	u	n/a
77.2705	0.06	154541	keystroke_s	s	n/a
77.345	0.09	154690	keystroke_Key.space	Key.space	n/a
77.495	0.091	154990	keystroke_b	b	n/a
77.571	0.0895	155142	keystroke_i	i	n/a
77.6305	0.09	155261	keystroke_o	o	n/a
77.9155	0.0455	155831	keystroke_t	t	n/a
78.0355	0.075	156071	keystroke_e	e	n/a
78.2605	0.0455	156521	keystroke_c	c	n/a
78.2905	0.0455	156581	keystroke_h	h	n/a
78.5005	0.075	157001	keystroke_n	n	n/a
78.7405	0.06	157481	keystroke_o	o	n/a
78.906	0.075	157812	keystroke_l	l	n/a
79.056	0.075	158112	keystroke_o	o	n/a
79.161	0.0895	158322	keystroke_g	g	n/a
79.311	0.06	158622	keystroke_y	y	n/a
79.4305	0.0755	158861	keystroke_Key.space	Key.space	n/a
79.566	0.03	159132	keystroke_d	d	n/a
79.656	0.074	159312	keystroke_e	e	n/a
79.8205	0.06	159641	keystroke_s	s	n/a
79.8505	0.0605	159701	keystroke_i	i	n/a
80.0155	0.06	160031	keystroke_g	g	n/a
80.0605	0.075	160121	keystroke_n	n	n/a
80.2405	0.045	160481	keystroke_i	i	n/a
80.3905	0.0755	160781	keystroke_n	n	n/a
80.495	0.075	160990	keystroke_g	g	n/a
80.7805	0.045	161561	keystroke_Key.enter	Key.enter	n/a
80.832	3.7745	161664	prompt	n/a	dried proteins pledge trim\n
81.515	0.075	163030	keystroke_d	d	n/a
81.695	0.0755	163390	keystroke_r	r	n/a
81.801	0.0595	163602	keystroke_i	i	n/a
81.876	0.074	163752	keystroke_e	e	n/a
82.0555	0.075	164111	keystroke_d	d	n/a
82.1305	0.06	164261	keystroke_Key.space	Key.space	n/a
82.295	0.076	164590	keystroke_p	p	n/a
82.356	0.0745	164712	keystroke_r	r	n/a
82.46	0.075	164920	keystroke_o	o	n/a
82.5205	0.0745	165041	keystroke_t	t	n/a
82.655	0.075	165310	keystroke_e	e	n/a
82.745	0.046	165490	keystroke_i	i	n/a
82.895	0.09	165790	keystroke_n	n	n/a
82.941	0.0595	165882	keystroke_s	s	n/a
83.045	0.075	166090	keystroke_Key.space	Key.space	n/a
83.196	0.059	166392	keystroke_p	p	n/a
83.33	0.09	166660	keystroke_l	l	n/a
83.36	0.075	166720	keystroke_e	e	n/a
83.5555	0.0455	167111	keystroke_d	d	n/a
83.645	0.06	167290	keystroke_g	g	n/a
83.72	0.061	167440	keystroke_e	e	n/a
83.781	0.0745	167562	keystroke_Key.space	Key.space	n/a
83.915	0.075	167830	keystroke_t	t	n/a
84.1105	0.06	168221	keystroke_r	r	n/a
84.156	0.045	168312	keystroke_i	i	n/a
84.336	0.0595	168672	keystroke_m	m	n/a
84.5605	0.045	169121	keystroke_Key.enter	Key.enter	n/a
84.6095	4.048	169219	prompt	n/a	cycling do merchants greek\n
85.176	0.06	170352	keystroke_c	c	n/a
85.2955	0.06	170591	keystroke_y	y	n/a
85.4005	0.0605	170801	keystroke_c	c	n/a
85.5205	0.075	171041	keystroke_l	l	n/a
85.746	0.015	171492	keystroke_i	i	n/a
85.8655	0.09	171731	keystroke_n	n	n/a
85.9255	0.0595	171851	keystroke_g	g	n/a
86.015	0.0755	172030	keystroke_Key.space	Key.space	n/a
86.151	0.06	172302	keystroke_d	d	n/a
86.196	0.06	172392	keystroke_o	o	n/a
86.301	0.075	172602	keystroke_Key.space	Key.space	n/a
86.451	0.075	172902	keystroke_m	m	n/a
86.496	0.075	172992	keystroke_e	e	n/a
86.6155	0.075	173231	keystroke_r	r	n/a
86.825	0.0755	173650	keystroke_c	c	n/a
86.915	0.046	173830	keystroke_h	h	n/a
86.99	0.09	173980	keystroke_a	a	n/a
87.0955	0.0595	174191	keystroke_n	n	n/a
87.2	0.061	174400	keystroke_t	t	n/a
87.336	0.089	174672	keystroke_s	s	n/a
87.4405	0.0595	174881	keystroke_Key.space	Key.space	n/a
87.6205	0.0595	175241	keystroke_g	g	n/a
87.6655	0.075	175331	keystroke_r	r	n/a
87.771	0.089	175542	keystroke_e	e	n/a
87.935	0.0755	175870	keystroke_e	e	n/a
88.026	0.0595	176052	keystroke_k	k	n/a
88.6255	0.0305	177251	keystroke_Key.enter	Key.enter	n/a
88.6615	5.066	177323	prompt	n/a	vital casa alternative trained\n
89.42	0.0755	178840	keystroke_v	v	n/a
89.4955	0.06	178991	keystroke_i	i	n/a
89.616	0.0745	179232	keystroke_t	t	n/a
89.7805	0.06	179561	keystroke_a	a	n/a
89.7955	0.075	179591	keystroke_l	l	n/a
89.9305	0.075	179861	keystroke_Key.space	Key.space	n/a
90.5755	0.0755	181151	keystroke_c	c	n/a
90.7105	0.15	181421	keystroke_a	a	n/a
90.8455	0.135	181691	keystroke_s	s	n/a
91.0405	0.0905	182081	keystroke_a	a	n/a
91.161	0.09	182322	keystroke_Key.space	Key.space	n/a
91.341	0.075	182682	keystroke_a	a	n/a
91.4	0.061	182800	keystroke_l	l	n/a
91.581	0.06	183162	keystroke_t	t	n/a
91.731	0.09	183462	keystroke_e	e	n/a
91.806	0.09	183612	keystroke_r	r	n/a
91.926	0.075	183852	keystroke_n	n	n/a
92.076	0.06	184152	keystroke_a	a	n/a
92.256	0.0745	184512	keystroke_t	t	n/a
92.3455	0.045	184691	keystroke_i	i	n/a
92.4805	0.0605	184961	keystroke_v	v	n/a
92.6455	0.0755	185291	keystroke_e	e	n/a
92.705	0.075	185410	keystroke_Key.space	Key.space	n/a
92.825	0.091	185650	keystroke_t	t	n/a
92.9755	0.075	185951	keystroke_r	r	n/a
93.096	0.09	186192	keystroke_a	a	n/a
93.1705	0.06	186341	keystroke_i	i	n/a
93.3205	0.0755	186641	keystroke_n	n	n/a
93.3655	0.0905	186731	keystroke_e	e	n/a
93.5455	0.0755	187091	keystroke_d	d	n/a
93.666	0.059	187332	keystroke_Key.enter	Key.enter	n/a
93.732	4.78	187464	prompt	n/a	webcams judges purchases potatoes\n
94.385	0.076	188770	keystroke_w	w	n/a
94.506	0.09	189012	keystroke_e	e	n/a
94.6105	0.045	189221	keystroke_b	b	n/a
94.745	0.061	189490	keystroke_c	c	n/a
94.866	0.0895	189732	keystroke_a	a	n/a
94.986	0.075	189972	keystroke_m	m	n/a
95.1055	0.0605	190211	keystroke_s	s	n/a
95.2105	0.075	190421	keystroke_Key.space	Key.space	n/a
95.3905	0.06	190781	keystroke_j	j	n/a
95.541	0.0595	191082	keystroke_u	u	n/a
95.6005	0.0745	191201	keystroke_d	d	n/a
95.736	0.0445	191472	keystroke_g	g	n/a
95.796	0.0745	191592	keystroke_e	e	n/a
95.9605	0.0755	191921	keystroke_s	s	n/a
96.02	0.061	192040	keystroke_Key.space	Key.space	n/a
96.1705	0.0455	192341	keystroke_p	p	n/a
96.335	0.0605	192670	keystroke_u	u	n/a
96.365	0.06	192730	keystroke_r	r	n/a
96.545	0.075	193090	keystroke_c	c	n/a
96.6355	0.0455	193271	keystroke_h	h	n/a
96.695	0.12	193390	keystroke_a	a	n/a
96.77	0.1055	193540	keystroke_s	s	n/a
96.9205	0.0905	193841	keystroke_e	e	n/a
97.13	0.076	194260	keystroke_s	s	n/a
97.19	0.0605	194380	keystroke_Key.space	Key.space	n/a
97.3255	0.0755	194651	keystroke_p	p	n/a
97.4755	0.075	194951	keystroke_o	o	n/a
97.506	0.0745	195012	keystroke_t	t	n/a
97.6705	0.105	195341	keystroke_a	a	n/a
97.9105	0.06	195821	keystroke_t	t	n/a
98.0155	0.075	196031	keystroke_o	o	n/a
98.1205	0.09	196241	keystroke_e	e	n/a
98.3455	0.045	196691	keystroke_s	s	n/a
98.4355	0.075	196871	keystroke_Key.enter	Key.enter	n/a
98.523	4.219	197046	prompt	n/a	wise license saved poet\n
99.05	0.0605	198100	keystroke_w	w	n/a
99.186	0.0595	198372	keystroke_i	i	n/a
99.305	0.0605	198610	keystroke_s	s	n/a
99.41	0.0755	198820	keystroke_e	e	n/a
99.4855	0.0595	198971	keystroke_Key.space	Key.space	n/a
99.635	0.06	199270	keystroke_l	l	n/a
99.8	0.061	199600	keystroke_i	i	n/a
99.875	0.031	199750	keystroke_c	c	n/a
100.0405	0.0595	200081	keystroke_e	e	n/a
100.1155	0.06	200231	keystroke_n	n	n/a
100.2205	0.0895	200441	keystroke_s	s	n/a
100.34	0.075	200680	keystroke_e	e	n/a
100.43	0.075	200860	keystroke_Key.space	Key.space	n/a
100.61	0.1505	201220	keystroke_s	s	n/a
100.866	0.059	201732	keystroke_v	v	n/a
101.33	0.0605	202660	keystroke_Key.backspace	Key.backspace	n/a
101.406	0.074	202812	keystroke_a	a	n/a
101.5855	0.0755	203171	keystroke_v	v	n/a
101.736	0.074	203472	keystroke_e	e	n/a
101.886	0.075	203772	keystroke_d	d	n/a
101.975	0.075	203950	keystroke_Key.space	Key.space	n/a
102.11	0.12	204220	keystroke_p	p	n/a
102.171	0.089	204342	keystroke_o	o	n/a
102.2755	0.0745	204551	keystroke_e	e	n/a
102.4105	0.075	204821	keystroke_t	t	n/a
102.6805	0.06	205361	keystroke_Key.enter	Key.enter	n/a
102.7465	6.5805	205493	prompt	n/a	swingers represent chairman motors\n
103.64	0.0905	207280	keystroke_s	s	n/a
103.835	0.06	207670	keystroke_i	i	n/a
104	0.0605	208000	keystroke_n	n	n/a
104.015	0.075	208030	keystroke_g	g	n/a
104.1955	0.105	208391	keystroke_e	e	n/a
104.2855	0.105	208571	keystroke_r	r	n/a
104.4505	0.06	208901	keystroke_s	s	n/a
104.5405	0.075	209081	keystroke_Key.space	Key.space	n/a
104.75	0.075	209500	keystroke_r	r	n/a
104.84	0.09	209680	keystroke_e	e	n/a
104.9605	0.0745	209921	keystroke_p	p	n/a
105.0955	0.12	210191	keystroke_r	r	n/a
105.245	0.1055	210490	keystroke_e	e	n/a
105.455	0.076	210910	keystroke_s	s	n/a
105.635	0.0605	211270	keystroke_e	e	n/a
105.7105	0.06	211421	keystroke_n	n	n/a
105.816	0.059	211632	keystroke_t	t	n/a
105.8755	0.075	211751	keystroke_Key.space	Key.space	n/a
106.026	0.0895	212052	keystroke_c	c	n/a
106.1005	0.06	212201	keystroke_h	h	n/a
106.1905	0.0755	212381	keystroke_a	a	n/a
106.3255	0.075	212651	keystroke_r	r	n/a
106.4305	0.0595	212861	keystroke_i	i	n/a
106.8945	0.061	213789	keystroke_Key.backspace	Key.backspace	n/a
107.0155	0.059	214031	keystroke_Key.backspace	Key.backspace	n/a
107.2095	0.076	214419	keystroke_i	i	n/a
107.2705	0.075	214541	keystroke_r	r	n/a
107.4205	0.075	214841	keystroke_m	m	n/a
107.5245	0.091	215049	keystroke_a	a	n/a
107.6005	0.06	215201	keystroke_n	n	n/a
107.765	0.03	215530	keystroke_Key.space	Key.space	n/a
107.901	0.0745	215802	keystroke_m	m	n/a
108.066	0.0595	216132	keystroke_o	o	n/a
108.1405	0.105	216281	keystroke_t	t	n/a
108.2305	0.06	216461	keystroke_o	o	n/a
108.4855	0.045	216971	keystroke_s	s	n/a
108.8305	0.045	217661	keystroke_Key.backspace	Key.backspace	n/a
108.92	0.0755	217840	keystroke_r	r	n/a
109.055	0.075	218110	keystroke_s	s	n/a
109.28	0.045	218560	keystroke_Key.enter	Key.enter	n/a
109.335	4.6575	218670	prompt	n/a	hockey under klein francisco\n
110.1355	0.06	220271	keystroke_h	h	n/a
110.2855	0.075	220571	keystroke_o	o	n/a
110.3755	0.06	220751	keystroke_c	c	n/a
110.4505	0.09	220901	keystroke_k	k	n/a
110.5705	0.06	221141	keystroke_e	e	n/a
110.6755	0.045	221351	keystroke_y	y	n/a
110.78	0.075	221560	keystroke_Key.space	Key.space	n/a
110.915	0.06	221830	keystroke_u	u	n/a
111.081	0.075	222162	keystroke_n	n	n/a
111.1405	0.06	222281	keystroke_d	d	n/a
111.2605	0.09	222521	keystroke_e	e	n/a
111.3355	0.09	222671	keystroke_r	r	n/a
111.4405	0.075	222881	keystroke_Key.space	Key.space	n/a
111.6355	0.09	223271	keystroke_k	k	n/a
111.6955	0.09	223391	keystroke_l	l	n/a
112.2805	0.09	224561	keystroke_e	e	n/a
112.3855	0.06	224771	keystroke_i	i	n/a
112.5655	0.06	225131	keystroke_n	n	n/a
112.6855	0.09	225371	keystroke_Key.space	Key.space	n/a
112.8055	0.06	225611	keystroke_f	f	n/a
112.9855	0.06	225971	keystroke_r	r	n/a
113.1055	0.09	226211	keystroke_a	a	n/a
113.1805	0.06	226361	keystroke_n	n	n/a
113.3155	0.06	226631	keystroke_c	c	n/a
113.3905	0.06	226781	keystroke_i	i	n/a
113.4655	0.06	226931	keystroke_s	s	n/a
113.6905	0.015	227381	keystroke_c	c	n/a
113.7205	0.03	227441	keystroke_o	o	n/a
113.9305	0.06	227861	keystroke_Key.enter	Key.enter	n/a
113.9965	4.556	227993	prompt	n/a	travelers mightn't are hill\n
114.591	0.075	229182	keystroke_t	t	n/a
114.771	0.09	229542	keystroke_r	r	n/a
114.875	0.09	229750	keystroke_a	a	n/a
115.04	0.075	230080	keystroke_v	v	n/a
115.175	0.0755	230350	keystroke_e	e	n/a
115.28	0.061	230560	keystroke_l	l	n/a
115.385	0.075	230770	keystroke_e	e	n/a
115.475	0.121	230950	keystroke_r	r	n/a
115.656	0.09	231312	keystroke_s	s	n/a
115.73	0.0605	231460	keystroke_Key.space	Key.space	n/a
115.865	0.0755	231730	keystroke_m	m	n/a
116.0455	0.0445	232091	keystroke_i	i	n/a
116.12	0.075	232240	keystroke_g	g	n/a
116.2255	0.0745	232451	keystroke_h	h	n/a
116.3905	0.0745	232781	keystroke_t	t	n/a
116.556	0.059	233112	keystroke_n	n	n/a
116.795	0.06	233590	keystroke_'	'	n/a
116.93	0.075	233860	keystroke_t	t	n/a
117.125	0.075	234250	keystroke_Key.space	Key.space	n/a
117.3505	0.06	234701	keystroke_a	a	n/a
117.47	0.0755	234940	keystroke_r	r	n/a
117.5465	0.089	235093	keystroke_e	e	n/a
117.6205	0.075	235241	keystroke_Key.space	Key.space	n/a
117.7555	0.075	235511	keystroke_h	h	n/a
117.9505	0.06	235901	keystroke_i	i	n/a
118.1445	0.0615	236289	keystroke_l	l	n/a
118.265	0.076	236530	keystroke_l	l	n/a
118.4895	0.0605	236979	keystroke_Key.enter	Key.enter	n/a
118.5565	4.587	237113	prompt	n/a	pattern nutritional for operation\n
119.1505	0.06	238301	keystroke_p	p	n/a
119.1955	0.0755	238391	keystroke_a	a	n/a
119.39	0.0755	238780	keystroke_t	t	n/a
119.5405	0.075	239081	keystroke_t	t	n/a
119.6605	0.12	239321	keystroke_e	e	n/a
119.7655	0.105	239531	keystroke_r	r	n/a
119.8255	0.0755	239651	keystroke_n	n	n/a
119.9895	0.076	239979	keystroke_Key.space	Key.space	n/a
120.1105	0.075	240221	keystroke_n	n	n/a
120.2905	0.06	240581	keystroke_u	u	n/a
120.3655	0.06	240731	keystroke_t	t	n/a
120.5455	0.0445	241091	keystroke_r	r	n/a
120.6055	0.0605	241211	keystroke_i	i	n/a
120.7705	0.0305	241541	keystroke_t	t	n/a
120.801	0.0895	241602	keystroke_i	i	n/a
120.8605	0.09	241721	keystroke_o	o	n/a
121.04	0.06	242080	keystroke_n	n	n/a
121.1305	0.0895	242261	keystroke_a	a	n/a
121.235	0.06	242470	keystroke_l	l	n/a
121.3705	0.0745	242741	keystroke_Key.space	Key.space	n/a
121.431	0.09	242862	keystroke_f	f	n/a
121.505	0.06	243010	keystroke_o	o	n/a
121.61	0.0755	243220	keystroke_r	r	n/a
121.67	0.075	243340	keystroke_Key.space	Key.space	n/a
121.8055	0.1205	243611	keystroke_o	o	n/a
121.865	0.1055	243730	keystroke_p	p	n/a
122.0005	0.0895	244001	keystroke_e	e	n/a
122.1955	0.075	244391	keystroke_r	r	n/a
122.3305	0.09	244661	keystroke_a	a	n/a
122.511	0.0595	245022	keystroke_t	t	n/a
122.5405	0.12	245081	keystroke_i	i	n/a
122.6155	0.075	245231	keystroke_o	o	n/a
122.751	0.074	245502	keystroke_n	n	n/a
123.08	0.06	246160	keystroke_Key.enter	Key.enter	n/a
123.148	4.4795	246296	prompt	n/a	wired saving scheme yamaha\n
123.6955	0.09	247391	keystroke_w	w	n/a
123.8005	0.075	247601	keystroke_i	i	n/a
123.8605	0.105	247721	keystroke_r	r	n/a
123.98	0.1055	247960	keystroke_e	e	n/a
124.19	0.061	248380	keystroke_d	d	n/a
124.28	0.0755	248560	keystroke_Key.space	Key.space	n/a
124.385	0.075	248770	keystroke_s	s	n/a
124.5355	0.09	249071	keystroke_a	a	n/a
124.7005	0.09	249401	keystroke_v	v	n/a
124.7755	0.0295	249551	keystroke_i	i	n/a
124.94	0.045	249880	keystroke_n	n	n/a
124.97	0.06	249940	keystroke_g	g	n/a
125.6755	0.075	251351	keystroke_Key.space	Key.space	n/a
125.9305	0.015	251861	keystroke_s	s	n/a
126.0205	0.0905	252041	keystroke_c	c	n/a
126.1405	0.075	252281	keystroke_h	h	n/a
126.2605	0.075	252521	keystroke_e	e	n/a
126.3805	0.075	252761	keystroke_m	m	n/a
126.441	0.0595	252882	keystroke_e	e	n/a
126.5455	0.06	253091	keystroke_Key.space	Key.space	n/a
126.7255	0.045	253451	keystroke_y	y	n/a
126.8005	0.09	253601	keystroke_a	a	n/a
126.9355	0.09	253871	keystroke_m	m	n/a
127.0105	0.075	254021	keystroke_a	a	n/a
127.1455	0.06	254291	keystroke_h	h	n/a
127.2505	0.0605	254501	keystroke_a	a	n/a
127.5505	0.075	255101	keystroke_Key.enter	Key.enter	n/a
127.6375	6.1845	255275	prompt	n/a	polish accessibility executives adjusted\n
128.271	0.075	256542	keystroke_p	p	n/a
128.435	0.045	256870	keystroke_o	o	n/a
128.615	0.0455	257230	keystroke_l	l	n/a
128.7805	0.03	257561	keystroke_i	i	n/a
128.8555	0.0745	257711	keystroke_s	s	n/a
128.96	0.061	257920	keystroke_h	h	n/a
129.0805	0.075	258161	keystroke_Key.space	Key.space	n/a
129.1855	0.075	258371	keystroke_a	a	n/a
129.3655	0.06	258731	keystroke_c	c	n/a
129.5005	0.06	259001	keystroke_c	c	n/a
129.6805	0.075	259361	keystroke_e	e	n/a
129.8755	0.0455	259751	keystroke_s	s	n/a
129.995	0.075	259990	keystroke_s	s	n/a
130.085	0.0605	260170	keystroke_i	i	n/a
130.205	0.076	260410	keystroke_b	b	n/a
130.341	0.059	260682	keystroke_i	i	n/a
130.535	0.075	261070	keystroke_l	l	n/a
130.715	0.06	261430	keystroke_i	i	n/a
130.7905	0.0745	261581	keystroke_t	t	n/a
130.9705	0.0445	261941	keystroke_y	y	n/a
131.03	0.0755	262060	keystroke_Key.space	Key.space	n/a
131.181	0.0595	262362	keystroke_e	e	n/a
131.4055	0.0595	262811	keystroke_x	x	n/a
131.585	0.0605	263170	keystroke_e	e	n/a
131.7805	0.09	263561	keystroke_c	c	n/a
131.915	0.075	263830	keystroke_u	u	n/a
132.035	0.0605	264070	keystroke_t	t	n/a
132.14	0.06	264280	keystroke_i	i	n/a
132.245	0.061	264490	keystroke_v	v	n/a
132.41	0.075	264820	keystroke_e	e	n/a
132.62	0.045	265240	keystroke_s	s	n/a
132.68	0.1045	265360	keystroke_Key.space	Key.space	n/a
132.8005	0.0605	265601	keystroke_a	a	n/a
132.9055	0.075	265811	keystroke_d	d	n/a
132.9655	0.06	265931	keystroke_j	j	n/a
133.146	0.045	266292	keystroke_u	u	n/a
133.175	0.075	266350	keystroke_s	s	n/a
133.355	0.0755	266710	keystroke_t	t	n/a
133.431	0.075	266862	keystroke_e	e	n/a
133.58	0.09	267160	keystroke_d	d	n/a
133.7755	0.0445	267551	keystroke_Key.enter	Key.enter	n/a
133.827	3.9405	267654	prompt	n/a	eclipse dated dicke moves\n
134.465	0.0155	268930	keystroke_e	e	n/a
134.706	0.059	269412	keystroke_c	c	n/a
134.8255	0.0895	269651	keystroke_l	l	n/a
135.035	0.0605	270070	keystroke_i	i	n/a
135.23	0.0605	270460	keystroke_p	p	n/a
135.32	0.0755	270640	keystroke_s	s	n/a
135.4855	0.075	270971	keystroke_e	e	n/a
135.575	0.0755	271150	keystroke_Key.space	Key.space	n/a
135.68	0.0755	271360	keystroke_d	d	n/a
135.815	0.105	271630	keystroke_a	a	n/a
135.935	0.06	271870	keystroke_t	t	n/a
136.041	0.0745	272082	keystroke_e	e	n/a
136.206	0.0895	272412	keystroke_d	d	n/a
136.2805	0.06	272561	keystroke_Key.space	Key.space	n/a
136.3855	0.075	272771	keystroke_d	d	n/a
136.476	0.0445	272952	keystroke_i	i	n/a
136.566	0.0595	273132	keystroke_c	c	n/a
136.6555	0.06	273311	keystroke_k	k	n/a
136.761	0.06	273522	keystroke_e	e	n/a
136.8505	0.045	273701	keystroke_Key.space	Key.space	n/a
136.9855	0.075	273971	keystroke_m	m	n/a
137.151	0.0445	274302	keystroke_o	o	n/a
137.2105	0.0455	274421	keystroke_v	v	n/a
137.391	0.0745	274782	keystroke_e	e	n/a
137.5405	0.0905	275081	keystroke_s	s	n/a
137.7055	0.06	275411	keystroke_Key.enter	Key.enter	n/a
137.772	6.2955	275544	prompt	n/a	copyrights kill fitting rebecca\n
138.4255	0.06	276851	keystroke_c	c	n/a
138.4705	0.1055	276941	keystroke_o	o	n/a
138.5305	0.09	277061	keystroke_p	p	n/a
138.756	0.045	277512	keystroke_y	y	n/a
138.83	0.076	277660	keystroke_r	r	n/a
138.935	0.0605	277870	keystroke_i	i	n/a
139.025	0.075	278050	keystroke_g	g	n/a
139.116	0.06	278232	keystroke_h	h	n/a
139.1905	0.06	278381	keystroke_t	t	n/a
139.326	0.0745	278652	keystroke_s	s	n/a
139.4155	0.075	278831	keystroke_Key.space	Key.space	n/a
139.5505	0.075	279101	keystroke_f	f	n/a
139.656	0.06	279312	keystroke_i	i	n/a
139.866	0.0445	279732	keystroke_l	l	n/a
139.9855	0.075	279971	keystroke_l	l	n/a
140.3455	0.045	280691	keystroke_Key.backspace	Key.backspace	n/a
140.4805	0.06	280961	keystroke_Key.backspace	Key.backspace	n/a
140.6305	0.06	281261	keystroke_Key.backspace	Key.backspace	n/a
140.795	0.045	281590	keystroke_Key.backspace	Key.backspace	n/a
141.081	0.0595	282162	keystroke_k	k	n/a
141.23	0.0605	282460	keystroke_i	i	n/a
141.4105	0.0455	282821	keystroke_l	l	n/a
141.515	0.075	283030	keystroke_l	l	n/a
141.635	0.075	283270	keystroke_Key.space	Key.space	n/a
141.725	0.0755	283450	keystroke_f	f	n/a
141.8155	0.06	283631	keystroke_i	i	n/a
141.9505	0.06	283901	keystroke_t	t	n/a
142.1005	0.0745	284201	keystroke_t	t	n/a
142.145	0.061	284290	keystroke_i	i	n/a
142.2955	0.075	284591	keystroke_n	n	n/a
142.34	0.0605	284680	keystroke_g	g	n/a
142.43	0.075	284860	keystroke_Key.space	Key.space	n/a
142.5205	0.0895	285041	keystroke_r	r	n/a
142.626	0.0895	285252	keystroke_e	e	n/a
142.7005	0.06	285401	keystroke_b	b	n/a
142.7755	0.0755	285551	keystroke_e	e	n/a
142.9855	0.075	285971	keystroke_c	c	n/a
143.2405	0.0455	286481	keystroke_a	a	n/a
143.6005	0.045	287201	keystroke_Key.backspace	Key.backspace	n/a
143.6755	0.075	287351	keystroke_c	c	n/a
143.8255	0.075	287651	keystroke_a	a	n/a
144.02	0.045	288040	keystroke_Key.enter	Key.enter	n/a
144.0715	3.9415	288143	prompt	n/a	built offerings folks mice\n
144.7105	0.075	289421	keystroke_b	b	n/a
144.7705	0.06	289541	keystroke_u	u	n/a
144.935	0.0605	289870	keystroke_i	i	n/a
145.1	0.076	290200	keystroke_l	l	n/a
145.1905	0.06	290381	keystroke_t	t	n/a
145.31	0.075	290620	keystroke_Key.space	Key.space	n/a
145.535	0.045	291070	keystroke_o	o	n/a
145.595	0.075	291190	keystroke_f	f	n/a
145.73	0.075	291460	keystroke_f	f	n/a
145.865	0.09	291730	keystroke_e	e	n/a
145.9705	0.1055	291941	keystroke_r	r	n/a
146.0905	0.06	292181	keystroke_i	i	n/a
146.2405	0.0745	292481	keystroke_n	n	n/a
146.3	0.045	292600	keystroke_g	g	n/a
146.421	0.0745	292842	keystroke_s	s	n/a
146.4805	0.0745	292961	keystroke_Key.space	Key.space	n/a
146.6	0.075	293200	keystroke_f	f	n/a
146.66	0.0455	293320	keystroke_o	o	n/a
146.81	0.06	293620	keystroke_l	l	n/a
146.9305	0.09	293861	keystroke_k	k	n/a
147.0355	0.045	294071	keystroke_s	s	n/a
147.065	0.0755	294130	keystroke_Key.space	Key.space	n/a
147.2	0.0755	294400	keystroke_m	m	n/a
147.3655	0.06	294731	keystroke_i	i	n/a
147.5455	0.0905	295091	keystroke_c	c	n/a
147.7705	0.06	295541	keystroke_e	e	n/a
147.9505	0.06	295901	keystroke_Key.enter	Key.enter	n/a
148.017	4.0305	296034	prompt	n/a	modeling appendix vermont dirt\n
148.7005	0.075	297401	keystroke_m	m	n/a
148.8655	0.045	297731	keystroke_o	o	n/a
148.8805	0.075	297761	keystroke_d	d	n/a
149.0305	0.075	298061	keystroke_e	e	n/a
149.0905	0.075	298181	keystroke_l	l	n/a
149.286	0.0295	298572	keystroke_i	i	n/a
149.4355	0.0605	298871	keystroke_n	n	n/a
149.4655	0.06	298931	keystroke_g	g	n/a
149.5555	0.075	299111	keystroke_Key.space	Key.space	n/a
149.6455	0.075	299291	keystroke_a	a	n/a
149.7205	0.045	299441	keystroke_p	p	n/a
149.826	0.0595	299652	keystroke_p	p	n/a
149.9	0.06	299800	keystroke_e	e	n/a
149.99	0.076	299980	keystroke_n	n	n/a
150.125	0.045	300250	keystroke_d	d	n/a
150.185	0.0755	300370	keystroke_i	i	n/a
150.32	0.0605	300640	keystroke_x	x	n/a
150.3805	0.0745	300761	keystroke_Key.space	Key.space	n/a
150.53	0.0605	301060	keystroke_v	v	n/a
150.681	0.0595	301362	keystroke_e	e	n/a
150.7705	0.0745	301541	keystroke_r	r	n/a
150.861	0.059	301722	keystroke_m	m	n/a
150.995	0.06	301990	keystroke_o	o	n/a
151.161	0.0745	302322	keystroke_n	n	n/a
151.22	0.06	302440	keystroke_t	t	n/a
151.295	0.075	302590	keystroke_Key.space	Key.space	n/a
151.415	0.09	302830	keystroke_d	d	n/a
151.491	0.045	302982	keystroke_i	i	n/a
151.626	0.059	303252	keystroke_r	r	n/a
151.791	0.0595	303582	keystroke_t	t	n/a
152	0.045	304000	keystroke_Key.enter	Key.enter	n/a
152.052	5.5155	304104	prompt	n/a	deposit proudly improvements solution\n
152.6305	0.075	305261	keystroke_d	d	n/a
152.7955	0.06	305591	keystroke_e	e	n/a
152.871	0.135	305742	keystroke_p	p	n/a
152.9455	0.0905	305891	keystroke_o	o	n/a
153.0805	0.075	306161	keystroke_s	s	n/a
153.2155	0.06	306431	keystroke_i	i	n/a
153.336	0.0745	306672	keystroke_t	t	n/a
153.4405	0.075	306881	keystroke_Key.space	Key.space	n/a
153.6655	0.06	307331	keystroke_p	p	n/a
153.7705	0.09	307541	keystroke_r	r	n/a
153.8615	0.074	307723	keystroke_o	o	n/a
154.0705	0.06	308141	keystroke_u	u	n/a
154.1905	0.045	308381	keystroke_d	d	n/a
154.3555	0.045	308711	keystroke_l	l	n/a
154.4755	0.0605	308951	keystroke_y	y	n/a
154.5655	0.06	309131	keystroke_Key.space	Key.space	n/a
154.7005	0.06	309401	keystroke_i	i	n/a
154.881	0.0595	309762	keystroke_m	m	n/a
155.0305	0.0905	310061	keystroke_p	p	n/a
155.1055	0.0755	310211	keystroke_r	r	n/a
155.211	0.0595	310422	keystroke_o	o	n/a
155.405	0.061	310810	keystroke_v	v	n/a
155.676	0.06	311352	keystroke_e	e	n/a
155.811	0.075	311622	keystroke_m	m	n/a
155.946	0.06	311892	keystroke_e	e	n/a
156.036	0.06	312072	keystroke_n	n	n/a
156.1555	0.0755	312311	keystroke_t	t	n/a
156.3355	0.0745	312671	keystroke_s	s	n/a
156.425	0.0755	312850	keystroke_Key.space	Key.space	n/a
156.53	0.076	313060	keystroke_s	s	n/a
156.6205	0.06	313241	keystroke_o	o	n/a
156.785	0.045	313570	keystroke_l	l	n/a
156.935	0.045	313870	keystroke_u	u	n/a
157.01	0.06	314020	keystroke_t	t	n/a
157.115	0.105	314230	keystroke_i	i	n/a
157.176	0.089	314352	keystroke_o	o	n/a
157.25	0.075	314500	keystroke_n	n	n/a
157.52	0.045	315040	keystroke_Key.enter	Key.enter	n/a
157.571	5.846	315142	prompt	n/a	ping antarctica brunswick motivated\n
158.121	0.075	316242	keystroke_p	p	n/a
158.3005	0.0605	316601	keystroke_i	i	n/a
158.4655	0.075	316931	keystroke_n	n	n/a
158.5255	0.06	317051	keystroke_g	g	n/a
158.6455	0.075	317291	keystroke_Key.space	Key.space	n/a
158.8405	0.0755	317681	keystroke_a	a	n/a
158.931	0.0595	317862	keystroke_n	n	n/a
159.096	0.0595	318192	keystroke_t	t	n/a
159.696	0.0745	319392	keystroke_a	a	n/a
159.8455	0.075	319691	keystroke_r	r	n/a
160.0555	0.0755	320111	keystroke_c	c	n/a
160.265	0.061	320530	keystroke_t	t	n/a
160.356	0.074	320712	keystroke_i	i	n/a
160.521	0.059	321042	keystroke_c	c	n/a
160.7005	0.06	321401	keystroke_a	a	n/a
160.7755	0.06	321551	keystroke_Key.space	Key.space	n/a
160.9555	0.06	321911	keystroke_b	b	n/a
161.0455	0.075	322091	keystroke_r	r	n/a
161.1355	0.0455	322271	keystroke_u	u	n/a
161.2855	0.0745	322571	keystroke_n	n	n/a
161.376	0.045	322752	keystroke_s	s	n/a
161.5705	0.0445	323141	keystroke_w	w	n/a
161.645	0.061	323290	keystroke_i	i	n/a
161.766	0.09	323532	keystroke_c	c	n/a
161.841	0.075	323682	keystroke_k	k	n/a
161.9455	0.06	323891	keystroke_Key.space	Key.space	n/a
162.096	0.075	324192	keystroke_m	m	n/a
162.246	0.059	324492	keystroke_o	o	n/a
162.32	0.061	324640	keystroke_t	t	n/a
162.411	0.0595	324822	keystroke_i	i	n/a
162.546	0.074	325092	keystroke_v	v	n/a
162.695	0.0905	325390	keystroke_a	a	n/a
162.8455	0.09	325691	keystroke_t	t	n/a
162.9805	0.09	325961	keystroke_e	e	n/a
163.1605	0.0605	326321	keystroke_d	d	n/a
163.356	0.0595	326712	keystroke_Key.enter	Key.enter	n/a
163.4225	3.91	326845	prompt	n/a	days decided aids temporal\n
163.986	0.0745	327972	keystroke_d	d	n/a
164.1055	0.1055	328211	keystroke_a	a	n/a
164.1955	0.0745	328391	keystroke_y	y	n/a
164.3	0.0905	328600	keystroke_s	s	n/a
164.4055	0.0905	328811	keystroke_Key.space	Key.space	n/a
164.6305	0.0755	329261	keystroke_d	d	n/a
164.7805	0.0605	329561	keystroke_e	e	n/a
164.976	0.045	329952	keystroke_c	c	n/a
165.036	0.06	330072	keystroke_i	i	n/a
165.141	0.06	330282	keystroke_d	d	n/a
165.306	0.06	330612	keystroke_e	e	n/a
165.471	0.075	330942	keystroke_d	d	n/a
165.561	0.075	331122	keystroke_Key.space	Key.space	n/a
165.651	0.105	331302	keystroke_a	a	n/a
165.786	0.0445	331572	keystroke_i	i	n/a
165.8455	0.1055	331691	keystroke_d	d	n/a
165.9655	0.0905	331931	keystroke_s	s	n/a
166.1155	0.06	332231	keystroke_Key.space	Key.space	n/a
166.281	0.075	332562	keystroke_t	t	n/a
166.431	0.09	332862	keystroke_e	e	n/a
166.506	0.06	333012	keystroke_m	m	n/a
166.6705	0.1055	333341	keystroke_p	p	n/a
166.761	0.09	333522	keystroke_o	o	n/a
166.82	0.076	333640	keystroke_r	r	n/a
166.971	0.09	333942	keystroke_a	a	n/a
167.046	0.0745	334092	keystroke_l	l	n/a
167.271	0.06	334542	keystroke_Key.enter	Key.enter	n/a
167.3375	4.6145	334675	prompt	n/a	editor divided costume part\n
167.871	0.06	335742	keystroke_e	e	n/a
168.05	0.061	336100	keystroke_d	d	n/a
168.095	0.076	336190	keystroke_i	i	n/a
168.216	0.074	336432	keystroke_t	t	n/a
168.3055	0.0755	336611	keystroke_o	o	n/a
168.41	0.076	336820	keystroke_r	r	n/a
168.5	0.045	337000	keystroke_Key.space	Key.space	n/a
168.635	0.0455	337270	keystroke_d	d	n/a
168.7255	0.06	337451	keystroke_i	i	n/a
168.801	0.0745	337602	keystroke_v	v	n/a
168.921	0.06	337842	keystroke_i	i	n/a
168.981	0.09	337962	keystroke_d	d	n/a
169.191	0.06	338382	keystroke_e	e	n/a
169.386	0.06	338772	keystroke_d	d	n/a
169.835	0.075	339670	keystroke_Key.space	Key.space	n/a
169.971	0.06	339942	keystroke_c	c	n/a
170.061	0.06	340122	keystroke_o	o	n/a
170.151	0.0895	340302	keystroke_s	s	n/a
170.286	0.06	340572	keystroke_u	u	n/a
170.601	0.06	341202	keystroke_Key.backspace	Key.backspace	n/a
170.766	0.075	341532	keystroke_t	t	n/a
170.856	0.045	341712	keystroke_u	u	n/a
171.021	0.075	342042	keystroke_m	m	n/a
171.08	0.076	342160	keystroke_e	e	n/a
171.185	0.06	342370	keystroke_Key.space	Key.space	n/a
171.3055	0.0755	342611	keystroke_p	p	n/a
171.351	0.09	342702	keystroke_a	a	n/a
171.485	0.076	342970	keystroke_r	r	n/a
171.666	0.06	343332	keystroke_t	t	n/a
171.875	0.075	343750	keystroke_Key.enter	Key.enter	n/a
171.9555	4.7375	343911	prompt	n/a	carry rouge listings special\n
172.611	0.059	345222	keystroke_c	c	n/a
172.776	0.074	345552	keystroke_a	a	n/a
172.896	0.074	345792	keystroke_r	r	n/a
173.046	0.075	346092	keystroke_r	r	n/a
173.091	0.075	346182	keystroke_y	y	n/a
173.225	0.06	346450	keystroke_Key.space	Key.space	n/a
173.3	0.061	346600	keystroke_r	r	n/a
173.571	0.06	347142	keystroke_u	u	n/a
173.855	0.061	347710	keystroke_Key.backspace	Key.backspace	n/a
174.081	0.0595	348162	keystroke_o	o	n/a
174.246	0.0595	348492	keystroke_u	u	n/a
174.3055	0.075	348611	keystroke_g	g	n/a
174.456	0.0895	348912	keystroke_e	e	n/a
174.5605	0.045	349121	keystroke_Key.space	Key.space	n/a
174.711	0.075	349422	keystroke_l	l	n/a
174.875	0.061	349750	keystroke_i	i	n/a
174.921	0.06	349842	keystroke_s	s	n/a
175.086	0.075	350172	keystroke_t	t	n/a
175.176	0.045	350352	keystroke_i	i	n/a
175.326	0.06	350652	keystroke_n	n	n/a
175.4305	0.03	350861	keystroke_g	g	n/a
175.5205	0.0895	351041	keystroke_s	s	n/a
175.596	0.074	351192	keystroke_Key.space	Key.space	n/a
175.775	0.075	351550	keystroke_s	s	n/a
175.836	0.075	351672	keystroke_p	p	n/a
175.956	0.075	351912	keystroke_e	e	n/a
176.1655	0.0755	352331	keystroke_c	c	n/a
176.226	0.06	352452	keystroke_i	i	n/a
176.346	0.075	352692	keystroke_a	a	n/a
176.421	0.075	352842	keystroke_l	l	n/a
176.646	0.045	353292	keystroke_Key.enter	Key.enter	n/a
176.6965	5.7855	353393	prompt	n/a	menu contractors cultures normal\n
177.276	0.075	354552	keystroke_m	m	n/a
177.321	0.089	354642	keystroke_e	e	n/a
177.4705	0.075	354941	keystroke_n	n	n/a
177.665	0.0605	355330	keystroke_u	u	n/a
177.801	0.1045	355602	keystroke_Key.space	Key.space	n/a
177.9655	0.09	355931	keystroke_c	c	n/a
178.0255	0.0605	356051	keystroke_o	o	n/a
178.205	0.046	356410	keystroke_n	n	n/a
178.266	0.059	356532	keystroke_t	t	n/a
178.431	0.06	356862	keystroke_r	r	n/a
178.5505	0.0905	357101	keystroke_a	a	n/a
178.8955	0.0605	357791	keystroke_c	c	n/a
179.1355	0.06	358271	keystroke_t	t	n/a
179.2405	0.075	358481	keystroke_o	o	n/a
179.3455	0.0605	358691	keystroke_r	r	n/a
179.5405	0.0305	359081	keystroke_s	s	n/a
179.586	0.0595	359172	keystroke_Key.space	Key.space	n/a
179.706	0.06	359412	keystroke_c	c	n/a
179.7805	0.0455	359561	keystroke_u	u	n/a
179.946	0.0745	359892	keystroke_l	l	n/a
180.1405	0.06	360281	keystroke_u	u	n/a
180.4705	0.045	360941	keystroke_Key.backspace	Key.backspace	n/a
180.591	0.0595	361182	keystroke_t	t	n/a
180.741	0.044	361482	keystroke_u	u	n/a
180.846	0.075	361692	keystroke_r	r	n/a
181.0405	0.0905	362081	keystroke_e	e	n/a
181.281	0.0745	362562	keystroke_s	s	n/a
181.356	0.0445	362712	keystroke_Key.space	Key.space	n/a
181.521	0.0445	363042	keystroke_n	n	n/a
181.6855	0.06	363371	keystroke_o	o	n/a
181.761	0.0745	363522	keystroke_r	r	n/a
181.8505	0.075	363701	keystroke_m	m	n/a
181.9405	0.075	363881	keystroke_a	a	n/a
182.046	0.0595	364092	keystroke_l	l	n/a
182.435	0.0455	364870	keystroke_Key.enter	Key.enter	n/a
182.4855	5.112	364971	prompt	n/a	allied relates enclosed severe\n
183.111	0.1195	366222	keystroke_a	a	n/a
183.2005	0.0455	366401	keystroke_l	l	n/a
183.396	0.0145	366792	keystroke_l	l	n/a
183.816	0.0595	367632	keystroke_i	i	n/a
183.891	0.105	367782	keystroke_e	e	n/a
184.115	0.061	368230	keystroke_d	d	n/a
184.16	0.0755	368320	keystroke_Key.space	Key.space	n/a
184.3105	0.075	368621	keystroke_r	r	n/a
184.4155	0.105	368831	keystroke_e	e	n/a
184.5215	0.059	369043	keystroke_l	l	n/a
184.5955	0.0905	369191	keystroke_a	a	n/a
184.791	0.044	369582	keystroke_t	t	n/a
184.941	0.0745	369882	keystroke_e	e	n/a
185.2255	0.075	370451	keystroke_s	s	n/a
185.4055	0.06	370811	keystroke_Key.space	Key.space	n/a
185.6005	0.075	371201	keystroke_e	e	n/a
185.6905	0.045	371381	keystroke_n	n	n/a
185.826	0.0745	371652	keystroke_c	c	n/a
185.916	0.0445	371832	keystroke_l	l	n/a
186.0505	0.0605	372101	keystroke_o	o	n/a
186.126	0.06	372252	keystroke_s	s	n/a
186.3055	0.06	372611	keystroke_e	e	n/a
186.4705	0.0605	372941	keystroke_d	d	n/a
186.5455	0.06	373091	keystroke_Key.space	Key.space	n/a
186.6505	0.09	373301	keystroke_s	s	n/a
186.846	0.0745	373692	keystroke_e	e	n/a
186.9205	0.0755	373841	keystroke_v	v	n/a
187.0105	0.075	374021	keystroke_e	e	n/a
187.146	0.075	374292	keystroke_r	r	n/a
187.2655	0.0895	374531	keystroke_e	e	n/a
187.536	0.06	375072	keystroke_Key.enter	Key.enter	n/a
187.602	5.4855	375204	prompt	n/a	belkin rainbow jonathan connections\n
188.3155	0.06	376631	keystroke_b	b	n/a
188.4205	0.09	376841	keystroke_e	e	n/a
188.661	0.09	377322	keystroke_l	l	n/a
188.916	0.0745	377832	keystroke_k	k	n/a
189.1405	0.045	378281	keystroke_i	i	n/a
189.3355	0.0755	378671	keystroke_n	n	n/a
189.4705	0.075	378941	keystroke_Key.space	Key.space	n/a
189.576	0.075	379152	keystroke_r	r	n/a
189.711	0.09	379422	keystroke_a	a	n/a
189.755	0.061	379510	keystroke_i	i	n/a
189.905	0.076	379810	keystroke_n	n	n/a
190.01	0.0605	380020	keystroke_b	b	n/a
190.1	0.06	380200	keystroke_o	o	n/a
190.206	0.0745	380412	keystroke_w	w	n/a
190.2955	0.06	380591	keystroke_Key.space	Key.space	n/a
190.4605	0.0605	380921	keystroke_j	j	n/a
190.596	0.06	381192	keystroke_o	o	n/a
190.7455	0.075	381491	keystroke_n	n	n/a
190.791	0.0745	381582	keystroke_a	a	n/a
190.9405	0.105	381881	keystroke_t	t	n/a
191.0305	0.06	382061	keystroke_h	h	n/a
191.151	0.0745	382302	keystroke_a	a	n/a
191.211	0.0745	382422	keystroke_n	n	n/a
191.3455	0.09	382691	keystroke_Key.space	Key.space	n/a
191.5105	0.0755	383021	keystroke_c	c	n/a
191.5705	0.0605	383141	keystroke_o	o	n/a
191.751	0.045	383502	keystroke_n	n	n/a
191.856	0.075	383712	keystroke_n	n	n/a
191.886	0.09	383772	keystroke_e	e	n/a
192.141	0.045	384282	keystroke_c	c	n/a
192.336	0.0755	384672	keystroke_t	t	n/a
192.396	0.09	384792	keystroke_i	i	n/a
192.471	0.06	384942	keystroke_o	o	n/a
192.6515	0.059	385303	keystroke_n	n	n/a
192.6955	0.0755	385391	keystroke_s	s	n/a
193.026	0.0595	386052	keystroke_Key.enter	Key.enter	n/a
193.0915	7.6465	386183	prompt	n/a	amended stadium airlines themselves\n
193.6855	0.09	387371	keystroke_a	a	n/a
193.761	0.06	387522	keystroke_m	m	n/a
193.9405	0.06	387881	keystroke_n	n	n/a
194.436	0.044	388872	keystroke_Key.backspace	Key.backspace	n/a
194.586	0.09	389172	keystroke_e	e	n/a
194.705	0.061	389410	keystroke_n	n	n/a
194.871	0.075	389742	keystroke_d	d	n/a
195.0655	0.0755	390131	keystroke_e	e	n/a
195.2605	0.0605	390521	keystroke_d	d	n/a
195.3805	0.0755	390761	keystroke_Key.space	Key.space	n/a
195.576	0.0895	391152	keystroke_s	s	n/a
195.7555	0.0755	391511	keystroke_t	t	n/a
195.8905	0.0905	391781	keystroke_a	a	n/a
196.0255	0.075	392051	keystroke_d	d	n/a
196.0855	0.0755	392171	keystroke_i	i	n/a
196.2655	0.0455	392531	keystroke_u	u	n/a
196.431	0.06	392862	keystroke_m	m	n/a
196.551	0.075	393102	keystroke_Key.space	Key.space	n/a
196.641	0.075	393282	keystroke_a	a	n/a
196.73	0.046	393460	keystroke_i	i	n/a
196.791	0.074	393582	keystroke_r	r	n/a
196.925	0.076	393850	keystroke_l	l	n/a
197.121	0.045	394242	keystroke_i	i	n/a
197.2555	0.06	394511	keystroke_n	n	n/a
197.3005	0.061	394601	keystroke_e	e	n/a
197.466	0.0595	394932	keystroke_s	s	n/a
197.5105	0.075	395021	keystroke_Key.space	Key.space	n/a
197.646	0.075	395292	keystroke_t	t	n/a
197.7215	0.0595	395443	keystroke_h	h	n/a
197.8105	0.075	395621	keystroke_e	e	n/a
197.9005	0.09	395801	keystroke_m	m	n/a
198.2005	0.075	396401	keystroke_s	s	n/a
198.3205	0.0605	396641	keystroke_l	l	n/a
198.4255	0.06	396851	keystroke_e	e	n/a
198.6205	0.061	397241	keystroke_v	v	n/a
198.7855	0.075	397571	keystroke_e	e	n/a
199.0855	0.045	398171	keystroke_Key.backspace	Key.backspace	n/a
199.2365	0.044	398473	keystroke_Key.backspace	Key.backspace	n/a
199.386	0.059	398772	keystroke_Key.backspace	Key.backspace	n/a
199.565	0.0605	399130	keystroke_Key.backspace	Key.backspace	n/a
199.686	0.09	399372	keystroke_e	e	n/a
199.835	0.0755	399670	keystroke_l	l	n/a
199.941	0.0595	399882	keystroke_v	v	n/a
200.181	0.0745	400362	keystroke_e	e	n/a
200.3905	0.0605	400781	keystroke_s	s	n/a
200.6755	0.06	401351	keystroke_Key.enter	Key.enter	n/a
200.7425	6.13	401485	prompt	n/a	delay deluxe effective jake\n
201.3955	0.0905	402791	keystroke_d	d	n/a
201.6355	0.0755	403271	keystroke_e	e	n/a
201.7255	0.0905	403451	keystroke_l	l	n/a
201.861	0.0745	403722	keystroke_a	a	n/a
201.9805	0.0605	403961	keystroke_y	y	n/a
202.1155	0.0755	404231	keystroke_Key.space	Key.space	n/a
202.206	0.0595	404412	keystroke_d	d	n/a
202.3405	0.09	404681	keystroke_e	e	n/a
202.4155	0.075	404831	keystroke_l	l	n/a
202.596	0.06	405192	keystroke_u	u	n/a
202.761	0.0445	405522	keystroke_x	x	n/a
202.9555	0.0595	405911	keystroke_e	e	n/a
203.045	0.075	406090	keystroke_Key.space	Key.space	n/a
203.15	0.0605	406300	keystroke_e	e	n/a
203.3	0.075	406600	keystroke_f	f	n/a
203.436	0.0895	406872	keystroke_f	f	n/a
203.5855	0.075	407171	keystroke_e	e	n/a
204.0505	0.075	408101	keystroke_t	t	n/a
204.1555	0.075	408311	keystroke_i	i	n/a
204.336	0.0595	408672	keystroke_v	v	n/a
204.5755	0.0605	409151	keystroke_e	e	n/a
204.8755	0.045	409751	keystroke_Key.backspace	Key.backspace	n/a
205.0555	0.045	410111	keystroke_Key.backspace	Key.backspace	n/a
205.2055	0.045	410411	keystroke_Key.backspace	Key.backspace	n/a
205.37	0.03	410740	keystroke_Key.backspace	Key.backspace	n/a
205.596	0.06	411192	keystroke_c	c	n/a
205.8355	0.0605	411671	keystroke_t	t	n/a
205.91	0.061	411820	keystroke_i	i	n/a
206.046	0.075	412092	keystroke_v	v	n/a
206.196	0.06	412392	keystroke_e	e	n/a
206.241	0.074	412482	keystroke_Key.space	Key.space	n/a
206.375	0.061	412750	keystroke_j	j	n/a
206.437	0.073	412874	keystroke_a	a	n/a
206.556	0.0595	413112	keystroke_k	k	n/a
206.631	0.0595	413262	keystroke_e	e	n/a
206.811	0.0595	413622	keystroke_Key.enter	Key.enter	n/a
206.8775	4.6445	413755	prompt	n/a	henry consensus managers academics\n
207.5755	0.045	415151	keystroke_h	h	n/a
207.651	0.0895	415302	keystroke_e	e	n/a
207.7555	0.06	415511	keystroke_n	n	n/a
207.846	0.0745	415692	keystroke_r	r	n/a
207.95	0.045	415900	keystroke_y	y	n/a
208.0855	0.0595	416171	keystroke_Key.space	Key.space	n/a
208.2055	0.09	416411	keystroke_c	c	n/a
208.2805	0.0445	416561	keystroke_o	o	n/a
208.431	0.075	416862	keystroke_n	n	n/a
208.491	0.06	416982	keystroke_s	s	n/a
208.641	0.09	417282	keystroke_e	e	n/a
208.7155	0.0605	417431	keystroke_n	n	n/a
208.881	0.06	417762	keystroke_s	s	n/a
208.956	0.075	417912	keystroke_u	u	n/a
209.061	0.075	418122	keystroke_s	s	n/a
209.1655	0.0745	418331	keystroke_Key.space	Key.space	n/a
209.3305	0.06	418661	keystroke_m	m	n/a
209.391	0.0745	418782	keystroke_a	a	n/a
209.481	0.0595	418962	keystroke_n	n	n/a
209.5555	0.09	419111	keystroke_a	a	n/a
209.676	0.0595	419352	keystroke_g	g	n/a
209.766	0.0595	419532	keystroke_e	e	n/a
209.871	0.0895	419742	keystroke_r	r	n/a
210.0205	0.075	420041	keystroke_s	s	n/a
210.1105	0.0605	420221	keystroke_Key.space	Key.space	n/a
210.231	0.0595	420462	keystroke_a	a	n/a
210.3955	0.075	420791	keystroke_c	c	n/a
210.531	0.09	421062	keystroke_a	a	n/a
210.651	0.0895	421302	keystroke_d	d	n/a
210.786	0.09	421572	keystroke_e	e	n/a
210.861	0.06	421722	keystroke_m	m	n/a
211.041	0.045	422082	keystroke_i	i	n/a
211.101	0.06	422202	keystroke_c	c	n/a
211.251	0.0745	422502	keystroke_s	s	n/a
211.4605	0.06	422921	keystroke_Key.enter	Key.enter	n/a
211.5255	5.4565	423051	prompt	n/a	former cleveland declaration auburn\n
212.091	0.0895	424182	keystroke_f	f	n/a
212.1955	0.06	424391	keystroke_o	o	n/a
212.3005	0.045	424601	keystroke_r	r	n/a
212.3755	0.075	424751	keystroke_m	m	n/a
212.4205	0.0905	424841	keystroke_e	e	n/a
212.526	0.075	425052	keystroke_r	r	n/a
212.631	0.06	425262	keystroke_Key.space	Key.space	n/a
213.0055	0.09	426011	keystroke_c	c	n/a
213.1105	0.06	426221	keystroke_l	l	n/a
213.2155	0.06	426431	keystroke_e	e	n/a
213.3655	0.0455	426731	keystroke_v	v	n/a
213.425	0.075	426850	keystroke_e	e	n/a
213.5905	0.045	427181	keystroke_l	l	n/a
213.6955	0.0755	427391	keystroke_a	a	n/a
213.7855	0.075	427571	keystroke_n	n	n/a
213.876	0.0745	427752	keystroke_d	d	n/a
213.9655	0.0755	427931	keystroke_Key.space	Key.space	n/a
214.296	0.045	428592	keystroke_d	d	n/a
214.5655	0.1055	429131	keystroke_e	e	n/a
214.851	0.06	429702	keystroke_c	c	n/a
214.926	0.075	429852	keystroke_l	l	n/a
215.0455	0.06	430091	keystroke_a	a	n/a
215.181	0.0745	430362	keystroke_r	r	n/a
215.3005	0.09	430601	keystroke_a	a	n/a
215.4805	0.0755	430961	keystroke_t	t	n/a
215.5405	0.075	431081	keystroke_i	i	n/a
215.5855	0.1055	431171	keystroke_o	o	n/a
215.796	0.06	431592	keystroke_n	n	n/a
215.8855	0.09	431771	keystroke_Key.space	Key.space	n/a
215.9605	0.075	431921	keystroke_a	a	n/a
216.1255	0.06	432251	keystroke_u	u	n/a
216.3355	0.0755	432671	keystroke_b	b	n/a
216.426	0.06	432852	keystroke_u	u	n/a
216.531	0.075	433062	keystroke_r	r	n/a
216.621	0.06	433242	keystroke_n	n	n/a
216.9355	0.045	433871	keystroke_Key.enter	Key.enter	n/a
216.986	5.2165	433972	prompt	n/a	share regardless housewares homeless\n
217.5955	0.0905	435191	keystroke_s	s	n/a
217.716	0.06	435432	keystroke_h	h	n/a
217.791	0.09	435582	keystroke_a	a	n/a
217.911	0.105	435822	keystroke_r	r	n/a
218.016	0.09	436032	keystroke_e	e	n/a
218.12	0.075	436240	keystroke_Key.space	Key.space	n/a
218.226	0.09	436452	keystroke_r	r	n/a
218.331	0.075	436662	keystroke_e	e	n/a
218.526	0.06	437052	keystroke_g	g	n/a
218.661	0.09	437322	keystroke_a	a	n/a
218.781	0.075	437562	keystroke_r	r	n/a
218.9755	0.045	437951	keystroke_d	d	n/a
219.021	0.09	438042	keystroke_l	l	n/a
219.1405	0.0755	438281	keystroke_e	e	n/a
219.3205	0.06	438641	keystroke_s	s	n/a
219.4705	0.075	438941	keystroke_s	s	n/a
219.531	0.06	439062	keystroke_Key.space	Key.space	n/a
219.6355	0.0605	439271	keystroke_h	h	n/a
219.8005	0.045	439601	keystroke_o	o	n/a
219.9355	0.06	439871	keystroke_u	u	n/a
219.951	0.0595	439902	keystroke_s	s	n/a
220.0555	0.09	440111	keystroke_e	e	n/a
220.2205	0.09	440441	keystroke_w	w	n/a
220.3855	0.09	440771	keystroke_a	a	n/a
220.506	0.1045	441012	keystroke_r	r	n/a
220.626	0.09	441252	keystroke_e	e	n/a
220.836	0.0445	441672	keystroke_s	s	n/a
220.9105	0.075	441821	keystroke_Key.space	Key.space	n/a
221.061	0.06	442122	keystroke_h	h	n/a
221.21	0.061	442420	keystroke_o	o	n/a
221.361	0.0745	442722	keystroke_m	m	n/a
221.42	0.061	442840	keystroke_e	e	n/a
221.556	0.059	443112	keystroke_l	l	n/a
221.6455	0.075	443291	keystroke_e	e	n/a
221.871	0.06	443742	keystroke_s	s	n/a
222.006	0.06	444012	keystroke_s	s	n/a
222.156	0.044	444312	keystroke_Key.enter	Key.enter	n/a
222.2105	6.442	444421	prompt	n/a	achieved luxembourg sciences serve\n
222.741	0.075	445482	keystroke_a	a	n/a
222.921	0.06	445842	keystroke_c	c	n/a
222.951	0.06	445902	keystroke_h	h	n/a
223.0705	0.0605	446141	keystroke_i	i	n/a
223.1455	0.0755	446291	keystroke_e	e	n/a
223.266	0.06	446532	keystroke_v	v	n/a
223.311	0.1045	446622	keystroke_e	e	n/a
223.4905	0.1055	446981	keystroke_d	d	n/a
223.6255	0.045	447251	keystroke_Key.space	Key.space	n/a
223.761	0.06	447522	keystroke_l	l	n/a
223.9555	0.045	447911	keystroke_u	u	n/a
224.361	0.09	448722	keystroke_x	x	n/a
224.601	0.075	449202	keystroke_e	e	n/a
224.661	0.06	449322	keystroke_m	m	n/a
224.856	0.06	449712	keystroke_b	b	n/a
224.931	0.06	449862	keystroke_o	o	n/a
225.096	0.06	450192	keystroke_u	u	n/a
225.141	0.075	450282	keystroke_r	r	n/a
225.351	0.06	450702	keystroke_g	g	n/a
225.441	0.075	450882	keystroke_Key.space	Key.space	n/a
225.5755	0.076	451151	keystroke_s	s	n/a
225.741	0.0745	451482	keystroke_c	c	n/a
225.9665	0.0595	451933	keystroke_i	i	n/a
226.221	0.09	452442	keystroke_e	e	n/a
226.521	0.06	453042	keystroke_n	n	n/a
226.686	0.0445	453372	keystroke_c	c	n/a
226.896	0.0745	453792	keystroke_e	e	n/a
227.106	0.06	454212	keystroke_s	s	n/a
227.151	0.0745	454302	keystroke_Key.space	Key.space	n/a
227.256	0.0745	454512	keystroke_s	s	n/a
227.4505	0.0755	454901	keystroke_e	e	n/a
227.5105	0.09	455021	keystroke_r	r	n/a
227.616	0.06	455232	keystroke_v	v	n/a
227.766	0.0895	455532	keystroke_e	e	n/a
227.8705	0.105	455741	keystroke_r	r	n/a
228.3055	0.0605	456611	keystroke_Key.backspace	Key.backspace	n/a
228.591	0.06	457182	keystroke_Key.enter	Key.enter	n/a
228.6575	4.27	457315	prompt	n/a	cost costumes flour how're\n
229.2205	0.0905	458441	keystroke_c	c	n/a
229.3555	0.015	458711	keystroke_o	o	n/a
229.386	0.0745	458772	keystroke_s	s	n/a
229.5505	0.0905	459101	keystroke_t	t	n/a
229.6255	0.075	459251	keystroke_Key.space	Key.space	n/a
229.7605	0.075	459521	keystroke_c	c	n/a
229.8205	0.06	459641	keystroke_o	o	n/a
229.896	0.089	459792	keystroke_s	s	n/a
230.06	0.06	460120	keystroke_t	t	n/a
230.1055	0.0595	460211	keystroke_u	u	n/a
230.27	0.075	460540	keystroke_m	m	n/a
230.286	0.1045	460572	keystroke_e	e	n/a
230.511	0.074	461022	keystroke_Key.space	Key.space	n/a
230.9005	0.045	461801	keystroke_Key.backspace	Key.backspace	n/a
231.006	0.075	462012	keystroke_s	s	n/a
231.096	0.075	462192	keystroke_Key.space	Key.space	n/a
231.246	0.0745	462492	keystroke_f	f	n/a
231.306	0.06	462612	keystroke_l	l	n/a
231.4405	0.0605	462881	keystroke_o	o	n/a
231.5905	0.06	463181	keystroke_u	u	n/a
231.6515	0.074	463303	keystroke_r	r	n/a
231.7405	0.06	463481	keystroke_Key.space	Key.space	n/a
231.8455	0.0605	463691	keystroke_h	h	n/a
231.9955	0.0605	463991	keystroke_o	o	n/a
232.026	0.0745	464052	keystroke_w	w	n/a
232.236	0.06	464472	keystroke_'	'	n/a
232.476	0.06	464952	keystroke_r	r	n/a
232.595	0.075	465190	keystroke_e	e	n/a
232.865	0.06	465730	keystroke_Key.enter	Key.enter	n/a
232.932	4.1205	465864	prompt	n/a	donna unix biol radiation\n
233.796	0.06	467592	keystroke_d	d	n/a
233.841	0.045	467682	keystroke_o	o	n/a
234.021	0.0445	468042	keystroke_n	n	n/a
234.1405	0.075	468281	keystroke_n	n	n/a
234.186	0.09	468372	keystroke_a	a	n/a
234.306	0.0595	468612	keystroke_Key.space	Key.space	n/a
234.441	0.045	468882	keystroke_u	u	n/a
234.6055	0.0605	469211	keystroke_n	n	n/a
234.756	0.1045	469512	keystroke_i	i	n/a
234.785	0.09	469570	keystroke_x	x	n/a
234.9205	0.06	469841	keystroke_Key.space	Key.space	n/a
235.0705	0.06	470141	keystroke_b	b	n/a
235.1315	0.119	470263	keystroke_i	i	n/a
235.2055	0.0905	470411	keystroke_o	o	n/a
235.475	0.06	470950	keystroke_l	l	n/a
235.73	0.0755	471460	keystroke_Key.space	Key.space	n/a
235.986	0.0745	471972	keystroke_r	r	n/a
236.1355	0.105	472271	keystroke_a	a	n/a
236.2105	0.1195	472421	keystroke_d	d	n/a
236.315	0.06	472630	keystroke_i	i	n/a
236.39	0.09	472780	keystroke_a	a	n/a
236.5555	0.075	473111	keystroke_t	t	n/a
236.615	0.075	473230	keystroke_i	i	n/a
236.6455	0.075	473291	keystroke_o	o	n/a
236.811	0.0595	473622	keystroke_n	n	n/a
237.006	0.0445	474012	keystroke_Key.enter	Key.enter	n/a
237.0565	3.311	474113	prompt	n/a	rope villa sides greater\n
237.576	0.0745	475152	keystroke_r	r	n/a
237.666	0.1195	475332	keystroke_o	o	n/a
237.7555	0.09	475511	keystroke_p	p	n/a
237.861	0.0595	475722	keystroke_e	e	n/a
237.9655	0.09	475931	keystroke_Key.space	Key.space	n/a
238.1305	0.075	476261	keystroke_v	v	n/a
238.176	0.0595	476352	keystroke_i	i	n/a
238.356	0.0595	476712	keystroke_l	l	n/a
238.476	0.09	476952	keystroke_l	l	n/a
238.5505	0.0605	477101	keystroke_a	a	n/a
238.625	0.06	477250	keystroke_Key.space	Key.space	n/a
238.746	0.0595	477492	keystroke_s	s	n/a
238.791	0.0595	477582	keystroke_i	i	n/a
238.911	0.06	477822	keystroke_d	d	n/a
239.076	0.0595	478152	keystroke_e	e	n/a
239.2555	0.06	478511	keystroke_s	s	n/a
239.3005	0.075	478601	keystroke_Key.space	Key.space	n/a
239.451	0.0595	478902	keystroke_g	g	n/a
239.496	0.0745	478992	keystroke_r	r	n/a
239.5555	0.12	479111	keystroke_e	e	n/a
239.6905	0.1205	479381	keystroke_a	a	n/a
239.811	0.0745	479622	keystroke_t	t	n/a
239.916	0.09	479832	keystroke_e	e	n/a
240.0205	0.09	480041	keystroke_r	r	n/a
240.3055	0.06	480611	keystroke_Key.enter	Key.enter	n/a
240.3715	5.3955	480743	prompt	n/a	payday drag jamaica nervous\n
241.056	0.045	482112	keystroke_p	p	n/a
241.116	0.075	482232	keystroke_a	a	n/a
241.2655	0.0595	482531	keystroke_y	y	n/a
241.356	0.06	482712	keystroke_d	d	n/a
241.475	0.076	482950	keystroke_a	a	n/a
241.566	0.059	483132	keystroke_y	y	n/a
241.685	0.09	483370	keystroke_Key.space	Key.space	n/a
241.791	0.075	483582	keystroke_d	d	n/a
241.986	0.06	483972	keystroke_r	r	n/a
242.09	0.0905	484180	keystroke_a	a	n/a
242.151	0.0595	484302	keystroke_g	g	n/a
242.3305	0.075	484661	keystroke_Key.space	Key.space	n/a
243.095	0.046	486190	keystroke_j	j	n/a
243.156	0.089	486312	keystroke_a	a	n/a
243.276	0.075	486552	keystroke_m	m	n/a
243.41	0.061	486820	keystroke_a	a	n/a
243.6655	0.0605	487331	keystroke_i	i	n/a
243.8005	0.075	487601	keystroke_c	c	n/a
244.0105	0.075	488021	keystroke_a	a	n/a
244.356	0.0895	488712	keystroke_Key.space	Key.space	n/a
244.5805	0.0905	489161	keystroke_n	n	n/a
244.7005	0.09	489401	keystroke_e	e	n/a
244.836	0.09	489672	keystroke_r	r	n/a
245.075	0.061	490150	keystroke_v	v	n/a
245.106	0.06	490212	keystroke_o	o	n/a
245.286	0.0595	490572	keystroke_u	u	n/a
245.3605	0.09	490721	keystroke_s	s	n/a
245.691	0.0745	491382	keystroke_Key.enter	Key.enter	n/a
245.7715	4.871	491543	prompt	n/a	hero fusion revolution confused\n
246.456	0.075	492912	keystroke_h	h	n/a
246.546	0.0895	493092	keystroke_e	e	n/a
246.6655	0.0905	493331	keystroke_r	r	n/a
246.741	0.075	493482	keystroke_o	o	n/a
246.876	0.075	493752	keystroke_Key.space	Key.space	n/a
247.011	0.075	494022	keystroke_f	f	n/a
247.101	0.06	494202	keystroke_u	u	n/a
247.221	0.0895	494442	keystroke_s	s	n/a
247.3255	0.1055	494651	keystroke_i	i	n/a
247.386	0.075	494772	keystroke_o	o	n/a
247.5955	0.0755	495191	keystroke_n	n	n/a
247.716	0.0745	495432	keystroke_Key.space	Key.space	n/a
247.836	0.06	495672	keystroke_r	r	n/a
247.926	0.0745	495852	keystroke_e	e	n/a
248.1355	0.06	496271	keystroke_v	v	n/a
248.5105	0.045	497021	keystroke_o	o	n/a
248.6765	0.0745	497353	keystroke_l	l	n/a
248.901	0.06	497802	keystroke_u	u	n/a
249.081	0.0595	498162	keystroke_t	t	n/a
249.126	0.12	498252	keystroke_i	i	n/a
249.216	0.074	498432	keystroke_o	o	n/a
249.41	0.046	498820	keystroke_n	n	n/a
249.515	0.075	499030	keystroke_Key.space	Key.space	n/a
249.6215	0.0745	499243	keystroke_c	c	n/a
249.681	0.06	499362	keystroke_o	o	n/a
249.8455	0.06	499691	keystroke_n	n	n/a
249.891	0.1045	499782	keystroke_f	f	n/a
250.0255	0.0605	500051	keystroke_u	u	n/a
250.086	0.075	500172	keystroke_s	s	n/a
250.2205	0.1055	500441	keystroke_e	e	n/a
250.4165	0.0745	500833	keystroke_d	d	n/a
250.566	0.075	501132	keystroke_Key.enter	Key.enter	n/a
250.646	6.7165	501292	prompt	n/a	flags discussion conceptual essence\n
251.301	0.0895	502602	keystroke_f	f	n/a
251.406	0.045	502812	keystroke_l	l	n/a
251.4655	0.1355	502931	keystroke_a	a	n/a
251.5415	0.074	503083	keystroke_s	s	n/a
252.156	0.06	504312	keystroke_Key.backspace	Key.backspace	n/a
252.305	0.075	504610	keystroke_g	g	n/a
252.471	0.09	504942	keystroke_s	s	n/a
252.5755	0.075	505151	keystroke_Key.space	Key.space	n/a
252.6805	0.0755	505361	keystroke_d	d	n/a
252.771	0.075	505542	keystroke_i	i	n/a
252.831	0.06	505662	keystroke_s	s	n/a
252.996	0.0745	505992	keystroke_c	c	n/a
253.056	0.045	506112	keystroke_u	u	n/a
253.146	0.0745	506292	keystroke_s	s	n/a
253.3105	0.0455	506621	keystroke_s	s	n/a
253.371	0.09	506742	keystroke_i	i	n/a
253.4305	0.09	506861	keystroke_o	o	n/a
253.6255	0.06	507251	keystroke_n	n	n/a
253.7305	0.09	507461	keystroke_Key.space	Key.space	n/a
253.8505	0.0455	507701	keystroke_c	c	n/a
253.896	0.0595	507792	keystroke_o	o	n/a
254.0605	0.06	508121	keystroke_n	n	n/a
254.091	0.0895	508182	keystroke_c	c	n/a
254.2705	0.0755	508541	keystroke_e	e	n/a
254.3605	0.0455	508721	keystroke_p	p	n/a
254.466	0.075	508932	keystroke_t	t	n/a
254.556	0.0595	509112	keystroke_u	u	n/a
254.6605	0.0755	509321	keystroke_a	a	n/a
254.751	0.06	509502	keystroke_l	l	n/a
254.856	0.0745	509712	keystroke_Key.space	Key.space	n/a
254.9155	0.075	509831	keystroke_e	e	n/a
255.111	0.0595	510222	keystroke_s	s	n/a
255.5605	0.075	511121	keystroke_s	s	n/a
255.8005	0.06	511601	keystroke_e	e	n/a
255.8755	0.0605	511751	keystroke_n	n	n/a
256.0555	0.0755	512111	keystroke_s	s	n/a
256.521	0.06	513042	keystroke_Key.backspace	Key.backspace	n/a
256.716	0.09	513432	keystroke_c	c	n/a
256.956	0.045	513912	keystroke_e	e	n/a
257.286	0.075	514572	keystroke_Key.enter	Key.enter	n/a
257.367	4.136	514734	prompt	n/a	supposed favors iran colors\n
257.9755	0.0895	515951	keystroke_s	s	n/a
258.08	0.0455	516160	keystroke_u	u	n/a
258.246	0.06	516492	keystroke_p	p	n/a
258.411	0.1345	516822	keystroke_p	p	n/a
258.4855	0.09	516971	keystroke_o	o	n/a
258.6955	0.0905	517391	keystroke_s	s	n/a
258.9055	0.09	517811	keystroke_e	e	n/a
259.1005	0.06	518201	keystroke_d	d	n/a
259.1755	0.06	518351	keystroke_Key.space	Key.space	n/a
259.2805	0.0605	518561	keystroke_f	f	n/a
259.4155	0.06	518831	keystroke_a	a	n/a
259.5655	0.0755	519131	keystroke_v	v	n/a
259.6705	0.06	519341	keystroke_o	o	n/a
259.7605	0.045	519521	keystroke_r	r	n/a
259.9105	0.0755	519821	keystroke_s	s	n/a
259.9705	0.06	519941	keystroke_Key.space	Key.space	n/a
260.0755	0.0605	520151	keystroke_i	i	n/a
260.151	0.0595	520302	keystroke_r	r	n/a
260.2855	0.0755	520571	keystroke_a	a	n/a
260.376	0.045	520752	keystroke_n	n	n/a
260.481	0.0895	520962	keystroke_Key.space	Key.space	n/a
260.6005	0.0755	521201	keystroke_c	c	n/a
260.676	0.075	521352	keystroke_o	o	n/a
260.8105	0.09	521621	keystroke_l	l	n/a
260.9755	0.075	521951	keystroke_o	o	n/a
261.0205	0.1055	522041	keystroke_r	r	n/a
261.171	0.105	522342	keystroke_s	s	n/a
261.4105	0.09	522821	keystroke_Key.enter	Key.enter	n/a
261.5065	5.936	523013	prompt	n/a	zones selected everyone shareware\n
262.2505	0.0605	524501	keystroke_o	o	n/a
262.581	0.0445	525162	keystroke_Key.backspace	Key.backspace	n/a
262.7005	0.075	525401	keystroke_z	z	n/a
262.791	0.0595	525582	keystroke_o	o	n/a
262.9705	0.045	525941	keystroke_n	n	n/a
263.0165	0.089	526033	keystroke_e	e	n/a
263.2105	0.0755	526421	keystroke_s	s	n/a
263.2865	0.059	526573	keystroke_Key.space	Key.space	n/a
263.376	0.0895	526752	keystroke_s	s	n/a
263.5855	0.075	527171	keystroke_e	e	n/a
263.6755	0.0605	527351	keystroke_l	l	n/a
263.7805	0.075	527561	keystroke_e	e	n/a
264.006	0.06	528012	keystroke_c	c	n/a
264.216	0.06	528432	keystroke_t	t	n/a
264.351	0.075	528702	keystroke_e	e	n/a
264.516	0.075	529032	keystroke_d	d	n/a
264.606	0.06	529212	keystroke_Key.space	Key.space	n/a
264.711	0.0745	529422	keystroke_e	e	n/a
264.816	0.06	529632	keystroke_v	v	n/a
264.861	0.105	529722	keystroke_e	e	n/a
264.981	0.09	529962	keystroke_r	r	n/a
265.086	0.06	530172	keystroke_y	y	n/a
265.266	0.03	530532	keystroke_o	o	n/a
265.4155	0.0745	530831	keystroke_n	n	n/a
265.475	0.046	530950	keystroke_e	e	n/a
265.55	0.076	531100	keystroke_Key.space	Key.space	n/a
265.611	0.0595	531222	keystroke_w	w	n/a
266.031	0.06	532062	keystroke_Key.backspace	Key.backspace	n/a
266.1515	0.0745	532303	keystroke_s	s	n/a
266.2555	0.06	532511	keystroke_h	h	n/a
266.331	0.074	532662	keystroke_a	a	n/a
266.4365	0.1045	532873	keystroke_r	r	n/a
266.511	0.105	533022	keystroke_e	e	n/a
266.705	0.091	533410	keystroke_w	w	n/a
266.901	0.105	533802	keystroke_a	a	n/a
267.021	0.105	534042	keystroke_r	r	n/a
267.096	0.105	534192	keystroke_e	e	n/a
267.365	0.075	534730	keystroke_Key.enter	Key.enter	n/a
267.446	4.977	534892	prompt	n/a	grad oxygen festival reasonably\n
268.221	0.044	536442	keystroke_g	g	n/a
268.281	0.045	536562	keystroke_r	r	n/a
268.385	0.136	536770	keystroke_a	a	n/a
268.506	0.105	537012	keystroke_d	d	n/a
268.566	0.06	537132	keystroke_Key.space	Key.space	n/a
269.0305	0.075	538061	keystroke_o	o	n/a
269.181	0.075	538362	keystroke_x	x	n/a
269.2855	0.06	538571	keystroke_y	y	n/a
269.496	0.0755	538992	keystroke_g	g	n/a
269.6605	0.06	539321	keystroke_e	e	n/a
269.7055	0.0755	539411	keystroke_n	n	n/a
269.8105	0.09	539621	keystroke_Key.space	Key.space	n/a
269.8705	0.075	539741	keystroke_f	f	n/a
270.0355	0.06	540071	keystroke_e	e	n/a
270.2005	0.075	540401	keystroke_s	s	n/a
270.3955	0.075	540791	keystroke_t	t	n/a
270.4555	0.075	540911	keystroke_i	i	n/a
270.5905	0.06	541181	keystroke_v	v	n/a
270.7105	0.075	541421	keystroke_a	a	n/a
270.7555	0.0905	541511	keystroke_l	l	n/a
270.906	0.0595	541812	keystroke_Key.space	Key.space	n/a
271.011	0.0595	542022	keystroke_r	r	n/a
271.1005	0.0905	542201	keystroke_e	e	n/a
271.2955	0.0905	542591	keystroke_a	a	n/a
271.3405	0.1355	542681	keystroke_s	s	n/a
271.4605	0.0455	542921	keystroke_o	o	n/a
271.6255	0.0605	543251	keystroke_n	n	n/a
271.6865	0.074	543373	keystroke_a	a	n/a
271.8355	0.075	543671	keystroke_b	b	n/a
271.9255	0.075	543851	keystroke_l	l	n/a
272.121	0.06	544242	keystroke_y	y	n/a
272.3605	0.0605	544721	keystroke_Key.enter	Key.enter	n/a
272.4275	4.8095	544855	prompt	n/a	moral verde knock automated\n
272.9905	0.06	545981	keystroke_m	m	n/a
273.201	0.03	546402	keystroke_o	o	n/a
273.2155	0.0605	546431	keystroke_r	r	n/a
273.3355	0.1055	546671	keystroke_a	a	n/a
273.396	0.0895	546792	keystroke_l	l	n/a
273.5455	0.0755	547091	keystroke_Key.space	Key.space	n/a
273.8755	0.045	547751	keystroke_v	v	n/a
274.041	0.09	548082	keystroke_e	e	n/a
274.1605	0.09	548321	keystroke_r	r	n/a
274.3855	0.1205	548771	keystroke_d	d	n/a
274.611	0.0895	549222	keystroke_e	e	n/a
274.715	0.045	549430	keystroke_Key.space	Key.space	n/a
274.866	0.06	549732	keystroke_k	k	n/a
275.016	0.06	550032	keystroke_n	n	n/a
275.1805	0.045	550361	keystroke_o	o	n/a
275.256	0.0745	550512	keystroke_c	c	n/a
275.346	0.06	550692	keystroke_k	k	n/a
275.4505	0.0755	550901	keystroke_Key.space	Key.space	n/a
275.5705	0.0905	551141	keystroke_a	a	n/a
275.6455	0.0605	551291	keystroke_u	u	n/a
275.7655	0.0755	551531	keystroke_t	t	n/a
275.8255	0.0455	551651	keystroke_o	o	n/a
275.9755	0.06	551951	keystroke_m	m	n/a
276.336	0.09	552672	keystroke_a	a	n/a
276.5455	0.0755	553091	keystroke_t	t	n/a
276.7105	0.0745	553421	keystroke_e	e	n/a
276.906	0.059	553812	keystroke_d	d	n/a
277.175	0.06	554350	keystroke_Key.enter	Key.enter	n/a
277.2395	5.0675	554479	prompt	n/a	tamil matched payday readings\n
277.805	0.091	555610	keystroke_t	t	n/a
277.971	0.074	555942	keystroke_a	a	n/a
278.03	0.076	556060	keystroke_m	m	n/a
278.241	0.029	556482	keystroke_i	i	n/a
278.405	0.076	556810	keystroke_l	l	n/a
278.54	0.075	557080	keystroke_Key.space	Key.space	n/a
278.676	0.0895	557352	keystroke_m	m	n/a
278.721	0.09	557442	keystroke_a	a	n/a
278.8855	0.075	557771	keystroke_t	t	n/a
279.0955	0.075	558191	keystroke_c	c	n/a
279.186	0.075	558372	keystroke_h	h	n/a
279.366	0.09	558732	keystroke_e	e	n/a
279.636	0.105	559272	keystroke_d	d	n/a
279.9955	0.0905	559991	keystroke_Key.space	Key.space	n/a
280.2055	0.075	560411	keystroke_p	p	n/a
280.341	0.074	560682	keystroke_a	a	n/a
280.445	0.061	560890	keystroke_y	y	n/a
280.565	0.06	561130	keystroke_d	d	n/a
280.671	0.1045	561342	keystroke_a	a	n/a
280.7605	0.06	561521	keystroke_y	y	n/a
280.8955	0.06	561791	keystroke_Key.space	Key.space	n/a
280.986	0.0895	561972	keystroke_r	r	n/a
281.0905	0.0905	562181	keystroke_e	e	n/a
281.1955	0.1655	562391	keystroke_a	a	n/a
281.3455	0.1205	562691	keystroke_d	d	n/a
281.496	0.06	562992	keystroke_i	i	n/a
281.676	0.06	563352	keystroke_n	n	n/a
281.706	0.0895	563412	keystroke_g	g	n/a
281.856	0.0895	563712	keystroke_s	s	n/a
282.231	0.0745	564462	keystroke_Key.enter	Key.enter	n/a
282.314	3.9385	564628	prompt	n/a	pending slovenia singh font\n
282.9505	0.045	565901	keystroke_p	p	n/a
283.0255	0.0905	566051	keystroke_e	e	n/a
283.13	0.0605	566260	keystroke_n	n	n/a
283.236	0.0895	566472	keystroke_d	d	n/a
283.31	0.06	566620	keystroke_i	i	n/a
283.475	0.0605	566950	keystroke_n	n	n/a
283.5205	0.0755	567041	keystroke_g	g	n/a
283.6105	0.06	567221	keystroke_Key.space	Key.space	n/a
283.73	0.106	567460	keystroke_s	s	n/a
283.85	0.061	567700	keystroke_l	l	n/a
284.001	0.059	568002	keystroke_o	o	n/a
284.105	0.076	568210	keystroke_v	v	n/a
284.301	0.075	568602	keystroke_e	e	n/a
284.361	0.06	568722	keystroke_n	n	n/a
284.511	0.06	569022	keystroke_i	i	n/a
284.586	0.059	569172	keystroke_a	a	n/a
284.66	0.091	569320	keystroke_Key.space	Key.space	n/a
284.766	0.104	569532	keystroke_s	s	n/a
284.886	0.06	569772	keystroke_i	i	n/a
285.096	0.06	570192	keystroke_n	n	n/a
285.216	0.074	570432	keystroke_g	g	n/a
285.366	0.06	570732	keystroke_h	h	n/a
285.53	0.076	571060	keystroke_Key.space	Key.space	n/a
285.7405	0.075	571481	keystroke_f	f	n/a
285.801	0.0445	571602	keystroke_o	o	n/a
285.9505	0.0605	571901	keystroke_n	n	n/a
286.041	0.0895	572082	keystroke_t	t	n/a
286.1905	0.06	572381	keystroke_Key.enter	Key.enter	n/a
286.2565	3.9705	572513	prompt	n/a	easier milk positive refer\n
286.7905	0.0745	573581	keystroke_e	e	n/a
286.925	0.165	573850	keystroke_a	a	n/a
287	0.1355	574000	keystroke_s	s	n/a
287.121	0.0595	574242	keystroke_i	i	n/a
287.2105	0.12	574421	keystroke_e	e	n/a
287.2855	0.1205	574571	keystroke_r	r	n/a
287.4205	0.06	574841	keystroke_Key.space	Key.space	n/a
287.5855	0.0605	575171	keystroke_m	m	n/a
287.7655	0.045	575531	keystroke_i	i	n/a
287.931	0.0445	575862	keystroke_l	l	n/a
288.0655	0.0905	576131	keystroke_k	k	n/a
288.2005	0.0755	576401	keystroke_Key.space	Key.space	n/a
288.336	0.135	576672	keystroke_p	p	n/a
288.4255	0.075	576851	keystroke_o	o	n/a
288.4855	0.09	576971	keystroke_s	s	n/a
288.621	0.06	577242	keystroke_i	i	n/a
288.695	0.075	577390	keystroke_t	t	n/a
288.785	0.061	577570	keystroke_i	i	n/a
288.905	0.075	577810	keystroke_v	v	n/a
289.055	0.091	578110	keystroke_e	e	n/a
289.131	0.074	578262	keystroke_Key.space	Key.space	n/a
289.265	0.0455	578530	keystroke_r	r	n/a
289.595	0.075	579190	keystroke_e	e	n/a
289.7605	0.0905	579521	keystroke_f	f	n/a
289.881	0.09	579762	keystroke_e	e	n/a
289.986	0.09	579972	keystroke_r	r	n/a
290.151	0.075	580302	keystroke_Key.enter	Key.enter	n/a
290.231	4.166	580462	prompt	n/a	arrange graduated brand instead\n
290.841	0.0895	581682	keystroke_a	a	n/a
291.0205	0.075	582041	keystroke_r	r	n/a
291.156	0.074	582312	keystroke_r	r	n/a
291.2455	0.1205	582491	keystroke_a	a	n/a
291.32	0.0905	582640	keystroke_n	n	n/a
291.5005	0.06	583001	keystroke_g	g	n/a
291.5455	0.09	583091	keystroke_e	e	n/a
291.6505	0.0605	583301	keystroke_Key.space	Key.space	n/a
291.7855	0.06	583571	keystroke_g	g	n/a
291.8155	0.09	583631	keystroke_r	r	n/a
291.9505	0.0905	583901	keystroke_a	a	n/a
292.071	0.1045	584142	keystroke_d	d	n/a
292.1605	0.06	584321	keystroke_u	u	n/a
292.236	0.0895	584472	keystroke_a	a	n/a
292.4005	0.075	584801	keystroke_t	t	n/a
292.536	0.0895	585072	keystroke_e	e	n/a
292.7005	0.09	585401	keystroke_d	d	n/a
292.7755	0.06	585551	keystroke_Key.space	Key.space	n/a
292.9105	0.0605	585821	keystroke_b	b	n/a
292.9555	0.075	585911	keystroke_r	r	n/a
293.0605	0.105	586121	keystroke_a	a	n/a
293.1355	0.075	586271	keystroke_n	n	n/a
293.2555	0.1055	586511	keystroke_d	d	n/a
293.361	0.0595	586722	keystroke_Key.space	Key.space	n/a
293.4955	0.045	586991	keystroke_i	i	n/a
293.6455	0.06	587291	keystroke_n	n	n/a
293.6755	0.075	587351	keystroke_s	s	n/a
293.7955	0.09	587591	keystroke_t	t	n/a
293.931	0.0895	587862	keystroke_e	e	n/a
294.0355	0.12	588071	keystroke_a	a	n/a
294.1105	0.12	588221	keystroke_d	d	n/a
294.3355	0.0595	588671	keystroke_Key.enter	Key.enter	n/a
294.4015	3.7305	588803	prompt	n/a	marine kenny advantages each\n
294.9505	0.075	589901	keystroke_m	m	n/a
295.0105	0.075	590021	keystroke_a	a	n/a
295.0855	0.075	590171	keystroke_r	r	n/a
295.1755	0.06	590351	keystroke_i	i	n/a
295.3405	0.06	590681	keystroke_n	n	n/a
295.3855	0.075	590771	keystroke_e	e	n/a
295.4455	0.06	590891	keystroke_Key.space	Key.space	n/a
295.5505	0.06	591101	keystroke_k	k	n/a
295.6255	0.09	591251	keystroke_e	e	n/a
295.731	0.0295	591462	keystroke_n	n	n/a
295.8205	0.0905	591641	keystroke_n	n	n/a
295.911	0.0595	591822	keystroke_y	y	n/a
296.0005	0.075	592001	keystroke_Key.space	Key.space	n/a
296.1655	0.105	592331	keystroke_a	a	n/a
296.2555	0.105	592511	keystroke_d	d	n/a
296.5255	0.075	593051	keystroke_v	v	n/a
296.6455	0.1045	593291	keystroke_a	a	n/a
296.765	0.045	593530	keystroke_n	n	n/a
296.8555	0.0605	593711	keystroke_t	t	n/a
296.96	0.105	593920	keystroke_a	a	n/a
297.08	0.045	594160	keystroke_g	g	n/a
297.14	0.105	594280	keystroke_e	e	n/a
297.32	0.075	594640	keystroke_s	s	n/a
297.38	0.0755	594760	keystroke_Key.space	Key.space	n/a
297.515	0.06	595030	keystroke_e	e	n/a
297.605	0.105	595210	keystroke_a	a	n/a
297.77	0.0905	595540	keystroke_c	c	n/a
297.8455	0.075	595691	keystroke_h	h	n/a
298.07	0.06	596140	keystroke_Key.enter	Key.enter	n/a
298.1365	5.455	596273	prompt	n/a	fraction roommates suspended routine\n
298.7455	0.075	597491	keystroke_f	f	n/a
298.986	0.0595	597972	keystroke_r	r	n/a
299.1355	0.075	598271	keystroke_a	a	n/a
299.2855	0.09	598571	keystroke_c	c	n/a
299.5255	0.06	599051	keystroke_t	t	n/a
299.555	0.1055	599110	keystroke_i	i	n/a
299.6305	0.075	599261	keystroke_o	o	n/a
299.81	0.0755	599620	keystroke_n	n	n/a
299.9305	0.0745	599861	keystroke_Key.space	Key.space	n/a
300.02	0.09	600040	keystroke_r	r	n/a
300.095	0.075	600190	keystroke_o	o	n/a
300.23	0.06	600460	keystroke_o	o	n/a
300.425	0.0755	600850	keystroke_m	m	n/a
300.575	0.06	601150	keystroke_m	m	n/a
300.785	0.075	601570	keystroke_a	a	n/a
301.01	0.0455	602020	keystroke_t	t	n/a
301.1305	0.089	602261	keystroke_e	e	n/a
301.3545	0.0605	602709	keystroke_s	s	n/a
301.43	0.06	602860	keystroke_Key.space	Key.space	n/a
301.535	0.06	603070	keystroke_s	s	n/a
301.64	0.045	603280	keystroke_u	u	n/a
301.7	0.0605	603400	keystroke_s	s	n/a
301.8055	0.0745	603611	keystroke_p	p	n/a
301.9105	0.0745	603821	keystroke_e	e	n/a
302.015	0.06	604030	keystroke_n	n	n/a
302.105	0.0755	604210	keystroke_d	d	n/a
302.27	0.0895	604540	keystroke_e	e	n/a
302.4645	0.076	604929	keystroke_d	d	n/a
302.4945	0.061	604989	keystroke_Key.space	Key.space	n/a
302.6455	0.059	605291	keystroke_r	r	n/a
302.69	0.0595	605380	keystroke_o	o	n/a
302.8545	0.045	605709	keystroke_u	u	n/a
302.915	0.0745	605830	keystroke_t	t	n/a
303.0045	0.076	606009	keystroke_i	i	n/a
303.17	0.0755	606340	keystroke_n	n	n/a
303.2605	0.045	606521	keystroke_e	e	n/a
303.5455	0.0445	607091	keystroke_Key.enter	Key.enter	n/a
303.596	4.3605	607192	prompt	n/a	successful list produces varied\n
304.1305	0.105	608261	keystroke_s	s	n/a
304.265	0.06	608530	keystroke_u	u	n/a
304.34	0.075	608680	keystroke_c	c	n/a
304.49	0.06	608980	keystroke_c	c	n/a
304.67	0.06	609340	keystroke_e	e	n/a
304.805	0.105	609610	keystroke_s	s	n/a
305	0.0755	610000	keystroke_s	s	n/a
305.135	0.075	610270	keystroke_f	f	n/a
305.195	0.0605	610390	keystroke_u	u	n/a
305.3905	0.0595	610781	keystroke_l	l	n/a
305.51	0.06	611020	keystroke_Key.space	Key.space	n/a
305.6305	0.06	611261	keystroke_l	l	n/a
305.7805	0.0595	611561	keystroke_i	i	n/a
305.81	0.075	611620	keystroke_s	s	n/a
305.975	0.075	611950	keystroke_t	t	n/a
306.005	0.075	612010	keystroke_Key.space	Key.space	n/a
306.125	0.0755	612250	keystroke_p	p	n/a
306.215	0.0755	612430	keystroke_r	r	n/a
306.305	0.045	612610	keystroke_o	o	n/a
306.4095	0.045	612819	keystroke_d	d	n/a
306.4695	0.0605	612939	keystroke_u	u	n/a
306.59	0.0755	613180	keystroke_c	c	n/a
306.77	0.06	613540	keystroke_e	e	n/a
306.9355	0.06	613871	keystroke_s	s	n/a
306.9805	0.0745	613961	keystroke_Key.space	Key.space	n/a
307.1005	0.0895	614201	keystroke_v	v	n/a
307.265	0.0455	614530	keystroke_a	a	n/a
307.37	0.0755	614740	keystroke_r	r	n/a
307.4595	0.061	614919	keystroke_i	i	n/a
307.5355	0.0895	615071	keystroke_e	e	n/a
307.73	0.0595	615460	keystroke_d	d	n/a
307.9095	0.0455	615819	keystroke_Key.enter	Key.enter	n/a
307.9605	3.866	615921	prompt	n/a	twin juan data replication\n
308.57	0.0455	617140	keystroke_t	t	n/a
308.705	0.075	617410	keystroke_w	w	n/a
308.765	0.06	617530	keystroke_i	i	n/a
308.93	0.0605	617860	keystroke_n	n	n/a
309.0345	0.075	618069	keystroke_Key.space	Key.space	n/a
309.14	0.0745	618280	keystroke_j	j	n/a
309.2905	0.06	618581	keystroke_u	u	n/a
309.3795	0.091	618759	keystroke_a	a	n/a
309.4705	0.074	618941	keystroke_n	n	n/a
309.5745	0.075	619149	keystroke_Key.space	Key.space	n/a
309.665	0.0755	619330	keystroke_d	d	n/a
309.7845	0.09	619569	keystroke_a	a	n/a
310.0395	0.015	620079	keystroke_t	t	n/a
310.1155	0.075	620231	keystroke_a	a	n/a
310.1905	0.075	620381	keystroke_Key.space	Key.space	n/a
310.2955	0.075	620591	keystroke_r	r	n/a
310.4005	0.09	620801	keystroke_e	e	n/a
310.4755	0.0595	620951	keystroke_p	p	n/a
310.6395	0.046	621279	keystroke_l	l	n/a
310.76	0.075	621520	keystroke_i	i	n/a
310.8205	0.075	621641	keystroke_c	c	n/a
311	0.0445	622000	keystroke_a	a	n/a
311.165	0.06	622330	keystroke_t	t	n/a
311.18	0.12	622360	keystroke_i	i	n/a
311.255	0.09	622510	keystroke_o	o	n/a
311.495	0.06	622990	keystroke_n	n	n/a
311.765	0.06	623530	keystroke_Key.enter	Key.enter	n/a
311.83	3.6425	623660	prompt	n/a	wifi turned abroad used\n
312.575	0.09	625150	keystroke_w	w	n/a
312.68	0.0605	625360	keystroke_i	i	n/a
312.8	0.075	625600	keystroke_f	f	n/a
312.875	0.075	625750	keystroke_i	i	n/a
313.025	0.0745	626050	keystroke_Key.space	Key.space	n/a
313.1295	0.075	626259	keystroke_t	t	n/a
313.2345	0.06	626469	keystroke_u	u	n/a
313.355	0.0455	626710	keystroke_r	r	n/a
313.4145	0.075	626829	keystroke_n	n	n/a
313.5045	0.09	627009	keystroke_e	e	n/a
313.6995	0.0605	627399	keystroke_d	d	n/a
313.715	0.09	627430	keystroke_Key.space	Key.space	n/a
313.895	0.0745	627790	keystroke_a	a	n/a
313.9555	0.074	627911	keystroke_b	b	n/a
314.0895	0.0905	628179	keystroke_r	r	n/a
314.1955	0.059	628391	keystroke_o	o	n/a
314.3305	0.089	628661	keystroke_a	a	n/a
314.4645	0.106	628929	keystroke_d	d	n/a
314.6155	0.0895	629231	keystroke_Key.space	Key.space	n/a
314.8695	0.045	629739	keystroke_u	u	n/a
314.93	0.0745	629860	keystroke_s	s	n/a
315.08	0.0895	630160	keystroke_e	e	n/a
315.2595	0.1055	630519	keystroke_d	d	n/a
315.41	0.0595	630820	keystroke_Key.enter	Key.enter	n/a
315.476	5.966	630952	prompt	n/a	characterized press pack magnitude\n
316.116	0.074	632232	keystroke_c	c	n/a
316.175	0.06	632350	keystroke_h	h	n/a
316.2805	0.0745	632561	keystroke_a	a	n/a
316.43	0.075	632860	keystroke_r	r	n/a
316.535	0.09	633070	keystroke_a	a	n/a
316.6995	0.075	633399	keystroke_c	c	n/a
316.7895	0.06	633579	keystroke_t	t	n/a
316.9095	0.06	633819	keystroke_e	e	n/a
316.9995	0.105	633999	keystroke_r	r	n/a
317.12	0.075	634240	keystroke_i	i	n/a
317.375	0.135	634750	keystroke_z	z	n/a
317.69	0.075	635380	keystroke_e	e	n/a
317.9	0.06	635800	keystroke_d	d	n/a
317.9605	0.0745	635921	keystroke_Key.space	Key.space	n/a
318.11	0.075	636220	keystroke_p	p	n/a
318.17	0.075	636340	keystroke_r	r	n/a
318.2905	0.1045	636581	keystroke_e	e	n/a
318.515	0.0605	637030	keystroke_s	s	n/a
318.665	0.0605	637330	keystroke_s	s	n/a
318.74	0.075	637480	keystroke_Key.space	Key.space	n/a
318.92	0.045	637840	keystroke_p	p	n/a
318.935	0.09	637870	keystroke_a	a	n/a
319.115	0.075	638230	keystroke_c	c	n/a
319.145	0.075	638290	keystroke_k	k	n/a
319.28	0.06	638560	keystroke_Key.space	Key.space	n/a
319.43	0.045	638860	keystroke_m	m	n/a
319.445	0.06	638890	keystroke_a	a	n/a
319.745	0.09	639490	keystroke_g	g	n/a
319.865	0.0605	639730	keystroke_n	n	n/a
320.39	0.09	640780	keystroke_i	i	n/a
320.66	0.074	641320	keystroke_t	t	n/a
320.75	0.06	641500	keystroke_u	u	n/a
321.08	0.0605	642160	keystroke_d	d	n/a
321.2445	0.075	642489	keystroke_e	e	n/a
321.3795	0.0605	642759	keystroke_Key.enter	Key.enter	n/a
321.446	6.026	642892	prompt	n/a	influence verzeichnis casey shirt\n
322.13	0.0305	644260	keystroke_i	i	n/a
322.28	0.045	644560	keystroke_n	n	n/a
322.34	0.075	644680	keystroke_f	f	n/a
322.46	0.044	644920	keystroke_l	l	n/a
322.64	0.06	645280	keystroke_u	u	n/a
322.6845	0.09	645369	keystroke_e	e	n/a
322.835	0.06	645670	keystroke_n	n	n/a
322.9395	0.0755	645879	keystroke_c	c	n/a
323.1795	0.075	646359	keystroke_e	e	n/a
323.2995	0.075	646599	keystroke_Key.space	Key.space	n/a
323.5995	0.06	647199	keystroke_v	v	n/a
323.8255	0.105	647651	keystroke_e	e	n/a
324.0355	0.0745	648071	keystroke_r	r	n/a
324.305	0.075	648610	keystroke_z	z	n/a
324.53	0.0605	649060	keystroke_e	e	n/a
324.6055	0.0595	649211	keystroke_i	i	n/a
324.8605	0.074	649721	keystroke_c	c	n/a
324.995	0.075	649990	keystroke_h	h	n/a
325.2795	0.06	650559	keystroke_n	n	n/a
325.474	0.06	650948	keystroke_i	i	n/a
325.549	0.09	651098	keystroke_s	s	n/a
325.669	0.0905	651338	keystroke_Key.space	Key.space	n/a
325.79	0.075	651580	keystroke_c	c	n/a
325.9095	0.18	651819	keystroke_a	a	n/a
325.9995	0.1205	651999	keystroke_s	s	n/a
326.18	0.0905	652360	keystroke_e	e	n/a
326.2855	0.0595	652571	keystroke_y	y	n/a
326.435	0.09	652870	keystroke_Key.space	Key.space	n/a
326.599	0.0915	653198	keystroke_s	s	n/a
326.6445	0.061	653289	keystroke_h	h	n/a
326.81	0.06	653620	keystroke_i	i	n/a
326.885	0.075	653770	keystroke_r	r	n/a
327.095	0.06	654190	keystroke_t	t	n/a
327.41	0.06	654820	keystroke_Key.enter	Key.enter	n/a
327.4765	5.785	654953	prompt	n/a	what've flexibility dressing continuity\n
328.13	0.0745	656260	keystroke_w	w	n/a
328.22	0.045	656440	keystroke_h	h	n/a
328.2945	0.1055	656589	keystroke_a	a	n/a
328.4595	0.076	656919	keystroke_t	t	n/a
328.5645	0.0755	657129	keystroke_'	'	n/a
328.685	0.06	657370	keystroke_v	v	n/a
328.8205	0.0595	657641	keystroke_e	e	n/a
328.91	0.06	657820	keystroke_Key.space	Key.space	n/a
328.985	0.0905	657970	keystroke_f	f	n/a
329.09	0.06	658180	keystroke_l	l	n/a
329.135	0.06	658270	keystroke_e	e	n/a
329.3145	0.0905	658629	keystroke_x	x	n/a
329.39	0.0605	658780	keystroke_i	i	n/a
329.5705	0.0595	659141	keystroke_b	b	n/a
329.615	0.045	659230	keystroke_i	i	n/a
329.78	0.06	659560	keystroke_l	l	n/a
329.93	0.06	659860	keystroke_i	i	n/a
329.9905	0.0895	659981	keystroke_t	t	n/a
330.169	0.076	660338	keystroke_y	y	n/a
330.23	0.075	660460	keystroke_Key.space	Key.space	n/a
330.44	0.06	660880	keystroke_d	d	n/a
330.59	0.06	661180	keystroke_r	r	n/a
330.7545	0.06	661509	keystroke_e	e	n/a
330.9345	0.075	661869	keystroke_s	s	n/a
331.1145	0.06	662229	keystroke_s	s	n/a
331.205	0.0595	662410	keystroke_i	i	n/a
331.3845	0.091	662769	keystroke_n	n	n/a
331.4605	0.059	662921	keystroke_g	g	n/a
331.565	0.0595	663130	keystroke_Key.space	Key.space	n/a
331.7005	0.089	663401	keystroke_c	c	n/a
331.7455	0.0745	663491	keystroke_o	o	n/a
331.91	0.0445	663820	keystroke_n	n	n/a
331.97	0.059	663940	keystroke_t	t	n/a
332.06	0.06	664120	keystroke_i	i	n/a
332.21	0.045	664420	keystroke_n	n	n/a
332.375	0.045	664750	keystroke_u	u	n/a
332.5105	0.0745	665021	keystroke_i	i	n/a
332.66	0.075	665320	keystroke_t	t	n/a
332.885	0.075	665770	keystroke_y	y	n/a
333.215	0.045	666430	keystroke_Key.enter	Key.enter	n/a
333.2665	4.24	666533	prompt	n/a	artist i literary buy\n
333.875	0.06	667750	keystroke_a	a	n/a
334.04	0.0605	668080	keystroke_r	r	n/a
334.205	0.075	668410	keystroke_t	t	n/a
334.265	0.06	668530	keystroke_i	i	n/a
334.37	0.075	668740	keystroke_s	s	n/a
334.505	0.075	669010	keystroke_t	t	n/a
334.67	0.06	669340	keystroke_s	s	n/a
335.1345	0.0455	670269	keystroke_Key.backspace	Key.backspace	n/a
335.33	0.0595	670660	keystroke_Key.space	Key.space	n/a
335.42	0.0755	670840	keystroke_i	i	n/a
335.5395	0.045	671079	keystroke_Key.space	Key.space	n/a
335.6595	0.0755	671319	keystroke_l	l	n/a
335.8255	0.0595	671651	keystroke_i	i	n/a
335.84	0.0905	671680	keystroke_t	t	n/a
335.9755	0.1045	671951	keystroke_e	e	n/a
336.0495	0.105	672099	keystroke_r	r	n/a
336.3045	0.1055	672609	keystroke_a	a	n/a
336.455	0.0445	672910	keystroke_l	l	n/a
336.5745	0.09	673149	keystroke_l	l	n/a
336.6795	0.061	673359	keystroke_y	y	n/a
336.785	0.09	673570	keystroke_Key.space	Key.space	n/a
337.04	0.075	674080	keystroke_b	b	n/a
337.1	0.045	674200	keystroke_u	u	n/a
337.235	0.045	674470	keystroke_y	y	n/a
337.445	0.06	674890	keystroke_Key.enter	Key.enter	n/a
337.514	3.9525	675028	prompt	n/a	user estimate created neil\n
338.1945	0.045	676389	keystroke_u	u	n/a
338.24	0.1045	676480	keystroke_s	s	n/a
338.3895	0.09	676779	keystroke_e	e	n/a
338.4495	0.1355	676899	keystroke_r	r	n/a
338.525	0.075	677050	keystroke_Key.space	Key.space	n/a
338.63	0.105	677260	keystroke_e	e	n/a
338.8255	0.0595	677651	keystroke_s	s	n/a
338.974	0.06	677948	keystroke_t	t	n/a
339.02	0.0455	678040	keystroke_i	i	n/a
339.17	0.059	678340	keystroke_m	m	n/a
339.214	0.091	678428	keystroke_a	a	n/a
339.35	0.074	678700	keystroke_t	t	n/a
339.47	0.075	678940	keystroke_e	e	n/a
339.559	0.06	679118	keystroke_Key.space	Key.space	n/a
339.68	0.0895	679360	keystroke_c	c	n/a
339.889	0.061	679778	keystroke_r	r	n/a
339.979	0.1365	679958	keystroke_e	e	n/a
340.1295	0.076	680259	keystroke_a	a	n/a
340.31	0.09	680620	keystroke_t	t	n/a
340.475	0.09	680950	keystroke_e	e	n/a
340.685	0.0605	681370	keystroke_d	d	n/a
340.73	0.06	681460	keystroke_Key.space	Key.space	n/a
340.865	0.045	681730	keystroke_n	n	n/a
340.94	0.06	681880	keystroke_e	e	n/a
341.0605	0.0445	682121	keystroke_i	i	n/a
341.24	0.06	682480	keystroke_l	l	n/a
341.4195	0.045	682839	keystroke_Key.enter	Key.enter	n/a
341.4705	5.216	682941	prompt	n/a	sofa employed flip precipitation\n
342.0645	0.015	684129	keystroke_s	s	n/a
342.0945	0.03	684189	keystroke_o	o	n/a
342.1705	0.059	684341	keystroke_f	f	n/a
342.2745	0.0755	684549	keystroke_a	a	n/a
342.335	0.0595	684670	keystroke_Key.space	Key.space	n/a
342.485	0.09	684970	keystroke_e	e	n/a
342.53	0.06	685060	keystroke_m	m	n/a
342.695	0.12	685390	keystroke_p	p	n/a
342.785	0.09	685570	keystroke_l	l	n/a
342.95	0.0755	685900	keystroke_o	o	n/a
343.01	0.0595	686020	keystroke_y	y	n/a
343.1755	0.059	686351	keystroke_e	e	n/a
343.3245	0.0755	686649	keystroke_d	d	n/a
343.3845	0.075	686769	keystroke_Key.space	Key.space	n/a
343.505	0.0745	687010	keystroke_f	f	n/a
343.5655	0.059	687131	keystroke_l	l	n/a
343.7305	0.0445	687461	keystroke_i	i	n/a
343.8655	0.074	687731	keystroke_p	p	n/a
343.954	0.075	687908	keystroke_Key.space	Key.space	n/a
344.06	0.1045	688120	keystroke_p	p	n/a
344.179	0.091	688358	keystroke_r	r	n/a
344.45	0.0755	688900	keystroke_e	e	n/a
344.705	0.0745	689410	keystroke_c	c	n/a
345.3945	0.045	690789	keystroke_i	i	n/a
345.5455	0.0595	691091	keystroke_p	p	n/a
345.68	0.075	691360	keystroke_i	i	n/a
345.77	0.075	691540	keystroke_t	t	n/a
345.92	0.105	691840	keystroke_a	a	n/a
346.0855	0.0895	692171	keystroke_t	t	n/a
346.145	0.1055	692290	keystroke_i	i	n/a
346.205	0.09	692410	keystroke_o	o	n/a
346.415	0.0595	692830	keystroke_n	n	n/a
346.6395	0.0455	693279	keystroke_Key.enter	Key.enter	n/a
346.7025	4.769	693405	prompt	n/a	counties grows would queen\n
347.165	0.0605	694330	keystroke_s	s	n/a
347.48	0.09	694960	keystroke_Key.backspace	Key.backspace	n/a
347.69	0.075	695380	keystroke_c	c	n/a
347.75	0.06	695500	keystroke_o	o	n/a
347.9	0.0755	695800	keystroke_u	u	n/a
348.065	0.0605	696130	keystroke_n	n	n/a
348.11	0.075	696220	keystroke_t	t	n/a
348.23	0.06	696460	keystroke_i	i	n/a
348.275	0.09	696550	keystroke_e	e	n/a
348.4695	0.105	696939	keystroke_s	s	n/a
348.56	0.0745	697120	keystroke_Key.space	Key.space	n/a
348.7255	0.0745	697451	keystroke_g	g	n/a
348.965	0.0595	697930	keystroke_r	r	n/a
349.0845	0.06	698169	keystroke_o	o	n/a
349.1895	0.0605	698379	keystroke_w	w	n/a
349.3845	0.061	698769	keystroke_s	s	n/a
349.4595	0.0605	698919	keystroke_Key.space	Key.space	n/a
349.7295	0.076	699459	keystroke_w	w	n/a
349.7895	0.046	699579	keystroke_o	o	n/a
349.9245	0.0755	699849	keystroke_u	u	n/a
350.1355	0.075	700271	keystroke_l	l	n/a
350.1955	0.074	700391	keystroke_d	d	n/a
350.3	0.0745	700600	keystroke_Key.space	Key.space	n/a
350.5395	0.075	701079	keystroke_q	q	n/a
350.6295	0.045	701259	keystroke_u	u	n/a
350.7505	0.074	701501	keystroke_e	e	n/a
350.885	0.0745	701770	keystroke_e	e	n/a
350.9745	0.0455	701949	keystroke_n	n	n/a
351.4095	0.06	702819	keystroke_Key.enter	Key.enter	n/a
351.4765	5.7095	702953	prompt	n/a	remarkable kenya carrying worcester\n
352.1145	0.06	704229	keystroke_r	r	n/a
352.2045	0.105	704409	keystroke_e	e	n/a
352.2945	0.0755	704589	keystroke_m	m	n/a
352.4145	0.09	704829	keystroke_a	a	n/a
352.5495	0.0605	705099	keystroke_r	r	n/a
352.625	0.0745	705250	keystroke_k	k	n/a
352.745	0.06	705490	keystroke_a	a	n/a
352.9545	0.0605	705909	keystroke_b	b	n/a
353.0445	0.0755	706089	keystroke_l	l	n/a
353.1645	0.0605	706329	keystroke_e	e	n/a
353.255	0.0595	706510	keystroke_Key.space	Key.space	n/a
353.375	0.075	706750	keystroke_k	k	n/a
353.4645	0.06	706929	keystroke_e	e	n/a
353.5695	0.0755	707139	keystroke_n	n	n/a
353.7805	0.0595	707561	keystroke_y	y	n/a
353.8695	0.075	707739	keystroke_a	a	n/a
353.975	0.0595	707950	keystroke_Key.space	Key.space	n/a
354.1695	0.075	708339	keystroke_c	c	n/a
354.35	0.06	708700	keystroke_a	a	n/a
354.4845	0.075	708969	keystroke_r	r	n/a
354.62	0.09	709240	keystroke_r	r	n/a
354.695	0.06	709390	keystroke_y	y	n/a
354.875	0.075	709750	keystroke_i	i	n/a
355.0555	0.0895	710111	keystroke_n	n	n/a
355.13	0.06	710260	keystroke_g	g	n/a
355.2495	0.0755	710499	keystroke_Key.space	Key.space	n/a
355.535	0.045	711070	keystroke_w	w	n/a
355.625	0.06	711250	keystroke_o	o	n/a
355.6695	0.09	711339	keystroke_r	r	n/a
356.0895	0.06	712179	keystroke_c	c	n/a
356.315	0.0595	712630	keystroke_e	e	n/a
356.5095	0.075	713019	keystroke_s	s	n/a
356.705	0.06	713410	keystroke_t	t	n/a
356.84	0.105	713680	keystroke_e	e	n/a
356.93	0.09	713860	keystroke_r	r	n/a
357.125	0.06	714250	keystroke_Key.enter	Key.enter	n/a
357.189	3.6575	714378	prompt	n/a	office valuation farm shots\n
357.8	0.06	715600	keystroke_o	o	n/a
357.89	0.09	715780	keystroke_f	f	n/a
358.025	0.105	716050	keystroke_f	f	n/a
358.13	0.045	716260	keystroke_i	i	n/a
358.235	0.075	716470	keystroke_c	c	n/a
358.385	0.09	716770	keystroke_e	e	n/a
358.46	0.0745	716920	keystroke_Key.space	Key.space	n/a
358.67	0.0605	717340	keystroke_v	v	n/a
358.79	0.075	717580	keystroke_a	a	n/a
358.85	0.0445	717700	keystroke_l	l	n/a
359.0145	0.06	718029	keystroke_u	u	n/a
359.0895	0.0755	718179	keystroke_a	a	n/a
359.2705	0.059	718541	keystroke_t	t	n/a
359.2845	0.106	718569	keystroke_i	i	n/a
359.36	0.09	718720	keystroke_o	o	n/a
359.5555	0.0595	719111	keystroke_n	n	n/a
359.6595	0.0605	719319	keystroke_Key.space	Key.space	n/a
359.6895	0.075	719379	keystroke_f	f	n/a
359.8095	0.0905	719619	keystroke_a	a	n/a
359.93	0.075	719860	keystroke_r	r	n/a
359.9745	0.09	719949	keystroke_m	m	n/a
360.095	0.075	720190	keystroke_Key.space	Key.space	n/a
360.1545	0.075	720309	keystroke_s	s	n/a
360.2595	0.045	720519	keystroke_h	h	n/a
360.3945	0.06	720789	keystroke_o	o	n/a
360.4395	0.09	720879	keystroke_t	t	n/a
360.6195	0.06	721239	keystroke_s	s	n/a
360.7995	0.0455	721599	keystroke_Key.enter	Key.enter	n/a
360.8585	4.9685	721717	prompt	n/a	locks techrepublic service mary\n
361.43	0.075	722860	keystroke_l	l	n/a
361.5945	0.06	723189	keystroke_o	o	n/a
361.6695	0.075	723339	keystroke_c	c	n/a
361.79	0.075	723580	keystroke_k	k	n/a
361.8495	0.09	723699	keystroke_s	s	n/a
361.9695	0.0755	723939	keystroke_Key.space	Key.space	n/a
362.1045	0.0755	724209	keystroke_t	t	n/a
362.3005	0.0895	724601	keystroke_e	e	n/a
362.5395	0.0745	725079	keystroke_c	c	n/a
362.6005	0.0585	725201	keystroke_h	h	n/a
362.795	0.075	725590	keystroke_r	r	n/a
362.915	0.105	725830	keystroke_e	e	n/a
363.14	0.06	726280	keystroke_p	p	n/a
363.305	0.06	726610	keystroke_u	u	n/a
363.3655	0.0895	726731	keystroke_b	b	n/a
363.5	0.0755	727000	keystroke_l	l	n/a
363.665	0.06	727330	keystroke_i	i	n/a
363.74	0.06	727480	keystroke_c	c	n/a
363.83	0.0745	727660	keystroke_Key.space	Key.space	n/a
363.9055	0.075	727811	keystroke_s	s	n/a
364.0555	0.09	728111	keystroke_e	e	n/a
364.1295	0.106	728259	keystroke_r	r	n/a
364.3855	0.044	728771	keystroke_v	v	n/a
364.4605	0.059	728921	keystroke_i	i	n/a
364.5795	0.075	729159	keystroke_c	c	n/a
364.775	0.045	729550	keystroke_e	e	n/a
364.8345	0.06	729669	keystroke_Key.space	Key.space	n/a
365.0145	0.0755	730029	keystroke_m	m	n/a
365.075	0.105	730150	keystroke_a	a	n/a
365.195	0.105	730390	keystroke_r	r	n/a
365.315	0.045	730630	keystroke_y	y	n/a
365.765	0.06	731530	keystroke_Key.enter	Key.enter	n/a
365.8315	4.045	731663	prompt	n/a	expand census illinois lunch\n
366.3795	0.06	732759	keystroke_e	e	n/a
366.5595	0.0755	733119	keystroke_x	x	n/a
366.6195	0.0755	733239	keystroke_p	p	n/a
366.755	0.09	733510	keystroke_a	a	n/a
366.86	0.045	733720	keystroke_n	n	n/a
366.92	0.06	733840	keystroke_d	d	n/a
366.995	0.06	733990	keystroke_Key.space	Key.space	n/a
367.1	0.075	734200	keystroke_c	c	n/a
367.265	0.075	734530	keystroke_e	e	n/a
367.325	0.06	734650	keystroke_n	n	n/a
367.46	0.06	734920	keystroke_s	s	n/a
367.535	0.06	735070	keystroke_u	u	n/a
367.6255	0.0745	735251	keystroke_s	s	n/a
367.715	0.06	735430	keystroke_Key.space	Key.space	n/a
367.85	0.06	735700	keystroke_i	i	n/a
368.045	0.045	736090	keystroke_l	l	n/a
368.165	0.045	736330	keystroke_l	l	n/a
368.33	0.045	736660	keystroke_i	i	n/a
368.51	0.0605	737020	keystroke_n	n	n/a
368.6745	0.1205	737349	keystroke_o	o	n/a
