onset	duration	sample	value	key	prompt_text
0.9725	20.1235	1945	prompt	n/a	the quick brown fox jumps over a lazy dog\n
8.5015	0.095	17003	keystroke	t	n/a
11.7885	0.0955	23577	keystroke	t	n/a
11.9565	0.088	23913	keystroke	h	n/a
12.0525	0.1755	24105	keystroke	e	n/a
12.2125	0.144	24425	keystroke	Key.space	n/a
12.4765	0.1515	24953	keystroke	q	n/a
13.1725	0.064	26345	keystroke	u	n/a
13.3405	0.072	26681	keystroke	i	n/a
13.4285	0.152	26857	keystroke	c	n/a
13.5405	0.072	27081	keystroke	k	n/a
13.7085	0.128	27417	keystroke	Key.space	n/a
13.9485	0.088	27897	keystroke	b	n/a
14.1245	0.0965	28249	keystroke	r	n/a
14.253	0.0635	28506	keystroke	o	n/a
14.3555	0.1055	28711	keystroke	w	n/a
14.4685	0.0885	28937	keystroke	n	n/a
14.5725	0.12	29145	keystroke	Key.space	n/a
14.8125	0.128	29625	keystroke	f	n/a
14.948	0.1205	29896	keystroke	i	n/a
15.149	0.112	30298	keystroke	x	n/a
15.7645	0.072	31529	keystroke	Key.backspace	n/a
15.9085	0.072	31817	keystroke	Key.backspace	n/a
16.3485	0.0805	32697	keystroke	o	n/a
16.4525	0.1285	32905	keystroke	x	n/a
16.6125	0.1115	33225	keystroke	Key.space	n/a
16.7725	0.08	33545	keystroke	j	n/a
16.9405	0.08	33881	keystroke	u	n/a
17.157	0.056	34314	keystroke	m	n/a
17.3245	0.056	34649	keystroke	p	n/a
17.4445	0.16	34889	keystroke	s	n/a
17.613	0.103	35226	keystroke	Key.space	n/a
17.7565	0.0805	35513	keystroke	o	n/a
17.8765	0.096	35753	keystroke	v	n/a
18.0925	0.104	36185	keystroke	e	n/a
18.1645	0.128	36329	keystroke	r	n/a
18.2605	0.152	36521	keystroke	Key.space	n/a
18.4285	0.1525	36857	keystroke	a	n/a
19.2605	0.12	38521	keystroke	Key.space	n/a
19.4045	0.0795	38809	keystroke	l	n/a
19.5165	0.12	39033	keystroke	a	n/a
19.7325	0.1045	39465	keystroke	z	n/a
19.8445	0.0645	39689	keystroke	y	n/a
20.0045	0.0635	40009	keystroke	Key.space	n/a
20.5165	0.08	41033	keystroke	d	n/a
20.597	0.072	41194	keystroke	o	n/a
20.7405	0.0805	41481	keystroke	g	n/a
20.9725	0.12	41945	keystroke	Key.enter	n/a
21.102	11.0325	42204	prompt	n/a	finger jurisdiction designs lifetime\n
21.8845	0.104	43769	keystroke	f	n/a
22.1885	0.0725	44377	keystroke	i	n/a
22.3645	0.072	44729	keystroke	n	n/a
22.932	0.104	45864	keystroke	g	n/a
25.197	0.1995	50394	keystroke	e	n/a
25.3085	0.175	50617	keystroke	r	n/a
25.4685	0.176	50937	keystroke	Key.space	n/a
26.66	0.24	53320	keystroke	j	n/a
26.8365	0.1915	53673	keystroke	u	n/a
27.084	0.096	54168	keystroke	r	n/a
27.2925	0.096	54585	keystroke	i	n/a
27.4445	0.0645	54889	keystroke	s	n/a
27.7325	0.12	55465	keystroke	d	n/a
28.061	0.0795	56122	keystroke	i	n/a
28.2125	0.0875	56425	keystroke	c	n/a
28.445	0.087	56890	keystroke	t	n/a
28.5405	0.16	57081	keystroke	i	n/a
28.6205	0.128	57241	keystroke	o	n/a
28.7965	0.0875	57593	keystroke	n	n/a
28.876	0.088	57752	keystroke	Key.space	n/a
29.093	0.071	58186	keystroke	d	n/a
29.26	0.105	58520	keystroke	e	n/a
29.4125	0.104	58825	keystroke	s	n/a
29.5885	0.0635	59177	keystroke	i	n/a
29.7005	0.0795	59401	keystroke	g	n/a
29.7965	0.08	59593	keystroke	n	n/a
30.0045	0.0875	60009	keystroke	s	n/a
30.188	0.104	60376	keystroke	Key.space	n/a
30.356	0.2245	60712	keystroke	l	n/a
30.5085	0.12	61017	keystroke	i	n/a
30.6205	0.192	61241	keystroke	f	n/a
30.884	0.0965	61768	keystroke	e	n/a
31.3405	0.0795	62681	keystroke	t	n/a
31.4445	0.088	62889	keystroke	i	n/a
31.6115	0.121	63223	keystroke	m	n/a
31.7005	0.119	63401	keystroke	e	n/a
32.0605	0.071	64121	keystroke	Key.enter	n/a
32.14	11.3465	64280	prompt	n/a	tramadol tent madonna changed\n
33.4765	0.088	66953	keystroke	t	n/a
33.6925	0.088	67385	keystroke	r	n/a
34.4525	0.12	68905	keystroke	a	n/a
34.7805	0.0875	69561	keystroke	m	n/a
34.9475	0.1055	69895	keystroke	a	n/a
35.1725	0.088	70345	keystroke	d	n/a
35.2765	0.088	70553	keystroke	o	n/a
35.484	0.0875	70968	keystroke	l	n/a
35.668	0.0875	71336	keystroke	Key.space	n/a
36.0845	0.071	72169	keystroke	t	n/a
36.349	0.119	72698	keystroke	e	n/a
36.476	0.089	72952	keystroke	n	n/a
36.8845	0.112	73769	keystroke	t	n/a
37.068	0.128	74136	keystroke	Key.space	n/a
37.316	0.096	74632	keystroke	m	n/a
37.428	0.1285	74856	keystroke	a	n/a
37.668	0.0875	75336	keystroke	d	n/a
37.7725	0.0715	75545	keystroke	o	n/a
37.9555	0.081	75911	keystroke	n	n/a
38.3475	0.0735	76695	keystroke	n	n/a
38.5085	0.1355	77017	keystroke	a	n/a
38.7325	0.128	77465	keystroke	Key.space	n/a
39.1245	0.12	78249	keystroke	c	n/a
39.2755	0.073	78551	keystroke	h	n/a
42.404	0.136	84808	keystroke	a	n/a
42.5965	0.088	85193	keystroke	n	n/a
42.7485	0.1915	85497	keystroke	g	n/a
42.892	0.16	85784	keystroke	e	n/a
43.1725	0.1035	86345	keystroke	d	n/a
43.372	0.1125	86744	keystroke	Key.enter	n/a
43.4915	11.763	86983	prompt	n/a	thanks webcam aberdeen rules\n
44.076	0.1525	88152	keystroke	t	n/a
44.364	0.0965	88728	keystroke	h	n/a
44.66	0.1285	89320	keystroke	a	n/a
44.7805	0.168	89561	keystroke	n	n/a
44.876	0.1595	89752	keystroke	k	n/a
44.9805	0.136	89961	keystroke	s	n/a
45.2355	0.136	90471	keystroke	Key.space	n/a
45.5885	0.1355	91177	keystroke	w	n/a
45.7005	0.151	91401	keystroke	e	n/a
45.9715	0.081	91943	keystroke	b	n/a
46.3245	0.1035	92649	keystroke	c	n/a
46.6285	0.096	93257	keystroke	a	n/a
47.0445	0.072	94089	keystroke	m	n/a
47.3965	0.12	94793	keystroke	Key.space	n/a
47.7805	0.1515	95561	keystroke	a	n/a
48.4925	0.088	96985	keystroke	b	n/a
49.2995	0.169	98599	keystroke	e	n/a
49.4355	0.121	98871	keystroke	r	n/a
49.7085	0.087	99417	keystroke	d	n/a
49.908	0.0645	99816	keystroke	e	n/a
50.0445	0.079	100089	keystroke	e	n/a
50.1635	0.1285	100327	keystroke	n	n/a
50.444	0.0725	100888	keystroke	Key.space	n/a
50.6845	0.1115	101369	keystroke	r	n/a
51.02	0.096	102040	keystroke	u	n/a
54.6445	0.0875	109289	keystroke	l	n/a
54.772	0.168	109544	keystroke	e	n/a
54.908	0.144	109816	keystroke	s	n/a
55.172	0.08	110344	keystroke	Key.enter	n/a
55.2595	8.4675	110519	prompt	n/a	abuse chest practices kidney\n
56.156	0.096	112312	keystroke	a	n/a
56.316	0.144	112632	keystroke	b	n/a
56.42	0.128	112840	keystroke	u	n/a
56.564	0.176	113128	keystroke	s	n/a
56.708	0.1605	113416	keystroke	e	n/a
56.876	0.1365	113752	keystroke	Key.space	n/a
57.7165	0.1035	115433	keystroke	c	n/a
57.916	0.081	115832	keystroke	h	n/a
58.06	0.2005	116120	keystroke	e	n/a
58.2045	0.248	116409	keystroke	s	n/a
58.46	0.136	116920	keystroke	t	n/a
58.6205	0.1355	117241	keystroke	Key.space	n/a
59.332	0.096	118664	keystroke	p	n/a
59.436	0.1205	118872	keystroke	r	n/a
59.684	0.112	119368	keystroke	a	n/a
60.0115	0.1045	120023	keystroke	c	n/a
60.4445	0.055	120889	keystroke	t	n/a
60.7325	0.0715	121465	keystroke	i	n/a
61.0195	0.177	122039	keystroke	c	n/a
61.2125	0.2	122425	keystroke	e	n/a
61.3885	0.16	122777	keystroke	s	n/a
61.5795	0.16	123159	keystroke	Key.space	n/a
61.7715	0.097	123543	keystroke	k	n/a
61.996	0.0715	123992	keystroke	i	n/a
62.3405	0.144	124681	keystroke	d	n/a
62.54	0.0805	125080	keystroke	n	n/a
62.676	0.096	125352	keystroke	e	n/a
63.364	0.08	126728	keystroke	y	n/a
63.636	0.088	127272	keystroke	Key.enter	n/a
63.7315	14.4025	127463	prompt	n/a	simply journals fabulous virginia\n
64.284	0.096	128568	keystroke	s	n/a
64.4765	0.088	128953	keystroke	i	n/a
64.684	0.0885	129368	keystroke	m	n/a
64.9	0.08	129800	keystroke	p	n/a
65.076	0.0805	130152	keystroke	l	n/a
65.356	0.056	130712	keystroke	y	n/a
65.516	0.136	131032	keystroke	Key.space	n/a
65.892	0.057	131784	keystroke	k	n/a
66.5075	0.088	133015	keystroke	Key.backspace	n/a
66.7635	0.073	133527	keystroke	j	n/a
67.028	0.208	134056	keystroke	o	n/a
67.172	0.088	134344	keystroke	u	n/a
67.3885	0.0795	134777	keystroke	n	n/a
67.476	0.104	134952	keystroke	r	n/a
67.9155	0.097	135831	keystroke	a	n/a
68.748	0.088	137496	keystroke	Key.backspace	n/a
69.692	0.0715	139384	keystroke	Key.backspace	n/a
71.0355	0.0955	142071	keystroke	Key.backspace	n/a
71.8685	0.0795	143737	keystroke	r	n/a
72.524	0.0725	145048	keystroke	n	n/a
72.6685	0.103	145337	keystroke	a	n/a
72.852	0.072	145704	keystroke	l	n/a
72.9955	0.112	145991	keystroke	s	n/a
73.188	0.1115	146376	keystroke	Key.space	n/a
73.8285	0.1355	147657	keystroke	f	n/a
73.9795	0.136	147959	keystroke	a	n/a
74.2845	0.064	148569	keystroke	b	n/a
74.42	0.0715	148840	keystroke	u	n/a
74.9725	0.1035	149945	keystroke	l	n/a
75.236	0.1525	150472	keystroke	o	n/a
75.3475	0.1365	150695	keystroke	u	n/a
75.5	0.1275	151000	keystroke	s	n/a
75.6435	0.088	151287	keystroke	Key.space	n/a
76.1075	0.0965	152215	keystroke	v	n/a
76.2915	0.0805	152583	keystroke	i	n/a
76.4755	0.096	152951	keystroke	d	n/a
76.94	0.0645	153880	keystroke	g	n/a
77.075	0.065	154150	keystroke	i	n/a
77.188	0.096	154376	keystroke	n	n/a
77.652	0.072	155304	keystroke	i	n/a
77.772	0.111	155544	keystroke	a	n/a
78.035	0.0965	156070	keystroke	Key.enter	n/a
78.141	15.114	156282	prompt	n/a	isle gilbert dose knives\n
78.604	0.0965	157208	keystroke	s	n/a
78.9805	0.0875	157961	keystroke	Key.backspace	n/a
79.2755	0.072	158551	keystroke	i	n/a
79.3955	0.072	158791	keystroke	s	n/a
79.5235	0.073	159047	keystroke	l	n/a
79.628	0.16	159256	keystroke	e	n/a
79.796	0.16	159592	keystroke	Key.space	n/a
80.4995	0.0965	160999	keystroke	f	n/a
80.7235	0.224	161447	keystroke	i	n/a
80.9	0.1125	161800	keystroke	l	n/a
81.1555	0.0645	162311	keystroke	b	n/a
81.3405	0.1675	162681	keystroke	e	n/a
81.4675	0.136	162935	keystroke	r	n/a
81.6925	0.0955	163385	keystroke	y	n/a
82.252	0.072	164504	keystroke	Key.backspace	n/a
82.4035	0.0635	164807	keystroke	Key.backspace	n/a
82.555	0.056	165110	keystroke	Key.backspace	n/a
82.716	0.056	165432	keystroke	Key.backspace	n/a
82.876	0.055	165752	keystroke	Key.backspace	n/a
83.156	0.063	166312	keystroke	Key.backspace	n/a
83.4915	0.0645	166983	keystroke	Key.backspace	n/a
83.772	0.0795	167544	keystroke	g	n/a
84.076	0.2555	168152	keystroke	i	n/a
84.291	0.1285	168582	keystroke	l	n/a
84.612	0.08	169224	keystroke	b	n/a
84.828	0.136	169656	keystroke	e	n/a
84.916	0.128	169832	keystroke	r	n/a
85.06	0.112	170120	keystroke	y	n/a
85.308	0.12	170616	keystroke	Key.space	n/a
85.588	0.056	171176	keystroke	d	n/a
86.108	0.0635	172216	keystroke	Key.backspace	n/a
86.2675	0.064	172535	keystroke	Key.backspace	n/a
86.42	0.072	172840	keystroke	Key.backspace	n/a
86.532	0.1115	173064	keystroke	t	n/a
86.779	0.112	173558	keystroke	Key.space	n/a
87.332	0.12	174664	keystroke	d	n/a
87.6355	0.0645	175271	keystroke	o	n/a
89.2915	0.1605	178583	keystroke	s	n/a
89.58	0.1355	179160	keystroke	e	n/a
89.763	0.1365	179526	keystroke	Key.space	n/a
90.4195	0.08	180839	keystroke	k	n/a
90.6915	0.08	181383	keystroke	n	n/a
90.9075	0.072	181815	keystroke	i	n/a
91.1155	0.184	182231	keystroke	f	n/a
91.3075	0.0965	182615	keystroke	e	n/a
92.043	0.056	184086	keystroke	Key.backspace	n/a
92.3155	0.064	184631	keystroke	Key.backspace	n/a
92.564	0.168	185128	keystroke	v	n/a
92.707	0.208	185414	keystroke	e	n/a
92.892	0.128	185784	keystroke	s	n/a
93.156	0.095	186312	keystroke	Key.enter	n/a
93.2595	11.6815	186519	prompt	n/a	covering husband nashville mods\n
93.916	0.0635	187832	keystroke	c	n/a
93.9955	0.064	187991	keystroke	o	n/a
94.364	0.079	188728	keystroke	v	n/a
94.603	0.1445	189206	keystroke	e	n/a
94.699	0.1285	189398	keystroke	r	n/a
94.8515	0.088	189703	keystroke	i	n/a
95.0035	0.088	190007	keystroke	n	n/a
95.0675	0.08	190135	keystroke	g	n/a
95.1485	0.103	190297	keystroke	Key.space	n/a
95.38	0.167	190760	keystroke	h	n/a
95.492	0.103	190984	keystroke	u	n/a
95.5635	0.104	191127	keystroke	s	n/a
95.715	0.073	191430	keystroke	b	n/a
95.859	0.113	191718	keystroke	a	n/a
96.004	0.088	192008	keystroke	n	n/a
96.1	0.152	192200	keystroke	d	n/a
96.779	0.1125	193558	keystroke	Key.space	n/a
96.98	0.0875	193960	keystroke	n	n/a
97.3235	0.088	194647	keystroke	a	n/a
97.5635	0.08	195127	keystroke	s	n/a
97.6995	0.088	195399	keystroke	h	n/a
97.9635	0.1205	195927	keystroke	v	n/a
98.1315	0.0955	196263	keystroke	i	n/a
98.3715	0.0795	196743	keystroke	l	n/a
99.1955	0.088	198391	keystroke	l	n/a
99.339	0.1445	198678	keystroke	e	n/a
99.515	0.112	199030	keystroke	Key.space	n/a
99.707	0.136	199414	keystroke	m	n/a
99.8195	0.136	199639	keystroke	o	n/a
100.011	0.0885	200022	keystroke	d	n/a
101.4115	0.0635	202823	keystroke	d	n/a
102.419	0.064	204838	keystroke	Key.backspace	n/a
102.5555	0.1195	205111	keystroke	s	n/a
104.8195	0.119	209639	keystroke	Key.enter	n/a
104.944	11.1335	209888	prompt	n/a	republican inexpensive nylon obituaries\n
105.7635	0.191	211527	keystroke	r	n/a
105.8835	0.16	211767	keystroke	e	n/a
106.9075	0.072	213815	keystroke	p	n/a
107.1555	0.072	214311	keystroke	u	n/a
107.3475	0.0715	214695	keystroke	b	n/a
107.6035	0.216	215207	keystroke	l	n/a
107.7555	0.096	215511	keystroke	i	n/a
107.9235	0.1115	215847	keystroke	c	n/a
108.0515	0.1275	216103	keystroke	a	n/a
108.211	0.0955	216422	keystroke	n	n/a
108.4025	0.112	216805	keystroke	Key.space	n/a
108.611	0.072	217222	keystroke	i	n/a
108.7865	0.081	217573	keystroke	n	n/a
108.875	0.072	217750	keystroke	e	n/a
109.147	0.112	218294	keystroke	x	n/a
109.6835	0.071	219367	keystroke	p	n/a
109.8515	0.08	219703	keystroke	e	n/a
109.9625	0.0885	219925	keystroke	n	n/a
110.1225	0.096	220245	keystroke	s	n/a
110.211	0.0635	220422	keystroke	i	n/a
110.323	0.1605	220646	keystroke	v	n/a
110.4595	0.144	220919	keystroke	e	n/a
110.683	0.1515	221366	keystroke	Key.space	n/a
111.291	0.0725	222582	keystroke	n	n/a
111.507	0.0885	223014	keystroke	y	n/a
111.8265	0.0725	223653	keystroke	l	n/a
112.0275	0.056	224055	keystroke	o	n/a
112.1955	0.0795	224391	keystroke	n	n/a
112.3305	0.112	224661	keystroke	Key.space	n/a
112.6035	0.0795	225207	keystroke	o	n/a
113.5555	0.096	227111	keystroke	b	n/a
113.9305	0.113	227861	keystroke	i	n/a
114.1795	0.088	228359	keystroke	t	n/a
114.603	0.072	229206	keystroke	u	n/a
114.891	0.168	229782	keystroke	a	n/a
115.075	0.136	230150	keystroke	r	n/a
115.299	0.072	230598	keystroke	i	n/a
115.419	0.1685	230838	keystroke	e	n/a
115.539	0.1605	231078	keystroke	s	n/a
115.971	0.104	231942	keystroke	Key.enter	n/a
116.083	18.8575	232166	prompt	n/a	sigma preview advertisements sender\n
116.6755	0.087	233351	keystroke	s	n/a
116.795	0.0645	233590	keystroke	i	n/a
116.931	0.088	233862	keystroke	g	n/a
117.0505	0.08	234101	keystroke	n	n/a
117.2585	0.08	234517	keystroke	m	n/a
117.3785	0.152	234757	keystroke	a	n/a
118.0905	0.072	236181	keystroke	Key.backspace	n/a
118.2505	0.0565	236501	keystroke	Key.backspace	n/a
118.403	0.0725	236806	keystroke	Key.backspace	n/a
118.8905	0.0725	237781	keystroke	m	n/a
119.0185	0.137	238037	keystroke	a	n/a
119.1555	0.111	238311	keystroke	Key.space	n/a
119.3865	0.072	238773	keystroke	p	n/a
119.4985	0.144	238997	keystroke	r	n/a
119.5865	0.129	239173	keystroke	e	n/a
119.9865	0.0725	239973	keystroke	v	n/a
120.2355	0.0715	240471	keystroke	i	n/a
120.4355	0.151	240871	keystroke	w	n/a
121.235	0.064	242470	keystroke	Key.backspace	n/a
121.5395	0.1985	243079	keystroke	e	n/a
121.683	0.152	243366	keystroke	w	n/a
121.843	0.128	243686	keystroke	Key.space	n/a
122.379	0.112	244758	keystroke	a	n/a
122.563	0.08	245126	keystroke	d	n/a
122.787	0.072	245574	keystroke	v	n/a
123.027	0.144	246054	keystroke	e	n/a
123.131	0.088	246262	keystroke	r	n/a
123.347	0.0805	246694	keystroke	t	n/a
123.539	0.072	247078	keystroke	i	n/a
123.675	0.08	247350	keystroke	s	n/a
123.851	0.088	247702	keystroke	m	n/a
123.9465	0.088	247893	keystroke	e	n/a
124.0595	0.0875	248119	keystroke	n	n/a
124.155	0.0885	248310	keystroke	t	n/a
124.3305	0.1045	248661	keystroke	s	n/a
125.067	0.1035	250134	keystroke	Key.space	n/a
125.2435	0.1595	250487	keystroke	s	n/a
125.3955	0.1035	250791	keystroke	e	n/a
125.515	0.096	251030	keystroke	n	n/a
125.731	0.096	251462	keystroke	d	n/a
126.011	0.136	252022	keystroke	e	n/a
126.107	0.128	252214	keystroke	r	n/a
134.835	0.104	269670	keystroke	Key.enter	n/a
134.9445	6.2285	269889	prompt	n/a	flex deer deviation influences\n
135.571	0.112	271142	keystroke	f	n/a
135.779	0.104	271558	keystroke	l	n/a
135.899	0.088	271798	keystroke	e	n/a
136.139	0.088	272278	keystroke	x	n/a
136.386	0.105	272772	keystroke	Key.space	n/a
136.5785	0.0965	273157	keystroke	d	n/a
136.883	0.0795	273766	keystroke	e	n/a
137.0345	0.1045	274069	keystroke	e	n/a
137.195	0.12	274390	keystroke	r	n/a
137.3945	0.12	274789	keystroke	Key.space	n/a
137.5865	0.08	275173	keystroke	d	n/a
137.7545	0.08	275509	keystroke	e	n/a
137.9785	0.104	275957	keystroke	v	n/a
138.1235	0.0715	276247	keystroke	i	n/a
138.227	0.1755	276454	keystroke	a	n/a
138.3945	0.088	276789	keystroke	t	n/a
138.4665	0.16	276933	keystroke	i	n/a
138.563	0.1275	277126	keystroke	o	n/a
138.7545	0.064	277509	keystroke	n	n/a
138.8105	0.1125	277621	keystroke	Key.space	n/a
139.0265	0.0885	278053	keystroke	i	n/a
139.171	0.0795	278342	keystroke	n	n/a
139.2905	0.096	278581	keystroke	f	n/a
139.491	0.0875	278982	keystroke	l	n/a
139.851	0.064	279702	keystroke	e	n/a
140.035	0.0715	280070	keystroke	u	n/a
140.2505	0.0805	280501	keystroke	n	n/a
140.3705	0.2085	280741	keystroke	c	n/a
140.499	0.176	280998	keystroke	e	n/a
140.627	0.136	281254	keystroke	s	n/a
141.099	0.0715	282198	keystroke	Key.enter	n/a
141.1775	10.5315	282355	prompt	n/a	contracts teams safety thread\n
141.7305	0.096	283461	keystroke	c	n/a
141.8185	0.0725	283637	keystroke	o	n/a
141.963	0.0875	283926	keystroke	n	n/a
142.0585	0.176	284117	keystroke	t	n/a
142.2025	0.1765	284405	keystroke	r	n/a
142.387	0.1755	284774	keystroke	a	n/a
142.675	0.0795	285350	keystroke	c	n/a
142.9305	0.128	285861	keystroke	t	n/a
143.17	0.105	286340	keystroke	s	n/a
143.6265	0.1195	287253	keystroke	Key.space	n/a
143.7865	0.104	287573	keystroke	t	n/a
143.9785	0.1605	287957	keystroke	e	n/a
144.147	0.136	288294	keystroke	a	n/a
144.2585	0.096	288517	keystroke	m	n/a
144.6105	0.12	289221	keystroke	s	n/a
144.7465	0.104	289493	keystroke	Key.space	n/a
144.9225	0.12	289845	keystroke	s	n/a
145.5225	0.1195	291045	keystroke	a	n/a
145.7785	0.088	291557	keystroke	f	n/a
146.011	0.0715	292022	keystroke	t	n/a
147.283	0.119	294566	keystroke	Key.backspace	n/a
147.466	0.0885	294932	keystroke	e	n/a
148.091	0.079	296182	keystroke	t	n/a
148.219	0.111	296438	keystroke	y	n/a
148.8345	0.1195	297669	keystroke	Key.space	n/a
149.114	0.0885	298228	keystroke	t	n/a
149.194	0.0965	298388	keystroke	h	n/a
149.4185	0.192	298837	keystroke	r	n/a
149.5465	0.1765	299093	keystroke	e	n/a
149.9785	0.096	299957	keystroke	d	n/a
150.7225	0.08	301445	keystroke	Key.backspace	n/a
151.0595	0.1035	302119	keystroke	a	n/a
151.267	0.0955	302534	keystroke	d	n/a
151.6025	0.104	303205	keystroke	Key.enter	n/a
151.714	11.2425	303428	prompt	n/a	corresponding milton coleman hobbies\n
152.579	0.104	305158	keystroke	c	n/a
153.499	0.064	306998	keystroke	o	n/a
153.666	0.0565	307332	keystroke	r	n/a
153.834	0.0795	307668	keystroke	r	n/a
154.0905	0.12	308181	keystroke	e	n/a
154.3545	0.104	308709	keystroke	s	n/a
154.6025	0.0805	309205	keystroke	p	n/a
154.8185	0.0805	309637	keystroke	o	n/a
154.987	0.0795	309974	keystroke	n	n/a
155.107	0.0955	310214	keystroke	d	n/a
155.211	0.0635	310422	keystroke	i	n/a
155.3545	0.072	310709	keystroke	n	n/a
155.4585	0.144	310917	keystroke	g	n/a
155.5705	0.144	311141	keystroke	Key.space	n/a
155.9065	0.0645	311813	keystroke	m	n/a
156.371	0.191	312742	keystroke	i	n/a
156.506	0.128	313012	keystroke	l	n/a
156.6905	0.072	313381	keystroke	t	n/a
156.7865	0.08	313573	keystroke	o	n/a
156.9865	0.072	313973	keystroke	n	n/a
157.1465	0.104	314293	keystroke	Key.space	n/a
157.4985	0.1045	314997	keystroke	c	n/a
159.7705	0.096	319541	keystroke	o	n/a
159.9945	0.112	319989	keystroke	l	n/a
160.2185	0.0955	320437	keystroke	e	n/a
160.37	0.104	320740	keystroke	m	n/a
160.53	0.137	321060	keystroke	a	n/a
160.6505	0.0795	321301	keystroke	n	n/a
160.8985	0.1355	321797	keystroke	Key.space	n/a
161.6185	0.0795	323237	keystroke	h	n/a
161.826	0.072	323652	keystroke	o	n/a
162.027	0.0635	324054	keystroke	b	n/a
162.1945	0.048	324389	keystroke	b	n/a
162.3625	0.08	324725	keystroke	i	n/a
162.459	0.1595	324918	keystroke	e	n/a
162.5945	0.128	325189	keystroke	s	n/a
162.8745	0.08	325749	keystroke	Key.enter	n/a
162.9605	11.0995	325921	prompt	n/a	lows locks failed letter\n
163.6185	0.128	327237	keystroke	l	n/a
163.8345	0.072	327669	keystroke	o	n/a
164.011	0.1195	328022	keystroke	w	n/a
165.0345	0.0955	330069	keystroke	s	n/a
165.242	0.096	330484	keystroke	Key.space	n/a
166.7705	0.08	333541	keystroke	l	n/a
166.9865	0.088	333973	keystroke	o	n/a
167.522	0.1045	335044	keystroke	c	n/a
167.6825	0.0635	335365	keystroke	k	n/a
168.1065	0.144	336213	keystroke	Key.space	n/a
168.3145	0.144	336629	keystroke	f	n/a
168.459	0.1515	336918	keystroke	a	n/a
168.5865	0.2635	337173	keystroke	i	n/a
168.795	0.167	337590	keystroke	l	n/a
168.97	0.0885	337940	keystroke	e	n/a
169.2345	0.112	338469	keystroke	d	n/a
172.37	0.1365	344740	keystroke	Key.space	n/a
172.5225	0.072	345045	keystroke	l	n/a
173.05	0.12	346100	keystroke	e	n/a
173.274	0.072	346548	keystroke	t	n/a
173.41	0.088	346820	keystroke	t	n/a
173.586	0.1525	347172	keystroke	e	n/a
173.706	0.1205	347412	keystroke	r	n/a
173.9295	0.128	347859	keystroke	Key.enter	n/a
174.065	9.947	348130	prompt	n/a	composer deal eating transcripts\n
174.698	0.1045	349396	keystroke	c	n/a
174.8025	0.0715	349605	keystroke	o	n/a
174.9615	0.081	349923	keystroke	m	n/a
175.1385	0.08	350277	keystroke	p	n/a
175.3295	0.08	350659	keystroke	o	n/a
175.4175	0.1605	350835	keystroke	s	n/a
175.554	0.2	351108	keystroke	e	n/a
175.7375	0.1845	351475	keystroke	r	n/a
175.97	0.0885	351940	keystroke	Key.space	n/a
176.1615	0.081	352323	keystroke	d	n/a
176.3385	0.191	352677	keystroke	e	n/a
176.554	0.144	353108	keystroke	a	n/a
176.7775	0.0725	353555	keystroke	l	n/a
176.93	0.1435	353860	keystroke	Key.space	n/a
177.1135	0.1445	354227	keystroke	e	n/a
177.2505	0.191	354501	keystroke	a	n/a
177.4825	0.176	354965	keystroke	r	n/a
177.994	0.0885	355988	keystroke	Key.backspace	n/a
178.1385	0.0955	356277	keystroke	t	n/a
178.2905	0.088	356581	keystroke	i	n/a
178.4505	0.088	356901	keystroke	n	n/a
178.6345	0.16	357269	keystroke	f	n/a
179.034	0.0875	358068	keystroke	Key.space	n/a
179.386	0.08	358772	keystroke	Key.backspace	n/a
179.554	0.064	359108	keystroke	Key.backspace	n/a
179.626	0.144	359252	keystroke	g	n/a
179.778	0.12	359556	keystroke	Key.space	n/a
180.274	0.1435	360548	keystroke	t	n/a
181.0265	0.087	362053	keystroke	r	n/a
181.1945	0.119	362389	keystroke	a	n/a
181.346	0.08	362692	keystroke	n	n/a
181.6745	0.0715	363349	keystroke	s	n/a
182.2985	0.0955	364597	keystroke	c	n/a
182.53	0.1045	365060	keystroke	r	n/a
182.7625	0.151	365525	keystroke	i	n/a
182.9455	0.032	365891	keystroke	i	n/a
183.25	0.0565	366500	keystroke	p	n/a
183.45	0.104	366900	keystroke	t	n/a
183.6985	0.1275	367397	keystroke	s	n/a
183.914	0.096	367828	keystroke	Key.enter	n/a
184.0165	10.5165	368033	prompt	n/a	disease searched restaurant twist\n
184.7065	0.088	369413	keystroke	d	n/a
184.8185	0.08	369637	keystroke	i	n/a
185.0345	0.128	370069	keystroke	s	n/a
185.778	0.1205	371556	keystroke	e	n/a
185.922	0.168	371844	keystroke	a	n/a
186.106	0.1685	372212	keystroke	s	n/a
186.2585	0.151	372517	keystroke	e	n/a
186.3935	0.12	372787	keystroke	Key.space	n/a
186.7775	0.185	373555	keystroke	s	n/a
186.946	0.168	373892	keystroke	e	n/a
187.138	0.152	374276	keystroke	a	n/a
187.282	0.12	374564	keystroke	r	n/a
187.522	0.1285	375044	keystroke	c	n/a
187.6505	0.1115	375301	keystroke	h	n/a
187.794	0.12	375588	keystroke	e	n/a
188.002	0.144	376004	keystroke	d	n/a
188.162	0.168	376324	keystroke	Key.space	n/a
188.346	0.1365	376692	keystroke	r	n/a
188.4185	0.136	376837	keystroke	e	n/a
188.786	0.104	377572	keystroke	s	n/a
189.914	0.112	379828	keystroke	t	n/a
190.202	0.104	380404	keystroke	a	n/a
190.482	0.08	380964	keystroke	u	n/a
190.65	0.072	381300	keystroke	r	n/a
190.8425	0.1515	381685	keystroke	a	n/a
190.978	0.1045	381956	keystroke	n	n/a
191.122	0.144	382244	keystroke	t	n/a
191.258	0.104	382516	keystroke	Key.space	n/a
191.546	0.104	383092	keystroke	t	n/a
193.0425	0.1275	386085	keystroke	w	n/a
193.4745	0.079	386949	keystroke	i	n/a
193.61	0.176	387220	keystroke	s	n/a
193.746	0.12	387492	keystroke	t	n/a
194.418	0.112	388836	keystroke	Key.enter	n/a
194.54	6.304	389080	prompt	n/a	sunday website kinds strand\n
195.1215	0.0965	390243	keystroke	s	n/a
195.226	0.072	390452	keystroke	u	n/a
195.37	0.104	390740	keystroke	n	n/a
195.4585	0.1515	390917	keystroke	d	n/a
195.594	0.1445	391188	keystroke	a	n/a
195.714	0.096	391428	keystroke	y	n/a
195.866	0.136	391732	keystroke	Key.space	n/a
196.082	0.08	392164	keystroke	w	n/a
197.2665	0.087	394533	keystroke	e	n/a
197.426	0.0795	394852	keystroke	b	n/a
197.8985	0.072	395797	keystroke	s	n/a
198.0265	0.0795	396053	keystroke	i	n/a
198.138	0.1445	396276	keystroke	t	n/a
198.298	0.128	396596	keystroke	e	n/a
198.4415	0.0955	396883	keystroke	Key.space	n/a
198.5855	0.089	397171	keystroke	k	n/a
198.786	0.072	397572	keystroke	i	n/a
198.898	0.112	397796	keystroke	n	n/a
199.002	0.1525	398004	keystroke	d	n/a
199.098	0.176	398196	keystroke	s	n/a
199.25	0.112	398500	keystroke	Key.space	n/a
199.586	0.08	399172	keystroke	s	n/a
199.8825	0.1035	399765	keystroke	t	n/a
200.074	0.12	400148	keystroke	r	n/a
200.202	0.1365	400404	keystroke	a	n/a
200.29	0.0885	400580	keystroke	n	n/a
200.41	0.128	400820	keystroke	d	n/a
200.7855	0.0565	401571	keystroke	Key.enter	n/a
200.8485	0.067	401697	prompt	n/a	leon closure carefully december\n
200.8575	0.0565	401715	keystroke	Key.enter	n/a
200.92	11.068	401840	prompt	n/a	council treat chargers bradford\n
201.801	0.0815	403602	keystroke	c	n/a
201.929	0.185	403858	keystroke	o	n/a
202.09	0.079	404180	keystroke	u	n/a
202.4255	0.0805	404851	keystroke	n	n/a
202.8735	0.0885	405747	keystroke	c	n/a
202.962	0.216	405924	keystroke	i	n/a
203.13	0.12	406260	keystroke	l	n/a
203.273	0.1205	406546	keystroke	Key.space	n/a
203.49	0.128	406980	keystroke	t	n/a
203.594	0.168	407188	keystroke	r	n/a
203.753	0.233	407506	keystroke	a	n/a
204.042	0.1275	408084	keystroke	t	n/a
204.666	0.064	409332	keystroke	Key.backspace	n/a
204.858	0.04	409716	keystroke	Key.backspace	n/a
205.4815	0.1205	410963	keystroke	e	n/a
205.6495	0.1525	411299	keystroke	a	n/a
205.9055	0.1275	411811	keystroke	Key.space	n/a
206.234	0.12	412468	keystroke	c	n/a
206.7215	0.088	413443	keystroke	Key.backspace	n/a
206.897	0.072	413794	keystroke	Key.backspace	n/a
207.0735	0.12	414147	keystroke	t	n/a
207.3215	0.1195	414643	keystroke	Key.space	n/a
207.705	0.113	415410	keystroke	c	n/a
207.873	0.097	415746	keystroke	h	n/a
208.05	0.183	416100	keystroke	a	n/a
208.273	0.1685	416546	keystroke	r	n/a
208.77	0.08	417540	keystroke	g	n/a
208.9935	0.2005	417987	keystroke	e	n/a
209.1455	0.1445	418291	keystroke	r	n/a
209.4655	0.1285	418931	keystroke	s	n/a
209.6815	0.12	419363	keystroke	Key.space	n/a
210.282	0.064	420564	keystroke	b	n/a
210.4175	0.08	420835	keystroke	r	n/a
210.53	0.136	421060	keystroke	a	n/a
210.7375	0.0885	421475	keystroke	d	n/a
210.9455	0.072	421891	keystroke	f	n/a
211.0335	0.0885	422067	keystroke	o	n/a
211.2175	0.1205	422435	keystroke	r	n/a
211.5295	0.0875	423059	keystroke	d	n/a
211.881	0.105	423762	keystroke	Key.enter	n/a
211.992	6.955	423984	prompt	n/a	google keyboard civil send\n
212.666	0.087	425332	keystroke	g	n/a
212.794	0.063	425588	keystroke	o	n/a
212.93	0.072	425860	keystroke	o	n/a
213.049	0.089	426098	keystroke	g	n/a
213.153	0.065	426306	keystroke	l	n/a
213.2975	0.1605	426595	keystroke	e	n/a
213.514	0.152	427028	keystroke	Key.space	n/a
213.714	0.095	427428	keystroke	k	n/a
213.889	0.0965	427778	keystroke	e	n/a
214.122	0.0635	428244	keystroke	y	n/a
214.9535	0.064	429907	keystroke	b	n/a
215.1615	0.072	430323	keystroke	o	n/a
215.578	0.1915	431156	keystroke	a	n/a
215.7535	0.1045	431507	keystroke	r	n/a
215.986	0.12	431972	keystroke	d	n/a
216.122	0.1195	432244	keystroke	Key.space	n/a
216.386	0.04	432772	keystroke	c	n/a
217.33	0.0795	434660	keystroke	i	n/a
217.4495	0.072	434899	keystroke	v	n/a
217.6495	0.2085	435299	keystroke	i	n/a
217.81	0.135	435620	keystroke	l	n/a
217.993	0.073	435986	keystroke	Key.space	n/a
218.145	0.1205	436290	keystroke	s	n/a
218.306	0.0955	436612	keystroke	n	n/a
218.3695	0.1045	436739	keystroke	e	n/a
218.5935	0.104	437187	keystroke	d	n/a
218.8495	0.096	437699	keystroke	Key.enter	n/a
218.9515	8.9	437903	prompt	n/a	large gazette soon description\n
219.673	0.0885	439346	keystroke	l	n/a
219.762	0.127	439524	keystroke	a	n/a
219.929	0.16	439858	keystroke	r	n/a
220.201	0.072	440402	keystroke	g	n/a
220.3055	0.152	440611	keystroke	e	n/a
220.4495	0.12	440899	keystroke	Key.space	n/a
221.458	0.1275	442916	keystroke	g	n/a
221.737	0.121	443474	keystroke	a	n/a
222.425	0.088	444850	keystroke	z	n/a
222.673	0.128	445346	keystroke	e	n/a
222.937	0.081	445874	keystroke	t	n/a
223.121	0.065	446242	keystroke	t	n/a
223.3375	0.184	446675	keystroke	e	n/a
223.5285	0.129	447057	keystroke	Key.space	n/a
223.7295	0.112	447459	keystroke	s	n/a
224.0895	0.0635	448179	keystroke	o	n/a
224.273	0.064	448546	keystroke	o	n/a
224.481	0.0805	448962	keystroke	n	n/a
224.657	0.088	449314	keystroke	Key.space	n/a
224.8575	0.0565	449715	keystroke	d	n/a
225.033	0.1445	450066	keystroke	e	n/a
225.202	0.1435	450404	keystroke	s	n/a
225.5535	0.104	451107	keystroke	c	n/a
226.002	0.071	452004	keystroke	r	n/a
226.473	0.08	452946	keystroke	i	n/a
226.6975	0.0795	453395	keystroke	p	n/a
226.8815	0.1205	453763	keystroke	t	n/a
227.089	0.216	454178	keystroke	i	n/a
227.257	0.1205	454514	keystroke	o	n/a
227.481	0.1125	454962	keystroke	n	n/a
227.7535	0.096	455507	keystroke	Key.enter	n/a
227.856	9.738	455712	prompt	n/a	implications replace strategic easter\n
228.5215	0.08	457043	keystroke	i	n/a
229.201	0.096	458402	keystroke	m	n/a
229.609	0.088	459218	keystroke	p	n/a
229.9375	0.2155	459875	keystroke	l	n/a
230.089	0.0885	460178	keystroke	i	n/a
230.225	0.104	460450	keystroke	c	n/a
230.2975	0.1675	460595	keystroke	a	n/a
230.53	0.119	461060	keystroke	t	n/a
230.674	0.183	461348	keystroke	i	n/a
230.793	0.128	461586	keystroke	o	n/a
231.058	0.071	462116	keystroke	n	n/a
231.169	0.137	462338	keystroke	s	n/a
231.3695	0.096	462739	keystroke	Key.space	n/a
231.554	0.136	463108	keystroke	r	n/a
231.634	0.135	463268	keystroke	e	n/a
231.802	0.088	463604	keystroke	p	n/a
232.033	0.056	464066	keystroke	l	n/a
232.4975	0.1355	464995	keystroke	a	n/a
232.841	0.192	465682	keystroke	c	n/a
233.121	0.185	466242	keystroke	e	n/a
233.3215	0.12	466643	keystroke	Key.space	n/a
233.5775	0.1925	467155	keystroke	s	n/a
233.7935	0.128	467587	keystroke	t	n/a
233.9935	0.136	467987	keystroke	r	n/a
234.186	0.2235	468372	keystroke	a	n/a
234.4255	0.12	468851	keystroke	t	n/a
234.6815	0.096	469363	keystroke	e	n/a
234.9535	0.088	469907	keystroke	g	n/a
235.1055	0.08	470211	keystroke	i	n/a
235.3135	0.136	470627	keystroke	c	n/a
235.5295	0.111	471059	keystroke	Key.space	n/a
235.7525	0.193	471505	keystroke	e	n/a
235.921	0.1995	471842	keystroke	a	n/a
236.1535	0.1835	472307	keystroke	s	n/a
236.298	0.152	472596	keystroke	t	n/a
236.513	0.1685	473026	keystroke	e	n/a
236.633	0.1445	473266	keystroke	r	n/a
237.5055	0.0875	475011	keystroke	Key.enter	n/a
237.5965	8.4625	475193	prompt	n/a	heads clock happiness archive\n
238.2575	0.1115	476515	keystroke	h	n/a
238.3375	0.1435	476675	keystroke	e	n/a
238.4655	0.1915	476931	keystroke	a	n/a
238.689	0.1045	477378	keystroke	d	n/a
238.929	0.136	477858	keystroke	s	n/a
239.097	0.128	478194	keystroke	Key.space	n/a
239.489	0.112	478978	keystroke	c	n/a
239.609	0.0965	479218	keystroke	l	n/a
239.841	0.072	479682	keystroke	o	n/a
240.001	0.1445	480002	keystroke	c	n/a
240.1455	0.0635	480291	keystroke	k	n/a
240.273	0.1125	480546	keystroke	Key.space	n/a
240.6015	0.0635	481203	keystroke	h	n/a
240.8735	0.0155	481747	keystroke	p	n/a
241.2895	0.0795	482579	keystroke	Key.backspace	n/a
241.4655	0.136	482931	keystroke	a	n/a
241.681	0.0645	483362	keystroke	p	n/a
241.841	0.064	483682	keystroke	p	n/a
242.105	0.08	484210	keystroke	i	n/a
242.289	0.088	484578	keystroke	n	n/a
242.4095	0.136	484819	keystroke	e	n/a
242.681	0.072	485362	keystroke	s	n/a
242.833	0.16	485666	keystroke	s	n/a
242.985	0.1355	485970	keystroke	Key.space	n/a
243.201	0.2085	486402	keystroke	a	n/a
243.4485	0.121	486897	keystroke	r	n/a
243.7215	0.12	487443	keystroke	c	n/a
243.8645	0.16	487729	keystroke	h	n/a
243.969	0.1195	487938	keystroke	i	n/a
244.3295	0.0715	488659	keystroke	n	n/a
245.0895	0.064	490179	keystroke	Key.backspace	n/a
245.3855	0.199	490771	keystroke	v	n/a
245.537	0.1685	491074	keystroke	e	n/a
245.9695	0.088	491939	keystroke	Key.enter	n/a
246.064	6.0985	492128	prompt	n/a	interest decide later calculations\n
246.6335	0.0715	493267	keystroke	i	n/a
246.817	0.064	493634	keystroke	n	n/a
246.873	0.08	493746	keystroke	t	n/a
247.089	0.12	494178	keystroke	e	n/a
247.201	0.144	494402	keystroke	r	n/a
247.313	0.2	494626	keystroke	e	n/a
247.489	0.232	494978	keystroke	s	n/a
247.7055	0.1275	495411	keystroke	t	n/a
247.881	0.096	495762	keystroke	Key.space	n/a
248.097	0.056	496194	keystroke	d	n/a
248.233	0.088	496466	keystroke	e	n/a
248.4725	0.08	496945	keystroke	c	n/a
248.5455	0.079	497091	keystroke	i	n/a
248.6885	0.2165	497377	keystroke	d	n/a
248.857	0.176	497714	keystroke	e	n/a
249.041	0.104	498082	keystroke	Key.space	n/a
249.225	0.096	498450	keystroke	l	n/a
249.289	0.184	498578	keystroke	a	n/a
249.4645	0.1045	498929	keystroke	t	n/a
249.617	0.192	499234	keystroke	e	n/a
249.7455	0.0875	499491	keystroke	r	n/a
249.817	0.112	499634	keystroke	Key.space	n/a
250.0575	0.12	500115	keystroke	c	n/a
250.225	0.104	500450	keystroke	a	n/a
250.361	0.0885	500722	keystroke	l	n/a
250.5695	0.112	501139	keystroke	c	n/a
250.7445	0.0725	501489	keystroke	u	n/a
250.9775	0.0715	501955	keystroke	l	n/a
251.0815	0.1355	502163	keystroke	a	n/a
251.305	0.096	502610	keystroke	t	n/a
251.393	0.1605	502786	keystroke	i	n/a
251.489	0.136	502978	keystroke	o	n/a
251.681	0.088	503362	keystroke	n	n/a
251.801	0.104	503602	keystroke	s	n/a
252.073	0.088	504146	keystroke	Key.enter	n/a
252.167	7.4365	504334	prompt	n/a	remembered victory get tags\n
252.833	0.168	505666	keystroke	r	n/a
252.945	0.16	505890	keystroke	e	n/a
254.049	0.088	508098	keystroke	m	n/a
254.217	0.088	508434	keystroke	e	n/a
254.345	0.0805	508690	keystroke	m	n/a
254.5685	0.08	509137	keystroke	b	n/a
254.7045	0.137	509409	keystroke	e	n/a
254.8015	0.159	509603	keystroke	r	n/a
254.9615	0.119	509923	keystroke	e	n/a
255.1765	0.1365	510353	keystroke	d	n/a
255.321	0.1115	510642	keystroke	Key.space	n/a
255.5045	0.12	511009	keystroke	v	n/a
255.633	0.0635	511266	keystroke	i	n/a
255.865	0.0875	511730	keystroke	e	n/a
256.3845	0.088	512769	keystroke	Key.backspace	n/a
256.5205	0.0805	513041	keystroke	c	n/a
256.809	0.08	513618	keystroke	t	n/a
256.969	0.064	513938	keystroke	o	n/a
257.073	0.096	514146	keystroke	r	n/a
257.241	0.072	514482	keystroke	y	n/a
257.425	0.08	514850	keystroke	Key.space	n/a
257.7925	0.073	515585	keystroke	g	n/a
257.969	0.16	515938	keystroke	e	n/a
258.1365	0.137	516273	keystroke	t	n/a
258.417	0.104	516834	keystroke	Key.space	n/a
258.697	0.128	517394	keystroke	t	n/a
258.873	0.16	517746	keystroke	a	n/a
259.0655	0.096	518131	keystroke	g	n/a
259.233	0.1125	518466	keystroke	s	n/a
259.505	0.0955	519010	keystroke	Key.enter	n/a
259.6075	12.555	519215	prompt	n/a	holland depot anaheim software\n
260.4165	0.081	520833	keystroke	h	n/a
260.6165	0.072	521233	keystroke	o	n/a
260.8245	0.056	521649	keystroke	l	n/a
260.9445	0.064	521889	keystroke	l	n/a
261.0245	0.137	522049	keystroke	a	n/a
261.177	0.0805	522354	keystroke	n	n/a
261.233	0.16	522466	keystroke	d	n/a
261.3845	0.0965	522769	keystroke	Key.space	n/a
261.513	0.072	523026	keystroke	d	n/a
261.673	0.088	523346	keystroke	e	n/a
262.6485	0.0645	525297	keystroke	p	n/a
262.8565	0.04	525713	keystroke	o	n/a
263.0095	0.1195	526019	keystroke	t	n/a
263.2245	0.096	526449	keystroke	Key.space	n/a
263.7125	0.072	527425	keystroke	a	n/a
263.8575	0.0715	527715	keystroke	n	n/a
263.985	0.104	527970	keystroke	a	n/a
264.2885	0.064	528577	keystroke	h	n/a
264.465	0.088	528930	keystroke	e	n/a
264.937	0.072	529874	keystroke	i	n/a
265.113	0.088	530226	keystroke	m	n/a
265.297	0.087	530594	keystroke	Key.space	n/a
267.0485	0.0965	534097	keystroke	s	n/a
267.712	0.081	535424	keystroke	o	n/a
267.864	0.129	535728	keystroke	f	n/a
268.041	0.064	536082	keystroke	y	n/a
268.616	0.113	537232	keystroke	w	n/a
268.7055	0.2635	537411	keystroke	a	n/a
268.945	0.1915	537890	keystroke	r	n/a
269.072	0.1685	538144	keystroke	e	n/a
269.816	0.0565	539632	keystroke	Key.backspace	n/a
269.9605	0.0645	539921	keystroke	Key.backspace	n/a
270.1125	0.064	540225	keystroke	Key.backspace	n/a
270.2725	0.056	540545	keystroke	Key.backspace	n/a
270.4165	0.064	540833	keystroke	Key.backspace	n/a
270.801	0.064	541602	keystroke	t	n/a
271.1765	0.1765	542353	keystroke	w	n/a
271.281	0.232	542562	keystroke	a	n/a
271.4965	0.2405	542993	keystroke	r	n/a
271.665	0.1515	543330	keystroke	e	n/a
272.0725	0.088	544145	keystroke	Key.enter	n/a
272.167	11.2195	544334	prompt	n/a	relaxation mars wish guidelines\n
272.841	0.1595	545682	keystroke	r	n/a
272.9525	0.1125	545905	keystroke	e	n/a
273.201	0.16	546402	keystroke	a	n/a
273.688	0.097	547376	keystroke	Key.backspace	n/a
274.241	0.064	548482	keystroke	l	n/a
274.369	0.144	548738	keystroke	a	n/a
274.665	0.112	549330	keystroke	x	n/a
275.017	0.208	550034	keystroke	a	n/a
275.209	0.12	550418	keystroke	t	n/a
275.409	0.16	550818	keystroke	o	n/a
275.433	0.088	550866	keystroke	p	n/a
275.977	0.072	551954	keystroke	Key.backspace	n/a
276.417	0.064	552834	keystroke	Key.backspace	n/a
277.401	0.1755	554802	keystroke	i	n/a
277.5125	0.1125	555025	keystroke	o	n/a
277.7205	0.08	555441	keystroke	n	n/a
277.8165	0.144	555633	keystroke	Key.space	n/a
278.073	0.0875	556146	keystroke	m	n/a
278.1615	0.159	556323	keystroke	a	n/a
278.3125	0.136	556625	keystroke	r	n/a
278.5445	0.152	557089	keystroke	s	n/a
278.6885	0.08	557377	keystroke	Key.space	n/a
278.8245	0.104	557649	keystroke	w	n/a
279.0245	0.112	558049	keystroke	i	n/a
279.1845	0.128	558369	keystroke	s	n/a
279.3445	0.08	558689	keystroke	h	n/a
279.4725	0.1195	558945	keystroke	Key.space	n/a
280.169	0.104	560338	keystroke	g	n/a
280.337	0.0635	560674	keystroke	u	n/a
280.6965	0.0805	561393	keystroke	i	n/a
280.889	0.096	561778	keystroke	d	n/a
281.7765	0.0875	563553	keystroke	e	n/a
282.1205	0.216	564241	keystroke	l	n/a
282.2805	0.096	564561	keystroke	i	n/a
282.44	0.072	564880	keystroke	n	n/a
282.528	0.161	565056	keystroke	e	n/a
282.6565	0.136	565313	keystroke	s	n/a
283.2965	0.088	566593	keystroke	Key.enter	n/a
283.391	7.3235	566782	prompt	n/a	broker derby collar conflict\n
284.0325	0.064	568065	keystroke	b	n/a
284.1205	0.096	568241	keystroke	r	n/a
284.96	0.0645	569920	keystroke	o	n/a
285.1285	0.08	570257	keystroke	k	n/a
285.24	0.136	570480	keystroke	e	n/a
285.352	0.1365	570704	keystroke	r	n/a
285.4965	0.128	570993	keystroke	Key.space	n/a
285.8005	0.104	571601	keystroke	e	n/a
286.2405	0.08	572481	keystroke	Key.backspace	n/a
286.3685	0.104	572737	keystroke	d	n/a
286.6805	0.144	573361	keystroke	e	n/a
286.8245	0.128	573649	keystroke	r	n/a
287.4405	0.168	574881	keystroke	b	n/a
287.585	0.104	575170	keystroke	y	n/a
287.7845	0.08	575569	keystroke	Key.space	n/a
288.0485	0.0805	576097	keystroke	c	n/a
288.1445	0.072	576289	keystroke	o	n/a
288.368	0.048	576736	keystroke	l	n/a
288.496	0.072	576992	keystroke	l	n/a
288.569	0.136	577138	keystroke	a	n/a
288.737	0.1835	577474	keystroke	r	n/a
288.928	0.064	577856	keystroke	Key.space	n/a
289.1605	0.0955	578321	keystroke	c	n/a
289.248	0.056	578496	keystroke	o	n/a
289.4485	0.0805	578897	keystroke	n	n/a
289.6085	0.0885	579217	keystroke	f	n/a
289.8165	0.1755	579633	keystroke	l	n/a
289.944	0.089	579888	keystroke	i	n/a
290.0965	0.0955	580193	keystroke	c	n/a
290.2565	0.0725	580513	keystroke	t	n/a
290.624	0.088	581248	keystroke	Key.enter	n/a
290.718	11.1885	581436	prompt	n/a	purposes ribbon joining fisheries\n
291.7045	0.088	583409	keystroke	p	n/a
292.033	0.063	584066	keystroke	i	n/a
292.184	0.072	584368	keystroke	r	n/a
292.904	0.072	585808	keystroke	Key.backspace	n/a
293.072	0.072	586144	keystroke	Key.backspace	n/a
293.6245	0.056	587249	keystroke	u	n/a
293.8565	0.088	587713	keystroke	r	n/a
294.08	0.0645	588160	keystroke	p	n/a
294.2885	0.04	588577	keystroke	o	n/a
294.912	0.1845	589824	keystroke	s	n/a
295.0645	0.168	590129	keystroke	e	n/a
295.2405	0.1515	590481	keystroke	s	n/a
295.408	0.1365	590816	keystroke	Key.space	n/a
295.7365	0.088	591473	keystroke	r	n/a
295.864	0.0725	591728	keystroke	i	n/a
296.0485	0.072	592097	keystroke	b	n/a
296.2005	0.0715	592401	keystroke	b	n/a
296.392	0.08	592784	keystroke	o	n/a
296.5605	0.064	593121	keystroke	n	n/a
296.6805	0.104	593361	keystroke	Key.space	n/a
297	0.072	594000	keystroke	g	n/a
297.2485	0.128	594497	keystroke	o	n/a
297.5205	0.072	595041	keystroke	i	n/a
297.8725	0.056	595745	keystroke	Key.backspace	n/a
298.032	0.056	596064	keystroke	Key.backspace	n/a
298.184	0.064	596368	keystroke	Key.backspace	n/a
298.864	0.0725	597728	keystroke	j	n/a
299.016	0.0885	598032	keystroke	o	n/a
299.232	0.064	598464	keystroke	i	n/a
299.432	0.0885	598864	keystroke	n	n/a
299.8885	0.072	599777	keystroke	i	n/a
300.0485	0.064	600097	keystroke	n	n/a
300.1285	0.104	600257	keystroke	g	n/a
300.2405	0.104	600481	keystroke	Key.space	n/a
300.4395	0.104	600879	keystroke	f	n/a
300.5605	0.071	601121	keystroke	i	n/a
300.7035	0.112	601407	keystroke	s	n/a
300.872	0.0725	601744	keystroke	h	n/a
301.112	0.128	602224	keystroke	e	n/a
301.216	0.12	602432	keystroke	r	n/a
301.3765	0.08	602753	keystroke	i	n/a
301.528	0.16	603056	keystroke	e	n/a
301.648	0.1445	603296	keystroke	s	n/a
301.832	0.072	603664	keystroke	Key.enter	n/a
301.91	11.612	603820	prompt	n/a	contrary cookie shopper learners\n
302.64	0.032	605280	keystroke	o	n/a
302.9925	0.0715	605985	keystroke	Key.backspace	n/a
303.072	0.096	606144	keystroke	c	n/a
303.2245	0.08	606449	keystroke	o	n/a
303.3845	0.072	606769	keystroke	n	n/a
303.4965	0.16	606993	keystroke	t	n/a
303.912	0.112	607824	keystroke	r	n/a
304.0565	0.1835	608113	keystroke	a	n/a
304.328	0.056	608656	keystroke	r	n/a
305.0645	0.072	610129	keystroke	y	n/a
305.232	0.088	610464	keystroke	Key.space	n/a
305.4565	0.0955	610913	keystroke	c	n/a
305.536	0.0645	611072	keystroke	o	n/a
306.464	0.08	612928	keystroke	o	n/a
306.664	0.08	613328	keystroke	k	n/a
306.872	0.064	613744	keystroke	i	n/a
307.112	0.128	614224	keystroke	e	n/a
307.304	0.104	614608	keystroke	Key.space	n/a
307.464	0.096	614928	keystroke	s	n/a
307.568	0.072	615136	keystroke	h	n/a
307.784	0.072	615568	keystroke	o	n/a
308.32	0.056	616640	keystroke	p	n/a
308.488	0.0725	616976	keystroke	p	n/a
308.672	0.16	617344	keystroke	e	n/a
308.7835	0.152	617567	keystroke	r	n/a
308.9445	0.143	617889	keystroke	Key.space	n/a
309.368	0.0965	618736	keystroke	l	n/a
309.4965	0.176	618993	keystroke	a	n/a
309.6885	0.096	619377	keystroke	r	n/a
309.8325	0.1115	619665	keystroke	n	n/a
310.624	0.072	621248	keystroke	Key.backspace	n/a
310.8	0.064	621600	keystroke	Key.backspace	n/a
311.216	0.056	622432	keystroke	Key.backspace	n/a
311.3605	0.1515	622721	keystroke	e	n/a
311.5285	0.2155	623057	keystroke	a	n/a
311.784	0.136	623568	keystroke	r	n/a
312.4085	0.088	624817	keystroke	n	n/a
312.6315	0.16	625263	keystroke	e	n/a
312.7355	0.144	625471	keystroke	r	n/a
312.9205	0.1115	625841	keystroke	s	n/a
313.432	0.088	626864	keystroke	Key.enter	n/a
313.5265	5.531	627053	prompt	n/a	the banking desktops over\n
314.1115	0.152	628223	keystroke	t	n/a
314.2155	0.073	628431	keystroke	h	n/a
314.344	0.16	628688	keystroke	e	n/a
314.512	0.104	629024	keystroke	Key.space	n/a
314.84	0.032	629680	keystroke	b	n/a
315.128	0.16	630256	keystroke	a	n/a
315.264	0.16	630528	keystroke	n	n/a
315.376	0.112	630752	keystroke	k	n/a
315.6	0.08	631200	keystroke	i	n/a
315.752	0.072	631504	keystroke	n	n/a
315.8165	0.103	631633	keystroke	g	n/a
315.896	0.144	631792	keystroke	Key.space	n/a
316.248	0.064	632496	keystroke	d	n/a
316.44	0.1605	632880	keystroke	e	n/a
316.576	0.1445	633152	keystroke	s	n/a
316.968	0.095	633936	keystroke	k	n/a
317.208	0.104	634416	keystroke	t	n/a
317.3445	0.1675	634689	keystroke	o	n/a
317.464	0.128	634928	keystroke	p	n/a
317.584	0.1445	635168	keystroke	s	n/a
317.7355	0.136	635471	keystroke	Key.space	n/a
318.288	0.104	636576	keystroke	o	n/a
318.456	0.104	636912	keystroke	v	n/a
318.624	0.1525	637248	keystroke	e	n/a
318.744	0.12	637488	keystroke	r	n/a
318.9675	0.088	637935	keystroke	Key.enter	n/a
319.061	9.3485	638122	prompt	n/a	sodium badly buffer disk\n
319.6245	0.0955	639249	keystroke	s	n/a
319.744	0.08	639488	keystroke	o	n/a
319.896	0.104	639792	keystroke	d	n/a
320.0155	0.0885	640031	keystroke	i	n/a
320.2485	0.0865	640497	keystroke	m	n/a
320.856	0.095	641712	keystroke	Key.backspace	n/a
321.328	0.096	642656	keystroke	u	n/a
321.552	0.128	643104	keystroke	m	n/a
321.824	0.144	643648	keystroke	Key.space	n/a
322.888	0.12	645776	keystroke	b	n/a
323.2485	0.111	646497	keystroke	a	n/a
324.143	0.081	648286	keystroke	d	n/a
324.5755	0.1125	649151	keystroke	l	n/a
324.8715	0.088	649743	keystroke	y	n/a
325.1515	0.08	650303	keystroke	Key.space	n/a
325.528	0.128	651056	keystroke	b	n/a
325.672	0.0885	651344	keystroke	u	n/a
325.952	0.072	651904	keystroke	f	n/a
326.136	0.072	652272	keystroke	f	n/a
326.376	0.272	652752	keystroke	e	n/a
326.528	0.1995	653056	keystroke	r	n/a
326.7355	0.16	653471	keystroke	Key.space	n/a
327.1435	0.0805	654287	keystroke	d	n/a
327.256	0.064	654512	keystroke	i	n/a
327.392	0.096	654784	keystroke	s	n/a
328.032	0.079	656064	keystroke	k	n/a
328.3195	0.0885	656639	keystroke	Key.enter	n/a
328.4135	16.604	656827	prompt	n/a	councils beyond sports contained\n
329.104	0.08	658208	keystroke	c	n/a
329.224	0.0395	658448	keystroke	o	n/a
330.96	0.0715	661920	keystroke	u	n/a
331.1355	0.0805	662271	keystroke	n	n/a
331.3035	0.08	662607	keystroke	c	n/a
331.4235	0.184	662847	keystroke	i	n/a
331.5525	0.151	663105	keystroke	l	n/a
331.784	0.1195	663568	keystroke	s	n/a
331.9675	0.128	663935	keystroke	Key.space	n/a
332.568	0.0635	665136	keystroke	b	n/a
332.664	0.08	665328	keystroke	e	n/a
333.0955	0.096	666191	keystroke	y	n/a
333.352	0.112	666704	keystroke	o	n/a
333.528	0.096	667056	keystroke	n	n/a
333.656	0.12	667312	keystroke	g	n/a
334.2635	0.12	668527	keystroke	Key.space	n/a
334.424	0.1115	668848	keystroke	s	n/a
335.1195	0.088	670239	keystroke	Key.backspace	n/a
335.28	0.08	670560	keystroke	Key.backspace	n/a
335.6395	0.064	671279	keystroke	Key.backspace	n/a
335.792	0.1675	671584	keystroke	d	n/a
336.2	0.184	672400	keystroke	Key.space	n/a
337.072	0.1115	674144	keystroke	s	n/a
337.336	0.072	674672	keystroke	p	n/a
337.752	0.079	675504	keystroke	o	n/a
337.896	0.199	675792	keystroke	r	n/a
338.0875	0.1365	676175	keystroke	t	n/a
338.344	0.151	676688	keystroke	s	n/a
338.5195	0.1275	677039	keystroke	Key.space	n/a
338.751	0.097	677502	keystroke	c	n/a
338.8315	0.0885	677663	keystroke	o	n/a
339.016	0.064	678032	keystroke	n	n/a
339.112	0.152	678224	keystroke	t	n/a
339.3035	0.112	678607	keystroke	r	n/a
339.551	0.144	679102	keystroke	a	n/a
339.7035	0.08	679407	keystroke	i	n/a
339.919	0.056	679838	keystroke	n	n/a
340.6635	0.1285	681327	keystroke	e	n/a
341.599	0.072	683198	keystroke	Key.backspace	n/a
341.7675	0.056	683535	keystroke	Key.backspace	n/a
341.9275	0.048	683855	keystroke	Key.backspace	n/a
342.072	0.0635	684144	keystroke	Key.backspace	n/a
342.239	0.056	684478	keystroke	Key.backspace	n/a
342.568	0.1355	685136	keystroke	e	n/a
343.431	0.064	686862	keystroke	Key.backspace	n/a
343.5915	0.136	687183	keystroke	a	n/a
343.84	0.1035	687680	keystroke	i	n/a
344.064	0.0955	688128	keystroke	n	n/a
344.215	0.073	688430	keystroke	e	n/a
344.4155	0.1435	688831	keystroke	d	n/a
344.9035	0.1115	689807	keystroke	Key.enter	n/a
345.0225	15.4025	690045	prompt	n/a	defects techniques wrist shooting\n
345.4875	0.088	690975	keystroke	c	n/a
345.8235	0.08	691647	keystroke	Key.backspace	n/a
345.8955	0.0885	691791	keystroke	d	n/a
346.1675	0.0645	692335	keystroke	e	n/a
346.6075	0.144	693215	keystroke	t	n/a
347.0635	0.08	694127	keystroke	Key.backspace	n/a
347.184	0.176	694368	keystroke	f	n/a
347.3355	0.12	694671	keystroke	e	n/a
347.543	0.1125	695086	keystroke	c	n/a
347.8235	0.088	695647	keystroke	t	n/a
348.0635	0.12	696127	keystroke	s	n/a
348.2955	0.112	696591	keystroke	Key.space	n/a
348.728	0.1195	697456	keystroke	t	n/a
348.9675	0.0885	697935	keystroke	e	n/a
349.295	0.073	698590	keystroke	c	n/a
349.487	0.081	698974	keystroke	h	n/a
349.744	0.208	699488	keystroke	n	n/a
349.888	0.112	699776	keystroke	i	n/a
349.976	0.087	699952	keystroke	q	n/a
350.207	0.1685	700414	keystroke	e	n/a
350.6235	0.096	701247	keystroke	Key.backspace	n/a
350.9515	0.0805	701903	keystroke	u	n/a
351.0635	0.208	702127	keystroke	e	n/a
351.1915	0.1605	702383	keystroke	s	n/a
351.3265	0.113	702653	keystroke	Key.space	n/a
351.5435	0.112	703087	keystroke	r	n/a
351.8795	0.088	703759	keystroke	Key.backspace	n/a
352.072	0.1355	704144	keystroke	w	n/a
352.2875	0.104	704575	keystroke	r	n/a
352.519	0.056	705038	keystroke	u	n/a
352.9195	0.064	705839	keystroke	Key.backspace	n/a
353.1755	0.08	706351	keystroke	i	n/a
353.32	0.1275	706640	keystroke	t	n/a
353.5195	0.24	707039	keystroke	s	n/a
354.487	0.072	708974	keystroke	Key.backspace	n/a
355.255	0.072	710510	keystroke	Key.backspace	n/a
355.7435	0.1435	711487	keystroke	s	n/a
356.04	0.096	712080	keystroke	t	n/a
356.143	0.1445	712286	keystroke	Key.space	n/a
356.4555	0.104	712911	keystroke	s	n/a
356.624	0.064	713248	keystroke	h	n/a
356.8315	0.064	713663	keystroke	o	n/a
356.9675	0.08	713935	keystroke	o	n/a
357.0875	0.1835	714175	keystroke	r	n/a
357.2555	0.1515	714511	keystroke	t	n/a
357.8555	0.0715	715711	keystroke	Key.backspace	n/a
357.999	0.0725	715998	keystroke	Key.backspace	n/a
358.2065	0.089	716413	keystroke	t	n/a
358.584	0.0875	717168	keystroke	i	n/a
358.767	0.081	717534	keystroke	n	n/a
358.8795	0.144	717759	keystroke	g	n/a
359.031	0.1525	718062	keystroke	Key.space	n/a
360.319	0.1035	720638	keystroke	Key.enter	n/a
360.4295	11.0595	720859	prompt	n/a	trusts canberra in bathrooms\n
361.168	0.1115	722336	keystroke	t	n/a
361.3995	0.104	722799	keystroke	r	n/a
361.5675	0.024	723135	keystroke	u	n/a
361.656	0.2075	723312	keystroke	s	n/a
361.808	0.1675	723616	keystroke	t	n/a
362.0795	0.143	724159	keystroke	s	n/a
362.231	0.112	724462	keystroke	Key.space	n/a
362.4795	0.144	724959	keystroke	c	n/a
362.6155	0.1365	725231	keystroke	a	n/a
362.7595	0.1115	725519	keystroke	n	n/a
363.0235	0.1115	726047	keystroke	c	n/a
364.335	0.096	728670	keystroke	Key.backspace	n/a
364.911	0.072	729822	keystroke	b	n/a
365.1115	0.2315	730223	keystroke	e	n/a
365.271	0.1845	730542	keystroke	r	n/a
365.7995	0.1195	731599	keystroke	r	n/a
366.0715	0.1435	732143	keystroke	a	n/a
366.327	0.161	732654	keystroke	Key.space	n/a
366.7515	0.096	733503	keystroke	i	n/a
369.0075	0.135	738015	keystroke	n	n/a
369.4225	0.176	738845	keystroke	Key.space	n/a
369.6705	0.089	739341	keystroke	b	n/a
369.791	0.2245	739582	keystroke	a	n/a
369.9835	0.167	739967	keystroke	t	n/a
370.1195	0.071	740239	keystroke	h	n/a
370.2625	0.12	740525	keystroke	r	n/a
370.4225	0.064	740845	keystroke	o	n/a
370.559	0.0645	741118	keystroke	o	n/a
370.7345	0.0805	741469	keystroke	m	n/a
370.895	0.128	741790	keystroke	s	n/a
371.4155	0.0715	742831	keystroke	Key.enter	n/a
371.4925	13.42	742985	prompt	n/a	integrity singh bingo socket\n
372.119	0.0725	744238	keystroke	i	n/a
372.303	0.0955	744606	keystroke	n	n/a
372.4715	0.072	744943	keystroke	t	n/a
372.735	0.112	745470	keystroke	e	n/a
373.047	0.104	746094	keystroke	g	n/a
373.343	0.0715	746686	keystroke	i	n/a
373.791	0.0725	747582	keystroke	Key.backspace	n/a
373.919	0.08	747838	keystroke	r	n/a
374.0955	0.0795	748191	keystroke	i	n/a
374.271	0.104	748542	keystroke	t	n/a
374.623	0.088	749246	keystroke	y	n/a
375.175	0.128	750350	keystroke	Key.space	n/a
375.463	0.08	750926	keystroke	s	n/a
375.615	0.08	751230	keystroke	i	n/a
375.807	0.088	751614	keystroke	g	n/a
377.103	0.0885	754206	keystroke	Key.backspace	n/a
377.351	0.096	754702	keystroke	n	n/a
377.495	0.096	754990	keystroke	g	n/a
378.063	0.112	756126	keystroke	h	n/a
378.3745	0.137	756749	keystroke	Key.space	n/a
378.6715	0.112	757343	keystroke	b	n/a
379.9505	0.056	759901	keystroke	Key.backspace	n/a
381.183	0.128	762366	keystroke	b	n/a
381.431	0.0885	762862	keystroke	i	n/a
381.599	0.088	763198	keystroke	n	n/a
381.767	0.1365	763534	keystroke	g	n/a
381.935	0.0725	763870	keystroke	o	n/a
382.039	0.16	764078	keystroke	Key.space	n/a
382.279	0.2235	764558	keystroke	s	n/a
382.5355	0.0155	765071	keystroke	s	n/a
382.7425	0.057	765485	keystroke	o	n/a
383.1105	0.064	766221	keystroke	Key.backspace	n/a
383.263	0.064	766526	keystroke	Key.backspace	n/a
383.487	0.0805	766974	keystroke	o	n/a
383.6635	0.079	767327	keystroke	c	n/a
383.799	0.0805	767598	keystroke	k	n/a
383.9825	0.145	767965	keystroke	e	n/a
384.1915	0.08	768383	keystroke	t	n/a
384.8385	0.0725	769677	keystroke	Key.enter	n/a
384.918	11.9225	769836	prompt	n/a	avoiding travis shepherd democrat\n
385.519	0.0965	771038	keystroke	a	n/a
385.9995	0.0715	771999	keystroke	v	n/a
386.6155	0.08	773231	keystroke	o	n/a
386.8865	0.0805	773773	keystroke	i	n/a
387.0065	0.096	774013	keystroke	d	n/a
387.4625	0.081	774925	keystroke	i	n/a
387.639	0.0795	775278	keystroke	n	n/a
387.7425	0.112	775485	keystroke	g	n/a
387.863	0.1115	775726	keystroke	Key.space	n/a
388.327	0.1195	776654	keystroke	t	n/a
388.4865	0.129	776973	keystroke	r	n/a
388.6785	0.1125	777357	keystroke	a	n/a
388.9985	0.08	777997	keystroke	v	n/a
389.3745	0.072	778749	keystroke	i	n/a
389.495	0.1595	778990	keystroke	s	n/a
389.6385	0.0965	779277	keystroke	Key.space	n/a
389.799	0.08	779598	keystroke	s	n/a
389.943	0.088	779886	keystroke	h	n/a
390.151	0.112	780302	keystroke	e	n/a
390.655	0.04	781310	keystroke	p	n/a
390.999	0.072	781998	keystroke	h	n/a
391.175	0.168	782350	keystroke	e	n/a
391.2955	0.1195	782591	keystroke	r	n/a
391.6225	0.1195	783245	keystroke	d	n/a
391.8945	0.12	783789	keystroke	Key.space	n/a
393.303	0.063	786606	keystroke	d	n/a
393.47	0.1205	786940	keystroke	e	n/a
393.75	0.192	787500	keystroke	m	n/a
393.902	0.1375	787804	keystroke	o	n/a
394.2385	0.072	788477	keystroke	c	n/a
394.6465	0.1035	789293	keystroke	r	n/a
395.3355	0.183	790671	keystroke	a	n/a
395.6145	0.064	791229	keystroke	t	n/a
396.7265	0.112	793453	keystroke	Key.enter	n/a
396.845	12.179	793690	prompt	n/a	ranks icons printable track\n
397.599	0.1355	795198	keystroke	t	n/a
397.99	0.0805	795980	keystroke	a	n/a
398.262	0.161	796524	keystroke	n	n/a
398.663	0.071	797326	keystroke	Key.backspace	n/a
398.8145	0.0715	797629	keystroke	Key.backspace	n/a
398.967	0.0555	797934	keystroke	Key.backspace	n/a
399.055	0.12	798110	keystroke	r	n/a
399.207	0.1355	798414	keystroke	a	n/a
399.367	0.192	798734	keystroke	n	n/a
399.479	0.1435	798958	keystroke	k	n/a
399.639	0.1435	799278	keystroke	s	n/a
399.919	0.112	799838	keystroke	Key.space	n/a
400.599	0.0715	801198	keystroke	i	n/a
400.711	0.088	801422	keystroke	c	n/a
400.855	0.079	801710	keystroke	o	n/a
401.047	0.0635	802094	keystroke	n	n/a
401.166	0.145	802332	keystroke	s	n/a
401.615	0.088	803230	keystroke	Key.space	n/a
402.4785	0.0715	804957	keystroke	o	n/a
402.647	0.0875	805294	keystroke	r	n/a
402.847	0.064	805694	keystroke	i	n/a
403.038	0.081	806076	keystroke	n	n/a
403.198	0.0885	806396	keystroke	t	n/a
403.423	0.1195	806846	keystroke	a	n/a
403.5905	0.04	807181	keystroke	b	n/a
403.9345	0.064	807869	keystroke	Key.backspace	n/a
404.094	0.0565	808188	keystroke	Key.backspace	n/a
404.246	0.0645	808492	keystroke	Key.backspace	n/a
404.415	0.056	808830	keystroke	Key.backspace	n/a
404.567	0.056	809134	keystroke	Key.backspace	n/a
404.742	0.056	809484	keystroke	Key.backspace	n/a
405.0145	0.0715	810029	keystroke	Key.backspace	n/a
405.446	0.089	810892	keystroke	p	n/a
406.0625	0.1045	812125	keystroke	r	n/a
406.207	0.0715	812414	keystroke	i	n/a
406.391	0.0795	812782	keystroke	n	n/a
406.551	0.0955	813102	keystroke	t	n/a
406.799	0.1115	813598	keystroke	a	n/a
406.9425	0.0645	813885	keystroke	b	n/a
407.175	0.0955	814350	keystroke	l	n/a
407.2705	0.144	814541	keystroke	e	n/a
407.4145	0.1275	814829	keystroke	Key.space	n/a
407.6305	0.192	815261	keystroke	t	n/a
407.815	0.1275	815630	keystroke	r	n/a
407.927	0.1515	815854	keystroke	a	n/a
408.1985	0.136	816397	keystroke	c	n/a
408.3665	0.088	816733	keystroke	k	n/a
408.9025	0.1205	817805	keystroke	Key.enter	n/a
409.0265	7.2865	818053	prompt	n/a	tribune hats demanding housing\n
409.8785	0.1045	819757	keystroke	t	n/a
410.2465	0.08	820493	keystroke	r	n/a
410.502	0.072	821004	keystroke	i	n/a
410.7745	0.168	821549	keystroke	b	n/a
410.8945	0.1045	821789	keystroke	u	n/a
411.1105	0.072	822221	keystroke	n	n/a
411.2385	0.136	822477	keystroke	e	n/a
411.3665	0.1115	822733	keystroke	Key.space	n/a
411.615	0.088	823230	keystroke	h	n/a
411.7265	0.1285	823453	keystroke	a	n/a
411.935	0.103	823870	keystroke	t	n/a
412.135	0.1435	824270	keystroke	s	n/a
412.2625	0.112	824525	keystroke	Key.space	n/a
412.4385	0.088	824877	keystroke	d	n/a
412.5905	0.1125	825181	keystroke	e	n/a
412.8385	0.112	825677	keystroke	m	n/a
413.326	0.0805	826652	keystroke	a	n/a
413.519	0.0635	827038	keystroke	n	n/a
413.639	0.096	827278	keystroke	d	n/a
413.7585	0.0885	827517	keystroke	i	n/a
413.919	0.071	827838	keystroke	n	n/a
413.999	0.127	827998	keystroke	g	n/a
414.11	0.12	828220	keystroke	Key.space	n/a
414.6625	0.096	829325	keystroke	h	n/a
414.9345	0.184	829869	keystroke	o	n/a
415.079	0.1035	830158	keystroke	u	n/a
415.1985	0.112	830397	keystroke	s	n/a
415.2945	0.088	830589	keystroke	i	n/a
415.4465	0.088	830893	keystroke	n	n/a
415.5425	0.088	831085	keystroke	g	n/a
416.2225	0.0875	832445	keystroke	Key.enter	n/a
416.3175	13.594	832635	prompt	n/a	fourth martha achieving occasional\n
418.014	0.088	836028	keystroke	f	n/a
418.254	0.1925	836508	keystroke	o	n/a
418.406	0.1285	836812	keystroke	u	n/a
418.583	0.104	837166	keystroke	r	n/a
418.7505	0.128	837501	keystroke	t	n/a
418.8945	0.072	837789	keystroke	h	n/a
418.998	0.1125	837996	keystroke	Key.space	n/a
419.2145	0.08	838429	keystroke	m	n/a
419.4545	0.112	838909	keystroke	a	n/a
419.6615	0.097	839323	keystroke	r	n/a
419.8545	0.0955	839709	keystroke	t	n/a
419.975	0.087	839950	keystroke	h	n/a
420.094	0.1605	840188	keystroke	a	n/a
420.246	0.104	840492	keystroke	Key.space	n/a
420.454	0.0885	840908	keystroke	a	n/a
424.3665	0.096	848733	keystroke	c	n/a
424.5585	0.064	849117	keystroke	h	n/a
425.286	0.072	850572	keystroke	i	n/a
425.798	0.0965	851596	keystroke	e	n/a
426.2865	0.088	852573	keystroke	v	n/a
426.406	0.0885	852812	keystroke	i	n/a
426.542	0.121	853084	keystroke	n	n/a
426.646	0.1205	853292	keystroke	g	n/a
426.7345	0.1435	853469	keystroke	Key.space	n/a
426.974	0.064	853948	keystroke	o	n/a
427.4855	0.088	854971	keystroke	c	n/a
427.6945	0.0875	855389	keystroke	c	n/a
427.8625	0.152	855725	keystroke	a	n/a
428.1105	0.088	856221	keystroke	s	n/a
428.3185	0.176	856637	keystroke	i	n/a
428.4385	0.1275	856877	keystroke	o	n/a
428.622	0.072	857244	keystroke	n	n/a
428.7025	0.1355	857405	keystroke	a	n/a
429.5665	0.048	859133	keystroke	l	n/a
429.8455	0.064	859691	keystroke	Key.enter	n/a
429.9145	11.4215	859829	prompt	n/a	webshots traditions sleeve americans\n
430.6385	0.128	861277	keystroke	w	n/a
431.022	0.096	862044	keystroke	e	n/a
431.406	0.168	862812	keystroke	n	n/a
432.03	0.096	864060	keystroke	Key.backspace	n/a
432.6305	0.064	865261	keystroke	b	n/a
432.8225	0.08	865645	keystroke	s	n/a
432.9505	0.08	865901	keystroke	h	n/a
433.1505	0.08	866301	keystroke	o	n/a
433.294	0.0565	866588	keystroke	t	n/a
433.5425	0.1275	867085	keystroke	s	n/a
433.782	0.088	867564	keystroke	Key.space	n/a
435.606	0.136	871212	keystroke	t	n/a
435.798	0.1605	871596	keystroke	r	n/a
436.2785	0.0875	872557	keystroke	a	n/a
436.9425	0.1115	873885	keystroke	d	n/a
437.118	0.08	874236	keystroke	i	n/a
437.206	0.104	874412	keystroke	t	n/a
437.366	0.1195	874732	keystroke	i	n/a
437.4215	0.1525	874843	keystroke	o	n/a
437.614	0.0965	875228	keystroke	n	n/a
437.8545	0.112	875709	keystroke	s	n/a
438.3105	0.111	876621	keystroke	Key.space	n/a
438.5345	0.079	877069	keystroke	s	n/a
438.6945	0.103	877389	keystroke	l	n/a
438.8465	0.1035	877693	keystroke	e	n/a
439.046	0.08	878092	keystroke	e	n/a
439.27	0.128	878540	keystroke	v	n/a
439.462	0.144	878924	keystroke	e	n/a
439.5905	0.1115	879181	keystroke	Key.space	n/a
439.926	0.104	879852	keystroke	a	n/a
440.062	0.08	880124	keystroke	m	n/a
440.214	0.1285	880428	keystroke	e	n/a
440.2935	0.097	880587	keystroke	r	n/a
440.526	0.0725	881052	keystroke	i	n/a
440.6305	0.12	881261	keystroke	c	n/a
440.7255	0.129	881451	keystroke	a	n/a
440.8705	0.08	881741	keystroke	n	n/a
440.9985	0.104	881997	keystroke	s	n/a
441.2615	0.072	882523	keystroke	Key.enter	n/a
441.34	15.436	882680	prompt	n/a	derby themes widespread believed\n
442.046	0.088	884092	keystroke	d	n/a
442.3425	0.152	884685	keystroke	e	n/a
442.4545	0.136	884909	keystroke	r	n/a
442.75	0.2245	885500	keystroke	b	n/a
442.9345	0.12	885869	keystroke	y	n/a
443.1335	0.0885	886267	keystroke	Key.space	n/a
443.446	0.0795	886892	keystroke	t	n/a
443.5575	0.08	887115	keystroke	h	n/a
443.7025	0.104	887405	keystroke	e	n/a
443.8455	0.0965	887691	keystroke	m	n/a
443.9665	0.119	887933	keystroke	e	n/a
444.3815	0.0885	888763	keystroke	s	n/a
444.582	0.1205	889164	keystroke	Key.space	n/a
444.878	0.048	889756	keystroke	w	n/a
444.958	0.072	889916	keystroke	i	n/a
445.238	0.064	890476	keystroke	d	n/a
445.43	0.0965	890860	keystroke	e	n/a
445.67	0.104	891340	keystroke	s	n/a
445.918	0.0795	891836	keystroke	p	n/a
446.0855	0.16	892171	keystroke	r	n/a
446.1895	0.2405	892379	keystroke	e	n/a
446.4625	0.1835	892925	keystroke	a	n/a
446.6865	0.2075	893373	keystroke	d	n/a
446.926	0.144	893852	keystroke	Key.space	n/a
447.7025	0.087	895405	keystroke	b	n/a
447.7985	0.0795	895597	keystroke	e	n/a
447.9895	0.233	895979	keystroke	l	n/a
448.1665	0.112	896333	keystroke	i	n/a
448.3975	0.193	896795	keystroke	v	n/a
448.558	0.1515	897116	keystroke	e	n/a
448.8135	0.1125	897627	keystroke	d	n/a
449.318	0.08	898636	keystroke	Key.backspace	n/a
449.4625	0.087	898925	keystroke	Key.backspace	n/a
449.6295	0.0565	899259	keystroke	Key.backspace	n/a
449.758	0.0645	899516	keystroke	Key.backspace	n/a
449.974	0.128	899948	keystroke	e	n/a
450.582	0.08	901164	keystroke	Key.backspace	n/a
450.846	0.064	901692	keystroke	i	n/a
451.638	0.152	903276	keystroke	e	n/a
451.958	0.104	903916	keystroke	v	n/a
452.158	0.104	904316	keystroke	e	n/a
452.374	0.12	904748	keystroke	d	n/a
456.638	0.136	913276	keystroke	Key.enter	n/a
456.78	14.371	913560	prompt	n/a	tuesday associated usage flame\n
457.654	0.12	915308	keystroke	t	n/a
458.1105	0.048	916221	keystroke	u	n/a
458.4145	0.1995	916829	keystroke	e	n/a
458.542	0.24	917084	keystroke	s	n/a
458.886	0.16	917772	keystroke	d	n/a
459.038	0.128	918076	keystroke	a	n/a
459.166	0.0965	918332	keystroke	y	n/a
459.318	0.128	918636	keystroke	Key.space	n/a
459.4945	0.12	918989	keystroke	a	n/a
459.7255	0.104	919451	keystroke	s	n/a
459.894	0.0955	919788	keystroke	s	n/a
460.1015	0.0965	920203	keystroke	o	n/a
460.2695	0.1285	920539	keystroke	c	n/a
460.446	0.168	920892	keystroke	a	n/a
460.5895	0.0725	921179	keystroke	i	n/a
460.7895	0.177	921579	keystroke	t	n/a
460.998	0.1525	921996	keystroke	e	n/a
461.2385	0.1675	922477	keystroke	d	n/a
462.1495	0.088	924299	keystroke	Key.backspace	n/a
462.318	0.0715	924636	keystroke	Key.backspace	n/a
462.4695	0.064	924939	keystroke	Key.backspace	n/a
462.6215	0.0725	925243	keystroke	Key.backspace	n/a
462.8295	0.0725	925659	keystroke	Key.backspace	n/a
463.3015	0.072	926603	keystroke	Key.backspace	n/a
463.878	0.112	927756	keystroke	c	n/a
464.086	0.071	928172	keystroke	i	n/a
464.214	0.16	928428	keystroke	a	n/a
464.4465	0.1515	928893	keystroke	t	n/a
464.662	0.104	929324	keystroke	e	n/a
464.8615	0.176	929723	keystroke	d	n/a
465.046	0.1115	930092	keystroke	Key.space	n/a
465.3345	0.071	930669	keystroke	u	n/a
465.4615	0.177	930923	keystroke	s	n/a
465.6225	0.224	931245	keystroke	a	n/a
465.814	0.192	931628	keystroke	g	n/a
465.9895	0.152	931979	keystroke	e	n/a
466.214	0.1435	932428	keystroke	Key.space	n/a
466.422	0.1195	932844	keystroke	f	n/a
466.5985	0.0795	933197	keystroke	l	n/a
466.734	0.136	933468	keystroke	a	n/a
467.102	0.1035	934204	keystroke	m	n/a
467.31	0.0955	934620	keystroke	e	n/a
467.581	0.121	935162	keystroke	Key.space	n/a
471.0615	0.088	942123	keystroke	Key.enter	n/a
471.1535	9.742	942307	prompt	n/a	latex difficulty approaches june\n
472.23	0.0715	944460	keystroke	l	n/a
472.358	0.128	944716	keystroke	a	n/a
473.03	0.136	946060	keystroke	t	n/a
473.206	0.088	946412	keystroke	e	n/a
473.446	0.096	946892	keystroke	x	n/a
474.181	0.105	948362	keystroke	Key.space	n/a
474.398	0.12	948796	keystroke	f	n/a
474.7655	0.0875	949531	keystroke	Key.backspace	n/a
474.909	0.088	949818	keystroke	d	n/a
475.038	0.072	950076	keystroke	i	n/a
475.1895	0.0885	950379	keystroke	f	n/a
475.358	0.08	950716	keystroke	f	n/a
475.566	0.072	951132	keystroke	i	n/a
475.702	0.112	951404	keystroke	c	n/a
475.8535	0.0805	951707	keystroke	u	n/a
476.1015	0.088	952203	keystroke	l	n/a
476.717	0.097	953434	keystroke	t	n/a
476.854	0.088	953708	keystroke	y	n/a
477.1655	0.104	954331	keystroke	Key.space	n/a
477.334	0.144	954668	keystroke	a	n/a
477.4695	0.0485	954939	keystroke	p	n/a
477.606	0.063	955212	keystroke	p	n/a
477.7255	0.0875	955451	keystroke	r	n/a
477.861	0.056	955722	keystroke	o	n/a
477.9895	0.1205	955979	keystroke	a	n/a
478.1735	0.1195	956347	keystroke	c	n/a
478.373	0.081	956746	keystroke	h	n/a
478.47	0.1515	956940	keystroke	e	n/a
478.6455	0.192	957291	keystroke	s	n/a
478.8215	0.112	957643	keystroke	Key.space	n/a
478.9895	0.208	957979	keystroke	j	n/a
479.1815	0.096	958363	keystroke	u	n/a
479.4615	0.1125	958923	keystroke	m	n/a
479.95	0.0635	959900	keystroke	Key.backspace	n/a
480.2215	0.08	960443	keystroke	n	n/a
480.3575	0.0955	960715	keystroke	e	n/a
480.814	0.08	961628	keystroke	Key.enter	n/a
480.9	8.371	961800	prompt	n/a	trend wendy riders cheque\n
481.5975	0.152	963195	keystroke	t	n/a
481.758	0.199	963516	keystroke	r	n/a
481.934	0.255	963868	keystroke	e	n/a
482.2615	0.0725	964523	keystroke	n	n/a
482.405	0.1525	964810	keystroke	d	n/a
482.614	0.088	965228	keystroke	Key.space	n/a
483.517	0.1365	967034	keystroke	w	n/a
483.638	0.112	967276	keystroke	e	n/a
483.797	0.08	967594	keystroke	n	n/a
483.925	0.121	967850	keystroke	d	n/a
484.158	0.079	968316	keystroke	y	n/a
484.3975	0.12	968795	keystroke	Key.space	n/a
486.2775	0.112	972555	keystroke	r	n/a
486.4375	0.064	972875	keystroke	i	n/a
486.573	0.1205	973146	keystroke	d	n/a
486.8215	0.161	973643	keystroke	e	n/a
486.934	0.1515	973868	keystroke	r	n/a
487.1335	0.1525	974267	keystroke	s	n/a
487.2935	0.128	974587	keystroke	Key.space	n/a
487.6855	0.128	975371	keystroke	c	n/a
487.8295	0.112	975659	keystroke	h	n/a
488.0135	0.12	976027	keystroke	e	n/a
488.301	0.1125	976602	keystroke	q	n/a
488.4375	0.072	976875	keystroke	u	n/a
488.6135	0.216	977227	keystroke	e	n/a
489.1815	0.088	978363	keystroke	Key.enter	n/a
489.2755	9.3555	978551	prompt	n/a	types treated attribute burton\n
490.1175	0.1205	980235	keystroke	t	n/a
490.7015	0.0635	981403	keystroke	y	n/a
491.038	0.103	982076	keystroke	p	n/a
491.189	0.217	982378	keystroke	e	n/a
491.318	0.183	982636	keystroke	s	n/a
491.469	0.1285	982938	keystroke	Key.space	n/a
491.686	0.151	983372	keystroke	t	n/a
491.798	0.216	983596	keystroke	r	n/a
491.989	0.0405	983978	keystroke	e	n/a
491.99	0.247	983980	keystroke	a	n/a
492.2535	0.1515	984507	keystroke	t	n/a
492.941	0.112	985882	keystroke	e	n/a
493.189	0.1365	986378	keystroke	d	n/a
493.349	0.0965	986698	keystroke	Key.space	n/a
493.973	0.128	987946	keystroke	a	n/a
494.213	0.0565	988426	keystroke	t	n/a
494.3415	0.0875	988683	keystroke	t	n/a
494.509	0.113	989018	keystroke	r	n/a
494.646	0.072	989292	keystroke	i	n/a
494.917	0.2	989834	keystroke	b	n/a
495.069	0.1205	990138	keystroke	u	n/a
495.205	0.128	990410	keystroke	t	n/a
495.349	0.112	990698	keystroke	Key.space	n/a
496.4215	0.0475	992843	keystroke	Key.backspace	n/a
496.638	0.175	993276	keystroke	e	n/a
496.8055	0.104	993611	keystroke	Key.space	n/a
497.35	0.184	994700	keystroke	b	n/a
497.4695	0.112	994939	keystroke	u	n/a
497.5895	0.144	995179	keystroke	r	n/a
497.8775	0.0805	995755	keystroke	t	n/a
498.045	0.072	996090	keystroke	o	n/a
498.2455	0.0875	996491	keystroke	n	n/a
498.565	0.064	997130	keystroke	Key.enter	n/a
498.634	6.885	997268	prompt	n/a	dropped musical jokes assignment\n
499.294	0.0555	998588	keystroke	d	n/a
499.55	0.079	999100	keystroke	r	n/a
499.685	0.144	999370	keystroke	o	n/a
499.7895	0.0955	999579	keystroke	p	n/a
499.989	0.081	999978	keystroke	p	n/a
500.1575	0.096	1000315	keystroke	e	n/a
500.3655	0.184	1000731	keystroke	d	n/a
500.5415	0.12	1001083	keystroke	Key.space	n/a
500.758	0.2395	1001516	keystroke	m	n/a
500.9655	0.112	1001931	keystroke	u	n/a
501.0935	0.136	1002187	keystroke	s	n/a
501.2615	0.088	1002523	keystroke	i	n/a
501.3815	0.136	1002763	keystroke	c	n/a
501.5175	0.128	1003035	keystroke	a	n/a
501.5815	0.096	1003163	keystroke	l	n/a
501.7575	0.112	1003515	keystroke	Key.space	n/a
501.9495	0.2315	1003899	keystroke	j	n/a
502.1165	0.1525	1004233	keystroke	o	n/a
502.5975	0.104	1005195	keystroke	k	n/a
502.7335	0.1845	1005467	keystroke	e	n/a
502.8455	0.176	1005691	keystroke	s	n/a
502.9815	0.12	1005963	keystroke	Key.space	n/a
503.1175	0.152	1006235	keystroke	a	n/a
503.4455	0.0875	1006891	keystroke	s	n/a
503.6375	0.0795	1007275	keystroke	s	n/a
503.725	0.0645	1007450	keystroke	i	n/a
503.878	0.055	1007756	keystroke	g	n/a
503.982	0.0955	1007964	keystroke	n	n/a
504.229	0.088	1008458	keystroke	m	n/a
504.309	0.128	1008618	keystroke	e	n/a
504.478	0.079	1008956	keystroke	n	n/a
504.5735	0.1035	1009147	keystroke	t	n/a
505.429	0.0885	1010858	keystroke	Key.enter	n/a
505.5255	11.937	1011051	prompt	n/a	jane yarn descriptions restaurant\n
506.5175	0.088	1013035	keystroke	j	n/a
506.6215	0.136	1013243	keystroke	a	n/a
506.8055	0.096	1013611	keystroke	n	n/a
506.9095	0.192	1013819	keystroke	e	n/a
507.0855	0.1675	1014171	keystroke	Key.space	n/a
507.6135	0.1035	1015227	keystroke	a	n/a
507.973	0.08	1015946	keystroke	Key.backspace	n/a
508.285	0.0475	1016570	keystroke	y	n/a
508.413	0.136	1016826	keystroke	a	n/a
508.613	0.16	1017226	keystroke	r	n/a
509.045	0.08	1018090	keystroke	n	n/a
509.245	0.112	1018490	keystroke	Key.space	n/a
509.4295	0.0715	1018859	keystroke	d	n/a
509.605	0.1125	1019210	keystroke	e	n/a
509.773	0.1445	1019546	keystroke	s	n/a
510.0125	0.0965	1020025	keystroke	c	n/a
510.6605	0.0965	1021321	keystroke	r	n/a
510.861	0.0555	1021722	keystroke	i	n/a
511.133	0.056	1022266	keystroke	p	n/a
511.2695	0.0795	1022539	keystroke	t	n/a
511.421	0.1525	1022842	keystroke	i	n/a
511.501	0.1445	1023002	keystroke	o	n/a
511.797	0.072	1023594	keystroke	n	n/a
511.917	0.144	1023834	keystroke	s	n/a
512.101	0.096	1024202	keystroke	Key.space	n/a
512.6685	0.2165	1025337	keystroke	r	n/a
512.7965	0.1365	1025593	keystroke	e	n/a
513.101	0.12	1026202	keystroke	s	n/a
513.5015	0.103	1027003	keystroke	t	n/a
513.853	0.1115	1027706	keystroke	a	n/a
514.149	0.0475	1028298	keystroke	u	n/a
514.3805	0.0885	1028761	keystroke	r	n/a
514.597	0.152	1029194	keystroke	a	n/a
514.7735	0.0875	1029547	keystroke	n	n/a
514.862	0.087	1029724	keystroke	t	n/a
517.3405	0.1205	1034681	keystroke	Key.enter	n/a
517.4675	13.595	1034935	prompt	n/a	aircraft purchasing reporting valves\n
518.253	0.136	1036506	keystroke	a	n/a
518.477	0.072	1036954	keystroke	i	n/a
518.5885	0.097	1037177	keystroke	r	n/a
518.869	0.1045	1037738	keystroke	c	n/a
519.317	0.088	1038634	keystroke	r	n/a
520.1645	0.096	1040329	keystroke	a	n/a
520.445	0.104	1040890	keystroke	f	n/a
520.693	0.1115	1041386	keystroke	t	n/a
521.101	0.1115	1042202	keystroke	Key.space	n/a
521.4135	0.095	1042827	keystroke	p	n/a
521.661	0.0875	1043322	keystroke	u	n/a
521.7655	0.063	1043531	keystroke	r	n/a
521.9645	0.081	1043929	keystroke	c	n/a
522.0845	0.0885	1044169	keystroke	h	n/a
522.237	0.176	1044474	keystroke	a	n/a
522.405	0.144	1044810	keystroke	s	n/a
522.981	0.0715	1045962	keystroke	i	n/a
523.1645	0.0645	1046329	keystroke	n	n/a
523.3005	0.1285	1046601	keystroke	g	n/a
523.388	0.145	1046776	keystroke	Key.space	n/a
526.453	0.152	1052906	keystroke	r	n/a
526.549	0.152	1053098	keystroke	e	n/a
527.405	0.0725	1054810	keystroke	p	n/a
527.597	0.0725	1055194	keystroke	o	n/a
527.7965	0.1845	1055593	keystroke	r	n/a
528.1255	0.0865	1056251	keystroke	t	n/a
528.813	0.072	1057626	keystroke	i	n/a
528.9565	0.08	1057913	keystroke	n	n/a
529.0445	0.12	1058089	keystroke	g	n/a
529.1485	0.1285	1058297	keystroke	Key.space	n/a
529.749	0.112	1059498	keystroke	v	n/a
529.893	0.128	1059786	keystroke	a	n/a
530.077	0.064	1060154	keystroke	l	n/a
530.277	0.184	1060554	keystroke	v	n/a
530.429	0.184	1060858	keystroke	e	n/a
530.588	0.16	1061176	keystroke	s	n/a
530.964	0.096	1061928	keystroke	Key.enter	n/a
531.0665	7.6365	1062133	prompt	n/a	boom passes abuse textbook\n
531.717	0.0635	1063434	keystroke	b	n/a
531.933	0.08	1063866	keystroke	o	n/a
532.0765	0.0645	1064153	keystroke	o	n/a
532.2125	0.0885	1064425	keystroke	m	n/a
532.3565	0.1045	1064713	keystroke	Key.space	n/a
532.749	0.08	1065498	keystroke	b	n/a
533.125	0.096	1066250	keystroke	Key.backspace	n/a
533.357	0.08	1066714	keystroke	p	n/a
533.4525	0.136	1066905	keystroke	a	n/a
533.661	0.072	1067322	keystroke	s	n/a
534.157	0.104	1068314	keystroke	s	n/a
534.4125	0.2325	1068825	keystroke	e	n/a
534.613	0.1515	1069226	keystroke	s	n/a
534.757	0.1115	1069514	keystroke	Key.space	n/a
534.9565	0.1045	1069913	keystroke	a	n/a
535.325	0.239	1070650	keystroke	b	n/a
535.6045	0.1125	1071209	keystroke	u	n/a
535.7885	0.208	1071577	keystroke	s	n/a
535.9405	0.168	1071881	keystroke	e	n/a
536.101	0.1275	1072202	keystroke	Key.space	n/a
536.46	0.1365	1072920	keystroke	t	n/a
536.637	0.144	1073274	keystroke	e	n/a
536.973	0.1595	1073946	keystroke	x	n/a
537.333	0.0955	1074666	keystroke	t	n/a
537.757	0.0795	1075514	keystroke	b	n/a
537.9805	0.056	1075961	keystroke	o	n/a
538.101	0.056	1076202	keystroke	o	n/a
538.261	0.08	1076522	keystroke	k	n/a
538.605	0.0955	1077210	keystroke	Key.enter	n/a
538.7065	8.476	1077413	prompt	n/a	he've eleven lover ultram\n
539.325	0.0795	1078650	keystroke	h	n/a
539.413	0.0955	1078826	keystroke	e	n/a
540.0445	0.072	1080089	keystroke	'	n/a
540.1805	0.112	1080361	keystroke	s	n/a
540.541	0.0715	1081082	keystroke	Key.backspace	n/a
540.653	0.1675	1081306	keystroke	v	n/a
540.781	0.224	1081562	keystroke	e	n/a
541.0285	0.104	1082057	keystroke	Key.space	n/a
541.925	0.08	1083850	keystroke	e	n/a
542.093	0.072	1084186	keystroke	l	n/a
542.253	0.064	1084506	keystroke	e	n/a
542.757	0.096	1085514	keystroke	v	n/a
542.9245	0.12	1085849	keystroke	e	n/a
543.0765	0.072	1086153	keystroke	n	n/a
543.1885	0.1125	1086377	keystroke	Key.space	n/a
543.6045	0.0885	1087209	keystroke	l	n/a
543.813	0.056	1087626	keystroke	o	n/a
543.98	0.025	1087960	keystroke	v	n/a
544.237	0.168	1088474	keystroke	e	n/a
544.365	0.143	1088730	keystroke	r	n/a
544.516	0.121	1089032	keystroke	Key.space	n/a
544.965	0.0555	1089930	keystroke	u	n/a
545.2365	0.0885	1090473	keystroke	l	n/a
546.325	0.111	1092650	keystroke	t	n/a
546.589	0.1035	1093178	keystroke	r	n/a
546.7725	0.0965	1093545	keystroke	a	n/a
546.901	0.072	1093802	keystroke	m	n/a
547.108	0.073	1094216	keystroke	Key.enter	n/a
547.1855	15.5805	1094371	prompt	n/a	but uruguay motorcycles downloadable\n
547.933	0.152	1095866	keystroke	b	n/a
548.0525	0.112	1096105	keystroke	u	n/a
548.1325	0.112	1096265	keystroke	t	n/a
548.2285	0.136	1096457	keystroke	Key.space	n/a
548.573	0.072	1097146	keystroke	u	n/a
548.741	0.096	1097482	keystroke	r	n/a
549.253	0.087	1098506	keystroke	u	n/a
549.533	0.096	1099066	keystroke	g	n/a
549.765	0.08	1099530	keystroke	u	n/a
549.909	0.104	1099818	keystroke	a	n/a
550.205	0.0955	1100410	keystroke	y	n/a
550.4045	0.088	1100809	keystroke	Key.space	n/a
550.6365	0.184	1101273	keystroke	m	n/a
550.797	0.0955	1101594	keystroke	o	n/a
557.6125	0.112	1115225	keystroke	t	n/a
557.7965	0.064	1115593	keystroke	o	n/a
557.9005	0.136	1115801	keystroke	r	n/a
558.38	0.113	1116760	keystroke	c	n/a
558.564	0.064	1117128	keystroke	y	n/a
558.709	0.0875	1117418	keystroke	c	n/a
558.901	0.095	1117802	keystroke	l	n/a
559.044	0.169	1118088	keystroke	e	n/a
559.164	0.1685	1118328	keystroke	s	n/a
559.5245	0.104	1119049	keystroke	Key.space	n/a
559.7325	0.08	1119465	keystroke	d	n/a
559.844	0.0645	1119688	keystroke	o	n/a
559.9965	0.104	1119993	keystroke	w	n/a
560.205	0.0795	1120410	keystroke	n	n/a
560.4445	0.0795	1120889	keystroke	l	n/a
560.685	0.063	1121370	keystroke	o	n/a
560.8525	0.12	1121705	keystroke	a	n/a
561.036	0.0965	1122072	keystroke	d	n/a
561.268	0.105	1122536	keystroke	a	n/a
561.436	0.0485	1122872	keystroke	b	n/a
562.3	0.0795	1124600	keystroke	l	n/a
562.4045	0.08	1124809	keystroke	e	n/a
562.6845	0.08	1125369	keystroke	Key.enter	n/a
562.7705	8.356	1125541	prompt	n/a	crest neural expense housewives\n
563.445	0.0795	1126890	keystroke	c	n/a
563.668	0.177	1127336	keystroke	r	n/a
563.7485	0.16	1127497	keystroke	e	n/a
563.9725	0.192	1127945	keystroke	s	n/a
564.1485	0.128	1128297	keystroke	t	n/a
564.2445	0.128	1128489	keystroke	Key.space	n/a
564.5085	0.088	1129017	keystroke	n	n/a
564.653	0.0795	1129306	keystroke	e	n/a
564.8445	0.064	1129689	keystroke	u	n/a
564.933	0.0795	1129866	keystroke	r	n/a
565.1165	0.112	1130233	keystroke	a	n/a
565.2445	0.072	1130489	keystroke	l	n/a
565.3965	0.136	1130793	keystroke	Key.space	n/a
565.5885	0.0725	1131177	keystroke	e	n/a
565.8765	0.072	1131753	keystroke	x	n/a
566.0445	0.048	1132089	keystroke	p	n/a
566.5965	0.0795	1133193	keystroke	n	n/a
566.9725	0.0715	1133945	keystroke	Key.backspace	n/a
567.084	0.1045	1134168	keystroke	e	n/a
567.237	0.0875	1134474	keystroke	n	n/a
567.365	0.1835	1134730	keystroke	s	n/a
567.5005	0.144	1135001	keystroke	e	n/a
567.6205	0.136	1135241	keystroke	Key.space	n/a
567.892	0.017	1135784	keystroke	h	n/a
568.4525	0.2395	1136905	keystroke	o	n/a
568.66	0.12	1137320	keystroke	u	n/a
568.7725	0.2075	1137545	keystroke	s	n/a
568.916	0.169	1137832	keystroke	e	n/a
569.925	0.103	1139850	keystroke	w	n/a
570.149	0.055	1140298	keystroke	i	n/a
570.3795	0.217	1140759	keystroke	v	n/a
570.5805	0.216	1141161	keystroke	e	n/a
570.7395	0.16	1141479	keystroke	s	n/a
571.0195	0.105	1142039	keystroke	Key.enter	n/a
571.131	6.971	1142262	prompt	n/a	holdings babes mouth reading\n
571.805	0.1195	1143610	keystroke	h	n/a
572.0125	0.0875	1144025	keystroke	o	n/a
572.2445	0.096	1144489	keystroke	l	n/a
572.4285	0.1035	1144857	keystroke	d	n/a
572.533	0.063	1145066	keystroke	i	n/a
572.676	0.0805	1145352	keystroke	n	n/a
572.812	0.088	1145624	keystroke	g	n/a
573.204	0.12	1146408	keystroke	s	n/a
573.428	0.0955	1146856	keystroke	Key.space	n/a
573.9405	0.08	1147881	keystroke	b	n/a
574.1885	0.136	1148377	keystroke	a	n/a
574.357	0.071	1148714	keystroke	b	n/a
574.9005	0.2075	1149801	keystroke	e	n/a
575.0525	0.168	1150105	keystroke	s	n/a
575.2205	0.0875	1150441	keystroke	Key.space	n/a
575.428	0.1605	1150856	keystroke	m	n/a
575.548	0.1205	1151096	keystroke	o	n/a
576.0765	0.104	1152153	keystroke	u	n/a
576.3725	0.12	1152745	keystroke	t	n/a
576.5725	0.1195	1153145	keystroke	h	n/a
576.756	0.12	1153512	keystroke	Key.space	n/a
576.909	0.1595	1153818	keystroke	r	n/a
576.988	0.176	1153976	keystroke	e	n/a
577.132	0.224	1154264	keystroke	a	n/a
577.348	0.136	1154696	keystroke	d	n/a
577.476	0.096	1154952	keystroke	i	n/a
577.66	0.0805	1155320	keystroke	n	n/a
577.7805	0.112	1155561	keystroke	g	n/a
577.988	0.112	1155976	keystroke	Key.enter	n/a
578.1065	8.5235	1156213	prompt	n/a	crystal moves sodium companies\n
578.8205	0.0955	1157641	keystroke	c	n/a
579.1165	0.104	1158233	keystroke	r	n/a
579.3645	0.072	1158729	keystroke	y	n/a
579.6045	0.1275	1159209	keystroke	s	n/a
579.804	0.088	1159608	keystroke	t	n/a
580.028	0.144	1160056	keystroke	a	n/a
580.628	0.0795	1161256	keystroke	l	n/a
580.772	0.104	1161544	keystroke	Key.space	n/a
580.988	0.1915	1161976	keystroke	m	n/a
581.1165	0.1515	1162233	keystroke	o	n/a
581.2115	0.1925	1162423	keystroke	v	n/a
581.372	0.256	1162744	keystroke	e	n/a
581.6035	0.201	1163207	keystroke	s	n/a
581.7955	0.1125	1163591	keystroke	Key.space	n/a
582.2685	0.111	1164537	keystroke	s	n/a
582.4595	0.081	1164919	keystroke	o	n/a
582.7325	0.095	1165465	keystroke	d	n/a
582.9645	0.088	1165929	keystroke	i	n/a
583.204	0.048	1166408	keystroke	u	n/a
583.4445	0.0875	1166889	keystroke	m	n/a
583.572	0.0955	1167144	keystroke	Key.space	n/a
583.772	0.0965	1167544	keystroke	c	n/a
583.8515	0.065	1167703	keystroke	o	n/a
584.0205	0.088	1168041	keystroke	m	n/a
584.3715	0.0805	1168743	keystroke	p	n/a
584.78	0.1285	1169560	keystroke	a	n/a
585.2605	0.088	1170521	keystroke	n	n/a
586.116	0.0955	1172232	keystroke	i	n/a
586.2275	0.1605	1172455	keystroke	e	n/a
586.34	0.1595	1172680	keystroke	s	n/a
586.5235	0.104	1173047	keystroke	Key.enter	n/a
586.634	16.852	1173268	prompt	n/a	shopper newcastle strict survive\n
587.204	0.08	1174408	keystroke	s	n/a
588.004	0.088	1176008	keystroke	h	n/a
588.236	0.0725	1176472	keystroke	o	n/a
588.4525	0.048	1176905	keystroke	p	n/a
588.58	0.0725	1177160	keystroke	p	n/a
588.6925	0.199	1177385	keystroke	e	n/a
588.8275	0.1285	1177655	keystroke	r	n/a
588.916	0.152	1177832	keystroke	Key.space	n/a
589.132	0.08	1178264	keystroke	n	n/a
589.2445	0.2155	1178489	keystroke	e	n/a
589.38	0.192	1178760	keystroke	w	n/a
589.98	0.1925	1179960	keystroke	c	n/a
590.14	0.192	1180280	keystroke	a	n/a
590.324	0.2875	1180648	keystroke	s	n/a
591.124	0.112	1182248	keystroke	t	n/a
591.388	0.0715	1182776	keystroke	l	n/a
591.732	0.12	1183464	keystroke	e	n/a
591.94	0.112	1183880	keystroke	Key.space	n/a
592.132	0.1035	1184264	keystroke	s	n/a
592.3795	0.0405	1184759	keystroke	t	n/a
593.1875	0.056	1186375	keystroke	Key.backspace	n/a
593.3555	0.056	1186711	keystroke	Key.backspace	n/a
593.54	0.04	1187080	keystroke	Key.backspace	n/a
594.3235	0.0795	1188647	keystroke	Key.backspace	n/a
596.788	0.112	1193576	keystroke	e	n/a
597.244	0.112	1194488	keystroke	Key.space	n/a
597.524	0.112	1195048	keystroke	s	n/a
597.996	0.08	1195992	keystroke	t	n/a
598.22	0.1035	1196440	keystroke	r	n/a
598.4045	0.0715	1196809	keystroke	i	n/a
598.508	0.104	1197016	keystroke	c	n/a
598.668	0.072	1197336	keystroke	t	n/a
598.804	0.128	1197608	keystroke	Key.space	n/a
599.0045	0.095	1198009	keystroke	s	n/a
599.1555	0.032	1198311	keystroke	u	n/a
599.428	0.104	1198856	keystroke	r	n/a
599.7475	0.104	1199495	keystroke	v	n/a
599.9155	0.073	1199831	keystroke	i	n/a
600.0675	0.177	1200135	keystroke	v	n/a
600.2755	0.016	1200551	keystroke	v	n/a
600.3875	0.152	1200775	keystroke	e	n/a
600.9075	0.0805	1201815	keystroke	Key.backspace	n/a
601.0755	0.072	1202151	keystroke	Key.backspace	n/a
601.4755	0.1115	1202951	keystroke	e	n/a
603.3475	0.136	1206695	keystroke	Key.enter	n/a
603.4905	9.7475	1206981	prompt	n/a	worst kenneth brave melissa\n
604.756	0.1355	1209512	keystroke	w	n/a
605.2035	0.0565	1210407	keystroke	o	n/a
605.348	0.176	1210696	keystroke	r	n/a
605.74	0.184	1211480	keystroke	s	n/a
605.892	0.152	1211784	keystroke	t	n/a
606.108	0.136	1212216	keystroke	Key.space	n/a
606.38	0.088	1212760	keystroke	k	n/a
606.636	0.096	1213272	keystroke	n	n/a
607.484	0.072	1214968	keystroke	Key.backspace	n/a
607.644	0.088	1215288	keystroke	e	n/a
607.812	0.0715	1215624	keystroke	n	n/a
607.972	0.0555	1215944	keystroke	n	n/a
608.172	0.0795	1216344	keystroke	e	n/a
608.3555	0.0965	1216711	keystroke	t	n/a
608.468	0.08	1216936	keystroke	h	n/a
608.635	0.1125	1217270	keystroke	Key.space	n/a
608.892	0.088	1217784	keystroke	b	n/a
609.068	0.152	1218136	keystroke	r	n/a
609.308	0.159	1218616	keystroke	a	n/a
609.6915	0.1845	1219383	keystroke	c	n/a
609.868	0.232	1219736	keystroke	e	n/a
610.4115	0.064	1220823	keystroke	Key.backspace	n/a
610.548	0.0795	1221096	keystroke	Key.backspace	n/a
610.668	0.184	1221336	keystroke	v	n/a
610.795	0.241	1221590	keystroke	e	n/a
611.044	0.1195	1222088	keystroke	Key.space	n/a
611.4595	0.08	1222919	keystroke	m	n/a
611.708	0.128	1223416	keystroke	e	n/a
611.996	0.288	1223992	keystroke	l	n/a
612.2115	0.0805	1224423	keystroke	i	n/a
612.355	0.0725	1224710	keystroke	s	n/a
612.5075	0.168	1225015	keystroke	s	n/a
612.668	0.1115	1225336	keystroke	a	n/a
613.0995	0.136	1226199	keystroke	Key.enter	n/a
613.245	9.176	1226490	prompt	n/a	fixtures bedding employ readily\n
614.0355	0.088	1228071	keystroke	f	n/a
614.164	0.0715	1228328	keystroke	i	n/a
614.364	0.096	1228728	keystroke	x	n/a
614.7075	0.088	1229415	keystroke	t	n/a
614.908	0.072	1229816	keystroke	u	n/a
614.995	0.168	1229990	keystroke	r	n/a
615.084	0.159	1230168	keystroke	e	n/a
615.332	0.144	1230664	keystroke	s	n/a
615.523	0.1285	1231046	keystroke	Key.space	n/a
615.7075	0.064	1231415	keystroke	b	n/a
615.803	0.121	1231606	keystroke	e	n/a
616.2915	0.064	1232583	keystroke	d	n/a
616.444	0.0795	1232888	keystroke	d	n/a
616.547	0.0805	1233094	keystroke	i	n/a
616.7	0.08	1233400	keystroke	n	n/a
616.7955	0.12	1233591	keystroke	g	n/a
616.899	0.1205	1233798	keystroke	Key.space	n/a
617.276	0.071	1234552	keystroke	p	n/a
617.6675	0.04	1235335	keystroke	Key.backspace	n/a
617.804	0.0795	1235608	keystroke	e	n/a
617.956	0.0875	1235912	keystroke	m	n/a
618.62	0.048	1237240	keystroke	p	n/a
618.795	0.0565	1237590	keystroke	l	n/a
618.9875	0.064	1237975	keystroke	o	n/a
619.172	0.096	1238344	keystroke	y	n/a
619.6195	0.072	1239239	keystroke	Key.space	n/a
619.7955	0.0565	1239591	keystroke	e	n/a
620.467	0.056	1240934	keystroke	Key.backspace	n/a
620.579	0.161	1241158	keystroke	r	n/a
620.692	0.175	1241384	keystroke	e	n/a
620.9395	0.1525	1241879	keystroke	a	n/a
621.22	0.119	1242440	keystroke	d	n/a
621.8115	0.192	1243623	keystroke	i	n/a
621.9475	0.1525	1243895	keystroke	l	n/a
622.1	0.0875	1244200	keystroke	y	n/a
622.3395	0.08	1244679	keystroke	Key.enter	n/a
622.4245	6.165	1244849	prompt	n/a	cars rare marriage opens\n
623.0525	0.143	1246105	keystroke	c	n/a
623.179	0.1925	1246358	keystroke	a	n/a
623.3635	0.128	1246727	keystroke	r	n/a
623.6515	0.1125	1247303	keystroke	s	n/a
623.8675	0.1115	1247735	keystroke	Key.space	n/a
624.1955	0.16	1248391	keystroke	r	n/a
624.3565	0.1985	1248713	keystroke	a	n/a
624.54	0.312	1249080	keystroke	r	n/a
624.779	0.2	1249558	keystroke	e	n/a
625.507	0.12	1251014	keystroke	Key.space	n/a
625.7315	0.0875	1251463	keystroke	m	n/a
625.859	0.121	1251718	keystroke	a	n/a
626.0355	0.0875	1252071	keystroke	r	n/a
626.2035	0.0805	1252407	keystroke	r	n/a
626.3315	0.072	1252663	keystroke	i	n/a
627.036	0.1755	1254072	keystroke	a	n/a
627.1795	0.1675	1254359	keystroke	g	n/a
627.355	0.2085	1254710	keystroke	e	n/a
627.5555	0.128	1255111	keystroke	Key.space	n/a
627.731	0.16	1255462	keystroke	o	n/a
627.8435	0.1195	1255687	keystroke	p	n/a
627.948	0.119	1255896	keystroke	e	n/a
628.0995	0.0795	1256199	keystroke	n	n/a
628.219	0.0965	1256438	keystroke	s	n/a
628.4995	0.088	1256999	keystroke	Key.enter	n/a
628.594	11.995	1257188	prompt	n/a	previews explorer consult evidence\n
629.2355	0.088	1258471	keystroke	p	n/a
629.3875	0.2	1258775	keystroke	r	n/a
629.524	0.2795	1259048	keystroke	e	n/a
630.5875	0.072	1261175	keystroke	v	n/a
630.7475	0.072	1261495	keystroke	i	n/a
630.8515	0.2405	1261703	keystroke	e	n/a
630.9955	0.128	1261991	keystroke	w	n/a
631.2355	0.1435	1262471	keystroke	s	n/a
631.395	0.136	1262790	keystroke	Key.space	n/a
631.523	0.0965	1263046	keystroke	e	n/a
631.8035	0.0955	1263607	keystroke	x	n/a
633.347	0.056	1266694	keystroke	p	n/a
633.531	0.056	1267062	keystroke	l	n/a
633.723	0.072	1267446	keystroke	o	n/a
634.0755	0.04	1268151	keystroke	r	n/a
634.844	0.183	1269688	keystroke	e	n/a
634.979	0.1205	1269958	keystroke	r	n/a
635.075	0.0965	1270150	keystroke	Key.space	n/a
635.3075	0.0965	1270615	keystroke	c	n/a
635.404	0.2155	1270808	keystroke	o	n/a
635.5555	0.096	1271111	keystroke	u	n/a
636.0435	0.064	1272087	keystroke	Key.backspace	n/a
636.419	0.0805	1272838	keystroke	n	n/a
636.9155	0.08	1273831	keystroke	c	n/a
637.299	0.08	1274598	keystroke	Key.backspace	n/a
637.4035	0.0875	1274807	keystroke	s	n/a
637.595	0.0725	1275190	keystroke	u	n/a
637.8275	0.0635	1275655	keystroke	l	n/a
638.4035	0.1275	1276807	keystroke	t	n/a
638.6915	0.112	1277383	keystroke	Key.space	n/a
638.9475	0.096	1277895	keystroke	e	n/a
639.2265	0.096	1278453	keystroke	v	n/a
639.443	0.073	1278886	keystroke	i	n/a
639.547	0.064	1279094	keystroke	d	n/a
639.723	0.064	1279446	keystroke	e	n/a
639.771	0.081	1279542	keystroke	n	n/a
640.068	0.191	1280136	keystroke	c	n/a
640.211	0.16	1280422	keystroke	e	n/a
640.4915	0.0955	1280983	keystroke	Key.enter	n/a
640.6035	7.2015	1281207	prompt	n/a	mayor possess weapon killed\n
641.203	0.0805	1282406	keystroke	m	n/a
641.427	0.1205	1282854	keystroke	a	n/a
642.2515	0.096	1284503	keystroke	y	n/a
642.523	0.088	1285046	keystroke	o	n/a
642.6835	0.1515	1285367	keystroke	r	n/a
642.827	0.088	1285654	keystroke	Key.space	n/a
642.9555	0.0795	1285911	keystroke	p	n/a
643.171	0.072	1286342	keystroke	o	n/a
643.331	0.072	1286662	keystroke	s	n/a
643.499	0.12	1286998	keystroke	s	n/a
643.803	0.1525	1287606	keystroke	e	n/a
644.083	0.088	1288166	keystroke	s	n/a
644.267	0.1205	1288534	keystroke	s	n/a
644.4275	0.104	1288855	keystroke	Key.space	n/a
644.8435	0.184	1289687	keystroke	w	n/a
645.0595	0.168	1290119	keystroke	e	n/a
645.3715	0.152	1290743	keystroke	a	n/a
645.7395	0.08	1291479	keystroke	p	n/a
645.9715	0.064	1291943	keystroke	o	n/a
646.123	0.0885	1292246	keystroke	n	n/a
646.2675	0.1275	1292535	keystroke	Key.space	n/a
646.555	0.072	1293110	keystroke	k	n/a
646.747	0.0805	1293494	keystroke	i	n/a
646.9475	0.088	1293895	keystroke	l	n/a
647.1075	0.096	1294215	keystroke	l	n/a
647.2755	0.104	1294551	keystroke	e	n/a
647.4835	0.12	1294967	keystroke	d	n/a
647.715	0.0875	1295430	keystroke	Key.enter	n/a
647.809	9.1155	1295618	prompt	n/a	electronics tour officer memory\n
648.3795	0.1195	1296759	keystroke	e	n/a
648.5385	0.096	1297077	keystroke	l	n/a
648.6515	0.08	1297303	keystroke	e	n/a
648.9075	0.0555	1297815	keystroke	c	n/a
649.1475	0.1195	1298295	keystroke	t	n/a
649.363	0.1125	1298726	keystroke	r	n/a
649.9075	0.0875	1299815	keystroke	n	n/a
650.4025	0.0645	1300805	keystroke	Key.backspace	n/a
650.6275	0.08	1301255	keystroke	o	n/a
650.8105	0.0645	1301621	keystroke	n	n/a
650.995	0.064	1301990	keystroke	i	n/a
651.1075	0.0875	1302215	keystroke	c	n/a
651.5955	0.096	1303191	keystroke	s	n/a
651.8905	0.112	1303781	keystroke	Key.space	n/a
652.091	0.064	1304182	keystroke	t	n/a
652.1715	0.2395	1304343	keystroke	o	n/a
652.859	0.12	1305718	keystroke	u	n/a
653.083	0.072	1306166	keystroke	r	n/a
653.819	0.0955	1307638	keystroke	Key.space	n/a
653.987	0.0725	1307974	keystroke	o	n/a
654.1225	0.064	1308245	keystroke	f	n/a
654.2585	0.081	1308517	keystroke	f	n/a
654.3635	0.072	1308727	keystroke	i	n/a
654.5075	0.1675	1309015	keystroke	c	n/a
654.835	0.1835	1309670	keystroke	e	n/a
654.9705	0.152	1309941	keystroke	r	n/a
655.3225	0.088	1310645	keystroke	Key.space	n/a
655.7065	0.0805	1311413	keystroke	m	n/a
655.8515	0.0955	1311703	keystroke	e	n/a
656.0265	0.0725	1312053	keystroke	m	n/a
656.2665	0.0885	1312533	keystroke	o	n/a
656.4185	0.104	1312837	keystroke	r	n/a
656.5635	0.088	1313127	keystroke	y	n/a
656.843	0.08	1313686	keystroke	Key.enter	n/a
656.929	11.083	1313858	prompt	n/a	open dependent virginia blonde\n
657.5465	0.184	1315093	keystroke	o	n/a
657.683	0.1195	1315366	keystroke	p	n/a
657.8105	0.1285	1315621	keystroke	e	n/a
657.9715	0.08	1315943	keystroke	n	n/a
658.0905	0.096	1316181	keystroke	Key.space	n/a
658.2745	0.057	1316549	keystroke	d	n/a
658.4275	0.0635	1316855	keystroke	e	n/a
658.499	0.072	1316998	keystroke	p	n/a
658.619	0.096	1317238	keystroke	e	n/a
658.723	0.08	1317446	keystroke	n	n/a
658.9065	0.0405	1317813	keystroke	d	n/a
659.075	0.0795	1318150	keystroke	e	n/a
659.2105	0.088	1318421	keystroke	n	n/a
659.3555	0.095	1318711	keystroke	t	n/a
659.4665	0.088	1318933	keystroke	Key.space	n/a
659.7395	0.0875	1319479	keystroke	v	n/a
659.867	0.064	1319734	keystroke	i	n/a
659.9945	0.1045	1319989	keystroke	e	n/a
660.627	0.0795	1321254	keystroke	Key.backspace	n/a
660.7465	0.088	1321493	keystroke	r	n/a
661.0105	0.0805	1322021	keystroke	g	n/a
661.2035	0.08	1322407	keystroke	i	n/a
661.3945	0.072	1322789	keystroke	n	n/a
661.5865	0.072	1323173	keystroke	i	n/a
661.6905	0.1845	1323381	keystroke	a	n/a
661.8665	0.112	1323733	keystroke	Key.space	n/a
665.5945	0.081	1331189	keystroke	b	n/a
665.8195	0.08	1331639	keystroke	l	n/a
666.3875	0.0715	1332775	keystroke	o	n/a
666.547	0.0885	1333094	keystroke	n	n/a
666.755	0.0805	1333510	keystroke	d	n/a
666.9305	0.128	1333861	keystroke	e	n/a
667.9465	0.0645	1335893	keystroke	Key.enter	n/a
668.015	6.3335	1336030	prompt	n/a	maps vessel employment expert\n
668.595	0.096	1337190	keystroke	m	n/a
668.7145	0.136	1337429	keystroke	a	n/a
668.8755	0.087	1337751	keystroke	p	n/a
669.043	0.1195	1338086	keystroke	s	n/a
669.323	0.119	1338646	keystroke	Key.space	n/a
669.611	0.096	1339222	keystroke	v	n/a
669.811	0.0885	1339622	keystroke	e	n/a
670.043	0.08	1340086	keystroke	s	n/a
670.219	0.064	1340438	keystroke	s	n/a
670.3945	0.0965	1340789	keystroke	e	n/a
670.5305	0.112	1341061	keystroke	l	n/a
670.7145	0.112	1341429	keystroke	Key.space	n/a
670.8985	0.1045	1341797	keystroke	e	n/a
671.0185	0.104	1342037	keystroke	m	n/a
671.267	0.08	1342534	keystroke	p	n/a
671.4745	0.0725	1342949	keystroke	l	n/a
671.859	0.064	1343718	keystroke	o	n/a
672.171	0.08	1344342	keystroke	y	n/a
672.323	0.088	1344646	keystroke	m	n/a
672.411	0.112	1344822	keystroke	e	n/a
672.5635	0.0715	1345127	keystroke	n	n/a
672.6595	0.1035	1345319	keystroke	t	n/a
672.891	0.111	1345782	keystroke	Key.space	n/a
673.066	0.097	1346132	keystroke	e	n/a
673.306	0.073	1346612	keystroke	x	n/a
673.4195	0.071	1346839	keystroke	p	n/a
673.5705	0.1525	1347141	keystroke	e	n/a
673.6745	0.1365	1347349	keystroke	r	n/a
673.9385	0.096	1347877	keystroke	t	n/a
674.2665	0.08	1348533	keystroke	Key.enter	n/a
674.3535	7.131	1348707	prompt	n/a	woods miniature clips council\n
674.9715	0.095	1349943	keystroke	w	n/a
675.075	0.0635	1350150	keystroke	o	n/a
675.2505	0.0645	1350501	keystroke	o	n/a
675.387	0.176	1350774	keystroke	d	n/a
675.5545	0.1445	1351109	keystroke	s	n/a
676.0665	0.0805	1352133	keystroke	Key.space	n/a
676.3145	0.128	1352629	keystroke	m	n/a
676.483	0.0875	1352966	keystroke	i	n/a
676.907	0.16	1353814	keystroke	n	n/a
677.027	0.104	1354054	keystroke	i	n/a
677.442	0.137	1354884	keystroke	a	n/a
677.6825	0.097	1355365	keystroke	t	n/a
677.8835	0.055	1355767	keystroke	u	n/a
677.979	0.1675	1355958	keystroke	r	n/a
678.083	0.176	1356166	keystroke	e	n/a
678.2745	0.112	1356549	keystroke	Key.space	n/a
678.595	0.0795	1357190	keystroke	c	n/a
678.8825	0.2075	1357765	keystroke	l	n/a
679.0275	0.1035	1358055	keystroke	i	n/a
679.275	0.072	1358550	keystroke	p	n/a
679.41	0.112	1358820	keystroke	s	n/a
679.77	0.097	1359540	keystroke	Key.space	n/a
680.0985	0.0885	1360197	keystroke	c	n/a
680.203	0.224	1360406	keystroke	o	n/a
680.379	0.08	1360758	keystroke	u	n/a
680.603	0.072	1361206	keystroke	n	n/a
680.827	0.072	1361654	keystroke	c	n/a
680.9385	0.216	1361877	keystroke	i	n/a
681.107	0.1195	1362214	keystroke	l	n/a
681.395	0.0875	1362790	keystroke	Key.enter	n/a
681.489	14.412	1362978	prompt	n/a	lookup range repair mentioned\n
682.147	0.088	1364294	keystroke	l	n/a
682.4025	0.1125	1364805	keystroke	a	n/a
682.8745	0.0805	1365749	keystroke	Key.backspace	n/a
683.1465	0.064	1366293	keystroke	o	n/a
683.2825	0.08	1366565	keystroke	o	n/a
684.251	0.072	1368502	keystroke	k	n/a
684.7945	0.0715	1369589	keystroke	o	n/a
685.3865	0.072	1370773	keystroke	[	n/a
686.5785	0.08	1373157	keystroke	Key.backspace	n/a
686.827	0.056	1373654	keystroke	p	n/a
686.994	0.0965	1373988	keystroke	Key.space	n/a
687.2185	0.1125	1374437	keystroke	r	n/a
687.3315	0.143	1374663	keystroke	a	n/a
687.4505	0.096	1374901	keystroke	n	n/a
688.0425	0.072	1376085	keystroke	Key.backspace	n/a
688.2105	0.056	1376421	keystroke	Key.backspace	n/a
688.362	0.0725	1376724	keystroke	Key.backspace	n/a
688.6585	0.072	1377317	keystroke	Key.backspace	n/a
689.003	0.056	1378006	keystroke	Key.backspace	n/a
689.315	0.087	1378630	keystroke	Key.backspace	n/a
689.891	0.072	1379782	keystroke	u	n/a
690.091	0.072	1380182	keystroke	p	n/a
690.81	0.1365	1381620	keystroke	Key.space	n/a
691.043	0.1275	1382086	keystroke	r	n/a
691.1865	0.2	1382373	keystroke	a	n/a
691.2585	0.088	1382517	keystroke	n	n/a
691.4425	0.144	1382885	keystroke	g	n/a
691.6105	0.1435	1383221	keystroke	e	n/a
691.8025	0.136	1383605	keystroke	Key.space	n/a
692.219	0.136	1384438	keystroke	r	n/a
692.307	0.1275	1384614	keystroke	e	n/a
692.499	0.0795	1384998	keystroke	p	n/a
693.178	0.144	1386356	keystroke	a	n/a
693.4025	0.072	1386805	keystroke	i	n/a
693.5225	0.1435	1387045	keystroke	r	n/a
693.6585	0.1445	1387317	keystroke	Key.space	n/a
694.0905	0.0565	1388181	keystroke	m	n/a
694.2425	0.088	1388485	keystroke	e	n/a
694.3625	0.08	1388725	keystroke	n	n/a
694.4985	0.096	1388997	keystroke	t	n/a
694.6025	0.144	1389205	keystroke	i	n/a
694.691	0.1195	1389382	keystroke	o	n/a
694.8345	0.088	1389669	keystroke	n	n/a
695.4105	0.096	1390821	keystroke	e	n/a
695.635	0.0715	1391270	keystroke	d	n/a
695.8025	0.096	1391605	keystroke	Key.enter	n/a
695.904	9.8765	1391808	prompt	n/a	employment poker sandra seller\n
696.5225	0.1355	1393045	keystroke	e	n/a
696.683	0.0875	1393366	keystroke	m	n/a
696.8985	0.056	1393797	keystroke	p	n/a
697.051	0.072	1394102	keystroke	l	n/a
697.251	0.0635	1394502	keystroke	o	n/a
697.5465	0.048	1395093	keystroke	y	n/a
697.731	0.0715	1395462	keystroke	m	n/a
697.8175	0.1055	1395635	keystroke	e	n/a
697.963	0.08	1395926	keystroke	n	n/a
698.075	0.128	1396150	keystroke	t	n/a
698.258	0.0885	1396516	keystroke	Key.space	n/a
698.4265	0.0875	1396853	keystroke	p	n/a
698.6345	0.0555	1397269	keystroke	o	n/a
698.714	0.1685	1397428	keystroke	s	n/a
699.354	0.0805	1398708	keystroke	Key.backspace	n/a
699.571	0.0555	1399142	keystroke	k	n/a
699.6665	0.1595	1399333	keystroke	e	n/a
699.81	0.145	1399620	keystroke	r	n/a
700.09	0.1045	1400180	keystroke	Key.space	n/a
700.715	0.1675	1401430	keystroke	s	n/a
700.883	0.119	1401766	keystroke	a	n/a
701.0185	0.0805	1402037	keystroke	n	n/a
701.178	0.0805	1402356	keystroke	d	n/a
702.1385	0.112	1404277	keystroke	r	n/a
702.2825	0.184	1404565	keystroke	a	n/a
702.4895	0.096	1404979	keystroke	Key.space	n/a
702.7305	0.1045	1405461	keystroke	s	n/a
704.3305	0.136	1408661	keystroke	e	n/a
704.954	0.064	1409908	keystroke	l	n/a
705.091	0.0715	1410182	keystroke	l	n/a
705.218	0.1525	1410436	keystroke	e	n/a
705.3385	0.112	1410677	keystroke	r	n/a
705.658	0.1205	1411316	keystroke	Key.enter	n/a
705.785	7.523	1411570	prompt	n/a	regard lobby designer assessments\n
706.49	0.1205	1412980	keystroke	r	n/a
706.778	0.1445	1413556	keystroke	e	n/a
707.331	0.0795	1414662	keystroke	g	n/a
707.506	0.176	1415012	keystroke	a	n/a
707.658	0.136	1415316	keystroke	r	n/a
707.8985	0.1515	1415797	keystroke	d	n/a
708.058	0.136	1416116	keystroke	Key.space	n/a
708.338	0.0725	1416676	keystroke	l	n/a
708.5465	0.064	1417093	keystroke	o	n/a
708.8665	0.0645	1417733	keystroke	b	n/a
709.0345	0.032	1418069	keystroke	b	n/a
709.1305	0.08	1418261	keystroke	y	n/a
709.3305	0.103	1418661	keystroke	Key.space	n/a
709.6505	0.0645	1419301	keystroke	d	n/a
709.8495	0.201	1419699	keystroke	e	n/a
710.0585	0.128	1420117	keystroke	s	n/a
710.29	0.072	1420580	keystroke	i	n/a
710.4105	0.088	1420821	keystroke	g	n/a
710.5145	0.0885	1421029	keystroke	n	n/a
710.6505	0.144	1421301	keystroke	e	n/a
710.7465	0.128	1421493	keystroke	r	n/a
710.8745	0.112	1421749	keystroke	Key.space	n/a
711.0585	0.112	1422117	keystroke	a	n/a
711.282	0.056	1422564	keystroke	s	n/a
711.4345	0.072	1422869	keystroke	s	n/a
711.946	0.128	1423892	keystroke	e	n/a
712.211	0.071	1424422	keystroke	s	n/a
712.362	0.088	1424724	keystroke	s	n/a
712.4985	0.0795	1424997	keystroke	m	n/a
712.6025	0.1035	1425205	keystroke	e	n/a
712.7305	0.072	1425461	keystroke	n	n/a
712.834	0.112	1425668	keystroke	t	n/a
713.042	0.096	1426084	keystroke	s	n/a
713.218	0.088	1426436	keystroke	Key.enter	n/a
713.321	10.7145	1426642	prompt	n/a	daily pieces regulation induced\n
713.93	0.0965	1427860	keystroke	d	n/a
714.0825	0.1115	1428165	keystroke	a	n/a
714.1865	0.1915	1428373	keystroke	i	n/a
714.3065	0.144	1428613	keystroke	l	n/a
714.5385	0.0875	1429077	keystroke	y	n/a
714.6655	0.1045	1429331	keystroke	Key.space	n/a
714.8825	0.088	1429765	keystroke	p	n/a
715.1065	0.064	1430213	keystroke	i	n/a
715.2505	0.064	1430501	keystroke	c	n/a
715.6185	0.055	1431237	keystroke	Key.backspace	n/a
716.146	0.096	1432292	keystroke	e	n/a
716.41	0.2235	1432820	keystroke	c	n/a
716.5945	0.207	1433189	keystroke	e	n/a
716.7775	0.145	1433555	keystroke	s	n/a
717.1225	0.096	1434245	keystroke	Key.space	n/a
717.4905	0.144	1434981	keystroke	r	n/a
717.5945	0.176	1435189	keystroke	e	n/a
717.8495	0.081	1435699	keystroke	g	n/a
718.0025	0.08	1436005	keystroke	u	n/a
718.2185	0.079	1436437	keystroke	l	n/a
718.2985	0.1675	1436597	keystroke	a	n/a
718.4585	0.12	1436917	keystroke	t	n/a
718.5465	0.168	1437093	keystroke	i	n/a
718.6585	0.12	1437317	keystroke	o	n/a
718.8425	0.0795	1437685	keystroke	n	n/a
719.738	0.0955	1439476	keystroke	Key.space	n/a
719.946	0.08	1439892	keystroke	l	n/a
720.1945	0.08	1440389	keystroke	i	n/a
720.746	0.072	1441492	keystroke	Key.backspace	n/a
721.458	0.072	1442916	keystroke	n	n/a
722.0175	0.064	1444035	keystroke	Key.backspace	n/a
722.3135	0.0565	1444627	keystroke	Key.backspace	n/a
722.602	0.072	1445204	keystroke	i	n/a
722.778	0.072	1445556	keystroke	n	n/a
722.898	0.096	1445796	keystroke	d	n/a
723.0185	0.0635	1446037	keystroke	u	n/a
