onset	duration	sample	value	key	prompt_text
12.856	11.3135	25712	prompt	n/a	the quick brown fox jumps over a lazy dog\n
15.318	0.0435	30636	keystroke_t	t	n/a
15.4215	0.06	30843	keystroke_h	h	n/a
15.5115	0.165	31023	keystroke_e	e	n/a
16.096	0.1345	32192	keystroke_Key.space	Key.space	n/a
16.5155	0.105	33031	keystroke_q	q	n/a
16.9955	0.105	33991	keystroke_u	u	n/a
17.356	0.0895	34712	keystroke_i	i	n/a
17.5805	0.15	35161	keystroke_c	c	n/a
17.7005	0.18	35401	keystroke_k	k	n/a
17.8955	0.105	35791	keystroke_Key.space	Key.space	n/a
18.1955	0.09	36391	keystroke_b	b	n/a
18.4505	0.165	36901	keystroke_r	r	n/a
18.6305	0.075	37261	keystroke_o	o	n/a
18.8105	0.12	37621	keystroke_w	w	n/a
18.9605	0.12	37921	keystroke_n	n	n/a
19.0955	0.09	38191	keystroke_Key.space	Key.space	n/a
19.666	0.12	39332	keystroke_f	f	n/a
19.816	0.075	39632	keystroke_o	o	n/a
19.921	0.135	39842	keystroke_x	x	n/a
20.071	0.135	40142	keystroke_Key.space	Key.space	n/a
20.296	0.12	40592	keystroke_j	j	n/a
20.536	0.06	41072	keystroke_u	u	n/a
20.761	0.165	41522	keystroke_m	m	n/a
20.881	0.12	41762	keystroke_p	p	n/a
21.061	0.105	42122	keystroke_s	s	n/a
21.181	0.15	42362	keystroke_Key.space	Key.space	n/a
21.526	0.0745	43052	keystroke_o	o	n/a
21.6155	0.15	43231	keystroke_v	v	n/a
21.7355	0.18	43471	keystroke_e	e	n/a
21.8855	0.135	43771	keystroke_r	r	n/a
22.441	0.105	44882	keystroke_Key.space	Key.space	n/a
22.591	0.105	45182	keystroke_a	a	n/a
22.681	0.12	45362	keystroke_Key.space	Key.space	n/a
22.861	0.12	45722	keystroke_l	l	n/a
22.996	0.105	45992	keystroke_a	a	n/a
23.221	0.135	46442	keystroke_z	z	n/a
23.371	0.09	46742	keystroke_y	y	n/a
23.475	0.135	46950	keystroke_Key.space	Key.space	n/a
23.616	0.174	47232	keystroke_d	d	n/a
23.791	0.089	47582	keystroke_o	o	n/a
23.911	0.119	47822	keystroke_g	g	n/a
24.105	0.061	48210	keystroke_Key.enter	Key.enter	n/a
24.1765	8.2865	48353	prompt	n/a	telling ways nigeria tough\n
24.946	0.12	49892	keystroke_t	t	n/a
25.051	0.12	50102	keystroke_e	e	n/a
25.261	0.045	50522	keystroke_l	l	n/a
25.381	0.09	50762	keystroke_l	l	n/a
25.531	0.135	51062	keystroke_i	i	n/a
25.651	0.12	51302	keystroke_n	n	n/a
25.741	0.105	51482	keystroke_g	g	n/a
25.786	0.15	51572	keystroke_Key.space	Key.space	n/a
26.311	0.24	52622	keystroke_w	w	n/a
26.506	0.15	53012	keystroke_a	a	n/a
26.761	0.075	53522	keystroke_y	y	n/a
27.166	0.09	54332	keystroke_s	s	n/a
27.4205	0.135	54841	keystroke_Key.space	Key.space	n/a
27.6605	0.15	55321	keystroke_n	n	n/a
27.7805	0.09	55561	keystroke_i	i	n/a
28.0205	0.09	56041	keystroke_e	e	n/a
28.7705	0.045	57541	keystroke_Key.backspace	Key.backspace	n/a
28.9205	0.1345	57841	keystroke_g	g	n/a
29.07	0.1655	58140	keystroke_e	e	n/a
29.2205	0.105	58441	keystroke_r	r	n/a
29.4755	0.0755	58951	keystroke_i	i	n/a
29.626	0.105	59252	keystroke_a	a	n/a
29.9855	0.135	59971	keystroke_Key.space	Key.space	n/a
30.2255	0.135	60451	keystroke_t	t	n/a
30.3305	0.105	60661	keystroke_h	h	n/a
30.4505	0.15	60901	keystroke_o	o	n/a
30.5555	0.105	61111	keystroke_u	u	n/a
31.9505	0.15	63901	keystroke_g	g	n/a
32.1305	0.075	64261	keystroke_h	h	n/a
32.4005	0.06	64801	keystroke_Key.enter	Key.enter	n/a
32.469	19.599	64938	prompt	n/a	whom'st azerbaijan french shakespeare\n
35.0275	0.073	70055	keystroke_w	w	n/a
35.1305	0.165	70261	keystroke_h	h	n/a
35.2655	0.09	70531	keystroke_o	o	n/a
36.3755	0.165	72751	keystroke_m	m	n/a
36.8405	0.075	73681	keystroke_'	'	n/a
37.0505	0.105	74101	keystroke_s	s	n/a
37.2605	0.105	74521	keystroke_t	t	n/a
38.55	0.121	77100	keystroke_Key.space	Key.space	n/a
38.986	0.12	77972	keystroke_a	a	n/a
39.301	0.1495	78602	keystroke_z	z	n/a
41.7325	0.103	83465	keystroke_e	e	n/a
41.8505	0.15	83701	keystroke_r	r	n/a
42.256	0.12	84512	keystroke_b	b	n/a
42.391	0.119	84782	keystroke_a	a	n/a
42.751	0.104	85502	keystroke_i	i	n/a
43.665	0.106	87330	keystroke_j	j	n/a
44.0405	0.12	88081	keystroke_a	a	n/a
44.2205	0.165	88441	keystroke_n	n	n/a
44.3705	0.135	88741	keystroke_Key.space	Key.space	n/a
44.6705	0.06	89341	keystroke_f	f	n/a
44.866	0.1045	89732	keystroke_r	r	n/a
44.9405	0.12	89881	keystroke_e	e	n/a
45.0755	0.105	90151	keystroke_n	n	n/a
45.2255	0.1355	90451	keystroke_c	c	n/a
45.331	0.12	90662	keystroke_h	h	n/a
45.436	0.1345	90872	keystroke_Key.space	Key.space	n/a
46.4105	0.105	92821	keystroke_s	s	n/a
46.5455	0.12	93091	keystroke_k	k	n/a
46.6805	0.121	93361	keystroke_a	a	n/a
47.8055	0.06	95611	keystroke_Key.backspace	Key.backspace	n/a
47.9555	0.06	95911	keystroke_Key.backspace	Key.backspace	n/a
48.2405	0.045	96481	keystroke_h	h	n/a
48.3755	0.12	96751	keystroke_a	a	n/a
48.886	0.06	97772	keystroke_k	k	n/a
49.1855	0.12	98371	keystroke_e	e	n/a
49.4405	0.12	98881	keystroke_s	s	n/a
49.6655	0.09	99331	keystroke_p	p	n/a
49.7855	0.12	99571	keystroke_e	e	n/a
50.746	0.12	101492	keystroke_a	a	n/a
51.241	0.12	102482	keystroke_r	r	n/a
51.661	0.15	103322	keystroke_e	e	n/a
51.975	0.09	103950	keystroke_Key.enter	Key.enter	n/a
52.0755	15.322	104151	prompt	n/a	transparent slot complimentary revolution\n
52.8	0.135	105600	keystroke_f	f	n/a
53.0855	0.135	106171	keystroke_r	r	n/a
53.2055	0.15	106411	keystroke_a	a	n/a
53.4305	0.06	106861	keystroke_n	n	n/a
54.0155	0.045	108031	keystroke_Key.backspace	Key.backspace	n/a
54.1655	0.06	108331	keystroke_Key.backspace	Key.backspace	n/a
54.3155	0.045	108631	keystroke_Key.backspace	Key.backspace	n/a
54.4655	0.075	108931	keystroke_Key.backspace	Key.backspace	n/a
54.6905	0.105	109381	keystroke_t	t	n/a
54.8855	0.15	109771	keystroke_r	r	n/a
54.9905	0.15	109981	keystroke_a	a	n/a
55.1105	0.09	110221	keystroke_n	n	n/a
55.3205	0.12	110641	keystroke_s	s	n/a
55.9655	0.09	111931	keystroke_p	p	n/a
56.2205	0.12	112441	keystroke_a	a	n/a
56.9555	0.12	113911	keystroke_r	r	n/a
57.0305	0.15	114061	keystroke_e	e	n/a
57.2255	0.075	114451	keystroke_n	n	n/a
57.2855	0.105	114571	keystroke_t	t	n/a
58.485	0.1655	116970	keystroke_Key.space	Key.space	n/a
58.7705	0.135	117541	keystroke_s	s	n/a
58.9205	0.06	117841	keystroke_l	l	n/a
59.0705	0.06	118141	keystroke_o	o	n/a
59.2055	0.12	118411	keystroke_t	t	n/a
59.2955	0.15	118591	keystroke_Key.space	Key.space	n/a
59.791	0.1495	119582	keystroke_c	c	n/a
59.9705	0.18	119941	keystroke_o	o	n/a
60.1205	0.225	120241	keystroke_m	m	n/a
60.3905	0.09	120781	keystroke_p	p	n/a
60.5105	0.09	121021	keystroke_l	l	n/a
60.7955	0.075	121591	keystroke_i	i	n/a
60.9605	0.105	121921	keystroke_a	a	n/a
61.621	0.045	123242	keystroke_Key.backspace	Key.backspace	n/a
61.906	0.09	123812	keystroke_m	m	n/a
62.071	0.135	124142	keystroke_e	e	n/a
62.236	0.105	124472	keystroke_n	n	n/a
62.701	0.105	125402	keystroke_t	t	n/a
63.181	0.135	126362	keystroke_a	a	n/a
63.391	0.12	126782	keystroke_r	r	n/a
63.631	0.075	127262	keystroke_y	y	n/a
63.87	0.136	127740	keystroke_Key.space	Key.space	n/a
64.936	0.105	129872	keystroke_e	e	n/a
65.4305	0.06	130861	keystroke_Key.backspace	Key.backspace	n/a
65.4755	0.12	130951	keystroke_r	r	n/a
65.5505	0.12	131101	keystroke_e	e	n/a
65.7605	0.135	131521	keystroke_v	v	n/a
65.9405	0.075	131881	keystroke_o	o	n/a
66.1205	0.12	132241	keystroke_l	l	n/a
66.2855	0.09	132571	keystroke_u	u	n/a
66.4955	0.12	132991	keystroke_t	t	n/a
66.5555	0.255	133111	keystroke_i	i	n/a
66.7055	0.09	133411	keystroke_o	o	n/a
66.7655	0.135	133531	keystroke_n	n	n/a
67.3205	0.075	134641	keystroke_Key.enter	Key.enter	n/a
67.403	10.901	134806	prompt	n/a	iraq torture printing majority\n
68.4905	0.075	136981	keystroke_i	i	n/a
68.6855	0.18	137371	keystroke_r	r	n/a
68.8205	0.105	137641	keystroke_a	a	n/a
69.2105	0.09	138421	keystroke_q	q	n/a
69.5105	0.135	139021	keystroke_Key.space	Key.space	n/a
70.0055	0.135	140011	keystroke_t	t	n/a
70.2005	0.075	140401	keystroke_o	o	n/a
70.3805	0.105	140761	keystroke_r	r	n/a
70.8305	0.075	141661	keystroke_u	u	n/a
71.4005	0.06	142801	keystroke_Key.backspace	Key.backspace	n/a
72.0005	0.12	144001	keystroke_t	t	n/a
72.3005	0.075	144601	keystroke_u	u	n/a
72.4655	0.12	144931	keystroke_r	r	n/a
72.5555	0.105	145111	keystroke_e	e	n/a
72.9155	0.12	145831	keystroke_Key.space	Key.space	n/a
74.356	0.12	148712	keystroke_p	p	n/a
75.1505	0.12	150301	keystroke_r	r	n/a
75.2255	0.15	150451	keystroke_i	i	n/a
75.3305	0.15	150661	keystroke_n	n	n/a
75.4955	0.105	150991	keystroke_t	t	n/a
75.5555	0.105	151111	keystroke_i	i	n/a
75.6455	0.105	151291	keystroke_n	n	n/a
75.7955	0.105	151591	keystroke_g	g	n/a
75.9005	0.105	151801	keystroke_Key.space	Key.space	n/a
76.3655	0.135	152731	keystroke_m	m	n/a
76.5155	0.09	153031	keystroke_a	a	n/a
77.0555	0.165	154111	keystroke_j	j	n/a
77.2805	0.09	154561	keystroke_o	o	n/a
77.4155	0.1205	154831	keystroke_r	r	n/a
77.6405	0.075	155281	keystroke_i	i	n/a
77.7755	0.135	155551	keystroke_t	t	n/a
77.9555	0.09	155911	keystroke_y	y	n/a
78.226	0.074	156452	keystroke_Key.enter	Key.enter	n/a
78.311	6.727	156622	prompt	n/a	meters floors beth hunter\n
79.0955	0.135	158191	keystroke_m	m	n/a
79.2155	0.12	158431	keystroke_e	e	n/a
79.4405	0.12	158881	keystroke_t	t	n/a
79.8155	0.195	159631	keystroke_e	e	n/a
80.0705	0.12	160141	keystroke_r	r	n/a
80.3705	0.105	160741	keystroke_s	s	n/a
80.5655	0.135	161131	keystroke_Key.space	Key.space	n/a
80.7755	0.1195	161551	keystroke_f	f	n/a
80.941	0.104	161882	keystroke_l	l	n/a
81.24	0.03	162480	keystroke_o	o	n/a
81.345	0.09	162690	keystroke_o	o	n/a
81.585	0.12	163170	keystroke_r	r	n/a
81.9	0.1055	163800	keystroke_s	s	n/a
82.29	0.15	164580	keystroke_Key.space	Key.space	n/a
82.47	0.1505	164940	keystroke_b	b	n/a
82.59	0.1355	165180	keystroke_e	e	n/a
82.8605	0.12	165721	keystroke_t	t	n/a
83.0555	0.09	166111	keystroke_h	h	n/a
83.3255	0.135	166651	keystroke_Key.space	Key.space	n/a
83.8355	0.075	167671	keystroke_h	h	n/a
84.0305	0.045	168061	keystroke_u	u	n/a
84.1955	0.075	168391	keystroke_n	n	n/a
84.3755	0.12	168751	keystroke_t	t	n/a
84.4655	0.165	168931	keystroke_e	e	n/a
84.6005	0.105	169201	keystroke_r	r	n/a
84.9605	0.075	169921	keystroke_Key.enter	Key.enter	n/a
85.0445	9.8325	170089	prompt	n/a	gays sexuality submissions modified\n
85.9655	0.18	171931	keystroke_g	g	n/a
86.1005	0.15	172201	keystroke_a	a	n/a
86.5055	0.045	173011	keystroke_y	y	n/a
86.6405	0.105	173281	keystroke_s	s	n/a
86.8505	0.1205	173701	keystroke_Key.space	Key.space	n/a
87.271	0.12	174542	keystroke_s	s	n/a
87.346	0.15	174692	keystroke_e	e	n/a
87.646	0.15	175292	keystroke_x	x	n/a
88.636	0.12	177272	keystroke_u	u	n/a
88.861	0.12	177722	keystroke_a	a	n/a
89.116	0.045	178232	keystroke_l	l	n/a
89.476	0.074	178952	keystroke_i	i	n/a
89.671	0.105	179342	keystroke_t	t	n/a
89.806	0.075	179612	keystroke_y	y	n/a
89.955	0.105	179910	keystroke_Key.space	Key.space	n/a
90.3	0.12	180600	keystroke_s	s	n/a
90.451	0.104	180902	keystroke_u	u	n/a
91.2305	0.015	182461	keystroke_b	b	n/a
91.4105	0.135	182821	keystroke_m	m	n/a
91.9355	0.06	183871	keystroke_i	i	n/a
92.1305	0.0605	184261	keystroke_s	s	n/a
92.2955	0.0905	184591	keystroke_s	s	n/a
92.4155	0.255	184831	keystroke_i	i	n/a
92.5505	0.09	185101	keystroke_o	o	n/a
92.6555	0.135	185311	keystroke_n	n	n/a
92.9105	0.105	185821	keystroke_s	s	n/a
93.1055	0.105	186211	keystroke_Key.space	Key.space	n/a
93.4655	0.135	186931	keystroke_m	m	n/a
93.5855	0.075	187171	keystroke_o	o	n/a
93.7055	0.12	187411	keystroke_d	d	n/a
94.0055	0.045	188011	keystroke_i	i	n/a
94.1555	0.12	188311	keystroke_f	f	n/a
94.3055	0.06	188611	keystroke_i	i	n/a
94.3955	0.12	188791	keystroke_e	e	n/a
94.6355	0.105	189271	keystroke_d	d	n/a
94.8005	0.075	189601	keystroke_Key.enter	Key.enter	n/a
94.8855	9.2635	189771	prompt	n/a	algorithm breed placement banana\n
95.626	0.135	191252	keystroke_a	a	n/a
95.776	0.09	191552	keystroke_l	l	n/a
96.0305	0.1055	192061	keystroke_g	g	n/a
96.721	0.06	193442	keystroke_o	o	n/a
97.396	0.15	194792	keystroke_r	r	n/a
97.59	0.106	195180	keystroke_i	i	n/a
97.786	0.12	195572	keystroke_t	t	n/a
97.965	0.061	195930	keystroke_h	h	n/a
98.475	0.136	196950	keystroke_m	m	n/a
98.7	0.105	197400	keystroke_Key.space	Key.space	n/a
99.15	0.135	198300	keystroke_b	b	n/a
99.555	0.121	199110	keystroke_r	r	n/a
99.825	0.105	199650	keystroke_e	e	n/a
100.035	0.09	200070	keystroke_e	e	n/a
100.26	0.105	200520	keystroke_d	d	n/a
100.455	0.135	200910	keystroke_Key.space	Key.space	n/a
100.905	0.075	201810	keystroke_p	p	n/a
101.055	0.12	202110	keystroke_l	l	n/a
101.16	0.135	202320	keystroke_a	a	n/a
101.34	0.12	202680	keystroke_c	c	n/a
101.535	0.105	203070	keystroke_e	e	n/a
101.73	0.121	203460	keystroke_m	m	n/a
101.836	0.12	203672	keystroke_e	e	n/a
101.971	0.074	203942	keystroke_n	n	n/a
102.061	0.074	204122	keystroke_t	t	n/a
102.15	0.105	204300	keystroke_Key.space	Key.space	n/a
102.42	0.12	204840	keystroke_b	b	n/a
102.525	0.15	205050	keystroke_a	a	n/a
102.84	0.105	205680	keystroke_n	n	n/a
103.021	0.044	206042	keystroke_a	a	n/a
103.08	0.075	206160	keystroke_n	n	n/a
103.845	0.105	207690	keystroke_a	a	n/a
104.085	0.06	208170	keystroke_Key.enter	Key.enter	n/a
104.155	11.753	208310	prompt	n/a	kurt michigan align wyoming\n
105.045	0.12	210090	keystroke_k	k	n/a
105.285	0.075	210570	keystroke_u	u	n/a
105.435	0.12	210870	keystroke_r	r	n/a
105.675	0.105	211350	keystroke_t	t	n/a
105.795	0.1205	211590	keystroke_Key.space	Key.space	n/a
106.0955	0.15	212191	keystroke_m	m	n/a
106.2305	0.09	212461	keystroke_i	i	n/a
107.6705	0.135	215341	keystroke_c	c	n/a
108.0005	0.06	216001	keystroke_h	h	n/a
108.1205	0.105	216241	keystroke_i	i	n/a
108.3455	0.12	216691	keystroke_g	g	n/a
108.6605	0.105	217321	keystroke_a	a	n/a
108.7955	0.105	217591	keystroke_n	n	n/a
108.8855	0.135	217771	keystroke_Key.space	Key.space	n/a
109.1255	0.105	218251	keystroke_a	a	n/a
109.3655	0.105	218731	keystroke_l	l	n/a
109.5755	0.06	219151	keystroke_i	i	n/a
109.7405	0.09	219481	keystroke_g	g	n/a
110.0555	0.075	220111	keystroke_n	n	n/a
110.296	0.089	220592	keystroke_Key.space	Key.space	n/a
113.4625	0.058	226925	keystroke_w	w	n/a
113.7005	0.09	227401	keystroke_y	y	n/a
114.5105	0.12	229021	keystroke_o	o	n/a
114.6605	0.15	229321	keystroke_m	m	n/a
114.8255	0.135	229651	keystroke_i	i	n/a
114.9305	0.12	229861	keystroke_n	n	n/a
115.0805	0.09	230161	keystroke_g	g	n/a
115.8155	0.09	231631	keystroke_Key.enter	Key.enter	n/a
115.9165	11.7655	231833	prompt	n/a	wildlife geometry harder palace\n
116.9105	0.12	233821	keystroke_w	w	n/a
117.0455	0.15	234091	keystroke_i	i	n/a
117.1505	0.12	234301	keystroke_l	l	n/a
117.2855	0.165	234571	keystroke_f	f	n/a
118.1105	0.015	236221	keystroke_Key.backspace	Key.backspace	n/a
118.1405	0.09	236281	keystroke_d	d	n/a
118.4255	0.12	236851	keystroke_l	l	n/a
118.5755	0.075	237151	keystroke_i	i	n/a
118.6955	0.165	237391	keystroke_f	f	n/a
118.8305	0.12	237661	keystroke_e	e	n/a
119.4755	0.15	238951	keystroke_Key.space	Key.space	n/a
119.8055	0.15	239611	keystroke_g	g	n/a
120.0605	0.09	240121	keystroke_e	e	n/a
120.871	0.089	241742	keystroke_o	o	n/a
121.02	0.15	242040	keystroke_m	m	n/a
121.8755	0.12	243751	keystroke_e	e	n/a
122.1305	0.0895	244261	keystroke_t	t	n/a
122.355	0.09	244710	keystroke_r	r	n/a
122.46	0.105	244920	keystroke_y	y	n/a
122.5955	0.15	245191	keystroke_Key.space	Key.space	n/a
122.7605	0.09	245521	keystroke_h	h	n/a
122.8955	0.105	245791	keystroke_a	a	n/a
123.0605	0.105	246121	keystroke_r	r	n/a
123.2555	0.105	246511	keystroke_d	d	n/a
123.4655	0.12	246931	keystroke_e	e	n/a
123.5555	0.12	247111	keystroke_r	r	n/a
123.9905	0.12	247981	keystroke_Key.space	Key.space	n/a
124.2605	0.09	248521	keystroke_p	p	n/a
124.4705	0.12	248941	keystroke_l	l	n/a
124.6205	0.135	249241	keystroke_a	a	n/a
125.0855	0.075	250171	keystroke_Key.backspace	Key.backspace	n/a
125.2505	0.075	250501	keystroke_Key.backspace	Key.backspace	n/a
125.3555	0.15	250711	keystroke_a	a	n/a
125.5955	0.06	251191	keystroke_p	p	n/a
126.2855	0.06	252571	keystroke_Key.backspace	Key.backspace	n/a
126.5255	0.09	253051	keystroke_l	l	n/a
126.6455	0.1205	253291	keystroke_a	a	n/a
126.871	0.12	253742	keystroke_c	c	n/a
127.065	0.106	254130	keystroke_e	e	n/a
127.605	0.075	255210	keystroke_Key.enter	Key.enter	n/a
127.6885	16.464	255377	prompt	n/a	achieved he's verde minimal\n
128.52	0.105	257040	keystroke_a	a	n/a
128.745	0.18	257490	keystroke_c	c	n/a
128.94	0.105	257880	keystroke_h	h	n/a
129.075	0.105	258150	keystroke_i	i	n/a
129.24	0.165	258480	keystroke_v	v	n/a
129.3905	0.1345	258781	keystroke_e	e	n/a
129.66	0.09	259320	keystroke_d	d	n/a
129.765	0.15	259530	keystroke_Key.space	Key.space	n/a
130.11	0.045	260220	keystroke_h	h	n/a
130.17	0.12	260340	keystroke_e	e	n/a
130.305	0.0905	260610	keystroke_Key.space	Key.space	n/a
132.7225	0.001	265445	keystroke_Key.backspace	Key.backspace	n/a
132.8255	0.06	265651	keystroke_Key.backspace	Key.backspace	n/a
132.9905	0.044	265981	keystroke_Key.backspace	Key.backspace	n/a
133.1245	0.061	266249	keystroke_Key.backspace	Key.backspace	n/a
133.2755	0.06	266551	keystroke_Key.backspace	Key.backspace	n/a
133.4405	0.06	266881	keystroke_Key.backspace	Key.backspace	n/a
133.5905	0.075	267181	keystroke_Key.backspace	Key.backspace	n/a
133.8155	0.105	267631	keystroke_e	e	n/a
134.0255	0.165	268051	keystroke_v	v	n/a
134.3555	0.06	268711	keystroke_i	i	n/a
134.8055	0.06	269611	keystroke_Key.backspace	Key.backspace	n/a
134.8955	0.105	269791	keystroke_e	e	n/a
135.1205	0.105	270241	keystroke_d	d	n/a
135.2405	0.09	270481	keystroke_Key.space	Key.space	n/a
136.035	0.045	272070	keystroke_h	h	n/a
136.5155	0.12	273031	keystroke_e	e	n/a
136.9355	0.105	273871	keystroke_'	'	n/a
137.1455	0.09	274291	keystroke_s	s	n/a
137.2655	0.12	274531	keystroke_Key.space	Key.space	n/a
138.0455	0.165	276091	keystroke_v	v	n/a
138.1955	0.18	276391	keystroke_e	e	n/a
138.3455	0.1045	276691	keystroke_r	r	n/a
138.615	0.136	277230	keystroke_d	d	n/a
138.886	0.105	277772	keystroke_e	e	n/a
140.355	0.165	280710	keystroke_Key.space	Key.space	n/a
141.42	0.1505	282840	keystroke_m	m	n/a
142.2305	0.09	284461	keystroke_i	i	n/a
142.4255	0.135	284851	keystroke_n	n	n/a
142.8005	0.09	285601	keystroke_i	i	n/a
143.4605	0.165	286921	keystroke_m	m	n/a
143.6405	0.12	287281	keystroke_a	a	n/a
143.8355	0.12	287671	keystroke_l	l	n/a
144.0905	0.059	288181	keystroke_Key.enter	Key.enter	n/a
144.1585	10.9595	288317	prompt	n/a	depot june youth detective\n
145.755	0.105	291510	keystroke_d	d	n/a
145.935	0.105	291870	keystroke_e	e	n/a
146.235	0.061	292470	keystroke_p	p	n/a
146.34	0.09	292680	keystroke_o	o	n/a
146.61	0.09	293220	keystroke_t	t	n/a
147.78	0.12	295560	keystroke_Key.space	Key.space	n/a
148.065	0.09	296130	keystroke_u	u	n/a
148.275	0.105	296550	keystroke_n	n	n/a
148.425	0.09	296850	keystroke_e	e	n/a
149.43	0.06	298860	keystroke_Key.backspace	Key.backspace	n/a
149.595	0.06	299190	keystroke_Key.backspace	Key.backspace	n/a
149.73	0.09	299460	keystroke_Key.backspace	Key.backspace	n/a
150.0155	0.09	300031	keystroke_j	j	n/a
150.2555	0.045	300511	keystroke_u	u	n/a
150.4505	0.09	300901	keystroke_n	n	n/a
150.8255	0.105	301651	keystroke_e	e	n/a
151.2155	0.15	302431	keystroke_Key.space	Key.space	n/a
151.6505	0.09	303301	keystroke_y	y	n/a
151.7555	0.135	303511	keystroke_o	o	n/a
151.8455	0.105	303691	keystroke_u	u	n/a
152.0855	0.135	304171	keystroke_t	t	n/a
152.4005	0.09	304801	keystroke_h	h	n/a
152.5655	0.105	305131	keystroke_Key.space	Key.space	n/a
152.9555	0.09	305911	keystroke_d	d	n/a
153.1205	0.12	306241	keystroke_e	e	n/a
153.3755	0.12	306751	keystroke_t	t	n/a
153.9305	0.105	307861	keystroke_e	e	n/a
154.1405	0.15	308281	keystroke_c	c	n/a
154.3505	0.12	308701	keystroke_t	t	n/a
154.5455	0.105	309091	keystroke_i	i	n/a
154.6205	0.165	309241	keystroke_v	v	n/a
154.7555	0.12	309511	keystroke_e	e	n/a
155.0405	0.075	310081	keystroke_Key.enter	Key.enter	n/a
155.1235	6.504	310247	prompt	n/a	timer shoulder solve sized\n
156.0905	0.12	312181	keystroke_t	t	n/a
156.2255	0.15	312451	keystroke_i	i	n/a
156.3605	0.15	312721	keystroke_m	m	n/a
156.5105	0.12	313021	keystroke_e	e	n/a
156.6155	0.105	313231	keystroke_r	r	n/a
156.7055	0.164	313411	keystroke_Key.space	Key.space	n/a
156.8855	0.134	313771	keystroke_s	s	n/a
157.0055	0.135	314011	keystroke_h	h	n/a
157.1255	0.105	314251	keystroke_o	o	n/a
157.2155	0.135	314431	keystroke_u	u	n/a
157.665	0.075	315330	keystroke_l	l	n/a
157.77	0.106	315540	keystroke_d	d	n/a
157.966	0.135	315932	keystroke_e	e	n/a
158.055	0.12	316110	keystroke_r	r	n/a
158.205	0.18	316410	keystroke_Key.space	Key.space	n/a
158.67	0.165	317340	keystroke_s	s	n/a
158.866	0.074	317732	keystroke_o	o	n/a
159.075	0.106	318150	keystroke_l	l	n/a
159.226	0.1645	318452	keystroke_v	v	n/a
159.36	0.1205	318720	keystroke_e	e	n/a
160.1405	0.15	320281	keystroke_Key.space	Key.space	n/a
160.6055	0.09	321211	keystroke_s	s	n/a
160.7855	0.075	321571	keystroke_i	i	n/a
160.9205	0.15	321841	keystroke_z	z	n/a
161.1905	0.075	322381	keystroke_e	e	n/a
161.4005	0.105	322801	keystroke_d	d	n/a
161.5655	0.06	323131	keystroke_Key.enter	Key.enter	n/a
161.6325	7.3	323265	prompt	n/a	consumer fewer adam pixels\n
162.4955	0.195	324991	keystroke_c	c	n/a
162.6305	0.105	325261	keystroke_o	o	n/a
162.7805	0.12	325561	keystroke_n	n	n/a
163.0655	0.105	326131	keystroke_s	s	n/a
163.2605	0.06	326521	keystroke_u	u	n/a
163.5005	0.09	327001	keystroke_m	m	n/a
163.6505	0.12	327301	keystroke_e	e	n/a
163.7405	0.12	327481	keystroke_r	r	n/a
163.8295	0.15	327659	keystroke_Key.space	Key.space	n/a
164.0405	0.1055	328081	keystroke_f	f	n/a
164.521	0.195	329042	keystroke_e	e	n/a
164.656	0.165	329312	keystroke_w	w	n/a
165.451	0.1345	330902	keystroke_e	e	n/a
165.5555	0.135	331111	keystroke_r	r	n/a
165.7655	0.12	331531	keystroke_Key.space	Key.space	n/a
166.0055	0.12	332011	keystroke_a	a	n/a
166.1855	0.105	332371	keystroke_d	d	n/a
166.561	0.105	333122	keystroke_a	a	n/a
166.726	0.165	333452	keystroke_m	m	n/a
166.875	0.135	333750	keystroke_Key.space	Key.space	n/a
167.25	0.046	334500	keystroke_p	p	n/a
167.34	0.091	334680	keystroke_i	i	n/a
167.5355	0.15	335071	keystroke_x	x	n/a
168.1355	0.09	336271	keystroke_e	e	n/a
168.3755	0.09	336751	keystroke_l	l	n/a
168.6155	0.12	337231	keystroke_s	s	n/a
168.8705	0.06	337741	keystroke_Key.enter	Key.enter	n/a
168.938	8.154	337876	prompt	n/a	lopez inquire saver guam\n
169.7855	0.09	339571	keystroke_l	l	n/a
169.9655	0.06	339931	keystroke_o	o	n/a
170.2505	0.075	340501	keystroke_p	p	n/a
170.5355	0.105	341071	keystroke_e	e	n/a
170.8205	0.135	341641	keystroke_z	z	n/a
171.525	0.15	343050	keystroke_Key.space	Key.space	n/a
172.095	0.105	344190	keystroke_i	i	n/a
172.23	0.12	344460	keystroke_n	n	n/a
172.47	0.1355	344940	keystroke_q	q	n/a
172.7705	0.12	345541	keystroke_u	u	n/a
172.8755	0.135	345751	keystroke_i	i	n/a
173.1155	0.135	346231	keystroke_r	r	n/a
173.2055	0.12	346411	keystroke_e	e	n/a
173.4455	0.12	346891	keystroke_d	d	n/a
174.1205	0.075	348241	keystroke_Key.backspace	Key.backspace	n/a
174.3305	0.09	348661	keystroke_Key.space	Key.space	n/a
174.5555	0.15	349111	keystroke_s	s	n/a
174.6605	0.15	349321	keystroke_a	a	n/a
174.7805	0.165	349561	keystroke_v	v	n/a
174.9155	0.195	349831	keystroke_e	e	n/a
175.0955	0.105	350191	keystroke_r	r	n/a
175.2605	0.105	350521	keystroke_Key.space	Key.space	n/a
175.6505	0.105	351301	keystroke_g	g	n/a
176.0255	0.075	352051	keystroke_u	u	n/a
176.1605	0.135	352321	keystroke_a	a	n/a
176.5055	0.165	353011	keystroke_m	m	n/a
177.0155	0.075	354031	keystroke_Key.enter	Key.enter	n/a
177.097	7.27	354194	prompt	n/a	state inflation effects barrier\n
177.9605	0.15	355921	keystroke_s	s	n/a
178.1405	0.12	356281	keystroke_t	t	n/a
178.2455	0.135	356491	keystroke_a	a	n/a
178.3655	0.105	356731	keystroke_t	t	n/a
178.6955	0.09	357391	keystroke_e	e	n/a
178.8755	0.18	357751	keystroke_Key.space	Key.space	n/a
179.0855	0.12	358171	keystroke_i	i	n/a
179.1905	0.165	358381	keystroke_n	n	n/a
179.3855	0.12	358771	keystroke_f	f	n/a
180.3605	0.09	360721	keystroke_l	l	n/a
180.4505	0.12	360901	keystroke_a	a	n/a
180.6455	0.09	361291	keystroke_t	t	n/a
180.7055	0.195	361411	keystroke_i	i	n/a
180.7955	0.09	361591	keystroke_o	o	n/a
180.8855	0.15	361771	keystroke_n	n	n/a
181.0205	0.12	362041	keystroke_Key.space	Key.space	n/a
181.2005	0.12	362401	keystroke_e	e	n/a
181.4405	0.075	362881	keystroke_f	f	n/a
181.621	0.15	363242	keystroke_f	f	n/a
181.726	0.15	363452	keystroke_e	e	n/a
182.011	0.119	364022	keystroke_c	c	n/a
182.205	0.1055	364410	keystroke_t	t	n/a
182.4305	0.105	364861	keystroke_s	s	n/a
182.55	0.09	365100	keystroke_Key.space	Key.space	n/a
182.806	0.135	365612	keystroke_b	b	n/a
182.895	0.135	365790	keystroke_a	a	n/a
183.286	0.059	366572	keystroke_r	r	n/a
183.451	0.0895	366902	keystroke_r	r	n/a
183.6755	0.075	367351	keystroke_i	i	n/a
183.7955	0.1195	367591	keystroke_e	e	n/a
184.0355	0.105	368071	keystroke_r	r	n/a
184.2905	0.075	368581	keystroke_Key.enter	Key.enter	n/a
184.373	11.8885	368746	prompt	n/a	youth genesis funding roommate\n
185.2205	0.105	370441	keystroke_y	y	n/a
185.3255	0.135	370651	keystroke_o	o	n/a
185.4155	0.12	370831	keystroke_u	u	n/a
185.6105	0.12	371221	keystroke_t	t	n/a
185.7455	0.06	371491	keystroke_h	h	n/a
185.9855	0.12	371971	keystroke_Key.space	Key.space	n/a
186.5105	0.105	373021	keystroke_g	g	n/a
186.7205	0.105	373441	keystroke_e	e	n/a
187.2305	0.105	374461	keystroke_n	n	n/a
187.5005	0.06	375001	keystroke_i	i	n/a
187.9655	0.0445	375931	keystroke_Key.backspace	Key.backspace	n/a
188.071	0.105	376142	keystroke_e	e	n/a
188.356	0.075	376712	keystroke_s	s	n/a
189.1355	0.075	378271	keystroke_i	i	n/a
189.2855	0.09	378571	keystroke_s	s	n/a
189.6155	0.09	379231	keystroke_Key.space	Key.space	n/a
190.0805	0.165	380161	keystroke_f	f	n/a
190.2755	0.06	380551	keystroke_u	u	n/a
190.4855	0.09	380971	keystroke_n	n	n/a
190.5605	0.12	381121	keystroke_d	d	n/a
191.0105	0.135	382021	keystroke_i	i	n/a
191.1005	0.12	382201	keystroke_n	n	n/a
191.2655	0.075	382531	keystroke_g	g	n/a
191.3255	0.09	382651	keystroke_Key.space	Key.space	n/a
191.7905	0.06	383581	keystroke_c	c	n/a
192.3445	0.045	384689	keystroke_Key.backspace	Key.backspace	n/a
192.4055	0.12	384811	keystroke_r	r	n/a
192.5705	0.06	385141	keystroke_o	o	n/a
192.7205	0.06	385441	keystroke_o	o	n/a
193.0955	0.09	386191	keystroke_m	m	n/a
193.3195	0.1515	386639	keystroke_a	a	n/a
193.546	0.134	387092	keystroke_t	t	n/a
193.665	0.075	387330	keystroke_e	e	n/a
194.34	0.06	388680	keystroke_Key.backspace	Key.backspace	n/a
194.49	0.06	388980	keystroke_Key.backspace	Key.backspace	n/a
194.64	0.075	389280	keystroke_Key.backspace	Key.backspace	n/a
194.955	0.076	389910	keystroke_m	m	n/a
195.12	0.15	390240	keystroke_a	a	n/a
195.78	0.135	391560	keystroke_t	t	n/a
195.9	0.12	391800	keystroke_e	e	n/a
196.1855	0.0745	392371	keystroke_Key.enter	Key.enter	n/a
196.267	12.16	392534	prompt	n/a	race knights disciplines albuquerque\n
197.1	0.135	394200	keystroke_r	r	n/a
197.46	0.12	394920	keystroke_a	a	n/a
197.64	0.105	395280	keystroke_c	c	n/a
197.82	0.105	395640	keystroke_e	e	n/a
197.94	0.135	395880	keystroke_Key.space	Key.space	n/a
198.09	0.135	396180	keystroke_k	k	n/a
198.345	0.12	396690	keystroke_n	n	n/a
198.885	0.0905	397770	keystroke_i	i	n/a
199.0955	0.12	398191	keystroke_g	g	n/a
199.2305	0.0595	398461	keystroke_h	h	n/a
199.335	0.075	398670	keystroke_t	t	n/a
199.59	0.09	399180	keystroke_s	s	n/a
199.77	0.105	399540	keystroke_Key.space	Key.space	n/a
200.505	0.09	401010	keystroke_d	d	n/a
200.79	0.12	401580	keystroke_i	i	n/a
201	0.091	402000	keystroke_s	s	n/a
201.315	0.12	402630	keystroke_c	c	n/a
201.57	0.12	403140	keystroke_i	i	n/a
202.155	0.09	404310	keystroke_p	p	n/a
202.35	0.135	404700	keystroke_l	l	n/a
202.515	0.105	405030	keystroke_i	i	n/a
202.725	0.105	405450	keystroke_n	n	n/a
202.86	0.12	405720	keystroke_e	e	n/a
203.1	0.105	406200	keystroke_s	s	n/a
203.22	0.135	406440	keystroke_Key.space	Key.space	n/a
203.46	0.12	406920	keystroke_a	a	n/a
204.045	0.075	408090	keystroke_l	l	n/a
204.225	0.09	408450	keystroke_b	b	n/a
204.705	0.09	409410	keystroke_u	u	n/a
205.185	0.09	410370	keystroke_q	q	n/a
206.31	0.09	412620	keystroke_u	u	n/a
206.865	0.045	413730	keystroke_e	e	n/a
206.94	0.09	413880	keystroke_r	r	n/a
207.645	0.075	415290	keystroke_q	q	n/a
207.915	0.105	415830	keystroke_u	u	n/a
208.095	0.12	416190	keystroke_e	e	n/a
208.35	0.075	416700	keystroke_Key.enter	Key.enter	n/a
208.4355	9.5315	416871	prompt	n/a	security lindsay bedford seek\n
209.2055	0.1045	418411	keystroke_s	s	n/a
209.4	0.12	418800	keystroke_e	e	n/a
209.6555	0.15	419311	keystroke_c	c	n/a
210.3605	0.09	420721	keystroke_u	u	n/a
210.4955	0.12	420991	keystroke_r	r	n/a
210.6455	0.105	421291	keystroke_i	i	n/a
210.8405	0.105	421681	keystroke_t	t	n/a
210.9755	0.09	421951	keystroke_y	y	n/a
211.1405	0.1045	422281	keystroke_Key.space	Key.space	n/a
211.6955	0.12	423391	keystroke_l	l	n/a
211.8005	0.12	423601	keystroke_i	i	n/a
211.9505	0.135	423901	keystroke_n	n	n/a
212.9105	0.135	425821	keystroke_d	d	n/a
213.5105	0.195	427021	keystroke_s	s	n/a
213.6455	0.15	427291	keystroke_a	a	n/a
213.915	0.09	427830	keystroke_y	y	n/a
214.065	0.15	428130	keystroke_Key.space	Key.space	n/a
214.336	0.104	428672	keystroke_b	b	n/a
214.455	0.09	428910	keystroke_e	e	n/a
214.635	0.12	429270	keystroke_d	d	n/a
215.64	0.18	431280	keystroke_f	f	n/a
216	0.12	432000	keystroke_o	o	n/a
216.21	0.105	432420	keystroke_r	r	n/a
216.4205	0.1345	432841	keystroke_d	d	n/a
216.6	0.135	433200	keystroke_Key.space	Key.space	n/a
216.87	0.135	433740	keystroke_s	s	n/a
217.35	0.105	434700	keystroke_e	e	n/a
217.53	0.12	435060	keystroke_e	e	n/a
217.665	0.105	435330	keystroke_k	k	n/a
217.89	0.075	435780	keystroke_Key.enter	Key.enter	n/a
217.9715	16.916	435943	prompt	n/a	encouraging humans marco widely\n
218.76	0.105	437520	keystroke_e	e	n/a
218.91	0.15	437820	keystroke_n	n	n/a
219.66	0.18	439320	keystroke_c	c	n/a
219.885	0.105	439770	keystroke_o	o	n/a
220.35	0.075	440700	keystroke_u	u	n/a
220.515	0.135	441030	keystroke_r	r	n/a
220.83	0.12	441660	keystroke_a	a	n/a
221.49	0.12	442980	keystroke_g	g	n/a
221.61	0.12	443220	keystroke_i	i	n/a
221.715	0.12	443430	keystroke_n	n	n/a
221.865	0.09	443730	keystroke_g	g	n/a
221.94	0.105	443880	keystroke_Key.space	Key.space	n/a
222.3	0.075	444600	keystroke_h	h	n/a
222.465	0.045	444930	keystroke_u	u	n/a
222.66	0.09	445320	keystroke_m	m	n/a
223.08	0.09	446160	keystroke_a	a	n/a
223.455	0.12	446910	keystroke_s	s	n/a
224.055	0.06	448110	keystroke_Key.backspace	Key.backspace	n/a
224.325	0.06	448650	keystroke_n	n	n/a
224.445	0.105	448890	keystroke_s	s	n/a
224.565	0.09	449130	keystroke_Key.space	Key.space	n/a
225.285	0.1355	450570	keystroke_m	m	n/a
225.4355	0.1195	450871	keystroke_a	a	n/a
225.66	0.1655	451320	keystroke_c	c	n/a
225.9305	0.135	451861	keystroke_r	r	n/a
226.1555	0.075	452311	keystroke_o	o	n/a
227.9405	0.06	455881	keystroke_Key.backspace	Key.backspace	n/a
228.1055	0.06	456211	keystroke_Key.backspace	Key.backspace	n/a
228.2255	0.09	456451	keystroke_Key.backspace	Key.backspace	n/a
228.4355	0.105	456871	keystroke_r	r	n/a
229.065	0.165	458130	keystroke_c	c	n/a
229.335	0.09	458670	keystroke_o	o	n/a
229.47	0.1205	458940	keystroke_Key.space	Key.space	n/a
229.8755	0.105	459751	keystroke_w	w	n/a
233.3125	0.058	466625	keystroke_i	i	n/a
233.3855	0.135	466771	keystroke_d	d	n/a
233.6405	0.105	467281	keystroke_e	e	n/a
233.7605	0.105	467521	keystroke_l	l	n/a
234.0005	0.075	468001	keystroke_y	y	n/a
234.7955	0.09	469591	keystroke_Key.enter	Key.enter	n/a
234.893	7.974	469786	prompt	n/a	lounge national funds rendered\n
235.8305	0.09	471661	keystroke_l	l	n/a
236.0255	0.09	472051	keystroke_o	o	n/a
236.2355	0.06	472471	keystroke_u	u	n/a
236.6105	0.075	473221	keystroke_n	n	n/a
236.8655	0.105	473731	keystroke_g	g	n/a
237.0605	0.09	474121	keystroke_e	e	n/a
237.2105	0.12	474421	keystroke_Key.space	Key.space	n/a
237.4805	0.12	474961	keystroke_n	n	n/a
237.5705	0.105	475141	keystroke_a	a	n/a
237.7355	0.12	475471	keystroke_t	t	n/a
237.8255	0.21	475651	keystroke_i	i	n/a
237.9455	0.03	475891	keystroke_o	o	n/a
238.0205	0.18	476041	keystroke_n	n	n/a
238.6055	0.1205	477211	keystroke_a	a	n/a
238.755	0.09	477510	keystroke_l	l	n/a
238.905	0.12	477810	keystroke_Key.space	Key.space	n/a
239.49	0.135	478980	keystroke_f	f	n/a
239.641	0.074	479282	keystroke_u	u	n/a
239.85	0.075	479700	keystroke_n	n	n/a
240.045	0.105	480090	keystroke_d	d	n/a
240.48	0.09	480960	keystroke_s	s	n/a
240.841	0.164	481682	keystroke_Key.space	Key.space	n/a
241.185	0.12	482370	keystroke_r	r	n/a
241.275	0.105	482550	keystroke_e	e	n/a
241.425	0.1045	482850	keystroke_n	n	n/a
241.515	0.105	483030	keystroke_d	d	n/a
241.845	0.135	483690	keystroke_e	e	n/a
241.95	0.135	483900	keystroke_r	r	n/a
242.355	0.09	484710	keystroke_e	e	n/a
242.58	0.09	485160	keystroke_d	d	n/a
242.79	0.075	485580	keystroke_Key.enter	Key.enter	n/a
242.8735	17.1235	485747	prompt	n/a	programmes carlos marsh avoiding\n
243.7205	0.105	487441	keystroke_p	p	n/a
243.8855	0.12	487771	keystroke_r	r	n/a
243.9605	0.105	487921	keystroke_o	o	n/a
244.1105	0.135	488221	keystroke_g	g	n/a
244.3505	0.15	488701	keystroke_r	r	n/a
244.4705	0.135	488941	keystroke_a	a	n/a
244.6655	0.105	489331	keystroke_m	m	n/a
244.8605	0.105	489721	keystroke_m	m	n/a
245.2655	0.09	490531	keystroke_e	e	n/a
245.5355	0.1045	491071	keystroke_s	s	n/a
245.7	0.135	491400	keystroke_Key.space	Key.space	n/a
246.015	0.195	492030	keystroke_c	c	n/a
246.18	0.12	492360	keystroke_a	a	n/a
246.435	0.105	492870	keystroke_r	r	n/a
246.66	0.09	493320	keystroke_l	l	n/a
246.825	0.06	493650	keystroke_o	o	n/a
246.945	0.105	493890	keystroke_s	s	n/a
247.08	0.09	494160	keystroke_Key.space	Key.space	n/a
254.717	0.0885	509434	keystroke_m	m	n/a
254.745	0.151	509490	keystroke_a	a	n/a
254.9555	0.09	509911	keystroke_r	r	n/a
255.3605	0.105	510721	keystroke_s	s	n/a
255.511	0.105	511022	keystroke_h	h	n/a
255.661	0.12	511322	keystroke_Key.space	Key.space	n/a
256.021	0.105	512042	keystroke_a	a	n/a
256.216	0.149	512432	keystroke_v	v	n/a
257.251	0.119	514502	keystroke_i	i	n/a
257.385	0.1355	514770	keystroke_o	o	n/a
257.88	0.06	515760	keystroke_Key.backspace	Key.backspace	n/a
258.03	0.06	516060	keystroke_Key.backspace	Key.backspace	n/a
258.2855	0.15	516571	keystroke_o	o	n/a
258.4355	0.12	516871	keystroke_i	i	n/a
259.0955	0.15	518191	keystroke_d	d	n/a
259.2605	0.105	518521	keystroke_i	i	n/a
259.3505	0.105	518701	keystroke_n	n	n/a
259.4855	0.105	518971	keystroke_g	g	n/a
259.9205	0.075	519841	keystroke_Key.enter	Key.enter	n/a
260.001	12.9125	520002	prompt	n/a	advantage nobody routes objects\n
260.7605	0.105	521521	keystroke_a	a	n/a
260.9255	0.135	521851	keystroke_d	d	n/a
261.0905	0.18	522181	keystroke_v	v	n/a
261.2255	0.12	522451	keystroke_a	a	n/a
262.096	0.044	524192	keystroke_n	n	n/a
262.26	0.12	524520	keystroke_t	t	n/a
262.47	0.045	524940	keystroke_a	a	n/a
262.53	0.12	525060	keystroke_g	g	n/a
262.635	0.105	525270	keystroke_e	e	n/a
262.8	0.12	525600	keystroke_Key.space	Key.space	n/a
262.98	0.1955	525960	keystroke_n	n	n/a
263.1305	0.09	526261	keystroke_o	o	n/a
263.3105	0.12	526621	keystroke_t	t	n/a
264.0005	0.075	528001	keystroke_Key.backspace	Key.backspace	n/a
264.0905	0.105	528181	keystroke_d	d	n/a
264.3605	0.105	528721	keystroke_b	b	n/a
264.9455	0.06	529891	keystroke_Key.backspace	Key.backspace	n/a
265.0955	0.075	530191	keystroke_Key.backspace	Key.backspace	n/a
265.2755	0.12	530551	keystroke_b	b	n/a
265.4555	0.075	530911	keystroke_o	o	n/a
265.7255	0.12	531451	keystroke_d	d	n/a
266.0555	0.0605	532111	keystroke_y	y	n/a
266.325	0.135	532650	keystroke_Key.space	Key.space	n/a
267.211	0.059	534422	keystroke_r	r	n/a
267.226	0.105	534452	keystroke_o	o	n/a
267.361	0.105	534722	keystroke_u	u	n/a
267.631	0.15	535262	keystroke_t	t	n/a
267.766	0.165	535532	keystroke_e	e	n/a
268.14	0.076	536280	keystroke_s	s	n/a
268.755	0.09	537510	keystroke_Key.backspace	Key.backspace	n/a
268.95	0.09	537900	keystroke_Key.space	Key.space	n/a
269.805	0.075	539610	keystroke_Key.backspace	Key.backspace	n/a
269.985	0.09	539970	keystroke_s	s	n/a
270.18	0.075	540360	keystroke_Key.space	Key.space	n/a
271.14	0.105	542280	keystroke_o	o	n/a
271.275	0.12	542550	keystroke_b	b	n/a
271.455	0.09	542910	keystroke_j	j	n/a
271.575	0.12	543150	keystroke_e	e	n/a
272.175	0.15	544350	keystroke_c	c	n/a
272.415	0.135	544830	keystroke_t	t	n/a
272.67	0.105	545340	keystroke_s	s	n/a
272.835	0.075	545670	keystroke_Key.enter	Key.enter	n/a
272.9205	7.6265	545841	prompt	n/a	cute banana restrict harbor\n
273.7505	0.12	547501	keystroke_c	c	n/a
274.0355	0.09	548071	keystroke_u	u	n/a
274.1705	0.15	548341	keystroke_t	t	n/a
274.3055	0.09	548611	keystroke_e	e	n/a
274.4105	0.105	548821	keystroke_Key.space	Key.space	n/a
274.6805	0.135	549361	keystroke_b	b	n/a
274.7705	0.135	549541	keystroke_a	a	n/a
275.0555	0.075	550111	keystroke_n	n	n/a
275.535	0.1205	551070	keystroke_a	a	n/a
275.8505	0.105	551701	keystroke_n	n	n/a
276.0305	0.105	552061	keystroke_a	a	n/a
276.1955	0.135	552391	keystroke_Key.space	Key.space	n/a
276.6455	0.105	553291	keystroke_r	r	n/a
276.7205	0.12	553441	keystroke_e	e	n/a
276.9605	0.12	553921	keystroke_s	s	n/a
277.2305	0.09	554461	keystroke_t	t	n/a
277.4405	0.105	554881	keystroke_r	r	n/a
277.5605	0.075	555121	keystroke_i	i	n/a
277.9505	0.09	555901	keystroke_c	c	n/a
278.1905	0.1055	556381	keystroke_t	t	n/a
278.611	0.135	557222	keystroke_Key.space	Key.space	n/a
279.136	0.089	558272	keystroke_h	h	n/a
279.255	0.15	558510	keystroke_a	a	n/a
279.465	0.121	558930	keystroke_r	r	n/a
279.751	0.135	559502	keystroke_b	b	n/a
280.126	0.089	560252	keystroke_o	o	n/a
280.426	0.015	560852	keystroke_r	r	n/a
280.455	0.09	560910	keystroke_Key.enter	Key.enter	n/a
280.552	12.0555	561104	prompt	n/a	february reference wired disciplines\n
281.341	0.179	562682	keystroke_f	f	n/a
281.505	0.1055	563010	keystroke_e	e	n/a
281.7305	0.105	563461	keystroke_b	b	n/a
282.241	0.12	564482	keystroke_r	r	n/a
282.3455	0.165	564691	keystroke_a	a	n/a
283.185	0.045	566370	keystroke_Key.backspace	Key.backspace	n/a
283.336	0.06	566672	keystroke_u	u	n/a
283.4255	0.1355	566851	keystroke_a	a	n/a
283.591	0.135	567182	keystroke_r	r	n/a
283.9355	0.09	567871	keystroke_y	y	n/a
284.1455	0.09	568291	keystroke_Key.space	Key.space	n/a
285.1505	0.12	570301	keystroke_r	r	n/a
285.2555	0.12	570511	keystroke_e	e	n/a
285.3905	0.135	570781	keystroke_f	f	n/a
285.5105	0.1495	571021	keystroke_e	e	n/a
285.645	0.105	571290	keystroke_r	r	n/a
286.5755	0.135	573151	keystroke_e	e	n/a
286.7405	0.09	573481	keystroke_n	n	n/a
286.8605	0.12	573721	keystroke_c	c	n/a
287.0705	0.06	574141	keystroke_e	e	n/a
287.2205	0.075	574441	keystroke_Key.space	Key.space	n/a
288.4055	0.09	576811	keystroke_w	w	n/a
288.5705	0.09	577141	keystroke_i	i	n/a
288.7055	0.12	577411	keystroke_r	r	n/a
288.8105	0.12	577621	keystroke_e	e	n/a
289.0505	0.105	578101	keystroke_d	d	n/a
289.1855	0.135	578371	keystroke_Key.space	Key.space	n/a
289.4855	0.12	578971	keystroke_d	d	n/a
289.6505	0.06	579301	keystroke_i	i	n/a
289.8305	0.105	579661	keystroke_s	s	n/a
290.0855	0.1205	580171	keystroke_c	c	n/a
290.7455	0.135	581491	keystroke_i	i	n/a
290.971	0.105	581942	keystroke_p	p	n/a
291.211	0.06	582422	keystroke_l	l	n/a
291.586	0.1045	583172	keystroke_i	i	n/a
291.7505	0.12	583501	keystroke_n	n	n/a
292.0505	0.12	584101	keystroke_e	e	n/a
292.3055	0.105	584611	keystroke_s	s	n/a
292.5155	0.09	585031	keystroke_Key.enter	Key.enter	n/a
292.613	9.474	585226	prompt	n/a	citations cover relief residential\n
293.4	0.15	586800	keystroke_c	c	n/a
293.551	0.074	587102	keystroke_i	i	n/a
293.775	0.12	587550	keystroke_t	t	n/a
293.925	0.15	587850	keystroke_a	a	n/a
294.045	0.12	588090	keystroke_t	t	n/a
294.18	0.1505	588360	keystroke_i	i	n/a
294.345	0.165	588690	keystroke_o	o	n/a
294.555	0.09	589110	keystroke_i	i	n/a
295.155	0.075	590310	keystroke_Key.backspace	Key.backspace	n/a
295.41	0.075	590820	keystroke_n	n	n/a
295.53	0.09	591060	keystroke_s	s	n/a
296.1755	0.12	592351	keystroke_Key.space	Key.space	n/a
296.5505	0.1795	593101	keystroke_c	c	n/a
296.7	0.0905	593400	keystroke_o	o	n/a
296.8055	0.15	593611	keystroke_v	v	n/a
296.9555	0.12	593911	keystroke_e	e	n/a
297.0605	0.09	594121	keystroke_r	r	n/a
297.1655	0.105	594331	keystroke_Key.space	Key.space	n/a
297.6005	0.12	595201	keystroke_r	r	n/a
297.7055	0.105	595411	keystroke_e	e	n/a
297.8705	0.105	595741	keystroke_l	l	n/a
298.2005	0.075	596401	keystroke_i	i	n/a
298.5455	0.135	597091	keystroke_e	e	n/a
298.8155	0.135	597631	keystroke_f	f	n/a
299.7755	0.149	599551	keystroke_Key.space	Key.space	n/a
300.0755	0.15	600151	keystroke_r	r	n/a
300.1945	0.105	600389	keystroke_e	e	n/a
300.4805	0.105	600961	keystroke_s	s	n/a
300.6755	0.09	601351	keystroke_i	i	n/a
300.7805	0.12	601561	keystroke_d	d	n/a
300.9905	0.12	601981	keystroke_e	e	n/a
301.125	0.09	602250	keystroke_n	n	n/a
301.26	0.09	602520	keystroke_t	t	n/a
301.455	0.09	602910	keystroke_i	i	n/a
301.605	0.12	603210	keystroke_a	a	n/a
301.74	0.105	603480	keystroke_l	l	n/a
302.01	0.075	604020	keystroke_Key.enter	Key.enter	n/a
302.0925	7.1645	604185	prompt	n/a	top opera ready framework\n
302.97	0.135	605940	keystroke_t	t	n/a
303.12	0.09	606240	keystroke_o	o	n/a
303.195	0.075	606390	keystroke_p	p	n/a
303.3445	0.165	606689	keystroke_Key.space	Key.space	n/a
304.1695	0.12	608339	keystroke_o	o	n/a
304.2745	0.121	608549	keystroke_p	p	n/a
304.4695	0.15	608939	keystroke_e	e	n/a
304.5895	0.15	609179	keystroke_r	r	n/a
304.7545	0.136	609509	keystroke_a	a	n/a
304.9645	0.12	609929	keystroke_Key.space	Key.space	n/a
305.4905	0.1345	610981	keystroke_r	r	n/a
305.58	0.12	611160	keystroke_e	e	n/a
305.685	0.15	611370	keystroke_a	a	n/a
305.82	0.105	611640	keystroke_d	d	n/a
306	0.09	612000	keystroke_y	y	n/a
306.135	0.135	612270	keystroke_Key.space	Key.space	n/a
306.541	0.209	613082	keystroke_f	f	n/a
306.645	0.12	613290	keystroke_a	a	n/a
307.245	0.06	614490	keystroke_Key.backspace	Key.backspace	n/a
307.41	0.195	614820	keystroke_r	r	n/a
307.575	0.15	615150	keystroke_a	a	n/a
307.98	0.15	615960	keystroke_m	m	n/a
308.205	0.105	616410	keystroke_e	e	n/a
308.535	0.12	617070	keystroke_w	w	n/a
308.7	0.075	617400	keystroke_o	o	n/a
308.835	0.12	617670	keystroke_r	r	n/a
308.97	0.09	617940	keystroke_k	k	n/a
309.18	0.075	618360	keystroke_Key.enter	Key.enter	n/a
309.264	10.553	618528	prompt	n/a	manhattan animation damages cabin\n
310.396	0.134	620792	keystroke_m	m	n/a
310.62	0.12	621240	keystroke_a	a	n/a
310.755	0.105	621510	keystroke_n	n	n/a
311.01	0.09	622020	keystroke_h	h	n/a
311.145	0.1355	622290	keystroke_a	a	n/a
311.716	0.074	623432	keystroke_t	t	n/a
311.88	0.105	623760	keystroke_t	t	n/a
312.1055	0.105	624211	keystroke_a	a	n/a
312.2405	0.135	624481	keystroke_n	n	n/a
312.3905	0.105	624781	keystroke_Key.space	Key.space	n/a
313.6505	0.135	627301	keystroke_n	n	n/a
313.8455	0.135	627691	keystroke_a	a	n/a
314.3855	0.06	628771	keystroke_Key.backspace	Key.backspace	n/a
314.5195	0.075	629039	keystroke_Key.backspace	Key.backspace	n/a
314.6405	0.134	629281	keystroke_a	a	n/a
314.8645	0.136	629729	keystroke_n	n	n/a
315.0605	0.1195	630121	keystroke_i	i	n/a
315.225	0.165	630450	keystroke_m	m	n/a
315.405	0.12	630810	keystroke_a	a	n/a
315.585	0.135	631170	keystroke_t	t	n/a
315.676	0.224	631352	keystroke_i	i	n/a
315.765	0.12	631530	keystroke_o	o	n/a
315.855	0.12	631710	keystroke_n	n	n/a
316.605	0.12	633210	keystroke_Key.space	Key.space	n/a
316.875	0.21	633750	keystroke_d	d	n/a
317.01	0.135	634020	keystroke_a	a	n/a
317.205	0.135	634410	keystroke_m	m	n/a
317.37	0.15	634740	keystroke_a	a	n/a
317.7	0.105	635400	keystroke_g	g	n/a
317.79	0.105	635580	keystroke_e	e	n/a
318.03	0.09	636060	keystroke_s	s	n/a
318.225	0.135	636450	keystroke_Key.space	Key.space	n/a
318.495	0.12	636990	keystroke_c	c	n/a
318.6755	0.119	637351	keystroke_a	a	n/a
318.9895	0.091	637979	keystroke_b	b	n/a
319.3345	0.15	638669	keystroke_i	i	n/a
319.4695	0.1505	638939	keystroke_n	n	n/a
319.74	0.075	639480	keystroke_Key.enter	Key.enter	n/a
319.825	14.392	639650	prompt	n/a	penetration powered jack security\n
320.8655	0.105	641731	keystroke_e	e	n/a
320.9855	0.06	641971	keystroke_n	n	n/a
321.4205	0.045	642841	keystroke_Key.backspace	Key.backspace	n/a
321.5705	0.06	643141	keystroke_Key.backspace	Key.backspace	n/a
322.3055	0.195	644611	keystroke_p	p	n/a
322.9355	0.089	645871	keystroke_e	e	n/a
323.0845	0.106	646169	keystroke_n	n	n/a
323.3995	0.09	646799	keystroke_t	t	n/a
324.1055	0.074	648211	keystroke_Key.backspace	Key.backspace	n/a
324.2105	0.09	648421	keystroke_e	e	n/a
324.7355	0.119	649471	keystroke_t	t	n/a
324.9895	0.135	649979	keystroke_r	r	n/a
325.1095	0.136	650219	keystroke_a	a	n/a
325.2905	0.119	650581	keystroke_t	t	n/a
325.3945	0.151	650789	keystroke_i	i	n/a
325.4845	0.151	650969	keystroke_o	o	n/a
325.5905	0.03	651181	keystroke_i	i	n/a
325.6055	0.15	651211	keystroke_n	n	n/a
326.355	0.12	652710	keystroke_Key.space	Key.space	n/a
327.84	0.09	655680	keystroke_Key.backspace	Key.backspace	n/a
328.035	0.09	656070	keystroke_Key.backspace	Key.backspace	n/a
328.53	0.075	657060	keystroke_Key.backspace	Key.backspace	n/a
328.86	0.0755	657720	keystroke_n	n	n/a
329.0255	0.105	658051	keystroke_Key.space	Key.space	n/a
329.5655	0.075	659131	keystroke_p	p	n/a
329.7005	0.1045	659401	keystroke_o	o	n/a
329.85	0.075	659700	keystroke_w	w	n/a
329.926	0.194	659852	keystroke_e	e	n/a
330.075	0.165	660150	keystroke_r	r	n/a
330.255	0.15	660510	keystroke_e	e	n/a
330.735	0.105	661470	keystroke_d	d	n/a
330.93	0.165	661860	keystroke_Key.space	Key.space	n/a
331.1555	0.135	662311	keystroke_j	j	n/a
331.2605	0.135	662521	keystroke_a	a	n/a
331.4705	0.135	662941	keystroke_c	c	n/a
331.5905	0.135	663181	keystroke_k	k	n/a
331.6955	0.135	663391	keystroke_Key.space	Key.space	n/a
331.9505	0.09	663901	keystroke_s	s	n/a
332.2655	0.1045	664531	keystroke_e	e	n/a
332.5205	0.12	665041	keystroke_c	c	n/a
333.2855	0.105	666571	keystroke_u	u	n/a
333.4945	0.121	666989	keystroke_r	r	n/a
333.5695	0.106	667139	keystroke_i	i	n/a
333.7205	0.12	667441	keystroke_t	t	n/a
333.8555	0.089	667711	keystroke_y	y	n/a
334.1095	0.105	668219	keystroke_Key.enter	Key.enter	n/a
334.2215	9.01	668443	prompt	n/a	minus wicked vertical photoshop\n
335.0255	0.149	670051	keystroke_m	m	n/a
335.3245	0.106	670649	keystroke_i	i	n/a
335.5645	0.135	671129	keystroke_n	n	n/a
335.9245	0.075	671849	keystroke_u	u	n/a
336.1645	0.105	672329	keystroke_s	s	n/a
336.2995	0.15	672599	keystroke_Key.space	Key.space	n/a
336.4805	0.135	672961	keystroke_w	w	n/a
336.5695	0.106	673139	keystroke_i	i	n/a
336.8255	0.12	673651	keystroke_c	c	n/a
336.9155	0.105	673831	keystroke_k	k	n/a
337.1255	0.09	674251	keystroke_e	e	n/a
337.3355	0.09	674671	keystroke_d	d	n/a
337.4845	0.105	674969	keystroke_Key.space	Key.space	n/a
337.8895	0.151	675779	keystroke_v	v	n/a
338.0545	0.15	676109	keystroke_e	e	n/a
338.1745	0.105	676349	keystroke_r	r	n/a
338.4445	0.09	676889	keystroke_t	t	n/a
338.6545	0.075	677309	keystroke_i	i	n/a
338.985	0.165	677970	keystroke_c	c	n/a
339.12	0.1345	678240	keystroke_a	a	n/a
339.33	0.12	678660	keystroke_l	l	n/a
339.48	0.12	678960	keystroke_Key.space	Key.space	n/a
339.9	0.135	679800	keystroke_p	p	n/a
340.095	0.165	680190	keystroke_h	h	n/a
340.245	0.09	680490	keystroke_o	o	n/a
340.485	0.12	680970	keystroke_t	t	n/a
340.62	0.075	681240	keystroke_o	o	n/a
340.92	0.12	681840	keystroke_s	s	n/a
341.145	0.15	682290	keystroke_h	h	n/a
341.22	0.195	682440	keystroke_i	i	n/a
341.416	0.1345	682832	keystroke_p	p	n/a
342.0605	0.044	684121	keystroke_Key.backspace	Key.backspace	n/a
342.1945	0.06	684389	keystroke_Key.backspace	Key.backspace	n/a
342.4805	0.12	684961	keystroke_o	o	n/a
342.6595	0.121	685319	keystroke_p	p	n/a
343.1555	0.074	686311	keystroke_Key.enter	Key.enter	n/a
343.2375	10.1345	686475	prompt	n/a	attendance yearly partially sake\n
344.1605	0.059	688321	keystroke_s	s	n/a
344.1905	0.135	688381	keystroke_a	a	n/a
344.8645	0.06	689729	keystroke_Key.backspace	Key.backspace	n/a
345.0005	0.074	690001	keystroke_Key.backspace	Key.backspace	n/a
345.1355	0.135	690271	keystroke_a	a	n/a
345.2855	0.119	690571	keystroke_t	t	n/a
345.8555	0.104	691711	keystroke_t	t	n/a
346.0655	0.134	692131	keystroke_e	e	n/a
346.3805	0.014	692761	keystroke_n	n	n/a
346.4105	0.12	692821	keystroke_d	d	n/a
347.6995	0.135	695399	keystroke_a	a	n/a
347.8195	0.09	695639	keystroke_n	n	n/a
347.9395	0.12	695879	keystroke_c	c	n/a
348.1205	0.104	696241	keystroke_e	e	n/a
348.2395	0.165	696479	keystroke_Key.space	Key.space	n/a
348.9745	0.09	697949	keystroke_y	y	n/a
349.0495	0.151	698099	keystroke_e	e	n/a
349.1695	0.075	698339	keystroke_a	a	n/a
349.3655	0.104	698731	keystroke_r	r	n/a
349.6795	0.12	699359	keystroke_l	l	n/a
349.92	0.12	699840	keystroke_y	y	n/a
350.055	0.1505	700110	keystroke_Key.space	Key.space	n/a
350.4005	0.075	700801	keystroke_p	p	n/a
350.5055	0.135	701011	keystroke_a	a	n/a
350.6555	0.105	701311	keystroke_r	r	n/a
350.8355	0.105	701671	keystroke_t	t	n/a
350.9705	0.075	701941	keystroke_i	i	n/a
351.2255	0.105	702451	keystroke_a	a	n/a
351.3905	0.075	702781	keystroke_l	l	n/a
351.555	0.09	703110	keystroke_l	l	n/a
351.795	0.09	703590	keystroke_y	y	n/a
351.945	0.135	703890	keystroke_Key.space	Key.space	n/a
352.41	0.165	704820	keystroke_s	s	n/a
352.53	0.165	705060	keystroke_a	a	n/a
352.74	0.105	705480	keystroke_k	k	n/a
352.89	0.09	705780	keystroke_e	e	n/a
353.295	0.075	706590	keystroke_Key.enter	Key.enter	n/a
353.3775	7.374	706755	prompt	n/a	black hilton creative updates\n
354.36	0.135	708720	keystroke_b	b	n/a
354.525	0.09	709050	keystroke_l	l	n/a
354.585	0.135	709170	keystroke_a	a	n/a
355.14	0.1345	710280	keystroke_c	c	n/a
355.2595	0.135	710519	keystroke_k	k	n/a
355.3795	0.165	710759	keystroke_Key.space	Key.space	n/a
355.7395	0.105	711479	keystroke_h	h	n/a
355.7995	0.21	711599	keystroke_i	i	n/a
355.9645	0.135	711929	keystroke_l	l	n/a
356.2645	0.12	712529	keystroke_t	t	n/a
356.3995	0.12	712799	keystroke_o	o	n/a
356.5045	0.15	713009	keystroke_n	n	n/a
356.6395	0.12	713279	keystroke_Key.space	Key.space	n/a
357.12	0.15	714240	keystroke_c	c	n/a
357.375	0.12	714750	keystroke_r	r	n/a
357.45	0.1345	714900	keystroke_e	e	n/a
357.5395	0.12	715079	keystroke_a	a	n/a
357.7045	0.03	715409	keystroke_t	t	n/a
358.7855	0.089	717571	keystroke_i	i	n/a
358.8895	0.12	717779	keystroke_v	v	n/a
358.9795	0.105	717959	keystroke_e	e	n/a
359.0995	0.12	718199	keystroke_Key.space	Key.space	n/a
359.5045	0.1505	719009	keystroke_u	u	n/a
359.61	0.12	719220	keystroke_p	p	n/a
359.775	0.195	719550	keystroke_d	d	n/a
359.94	0.09	719880	keystroke_a	a	n/a
360.195	0.105	720390	keystroke_t	t	n/a
360.255	0.12	720510	keystroke_e	e	n/a
360.495	0.12	720990	keystroke_s	s	n/a
360.66	0.09	721320	keystroke_Key.enter	Key.enter	n/a
360.757	7.0755	721514	prompt	n/a	ping cleaning builders teaching\n
361.65	0.105	723300	keystroke_p	p	n/a
361.785	0.15	723570	keystroke_i	i	n/a
361.92	0.12	723840	keystroke_n	n	n/a
362.055	0.075	724110	keystroke_g	g	n/a
362.16	0.045	724320	keystroke_Key.space	Key.space	n/a
362.325	0.135	724650	keystroke_c	c	n/a
362.445	0.09	724890	keystroke_l	l	n/a
362.565	0.135	725130	keystroke_e	e	n/a
362.685	0.09	725370	keystroke_a	a	n/a
363.27	0.105	726540	keystroke_n	n	n/a
363.39	0.135	726780	keystroke_i	i	n/a
363.495	0.1355	726990	keystroke_n	n	n/a
363.6155	0.12	727231	keystroke_g	g	n/a
363.7205	0.09	727441	keystroke_Key.space	Key.space	n/a
364.1105	0.12	728221	keystroke_b	b	n/a
364.6945	0.12	729389	keystroke_u	u	n/a
364.7845	0.21	729569	keystroke_i	i	n/a
364.9505	0.149	729901	keystroke_l	l	n/a
365.1305	0.104	730261	keystroke_d	d	n/a
365.4595	0.1505	730919	keystroke_e	e	n/a
365.58	0.105	731160	keystroke_r	r	n/a
365.79	0.09	731580	keystroke_s	s	n/a
365.94	0.135	731880	keystroke_Key.space	Key.space	n/a
366.225	0.135	732450	keystroke_t	t	n/a
366.75	0.135	733500	keystroke_e	e	n/a
366.87	0.135	733740	keystroke_a	a	n/a
367.065	0.1355	734130	keystroke_c	c	n/a
367.2305	0.135	734461	keystroke_h	h	n/a
367.3355	0.165	734671	keystroke_i	i	n/a
367.4855	0.12	734971	keystroke_n	n	n/a
367.5905	0.09	735181	keystroke_g	g	n/a
367.7705	0.06	735541	keystroke_Key.enter	Key.enter	n/a
367.8395	8.7225	735679	prompt	n/a	bytes usual operates specification\n
368.6255	0.119	737251	keystroke_b	b	n/a
368.8205	0.089	737641	keystroke_y	y	n/a
369.0305	0.15	738061	keystroke_t	t	n/a
369.1505	0.12	738301	keystroke_e	e	n/a
369.405	0.075	738810	keystroke_s	s	n/a
369.495	0.15	738990	keystroke_Key.space	Key.space	n/a
369.78	0.09	739560	keystroke_u	u	n/a
370.005	0.135	740010	keystroke_s	s	n/a
370.17	0.0905	740340	keystroke_u	u	n/a
370.3355	0.135	740671	keystroke_a	a	n/a
370.5305	0.105	741061	keystroke_l	l	n/a
370.7545	0.105	741509	keystroke_Key.space	Key.space	n/a
371.1895	0.15	742379	keystroke_o	o	n/a
371.3245	0.12	742649	keystroke_p	p	n/a
371.4595	0.15	742919	keystroke_e	e	n/a
371.5795	0.165	743159	keystroke_r	r	n/a
371.7295	0.15	743459	keystroke_a	a	n/a
371.8795	0.09	743759	keystroke_t	t	n/a
372.4205	0.09	744841	keystroke_e	e	n/a
372.6455	0.09	745291	keystroke_s	s	n/a
372.7945	0.121	745589	keystroke_Key.space	Key.space	n/a
373.0955	0.12	746191	keystroke_s	s	n/a
373.3055	0.075	746611	keystroke_p	p	n/a
373.5295	0.105	747059	keystroke_e	e	n/a
373.8445	0.12	747689	keystroke_c	c	n/a
374.76	0.09	749520	keystroke_i	i	n/a
374.88	0.135	749760	keystroke_f	f	n/a
375.045	0.075	750090	keystroke_i	i	n/a
375.255	0.165	750510	keystroke_c	c	n/a
375.45	0.105	750900	keystroke_a	a	n/a
375.66	0.105	751320	keystroke_t	t	n/a
375.81	0.255	751620	keystroke_i	i	n/a
375.945	0.135	751890	keystroke_o	o	n/a
376.035	0.135	752070	keystroke_n	n	n/a
376.485	0.075	752970	keystroke_Key.enter	Key.enter	n/a
376.5705	11.1665	753141	prompt	n/a	vinyl learn geek raising\n
377.5645	0.136	755129	keystroke_v	v	n/a
377.9095	0.09	755819	keystroke_i	i	n/a
378.0745	0.12	756149	keystroke_n	n	n/a
378.465	0.12	756930	keystroke_l	l	n/a
378.735	0.06	757470	keystroke_y	y	n/a
379.9505	0.06	759901	keystroke_Key.backspace	Key.backspace	n/a
380.0705	0.09	760141	keystroke_Key.backspace	Key.backspace	n/a
380.3855	0.075	760771	keystroke_u	u	n/a
380.6255	0.075	761251	keystroke_l	l	n/a
380.8205	0.074	761641	keystroke_Key.space	Key.space	n/a
381.2255	0.06	762451	keystroke_Key.backspace	Key.backspace	n/a
381.3595	0.091	762719	keystroke_Key.backspace	Key.backspace	n/a
381.5255	0.075	763051	keystroke_Key.backspace	Key.backspace	n/a
382.2305	0.105	764461	keystroke_y	y	n/a
382.4705	0.075	764941	keystroke_l	l	n/a
383.2505	0.105	766501	keystroke_Key.space	Key.space	n/a
383.4905	0.1045	766981	keystroke_l	l	n/a
383.595	0.15	767190	keystroke_e	e	n/a
383.685	0.135	767370	keystroke_a	a	n/a
383.85	0.135	767700	keystroke_r	r	n/a
384.03	0.12	768060	keystroke_n	n	n/a
384.255	0.09	768510	keystroke_Key.space	Key.space	n/a
384.66	0.105	769320	keystroke_g	g	n/a
384.96	0.09	769920	keystroke_e	e	n/a
385.125	0.12	770250	keystroke_e	e	n/a
385.26	0.105	770520	keystroke_k	k	n/a
385.38	0.12	770760	keystroke_Key.space	Key.space	n/a
385.7405	0.1345	771481	keystroke_r	r	n/a
386.1305	0.12	772261	keystroke_a	a	n/a
386.79	0.0905	773580	keystroke_i	i	n/a
386.9255	0.12	773851	keystroke_s	s	n/a
387.0605	0.15	774121	keystroke_i	i	n/a
387.2255	0.119	774451	keystroke_n	n	n/a
387.3905	0.09	774781	keystroke_g	g	n/a
387.6605	0.074	775321	keystroke_Key.enter	Key.enter	n/a
387.742	12.6995	775484	prompt	n/a	consist ringtone kirk experiences\n
388.6805	0.164	777361	keystroke_c	c	n/a
388.8005	0.09	777601	keystroke_o	o	n/a
388.9055	0.105	777811	keystroke_n	n	n/a
389.0695	0.105	778139	keystroke_s	s	n/a
389.3995	0.061	778799	keystroke_i	i	n/a
389.5045	0.106	779009	keystroke_s	s	n/a
389.9245	0.106	779849	keystroke_t	t	n/a
390.0445	0.135	780089	keystroke_Key.space	Key.space	n/a
390.5555	0.135	781111	keystroke_r	r	n/a
390.6445	0.105	781289	keystroke_i	i	n/a
390.7655	0.12	781531	keystroke_n	n	n/a
390.8705	0.09	781741	keystroke_g	g	n/a
391.0795	0.106	782159	keystroke_t	t	n/a
391.1995	0.106	782399	keystroke_o	o	n/a
391.2895	0.106	782579	keystroke_n	n	n/a
391.3795	0.091	782759	keystroke_e	e	n/a
391.4705	0.089	782941	keystroke_Key.space	Key.space	n/a
391.7405	0.089	783481	keystroke_k	k	n/a
391.9355	0.06	783871	keystroke_i	i	n/a
392.0705	0.12	784141	keystroke_r	r	n/a
392.2195	0.076	784439	keystroke_k	k	n/a
392.9095	0.09	785819	keystroke_Key.space	Key.space	n/a
393.1795	0.105	786359	keystroke_e	e	n/a
393.435	0.1495	786870	keystroke_x	x	n/a
394.0045	0.09	788009	keystroke_p	p	n/a
394.3045	0.135	788609	keystroke_r	r	n/a
394.9045	0.06	789809	keystroke_Key.backspace	Key.backspace	n/a
395.0395	0.165	790079	keystroke_e	e	n/a
395.1595	0.12	790319	keystroke_r	r	n/a
395.64	0.075	791280	keystroke_i	i	n/a
395.79	0.09	791580	keystroke_n	n	n/a
395.925	0.105	791850	keystroke_c	c	n/a
396.135	0.09	792270	keystroke_e	e	n/a
397.065	0.03	794130	keystroke_Key.backspace	Key.backspace	n/a
397.185	0.06	794370	keystroke_Key.backspace	Key.backspace	n/a
397.32	0.09	794640	keystroke_Key.backspace	Key.backspace	n/a
397.515	0.0595	795030	keystroke_Key.backspace	Key.backspace	n/a
398.8195	0.09	797639	keystroke_i	i	n/a
398.9695	0.12	797939	keystroke_e	e	n/a
399.1045	0.06	798209	keystroke_n	n	n/a
399.54	0.135	799080	keystroke_c	c	n/a
399.7795	0.105	799559	keystroke_e	e	n/a
400.0495	0.0905	800099	keystroke_s	s	n/a
400.3495	0.0905	800699	keystroke_Key.enter	Key.enter	n/a
400.447	10.0295	800894	prompt	n/a	compute simplified understand showtimes\n
401.4	0.18	802800	keystroke_c	c	n/a
401.52	0.18	803040	keystroke_o	o	n/a
401.61	0.195	803220	keystroke_m	m	n/a
401.79	0.135	803580	keystroke_p	p	n/a
401.955	0.09	803910	keystroke_u	u	n/a
402.09	0.135	804180	keystroke_t	t	n/a
402.21	0.105	804420	keystroke_e	e	n/a
402.45	0.105	804900	keystroke_Key.space	Key.space	n/a
403.23	0.15	806460	keystroke_s	s	n/a
403.3945	0.166	806789	keystroke_i	i	n/a
403.6945	0.165	807389	keystroke_m	m	n/a
404.1895	0.151	808379	keystroke_p	p	n/a
404.5045	0.121	809009	keystroke_l	l	n/a
405.66	0.09	811320	keystroke_i	i	n/a
405.81	0.135	811620	keystroke_f	f	n/a
405.93	0.075	811860	keystroke_i	i	n/a
406.11	0.105	812220	keystroke_e	e	n/a
406.35	0.09	812700	keystroke_d	d	n/a
406.455	0.18	812910	keystroke_Key.space	Key.space	n/a
406.74	0.09	813480	keystroke_u	u	n/a
406.95	0.09	813900	keystroke_n	n	n/a
407.01	0.105	814020	keystroke_d	d	n/a
407.31	0.03	814620	keystroke_e	e	n/a
407.325	0.09	814650	keystroke_r	r	n/a
407.6105	0.165	815221	keystroke_s	s	n/a
407.8355	0.12	815671	keystroke_t	t	n/a
407.9705	0.15	815941	keystroke_a	a	n/a
408.1355	0.075	816271	keystroke_n	n	n/a
408.2405	0.09	816481	keystroke_d	d	n/a
408.3455	0.104	816691	keystroke_Key.space	Key.space	n/a
408.8105	0.12	817621	keystroke_s	s	n/a
409.0505	0.18	818101	keystroke_h	h	n/a
409.2005	0.09	818401	keystroke_o	o	n/a
409.3505	0.12	818701	keystroke_w	w	n/a
409.7845	0.106	819569	keystroke_t	t	n/a
409.8455	0.15	819691	keystroke_i	i	n/a
409.9805	0.12	819961	keystroke_m	m	n/a
410.0555	0.105	820111	keystroke_e	e	n/a
410.2795	0.106	820559	keystroke_s	s	n/a
410.3995	0.075	820799	keystroke_Key.enter	Key.enter	n/a
410.484	21.968	820968	prompt	n/a	eugene uncertainty dies medieval\n
411.4795	0.105	822959	keystroke_e	e	n/a
411.7495	0.09	823499	keystroke_u	u	n/a
411.8695	0.105	823739	keystroke_g	g	n/a
412.1545	0.12	824309	keystroke_e	e	n/a
412.3195	0.09	824639	keystroke_n	n	n/a
412.65	0.09	825300	keystroke_e	e	n/a
412.92	0.105	825840	keystroke_Key.space	Key.space	n/a
413.25	0.075	826500	keystroke_u	u	n/a
413.475	0.075	826950	keystroke_n	n	n/a
414.075	0.12	828150	keystroke_c	c	n/a
414.3	0.165	828600	keystroke_e	e	n/a
414.42	0.12	828840	keystroke_r	r	n/a
414.69	0.09	829380	keystroke_t	t	n/a
414.84	0.075	829680	keystroke_i	i	n/a
415.065	0.12	830130	keystroke_a	a	n/a
415.56	0.075	831120	keystroke_n	n	n/a
416.88	0.105	833760	keystroke_t	t	n/a
417.1505	0.075	834301	keystroke_y	y	n/a
417.3455	0.09	834691	keystroke_Key.space	Key.space	n/a
423.107	0.013	846214	keystroke_Key.backspace	Key.backspace	n/a
423.21	0.06	846420	keystroke_Key.backspace	Key.backspace	n/a
423.36	0.06	846720	keystroke_Key.backspace	Key.backspace	n/a
423.57	0.015	847140	keystroke_Key.backspace	Key.backspace	n/a
423.66	0.06	847320	keystroke_Key.backspace	Key.backspace	n/a
423.81	0.0595	847620	keystroke_Key.backspace	Key.backspace	n/a
423.9595	0.045	847919	keystroke_Key.backspace	Key.backspace	n/a
424.6955	0.089	849391	keystroke_t	t	n/a
424.9055	0.119	849811	keystroke_a	a	n/a
425.0395	0.075	850079	keystroke_u	u	n/a
425.2045	0.09	850409	keystroke_b	b	n/a
425.535	0.1195	851070	keystroke_t	t	n/a
425.9995	0.06	851999	keystroke_Key.backspace	Key.backspace	n/a
426.1495	0.0455	852299	keystroke_Key.backspace	Key.backspace	n/a
426.285	0.06	852570	keystroke_Key.backspace	Key.backspace	n/a
426.69	0.09	853380	keystroke_i	i	n/a
426.915	0.075	853830	keystroke_n	n	n/a
427.665	0.135	855330	keystroke_t	t	n/a
427.875	0.09	855750	keystroke_y	y	n/a
428.04	0.105	856080	keystroke_Key.space	Key.space	n/a
428.535	0.12	857070	keystroke_d	d	n/a
428.67	0.06	857340	keystroke_i	i	n/a
428.79	0.09	857580	keystroke_e	e	n/a
429	0.09	858000	keystroke_s	s	n/a
429.105	0.12	858210	keystroke_Key.space	Key.space	n/a
429.375	0.12	858750	keystroke_m	m	n/a
429.48	0.0605	858960	keystroke_a	a	n/a
430.1695	0.061	860339	keystroke_Key.backspace	Key.backspace	n/a
430.3055	0.104	860611	keystroke_e	e	n/a
430.5295	0.1055	861059	keystroke_d	d	n/a
430.7995	0.09	861599	keystroke_i	i	n/a
431.04	0.12	862080	keystroke_e	e	n/a
431.25	0.135	862500	keystroke_v	v	n/a
431.37	0.105	862740	keystroke_e	e	n/a
431.8495	0.075	863699	keystroke_Key.backspace	Key.backspace	n/a
431.9545	0.105	863909	keystroke_a	a	n/a
432.1045	0.105	864209	keystroke_l	l	n/a
432.3745	0.075	864749	keystroke_Key.enter	Key.enter	n/a
432.4615	5.51	864923	prompt	n/a	break ottawa make shirt\n
433.485	0.105	866970	keystroke_b	b	n/a
433.7845	0.106	867569	keystroke_r	r	n/a
433.8445	0.165	867689	keystroke_e	e	n/a
433.9495	0.1205	867899	keystroke_a	a	n/a
434.1	0.12	868200	keystroke_k	k	n/a
434.205	0.1495	868410	keystroke_Key.space	Key.space	n/a
434.4745	0.075	868949	keystroke_o	o	n/a
434.5945	0.105	869189	keystroke_t	t	n/a
434.8345	0.09	869669	keystroke_t	t	n/a
435.4495	0.1805	870899	keystroke_a	a	n/a
435.855	0.15	871710	keystroke_w	w	n/a
436.035	0.135	872070	keystroke_a	a	n/a
436.44	0.135	872880	keystroke_Key.space	Key.space	n/a
436.71	0.135	873420	keystroke_m	m	n/a
436.815	0.135	873630	keystroke_a	a	n/a
436.95	0.075	873900	keystroke_k	k	n/a
437.04	0.075	874080	keystroke_e	e	n/a
437.13	0.12	874260	keystroke_Key.space	Key.space	n/a
437.25	0.135	874500	keystroke_s	s	n/a
437.4	0.135	874800	keystroke_h	h	n/a
437.505	0.12	875010	keystroke_i	i	n/a
437.61	0.105	875220	keystroke_r	r	n/a
437.79	0.09	875580	keystroke_t	t	n/a
437.895	0.075	875790	keystroke_Key.enter	Key.enter	n/a
437.978	9.8185	875956	prompt	n/a	concert adventure expenses following\n
438.795	0.1505	877590	keystroke_c	c	n/a
438.9155	0.075	877831	keystroke_o	o	n/a
438.9755	0.104	877951	keystroke_n	n	n/a
439.1255	0.135	878251	keystroke_v	v	n/a
439.6345	0.075	879269	keystroke_Key.backspace	Key.backspace	n/a
439.7105	0.104	879421	keystroke_c	c	n/a
439.9205	0.119	879841	keystroke_e	e	n/a
440.0095	0.106	880019	keystroke_r	r	n/a
440.2045	0.075	880409	keystroke_t	t	n/a
440.3545	0.12	880709	keystroke_Key.space	Key.space	n/a
440.7295	0.105	881459	keystroke_a	a	n/a
440.9095	0.12	881819	keystroke_d	d	n/a
441.1195	0.09	882239	keystroke_v	v	n/a
441.6145	0.105	883229	keystroke_e	e	n/a
441.7645	0.09	883529	keystroke_n	n	n/a
441.9305	0.119	883861	keystroke_t	t	n/a
442.3955	0.074	884791	keystroke_u	u	n/a
442.5145	0.135	885029	keystroke_r	r	n/a
442.6045	0.105	885209	keystroke_e	e	n/a
442.6795	0.135	885359	keystroke_Key.space	Key.space	n/a
442.8745	0.12	885749	keystroke_e	e	n/a
443.1295	0.135	886259	keystroke_x	x	n/a
443.2795	0.105	886559	keystroke_p	p	n/a
444.03	0.12	888060	keystroke_e	e	n/a
444.1355	0.1195	888271	keystroke_n	n	n/a
444.3005	0.12	888601	keystroke_s	s	n/a
444.4355	0.06	888871	keystroke_i	i	n/a
445.1395	0.06	890279	keystroke_Key.backspace	Key.backspace	n/a
445.2155	0.12	890431	keystroke_e	e	n/a
445.4405	0.119	890881	keystroke_s	s	n/a
445.6045	0.12	891209	keystroke_Key.space	Key.space	n/a
446.1745	0.135	892349	keystroke_f	f	n/a
446.4595	0.09	892919	keystroke_o	o	n/a
446.7305	0.074	893461	keystroke_l	l	n/a
446.8645	0.105	893729	keystroke_l	l	n/a
447.0745	0.091	894149	keystroke_o	o	n/a
447.2545	0.105	894509	keystroke_w	w	n/a
447.3145	0.151	894629	keystroke_i	i	n/a
447.4345	0.12	894869	keystroke_n	n	n/a
447.5555	0.104	895111	keystroke_g	g	n/a
447.7045	0.09	895409	keystroke_Key.enter	Key.enter	n/a
447.802	6.5795	895604	prompt	n/a	inspections activity promotions do\n
448.5145	0.12	897029	keystroke_i	i	n/a
448.8745	0.09	897749	keystroke_n	n	n/a
449.3395	0.12	898679	keystroke_s	s	n/a
449.4745	0.0755	898949	keystroke_p	p	n/a
449.595	0.105	899190	keystroke_e	e	n/a
449.835	0.12	899670	keystroke_c	c	n/a
450.045	0.105	900090	keystroke_t	t	n/a
450.075	0.195	900150	keystroke_i	i	n/a
450.165	0.105	900330	keystroke_o	o	n/a
450.255	0.12	900510	keystroke_n	n	n/a
450.39	0.075	900780	keystroke_Key.space	Key.space	n/a
450.57	0.135	901140	keystroke_a	a	n/a
450.81	0.135	901620	keystroke_c	c	n/a
451.0195	0.12	902039	keystroke_t	t	n/a
451.1845	0.075	902369	keystroke_i	i	n/a
451.2895	0.135	902579	keystroke_v	v	n/a
451.4395	0.045	902879	keystroke_i	i	n/a
451.5445	0.106	903089	keystroke_t	t	n/a
451.6955	0.09	903391	keystroke_y	y	n/a
451.8295	0.135	903659	keystroke_Key.space	Key.space	n/a
452.1605	0.09	904321	keystroke_p	p	n/a
452.3245	0.121	904649	keystroke_r	r	n/a
452.4155	0.074	904831	keystroke_o	o	n/a
452.8205	0.164	905641	keystroke_m	m	n/a
452.9705	0.104	905941	keystroke_o	o	n/a
453.1195	0.121	906239	keystroke_t	t	n/a
453.2245	0.166	906449	keystroke_i	i	n/a
453.3155	0.105	906631	keystroke_o	o	n/a
453.4055	0.09	906811	keystroke_n	n	n/a
453.5395	0.09	907079	keystroke_s	s	n/a
453.7795	0.135	907559	keystroke_Key.space	Key.space	n/a
453.9445	0.135	907889	keystroke_d	d	n/a
454.0645	0.09	908129	keystroke_o	o	n/a
454.3045	0.075	908609	keystroke_Key.enter	Key.enter	n/a
454.3875	10.989	908775	prompt	n/a	mint directors jeff abandoned\n
455.3095	0.135	910619	keystroke_m	m	n/a
455.4595	0.09	910919	keystroke_i	i	n/a
455.5195	0.12	911039	keystroke_n	n	n/a
455.7295	0.09	911459	keystroke_t	t	n/a
456.3145	0.09	912629	keystroke_Key.space	Key.space	n/a
456.6145	0.075	913229	keystroke_d	d	n/a
457.0045	0.09	914009	keystroke_i	i	n/a
457.2145	0.12	914429	keystroke_r	r	n/a
457.3045	0.105	914609	keystroke_e	e	n/a
457.5295	0.12	915059	keystroke_c	c	n/a
457.7545	0.12	915509	keystroke_t	t	n/a
457.8895	0.075	915779	keystroke_o	o	n/a
457.9945	0.12	915989	keystroke_r	r	n/a
458.4445	0.09	916889	keystroke_s	s	n/a
458.5945	0.105	917189	keystroke_Key.space	Key.space	n/a
459.3145	0.12	918629	keystroke_d	d	n/a
459.9145	0.075	919829	keystroke_Key.backspace	Key.backspace	n/a
460.0045	0.165	920009	keystroke_f	f	n/a
460.1545	0.12	920309	keystroke_e	e	n/a
460.8	0.075	921600	keystroke_Key.backspace	Key.backspace	n/a
460.95	0.06	921900	keystroke_Key.backspace	Key.backspace	n/a
461.205	0.06	922410	keystroke_j	j	n/a
461.355	0.12	922710	keystroke_e	e	n/a
461.6395	0.09	923279	keystroke_f	f	n/a
461.8195	0.09	923639	keystroke_f	f	n/a
462.0895	0.12	924179	keystroke_Key.space	Key.space	n/a
462.4045	0.09	924809	keystroke_a	a	n/a
462.6145	0.09	925229	keystroke_b	b	n/a
463.395	0.09	926790	keystroke_a	a	n/a
463.725	0.15	927450	keystroke_n	n	n/a
463.83	0.12	927660	keystroke_d	d	n/a
464.04	0.09	928080	keystroke_o	o	n/a
464.115	0.105	928230	keystroke_n	n	n/a
464.46	0.09	928920	keystroke_e	e	n/a
464.655	0.12	929310	keystroke_d	d	n/a
465.285	0.09	930570	keystroke_Key.enter	Key.enter	n/a
465.383	17.8135	930766	prompt	n/a	thailand fake wordpress promotes\n
466.4855	0.119	932971	keystroke_t	t	n/a
466.6805	0.1345	933361	keystroke_a	a	n/a
467.1	0.045	934200	keystroke_i	i	n/a
467.25	0.105	934500	keystroke_l	l	n/a
467.385	0.105	934770	keystroke_a	a	n/a
467.49	0.105	934980	keystroke_n	n	n/a
467.61	0.09	935220	keystroke_d	d	n/a
467.655	0.105	935310	keystroke_Key.space	Key.space	n/a
467.805	0.165	935610	keystroke_f	f	n/a
467.91	0.15	935820	keystroke_a	a	n/a
468.18	0.12	936360	keystroke_c	c	n/a
468.42	0.09	936840	keystroke_e	e	n/a
469.1695	0.09	938339	keystroke_Key.backspace	Key.backspace	n/a
469.3195	0.135	938639	keystroke_Key.backspace	Key.backspace	n/a
469.6355	0.06	939271	keystroke_k	k	n/a
469.785	0.075	939570	keystroke_e	e	n/a
469.905	0.075	939810	keystroke_Key.space	Key.space	n/a
471.3	0.075	942600	keystroke_Key.backspace	Key.backspace	n/a
471.45	0.075	942900	keystroke_Key.backspace	Key.backspace	n/a
471.6145	0.06	943229	keystroke_Key.backspace	Key.backspace	n/a
471.7645	0.06	943529	keystroke_Key.backspace	Key.backspace	n/a
471.9295	0.045	943859	keystroke_Key.backspace	Key.backspace	n/a
472.0645	0.06	944129	keystroke_Key.backspace	Key.backspace	n/a
472.2295	0.06	944459	keystroke_Key.backspace	Key.backspace	n/a
472.3795	0.06	944759	keystroke_Key.backspace	Key.backspace	n/a
472.5445	0.045	945089	keystroke_Key.backspace	Key.backspace	n/a
472.6945	0.06	945389	keystroke_Key.backspace	Key.backspace	n/a
472.8595	0.045	945719	keystroke_Key.backspace	Key.backspace	n/a
473.3245	0.015	946649	keystroke_Key.backspace	Key.backspace	n/a
473.955	0.045	947910	keystroke_h	h	n/a
474.15	0.105	948300	keystroke_a	a	n/a
474.6	0.09	949200	keystroke_i	i	n/a
475.47	0.06	950940	keystroke_l	l	n/a
475.755	0.12	951510	keystroke_a	a	n/a
475.905	0.075	951810	keystroke_n	n	n/a
476.01	0.09	952020	keystroke_d	d	n/a
476.085	0.12	952170	keystroke_Key.space	Key.space	n/a
476.235	0.18	952470	keystroke_f	f	n/a
476.34	0.15	952680	keystroke_a	a	n/a
476.52	0.075	953040	keystroke_k	k	n/a
476.64	0.075	953280	keystroke_e	e	n/a
476.715	0.12	953430	keystroke_Key.space	Key.space	n/a
477	0.105	954000	keystroke_w	w	n/a
477.21	0.09	954420	keystroke_o	o	n/a
477.57	0.105	955140	keystroke_r	r	n/a
477.765	0.09	955530	keystroke_d	d	n/a
478.14	0.09	956280	keystroke_p	p	n/a
478.245	0.135	956490	keystroke_r	r	n/a
478.35	0.12	956700	keystroke_e	e	n/a
478.62	0.075	957240	keystroke_s	s	n/a
478.785	0.06	957570	keystroke_s	s	n/a
478.859	0.2255	957718	keystroke_Key.space	Key.space	n/a
479.1455	0.105	958291	keystroke_p	p	n/a
479.3545	0.121	958709	keystroke_r	r	n/a
479.4605	0.0745	958921	keystroke_o	o	n/a
481.02	0.18	962040	keystroke_m	m	n/a
481.17	0.105	962340	keystroke_o	o	n/a
481.29	0.165	962580	keystroke_t	t	n/a
481.41	0.12	962820	keystroke_e	e	n/a
481.68	0.105	963360	keystroke_s	s	n/a
483.0595	0.135	966119	keystroke_Key.enter	Key.enter	n/a
483.2015	9.866	966403	prompt	n/a	hungary widescreen arrow armstrong\n
484.2445	0.06	968489	keystroke_h	h	n/a
484.3945	0.06	968789	keystroke_u	u	n/a
484.5895	0.09	969179	keystroke_n	n	n/a
484.7845	0.12	969569	keystroke_g	g	n/a
485.1595	0.1205	970319	keystroke_a	a	n/a
485.34	0.12	970680	keystroke_r	r	n/a
485.505	0.075	971010	keystroke_y	y	n/a
485.64	0.15	971280	keystroke_Key.space	Key.space	n/a
486.15	0.12	972300	keystroke_w	w	n/a
486.285	0.09	972570	keystroke_i	i	n/a
486.405	0.1345	972810	keystroke_d	d	n/a
487.0505	0.119	974101	keystroke_e	e	n/a
487.5145	0.12	975029	keystroke_s	s	n/a
487.8	0.15	975600	keystroke_c	c	n/a
488.055	0.12	976110	keystroke_r	r	n/a
488.295	0.09	976590	keystroke_e	e	n/a
488.445	0.105	976890	keystroke_e	e	n/a
488.58	0.12	977160	keystroke_n	n	n/a
488.67	0.12	977340	keystroke_Key.space	Key.space	n/a
488.85	0.12	977700	keystroke_a	a	n/a
489.12	0.045	978240	keystroke_r	r	n/a
489.27	0.105	978540	keystroke_r	r	n/a
489.45	0.075	978900	keystroke_o	o	n/a
489.555	0.105	979110	keystroke_w	w	n/a
489.75	0.12	979500	keystroke_Key.space	Key.space	n/a
490.155	0.105	980310	keystroke_a	a	n/a
490.575	0.1355	981150	keystroke_r	r	n/a
490.8905	0.12	981781	keystroke_m	m	n/a
491.385	0.1495	982770	keystroke_s	s	n/a
492.0595	0.075	984119	keystroke_t	t	n/a
492.2545	0.15	984509	keystroke_r	r	n/a
492.4645	0.076	984929	keystroke_o	o	n/a
492.5105	0.134	985021	keystroke_n	n	n/a
492.7055	0.119	985411	keystroke_g	g	n/a
492.9745	0.091	985949	keystroke_Key.enter	Key.enter	n/a
493.0725	9.4	986145	prompt	n/a	enemies filtering indication tigers\n
493.935	0.12	987870	keystroke_e	e	n/a
494.145	0.105	988290	keystroke_n	n	n/a
494.5345	0.03	989069	keystroke_e	e	n/a
494.775	0.12	989550	keystroke_m	m	n/a
494.985	0.06	989970	keystroke_i	i	n/a
495.21	0.075	990420	keystroke_e	e	n/a
495.405	0.105	990810	keystroke_s	s	n/a
495.495	0.135	990990	keystroke_Key.space	Key.space	n/a
495.72	0.135	991440	keystroke_f	f	n/a
495.945	0.09	991890	keystroke_i	i	n/a
496.26	0.09	992520	keystroke_l	l	n/a
496.56	0.105	993120	keystroke_t	t	n/a
496.695	0.105	993390	keystroke_e	e	n/a
496.785	0.105	993570	keystroke_r	r	n/a
496.965	0.105	993930	keystroke_i	i	n/a
497.04	0.12	994080	keystroke_n	n	n/a
497.19	0.09	994380	keystroke_g	g	n/a
497.235	0.12	994470	keystroke_Key.space	Key.space	n/a
497.475	0.09	994950	keystroke_i	i	n/a
497.595	0.09	995190	keystroke_n	n	n/a
497.685	0.135	995370	keystroke_d	d	n/a
497.865	0.0605	995730	keystroke_i	i	n/a
497.97	0.135	995940	keystroke_c	c	n/a
498.075	0.105	996150	keystroke_a	a	n/a
498.255	0.0905	996510	keystroke_t	t	n/a
498.285	0.2255	996570	keystroke_i	i	n/a
498.4055	0.12	996811	keystroke_o	o	n/a
498.4955	0.1045	996991	keystroke_n	n	n/a
498.5705	0.15	997141	keystroke_Key.space	Key.space	n/a
498.8555	0.12	997711	keystroke_t	t	n/a
498.9455	0.09	997891	keystroke_i	i	n/a
499.0805	0.135	998161	keystroke_g	g	n/a
499.2455	0.075	998491	keystroke_h	h	n/a
499.9795	0.045	999959	keystroke_Key.backspace	Key.backspace	n/a
500.0555	0.1495	1000111	keystroke_e	e	n/a
501.135	0.105	1002270	keystroke_r	r	n/a
501.645	0.105	1003290	keystroke_s	s	n/a
502.35	0.1195	1004700	keystroke_Key.enter	Key.enter	n/a
502.478	9.774	1004956	prompt	n/a	headquarters diesel untitled tuner\n
503.2495	0.12	1006499	keystroke_h	h	n/a
503.3695	0.15	1006739	keystroke_e	e	n/a
503.4895	0.105	1006979	keystroke_a	a	n/a
503.9105	0.104	1007821	keystroke_d	d	n/a
504.285	0.12	1008570	keystroke_q	q	n/a
504.585	0.09	1009170	keystroke_u	u	n/a
504.84	0.12	1009680	keystroke_a	a	n/a
505.53	0.15	1011060	keystroke_r	r	n/a
505.89	0.105	1011780	keystroke_t	t	n/a
506.19	0.165	1012380	keystroke_e	e	n/a
506.34	0.105	1012680	keystroke_r	r	n/a
506.565	0.09	1013130	keystroke_s	s	n/a
506.715	0.15	1013430	keystroke_Key.space	Key.space	n/a
506.94	0.12	1013880	keystroke_d	d	n/a
507.105	0.09	1014210	keystroke_i	i	n/a
507.36	0.105	1014720	keystroke_e	e	n/a
507.7645	0.105	1015529	keystroke_s	s	n/a
507.9745	0.12	1015949	keystroke_e	e	n/a
508.1545	0.105	1016309	keystroke_l	l	n/a
508.2895	0.1205	1016579	keystroke_Key.space	Key.space	n/a
508.68	0.06	1017360	keystroke_u	u	n/a
508.935	0.12	1017870	keystroke_n	n	n/a
509.235	0.09	1018470	keystroke_t	t	n/a
509.52	0.0745	1019040	keystroke_i	i	n/a
510.1945	0.105	1020389	keystroke_t	t	n/a
510.4795	0.09	1020959	keystroke_l	l	n/a
510.6745	0.135	1021349	keystroke_e	e	n/a
511.005	0.09	1022010	keystroke_d	d	n/a
511.184	0.1515	1022368	keystroke_Key.space	Key.space	n/a
511.4395	0.1205	1022879	keystroke_t	t	n/a
511.56	0.06	1023120	keystroke_u	u	n/a
511.785	0.075	1023570	keystroke_n	n	n/a
511.89	0.15	1023780	keystroke_e	e	n/a
512.01	0.12	1024020	keystroke_r	r	n/a
512.175	0.0745	1024350	keystroke_Key.enter	Key.enter	n/a
512.2575	9.4885	1024515	prompt	n/a	inch as columbus treasurer\n
513.1495	0.075	1026299	keystroke_i	i	n/a
513.2695	0.135	1026539	keystroke_n	n	n/a
513.4495	0.165	1026899	keystroke_c	c	n/a
513.5845	0.06	1027169	keystroke_h	h	n/a
514.2895	0.105	1028579	keystroke_Key.space	Key.space	n/a
514.4845	0.12	1028969	keystroke_a	a	n/a
514.7245	0.09	1029449	keystroke_s	s	n/a
514.8445	0.165	1029689	keystroke_Key.space	Key.space	n/a
515.1745	0.18	1030349	keystroke_c	c	n/a
515.3095	0.06	1030619	keystroke_o	o	n/a
515.4745	0.1055	1030949	keystroke_l	l	n/a
515.745	0.06	1031490	keystroke_u	u	n/a
515.9845	0.075	1031969	keystroke_m	m	n/a
516.1645	0.105	1032329	keystroke_b	b	n/a
516.4045	0.0455	1032809	keystroke_u	u	n/a
516.51	0.105	1033020	keystroke_s	s	n/a
516.63	0.12	1033260	keystroke_Key.space	Key.space	n/a
517.875	0.09	1035750	keystroke_t	t	n/a
518.37	0.105	1036740	keystroke_r	r	n/a
518.925	0.09	1037850	keystroke_e	e	n/a
519.12	0.15	1038240	keystroke_a	a	n/a
519.39	0.12	1038780	keystroke_s	s	n/a
520.47	0.09	1040940	keystroke_u	u	n/a
520.635	0.15	1041270	keystroke_r	r	n/a
520.755	0.135	1041510	keystroke_e	e	n/a
521.43	0.12	1042860	keystroke_r	r	n/a
521.669	0.0755	1043338	keystroke_Key.enter	Key.enter	n/a
521.751	7.1805	1043502	prompt	n/a	sports killing worlds warned\n
522.5845	0.15	1045169	keystroke_s	s	n/a
522.7805	0.104	1045561	keystroke_p	p	n/a
522.9155	0.104	1045831	keystroke_o	o	n/a
523.0045	0.105	1046009	keystroke_r	r	n/a
523.1845	0.12	1046369	keystroke_t	t	n/a
523.3345	0.135	1046669	keystroke_Key.space	Key.space	n/a
523.8895	0.075	1047779	keystroke_Key.backspace	Key.backspace	n/a
523.9795	0.09	1047959	keystroke_s	s	n/a
524.0845	0.12	1048169	keystroke_Key.space	Key.space	n/a
524.2645	0.09	1048529	keystroke_k	k	n/a
524.4745	0.06	1048949	keystroke_i	i	n/a
524.6395	0.075	1049279	keystroke_l	l	n/a
524.7895	0.09	1049579	keystroke_l	l	n/a
524.9545	0.135	1049909	keystroke_i	i	n/a
525.0745	0.09	1050149	keystroke_n	n	n/a
525.1945	0.075	1050389	keystroke_g	g	n/a
525.2395	0.105	1050479	keystroke_Key.space	Key.space	n/a
525.6295	0.1355	1051259	keystroke_w	w	n/a
525.7345	0.09	1051469	keystroke_o	o	n/a
526.0345	0.1055	1052069	keystroke_r	r	n/a
526.125	0.09	1052250	keystroke_l	l	n/a
526.35	0.09	1052700	keystroke_d	d	n/a
526.425	0.075	1052850	keystroke_Key.space	Key.space	n/a
526.845	0.15	1053690	keystroke_w	w	n/a
526.965	0.12	1053930	keystroke_a	a	n/a
527.115	0.135	1054230	keystroke_r	r	n/a
527.385	0.0895	1054770	keystroke_n	n	n/a
527.9995	0.09	1055999	keystroke_e	e	n/a
528.6895	0.12	1057379	keystroke_d	d	n/a
528.8395	0.09	1057679	keystroke_Key.enter	Key.enter	n/a
528.9365	6.91	1057873	prompt	n/a	macromedia ride care worry\n
529.8295	0.165	1059659	keystroke_m	m	n/a
529.9795	0.12	1059959	keystroke_a	a	n/a
530.2045	0.15	1060409	keystroke_c	c	n/a
530.5045	0.12	1061009	keystroke_r	r	n/a
530.745	0.075	1061490	keystroke_o	o	n/a
531.195	0.135	1062390	keystroke_m	m	n/a
531.42	0.1345	1062840	keystroke_e	e	n/a
531.6745	0.105	1063349	keystroke_d	d	n/a
531.8245	0.075	1063649	keystroke_i	i	n/a
531.9445	0.135	1063889	keystroke_a	a	n/a
532.1695	0.09	1064339	keystroke_Key.space	Key.space	n/a
532.5895	0.135	1065179	keystroke_r	r	n/a
532.935	0.075	1065870	keystroke_i	i	n/a
533.07	0.09	1066140	keystroke_d	d	n/a
533.235	0.1055	1066470	keystroke_e	e	n/a
533.325	0.135	1066650	keystroke_Key.space	Key.space	n/a
533.625	0.165	1067250	keystroke_c	c	n/a
533.745	0.135	1067490	keystroke_a	a	n/a
533.985	0.12	1067970	keystroke_r	r	n/a
534.195	0.09	1068390	keystroke_e	e	n/a
534.344	0.121	1068688	keystroke_Key.space	Key.space	n/a
534.57	0.12	1069140	keystroke_w	w	n/a
534.78	0.074	1069560	keystroke_o	o	n/a
534.93	0.045	1069860	keystroke_r	r	n/a
535.08	0.075	1070160	keystroke_r	r	n/a
535.529	0.076	1071058	keystroke_y	y	n/a
535.755	0.089	1071510	keystroke_Key.enter	Key.enter	n/a
535.8555	8.6465	1071711	prompt	n/a	reproduction worn sterling bald\n
536.6695	0.15	1073339	keystroke_r	r	n/a
536.7745	0.12	1073549	keystroke_e	e	n/a
537.2105	0.089	1074421	keystroke_p	p	n/a
537.8545	0.12	1075709	keystroke_r	r	n/a
537.9755	0.074	1075951	keystroke_o	o	n/a
538.1395	0.135	1076279	keystroke_d	d	n/a
538.4105	0.089	1076821	keystroke_u	u	n/a
538.6045	0.18	1077209	keystroke_c	c	n/a
538.8895	0.105	1077779	keystroke_t	t	n/a
539.4145	0.18	1078829	keystroke_i	i	n/a
539.5045	0.12	1079009	keystroke_o	o	n/a
539.6095	0.15	1079219	keystroke_n	n	n/a
539.7445	0.12	1079489	keystroke_Key.space	Key.space	n/a
539.9995	0.12	1079999	keystroke_w	w	n/a
540.3445	0.09	1080689	keystroke_o	o	n/a
540.4795	0.12	1080959	keystroke_r	r	n/a
540.7195	0.135	1081439	keystroke_n	n	n/a
540.8695	0.12	1081739	keystroke_Key.space	Key.space	n/a
541.3495	0.136	1082699	keystroke_s	s	n/a
541.5745	0.12	1083149	keystroke_t	t	n/a
541.7395	0.15	1083479	keystroke_e	e	n/a
541.8595	0.12	1083719	keystroke_r	r	n/a
542.1295	0.09	1084259	keystroke_l	l	n/a
542.2345	0.15	1084469	keystroke_i	i	n/a
542.3695	0.1055	1084739	keystroke_n	n	n/a
542.49	0.105	1084980	keystroke_g	g	n/a
542.579	0.135	1085158	keystroke_Key.space	Key.space	n/a
542.849	0.121	1085698	keystroke_b	b	n/a
543.345	0.105	1086690	keystroke_a	a	n/a
543.51	0.105	1087020	keystroke_l	l	n/a
543.765	0.1045	1087530	keystroke_d	d	n/a
544.4245	0.075	1088849	keystroke_Key.enter	Key.enter	n/a
544.5075	9.744	1089015	prompt	n/a	lamp wrapped innovation harm\n
545.2345	0.09	1090469	keystroke_l	l	n/a
545.3395	0.12	1090679	keystroke_a	a	n/a
545.5195	0.21	1091039	keystroke_m	m	n/a
545.6995	0.075	1091399	keystroke_p	p	n/a
545.8195	0.12	1091639	keystroke_Key.space	Key.space	n/a
546.4495	0.18	1092899	keystroke_w	w	n/a
547.08	0.165	1094160	keystroke_r	r	n/a
547.185	0.149	1094370	keystroke_a	a	n/a
547.44	0.074	1094880	keystroke_p	p	n/a
548.025	0.09	1096050	keystroke_p	p	n/a
548.205	0.105	1096410	keystroke_e	e	n/a
548.415	0.105	1096830	keystroke_d	d	n/a
548.52	0.18	1097040	keystroke_Key.space	Key.space	n/a
548.685	0.135	1097370	keystroke_i	i	n/a
548.805	0.15	1097610	keystroke_n	n	n/a
549.015	0.105	1098030	keystroke_v	v	n/a
549.495	0.0745	1098990	keystroke_Key.backspace	Key.backspace	n/a
549.7195	0.105	1099439	keystroke_n	n	n/a
549.8695	0.15	1099739	keystroke_v	v	n/a
550.9345	0.06	1101869	keystroke_Key.backspace	Key.backspace	n/a
551.1745	0.075	1102349	keystroke_o	o	n/a
551.3395	0.1945	1102679	keystroke_v	v	n/a
551.549	0.136	1103098	keystroke_a	a	n/a
551.88	0.1205	1103760	keystroke_t	t	n/a
552.0145	0.24	1104029	keystroke_i	i	n/a
552.1195	0.121	1104239	keystroke_o	o	n/a
552.2245	0.105	1104449	keystroke_n	n	n/a
552.6595	0.1355	1105319	keystroke_Key.space	Key.space	n/a
552.93	0.0895	1105860	keystroke_h	h	n/a
553.065	0.165	1106130	keystroke_a	a	n/a
553.275	0.135	1106550	keystroke_r	r	n/a
553.545	0.18	1107090	keystroke_m	m	n/a
554.19	0.06	1108380	keystroke_Key.enter	Key.enter	n/a
554.257	22.7795	1108514	prompt	n/a	medline producer applicant aggregate\n
555.09	0.135	1110180	keystroke_m	m	n/a
555.195	0.12	1110390	keystroke_e	e	n/a
555.42	0.1195	1110840	keystroke_d	d	n/a
555.5845	0.075	1111169	keystroke_i	i	n/a
555.9445	0.12	1111889	keystroke_l	l	n/a
557.3695	0.0745	1114739	keystroke_Key.backspace	Key.backspace	n/a
557.519	0.09	1115038	keystroke_Key.backspace	Key.backspace	n/a
558.795	0.09	1117590	keystroke_l	l	n/a
559.17	0.105	1118340	keystroke_i	i	n/a
559.289	0.106	1118578	keystroke_n	n	n/a
559.41	0.105	1118820	keystroke_e	e	n/a
559.53	0.09	1119060	keystroke_Key.space	Key.space	n/a
560.445	0.09	1120890	keystroke_p	p	n/a
560.625	0.15	1121250	keystroke_r	r	n/a
560.76	0.06	1121520	keystroke_o	o	n/a
560.91	0.135	1121820	keystroke_d	d	n/a
561.18	0.09	1122360	keystroke_u	u	n/a
561.3	0.15	1122600	keystroke_c	c	n/a
561.96	0.15	1123920	keystroke_e	e	n/a
562.08	0.12	1124160	keystroke_r	r	n/a
562.215	0.12	1124430	keystroke_Key.space	Key.space	n/a
562.395	0.135	1124790	keystroke_a	a	n/a
562.605	0.09	1125210	keystroke_p	p	n/a
562.785	0.0745	1125570	keystroke_p	p	n/a
562.98	0.105	1125960	keystroke_l	l	n/a
563.07	0.09	1126140	keystroke_i	i	n/a
563.22	0.135	1126440	keystroke_c	c	n/a
563.325	0.105	1126650	keystroke_a	a	n/a
563.505	0.09	1127010	keystroke_t	t	n/a
563.52	0.165	1127040	keystroke_i	i	n/a
563.7	0.09	1127400	keystroke_n	n	n/a
563.819	0.106	1127638	keystroke_Key.space	Key.space	n/a
564.524	0.06	1129048	keystroke_Key.backspace	Key.backspace	n/a
564.7195	0.09	1129439	keystroke_g	g	n/a
564.8695	0.075	1129739	keystroke_Key.space	Key.space	n/a
566.819	0.075	1133638	keystroke_Key.backspace	Key.backspace	n/a
566.9845	0.075	1133969	keystroke_Key.backspace	Key.backspace	n/a
567.1495	0.076	1134299	keystroke_Key.backspace	Key.backspace	n/a
567.8095	0.09	1135619	keystroke_Key.backspace	Key.backspace	n/a
569.2195	0.135	1138439	keystroke_Key.space	Key.space	n/a
569.6095	0.09	1139219	keystroke_a	a	n/a
569.8345	0.06	1139669	keystroke_g	g	n/a
569.9995	0.09	1139999	keystroke_g	g	n/a
570.2395	0.165	1140479	keystroke_r	r	n/a
571.4245	0.075	1142849	keystroke_Key.backspace	Key.backspace	n/a
571.5745	0.06	1143149	keystroke_Key.backspace	Key.backspace	n/a
571.7395	0.06	1143479	keystroke_Key.backspace	Key.backspace	n/a
571.8745	0.075	1143749	keystroke_Key.backspace	Key.backspace	n/a
572.0395	0.06	1144079	keystroke_Key.backspace	Key.backspace	n/a
572.2045	0.06	1144409	keystroke_Key.backspace	Key.backspace	n/a
572.745	0.045	1145490	keystroke_n	n	n/a
573	0.06	1146000	keystroke_t	t	n/a
573.6	0.075	1147200	keystroke_Key.space	Key.space	n/a
574.05	0.105	1148100	keystroke_a	a	n/a
574.305	0.075	1148610	keystroke_g	g	n/a
574.47	0.09	1148940	keystroke_g	g	n/a
574.74	0.15	1149480	keystroke_r	r	n/a
574.875	0.105	1149750	keystroke_e	e	n/a
575.16	0.105	1150320	keystroke_a	a	n/a
575.684	0.075	1151368	keystroke_Key.backspace	Key.backspace	n/a
575.775	0.15	1151550	keystroke_g	g	n/a
575.91	0.135	1151820	keystroke_a	a	n/a
576.06	0.149	1152120	keystroke_t	t	n/a
576.374	0.12	1152748	keystroke_e	e	n/a
576.96	0.075	1153920	keystroke_Key.enter	Key.enter	n/a
577.041	8.2605	1154082	prompt	n/a	resume harbor telecom sparc\n
577.9345	0.12	1155869	keystroke_r	r	n/a
577.9945	0.12	1155989	keystroke_e	e	n/a
578.1895	0.165	1156379	keystroke_s	s	n/a
578.3395	0.09	1156679	keystroke_u	u	n/a
578.5645	0.09	1157129	keystroke_m	m	n/a
578.6995	0.075	1157399	keystroke_e	e	n/a
578.7445	0.105	1157489	keystroke_Key.space	Key.space	n/a
579.2395	0.105	1158479	keystroke_h	h	n/a
579.3745	0.135	1158749	keystroke_a	a	n/a
579.5245	0.105	1159049	keystroke_r	r	n/a
579.7945	0.135	1159589	keystroke_b	b	n/a
579.9745	0.075	1159949	keystroke_o	o	n/a
580.1245	0.105	1160249	keystroke_r	r	n/a
580.2895	0.105	1160579	keystroke_Key.space	Key.space	n/a
580.784	0.12	1161568	keystroke_t	t	n/a
580.859	0.12	1161718	keystroke_e	e	n/a
581.43	0.075	1162860	keystroke_l	l	n/a
582.0595	0.105	1164119	keystroke_e	e	n/a
582.3145	0.15	1164629	keystroke_c	c	n/a
582.4345	0.135	1164869	keystroke_o	o	n/a
582.5245	0.15	1165049	keystroke_m	m	n/a
583.0045	0.135	1166009	keystroke_Key.space	Key.space	n/a
583.2895	0.135	1166579	keystroke_s	s	n/a
583.5145	0.105	1167029	keystroke_p	p	n/a
583.6645	0.15	1167329	keystroke_a	a	n/a
583.9195	0.09	1167839	keystroke_r	r	n/a
584.4595	0.12	1168919	keystroke_c	c	n/a
585.21	0.09	1170420	keystroke_Key.enter	Key.enter	n/a
585.3065	11.3355	1170613	prompt	n/a	gabriel i'd canyon institute\n
586.1845	0.105	1172369	keystroke_g	g	n/a
586.4095	0.12	1172819	keystroke_a	a	n/a
586.7095	0.09	1173419	keystroke_b	b	n/a
587.4155	0.119	1174831	keystroke_r	r	n/a
588.0145	0.061	1176029	keystroke_i	i	n/a
588.1195	0.09	1176239	keystroke_e	e	n/a
588.2845	0.105	1176569	keystroke_l	l	n/a
588.4645	0.105	1176929	keystroke_Key.space	Key.space	n/a
589.3795	0.15	1178759	keystroke_i	i	n/a
589.6795	0.075	1179359	keystroke_'	'	n/a
589.7995	0.105	1179599	keystroke_d	d	n/a
589.9195	0.09	1179839	keystroke_Key.space	Key.space	n/a
591.06	0.15	1182120	keystroke_c	c	n/a
591.15	0.135	1182300	keystroke_a	a	n/a
591.675	0.105	1183350	keystroke_n	n	n/a
591.944	0.091	1183888	keystroke_y	y	n/a
592.08	0.15	1184160	keystroke_o	o	n/a
592.394	0.09	1184788	keystroke_Key.space	Key.space	n/a
593.009	0.016	1186018	keystroke_i	i	n/a
593.039	0.091	1186078	keystroke_n	n	n/a
593.579	0.0605	1187158	keystroke_Key.backspace	Key.backspace	n/a
593.7145	0.091	1187429	keystroke_Key.backspace	Key.backspace	n/a
593.8795	0.075	1187759	keystroke_Key.backspace	Key.backspace	n/a
594.1505	0.089	1188301	keystroke_n	n	n/a
594.2545	0.105	1188509	keystroke_Key.space	Key.space	n/a
594.4195	0.105	1188839	keystroke_i	i	n/a
594.5545	0.105	1189109	keystroke_n	n	n/a
595.125	0.075	1190250	keystroke_s	s	n/a
595.575	0.105	1191150	keystroke_t	t	n/a
595.71	0.075	1191420	keystroke_i	i	n/a
595.83	0.12	1191660	keystroke_t	t	n/a
596.025	0.09	1192050	keystroke_u	u	n/a
596.25	0.165	1192500	keystroke_t	t	n/a
596.385	0.105	1192770	keystroke_e	e	n/a
596.564	0.076	1193128	keystroke_Key.enter	Key.enter	n/a
596.6465	10.1495	1193293	prompt	n/a	greetings fund pepper rwanda\n
597.6295	0.09	1195259	keystroke_g	g	n/a
597.8545	0.105	1195709	keystroke_r	r	n/a
598.0195	0.105	1196039	keystroke_e	e	n/a
598.3045	0.1055	1196609	keystroke_e	e	n/a
598.575	0.09	1197150	keystroke_t	t	n/a
598.695	0.09	1197390	keystroke_i	i	n/a
598.77	0.105	1197540	keystroke_n	n	n/a
598.935	0.105	1197870	keystroke_g	g	n/a
599.175	0.105	1198350	keystroke_s	s	n/a
599.355	0.12	1198710	keystroke_Key.space	Key.space	n/a
599.5795	0.135	1199159	keystroke_f	f	n/a
599.7145	0.06	1199429	keystroke_u	u	n/a
599.9105	0.074	1199821	keystroke_n	n	n/a
600.3145	0.0905	1200629	keystroke_d	d	n/a
600.5095	0.09	1201019	keystroke_Key.space	Key.space	n/a
600.8545	0.1055	1201709	keystroke_p	p	n/a
600.9895	0.12	1201979	keystroke_e	e	n/a
602.1295	0.075	1204259	keystroke_p	p	n/a
602.3245	0.135	1204649	keystroke_e	e	n/a
602.4295	0.105	1204859	keystroke_r	r	n/a
602.9995	0.075	1205999	keystroke_Key.backspace	Key.backspace	n/a
603.1795	0.06	1206359	keystroke_Key.backspace	Key.backspace	n/a
603.5695	0.075	1207139	keystroke_p	p	n/a
603.78	0.18	1207560	keystroke_e	e	n/a
603.93	0.12	1207860	keystroke_r	r	n/a
604.275	0.105	1208550	keystroke_Key.space	Key.space	n/a
604.8295	0.105	1209659	keystroke_r	r	n/a
605.1145	0.18	1210229	keystroke_w	w	n/a
605.9105	0.119	1211821	keystroke_a	a	n/a
606.0445	0.105	1212089	keystroke_n	n	n/a
606.3595	0.18	1212719	keystroke_d	d	n/a
606.5245	0.135	1213049	keystroke_a	a	n/a
606.7045	0.09	1213409	keystroke_Key.enter	Key.enter	n/a
606.801	13.075	1213602	prompt	n/a	conversation cables factors combination\n
607.6045	0.135	1215209	keystroke_c	c	n/a
607.71	0.105	1215420	keystroke_o	o	n/a
607.7995	0.105	1215599	keystroke_n	n	n/a
607.9195	0.165	1215839	keystroke_v	v	n/a
608.0695	0.166	1216139	keystroke_e	e	n/a
608.2055	0.089	1216411	keystroke_r	r	n/a
608.4455	0.104	1216891	keystroke_s	s	n/a
608.7595	0.121	1217519	keystroke_a	a	n/a
608.9545	0.105	1217909	keystroke_t	t	n/a
609.0295	0.21	1218059	keystroke_i	i	n/a
609.1495	0.105	1218299	keystroke_o	o	n/a
609.2245	0.135	1218449	keystroke_n	n	n/a
609.3745	0.12	1218749	keystroke_Key.space	Key.space	n/a
609.6145	0.135	1219229	keystroke_c	c	n/a
609.7045	0.12	1219409	keystroke_a	a	n/a
609.8995	0.12	1219799	keystroke_b	b	n/a
610.2745	0.09	1220549	keystroke_l	l	n/a
610.4695	0.09	1220939	keystroke_e	e	n/a
611.3845	0.09	1222769	keystroke_s	s	n/a
611.5645	0.09	1223129	keystroke_Key.space	Key.space	n/a
615.4225	0.102	1230845	keystroke_f	f	n/a
615.5545	0.135	1231109	keystroke_a	a	n/a
615.7795	0.135	1231559	keystroke_c	c	n/a
616.0195	0.1505	1232039	keystroke_t	t	n/a
616.185	0.075	1232370	keystroke_o	o	n/a
616.305	0.1345	1232610	keystroke_r	r	n/a
616.8295	0.105	1233659	keystroke_s	s	n/a
617.0095	0.12	1234019	keystroke_Key.space	Key.space	n/a
617.3995	0.165	1234799	keystroke_c	c	n/a
617.5345	0.135	1235069	keystroke_o	o	n/a
617.6545	0.15	1235309	keystroke_m	m	n/a
618.3295	0.12	1236659	keystroke_b	b	n/a
618.4645	0.105	1236929	keystroke_i	i	n/a
618.5995	0.165	1237199	keystroke_n	n	n/a
618.7795	0.165	1237559	keystroke_a	a	n/a
618.9295	0.135	1237859	keystroke_t	t	n/a
619.0195	0.195	1238039	keystroke_i	i	n/a
619.1095	0.106	1238219	keystroke_o	o	n/a
619.1845	0.15	1238369	keystroke_n	n	n/a
619.8145	0.06	1239629	keystroke_Key.enter	Key.enter	n/a
619.881	6.9255	1239762	prompt	n/a	self dave executive add\n
620.6245	0.135	1241249	keystroke_s	s	n/a
620.6995	0.165	1241399	keystroke_e	e	n/a
620.8655	0.089	1241731	keystroke_l	l	n/a
620.9695	0.12	1241939	keystroke_f	f	n/a
621.1045	0.105	1242209	keystroke_Key.space	Key.space	n/a
621.2845	0.225	1242569	keystroke_d	d	n/a
621.4645	0.12	1242929	keystroke_a	a	n/a
621.5695	0.165	1243139	keystroke_v	v	n/a
621.7345	0.15	1243469	keystroke_e	e	n/a
622.1545	0.105	1244309	keystroke_Key.space	Key.space	n/a
622.6045	0.09	1245209	keystroke_e	e	n/a
623.2945	0.135	1246589	keystroke_x	x	n/a
624.0595	0.12	1248119	keystroke_e	e	n/a
624.4645	0.12	1248929	keystroke_c	c	n/a
625.425	0.135	1250850	keystroke_u	u	n/a
625.545	0.12	1251090	keystroke_t	t	n/a
625.65	0.09	1251300	keystroke_i	i	n/a
625.785	0.15	1251570	keystroke_v	v	n/a
625.89	0.12	1251780	keystroke_e	e	n/a
625.98	0.12	1251960	keystroke_Key.space	Key.space	n/a
626.115	0.09	1252230	keystroke_a	a	n/a
626.37	0.06	1252740	keystroke_d	d	n/a
626.535	0.09	1253070	keystroke_d	d	n/a
626.73	0.075	1253460	keystroke_Key.enter	Key.enter	n/a
626.8115	6.565	1253623	prompt	n/a	use willow illustrations holdings\n
627.69	0.075	1255380	keystroke_u	u	n/a
627.749	0.136	1255498	keystroke_s	s	n/a
627.84	0.12	1255680	keystroke_e	e	n/a
627.96	0.134	1255920	keystroke_Key.space	Key.space	n/a
628.14	0.12	1256280	keystroke_w	w	n/a
628.229	0.0905	1256458	keystroke_i	i	n/a
628.4545	0.075	1256909	keystroke_l	l	n/a
628.6045	0.09	1257209	keystroke_l	l	n/a
628.9645	0.09	1257929	keystroke_o	o	n/a
629.1445	0.105	1258289	keystroke_w	w	n/a
629.3695	0.091	1258739	keystroke_Key.space	Key.space	n/a
630.0745	0.0755	1260149	keystroke_i	i	n/a
630.27	0.075	1260540	keystroke_l	l	n/a
630.435	0.075	1260870	keystroke_l	l	n/a
630.705	0.045	1261410	keystroke_u	u	n/a
630.84	0.165	1261680	keystroke_s	s	n/a
631.02	0.0595	1262040	keystroke_s	s	n/a
631.0495	0.12	1262099	keystroke_t	t	n/a
631.2595	0.12	1262519	keystroke_r	r	n/a
631.3645	0.15	1262729	keystroke_a	a	n/a
631.4995	0.105	1262999	keystroke_t	t	n/a
631.5895	0.1505	1263179	keystroke_i	i	n/a
631.6795	0.09	1263359	keystroke_o	o	n/a
631.7545	0.12	1263509	keystroke_n	n	n/a
631.8895	0.105	1263779	keystroke_s	s	n/a
632.0095	0.105	1264019	keystroke_Key.space	Key.space	n/a
632.2495	0.135	1264499	keystroke_h	h	n/a
632.3545	0.09	1264709	keystroke_o	o	n/a
632.5195	0.105	1265039	keystroke_l	l	n/a
632.6245	0.135	1265249	keystroke_d	d	n/a
632.6995	0.12	1265399	keystroke_i	i	n/a
632.7895	0.12	1265579	keystroke_n	n	n/a
632.9105	0.104	1265821	keystroke_g	g	n/a
633.2845	0.0905	1266569	keystroke_Key.enter	Key.enter	n/a
633.382	6.219	1266764	prompt	n/a	ambien unto curious any\n
634.35	0.12	1268700	keystroke_a	a	n/a
634.485	0.18	1268970	keystroke_m	m	n/a
634.845	0.105	1269690	keystroke_b	b	n/a
635.415	0.09	1270830	keystroke_i	i	n/a
635.565	0.105	1271130	keystroke_e	e	n/a
635.685	0.135	1271370	keystroke_n	n	n/a
635.805	0.09	1271610	keystroke_Key.space	Key.space	n/a
636.045	0.075	1272090	keystroke_u	u	n/a
636.585	0.135	1273170	keystroke_n	n	n/a
636.75	0.135	1273500	keystroke_t	t	n/a
636.915	0.105	1273830	keystroke_o	o	n/a
637.079	0.12	1274158	keystroke_Key.space	Key.space	n/a
637.6495	0.09	1275299	keystroke_c	c	n/a
637.8295	0.105	1275659	keystroke_u	u	n/a
638.0245	0.135	1276049	keystroke_r	r	n/a
638.3245	0.03	1276649	keystroke_i	i	n/a
638.3395	0.165	1276679	keystroke_o	o	n/a
638.4745	0.09	1276949	keystroke_u	u	n/a
638.6095	0.105	1277219	keystroke_s	s	n/a
638.7445	0.15	1277489	keystroke_Key.space	Key.space	n/a
638.9845	0.135	1277969	keystroke_a	a	n/a
639.0745	0.09	1278149	keystroke_n	n	n/a
639.2845	0.075	1278569	keystroke_y	y	n/a
639.4945	0.1045	1278989	keystroke_Key.enter	Key.enter	n/a
639.607	12.2205	1279214	prompt	n/a	hate mercy civilization fell\n
640.425	0.074	1280850	keystroke_h	h	n/a
640.529	0.075	1281058	keystroke_e	e	n/a
640.575	0.135	1281150	keystroke_a	a	n/a
640.8	0.074	1281600	keystroke_t	t	n/a
640.844	0.121	1281688	keystroke_e	e	n/a
640.949	0.12	1281898	keystroke_Key.space	Key.space	n/a
641.714	0.015	1283428	keystroke_Key.backspace	Key.backspace	n/a
641.789	0.06	1283578	keystroke_Key.backspace	Key.backspace	n/a
641.939	0.06	1283878	keystroke_Key.backspace	Key.backspace	n/a
642.089	0.075	1284178	keystroke_Key.backspace	Key.backspace	n/a
642.239	0.075	1284478	keystroke_Key.backspace	Key.backspace	n/a
642.555	0.149	1285110	keystroke_a	a	n/a
642.689	0.165	1285378	keystroke_t	t	n/a
642.824	0.12	1285648	keystroke_e	e	n/a
642.959	0.075	1285918	keystroke_Key.space	Key.space	n/a
643.439	0.1205	1286878	keystroke_m	m	n/a
643.9645	0.12	1287929	keystroke_e	e	n/a
644.0695	0.105	1288139	keystroke_r	r	n/a
644.3995	0.12	1288799	keystroke_c	c	n/a
644.5495	0.09	1289099	keystroke_y	y	n/a
644.6695	0.12	1289339	keystroke_Key.space	Key.space	n/a
645.0295	0.135	1290059	keystroke_c	c	n/a
645.1655	0.074	1290331	keystroke_i	i	n/a
645.4195	0.105	1290839	keystroke_l	l	n/a
646.0495	0.06	1292099	keystroke_Key.backspace	Key.backspace	n/a
646.1995	0.12	1292399	keystroke_v	v	n/a
646.8295	0.09	1293659	keystroke_i	i	n/a
647.0545	0.12	1294109	keystroke_l	l	n/a
647.415	0.03	1294830	keystroke_i	i	n/a
647.97	0.135	1295940	keystroke_z	z	n/a
648.915	0.12	1297830	keystroke_a	a	n/a
649.17	0.1045	1298340	keystroke_t	t	n/a
649.23	0.254	1298460	keystroke_i	i	n/a
649.335	0.135	1298670	keystroke_o	o	n/a
650.219	0.09	1300438	keystroke_n	n	n/a
650.384	0.105	1300768	keystroke_Key.space	Key.space	n/a
651.014	0.135	1302028	keystroke_f	f	n/a
651.254	0.105	1302508	keystroke_e	e	n/a
651.404	0.061	1302808	keystroke_l	l	n/a
651.555	0.089	1303110	keystroke_l	l	n/a
651.764	0.06	1303528	keystroke_Key.enter	Key.enter	n/a
651.837	8.0755	1303674	prompt	n/a	places investors plaza genuine\n
652.619	0.061	1305238	keystroke_p	p	n/a
652.829	0.1205	1305658	keystroke_l	l	n/a
652.9645	0.12	1305929	keystroke_a	a	n/a
653.1445	0.12	1306289	keystroke_c	c	n/a
653.3695	0.09	1306739	keystroke_e	e	n/a
653.5795	0.09	1307159	keystroke_s	s	n/a
653.6545	0.165	1307309	keystroke_Key.space	Key.space	n/a
653.8045	0.135	1307609	keystroke_i	i	n/a
653.8945	0.15	1307789	keystroke_n	n	n/a
654.0295	0.15	1308059	keystroke_v	v	n/a
654.1495	0.135	1308299	keystroke_e	e	n/a
654.405	0.2095	1308810	keystroke_s	s	n/a
654.5845	0.135	1309169	keystroke_t	t	n/a
654.7495	0.0905	1309499	keystroke_o	o	n/a
654.9	0.105	1309800	keystroke_r	r	n/a
655.14	0.0895	1310280	keystroke_s	s	n/a
655.2445	0.15	1310489	keystroke_Key.space	Key.space	n/a
655.575	0.075	1311150	keystroke_p	p	n/a
655.695	0.12	1311390	keystroke_l	l	n/a
655.845	0.09	1311690	keystroke_a	a	n/a
656.115	0.135	1312230	keystroke_z	z	n/a
656.67	0.105	1313340	keystroke_a	a	n/a
656.865	0.135	1313730	keystroke_Key.space	Key.space	n/a
657.284	0.106	1314568	keystroke_g	g	n/a
657.54	0.059	1315080	keystroke_u	u	n/a
658.079	0.076	1316158	keystroke_Key.backspace	Key.backspace	n/a
658.2	0.104	1316400	keystroke_e	e	n/a
658.364	0.076	1316728	keystroke_n	n	n/a
659.144	0.045	1318288	keystroke_u	u	n/a
659.3845	0.12	1318769	keystroke_i	i	n/a
659.4895	0.135	1318979	keystroke_n	n	n/a
659.6395	0.105	1319279	keystroke_e	e	n/a
659.8195	0.09	1319639	keystroke_Key.enter	Key.enter	n/a
659.918	15.263	1319836	prompt	n/a	spas profession territory alexander\n
660.7795	0.12	1321559	keystroke_s	s	n/a
660.9745	0.0745	1321949	keystroke_p	p	n/a
661.064	0.105	1322128	keystroke_a	a	n/a
661.319	0.106	1322638	keystroke_s	s	n/a
661.469	0.105	1322938	keystroke_Key.space	Key.space	n/a
661.994	0.12	1323988	keystroke_p	p	n/a
662.189	0.12	1324378	keystroke_r	r	n/a
662.28	0.0895	1324560	keystroke_o	o	n/a
662.519	0.09	1325038	keystroke_f	f	n/a
662.714	0.105	1325428	keystroke_f	f	n/a
663.044	0.12	1326088	keystroke_e	e	n/a
663.314	0.06	1326628	keystroke_s	s	n/a
663.449	0.091	1326898	keystroke_s	s	n/a
663.555	0.195	1327110	keystroke_i	i	n/a
663.69	0.09	1327380	keystroke_o	o	n/a
663.765	0.15	1327530	keystroke_n	n	n/a
663.9	0.134	1327800	keystroke_Key.space	Key.space	n/a
664.29	0.12	1328580	keystroke_t	t	n/a
664.425	0.164	1328850	keystroke_e	e	n/a
664.559	0.105	1329118	keystroke_r	r	n/a
666.5245	0.075	1333049	keystroke_Key.backspace	Key.backspace	n/a
666.6745	0.09	1333349	keystroke_Key.backspace	Key.backspace	n/a
666.8395	0.075	1333679	keystroke_Key.backspace	Key.backspace	n/a
667.0195	0.06	1334039	keystroke_Key.backspace	Key.backspace	n/a
667.1695	0.06	1334339	keystroke_Key.backspace	Key.backspace	n/a
667.3195	0.045	1334639	keystroke_Key.backspace	Key.backspace	n/a
667.4695	0.0745	1334939	keystroke_Key.backspace	Key.backspace	n/a
667.5295	0.2545	1335059	keystroke_Key.right	Key.right	n/a
667.604	0.075	1335208	keystroke_Key.backspace	Key.backspace	n/a
667.769	0.0755	1335538	keystroke_Key.backspace	Key.backspace	n/a
667.934	0.075	1335868	keystroke_Key.backspace	Key.backspace	n/a
668.3995	0.075	1336799	keystroke_Key.backspace	Key.backspace	n/a
669.1345	0.12	1338269	keystroke_e	e	n/a
669.3895	0.075	1338779	keystroke_s	s	n/a
669.5395	0.105	1339079	keystroke_s	s	n/a
669.6745	0.165	1339349	keystroke_i	i	n/a
669.7795	0.12	1339559	keystroke_o	o	n/a
669.8845	0.12	1339769	keystroke_n	n	n/a
670.0195	0.09	1340039	keystroke_Key.space	Key.space	n/a
670.634	0.105	1341268	keystroke_t	t	n/a
670.754	0.03	1341508	keystroke_e	e	n/a
671.4595	0.0745	1342919	keystroke_r	r	n/a
671.639	0.075	1343278	keystroke_r	r	n/a
671.744	0.076	1343488	keystroke_i	i	n/a
671.9245	0.105	1343849	keystroke_t	t	n/a
672.1045	0.105	1344209	keystroke_o	o	n/a
672.2395	0.12	1344479	keystroke_r	r	n/a
672.4045	0.075	1344809	keystroke_y	y	n/a
672.5095	0.12	1345019	keystroke_Key.space	Key.space	n/a
672.7645	0.105	1345529	keystroke_a	a	n/a
672.8845	0.09	1345769	keystroke_l	l	n/a
673.1695	0.105	1346339	keystroke_e	e	n/a
673.4095	0.135	1346819	keystroke_x	x	n/a
673.6795	0.09	1347359	keystroke_a	a	n/a
673.7995	0.075	1347599	keystroke_n	n	n/a
673.9045	0.105	1347809	keystroke_d	d	n/a
674.1295	0.1805	1348259	keystroke_e	e	n/a
674.9245	0.105	1349849	keystroke_r	r	n/a
675.0895	0.09	1350179	keystroke_Key.enter	Key.enter	n/a
675.1865	15.52	1350373	prompt	n/a	password loving lightning validity\n
676.034	0.135	1352068	keystroke_p	p	n/a
676.244	0.105	1352488	keystroke_a	a	n/a
676.484	0.06	1352968	keystroke_s	s	n/a
676.634	0.105	1353268	keystroke_s	s	n/a
677.099	0.105	1354198	keystroke_w	w	n/a
677.249	0.075	1354498	keystroke_o	o	n/a
677.399	0.09	1354798	keystroke_r	r	n/a
677.639	0.09	1355278	keystroke_d	d	n/a
677.744	0.12	1355488	keystroke_Key.space	Key.space	n/a
