onset	duration	sample	value	key	prompt_text
1.4455	11.697	2891	prompt	n/a	the quick brown fox jumps over a lazy dog\n
2.9995	0.027	5999	keystroke	t	n/a
3.0705	0.06	6141	keystroke	h	n/a
3.1455	0.106	6291	keystroke	e	n/a
3.2805	0.075	6561	keystroke	Key.space	n/a
3.716	0.105	7432	keystroke	q	n/a
3.9405	0.075	7881	keystroke	u	n/a
4.121	0.09	8242	keystroke	i	n/a
4.2715	0.075	8543	keystroke	c	n/a
4.3615	0.105	8723	keystroke	k	n/a
4.5705	0.106	9141	keystroke	Key.space	n/a
4.8115	0.09	9623	keystroke	b	n/a
5.0665	0.075	10133	keystroke	r	n/a
5.2015	0.09	10403	keystroke	o	n/a
5.3365	0.075	10673	keystroke	w	n/a
5.4415	0.075	10883	keystroke	n	n/a
5.6365	0.0605	11273	keystroke	Key.space	n/a
5.893	0.06	11786	keystroke	f	n/a
5.9825	0.09	11965	keystroke	o	n/a
6.254	0.09	12508	keystroke	x	n/a
6.419	0.075	12838	keystroke	Key.space	n/a
6.734	0.09	13468	keystroke	j	n/a
6.944	0.091	13888	keystroke	u	n/a
7.185	0.074	14370	keystroke	m	n/a
7.424	0.075	14848	keystroke	p	n/a
7.544	0.075	15088	keystroke	e	n/a
7.709	0.105	15418	keystroke	d	n/a
7.784	0.075	15568	keystroke	Key.space	n/a
9.389	0.09	18778	keystroke	o	n/a
9.48	0.074	18960	keystroke	v	n/a
9.659	0.151	19318	keystroke	e	n/a
9.749	0.09	19498	keystroke	r	n/a
9.869	0.06	19738	keystroke	Key.space	n/a
10.0945	0.12	20189	keystroke	a	n/a
10.2295	0.06	20459	keystroke	Key.space	n/a
10.4395	0.105	20879	keystroke	l	n/a
10.8295	0.09	21659	keystroke	a	n/a
11.1445	0.105	22289	keystroke	z	n/a
11.4145	0.06	22829	keystroke	y	n/a
11.6245	0.09	23249	keystroke	Key.space	n/a
11.8045	0.105	23609	keystroke	d	n/a
11.9395	0.0905	23879	keystroke	o	n/a
12.12	0.06	24240	keystroke	g	n/a
13.095	0.044	26190	keystroke	Key.enter	n/a
13.149	8.918	26298	prompt	n/a	marie screen portrait mall\n
13.875	0.075	27750	keystroke	m	n/a
13.995	0.105	27990	keystroke	a	n/a
14.144	0.106	28288	keystroke	r	n/a
14.264	0.106	28528	keystroke	i	n/a
14.415	0.09	28830	keystroke	e	n/a
14.85	0.09	29700	keystroke	Key.space	n/a
15.18	0.075	30360	keystroke	s	n/a
15.39	0.09	30780	keystroke	c	n/a
15.63	0.135	31260	keystroke	r	n/a
15.705	0.15	31410	keystroke	e	n/a
16.275	0.075	32550	keystroke	e	n/a
16.47	0.06	32940	keystroke	n	n/a
16.65	0.075	33300	keystroke	Key.space	n/a
16.845	0.09	33690	keystroke	p	n/a
17.115	0.075	34230	keystroke	o	n/a
17.685	0.09	35370	keystroke	t	n/a
17.985	0.09	35970	keystroke	r	n/a
18.45	0.06	36900	keystroke	Key.backspace	n/a
18.57	0.09	37140	keystroke	Key.backspace	n/a
18.735	0.075	37470	keystroke	r	n/a
19.095	0.09	38190	keystroke	t	n/a
19.335	0.105	38670	keystroke	r	n/a
19.65	0.105	39300	keystroke	a	n/a
19.77	0.09	39540	keystroke	i	n/a
20.265	0.075	40530	keystroke	t	n/a
20.475	0.075	40950	keystroke	Key.space	n/a
20.82	0.075	41640	keystroke	m	n/a
21.015	0.105	42030	keystroke	a	n/a
21.15	0.09	42300	keystroke	l	n/a
21.3	0.075	42600	keystroke	l	n/a
22.005	0.06	44010	keystroke	Key.enter	n/a
22.0715	11.546	44143	prompt	n/a	endless subdivision livestock pregnancy\n
22.815	0.075	45630	keystroke	e	n/a
23.88	0.06	47760	keystroke	n	n/a
24.03	0.105	48060	keystroke	d	n/a
24.21	0.09	48420	keystroke	l	n/a
24.39	0.105	48780	keystroke	e	n/a
24.675	0.06	49350	keystroke	s	n/a
24.795	0.075	49590	keystroke	s	n/a
24.9	0.09	49800	keystroke	Key.space	n/a
25.14	0.09	50280	keystroke	s	n/a
25.32	0.09	50640	keystroke	u	n/a
25.92	0.06	51840	keystroke	b	n/a
26.115	0.075	52230	keystroke	g	n/a
26.775	0.09	53550	keystroke	Key.backspace	n/a
26.91	0.09	53820	keystroke	d	n/a
27.075	0.09	54150	keystroke	i	n/a
27.225	0.09	54450	keystroke	v	n/a
27.435	0.075	54870	keystroke	i	n/a
28.11	0.09	56220	keystroke	s	n/a
28.185	0.105	56370	keystroke	i	n/a
28.26	0.12	56520	keystroke	o	n/a
28.365	0.075	56730	keystroke	n	n/a
28.545	0.075	57090	keystroke	Key.space	n/a
28.8	0.075	57600	keystroke	l	n/a
28.98	0.09	57960	keystroke	i	n/a
29.16	0.075	58320	keystroke	v	n/a
29.31	0.105	58620	keystroke	e	n/a
29.715	0.09	59430	keystroke	s	n/a
29.88	0.105	59760	keystroke	t	n/a
30.285	0.09	60570	keystroke	o	n/a
30.645	0.09	61290	keystroke	c	n/a
30.765	0.075	61530	keystroke	k	n/a
31.08	0.06	62160	keystroke	Key.space	n/a
31.305	0.075	62610	keystroke	p	n/a
31.41	0.12	62820	keystroke	r	n/a
31.47	0.105	62940	keystroke	e	n/a
31.785	0.09	63570	keystroke	g	n/a
32.19	0.12	64380	keystroke	n	n/a
32.445	0.105	64890	keystroke	a	n/a
32.595	0.09	65190	keystroke	n	n/a
32.715	0.15	65430	keystroke	c	n/a
32.835	0.105	65670	keystroke	e	n/a
33.555	0.06	67110	keystroke	Key.enter	n/a
33.6235	11.9195	67247	prompt	n/a	regarded parker suzuki swedish\n
34.41	0.09	68820	keystroke	r	n/a
34.44	0.105	68880	keystroke	e	n/a
34.845	0.105	69690	keystroke	a	n/a
35.04	0.105	70080	keystroke	r	n/a
35.52	0.06	71040	keystroke	Key.backspace	n/a
35.655	0.06	71310	keystroke	Key.backspace	n/a
35.79	0.075	71580	keystroke	g	n/a
36.015	0.15	72030	keystroke	a	n/a
36.195	0.09	72390	keystroke	r	n/a
36.42	0.105	72840	keystroke	d	n/a
36.63	0.105	73260	keystroke	e	n/a
36.87	0.09	73740	keystroke	d	n/a
37.065	0.075	74130	keystroke	Key.space	n/a
37.32	0.09	74640	keystroke	p	n/a
37.455	0.105	74910	keystroke	a	n/a
37.605	0.105	75210	keystroke	r	n/a
37.815	0.0745	75630	keystroke	t	n/a
37.9805	0.135	75961	keystroke	e	n/a
38.0545	0.075	76109	keystroke	r	n/a
38.2945	0.075	76589	keystroke	Key.space	n/a
38.6395	0.075	77279	keystroke	Key.backspace	n/a
38.7895	0.075	77579	keystroke	Key.backspace	n/a
38.9395	0.06	77879	keystroke	Key.backspace	n/a
39.0745	0.075	78149	keystroke	Key.backspace	n/a
39.3455	0.089	78691	keystroke	k	n/a
39.4795	0.12	78959	keystroke	e	n/a
39.5395	0.105	79079	keystroke	r	n/a
39.7495	0.06	79499	keystroke	Key.space	n/a
40.5595	0.09	81119	keystroke	s	n/a
40.7695	0.075	81539	keystroke	u	n/a
41.0395	0.12	82079	keystroke	z	n/a
41.8195	0.061	83639	keystroke	u	n/a
42.0445	0.06	84089	keystroke	k	n/a
42.2095	0.075	84419	keystroke	i	n/a
42.4045	0.09	84809	keystroke	Key.space	n/a
42.6145	0.075	85229	keystroke	s	n/a
42.9445	0.09	85889	keystroke	w	n/a
43.5455	0.059	87091	keystroke	e	n/a
44.1595	0.076	88319	keystroke	d	n/a
44.4155	0.059	88831	keystroke	i	n/a
44.5195	0.091	89039	keystroke	s	n/a
44.6855	0.074	89371	keystroke	h	n/a
45.4795	0.06	90959	keystroke	Key.enter	n/a
45.549	7.853	91098	prompt	n/a	milk chassis respondent cent\n
46.2455	0.059	92491	keystroke	m	n/a
46.4095	0.091	92819	keystroke	i	n/a
46.5905	0.089	93181	keystroke	l	n/a
46.8155	0.089	93631	keystroke	k	n/a
47.0545	0.075	94109	keystroke	Key.space	n/a
47.4145	0.075	94829	keystroke	c	n/a
47.6095	0.045	95219	keystroke	h	n/a
47.7145	0.121	95429	keystroke	a	n/a
47.9695	0.061	95939	keystroke	s	n/a
48.1045	0.06	96209	keystroke	s	n/a
48.2095	0.091	96419	keystroke	i	n/a
48.3155	0.074	96631	keystroke	s	n/a
48.4495	0.075	96899	keystroke	Key.space	n/a
49.8155	0.104	99631	keystroke	r	n/a
49.8755	0.09	99751	keystroke	e	n/a
50.0845	0.091	100169	keystroke	s	n/a
50.4755	0.089	100951	keystroke	p	n/a
50.6995	0.09	101399	keystroke	o	n/a
50.8645	0.076	101729	keystroke	n	n/a
51.0305	0.104	102061	keystroke	d	n/a
51.2545	0.091	102509	keystroke	e	n/a
51.8545	0.06	103709	keystroke	n	n/a
51.9755	0.089	103951	keystroke	t	n/a
52.0795	0.075	104159	keystroke	Key.space	n/a
52.3205	0.075	104641	keystroke	c	n/a
52.5005	0.09	105001	keystroke	e	n/a
52.6355	0.074	105271	keystroke	n	n/a
52.7545	0.091	105509	keystroke	t	n/a
53.3395	0.06	106679	keystroke	Key.enter	n/a
53.4075	13.39	106815	prompt	n/a	gardens prices cemetery brought\n
54.1355	0.059	108271	keystroke	g	n/a
54.4655	0.09	108931	keystroke	a	n/a
54.6295	0.061	109259	keystroke	r	n/a
54.9005	0.074	109801	keystroke	d	n/a
55.6195	0.076	111239	keystroke	e	n/a
55.7695	0.075	111539	keystroke	n	n/a
55.9795	0.091	111959	keystroke	s	n/a
56.1305	0.059	112261	keystroke	Key.space	n/a
56.4905	0.09	112981	keystroke	p	n/a
56.6395	0.105	113279	keystroke	r	n/a
56.7005	0.105	113401	keystroke	e	n/a
56.8655	0.09	113731	keystroke	i	n/a
57.0605	0.105	114121	keystroke	c	n/a
57.2105	0.09	114421	keystroke	e	n/a
57.5695	0.061	115139	keystroke	Key.backspace	n/a
57.7195	0.061	115439	keystroke	Key.backspace	n/a
57.8695	0.075	115739	keystroke	Key.backspace	n/a
58.0195	0.075	116039	keystroke	Key.backspace	n/a
58.3195	0.075	116639	keystroke	i	n/a
58.4845	0.166	116969	keystroke	c	n/a
58.8005	0.045	117601	keystroke	e	n/a
59.1895	0.09	118379	keystroke	s	n/a
59.4145	0.06	118829	keystroke	Key.space	n/a
59.715	0.06	119430	keystroke	c	n/a
59.88	0.09	119760	keystroke	e	n/a
60.044	0.076	120088	keystroke	m	n/a
60.645	0.075	121290	keystroke	e	n/a
61.41	0.09	122820	keystroke	t	n/a
61.695	0.12	123390	keystroke	e	n/a
61.77	0.105	123540	keystroke	r	n/a
63.555	0.045	127110	keystroke	y	n/a
63.75	0.06	127500	keystroke	Key.space	n/a
64.005	0.075	128010	keystroke	b	n/a
64.23	0.075	128460	keystroke	r	n/a
64.425	0.12	128850	keystroke	o	n/a
64.485	0.12	128970	keystroke	u	n/a
64.695	0.06	129390	keystroke	g	n/a
64.845	0.06	129690	keystroke	h	n/a
65.025	0.075	130050	keystroke	t	n/a
65.16	0.059	130320	keystroke	Key.space	n/a
66.435	0.075	132870	keystroke	Key.backspace	n/a
66.735	0.06	133470	keystroke	Key.enter	n/a
66.803	7.479	133606	prompt	n/a	legends placed books recorded\n
67.455	0.09	134910	keystroke	l	n/a
67.575	0.075	135150	keystroke	e	n/a
67.875	0.075	135750	keystroke	g	n/a
68.025	0.105	136050	keystroke	e	n/a
68.19	0.075	136380	keystroke	n	n/a
68.4	0.09	136800	keystroke	d	n/a
68.535	0.12	137070	keystroke	s	n/a
68.685	0.075	137370	keystroke	Key.space	n/a
68.94	0.09	137880	keystroke	p	n/a
69.12	0.09	138240	keystroke	l	n/a
69.24	0.135	138480	keystroke	a	n/a
69.36	0.135	138720	keystroke	c	n/a
69.465	0.09	138930	keystroke	e	n/a
69.675	0.09	139350	keystroke	d	n/a
69.81	0.09	139620	keystroke	Key.space	n/a
70.08	0.075	140160	keystroke	b	n/a
70.29	0.075	140580	keystroke	o	n/a
70.425	0.075	140850	keystroke	o	n/a
70.56	0.105	141120	keystroke	k	n/a
70.725	0.09	141450	keystroke	s	n/a
70.83	0.06	141660	keystroke	Key.space	n/a
71.07	0.09	142140	keystroke	r	n/a
71.1	0.12	142200	keystroke	e	n/a
71.7	0.075	143400	keystroke	c	n/a
71.97	0.09	143940	keystroke	o	n/a
72.885	0.075	145770	keystroke	r	n/a
73.11	0.075	146220	keystroke	d	n/a
73.305	0.09	146610	keystroke	e	n/a
73.545	0.06	147090	keystroke	d	n/a
74.22	0.06	148440	keystroke	Key.enter	n/a
74.292	14.2695	148584	prompt	n/a	meaning engagement upgrade hasn't\n
75.105	0.06	150210	keystroke	m	n/a
75.24	0.105	150480	keystroke	e	n/a
75.375	0.15	150750	keystroke	a	n/a
75.54	0.075	151080	keystroke	n	n/a
75.72	0.09	151440	keystroke	i	n/a
75.81	0.09	151620	keystroke	n	n/a
75.915	0.09	151830	keystroke	g	n/a
76.065	0.09	152130	keystroke	Key.space	n/a
76.92	0.075	153840	keystroke	e	n/a
77.04	0.075	154080	keystroke	n	n/a
77.19	0.075	154380	keystroke	g	n/a
77.37	0.15	154740	keystroke	a	n/a
78.39	0.075	156780	keystroke	g	n/a
78.645	0.075	157290	keystroke	e	n/a
78.975	0.075	157950	keystroke	m	n/a
79.065	0.12	158130	keystroke	e	n/a
79.2	0.091	158400	keystroke	n	n/a
79.335	0.06	158670	keystroke	t	n/a
79.425	0.06	158850	keystroke	Key.space	n/a
79.785	0.09	159570	keystroke	u	n/a
79.95	0.105	159900	keystroke	p	n/a
80.31	0.06	160620	keystroke	g	n/a
80.565	0.12	161130	keystroke	r	n/a
80.745	0.12	161490	keystroke	e	n/a
81.015	0.1045	162030	keystroke	a	n/a
81.18	0.075	162360	keystroke	d	n/a
81.36	0.075	162720	keystroke	e	n/a
81.69	0.075	163380	keystroke	Key.space	n/a
81.99	0.075	163980	keystroke	h	n/a
82.68	0.09	165360	keystroke	Key.backspace	n/a
82.83	0.075	165660	keystroke	Key.backspace	n/a
82.98	0.09	165960	keystroke	Key.backspace	n/a
84.12	0.075	168240	keystroke	Key.backspace	n/a
84.2845	0.075	168569	keystroke	Key.backspace	n/a
84.5395	0.075	169079	keystroke	Key.backspace	n/a
84.8545	0.135	169709	keystroke	a	n/a
85.0195	0.105	170039	keystroke	d	n/a
85.2145	0.09	170429	keystroke	e	n/a
85.3345	0.09	170669	keystroke	Key.space	n/a
85.9795	0.075	171959	keystroke	h	n/a
86.0845	0.195	172169	keystroke	a	n/a
86.2495	0.15	172499	keystroke	s	n/a
86.4595	0.09	172919	keystroke	n	n/a
86.7445	0.075	173489	keystroke	'	n/a
86.9245	0.09	173849	keystroke	t	n/a
87.1345	0.045	174269	keystroke	Key.space	n/a
88.1845	0.045	176369	keystroke	Key.backspace	n/a
88.4995	0.06	176999	keystroke	Key.enter	n/a
88.567	15.61	177134	prompt	n/a	series norway egyptian supply\n
89.3395	0.075	178679	keystroke	s	n/a
89.5045	0.15	179009	keystroke	e	n/a
89.5945	0.12	179189	keystroke	r	n/a
89.9395	0.075	179879	keystroke	i	n/a
90.0745	0.09	180149	keystroke	e	n/a
90.2545	0.105	180509	keystroke	s	n/a
90.4045	0.09	180809	keystroke	Key.space	n/a
90.6745	0.06	181349	keystroke	n	n/a
90.9295	0.09	181859	keystroke	o	n/a
91.1095	0.075	182219	keystroke	r	n/a
91.7245	0.09	183449	keystroke	w	n/a
91.8895	0.12	183779	keystroke	a	n/a
92.0995	0.075	184199	keystroke	y	n/a
92.3395	0.075	184679	keystroke	Key.space	n/a
92.5345	0.075	185069	keystroke	e	n/a
93.4195	0.105	186839	keystroke	g	n/a
93.8245	0.06	187649	keystroke	y	n/a
94.1095	0.105	188219	keystroke	p	n/a
94.4545	0.09	188909	keystroke	t	n/a
94.5145	0.15	189029	keystroke	i	n/a
94.5895	0.15	189179	keystroke	o	n/a
94.7245	0.075	189449	keystroke	n	n/a
95.4595	0.075	190919	keystroke	Key.backspace	n/a
95.6395	0.06	191279	keystroke	Key.backspace	n/a
96.1045	0.105	192209	keystroke	a	n/a
96.2995	0.015	192599	keystroke	n	n/a
96.8845	0.06	193769	keystroke	Key.space	n/a
97.0645	0.105	194129	keystroke	s	n/a
97.1845	0.09	194369	keystroke	u	n/a
102.4975	0.012	204995	keystroke	p	n/a
102.5695	0.075	205139	keystroke	p	n/a
102.7345	0.09	205469	keystroke	l	n/a
102.9595	0.09	205919	keystroke	y	n/a
104.1145	0.06	208229	keystroke	Key.enter	n/a
104.1825	8.229	208365	prompt	n/a	posted feeding accent exclusion\n
104.8945	0.075	209789	keystroke	p	n/a
105.1045	0.075	210209	keystroke	o	n/a
105.2095	0.105	210419	keystroke	s	n/a
105.3295	0.18	210659	keystroke	t	n/a
105.4945	0.075	210989	keystroke	e	n/a
105.7045	0.09	211409	keystroke	d	n/a
105.9445	0.06	211889	keystroke	Key.space	n/a
106.3645	0.09	212729	keystroke	f	n/a
106.6345	0.06	213269	keystroke	e	n/a
106.7395	0.075	213479	keystroke	e	n/a
106.9195	0.09	213839	keystroke	d	n/a
107.0995	0.12	214199	keystroke	i	n/a
107.2045	0.09	214409	keystroke	n	n/a
107.3245	0.075	214649	keystroke	g	n/a
107.4445	0.075	214889	keystroke	Key.space	n/a
108.2245	0.135	216449	keystroke	a	n/a
108.4495	0.09	216899	keystroke	c	n/a
108.7645	0.075	217529	keystroke	c	n/a
108.9745	0.09	217949	keystroke	e	n/a
109.1845	0.075	218369	keystroke	n	n/a
109.3195	0.075	218639	keystroke	t	n/a
109.5595	0.075	219119	keystroke	Key.space	n/a
109.7545	0.06	219509	keystroke	e	n/a
110.0545	0.105	220109	keystroke	x	n/a
110.3995	0.06	220799	keystroke	c	n/a
110.8795	0.075	221759	keystroke	l	n/a
111.0745	0.075	222149	keystroke	u	n/a
111.2845	0.09	222569	keystroke	s	n/a
111.4045	0.165	222809	keystroke	i	n/a
111.5245	0.12	223049	keystroke	o	n/a
111.5995	0.09	223199	keystroke	n	n/a
112.3345	0.075	224669	keystroke	Key.enter	n/a
112.417	12.4595	224834	prompt	n/a	security configured macedonia implementation\n
113.1595	0.075	226319	keystroke	s	n/a
113.3395	0.165	226679	keystroke	e	n/a
113.6695	0.09	227339	keystroke	c	n/a
114.4195	0.076	228839	keystroke	u	n/a
114.6895	0.075	229379	keystroke	r	n/a
114.7795	0.09	229559	keystroke	i	n/a
114.9145	0.075	229829	keystroke	t	n/a
115.0045	0.075	230009	keystroke	y	n/a
115.2445	0.075	230489	keystroke	Key.space	n/a
115.4095	0.06	230819	keystroke	c	n/a
115.4845	0.12	230969	keystroke	o	n/a
115.5595	0.09	231119	keystroke	n	n/a
115.8745	0.075	231749	keystroke	f	n/a
116.1595	0.075	232319	keystroke	i	n/a
116.7145	0.06	233429	keystroke	g	n/a
117.2095	0.075	234419	keystroke	u	n/a
117.3605	0.104	234721	keystroke	r	n/a
117.4045	0.106	234809	keystroke	e	n/a
117.6455	0.089	235291	keystroke	d	n/a
117.7645	0.075	235529	keystroke	Key.space	n/a
118.1545	0.075	236309	keystroke	m	n/a
118.6945	0.15	237389	keystroke	a	n/a
118.8145	0.165	237629	keystroke	c	n/a
119.6395	0.06	239279	keystroke	e	n/a
119.9995	0.075	239999	keystroke	d	n/a
120.2695	0.12	240539	keystroke	o	n/a
120.3745	0.09	240749	keystroke	n	n/a
120.6295	0.091	241259	keystroke	i	n/a
120.7795	0.105	241559	keystroke	a	n/a
121.0645	0.075	242129	keystroke	Key.space	n/a
121.3655	0.104	242731	keystroke	i	n/a
121.5905	0.089	243181	keystroke	m	n/a
121.7705	0.104	243541	keystroke	p	n/a
121.9795	0.091	243959	keystroke	l	n/a
122.1595	0.09	244319	keystroke	i	n/a
122.3995	0.075	244799	keystroke	m	n/a
122.5645	0.12	245129	keystroke	e	n/a
122.6995	0.076	245399	keystroke	n	n/a
122.8655	0.119	245731	keystroke	t	n/a
123.5545	0.121	247109	keystroke	a	n/a
123.7345	0.105	247469	keystroke	t	n/a
123.7795	0.135	247559	keystroke	i	n/a
123.8695	0.151	247739	keystroke	o	n/a
123.9595	0.106	247919	keystroke	n	n/a
124.7995	0.075	249599	keystroke	Key.enter	n/a
124.8935	10.6785	249787	prompt	n/a	barely mortgages biography miracle\n
125.7005	0.074	251401	keystroke	b	n/a
125.8195	0.105	251639	keystroke	a	n/a
125.9995	0.09	251999	keystroke	r	n/a
126.0595	0.121	252119	keystroke	e	n/a
126.2545	0.09	252509	keystroke	l	n/a
126.4645	0.061	252929	keystroke	y	n/a
126.6595	0.075	253319	keystroke	Key.space	n/a
126.9455	0.044	253891	keystroke	m	n/a
127.2605	0.074	254521	keystroke	o	n/a
127.9045	0.075	255809	keystroke	r	n/a
128.0995	0.09	256199	keystroke	t	n/a
129.1795	0.075	258359	keystroke	g	n/a
129.3445	0.135	258689	keystroke	a	n/a
129.6455	0.075	259291	keystroke	g	n/a
129.8545	0.091	259709	keystroke	e	n/a
130.0495	0.091	260099	keystroke	s	n/a
130.1845	0.06	260369	keystroke	Key.space	n/a
130.4705	0.089	260941	keystroke	b	n/a
130.6805	0.09	261361	keystroke	i	n/a
130.9355	0.089	261871	keystroke	o	n/a
131.2795	0.091	262559	keystroke	g	n/a
131.5355	0.09	263071	keystroke	r	n/a
132.1495	0.075	264299	keystroke	a	n/a
132.3155	0.089	264631	keystroke	p	n/a
132.4955	0.089	264991	keystroke	h	n/a
132.7345	0.061	265469	keystroke	y	n/a
132.9595	0.09	265919	keystroke	Key.space	n/a
133.2295	0.061	266459	keystroke	m	n/a
133.4105	0.09	266821	keystroke	i	n/a
134.0705	0.06	268141	keystroke	r	n/a
134.3405	0.135	268681	keystroke	a	n/a
134.4905	0.164	268981	keystroke	c	n/a
134.7745	0.091	269549	keystroke	l	n/a
134.9105	0.09	269821	keystroke	e	n/a
135.5105	0.059	271021	keystroke	Key.enter	n/a
135.576	12.251	271152	prompt	n/a	ontario attachment athletics ideal\n
136.2445	0.106	272489	keystroke	o	n/a
136.4095	0.091	272819	keystroke	n	n/a
136.7255	0.089	273451	keystroke	t	n/a
136.9505	0.134	273901	keystroke	a	n/a
137.4305	0.06	274861	keystroke	r	n/a
137.7005	0.105	275401	keystroke	i	n/a
137.8945	0.106	275789	keystroke	o	n/a
138.0605	0.09	276121	keystroke	Key.space	n/a
138.2705	0.105	276541	keystroke	a	n/a
138.5105	0.06	277021	keystroke	t	n/a
138.6305	0.075	277261	keystroke	t	n/a
138.9155	0.195	277831	keystroke	a	n/a
139.2155	0.104	278431	keystroke	c	n/a
139.4705	0.075	278941	keystroke	h	n/a
139.7405	0.075	279481	keystroke	m	n/a
139.8605	0.105	279721	keystroke	e	n/a
139.9805	0.06	279961	keystroke	m	n/a
140.5505	0.045	281101	keystroke	t	n/a
141.0595	0.075	282119	keystroke	Key.backspace	n/a
141.3145	0.06	282629	keystroke	Key.backspace	n/a
141.5845	0.091	283169	keystroke	n	n/a
141.8255	0.075	283651	keystroke	t	n/a
142.0645	0.06	284129	keystroke	Key.space	n/a
142.5905	0.105	285181	keystroke	a	n/a
142.7705	0.089	285541	keystroke	t	n/a
142.8905	0.075	285781	keystroke	h	n/a
143.7905	0.059	287581	keystroke	l	n/a
143.9405	0.09	287881	keystroke	e	n/a
145.2905	0.09	290581	keystroke	t	n/a
145.5005	0.075	291001	keystroke	i	n/a
145.6655	0.09	291331	keystroke	c	n/a
145.9355	0.075	291871	keystroke	s	n/a
146.1305	0.059	292261	keystroke	Key.space	n/a
146.5205	0.075	293041	keystroke	i	n/a
146.6405	0.09	293281	keystroke	d	n/a
146.8355	0.105	293671	keystroke	e	n/a
147.0005	0.105	294001	keystroke	a	n/a
147.1505	0.09	294301	keystroke	l	n/a
147.7655	0.06	295531	keystroke	Key.enter	n/a
147.833	8.079	295666	prompt	n/a	likes header tyler bonds\n
148.5155	0.075	297031	keystroke	l	n/a
148.6955	0.075	297391	keystroke	i	n/a
148.8605	0.09	297721	keystroke	k	n/a
148.9655	0.09	297931	keystroke	e	n/a
149.1155	0.09	298231	keystroke	s	n/a
149.2205	0.074	298441	keystroke	Key.space	n/a
149.5805	0.015	299161	keystroke	h	n/a
150.0005	0.105	300001	keystroke	e	n/a
150.1505	0.135	300301	keystroke	a	n/a
150.4055	0.09	300811	keystroke	d	n/a
150.6155	0.12	301231	keystroke	e	n/a
150.69	0.0905	301380	keystroke	r	n/a
150.9455	0.0745	301891	keystroke	Key.space	n/a
151.2155	0.06	302431	keystroke	t	n/a
151.3365	0.074	302673	keystroke	y	n/a
151.56	0.09	303120	keystroke	l	n/a
151.71	0.1355	303420	keystroke	e	n/a
151.8	0.09	303600	keystroke	r	n/a
151.935	0.09	303870	keystroke	Key.space	n/a
152.4	0.045	304800	keystroke	n	n/a
152.55	0.105	305100	keystroke	o	n/a
152.715	0.12	305430	keystroke	n	n/a
153.15	0.0755	306300	keystroke	Key.backspace	n/a
153.285	0.09	306570	keystroke	Key.backspace	n/a
153.75	0.075	307500	keystroke	Key.backspace	n/a
154.05	0.06	308100	keystroke	b	n/a
154.1855	0.1345	308371	keystroke	o	n/a
154.305	0.075	308610	keystroke	n	n/a
154.56	0.105	309120	keystroke	d	n/a
154.785	0.09	309570	keystroke	s	n/a
155.8495	0.06	311699	keystroke	Key.enter	n/a
155.9165	9.2955	311833	prompt	n/a	moss authorized seasons elvis\n
156.6905	0.044	313381	keystroke	m	n/a
156.8545	0.09	313709	keystroke	o	n/a
157.0495	0.075	314099	keystroke	s	n/a
157.1845	0.075	314369	keystroke	s	n/a
157.2895	0.09	314579	keystroke	Key.space	n/a
157.4845	0.075	314969	keystroke	a	n/a
157.6195	0.075	315239	keystroke	i	n/a
157.9195	0.091	315839	keystroke	t	n/a
158.3395	0.06	316679	keystroke	Key.backspace	n/a
158.4745	0.06	316949	keystroke	Key.backspace	n/a
158.7145	0.031	317429	keystroke	u	n/a
158.7155	0.03	317431	keystroke	i	n/a
159.3445	0.075	318689	keystroke	Key.backspace	n/a
159.6145	0.075	319229	keystroke	t	n/a
159.7045	0.075	319409	keystroke	h	n/a
159.9445	0.09	319889	keystroke	o	n/a
160.2445	0.075	320489	keystroke	r	n/a
160.3795	0.09	320759	keystroke	i	n/a
160.6195	0.12	321239	keystroke	z	n/a
160.8455	0.074	321691	keystroke	e	n/a
161.0405	0.074	322081	keystroke	d	n/a
161.2045	0.075	322409	keystroke	Key.space	n/a
161.9545	0.075	323909	keystroke	s	n/a
162.2405	0.105	324481	keystroke	e	n/a
162.4345	0.105	324869	keystroke	a	n/a
162.6295	0.105	325259	keystroke	s	n/a
162.7955	0.119	325591	keystroke	o	n/a
162.8845	0.091	325769	keystroke	n	n/a
163.1545	0.075	326309	keystroke	s	n/a
163.3195	0.06	326639	keystroke	Key.space	n/a
163.784	0.06	327568	keystroke	e	n/a
163.934	0.105	327868	keystroke	l	n/a
164.144	0.075	328288	keystroke	v	n/a
164.429	0.09	328858	keystroke	i	n/a
164.609	0.09	329218	keystroke	s	n/a
165.149	0.06	330298	keystroke	Key.enter	n/a
165.2165	8.3045	330433	prompt	n/a	removed doesn't artist bios\n
165.914	0.045	331828	keystroke	r	n/a
165.93	0.119	331860	keystroke	e	n/a
166.515	0.059	333030	keystroke	m	n/a
166.724	0.09	333448	keystroke	o	n/a
166.874	0.075	333748	keystroke	v	n/a
167.024	0.09	334048	keystroke	e	n/a
167.204	0.09	334408	keystroke	d	n/a
167.309	0.09	334618	keystroke	Key.space	n/a
167.729	0.091	335458	keystroke	d	n/a
167.924	0.09	335848	keystroke	o	n/a
168.15	0.09	336300	keystroke	e	n/a
168.329	0.105	336658	keystroke	s	n/a
168.705	0.089	337410	keystroke	n	n/a
168.884	0.09	337768	keystroke	'	n/a
169.155	0.104	338310	keystroke	t	n/a
169.334	0.075	338668	keystroke	Key.space	n/a
169.829	0.091	339658	keystroke	a	n/a
170.069	0.076	340138	keystroke	r	n/a
170.279	0.075	340558	keystroke	t	n/a
170.504	0.075	341008	keystroke	i	n/a
170.654	0.106	341308	keystroke	s	n/a
170.849	0.075	341698	keystroke	t	n/a
171.524	0.06	343048	keystroke	Key.space	n/a
171.855	0.06	343710	keystroke	b	n/a
172.005	0.119	344010	keystroke	i	n/a
172.139	0.135	344278	keystroke	o	n/a
172.484	0.105	344968	keystroke	s	n/a
173.489	0.03	346978	keystroke	Key.enter	n/a
173.5255	14.6655	347051	prompt	n/a	probability causes adapters blond\n
174.165	0.089	348330	keystroke	p	n/a
174.45	0.059	348900	keystroke	r	n/a
174.929	0.076	349858	keystroke	o	n/a
175.199	0.076	350398	keystroke	b	n/a
175.409	0.105	350818	keystroke	a	n/a
176.654	0.061	353308	keystroke	b	n/a
176.909	0.06	353818	keystroke	l	n/a
178.14	0.06	356280	keystroke	i	n/a
178.379	0.091	356758	keystroke	t	n/a
178.529	0.075	357058	keystroke	y	n/a
178.874	0.06	357748	keystroke	Key.space	n/a
179.489	0.06	358978	keystroke	Key.backspace	n/a
179.654	0.075	359308	keystroke	Key.backspace	n/a
180.044	0.09	360088	keystroke	Key.backspace	n/a
180.735	0.074	361470	keystroke	l	n/a
181.229	0.075	362458	keystroke	Key.backspace	n/a
181.394	0.076	362788	keystroke	Key.backspace	n/a
181.559	0.075	363118	keystroke	Key.backspace	n/a
181.875	0.09	363750	keystroke	i	n/a
182.084	0.09	364168	keystroke	l	n/a
182.264	0.076	364528	keystroke	i	n/a
182.415	0.089	364830	keystroke	t	n/a
182.549	0.046	365098	keystroke	y	n/a
182.789	0.076	365578	keystroke	Key.space	n/a
183.585	0.075	367170	keystroke	c	n/a
183.765	0.12	367530	keystroke	a	n/a
183.99	0.075	367980	keystroke	u	n/a
184.184	0.105	368368	keystroke	s	n/a
184.335	0.12	368670	keystroke	e	n/a
184.515	0.104	369030	keystroke	s	n/a
184.664	0.075	369328	keystroke	Key.space	n/a
185.16	0.105	370320	keystroke	a	n/a
185.4	0.075	370800	keystroke	d	n/a
185.579	0.091	371158	keystroke	a	n/a
185.745	0.09	371490	keystroke	p	n/a
185.985	0.105	371970	keystroke	t	n/a
186.195	0.15	372390	keystroke	e	n/a
186.27	0.104	372540	keystroke	r	n/a
186.509	0.076	373018	keystroke	Key.space	n/a
186.78	0.074	373560	keystroke	b	n/a
186.929	0.106	373858	keystroke	l	n/a
187.124	0.106	374248	keystroke	o	n/a
187.29	0.12	374580	keystroke	n	n/a
187.485	0.09	374970	keystroke	d	n/a
188.129	0.06	376258	keystroke	Key.enter	n/a
188.195	12.8815	376390	prompt	n/a	discovered subscribe internship lonely\n
188.955	0.06	377910	keystroke	d	n/a
189.12	0.075	378240	keystroke	i	n/a
189.465	0.075	378930	keystroke	s	n/a
189.66	0.105	379320	keystroke	c	n/a
190.0345	0.075	380069	keystroke	o	n/a
190.1695	0.075	380339	keystroke	v	n/a
190.35	0.12	380700	keystroke	e	n/a
190.44	0.15	380880	keystroke	r	n/a
190.56	0.075	381120	keystroke	e	n/a
190.7245	0.0905	381449	keystroke	d	n/a
190.935	0.0585	381870	keystroke	Key.space	n/a
191.6995	0.075	383399	keystroke	s	n/a
191.8795	0.0905	383759	keystroke	u	n/a
192.1045	0.09	384209	keystroke	b	n/a
192.4185	0.061	384837	keystroke	s	n/a
192.615	0.0745	385230	keystroke	c	n/a
192.8395	0.09	385679	keystroke	r	n/a
192.9595	0.09	385919	keystroke	i	n/a
193.1845	0.0755	386369	keystroke	b	n/a
193.3345	0.075	386669	keystroke	e	n/a
193.4245	0.075	386849	keystroke	Key.space	n/a
193.6795	0.135	387359	keystroke	i	n/a
193.8145	0.105	387629	keystroke	n	n/a
194.0995	0.06	388199	keystroke	t	n/a
194.2645	0.149	388529	keystroke	e	n/a
194.3845	0.075	388769	keystroke	r	n/a
194.9695	0.075	389939	keystroke	n	n/a
195.1645	0.09	390329	keystroke	s	n/a
195.2995	0.12	390599	keystroke	h	n/a
195.9445	0.075	391889	keystroke	i	n/a
196.1245	0.09	392249	keystroke	p	n/a
198.9925	0	397985	keystroke	Key.space	n/a
199.5445	0.06	399089	keystroke	l	n/a
199.7245	0.12	399449	keystroke	o	n/a
199.8295	0.09	399659	keystroke	n	n/a
199.9495	0.12	399899	keystroke	e	n/a
200.1445	0.09	400289	keystroke	l	n/a
200.3245	0.075	400649	keystroke	y	n/a
201.0145	0.06	402029	keystroke	Key.enter	n/a
201.0825	11.019	402165	prompt	n/a	passenger winds bali permalink\n
201.8395	0.075	403679	keystroke	p	n/a
201.9895	0.135	403979	keystroke	a	n/a
202.2745	0.045	404549	keystroke	s	n/a
202.3945	0.09	404789	keystroke	s	n/a
202.5745	0.09	405149	keystroke	e	n/a
202.7395	0.075	405479	keystroke	n	n/a
203.2945	0.06	406589	keystroke	g	n/a
203.5345	0.06	407069	keystroke	e	n/a
204.7945	0.09	409589	keystroke	Key.backspace	n/a
206.219	0.15	412438	keystroke	e	n/a
206.324	0.09	412648	keystroke	r	n/a
206.534	0.06	413068	keystroke	Key.space	n/a
207.359	0.105	414718	keystroke	w	n/a
207.539	0.105	415078	keystroke	i	n/a
207.734	0.09	415468	keystroke	n	n/a
207.884	0.076	415768	keystroke	d	n/a
207.989	0.09	415978	keystroke	s	n/a
208.109	0.075	416218	keystroke	Key.space	n/a
208.574	0.09	417148	keystroke	b	n/a
208.799	0.091	417598	keystroke	a	n/a
208.994	0.09	417988	keystroke	l	n/a
209.159	0.09	418318	keystroke	i	n/a
209.474	0.06	418948	keystroke	Key.space	n/a
209.819	0.09	419638	keystroke	p	n/a
210.014	0.105	420028	keystroke	e	n/a
210.059	0.105	420118	keystroke	r	n/a
210.614	0.06	421228	keystroke	m	n/a
210.779	0.09	421558	keystroke	a	n/a
210.884	0.09	421768	keystroke	l	n/a
211.049	0.105	422098	keystroke	i	n/a
211.184	0.12	422368	keystroke	n	n/a
211.319	0.105	422638	keystroke	k	n/a
212.039	0.06	424078	keystroke	Key.enter	n/a
212.108	15.458	424216	prompt	n/a	difficulty businesses politics fathers\n
212.9105	0.075	425821	keystroke	d	n/a
213.1045	0.075	426209	keystroke	i	n/a
213.3295	0.045	426659	keystroke	f	n/a
213.4495	0.06	426899	keystroke	f	n/a
213.5995	0.075	427199	keystroke	u	n/a
213.8245	0.105	427649	keystroke	c	n/a
214.0195	0.09	428039	keystroke	l	n/a
214.2295	0.091	428459	keystroke	t	n/a
214.3355	0.075	428671	keystroke	y	n/a
214.5745	0.075	429149	keystroke	Key.space	n/a
214.8145	0.076	429629	keystroke	b	n/a
215.0395	0.075	430079	keystroke	u	n/a
215.4145	0.075	430829	keystroke	Key.backspace	n/a
215.5645	0.075	431129	keystroke	Key.backspace	n/a
215.7295	0.075	431459	keystroke	Key.backspace	n/a
215.9095	0.0745	431819	keystroke	Key.backspace	n/a
216.449	0.06	432898	keystroke	Key.backspace	n/a
216.764	0.06	433528	keystroke	Key.backspace	n/a
216.914	0.06	433828	keystroke	Key.backspace	n/a
217.079	0.075	434158	keystroke	Key.backspace	n/a
217.8005	0.074	435601	keystroke	i	n/a
217.9945	0.0905	435989	keystroke	c	n/a
218.144	0.091	436288	keystroke	u	n/a
218.354	0.09	436708	keystroke	l	n/a
218.52	0.104	437040	keystroke	t	n/a
218.655	0.059	437310	keystroke	u	n/a
218.969	0.06	437938	keystroke	Key.space	n/a
219.359	0.075	438718	keystroke	Key.backspace	n/a
219.494	0.09	438988	keystroke	Key.backspace	n/a
220.125	0.06	440250	keystroke	y	n/a
220.62	0.074	441240	keystroke	Key.space	n/a
221.519	0.09	443038	keystroke	b	n/a
221.774	0.091	443548	keystroke	u	n/a
222.044	0.091	444088	keystroke	s	n/a
222.479	0.075	444958	keystroke	i	n/a
222.704	0.09	445408	keystroke	n	n/a
222.96	0.09	445920	keystroke	e	n/a
223.214	0.075	446428	keystroke	s	n/a
223.349	0.075	446698	keystroke	s	n/a
223.514	0.09	447028	keystroke	e	n/a
223.71	0.089	447420	keystroke	s	n/a
223.889	0.075	447778	keystroke	Key.space	n/a
224.144	0.09	448288	keystroke	p	n/a
224.354	0.09	448708	keystroke	o	n/a
224.535	0.089	449070	keystroke	l	n/a
224.714	0.075	449428	keystroke	i	n/a
224.895	0.074	449790	keystroke	t	n/a
224.984	0.076	449968	keystroke	i	n/a
225.165	0.089	450330	keystroke	c	n/a
225.329	0.09	450658	keystroke	s	n/a
225.449	0.06	450898	keystroke	Key.space	n/a
225.915	0.059	451830	keystroke	f	n/a
226.079	0.121	452158	keystroke	a	n/a
226.26	0.089	452520	keystroke	t	n/a
226.409	0.09	452818	keystroke	h	n/a
226.515	0.12	453030	keystroke	e	n/a
226.574	0.106	453148	keystroke	r	n/a
226.815	0.09	453630	keystroke	s	n/a
227.504	0.06	455008	keystroke	Key.enter	n/a
227.5715	9.8805	455143	prompt	n/a	keyboard descriptions boulder spaces\n
228.224	0.091	456448	keystroke	k	n/a
228.329	0.075	456658	keystroke	e	n/a
228.464	0.076	456928	keystroke	y	n/a
228.689	0.075	457378	keystroke	b	n/a
228.884	0.091	457768	keystroke	o	n/a
229.199	0.09	458398	keystroke	a	n/a
229.529	0.075	459058	keystroke	r	n/a
229.755	0.09	459510	keystroke	d	n/a
229.889	0.0605	459778	keystroke	Key.space	n/a
230.129	0.0755	460258	keystroke	d	n/a
230.3545	0.075	460709	keystroke	e	n/a
230.5795	0.0895	461159	keystroke	s	n/a
230.9995	0.059	461999	keystroke	c	n/a
231.2545	0.12	462509	keystroke	t	n/a
232.0185	0.075	464037	keystroke	Key.backspace	n/a
232.1395	0.074	464279	keystroke	r	n/a
232.3495	0.09	464699	keystroke	i	n/a
232.5445	0.09	465089	keystroke	p	n/a
232.8145	0.075	465629	keystroke	t	n/a
232.8445	0.135	465689	keystroke	i	n/a
232.9945	0.09	465989	keystroke	o	n/a
233.0535	0.091	466107	keystroke	n	n/a
233.2945	0.09	466589	keystroke	s	n/a
233.4285	0.06	466857	keystroke	Key.space	n/a
234.3145	0.09	468629	keystroke	b	n/a
234.5395	0.165	469079	keystroke	o	n/a
234.6595	0.074	469319	keystroke	u	n/a
234.8535	0.106	469707	keystroke	l	n/a
234.9895	0.09	469979	keystroke	d	n/a
235.1845	0.12	470369	keystroke	e	n/a
235.2595	0.09	470519	keystroke	r	n/a
235.3785	0.075	470757	keystroke	Key.space	n/a
235.5735	0.061	471147	keystroke	s	n/a
235.6345	0.12	471269	keystroke	p	n/a
235.8745	0.09	471749	keystroke	a	n/a
236.1145	0.104	472229	keystroke	c	n/a
236.2635	0.106	472527	keystroke	e	n/a
236.5185	0.091	473037	keystroke	s	n/a
237.3745	0.074	474749	keystroke	Key.enter	n/a
237.459	8.6775	474918	prompt	n/a	electro granny currency we'd\n
238.2295	0.075	476459	keystroke	e	n/a
238.5145	0.029	477029	keystroke	l	n/a
239.2045	0.075	478409	keystroke	e	n/a
239.3985	0.091	478797	keystroke	c	n/a
239.6245	0.09	479249	keystroke	t	n/a
239.8195	0.06	479639	keystroke	r	n/a
239.8945	0.089	479789	keystroke	o	n/a
240.1045	0.075	480209	keystroke	Key.space	n/a
240.2985	0.061	480597	keystroke	g	n/a
240.4795	0.09	480959	keystroke	r	n/a
240.7195	0.09	481439	keystroke	a	n/a
240.8995	0.074	481799	keystroke	n	n/a
241.0345	0.09	482069	keystroke	n	n/a
241.2595	0.03	482519	keystroke	y	n/a
241.4385	0.09	482877	keystroke	Key.space	n/a
242.0095	0.075	484019	keystroke	c	n/a
242.2045	0.075	484409	keystroke	u	n/a
242.4745	0.075	484949	keystroke	r	n/a
242.6095	0.075	485219	keystroke	r	n/a
242.8045	0.075	485609	keystroke	e	n/a
242.9395	0.075	485879	keystroke	n	n/a
243.0895	0.12	486179	keystroke	c	n/a
243.5095	0.06	487019	keystroke	y	n/a
243.8545	0.06	487709	keystroke	Key.space	n/a
244.0945	0.165	488189	keystroke	w	n/a
244.2445	0.12	488489	keystroke	e	n/a
244.4995	0.075	488999	keystroke	'	n/a
244.7545	0.06	489509	keystroke	d	n/a
244.8895	0.06	489779	keystroke	Key.space	n/a
245.8195	0.045	491639	keystroke	Key.backspace	n/a
246.0745	0.06	492149	keystroke	Key.enter	n/a
246.141	12.52	492282	prompt	n/a	warren redeem legislation adjacent\n
246.7495	0.09	493499	keystroke	w	n/a
246.9595	0.105	493919	keystroke	a	n/a
247.1845	0.06	494369	keystroke	r	n/a
247.3045	0.06	494609	keystroke	r	n/a
247.4245	0.06	494849	keystroke	n	n/a
247.5595	0.075	495119	keystroke	e	n/a
247.6645	0.075	495329	keystroke	Key.space	n/a
248.4595	0.09	496919	keystroke	Key.backspace	n/a
248.6245	0.06	497249	keystroke	Key.backspace	n/a
248.7745	0.075	497549	keystroke	Key.backspace	n/a
248.9245	0.044	497849	keystroke	Key.backspace	n/a
249.6745	0.09	499349	keystroke	r	n/a
249.8395	0.09	499679	keystroke	e	n/a
249.9745	0.09	499949	keystroke	n	n/a
250.2295	0.075	500459	keystroke	Key.space	n/a
251.2795	0.09	502559	keystroke	r	n/a
251.3245	0.12	502649	keystroke	e	n/a
251.6695	0.06	503339	keystroke	d	n/a
251.9395	0.06	503879	keystroke	e	n/a
252.0895	0.06	504179	keystroke	e	n/a
252.2695	0.075	504539	keystroke	m	n/a
252.4945	0.09	504989	keystroke	Key.space	n/a
252.7195	0.09	505439	keystroke	l	n/a
252.8695	0.09	505739	keystroke	e	n/a
253.3495	0.06	506699	keystroke	g	n/a
253.5145	0.075	507029	keystroke	i	n/a
253.6945	0.075	507389	keystroke	s	n/a
254.1595	0.075	508319	keystroke	l	n/a
254.6695	0.09	509339	keystroke	a	n/a
254.8945	0.09	509789	keystroke	t	n/a
254.9545	0.12	509909	keystroke	i	n/a
255.0445	0.135	510089	keystroke	o	n/a
255.1345	0.075	510269	keystroke	n	n/a
255.2995	0.06	510599	keystroke	Key.space	n/a
255.4945	0.075	510989	keystroke	a	n/a
255.6895	0.09	511379	keystroke	d	n/a
255.9895	0.06	511979	keystroke	j	n/a
256.9195	0.075	513839	keystroke	a	n/a
257.0545	0.075	514109	keystroke	c	n/a
257.5195	0.09	515039	keystroke	e	n/a
257.6695	0.075	515339	keystroke	n	n/a
257.8045	0.075	515609	keystroke	t	n/a
258.5995	0.06	517199	keystroke	Key.enter	n/a
258.6645	7.902	517329	prompt	n/a	stages secured movements animated\n
259.4545	0.06	518909	keystroke	s	n/a
259.6195	0.075	519239	keystroke	t	n/a
259.7995	0.135	519599	keystroke	a	n/a
259.9495	0.09	519899	keystroke	g	n/a
260.0995	0.09	520199	keystroke	e	n/a
260.2795	0.09	520559	keystroke	s	n/a
260.4145	0.075	520829	keystroke	Key.space	n/a
260.6095	0.06	521219	keystroke	s	n/a
260.7295	0.09	521459	keystroke	e	n/a
260.9845	0.105	521969	keystroke	c	n/a
261.2395	0.075	522479	keystroke	u	n/a
261.5695	0.06	523139	keystroke	r	n/a
261.8695	0.09	523739	keystroke	e	n/a
262.0945	0.09	524189	keystroke	d	n/a
262.2445	0.075	524489	keystroke	Key.space	n/a
262.5445	0.075	525089	keystroke	m	n/a
262.7395	0.075	525479	keystroke	o	n/a
263.0245	0.06	526049	keystroke	v	n/a
263.1895	0.075	526379	keystroke	e	n/a
263.4445	0.06	526889	keystroke	m	n/a
263.5945	0.09	527189	keystroke	e	n/a
263.7145	0.09	527429	keystroke	n	n/a
263.8645	0.09	527729	keystroke	t	n/a
264.0745	0.09	528149	keystroke	s	n/a
264.1945	0.075	528389	keystroke	Key.space	n/a
264.4945	0.09	528989	keystroke	a	n/a
264.6295	0.075	529259	keystroke	n	n/a
264.8695	0.09	529739	keystroke	i	n/a
265.0645	0.075	530129	keystroke	m	n/a
265.2895	0.105	530579	keystroke	a	n/a
265.4845	0.09	530969	keystroke	t	n/a
265.6495	0.135	531299	keystroke	e	n/a
265.9195	0.075	531839	keystroke	d	n/a
266.5045	0.06	533009	keystroke	Key.enter	n/a
266.574	6.6375	533148	prompt	n/a	swift item grove reporter\n
267.1645	0.075	534329	keystroke	s	n/a
267.4645	0.105	534929	keystroke	w	n/a
267.7045	0.075	535409	keystroke	i	n/a
267.9295	0.075	535859	keystroke	f	n/a
268.1395	0.075	536279	keystroke	t	n/a
268.2445	0.075	536489	keystroke	Key.space	n/a
268.5295	0.075	537059	keystroke	i	n/a
268.7095	0.09	537419	keystroke	t	n/a
268.8595	0.09	537719	keystroke	e	n/a
268.9945	0.075	537989	keystroke	m	n/a
269.1745	0.09	538349	keystroke	Key.space	n/a
269.4295	0.06	538859	keystroke	g	n/a
269.6245	0.09	539249	keystroke	r	n/a
269.7745	0.09	539549	keystroke	o	n/a
269.9095	0.105	539819	keystroke	v	n/a
270.0745	0.09	540149	keystroke	e	n/a
270.1945	0.06	540389	keystroke	Key.space	n/a
270.5395	0.075	541079	keystroke	r	n/a
270.5695	0.105	541139	keystroke	e	n/a
271.1095	0.075	542219	keystroke	p	n/a
271.3195	0.075	542639	keystroke	o	n/a
271.5445	0.06	543089	keystroke	r	n/a
271.7095	0.075	543419	keystroke	t	n/a
272.3545	0.165	544709	keystroke	e	n/a
272.4445	0.105	544889	keystroke	r	n/a
273.1345	0.075	546269	keystroke	Key.enter	n/a
273.2175	14.26	546435	prompt	n/a	personnel speaker gibson normally\n
273.9295	0.09	547859	keystroke	p	n/a
274.1395	0.135	548279	keystroke	e	n/a
274.2145	0.105	548429	keystroke	r	n/a
274.4845	0.075	548969	keystroke	s	n/a
274.6045	0.105	549209	keystroke	o	n/a
274.8455	0.059	549691	keystroke	n	n/a
274.9945	0.06	549989	keystroke	n	n/a
275.3995	0.045	550799	keystroke	a	n/a
275.6245	0.075	551249	keystroke	l	n/a
275.8345	0.075	551669	keystroke	Key.space	n/a
276.119	0.0755	552238	keystroke	s	n/a
276.2395	0.075	552479	keystroke	p	n/a
276.3745	0.12	552749	keystroke	e	n/a
276.569	0.12	553138	keystroke	a	n/a
277.319	0.0755	554638	keystroke	Key.backspace	n/a
277.4695	0.0745	554939	keystroke	Key.backspace	n/a
277.6345	0.0745	555269	keystroke	Key.backspace	n/a
277.889	0.0605	555778	keystroke	Key.backspace	n/a
278.0545	0.06	556109	keystroke	Key.backspace	n/a
278.2045	0.09	556409	keystroke	Key.backspace	n/a
278.5495	0.09	557099	keystroke	Key.backspace	n/a
278.6845	0.135	557369	keystroke	e	n/a
279.2395	0.075	558479	keystroke	o	n/a
280.3045	0.06	560609	keystroke	Key.backspace	n/a
280.649	0.0605	561298	keystroke	l	n/a
280.8895	0.0595	561779	keystroke	Key.space	n/a
281.789	0.0755	563578	keystroke	s	n/a
281.8795	0.09	563759	keystroke	p	n/a
281.9995	0.1045	563999	keystroke	e	n/a
282.1345	0.105	564269	keystroke	a	n/a
282.254	0.0905	564508	keystroke	k	n/a
282.434	0.1205	564868	keystroke	e	n/a
282.4945	0.1045	564989	keystroke	r	n/a
282.704	0.06	565408	keystroke	Key.space	n/a
283.0345	0.075	566069	keystroke	g	n/a
283.184	0.09	566368	keystroke	i	n/a
283.4395	0.0895	566879	keystroke	b	n/a
283.739	0.075	567478	keystroke	s	n/a
283.844	0.105	567688	keystroke	o	n/a
283.934	0.076	567868	keystroke	n	n/a
284.4895	0.0595	568979	keystroke	Key.space	n/a
285.2395	0.0595	570479	keystroke	n	n/a
285.5995	0.0745	571199	keystroke	o	n/a
285.899	0.0755	571798	keystroke	r	n/a
286.079	0.075	572158	keystroke	m	n/a
286.244	0.09	572488	keystroke	a	n/a
286.409	0.075	572818	keystroke	l	n/a
286.544	0.075	573088	keystroke	l	n/a
286.724	0.06	573448	keystroke	y	n/a
287.399	0.075	574798	keystroke	Key.enter	n/a
287.4825	9.2785	574965	prompt	n/a	speakers metric mpeg amino\n
288.2995	0.0745	576599	keystroke	s	n/a
288.404	0.105	576808	keystroke	p	n/a
288.539	0.09	577078	keystroke	e	n/a
288.944	0.06	577888	keystroke	a	n/a
289.139	0.06	578278	keystroke	k	n/a
289.214	0.12	578428	keystroke	e	n/a
289.289	0.09	578578	keystroke	r	n/a
289.544	0.06	579088	keystroke	s	n/a
289.634	0.06	579268	keystroke	Key.space	n/a
289.949	0.075	579898	keystroke	m	n/a
290.0695	0.135	580139	keystroke	e	n/a
290.159	0.0605	580318	keystroke	r	n/a
290.4295	0.075	580859	keystroke	t	n/a
290.5945	0.09	581189	keystroke	r	n/a
290.9095	0.075	581819	keystroke	Key.backspace	n/a
291.0595	0.075	582119	keystroke	Key.backspace	n/a
291.2095	0.09	582419	keystroke	t	n/a
291.4045	0.075	582809	keystroke	r	n/a
291.7645	0.06	583529	keystroke	Key.backspace	n/a
291.8985	0.09	583797	keystroke	Key.backspace	n/a
292.2595	0.059	584519	keystroke	Key.backspace	n/a
292.4695	0.06	584939	keystroke	t	n/a
292.9795	0.06	585959	keystroke	r	n/a
293.1445	0.075	586289	keystroke	i	n/a
293.3245	0.09	586649	keystroke	c	n/a
293.4885	0.076	586977	keystroke	Key.space	n/a
294.0295	0.075	588059	keystroke	m	n/a
294.2995	0.075	588599	keystroke	p	n/a
294.5095	0.075	589019	keystroke	e	n/a
294.8245	0.075	589649	keystroke	g	n/a
295.0195	0.06	590039	keystroke	Key.space	n/a
295.3045	0.075	590609	keystroke	a	n/a
295.4545	0.075	590909	keystroke	m	n/a
295.6645	0.09	591329	keystroke	i	n/a
295.7995	0.09	591599	keystroke	n	n/a
296.0095	0.09	592019	keystroke	o	n/a
296.6995	0.06	593399	keystroke	Key.enter	n/a
296.7675	6.294	593535	prompt	n/a	drives viewed clay confirm\n
297.4645	0.075	594929	keystroke	d	n/a
297.7495	0.075	595499	keystroke	r	n/a
297.9445	0.075	595889	keystroke	i	n/a
298.0495	0.075	596099	keystroke	v	n/a
298.1995	0.105	596399	keystroke	e	n/a
298.3795	0.105	596759	keystroke	s	n/a
298.5145	0.075	597029	keystroke	Key.space	n/a
298.7845	0.075	597569	keystroke	v	n/a
299.1595	0.075	598319	keystroke	i	n/a
299.2795	0.12	598559	keystroke	e	n/a
299.3395	0.12	598679	keystroke	w	n/a
299.7145	0.09	599429	keystroke	e	n/a
299.9545	0.09	599909	keystroke	d	n/a
300.1045	0.075	600209	keystroke	Key.space	n/a
300.4045	0.075	600809	keystroke	c	n/a
300.4945	0.09	600989	keystroke	l	n/a
300.6895	0.075	601379	keystroke	a	n/a
300.9145	0.045	601829	keystroke	y	n/a
301.1395	0.075	602279	keystroke	Key.space	n/a
301.3045	0.075	602609	keystroke	c	n/a
301.3945	0.105	602789	keystroke	o	n/a
301.4545	0.105	602909	keystroke	n	n/a
301.7545	0.075	603509	keystroke	f	n/a
301.9195	0.09	603839	keystroke	i	n/a
302.1745	0.06	604349	keystroke	r	n/a
302.2195	0.105	604439	keystroke	m	n/a
302.9845	0.075	605969	keystroke	Key.enter	n/a
303.0685	14.7375	606137	prompt	n/a	nigeria promised browse thesis\n
303.8395	0.075	607679	keystroke	n	n/a
304.0495	0.075	608099	keystroke	i	n/a
304.3195	0.06	608639	keystroke	g	n/a
304.4995	0.15	608999	keystroke	e	n/a
304.6045	0.105	609209	keystroke	r	n/a
304.8595	0.09	609719	keystroke	i	n/a
305.0395	0.075	610079	keystroke	a	n/a
305.1445	0.09	610289	keystroke	Key.space	n/a
305.4745	0.09	610949	keystroke	p	n/a
305.8195	0.075	611639	keystroke	o	n/a
306.0895	0.075	612179	keystroke	r	n/a
306.6295	0.06	613259	keystroke	m	n/a
306.8095	0.09	613619	keystroke	i	n/a
307.0645	0.075	614129	keystroke	s	n/a
307.4545	0.075	614909	keystroke	e	n/a
307.7395	0.075	615479	keystroke	d	n/a
307.9195	0.075	615839	keystroke	Key.space	n/a
309.0895	0.06	618179	keystroke	Key.backspace	n/a
309.2245	0.075	618449	keystroke	Key.backspace	n/a
309.3895	0.06	618779	keystroke	Key.backspace	n/a
309.5395	0.075	619079	keystroke	Key.backspace	n/a
309.7195	0.045	619439	keystroke	Key.backspace	n/a
309.8695	0.06	619739	keystroke	Key.backspace	n/a
310.0345	0.045	620069	keystroke	Key.backspace	n/a
310.1845	0.045	620369	keystroke	Key.backspace	n/a
310.6495	0.045	621299	keystroke	r	n/a
310.8145	0.09	621629	keystroke	o	n/a
311.0545	0.06	622109	keystroke	m	n/a
311.2495	0.075	622499	keystroke	i	n/a
311.3995	0.06	622799	keystroke	s	n/a
311.5495	0.075	623099	keystroke	e	n/a
311.7295	0.075	623459	keystroke	d	n/a
311.8045	0.0895	623609	keystroke	Key.space	n/a
312.719	0.076	625438	keystroke	b	n/a
313.05	0.09	626100	keystroke	r	n/a
313.2	0.09	626400	keystroke	o	n/a
313.439	0.076	626878	keystroke	w	n/a
313.68	0.089	627360	keystroke	e	n/a
313.964	0.18	627928	keystroke	s	n/a
314.399	0.06	628798	keystroke	Key.backspace	n/a
314.534	0.06	629068	keystroke	Key.backspace	n/a
314.64	0.044	629280	keystroke	s	n/a
314.655	0.135	629310	keystroke	e	n/a
315.359	0.045	630718	keystroke	Key.space	n/a
315.885	0.075	631770	keystroke	t	n/a
315.989	0.076	631978	keystroke	h	n/a
316.139	0.105	632278	keystroke	e	n/a
316.874	0.06	633748	keystroke	s	n/a
316.98	0.09	633960	keystroke	i	n/a
317.055	0.075	634110	keystroke	s	n/a
317.7435	0.06	635487	keystroke	Key.enter	n/a
317.815	9.0075	635630	prompt	n/a	cherry somalia wonderful diving\n
318.4945	0.075	636989	keystroke	c	n/a
318.689	0.075	637378	keystroke	h	n/a
318.854	0.105	637708	keystroke	e	n/a
319.1245	0.0595	638249	keystroke	r	n/a
319.259	0.0605	638518	keystroke	r	n/a
319.334	0.075	638668	keystroke	y	n/a
319.5445	0.0895	639089	keystroke	Key.space	n/a
319.769	0.075	639538	keystroke	s	n/a
319.964	0.09	639928	keystroke	o	n/a
320.174	0.075	640348	keystroke	m	n/a
320.504	0.075	641008	keystroke	a	n/a
320.669	0.075	641338	keystroke	l	n/a
320.864	0.075	641728	keystroke	i	n/a
321.059	0.075	642118	keystroke	a	n/a
321.164	0.09	642328	keystroke	Key.space	n/a
321.944	0.075	643888	keystroke	w	n/a
322.094	0.105	644188	keystroke	o	n/a
322.169	0.105	644338	keystroke	n	n/a
322.319	0.075	644638	keystroke	d	n/a
322.529	0.09	645058	keystroke	e	n/a
322.589	0.06	645178	keystroke	r	n/a
322.844	0.06	645688	keystroke	f	n/a
323.129	0.09	646258	keystroke	l	n/a
323.759	0.09	647518	keystroke	Key.backspace	n/a
324.494	0.075	648988	keystroke	u	n/a
324.704	0.075	649408	keystroke	l	n/a
324.884	0.075	649768	keystroke	Key.space	n/a
325.319	0.06	650638	keystroke	d	n/a
325.559	0.075	651118	keystroke	i	n/a
325.739	0.06	651478	keystroke	v	n/a
325.859	0.135	651718	keystroke	i	n/a
325.979	0.09	651958	keystroke	n	n/a
326.084	0.075	652168	keystroke	g	n/a
326.744	0.075	653488	keystroke	Key.enter	n/a
326.83	12.2765	653660	prompt	n/a	armenia early segment brook\n
327.629	0.075	655258	keystroke	a	n/a
328.199	0.075	656398	keystroke	r	n/a
328.394	0.075	656788	keystroke	m	n/a
328.574	0.075	657148	keystroke	e	n/a
328.724	0.075	657448	keystroke	n	n/a
329.114	0.06	658228	keystroke	a	n/a
329.234	0.075	658468	keystroke	i	n/a
330.029	0.075	660058	keystroke	Key.backspace	n/a
330.269	0.015	660538	keystroke	Key.backspace	n/a
331.065	0.074	662130	keystroke	i	n/a
331.154	0.105	662308	keystroke	a	n/a
331.289	0.075	662578	keystroke	Key.space	n/a
332.984	0.18	665968	keystroke	e	n/a
333.119	0.105	666238	keystroke	r	n/a
333.914	0.075	667828	keystroke	Key.backspace	n/a
334.095	0.119	668190	keystroke	a	n/a
334.349	0.06	668698	keystroke	r	n/a
334.529	0.105	669058	keystroke	l	n/a
334.739	0.06	669478	keystroke	y	n/a
334.934	0.105	669868	keystroke	Key.space	n/a
335.159	0.06	670318	keystroke	s	n/a
335.309	0.075	670618	keystroke	e	n/a
336.119	0.075	672238	keystroke	g	n/a
336.374	0.075	672748	keystroke	m	n/a
336.494	0.105	672988	keystroke	e	n/a
336.644	0.075	673288	keystroke	n	n/a
336.749	0.09	673498	keystroke	t	n/a
337.199	0.06	674398	keystroke	Key.space	n/a
337.649	0.075	675298	keystroke	b	n/a
337.859	0.09	675718	keystroke	r	n/a
338.069	0.06	676138	keystroke	o	n/a
338.205	0.074	676410	keystroke	o	n/a
338.354	0.09	676708	keystroke	k	n/a
339.044	0.06	678088	keystroke	Key.enter	n/a
339.112	9.3545	678224	prompt	n/a	parameter verde stranger nike\n
339.869	0.075	679738	keystroke	p	n/a
340.109	0.09	680218	keystroke	a	n/a
340.409	0.09	680818	keystroke	r	n/a
340.619	0.09	681238	keystroke	a	n/a
340.859	0.075	681718	keystroke	m	n/a
341.024	0.136	682048	keystroke	e	n/a
341.249	0.06	682498	keystroke	t	n/a
341.415	0.119	682830	keystroke	e	n/a
341.459	0.105	682918	keystroke	r	n/a
341.699	0.075	683398	keystroke	Key.space	n/a
342.059	0.105	684118	keystroke	v	n/a
342.284	0.15	684568	keystroke	e	n/a
342.374	0.105	684748	keystroke	r	n/a
342.794	0.075	685588	keystroke	d	n/a
342.989	0.075	685978	keystroke	e	n/a
343.259	0.06	686518	keystroke	Key.space	n/a
343.649	0.075	687298	keystroke	s	n/a
343.86	0.029	687720	keystroke	g	n/a
344.039	0.075	688078	keystroke	r	n/a
344.219	0.106	688438	keystroke	a	n/a
344.369	0.061	688738	keystroke	n	n/a
344.729	0.075	689458	keystroke	Key.backspace	n/a
344.879	0.075	689758	keystroke	Key.backspace	n/a
345.029	0.075	690058	keystroke	Key.backspace	n/a
345.179	0.0745	690358	keystroke	Key.backspace	n/a
345.3285	0.0905	690657	keystroke	t	n/a
345.539	0.09	691078	keystroke	r	n/a
345.8995	0.089	691799	keystroke	a	n/a
346.125	0.075	692250	keystroke	n	n/a
346.4385	0.075	692877	keystroke	g	n/a
346.6195	0.149	693239	keystroke	e	n/a
346.71	0.0735	693420	keystroke	r	n/a
346.9185	0.09	693837	keystroke	Key.space	n/a
347.1745	0.0755	694349	keystroke	n	n/a
347.339	0.0745	694678	keystroke	i	n/a
347.5495	0.075	695099	keystroke	k	n/a
347.7135	0.076	695427	keystroke	e	n/a
348.4035	0.06	696807	keystroke	Key.enter	n/a
348.4725	5.7235	696945	prompt	n/a	mounts wondering rica manner\n
349.1995	0.074	698399	keystroke	m	n/a
349.4385	0.135	698877	keystroke	o	n/a
349.5285	0.091	699057	keystroke	u	n/a
349.7385	0.075	699477	keystroke	n	n/a
349.8445	0.105	699689	keystroke	t	n/a
350.0535	0.076	700107	keystroke	s	n/a
350.1585	0.075	700317	keystroke	Key.space	n/a
350.4885	0.09	700977	keystroke	w	n/a
350.6085	0.12	701217	keystroke	o	n/a
350.6685	0.136	701337	keystroke	n	n/a
350.8635	0.09	701727	keystroke	d	n/a
351.0735	0.091	702147	keystroke	e	n/a
351.1185	0.06	702237	keystroke	r	n/a
351.3585	0.091	702717	keystroke	i	n/a
351.4645	0.089	702929	keystroke	n	n/a
351.5845	0.06	703169	keystroke	g	n/a
351.6735	0.075	703347	keystroke	Key.space	n/a
351.9585	0.061	703917	keystroke	r	n/a
352.0645	0.089	704129	keystroke	i	n/a
352.2745	0.074	704549	keystroke	c	n/a
352.4685	0.076	704937	keystroke	a	n/a
352.5885	0.075	705177	keystroke	Key.space	n/a
352.9035	0.06	705807	keystroke	m	n/a
353.0535	0.075	706107	keystroke	a	n/a
353.2185	0.075	706437	keystroke	n	n/a
353.3535	0.076	706707	keystroke	n	n/a
353.4735	0.121	706947	keystroke	e	n/a
353.5485	0.061	707097	keystroke	r	n/a
354.1335	0.06	708267	keystroke	Key.enter	n/a
354.2005	11.4555	708401	prompt	n/a	technology frame replacement subaru\n
354.8995	0.09	709799	keystroke	t	n/a
355.0945	0.104	710189	keystroke	e	n/a
355.3795	0.104	710759	keystroke	c	n/a
355.6335	0.075	711267	keystroke	h	n/a
356.5035	0.061	713007	keystroke	n	n/a
356.7145	0.075	713429	keystroke	o	n/a
356.8795	0.09	713759	keystroke	l	n/a
357.0595	0.09	714119	keystroke	o	n/a
357.2245	0.09	714449	keystroke	t	n/a
357.3745	0.045	714749	keystroke	y	n/a
357.9735	0.06	715947	keystroke	Key.backspace	n/a
358.1245	0.059	716249	keystroke	Key.backspace	n/a
358.2885	0.06	716577	keystroke	Key.backspace	n/a
358.4535	0.06	716907	keystroke	Key.backspace	n/a
359.2195	0.075	718439	keystroke	l	n/a
359.4585	0.075	718917	keystroke	o	n/a
359.6545	0.059	719309	keystroke	g	n/a
359.7895	0.03	719579	keystroke	y	n/a
360.4035	0.06	720807	keystroke	Key.space	n/a
360.6585	0.061	721317	keystroke	f	n/a
360.8695	0.105	721739	keystroke	r	n/a
361.1395	0.075	722279	keystroke	a	n/a
361.2585	0.076	722517	keystroke	m	n/a
361.3795	0.09	722759	keystroke	e	n/a
361.4845	0.074	722969	keystroke	Key.space	n/a
361.7545	0.09	723509	keystroke	r	n/a
361.7995	0.105	723599	keystroke	e	n/a
362.0545	0.075	724109	keystroke	p	n/a
362.2345	0.09	724469	keystroke	l	n/a
362.3395	0.09	724679	keystroke	a	n/a
362.5195	0.119	725039	keystroke	c	n/a
362.6545	0.075	725309	keystroke	e	n/a
362.8495	0.075	725699	keystroke	m	n/a
362.9545	0.09	725909	keystroke	e	n/a
363.0745	0.075	726149	keystroke	n	n/a
363.2245	0.074	726449	keystroke	t	n/a
363.3285	0.076	726657	keystroke	Key.space	n/a
363.7645	0.075	727529	keystroke	s	n/a
363.8995	0.075	727799	keystroke	u	n/a
364.1245	0.09	728249	keystroke	b	n/a
364.3345	0.075	728669	keystroke	a	n/a
364.4995	0.059	728999	keystroke	r	n/a
364.6645	0.074	729329	keystroke	u	n/a
365.5785	0.075	731157	keystroke	Key.enter	n/a
365.661	10.675	731322	prompt	n/a	falling flights upset constitutes\n
366.4795	0.075	732959	keystroke	f	n/a
366.7495	0.09	733499	keystroke	a	n/a
366.9745	0.06	733949	keystroke	l	n/a
367.1095	0.075	734219	keystroke	l	n/a
367.2595	0.0895	734519	keystroke	i	n/a
367.394	0.105	734788	keystroke	n	n/a
367.544	0.06	735088	keystroke	g	n/a
367.648	0.075	735296	keystroke	Key.space	n/a
368.489	0.06	736978	keystroke	f	n/a
368.639	0.09	737278	keystroke	l	n/a
368.834	0.075	737668	keystroke	i	n/a
369.074	0.06	738148	keystroke	g	n/a
369.164	0.075	738328	keystroke	h	n/a
369.299	0.09	738598	keystroke	t	n/a
369.554	0.06	739108	keystroke	s	n/a
369.658	0.091	739316	keystroke	Key.space	n/a
369.959	0.075	739918	keystroke	u	n/a
370.154	0.09	740308	keystroke	p	n/a
370.664	0.075	741328	keystroke	s	n/a
370.874	0.09	741748	keystroke	e	n/a
371.129	0.075	742258	keystroke	t	n/a
371.309	0.06	742618	keystroke	Key.space	n/a
371.774	0.09	743548	keystroke	s	n/a
372.284	0.06	744568	keystroke	Key.backspace	n/a
372.374	0.075	744748	keystroke	c	n/a
372.569	0.09	745138	keystroke	o	n/a
372.644	0.105	745288	keystroke	n	n/a
372.899	0.09	745798	keystroke	s	n/a
373.094	0.09	746188	keystroke	t	n/a
373.259	0.075	746518	keystroke	i	n/a
373.934	0.105	747868	keystroke	t	n/a
374.204	0.06	748408	keystroke	u	n/a
374.819	0.105	749638	keystroke	t	n/a
374.984	0.09	749968	keystroke	e	n/a
375.194	0.06	750388	keystroke	s	n/a
376.259	0.075	752518	keystroke	Key.enter	n/a
376.343	20.094	752686	prompt	n/a	twenty themselves commonly independent\n
377.144	0.09	754288	keystroke	t	n/a
377.279	0.075	754558	keystroke	h	n/a
377.684	0.09	755368	keystroke	w	n/a
377.909	0.09	755818	keystroke	e	n/a
378.089	0.075	756178	keystroke	n	n/a
378.254	0.075	756508	keystroke	t	n/a
378.389	0.075	756778	keystroke	y	n/a
378.914	0.075	757828	keystroke	Key.space	n/a
379.214	0.075	758428	keystroke	t	n/a
379.829	0.075	759658	keystroke	h	n/a
381.779	0.09	763558	keystroke	Key.backspace	n/a
381.974	0.045	763948	keystroke	Key.backspace	n/a
382.109	0.075	764218	keystroke	Key.backspace	n/a
382.274	0.06	764548	keystroke	Key.backspace	n/a
382.424	0.06	764848	keystroke	Key.backspace	n/a
382.574	0.075	765148	keystroke	Key.backspace	n/a
382.724	0.09	765448	keystroke	Key.backspace	n/a
382.889	0.06	765778	keystroke	Key.backspace	n/a
383.039	0.075	766078	keystroke	Key.backspace	n/a
383.339	0.105	766678	keystroke	w	n/a
384.869	0.075	769738	keystroke	e	n/a
384.974	0.075	769948	keystroke	n	n/a
385.094	0.075	770188	keystroke	t	n/a
385.259	0.06	770518	keystroke	y	n/a
385.469	0.075	770938	keystroke	Key.space	n/a
385.919	0.075	771838	keystroke	t	n/a
386.039	0.09	772078	keystroke	h	n/a
386.399	0.06	772798	keystroke	e	n/a
386.489	0.09	772978	keystroke	m	n/a
386.774	0.075	773548	keystroke	s	n/a
388.679	0.075	777358	keystroke	e	n/a
389.069	0.075	778138	keystroke	l	n/a
389.234	0.075	778468	keystroke	v	n/a
389.369	0.09	778738	keystroke	e	n/a
389.549	0.105	779098	keystroke	s	n/a
389.684	0.075	779368	keystroke	Key.space	n/a
389.924	0.075	779848	keystroke	c	n/a
390.059	0.075	780118	keystroke	o	n/a
390.299	0.06	780598	keystroke	m	n/a
390.419	0.075	780838	keystroke	m	n/a
390.599	0.12	781198	keystroke	o	n/a
390.704	0.09	781408	keystroke	n	n/a
391.019	0.09	782038	keystroke	l	n/a
391.259	0.06	782518	keystroke	y	n/a
391.574	0.09	783148	keystroke	Key.space	n/a
392.279	0.105	784558	keystroke	i	n/a
392.444	0.09	784888	keystroke	n	n/a
392.654	0.075	785308	keystroke	d	n/a
393.779	0.075	787558	keystroke	e	n/a
394.604	0.075	789208	keystroke	p	n/a
394.829	0.075	789658	keystroke	e	n/a
394.889	0.09	789778	keystroke	n	n/a
395.219	0.045	790438	keystroke	d	n/a
395.369	0.09	790738	keystroke	e	n/a
395.489	0.075	790978	keystroke	n	n/a
395.654	0.06	791308	keystroke	t	n/a
396.3595	0.0745	792719	keystroke	Key.enter	n/a
396.444	11.0035	792888	prompt	n/a	annotation subdivision premier bass\n
397.244	0.09	794488	keystroke	a	n/a
397.439	0.06	794878	keystroke	n	n/a
397.574	0.06	795148	keystroke	n	n/a
397.724	0.09	795448	keystroke	o	n/a
397.904	0.075	795808	keystroke	t	n/a
398.474	0.105	796948	keystroke	a	n/a
398.639	0.09	797278	keystroke	t	n/a
398.714	0.105	797428	keystroke	i	n/a
398.789	0.12	797578	keystroke	o	n/a
398.849	0.09	797698	keystroke	n	n/a
399.119	0.06	798238	keystroke	Key.space	n/a
399.509	0.075	799018	keystroke	s	n/a
399.644	0.09	799288	keystroke	u	n/a
399.854	0.09	799708	keystroke	b	n/a
400.169	0.075	800338	keystroke	d	n/a
400.319	0.075	800638	keystroke	i	n/a
400.559	0.06	801118	keystroke	v	n/a
400.709	0.09	801418	keystroke	i	n/a
401.669	0.09	803338	keystroke	s	n/a
401.819	0.075	803638	keystroke	i	n/a
401.834	0.135	803668	keystroke	o	n/a
401.924	0.105	803848	keystroke	n	n/a
402.209	0.015	804418	keystroke	Key.space	n/a
403.154	0.09	806308	keystroke	p	n/a
403.379	0.21	806758	keystroke	r	n/a
403.634	0.12	807268	keystroke	e	n/a
405.074	0.06	810148	keystroke	m	n/a
405.374	0.075	810748	keystroke	i	n/a
405.524	0.21	811048	keystroke	e	n/a
405.704	0.105	811408	keystroke	r	n/a
405.899	0.075	811798	keystroke	Key.space	n/a
406.214	0.09	812428	keystroke	b	n/a
406.364	0.105	812728	keystroke	a	n/a
406.634	0.09	813268	keystroke	s	n/a
406.769	0.06	813538	keystroke	s	n/a
407.384	0.06	814768	keystroke	Key.enter	n/a
407.4535	10.1775	814907	prompt	n/a	supplied opposed population suggestions\n
408.104	0.075	816208	keystroke	s	n/a
408.284	0.075	816568	keystroke	u	n/a
408.509	0.075	817018	keystroke	p	n/a
408.659	0.09	817318	keystroke	p	n/a
408.884	0.105	817768	keystroke	l	n/a
409.109	0.075	818218	keystroke	i	n/a
409.289	0.09	818578	keystroke	e	n/a
409.514	0.075	819028	keystroke	d	n/a
409.589	0.075	819178	keystroke	Key.space	n/a
409.889	0.09	819778	keystroke	o	n/a
410.114	0.075	820228	keystroke	p	n/a
410.264	0.075	820528	keystroke	p	n/a
410.579	0.105	821158	keystroke	o	n/a
410.804	0.075	821608	keystroke	s	n/a
411.089	0.075	822178	keystroke	e	n/a
411.284	0.09	822568	keystroke	d	n/a
411.404	0.09	822808	keystroke	Key.space	n/a
412.319	0.075	824638	keystroke	p	n/a
412.514	0.0905	825028	keystroke	o	n/a
412.694	0.09	825388	keystroke	p	n/a
412.904	0.09	825808	keystroke	u	n/a
413.114	0.09	826228	keystroke	l	n/a
413.219	0.105	826438	keystroke	a	n/a
413.354	0.09	826708	keystroke	t	n/a
413.369	0.18	826738	keystroke	i	n/a
413.414	0.18	826828	keystroke	o	n/a
413.534	0.075	827068	keystroke	n	n/a
413.714	0.06	827428	keystroke	Key.space	n/a
414.4645	0.0595	828929	keystroke	s	n/a
414.884	0.075	829768	keystroke	u	n/a
415.229	0.06	830458	keystroke	g	n/a
415.364	0.045	830728	keystroke	g	n/a
416.054	0.06	832108	keystroke	e	n/a
416.279	0.09	832558	keystroke	s	n/a
416.474	0.105	832948	keystroke	t	n/a
416.564	0.105	833128	keystroke	i	n/a
416.624	0.12	833248	keystroke	o	n/a
416.684	0.15	833368	keystroke	n	n/a
416.849	0.09	833698	keystroke	s	n/a
417.554	0.075	835108	keystroke	Key.enter	n/a
417.636	11.035	835272	prompt	n/a	attractive discussed thickness peer\n
418.394	0.09	836788	keystroke	a	n/a
418.589	0.075	837178	keystroke	t	n/a
418.739	0.045	837478	keystroke	t	n/a
418.889	0.075	837778	keystroke	r	n/a
419.099	0.135	838198	keystroke	a	n/a
419.219	0.105	838438	keystroke	c	n/a
419.459	0.075	838918	keystroke	t	n/a
419.58	0.089	839160	keystroke	i	n/a
419.684	0.12	839368	keystroke	v	n/a
419.834	0.105	839668	keystroke	e	n/a
419.954	0.075	839908	keystroke	Key.space	n/a
420.389	0.09	840778	keystroke	s	n/a
420.719	0.075	841438	keystroke	i	n/a
421.439	0.06	842878	keystroke	Key.backspace	n/a
421.559	0.075	843118	keystroke	Key.backspace	n/a
421.679	0.09	843358	keystroke	d	n/a
421.844	0.075	843688	keystroke	i	n/a
422.294	0.075	844588	keystroke	s	n/a
422.549	0.075	845098	keystroke	c	n/a
422.774	0.075	845548	keystroke	u	n/a
423.03	0.044	846060	keystroke	s	n/a
423.149	0.06	846298	keystroke	s	n/a
423.314	0.045	846628	keystroke	e	n/a
423.494	0.09	846988	keystroke	d	n/a
423.599	0.06	847198	keystroke	Key.space	n/a
423.914	0.075	847828	keystroke	t	n/a
423.974	0.075	847948	keystroke	h	n/a
424.094	0.105	848188	keystroke	i	n/a
424.334	0.06	848668	keystroke	c	n/a
424.439	0.075	848878	keystroke	k	n/a
424.589	0.075	849178	keystroke	e	n/a
424.829	0.06	849658	keystroke	n	n/a
425.849	0.06	851698	keystroke	Key.backspace	n/a
425.999	0.045	851998	keystroke	Key.backspace	n/a
426.209	0.075	852418	keystroke	n	n/a
426.374	0.075	852748	keystroke	e	n/a
426.689	0.06	853378	keystroke	s	n/a
426.884	0.015	853768	keystroke	s	n/a
426.944	0.075	853888	keystroke	Key.space	n/a
427.169	0.09	854338	keystroke	p	n/a
427.409	0.075	854818	keystroke	e	n/a
427.574	0.075	855148	keystroke	e	n/a
427.859	0.045	855718	keystroke	r	n/a
428.594	0.075	857188	keystroke	Key.enter	n/a
428.678	6.8485	857356	prompt	n/a	pencil joining supplied james\n
429.404	0.075	858808	keystroke	p	n/a
429.554	0.075	859108	keystroke	e	n/a
429.704	0.075	859408	keystroke	n	n/a
429.914	0.09	859828	keystroke	c	n/a
430.034	0.09	860068	keystroke	i	n/a
430.214	0.075	860428	keystroke	l	n/a
430.364	0.09	860728	keystroke	Key.space	n/a
430.664	0.105	861328	keystroke	j	n/a
430.874	0.12	861748	keystroke	o	n/a
430.919	0.195	861838	keystroke	i	n/a
431.115	0.075	862230	keystroke	n	n/a
431.894	0.09	863788	keystroke	i	n/a
431.999	0.09	863998	keystroke	n	n/a
432.179	0.075	864358	keystroke	g	n/a
432.359	0.06	864718	keystroke	Key.space	n/a
432.614	0.06	865228	keystroke	s	n/a
432.704	0.09	865408	keystroke	u	n/a
432.99	0.059	865980	keystroke	p	n/a
433.109	0.075	866218	keystroke	p	n/a
433.29	0.059	866580	keystroke	l	n/a
433.454	0.075	866908	keystroke	i	n/a
433.604	0.061	867208	keystroke	e	n/a
433.784	0.076	867568	keystroke	d	n/a
433.86	0.059	867720	keystroke	Key.space	n/a
434.084	0.075	868168	keystroke	j	n/a
434.234	0.135	868468	keystroke	a	n/a
434.429	0.075	868858	keystroke	m	n/a
434.655	0.09	869310	keystroke	e	n/a
434.865	0.105	869730	keystroke	s	n/a
435.449	0.075	870898	keystroke	Key.enter	n/a
435.5355	5.795	871071	prompt	n/a	tape another tank euros\n
436.259	0.09	872518	keystroke	t	n/a
436.454	0.12	872908	keystroke	a	n/a
436.589	0.105	873178	keystroke	p	n/a
436.724	0.075	873448	keystroke	e	n/a
436.859	0.09	873718	keystroke	Key.space	n/a
437.249	0.09	874498	keystroke	a	n/a
437.354	0.075	874708	keystroke	n	n/a
437.549	0.076	875098	keystroke	o	n/a
437.699	0.09	875398	keystroke	t	n/a
437.82	0.059	875640	keystroke	h	n/a
437.939	0.105	875878	keystroke	e	n/a
437.999	0.076	875998	keystroke	r	n/a
438.164	0.075	876328	keystroke	Key.space	n/a
438.629	0.075	877258	keystroke	t	n/a
438.825	0.119	877650	keystroke	a	n/a
438.929	0.12	877858	keystroke	n	n/a
439.109	0.105	878218	keystroke	k	n/a
439.3035	0.075	878607	keystroke	Key.space	n/a
439.7085	0.06	879417	keystroke	e	n/a
439.9485	0.075	879897	keystroke	u	n/a
440.2335	0.075	880467	keystroke	r	n/a
440.3245	0.09	880649	keystroke	o	n/a
440.5185	0.075	881037	keystroke	s	n/a
441.2535	0.075	882507	keystroke	Key.enter	n/a
441.335	7.6615	882670	prompt	n/a	karen plant slight divisions\n
442.0785	0.075	884157	keystroke	k	n/a
442.2585	0.09	884517	keystroke	a	n/a
442.9485	0.09	885897	keystroke	r	n/a
443.1745	0.074	886349	keystroke	e	n/a
443.3985	0.075	886797	keystroke	n	n/a
443.7585	0.075	887517	keystroke	Key.space	n/a
443.9545	0.074	887909	keystroke	p	n/a
444.1195	0.105	888239	keystroke	l	n/a
444.2385	0.12	888477	keystroke	a	n/a
444.4045	0.074	888809	keystroke	n	n/a
444.6145	0.089	889229	keystroke	t	n/a
444.7185	0.075	889437	keystroke	Key.space	n/a
445.2295	0.074	890459	keystroke	s	n/a
445.4235	0.091	890847	keystroke	l	n/a
445.6045	0.074	891209	keystroke	i	n/a
445.8145	0.089	891629	keystroke	g	n/a
445.9495	0.075	891899	keystroke	h	n/a
446.0835	0.06	892167	keystroke	t	n/a
446.1735	0.075	892347	keystroke	Key.space	n/a
446.5935	0.075	893187	keystroke	d	n/a
446.7595	0.074	893519	keystroke	i	n/a
447.0135	0.076	894027	keystroke	v	n/a
447.2085	0.075	894417	keystroke	i	n/a
447.4485	0.076	894897	keystroke	s	n/a
447.5395	0.194	895079	keystroke	i	n/a
447.6445	0.134	895289	keystroke	o	n/a
447.7495	0.075	895499	keystroke	n	n/a
447.9895	0.09	895979	keystroke	s	n/a
448.9195	0.075	897839	keystroke	Key.enter	n/a
449.003	8.0475	898006	prompt	n/a	standing listen absolutely city\n
449.6695	0.075	899339	keystroke	s	n/a
449.8195	0.105	899639	keystroke	t	n/a
450.0295	0.104	900059	keystroke	a	n/a
450.1045	0.09	900209	keystroke	n	n/a
450.2395	0.089	900479	keystroke	d	n/a
450.3895	0.119	900779	keystroke	i	n/a
450.4785	0.091	900957	keystroke	n	n/a
450.5845	0.074	901169	keystroke	g	n/a
450.7335	0.075	901467	keystroke	Key.space	n/a
451.0195	0.075	902039	keystroke	l	n/a
451.2135	0.06	902427	keystroke	i	n/a
451.3785	0.106	902757	keystroke	s	n/a
451.5285	0.106	903057	keystroke	t	n/a
451.6945	0.09	903389	keystroke	e	n/a
451.8595	0.074	903719	keystroke	n	n/a
452.0385	0.075	904077	keystroke	Key.space	n/a
452.3085	0.061	904617	keystroke	s	n/a
452.7145	0.075	905429	keystroke	Key.backspace	n/a
452.8495	0.09	905699	keystroke	a	n/a
452.9995	0.06	905999	keystroke	b	n/a
453.4035	0.091	906807	keystroke	s	n/a
453.5395	0.075	907079	keystroke	o	n/a
453.7635	0.076	907527	keystroke	l	n/a
453.9735	0.061	907947	keystroke	u	n/a
454.2595	0.09	908519	keystroke	t	n/a
454.7695	0.045	909539	keystroke	e	n/a
455.0085	0.075	910017	keystroke	l	n/a
455.2785	0.061	910557	keystroke	y	n/a
455.6695	0.06	911339	keystroke	Key.space	n/a
455.8945	0.12	911789	keystroke	c	n/a
456.0285	0.075	912057	keystroke	i	n/a
456.2095	0.075	912419	keystroke	t	n/a
456.2545	0.06	912509	keystroke	y	n/a
457.0045	0.044	914009	keystroke	Key.enter	n/a
457.055	6.971	914110	prompt	n/a	tyler commented conduct story\n
457.7845	0.075	915569	keystroke	t	n/a
457.9195	0.075	915839	keystroke	y	n/a
458.1285	0.091	916257	keystroke	l	n/a
458.2645	0.15	916529	keystroke	e	n/a
458.3545	0.09	916709	keystroke	r	n/a
458.4895	0.075	916979	keystroke	Key.space	n/a
458.8045	0.075	917609	keystroke	c	n/a
458.9535	0.091	917907	keystroke	o	n/a
459.1945	0.045	918389	keystroke	m	n/a
459.3145	0.074	918629	keystroke	m	n/a
459.5245	0.075	919049	keystroke	e	n/a
459.6595	0.075	919319	keystroke	n	n/a
459.8235	0.135	919647	keystroke	t	n/a
460.0495	0.089	920099	keystroke	e	n/a
460.2445	0.09	920489	keystroke	d	n/a
460.4085	0.061	920817	keystroke	Key.space	n/a
460.7695	0.075	921539	keystroke	c	n/a
460.8895	0.105	921779	keystroke	o	n/a
460.9795	0.09	921959	keystroke	n	n/a
461.1895	0.0745	922379	keystroke	d	n/a
461.3695	0.0595	922739	keystroke	u	n/a
461.534	0.0755	923068	keystroke	c	n/a
461.774	0.075	923548	keystroke	t	n/a
461.878	0.075	923756	keystroke	Key.space	n/a
462.584	0.075	925168	keystroke	s	n/a
462.749	0.045	925498	keystroke	t	n/a
462.854	0.09	925708	keystroke	o	n/a
463.214	0.045	926428	keystroke	r	n/a
463.304	0.06	926608	keystroke	y	n/a
463.964	0.06	927928	keystroke	Key.enter	n/a
464.033	6.998	928066	prompt	n/a	floral factors keywords all\n
464.729	0.045	929458	keystroke	f	n/a
464.834	0.09	929668	keystroke	l	n/a
465.014	0.075	930028	keystroke	o	n/a
465.194	0.075	930388	keystroke	r	n/a
465.389	0.09	930778	keystroke	a	n/a
465.524	0.09	931048	keystroke	l	n/a
465.689	0.09	931378	keystroke	Key.space	n/a
465.944	0.06	931888	keystroke	f	n/a
466.124	0.09	932248	keystroke	a	n/a
466.274	0.105	932548	keystroke	c	n/a
466.514	0.09	933028	keystroke	t	n/a
466.664	0.09	933328	keystroke	o	n/a
466.829	0.09	933658	keystroke	r	n/a
467.039	0.075	934078	keystroke	s	n/a
467.144	0.06	934288	keystroke	Key.space	n/a
468.194	0.075	936388	keystroke	k	n/a
468.359	0.06	936718	keystroke	e	n/a
468.479	0.075	936958	keystroke	y	n/a
468.899	0.09	937798	keystroke	w	n/a
469.064	0.075	938128	keystroke	o	n/a
469.274	0.09	938548	keystroke	r	n/a
469.499	0.12	938998	keystroke	d	n/a
469.664	0.075	939328	keystroke	s	n/a
469.784	0.09	939568	keystroke	Key.space	n/a
469.994	0.06	939988	keystroke	a	n/a
470.129	0.075	940258	keystroke	l	n/a
470.279	0.06	940558	keystroke	l	n/a
470.969	0.06	941938	keystroke	Key.enter	n/a
471.0355	11.335	942071	prompt	n/a	modem physical does href\n
471.929	0.075	943858	keystroke	m	n/a
472.139	0.075	944278	keystroke	o	n/a
473.129	0.075	946258	keystroke	e	n/a
473.294	0.06	946588	keystroke	m	n/a
473.504	0.075	947008	keystroke	Key.space	n/a
474.224	0.06	948448	keystroke	Key.backspace	n/a
474.359	0.06	948718	keystroke	Key.backspace	n/a
474.494	0.075	948988	keystroke	Key.backspace	n/a
474.659	0.075	949318	keystroke	d	n/a
474.854	0.06	949708	keystroke	e	n/a
474.944	0.09	949888	keystroke	m	n/a
475.229	0.075	950458	keystroke	Key.space	n/a
475.904	0.09	951808	keystroke	p	n/a
476.114	0.09	952228	keystroke	h	n/a
476.354	0.06	952708	keystroke	y	n/a
476.789	0.075	953578	keystroke	s	n/a
477.179	0.06	954358	keystroke	i	n/a
477.329	0.075	954658	keystroke	c	n/a
477.479	0.105	954958	keystroke	a	n/a
477.599	0.075	955198	keystroke	l	n/a
477.749	0.09	955498	keystroke	Key.space	n/a
478.244	0.075	956488	keystroke	d	n/a
478.394	0.09	956788	keystroke	o	n/a
478.514	0.075	957028	keystroke	e	n/a
478.694	0.06	957388	keystroke	s	n/a
478.814	0.06	957628	keystroke	Key.space	n/a
480.659	0.06	961318	keystroke	h	n/a
480.794	0.105	961588	keystroke	r	n/a
480.974	0.12	961948	keystroke	e	n/a
481.244	0.075	962488	keystroke	f	n/a
482.309	0.06	964618	keystroke	Key.enter	n/a
482.376	7.87	964752	prompt	n/a	clarity exists prefer rogers\n
483.284	0.075	966568	keystroke	c	n/a
483.419	0.09	966838	keystroke	l	n/a
484.229	0.09	968458	keystroke	a	n/a
484.604	0.06	969208	keystroke	r	n/a
484.769	0.075	969538	keystroke	i	n/a
484.889	0.075	969778	keystroke	t	n/a
485.009	0.075	970018	keystroke	y	n/a
485.249	0.09	970498	keystroke	Key.space	n/a
485.489	0.06	970978	keystroke	e	n/a
485.714	0.135	971428	keystroke	x	n/a
486.209	0.09	972418	keystroke	i	n/a
486.359	0.105	972718	keystroke	s	n/a
486.524	0.12	973048	keystroke	t	n/a
486.734	0.075	973468	keystroke	s	n/a
486.884	0.075	973768	keystroke	Key.space	n/a
487.199	0.09	974398	keystroke	p	n/a
487.304	0.09	974608	keystroke	r	n/a
487.349	0.09	974698	keystroke	e	n/a
487.649	0.06	975298	keystroke	f	n/a
487.799	0.18	975598	keystroke	e	n/a
487.919	0.105	975838	keystroke	r	n/a
488.564	0.06	977128	keystroke	Key.space	n/a
488.894	0.075	977788	keystroke	r	n/a
488.999	0.09	977998	keystroke	o	n/a
489.149	0.045	978298	keystroke	g	n/a
489.284	0.165	978568	keystroke	e	n/a
489.404	0.105	978808	keystroke	r	n/a
489.674	0.075	979348	keystroke	s	n/a
490.184	0.06	980368	keystroke	Key.enter	n/a
490.2505	11.1405	980501	prompt	n/a	prot helps intimate estates\n
490.919	0.075	981838	keystroke	p	n/a
491.054	0.075	982108	keystroke	r	n/a
491.219	0.075	982438	keystroke	o	n/a
491.414	0.06	982828	keystroke	t	n/a
491.549	0.09	983098	keystroke	Key.space	n/a
491.894	0.075	983788	keystroke	h	n/a
492.074	0.09	984148	keystroke	e	n/a
492.149	0.075	984298	keystroke	l	n/a
492.329	0.075	984658	keystroke	p	n/a
493.859	0.06	987718	keystroke	s	n/a
494.009	0.075	988018	keystroke	Key.space	n/a
494.249	0.09	988498	keystroke	i	n/a
494.399	0.105	988798	keystroke	n	n/a
494.849	0.075	989698	keystroke	t	n/a
494.939	0.075	989878	keystroke	i	n/a
495.134	0.105	990268	keystroke	a	n/a
495.149	0.06	990298	keystroke	m	n/a
495.704	0.06	991408	keystroke	Key.backspace	n/a
495.839	0.075	991678	keystroke	Key.backspace	n/a
495.989	0.015	991978	keystroke	Key.backspace	n/a
496.664	0.06	993328	keystroke	i	n/a
496.844	0.075	993688	keystroke	m	n/a
497.024	0.09	994048	keystroke	a	n/a
497.174	0.075	994348	keystroke	g	n/a
497.294	0.105	994588	keystroke	e	n/a
497.444	0.09	994888	keystroke	Key.space	n/a
498.239	0.09	996478	keystroke	Key.backspace	n/a
498.389	0.06	996778	keystroke	Key.backspace	n/a
498.524	0.09	997048	keystroke	Key.backspace	n/a
498.689	0.075	997378	keystroke	t	n/a
498.749	0.105	997498	keystroke	e	n/a
498.929	0.09	997858	keystroke	Key.space	n/a
499.289	0.06	998578	keystroke	e	n/a
499.484	0.09	998968	keystroke	s	n/a
499.694	0.09	999388	keystroke	t	n/a
499.889	0.105	999778	keystroke	a	n/a
500.054	0.12	1000108	keystroke	t	n/a
500.219	0.165	1000438	keystroke	e	n/a
500.639	0.075	1001278	keystroke	s	n/a
501.329	0.06	1002658	keystroke	Key.enter	n/a
501.405	8.446	1002810	prompt	n/a	nelson safely occupation wind\n
502.199	0.06	1004398	keystroke	n	n/a
502.529	0.075	1005058	keystroke	e	n/a
502.979	0.075	1005958	keystroke	l	n/a
503.264	0.075	1006528	keystroke	s	n/a
503.384	0.105	1006768	keystroke	o	n/a
503.459	0.09	1006918	keystroke	n	n/a
503.699	0.06	1007398	keystroke	Key.space	n/a
503.894	0.075	1007788	keystroke	s	n/a
504.134	0.135	1008268	keystroke	a	n/a
504.464	0.075	1008928	keystroke	f	n/a
504.689	0.09	1009378	keystroke	e	n/a
505.364	0.105	1010728	keystroke	l	n/a
505.604	0.06	1011208	keystroke	y	n/a
505.829	0.105	1011658	keystroke	Key.space	n/a
506.234	0.105	1012468	keystroke	o	n/a
506.489	0.045	1012978	keystroke	c	n/a
506.624	0.06	1013248	keystroke	c	n/a
506.699	0.075	1013398	keystroke	u	n/a
506.924	0.09	1013848	keystroke	p	n/a
507.074	0.12	1014148	keystroke	a	n/a
507.224	0.105	1014448	keystroke	t	n/a
507.269	0.225	1014538	keystroke	i	n/a
507.359	0.15	1014718	keystroke	o	n/a
507.449	0.135	1014898	keystroke	n	n/a
507.839	0.06	1015678	keystroke	Key.space	n/a
508.664	0.105	1017328	keystroke	w	n/a
508.829	0.15	1017658	keystroke	i	n/a
508.949	0.105	1017898	keystroke	n	n/a
509.129	0.09	1018258	keystroke	d	n/a
509.789	0.06	1019578	keystroke	Key.enter	n/a
509.856	9.0995	1019712	prompt	n/a	wallpapers usually circle controlled\n
510.494	0.105	1020988	keystroke	w	n/a
510.719	0.09	1021438	keystroke	a	n/a
510.944	0.06	1021888	keystroke	l	n/a
511.064	0.075	1022128	keystroke	l	n/a
511.229	0.075	1022458	keystroke	p	n/a
511.334	0.075	1022668	keystroke	e	n/a
512.129	0.075	1024258	keystroke	Key.backspace	n/a
512.369	0.075	1024738	keystroke	a	n/a
512.579	0.075	1025158	keystroke	p	n/a
512.819	0.135	1025638	keystroke	e	n/a
512.894	0.105	1025788	keystroke	r	n/a
513.209	0.075	1026418	keystroke	s	n/a
513.329	0.075	1026658	keystroke	Key.space	n/a
513.764	0.09	1027528	keystroke	u	n/a
513.929	0.09	1027858	keystroke	s	n/a
514.154	0.075	1028308	keystroke	u	n/a
514.439	0.091	1028878	keystroke	a	n/a
514.589	0.075	1029178	keystroke	l	n/a
514.739	0.06	1029478	keystroke	l	n/a
514.89	0.074	1029780	keystroke	y	n/a
515.1135	0.09	1030227	keystroke	Key.space	n/a
515.2485	0.09	1030497	keystroke	c	n/a
515.3985	0.075	1030797	keystroke	i	n/a
515.7135	0.075	1031427	keystroke	r	n/a
516.3285	0.075	1032657	keystroke	c	n/a
516.4785	0.09	1032957	keystroke	l	n/a
516.6135	0.075	1033227	keystroke	e	n/a
516.7785	0.075	1033557	keystroke	Key.space	n/a
517.0185	0.075	1034037	keystroke	c	n/a
517.1085	0.12	1034217	keystroke	o	n/a
517.2135	0.075	1034427	keystroke	n	n/a
517.4235	0.09	1034847	keystroke	t	n/a
517.6035	0.075	1035207	keystroke	r	n/a
517.7235	0.105	1035447	keystroke	o	n/a
517.9935	0.06	1035987	keystroke	l	n/a
518.1135	0.075	1036227	keystroke	l	n/a
518.2185	0.09	1036437	keystroke	e	n/a
518.4285	0.12	1036857	keystroke	d	n/a
518.8785	0.075	1037757	keystroke	Key.enter	n/a
518.96	7.346	1037920	prompt	n/a	bikes thee assume makeup\n
519.6735	0.075	1039347	keystroke	b	n/a
519.8535	0.075	1039707	keystroke	i	n/a
520.0485	0.09	1040097	keystroke	k	n/a
520.1835	0.09	1040367	keystroke	e	n/a
520.3485	0.105	1040697	keystroke	s	n/a
520.4685	0.075	1040937	keystroke	Key.space	n/a
520.9185	0.09	1041837	keystroke	t	n/a
521.0235	0.075	1042047	keystroke	h	n/a
521.3835	0.075	1042767	keystroke	e	n/a
521.5335	0.09	1043067	keystroke	e	n/a
521.8035	0.075	1043607	keystroke	Key.space	n/a
522.0895	0.059	1044179	keystroke	s	n/a
522.9735	0.06	1045947	keystroke	Key.backspace	n/a
523.1235	0.105	1046247	keystroke	a	n/a
523.4085	0.075	1046817	keystroke	s	n/a
523.5435	0.075	1047087	keystroke	s	n/a
523.6635	0.06	1047327	keystroke	u	n/a
523.8585	0.09	1047717	keystroke	m	n/a
524.0085	0.075	1048017	keystroke	e	n/a
524.1285	0.075	1048257	keystroke	Key.space	n/a
524.3835	0.06	1048767	keystroke	m	n/a
524.5035	0.09	1049007	keystroke	a	n/a
525.0895	0.059	1050179	keystroke	k	n/a
525.2235	0.06	1050447	keystroke	e	n/a
525.4335	0.075	1050867	keystroke	u	n/a
525.5995	0.089	1051199	keystroke	p	n/a
526.244	0.06	1052488	keystroke	Key.enter	n/a
526.312	9.7435	1052624	prompt	n/a	accomplish models nashville oven\n
526.995	0.074	1053990	keystroke	a	n/a
527.174	0.09	1054348	keystroke	c	n/a
527.444	0.06	1054888	keystroke	c	n/a
527.714	0.09	1055428	keystroke	o	n/a
527.909	0.06	1055818	keystroke	m	n/a
528.074	0.09	1056148	keystroke	p	n/a
528.284	0.09	1056568	keystroke	l	n/a
528.494	0.075	1056988	keystroke	i	n/a
528.704	0.09	1057408	keystroke	s	n/a
528.854	0.09	1057708	keystroke	h	n/a
529.049	0.075	1058098	keystroke	Key.space	n/a
529.394	0.015	1058788	keystroke	m	n/a
529.604	0.075	1059208	keystroke	o	n/a
530.084	0.075	1060168	keystroke	d	n/a
530.339	0.06	1060678	keystroke	e	n/a
530.789	0.075	1061578	keystroke	l	n/a
530.939	0.075	1061878	keystroke	s	n/a
531.224	0.06	1062448	keystroke	Key.space	n/a
531.719	0.06	1063438	keystroke	n	n/a
531.869	0.105	1063738	keystroke	a	n/a
532.049	0.105	1064098	keystroke	s	n/a
532.199	0.075	1064398	keystroke	h	n/a
532.514	0.075	1065028	keystroke	v	n/a
532.649	0.075	1065298	keystroke	i	n/a
532.859	0.06	1065718	keystroke	l	n/a
532.979	0.075	1065958	keystroke	l	n/a
533.114	0.075	1066228	keystroke	e	n/a
533.159	0.075	1066318	keystroke	Key.space	n/a
533.324	0.105	1066648	keystroke	o	n/a
533.414	0.09	1066828	keystroke	v	n/a
533.579	0.09	1067158	keystroke	e	n/a
534.569	0.075	1069138	keystroke	s	n/a
535.394	0.075	1070788	keystroke	Key.backspace	n/a
535.724	0.06	1071448	keystroke	n	n/a
535.979	0.075	1071958	keystroke	Key.enter	n/a
536.063	13.914	1072126	prompt	n/a	baptist cultures hollywood beast\n
536.834	0.09	1073668	keystroke	b	n/a
537.059	0.12	1074118	keystroke	a	n/a
537.284	0.075	1074568	keystroke	p	n/a
537.599	0.09	1075198	keystroke	t	n/a
537.734	0.075	1075468	keystroke	i	n/a
537.869	0.12	1075738	keystroke	s	n/a
538.004	0.09	1076008	keystroke	t	n/a
538.469	0.075	1076938	keystroke	Key.space	n/a
542.852	0.012	1085704	keystroke	c	n/a
542.999	0.075	1085998	keystroke	u	n/a
543.239	0.105	1086478	keystroke	l	n/a
544.004	0.075	1088008	keystroke	t	n/a
544.154	0.075	1088308	keystroke	u	n/a
544.289	0.15	1088578	keystroke	r	n/a
544.379	0.12	1088758	keystroke	e	n/a
544.649	0.075	1089298	keystroke	s	n/a
544.769	0.075	1089538	keystroke	Key.space	n/a
545.1735	0.0755	1090347	keystroke	h	n/a
545.339	0.09	1090678	keystroke	a	n/a
545.624	0.075	1091248	keystroke	o	n/a
546.029	0.075	1092058	keystroke	Key.backspace	n/a
546.179	0.075	1092358	keystroke	Key.backspace	n/a
546.464	0.09	1092928	keystroke	o	n/a
546.749	0.06	1093498	keystroke	l	n/a
546.869	0.075	1093738	keystroke	l	n/a
547.034	0.075	1094068	keystroke	y	n/a
547.3335	0.09	1094667	keystroke	w	n/a
547.529	0.0595	1095058	keystroke	o	n/a
547.6485	0.105	1095297	keystroke	o	n/a
547.8435	0.09	1095687	keystroke	d	n/a
548.4135	0.075	1096827	keystroke	Key.space	n/a
548.6385	0.075	1097277	keystroke	b	n/a
548.7285	0.09	1097457	keystroke	e	n/a
548.8485	0.15	1097697	keystroke	a	n/a
549.1035	0.12	1098207	keystroke	s	n/a
549.2985	0.075	1098597	keystroke	t	n/a
549.9285	0.045	1099857	keystroke	Key.enter	n/a
549.9825	13.838	1099965	prompt	n/a	headset competitive housewares hospital\n
550.7985	0.075	1101597	keystroke	h	n/a
550.9485	0.09	1101897	keystroke	a	n/a
551.1135	0.075	1102227	keystroke	e	n/a
551.3085	0.12	1102617	keystroke	d	n/a
552.3585	0.075	1104717	keystroke	Key.backspace	n/a
552.5085	0.06	1105017	keystroke	Key.backspace	n/a
552.6585	0.075	1105317	keystroke	Key.backspace	n/a
552.7935	0.105	1105587	keystroke	e	n/a
553.0785	0.135	1106157	keystroke	a	n/a
553.9935	0.075	1107987	keystroke	d	n/a
554.2185	0.09	1108437	keystroke	s	n/a
554.3835	0.09	1108767	keystroke	e	n/a
554.6385	0.075	1109277	keystroke	t	n/a
554.8035	0.09	1109607	keystroke	Key.space	n/a
555.0135	0.09	1110027	keystroke	c	n/a
555.1335	0.12	1110267	keystroke	o	n/a
555.3285	0.105	1110657	keystroke	m	n/a
555.6885	0.09	1111377	keystroke	p	n/a
556.0185	0.105	1112037	keystroke	e	n/a
556.8135	0.075	1113627	keystroke	t	n/a
557.0985	0.075	1114197	keystroke	i	n/a
557.2785	0.105	1114557	keystroke	t	n/a
557.4285	0.09	1114857	keystroke	i	n/a
557.5485	0.135	1115097	keystroke	v	n/a
557.7135	0.09	1115427	keystroke	e	n/a
557.8485	0.075	1115697	keystroke	Key.space	n/a
558.1635	0.09	1116327	keystroke	h	n/a
558.3435	0.135	1116687	keystroke	o	n/a
558.4035	0.135	1116807	keystroke	u	n/a
558.5835	0.075	1117167	keystroke	s	n/a
558.6285	0.18	1117257	keystroke	e	n/a
559.1985	0.09	1118397	keystroke	w	n/a
559.4085	0.105	1118817	keystroke	a	n/a
559.5585	0.12	1119117	keystroke	r	n/a
559.6485	0.12	1119297	keystroke	e	n/a
559.9635	0.075	1119927	keystroke	s	n/a
560.2035	0.06	1120407	keystroke	Key.space	n/a
560.5635	0.06	1121127	keystroke	h	n/a
560.7585	0.06	1121517	keystroke	o	n/a
561.2085	0.075	1122417	keystroke	s	n/a
561.4185	0.09	1122837	keystroke	p	n/a
561.6435	0.075	1123287	keystroke	i	n/a
561.9135	0.09	1123827	keystroke	t	n/a
562.8135	0.12	1125627	keystroke	a	n/a
562.9785	0.075	1125957	keystroke	l	n/a
563.7585	0.06	1127517	keystroke	Key.enter	n/a
563.827	8.4835	1127654	prompt	n/a	generating recipe top present\n
565.0185	0.09	1130037	keystroke	g	n/a
565.2735	0.06	1130547	keystroke	e	n/a
565.4535	0.075	1130907	keystroke	n	n/a
566.8035	0.135	1133607	keystroke	e	n/a
566.9835	0.12	1133967	keystroke	r	n/a
567.2085	0.105	1134417	keystroke	a	n/a
567.3585	0.105	1134717	keystroke	t	n/a
567.4785	0.105	1134957	keystroke	i	n/a
567.6435	0.09	1135287	keystroke	n	n/a
567.9885	0.06	1135977	keystroke	g	n/a
568.1835	0.06	1136367	keystroke	Key.space	n/a
568.5885	0.105	1137177	keystroke	r	n/a
568.6495	0.104	1137299	keystroke	e	n/a
569.0985	0.075	1138197	keystroke	c	n/a
569.2935	0.075	1138587	keystroke	i	n/a
569.4585	0.09	1138917	keystroke	p	n/a
569.6235	0.06	1139247	keystroke	e	n/a
569.7585	0.06	1139517	keystroke	Key.space	n/a
570.1485	0.075	1140297	keystroke	t	n/a
570.2085	0.09	1140417	keystroke	o	n/a
570.3735	0.09	1140747	keystroke	p	n/a
570.5685	0.09	1141137	keystroke	Key.space	n/a
570.779	0.09	1141558	keystroke	p	n/a
570.854	0.09	1141708	keystroke	r	n/a
570.899	0.105	1141798	keystroke	e	n/a
571.154	0.09	1142308	keystroke	s	n/a
571.319	0.105	1142638	keystroke	e	n/a
571.454	0.075	1142908	keystroke	n	n/a
571.619	0.06	1143238	keystroke	t	n/a
572.234	0.075	1144468	keystroke	Key.enter	n/a
572.3155	7.6295	1144631	prompt	n/a	corners naughty helpful compound\n
573.119	0.06	1146238	keystroke	c	n/a
573.3135	0.105	1146627	keystroke	o	n/a
573.6135	0.075	1147227	keystroke	r	n/a
573.8085	0.06	1147617	keystroke	n	n/a
574.0935	0.12	1148187	keystroke	e	n/a
574.1535	0.09	1148307	keystroke	r	n/a
574.4085	0.075	1148817	keystroke	s	n/a
574.5435	0.06	1149087	keystroke	Key.space	n/a
574.8135	0.09	1149627	keystroke	n	n/a
574.9935	0.09	1149987	keystroke	a	n/a
575.2185	0.075	1150437	keystroke	u	n/a
575.3835	0.075	1150767	keystroke	g	n/a
575.503	0.075	1151006	keystroke	h	n/a
575.623	0.09	1151246	keystroke	t	n/a
575.833	0.075	1151666	keystroke	y	n/a
576.073	0.075	1152146	keystroke	Key.space	n/a
576.328	0.091	1152656	keystroke	h	n/a
576.493	0.06	1152986	keystroke	e	n/a
576.583	0.075	1153166	keystroke	l	n/a
576.763	0.075	1153526	keystroke	p	n/a
576.943	0.045	1153886	keystroke	f	n/a
577.033	0.09	1154066	keystroke	u	n/a
577.258	0.075	1154516	keystroke	l	n/a
577.438	0.075	1154876	keystroke	Key.space	n/a
577.873	0.09	1155746	keystroke	c	n/a
578.038	0.195	1156076	keystroke	o	n/a
578.173	0.105	1156346	keystroke	m	n/a
578.398	0.075	1156796	keystroke	p	n/a
578.638	0.195	1157276	keystroke	o	n/a
578.759	0.104	1157518	keystroke	u	n/a
579.028	0.076	1158056	keystroke	n	n/a
579.223	0.09	1158446	keystroke	d	n/a
579.883	0.06	1159766	keystroke	Key.enter	n/a
579.951	10.4505	1159902	prompt	n/a	combining project protocol respective\n
580.648	0.075	1161296	keystroke	c	n/a
580.858	0.121	1161716	keystroke	o	n/a
581.038	0.105	1162076	keystroke	m	n/a
581.293	0.075	1162586	keystroke	b	n/a
581.503	0.075	1163006	keystroke	i	n/a
581.668	0.075	1163336	keystroke	n	n/a
581.834	0.074	1163668	keystroke	i	n/a
581.909	0.089	1163818	keystroke	n	n/a
582.013	0.075	1164026	keystroke	g	n/a
582.163	0.09	1164326	keystroke	Key.space	n/a
582.614	0.074	1165228	keystroke	p	n/a
582.763	0.075	1165526	keystroke	r	n/a
582.868	0.075	1165736	keystroke	o	n/a
583.109	0.059	1166218	keystroke	j	n/a
583.243	0.09	1166486	keystroke	e	n/a
583.408	0.075	1166816	keystroke	c	n/a
583.633	0.075	1167266	keystroke	t	n/a
583.723	0.06	1167446	keystroke	Key.space	n/a
583.933	0.075	1167866	keystroke	p	n/a
584.083	0.06	1168166	keystroke	r	n/a
584.203	0.09	1168406	keystroke	o	n/a
584.654	0.044	1169308	keystroke	t	n/a
584.833	0.06	1169666	keystroke	o	n/a
584.954	0.089	1169908	keystroke	c	n/a
585.133	0.09	1170266	keystroke	o	n/a
585.343	0.075	1170686	keystroke	l	n/a
585.553	0.075	1171106	keystroke	Key.space	n/a
585.868	0.12	1171736	keystroke	e	n/a
585.928	0.105	1171856	keystroke	w	n/a
586.888	0.075	1173776	keystroke	Key.backspace	n/a
587.023	0.09	1174046	keystroke	Key.backspace	n/a
587.143	0.1055	1174286	keystroke	e	n/a
587.2035	0.09	1174407	keystroke	w	n/a
587.7435	0.06	1175487	keystroke	Key.backspace	n/a
587.8785	0.075	1175757	keystroke	Key.backspace	n/a
588.1635	0.12	1176327	keystroke	r	n/a
588.2985	0.12	1176597	keystroke	e	n/a
588.7485	0.06	1177497	keystroke	s	n/a
588.8685	0.075	1177737	keystroke	p	n/a
588.9585	0.075	1177917	keystroke	e	n/a
589.1385	0.06	1178277	keystroke	c	n/a
589.3485	0.06	1178697	keystroke	t	n/a
589.4235	0.105	1178847	keystroke	i	n/a
589.5885	0.105	1179177	keystroke	v	n/a
589.7385	0.09	1179477	keystroke	e	n/a
590.3385	0.06	1180677	keystroke	Key.enter	n/a
590.406	5.5305	1180812	prompt	n/a	smilies address blond auto\n
591.1635	0.075	1182327	keystroke	s	n/a
591.2535	0.09	1182507	keystroke	m	n/a
591.4485	0.075	1182897	keystroke	i	n/a
591.5985	0.105	1183197	keystroke	l	n/a
591.7045	0.089	1183409	keystroke	e	n/a
591.8685	0.09	1183737	keystroke	s	n/a
591.9735	0.075	1183947	keystroke	Key.space	n/a
592.1535	0.09	1184307	keystroke	a	n/a
592.3935	0.045	1184787	keystroke	d	n/a
592.5135	0.06	1185027	keystroke	d	n/a
592.6935	0.075	1185387	keystroke	r	n/a
592.7385	0.09	1185477	keystroke	e	n/a
593.0835	0.06	1186167	keystroke	s	n/a
593.2035	0.06	1186407	keystroke	s	n/a
593.3085	0.09	1186617	keystroke	Key.space	n/a
593.6385	0.06	1187277	keystroke	b	n/a
593.8035	0.09	1187607	keystroke	l	n/a
593.9835	0.09	1187967	keystroke	o	n/a
594.1785	0.075	1188357	keystroke	n	n/a
594.3285	0.06	1188657	keystroke	d	n/a
594.4035	0.09	1188807	keystroke	Key.space	n/a
594.5685	0.09	1189137	keystroke	a	n/a
594.7335	0.075	1189467	keystroke	u	n/a
595.1985	0.075	1190397	keystroke	t	n/a
595.3185	0.09	1190637	keystroke	o	n/a
595.8885	0.045	1191777	keystroke	Key.enter	n/a
595.9425	5.753	1191885	prompt	n/a	belt walker blocked precious\n
596.6085	0.06	1193217	keystroke	b	n/a
596.8185	0.06	1193637	keystroke	e	n/a
596.9385	0.075	1193877	keystroke	l	n/a
597.1485	0.075	1194297	keystroke	t	n/a
597.2685	0.075	1194537	keystroke	Key.space	n/a
597.4935	0.105	1194987	keystroke	w	n/a
597.6885	0.075	1195377	keystroke	a	n/a
597.7785	0.09	1195557	keystroke	l	n/a
597.8385	0.135	1195677	keystroke	k	n/a
598.0335	0.105	1196067	keystroke	e	n/a
598.0935	0.09	1196187	keystroke	r	n/a
598.2285	0.075	1196457	keystroke	Key.space	n/a
598.4835	0.075	1196967	keystroke	b	n/a
598.6335	0.09	1197267	keystroke	l	n/a
598.8285	0.075	1197657	keystroke	o	n/a
598.9335	0.075	1197867	keystroke	c	n/a
599.0385	0.09	1198077	keystroke	k	n/a
599.2185	0.06	1198437	keystroke	e	n/a
599.3985	0.09	1198797	keystroke	d	n/a
599.5335	0.075	1199067	keystroke	Key.space	n/a
599.8335	0.09	1199667	keystroke	p	n/a
599.9985	0.09	1199997	keystroke	r	n/a
600.0435	0.105	1200087	keystroke	e	n/a
600.3435	0.09	1200687	keystroke	c	n/a
600.5385	0.075	1201077	keystroke	i	n/a
600.7335	0.15	1201467	keystroke	o	n/a
600.8235	0.105	1201647	keystroke	u	n/a
601.0335	0.09	1202067	keystroke	s	n/a
601.6335	0.06	1203267	keystroke	Key.enter	n/a
601.6995	10.977	1203399	prompt	n/a	clicks clearing automobiles kathy\n
602.3535	0.06	1204707	keystroke	c	n/a
602.5035	0.06	1205007	keystroke	l	n/a
602.6535	0.075	1205307	keystroke	i	n/a
602.8485	0.09	1205697	keystroke	c	n/a
602.9235	0.075	1205847	keystroke	k	n/a
603.2385	0.015	1206477	keystroke	s	n/a
603.3135	0.075	1206627	keystroke	Key.space	n/a
603.8385	0.045	1207677	keystroke	c	n/a
603.9735	0.075	1207947	keystroke	l	n/a
604.0935	0.105	1208187	keystroke	e	n/a
604.3485	0.12	1208697	keystroke	a	n/a
604.5735	0.075	1209147	keystroke	r	n/a
604.6635	0.105	1209327	keystroke	i	n/a
604.7695	0.074	1209539	keystroke	n	n/a
604.9035	0.045	1209807	keystroke	g	n/a
604.9935	0.075	1209987	keystroke	Key.space	n/a
605.3235	0.06	1210647	keystroke	a	n/a
605.4585	0.075	1210917	keystroke	u	n/a
605.6835	0.075	1211367	keystroke	t	n/a
605.8185	0.09	1211637	keystroke	o	n/a
606.0285	0.075	1212057	keystroke	m	n/a
606.2385	0.075	1212477	keystroke	i	n/a
607.3185	0.06	1214637	keystroke	Key.backspace	n/a
607.5135	0.03	1215027	keystroke	Key.backspace	n/a
608.1435	0.075	1216287	keystroke	m	n/a
608.3235	0.075	1216647	keystroke	o	n/a
609.5535	0.06	1219107	keystroke	b	n/a
609.7185	0.075	1219437	keystroke	i	n/a
609.9135	0.075	1219827	keystroke	l	n/a
610.0485	0.09	1220097	keystroke	e	n/a
610.2285	0.09	1220457	keystroke	s	n/a
610.3195	0.074	1220639	keystroke	Key.space	n/a
610.7235	0.075	1221447	keystroke	k	n/a
610.8585	0.105	1221717	keystroke	a	n/a
611.0235	0.09	1222047	keystroke	t	n/a
611.1145	0.074	1222229	keystroke	h	n/a
611.2635	0.015	1222527	keystroke	e	n/a
612.1185	0.06	1224237	keystroke	Key.backspace	n/a
612.3585	0.045	1224717	keystroke	y	n/a
612.6135	0.06	1225227	keystroke	Key.enter	n/a
612.682	6.7585	1225364	prompt	n/a	lion stayed collecting james\n
613.4685	0.075	1226937	keystroke	l	n/a
613.6335	0.09	1227267	keystroke	i	n/a
613.9335	0.075	1227867	keystroke	o	n/a
614.2185	0.06	1228437	keystroke	n	n/a
614.6535	0.075	1229307	keystroke	Key.space	n/a
614.9245	0.074	1229849	keystroke	s	n/a
615.0735	0.09	1230147	keystroke	t	n/a
615.2385	0.12	1230477	keystroke	a	n/a
615.4035	0.06	1230807	keystroke	y	n/a
615.5835	0.075	1231167	keystroke	e	n/a
615.7485	0.09	1231497	keystroke	d	n/a
615.8535	0.06	1231707	keystroke	Key.space	n/a
616.0785	0.075	1232157	keystroke	c	n/a
616.2135	0.075	1232427	keystroke	o	n/a
616.4535	0.06	1232907	keystroke	l	n/a
616.5735	0.075	1233147	keystroke	l	n/a
616.6785	0.075	1233357	keystroke	e	n/a
616.8285	0.075	1233657	keystroke	c	n/a
617.0385	0.075	1234077	keystroke	t	n/a
617.1285	0.09	1234257	keystroke	i	n/a
617.2785	0.09	1234557	keystroke	n	n/a
617.5785	0.075	1235157	keystroke	g	n/a
617.7285	0.075	1235457	keystroke	Key.space	n/a
618.0585	0.06	1236117	keystroke	j	n/a
618.2245	0.089	1236449	keystroke	a	n/a
618.3585	0.075	1236717	keystroke	m	n/a
618.4935	0.075	1236987	keystroke	e	n/a
618.7635	0.075	1237527	keystroke	s	n/a
619.3785	0.06	1238757	keystroke	Key.enter	n/a
619.445	10.736	1238890	prompt	n/a	twist texts sunglasses telecharger\n
620.1885	0.105	1240377	keystroke	t	n/a
620.4435	0.075	1240887	keystroke	w	n/a
620.6535	0.075	1241307	keystroke	i	n/a
621.8085	0.09	1243617	keystroke	s	n/a
621.9585	0.091	1243917	keystroke	t	n/a
622.1085	0.075	1244217	keystroke	Key.space	n/a
622.4085	0.09	1244817	keystroke	t	n/a
623.1135	0.09	1246227	keystroke	e	n/a
623.3835	0.135	1246767	keystroke	x	n/a
623.6835	0.09	1247367	keystroke	t	n/a
624.1185	0.075	1248237	keystroke	s	n/a
624.3885	0.09	1248777	keystroke	Key.space	n/a
624.5685	0.09	1249137	keystroke	s	n/a
624.7485	0.045	1249497	keystroke	u	n/a
625.0485	0.075	1250097	keystroke	n	n/a
625.2435	0.075	1250487	keystroke	g	n/a
625.4985	0.091	1250997	keystroke	l	n/a
625.7245	0.074	1251449	keystroke	a	n/a
626.0835	0.075	1252167	keystroke	s	n/a
626.4585	0.06	1252917	keystroke	s	n/a
626.6685	0.061	1253337	keystroke	e	n/a
626.8635	0.075	1253727	keystroke	s	n/a
627.0285	0.06	1254057	keystroke	Key.space	n/a
627.4335	0.03	1254867	keystroke	t	n/a
627.8385	0.061	1255677	keystroke	e	n/a
628.0035	0.09	1256007	keystroke	l	n/a
628.1085	0.06	1256217	keystroke	e	n/a
628.4535	0.09	1256907	keystroke	c	n/a
628.5885	0.075	1257177	keystroke	h	n/a
628.7085	0.15	1257417	keystroke	a	n/a
628.9335	0.075	1257867	keystroke	r	n/a
629.1435	0.06	1258287	keystroke	g	n/a
629.3085	0.135	1258617	keystroke	e	n/a
629.3835	0.09	1258767	keystroke	r	n/a
630.1035	0.075	1260207	keystroke	Key.enter	n/a
630.187	20.3195	1260374	prompt	n/a	techniques sweet fundraising calendars\n
630.9585	0.091	1261917	keystroke	t	n/a
631.2135	0.03	1262427	keystroke	w	n/a
631.6635	0.06	1263327	keystroke	Key.backspace	n/a
631.7385	0.105	1263477	keystroke	e	n/a
632.2945	0.089	1264589	keystroke	q	n/a
632.5485	0.076	1265097	keystroke	u	n/a
634.1235	0.06	1268247	keystroke	Key.backspace	n/a
634.2585	0.06	1268517	keystroke	Key.backspace	n/a
634.4245	0.06	1268849	keystroke	c	n/a
635.039	0.075	1270078	keystroke	h	n/a
636.5085	0.045	1273017	keystroke	n	n/a
636.6735	0.075	1273347	keystroke	i	n/a
637.7835	0.091	1275567	keystroke	q	n/a
637.9935	0.075	1275987	keystroke	u	n/a
638.1135	0.105	1276227	keystroke	e	n/a
638.3545	0.09	1276709	keystroke	s	n/a
638.6235	0.06	1277247	keystroke	Key.space	n/a
639.883	0.075	1279766	keystroke	s	n/a
640.094	0.075	1280188	keystroke	w	n/a
640.3345	0.0585	1280669	keystroke	e	n/a
640.439	0.089	1280878	keystroke	e	n/a
640.633	0.075	1281266	keystroke	t	n/a
640.723	0.076	1281446	keystroke	Key.space	n/a
641.068	0.075	1282136	keystroke	f	n/a
641.233	0.091	1282466	keystroke	u	n/a
641.518	0.075	1283036	keystroke	n	n/a
641.774	0.075	1283548	keystroke	d	n/a
642.118	0.121	1284236	keystroke	r	n/a
642.344	0.089	1284688	keystroke	a	n/a
642.523	0.106	1285046	keystroke	i	n/a
643.304	0.059	1286608	keystroke	s	n/a
643.574	0.089	1287148	keystroke	n	n/a
643.724	0.12	1287448	keystroke	i	n/a
643.828	0.075	1287656	keystroke	n	n/a
643.919	0.074	1287838	keystroke	g	n/a
644.068	0.075	1288136	keystroke	Key.space	n/a
645.943	0.075	1291886	keystroke	Key.backspace	n/a
646.093	0.075	1292186	keystroke	Key.backspace	n/a
646.258	0.061	1292516	keystroke	Key.backspace	n/a
646.408	0.0605	1292816	keystroke	Key.backspace	n/a
646.558	0.06	1293116	keystroke	Key.backspace	n/a
647.069	0.105	1294138	keystroke	i	n/a
647.188	0.091	1294376	keystroke	n	n/a
647.308	0.075	1294616	keystroke	g	n/a
647.429	0.074	1294858	keystroke	Key.space	n/a
647.998	0.091	1295996	keystroke	c	n/a
648.194	0.089	1296388	keystroke	a	n/a
648.299	0.09	1296598	keystroke	l	n/a
648.644	0.075	1297288	keystroke	e	n/a
648.779	0.075	1297558	keystroke	n	n/a
649.018	0.075	1298036	keystroke	d	n/a
649.169	0.18	1298338	keystroke	a	n/a
649.334	0.134	1298668	keystroke	r	n/a
649.604	0.074	1299208	keystroke	s	n/a
650.444	0.059	1300888	keystroke	Key.enter	n/a
650.514	10.072	1301028	prompt	n/a	portsmouth rational inline turned\n
651.254	0.09	1302508	keystroke	p	n/a
651.464	0.075	1302928	keystroke	o	n/a
651.674	0.045	1303348	keystroke	r	n/a
651.824	0.075	1303648	keystroke	t	n/a
652.483	0.076	1304966	keystroke	s	n/a
652.619	0.09	1305238	keystroke	m	n/a
652.844	0.135	1305688	keystroke	o	n/a
652.949	0.075	1305898	keystroke	u	n/a
653.159	0.06	1306318	keystroke	t	n/a
653.219	0.09	1306438	keystroke	h	n/a
653.429	0.075	1306858	keystroke	Key.space	n/a
653.624	0.12	1307248	keystroke	r	n/a
653.878	0.106	1307756	keystroke	a	n/a
655.019	0.09	1310038	keystroke	t	n/a
655.154	0.12	1310308	keystroke	i	n/a
655.304	0.074	1310608	keystroke	o	n/a
655.319	0.119	1310638	keystroke	n	n/a
655.544	0.075	1311088	keystroke	a	n/a
655.664	0.075	1311328	keystroke	l	n/a
655.903	0.06	1311806	keystroke	Key.space	n/a
657.149	0.045	1314298	keystroke	l	n/a
657.509	0.075	1315018	keystroke	Key.backspace	n/a
657.764	0.105	1315528	keystroke	i	n/a
657.884	0.09	1315768	keystroke	n	n/a
658.034	0.09	1316068	keystroke	l	n/a
658.199	0.075	1316398	keystroke	i	n/a
658.304	0.09	1316608	keystroke	n	n/a
658.454	0.075	1316908	keystroke	e	n/a
658.514	0.09	1317028	keystroke	Key.space	n/a
659.219	0.09	1318438	keystroke	t	n/a
659.429	0.075	1318858	keystroke	u	n/a
659.579	0.06	1319158	keystroke	r	n/a
659.669	0.105	1319338	keystroke	n	n/a
659.819	0.075	1319638	keystroke	e	n/a
660.029	0.075	1320058	keystroke	d	n/a
660.524	0.06	1321048	keystroke	Key.enter	n/a
660.5925	9.143	1321185	prompt	n/a	geek breathing allah onto\n
661.439	0.075	1322878	keystroke	g	n/a
661.724	0.045	1323448	keystroke	e	n/a
661.859	0.06	1323718	keystroke	e	n/a
662.069	0.06	1324138	keystroke	k	n/a
662.219	0.09	1324438	keystroke	Key.space	n/a
662.564	0.09	1325128	keystroke	b	n/a
662.684	0.105	1325368	keystroke	r	n/a
662.729	0.135	1325458	keystroke	e	n/a
662.954	0.135	1325908	keystroke	a	n/a
663.704	0.06	1327408	keystroke	t	n/a
663.794	0.075	1327588	keystroke	h	n/a
663.929	0.105	1327858	keystroke	e	n/a
663.974	0.045	1327948	keystroke	r	n/a
664.574	0.06	1329148	keystroke	Key.backspace	n/a
664.754	0.075	1329508	keystroke	Key.backspace	n/a
665.009	0.105	1330018	keystroke	i	n/a
665.129	0.09	1330258	keystroke	n	n/a
665.279	0.075	1330558	keystroke	g	n/a
665.369	0.075	1330738	keystroke	Key.space	n/a
665.549	0.075	1331098	keystroke	a	n/a
665.684	0.09	1331368	keystroke	l	n/a
665.819	0.075	1331638	keystroke	l	n/a
666.014	0.075	1332028	keystroke	a	n/a
666.359	0.075	1332718	keystroke	Key.space	n/a
666.959	0.075	1333918	keystroke	Key.backspace	n/a
667.604	0.06	1335208	keystroke	h	n/a
667.769	0.09	1335538	keystroke	Key.space	n/a
668.039	0.03	1336078	keystroke	o	n/a
668.054	0.06	1336108	keystroke	n	n/a
668.294	0.075	1336588	keystroke	t	n/a
668.459	0.075	1336918	keystroke	o	n/a
669.674	0.06	1339348	keystroke	Key.enter	n/a
669.74	6.777	1339480	prompt	n/a	prefers category west objects\n
670.484	0.075	1340968	keystroke	p	n/a
670.619	0.12	1341238	keystroke	r	n/a
670.679	0.12	1341358	keystroke	e	n/a
670.994	0.075	1341988	keystroke	f	n/a
671.129	0.18	1342258	keystroke	e	n/a
671.279	0.12	1342558	keystroke	r	n/a
671.534	0.075	1343068	keystroke	s	n/a
671.654	0.09	1343308	keystroke	Key.space	n/a
671.894	0.09	1343788	keystroke	c	n/a
672.044	0.15	1344088	keystroke	a	n/a
672.254	0.105	1344508	keystroke	t	n/a
672.449	0.09	1344898	keystroke	e	n/a
672.734	0.06	1345468	keystroke	g	n/a
672.869	0.105	1345738	keystroke	o	n/a
673.034	0.075	1346068	keystroke	r	n/a
673.139	0.075	1346278	keystroke	y	n/a
673.349	0.09	1346698	keystroke	Key.space	n/a
673.619	0.12	1347238	keystroke	w	n/a
673.754	0.105	1347508	keystroke	e	n/a
673.964	0.12	1347928	keystroke	s	n/a
674.099	0.105	1348198	keystroke	t	n/a
674.219	0.06	1348438	keystroke	Key.space	n/a
674.474	0.09	1348948	keystroke	o	n/a
674.639	0.09	1349278	keystroke	b	n/a
674.939	0.09	1349878	keystroke	j	n/a
675.149	0.09	1350298	keystroke	e	n/a
675.314	0.105	1350628	keystroke	c	n/a
675.539	0.105	1351078	keystroke	t	n/a
675.764	0.075	1351528	keystroke	s	n/a
676.439	0.075	1352878	keystroke	Key.enter	n/a
676.5325	9.238	1353065	prompt	n/a	electoral industry lord cemetery\n
677.2635	0.06	1354527	keystroke	e	n/a
677.9985	0.09	1355997	keystroke	l	n/a
678.1185	0.075	1356237	keystroke	e	n/a
678.3135	0.09	1356627	keystroke	c	n/a
678.5835	0.105	1357167	keystroke	t	n/a
679.4535	0.075	1358907	keystroke	o	n/a
679.7235	0.09	1359447	keystroke	r	n/a
680.0985	0.06	1360197	keystroke	a	n/a
680.2035	0.075	1360407	keystroke	l	n/a
680.3535	0.09	1360707	keystroke	Key.space	n/a
680.5935	0.075	1361187	keystroke	i	n/a
680.7135	0.09	1361427	keystroke	n	n/a
680.8785	0.09	1361757	keystroke	d	n/a
681.0135	0.09	1362027	keystroke	u	n/a
681.1935	0.09	1362387	keystroke	s	n/a
681.3285	0.09	1362657	keystroke	t	n/a
681.5085	0.075	1363017	keystroke	r	n/a
681.6135	0.075	1363227	keystroke	y	n/a
681.8235	0.075	1363647	keystroke	Key.space	n/a
682.0035	0.075	1364007	keystroke	l	n/a
682.1835	0.09	1364367	keystroke	o	n/a
682.6335	0.075	1365267	keystroke	r	n/a
682.8435	0.09	1365687	keystroke	d	n/a
682.9785	0.075	1365957	keystroke	Key.space	n/a
683.1585	0.075	1366317	keystroke	c	n/a
683.7585	0.075	1367517	keystroke	e	n/a
683.9385	0.06	1367877	keystroke	m	n/a
684.0285	0.105	1368057	keystroke	e	n/a
684.2535	0.09	1368507	keystroke	t	n/a
684.4635	0.165	1368927	keystroke	e	n/a
684.5685	0.09	1369137	keystroke	r	n/a
684.7785	0.075	1369557	keystroke	y	n/a
685.7085	0.06	1371417	keystroke	Key.enter	n/a
685.7755	8.2155	1371551	prompt	n/a	tamil hack blond eternal\n
686.6535	0.105	1373307	keystroke	t	n/a
686.8935	0.105	1373787	keystroke	a	n/a
687.0585	0.075	1374117	keystroke	m	n/a
687.2535	0.075	1374507	keystroke	i	n/a
687.4335	0.075	1374867	keystroke	l	n/a
687.6585	0.06	1375317	keystroke	Key.space	n/a
688.378	0.075	1376756	keystroke	h	n/a
689.039	0.105	1378078	keystroke	a	n/a
689.203	0.091	1378406	keystroke	c	n/a
689.323	0.09	1378646	keystroke	k	n/a
689.473	0.09	1378946	keystroke	Key.space	n/a
689.833	0.045	1379666	keystroke	b	n/a
690.014	0.09	1380028	keystroke	l	n/a
690.269	0.089	1380538	keystroke	o	n/a
690.478	0.076	1380956	keystroke	n	n/a
691.244	0.09	1382488	keystroke	d	n/a
691.573	0.06	1383146	keystroke	Key.space	n/a
692.008	0.076	1384016	keystroke	e	n/a
692.338	0.09	1384676	keystroke	t	n/a
692.549	0.104	1385098	keystroke	e	n/a
692.623	0.09	1385246	keystroke	r	n/a
692.894	0.075	1385788	keystroke	n	n/a
693.029	0.09	1386058	keystroke	a	n/a
693.149	0.089	1386298	keystroke	l	n/a
