onset	duration	sample	value	key	prompt_text
7.2485	17.294	14497	prompt	n/a	the quick brown fox jumps over a lazy dog\n
8.777	0.028	17554	keystroke_t	t	n/a
8.865	0.075	17730	keystroke_h	h	n/a
9	0.135	18000	keystroke_e	e	n/a
9.3305	0.06	18661	keystroke_Key.space	Key.space	n/a
9.6605	0.105	19321	keystroke_q	q	n/a
9.8555	0.09	19711	keystroke_u	u	n/a
9.9605	0.09	19921	keystroke_i	i	n/a
10.2305	0.045	20461	keystroke_c	c	n/a
11.1605	0.1045	22321	keystroke_k	k	n/a
11.355	0.09	22710	keystroke_Key.space	Key.space	n/a
12.0155	0.105	24031	keystroke_b	b	n/a
12.915	0.135	25830	keystroke_r	r	n/a
13.095	0.135	26190	keystroke_o	o	n/a
13.215	0.135	26430	keystroke_w	w	n/a
13.395	0.09	26790	keystroke_n	n	n/a
13.71	0.09	27420	keystroke_Key.space	Key.space	n/a
14.055	0.15	28110	keystroke_f	f	n/a
14.19	0.09	28380	keystroke_o	o	n/a
14.535	0.075	29070	keystroke_x	x	n/a
14.7	0.12	29400	keystroke_x	x	n/a
15.585	0.075	31170	keystroke_Key.backspace	Key.backspace	n/a
16.035	0.09	32070	keystroke_Key.space	Key.space	n/a
16.215	0.075	32430	keystroke_j	j	n/a
16.41	0.0595	32820	keystroke_u	u	n/a
16.575	0.105	33150	keystroke_m	m	n/a
16.6655	0.1345	33331	keystroke_p	p	n/a
16.83	0.12	33660	keystroke_s	s	n/a
17.01	0.06	34020	keystroke_Key.space	Key.space	n/a
17.16	0.09	34320	keystroke_o	o	n/a
17.31	0.15	34620	keystroke_v	v	n/a
18.105	0.09	36210	keystroke_o	o	n/a
18.24	0.18	36480	keystroke_e	e	n/a
18.39	0.12	36780	keystroke_r	r	n/a
18.66	0.12	37320	keystroke_Key.space	Key.space	n/a
19.305	0.045	38610	keystroke_\	\	n/a
20.16	0.075	40320	keystroke_Key.backspace	Key.backspace	n/a
20.31	0.075	40620	keystroke_Key.backspace	Key.backspace	n/a
20.46	0.105	40920	keystroke_Key.backspace	Key.backspace	n/a
20.76	0.09	41520	keystroke_Key.backspace	Key.backspace	n/a
21.06	0.09	42120	keystroke_Key.backspace	Key.backspace	n/a
21.615	0.12	43230	keystroke_e	e	n/a
21.69	0.135	43380	keystroke_r	r	n/a
21.885	0.105	43770	keystroke_Key.space	Key.space	n/a
22.035	0.12	44070	keystroke_t	t	n/a
22.17	0.105	44340	keystroke_h	h	n/a
22.26	0.09	44520	keystroke_e	e	n/a
22.351	0.104	44702	keystroke_Key.space	Key.space	n/a
22.6955	0.09	45391	keystroke_l	l	n/a
22.7695	0.1355	45539	keystroke_a	a	n/a
23.025	0.15	46050	keystroke_z	z	n/a
23.19	0.075	46380	keystroke_y	y	n/a
23.28	0.1055	46560	keystroke_Key.space	Key.space	n/a
23.6855	0.12	47371	keystroke_d	d	n/a
23.7755	0.105	47551	keystroke_o	o	n/a
23.9855	0.105	47971	keystroke_g	g	n/a
24.4505	0.09	48901	keystroke_Key.enter	Key.enter	n/a
24.549	10.313	49098	prompt	n/a	vocal slope deleted occasionally\n
25.9355	0.12	51871	keystroke_v	v	n/a
26.1455	0.045	52291	keystroke_o	o	n/a
26.3405	0.15	52681	keystroke_c	c	n/a
26.5505	0.105	53101	keystroke_a	a	n/a
26.6855	0.135	53371	keystroke_l	l	n/a
26.8655	0.119	53731	keystroke_Key.space	Key.space	n/a
27.0905	0.119	54181	keystroke_s	s	n/a
27.1955	0.104	54391	keystroke_l	l	n/a
27.4055	0.134	54811	keystroke_o	o	n/a
27.7645	0.165	55529	keystroke_p	p	n/a
27.9595	0.135	55919	keystroke_e	e	n/a
28.1845	0.0755	56369	keystroke_Key.space	Key.space	n/a
28.65	0.12	57300	keystroke_d	d	n/a
28.86	0.135	57720	keystroke_e	e	n/a
29.01	0.105	58020	keystroke_l	l	n/a
29.311	0.089	58622	keystroke_e	e	n/a
29.805	0.151	59610	keystroke_t	t	n/a
30.15	0.135	60300	keystroke_e	e	n/a
30.48	0.03	60960	keystroke_d	d	n/a
30.93	0.075	61860	keystroke_Key.space	Key.space	n/a
31.215	0.105	62430	keystroke_o	o	n/a
31.725	0.12	63450	keystroke_c	c	n/a
31.92	0.15	63840	keystroke_c	c	n/a
32.295	0.105	64590	keystroke_a	a	n/a
32.52	0.151	65040	keystroke_s	s	n/a
32.685	0.15	65370	keystroke_i	i	n/a
33.001	0.134	66002	keystroke_n	n	n/a
33.6	0.105	67200	keystroke_a	a	n/a
33.81	0.075	67620	keystroke_l	l	n/a
34.185	0.12	68370	keystroke_l	l	n/a
34.44	0.09	68880	keystroke_y	y	n/a
34.77	0.09	69540	keystroke_Key.enter	Key.enter	n/a
34.867	14.65	69734	prompt	n/a	fingers perfume memphis transport\n
35.58	0.15	71160	keystroke_f	f	n/a
35.76	0.105	71520	keystroke_i	i	n/a
36.27	0.09	72540	keystroke_n	n	n/a
36.42	0.135	72840	keystroke_g	g	n/a
36.645	0.15	73290	keystroke_e	e	n/a
36.75	0.12	73500	keystroke_r	r	n/a
36.945	0.135	73890	keystroke_s	s	n/a
37.095	0.09	74190	keystroke_Key.space	Key.space	n/a
37.395	0.09	74790	keystroke_p	p	n/a
37.545	0.15	75090	keystroke_e	e	n/a
37.635	0.165	75270	keystroke_r	r	n/a
38.055	0.135	76110	keystroke_f	f	n/a
38.205	0.135	76410	keystroke_u	u	n/a
38.49	0.135	76980	keystroke_m	m	n/a
38.91	0.135	77820	keystroke_e	e	n/a
39.24	0.09	78480	keystroke_Key.space	Key.space	n/a
39.555	0.12	79110	keystroke_m	m	n/a
39.705	0.105	79410	keystroke_e	e	n/a
40.53	0.12	81060	keystroke_m	m	n/a
40.845	0.12	81690	keystroke_p	p	n/a
41.205	0.12	82410	keystroke_h	h	n/a
41.385	0.181	82770	keystroke_i	i	n/a
41.581	0.135	83162	keystroke_s	s	n/a
41.731	0.075	83462	keystroke_Key.space	Key.space	n/a
42.166	0.12	84332	keystroke_t	t	n/a
42.376	0.135	84752	keystroke_e	e	n/a
43.801	0.12	87602	keystroke_]	]	n/a
45.226	0.075	90452	keystroke_Key.backspace	Key.backspace	n/a
45.376	0.09	90752	keystroke_Key.backspace	Key.backspace	n/a
45.916	0.18	91832	keystroke_t	t	n/a
46.966	0.075	93932	keystroke_Key.backspace	Key.backspace	n/a
47.3555	0.09	94711	keystroke_r	r	n/a
47.4605	0.12	94921	keystroke_a	a	n/a
47.6405	0.12	95281	keystroke_n	n	n/a
47.7755	0.12	95551	keystroke_s	s	n/a
48.1055	0.09	96211	keystroke_p	p	n/a
48.1655	0.18	96331	keystroke_o	o	n/a
48.5255	0.09	97051	keystroke_r	r	n/a
48.7055	0.105	97411	keystroke_t	t	n/a
49.3805	0.135	98761	keystroke_Key.enter	Key.enter	n/a
49.521	16.8865	99042	prompt	n/a	publications ball softball suite\n
50.2205	0.135	100441	keystroke_p	p	n/a
50.4305	0.135	100861	keystroke_u	u	n/a
50.7605	0.12	101521	keystroke_b	b	n/a
51.0755	0.12	102151	keystroke_l	l	n/a
51.241	0.12	102482	keystroke_i	i	n/a
51.736	0.24	103472	keystroke_c	c	n/a
51.946	0.15	103892	keystroke_a	a	n/a
52.261	0.15	104522	keystroke_t	t	n/a
52.426	0.15	104852	keystroke_i	i	n/a
52.681	0.12	105362	keystroke_n	n	n/a
52.846	0.105	105692	keystroke_s	s	n/a
53.191	0.105	106382	keystroke_Key.space	Key.space	n/a
53.836	0.15	107672	keystroke_b	b	n/a
55.351	0.135	110702	keystroke_a	a	n/a
55.756	0.075	111512	keystroke_l	l	n/a
55.891	0.09	111782	keystroke_l	l	n/a
56.07	0.106	112140	keystroke_Key.space	Key.space	n/a
56.311	0.135	112622	keystroke_s	s	n/a
56.431	0.12	112862	keystroke_o	o	n/a
57.78	0.1205	115560	keystroke_f	f	n/a
58.035	0.165	116070	keystroke_t	t	n/a
58.561	0.075	117122	keystroke_c	c	n/a
59.46	0.03	118920	keystroke_Key.backspace	Key.backspace	n/a
62.9575	0.001	125915	keystroke_b	b	n/a
63.7055	0.105	127411	keystroke_a	a	n/a
64.1555	0.09	128311	keystroke_l	l	n/a
64.2755	0.075	128551	keystroke_l	l	n/a
64.5005	0.09	129001	keystroke_Key.space	Key.space	n/a
64.9355	0.12	129871	keystroke_s	s	n/a
65.1005	0.105	130201	keystroke_u	u	n/a
65.3705	0.105	130741	keystroke_i	i	n/a
65.5655	0.165	131131	keystroke_t	t	n/a
65.7755	0.15	131551	keystroke_e	e	n/a
66.286	0.12	132572	keystroke_Key.enter	Key.enter	n/a
66.41	9.2675	132820	prompt	n/a	police symbol jill than\n
67.066	0.12	134132	keystroke_p	p	n/a
67.231	0.15	134462	keystroke_o	o	n/a
67.531	0.12	135062	keystroke_l	l	n/a
67.786	0.15	135572	keystroke_i	i	n/a
67.966	0.135	135932	keystroke_c	c	n/a
68.341	0.15	136682	keystroke_e	e	n/a
68.596	0.135	137192	keystroke_Key.space	Key.space	n/a
68.956	0.135	137912	keystroke_s	s	n/a
69.106	0.105	138212	keystroke_y	y	n/a
69.436	0.09	138872	keystroke_m	m	n/a
69.9605	0.135	139921	keystroke_b	b	n/a
70.1555	0.105	140311	keystroke_o	o	n/a
70.3955	0.105	140791	keystroke_l	l	n/a
70.6955	0.09	141391	keystroke_Key.space	Key.space	n/a
70.9805	0.12	141961	keystroke_j	j	n/a
71.2355	0.195	142471	keystroke_i	i	n/a
71.5355	0.09	143071	keystroke_l	l	n/a
71.656	0.09	143312	keystroke_l	l	n/a
72.1655	0.105	144331	keystroke_Key.space	Key.space	n/a
72.4055	0.165	144811	keystroke_t	t	n/a
72.5555	0.18	145111	keystroke_h	h	n/a
72.7505	0.09	145501	keystroke_e	e	n/a
73.531	0.075	147062	keystroke_]	]	n/a
74.5655	0.09	149131	keystroke_Key.backspace	Key.backspace	n/a
74.7155	0.06	149431	keystroke_Key.backspace	Key.backspace	n/a
74.9555	0.24	149911	keystroke_a	a	n/a
75.0905	0.12	150181	keystroke_n	n	n/a
75.5855	0.09	151171	keystroke_Key.enter	Key.enter	n/a
75.6805	13.992	151361	prompt	n/a	established forests rest undo\n
76.6205	0.135	153241	keystroke_e	e	n/a
76.9355	0.12	153871	keystroke_s	s	n/a
77.2655	0.165	154531	keystroke_t	t	n/a
77.4605	0.18	154921	keystroke_a	a	n/a
78.121	0.075	156242	keystroke_b	b	n/a
78.571	0.075	157142	keystroke_l	l	n/a
78.736	0.09	157472	keystroke_i	i	n/a
78.841	0.134	157682	keystroke_s	s	n/a
79.081	0.09	158162	keystroke_h	h	n/a
79.966	0.104	159932	keystroke_e	e	n/a
80.2055	0.1645	160411	keystroke_d	d	n/a
80.4005	0.12	160801	keystroke_Key.space	Key.space	n/a
80.7455	0.15	161491	keystroke_f	f	n/a
80.9705	0.105	161941	keystroke_o	o	n/a
81.1055	0.135	162211	keystroke_r	r	n/a
82.86	0.135	165720	keystroke_e	e	n/a
83.07	0.135	166140	keystroke_s	s	n/a
83.325	0.105	166650	keystroke_t	t	n/a
83.595	0.09	167190	keystroke_s	s	n/a
84.105	0.105	168210	keystroke_Key.space	Key.space	n/a
84.555	0.12	169110	keystroke_r	r	n/a
84.72	0.105	169440	keystroke_e	e	n/a
85.05	0.12	170100	keystroke_t	t	n/a
86.625	0.09	173250	keystroke_Key.backspace	Key.backspace	n/a
86.955	0.135	173910	keystroke_s	s	n/a
87.06	0.135	174120	keystroke_t	t	n/a
88.14	0.09	176280	keystroke_Key.space	Key.space	n/a
88.56	0.09	177120	keystroke_u	u	n/a
88.785	0.09	177570	keystroke_n	n	n/a
89.085	0.12	178170	keystroke_d	d	n/a
89.22	0.075	178440	keystroke_o	o	n/a
89.565	0.1055	179130	keystroke_Key.enter	Key.enter	n/a
89.6755	8.907	179351	prompt	n/a	toner simpsons details arcade\n
90.96	0.135	181920	keystroke_t	t	n/a
91.11	0.165	182220	keystroke_o	o	n/a
91.215	0.105	182430	keystroke_n	n	n/a
91.395	0.18	182790	keystroke_e	e	n/a
91.5	0.165	183000	keystroke_r	r	n/a
92.1455	0.12	184291	keystroke_Key.space	Key.space	n/a
92.7755	0.12	185551	keystroke_s	s	n/a
92.8805	0.21	185761	keystroke_i	i	n/a
93.1805	0.12	186361	keystroke_m	m	n/a
93.3155	0.105	186631	keystroke_p	p	n/a
93.7205	0.15	187441	keystroke_s	s	n/a
93.8555	0.195	187711	keystroke_o	o	n/a
93.9755	0.12	187951	keystroke_n	n	n/a
94.1555	0.165	188311	keystroke_s	s	n/a
94.3655	0.105	188731	keystroke_Key.space	Key.space	n/a
94.7105	0.135	189421	keystroke_d	d	n/a
94.9655	0.165	189931	keystroke_e	e	n/a
95.4305	0.135	190861	keystroke_t	t	n/a
95.6555	0.105	191311	keystroke_a	a	n/a
96.0155	0.015	192031	keystroke_i	i	n/a
96.0455	0.135	192091	keystroke_l	l	n/a
96.1955	0.135	192391	keystroke_s	s	n/a
96.4355	0.09	192871	keystroke_Key.space	Key.space	n/a
96.9305	0.21	193861	keystroke_a	a	n/a
97.1105	0.135	194221	keystroke_r	r	n/a
97.4855	0.135	194971	keystroke_c	c	n/a
97.6805	0.165	195361	keystroke_a	a	n/a
97.9505	0.105	195901	keystroke_d	d	n/a
98.1455	0.12	196291	keystroke_e	e	n/a
98.4755	0.105	196951	keystroke_Key.enter	Key.enter	n/a
98.5885	11.7235	197177	prompt	n/a	dome a informational currency\n
99.5405	0.135	199081	keystroke_d	d	n/a
99.7805	0.225	199561	keystroke_o	o	n/a
99.9305	0.105	199861	keystroke_m	m	n/a
100.1555	0.15	200311	keystroke_e	e	n/a
101.6405	0.135	203281	keystroke_Key.space	Key.space	n/a
101.8055	0.12	203611	keystroke_a	a	n/a
102.3905	0.165	204781	keystroke_i	i	n/a
102.4805	0.12	204961	keystroke_n	n	n/a
103.3055	0.075	206611	keystroke_f	f	n/a
103.3955	0.18	206791	keystroke_o	o	n/a
103.5605	0.135	207121	keystroke_r	r	n/a
103.7105	0.12	207421	keystroke_m	m	n/a
103.8605	0.12	207721	keystroke_a	a	n/a
106.518	0.1025	213036	keystroke_t	t	n/a
106.5755	0.225	213151	keystroke_i	i	n/a
106.8755	0.135	213751	keystroke_o	o	n/a
107.2505	0.15	214501	keystroke_n	n	n/a
107.5805	0.12	215161	keystroke_a	a	n/a
107.7155	0.09	215431	keystroke_l	l	n/a
107.9255	0.105	215851	keystroke_Key.space	Key.space	n/a
108.2405	0.12	216481	keystroke_c	c	n/a
108.3455	0.105	216691	keystroke_u	u	n/a
108.6305	0.105	217261	keystroke_r	r	n/a
108.8105	0.12	217621	keystroke_r	r	n/a
109.4255	0.015	218851	keystroke_e	e	n/a
109.4555	0.12	218911	keystroke_n	n	n/a
109.7705	0.165	219541	keystroke_c	c	n/a
109.9205	0.135	219841	keystroke_y	y	n/a
110.2055	0.1045	220411	keystroke_Key.enter	Key.enter	n/a
110.316	18.0865	220632	prompt	n/a	kazakhstan lessons singh accommodation\n
111.915	0.046	223830	keystroke_k	k	n/a
112.26	0.12	224520	keystroke_a	a	n/a
113.025	0.18	226050	keystroke_a	a	n/a
113.76	0.12	227520	keystroke_k	k	n/a
114.286	0.105	228572	keystroke_h	h	n/a
114.796	0.18	229592	keystroke_s	s	n/a
114.961	0.135	229922	keystroke_t	t	n/a
115.141	0.15	230282	keystroke_a	a	n/a
115.306	0.12	230612	keystroke_n	n	n/a
115.531	0.135	231062	keystroke_Key.space	Key.space	n/a
115.741	0.135	231482	keystroke_l	l	n/a
116.161	0.135	232322	keystroke_e	e	n/a
116.461	0.089	232922	keystroke_s	s	n/a
116.625	0.121	233250	keystroke_s	s	n/a
117.391	0.12	234782	keystroke_o	o	n/a
117.616	0.12	235232	keystroke_n	n	n/a
118.695	0.105	237390	keystroke_s	s	n/a
118.86	0.12	237720	keystroke_Key.space	Key.space	n/a
119.28	0.135	238560	keystroke_i	i	n/a
119.325	0.135	238650	keystroke_s	s	n/a
120.075	0.12	240150	keystroke_]	]	n/a
120.27	0.135	240540	keystroke_]	]	n/a
120.736	0.135	241472	keystroke_Key.backspace	Key.backspace	n/a
120.961	0.09	241922	keystroke_Key.backspace	Key.backspace	n/a
121.141	0.165	242282	keystroke_Key.backspace	Key.backspace	n/a
121.516	0.105	243032	keystroke_Key.backspace	Key.backspace	n/a
121.996	0.105	243992	keystroke_s	s	n/a
122.221	0.195	244442	keystroke_i	i	n/a
122.356	0.09	244712	keystroke_n	n	n/a
122.896	0.12	245792	keystroke_g	g	n/a
123.031	0.15	246062	keystroke_h	h	n/a
123.286	0.105	246572	keystroke_Key.space	Key.space	n/a
123.586	0.135	247172	keystroke_a	a	n/a
124.006	0.12	248012	keystroke_c	c	n/a
124.201	0.075	248402	keystroke_c	c	n/a
124.456	0.12	248912	keystroke_o	o	n/a
124.846	0.12	249692	keystroke_m	m	n/a
125.056	0.075	250112	keystroke_m	m	n/a
125.506	0.12	251012	keystroke_o	o	n/a
125.776	0.18	251552	keystroke_d	d	n/a
125.971	0.225	251942	keystroke_a	a	n/a
126.301	0.18	252602	keystroke_t	t	n/a
126.586	0.12	253172	keystroke_i	i	n/a
126.615	0.196	253230	keystroke_o	o	n/a
126.961	0.12	253922	keystroke_n	n	n/a
127.261	0.12	254522	keystroke_s	s	n/a
127.666	0.134	255332	keystroke_Key.space	Key.space	n/a
128.265	0.135	256530	keystroke_Key.enter	Key.enter	n/a
128.413	13.534	256826	prompt	n/a	travelers diameter who's trustees\n
129.36	0.166	258720	keystroke_t	t	n/a
129.601	0.21	259202	keystroke_r	r	n/a
129.766	0.195	259532	keystroke_a	a	n/a
130.005	0.166	260010	keystroke_a	a	n/a
130.125	0.1505	260250	keystroke_v	v	n/a
130.6055	0.06	261211	keystroke_l	l	n/a
130.7555	0.135	261511	keystroke_e	e	n/a
130.8305	0.195	261661	keystroke_r	r	n/a
131.37	0.12	262740	keystroke_s	s	n/a
131.9405	0.135	263881	keystroke_Key.space	Key.space	n/a
132.3305	0.12	264661	keystroke_d	d	n/a
132.4505	0.165	264901	keystroke_i	i	n/a
132.6455	0.12	265291	keystroke_a	a	n/a
133.036	0.135	266072	keystroke_m	m	n/a
133.156	0.165	266312	keystroke_e	e	n/a
133.561	0.15	267122	keystroke_t	t	n/a
133.786	0.164	267572	keystroke_e	e	n/a
133.92	0.15	267840	keystroke_r	r	n/a
134.49	0.105	268980	keystroke_Key.space	Key.space	n/a
134.715	0.121	269430	keystroke_w	w	n/a
134.866	0.059	269732	keystroke_h	h	n/a
135.06	0.1655	270120	keystroke_o	o	n/a
135.4655	0.135	270931	keystroke_'	'	n/a
135.6305	0.15	271261	keystroke_s	s	n/a
135.8405	0.09	271681	keystroke_Key.space	Key.space	n/a
136.1405	0.09	272281	keystroke_r	r	n/a
137.176	0.15	274352	keystroke_Key.backspace	Key.backspace	n/a
137.656	0.15	275312	keystroke_t	t	n/a
137.9705	0.12	275941	keystroke_r	r	n/a
138.5555	0.06	277111	keystroke_u	u	n/a
138.7055	0.18	277411	keystroke_s	s	n/a
138.9155	0.15	277831	keystroke_t	t	n/a
139.3055	0.105	278611	keystroke_e	e	n/a
139.5905	0.135	279181	keystroke_s	s	n/a
140.431	0.135	280862	keystroke_Key.backspace	Key.backspace	n/a
140.731	0.135	281462	keystroke_e	e	n/a
141.2705	0.09	282541	keystroke_s	s	n/a
141.7955	0.15	283591	keystroke_Key.enter	Key.enter	n/a
141.9495	12.1475	283899	prompt	n/a	document films bradley strategic\n
142.6805	0.1355	285361	keystroke_d	d	n/a
142.8305	0.165	285661	keystroke_o	o	n/a
143.1005	0.135	286201	keystroke_c	c	n/a
143.3105	0.15	286621	keystroke_u	u	n/a
143.7155	0.12	287431	keystroke_m	m	n/a
143.8505	0.135	287701	keystroke_e	e	n/a
144.0005	0.12	288001	keystroke_n	n	n/a
144.0755	0.135	288151	keystroke_t	t	n/a
144.3455	0.105	288691	keystroke_Key.space	Key.space	n/a
144.6005	0.21	289201	keystroke_f	f	n/a
144.7655	0.135	289531	keystroke_i	i	n/a
144.9605	0.135	289921	keystroke_l	l	n/a
145.4855	0.09	290971	keystroke_m	m	n/a
145.7555	0.105	291511	keystroke_s	s	n/a
146.1155	0.075	292231	keystroke_Key.space	Key.space	n/a
146.3555	0.12	292711	keystroke_b	b	n/a
146.7005	0.165	293401	keystroke_r	r	n/a
146.8805	0.12	293761	keystroke_a	a	n/a
147.2405	0.15	294481	keystroke_d	d	n/a
147.4655	0.15	294931	keystroke_l	l	n/a
147.6755	0.135	295351	keystroke_y	y	n/a
148.1855	0.105	296371	keystroke_Key.space	Key.space	n/a
150.2855	0.105	300571	keystroke_Key.backspace	Key.backspace	n/a
150.5555	0.12	301111	keystroke_Key.backspace	Key.backspace	n/a
150.826	0.1645	301652	keystroke_e	e	n/a
150.9755	0.135	301951	keystroke_y	y	n/a
151.2755	0.06	302551	keystroke_Key.space	Key.space	n/a
151.4855	0.15	302971	keystroke_s	s	n/a
151.7405	0.12	303481	keystroke_t	t	n/a
151.9655	0.18	303931	keystroke_r	r	n/a
152.1605	0.195	304321	keystroke_a	a	n/a
152.5805	0.195	305161	keystroke_t	t	n/a
152.9555	0.135	305911	keystroke_e	e	n/a
153.3455	0.12	306691	keystroke_g	g	n/a
153.4955	0.12	306991	keystroke_i	i	n/a
153.7205	0.15	307441	keystroke_c	c	n/a
153.9755	0.12	307951	keystroke_Key.enter	Key.enter	n/a
154.0995	9.8525	308199	prompt	n/a	foto legends activity robert\n
155.1005	0.165	310201	keystroke_f	f	n/a
155.626	0.09	311252	keystroke_o	o	n/a
155.911	0.15	311822	keystroke_t	t	n/a
156.061	0.18	312122	keystroke_o	o	n/a
156.375	0.016	312750	keystroke_o	o	n/a
156.406	0.105	312812	keystroke_Key.space	Key.space	n/a
157.125	0.045	314250	keystroke_Key.backspace	Key.backspace	n/a
157.3055	0.06	314611	keystroke_Key.backspace	Key.backspace	n/a
157.7855	0.12	315571	keystroke_Key.space	Key.space	n/a
158.0255	0.12	316051	keystroke_l	l	n/a
158.2055	0.12	316411	keystroke_e	e	n/a
158.7305	0.12	317461	keystroke_g	g	n/a
158.9855	0.18	317971	keystroke_e	e	n/a
159.2105	0.15	318421	keystroke_n	n	n/a
159.3905	0.15	318781	keystroke_d	d	n/a
159.5855	0.12	319171	keystroke_s	s	n/a
159.7805	0.105	319561	keystroke_Key.space	Key.space	n/a
160.1405	0.15	320281	keystroke_a	a	n/a
160.6505	0.105	321301	keystroke_c	c	n/a
160.9055	0.15	321811	keystroke_t	t	n/a
161.0705	0.12	322141	keystroke_i	i	n/a
161.3705	0.135	322741	keystroke_v	v	n/a
161.4755	0.15	322951	keystroke_i	i	n/a
161.6855	0.18	323371	keystroke_t	t	n/a
161.8205	0.135	323641	keystroke_y	y	n/a
162.0305	0.09	324061	keystroke_Key.space	Key.space	n/a
162.3305	0.225	324661	keystroke_r	r	n/a
162.4505	0.12	324901	keystroke_o	o	n/a
162.8105	0.075	325621	keystroke_b	b	n/a
163.0805	0.225	326161	keystroke_e	e	n/a
163.2305	0.135	326461	keystroke_r	r	n/a
163.4705	0.15	326941	keystroke_t	t	n/a
163.8155	0.135	327631	keystroke_Key.enter	Key.enter	n/a
163.9545	15.1475	327909	prompt	n/a	promoted movies massachusetts lafayette\n
164.8055	0.12	329611	keystroke_p	p	n/a
165.0005	0.165	330001	keystroke_r	r	n/a
165.3305	0.135	330661	keystroke_o	o	n/a
165.6005	0.09	331201	keystroke_m	m	n/a
165.7355	0.135	331471	keystroke_o	o	n/a
166.2605	0.12	332521	keystroke_t	t	n/a
166.4405	0.15	332881	keystroke_e	e	n/a
166.6955	0.165	333391	keystroke_d	d	n/a
166.9205	0.12	333841	keystroke_Key.space	Key.space	n/a
167.2205	0.18	334441	keystroke_o	o	n/a
168.1805	0.18	336361	keystroke_Key.backspace	Key.backspace	n/a
169.1105	0.09	338221	keystroke_m	m	n/a
169.755	0.105	339510	keystroke_o	o	n/a
170.191	0.149	340382	keystroke_v	v	n/a
170.325	0.105	340650	keystroke_i	i	n/a
170.49	0.151	340980	keystroke_e	e	n/a
170.731	0.149	341462	keystroke_s	s	n/a
171.06	0.105	342120	keystroke_Key.space	Key.space	n/a
171.465	0.105	342930	keystroke_m	m	n/a
171.615	0.12	343230	keystroke_a	a	n/a
171.87	0.075	343740	keystroke_s	s	n/a
172.23	0.105	344460	keystroke_s	s	n/a
172.575	0.105	345150	keystroke_a	a	n/a
173.115	0.075	346230	keystroke_c	c	n/a
173.16	0.045	346320	keystroke_h	h	n/a
173.445	0.135	346890	keystroke_u	u	n/a
174.18	0.135	348360	keystroke_s	s	n/a
174.615	0.105	349230	keystroke_e	e	n/a
174.825	0.105	349650	keystroke_t	t	n/a
175.125	0.105	350250	keystroke_t	t	n/a
175.335	0.12	350670	keystroke_s	s	n/a
175.59	0.12	351180	keystroke_Key.space	Key.space	n/a
175.89	0.15	351780	keystroke_l	l	n/a
176.055	0.195	352110	keystroke_e	e	n/a
176.8055	0.18	353611	keystroke_g	g	n/a
177.1205	0.09	354241	keystroke_a	a	n/a
177.4205	0.15	354841	keystroke_y	y	n/a
177.75	0.195	355500	keystroke_e	e	n/a
178.0355	0.045	356071	keystroke_t	t	n/a
178.3205	0.1195	356641	keystroke_t	t	n/a
178.7255	0.12	357451	keystroke_e	e	n/a
179.0105	0.09	358021	keystroke_Key.enter	Key.enter	n/a
179.1115	8.3155	358223	prompt	n/a	funky marriage thus retro\n
180.076	0.165	360152	keystroke_f	f	n/a
180.271	0.12	360542	keystroke_u	u	n/a
180.541	0.09	361082	keystroke_n	n	n/a
181.5155	0.105	363031	keystroke_k	k	n/a
181.831	0.1195	363662	keystroke_y	y	n/a
182.0105	0.105	364021	keystroke_Key.space	Key.space	n/a
182.4605	0.09	364921	keystroke_m	m	n/a
182.6405	0.165	365281	keystroke_a	a	n/a
182.9105	0.09	365821	keystroke_r	r	n/a
183.0755	0.135	366151	keystroke_r	r	n/a
183.2105	0.135	366421	keystroke_i	i	n/a
183.9605	0.12	367921	keystroke_a	a	n/a
184.1405	0.105	368281	keystroke_g	g	n/a
184.2905	0.135	368581	keystroke_e	e	n/a
184.4855	0.12	368971	keystroke_Key.space	Key.space	n/a
184.6355	0.135	369271	keystroke_t	t	n/a
184.7555	0.105	369511	keystroke_h	h	n/a
184.9655	0.15	369931	keystroke_u	u	n/a
185.0705	0.15	370141	keystroke_s	s	n/a
185.2055	0.12	370411	keystroke_Key.space	Key.space	n/a
185.5055	0.15	371011	keystroke_t	t	n/a
185.7905	0.135	371581	keystroke_r	r	n/a
186.4505	0.15	372901	keystroke_t	t	n/a
186.8705	0.105	373741	keystroke_r	r	n/a
187.0205	0.15	374041	keystroke_o	o	n/a
187.3205	0.105	374641	keystroke_Key.enter	Key.enter	n/a
187.432	13.8555	374864	prompt	n/a	region identity things that're\n
188.46	0.165	376920	keystroke_r	r	n/a
188.7	0.165	377400	keystroke_e	e	n/a
189.946	0.09	379892	keystroke_i	i	n/a
190.6205	0.105	381241	keystroke_]	]	n/a
190.9205	0.12	381841	keystroke_g	g	n/a
191.8355	0.0745	383671	keystroke_Key.backspace	Key.backspace	n/a
192	0.09	384000	keystroke_Key.backspace	Key.backspace	n/a
192.36	0.135	384720	keystroke_g	g	n/a
192.975	0.09	385950	keystroke_i	i	n/a
193.74	0.195	387480	keystroke_o	o	n/a
193.875	0.165	387750	keystroke_n	n	n/a
194.085	0.105	388170	keystroke_Key.space	Key.space	n/a
194.595	0.09	389190	keystroke_i	i	n/a
194.79	0.12	389580	keystroke_d	d	n/a
195	0.15	390000	keystroke_e	e	n/a
195.135	0.12	390270	keystroke_n	n	n/a
195.405	0.165	390810	keystroke_t	t	n/a
195.615	0.18	391230	keystroke_i	i	n/a
195.855	0.195	391710	keystroke_t	t	n/a
196.17	0.12	392340	keystroke_y	y	n/a
196.89	0.135	393780	keystroke_Key.space	Key.space	n/a
197.37	0.15	394740	keystroke_t	t	n/a
197.475	0.105	394950	keystroke_h	h	n/a
197.55	0.15	395100	keystroke_i	i	n/a
197.73	0.12	395460	keystroke_n	n	n/a
197.865	0.1205	395730	keystroke_g	g	n/a
198.1055	0.12	396211	keystroke_s	s	n/a
198.2405	0.105	396481	keystroke_Key.space	Key.space	n/a
198.5855	0.135	397171	keystroke_t	t	n/a
198.7355	0.12	397471	keystroke_h	h	n/a
199.531	0.15	399062	keystroke_a	a	n/a
199.801	0.165	399602	keystroke_t	t	n/a
200.371	0.105	400742	keystroke_'	'	n/a
200.641	0.21	401282	keystroke_r	r	n/a
200.761	0.21	401522	keystroke_e	e	n/a
201.196	0.09	402392	keystroke_Key.enter	Key.enter	n/a
201.2985	12.0035	402597	prompt	n/a	celebs tray stood headset\n
203.463	0.073	406926	keystroke_c	c	n/a
203.656	0.165	407312	keystroke_e	e	n/a
203.806	0.105	407612	keystroke_l	l	n/a
204.016	0.12	408032	keystroke_e	e	n/a
204.5855	0.12	409171	keystroke_v	v	n/a
204.8105	0.195	409621	keystroke_s	s	n/a
205.3505	0.075	410701	keystroke_Key.backspace	Key.backspace	n/a
205.5005	0.12	411001	keystroke_Key.backspace	Key.backspace	n/a
205.8155	0.165	411631	keystroke_b	b	n/a
206.0705	0.15	412141	keystroke_s	s	n/a
206.3855	0.135	412771	keystroke_Key.space	Key.space	n/a
206.821	0.119	413642	keystroke_t	t	n/a
207	0.165	414000	keystroke_r	r	n/a
207.18	0.12	414360	keystroke_y	y	n/a
208.365	0.136	416730	keystroke_=	=	n/a
208.71	0.255	417420	keystroke_Key.backspace	Key.backspace	n/a
209.16	0.135	418320	keystroke_Key.backspace	Key.backspace	n/a
209.43	0.15	418860	keystroke_a	a	n/a
209.536	0.119	419072	keystroke_y	y	n/a
209.76	0.09	419520	keystroke_Key.space	Key.space	n/a
210.06	0.18	420120	keystroke_s	s	n/a
210.18	0.165	420360	keystroke_t	t	n/a
210.465	0.06	420930	keystroke_o	o	n/a
210.6	0.105	421200	keystroke_o	o	n/a
210.825	0.135	421650	keystroke_d	d	n/a
211.005	0.09	422010	keystroke_Key.space	Key.space	n/a
211.455	0.12	422910	keystroke_h	h	n/a
211.605	0.195	423210	keystroke_e	e	n/a
211.801	0.164	423602	keystroke_a	a	n/a
211.995	0.165	423990	keystroke_d	d	n/a
212.385	0.165	424770	keystroke_s	s	n/a
212.595	0.21	425190	keystroke_e	e	n/a
212.835	0.165	425670	keystroke_t	t	n/a
213.225	0.075	426450	keystroke_Key.enter	Key.enter	n/a
213.304	8.653	426608	prompt	n/a	computers newer mild fairly\n
213.9005	0.1945	427801	keystroke_c	c	n/a
214.05	0.315	428100	keystroke_o	o	n/a
214.29	0.12	428580	keystroke_m	m	n/a
214.455	0.135	428910	keystroke_p	p	n/a
214.605	0.225	429210	keystroke_e	e	n/a
214.8	0.15	429600	keystroke_t	t	n/a
215.01	0.21	430020	keystroke_e	e	n/a
215.145	0.15	430290	keystroke_r	r	n/a
215.385	0.18	430770	keystroke_s	s	n/a
215.55	0.135	431100	keystroke_Key.space	Key.space	n/a
216.105	0.12	432210	keystroke_n	n	n/a
216.27	0.241	432540	keystroke_e	e	n/a
216.391	0.225	432782	keystroke_w	w	n/a
216.766	0.24	433532	keystroke_e	e	n/a
216.931	0.195	433862	keystroke_r	r	n/a
217.321	0.015	434642	keystroke_Key.space	Key.space	n/a
217.606	0.15	435212	keystroke_m	m	n/a
217.861	0.195	435722	keystroke_i	i	n/a
218.101	0.15	436202	keystroke_l	l	n/a
218.281	0.1645	436562	keystroke_d	d	n/a
218.5205	0.105	437041	keystroke_Key.space	Key.space	n/a
219.195	0.18	438390	keystroke_f	f	n/a
219.72	0.12	439440	keystroke_a	a	n/a
220.02	0.18	440040	keystroke_i	i	n/a
220.231	0.1945	440462	keystroke_r	r	n/a
220.9505	0.135	441901	keystroke_l	l	n/a
221.1605	0.15	442321	keystroke_y	y	n/a
221.8805	0.0745	443761	keystroke_Key.enter	Key.enter	n/a
221.96	9.042	443920	prompt	n/a	magazines magnet smaller tasks\n
222.661	0.105	445322	keystroke_m	m	n/a
222.811	0.134	445622	keystroke_a	a	n/a
223.096	0.195	446192	keystroke_g	g	n/a
223.276	0.165	446552	keystroke_a	a	n/a
223.801	0.104	447602	keystroke_z	z	n/a
223.921	0.179	447842	keystroke_i	i	n/a
224.011	0.134	448022	keystroke_n	n	n/a
224.116	0.179	448232	keystroke_e	e	n/a
224.34	0.18	448680	keystroke_s	s	n/a
224.521	0.134	449042	keystroke_Key.space	Key.space	n/a
224.805	0.12	449610	keystroke_m	m	n/a
224.97	0.15	449940	keystroke_a	a	n/a
225.48	0.136	450960	keystroke_g	g	n/a
225.706	0.149	451412	keystroke_n	n	n/a
225.84	0.18	451680	keystroke_e	e	n/a
226.08	0.165	452160	keystroke_t	t	n/a
226.44	0.12	452880	keystroke_Key.space	Key.space	n/a
226.635	0.15	453270	keystroke_s	s	n/a
226.8	0.12	453600	keystroke_m	m	n/a
226.935	0.1655	453870	keystroke_a	a	n/a
227.1605	0.09	454321	keystroke_l	l	n/a
227.3255	0.09	454651	keystroke_l	l	n/a
227.4755	0.21	454951	keystroke_e	e	n/a
227.6105	0.165	455221	keystroke_r	r	n/a
227.8205	0.105	455641	keystroke_Key.space	Key.space	n/a
228.3755	0.135	456751	keystroke_t	t	n/a
228.8105	0.12	457621	keystroke_a	a	n/a
228.9905	0.135	457981	keystroke_s	s	n/a
229.1405	0.135	458281	keystroke_k	k	n/a
229.3055	0.1055	458611	keystroke_e	e	n/a
230.176	0.165	460352	keystroke_Key.backspace	Key.backspace	n/a
230.506	0.09	461012	keystroke_s	s	n/a
230.896	0.105	461792	keystroke_Key.enter	Key.enter	n/a
231.0065	10.841	462013	prompt	n/a	debate sees microwave powered\n
231.886	0.1045	463772	keystroke_d	d	n/a
232.0955	0.165	464191	keystroke_e	e	n/a
232.7855	0.15	465571	keystroke_b	b	n/a
232.9955	0.255	465991	keystroke_a	a	n/a
233.2655	0.135	466531	keystroke_t	t	n/a
233.4305	0.18	466861	keystroke_e	e	n/a
233.7455	0.12	467491	keystroke_Key.space	Key.space	n/a
233.9855	0.135	467971	keystroke_s	s	n/a
234.2405	0.09	468481	keystroke_e	e	n/a
234.4205	0.105	468841	keystroke_e	e	n/a
234.9005	0.12	469801	keystroke_Key.space	Key.space	n/a
235.2005	0.105	470401	keystroke_m	m	n/a
235.4405	0.135	470881	keystroke_i	i	n/a
235.6955	0.15	471391	keystroke_c	c	n/a
236.0255	0.195	472051	keystroke_r	r	n/a
236.2055	0.12	472411	keystroke_o	o	n/a
236.5805	0.15	473161	keystroke_w	w	n/a
236.7905	0.165	473581	keystroke_a	a	n/a
237.3905	0.135	474781	keystroke_e	e	n/a
237.6605	0.135	475321	keystroke_Key.space	Key.space	n/a
237.9905	0.09	475981	keystroke_p	p	n/a
238.4255	0.09	476851	keystroke_Key.backspace	Key.backspace	n/a
238.5905	0.075	477181	keystroke_Key.backspace	Key.backspace	n/a
238.7555	0.03	477511	keystroke_Key.backspace	Key.backspace	n/a
239.161	0.015	478322	keystroke_v	v	n/a
239.31	0.18	478620	keystroke_e	e	n/a
239.73	0.09	479460	keystroke_Key.space	Key.space	n/a
240.0605	0.105	480121	keystroke_p	p	n/a
240.2705	0.09	480541	keystroke_o	o	n/a
240.6455	0.1205	481291	keystroke_w	w	n/a
240.751	0.24	481502	keystroke_e	e	n/a
240.931	0.135	481862	keystroke_r	r	n/a
241.276	0.165	482552	keystroke_e	e	n/a
241.561	0.195	483122	keystroke_d	d	n/a
241.726	0.12	483452	keystroke_Key.enter	Key.enter	n/a
241.8525	12.6995	483705	prompt	n/a	considered mambo internal schools\n
242.8205	0.15	485641	keystroke_c	c	n/a
242.9555	0.24	485911	keystroke_o	o	n/a
243.1055	0.135	486211	keystroke_n	n	n/a
243.5855	0.105	487171	keystroke_s	s	n/a
243.7055	0.105	487411	keystroke_i	i	n/a
243.8855	0.12	487771	keystroke_d	d	n/a
244.1855	0.24	488371	keystroke_e	e	n/a
244.3655	0.18	488731	keystroke_r	r	n/a
244.5605	0.18	489121	keystroke_e	e	n/a
245.1605	0.195	490321	keystroke_d	d	n/a
245.4305	0.105	490861	keystroke_Key.space	Key.space	n/a
245.911	0.105	491822	keystroke_m	m	n/a
246.091	0.1795	492182	keystroke_a	a	n/a
246.7355	0.15	493471	keystroke_b	b	n/a
246.9155	0.105	493831	keystroke_o	o	n/a
247.5905	0.09	495181	keystroke_Key.backspace	Key.backspace	n/a
247.7705	0.06	495541	keystroke_Key.backspace	Key.backspace	n/a
248.31	0.075	496620	keystroke_m	m	n/a
248.536	0.059	497072	keystroke_a	a	n/a
249.2855	0.12	498571	keystroke_Key.backspace	Key.backspace	n/a
249.6755	0.09	499351	keystroke_o	o	n/a
250.1255	0.135	500251	keystroke_Key.backspace	Key.backspace	n/a
250.3805	0.135	500761	keystroke_b	b	n/a
250.5305	0.09	501061	keystroke_o	o	n/a
250.936	0.1045	501872	keystroke_Key.space	Key.space	n/a
251.311	0.165	502622	keystroke_i	i	n/a
251.4155	0.1205	502831	keystroke_n	n	n/a
251.581	0.15	503162	keystroke_t	t	n/a
251.776	0.195	503552	keystroke_e	e	n/a
251.911	0.135	503822	keystroke_r	r	n/a
252.256	0.165	504512	keystroke_n	n	n/a
252.436	0.15	504872	keystroke_a	a	n/a
252.586	0.12	505172	keystroke_l	l	n/a
252.766	0.135	505532	keystroke_Key.space	Key.space	n/a
252.946	0.12	505892	keystroke_s	s	n/a
253.171	0.165	506342	keystroke_c	c	n/a
253.261	0.12	506522	keystroke_h	h	n/a
253.561	0.06	507122	keystroke_o	o	n/a
253.696	0.12	507392	keystroke_o	o	n/a
254.071	0.09	508142	keystroke_l	l	n/a
254.206	0.135	508412	keystroke_s	s	n/a
254.491	0.06	508982	keystroke_Key.enter	Key.enter	n/a
254.556	13.721	509112	prompt	n/a	gamespot picking minneapolis embedded\n
255.391	0.15	510782	keystroke_g	g	n/a
255.571	0.15	511142	keystroke_a	a	n/a
255.766	0.105	511532	keystroke_m	m	n/a
255.886	0.1795	511772	keystroke_e	e	n/a
256.4855	0.06	512971	keystroke_p	p	n/a
256.8905	0.12	513781	keystroke_Key.backspace	Key.backspace	n/a
257.2655	0.135	514531	keystroke_s	s	n/a
257.4905	0.15	514981	keystroke_p	p	n/a
257.6105	0.135	515221	keystroke_o	o	n/a
257.9855	0.15	515971	keystroke_t	t	n/a
258.2855	0.1055	516571	keystroke_Key.space	Key.space	n/a
258.6305	0.12	517261	keystroke_p	p	n/a
258.7955	0.135	517591	keystroke_i	i	n/a
258.9455	0.165	517891	keystroke_c	c	n/a
259.0805	0.105	518161	keystroke_k	k	n/a
259.2605	0.195	518521	keystroke_i	i	n/a
259.3355	0.15	518671	keystroke_n	n	n/a
259.4705	0.15	518941	keystroke_g	g	n/a
259.6355	0.105	519271	keystroke_Key.space	Key.space	n/a
260.0105	0.105	520021	keystroke_m	m	n/a
260.2505	0.15	520501	keystroke_i	i	n/a
260.7455	0.09	521491	keystroke_n	n	n/a
260.8955	0.12	521791	keystroke_n	n	n/a
261.3455	0.12	522691	keystroke_e	e	n/a
261.5405	0.135	523081	keystroke_a	a	n/a
261.9605	0.15	523921	keystroke_p	p	n/a
262.5455	0.18	525091	keystroke_i	i	n/a
263.2355	0.105	526471	keystroke_Key.backspace	Key.backspace	n/a
263.6555	0.12	527311	keystroke_o	o	n/a
263.9405	0.15	527881	keystroke_l	l	n/a
264.1805	0.15	528361	keystroke_i	i	n/a
264.3455	0.165	528691	keystroke_s	s	n/a
264.6605	0.12	529321	keystroke_Key.space	Key.space	n/a
264.9905	0.18	529981	keystroke_e	e	n/a
265.1255	0.12	530251	keystroke_m	m	n/a
265.5755	0.135	531151	keystroke_b	b	n/a
266.88	0.166	533760	keystroke_e	e	n/a
267.361	0.105	534722	keystroke_d	d	n/a
267.525	0.121	535050	keystroke_d	d	n/a
267.721	0.12	535442	keystroke_e	e	n/a
267.946	0.165	535892	keystroke_d	d	n/a
268.171	0.104	536342	keystroke_Key.enter	Key.enter	n/a
268.2805	5.6965	536561	prompt	n/a	wilson picnic suit links\n
269.1305	0.12	538261	keystroke_w	w	n/a
269.2655	0.18	538531	keystroke_i	i	n/a
269.5055	0.165	539011	keystroke_l	l	n/a
269.7005	0.195	539401	keystroke_s	s	n/a
269.8805	0.255	539761	keystroke_o	o	n/a
270.0905	0.195	540181	keystroke_n	n	n/a
270.3605	0.105	540721	keystroke_Key.space	Key.space	n/a
270.5855	0.15	541171	keystroke_p	p	n/a
270.811	0.195	541622	keystroke_i	i	n/a
271.066	0.15	542132	keystroke_c	c	n/a
271.396	0.105	542792	keystroke_n	n	n/a
271.546	0.165	543092	keystroke_i	i	n/a
271.726	0.165	543452	keystroke_c	c	n/a
271.936	0.105	543872	keystroke_Key.space	Key.space	n/a
272.206	0.18	544412	keystroke_s	s	n/a
272.341	0.135	544682	keystroke_u	u	n/a
272.431	0.195	544862	keystroke_i	i	n/a
272.596	0.165	545192	keystroke_t	t	n/a
272.836	0.06	545672	keystroke_Key.space	Key.space	n/a
272.986	0.15	545972	keystroke_l	l	n/a
273.106	0.15	546212	keystroke_i	i	n/a
273.286	0.165	546572	keystroke_n	n	n/a
273.421	0.18	546842	keystroke_k	k	n/a
273.826	0.15	547652	keystroke_Key.enter	Key.enter	n/a
273.98	17.007	547960	prompt	n/a	methods valley global upload\n
274.906	0.12	549812	keystroke_m	m	n/a
275.116	0.165	550232	keystroke_e	e	n/a
276.511	0.135	553022	keystroke_t	t	n/a
276.661	0.15	553322	keystroke_h	h	n/a
276.826	0.12	553652	keystroke_o	o	n/a
277.171	0.15	554342	keystroke_d	d	n/a
277.696	0.135	555392	keystroke_Key.space	Key.space	n/a
278.1755	0.12	556351	keystroke_c	c	n/a
278.5355	0.15	557071	keystroke_Key.backspace	Key.backspace	n/a
278.9255	0.165	557851	keystroke_a	a	n/a
279.3905	0.15	558781	keystroke_Key.backspace	Key.backspace	n/a
280.1855	0.15	560371	keystroke_v	v	n/a
280.3505	0.12	560701	keystroke_a	a	n/a
280.7105	0.075	561421	keystroke_l	l	n/a
280.8305	0.12	561661	keystroke_l	l	n/a
281.1155	0.09	562231	keystroke_y	y	n/a
281.3555	0.1055	562711	keystroke_Key.space	Key.space	n/a
282.6905	0.105	565381	keystroke_Key.backspace	Key.backspace	n/a
282.8855	0.105	565771	keystroke_Key.backspace	Key.backspace	n/a
283.1705	0.15	566341	keystroke_e	e	n/a
283.4705	0.09	566941	keystroke_y	y	n/a
283.4855	0.06	566971	keystroke_u	u	n/a
283.9805	0.135	567961	keystroke_Key.backspace	Key.backspace	n/a
284.3255	0.106	568651	keystroke_Key.space	Key.space	n/a
285.151	0.135	570302	keystroke_g	g	n/a
285.346	0.135	570692	keystroke_l	l	n/a
285.6755	0.075	571351	keystroke_o	o	n/a
286.0515	0.164	572103	keystroke_b	b	n/a
286.2005	0.15	572401	keystroke_a	a	n/a
286.6205	0.09	573241	keystroke_l	l	n/a
286.8755	0.09	573751	keystroke_Key.space	Key.space	n/a
287.1005	0.12	574201	keystroke_u	u	n/a
287.2655	0.15	574531	keystroke_p	p	n/a
287.8055	0.0905	575611	keystroke_l	l	n/a
288.0455	0.135	576091	keystroke_o	o	n/a
288.1955	0.255	576391	keystroke_a	a	n/a
288.4055	0.15	576811	keystroke_r	r	n/a
288.6605	0.21	577321	keystroke_d	d	n/a
289.7855	0.12	579571	keystroke_Key.backspace	Key.backspace	n/a
290.0405	0.09	580081	keystroke_Key.backspace	Key.backspace	n/a
290.4605	0.165	580921	keystroke_d	d	n/a
290.9105	0.075	581821	keystroke_Key.enter	Key.enter	n/a
290.99	15.8075	581980	prompt	n/a	cooperation resume civilization bidder\n
291.9605	0.165	583921	keystroke_c	c	n/a
292.3355	0.075	584671	keystroke_o	o	n/a
292.486	0.1045	584972	keystroke_o	o	n/a
292.8155	0.075	585631	keystroke_p	p	n/a
292.9505	0.21	585901	keystroke_e	e	n/a
293.2055	0.1655	586411	keystroke_t	t	n/a
294.001	0.1195	588002	keystroke_Key.backspace	Key.backspace	n/a
294.6615	0.105	589323	keystroke_r	r	n/a
295.0655	0.12	590131	keystroke_a	a	n/a
295.4555	0.12	590911	keystroke_t	t	n/a
295.5905	0.09	591181	keystroke_i	i	n/a
295.8905	0.135	591781	keystroke_v	v	n/a
296.0705	0.15	592141	keystroke_e	e	n/a
296.3255	0.105	592651	keystroke_Key.space	Key.space	n/a
296.8505	0.15	593701	keystroke_r	r	n/a
297.0455	0.135	594091	keystroke_e	e	n/a
298.0655	0.105	596131	keystroke_s	s	n/a
298.2605	0.075	596521	keystroke_u	u	n/a
298.5905	0.06	597181	keystroke_m	m	n/a
298.6655	0.135	597331	keystroke_e	e	n/a
298.8755	0.105	597751	keystroke_Key.space	Key.space	n/a
299.3855	0.15	598771	keystroke_v	v	n/a
299.6405	0.195	599281	keystroke_i	i	n/a
300.0755	0.075	600151	keystroke_Key.backspace	Key.backspace	n/a
300.2255	0.105	600451	keystroke_Key.backspace	Key.backspace	n/a
300.4505	0.135	600901	keystroke_c	c	n/a
300.6155	0.09	601231	keystroke_i	i	n/a
301.396	0.195	602792	keystroke_v	v	n/a
301.921	0.105	603842	keystroke_i	i	n/a
302.311	0.15	604622	keystroke_l	l	n/a
302.521	0.135	605042	keystroke_i	i	n/a
303.166	0.09	606332	keystroke_z	z	n/a
303.361	0.135	606722	keystroke_a	a	n/a
303.586	0.195	607172	keystroke_t	t	n/a
303.691	0.195	607382	keystroke_i	i	n/a
303.766	0.165	607532	keystroke_o	o	n/a
303.991	0.165	607982	keystroke_n	n	n/a
304.216	0.12	608432	keystroke_Key.space	Key.space	n/a
304.816	0.18	609632	keystroke_d	d	n/a
305.206	0.135	610412	keystroke_Key.backspace	Key.backspace	n/a
305.356	0.15	610712	keystroke_b	b	n/a
305.851	0.09	611702	keystroke_i	i	n/a
306.061	0.09	612122	keystroke_d	d	n/a
306.211	0.12	612422	keystroke_d	d	n/a
306.391	0.18	612782	keystroke_e	e	n/a
306.496	0.165	612992	keystroke_r	r	n/a
306.706	0.09	613412	keystroke_Key.enter	Key.enter	n/a
306.7995	13.6625	613599	prompt	n/a	panic psychological shoppers venezuela\n
307.576	0.075	615152	keystroke_p	p	n/a
307.801	0.12	615602	keystroke_a	a	n/a
307.951	0.135	615902	keystroke_n	n	n/a
308.146	0.105	616292	keystroke_i	i	n/a
308.356	0.135	616712	keystroke_c	c	n/a
308.506	0.09	617012	keystroke_Key.space	Key.space	n/a
309.121	0.135	618242	keystroke_p	p	n/a
309.286	0.165	618572	keystroke_s	s	n/a
309.436	0.12	618872	keystroke_y	y	n/a
310.096	0.1645	620192	keystroke_c	c	n/a
310.246	0.12	620492	keystroke_h	h	n/a
310.5315	0.1495	621063	keystroke_o	o	n/a
311.116	0.135	622232	keystroke_l	l	n/a
311.296	0.15	622592	keystroke_o	o	n/a
311.626	0.165	623252	keystroke_g	g	n/a
312.181	0.105	624362	keystroke_i	i	n/a
312.6465	0.1795	625293	keystroke_c	c	n/a
312.811	0.165	625622	keystroke_a	a	n/a
312.961	0.12	625922	keystroke_l	l	n/a
313.156	0.105	626312	keystroke_Key.space	Key.space	n/a
313.381	0.165	626762	keystroke_s	s	n/a
313.501	0.075	627002	keystroke_h	h	n/a
314.041	0.105	628082	keystroke_o	o	n/a
314.611	0.045	629222	keystroke_p	p	n/a
314.716	0.09	629432	keystroke_p	p	n/a
314.851	0.165	629702	keystroke_e	e	n/a
314.941	0.15	629882	keystroke_r	r	n/a
315.856	0.105	631712	keystroke_s	s	n/a
316.081	0.1045	632162	keystroke_Key.space	Key.space	n/a
316.441	0.15	632882	keystroke_v	v	n/a
316.816	0.09	633632	keystroke_e	e	n/a
316.951	0.15	633902	keystroke_n	n	n/a
317.131	0.165	634262	keystroke_e	e	n/a
317.656	0.12	635312	keystroke_z	z	n/a
317.91	0.136	635820	keystroke_u	u	n/a
318.15	0.136	636300	keystroke_a	a	n/a
318.81	0.1205	637620	keystroke_Key.backspace	Key.backspace	n/a
318.9905	0.1655	637981	keystroke_e	e	n/a
319.711	0.09	639422	keystroke_l	l	n/a
319.861	0.165	639722	keystroke_a	a	n/a
320.386	0.075	640772	keystroke_Key.enter	Key.enter	n/a
320.466	13.1665	640932	prompt	n/a	automotive attach watched netherlands\n
321.1055	0.0905	642211	keystroke_a	a	n/a
321.301	0.135	642602	keystroke_u	u	n/a
321.481	0.135	642962	keystroke_t	t	n/a
321.841	0.15	643682	keystroke_o	o	n/a
322.201	0.12	644402	keystroke_m	m	n/a
323.776	0.09	647552	keystroke_o	o	n/a
324.181	0.165	648362	keystroke_t	t	n/a
324.331	0.105	648662	keystroke_i	i	n/a
324.526	0.165	649052	keystroke_v	v	n/a
324.676	0.12	649352	keystroke_e	e	n/a
324.811	0.12	649622	keystroke_Key.space	Key.space	n/a
324.961	0.24	649922	keystroke_a	a	n/a
325.276	0.105	650552	keystroke_r	r	n/a
325.456	0.135	650912	keystroke_r	r	n/a
326.1455	0.09	652291	keystroke_Key.backspace	Key.backspace	n/a
326.2805	0.105	652561	keystroke_Key.backspace	Key.backspace	n/a
326.7765	0.104	653553	keystroke_t	t	n/a
326.9555	0.135	653911	keystroke_t	t	n/a
327.1355	0.165	654271	keystroke_a	a	n/a
327.4205	0.15	654841	keystroke_c	c	n/a
327.5855	0.06	655171	keystroke_j	j	n/a
327.8105	0.15	655621	keystroke_Key.space	Key.space	n/a
328.0505	0.12	656101	keystroke_w	w	n/a
328.2305	0.24	656461	keystroke_a	a	n/a
328.6805	0.12	657361	keystroke_t	t	n/a
329.5655	0.135	659131	keystroke_c	c	n/a
329.8205	0.105	659641	keystroke_h	h	n/a
329.9705	0.12	659941	keystroke_e	e	n/a
330.2105	0.12	660421	keystroke_d	d	n/a
330.4205	0.09	660841	keystroke_Key.space	Key.space	n/a
331.1555	0.105	662311	keystroke_n	n	n/a
331.3055	0.15	662611	keystroke_e	e	n/a
331.8605	0.12	663721	keystroke_t	t	n/a
332.0105	0.135	664021	keystroke_h	h	n/a
332.1305	0.165	664261	keystroke_e	e	n/a
332.2205	0.15	664441	keystroke_r	r	n/a
332.4905	0.135	664981	keystroke_l	l	n/a
332.6705	0.12	665341	keystroke_a	a	n/a
332.7755	0.15	665551	keystroke_n	n	n/a
332.9405	0.21	665881	keystroke_d	d	n/a
333.1055	0.15	666211	keystroke_s	s	n/a
333.5405	0.09	667081	keystroke_Key.enter	Key.enter	n/a
333.635	9.6575	667270	prompt	n/a	keno races replacement bottles\n
334.5005	0.135	669001	keystroke_k	k	n/a
334.8755	0.15	669751	keystroke_e	e	n/a
335.0405	0.105	670081	keystroke_n	n	n/a
335.1905	0.165	670381	keystroke_o	o	n/a
335.5805	0.12	671161	keystroke_Key.space	Key.space	n/a
335.9105	0.18	671821	keystroke_r	r	n/a
336.0755	0.15	672151	keystroke_a	a	n/a
336.3605	0.135	672721	keystroke_c	c	n/a
336.6155	0.135	673231	keystroke_e	e	n/a
337.0055	0.12	674011	keystroke_s	s	n/a
337.2155	0.105	674431	keystroke_Key.space	Key.space	n/a
337.5455	0.195	675091	keystroke_r	r	n/a
337.6655	0.165	675331	keystroke_e	e	n/a
337.9205	0.135	675841	keystroke_p	p	n/a
338.1455	0.18	676291	keystroke_l	l	n/a
338.2955	0.15	676591	keystroke_a	a	n/a
338.6555	0.135	677311	keystroke_c	c	n/a
338.9105	0.12	677821	keystroke_e	e	n/a
339.1805	0.075	678361	keystroke_m	m	n/a
339.2405	0.18	678481	keystroke_e	e	n/a
339.4655	0.165	678931	keystroke_t	t	n/a
339.4805	0.09	678961	keystroke_n	n	n/a
340.321	0.0895	680642	keystroke_Key.backspace	Key.backspace	n/a
340.6805	0.12	681361	keystroke_Key.backspace	Key.backspace	n/a
340.9655	0.12	681931	keystroke_n	n	n/a
341.0705	0.135	682141	keystroke_t	t	n/a
341.2955	0.12	682591	keystroke_Key.space	Key.space	n/a
341.6255	0.165	683251	keystroke_b	b	n/a
341.8655	0.105	683731	keystroke_o	o	n/a
342.1205	0.12	684241	keystroke_t	t	n/a
342.3155	0.135	684631	keystroke_t	t	n/a
342.5255	0.135	685051	keystroke_l	l	n/a
342.6455	0.15	685291	keystroke_e	e	n/a
342.9005	0.12	685801	keystroke_s	s	n/a
343.2005	0.09	686401	keystroke_Key.enter	Key.enter	n/a
343.2965	11.6205	686593	prompt	n/a	oakland hill hospitality where'd\n
344.4155	0.105	688831	keystroke_a	a	n/a
344.5505	0.105	689101	keystroke_o	o	n/a
345.1205	0.06	690241	keystroke_Key.backspace	Key.backspace	n/a
345.1355	0.03	690271	keystroke_=	=	n/a
345.2555	0.105	690511	keystroke_Key.backspace	Key.backspace	n/a
345.5255	0.075	691051	keystroke_Key.backspace	Key.backspace	n/a
345.676	0.075	691352	keystroke_Key.backspace	Key.backspace	n/a
346.006	0.06	692012	keystroke_o	o	n/a
346.516	0.165	693032	keystroke_a	a	n/a
346.651	0.105	693302	keystroke_k	k	n/a
347.131	0.105	694262	keystroke_l	l	n/a
347.296	0.135	694592	keystroke_a	a	n/a
347.416	0.1195	694832	keystroke_n	n	n/a
347.5805	0.165	695161	keystroke_d	d	n/a
347.7605	0.105	695521	keystroke_Key.space	Key.space	n/a
348.031	0.105	696062	keystroke_h	h	n/a
348.121	0.165	696242	keystroke_i	i	n/a
348.421	0.045	696842	keystroke_l	l	n/a
348.556	0.075	697112	keystroke_l	l	n/a
349.081	0.0445	698162	keystroke_Key.space	Key.space	n/a
349.756	0.105	699512	keystroke_h	h	n/a
349.951	0.1645	699902	keystroke_o	o	n/a
350.1165	0.149	700233	keystroke_s	s	n/a
350.416	0.135	700832	keystroke_p	p	n/a
350.641	0.105	701282	keystroke_i	i	n/a
351.076	0.18	702152	keystroke_t	t	n/a
351.316	0.165	702632	keystroke_a	a	n/a
351.526	0.15	703052	keystroke_l	l	n/a
352.291	0.135	704582	keystroke_i	i	n/a
352.456	0.18	704912	keystroke_t	t	n/a
352.651	0.09	705302	keystroke_y	y	n/a
352.936	0.09	705872	keystroke_Key.space	Key.space	n/a
353.506	0.045	707012	keystroke_w	w	n/a
353.566	0.135	707132	keystroke_h	h	n/a
353.686	0.18	707372	keystroke_e	e	n/a
353.8205	0.1955	707641	keystroke_r	r	n/a
353.941	0.195	707882	keystroke_e	e	n/a
354.346	0.075	708692	keystroke_'	'	n/a
354.481	0.165	708962	keystroke_d	d	n/a
354.811	0.105	709622	keystroke_Key.enter	Key.enter	n/a
354.921	13.181	709842	prompt	n/a	boys potentially military possibly\n
355.906	0.15	711812	keystroke_b	b	n/a
356.071	0.135	712142	keystroke_o	o	n/a
356.551	0.12	713102	keystroke_y	y	n/a
356.836	0.135	713672	keystroke_s	s	n/a
357.046	0.12	714092	keystroke_Key.space	Key.space	n/a
357.421	0.12	714842	keystroke_p	p	n/a
357.931	0.09	715862	keystroke_o	o	n/a
358.771	0.12	717542	keystroke_t	t	n/a
358.9955	0.165	717991	keystroke_e	e	n/a
359.1305	0.12	718261	keystroke_n	n	n/a
359.4155	0.1955	718831	keystroke_t	t	n/a
359.5955	0.15	719191	keystroke_i	i	n/a
359.7605	0.135	719521	keystroke_a	a	n/a
359.941	0.06	719882	keystroke_l	l	n/a
360.091	0.12	720182	keystroke_l	l	n/a
360.286	0.15	720572	keystroke_y	y	n/a
360.466	0.135	720932	keystroke_Key.space	Key.space	n/a
360.916	0.075	721832	keystroke_m	m	n/a
361.411	0.15	722822	keystroke_i	i	n/a
361.696	0.075	723392	keystroke_l	l	n/a
363.5705	0.09	727141	keystroke_i	i	n/a
364.141	0.15	728282	keystroke_t	t	n/a
364.936	0.15	729872	keystroke_a	a	n/a
365.071	0.18	730142	keystroke_r	r	n/a
365.296	0.12	730592	keystroke_y	y	n/a
365.506	0.075	731012	keystroke_Key.space	Key.space	n/a
365.761	0.135	731522	keystroke_p	p	n/a
365.881	0.21	731762	keystroke_o	o	n/a
366.451	0.105	732902	keystroke_s	s	n/a
366.646	0.12	733292	keystroke_s	s	n/a
366.856	0.18	733712	keystroke_i	i	n/a
367.306	0.105	734612	keystroke_b	b	n/a
367.441	0.195	734882	keystroke_l	l	n/a
367.666	0.15	735332	keystroke_y	y	n/a
368.011	0.09	736022	keystroke_Key.enter	Key.enter	n/a
368.1045	12.6725	736209	prompt	n/a	recover french electrical franchise\n
369.0305	0.24	738061	keystroke_r	r	n/a
369.2105	0.165	738421	keystroke_e	e	n/a
370.5455	0.165	741091	keystroke_c	c	n/a
371.0705	0.09	742141	keystroke_o	o	n/a
371.2355	0.15	742471	keystroke_v	v	n/a
371.4605	0.225	742921	keystroke_e	e	n/a
371.5805	0.15	743161	keystroke_r	r	n/a
372.0455	0.06	744091	keystroke_Key.space	Key.space	n/a
372.4505	0.15	744901	keystroke_f	f	n/a
372.7205	0.165	745441	keystroke_r	r	n/a
372.8705	0.105	745741	keystroke_e	e	n/a
373.7105	0.12	747421	keystroke_n	n	n/a
373.9655	0.195	747931	keystroke_c	c	n/a
374.1005	0.135	748201	keystroke_h	h	n/a
374.3105	0.09	748621	keystroke_Key.space	Key.space	n/a
374.6855	0.135	749371	keystroke_e	e	n/a
374.8355	0.165	749671	keystroke_l	l	n/a
374.9855	0.195	749971	keystroke_e	e	n/a
375.9305	0.105	751861	keystroke_c	c	n/a
376.3205	0.165	752641	keystroke_t	t	n/a
376.6355	0.18	753271	keystroke_r	r	n/a
376.7705	0.12	753541	keystroke_i	i	n/a
377.7755	0.15	755551	keystroke_c	c	n/a
377.9105	0.15	755821	keystroke_a	a	n/a
378.0755	0.105	756151	keystroke_l	l	n/a
378.361	0.105	756722	keystroke_Key.space	Key.space	n/a
378.916	0.195	757832	keystroke_r	r	n/a
379.096	0.15	758192	keystroke_a	a	n/a
379.381	0.135	758762	keystroke_n	n	n/a
379.861	0.135	759722	keystroke_c	c	n/a
379.966	0.105	759932	keystroke_h	h	n/a
380.131	0.135	760262	keystroke_i	i	n/a
380.281	0.255	760562	keystroke_s	s	n/a
380.461	0.165	760922	keystroke_e	e	n/a
380.686	0.09	761372	keystroke_Key.enter	Key.enter	n/a
380.781	16.8115	761562	prompt	n/a	appraisal hawaiian integral french\n
381.841	0.135	763682	keystroke_a	a	n/a
382.126	0.12	764252	keystroke_p	p	n/a
382.651	0.12	765302	keystroke_p	p	n/a
383.041	0.165	766082	keystroke_r	r	n/a
384.466	0.165	768932	keystroke_a	a	n/a
385.201	0.105	770402	keystroke_i	i	n/a
385.441	0.135	770882	keystroke_s	s	n/a
386.2205	0.12	772441	keystroke_a	a	n/a
386.3415	0.119	772683	keystroke_l	l	n/a
386.5955	0.12	773191	keystroke_Key.space	Key.space	n/a
386.9555	0.135	773911	keystroke_h	h	n/a
387.2255	0.27	774451	keystroke_a	a	n/a
387.7055	0.21	775411	keystroke_w	w	n/a
387.9455	0.165	775891	keystroke_a	a	n/a
388.3955	0.06	776791	keystroke_i	i	n/a
388.5605	0.105	777121	keystroke_i	i	n/a
388.8155	0.12	777631	keystroke_a	a	n/a
388.9805	0.135	777961	keystroke_n	n	n/a
389.2205	0.09	778441	keystroke_Key.space	Key.space	n/a
389.4755	0.135	778951	keystroke_i	i	n/a
389.5655	0.165	779131	keystroke_n	n	n/a
389.7905	0.135	779581	keystroke_t	t	n/a
389.9555	0.225	779911	keystroke_e	e	n/a
390.0755	0.165	780151	keystroke_r	r	n/a
392.0105	0.12	784021	keystroke_g	g	n/a
392.2355	0.12	784471	keystroke_r	r	n/a
392.4005	0.1355	784801	keystroke_a	a	n/a
392.5655	0.12	785131	keystroke_l	l	n/a
392.7755	0.135	785551	keystroke_Key.space	Key.space	n/a
393.8105	0.18	787621	keystroke_f	f	n/a
395.3705	0.0905	790741	keystroke_r	r	n/a
395.611	0.135	791222	keystroke_e	e	n/a
395.731	0.12	791462	keystroke_n	n	n/a
396.421	0.135	792842	keystroke_c	c	n/a
396.496	0.135	792992	keystroke_h	h	n/a
397.516	0.075	795032	keystroke_Key.enter	Key.enter	n/a
397.595	11.4275	795190	prompt	n/a	ringtone chassis black recipients\n
398.536	0.18	797072	keystroke_r	r	n/a
398.776	0.195	797552	keystroke_i	i	n/a
398.866	0.15	797732	keystroke_n	n	n/a
399.301	0.165	798602	keystroke_t	t	n/a
399.451	0.105	798902	keystroke_o	o	n/a
399.631	0.15	799262	keystroke_n	n	n/a
399.946	0.09	799892	keystroke_e	e	n/a
400.651	0.105	801302	keystroke_Key.space	Key.space	n/a
401.131	0.12	802262	keystroke_c	c	n/a
401.266	0.135	802532	keystroke_h	h	n/a
401.491	0.12	802982	keystroke_a	a	n/a
401.821	0.105	803642	keystroke_s	s	n/a
401.986	0.135	803972	keystroke_s	s	n/a
402.166	0.12	804332	keystroke_i	i	n/a
402.301	0.15	804602	keystroke_s	s	n/a
402.556	0.12	805112	keystroke_Key.space	Key.space	n/a
402.946	0.105	805892	keystroke_b	b	n/a
403.816	0.09	807632	keystroke_l	l	n/a
404.026	0.18	808052	keystroke_a	a	n/a
404.476	0.12	808952	keystroke_c	c	n/a
404.626	0.12	809252	keystroke_k	k	n/a
405.181	0.105	810362	keystroke_Key.space	Key.space	n/a
405.871	0.165	811742	keystroke_r	r	n/a
406.021	0.165	812042	keystroke_e	e	n/a
406.456	0.135	812912	keystroke_c	c	n/a
406.621	0.135	813242	keystroke_i	i	n/a
407.1455	0.165	814291	keystroke_p	p	n/a
407.3405	0.18	814681	keystroke_i	i	n/a
407.7305	0.18	815461	keystroke_e	e	n/a
407.8805	0.105	815761	keystroke_n	n	n/a
408.0005	0.135	816001	keystroke_t	t	n/a
408.7205	0.15	817441	keystroke_s	s	n/a
408.9305	0.091	817861	keystroke_Key.enter	Key.enter	n/a
409.0255	11.9365	818051	prompt	n/a	labs amenities clear critics\n
409.7855	0.105	819571	keystroke_l	l	n/a
409.9355	0.135	819871	keystroke_a	a	n/a
410.6705	0.165	821341	keystroke_b	b	n/a
410.8805	0.15	821761	keystroke_s	s	n/a
411.1355	0.105	822271	keystroke_Key.space	Key.space	n/a
411.4805	0.135	822961	keystroke_a	a	n/a
411.8105	0.135	823621	keystroke_m	m	n/a
411.9755	0.165	823951	keystroke_e	e	n/a
412.0955	0.105	824191	keystroke_n	n	n/a
412.3205	0.12	824641	keystroke_i	i	n/a
412.9205	0.165	825841	keystroke_t	t	n/a
413.0555	0.165	826111	keystroke_i	i	n/a
413.2215	0.194	826443	keystroke_e	e	n/a
413.5355	0.165	827071	keystroke_s	s	n/a
413.6855	0.135	827371	keystroke_Key.space	Key.space	n/a
414.0455	0.135	828091	keystroke_c	c	n/a
414.1655	0.12	828331	keystroke_l	l	n/a
414.3155	0.24	828631	keystroke_e	e	n/a
414.4655	0.135	828931	keystroke_a	a	n/a
414.7205	0.105	829441	keystroke_Key.space	Key.space	n/a
415.0955	0.135	830191	keystroke_c	c	n/a
415.3505	0.18	830701	keystroke_r	r	n/a
415.5005	0.12	831001	keystroke_i	i	n/a
416.716	0.18	833432	keystroke_r	r	n/a
417.436	0.15	834872	keystroke_Key.backspace	Key.backspace	n/a
419.386	0.135	838772	keystroke_t	t	n/a
419.626	0.12	839252	keystroke_i	i	n/a
419.776	0.135	839552	keystroke_e	e	n/a
420.016	0.12	840032	keystroke_s	s	n/a
420.841	0.12	841682	keystroke_Key.enter	Key.enter	n/a
420.9645	13.333	841929	prompt	n/a	pace uploaded bedding reno\n
421.741	0.135	843482	keystroke_p	p	n/a
421.906	0.12	843812	keystroke_a	a	n/a
422.131	0.105	844262	keystroke_c	c	n/a
422.341	0.12	844682	keystroke_e	e	n/a
422.476	0.12	844952	keystroke_Key.space	Key.space	n/a
422.656	0.075	845312	keystroke_l	l	n/a
422.806	0.165	845612	keystroke_u	u	n/a
422.956	0.18	845912	keystroke_p	p	n/a
424.666	0.06	849332	keystroke_Key.backspace	Key.backspace	n/a
424.816	0.045	849632	keystroke_Key.backspace	Key.backspace	n/a
424.936	0.105	849872	keystroke_Key.backspace	Key.backspace	n/a
425.881	0.12	851762	keystroke_u	u	n/a
426.106	0.105	852212	keystroke_p	p	n/a
426.556	0.12	853112	keystroke_l	l	n/a
426.751	0.105	853502	keystroke_e	e	n/a
427.441	0.15	854882	keystroke_Key.backspace	Key.backspace	n/a
428.101	0.105	856202	keystroke_p	p	n/a
428.296	0.105	856592	keystroke_a	a	n/a
428.866	0.075	857732	keystroke_Key.backspace	Key.backspace	n/a
429.031	0.06	858062	keystroke_Key.backspace	Key.backspace	n/a
429.886	0.06	859772	keystroke_o	o	n/a
430.651	0.15	861302	keystroke_a	a	n/a
430.816	0.15	861632	keystroke_d	d	n/a
431.026	0.105	862052	keystroke_e	e	n/a
431.266	0.105	862532	keystroke_d	d	n/a
431.416	0.105	862832	keystroke_Key.space	Key.space	n/a
431.641	0.09	863282	keystroke_b	b	n/a
432.0155	0.15	864031	keystroke_e	e	n/a
432.3605	0.09	864721	keystroke_d	d	n/a
432.5255	0.105	865051	keystroke_d	d	n/a
432.6315	0.149	865263	keystroke_i	i	n/a
432.6905	0.135	865381	keystroke_n	n	n/a
432.7505	0.136	865501	keystroke_g	g	n/a
432.9615	0.12	865923	keystroke_Key.space	Key.space	n/a
433.3215	0.18	866643	keystroke_r	r	n/a
433.5765	0.15	867153	keystroke_e	e	n/a
433.7415	0.135	867483	keystroke_n	n	n/a
433.8615	0.15	867723	keystroke_o	o	n/a
434.1765	0.12	868353	keystroke_Key.enter	Key.enter	n/a
434.3	14.1725	868600	prompt	n/a	looksmart must contributions introduces\n
435.016	0.09	870032	keystroke_l	l	n/a
435.271	0.06	870542	keystroke_o	o	n/a
435.391	0.12	870782	keystroke_o	o	n/a
435.616	0.105	871232	keystroke_k	k	n/a
436.246	0.12	872492	keystroke_s	s	n/a
436.426	0.105	872852	keystroke_m	m	n/a
436.576	0.24	873152	keystroke_a	a	n/a
436.741	0.15	873482	keystroke_r	r	n/a
436.9955	0.135	873991	keystroke_t	t	n/a
437.1755	0.105	874351	keystroke_Key.space	Key.space	n/a
437.5505	0.06	875101	keystroke_m	m	n/a
437.8055	0.135	875611	keystroke_u	u	n/a
437.9705	0.24	875941	keystroke_s	s	n/a
438.1805	0.1655	876361	keystroke_t	t	n/a
438.346	0.12	876692	keystroke_Key.space	Key.space	n/a
438.676	0.135	877352	keystroke_c	c	n/a
438.826	0.195	877652	keystroke_o	o	n/a
438.931	0.12	877862	keystroke_n	n	n/a
439.621	0.1205	879242	keystroke_t	t	n/a
439.816	0.1805	879632	keystroke_r	r	n/a
440.011	0.12	880022	keystroke_i	i	n/a
440.566	0.195	881132	keystroke_b	b	n/a
440.791	0.135	881582	keystroke_u	u	n/a
441.451	0.165	882902	keystroke_t	t	n/a
441.556	0.24	883112	keystroke_i	i	n/a
442.141	0.15	884282	keystroke_o	o	n/a
442.246	0.15	884492	keystroke_n	n	n/a
442.4855	0.15	884971	keystroke_s	s	n/a
442.6805	0.12	885361	keystroke_Key.space	Key.space	n/a
443.1615	0.165	886323	keystroke_i	i	n/a
443.2665	0.119	886533	keystroke_n	n	n/a
443.7465	0.1645	887493	keystroke_t	t	n/a
444.031	0.18	888062	keystroke_r	r	n/a
444.196	0.105	888392	keystroke_i	i	n/a
444.871	0.135	889742	keystroke_Key.backspace	Key.backspace	n/a
445.561	0.135	891122	keystroke_o	o	n/a
446.761	0.165	893522	keystroke_d	d	n/a
447.001	0.1345	894002	keystroke_u	u	n/a
447.6155	0.12	895231	keystroke_c	c	n/a
447.8705	0.12	895741	keystroke_e	e	n/a
448.0655	0.165	896131	keystroke_s	s	n/a
448.3505	0.12	896701	keystroke_Key.enter	Key.enter	n/a
448.475	11.5625	896950	prompt	n/a	choir show expressions inexpensive\n
449.251	0.165	898502	keystroke_c	c	n/a
449.401	0.12	898802	keystroke_h	h	n/a
449.716	0.12	899432	keystroke_i	i	n/a
449.926	0.105	899852	keystroke_o	o	n/a
450.031	0.18	900062	keystroke_r	r	n/a
450.271	0.09	900542	keystroke_Key.space	Key.space	n/a
450.496	0.195	900992	keystroke_s	s	n/a
450.541	0.165	901082	keystroke_h	h	n/a
450.721	0.135	901442	keystroke_o	o	n/a
450.841	0.24	901682	keystroke_w	w	n/a
451.096	0.135	902192	keystroke_Key.space	Key.space	n/a
451.711	0.165	903422	keystroke_e	e	n/a
452.266	0.015	904532	keystroke_x	x	n/a
452.686	0.075	905372	keystroke_x	x	n/a
453.241	0.12	906482	keystroke_Key.backspace	Key.backspace	n/a
453.781	0.1195	907562	keystroke_p	p	n/a
454.0055	0.2255	908011	keystroke_r	r	n/a
454.1255	0.1805	908251	keystroke_e	e	n/a
454.516	0.09	909032	keystroke_s	s	n/a
454.681	0.1345	909362	keystroke_s	s	n/a
454.8755	0.24	909751	keystroke_i	i	n/a
455.0105	0.18	910021	keystroke_o	o	n/a
455.2515	0.135	910503	keystroke_n	n	n/a
455.446	0.12	910892	keystroke_s	s	n/a
455.686	0.105	911372	keystroke_Key.space	Key.space	n/a
455.911	0.195	911822	keystroke_i	i	n/a
456.001	0.135	912002	keystroke_n	n	n/a
456.736	0.135	913472	keystroke_e	e	n/a
457.066	0.135	914132	keystroke_x	x	n/a
457.5455	0.135	915091	keystroke_p	p	n/a
457.7255	0.18	915451	keystroke_e	e	n/a
457.9065	0.134	915813	keystroke_n	n	n/a
459.0605	0.1355	918121	keystroke_s	s	n/a
459.211	0.09	918422	keystroke_i	i	n/a
459.466	0.12	918932	keystroke_v	v	n/a
459.661	0.135	919322	keystroke_e	e	n/a
459.9455	0.09	919891	keystroke_Key.enter	Key.enter	n/a
460.045	15.7125	920090	prompt	n/a	templates corporations portland timely\n
460.7705	0.151	921541	keystroke_t	t	n/a
460.9955	0.195	921991	keystroke_e	e	n/a
461.1305	0.15	922261	keystroke_m	m	n/a
461.2965	0.134	922593	keystroke_p	p	n/a
461.7615	0.059	923523	keystroke_p	p	n/a
462.286	0.105	924572	keystroke_Key.backspace	Key.backspace	n/a
462.631	0.165	925262	keystroke_l	l	n/a
463.156	0.165	926312	keystroke_a	a	n/a
463.336	0.12	926672	keystroke_t	t	n/a
463.471	0.135	926942	keystroke_e	e	n/a
463.7105	0.15	927421	keystroke_s	s	n/a
463.936	0.09	927872	keystroke_Key.space	Key.space	n/a
464.5055	0.135	929011	keystroke_c	c	n/a
465.1655	0.12	930331	keystroke_o	o	n/a
465.2705	0.18	930541	keystroke_r	r	n/a
465.5255	0.12	931051	keystroke_p	p	n/a
467.1005	0.09	934201	keystroke_o	o	n/a
468.406	0.3	936812	keystroke_r	r	n/a
468.631	0.195	937262	keystroke_a	a	n/a
468.841	0.12	937682	keystroke_t	t	n/a
468.886	0.165	937772	keystroke_i	i	n/a
468.976	0.15	937952	keystroke_o	o	n/a
469.186	0.12	938372	keystroke_n	n	n/a
470.041	0.12	940082	keystroke_s	s	n/a
470.296	0.135	940592	keystroke_Key.space	Key.space	n/a
470.8655	0.135	941731	keystroke_p	p	n/a
470.9555	0.225	941911	keystroke_o	o	n/a
471.5105	0.165	943021	keystroke_e	e	n/a
472.2755	0.1805	944551	keystroke_t	t	n/a
472.7115	0.12	945423	keystroke_l	l	n/a
472.8165	0.135	945633	keystroke_a	a	n/a
472.9215	0.135	945843	keystroke_n	n	n/a
473.0715	0.165	946143	keystroke_d	d	n/a
473.896	0.135	947792	keystroke_Key.space	Key.space	n/a
474.331	0.12	948662	keystroke_t	t	n/a
474.406	0.105	948812	keystroke_i	i	n/a
474.601	0.12	949202	keystroke_m	m	n/a
474.751	0.15	949502	keystroke_e	e	n/a
475.186	0.135	950372	keystroke_l	l	n/a
475.366	0.12	950732	keystroke_y	y	n/a
475.666	0.09	951332	keystroke_Key.enter	Key.enter	n/a
475.76	9.102	951520	prompt	n/a	program google smith sydney\n
476.476	0.075	952952	keystroke_p	p	n/a
476.596	0.165	953192	keystroke_r	r	n/a
476.791	0.09	953582	keystroke_o	o	n/a
477.166	0.12	954332	keystroke_g	g	n/a
477.406	0.18	954812	keystroke_r	r	n/a
477.571	0.18	955142	keystroke_a	a	n/a
477.826	0.135	955652	keystroke_m	m	n/a
478.471	0.105	956942	keystroke_Key.space	Key.space	n/a
478.831	0.135	957662	keystroke_g	g	n/a
479.116	0.06	958232	keystroke_o	o	n/a
479.236	0.165	958472	keystroke_o	o	n/a
479.686	0.195	959372	keystroke_g	g	n/a
480.001	0.12	960002	keystroke_l	l	n/a
480.196	0.075	960392	keystroke_e	e	n/a
480.391	0.06	960782	keystroke_Key.space	Key.space	n/a
480.691	0.15	961382	keystroke_s	s	n/a
481.156	0.09	962312	keystroke_m	m	n/a
481.351	0.12	962702	keystroke_i	i	n/a
481.501	0.165	963002	keystroke_t	t	n/a
481.636	0.09	963272	keystroke_h	h	n/a
481.966	0.075	963932	keystroke_Key.space	Key.space	n/a
482.446	0.15	964892	keystroke_s	s	n/a
482.641	0.135	965282	keystroke_y	y	n/a
483.511	0.135	967022	keystroke_d	d	n/a
483.826	0.135	967652	keystroke_n	n	n/a
484.066	0.12	968132	keystroke_e	e	n/a
484.231	0.135	968462	keystroke_y	y	n/a
484.6805	0.1805	969361	keystroke_Key.enter	Key.enter	n/a
484.866	12.6565	969732	prompt	n/a	have enough effectiveness you'll\n
485.521	0.135	971042	keystroke_h	h	n/a
485.626	0.15	971252	keystroke_a	a	n/a
485.866	0.165	971732	keystroke_v	v	n/a
486.046	0.105	972092	keystroke_e	e	n/a
486.166	0.135	972332	keystroke_Key.space	Key.space	n/a
487.171	0.135	974342	keystroke_e	e	n/a
487.291	0.105	974582	keystroke_n	n	n/a
487.621	0.21	975242	keystroke_o	o	n/a
487.711	0.165	975422	keystroke_u	u	n/a
487.921	0.15	975842	keystroke_g	g	n/a
488.041	0.165	976082	keystroke_h	h	n/a
488.191	0.105	976382	keystroke_Key.space	Key.space	n/a
488.641	0.18	977282	keystroke_e	e	n/a
489.301	0.075	978602	keystroke_f	f	n/a
489.481	0.135	978962	keystroke_f	f	n/a
489.841	0.1345	979682	keystroke_e	e	n/a
490.171	0.15	980342	keystroke_c	c	n/a
490.921	0.165	981842	keystroke_t	t	n/a
491.101	0.105	982202	keystroke_i	i	n/a
491.5505	0.18	983101	keystroke_e	e	n/a
492.0755	0.15	984151	keystroke_Key.backspace	Key.backspace	n/a
492.3605	0.105	984721	keystroke_v	v	n/a
492.8855	0.09	985771	keystroke_e	e	n/a
493.2905	0.12	986581	keystroke_n	n	n/a
493.5005	0.165	987001	keystroke_e	e	n/a
493.9805	0.0905	987961	keystroke_s	s	n/a
494.1005	0.1355	988201	keystroke_s	s	n/a
494.326	0.105	988652	keystroke_s	s	n/a
494.776	0.135	989552	keystroke_Key.space	Key.space	n/a
495.286	0.135	990572	keystroke_y	y	n/a
495.436	0.18	990872	keystroke_o	o	n/a
495.571	0.165	991142	keystroke_u	u	n/a
495.961	0.12	991922	keystroke_'	'	n/a
496.276	0.105	992552	keystroke_l	l	n/a
496.486	0.105	992972	keystroke_l	l	n/a
497.311	0.21	994622	keystroke_Key.enter	Key.enter	n/a
497.5245	12.823	995049	prompt	n/a	gerald lost pole behavior\n
498.661	0.045	997322	keystroke_g	g	n/a
498.856	0.255	997712	keystroke_e	e	n/a
499.021	0.21	998042	keystroke_r	r	n/a
499.276	0.18	998552	keystroke_a	a	n/a
499.8765	0.0745	999753	keystroke_l	l	n/a
500.011	0.195	1000022	keystroke_d	d	n/a
500.221	0.12	1000442	keystroke_Key.space	Key.space	n/a
500.566	0.03	1001132	keystroke_p	p	n/a
501.391	0.135	1002782	keystroke_Key.backspace	Key.backspace	n/a
501.706	0.12	1003412	keystroke_l	l	n/a
502.261	0.09	1004522	keystroke_o	o	n/a
502.4705	0.225	1004941	keystroke_s	s	n/a
502.6505	0.165	1005301	keystroke_t	t	n/a
503.1905	0.105	1006381	keystroke_Key.space	Key.space	n/a
503.7915	0.105	1007583	keystroke_p	p	n/a
503.9265	0.12	1007853	keystroke_o	o	n/a
504.1815	0.165	1008363	keystroke_l	l	n/a
504.3605	0.166	1008721	keystroke_e	e	n/a
504.6755	0.135	1009351	keystroke_Key.space	Key.space	n/a
505.891	0.135	1011782	keystroke_b	b	n/a
506.206	0.135	1012412	keystroke_h	h	n/a
507.046	0.135	1014092	keystroke_Key.backspace	Key.backspace	n/a
507.226	0.12	1014452	keystroke_e	e	n/a
508.006	0.21	1016012	keystroke_h	h	n/a
508.666	0.06	1017332	keystroke_a	a	n/a
509.146	0.15	1018292	keystroke_v	v	n/a
509.341	0.12	1018682	keystroke_i	i	n/a
509.656	0.105	1019312	keystroke_o	o	n/a
509.791	0.15	1019582	keystroke_r	r	n/a
510.256	0.09	1020512	keystroke_Key.enter	Key.enter	n/a
510.3535	11.709	1020707	prompt	n/a	thread commit slip trauma\n
511.111	0.135	1022222	keystroke_t	t	n/a
511.261	0.12	1022522	keystroke_h	h	n/a
511.666	0.225	1023332	keystroke_r	r	n/a
511.816	0.3	1023632	keystroke_e	e	n/a
512.101	0.15	1024202	keystroke_a	a	n/a
512.491	0.15	1024982	keystroke_d	d	n/a
512.671	0.105	1025342	keystroke_Key.space	Key.space	n/a
513.001	0.18	1026002	keystroke_c	c	n/a
513.091	0.15	1026182	keystroke_o	o	n/a
513.452	0.059	1026904	keystroke_m	m	n/a
513.586	0.09	1027172	keystroke_m	m	n/a
513.796	0.12	1027592	keystroke_i	i	n/a
513.901	0.15	1027802	keystroke_t	t	n/a
514.066	0.12	1028132	keystroke_Key.space	Key.space	n/a
514.351	0.21	1028702	keystroke_s	s	n/a
514.456	0.09	1028912	keystroke_l	l	n/a
514.696	0.09	1029392	keystroke_i	i	n/a
514.726	0.135	1029452	keystroke_o	o	n/a
515.821	0.3	1031642	keystroke_Key.backspace	Key.backspace	n/a
516.7505	0.105	1033501	keystroke_p	p	n/a
517.9205	0.135	1035841	keystroke_Key.space	Key.space	n/a
518.9405	0.105	1037881	keystroke_t	t	n/a
519.7055	0.135	1039411	keystroke_r	r	n/a
519.916	0.09	1039832	keystroke_a	a	n/a
521.1605	0.135	1042321	keystroke_u	u	n/a
521.4905	0.121	1042981	keystroke_m	m	n/a
521.6255	0.15	1043251	keystroke_a	a	n/a
521.9555	0.105	1043911	keystroke_Key.enter	Key.enter	n/a
522.0645	10.933	1044129	prompt	n/a	secret screensaver explorer kinase\n
523.0505	0.12	1046101	keystroke_s	s	n/a
523.3505	0.225	1046701	keystroke_e	e	n/a
523.8755	0.12	1047751	keystroke_c	c	n/a
524.1605	0.195	1048321	keystroke_r	r	n/a
524.3255	0.15	1048651	keystroke_e	e	n/a
524.5505	0.15	1049101	keystroke_t	t	n/a
524.7455	0.09	1049491	keystroke_Key.space	Key.space	n/a
524.9705	0.135	1049941	keystroke_s	s	n/a
525.3905	0.15	1050781	keystroke_c	c	n/a
525.9155	0.09	1051831	keystroke_r	r	n/a
526.2155	0.09	1052431	keystroke_e	e	n/a
526.3805	0.15	1052761	keystroke_e	e	n/a
526.6205	0.15	1053241	keystroke_n	n	n/a
527.1455	0.255	1054291	keystroke_s	s	n/a
527.3555	0.135	1054711	keystroke_a	a	n/a
527.6255	0.135	1055251	keystroke_v	v	n/a
527.7905	0.225	1055581	keystroke_e	e	n/a
527.9405	0.135	1055881	keystroke_r	r	n/a
528.0905	0.105	1056181	keystroke_Key.space	Key.space	n/a
528.3305	0.121	1056661	keystroke_e	e	n/a
528.6755	0.06	1057351	keystroke_x	x	n/a
528.8105	0.121	1057621	keystroke_p	p	n/a
529.0355	0.135	1058071	keystroke_l	l	n/a
529.2605	0.15	1058521	keystroke_o	o	n/a
529.5455	0.18	1059091	keystroke_r	r	n/a
530.2055	0.15	1060411	keystroke_e	e	n/a
530.2955	0.165	1060591	keystroke_r	r	n/a
530.4905	0.135	1060981	keystroke_Key.space	Key.space	n/a
530.9105	0.105	1061821	keystroke_k	k	n/a
531.2255	0.255	1062451	keystroke_i	i	n/a
531.4655	0.03	1062931	keystroke_n	n	n/a
531.9605	0.195	1063921	keystroke_a	a	n/a
532.3055	0.12	1064611	keystroke_s	s	n/a
532.5005	0.21	1065001	keystroke_e	e	n/a
532.8755	0.12	1065751	keystroke_Key.enter	Key.enter	n/a
533	11.9675	1066000	prompt	n/a	viewing never anticipated agreed\n
533.9255	0.15	1067851	keystroke_v	v	n/a
535.3355	0.09	1070671	keystroke_i	i	n/a
535.5305	0.21	1071061	keystroke_e	e	n/a
535.7105	0.1955	1071421	keystroke_w	w	n/a
536.431	0.12	1072862	keystroke_i	i	n/a
536.491	0.105	1072982	keystroke_n	n	n/a
536.581	0.15	1073162	keystroke_g	g	n/a
536.761	0.135	1073522	keystroke_Key.space	Key.space	n/a
537.196	0.135	1074392	keystroke_n	n	n/a
537.346	0.24	1074692	keystroke_e	e	n/a
537.871	0.15	1075742	keystroke_v	v	n/a
538.066	0.21	1076132	keystroke_e	e	n/a
538.201	0.135	1076402	keystroke_r	r	n/a
538.351	0.135	1076702	keystroke_Key.space	Key.space	n/a
538.696	0.135	1077392	keystroke_a	a	n/a
538.832	0.089	1077664	keystroke_n	n	n/a
539.836	0.15	1079672	keystroke_t	t	n/a
539.987	0.089	1079974	keystroke_i	i	n/a
540.541	0.15	1081082	keystroke_c	c	n/a
540.676	0.12	1081352	keystroke_i	i	n/a
541.081	0.135	1082162	keystroke_p	p	n/a
541.231	0.18	1082462	keystroke_a	a	n/a
541.426	0.12	1082852	keystroke_t	t	n/a
541.606	0.165	1083212	keystroke_e	e	n/a
541.861	0.195	1083722	keystroke_d	d	n/a
542.431	0.135	1084862	keystroke_Key.space	Key.space	n/a
542.746	0.165	1085492	keystroke_a	a	n/a
542.941	0.12	1085882	keystroke_g	g	n/a
543.181	0.195	1086362	keystroke_r	r	n/a
543.916	0.15	1087832	keystroke_e	e	n/a
544.081	0.045	1088162	keystroke_e	e	n/a
544.261	0.18	1088522	keystroke_d	d	n/a
544.846	0.12	1089692	keystroke_Key.enter	Key.enter	n/a
544.9715	21.7755	1089943	prompt	n/a	places reduced connections encountered\n
545.761	0.09	1091522	keystroke_p	p	n/a
546.016	0.105	1092032	keystroke_l	l	n/a
546.151	0.165	1092302	keystroke_a	a	n/a
546.406	0.15	1092812	keystroke_c	c	n/a
546.931	0.135	1093862	keystroke_e	e	n/a
547.141	0.195	1094282	keystroke_s	s	n/a
547.351	0.12	1094702	keystroke_Key.space	Key.space	n/a
547.606	0.21	1095212	keystroke_r	r	n/a
547.711	0.15	1095422	keystroke_e	e	n/a
548.206	0.135	1096412	keystroke_d	d	n/a
548.401	0.15	1096802	keystroke_u	u	n/a
548.626	0.21	1097252	keystroke_c	c	n/a
550.321	0.12	1100642	keystroke_e	e	n/a
550.561	0.165	1101122	keystroke_d	d	n/a
551.011	0.165	1102022	keystroke_Key.space	Key.space	n/a
551.611	0.15	1103222	keystroke_d	d	n/a
552.031	0.12	1104062	keystroke_o	o	n/a
552.586	0.105	1105172	keystroke_Key.backspace	Key.backspace	n/a
552.766	0.06	1105532	keystroke_Key.backspace	Key.backspace	n/a
553.591	0.12	1107182	keystroke_c	c	n/a
554.536	0.06	1109072	keystroke_o	o	n/a
554.671	0.12	1109342	keystroke_o	o	n/a
554.911	0.135	1109822	keystroke_n	n	n/a
556.141	0.105	1112282	keystroke_Key.backspace	Key.backspace	n/a
556.321	0.075	1112642	keystroke_Key.backspace	Key.backspace	n/a
557.5665	0.0445	1115133	keystroke_n	n	n/a
557.701	0.12	1115402	keystroke_n	n	n/a
558.091	0.12	1116182	keystroke_e	e	n/a
558.436	0.12	1116872	keystroke_c	c	n/a
558.736	0.15	1117472	keystroke_t	t	n/a
558.856	0.135	1117712	keystroke_i	i	n/a
558.916	0.12	1117832	keystroke_o	o	n/a
559.111	0.105	1118222	keystroke_n	n	n/a
559.216	0.12	1118432	keystroke_w	w	n/a
559.9365	0.1045	1119873	keystroke_Key.backspace	Key.backspace	n/a
561.211	0.09	1122422	keystroke_s	s	n/a
561.586	0.12	1123172	keystroke_Key.space	Key.space	n/a
562.4715	0.15	1124943	keystroke_e	e	n/a
562.6365	0.135	1125273	keystroke_n	n	n/a
563.2065	0.15	1126413	keystroke_c	c	n/a
563.3115	0.18	1126623	keystroke_o	o	n/a
563.4015	0.12	1126803	keystroke_u	u	n/a
564.0315	0.12	1128063	keystroke_n	n	n/a
564.1665	0.135	1128333	keystroke_t	t	n/a
565.3665	0.029	1130733	keystroke_w	w	n/a
565.6815	0.149	1131363	keystroke_e	e	n/a
565.7855	0.24	1131571	keystroke_r	r	n/a
565.9805	0.195	1131961	keystroke_e	e	n/a
566.3405	0.165	1132681	keystroke_d	d	n/a
566.6555	0.09	1133311	keystroke_Key.enter	Key.enter	n/a
566.7575	11.9745	1133515	prompt	n/a	savage classroom utilize disabilities\n
567.886	0.165	1135772	keystroke_s	s	n/a
568.186	0.18	1136372	keystroke_a	a	n/a
568.456	0.225	1136912	keystroke_v	v	n/a
568.651	0.105	1137302	keystroke_a	a	n/a
569.101	0.12	1138202	keystroke_g	g	n/a
569.266	0.15	1138532	keystroke_e	e	n/a
569.431	0.12	1138862	keystroke_Key.space	Key.space	n/a
569.641	0.15	1139282	keystroke_c	c	n/a
569.761	0.12	1139522	keystroke_l	l	n/a
569.896	0.105	1139792	keystroke_a	a	n/a
570.061	0.105	1140122	keystroke_s	s	n/a
570.226	0.15	1140452	keystroke_s	s	n/a
570.916	0.15	1141832	keystroke_r	r	n/a
571.051	0.195	1142102	keystroke_o	o	n/a
571.276	0.045	1142552	keystroke_m	m	n/a
571.486	0.104	1142972	keystroke_Key.space	Key.space	n/a
572.2365	0.135	1144473	keystroke_u	u	n/a
572.4315	0.1495	1144863	keystroke_t	t	n/a
572.5365	0.165	1145073	keystroke_i	i	n/a
572.8365	0.1495	1145673	keystroke_l	l	n/a
573.271	0.1205	1146542	keystroke_i	i	n/a
573.5265	0.15	1147053	keystroke_z	z	n/a
573.7965	0.1645	1147593	keystroke_e	e	n/a
574.0805	0.181	1148161	keystroke_d	d	n/a
574.5165	0.12	1149033	keystroke_Key.space	Key.space	n/a
574.9815	0.149	1149963	keystroke_d	d	n/a
575.8205	0.105	1151641	keystroke_i	i	n/a
575.9405	0.151	1151881	keystroke_s	s	n/a
576.2105	0.181	1152421	keystroke_a	a	n/a
576.6005	0.105	1153201	keystroke_b	b	n/a
576.9315	0.149	1153863	keystroke_i	i	n/a
577.1405	0.195	1154281	keystroke_l	l	n/a
577.3065	0.164	1154613	keystroke_i	i	n/a
577.5915	0.119	1155183	keystroke_t	t	n/a
578.1615	0.15	1156323	keystroke_e	e	n/a
578.3855	0.195	1156771	keystroke_s	s	n/a
578.6255	0.105	1157251	keystroke_Key.enter	Key.enter	n/a
578.7345	8.938	1157469	prompt	n/a	floyd french agreements pond\n
579.6465	0.119	1159293	keystroke_f	f	n/a
580.0505	0.15	1160101	keystroke_l	l	n/a
580.4105	0.165	1160821	keystroke_o	o	n/a
580.6205	0.165	1161241	keystroke_y	y	n/a
580.9805	0.18	1161961	keystroke_d	d	n/a
581.1455	0.09	1162291	keystroke_Key.space	Key.space	n/a
581.5805	0.075	1163161	keystroke_f	f	n/a
581.7905	0.165	1163581	keystroke_r	r	n/a
582.4205	0.135	1164841	keystroke_n	n	n/a
582.8555	0.12	1165711	keystroke_Key.backspace	Key.backspace	n/a
583.0505	0.15	1166101	keystroke_e	e	n/a
583.9655	0.105	1167931	keystroke_n	n	n/a
584.1605	0.15	1168321	keystroke_c	c	n/a
584.2955	0.135	1168591	keystroke_h	h	n/a
584.4605	0.12	1168921	keystroke_Key.space	Key.space	n/a
584.7455	0.12	1169491	keystroke_a	a	n/a
584.9105	0.135	1169821	keystroke_g	g	n/a
585.1505	0.15	1170301	keystroke_r	r	n/a
585.4505	0.075	1170901	keystroke_e	e	n/a
585.6005	0.12	1171201	keystroke_e	e	n/a
585.8255	0.12	1171651	keystroke_m	m	n/a
585.9605	0.135	1171921	keystroke_e	e	n/a
586.0805	0.105	1172161	keystroke_n	n	n/a
586.2005	0.105	1172401	keystroke_t	t	n/a
586.3805	0.135	1172761	keystroke_s	s	n/a
586.5755	0.09	1173151	keystroke_Key.space	Key.space	n/a
586.8755	0.135	1173751	keystroke_p	p	n/a
586.9655	0.165	1173931	keystroke_o	o	n/a
587.2355	0.12	1174471	keystroke_n	n	n/a
587.3705	0.15	1174741	keystroke_d	d	n/a
587.5955	0.075	1175191	keystroke_Key.enter	Key.enter	n/a
587.675	10.362	1175350	prompt	n/a	depends armstrong gear conference\n
588.436	0.12	1176872	keystroke_d	d	n/a
588.661	0.165	1177322	keystroke_e	e	n/a
589.141	0.1045	1178282	keystroke_p	p	n/a
589.4705	0.12	1178941	keystroke_n	n	n/a
589.6805	0.285	1179361	keystroke_d	d	n/a
589.876	0.1645	1179752	keystroke_s	s	n/a
590.1605	0.12	1180321	keystroke_Key.space	Key.space	n/a
590.761	0.15	1181522	keystroke_a	a	n/a
590.896	0.165	1181792	keystroke_r	r	n/a
591.076	0.105	1182152	keystroke_m	m	n/a
591.301	0.24	1182602	keystroke_s	s	n/a
591.676	0.09	1183352	keystroke_t	t	n/a
591.856	0.135	1183712	keystroke_r	r	n/a
591.976	0.15	1183952	keystroke_o	o	n/a
592.066	0.12	1184132	keystroke_n	n	n/a
592.291	0.1195	1184582	keystroke_g	g	n/a
592.4855	0.12	1184971	keystroke_Key.space	Key.space	n/a
592.9655	0.135	1185931	keystroke_g	g	n/a
593.2355	0.105	1186471	keystroke_e	e	n/a
593.6855	0.105	1187371	keystroke_Key.backspace	Key.backspace	n/a
594.1805	0.15	1188361	keystroke_e	e	n/a
594.3755	0.225	1188751	keystroke_a	a	n/a
594.5555	0.15	1189111	keystroke_r	r	n/a
594.7505	0.105	1189501	keystroke_Key.space	Key.space	n/a
595.1105	0.12	1190221	keystroke_c	c	n/a
595.2755	0.15	1190551	keystroke_o	o	n/a
595.4105	0.135	1190821	keystroke_n	n	n/a
595.8905	0.12	1191781	keystroke_f	f	n/a
596.341	0.1495	1192682	keystroke_e	e	n/a
596.4755	0.225	1192951	keystroke_r	r	n/a
596.6555	0.18	1193311	keystroke_e	e	n/a
596.8205	0.09	1193641	keystroke_r	r	n/a
597.3455	0.105	1194691	keystroke_n	n	n/a
597.4805	0.12	1194961	keystroke_c	c	n/a
597.7205	0.12	1195441	keystroke_e	e	n/a
597.9305	0.105	1195861	keystroke_Key.enter	Key.enter	n/a
598.04	16.7075	1196080	prompt	n/a	meaningful divisions extends secrets\n
599.056	0.18	1198112	keystroke_e	e	n/a
599.581	0.135	1199162	keystroke_Key.backspace	Key.backspace	n/a
599.911	0.135	1199822	keystroke_m	m	n/a
600.106	0.255	1200212	keystroke_e	e	n/a
600.781	0.12	1201562	keystroke_a	a	n/a
601.246	0.105	1202492	keystroke_n	n	n/a
601.666	0.18	1203332	keystroke_i	i	n/a
601.741	0.12	1203482	keystroke_n	n	n/a
601.8905	0.1355	1203781	keystroke_t	t	n/a
602.116	0.09	1204232	keystroke_Key.space	Key.space	n/a
602.341	0.18	1204682	keystroke_f	f	n/a
602.476	0.105	1204952	keystroke_u	u	n/a
603.151	0.09	1206302	keystroke_Key.backspace	Key.backspace	n/a
603.316	0.09	1206632	keystroke_Key.backspace	Key.backspace	n/a
603.481	0.06	1206962	keystroke_Key.backspace	Key.backspace	n/a
604.096	0.135	1208192	keystroke_Key.backspace	Key.backspace	n/a
604.846	0.075	1209692	keystroke_g	g	n/a
605.221	0.165	1210442	keystroke_f	f	n/a
605.341	0.119	1210682	keystroke_u	u	n/a
605.536	0.12	1211072	keystroke_l	l	n/a
605.7605	0.105	1211521	keystroke_Key.space	Key.space	n/a
606.1655	0.18	1212331	keystroke_f	f	n/a
606.4805	0.12	1212961	keystroke_i	i	n/a
606.6905	0.135	1213381	keystroke_v	v	n/a
606.8555	0.15	1213711	keystroke_i	i	n/a
607.0505	0.165	1214101	keystroke_s	s	n/a
607.2605	0.1355	1214521	keystroke_i	i	n/a
607.7555	0.1955	1215511	keystroke_o	o	n/a
607.936	0.135	1215872	keystroke_n	n	n/a
608.251	0.135	1216502	keystroke_s	s	n/a
608.716	0.135	1217432	keystroke_Key.space	Key.space	n/a
609.316	0.15	1218632	keystroke_e	e	n/a
610.1255	0.12	1220251	keystroke_t	t	n/a
610.3055	0.135	1220611	keystroke_e	e	n/a
610.4705	0.15	1220941	keystroke_n	n	n/a
610.6355	0.165	1221271	keystroke_d	d	n/a
610.7555	0.15	1221511	keystroke_s	s	n/a
611.4155	0.135	1222831	keystroke_Key.space	Key.space	n/a
612.2555	0.12	1224511	keystroke_s	s	n/a
612.5405	0.165	1225081	keystroke_e	e	n/a
613.0215	0.09	1226043	keystroke_c	c	n/a
613.4865	0.21	1226973	keystroke_r	r	n/a
613.6365	0.165	1227273	keystroke_e	e	n/a
613.8615	0.194	1227723	keystroke_s	s	n/a
614.0115	0.1345	1228023	keystroke_t	t	n/a
614.176	0.18	1228352	keystroke_s	s	n/a
614.656	0.09	1229312	keystroke_Key.enter	Key.enter	n/a
614.759	13.3835	1229518	prompt	n/a	rope competitions stanley pale\n
615.676	0.165	1231352	keystroke_e	e	n/a
615.826	0.135	1231652	keystroke_o	o	n/a
615.946	0.135	1231892	keystroke_p	p	n/a
616.696	0.06	1233392	keystroke_Key.backspace	Key.backspace	n/a
616.816	0.09	1233632	keystroke_Key.backspace	Key.backspace	n/a
616.951	0.09	1233902	keystroke_Key.backspace	Key.backspace	n/a
617.701	0.105	1235402	keystroke_r	r	n/a
617.881	0.09	1235762	keystroke_o	o	n/a
618.016	0.12	1236032	keystroke_p	p	n/a
618.376	0.12	1236752	keystroke_e	e	n/a
618.541	0.075	1237082	keystroke_Key.space	Key.space	n/a
618.886	0.135	1237772	keystroke_c	c	n/a
618.991	0.255	1237982	keystroke_o	o	n/a
619.141	0.12	1238282	keystroke_m	m	n/a
620.191	0.075	1240382	keystroke_p	p	n/a
620.491	0.12	1240982	keystroke_e	e	n/a
620.761	0.09	1241522	keystroke_t	t	n/a
620.986	0.15	1241972	keystroke_i	i	n/a
621.211	0.15	1242422	keystroke_t	t	n/a
621.721	0.03	1243442	keystroke_o	o	n/a
622.381	0.135	1244762	keystroke_n	n	n/a
622.546	0.135	1245092	keystroke_s	s	n/a
622.771	0.075	1245542	keystroke_Key.space	Key.space	n/a
623.056	0.015	1246112	keystroke_s	s	n/a
623.131	0.105	1246262	keystroke_s	s	n/a
623.686	0.12	1247372	keystroke_Key.backspace	Key.backspace	n/a
623.971	0.135	1247942	keystroke_s	s	n/a
624.091	0.135	1248182	keystroke_t	t	n/a
624.346	0.15	1248692	keystroke_n	n	n/a
625.411	0.105	1250822	keystroke_a	a	n/a
625.981	0.12	1251962	keystroke_l	l	n/a
626.206	0.12	1252412	keystroke_y	y	n/a
626.371	0.09	1252742	keystroke_Key.space	Key.space	n/a
626.701	0.075	1253402	keystroke_p	p	n/a
626.836	0.15	1253672	keystroke_a	a	n/a
627.001	0.09	1254002	keystroke_l	l	n/a
627.436	0.12	1254872	keystroke_e	e	n/a
627.616	0.045	1255232	keystroke_Key.space	Key.space	n/a
628.021	0.12	1256042	keystroke_Key.enter	Key.enter	n/a
628.145	13.1375	1256290	prompt	n/a	ozone cyber overseas detailed\n
628.921	0.09	1257842	keystroke_o	o	n/a
629.881	0.12	1259762	keystroke_z	z	n/a
630.241	0.15	1260482	keystroke_o	o	n/a
630.346	0.135	1260692	keystroke_n	n	n/a
630.496	0.15	1260992	keystroke_e	e	n/a
630.706	0.0895	1261412	keystroke_Key.space	Key.space	n/a
631.126	0.12	1262252	keystroke_u	u	n/a
631.141	0.135	1262282	keystroke_y	y	n/a
631.591	0.075	1263182	keystroke_Key.backspace	Key.backspace	n/a
631.906	0.09	1263812	keystroke_Key.backspace	Key.backspace	n/a
632.116	0.15	1264232	keystroke_c	c	n/a
632.251	0.12	1264502	keystroke_y	y	n/a
632.806	0.105	1265612	keystroke_b	b	n/a
633.031	0.18	1266062	keystroke_e	e	n/a
633.121	0.15	1266242	keystroke_r	r	n/a
633.331	0.09	1266662	keystroke_Key.space	Key.space	n/a
633.526	0.09	1267052	keystroke_o	o	n/a
633.706	0.09	1267412	keystroke_v	v	n/a
634.006	0.375	1268012	keystroke_e	e	n/a
634.186	0.18	1268372	keystroke_r	r	n/a
634.681	0.135	1269362	keystroke_s	s	n/a
634.891	0.18	1269782	keystroke_a	a	n/a
635.431	0.119	1270862	keystroke_Key.backspace	Key.backspace	n/a
635.61	0.181	1271220	keystroke_e	e	n/a
635.851	0.18	1271702	keystroke_w	w	n/a
636.136	0.18	1272272	keystroke_a	a	n/a
636.391	0.21	1272782	keystroke_s	s	n/a
636.811	0.12	1273622	keystroke_Key.space	Key.space	n/a
637.276	0.15	1274552	keystroke_d	d	n/a
637.456	0.135	1274912	keystroke_i	i	n/a
638.476	0.12	1276952	keystroke_Key.backspace	Key.backspace	n/a
638.866	0.135	1277732	keystroke_e	e	n/a
639.271	0.06	1278542	keystroke_t	t	n/a
639.391	0.15	1278782	keystroke_a	a	n/a
639.616	0.18	1279232	keystroke_o	o	n/a
640.426	0.12	1280852	keystroke_;	;	n/a
640.756	0.105	1281512	keystroke_e	e	n/a
640.966	0.15	1281932	keystroke_d	d	n/a
641.191	0.09	1282382	keystroke_Key.enter	Key.enter	n/a
641.2845	5.608	1282569	prompt	n/a	steal hierarchy airline wired\n
642.196	0.165	1284392	keystroke_s	s	n/a
642.376	0.15	1284752	keystroke_t	t	n/a
642.586	0.165	1285172	keystroke_e	e	n/a
642.751	0.15	1285502	keystroke_a	a	n/a
642.871	0.12	1285742	keystroke_l	l	n/a
643.051	0.105	1286102	keystroke_Key.space	Key.space	n/a
643.711	0.135	1287422	keystroke_h	h	n/a
643.951	0.15	1287902	keystroke_i	i	n/a
644.206	0.18	1288412	keystroke_r	r	n/a
644.431	0.15	1288862	keystroke_e	e	n/a
644.551	0.12	1289102	keystroke_s	s	n/a
644.641	0.315	1289282	keystroke_a	a	n/a
644.941	0.18	1289882	keystroke_c	c	n/a
645.166	0.075	1290332	keystroke_h	h	n/a
645.346	0.15	1290692	keystroke_y	y	n/a
645.511	0.105	1291022	keystroke_Key.space	Key.space	n/a
645.766	0.135	1291532	keystroke_a	a	n/a
645.886	0.15	1291772	keystroke_i	i	n/a
646.021	0.165	1292042	keystroke_r	r	n/a
646.246	0.12	1292492	keystroke_l	l	n/a
646.411	0.18	1292822	keystroke_i	i	n/a
646.501	0.15	1293002	keystroke_n	n	n/a
646.636	0.135	1293272	keystroke_e	e	n/a
646.801	0.09	1293602	keystroke_Key.enter	Key.enter	n/a
646.8945	13.318	1293789	prompt	n/a	violation therapy neutral emotional\n
648.1805	0.0755	1296361	keystroke_c	c	n/a
648.7355	0.12	1297471	keystroke_Key.backspace	Key.backspace	n/a
648.9005	0.15	1297801	keystroke_v	v	n/a
649.1105	0.12	1298221	keystroke_i	i	n/a
649.6505	0.105	1299301	keystroke_o	o	n/a
650.2505	0.075	1300501	keystroke_l	l	n/a
650.3855	0.135	1300771	keystroke_a	a	n/a
650.6405	0.09	1301281	keystroke_t	t	n/a
651.2855	0.105	1302571	keystroke_t	t	n/a
651.4205	0.12	1302841	keystroke_i	i	n/a
651.4955	0.12	1302991	keystroke_o	o	n/a
651.7055	0.12	1303411	keystroke_n	n	n/a
652.006	0.075	1304012	keystroke_Key.space	Key.space	n/a
652.471	0.105	1304942	keystroke_t	t	n/a
652.591	0.105	1305182	keystroke_h	h	n/a
652.711	0.135	1305422	keystroke_e	e	n/a
653.596	0.18	1307192	keystroke_r	r	n/a
653.761	0.15	1307522	keystroke_a	a	n/a
653.926	0.12	1307852	keystroke_p	p	n/a
654.106	0.135	1308212	keystroke_y	y	n/a
654.316	0.105	1308632	keystroke_Key.space	Key.space	n/a
655.276	0.06	1310552	keystroke_n	n	n/a
655.861	0.105	1311722	keystroke_e	e	n/a
655.996	0.12	1311992	keystroke_u	u	n/a
656.176	0.12	1312352	keystroke_t	t	n/a
656.566	0.195	1313132	keystroke_r	r	n/a
656.701	0.165	1313402	keystroke_e	e	n/a
656.926	0.15	1313852	keystroke_a	a	n/a
657.106	0.12	1314212	keystroke_l	l	n/a
657.526	0.12	1315052	keystroke_Key.space	Key.space	n/a
658.051	0.135	1316102	keystroke_e	e	n/a
658.216	0.135	1316432	keystroke_m	m	n/a
658.636	0.12	1317272	keystroke_o	o	n/a
659.041	0.135	1318082	keystroke_t	t	n/a
659.146	0.165	1318292	keystroke_i	i	n/a
659.312	0.224	1318624	keystroke_o	o	n/a
659.491	0.12	1318982	keystroke_n	n	n/a
659.761	0.135	1319522	keystroke_a	a	n/a
659.866	0.12	1319732	keystroke_l	l	n/a
660.121	0.09	1320242	keystroke_Key.enter	Key.enter	n/a
660.215	10.2575	1320430	prompt	n/a	pencil alpine industries threads\n
660.961	0.135	1321922	keystroke_p	p	n/a
661.156	0.105	1322312	keystroke_e	e	n/a
662.221	0.12	1324442	keystroke_n	n	n/a
662.566	0.15	1325132	keystroke_c	c	n/a
662.671	0.105	1325342	keystroke_i	i	n/a
662.851	0.15	1325702	keystroke_l	l	n/a
663.031	0.135	1326062	keystroke_Key.space	Key.space	n/a
663.256	0.12	1326512	keystroke_a	a	n/a
663.766	0.09	1327532	keystroke_l	l	n/a
664.126	0.135	1328252	keystroke_p	p	n/a
664.381	0.2245	1328762	keystroke_i	i	n/a
664.471	0.1495	1328942	keystroke_n	n	n/a
665.1905	0.15	1330381	keystroke_e	e	n/a
665.3555	0.12	1330711	keystroke_Key.space	Key.space	n/a
665.6555	0.18	1331311	keystroke_i	i	n/a
665.7305	0.135	1331461	keystroke_n	n	n/a
665.9255	0.15	1331851	keystroke_d	d	n/a
666.1955	0.15	1332391	keystroke_u	u	n/a
666.3465	0.194	1332693	keystroke_s	s	n/a
666.5415	0.1495	1333083	keystroke_t	t	n/a
666.676	0.135	1333352	keystroke_i	i	n/a
666.991	0.21	1333982	keystroke_r	r	n/a
667.126	0.165	1334252	keystroke_e	e	n/a
667.366	0.12	1334732	keystroke_s	s	n/a
667.501	0.12	1335002	keystroke_Key.space	Key.space	n/a
667.726	0.135	1335452	keystroke_t	t	n/a
668.071	0.105	1336142	keystroke_h	h	n/a
668.596	0.195	1337192	keystroke_r	r	n/a
668.716	0.21	1337432	keystroke_e	e	n/a
668.941	0.165	1337882	keystroke_a	a	n/a
669.226	0.045	1338452	keystroke_s	s	n/a
669.241	0.21	1338482	keystroke_d	d	n/a
669.391	0.195	1338782	keystroke_s	s	n/a
670.306	0.165	1340612	keystroke_Key.enter	Key.enter	n/a
670.477	12.52	1340954	prompt	n/a	gonna greensboro california lightning\n
671.311	0.15	1342622	keystroke_g	g	n/a
671.536	0.15	1343072	keystroke_o	o	n/a
672.151	0.09	1344302	keystroke_n	n	n/a
672.331	0.12	1344662	keystroke_n	n	n/a
672.826	0.135	1345652	keystroke_a	a	n/a
673.006	0.12	1346012	keystroke_Key.space	Key.space	n/a
673.306	0.15	1346612	keystroke_g	g	n/a
674.761	0.12	1349522	keystroke_r	r	n/a
674.926	0.15	1349852	keystroke_e	e	n/a
675.361	0.135	1350722	keystroke_e	e	n/a
675.886	0.135	1351772	keystroke_n	n	n/a
676.066	0.165	1352132	keystroke_s	s	n/a
676.471	0.135	1352942	keystroke_b	b	n/a
676.636	0.12	1353272	keystroke_o	o	n/a
676.996	0.15	1353992	keystroke_r	r	n/a
677.161	0.18	1354322	keystroke_o	o	n/a
677.356	0.12	1354712	keystroke_Key.space	Key.space	n/a
677.671	0.18	1355342	keystroke_c	c	n/a
677.866	0.15	1355732	keystroke_a	a	n/a
678.001	0.15	1356002	keystroke_l	l	n/a
678.211	0.225	1356422	keystroke_i	i	n/a
679.156	0.075	1358312	keystroke_f	f	n/a
679.246	0.105	1358492	keystroke_o	o	n/a
679.516	0.21	1359032	keystroke_r	r	n/a
679.831	0.15	1359662	keystroke_n	n	n/a
680.101	0.225	1360202	keystroke_i	i	n/a
680.281	0.15	1360562	keystroke_a	a	n/a
680.476	0.165	1360952	keystroke_Key.space	Key.space	n/a
680.836	0.18	1361672	keystroke_l	l	n/a
681.016	0.18	1362032	keystroke_i	i	n/a
681.331	0.18	1362662	keystroke_g	g	n/a
681.466	0.15	1362932	keystroke_h	h	n/a
681.676	0.165	1363352	keystroke_t	t	n/a
681.931	0.21	1363862	keystroke_i	i	n/a
682.066	0.225	1364132	keystroke_n	n	n/a
682.3515	0.18	1364703	keystroke_i	i	n/a
682.4565	0.165	1364913	keystroke_n	n	n/a
682.6065	0.15	1365213	keystroke_g	g	n/a
682.8915	0.105	1365783	keystroke_Key.enter	Key.enter	n/a
683.0015	10.316	1366003	prompt	n/a	terms broadcast affiliates guides\n
684.1965	0.09	1368393	keystroke_r	r	n/a
684.4065	0.15	1368813	keystroke_e	e	n/a
684.5115	0.15	1369023	keystroke_r	r	n/a
684.7965	0.09	1369593	keystroke_m	m	n/a
684.9165	0.1645	1369833	keystroke_s	s	n/a
685.546	0.12	1371092	keystroke_Key.space	Key.space	n/a
686.056	0.105	1372112	keystroke_b	b	n/a
686.356	0.12	1372712	keystroke_r	r	n/a
686.506	0.15	1373012	keystroke_o	o	n/a
686.746	0.165	1373492	keystroke_a	a	n/a
686.941	0.165	1373882	keystroke_d	d	n/a
687.271	0.135	1374542	keystroke_c	c	n/a
687.481	0.15	1374962	keystroke_a	a	n/a
687.751	0.225	1375502	keystroke_s	s	n/a
687.946	0.135	1375892	keystroke_t	t	n/a
688.126	0.12	1376252	keystroke_Key.space	Key.space	n/a
688.396	0.165	1376792	keystroke_a	a	n/a
688.666	0.09	1377332	keystroke_f	f	n/a
688.816	0.15	1377632	keystroke_f	f	n/a
689.131	0.165	1378262	keystroke_i	i	n/a
689.311	0.135	1378622	keystroke_l	l	n/a
689.461	0.18	1378922	keystroke_i	i	n/a
689.926	0.165	1379852	keystroke_a	a	n/a
690.091	0.09	1380182	keystroke_t	t	n/a
690.211	0.15	1380422	keystroke_e	e	n/a
690.451	0.165	1380902	keystroke_s	s	n/a
690.631	0.075	1381262	keystroke_Key.space	Key.space	n/a
690.826	0.165	1381652	keystroke_g	g	n/a
690.946	0.195	1381892	keystroke_u	u	n/a
691.081	0.21	1382162	keystroke_i	i	n/a
692.536	0.12	1385072	keystroke_d	d	n/a
692.731	0.15	1385462	keystroke_e	e	n/a
692.896	0.15	1385792	keystroke_s	s	n/a
693.211	0.1045	1386422	keystroke_Key.enter	Key.enter	n/a
693.32	10.4825	1386640	prompt	n/a	essence principle becomes marks\n
694.5755	0.15	1389151	keystroke_e	e	n/a
694.9805	0.09	1389961	keystroke_s	s	n/a
695.1455	0.12	1390291	keystroke_s	s	n/a
695.5355	0.135	1391071	keystroke_e	e	n/a
695.6855	0.135	1391371	keystroke_n	n	n/a
696.4655	0.045	1392931	keystroke_c	c	n/a
696.6755	0.15	1393351	keystroke_e	e	n/a
696.9905	0.105	1393981	keystroke_Key.space	Key.space	n/a
697.3205	0.105	1394641	keystroke_p	p	n/a
697.4705	0.135	1394941	keystroke_r	r	n/a
697.7405	0.135	1395481	keystroke_i	i	n/a
698.701	0.105	1397402	keystroke_n	n	n/a
699.1965	0.1195	1398393	keystroke_c	c	n/a
699.421	0.135	1398842	keystroke_i	i	n/a
699.796	0.105	1399592	keystroke_p	p	n/a
700.006	0.12	1400012	keystroke_l	l	n/a
700.096	0.15	1400192	keystroke_e	e	n/a
700.276	0.105	1400552	keystroke_Key.space	Key.space	n/a
700.561	0.105	1401122	keystroke_b	b	n/a
700.756	0.135	1401512	keystroke_e	e	n/a
701.626	0.165	1403252	keystroke_c	c	n/a
701.746	0.15	1403492	keystroke_o	o	n/a
701.806	0.12	1403612	keystroke_m	m	n/a
701.926	0.135	1403852	keystroke_e	e	n/a
702.286	0.03	1404572	keystroke_s	s	n/a
702.301	0.06	1404602	keystroke_Key.space	Key.space	n/a
702.496	0.105	1404992	keystroke_m	m	n/a
702.586	0.18	1405172	keystroke_a	a	n/a
703.096	0.135	1406192	keystroke_r	r	n/a
703.216	0.135	1406432	keystroke_k	k	n/a
703.366	0.15	1406732	keystroke_s	s	n/a
703.696	0.105	1407392	keystroke_Key.enter	Key.enter	n/a
703.807	12.2055	1407614	prompt	n/a	determined presentations different missions\n
704.506	0.105	1409012	keystroke_d	d	n/a
704.746	0.15	1409492	keystroke_e	e	n/a
705.001	0.105	1410002	keystroke_t	t	n/a
705.166	0.18	1410332	keystroke_e	e	n/a
705.271	0.15	1410542	keystroke_r	r	n/a
705.541	0.09	1411082	keystroke_m	m	n/a
705.751	0.15	1411502	keystroke_i	i	n/a
705.811	0.165	1411622	keystroke_n	n	n/a
707.206	0.09	1414412	keystroke_e	e	n/a
707.401	0.15	1414802	keystroke_d	d	n/a
707.611	0.09	1415222	keystroke_Key.space	Key.space	n/a
708.076	0.105	1416152	keystroke_p	p	n/a
708.556	0.165	1417112	keystroke_r	r	n/a
708.676	0.165	1417352	keystroke_e	e	n/a
709.006	0.165	1418012	keystroke_s	s	n/a
710.311	0.165	1420622	keystroke_e	e	n/a
710.476	0.12	1420952	keystroke_n	n	n/a
710.671	0.15	1421342	keystroke_t	t	n/a
710.896	0.135	1421792	keystroke_a	a	n/a
711.046	0.165	1422092	keystroke_t	t	n/a
711.136	0.165	1422272	keystroke_i	i	n/a
711.196	0.135	1422392	keystroke_o	o	n/a
711.361	0.135	1422722	keystroke_n	n	n/a
711.481	0.24	1422962	keystroke_s	s	n/a
711.676	0.105	1423352	keystroke_Key.space	Key.space	n/a
711.871	0.165	1423742	keystroke_d	d	n/a
712.021	0.15	1424042	keystroke_i	i	n/a
712.351	0.09	1424702	keystroke_f	f	n/a
712.516	0.135	1425032	keystroke_f	f	n/a
712.846	0.165	1425692	keystroke_e	e	n/a
712.981	0.18	1425962	keystroke_r	r	n/a
713.146	0.135	1426292	keystroke_e	e	n/a
713.341	0.135	1426682	keystroke_n	n	n/a
713.521	0.15	1427042	keystroke_t	t	n/a
713.746	0.105	1427492	keystroke_Key.space	Key.space	n/a
714.061	0.09	1428122	keystroke_m	m	n/a
714.226	0.165	1428452	keystroke_i	i	n/a
714.451	0.105	1428902	keystroke_s	s	n/a
714.616	0.12	1429232	keystroke_s	s	n/a
715.096	0.225	1430192	keystroke_i	i	n/a
715.261	0.165	1430522	keystroke_o	o	n/a
715.501	0.09	1431002	keystroke_n	n	n/a
715.636	0.09	1431272	keystroke_s	s	n/a
715.9055	0.105	1431811	keystroke_Key.enter	Key.enter	n/a
716.015	13.4375	1432030	prompt	n/a	trembl molecular parking pontiac\n
717.0455	0.12	1434091	keystroke_t	t	n/a
717.286	0.12	1434572	keystroke_r	r	n/a
717.661	0.1355	1435322	keystroke_e	e	n/a
717.8115	0.12	1435623	keystroke_m	m	n/a
718.4565	0.165	1436913	keystroke_b	b	n/a
718.6365	0.105	1437273	keystroke_l	l	n/a
718.8465	0.105	1437693	keystroke_Key.space	Key.space	n/a
719.2665	0.12	1438533	keystroke_m	m	n/a
719.5065	0.18	1439013	keystroke_o	o	n/a
719.8065	0.15	1439613	keystroke_l	l	n/a
720.0015	0.18	1440003	keystroke_e	e	n/a
720.2705	0.165	1440541	keystroke_s	s	n/a
720.6015	0.165	1441203	keystroke_c	c	n/a
720.7215	0.12	1441443	keystroke_u	u	n/a
720.9605	0.12	1441921	keystroke_l	l	n/a
721.1405	0.21	1442281	keystroke_a	a	n/a
721.3805	0.12	1442761	keystroke_r	r	n/a
722.3255	0.09	1444651	keystroke_Key.space	Key.space	n/a
724.1105	0.1055	1448221	keystroke_p	p	n/a
724.246	0.225	1448492	keystroke_a	a	n/a
724.456	0.1345	1448912	keystroke_r	r	n/a
724.576	0.09	1449152	keystroke_k	k	n/a
724.786	0.165	1449572	keystroke_i	i	n/a
724.861	0.135	1449722	keystroke_n	n	n/a
724.966	0.135	1449932	keystroke_g	g	n/a
725.116	0.12	1450232	keystroke_Key.space	Key.space	n/a
725.566	0.105	1451132	keystroke_p	p	n/a
725.776	0.27	1451552	keystroke_i	i	n/a
726.376	0.135	1452752	keystroke_Key.backspace	Key.backspace	n/a
726.811	0.195	1453622	keystroke_o	o	n/a
726.961	0.15	1453922	keystroke_n	n	n/a
727.306	0.135	1454612	keystroke_t	t	n/a
727.456	0.12	1454912	keystroke_i	i	n/a
728.041	0.15	1456082	keystroke_a	a	n/a
728.206	0.24	1456412	keystroke_c	c	n/a
729.136	0.1055	1458272	keystroke_Key.space	Key.space	n/a
729.376	0.075	1458752	keystroke_Key.enter	Key.enter	n/a
729.458	13.5995	1458916	prompt	n/a	baghdad baking pets batch\n
731.868	0.1635	1463736	keystroke_d	d	n/a
731.9855	0.195	1463971	keystroke_a	a	n/a
732.2855	0.15	1464571	keystroke_g	g	n/a
733.2305	0.075	1466461	keystroke_Key.backspace	Key.backspace	n/a
733.3805	0.045	1466761	keystroke_Key.backspace	Key.backspace	n/a
733.4555	0.06	1466911	keystroke_Key.backspace	Key.backspace	n/a
733.5905	0.09	1467181	keystroke_Key.backspace	Key.backspace	n/a
734.3255	0.046	1468651	keystroke_b	b	n/a
735.6905	0.165	1471381	keystroke_a	a	n/a
735.7955	0.1505	1471591	keystroke_g	g	n/a
736.426	0.12	1472852	keystroke_h	h	n/a
736.846	0.18	1473692	keystroke_d	d	n/a
737.146	0.12	1474292	keystroke_a	a	n/a
737.251	0.15	1474502	keystroke_d	d	n/a
737.671	0.135	1475342	keystroke_Key.space	Key.space	n/a
738.196	0.1495	1476392	keystroke_b	b	n/a
738.4055	0.21	1476811	keystroke_a	a	n/a
738.5705	0.12	1477141	keystroke_r	r	n/a
738.7055	0.105	1477411	keystroke_k	k	n/a
738.9455	0.18	1477891	keystroke_i	i	n/a
739.0205	0.135	1478041	keystroke_n	n	n/a
739.3205	0.15	1478641	keystroke_g	g	n/a
739.5005	0.135	1479001	keystroke_Key.space	Key.space	n/a
740.2355	0.12	1480471	keystroke_p	p	n/a
740.3705	0.21	1480741	keystroke_e	e	n/a
740.5655	0.12	1481131	keystroke_t	t	n/a
740.7605	0.18	1481521	keystroke_s	s	n/a
740.9105	0.12	1481821	keystroke_Key.space	Key.space	n/a
741.7505	0.12	1483501	keystroke_b	b	n/a
741.9455	0.195	1483891	keystroke_a	a	n/a
742.2305	0.1355	1484461	keystroke_t	t	n/a
742.5605	0.135	1485121	keystroke_c	c	n/a
742.6055	0.135	1485211	keystroke_h	h	n/a
742.9805	0.0755	1485961	keystroke_Key.enter	Key.enter	n/a
743.06	9.8075	1486120	prompt	n/a	verification tons vienna scheme\n
743.941	0.09	1487882	keystroke_c	c	n/a
744.316	0.12	1488632	keystroke_Key.backspace	Key.backspace	n/a
744.497	0.164	1488994	keystroke_v	v	n/a
744.871	0.21	1489742	keystroke_e	e	n/a
744.991	0.195	1489982	keystroke_r	r	n/a
745.201	0.12	1490402	keystroke_i	i	n/a
745.786	0.15	1491572	keystroke_f	f	n/a
745.921	0.105	1491842	keystroke_i	i	n/a
746.311	0.195	1492622	keystroke_c	c	n/a
746.521	0.195	1493042	keystroke_a	a	n/a
746.716	0.15	1493432	keystroke_t	t	n/a
746.791	0.165	1493582	keystroke_i	i	n/a
746.851	0.135	1493702	keystroke_o	o	n/a
747.031	0.165	1494062	keystroke_n	n	n/a
747.211	0.12	1494422	keystroke_Key.space	Key.space	n/a
747.406	0.135	1494812	keystroke_t	t	n/a
747.526	0.135	1495052	keystroke_o	o	n/a
747.601	0.135	1495202	keystroke_n	n	n/a
747.901	0.12	1495802	keystroke_s	s	n/a
748.066	0.12	1496132	keystroke_Key.space	Key.space	n/a
748.546	0.15	1497092	keystroke_v	v	n/a
748.921	0.075	1497842	keystroke_i	i	n/a
749.266	0.165	1498532	keystroke_e	e	n/a
750.331	0.075	1500662	keystroke_n	n	n/a
750.466	0.1195	1500932	keystroke_n	n	n/a
750.6315	0.134	1501263	keystroke_a	a	n/a
750.8105	0.09	1501621	keystroke_Key.space	Key.space	n/a
751.0655	0.136	1502131	keystroke_s	s	n/a
751.4405	0.195	1502881	keystroke_c	c	n/a
751.6205	0.135	1503241	keystroke_h	h	n/a
751.9655	0.135	1503931	keystroke_e	e	n/a
752.1905	0.09	1504381	keystroke_m	m	n/a
752.2655	0.196	1504531	keystroke_e	e	n/a
752.7615	0.105	1505523	keystroke_Key.enter	Key.enter	n/a
752.87	11.6825	1505740	prompt	n/a	governmental stem identification edge\n
753.7515	0.045	1507503	keystroke_g	g	n/a
754.5615	0.089	1509123	keystroke_o	o	n/a
754.9955	0.15	1509991	keystroke_v	v	n/a
755.2655	0.21	1510531	keystroke_e	e	n/a
755.5655	0.135	1511131	keystroke_n	n	n/a
756.3605	0.12	1512721	keystroke_m	m	n/a
756.4955	0.135	1512991	keystroke_e	e	n/a
756.6155	0.15	1513231	keystroke_n	n	n/a
756.7805	0.15	1513561	keystroke_t	t	n/a
757.0055	0.195	1514011	keystroke_a	a	n/a
757.1855	0.12	1514371	keystroke_l	l	n/a
757.4105	0.09	1514821	keystroke_Key.space	Key.space	n/a
757.6655	0.135	1515331	keystroke_s	s	n/a
757.9655	0.15	1515931	keystroke_t	t	n/a
758.2205	0.165	1516441	keystroke_e	e	n/a
758.3405	0.15	1516681	keystroke_m	m	n/a
758.8215	0.12	1517643	keystroke_Key.space	Key.space	n/a
759.2265	0.135	1518453	keystroke_i	i	n/a
759.4965	0.18	1518993	keystroke_d	d	n/a
759.6315	0.075	1519263	keystroke_i	i	n/a
760.2165	0.09	1520433	keystroke_Key.backspace	Key.backspace	n/a
760.4265	0.165	1520853	keystroke_e	e	n/a
760.5765	0.12	1521153	keystroke_n	n	n/a
761.1165	0.15	1522233	keystroke_t	t	n/a
761.2515	0.105	1522503	keystroke_i	i	n/a
761.6415	0.18	1523283	keystroke_f	f	n/a
761.7765	0.12	1523553	keystroke_i	i	n/a
762.1515	0.135	1524303	keystroke_c	c	n/a
762.3015	0.1495	1524603	keystroke_a	a	n/a
762.556	0.15	1525112	keystroke_t	t	n/a
762.616	0.165	1525232	keystroke_i	i	n/a
762.691	0.15	1525382	keystroke_o	o	n/a
762.916	0.15	1525832	keystroke_n	n	n/a
763.156	0.075	1526312	keystroke_Key.space	Key.space	n/a
763.501	0.12	1527002	keystroke_e	e	n/a
763.786	0.15	1527572	keystroke_d	d	n/a
764.026	0.105	1528052	keystroke_g	g	n/a
764.146	0.18	1528292	keystroke_e	e	n/a
764.461	0.09	1528922	keystroke_Key.enter	Key.enter	n/a
764.557	12.8205	1529114	prompt	n/a	extra bass proven knit\n
765.301	0.09	1530602	keystroke_e	e	n/a
766.651	0.24	1533302	keystroke_x	x	n/a
769.023	0.058	1538046	keystroke_r	r	n/a
769.231	0.06	1538462	keystroke_r	r	n/a
769.276	0.165	1538552	keystroke_a	a	n/a
769.486	0.105	1538972	keystroke_Key.space	Key.space	n/a
769.756	0.12	1539512	keystroke_v	v	n/a
769.906	0.15	1539812	keystroke_a	a	n/a
770.2215	0.1045	1540443	keystroke_s	s	n/a
770.881	0.135	1541762	keystroke_s	s	n/a
771.076	0.12	1542152	keystroke_Key.space	Key.space	n/a
771.451	0.105	1542902	keystroke_p	p	n/a
771.571	0.165	1543142	keystroke_r	r	n/a
771.721	0.135	1543442	keystroke_o	o	n/a
772.156	0.15	1544312	keystroke_v	v	n/a
772.366	0.18	1544732	keystroke_e	e	n/a
772.471	0.15	1544942	keystroke_n	n	n/a
772.636	0.075	1545272	keystroke_Key.space	Key.space	n/a
773.116	0.105	1546232	keystroke_n	n	n/a
773.566	0.105	1547132	keystroke_=	=	n/a
774.271	0.06	1548542	keystroke_Key.backspace	Key.backspace	n/a
774.406	0.135	1548812	keystroke_Key.backspace	Key.backspace	n/a
775.831	0.135	1551662	keystroke_k	k	n/a
775.906	0.105	1551812	keystroke_n	n	n/a
776.311	0.09	1552622	keystroke_i	i	n/a
776.461	0.135	1552922	keystroke_t	t	n/a
777.256	0.1205	1554512	keystroke_Key.enter	Key.enter	n/a
777.3795	13.258	1554759	prompt	n/a	weak forecast territories generally\n
778.1565	0.15	1556313	keystroke_e	e	n/a
778.4115	0.15	1556823	keystroke_a	a	n/a
778.5765	0.12	1557153	keystroke_k	k	n/a
779.3255	0.135	1558651	keystroke_Key.backspace	Key.backspace	n/a
779.4765	0.015	1558953	keystroke_Key.backspace	Key.backspace	n/a
779.5355	0.106	1559071	keystroke_Key.backspace	Key.backspace	n/a
780.3165	0.15	1560633	keystroke_w	w	n/a
780.7815	0.18	1561563	keystroke_e	e	n/a
781.0055	0.165	1562011	keystroke_a	a	n/a
781.1405	0.091	1562281	keystroke_k	k	n/a
781.3805	0.09	1562761	keystroke_Key.space	Key.space	n/a
782.4605	0.135	1564921	keystroke_f	f	n/a
782.5815	0.09	1565163	keystroke_o	o	n/a
782.7005	0.135	1565401	keystroke_r	r	n/a
783.5715	0.179	1567143	keystroke_e	e	n/a
784.0505	0.136	1568101	keystroke_c	c	n/a
784.2455	0.136	1568491	keystroke_a	a	n/a
784.3955	0.285	1568791	keystroke_s	s	n/a
784.5905	0.18	1569181	keystroke_t	t	n/a
784.8155	0.105	1569631	keystroke_Key.space	Key.space	n/a
785.2215	0.149	1570443	keystroke_t	t	n/a
785.5365	0.165	1571073	keystroke_e	e	n/a
785.8655	0.091	1571731	keystroke_r	r	n/a
786.0315	0.15	1572063	keystroke_r	r	n/a
786.2115	0.1345	1572423	keystroke_i	i	n/a
786.616	0.135	1573232	keystroke_t	t	n/a
786.736	0.12	1573472	keystroke_o	o	n/a
787.246	0.165	1574492	keystroke_r	r	n/a
788.0265	0.135	1576053	keystroke_i	i	n/a
