onset	duration	sample	value	key	prompt_text
10.701	13.022	21402	prompt	n/a	the quick brown fox jumps over a lazy dog\n
12.6825	0	25365	keystroke_t	t	n/a
12.7095	0.075	25419	keystroke_h	h	n/a
12.7995	0.12	25599	keystroke_e	e	n/a
13.0545	0.135	26109	keystroke_Key.space	Key.space	n/a
13.2195	0.12	26439	keystroke_q	q	n/a
13.3545	0.135	26709	keystroke_u	u	n/a
13.4445	0.105	26889	keystroke_i	i	n/a
13.5945	0.105	27189	keystroke_c	c	n/a
13.6845	0.12	27369	keystroke_k	k	n/a
13.7745	0.15	27549	keystroke_Key.space	Key.space	n/a
13.9995	0.135	27999	keystroke_b	b	n/a
14.4645	0.09	28929	keystroke_r	r	n/a
14.5845	0.09	29169	keystroke_o	o	n/a
14.8395	0.09	29679	keystroke_w	w	n/a
15.0795	0.135	30159	keystroke_n	n	n/a
15.2895	0.15	30579	keystroke_Key.space	Key.space	n/a
15.4545	0.105	30909	keystroke_f	f	n/a
15.5895	0.09	31179	keystroke_o	o	n/a
15.7395	0.105	31479	keystroke_x	x	n/a
15.9945	0.135	31989	keystroke_Key.space	Key.space	n/a
16.3095	0.09	32619	keystroke_j	j	n/a
16.5045	0.105	33009	keystroke_u	u	n/a
16.8495	0.135	33699	keystroke_p	p	n/a
17.9895	0.09	35979	keystroke_Key.backspace	Key.backspace	n/a
18.6495	0.18	37299	keystroke_m	m	n/a
18.9945	0.105	37989	keystroke_s	s	n/a
19.7745	0.075	39549	keystroke_Key.backspace	Key.backspace	n/a
20.3895	0.075	40779	keystroke_p	p	n/a
20.5845	0.09	41169	keystroke_s	s	n/a
20.6595	0.135	41319	keystroke_Key.space	Key.space	n/a
20.8245	0.105	41649	keystroke_o	o	n/a
20.9445	0.09	41889	keystroke_v	v	n/a
21.1395	0.165	42279	keystroke_e	e	n/a
21.2295	0.135	42459	keystroke_r	r	n/a
21.3195	0.135	42639	keystroke_Key.space	Key.space	n/a
21.5145	0.135	43029	keystroke_a	a	n/a
21.5895	0.15	43179	keystroke_Key.space	Key.space	n/a
21.7095	0.12	43419	keystroke_l	l	n/a
21.8595	0.09	43719	keystroke_a	a	n/a
22.1145	0.105	44229	keystroke_z	z	n/a
22.2495	0.15	44499	keystroke_y	y	n/a
22.3395	0.15	44679	keystroke_Key.space	Key.space	n/a
22.5045	0.075	45009	keystroke_d	d	n/a
22.5795	0.09	45159	keystroke_o	o	n/a
22.7595	0.075	45519	keystroke_g	g	n/a
23.5995	0.12	47199	keystroke_Key.enter	Key.enter	n/a
23.7285	6.218	47457	prompt	n/a	seekers swiss theatre kick\n
24.4995	0.075	48999	keystroke_s	s	n/a
24.6945	0.06	49389	keystroke_e	e	n/a
24.9045	0.045	49809	keystroke_e	e	n/a
24.9945	0.12	49989	keystroke_k	k	n/a
25.1295	0.12	50259	keystroke_e	e	n/a
25.2195	0.18	50439	keystroke_r	r	n/a
25.3545	0.12	50709	keystroke_s	s	n/a
25.4895	0.12	50979	keystroke_Key.space	Key.space	n/a
25.8495	0.06	51699	keystroke_s	s	n/a
26.0445	0.09	52089	keystroke_w	w	n/a
26.1795	0.09	52359	keystroke_i	i	n/a
26.3145	0.075	52629	keystroke_s	s	n/a
26.4645	0.12	52929	keystroke_s	s	n/a
26.5695	0.15	53139	keystroke_Key.space	Key.space	n/a
27.1845	0.09	54369	keystroke_t	t	n/a
27.3195	0.12	54639	keystroke_h	h	n/a
27.4545	0.09	54909	keystroke_e	e	n/a
27.6345	0.165	55269	keystroke_a	a	n/a
27.7695	0.09	55539	keystroke_t	t	n/a
28.0095	0.12	56019	keystroke_r	r	n/a
28.1145	0.09	56229	keystroke_e	e	n/a
28.3995	0.075	56799	keystroke_Key.space	Key.space	n/a
28.7445	0.075	57489	keystroke_k	k	n/a
28.9245	0.09	57849	keystroke_i	i	n/a
28.9995	0.105	57999	keystroke_c	c	n/a
29.1645	0.09	58329	keystroke_k	k	n/a
29.8245	0.12	59649	keystroke_Key.enter	Key.enter	n/a
29.951	10.271	59902	prompt	n/a	outreach snap prospects shipments\n
30.8145	0.15	61629	keystroke_o	o	n/a
30.9495	0.135	61899	keystroke_u	u	n/a
31.3545	0.075	62709	keystroke_t	t	n/a
31.6395	0.105	63279	keystroke_r	r	n/a
31.7745	0.18	63549	keystroke_e	e	n/a
31.9245	0.09	63849	keystroke_a	a	n/a
32.1495	0.09	64299	keystroke_c	c	n/a
32.2995	0.15	64599	keystroke_h	h	n/a
32.3745	0.15	64749	keystroke_Key.space	Key.space	n/a
32.8695	0.12	65739	keystroke_s	s	n/a
32.9595	0.105	65919	keystroke_n	n	n/a
33.0795	0.12	66159	keystroke_a	a	n/a
33.2295	0.135	66459	keystroke_p	p	n/a
33.4095	0.075	66819	keystroke_Key.space	Key.space	n/a
33.8745	0.045	67749	keystroke_r	r	n/a
34.6245	0.06	69249	keystroke_Key.backspace	Key.backspace	n/a
35.0745	0.12	70149	keystroke_p	p	n/a
35.3745	0.09	70749	keystroke_r	r	n/a
35.5695	0.075	71139	keystroke_o	o	n/a
36.0345	0.09	72069	keystroke_s	s	n/a
36.1845	0.12	72369	keystroke_p	p	n/a
36.3345	0.075	72669	keystroke_e	e	n/a
36.6195	0.06	73239	keystroke_c	c	n/a
36.8295	0.15	73659	keystroke_t	t	n/a
36.9645	0.09	73929	keystroke_s	s	n/a
37.2795	0.135	74559	keystroke_Key.space	Key.space	n/a
37.5795	0.105	75159	keystroke_s	s	n/a
37.7145	0.075	75429	keystroke_h	h	n/a
37.9545	0.12	75909	keystroke_i	i	n/a
38.2695	0.105	76539	keystroke_p	p	n/a
38.5245	0.12	77049	keystroke_m	m	n/a
38.6595	0.105	77319	keystroke_e	e	n/a
38.7495	0.135	77499	keystroke_n	n	n/a
38.8695	0.15	77739	keystroke_t	t	n/a
38.9745	0.105	77949	keystroke_s	s	n/a
40.0845	0.135	80169	keystroke_Key.enter	Key.enter	n/a
40.2265	7.66	80453	prompt	n/a	species diesel ellen minute\n
40.8795	0.09	81759	keystroke_s	s	n/a
40.9995	0.105	81999	keystroke_p	p	n/a
41.0745	0.075	82149	keystroke_e	e	n/a
41.2995	0.09	82599	keystroke_c	c	n/a
41.4045	0.075	82809	keystroke_i	i	n/a
41.5395	0.135	83079	keystroke_e	e	n/a
41.7045	0.105	83409	keystroke_s	s	n/a
41.8545	0.15	83709	keystroke_Key.space	Key.space	n/a
42.4695	0.075	84939	keystroke_d	d	n/a
42.8445	0.09	85689	keystroke_i	i	n/a
43.6995	0.09	87399	keystroke_e	e	n/a
43.9095	0.105	87819	keystroke_s	s	n/a
44.1645	0.075	88329	keystroke_e	e	n/a
44.3445	0.135	88689	keystroke_l	l	n/a
44.4945	0.12	88989	keystroke_Key.space	Key.space	n/a
45.2745	0.015	90549	keystroke_e	e	n/a
45.3645	0.06	90729	keystroke_l	l	n/a
45.5145	0.135	91029	keystroke_l	l	n/a
45.6045	0.09	91209	keystroke_e	e	n/a
45.7395	0.136	91479	keystroke_n	n	n/a
45.8595	0.135	91719	keystroke_Key.space	Key.space	n/a
46.0245	0.12	92049	keystroke_m	m	n/a
46.1745	0.105	92349	keystroke_i	i	n/a
46.3095	0.12	92619	keystroke_n	n	n/a
46.6095	0.12	93219	keystroke_u	u	n/a
46.7745	0.12	93549	keystroke_t	t	n/a
46.8495	0.09	93699	keystroke_e	e	n/a
47.7795	0.105	95559	keystroke_Key.enter	Key.enter	n/a
47.8925	7.974	95785	prompt	n/a	presentations cave steps choices\n
48.649	0.09	97298	keystroke_p	p	n/a
48.814	0.12	97628	keystroke_r	r	n/a
48.919	0.09	97838	keystroke_e	e	n/a
49.114	0.105	98228	keystroke_s	s	n/a
49.474	0.105	98948	keystroke_e	e	n/a
49.654	0.135	99308	keystroke_n	n	n/a
49.759	0.075	99518	keystroke_t	t	n/a
49.939	0.165	99878	keystroke_a	a	n/a
50.209	0.075	100418	keystroke_t	t	n/a
50.689	0.165	101378	keystroke_i	i	n/a
50.824	0.18	101648	keystroke_o	o	n/a
50.959	0.18	101918	keystroke_n	n	n/a
51.094	0.075	102188	keystroke_s	s	n/a
51.214	0.15	102428	keystroke_Key.space	Key.space	n/a
52.084	0.075	104168	keystroke_c	c	n/a
52.234	0.135	104468	keystroke_a	a	n/a
52.385	0.134	104770	keystroke_v	v	n/a
52.474	0.105	104948	keystroke_e	e	n/a
52.609	0.165	105218	keystroke_Key.space	Key.space	n/a
52.789	0.105	105578	keystroke_s	s	n/a
52.879	0.15	105758	keystroke_t	t	n/a
52.999	0.09	105998	keystroke_e	e	n/a
53.134	0.121	106268	keystroke_p	p	n/a
53.269	0.09	106538	keystroke_s	s	n/a
53.374	0.135	106748	keystroke_Key.space	Key.space	n/a
54.154	0.105	108308	keystroke_c	c	n/a
54.229	0.195	108458	keystroke_h	h	n/a
54.364	0.18	108728	keystroke_o	o	n/a
54.469	0.135	108938	keystroke_i	i	n/a
54.574	0.09	109148	keystroke_c	c	n/a
54.799	0.18	109598	keystroke_e	e	n/a
54.919	0.105	109838	keystroke_s	s	n/a
55.714	0.15	111428	keystroke_Key.enter	Key.enter	n/a
55.8825	9.5095	111765	prompt	n/a	require furnishings dedicated legends\n
56.644	0.135	113288	keystroke_r	r	n/a
56.794	0.09	113588	keystroke_e	e	n/a
56.944	0.09	113888	keystroke_q	q	n/a
57.064	0.18	114128	keystroke_u	u	n/a
57.184	0.12	114368	keystroke_i	i	n/a
57.589	0.075	115178	keystroke_r	r	n/a
57.769	0.105	115538	keystroke_e	e	n/a
57.919	0.165	115838	keystroke_Key.space	Key.space	n/a
58.804	0.105	117608	keystroke_f	f	n/a
59.014	0.105	118028	keystroke_u	u	n/a
59.54	0.089	119080	keystroke_r	r	n/a
59.839	0.18	119678	keystroke_n	n	n/a
60.034	0.09	120068	keystroke_i	i	n/a
60.274	0.075	120548	keystroke_s	s	n/a
60.334	0.151	120668	keystroke_h	h	n/a
60.469	0.181	120938	keystroke_i	i	n/a
60.59	0.165	121180	keystroke_n	n	n/a
60.74	0.134	121480	keystroke_g	g	n/a
60.86	0.089	121720	keystroke_s	s	n/a
61.444	0.165	122888	keystroke_Key.space	Key.space	n/a
61.595	0.06	123190	keystroke_d	d	n/a
61.775	0.074	123550	keystroke_e	e	n/a
61.97	0.075	123940	keystroke_d	d	n/a
62.09	0.104	124180	keystroke_i	i	n/a
62.21	0.105	124420	keystroke_c	c	n/a
62.48	0.164	124960	keystroke_a	a	n/a
62.659	0.121	125318	keystroke_t	t	n/a
62.735	0.089	125470	keystroke_e	e	n/a
62.945	0.089	125890	keystroke_d	d	n/a
63.079	0.136	126158	keystroke_Key.space	Key.space	n/a
63.785	0.12	127570	keystroke_l	l	n/a
63.86	0.09	127720	keystroke_e	e	n/a
64.069	0.106	128138	keystroke_g	g	n/a
64.16	0.06	128320	keystroke_e	e	n/a
64.295	0.149	128590	keystroke_n	n	n/a
64.369	0.15	128738	keystroke_d	d	n/a
64.46	0.12	128920	keystroke_s	s	n/a
65.284	0.105	130568	keystroke_Key.enter	Key.enter	n/a
65.397	8.876	130794	prompt	n/a	seas involvement presentation gifts\n
65.99	0.075	131980	keystroke_s	s	n/a
66.139	0.15	132278	keystroke_e	e	n/a
66.275	0.164	132550	keystroke_a	a	n/a
66.35	0.164	132700	keystroke_s	s	n/a
66.529	0.15	133058	keystroke_Key.space	Key.space	n/a
66.919	0.166	133838	keystroke_i	i	n/a
67.039	0.18	134078	keystroke_n	n	n/a
67.505	0.12	135010	keystroke_v	v	n/a
67.699	0.091	135398	keystroke_o	o	n/a
67.97	0.09	135940	keystroke_l	l	n/a
68.285	0.12	136570	keystroke_v	v	n/a
68.57	0.075	137140	keystroke_e	e	n/a
68.795	0.15	137590	keystroke_m	m	n/a
68.915	0.105	137830	keystroke_e	e	n/a
69.065	0.15	138130	keystroke_n	n	n/a
69.2	0.105	138400	keystroke_t	t	n/a
69.485	0.134	138970	keystroke_Key.space	Key.space	n/a
70.25	0.12	140500	keystroke_p	p	n/a
70.385	0.135	140770	keystroke_r	r	n/a
70.46	0.12	140920	keystroke_e	e	n/a
70.625	0.105	141250	keystroke_s	s	n/a
70.835	0.09	141670	keystroke_e	e	n/a
71.015	0.15	142030	keystroke_n	n	n/a
71.12	0.09	142240	keystroke_t	t	n/a
71.315	0.15	142630	keystroke_a	a	n/a
71.405	0.105	142810	keystroke_t	t	n/a
71.48	0.12	142960	keystroke_i	i	n/a
71.57	0.18	143140	keystroke_o	o	n/a
71.69	0.195	143380	keystroke_n	n	n/a
71.794	0.18	143588	keystroke_Key.space	Key.space	n/a
72.395	0.075	144790	keystroke_g	g	n/a
72.5	0.105	145000	keystroke_i	i	n/a
72.62	0.075	145240	keystroke_f	f	n/a
72.86	0.15	145720	keystroke_t	t	n/a
72.935	0.105	145870	keystroke_s	s	n/a
74.18	0.09	148360	keystroke_Key.enter	Key.enter	n/a
74.2815	7.4595	148563	prompt	n/a	italy episode disorder euro\n
74.975	0.135	149950	keystroke_i	i	n/a
75.065	0.165	150130	keystroke_t	t	n/a
75.2	0.165	150400	keystroke_a	a	n/a
75.35	0.075	150700	keystroke_l	l	n/a
75.575	0.135	151150	keystroke_y	y	n/a
75.68	0.12	151360	keystroke_Key.space	Key.space	n/a
76.175	0.09	152350	keystroke_e	e	n/a
76.31	0.135	152620	keystroke_p	p	n/a
76.49	0.12	152980	keystroke_i	i	n/a
76.625	0.09	153250	keystroke_s	s	n/a
76.73	0.12	153460	keystroke_o	o	n/a
76.865	0.06	153730	keystroke_d	d	n/a
77.045	0.075	154090	keystroke_e	e	n/a
77.195	0.15	154390	keystroke_Key.space	Key.space	n/a
77.96	0.09	155920	keystroke_d	d	n/a
78.11	0.15	156220	keystroke_i	i	n/a
78.245	0.105	156490	keystroke_s	s	n/a
78.38	0.105	156760	keystroke_o	o	n/a
78.53	0.075	157060	keystroke_r	r	n/a
78.68	0.09	157360	keystroke_d	d	n/a
78.89	0.12	157780	keystroke_e	e	n/a
78.965	0.12	157930	keystroke_r	r	n/a
79.13	0.15	158260	keystroke_Key.space	Key.space	n/a
79.46	0.09	158920	keystroke_e	e	n/a
79.76	0.135	159520	keystroke_u	u	n/a
79.985	0.075	159970	keystroke_r	r	n/a
80.3	0.09	160600	keystroke_o	o	n/a
81.635	0.105	163270	keystroke_Key.enter	Key.enter	n/a
81.7455	9.641	163491	prompt	n/a	mini deutsch basic madness\n
82.46	0.12	164920	keystroke_m	m	n/a
82.625	0.09	165250	keystroke_i	i	n/a
82.7	0.195	165400	keystroke_n	n	n/a
82.826	0.129	165652	keystroke_i	i	n/a
83.105	0.135	166210	keystroke_Key.space	Key.space	n/a
83.75	0.075	167500	keystroke_d	d	n/a
84.02	0.06	168040	keystroke_e	e	n/a
84.485	0.135	168970	keystroke_u	u	n/a
84.77	0.075	169540	keystroke_t	t	n/a
85.13	0.12	170260	keystroke_s	s	n/a
85.805	0.105	171610	keystroke_c	c	n/a
85.955	0.105	171910	keystroke_h	h	n/a
86.495	0.135	172990	keystroke_Key.space	Key.space	n/a
86.855	0.09	173710	keystroke_b	b	n/a
87.095	0.06	174190	keystroke_a	a	n/a
87.11	0.105	174220	keystroke_s	s	n/a
87.26	0.135	174520	keystroke_i	i	n/a
87.41	0.105	174820	keystroke_c	c	n/a
87.755	0.015	175510	keystroke_Key.space	Key.space	n/a
88.055	0.12	176110	keystroke_m	m	n/a
88.22	0.075	176440	keystroke_a	a	n/a
88.7	0.09	177400	keystroke_d	d	n/a
88.85	0.195	177700	keystroke_n	n	n/a
89	0.09	178000	keystroke_e	e	n/a
89.24	0.09	178480	keystroke_s	s	n/a
89.39	0.09	178780	keystroke_s	s	n/a
91.235	0.15	182470	keystroke_Key.enter	Key.enter	n/a
91.392	11.5895	182784	prompt	n/a	pierre shopzilla commercial conducting\n
92.465	0.09	184930	keystroke_p	p	n/a
92.675	0.105	185350	keystroke_i	i	n/a
92.855	0.105	185710	keystroke_e	e	n/a
93.17	0.075	186340	keystroke_r	r	n/a
93.305	0.105	186610	keystroke_r	r	n/a
93.455	0.09	186910	keystroke_e	e	n/a
93.59	0.15	187180	keystroke_Key.space	Key.space	n/a
94.205	0.105	188410	keystroke_s	s	n/a
94.445	0.12	188890	keystroke_h	h	n/a
94.85	0.105	189700	keystroke_o	o	n/a
95.105	0.09	190210	keystroke_p	p	n/a
95.645	0.045	191290	keystroke_z	z	n/a
96.17	0.09	192340	keystroke_i	i	n/a
96.41	0.03	192820	keystroke_l	l	n/a
96.56	0.09	193120	keystroke_l	l	n/a
96.68	0.09	193360	keystroke_a	a	n/a
96.935	0.12	193870	keystroke_Key.space	Key.space	n/a
97.505	0.09	195010	keystroke_c	c	n/a
97.58	0.075	195160	keystroke_o	o	n/a
98.075	0.075	196150	keystroke_m	m	n/a
98.24	0.135	196480	keystroke_m	m	n/a
98.42	0.18	196840	keystroke_e	e	n/a
98.525	0.105	197050	keystroke_r	r	n/a
98.765	0.105	197530	keystroke_c	c	n/a
98.87	0.075	197740	keystroke_i	i	n/a
99.05	0.09	198100	keystroke_a	a	n/a
99.1995	0.1505	198399	keystroke_l	l	n/a
99.3195	0.12	198639	keystroke_Key.space	Key.space	n/a
100.3845	0.09	200769	keystroke_c	c	n/a
100.4595	0.12	200919	keystroke_o	o	n/a
100.5495	0.165	201099	keystroke_n	n	n/a
100.7595	0.075	201519	keystroke_d	d	n/a
100.8945	0.12	201789	keystroke_u	u	n/a
101.0595	0.09	202119	keystroke_c	c	n/a
101.285	0.1045	202570	keystroke_t	t	n/a
101.4045	0.15	202809	keystroke_i	i	n/a
101.4945	0.165	202989	keystroke_n	n	n/a
101.5995	0.075	203199	keystroke_g	g	n/a
102.8745	0.105	205749	keystroke_Key.enter	Key.enter	n/a
102.986	10.9895	205972	prompt	n/a	souls predictions barbados peace\n
103.7295	0.105	207459	keystroke_s	s	n/a
103.7895	0.135	207579	keystroke_o	o	n/a
103.9095	0.165	207819	keystroke_u	u	n/a
104.0445	0.135	208089	keystroke_l	l	n/a
104.1495	0.165	208299	keystroke_d	d	n/a
104.3445	0.135	208689	keystroke_s	s	n/a
104.3595	0.165	208719	keystroke_Key.space	Key.space	n/a
105.4545	0.09	210909	keystroke_Key.backspace	Key.backspace	n/a
105.6645	0.09	211329	keystroke_Key.backspace	Key.backspace	n/a
106.2945	0.105	212589	keystroke_Key.backspace	Key.backspace	n/a
106.5945	0.09	213189	keystroke_s	s	n/a
106.8495	0.135	213699	keystroke_Key.space	Key.space	n/a
107.2695	0.105	214539	keystroke_p	p	n/a
107.4495	0.135	214899	keystroke_r	r	n/a
107.5695	0.09	215139	keystroke_e	e	n/a
107.7945	0.09	215589	keystroke_d	d	n/a
107.9595	0.075	215919	keystroke_i	i	n/a
108.0495	0.075	216099	keystroke_c	c	n/a
108.2145	0.12	216429	keystroke_t	t	n/a
108.3195	0.09	216639	keystroke_i	i	n/a
108.3645	0.21	216729	keystroke_o	o	n/a
108.5145	0.195	217029	keystroke_n	n	n/a
108.6345	0.09	217269	keystroke_s	s	n/a
108.9645	0.15	217929	keystroke_Key.space	Key.space	n/a
109.6545	0.12	219309	keystroke_b	b	n/a
109.9095	0.15	219819	keystroke_a	a	n/a
110.0145	0.105	220029	keystroke_r	r	n/a
110.2845	0.15	220569	keystroke_b	b	n/a
110.5095	0.09	221019	keystroke_a	a	n/a
110.7195	0.09	221439	keystroke_d	d	n/a
110.8695	0.09	221739	keystroke_o	o	n/a
111.004	0.09	222008	keystroke_s	s	n/a
111.799	0.15	223598	keystroke_Key.space	Key.space	n/a
111.994	0.105	223988	keystroke_p	p	n/a
112.069	0.15	224138	keystroke_e	e	n/a
112.204	0.105	224408	keystroke_a	a	n/a
112.384	0.105	224768	keystroke_c	c	n/a
112.609	0.09	225218	keystroke_e	e	n/a
113.869	0.105	227738	keystroke_Key.enter	Key.enter	n/a
113.9805	8.41	227961	prompt	n/a	blair waterproof meets voip\n
114.709	0.105	229418	keystroke_b	b	n/a
114.784	0.105	229568	keystroke_l	l	n/a
114.934	0.09	229868	keystroke_a	a	n/a
115.039	0.09	230078	keystroke_i	i	n/a
115.204	0.075	230408	keystroke_r	r	n/a
115.354	0.135	230708	keystroke_Key.space	Key.space	n/a
116.374	0.135	232748	keystroke_w	w	n/a
116.629	0.195	233258	keystroke_a	a	n/a
116.794	0.12	233588	keystroke_t	t	n/a
116.959	0.135	233918	keystroke_e	e	n/a
117.079	0.105	234158	keystroke_r	r	n/a
117.259	0.105	234518	keystroke_p	p	n/a
117.409	0.09	234818	keystroke_r	r	n/a
117.544	0.075	235088	keystroke_o	o	n/a
117.724	0.09	235448	keystroke_o	o	n/a
117.949	0.09	235898	keystroke_f	f	n/a
118.714	0.135	237428	keystroke_Key.space	Key.space	n/a
118.939	0.15	237878	keystroke_m	m	n/a
119.029	0.09	238058	keystroke_e	e	n/a
119.224	0.165	238448	keystroke_e	e	n/a
119.404	0.195	238808	keystroke_t	t	n/a
119.554	0.12	239108	keystroke_s	s	n/a
119.689	0.135	239378	keystroke_Key.space	Key.space	n/a
119.929	0.105	239858	keystroke_v	v	n/a
120.394	0.15	240788	keystroke_o	o	n/a
120.754	0.06	241508	keystroke_i	i	n/a
121.249	0.12	242498	keystroke_p	p	n/a
122.299	0.09	244598	keystroke_Key.enter	Key.enter	n/a
122.396	8.025	244792	prompt	n/a	commentary brothers specialty forget\n
123.229	0.12	246458	keystroke_c	c	n/a
123.364	0.075	246728	keystroke_o	o	n/a
123.559	0.075	247118	keystroke_m	m	n/a
123.739	0.09	247478	keystroke_m	m	n/a
123.844	0.09	247688	keystroke_e	e	n/a
123.979	0.15	247958	keystroke_n	n	n/a
124.099	0.091	248198	keystroke_t	t	n/a
124.279	0.18	248558	keystroke_a	a	n/a
124.384	0.12	248768	keystroke_r	r	n/a
124.519	0.135	249038	keystroke_y	y	n/a
124.594	0.165	249188	keystroke_Key.space	Key.space	n/a
124.894	0.075	249788	keystroke_b	b	n/a
125.119	0.075	250238	keystroke_r	r	n/a
125.224	0.105	250448	keystroke_o	o	n/a
125.314	0.105	250628	keystroke_t	t	n/a
125.449	0.135	250898	keystroke_h	h	n/a
125.494	0.135	250988	keystroke_e	e	n/a
125.569	0.195	251138	keystroke_r	r	n/a
125.704	0.12	251408	keystroke_s	s	n/a
125.825	0.134	251650	keystroke_Key.space	Key.space	n/a
126.395	0.104	252790	keystroke_s	s	n/a
126.514	0.12	253028	keystroke_p	p	n/a
126.619	0.06	253238	keystroke_e	e	n/a
126.829	0.105	253658	keystroke_c	c	n/a
126.919	0.09	253838	keystroke_i	i	n/a
127.114	0.075	254228	keystroke_a	a	n/a
127.234	0.105	254468	keystroke_l	l	n/a
127.489	0.075	254978	keystroke_t	t	n/a
127.729	0.135	255458	keystroke_y	y	n/a
127.819	0.135	255638	keystroke_Key.space	Key.space	n/a
128.554	0.09	257108	keystroke_f	f	n/a
128.659	0.075	257318	keystroke_o	o	n/a
128.764	0.075	257528	keystroke_r	r	n/a
128.989	0.075	257978	keystroke_g	g	n/a
129.109	0.135	258218	keystroke_e	e	n/a
129.199	0.105	258398	keystroke_t	t	n/a
130.309	0.105	260618	keystroke_Key.enter	Key.enter	n/a
130.421	7.6445	260842	prompt	n/a	distributors ma'am only paintings\n
131.089	0.105	262178	keystroke_d	d	n/a
131.269	0.09	262538	keystroke_i	i	n/a
131.434	0.135	262868	keystroke_s	s	n/a
131.689	0.06	263378	keystroke_t	t	n/a
131.884	0.091	263768	keystroke_r	r	n/a
132.004	0.075	264008	keystroke_i	i	n/a
132.289	0.12	264578	keystroke_b	b	n/a
132.439	0.135	264878	keystroke_u	u	n/a
132.619	0.075	265238	keystroke_t	t	n/a
132.739	0.09	265478	keystroke_o	o	n/a
132.844	0.105	265688	keystroke_r	r	n/a
133.039	0.09	266078	keystroke_s	s	n/a
133.639	0.135	267278	keystroke_Key.space	Key.space	n/a
133.924	0.105	267848	keystroke_m	m	n/a
134.014	0.12	268028	keystroke_a	a	n/a
134.284	0.12	268568	keystroke_'	'	n/a
134.524	0.09	269048	keystroke_a	a	n/a
134.599	0.15	269198	keystroke_m	m	n/a
135.349	0.12	270698	keystroke_Key.space	Key.space	n/a
135.574	0.075	271148	keystroke_o	o	n/a
135.664	0.135	271328	keystroke_n	n	n/a
135.844	0.165	271688	keystroke_l	l	n/a
135.949	0.15	271898	keystroke_y	y	n/a
136.054	0.15	272108	keystroke_Key.space	Key.space	n/a
136.189	0.135	272378	keystroke_p	p	n/a
136.309	0.15	272618	keystroke_a	a	n/a
136.474	0.135	272948	keystroke_i	i	n/a
136.564	0.15	273128	keystroke_n	n	n/a
136.745	0.074	273490	keystroke_t	t	n/a
136.834	0.166	273668	keystroke_i	i	n/a
136.924	0.18	273848	keystroke_n	n	n/a
137.029	0.135	274058	keystroke_g	g	n/a
137.119	0.12	274238	keystroke_s	s	n/a
137.974	0.09	275948	keystroke_Key.enter	Key.enter	n/a
138.0705	8.321	276141	prompt	n/a	byte senegal ontario forests\n
138.874	0.105	277748	keystroke_b	b	n/a
139.025	0.104	278050	keystroke_y	y	n/a
139.174	0.12	278348	keystroke_t	t	n/a
139.264	0.106	278528	keystroke_e	e	n/a
139.384	0.15	278768	keystroke_Key.space	Key.space	n/a
139.55	0.104	279100	keystroke_s	s	n/a
139.804	0.06	279608	keystroke_e	e	n/a
140.089	0.015	280178	keystroke_n	n	n/a
140.614	0.075	281228	keystroke_e	e	n/a
140.869	0.09	281738	keystroke_g	g	n/a
141.034	0.0895	282068	keystroke_a	a	n/a
141.1545	0.104	282309	keystroke_l	l	n/a
141.9935	0.15	283987	keystroke_Key.space	Key.space	n/a
142.2945	0.089	284589	keystroke_o	o	n/a
142.5635	0.12	285127	keystroke_n	n	n/a
142.8035	0.105	285607	keystroke_t	t	n/a
143.0745	0.179	286149	keystroke_a	a	n/a
143.2245	0.12	286449	keystroke_r	r	n/a
143.3595	0.194	286719	keystroke_i	i	n/a
143.4945	0.105	286989	keystroke_o	o	n/a
143.9435	0.135	287887	keystroke_Key.space	Key.space	n/a
144.1085	0.075	288217	keystroke_f	f	n/a
144.2285	0.091	288457	keystroke_o	o	n/a
144.3335	0.12	288667	keystroke_r	r	n/a
144.4835	0.12	288967	keystroke_e	e	n/a
144.7245	0.135	289449	keystroke_s	s	n/a
144.8745	0.164	289749	keystroke_t	t	n/a
145.0085	0.12	290017	keystroke_s	s	n/a
146.2535	0.135	292507	keystroke_Key.enter	Key.enter	n/a
146.397	8.2885	292794	prompt	n/a	holland prevention colon resorts\n
147.3335	0.12	294667	keystroke_h	h	n/a
147.4835	0.076	294967	keystroke_o	o	n/a
147.6635	0.076	295327	keystroke_l	l	n/a
147.8295	0.104	295659	keystroke_l	l	n/a
147.9195	0.09	295839	keystroke_a	a	n/a
148.0385	0.12	296077	keystroke_n	n	n/a
148.1285	0.091	296257	keystroke_d	d	n/a
148.2635	0.165	296527	keystroke_Key.space	Key.space	n/a
148.7595	0.09	297519	keystroke_p	p	n/a
149.1195	0.105	298239	keystroke_r	r	n/a
149.3745	0.105	298749	keystroke_e	e	n/a
149.6445	0.119	299289	keystroke_v	v	n/a
149.8095	0.105	299619	keystroke_e	e	n/a
150.0495	0.12	300099	keystroke_n	n	n/a
150.1845	0.075	300369	keystroke_t	t	n/a
150.3795	0.165	300759	keystroke_i	i	n/a
150.4995	0.195	300999	keystroke_o	o	n/a
150.6495	0.179	301299	keystroke_n	n	n/a
150.8885	0.15	301777	keystroke_Key.space	Key.space	n/a
151.4745	0.12	302949	keystroke_c	c	n/a
151.6095	0.075	303219	keystroke_o	o	n/a
151.8045	0.105	303609	keystroke_l	l	n/a
152.0595	0.165	304119	keystroke_o	o	n/a
152.1645	0.18	304329	keystroke_n	n	n/a
152.2835	0.15	304567	keystroke_Key.space	Key.space	n/a
152.6595	0.165	305319	keystroke_r	r	n/a
152.8095	0.105	305619	keystroke_e	e	n/a
153.0645	0.12	306129	keystroke_s	s	n/a
153.2295	0.105	306459	keystroke_o	o	n/a
153.4695	0.075	306939	keystroke_r	r	n/a
153.6795	0.15	307359	keystroke_t	t	n/a
153.7995	0.119	307599	keystroke_s	s	n/a
154.5645	0.119	309129	keystroke_Key.enter	Key.enter	n/a
154.6905	8.7405	309381	prompt	n/a	consoles preference exchanges reserves\n
155.4195	0.105	310839	keystroke_c	c	n/a
155.5845	0.15	311169	keystroke_o	o	n/a
155.6595	0.165	311319	keystroke_n	n	n/a
155.8095	0.105	311619	keystroke_s	s	n/a
155.9145	0.09	311829	keystroke_o	o	n/a
156.1245	0.105	312249	keystroke_l	l	n/a
156.2145	0.21	312429	keystroke_e	e	n/a
156.3495	0.105	312699	keystroke_s	s	n/a
156.4685	0.121	312937	keystroke_Key.space	Key.space	n/a
156.9345	0.105	313869	keystroke_p	p	n/a
157.2195	0.105	314439	keystroke_r	r	n/a
157.3995	0.12	314799	keystroke_e	e	n/a
157.7295	0.135	315459	keystroke_f	f	n/a
157.9995	0.12	315999	keystroke_e	e	n/a
158.1795	0.105	316359	keystroke_r	r	n/a
158.2545	0.12	316509	keystroke_e	e	n/a
158.4495	0.105	316899	keystroke_n	n	n/a
158.5845	0.105	317169	keystroke_c	c	n/a
158.8395	0.09	317679	keystroke_e	e	n/a
159.0495	0.165	318099	keystroke_Key.space	Key.space	n/a
159.2895	0.09	318579	keystroke_e	e	n/a
159.5295	0.09	319059	keystroke_x	x	n/a
159.7395	0.12	319479	keystroke_c	c	n/a
159.8745	0.105	319749	keystroke_h	h	n/a
160.0245	0.105	320049	keystroke_a	a	n/a
160.0995	0.165	320199	keystroke_n	n	n/a
160.2795	0.195	320559	keystroke_g	g	n/a
160.3245	0.225	320649	keystroke_e	e	n/a
160.4595	0.135	320919	keystroke_s	s	n/a
161.1045	0.135	322209	keystroke_Key.space	Key.space	n/a
161.3895	0.12	322779	keystroke_r	r	n/a
161.4945	0.135	322989	keystroke_e	e	n/a
161.6445	0.09	323289	keystroke_s	s	n/a
161.7945	0.15	323589	keystroke_e	e	n/a
161.8995	0.105	323799	keystroke_r	r	n/a
162.1395	0.12	324279	keystroke_v	v	n/a
162.3495	0.15	324699	keystroke_e	e	n/a
162.4695	0.12	324939	keystroke_s	s	n/a
163.2945	0.135	326589	keystroke_Key.enter	Key.enter	n/a
163.4355	11.005	326871	prompt	n/a	intel vulnerable responses barn\n
164.1795	0.135	328359	keystroke_i	i	n/a
164.2545	0.135	328509	keystroke_n	n	n/a
164.3595	0.12	328719	keystroke_t	t	n/a
164.4495	0.105	328899	keystroke_e	e	n/a
164.5845	0.135	329169	keystroke_l	l	n/a
164.7045	0.15	329409	keystroke_Key.space	Key.space	n/a
165.0495	0.09	330099	keystroke_v	v	n/a
165.2445	0.105	330489	keystroke_a	a	n/a
166.2495	0.06	332499	keystroke_Key.backspace	Key.backspace	n/a
166.6845	0.09	333369	keystroke_u	u	n/a
166.8945	0.075	333789	keystroke_l	l	n/a
167.1345	0.12	334269	keystroke_n	n	n/a
167.2695	0.12	334539	keystroke_e	e	n/a
167.3445	0.12	334689	keystroke_r	r	n/a
167.5395	0.09	335079	keystroke_a	a	n/a
167.7345	0.09	335469	keystroke_b	b	n/a
167.8245	0.09	335649	keystroke_l	l	n/a
167.9445	0.09	335889	keystroke_e	e	n/a
168.0645	0.165	336129	keystroke_Key.space	Key.space	n/a
168.7395	0.135	337479	keystroke_r	r	n/a
168.8145	0.165	337629	keystroke_e	e	n/a
168.9495	0.135	337899	keystroke_s	s	n/a
169.0995	0.075	338199	keystroke_p	p	n/a
169.2945	0.15	338589	keystroke_o	o	n/a
169.4145	0.165	338829	keystroke_n	n	n/a
169.5195	0.09	339039	keystroke_s	s	n/a
169.6245	0.195	339249	keystroke_e	e	n/a
169.7595	0.12	339519	keystroke_s	s	n/a
170.2845	0.165	340569	keystroke_Key.space	Key.space	n/a
171.4995	0.09	342999	keystroke_Key.backspace	Key.backspace	n/a
172.4295	0.135	344859	keystroke_Key.space	Key.space	n/a
172.5795	0.105	345159	keystroke_b	b	n/a
172.804	0.15	345608	keystroke_a	a	n/a
172.879	0.105	345758	keystroke_r	r	n/a
172.939	0.135	345878	keystroke_n	n	n/a
174.304	0.135	348608	keystroke_Key.enter	Key.enter	n/a
174.445	9.4905	348890	prompt	n/a	harris weapon establishment dynamic\n
175.369	0.105	350738	keystroke_h	h	n/a
175.519	0.12	351038	keystroke_a	a	n/a
175.579	0.09	351158	keystroke_r	r	n/a
175.744	0.105	351488	keystroke_r	r	n/a
175.864	0.06	351728	keystroke_i	i	n/a
175.954	0.105	351908	keystroke_s	s	n/a
176.089	0.165	352178	keystroke_Key.space	Key.space	n/a
176.389	0.105	352778	keystroke_w	w	n/a
176.584	0.18	353168	keystroke_e	e	n/a
176.734	0.18	353468	keystroke_a	a	n/a
176.929	0.12	353858	keystroke_p	p	n/a
177.214	0.15	354428	keystroke_o	o	n/a
177.304	0.21	354608	keystroke_n	n	n/a
177.439	0.15	354878	keystroke_Key.space	Key.space	n/a
178.669	0.075	357338	keystroke_e	e	n/a
178.894	0.105	357788	keystroke_s	s	n/a
179.044	0.105	358088	keystroke_t	t	n/a
179.374	0.09	358748	keystroke_b	b	n/a
179.779	0.09	359558	keystroke_Key.backspace	Key.backspace	n/a
179.854	0.12	359708	keystroke_a	a	n/a
180.094	0.105	360188	keystroke_b	b	n/a
180.229	0.18	360458	keystroke_l	l	n/a
180.349	0.15	360698	keystroke_i	i	n/a
180.499	0.12	360998	keystroke_s	s	n/a
180.604	0.09	361208	keystroke_h	h	n/a
180.829	0.09	361658	keystroke_m	m	n/a
180.904	0.075	361808	keystroke_e	e	n/a
181.024	0.12	362048	keystroke_n	n	n/a
181.129	0.09	362258	keystroke_t	t	n/a
181.249	0.165	362498	keystroke_Key.space	Key.space	n/a
181.924	0.075	363848	keystroke_d	d	n/a
182.089	0.09	364178	keystroke_y	y	n/a
182.374	0.105	364748	keystroke_n	n	n/a
182.554	0.09	365108	keystroke_a	a	n/a
182.614	0.12	365228	keystroke_m	m	n/a
182.809	0.12	365618	keystroke_i	i	n/a
182.884	0.12	365768	keystroke_c	c	n/a
183.829	0.105	367658	keystroke_Key.enter	Key.enter	n/a
183.946	8.5995	367892	prompt	n/a	cluster kidney banking guess\n
184.924	0.09	369848	keystroke_c	c	n/a
185.419	0.105	370838	keystroke_l	l	n/a
185.644	0.135	371288	keystroke_u	u	n/a
185.884	0.105	371768	keystroke_s	s	n/a
186.079	0.075	372158	keystroke_t	t	n/a
186.214	0.18	372428	keystroke_e	e	n/a
186.334	0.12	372668	keystroke_r	r	n/a
186.469	0.135	372938	keystroke_Key.space	Key.space	n/a
186.799	0.06	373598	keystroke_k	k	n/a
186.994	0.075	373988	keystroke_i	i	n/a
187.354	0.135	374708	keystroke_d	d	n/a
187.549	0.165	375098	keystroke_n	n	n/a
187.759	0.105	375518	keystroke_e	e	n/a
188.134	0.135	376268	keystroke_y	y	n/a
188.734	0.12	377468	keystroke_Key.space	Key.space	n/a
189.199	0.09	378398	keystroke_b	b	n/a
189.349	0.15	378698	keystroke_a	a	n/a
189.469	0.105	378938	keystroke_n	n	n/a
189.799	0.09	379598	keystroke_k	k	n/a
190.069	0.135	380138	keystroke_i	i	n/a
190.144	0.195	380288	keystroke_n	n	n/a
190.264	0.09	380528	keystroke_g	g	n/a
190.399	0.165	380798	keystroke_Key.space	Key.space	n/a
191.029	0.075	382058	keystroke_g	g	n/a
191.494	0.15	382988	keystroke_u	u	n/a
191.689	0.09	383378	keystroke_e	e	n/a
191.914	0.075	383828	keystroke_s	s	n/a
192.064	0.105	384128	keystroke_s	s	n/a
192.424	0.12	384848	keystroke_Key.enter	Key.enter	n/a
192.5505	9.025	385101	prompt	n/a	schemes observer biology quantum\n
193.339	0.09	386678	keystroke_s	s	n/a
193.549	0.105	387098	keystroke_c	c	n/a
193.699	0.09	387398	keystroke_h	h	n/a
193.819	0.075	387638	keystroke_e	e	n/a
193.969	0.135	387938	keystroke_m	m	n/a
194.059	0.075	388118	keystroke_e	e	n/a
194.239	0.12	388478	keystroke_s	s	n/a
194.374	0.15	388748	keystroke_Key.space	Key.space	n/a
195.079	0.09	390158	keystroke_o	o	n/a
195.364	0.105	390728	keystroke_b	b	n/a
195.589	0.09	391178	keystroke_s	s	n/a
195.799	0.15	391598	keystroke_e	e	n/a
195.919	0.075	391838	keystroke_r	r	n/a
196.144	0.105	392288	keystroke_v	v	n/a
196.324	0.135	392648	keystroke_e	e	n/a
196.414	0.105	392828	keystroke_r	r	n/a
197.044	0.135	394088	keystroke_Key.space	Key.space	n/a
197.209	0.12	394418	keystroke_b	b	n/a
197.494	0.135	394988	keystroke_i	i	n/a
198.004	0.09	396008	keystroke_o	o	n/a
198.214	0.09	396428	keystroke_l	l	n/a
198.409	0.09	396818	keystroke_o	o	n/a
198.514	0.09	397028	keystroke_g	g	n/a
198.694	0.12	397388	keystroke_y	y	n/a
198.979	0.15	397958	keystroke_Key.space	Key.space	n/a
199.579	0.09	399158	keystroke_q	q	n/a
199.669	0.09	399338	keystroke_u	u	n/a
199.819	0.135	399638	keystroke_a	a	n/a
199.909	0.135	399818	keystroke_n	n	n/a
200.089	0.0895	400178	keystroke_t	t	n/a
200.2535	0.105	400507	keystroke_u	u	n/a
200.5085	0.15	401017	keystroke_m	m	n/a
201.4535	0.12	402907	keystroke_Key.enter	Key.enter	n/a
201.58	8.5155	403160	prompt	n/a	where collectibles hourly bedford\n
202.4135	0.09	404827	keystroke_w	w	n/a
202.5335	0.12	405067	keystroke_h	h	n/a
202.6085	0.105	405217	keystroke_e	e	n/a
202.7285	0.165	405457	keystroke_r	r	n/a
202.8035	0.12	405607	keystroke_e	e	n/a
202.9085	0.15	405817	keystroke_Key.space	Key.space	n/a
203.2085	0.12	406417	keystroke_c	c	n/a
203.4035	0.075	406807	keystroke_o	o	n/a
203.6135	0.045	407227	keystroke_l	l	n/a
203.7635	0.105	407527	keystroke_l	l	n/a
203.8835	0.06	407767	keystroke_e	e	n/a
204.1085	0.09	408217	keystroke_c	c	n/a
204.6635	0.135	409327	keystroke_t	t	n/a
205.2635	0.09	410527	keystroke_i	i	n/a
205.4285	0.15	410857	keystroke_b	b	n/a
205.6235	0.105	411247	keystroke_l	l	n/a
205.7585	0.135	411517	keystroke_e	e	n/a
205.8485	0.15	411697	keystroke_s	s	n/a
206.2235	0.135	412447	keystroke_Key.space	Key.space	n/a
206.7335	0.09	413467	keystroke_h	h	n/a
206.8685	0.135	413737	keystroke_o	o	n/a
206.9735	0.12	413947	keystroke_u	u	n/a
207.0635	0.105	414127	keystroke_r	r	n/a
207.2435	0.21	414487	keystroke_l	l	n/a
207.3785	0.135	414757	keystroke_y	y	n/a
207.4685	0.105	414937	keystroke_Key.space	Key.space	n/a
207.7235	0.075	415447	keystroke_b	b	n/a
207.9035	0.045	415807	keystroke_e	e	n/a
208.1285	0.06	416257	keystroke_d	d	n/a
208.7585	0.075	417517	keystroke_f	f	n/a
208.8785	0.12	417757	keystroke_o	o	n/a
208.9835	0.09	417967	keystroke_r	r	n/a
209.1785	0.09	418357	keystroke_d	d	n/a
209.9885	0.105	419977	keystroke_Key.enter	Key.enter	n/a
210.0995	7.7215	420199	prompt	n/a	appear consistent legend jesus\n
210.9335	0.105	421867	keystroke_a	a	n/a
211.2335	0.12	422467	keystroke_p	p	n/a
211.4585	0.12	422917	keystroke_p	p	n/a
211.7285	0.12	423457	keystroke_e	e	n/a
211.9535	0.165	423907	keystroke_a	a	n/a
212.0885	0.105	424177	keystroke_r	r	n/a
212.2085	0.165	424417	keystroke_Key.space	Key.space	n/a
212.4635	0.09	424927	keystroke_c	c	n/a
212.5385	0.135	425077	keystroke_o	o	n/a
212.6285	0.135	425257	keystroke_n	n	n/a
212.7485	0.105	425497	keystroke_s	s	n/a
212.8685	0.105	425737	keystroke_i	i	n/a
212.9745	0.104	425949	keystroke_s	s	n/a
213.1535	0.105	426307	keystroke_t	t	n/a
213.2735	0.105	426547	keystroke_e	e	n/a
213.4235	0.12	426847	keystroke_n	n	n/a
213.6935	0.06	427387	keystroke_t	t	n/a
213.8135	0.135	427627	keystroke_Key.space	Key.space	n/a
214.6085	0.105	429217	keystroke_l	l	n/a
214.7145	0.089	429429	keystroke_e	e	n/a
214.9085	0.105	429817	keystroke_g	g	n/a
215.0285	0.09	430057	keystroke_e	e	n/a
215.1785	0.12	430357	keystroke_n	n	n/a
215.3435	0.075	430687	keystroke_d	d	n/a
215.4485	0.135	430897	keystroke_Key.space	Key.space	n/a
215.9885	0.135	431977	keystroke_j	j	n/a
216.1085	0.06	432217	keystroke_e	e	n/a
216.2895	0.075	432579	keystroke_s	s	n/a
216.3935	0.12	432787	keystroke_u	u	n/a
216.4835	0.075	432967	keystroke_s	s	n/a
217.7135	0.105	435427	keystroke_Key.enter	Key.enter	n/a
217.826	7.0445	435652	prompt	n/a	signs create apart cheque\n
218.8395	0.075	437679	keystroke_s	s	n/a
218.9285	0.075	437857	keystroke_i	i	n/a
219.0185	0.09	438037	keystroke_g	g	n/a
219.1235	0.15	438247	keystroke_n	n	n/a
219.2135	0.105	438427	keystroke_s	s	n/a
219.3035	0.15	438607	keystroke_Key.space	Key.space	n/a
219.5135	0.09	439027	keystroke_c	c	n/a
219.7235	0.135	439447	keystroke_r	r	n/a
219.8135	0.12	439627	keystroke_e	e	n/a
219.9035	0.165	439807	keystroke_a	a	n/a
219.9935	0.121	439987	keystroke_t	t	n/a
220.0535	0.12	440107	keystroke_e	e	n/a
220.1885	0.135	440377	keystroke_Key.space	Key.space	n/a
220.8935	0.09	441787	keystroke_a	a	n/a
221.0435	0.105	442087	keystroke_p	p	n/a
221.1185	0.15	442237	keystroke_a	a	n/a
221.2395	0.074	442479	keystroke_r	r	n/a
221.4335	0.06	442867	keystroke_t	t	n/a
221.5235	0.12	443047	keystroke_Key.space	Key.space	n/a
221.8085	0.105	443617	keystroke_c	c	n/a
221.9735	0.12	443947	keystroke_h	h	n/a
222.8435	0.105	445687	keystroke_e	e	n/a
223.3535	0.09	446707	keystroke_q	q	n/a
223.6395	0.134	447279	keystroke_u	u	n/a
223.8185	0.09	447637	keystroke_e	e	n/a
224.7485	0.12	449497	keystroke_Key.enter	Key.enter	n/a
224.875	6.761	449750	prompt	n/a	use clearing foundation regarded\n
225.8145	0.119	451629	keystroke_u	u	n/a
225.8895	0.06	451779	keystroke_s	s	n/a
226.0685	0.06	452137	keystroke_e	e	n/a
226.1435	0.12	452287	keystroke_Key.space	Key.space	n/a
226.2785	0.075	452557	keystroke_c	c	n/a
226.3685	0.105	452737	keystroke_l	l	n/a
226.4885	0.195	452977	keystroke_e	e	n/a
226.6235	0.12	453247	keystroke_a	a	n/a
226.6685	0.121	453337	keystroke_r	r	n/a
226.8035	0.15	453607	keystroke_i	i	n/a
226.8935	0.255	453787	keystroke_n	n	n/a
226.9985	0.091	453997	keystroke_g	g	n/a
227.1035	0.165	454207	keystroke_Key.space	Key.space	n/a
227.3135	0.105	454627	keystroke_f	f	n/a
227.4485	0.165	454897	keystroke_o	o	n/a
227.5835	0.106	455167	keystroke_u	u	n/a
227.8245	0.119	455649	keystroke_n	n	n/a
227.9135	0.091	455827	keystroke_d	d	n/a
228.0935	0.165	456187	keystroke_a	a	n/a
228.1835	0.12	456367	keystroke_t	t	n/a
228.3045	0.15	456609	keystroke_i	i	n/a
228.4085	0.195	456817	keystroke_o	o	n/a
228.5285	0.195	457057	keystroke_n	n	n/a
228.6485	0.165	457297	keystroke_Key.space	Key.space	n/a
229.4895	0.029	458979	keystroke_r	r	n/a
229.5035	0.076	459007	keystroke_e	e	n/a
229.6995	0.104	459399	keystroke_g	g	n/a
229.8485	0.241	459697	keystroke_a	a	n/a
229.9535	0.225	459907	keystroke_r	r	n/a
230.0735	0.165	460147	keystroke_d	d	n/a
230.3745	0.075	460749	keystroke_e	e	n/a
230.5685	0.09	461137	keystroke_d	d	n/a
231.5435	0.09	463087	keystroke_Key.enter	Key.enter	n/a
231.641	11.934	463282	prompt	n/a	separated awesome patch parliamentary\n
232.5345	0.105	465069	keystroke_s	s	n/a
232.8185	0.076	465637	keystroke_e	e	n/a
233.0595	0.134	466119	keystroke_p	p	n/a
233.5085	0.121	467017	keystroke_a	a	n/a
233.7195	0.135	467439	keystroke_r	r	n/a
233.8995	0.179	467799	keystroke_a	a	n/a
234.0645	0.15	468129	keystroke_t	t	n/a
234.1995	0.09	468399	keystroke_e	e	n/a
234.4535	0.106	468907	keystroke_d	d	n/a
234.5735	0.165	469147	keystroke_Key.space	Key.space	n/a
235.324	0.105	470648	keystroke_a	a	n/a
235.578	0.136	471156	keystroke_w	w	n/a
235.909	0.105	471818	keystroke_e	e	n/a
236.239	0.105	472478	keystroke_s	s	n/a
236.404	0.165	472808	keystroke_o	o	n/a
236.524	0.195	473048	keystroke_m	m	n/a
236.644	0.105	473288	keystroke_e	e	n/a
237.228	0.165	474456	keystroke_Key.space	Key.space	n/a
237.544	0.12	475088	keystroke_p	p	n/a
237.649	0.165	475298	keystroke_a	a	n/a
237.784	0.105	475568	keystroke_t	t	n/a
238.039	0.105	476078	keystroke_c	c	n/a
238.129	0.165	476258	keystroke_h	h	n/a
238.248	0.091	476496	keystroke_Key.space	Key.space	n/a
239.104	0.12	478208	keystroke_p	p	n/a
239.404	0.21	478808	keystroke_a	a	n/a
239.599	0.105	479198	keystroke_r	r	n/a
239.869	0.105	479738	keystroke_l	l	n/a
240.124	0.075	480248	keystroke_i	i	n/a
240.364	0.105	480728	keystroke_a	a	n/a
241.294	0.135	482588	keystroke_m	m	n/a
241.474	0.09	482948	keystroke_e	e	n/a
241.609	0.135	483218	keystroke_n	n	n/a
241.714	0.09	483428	keystroke_t	t	n/a
241.924	0.165	483848	keystroke_a	a	n/a
242.014	0.12	484028	keystroke_r	r	n/a
242.149	0.09	484298	keystroke_y	y	n/a
243.439	0.134	486878	keystroke_Key.enter	Key.enter	n/a
243.582	9.323	487164	prompt	n/a	compensation tight resolution reaction\n
244.474	0.105	488948	keystroke_c	c	n/a
244.639	0.12	489278	keystroke_o	o	n/a
244.774	0.195	489548	keystroke_m	m	n/a
244.909	0.135	489818	keystroke_p	p	n/a
245.104	0.09	490208	keystroke_e	e	n/a
245.269	0.12	490538	keystroke_n	n	n/a
245.404	0.09	490808	keystroke_s	s	n/a
245.629	0.15	491258	keystroke_a	a	n/a
245.704	0.135	491408	keystroke_t	t	n/a
245.854	0.135	491708	keystroke_i	i	n/a
245.944	0.195	491888	keystroke_o	o	n/a
246.079	0.195	492158	keystroke_n	n	n/a
246.184	0.165	492368	keystroke_Key.space	Key.space	n/a
247.099	0.06	494198	keystroke_t	t	n/a
247.249	0.075	494498	keystroke_i	i	n/a
247.309	0.09	494618	keystroke_g	g	n/a
247.429	0.135	494858	keystroke_h	h	n/a
247.534	0.075	495068	keystroke_t	t	n/a
247.669	0.12	495338	keystroke_Key.space	Key.space	n/a
248.059	0.09	496118	keystroke_r	r	n/a
248.224	0.06	496448	keystroke_e	e	n/a
248.404	0.12	496808	keystroke_s	s	n/a
248.779	0.09	497558	keystroke_o	o	n/a
249.094	0.105	498188	keystroke_l	l	n/a
249.319	0.12	498638	keystroke_u	u	n/a
249.469	0.075	498938	keystroke_t	t	n/a
249.589	0.15	499178	keystroke_i	i	n/a
249.709	0.195	499418	keystroke_o	o	n/a
249.844	0.21	499688	keystroke_n	n	n/a
250.579	0.165	501158	keystroke_Key.space	Key.space	n/a
250.789	0.21	501578	keystroke_r	r	n/a
250.924	0.12	501848	keystroke_e	e	n/a
251.014	0.12	502028	keystroke_a	a	n/a
251.209	0.105	502418	keystroke_c	c	n/a
251.434	0.105	502868	keystroke_t	t	n/a
251.554	0.135	503108	keystroke_i	i	n/a
251.674	0.18	503348	keystroke_o	o	n/a
251.794	0.15	503588	keystroke_n	n	n/a
252.784	0.12	505568	keystroke_Key.enter	Key.enter	n/a
252.9105	6.6095	505821	prompt	n/a	economic trash issued weird\n
253.789	0.06	507578	keystroke_e	e	n/a
254.029	0.0745	508058	keystroke_c	c	n/a
254.074	0.0745	508148	keystroke_o	o	n/a
254.3885	0.105	508777	keystroke_n	n	n/a
254.6585	0.06	509317	keystroke_o	o	n/a
254.8535	0.165	509707	keystroke_m	m	n/a
254.9885	0.0905	509977	keystroke_i	i	n/a
255.064	0.105	510128	keystroke_c	c	n/a
255.349	0.135	510698	keystroke_Key.space	Key.space	n/a
255.529	0.075	511058	keystroke_t	t	n/a
255.724	0.195	511448	keystroke_r	r	n/a
255.844	0.15	511688	keystroke_a	a	n/a
255.919	0.12	511838	keystroke_s	s	n/a
256.069	0.105	512138	keystroke_h	h	n/a
256.354	0.12	512708	keystroke_Key.space	Key.space	n/a
256.549	0.09	513098	keystroke_i	i	n/a
256.654	0.075	513308	keystroke_s	s	n/a
256.804	0.12	513608	keystroke_s	s	n/a
256.939	0.135	513878	keystroke_u	u	n/a
257.029	0.075	514058	keystroke_e	e	n/a
257.224	0.09	514448	keystroke_d	d	n/a
257.359	0.135	514718	keystroke_Key.space	Key.space	n/a
257.644	0.105	515288	keystroke_w	w	n/a
257.884	0.075	515768	keystroke_e	e	n/a
257.989	0.1195	515978	keystroke_i	i	n/a
258.139	0.15	516278	keystroke_r	r	n/a
258.2585	0.12	516517	keystroke_d	d	n/a
259.3985	0.12	518797	keystroke_Key.enter	Key.enter	n/a
259.5245	13.271	519049	prompt	n/a	peer recruiting carrier they've\n
260.4035	0.09	520807	keystroke_p	p	n/a
260.5085	0.075	521017	keystroke_e	e	n/a
260.6885	0.09	521377	keystroke_e	e	n/a
260.8685	0.09	521737	keystroke_r	r	n/a
261.0335	0.135	522067	keystroke_Key.space	Key.space	n/a
261.4085	0.12	522817	keystroke_r	r	n/a
261.5885	0.075	523177	keystroke_e	e	n/a
261.8435	0.075	523687	keystroke_c	c	n/a
262.1285	0.09	524257	keystroke_r	r	n/a
262.3535	0.12	524707	keystroke_u	u	n/a
262.4885	0.09	524977	keystroke_t	t	n/a
262.6085	0.18	525217	keystroke_i	i	n/a
262.7285	0.18	525457	keystroke_n	n	n/a
262.8635	0.075	525727	keystroke_g	g	n/a
262.9985	0.165	525997	keystroke_Key.space	Key.space	n/a
264.3485	0.075	528697	keystroke_Key.backspace	Key.backspace	n/a
264.9785	0.06	529957	keystroke_Key.backspace	Key.backspace	n/a
265.2035	0.075	530407	keystroke_Key.backspace	Key.backspace	n/a
265.5485	0.09	531097	keystroke_Key.backspace	Key.backspace	n/a
265.8185	0.09	531637	keystroke_Key.backspace	Key.backspace	n/a
268.1315	0.027	536263	keystroke_i	i	n/a
268.4735	0.12	536947	keystroke_t	t	n/a
268.6535	0.075	537307	keystroke_i	i	n/a
268.8635	0.12	537727	keystroke_n	n	n/a
268.9685	0.075	537937	keystroke_g	g	n/a
269.1035	0.135	538207	keystroke_Key.space	Key.space	n/a
269.6285	0.105	539257	keystroke_c	c	n/a
269.8085	0.165	539617	keystroke_a	a	n/a
269.9285	0.09	539857	keystroke_r	r	n/a
270.0785	0.105	540157	keystroke_r	r	n/a
270.2285	0.12	540457	keystroke_i	i	n/a
270.3335	0.165	540667	keystroke_e	e	n/a
270.4385	0.12	540877	keystroke_r	r	n/a
270.9035	0.135	541807	keystroke_Key.space	Key.space	n/a
271.0535	0.09	542107	keystroke_t	t	n/a
271.1585	0.105	542317	keystroke_h	h	n/a
271.2485	0.075	542497	keystroke_e	e	n/a
271.3835	0.06	542767	keystroke_y	y	n/a
271.5935	0.12	543187	keystroke_'	'	n/a
271.6835	0.135	543367	keystroke_v	v	n/a
271.8035	0.075	543607	keystroke_e	e	n/a
272.6885	0.105	545377	keystroke_Key.enter	Key.enter	n/a
272.8005	11.0945	545601	prompt	n/a	sonic save monroe transmission\n
273.7085	0.09	547417	keystroke_s	s	n/a
273.8285	0.12	547657	keystroke_o	o	n/a
273.9185	0.15	547837	keystroke_n	n	n/a
274.0385	0.12	548077	keystroke_i	i	n/a
274.1435	0.09	548287	keystroke_c	c	n/a
274.2935	0.165	548587	keystroke_Key.space	Key.space	n/a
274.5035	0.09	549007	keystroke_s	s	n/a
274.7585	0.135	549517	keystroke_a	a	n/a
274.8485	0.15	549697	keystroke_v	v	n/a
274.9395	0.134	549879	keystroke_e	e	n/a
275.0885	0.105	550177	keystroke_Key.space	Key.space	n/a
275.5685	0.15	551137	keystroke_m	m	n/a
275.8235	0.135	551647	keystroke_o	o	n/a
275.9285	0.18	551857	keystroke_n	n	n/a
276.3335	0.09	552667	keystroke_r	r	n/a
276.4385	0.105	552877	keystroke_o	o	n/a
276.5735	0.075	553147	keystroke_e	e	n/a
277.3085	0.165	554617	keystroke_Key.space	Key.space	n/a
277.6835	0.03	555367	keystroke_t	t	n/a
277.8635	0.18	555727	keystroke_r	r	n/a
278.0135	0.195	556027	keystroke_a	a	n/a
278.5085	0.12	557017	keystroke_n	n	n/a
278.8085	0.06	557617	keystroke_s	s	n/a
279.0335	0.21	558067	keystroke_m	m	n/a
279.1985	0.12	558397	keystroke_i	i	n/a
279.3635	0.285	558727	keystroke_s	s	n/a
279.6335	0.15	559267	keystroke_i	i	n/a
279.7235	0.18	559447	keystroke_o	o	n/a
280.6235	0.045	561247	keystroke_Key.backspace	Key.backspace	n/a
280.7585	0.075	561517	keystroke_Key.backspace	Key.backspace	n/a
280.9685	0.075	561937	keystroke_s	s	n/a
281.1485	0.105	562297	keystroke_i	i	n/a
281.4335	0.09	562867	keystroke_o	o	n/a
281.7335	0.195	563467	keystroke_n	n	n/a
283.7735	0.12	567547	keystroke_Key.enter	Key.enter	n/a
283.902	7.658	567804	prompt	n/a	bizarre vatican poster morrison\n
284.7635	0.105	569527	keystroke_b	b	n/a
284.9735	0.135	569947	keystroke_i	i	n/a
285.0935	0.09	570187	keystroke_z	z	n/a
285.3185	0.09	570637	keystroke_a	a	n/a
285.5585	0.06	571117	keystroke_r	r	n/a
285.7235	0.09	571447	keystroke_r	r	n/a
285.9185	0.105	571837	keystroke_e	e	n/a
286.0685	0.12	572137	keystroke_Key.space	Key.space	n/a
286.5035	0.09	573007	keystroke_v	v	n/a
286.6985	0.135	573397	keystroke_a	a	n/a
287.0435	0.09	574087	keystroke_t	t	n/a
287.1935	0.12	574387	keystroke_i	i	n/a
287.3285	0.105	574657	keystroke_c	c	n/a
287.4485	0.105	574897	keystroke_a	a	n/a
287.5685	0.195	575137	keystroke_n	n	n/a
287.6885	0.15	575377	keystroke_Key.space	Key.space	n/a
288.1085	0.09	576217	keystroke_p	p	n/a
288.3035	0.09	576607	keystroke_o	o	n/a
288.4385	0.18	576877	keystroke_s	s	n/a
288.6035	0.105	577207	keystroke_t	t	n/a
288.7535	0.15	577507	keystroke_e	e	n/a
288.8585	0.12	577717	keystroke_r	r	n/a
288.9635	0.15	577927	keystroke_Key.space	Key.space	n/a
289.4285	0.18	578857	keystroke_m	m	n/a
289.5785	0.09	579157	keystroke_o	o	n/a
290.0135	0.045	580027	keystroke_r	r	n/a
290.1635	0.09	580327	keystroke_r	r	n/a
290.3135	0.12	580627	keystroke_i	i	n/a
290.4635	0.105	580927	keystroke_s	s	n/a
290.5835	0.165	581167	keystroke_o	o	n/a
290.6885	0.15	581377	keystroke_n	n	n/a
291.4385	0.12	582877	keystroke_Key.enter	Key.enter	n/a
291.5645	6.026	583129	prompt	n/a	advert passenger yellow funny\n
292.4735	0.075	584947	keystroke_a	a	n/a
292.6985	0.06	585397	keystroke_d	d	n/a
292.8935	0.075	585787	keystroke_v	v	n/a
293.0135	0.15	586027	keystroke_e	e	n/a
293.1185	0.105	586237	keystroke_r	r	n/a
293.3435	0.105	586687	keystroke_t	t	n/a
293.4635	0.15	586927	keystroke_Key.space	Key.space	n/a
293.6145	0.134	587229	keystroke_p	p	n/a
293.7035	0.105	587407	keystroke_a	a	n/a
293.8985	0.075	587797	keystroke_s	s	n/a
294.0785	0.075	588157	keystroke_s	s	n/a
294.2735	0.075	588547	keystroke_e	e	n/a
294.3635	0.165	588727	keystroke_n	n	n/a
294.4685	0.105	588937	keystroke_g	g	n/a
294.6485	0.15	589297	keystroke_e	e	n/a
294.7535	0.105	589507	keystroke_r	r	n/a
294.9035	0.105	589807	keystroke_Key.space	Key.space	n/a
295.1735	0.09	590347	keystroke_y	y	n/a
295.2485	0.075	590497	keystroke_e	e	n/a
295.3835	0.075	590767	keystroke_l	l	n/a
295.5485	0.09	591097	keystroke_l	l	n/a
295.7735	0.075	591547	keystroke_o	o	n/a
295.8335	0.106	591667	keystroke_w	w	n/a
295.9835	0.105	591967	keystroke_Key.space	Key.space	n/a
296.0435	0.09	592087	keystroke_f	f	n/a
296.2085	0.075	592417	keystroke_u	u	n/a
296.4335	0.06	592867	keystroke_n	n	n/a
296.5835	0.09	593167	keystroke_n	n	n/a
296.8385	0.09	593677	keystroke_y	y	n/a
297.4835	0.105	594967	keystroke_Key.enter	Key.enter	n/a
297.5965	10.8985	595193	prompt	n/a	malpractice proceedings battery merchants\n
298.5335	0.12	597067	keystroke_m	m	n/a
298.8335	0.106	597667	keystroke_l	l	n/a
299.238	0.105	598476	keystroke_Key.backspace	Key.backspace	n/a
299.358	0.09	598716	keystroke_a	a	n/a
299.628	0.09	599256	keystroke_l	l	n/a
299.928	0.105	599856	keystroke_p	p	n/a
300.138	0.165	600276	keystroke_r	r	n/a
300.288	0.12	600576	keystroke_a	a	n/a
300.543	0.075	601086	keystroke_c	c	n/a
300.903	0.09	601806	keystroke_t	t	n/a
301.053	0.105	602106	keystroke_i	i	n/a
301.173	0.105	602346	keystroke_c	c	n/a
301.398	0.09	602796	keystroke_e	e	n/a
301.593	0.135	603186	keystroke_Key.space	Key.space	n/a
302.418	0.105	604836	keystroke_p	p	n/a
302.538	0.075	605076	keystroke_r	r	n/a
302.628	0.105	605256	keystroke_o	o	n/a
302.793	0.09	605586	keystroke_c	c	n/a
303.033	0.06	606066	keystroke_e	e	n/a
303.183	0.075	606366	keystroke_e	e	n/a
303.378	0.105	606756	keystroke_d	d	n/a
303.484	0.164	606968	keystroke_i	i	n/a
303.573	0.18	607146	keystroke_n	n	n/a
303.663	0.15	607326	keystroke_g	g	n/a
303.754	0.119	607508	keystroke_s	s	n/a
304.368	0.15	608736	keystroke_Key.space	Key.space	n/a
304.503	0.105	609006	keystroke_b	b	n/a
304.653	0.165	609306	keystroke_a	a	n/a
304.773	0.105	609546	keystroke_t	t	n/a
304.953	0.09	609906	keystroke_t	t	n/a
305.133	0.105	610266	keystroke_e	e	n/a
305.193	0.12	610386	keystroke_r	r	n/a
305.298	0.135	610596	keystroke_y	y	n/a
305.388	0.075	610776	keystroke_Key.space	Key.space	n/a
305.598	0.135	611196	keystroke_m	m	n/a
305.673	0.135	611346	keystroke_e	e	n/a
305.748	0.075	611496	keystroke_r	r	n/a
305.943	0.12	611886	keystroke_c	c	n/a
306.048	0.075	612096	keystroke_h	h	n/a
306.168	0.06	612336	keystroke_a	a	n/a
306.243	0.135	612486	keystroke_n	n	n/a
306.348	0.135	612696	keystroke_t	t	n/a
306.438	0.12	612876	keystroke_s	s	n/a
308.388	0.105	616776	keystroke_Key.enter	Key.enter	n/a
308.499	5.561	616998	prompt	n/a	york booty periodic am\n
309.438	0.09	618876	keystroke_y	y	n/a
309.633	0.09	619266	keystroke_o	o	n/a
309.753	0.09	619506	keystroke_r	r	n/a
309.873	0.135	619746	keystroke_k	k	n/a
309.963	0.12	619926	keystroke_Key.space	Key.space	n/a
310.098	0.135	620196	keystroke_b	b	n/a
310.248	0.045	620496	keystroke_o	o	n/a
310.368	0.105	620736	keystroke_o	o	n/a
310.503	0.106	621006	keystroke_t	t	n/a
310.639	0.164	621278	keystroke_y	y	n/a
310.743	0.135	621486	keystroke_Key.space	Key.space	n/a
311.433	0.135	622866	keystroke_p	p	n/a
311.553	0.135	623106	keystroke_e	e	n/a
311.658	0.105	623316	keystroke_r	r	n/a
311.748	0.135	623496	keystroke_i	i	n/a
311.838	0.151	623676	keystroke_o	o	n/a
311.973	0.09	623946	keystroke_d	d	n/a
312.093	0.135	624186	keystroke_i	i	n/a
312.198	0.075	624396	keystroke_c	c	n/a
312.408	0.15	624816	keystroke_Key.space	Key.space	n/a
312.963	0.09	625926	keystroke_a	a	n/a
313.113	0.12	626226	keystroke_m	m	n/a
313.938	0.12	627876	keystroke_Key.enter	Key.enter	n/a
314.065	12.5355	628130	prompt	n/a	recorders conf practitioners galleries\n
315.109	0.105	630218	keystroke_r	r	n/a
315.198	0.09	630396	keystroke_e	e	n/a
315.408	0.091	630816	keystroke_c	c	n/a
315.483	0.121	630966	keystroke_o	o	n/a
315.618	0.21	631236	keystroke_r	r	n/a
315.723	0.135	631446	keystroke_d	d	n/a
315.798	0.15	631596	keystroke_s	s	n/a
316.458	0.075	632916	keystroke_Key.backspace	Key.backspace	n/a
317.478	0.181	634956	keystroke_e	e	n/a
317.629	0.135	635258	keystroke_r	r	n/a
318.154	0.075	636308	keystroke_s	s	n/a
318.243	0.151	636486	keystroke_Key.space	Key.space	n/a
319.0835	0.09	638167	keystroke_c	c	n/a
319.1575	0.136	638315	keystroke_o	o	n/a
319.249	0.1485	638498	keystroke_n	n	n/a
319.3385	0.075	638677	keystroke_f	f	n/a
319.5025	0.15	639005	keystroke_Key.space	Key.space	n/a
320.2085	0.09	640417	keystroke_p	p	n/a
320.4335	0.104	640867	keystroke_r	r	n/a
320.7035	0.119	641407	keystroke_a	a	n/a
320.9285	0.09	641857	keystroke_c	c	n/a
321.1685	0.09	642337	keystroke_t	t	n/a
321.3335	0.06	642667	keystroke_i	i	n/a
322.3525	0.121	644705	keystroke_t	t	n/a
322.4585	0.15	644917	keystroke_i	i	n/a
322.5785	0.18	645157	keystroke_o	o	n/a
322.7435	0.12	645487	keystroke_n	n	n/a
322.9675	0.166	645935	keystroke_e	e	n/a
323.0585	0.21	646117	keystroke_r	r	n/a
323.2385	0.12	646477	keystroke_s	s	n/a
324.0625	0.166	648125	keystroke_Key.space	Key.space	n/a
324.2575	0.106	648515	keystroke_g	g	n/a
324.4535	0.105	648907	keystroke_a	a	n/a
324.5435	0.06	649087	keystroke_l	l	n/a
324.7085	0.12	649417	keystroke_l	l	n/a
324.8435	0.165	649687	keystroke_e	e	n/a
324.9485	0.12	649897	keystroke_r	r	n/a
325.1285	0.135	650257	keystroke_i	i	n/a
325.2335	0.165	650467	keystroke_e	e	n/a
325.3685	0.12	650737	keystroke_s	s	n/a
326.4635	0.135	652927	keystroke_Key.enter	Key.enter	n/a
326.6055	7.4195	653211	prompt	n/a	arch seafood vids gentleman\n
327.3035	0.135	654607	keystroke_a	a	n/a
327.4235	0.105	654847	keystroke_r	r	n/a
327.6935	0.075	655387	keystroke_c	c	n/a
327.7835	0.135	655567	keystroke_h	h	n/a
327.8585	0.149	655717	keystroke_Key.space	Key.space	n/a
327.9635	0.105	655927	keystroke_s	s	n/a
328.2185	0.09	656437	keystroke_e	e	n/a
328.7585	0.09	657517	keystroke_a	a	n/a
329.0585	0.09	658117	keystroke_f	f	n/a
329.2685	0.06	658537	keystroke_o	o	n/a
329.4335	0.09	658867	keystroke_o	o	n/a
329.5835	0.06	659167	keystroke_d	d	n/a
329.7925	0.106	659585	keystroke_Key.space	Key.space	n/a
330.0185	0.09	660037	keystroke_v	v	n/a
330.0935	0.105	660187	keystroke_i	i	n/a
330.2285	0.105	660457	keystroke_d	d	n/a
330.4235	0.105	660847	keystroke_s	s	n/a
330.5875	0.151	661175	keystroke_Key.space	Key.space	n/a
331.0685	0.045	662137	keystroke_g	g	n/a
331.2185	0.09	662437	keystroke_e	e	n/a
331.3235	0.135	662647	keystroke_n	n	n/a
331.5635	0.12	663127	keystroke_t	t	n/a
331.9385	0.12	663877	keystroke_l	l	n/a
332.1185	0.105	664237	keystroke_e	e	n/a
332.3285	0.135	664657	keystroke_m	m	n/a
332.4785	0.105	664957	keystroke_a	a	n/a
332.6135	0.15	665227	keystroke_n	n	n/a
333.9485	0.075	667897	keystroke_Key.enter	Key.enter	n/a
334.0295	7.5705	668059	prompt	n/a	implemented invite brad supporting\n
334.8935	0.075	669787	keystroke_i	i	n/a
335.1035	0.195	670207	keystroke_m	m	n/a
335.2385	0.15	670477	keystroke_p	p	n/a
335.3435	0.12	670687	keystroke_l	l	n/a
335.6585	0.105	671317	keystroke_e	e	n/a
335.7935	0.135	671587	keystroke_m	m	n/a
335.9135	0.12	671827	keystroke_e	e	n/a
336.0485	0.15	672097	keystroke_n	n	n/a
336.1535	0.12	672307	keystroke_t	t	n/a
336.2585	0.075	672517	keystroke_e	e	n/a
336.4835	0.09	672967	keystroke_d	d	n/a
336.5885	0.12	673177	keystroke_Key.space	Key.space	n/a
337.2635	0.12	674527	keystroke_i	i	n/a
337.3235	0.135	674647	keystroke_n	n	n/a
337.4435	0.09	674887	keystroke_v	v	n/a
337.5635	0.105	675127	keystroke_i	i	n/a
337.6685	0.135	675337	keystroke_t	t	n/a
337.7585	0.105	675517	keystroke_e	e	n/a
337.8785	0.15	675757	keystroke_Key.space	Key.space	n/a
338.4635	0.09	676927	keystroke_b	b	n/a
338.7035	0.15	677407	keystroke_r	r	n/a
338.8235	0.09	677647	keystroke_a	a	n/a
338.9885	0.105	677977	keystroke_d	d	n/a
339.1085	0.12	678217	keystroke_Key.space	Key.space	n/a
339.2435	0.09	678487	keystroke_s	s	n/a
339.3785	0.105	678757	keystroke_u	u	n/a
339.6035	0.09	679207	keystroke_p	p	n/a
339.7985	0.15	679597	keystroke_p	p	n/a
339.9785	0.12	679957	keystroke_o	o	n/a
340.0985	0.09	680197	keystroke_r	r	n/a
340.3085	0.075	680617	keystroke_t	t	n/a
340.3985	0.15	680797	keystroke_i	i	n/a
340.5035	0.15	681007	keystroke_n	n	n/a
340.6085	0.075	681217	keystroke_g	g	n/a
341.4785	0.12	682957	keystroke_Key.enter	Key.enter	n/a
341.6045	9.88	683209	prompt	n/a	inexpensive mountains sunday queensland\n
342.4685	0.135	684937	keystroke_i	i	n/a
342.5285	0.165	685057	keystroke_n	n	n/a
342.8285	0.09	685657	keystroke_e	e	n/a
343.2035	0.09	686407	keystroke_x	x	n/a
343.4735	0.105	686947	keystroke_p	p	n/a
343.5935	0.075	687187	keystroke_e	e	n/a
343.7435	0.135	687487	keystroke_n	n	n/a
343.8635	0.09	687727	keystroke_s	s	n/a
343.9985	0.105	687997	keystroke_i	i	n/a
344.1185	0.12	688237	keystroke_v	v	n/a
344.1935	0.105	688387	keystroke_e	e	n/a
344.4185	0.135	688837	keystroke_Key.space	Key.space	n/a
344.6435	0.105	689287	keystroke_m	m	n/a
344.7785	0.165	689557	keystroke_o	o	n/a
344.8985	0.09	689797	keystroke_u	u	n/a
345.1085	0.135	690217	keystroke_n	n	n/a
345.1985	0.165	690397	keystroke_t	t	n/a
345.3185	0.12	690637	keystroke_a	a	n/a
345.4085	0.15	690817	keystroke_i	i	n/a
345.4835	0.165	690967	keystroke_n	n	n/a
345.5885	0.105	691177	keystroke_s	s	n/a
346.0985	0.12	692197	keystroke_Key.space	Key.space	n/a
346.2635	0.12	692527	keystroke_s	s	n/a
346.3985	0.06	692797	keystroke_u	u	n/a
346.5935	0.12	693187	keystroke_n	n	n/a
346.6685	0.075	693337	keystroke_d	d	n/a
346.8185	0.105	693637	keystroke_a	a	n/a
346.9235	0.135	693847	keystroke_y	y	n/a
346.9985	0.135	693997	keystroke_Key.space	Key.space	n/a
347.3585	0.09	694717	keystroke_q	q	n/a
347.4635	0.12	694927	keystroke_u	u	n/a
347.5985	0.06	695197	keystroke_e	e	n/a
347.7635	0.075	695527	keystroke_e	e	n/a
347.8685	0.135	695737	keystroke_n	n	n/a
348.1385	0.105	696277	keystroke_s	s	n/a
348.4385	0.105	696877	keystroke_l	l	n/a
348.5735	0.09	697147	keystroke_a	a	n/a
348.6785	0.12	697357	keystroke_n	n	n/a
348.7985	0.045	697597	keystroke_d	d	n/a
351.4415	0.042	702883	keystroke_Key.enter	Key.enter	n/a
351.489	6.687	702978	prompt	n/a	wrong locking oregon exchange\n
352.3835	0.075	704767	keystroke_w	w	n/a
352.5935	0.09	705187	keystroke_r	r	n/a
352.7435	0.15	705487	keystroke_o	o	n/a
352.8635	0.24	705727	keystroke_n	n	n/a
352.9685	0.105	705937	keystroke_g	g	n/a
353.0585	0.15	706117	keystroke_Key.space	Key.space	n/a
353.2685	0.075	706537	keystroke_l	l	n/a
353.4935	0.075	706987	keystroke_o	o	n/a
353.5985	0.12	707197	keystroke_c	c	n/a
353.7335	0.06	707467	keystroke_k	k	n/a
353.8835	0.18	707767	keystroke_i	i	n/a
353.9585	0.195	707917	keystroke_n	n	n/a
354.0485	0.09	708097	keystroke_g	g	n/a
354.0935	0.135	708187	keystroke_Key.space	Key.space	n/a
354.2435	0.105	708487	keystroke_o	o	n/a
354.3635	0.09	708727	keystroke_r	r	n/a
354.4385	0.09	708877	keystroke_e	e	n/a
354.6335	0.09	709267	keystroke_g	g	n/a
354.7535	0.105	709507	keystroke_o	o	n/a
354.8135	0.1945	709627	keystroke_n	n	n/a
354.948	0.135	709896	keystroke_Key.space	Key.space	n/a
355.158	0.075	710316	keystroke_e	e	n/a
355.368	0.09	710736	keystroke_x	x	n/a
355.578	0.105	711156	keystroke_c	c	n/a
355.713	0.1055	711426	keystroke_h	h	n/a
355.8635	0.0895	711727	keystroke_a	a	n/a
355.939	0.134	711878	keystroke_n	n	n/a
356.538	0.06	713076	keystroke_g	g	n/a
356.688	0.09	713376	keystroke_e	e	n/a
358.068	0.105	716136	keystroke_Key.enter	Key.enter	n/a
358.181	9.8035	716362	prompt	n/a	premises characteristic equally mint\n
358.968	0.12	717936	keystroke_p	p	n/a
359.193	0.09	718386	keystroke_r	r	n/a
359.343	0.105	718686	keystroke_e	e	n/a
359.463	0.165	718926	keystroke_m	m	n/a
359.583	0.12	719166	keystroke_i	i	n/a
359.658	0.09	719316	keystroke_s	s	n/a
359.808	0.165	719616	keystroke_e	e	n/a
359.913	0.135	719826	keystroke_s	s	n/a
360.078	0.12	720156	keystroke_Key.space	Key.space	n/a
360.423	0.105	720846	keystroke_c	c	n/a
360.543	0.15	721086	keystroke_h	h	n/a
360.723	0.105	721446	keystroke_a	a	n/a
360.813	0.165	721626	keystroke_r	r	n/a
361.368	0.135	722736	keystroke_a	a	n/a
361.653	0.12	723306	keystroke_c	c	n/a
361.908	0.12	723816	keystroke_t	t	n/a
362.088	0.15	724176	keystroke_e	e	n/a
362.193	0.09	724386	keystroke_r	r	n/a
362.373	0.12	724746	keystroke_i	i	n/a
362.733	0.15	725466	keystroke_s	s	n/a
362.838	0.09	725676	keystroke_t	t	n/a
362.988	0.105	725976	keystroke_i	i	n/a
363.108	0.09	726216	keystroke_c	c	n/a
363.318	0.135	726636	keystroke_Key.space	Key.space	n/a
364.473	0.12	728946	keystroke_e	e	n/a
364.743	0.09	729486	keystroke_q	q	n/a
364.818	0.15	729636	keystroke_u	u	n/a
365.013	0.12	730026	keystroke_a	a	n/a
365.148	0.06	730296	keystroke_l	l	n/a
365.328	0.18	730656	keystroke_l	l	n/a
365.448	0.15	730896	keystroke_y	y	n/a
365.538	0.135	731076	keystroke_Key.space	Key.space	n/a
365.808	0.12	731616	keystroke_m	m	n/a
366.048	0.135	732096	keystroke_i	i	n/a
366.138	0.15	732276	keystroke_n	n	n/a
366.348	0.075	732696	keystroke_t	t	n/a
367.863	0.12	735726	keystroke_Key.enter	Key.enter	n/a
367.9895	15.0855	735979	prompt	n/a	referrals requirements improvement independently\n
368.988	0.105	737976	keystroke_r	r	n/a
369.123	0.075	738246	keystroke_e	e	n/a
369.303	0.075	738606	keystroke_f	f	n/a
369.408	0.15	738816	keystroke_e	e	n/a
369.528	0.09	739056	keystroke_r	r	n/a
369.708	0.165	739416	keystroke_r	r	n/a
369.843	0.12	739686	keystroke_a	a	n/a
369.993	0.12	739986	keystroke_l	l	n/a
370.098	0.09	740196	keystroke_s	s	n/a
370.338	0.165	740676	keystroke_Key.space	Key.space	n/a
370.908	0.105	741816	keystroke_r	r	n/a
371.268	0.105	742536	keystroke_e	e	n/a
371.478	0.12	742956	keystroke_q	q	n/a
371.613	0.18	743226	keystroke_u	u	n/a
371.733	0.135	743466	keystroke_i	i	n/a
371.883	0.09	743766	keystroke_r	r	n/a
372.228	0.12	744456	keystroke_m	m	n/a
372.663	0.075	745326	keystroke_Key.backspace	Key.backspace	n/a
372.753	0.09	745506	keystroke_e	e	n/a
372.993	0.12	745986	keystroke_m	m	n/a
373.098	0.105	746196	keystroke_e	e	n/a
373.233	0.135	746466	keystroke_n	n	n/a
373.308	0.15	746616	keystroke_t	t	n/a
373.413	0.105	746826	keystroke_s	s	n/a
374.388	0.12	748776	keystroke_Key.space	Key.space	n/a
374.6575	0.2255	749315	keystroke_i	i	n/a
374.838	0.2395	749676	keystroke_m	m	n/a
375.0475	0.09	750095	keystroke_p	p	n/a
375.1525	0.075	750305	keystroke_r	r	n/a
375.5125	0.06	751025	keystroke_o	o	n/a
375.7075	0.075	751415	keystroke_v	v	n/a
375.8875	0.09	751775	keystroke_e	e	n/a
376.0375	0.1505	752075	keystroke_m	m	n/a
376.098	0.1045	752196	keystroke_e	e	n/a
376.3075	0.135	752615	keystroke_n	n	n/a
376.3675	0.06	752735	keystroke_t	t	n/a
377.2525	0.135	754505	keystroke_Key.space	Key.space	n/a
377.5525	0.15	755105	keystroke_i	i	n/a
377.6275	0.165	755255	keystroke_n	n	n/a
377.7475	0.075	755495	keystroke_d	d	n/a
377.9725	0.075	755945	keystroke_e	e	n/a
378.0625	0.12	756125	keystroke_p	p	n/a
378.2575	0.09	756515	keystroke_e	e	n/a
378.3925	0.12	756785	keystroke_n	n	n/a
378.9475	0.075	757895	keystroke_d	d	n/a
379.1575	0.09	758315	keystroke_e	e	n/a
379.2775	0.105	758555	keystroke_n	n	n/a
379.4725	0.075	758945	keystroke_t	t	n/a
379.6975	0.255	759395	keystroke_l	l	n/a
379.8475	0.15	759695	keystroke_y	y	n/a
379.9375	0.15	759875	keystroke_Key.space	Key.space	n/a
381.0025	0.09	762005	keystroke_Key.backspace	Key.backspace	n/a
382.9675	0.105	765935	keystroke_Key.enter	Key.enter	n/a
383.084	10.341	766168	prompt	n/a	waterproof stanley whilst talks\n
383.7475	0.105	767495	keystroke_w	w	n/a
383.9575	0.165	767915	keystroke_a	a	n/a
384.0475	0.12	768095	keystroke_t	t	n/a
384.2275	0.105	768455	keystroke_e	e	n/a
384.2725	0.12	768545	keystroke_r	r	n/a
384.4525	0.105	768905	keystroke_p	p	n/a
384.6775	0.09	769355	keystroke_r	r	n/a
384.9625	0.075	769925	keystroke_o	o	n/a
385.1125	0.12	770225	keystroke_o	o	n/a
385.2775	0.105	770555	keystroke_f	f	n/a
385.7275	0.165	771455	keystroke_Key.space	Key.space	n/a
386.1175	0.105	772235	keystroke_s	s	n/a
386.3275	0.105	772655	keystroke_n	n	n/a
386.8825	0.09	773765	keystroke_t	t	n/a
387.6025	0.06	775205	keystroke_Key.backspace	Key.backspace	n/a
387.7375	0.09	775475	keystroke_Key.backspace	Key.backspace	n/a
387.8425	0.105	775685	keystroke_t	t	n/a
387.9925	0.135	775985	keystroke_a	a	n/a
388.0975	0.09	776195	keystroke_n	n	n/a
388.3375	0.105	776675	keystroke_l	l	n/a
388.4435	0.089	776887	keystroke_e	e	n/a
388.6075	0.12	777215	keystroke_y	y	n/a
389.6575	0.165	779315	keystroke_Key.space	Key.space	n/a
389.9725	0.12	779945	keystroke_w	w	n/a
390.0775	0.225	780155	keystroke_h	h	n/a
390.2275	0.12	780455	keystroke_i	i	n/a
390.2725	0.15	780545	keystroke_l	l	n/a
390.4675	0.09	780935	keystroke_s	s	n/a
390.7075	0.075	781415	keystroke_t	t	n/a
390.8125	0.135	781625	keystroke_Key.space	Key.space	n/a
391.2925	0.135	782585	keystroke_t	t	n/a
391.4125	0.135	782825	keystroke_a	a	n/a
391.5025	0.225	783005	keystroke_l	l	n/a
391.6085	0.149	783217	keystroke_k	k	n/a
391.6985	0.074	783397	keystroke_s	s	n/a
393.3175	0.105	786635	keystroke_Key.enter	Key.enter	n/a
393.43	6.9995	786860	prompt	n/a	combined sparc bolivia liable\n
394.2775	0.106	788555	keystroke_c	c	n/a
394.3535	0.104	788707	keystroke_o	o	n/a
394.4275	0.135	788855	keystroke_m	m	n/a
394.5635	0.119	789127	keystroke_b	b	n/a
394.6525	0.135	789305	keystroke_i	i	n/a
394.7125	0.18	789425	keystroke_n	n	n/a
394.8625	0.076	789725	keystroke_e	e	n/a
395.0575	0.105	790115	keystroke_d	d	n/a
395.1325	0.15	790265	keystroke_Key.space	Key.space	n/a
395.6885	0.104	791377	keystroke_s	s	n/a
395.7475	0.105	791495	keystroke_p	p	n/a
396.0175	0.195	792035	keystroke_a	a	n/a
396.1825	0.105	792365	keystroke_r	r	n/a
396.4825	0.09	792965	keystroke_c	c	n/a
396.6775	0.15	793355	keystroke_Key.space	Key.space	n/a
396.9775	0.12	793955	keystroke_b	b	n/a
397.1875	0.075	794375	keystroke_o	o	n/a
397.4125	0.18	794825	keystroke_l	l	n/a
397.5475	0.09	795095	keystroke_i	i	n/a
397.6525	0.105	795305	keystroke_v	v	n/a
397.7735	0.089	795547	keystroke_i	i	n/a
397.9075	0.105	795815	keystroke_a	a	n/a
398.5075	0.15	797015	keystroke_Key.space	Key.space	n/a
398.7325	0.09	797465	keystroke_l	l	n/a
398.9285	0.104	797857	keystroke_i	i	n/a
399.0485	0.104	798097	keystroke_a	a	n/a
399.2425	0.09	798485	keystroke_b	b	n/a
399.3175	0.105	798635	keystroke_l	l	n/a
399.4825	0.09	798965	keystroke_e	e	n/a
400.3075	0.12	800615	keystroke_Key.enter	Key.enter	n/a
400.4345	8.695	800869	prompt	n/a	significantly milton bathroom males\n
401.2535	0.089	802507	keystroke_s	s	n/a
401.4175	0.105	802835	keystroke_i	i	n/a
401.5975	0.091	803195	keystroke_g	g	n/a
401.7485	0.134	803497	keystroke_n	n	n/a
402.1225	0.105	804245	keystroke_i	i	n/a
402.7675	0.09	805535	keystroke_f	f	n/a
402.9025	0.105	805805	keystroke_i	i	n/a
403.1585	0.09	806317	keystroke_c	c	n/a
403.2925	0.12	806585	keystroke_a	a	n/a
403.4285	0.134	806857	keystroke_n	n	n/a
403.6085	0.09	807217	keystroke_t	t	n/a
403.8025	0.255	807605	keystroke_l	l	n/a
403.9675	0.151	807935	keystroke_y	y	n/a
404.0425	0.15	808085	keystroke_Key.space	Key.space	n/a
404.4925	0.135	808985	keystroke_m	m	n/a
404.7175	0.181	809435	keystroke_i	i	n/a
404.8675	0.15	809735	keystroke_l	l	n/a
405.0035	0.075	810007	keystroke_t	t	n/a
405.1675	0.15	810335	keystroke_o	o	n/a
405.2425	0.195	810485	keystroke_n	n	n/a
405.3625	0.15	810725	keystroke_Key.space	Key.space	n/a
406.0235	0.119	812047	keystroke_b	b	n/a
406.2625	0.15	812525	keystroke_a	a	n/a
406.3685	0.089	812737	keystroke_t	t	n/a
406.5025	0.106	813005	keystroke_h	h	n/a
406.5935	0.105	813187	keystroke_r	r	n/a
406.7435	0.06	813487	keystroke_o	o	n/a
406.8925	0.195	813785	keystroke_o	o	n/a
407.0275	0.165	814055	keystroke_m	m	n/a
407.7175	0.135	815435	keystroke_Key.space	Key.space	n/a
407.9135	0.135	815827	keystroke_m	m	n/a
408.0175	0.09	816035	keystroke_a	a	n/a
408.1535	0.12	816307	keystroke_l	l	n/a
408.2285	0.18	816457	keystroke_e	e	n/a
408.3325	0.121	816665	keystroke_s	s	n/a
409.0075	0.12	818015	keystroke_Key.enter	Key.enter	n/a
409.1345	9.295	818269	prompt	n/a	referenced msgstr furnished tongue\n
409.9535	0.12	819907	keystroke_r	r	n/a
410.0885	0.105	820177	keystroke_e	e	n/a
410.2235	0.105	820447	keystroke_f	f	n/a
410.3425	0.106	820685	keystroke_e	e	n/a
410.4635	0.12	820927	keystroke_r	r	n/a
410.5525	0.076	821105	keystroke_e	e	n/a
410.6735	0.165	821347	keystroke_n	n	n/a
410.7635	0.09	821527	keystroke_c	c	n/a
410.9735	0.06	821947	keystroke_e	e	n/a
411.1385	0.09	822277	keystroke_d	d	n/a
411.2425	0.135	822485	keystroke_Key.space	Key.space	n/a
411.7685	0.135	823537	keystroke_m	m	n/a
412.0535	0.105	824107	keystroke_s	s	n/a
412.6235	0.09	825247	keystroke_g	g	n/a
412.9835	0.105	825967	keystroke_s	s	n/a
413.3285	0.075	826657	keystroke_t	t	n/a
413.5985	0.075	827197	keystroke_r	r	n/a
414.0035	0.164	828007	keystroke_Key.space	Key.space	n/a
414.1835	0.105	828367	keystroke_f	f	n/a
414.3785	0.075	828757	keystroke_u	u	n/a
414.5285	0.105	829057	keystroke_r	r	n/a
414.6635	0.12	829327	keystroke_n	n	n/a
414.9335	0.09	829867	keystroke_i	i	n/a
415.0385	0.105	830077	keystroke_s	s	n/a
415.1885	0.12	830377	keystroke_h	h	n/a
415.2635	0.075	830527	keystroke_e	e	n/a
415.4585	0.09	830917	keystroke_d	d	n/a
415.5175	0.166	831035	keystroke_Key.space	Key.space	n/a
416.4485	0.09	832897	keystroke_t	t	n/a
416.5835	0.12	833167	keystroke_o	o	n/a
416.6585	0.135	833317	keystroke_n	n	n/a
416.7635	0.09	833527	keystroke_g	g	n/a
416.9285	0.135	833857	keystroke_u	u	n/a
417.0035	0.075	834007	keystroke_e	e	n/a
418.3685	0.06	836737	keystroke_Key.enter	Key.enter	n/a
418.4345	9.415	836869	prompt	n/a	powder we'd've geek exact\n
419.2985	0.06	838597	keystroke_p	p	n/a
419.4785	0.1045	838957	keystroke_o	o	n/a
419.6735	0.0745	839347	keystroke_w	w	n/a
419.928	0.075	839856	keystroke_d	d	n/a
420.138	0.135	840276	keystroke_e	e	n/a
420.213	0.12	840426	keystroke_r	r	n/a
420.513	0.135	841026	keystroke_Key.space	Key.space	n/a
420.678	0.09	841356	keystroke_w	w	n/a
420.843	0.09	841686	keystroke_e	e	n/a
421.773	0.06	843546	keystroke_d	d	n/a
422.163	0.09	844326	keystroke_Key.backspace	Key.backspace	n/a
422.778	0.135	845556	keystroke_'	'	n/a
423.123	0.09	846246	keystroke_d	d	n/a
423.648	0.12	847296	keystroke_'	'	n/a
424.113	0.075	848226	keystroke_v	v	n/a
424.293	0.075	848586	keystroke_e	e	n/a
424.428	0.15	848856	keystroke_Key.space	Key.space	n/a
424.593	0.075	849186	keystroke_g	g	n/a
424.833	0.045	849666	keystroke_e	e	n/a
424.968	0.105	849936	keystroke_e	e	n/a
425.028	0.18	850056	keystroke_k	k	n/a
425.163	0.135	850326	keystroke_Key.space	Key.space	n/a
425.568	0.06	851136	keystroke_e	e	n/a
425.913	0.09	851826	keystroke_x	x	n/a
426.153	0.09	852306	keystroke_a	a	n/a
426.333	0.09	852666	keystroke_c	c	n/a
426.588	0.075	853176	keystroke_t	t	n/a
427.698	0.15	855396	keystroke_Key.enter	Key.enter	n/a
427.854	8.4705	855708	prompt	n/a	like behalf managed simulations\n
428.703	0.165	857406	keystroke_l	l	n/a
428.853	0.06	857706	keystroke_i	i	n/a
429.063	0.105	858126	keystroke_k	k	n/a
429.078	0.075	858156	keystroke_e	e	n/a
429.183	0.165	858366	keystroke_Key.space	Key.space	n/a
429.558	0.075	859116	keystroke_b	b	n/a
429.753	0.12	859506	keystroke_e	e	n/a
429.888	0.105	859776	keystroke_h	h	n/a
430.053	0.075	860106	keystroke_a	a	n/a
430.158	0.09	860316	keystroke_l	l	n/a
430.263	0.075	860526	keystroke_f	f	n/a
430.413	0.105	860826	keystroke_Key.space	Key.space	n/a
430.728	0.09	861456	keystroke_m	m	n/a
431.013	0.09	862026	keystroke_a	a	n/a
431.133	0.135	862266	keystroke_n	n	n/a
431.283	0.09	862566	keystroke_a	a	n/a
431.643	0.06	863286	keystroke_g	g	n/a
431.808	0.075	863616	keystroke_e	e	n/a
432.003	0.075	864006	keystroke_d	d	n/a
432.108	0.135	864216	keystroke_Key.space	Key.space	n/a
432.483	0.09	864966	keystroke_s	s	n/a
432.693	0.105	865386	keystroke_i	i	n/a
432.963	0.09	865926	keystroke_m	m	n/a
433.248	0.09	866496	keystroke_u	u	n/a
433.458	0.09	866916	keystroke_l	l	n/a
434.628	0.09	869256	keystroke_a	a	n/a
434.853	0.09	869706	keystroke_t	t	n/a
434.958	0.12	869916	keystroke_i	i	n/a
435.048	0.18	870096	keystroke_o	o	n/a
435.153	0.18	870306	keystroke_n	n	n/a
435.288	0.09	870576	keystroke_s	s	n/a
436.218	0.105	872436	keystroke_Key.enter	Key.enter	n/a
436.329	6.73	872658	prompt	n/a	thongs batteries card howdy\n
437.208	0.09	874416	keystroke_t	t	n/a
437.313	0.075	874626	keystroke_h	h	n/a
437.418	0.15	874836	keystroke_o	o	n/a
437.523	0.15	875046	keystroke_n	n	n/a
437.598	0.15	875196	keystroke_g	g	n/a
437.688	0.12	875376	keystroke_s	s	n/a
437.823	0.165	875646	keystroke_Key.space	Key.space	n/a
438.198	0.105	876396	keystroke_b	b	n/a
438.348	0.15	876696	keystroke_a	a	n/a
438.543	0.075	877086	keystroke_t	t	n/a
438.723	0.09	877446	keystroke_t	t	n/a
439.023	0.165	878046	keystroke_e	e	n/a
439.158	0.15	878316	keystroke_r	r	n/a
439.338	0.15	878676	keystroke_i	i	n/a
439.458	0.12	878916	keystroke_e	e	n/a
439.623	0.135	879246	keystroke_s	s	n/a
439.743	0.15	879486	keystroke_Key.space	Key.space	n/a
441.003	0.09	882006	keystroke_c	c	n/a
441.153	0.135	882306	keystroke_a	a	n/a
441.228	0.18	882456	keystroke_r	r	n/a
441.333	0.15	882666	keystroke_d	d	n/a
441.468	0.15	882936	keystroke_Key.space	Key.space	n/a
441.603	0.165	883206	keystroke_h	h	n/a
441.738	0.105	883476	keystroke_o	o	n/a
441.858	0.06	883716	keystroke_w	w	n/a
442.053	0.105	884106	keystroke_d	d	n/a
442.233	0.105	884466	keystroke_y	y	n/a
442.938	0.12	885876	keystroke_Key.enter	Key.enter	n/a
443.0635	7.796	886127	prompt	n/a	essentially whose steps liked\n
443.823	0.075	887646	keystroke_w	w	n/a
444.063	0.09	888126	keystroke_s	s	n/a
444.663	0.09	889326	keystroke_Key.backspace	Key.backspace	n/a
444.843	0.105	889686	keystroke_Key.backspace	Key.backspace	n/a
445.083	0.075	890166	keystroke_e	e	n/a
445.293	0.09	890586	keystroke_s	s	n/a
445.473	0.105	890946	keystroke_s	s	n/a
445.698	0.09	891396	keystroke_e	e	n/a
445.818	0.1045	891636	keystroke_n	n	n/a
445.9225	0.075	891845	keystroke_t	t	n/a
446.1025	0.06	892205	keystroke_i	i	n/a
446.2075	0.09	892415	keystroke_a	a	n/a
446.3425	0.075	892685	keystroke_l	l	n/a
446.5375	0.225	893075	keystroke_l	l	n/a
446.7175	0.18	893435	keystroke_y	y	n/a
446.8375	0.12	893675	keystroke_Key.space	Key.space	n/a
447.5125	0.06	895025	keystroke_w	w	n/a
447.5875	0.15	895175	keystroke_h	h	n/a
447.7075	0.135	895415	keystroke_o	o	n/a
447.8275	0.135	895655	keystroke_s	s	n/a
447.9325	0.105	895865	keystroke_e	e	n/a
448.0525	0.15	896105	keystroke_Key.space	Key.space	n/a
448.1725	0.165	896345	keystroke_s	s	n/a
448.3225	0.195	896645	keystroke_t	t	n/a
448.4275	0.15	896855	keystroke_e	e	n/a
448.6675	0.105	897335	keystroke_p	p	n/a
448.8625	0.105	897725	keystroke_s	s	n/a
449.3875	0.105	898775	keystroke_Key.space	Key.space	n/a
449.5675	0.165	899135	keystroke_l	l	n/a
449.6875	0.075	899375	keystroke_i	i	n/a
449.8675	0.135	899735	keystroke_k	k	n/a
449.9125	0.105	899825	keystroke_e	e	n/a
450.1225	0.105	900245	keystroke_d	d	n/a
450.7225	0.135	901445	keystroke_Key.enter	Key.enter	n/a
450.864	6.1755	901728	prompt	n/a	linda troops timely propose\n
451.5475	0.075	903095	keystroke_l	l	n/a
451.7425	0.135	903485	keystroke_i	i	n/a
451.8025	0.165	903605	keystroke_n	n	n/a
451.8925	0.09	903785	keystroke_d	d	n/a
452.0575	0.135	904115	keystroke_a	a	n/a
452.1625	0.15	904325	keystroke_Key.space	Key.space	n/a
452.3275	0.06	904655	keystroke_t	t	n/a
452.5525	0.06	905105	keystroke_r	r	n/a
452.6275	0.06	905255	keystroke_o	o	n/a
452.7925	0.105	905585	keystroke_o	o	n/a
453.0625	0.105	906125	keystroke_p	p	n/a
453.1825	0.09	906365	keystroke_s	s	n/a
453.4225	0.15	906845	keystroke_Key.space	Key.space	n/a
453.9325	0.09	907865	keystroke_t	t	n/a
454.0525	0.18	908105	keystroke_i	i	n/a
454.1575	0.12	908315	keystroke_m	m	n/a
454.2475	0.12	908495	keystroke_e	e	n/a
454.4725	0.225	908945	keystroke_l	l	n/a
454.6075	0.105	909215	keystroke_y	y	n/a
454.6825	0.12	909365	keystroke_Key.space	Key.space	n/a
455.2375	0.15	910475	keystroke_p	p	n/a
455.4475	0.09	910895	keystroke_r	r	n/a
455.5675	0.105	911135	keystroke_o	o	n/a
455.7775	0.12	911555	keystroke_p	p	n/a
455.9575	0.105	911915	keystroke_o	o	n/a
456.0775	0.075	912155	keystroke_s	s	n/a
456.2275	0.09	912455	keystroke_e	e	n/a
456.9325	0.105	913865	keystroke_Key.enter	Key.enter	n/a
457.055	10.184	914110	prompt	n/a	adipex watershed pressed religious\n
457.9675	0.09	915935	keystroke_a	a	n/a
458.2075	0.12	916415	keystroke_k	k	n/a
458.7325	0.09	917465	keystroke_Key.backspace	Key.backspace	n/a
459.1075	0.105	918215	keystroke_d	d	n/a
459.2725	0.12	918545	keystroke_i	i	n/a
459.5125	0.105	919025	keystroke_p	p	n/a
459.6625	0.09	919325	keystroke_e	e	n/a
459.9025	0.09	919805	keystroke_x	x	n/a
460.4875	0.15	920975	keystroke_Key.space	Key.space	n/a
460.8475	0.105	921695	keystroke_w	w	n/a
461.0575	0.15	922115	keystroke_a	a	n/a
461.2375	0.12	922475	keystroke_t	t	n/a
461.4475	0.135	922895	keystroke_e	e	n/a
461.5375	0.105	923075	keystroke_r	r	n/a
461.9125	0.12	923825	keystroke_s	s	n/a
462.0475	0.135	924095	keystroke_h	h	n/a
462.1375	0.075	924275	keystroke_e	e	n/a
462.3325	0.09	924665	keystroke_d	d	n/a
463.4575	0.165	926915	keystroke_Key.space	Key.space	n/a
463.8175	0.09	927635	keystroke_p	p	n/a
463.8925	0.135	927785	keystroke_r	r	n/a
464.0125	0.06	928025	keystroke_e	e	n/a
464.1925	0.06	928385	keystroke_s	s	n/a
464.3425	0.105	928685	keystroke_s	s	n/a
464.4925	0.075	928985	keystroke_e	e	n/a
464.6875	0.105	929375	keystroke_d	d	n/a
464.8075	0.105	929615	keystroke_Key.space	Key.space	n/a
465.1675	0.075	930335	keystroke_r	r	n/a
465.3175	0.09	930635	keystroke_e	e	n/a
465.4825	0.18	930965	keystroke_l	l	n/a
465.6175	0.105	931235	keystroke_i	i	n/a
465.7525	0.09	931505	keystroke_g	g	n/a
465.8875	0.285	931775	keystroke_i	i	n/a
465.9775	0.18	931955	keystroke_o	o	n/a
466.0675	0.18	932135	keystroke_u	u	n/a
466.2625	0.06	932525	keystroke_s	s	n/a
467.1325	0.105	934265	keystroke_Key.enter	Key.enter	n/a
467.2435	8.1855	934487	prompt	n/a	wrong furnished conference can\n
468.0175	0.09	936035	keystroke_w	w	n/a
468.2275	0.09	936455	keystroke_r	r	n/a
468.3475	0.15	936695	keystroke_o	o	n/a
468.4525	0.255	936905	keystroke_n	n	n/a
468.5425	0.09	937085	keystroke_g	g	n/a
468.6175	0.18	937235	keystroke_Key.space	Key.space	n/a
468.9175	0.12	937835	keystroke_f	f	n/a
469.1125	0.12	938225	keystroke_u	u	n/a
469.3375	0.105	938675	keystroke_r	r	n/a
469.4725	0.105	938945	keystroke_n	n	n/a
469.7125	0.09	939425	keystroke_i	i	n/a
469.8775	0.09	939755	keystroke_s	s	n/a
469.9825	0.135	939965	keystroke_h	h	n/a
470.0875	0.075	940175	keystroke_e	e	n/a
470.2975	0.09	940595	keystroke_d	d	n/a
470.3575	0.15	940715	keystroke_Key.space	Key.space	n/a
471.1825	0.09	942365	keystroke_c	c	n/a
471.3025	0.135	942605	keystroke_o	o	n/a
471.3925	0.165	942785	keystroke_n	n	n/a
471.4825	0.105	942965	keystroke_f	f	n/a
471.6025	0.09	943205	keystroke_e	e	n/a
471.7075	0.135	943415	keystroke_r	r	n/a
471.8125	0.075	943625	keystroke_e	e	n/a
472.0525	0.06	944105	keystroke_n	n	n/a
472.0675	0.075	944135	keystroke_c	c	n/a
472.2775	0.075	944555	keystroke_e	e	n/a
472.3825	0.135	944765	keystroke_Key.space	Key.space	n/a
472.7575	0.075	945515	keystroke_c	c	n/a
472.8925	0.105	945785	keystroke_a	a	n/a
472.9825	0.09	945965	keystroke_l	l	n/a
473.9425	0.075	947885	keystroke_Key.backspace	Key.backspace	n/a
474.3775	0.105	948755	keystroke_n	n	n/a
475.3225	0.105	950645	keystroke_Key.enter	Key.enter	n/a
475.436	9.818	950872	prompt	n/a	energy testimony andorra cooler\n
476.2375	0.075	952475	keystroke_e	e	n/a
476.3575	0.165	952715	keystroke_n	n	n/a
476.4625	0.165	952925	keystroke_e	e	n/a
476.5825	0.075	953165	keystroke_r	r	n/a
476.8075	0.105	953615	keystroke_g	g	n/a
476.8675	0.12	953735	keystroke_y	y	n/a
476.9425	0.15	953885	keystroke_Key.space	Key.space	n/a
477.1675	0.12	954335	keystroke_t	t	n/a
477.4675	0.09	954935	keystroke_e	e	n/a
477.8275	0.09	955655	keystroke_s	s	n/a
478.0075	0.09	956015	keystroke_t	t	n/a
478.6225	0.06	957245	keystroke_i	i	n/a
478.8475	0.135	957695	keystroke_m	m	n/a
479.1025	0.135	958205	keystroke_o	o	n/a
479.2225	0.12	958445	keystroke_n	n	n/a
479.5825	0.15	959165	keystroke_y	y	n/a
479.6725	0.15	959345	keystroke_Key.space	Key.space	n/a
480.722	0.0755	961444	keystroke_a	a	n/a
480.947	0.165	961894	keystroke_n	n	n/a
482.072	0.105	964144	keystroke_d	d	n/a
482.207	0.105	964414	keystroke_o	o	n/a
482.372	0.076	964744	keystroke_r	r	n/a
482.537	0.166	965074	keystroke_r	r	n/a
482.687	0.105	965374	keystroke_a	a	n/a
483.197	0.15	966394	keystroke_Key.space	Key.space	n/a
483.362	0.09	966724	keystroke_c	c	n/a
483.512	0.045	967024	keystroke_o	o	n/a
483.662	0.061	967324	keystroke_o	o	n/a
483.857	0.105	967714	keystroke_l	l	n/a
483.992	0.165	967984	keystroke_e	e	n/a
484.082	0.12	968164	keystroke_r	r	n/a
485.117	0.135	970234	keystroke_Key.enter	Key.enter	n/a
485.2595	5.98	970519	prompt	n/a	clusters pick nose peterson\n
486.092	0.09	972184	keystroke_c	c	n/a
486.167	0.09	972334	keystroke_l	l	n/a
486.422	0.15	972844	keystroke_u	u	n/a
486.512	0.165	973024	keystroke_s	s	n/a
486.647	0.09	973294	keystroke_t	t	n/a
486.797	0.121	973594	keystroke_e	e	n/a
486.857	0.18	973714	keystroke_r	r	n/a
487.007	0.105	974014	keystroke_s	s	n/a
487.172	0.135	974344	keystroke_Key.space	Key.space	n/a
487.427	0.105	974854	keystroke_p	p	n/a
487.577	0.09	975154	keystroke_i	i	n/a
487.697	0.105	975394	keystroke_c	c	n/a
487.818	0.134	975636	keystroke_k	k	n/a
487.937	0.15	975874	keystroke_Key.space	Key.space	n/a
488.042	0.18	976084	keystroke_n	n	n/a
488.162	0.12	976324	keystroke_o	o	n/a
488.357	0.105	976714	keystroke_s	s	n/a
488.552	0.09	977104	keystroke_e	e	n/a
488.702	0.15	977404	keystroke_Key.space	Key.space	n/a
489.002	0.09	978004	keystroke_p	p	n/a
489.392	0.09	978784	keystroke_e	e	n/a
489.617	0.09	979234	keystroke_t	t	n/a
489.827	0.136	979654	keystroke_e	e	n/a
489.932	0.105	979864	keystroke_r	r	n/a
490.172	0.09	980344	keystroke_s	s	n/a
490.277	0.15	980554	keystroke_o	o	n/a
490.382	0.15	980764	keystroke_n	n	n/a
491.117	0.12	982234	keystroke_Key.enter	Key.enter	n/a
491.2445	10.4645	982489	prompt	n/a	brochure counseling scout sensitive\n
492.093	0.075	984186	keystroke_c	c	n/a
492.617	0.09	985234	keystroke_Key.backspace	Key.backspace	n/a
492.738	0.09	985476	keystroke_b	b	n/a
493.008	0.09	986016	keystroke_r	r	n/a
493.098	0.074	986196	keystroke_o	o	n/a
493.293	0.089	986586	keystroke_c	c	n/a
493.397	0.09	986794	keystroke_h	h	n/a
493.607	0.136	987214	keystroke_u	u	n/a
493.682	0.15	987364	keystroke_r	r	n/a
493.788	0.105	987576	keystroke_e	e	n/a
494.267	0.165	988534	keystroke_Key.space	Key.space	n/a
494.552	0.105	989104	keystroke_c	c	n/a
494.703	0.1045	989406	keystroke_o	o	n/a
495.3615	0.046	990723	keystroke_u	u	n/a
495.5565	0.106	991113	keystroke_n	n	n/a
495.6765	0.061	991353	keystroke_s	s	n/a
495.8565	0.075	991713	keystroke_e	e	n/a
495.9625	0.24	991925	keystroke_l	l	n/a
496.1125	0.18	992225	keystroke_i	i	n/a
496.1725	0.255	992345	keystroke_n	n	n/a
496.3075	0.074	992615	keystroke_g	g	n/a
496.3515	0.195	992703	keystroke_Key.space	Key.space	n/a
497.2075	0.09	994415	keystroke_s	s	n/a
497.4475	0.105	994895	keystroke_c	c	n/a
497.6875	0.15	995375	keystroke_o	o	n/a
497.8075	0.15	995615	keystroke_u	u	n/a
497.9575	0.075	995915	keystroke_t	t	n/a
498.0765	0.15	996153	keystroke_Key.space	Key.space	n/a
498.3025	0.119	996605	keystroke_s	s	n/a
498.6775	0.09	997355	keystroke_e	e	n/a
498.9025	0.12	997805	keystroke_n	n	n/a
499.0825	0.15	998165	keystroke_s	s	n/a
499.4125	0.105	998825	keystroke_i	i	n/a
499.6075	0.09	999215	keystroke_t	t	n/a
499.7125	0.135	999425	keystroke_i	i	n/a
500.1025	0.12	1000205	keystroke_v	v	n/a
500.2975	0.09	1000595	keystroke_e	e	n/a
501.5725	0.134	1003145	keystroke_Key.enter	Key.enter	n/a
501.7135	5.14	1003427	prompt	n/a	lens programmer hour chain\n
502.6225	0.105	1005245	keystroke_l	l	n/a
502.7575	0.075	1005515	keystroke_e	e	n/a
502.8475	0.12	1005695	keystroke_n	n	n/a
502.9825	0.105	1005965	keystroke_s	s	n/a
503.1015	0.12	1006203	keystroke_Key.space	Key.space	n/a
503.2375	0.12	1006475	keystroke_p	p	n/a
503.4025	0.075	1006805	keystroke_r	r	n/a
503.4925	0.12	1006985	keystroke_o	o	n/a
503.6275	0.075	1007255	keystroke_g	g	n/a
503.8075	0.135	1007615	keystroke_r	r	n/a
503.8975	0.12	1007795	keystroke_a	a	n/a
504.0175	0.06	1008035	keystroke_m	m	n/a
504.1525	0.135	1008305	keystroke_m	m	n/a
504.3025	0.15	1008605	keystroke_e	e	n/a
504.3775	0.135	1008755	keystroke_r	r	n/a
504.5715	0.136	1009143	keystroke_Key.space	Key.space	n/a
504.8425	0.105	1009685	keystroke_h	h	n/a
504.9925	0.135	1009985	keystroke_o	o	n/a
505.0825	0.135	1010165	keystroke_u	u	n/a
505.2025	0.105	1010405	keystroke_r	r	n/a
505.3225	0.119	1010645	keystroke_Key.space	Key.space	n/a
505.4725	0.105	1010945	keystroke_c	c	n/a
505.5625	0.105	1011125	keystroke_h	h	n/a
505.6825	0.105	1011365	keystroke_a	a	n/a
505.8625	0.15	1011725	keystroke_i	i	n/a
505.9675	0.12	1011935	keystroke_n	n	n/a
506.7325	0.12	1013465	keystroke_Key.enter	Key.enter	n/a
506.858	7.961	1013716	prompt	n/a	knights served asian qualified\n
507.6775	0.12	1015355	keystroke_k	k	n/a
507.8725	0.18	1015745	keystroke_n	n	n/a
508.0075	0.105	1016015	keystroke_i	i	n/a
508.1275	0.075	1016255	keystroke_g	g	n/a
508.2175	0.15	1016435	keystroke_h	h	n/a
508.3225	0.135	1016645	keystroke_t	t	n/a
508.4275	0.12	1016855	keystroke_s	s	n/a
508.5325	0.135	1017065	keystroke_Key.space	Key.space	n/a
508.9075	0.09	1017815	keystroke_s	s	n/a
509.3125	0.195	1018625	keystroke_e	e	n/a
509.6275	0.105	1019255	keystroke_r	r	n/a
510.2425	0.135	1020485	keystroke_v	v	n/a
510.4225	0.075	1020845	keystroke_e	e	n/a
510.6325	0.075	1021265	keystroke_d	d	n/a
510.7375	0.15	1021475	keystroke_Key.space	Key.space	n/a
511.4725	0.06	1022945	keystroke_a	a	n/a
511.6525	0.105	1023305	keystroke_s	s	n/a
511.7725	0.075	1023545	keystroke_i	i	n/a
511.8775	0.12	1023755	keystroke_a	a	n/a
511.9825	0.165	1023965	keystroke_n	n	n/a
512.0725	0.15	1024145	keystroke_Key.space	Key.space	n/a
512.3125	0.075	1024625	keystroke_q	q	n/a
512.4025	0.105	1024805	keystroke_u	u	n/a
512.5525	0.12	1025105	keystroke_a	a	n/a
512.6275	0.15	1025255	keystroke_l	l	n/a
512.7325	0.105	1025465	keystroke_i	i	n/a
512.8525	0.09	1025705	keystroke_f	f	n/a
512.9575	0.12	1025915	keystroke_i	i	n/a
513.0625	0.075	1026125	keystroke_e	e	n/a
513.2575	0.105	1026515	keystroke_d	d	n/a
514.6975	0.12	1029395	keystroke_Key.enter	Key.enter	n/a
514.824	12.7745	1029648	prompt	n/a	russia mightn't environment cubic\n
515.7475	0.105	1031495	keystroke_r	r	n/a
515.8975	0.135	1031795	keystroke_u	u	n/a
516.0025	0.075	1032005	keystroke_s	s	n/a
516.1675	0.12	1032335	keystroke_s	s	n/a
516.2725	0.075	1032545	keystroke_i	i	n/a
516.4225	0.105	1032845	keystroke_a	a	n/a
516.5875	0.135	1033175	keystroke_Key.space	Key.space	n/a
516.9325	0.165	1033865	keystroke_m	m	n/a
517.0375	0.135	1034075	keystroke_i	i	n/a
517.1425	0.09	1034285	keystroke_g	g	n/a
518.2825	0.06	1036565	keystroke_t	t	n/a
519.1075	0.075	1038215	keystroke_Key.backspace	Key.backspace	n/a
520.2475	0.12	1040495	keystroke_h	h	n/a
520.5475	0.075	1041095	keystroke_t	t	n/a
521.0575	0.135	1042115	keystroke_n	n	n/a
521.3275	0.12	1042655	keystroke_'	'	n/a
521.5675	0.06	1043135	keystroke_t	t	n/a
521.7025	0.135	1043405	keystroke_Key.space	Key.space	n/a
522.2275	0.075	1044455	keystroke_e	e	n/a
522.4375	0.12	1044875	keystroke_n	n	n/a
522.6325	0.105	1045265	keystroke_v	v	n/a
522.8275	0.105	1045655	keystroke_i	i	n/a
523.7425	0.105	1047485	keystroke_r	r	n/a
523.8625	0.135	1047725	keystroke_o	o	n/a
524.0275	0.105	1048055	keystroke_n	n	n/a
524.2825	0.105	1048565	keystroke_m	m	n/a
524.3725	0.09	1048745	keystroke_e	e	n/a
524.4925	0.105	1048985	keystroke_n	n	n/a
524.6125	0.06	1049225	keystroke_t	t	n/a
525.3175	0.15	1050635	keystroke_Key.space	Key.space	n/a
525.7525	0.09	1051505	keystroke_c	c	n/a
525.8575	0.12	1051715	keystroke_u	u	n/a
526.0225	0.105	1052045	keystroke_b	b	n/a
526.2625	0.09	1052525	keystroke_i	i	n/a
526.4425	0.09	1052885	keystroke_c	c	n/a
527.4625	0.135	1054925	keystroke_Key.enter	Key.enter	n/a
527.603	6.326	1055206	prompt	n/a	recipes winds poet engaging\n
528.3625	0.105	1056725	keystroke_r	r	n/a
528.4975	0.09	1056995	keystroke_e	e	n/a
528.7225	0.105	1057445	keystroke_c	c	n/a
528.8875	0.105	1057775	keystroke_i	i	n/a
528.9625	0.135	1057925	keystroke_p	p	n/a
529.1425	0.12	1058285	keystroke_e	e	n/a
529.2175	0.135	1058435	keystroke_s	s	n/a
529.3675	0.135	1058735	keystroke_Key.space	Key.space	n/a
529.9375	0.105	1059875	keystroke_w	w	n/a
530.0575	0.135	1060115	keystroke_i	i	n/a
530.1175	0.165	1060235	keystroke_n	n	n/a
530.2375	0.165	1060475	keystroke_d	d	n/a
530.3875	0.135	1060775	keystroke_s	s	n/a
530.5675	0.135	1061135	keystroke_Key.space	Key.space	n/a
531.2275	0.105	1062455	keystroke_p	p	n/a
531.4225	0.105	1062845	keystroke_o	o	n/a
531.5425	0.09	1063085	keystroke_e	e	n/a
531.7675	0.075	1063535	keystroke_t	t	n/a
531.9325	0.135	1063865	keystroke_Key.space	Key.space	n/a
532.2025	0.09	1064405	keystroke_e	e	n/a
532.3225	0.15	1064645	keystroke_n	n	n/a
532.4425	0.09	1064885	keystroke_g	g	n/a
532.5775	0.135	1065155	keystroke_a	a	n/a
532.6825	0.105	1065365	keystroke_g	g	n/a
532.8025	0.15	1065605	keystroke_i	i	n/a
532.8775	0.165	1065755	keystroke_n	n	n/a
532.9825	0.075	1065965	keystroke_g	g	n/a
533.8375	0.09	1067675	keystroke_Key.enter	Key.enter	n/a
533.933	10.616	1067866	prompt	n/a	italic combinations argentina gateway\n
534.8575	0.12	1069715	keystroke_i	i	n/a
534.9785	0.104	1069957	keystroke_t	t	n/a
535.2025	0.12	1070405	keystroke_a	a	n/a
535.3375	0.195	1070675	keystroke_l	l	n/a
535.4575	0.135	1070915	keystroke_i	i	n/a
535.6075	0.09	1071215	keystroke_c	c	n/a
535.9825	0.15	1071965	keystroke_Key.space	Key.space	n/a
536.2825	0.105	1072565	keystroke_c	c	n/a
536.4175	0.075	1072835	keystroke_o	o	n/a
536.6575	0.09	1073315	keystroke_m	m	n/a
536.8675	0.09	1073735	keystroke_b	b	n/a
537.0475	0.09	1074095	keystroke_i	i	n/a
537.2725	0.12	1074545	keystroke_n	n	n/a
537.4525	0.135	1074905	keystroke_a	a	n/a
537.5125	0.135	1075025	keystroke_t	t	n/a
537.6175	0.105	1075235	keystroke_i	i	n/a
537.6775	0.18	1075355	keystroke_o	o	n/a
537.7975	0.15	1075595	keystroke_n	n	n/a
537.9325	0.075	1075865	keystroke_s	s	n/a
538.3375	0.135	1076675	keystroke_Key.space	Key.space	n/a
538.7125	0.12	1077425	keystroke_a	a	n/a
539.1625	0.09	1078325	keystroke_r	r	n/a
539.4175	0.075	1078835	keystroke_g	g	n/a
539.5825	0.075	1079165	keystroke_e	e	n/a
539.6875	0.12	1079375	keystroke_n	n	n/a
539.7925	0.09	1079585	keystroke_t	t	n/a
539.9275	0.135	1079855	keystroke_i	i	n/a
540.0175	0.15	1080035	keystroke_n	n	n/a
540.2125	0.06	1080425	keystroke_a	a	n/a
540.5725	0.15	1081145	keystroke_Key.space	Key.space	n/a
540.9325	0.09	1081865	keystroke_g	g	n/a
541.1125	0.12	1082225	keystroke_a	a	n/a
541.3525	0.09	1082705	keystroke_t	t	n/a
541.8025	0.09	1083605	keystroke_e	e	n/a
542.1475	0.09	1084295	keystroke_w	w	n/a
542.3725	0.105	1084745	keystroke_a	a	n/a
542.4925	0.12	1084985	keystroke_y	y	n/a
544.412	0.135	1088824	keystroke_Key.enter	Key.enter	n/a
544.5535	4.481	1089107	prompt	n/a	awful dishes gone manual\n
545.402	0.105	1090804	keystroke_a	a	n/a
545.582	0.09	1091164	keystroke_w	w	n/a
545.7475	0.0745	1091495	keystroke_f	f	n/a
545.897	0.18	1091794	keystroke_u	u	n/a
546.017	0.18	1092034	keystroke_l	l	n/a
546.122	0.15	1092244	keystroke_Key.space	Key.space	n/a
546.287	0.06	1092574	keystroke_d	d	n/a
546.377	0.09	1092754	keystroke_i	i	n/a
546.452	0.105	1092904	keystroke_s	s	n/a
546.617	0.135	1093234	keystroke_h	h	n/a
546.692	0.18	1093384	keystroke_e	e	n/a
546.782	0.135	1093564	keystroke_s	s	n/a
546.932	0.105	1093864	keystroke_Key.space	Key.space	n/a
547.097	0.09	1094194	keystroke_g	g	n/a
547.217	0.135	1094434	keystroke_o	o	n/a
547.292	0.18	1094584	keystroke_n	n	n/a
547.382	0.12	1094764	keystroke_e	e	n/a
547.487	0.12	1094974	keystroke_Key.space	Key.space	n/a
547.577	0.12	1095154	keystroke_m	m	n/a
547.712	0.12	1095424	keystroke_a	a	n/a
547.817	0.075	1095634	keystroke_n	n	n/a
548.027	0.12	1096054	keystroke_u	u	n/a
548.177	0.09	1096354	keystroke_a	a	n/a
548.327	0.105	1096654	keystroke_l	l	n/a
548.927	0.105	1097854	keystroke_Key.enter	Key.enter	n/a
549.039	13.2845	1098078	prompt	n/a	assisted disclosure bugs frequencies\n
549.872	0.105	1099744	keystroke_a	a	n/a
550.007	0.075	1100014	keystroke_s	s	n/a
550.172	0.105	1100344	keystroke_s	s	n/a
550.352	0.12	1100704	keystroke_i	i	n/a
550.652	0.09	1101304	keystroke_s	s	n/a
550.967	0.195	1101934	keystroke_t	t	n/a
551.147	0.06	1102294	keystroke_e	e	n/a
551.342	0.09	1102684	keystroke_d	d	n/a
551.477	0.135	1102954	keystroke_Key.space	Key.space	n/a
552.002	0.075	1104004	keystroke_d	d	n/a
552.092	0.105	1104184	keystroke_i	i	n/a
552.242	0.045	1104484	keystroke_s	s	n/a
552.407	0.09	1104814	keystroke_c	c	n/a
552.557	0.09	1105114	keystroke_o	o	n/a
552.827	0.105	1105654	keystroke_l	l	n/a
553.412	0.075	1106824	keystroke_Key.backspace	Key.backspace	n/a
553.592	0.075	1107184	keystroke_Key.backspace	Key.backspace	n/a
553.922	0.09	1107844	keystroke_l	l	n/a
554.162	0.075	1108324	keystroke_o	o	n/a
554.297	0.09	1108594	keystroke_s	s	n/a
554.432	0.135	1108864	keystroke_u	u	n/a
554.552	0.135	1109104	keystroke_r	r	n/a
554.642	0.105	1109284	keystroke_e	e	n/a
556.727	0.165	1113454	keystroke_Key.space	Key.space	n/a
556.907	0.09	1113814	keystroke_b	b	n/a
557.042	0.165	1114084	keystroke_u	u	n/a
557.192	0.075	1114384	keystroke_g	g	n/a
557.402	0.075	1114804	keystroke_s	s	n/a
557.507	0.15	1115014	keystroke_Key.space	Key.space	n/a
558.137	0.12	1116274	keystroke_f	f	n/a
558.467	0.135	1116934	keystroke_r	r	n/a
558.647	0.12	1117294	keystroke_e	e	n/a
558.887	0.105	1117774	keystroke_q	q	n/a
558.977	0.105	1117954	keystroke_u	u	n/a
559.247	0.12	1118494	keystroke_n	n	n/a
559.382	0.075	1118764	keystroke_c	c	n/a
559.727	0.06	1119454	keystroke_Key.backspace	Key.backspace	n/a
559.892	0.075	1119784	keystroke_Key.backspace	Key.backspace	n/a
560.027	0.09	1120054	keystroke_e	e	n/a
560.177	0.09	1120354	keystroke_n	n	n/a
560.327	0.105	1120654	keystroke_c	c	n/a
560.537	0.105	1121074	keystroke_i	i	n/a
560.657	0.15	1121314	keystroke_e	e	n/a
560.777	0.12	1121554	keystroke_s	s	n/a
562.232	0.09	1124464	keystroke_Key.enter	Key.enter	n/a
562.329	7.7495	1124658	prompt	n/a	initially places mainstream episode\n
563.192	0.06	1126384	keystroke_i	i	n/a
563.357	0.135	1126714	keystroke_n	n	n/a
563.477	0.105	1126954	keystroke_i	i	n/a
563.612	0.09	1127224	keystroke_t	t	n/a
563.717	0.09	1127434	keystroke_i	i	n/a
563.852	0.135	1127704	keystroke_a	a	n/a
563.942	0.075	1127884	keystroke_l	l	n/a
564.107	0.24	1128214	keystroke_l	l	n/a
564.242	0.135	1128484	keystroke_y	y	n/a
564.317	0.15	1128634	keystroke_Key.space	Key.space	n/a
564.947	0.1345	1129894	keystroke_p	p	n/a
565.022	0.1495	1130044	keystroke_l	l	n/a
565.142	0.0895	1130284	keystroke_a	a	n/a
565.3515	0.061	1130703	keystroke_c	c	n/a
565.5765	0.15	1131153	keystroke_e	e	n/a
565.6665	0.12	1131333	keystroke_s	s	n/a
565.7715	0.12	1131543	keystroke_Key.space	Key.space	n/a
566.0715	0.12	1132143	keystroke_m	m	n/a
566.3265	0.12	1132653	keystroke_a	a	n/a
566.4615	0.151	1132923	keystroke_i	i	n/a
566.5515	0.181	1133103	keystroke_n	n	n/a
566.6865	0.18	1133373	keystroke_s	s	n/a
566.8515	0.075	1133703	keystroke_t	t	n/a
567.0325	0.209	1134065	keystroke_r	r	n/a
567.1215	0.18	1134243	keystroke_e	e	n/a
567.1965	0.136	1134393	keystroke_a	a	n/a
567.3165	0.15	1134633	keystroke_m	m	n/a
567.4215	0.135	1134843	keystroke_Key.space	Key.space	n/a
568.0515	0.09	1136103	keystroke_e	e	n/a
568.3065	0.106	1136613	keystroke_p	p	n/a
568.5165	0.091	1137033	keystroke_i	i	n/a
568.6375	0.074	1137275	keystroke_s	s	n/a
568.7715	0.105	1137543	keystroke_o	o	n/a
568.8915	0.06	1137783	keystroke_d	d	n/a
569.0715	0.09	1138143	keystroke_e	e	n/a
569.9715	0.105	1139943	keystroke_Key.enter	Key.enter	n/a
570.0865	8.737	1140173	prompt	n/a	username groundwater schedule steal\n
570.9165	0.15	1141833	keystroke_u	u	n/a
571.0965	0.045	1142193	keystroke_s	s	n/a
571.2465	0.12	1142493	keystroke_e	e	n/a
571.2915	0.15	1142583	keystroke_r	r	n/a
571.4425	0.104	1142885	keystroke_n	n	n/a
571.6065	0.09	1143213	keystroke_a	a	n/a
571.6825	0.119	1143365	keystroke_m	m	n/a
571.8165	0.091	1143633	keystroke_e	e	n/a
571.9215	0.165	1143843	keystroke_Key.space	Key.space	n/a
572.7015	0.06	1145403	keystroke_g	g	n/a
572.8815	0.12	1145763	keystroke_r	r	n/a
572.9715	0.135	1145943	keystroke_o	o	n/a
573.0615	0.105	1146123	keystroke_u	u	n/a
573.3015	0.12	1146603	keystroke_n	n	n/a
573.3915	0.075	1146783	keystroke_d	d	n/a
573.6165	0.09	1147233	keystroke_w	w	n/a
573.8415	0.165	1147683	keystroke_a	a	n/a
573.9475	0.119	1147895	keystroke_t	t	n/a
574.1125	0.194	1148225	keystroke_e	e	n/a
574.2615	0.121	1148523	keystroke_r	r	n/a
574.9365	0.135	1149873	keystroke_Key.space	Key.space	n/a
575.3125	0.09	1150625	keystroke_c	c	n/a
575.7465	0.105	1151493	keystroke_Key.backspace	Key.backspace	n/a
575.8375	0.074	1151675	keystroke_s	s	n/a
576.0465	0.091	1152093	keystroke_c	c	n/a
576.1525	0.105	1152305	keystroke_h	h	n/a
576.3015	0.061	1152603	keystroke_e	e	n/a
576.4825	0.105	1152965	keystroke_d	d	n/a
576.5725	0.165	1153145	keystroke_u	u	n/a
576.7075	0.105	1153415	keystroke_l	l	n/a
576.7675	0.089	1153535	keystroke_e	e	n/a
577.1565	0.105	1154313	keystroke_Key.space	Key.space	n/a
577.5915	0.15	1155183	keystroke_s	s	n/a
577.7265	0.211	1155453	keystroke_t	t	n/a
577.8175	0.165	1155635	keystroke_e	e	n/a
577.9375	0.135	1155875	keystroke_a	a	n/a
578.0875	0.12	1156175	keystroke_l	l	n/a
578.7315	0.09	1157463	keystroke_Key.enter	Key.enter	n/a
578.8285	7.135	1157657	prompt	n/a	specialty interval item hang\n
579.6925	0.104	1159385	keystroke_s	s	n/a
579.8125	0.134	1159625	keystroke_p	p	n/a
579.9625	0.059	1159925	keystroke_e	e	n/a
580.4115	0.091	1160823	keystroke_c	c	n/a
580.6225	0.09	1161245	keystroke_i	i	n/a
580.8465	0.121	1161693	keystroke_a	a	n/a
581.0265	0.091	1162053	keystroke_l	l	n/a
581.2215	0.076	1162443	keystroke_t	t	n/a
581.4015	0.121	1162803	keystroke_y	y	n/a
581.6265	0.135	1163253	keystroke_Key.space	Key.space	n/a
582.1975	0.15	1164395	keystroke_i	i	n/a
582.2875	0.165	1164575	keystroke_n	n	n/a
582.4525	0.105	1164905	keystroke_t	t	n/a
582.5575	0.15	1165115	keystroke_e	e	n/a
582.6775	0.09	1165355	keystroke_r	r	n/a
582.9165	0.15	1165833	keystroke_v	v	n/a
583.1125	0.12	1166225	keystroke_a	a	n/a
583.1865	0.151	1166373	keystroke_l	l	n/a
583.3065	0.135	1166613	keystroke_Key.space	Key.space	n/a
584.1175	0.105	1168235	keystroke_i	i	n/a
584.2375	0.135	1168475	keystroke_t	t	n/a
584.3575	0.09	1168715	keystroke_e	e	n/a
584.4625	0.135	1168925	keystroke_m	m	n/a
584.5815	0.09	1169163	keystroke_Key.space	Key.space	n/a
584.7325	0.075	1169465	keystroke_h	h	n/a
584.8075	0.09	1169615	keystroke_a	a	n/a
584.9275	0.12	1169855	keystroke_n	n	n/a
585.0025	0.075	1170005	keystroke_g	g	n/a
585.8865	0.075	1171773	keystroke_Key.enter	Key.enter	n/a
585.9685	10.3905	1171937	prompt	n/a	laser bond wednesday fraser\n
586.6375	0.105	1173275	keystroke_l	l	n/a
586.7275	0.12	1173455	keystroke_a	a	n/a
586.8175	0.12	1173635	keystroke_s	s	n/a
587.0575	0.135	1174115	keystroke_e	e	n/a
587.1325	0.105	1174265	keystroke_r	r	n/a
587.2515	0.106	1174503	keystroke_Key.space	Key.space	n/a
587.3725	0.105	1174745	keystroke_b	b	n/a
587.5225	0.105	1175045	keystroke_o	o	n/a
587.5825	0.165	1175165	keystroke_n	n	n/a
587.7025	0.09	1175405	keystroke_d	d	n/a
588.3325	0.119	1176665	keystroke_Key.space	Key.space	n/a
588.5125	0.105	1177025	keystroke_w	w	n/a
589.0525	0.045	1178105	keystroke_d	d	n/a
589.2025	0.15	1178405	keystroke_n	n	n/a
589.3375	0.075	1178675	keystroke_e	e	n/a
589.8465	0.075	1179693	keystroke_Key.backspace	Key.backspace	n/a
590.0265	0.061	1180053	keystroke_Key.backspace	Key.backspace	n/a
590.1765	0.075	1180353	keystroke_Key.backspace	Key.backspace	n/a
590.3575	0.06	1180715	keystroke_e	e	n/a
590.6425	0.135	1181285	keystroke_n	n	n/a
590.8675	0.075	1181735	keystroke_d	d	n/a
591.1375	0.105	1182275	keystroke_e	e	n/a
591.5875	0.075	1183175	keystroke_Key.backspace	Key.backspace	n/a
591.7665	0.075	1183533	keystroke_Key.backspace	Key.backspace	n/a
591.9325	0.089	1183865	keystroke_Key.backspace	Key.backspace	n/a
592.1275	0.09	1184255	keystroke_d	d	n/a
592.4575	0.105	1184915	keystroke_n	n	n/a
592.5925	0.09	1185185	keystroke_e	e	n/a
592.8025	0.09	1185605	keystroke_s	s	n/a
593.0425	0.075	1186085	keystroke_d	d	n/a
593.2225	0.105	1186445	keystroke_a	a	n/a
593.2975	0.15	1186595	keystroke_y	y	n/a
593.3875	0.15	1186775	keystroke_Key.space	Key.space	n/a
594.3475	0.075	1188695	keystroke_f	f	n/a
594.5275	0.15	1189055	keystroke_r	r	n/a
594.6475	0.15	1189295	keystroke_a	a	n/a
594.8125	0.075	1189625	keystroke_s	s	n/a
594.9925	0.135	1189985	keystroke_e	e	n/a
595.0675	0.12	1190135	keystroke_r	r	n/a
596.2375	0.12	1192475	keystroke_Key.enter	Key.enter	n/a
596.3635	6.7455	1192727	prompt	n/a	drivers uniform tension weddings\n
597.1525	0.075	1194305	keystroke_d	d	n/a
597.3175	0.075	1194635	keystroke_r	r	n/a
597.4525	0.09	1194905	keystroke_i	i	n/a
597.5275	0.09	1195055	keystroke_v	v	n/a
597.6625	0.21	1195325	keystroke_e	e	n/a
597.7825	0.15	1195565	keystroke_r	r	n/a
597.8125	0.105	1195625	keystroke_s	s	n/a
597.9325	0.135	1195865	keystroke_Key.space	Key.space	n/a
598.1575	0.075	1196315	keystroke_u	u	n/a
598.3675	0.15	1196735	keystroke_n	n	n/a
598.4875	0.135	1196975	keystroke_i	i	n/a
598.7125	0.105	1197425	keystroke_f	f	n/a
598.8625	0.09	1197725	keystroke_o	o	n/a
598.9675	0.09	1197935	keystroke_r	r	n/a
599.1325	0.15	1198265	keystroke_m	m	n/a
599.9275	0.15	1199855	keystroke_Key.space	Key.space	n/a
600.1375	0.105	1200275	keystroke_t	t	n/a
600.2575	0.12	1200515	keystroke_e	e	n/a
600.3925	0.12	1200785	keystroke_n	n	n/a
600.5275	0.09	1201055	keystroke_s	s	n/a
600.6325	0.135	1201265	keystroke_i	i	n/a
600.7375	0.18	1201475	keystroke_o	o	n/a
600.8425	0.195	1201685	keystroke_n	n	n/a
600.9475	0.165	1201895	keystroke_Key.space	Key.space	n/a
601.1425	0.105	1202285	keystroke_w	w	n/a
601.3525	0.075	1202705	keystroke_e	e	n/a
601.5625	0.06	1203125	keystroke_d	d	n/a
601.7275	0.105	1203455	keystroke_d	d	n/a
601.7875	0.165	1203575	keystroke_i	i	n/a
601.8775	0.195	1203755	keystroke_n	n	n/a
601.9975	0.135	1203995	keystroke_g	g	n/a
602.1475	0.09	1204295	keystroke_s	s	n/a
603.0025	0.105	1206005	keystroke_Key.enter	Key.enter	n/a
603.114	6.6245	1206228	prompt	n/a	prepare knew industry syria\n
603.9175	0.09	1207835	keystroke_p	p	n/a
604.0375	0.135	1208075	keystroke_r	r	n/a
604.1875	0.09	1208375	keystroke_e	e	n/a
604.2625	0.09	1208525	keystroke_p	p	n/a
604.3975	0.135	1208795	keystroke_a	a	n/a
604.4725	0.15	1208945	keystroke_r	r	n/a
604.6375	0.09	1209275	keystroke_e	e	n/a
604.7875	0.12	1209575	keystroke_Key.space	Key.space	n/a
605.3575	0.09	1210715	keystroke_k	k	n/a
605.5675	0.15	1211135	keystroke_n	n	n/a
605.6425	0.195	1211285	keystroke_e	e	n/a
605.7625	0.1345	1211525	keystroke_w	w	n/a
605.987	0.1205	1211974	keystroke_Key.space	Key.space	n/a
606.707	0.135	1213414	keystroke_i	i	n/a
606.782	0.15	1213564	keystroke_n	n	n/a
606.9175	0.0895	1213835	keystroke_d	d	n/a
607.067	0.15	1214134	keystroke_u	u	n/a
607.142	0.15	1214284	keystroke_s	s	n/a
607.247	0.09	1214494	keystroke_t	t	n/a
607.457	0.105	1214914	keystroke_r	r	n/a
607.532	0.135	1215064	keystroke_y	y	n/a
607.622	0.12	1215244	keystroke_Key.space	Key.space	n/a
608.252	0.09	1216504	keystroke_s	s	n/a
608.432	0.12	1216864	keystroke_y	y	n/a
608.582	0.09	1217164	keystroke_r	r	n/a
