onset	duration	sample	value	key	prompt_text
6.298	8.965	12596	prompt	n/a	the quick brown fox jumps over a lazy dog\n
7.7035	0	15407	keystroke_t	t	n/a
7.7315	0.09	15463	keystroke_h	h	n/a
7.8215	0.09	15643	keystroke_e	e	n/a
7.956	0.09	15912	keystroke_Key.space	Key.space	n/a
8.271	0.075	16542	keystroke_q	q	n/a
8.391	0.09	16782	keystroke_u	u	n/a
8.526	0.09	17052	keystroke_i	i	n/a
8.721	0.075	17442	keystroke_c	c	n/a
8.841	0.135	17682	keystroke_k	k	n/a
8.991	0.06	17982	keystroke_Key.space	Key.space	n/a
9.126	0.075	18252	keystroke_b	b	n/a
9.231	0.09	18462	keystroke_r	r	n/a
9.351	0.09	18702	keystroke_o	o	n/a
9.456	0.06	18912	keystroke_w	w	n/a
9.576	0.12	19152	keystroke_n	n	n/a
9.711	0.12	19422	keystroke_Key.space	Key.space	n/a
10.3405	0.075	20681	keystroke_f	f	n/a
10.5205	0.06	21041	keystroke_o	o	n/a
10.7605	0.075	21521	keystroke_x	x	n/a
10.8655	0.105	21731	keystroke_Key.space	Key.space	n/a
10.9705	0.09	21941	keystroke_j	j	n/a
11.1505	0.06	22301	keystroke_u	u	n/a
11.3305	0.075	22661	keystroke_m	m	n/a
11.4505	0.15	22901	keystroke_p	p	n/a
11.9605	0.06	23921	keystroke_s	s	n/a
12.0505	0.105	24101	keystroke_Key.space	Key.space	n/a
12.1855	0.075	24371	keystroke_o	o	n/a
12.2755	0.03	24551	keystroke_v	v	n/a
12.7555	0.075	25511	keystroke_e	e	n/a
12.8005	0.09	25601	keystroke_r	r	n/a
12.9205	0.075	25841	keystroke_Key.space	Key.space	n/a
13.0255	0.075	26051	keystroke_a	a	n/a
13.1455	0.075	26291	keystroke_Key.space	Key.space	n/a
13.4755	0.09	26951	keystroke_l	l	n/a
13.5955	0.09	27191	keystroke_a	a	n/a
14.3305	0.06	28661	keystroke_z	z	n/a
14.5705	0.135	29141	keystroke_y	y	n/a
14.6605	0.105	29321	keystroke_Key.space	Key.space	n/a
14.7805	0.075	29561	keystroke_d	d	n/a
14.9005	0.105	29801	keystroke_o	o	n/a
15.0505	0.075	30101	keystroke_g	g	n/a
15.2005	0.06	30401	keystroke_Key.enter	Key.enter	n/a
15.2675	12.835	30535	prompt	n/a	whom'st senior knowledgestorm silk\n
16.3705	0.06	32741	keystroke_w	w	n/a
16.4755	0.09	32951	keystroke_h	h	n/a
16.5505	0.135	33101	keystroke_o	o	n/a
16.8805	0.075	33761	keystroke_m	m	n/a
17.3005	0.045	34601	keystroke_'	'	n/a
17.3905	0.105	34781	keystroke_s	s	n/a
17.5105	0.06	35021	keystroke_t	t	n/a
17.6755	0.09	35351	keystroke_Key.space	Key.space	n/a
18.4255	0.06	36851	keystroke_s	s	n/a
18.5605	0.0755	37121	keystroke_e	e	n/a
18.726	0.119	37452	keystroke_n	n	n/a
18.861	0.089	37722	keystroke_i	i	n/a
18.965	0.135	37930	keystroke_o	o	n/a
19.16	0.03	38320	keystroke_r	r	n/a
19.4455	0.105	38891	keystroke_Key.space	Key.space	n/a
20.5705	0.15	41141	keystroke_k	k	n/a
20.7355	0.075	41471	keystroke_n	n	n/a
21.1555	0.105	42311	keystroke_o	o	n/a
21.6655	0.075	43331	keystroke_w	w	n/a
21.86	0.075	43720	keystroke_l	l	n/a
22.326	0.09	44652	keystroke_e	e	n/a
22.641	0.075	45282	keystroke_g	g	n/a
25.973	0	51946	keystroke_e	e	n/a
26.121	0.075	52242	keystroke_s	s	n/a
26.451	0.12	52902	keystroke_t	t	n/a
26.616	0.09	53232	keystroke_o	o	n/a
26.721	0.075	53442	keystroke_r	r	n/a
26.886	0.105	53772	keystroke_m	m	n/a
27.036	0.105	54072	keystroke_Key.space	Key.space	n/a
27.216	0.075	54432	keystroke_s	s	n/a
27.321	0.06	54642	keystroke_i	i	n/a
27.471	0.075	54942	keystroke_l	l	n/a
27.636	0.075	55272	keystroke_k	k	n/a
28.056	0.045	56112	keystroke_Key.enter	Key.enter	n/a
28.1065	12.071	56213	prompt	n/a	combines vacations tablet cigarettes\n
29.2255	0.09	58451	keystroke_c	c	n/a
29.3605	0.15	58721	keystroke_o	o	n/a
29.4805	0.09	58961	keystroke_m	m	n/a
29.6455	0.12	59291	keystroke_i	i	n/a
29.7205	0.105	59441	keystroke_n	n	n/a
29.8855	0.09	59771	keystroke_e	e	n/a
29.9905	0.105	59981	keystroke_s	s	n/a
30.1705	0.09	60341	keystroke_Key.space	Key.space	n/a
30.5605	0.06	61121	keystroke_Key.backspace	Key.backspace	n/a
30.6955	0.06	61391	keystroke_Key.backspace	Key.backspace	n/a
30.8455	0.061	61691	keystroke_Key.backspace	Key.backspace	n/a
30.9805	0.06	61961	keystroke_Key.backspace	Key.backspace	n/a
32.3455	0.075	64691	keystroke_Key.backspace	Key.backspace	n/a
32.7065	0.089	65413	keystroke_b	b	n/a
32.8565	0.179	65713	keystroke_i	i	n/a
33.0505	0.09	66101	keystroke_n	n	n/a
33.2005	0.075	66401	keystroke_e	e	n/a
33.2605	0.105	66521	keystroke_s	s	n/a
33.3955	0.12	66791	keystroke_Key.space	Key.space	n/a
33.6365	0.089	67273	keystroke_c	c	n/a
33.7565	0.06	67513	keystroke_a	a	n/a
34.6105	0.045	69221	keystroke_Key.backspace	Key.backspace	n/a
34.7305	0.075	69461	keystroke_Key.backspace	Key.backspace	n/a
35.6315	0.089	71263	keystroke_v	v	n/a
35.7955	0.061	71591	keystroke_a	a	n/a
35.9315	0.104	71863	keystroke_c	c	n/a
36.0815	0.089	72163	keystroke_a	a	n/a
36.2605	0.09	72521	keystroke_t	t	n/a
36.3655	0.105	72731	keystroke_i	i	n/a
36.4415	0.164	72883	keystroke_o	o	n/a
36.5755	0.106	73151	keystroke_n	n	n/a
36.6955	0.09	73391	keystroke_s	s	n/a
36.8155	0.12	73631	keystroke_Key.space	Key.space	n/a
36.9655	0.09	73931	keystroke_t	t	n/a
37.0705	0.061	74141	keystroke_a	a	n/a
37.1315	0.089	74263	keystroke_b	b	n/a
37.3255	0.061	74651	keystroke_l	l	n/a
37.4005	0.09	74801	keystroke_e	e	n/a
37.5955	0.076	75191	keystroke_t	t	n/a
37.7005	0.12	75401	keystroke_Key.space	Key.space	n/a
38.0315	0.089	76063	keystroke_c	c	n/a
38.1355	0.075	76271	keystroke_i	i	n/a
38.9905	0.075	77981	keystroke_g	g	n/a
39.1255	0.09	78251	keystroke_a	a	n/a
39.3065	0.059	78613	keystroke_r	r	n/a
39.4555	0.076	78911	keystroke_e	e	n/a
39.6655	0.06	79331	keystroke_t	t	n/a
39.8155	0.045	79631	keystroke_t	t	n/a
39.8905	0.061	79781	keystroke_e	e	n/a
40.1155	0.06	80231	keystroke_Key.enter	Key.enter	n/a
40.1805	8.112	80361	prompt	n/a	correct circular fossil novel\n
40.9865	0.089	81973	keystroke_c	c	n/a
41.1055	0.09	82211	keystroke_o	o	n/a
41.2565	0.044	82513	keystroke_r	r	n/a
41.3615	0.104	82723	keystroke_r	r	n/a
41.4955	0.075	82991	keystroke_e	e	n/a
41.6605	0.105	83321	keystroke_c	c	n/a
41.8705	0.09	83741	keystroke_t	t	n/a
41.9755	0.105	83951	keystroke_Key.space	Key.space	n/a
42.3205	0.075	84641	keystroke_c	c	n/a
42.4255	0.06	84851	keystroke_i	i	n/a
42.5905	0.06	85181	keystroke_r	r	n/a
42.8315	0.074	85663	keystroke_c	c	n/a
42.9205	0.075	85841	keystroke_u	u	n/a
43.1005	0.075	86201	keystroke_l	l	n/a
43.1905	0.12	86381	keystroke_a	a	n/a
43.3255	0.075	86651	keystroke_r	r	n/a
43.4155	0.12	86831	keystroke_Key.space	Key.space	n/a
44.3155	0.06	88631	keystroke_f	f	n/a
44.5405	0.015	89081	keystroke_o	o	n/a
44.5855	0.075	89171	keystroke_s	s	n/a
44.7355	0.045	89471	keystroke_s	s	n/a
44.8105	0.075	89621	keystroke_i	i	n/a
44.9755	0.06	89951	keystroke_b	b	n/a
45.1565	0.044	90313	keystroke_l	l	n/a
45.8905	0.045	91781	keystroke_Key.backspace	Key.backspace	n/a
46.0105	0.075	92021	keystroke_Key.backspace	Key.backspace	n/a
46.7455	0.075	93491	keystroke_l	l	n/a
46.9255	0.06	93851	keystroke_Key.space	Key.space	n/a
47.5555	0.09	95111	keystroke_n	n	n/a
47.6755	0.091	95351	keystroke_o	o	n/a
47.7815	0.059	95563	keystroke_v	v	n/a
47.8855	0.09	95771	keystroke_e	e	n/a
48.0215	0.074	96043	keystroke_l	l	n/a
48.2155	0.075	96431	keystroke_Key.enter	Key.enter	n/a
48.2955	12.447	96591	prompt	n/a	intermediate announcements barrel allan\n
49.1465	0.089	98293	keystroke_i	i	n/a
49.2955	0.106	98591	keystroke_n	n	n/a
49.4155	0.091	98831	keystroke_t	t	n/a
49.5815	0.119	99163	keystroke_e	e	n/a
49.6855	0.061	99371	keystroke_r	r	n/a
49.9705	0.106	99941	keystroke_m	m	n/a
50.1815	0.089	100363	keystroke_e	e	n/a
50.4205	0.075	100841	keystroke_d	d	n/a
50.5115	0.105	101023	keystroke_i	i	n/a
50.6005	0.136	101201	keystroke_c	c	n/a
50.7515	0.134	101503	keystroke_a	a	n/a
50.8705	0.09	101741	keystroke_t	t	n/a
50.9765	0.075	101953	keystroke_e	e	n/a
51.2905	0.045	102581	keystroke_Key.backspace	Key.backspace	n/a
51.4405	0.045	102881	keystroke_Key.backspace	Key.backspace	n/a
51.5755	0.045	103151	keystroke_Key.backspace	Key.backspace	n/a
51.7105	0.06	103421	keystroke_Key.backspace	Key.backspace	n/a
51.7855	0.106	103571	keystroke_t	t	n/a
51.9505	0.106	103901	keystroke_e	e	n/a
52.5805	0.06	105161	keystroke_Key.backspace	Key.backspace	n/a
52.7305	0.045	105461	keystroke_Key.backspace	Key.backspace	n/a
53.1815	0.045	106363	keystroke_a	a	n/a
53.2705	0.061	106541	keystroke_t	t	n/a
53.4065	0.059	106813	keystroke_e	e	n/a
53.6005	0.075	107201	keystroke_Key.space	Key.space	n/a
54.951	0.06	109902	keystroke_a	a	n/a
55.146	0.0455	110292	keystroke_n	n	n/a
55.6115	0.075	111223	keystroke_n	n	n/a
55.791	0.0905	111582	keystroke_o	o	n/a
55.896	0.0905	111792	keystroke_u	u	n/a
56.1215	0.09	112243	keystroke_n	n	n/a
56.2565	0.105	112513	keystroke_c	c	n/a
56.3765	0.075	112753	keystroke_e	e	n/a
56.4665	0.075	112933	keystroke_m	m	n/a
56.6015	0.09	113203	keystroke_e	e	n/a
56.6765	0.09	113353	keystroke_n	n	n/a
56.7815	0.09	113563	keystroke_t	t	n/a
56.9315	0.09	113863	keystroke_s	s	n/a
57.0515	0.09	114103	keystroke_Key.space	Key.space	n/a
57.291	0.06	114582	keystroke_b	b	n/a
57.366	0.0755	114732	keystroke_a	a	n/a
57.531	0.0455	115062	keystroke_r	r	n/a
57.6815	0.045	115363	keystroke_r	r	n/a
57.7715	0.06	115543	keystroke_e	e	n/a
57.9515	0.09	115903	keystroke_l	l	n/a
58.311	0.075	116622	keystroke_Key.space	Key.space	n/a
58.4465	0.075	116893	keystroke_a	a	n/a
58.581	0.0455	117162	keystroke_l	l	n/a
58.731	0.0605	117462	keystroke_l	l	n/a
58.806	0.06	117612	keystroke_e	e	n/a
58.911	0.0605	117822	keystroke_n	n	n/a
59.616	0.0455	119232	keystroke_Key.backspace	Key.backspace	n/a
59.751	0.045	119502	keystroke_Key.backspace	Key.backspace	n/a
60.2615	0.0445	120523	keystroke_a	a	n/a
60.3965	0.045	120793	keystroke_n	n	n/a
60.681	0.0605	121362	keystroke_Key.enter	Key.enter	n/a
60.747	13.436	121494	prompt	n/a	graham fails parcel graphic\n
62.031	0.075	124062	keystroke_g	g	n/a
62.256	0.0905	124512	keystroke_r	r	n/a
62.4965	0.0595	124993	keystroke_a	a	n/a
62.736	0.075	125472	keystroke_h	h	n/a
62.871	0.075	125742	keystroke_a	a	n/a
63.006	0.075	126012	keystroke_m	m	n/a
63.186	0.0605	126372	keystroke_Key.space	Key.space	n/a
64.2965	0.0745	128593	keystroke_f	f	n/a
64.356	0.075	128712	keystroke_a	a	n/a
64.476	0.15	128952	keystroke_i	i	n/a
64.701	0.1205	129402	keystroke_l	l	n/a
65.106	0.09	130212	keystroke_s	s	n/a
65.241	0.12	130482	keystroke_Key.space	Key.space	n/a
65.6015	0.09	131203	keystroke_p	p	n/a
66.7115	0.1195	133423	keystroke_a	a	n/a
66.831	0.12	133662	keystroke_r	r	n/a
67.1015	0.12	134203	keystroke_c	c	n/a
67.266	0.075	134532	keystroke_e	e	n/a
67.431	0.06	134862	keystroke_l	l	n/a
67.5965	0.0745	135193	keystroke_Key.space	Key.space	n/a
72.158	0.001	144316	keystroke_g	g	n/a
72.276	0.075	144552	keystroke_r	r	n/a
72.381	0.06	144762	keystroke_a	a	n/a
73.086	0.075	146172	keystroke_p	p	n/a
73.266	0.12	146532	keystroke_h	h	n/a
73.401	0.12	146802	keystroke_i	i	n/a
73.566	0.06	147132	keystroke_c	c	n/a
74.121	0.06	148242	keystroke_Key.enter	Key.enter	n/a
74.187	16.571	148374	prompt	n/a	misc guide footwear property\n
74.916	0.12	149832	keystroke_m	m	n/a
75.081	0.075	150162	keystroke_i	i	n/a
75.186	0.105	150372	keystroke_s	s	n/a
75.351	0.09	150702	keystroke_c	c	n/a
75.486	0.09	150972	keystroke_Key.space	Key.space	n/a
76.836	0.075	153672	keystroke_g	g	n/a
76.971	0.135	153942	keystroke_u	u	n/a
77.091	0.135	154182	keystroke_i	i	n/a
77.211	0.075	154422	keystroke_d	d	n/a
77.391	0.06	154782	keystroke_e	e	n/a
77.496	0.135	154992	keystroke_Key.space	Key.space	n/a
79.101	0.075	158202	keystroke_g	g	n/a
79.491	0.09	158982	keystroke_Key.backspace	Key.backspace	n/a
79.686	0.09	159372	keystroke_f	f	n/a
79.881	0.09	159762	keystroke_o	o	n/a
80.046	0.075	160092	keystroke_o	o	n/a
80.136	0.09	160272	keystroke_t	t	n/a
80.751	0.075	161502	keystroke_w	w	n/a
80.916	0.135	161832	keystroke_a	a	n/a
81.396	0.045	162792	keystroke_Key.backspace	Key.backspace	n/a
81.516	0.045	163032	keystroke_Key.backspace	Key.backspace	n/a
81.546	0.15	163092	keystroke_e	e	n/a
81.681	0.135	163362	keystroke_a	a	n/a
81.831	0.105	163662	keystroke_r	r	n/a
82.251	0.045	164502	keystroke_Key.backspace	Key.backspace	n/a
82.386	0.045	164772	keystroke_Key.backspace	Key.backspace	n/a
82.506	0.06	165012	keystroke_Key.backspace	Key.backspace	n/a
82.596	0.135	165192	keystroke_w	w	n/a
82.746	0.15	165492	keystroke_a	a	n/a
83.376	0.075	166752	keystroke_Key.backspace	Key.backspace	n/a
83.436	0.15	166872	keystroke_e	e	n/a
83.556	0.135	167112	keystroke_a	a	n/a
83.811	0.075	167622	keystroke_r	r	n/a
84.021	0.135	168042	keystroke_Key.space	Key.space	n/a
85.386	0.09	170772	keystroke_p	p	n/a
85.641	0.015	171282	keystroke_r	r	n/a
85.671	0.09	171342	keystroke_o	o	n/a
85.791	0.075	171582	keystroke_t	t	n/a
85.971	0.15	171942	keystroke_e	e	n/a
86.106	0.075	172212	keystroke_r	r	n/a
88.176	0.045	176352	keystroke_Key.backspace	Key.backspace	n/a
88.461	0.06	176922	keystroke_Key.backspace	Key.backspace	n/a
88.791	0.06	177582	keystroke_Key.backspace	Key.backspace	n/a
89.646	0.075	179292	keystroke_p	p	n/a
89.886	0.135	179772	keystroke_e	e	n/a
90.006	0.09	180012	keystroke_r	r	n/a
90.2305	0.045	180461	keystroke_t	t	n/a
90.396	0.0745	180792	keystroke_y	y	n/a
90.6805	0.0755	181361	keystroke_Key.enter	Key.enter	n/a
90.7625	9.9245	181525	prompt	n/a	respondent hero differently steven\n
92.0305	0.105	184061	keystroke_r	r	n/a
92.1955	0.1055	184391	keystroke_e	e	n/a
92.406	0.0745	184812	keystroke_s	s	n/a
92.601	0.0745	185202	keystroke_p	p	n/a
92.8105	0.045	185621	keystroke_o	o	n/a
93.0205	0.06	186041	keystroke_n	n	n/a
93.291	0.1195	186582	keystroke_d	d	n/a
94.0105	0.075	188021	keystroke_e	e	n/a
94.1305	0.09	188261	keystroke_n	n	n/a
94.2655	0.09	188531	keystroke_t	t	n/a
94.4005	0.09	188801	keystroke_Key.space	Key.space	n/a
94.5505	0.09	189101	keystroke_h	h	n/a
94.6555	0.15	189311	keystroke_e	e	n/a
94.8355	0.075	189671	keystroke_r	r	n/a
94.9855	0.09	189971	keystroke_o	o	n/a
95.1655	0.09	190331	keystroke_Key.space	Key.space	n/a
95.2405	0.105	190481	keystroke_d	d	n/a
95.3905	0.075	190781	keystroke_i	i	n/a
95.4955	0.06	190991	keystroke_f	f	n/a
95.6305	0.075	191261	keystroke_f	f	n/a
95.7655	0.3	191531	keystroke_e	e	n/a
97.5205	0.06	195041	keystroke_r	r	n/a
97.6405	0.09	195281	keystroke_e	e	n/a
97.7755	0.105	195551	keystroke_n	n	n/a
97.9405	0.075	195881	keystroke_t	t	n/a
98.6005	0.09	197201	keystroke_l	l	n/a
98.7055	0.015	197411	keystroke_y	y	n/a
99.2755	0.045	198551	keystroke_Key.space	Key.space	n/a
99.5005	0.06	199001	keystroke_s	s	n/a
99.8455	0.09	199691	keystroke_t	t	n/a
99.9955	0.075	199991	keystroke_e	e	n/a
100.2055	0.075	200411	keystroke_v	v	n/a
100.3265	0.074	200653	keystroke_e	e	n/a
100.4455	0.075	200891	keystroke_n	n	n/a
100.6255	0.06	201251	keystroke_Key.enter	Key.enter	n/a
100.6905	6.207	201381	prompt	n/a	tomorrow linking sold retained\n
101.4205	0.075	202841	keystroke_t	t	n/a
101.5555	0.12	203111	keystroke_o	o	n/a
101.6905	0.135	203381	keystroke_m	m	n/a
101.7955	0.106	203591	keystroke_o	o	n/a
101.9455	0.045	203891	keystroke_r	r	n/a
102.0805	0.06	204161	keystroke_r	r	n/a
102.1565	0.075	204313	keystroke_o	o	n/a
102.2755	0.06	204551	keystroke_w	w	n/a
102.3365	0.119	204673	keystroke_Key.space	Key.space	n/a
102.5005	0.105	205001	keystroke_l	l	n/a
102.6955	0.105	205391	keystroke_i	i	n/a
102.7715	0.074	205543	keystroke_n	n	n/a
102.9205	0.06	205841	keystroke_k	k	n/a
103.1005	0.09	206201	keystroke_i	i	n/a
103.1455	0.105	206291	keystroke_n	n	n/a
103.2815	0.059	206563	keystroke_g	g	n/a
103.3705	0.075	206741	keystroke_Key.space	Key.space	n/a
103.6415	0.044	207283	keystroke_d	d	n/a
103.7005	0.09	207401	keystroke_o	o	n/a
103.8955	0.06	207791	keystroke_l	l	n/a
104.2405	0.045	208481	keystroke_Key.backspace	Key.backspace	n/a
104.3755	0.06	208751	keystroke_Key.backspace	Key.backspace	n/a
104.4805	0.075	208961	keystroke_Key.backspace	Key.backspace	n/a
104.5855	0.075	209171	keystroke_s	s	n/a
104.7205	0.061	209441	keystroke_o	o	n/a
104.8855	0.06	209771	keystroke_l	l	n/a
104.9905	0.09	209981	keystroke_d	d	n/a
105.1555	0.045	210311	keystroke_Key.space	Key.space	n/a
106.0265	0.014	212053	keystroke_r	r	n/a
106.0705	0.106	212141	keystroke_e	e	n/a
106.2205	0.075	212441	keystroke_t	t	n/a
106.3265	0.059	212653	keystroke_a	a	n/a
106.4015	0.119	212803	keystroke_i	i	n/a
106.4755	0.106	212951	keystroke_n	n	n/a
106.5665	0.059	213133	keystroke_e	e	n/a
106.7155	0.06	213431	keystroke_d	d	n/a
106.8055	0.09	213611	keystroke_Key.enter	Key.enter	n/a
106.9005	10.677	213801	prompt	n/a	inexpensive population worker mitsubishi\n
107.7055	0.09	215411	keystroke_i	i	n/a
107.8705	0.09	215741	keystroke_n	n	n/a
108.0205	0.09	216041	keystroke_e	e	n/a
108.7705	0.046	217541	keystroke_x	x	n/a
108.8905	0.09	217781	keystroke_p	p	n/a
109.0255	0.075	218051	keystroke_e	e	n/a
109.1755	0.09	218351	keystroke_n	n	n/a
109.5205	0.075	219041	keystroke_s	s	n/a
109.6115	0.074	219223	keystroke_i	i	n/a
109.7015	0.089	219403	keystroke_v	v	n/a
109.8205	0.106	219641	keystroke_e	e	n/a
109.9705	0.09	219941	keystroke_Key.space	Key.space	n/a
110.2715	0.06	220543	keystroke_p	p	n/a
110.4355	0.075	220871	keystroke_o	o	n/a
111.3355	0.091	222671	keystroke_p	p	n/a
111.6655	0.091	223331	keystroke_u	u	n/a
111.9655	0.076	223931	keystroke_l	l	n/a
112.0865	0.074	224173	keystroke_a	a	n/a
112.1905	0.075	224381	keystroke_t	t	n/a
112.2955	0.121	224591	keystroke_i	i	n/a
112.3865	0.12	224773	keystroke_o	o	n/a
112.4905	0.15	224981	keystroke_n	n	n/a
112.6255	0.09	225251	keystroke_Key.space	Key.space	n/a
112.9405	0.076	225881	keystroke_w	w	n/a
113.0465	0.105	226093	keystroke_o	o	n/a
113.1665	0.09	226333	keystroke_r	r	n/a
113.2705	0.075	226541	keystroke_k	k	n/a
113.4065	0.15	226813	keystroke_e	e	n/a
113.5565	0.075	227113	keystroke_r	r	n/a
113.6455	0.09	227291	keystroke_Key.space	Key.space	n/a
114.0815	0.089	228163	keystroke_m	m	n/a
114.3215	0.089	228643	keystroke_i	i	n/a
114.6205	0.076	229241	keystroke_t	t	n/a
115.1015	0.09	230203	keystroke_s	s	n/a
115.5665	0.09	231133	keystroke_u	u	n/a
115.8205	0.09	231641	keystroke_b	b	n/a
115.9715	0.075	231943	keystroke_i	i	n/a
116.2705	0.091	232541	keystroke_s	s	n/a
117.1265	0.075	234253	keystroke_h	h	n/a
117.2315	0.075	234463	keystroke_i	i	n/a
117.5005	0.075	235001	keystroke_Key.enter	Key.enter	n/a
117.5805	8.457	235161	prompt	n/a	understand ocean gilbert medicare\n
118.4915	0.075	236983	keystroke_u	u	n/a
118.7155	0.061	237431	keystroke_n	n	n/a
118.8065	0.075	237613	keystroke_d	d	n/a
118.9715	0.12	237943	keystroke_e	e	n/a
119.0615	0.09	238123	keystroke_r	r	n/a
119.2565	0.075	238513	keystroke_s	s	n/a
119.3465	0.089	238693	keystroke_t	t	n/a
119.4515	0.059	238903	keystroke_a	a	n/a
119.5265	0.075	239053	keystroke_n	n	n/a
119.6605	0.121	239321	keystroke_d	d	n/a
119.7655	0.105	239531	keystroke_Key.space	Key.space	n/a
120.1705	0.091	240341	keystroke_o	o	n/a
120.4115	0.074	240823	keystroke_c	c	n/a
120.5315	0.105	241063	keystroke_e	e	n/a
120.6515	0.09	241303	keystroke_a	a	n/a
120.7855	0.105	241571	keystroke_n	n	n/a
120.9505	0.075	241901	keystroke_Key.space	Key.space	n/a
121.9715	0.074	243943	keystroke_g	g	n/a
122.1515	0.075	244303	keystroke_i	i	n/a
122.3165	0.09	244633	keystroke_l	l	n/a
122.5415	0.06	245083	keystroke_b	b	n/a
122.6765	0.18	245353	keystroke_e	e	n/a
122.7965	0.119	245593	keystroke_r	r	n/a
123.0365	0.074	246073	keystroke_t	t	n/a
123.1705	0.105	246341	keystroke_Key.space	Key.space	n/a
123.3955	0.076	246791	keystroke_m	m	n/a
123.6815	0.06	247363	keystroke_e	e	n/a
123.8465	0.06	247693	keystroke_d	d	n/a
123.9215	0.09	247843	keystroke_i	i	n/a
124.0265	0.105	248053	keystroke_c	c	n/a
124.1165	0.165	248233	keystroke_a	a	n/a
124.3565	0.09	248713	keystroke_e	e	n/a
125.4965	0.06	250993	keystroke_Key.backspace	Key.backspace	n/a
125.6015	0.075	251203	keystroke_r	r	n/a
125.7365	0.075	251473	keystroke_e	e	n/a
125.9615	0.075	251923	keystroke_Key.enter	Key.enter	n/a
126.0405	9.012	252081	prompt	n/a	immunology attempt shopper bowl\n
127.8515	0.045	255703	keystroke_i	i	n/a
128.1215	0.06	256243	keystroke_m	m	n/a
128.2865	0.06	256573	keystroke_m	m	n/a
128.6015	0.03	257203	keystroke_u	u	n/a
128.8265	0.105	257653	keystroke_n	n	n/a
128.9615	0.09	257923	keystroke_o	o	n/a
129.1865	0.075	258373	keystroke_l	l	n/a
129.3515	0.075	258703	keystroke_o	o	n/a
129.5615	0.09	259123	keystroke_g	g	n/a
130.4915	0.15	260983	keystroke_y	y	n/a
130.6115	0.12	261223	keystroke_Key.space	Key.space	n/a
130.7915	0.09	261583	keystroke_a	a	n/a
131.0165	0.045	262033	keystroke_t	t	n/a
131.1665	0.045	262333	keystroke_t	t	n/a
131.2865	0.075	262573	keystroke_e	e	n/a
131.4365	0.09	262873	keystroke_m	m	n/a
131.5865	0.09	263173	keystroke_p	p	n/a
131.7215	0.06	263443	keystroke_t	t	n/a
131.8565	0.09	263713	keystroke_Key.space	Key.space	n/a
132.0065	0.075	264013	keystroke_s	s	n/a
132.0955	0.121	264191	keystroke_h	h	n/a
132.2015	0.105	264403	keystroke_o	o	n/a
132.4865	0.045	264973	keystroke_p	p	n/a
132.6215	0.06	265243	keystroke_p	p	n/a
133.8665	0.105	267733	keystroke_e	e	n/a
133.9415	0.075	267883	keystroke_r	r	n/a
134.0315	0.104	268063	keystroke_Key.space	Key.space	n/a
134.2565	0.075	268513	keystroke_b	b	n/a
134.4065	0.09	268813	keystroke_o	o	n/a
134.5115	0.06	269023	keystroke_w	w	n/a
134.6765	0.09	269353	keystroke_l	l	n/a
134.9765	0.075	269953	keystroke_Key.enter	Key.enter	n/a
135.0555	13.647	270111	prompt	n/a	vocabulary relationship assumptions console\n
136.4915	0.06	272983	keystroke_v	v	n/a
136.6565	0.105	273313	keystroke_o	o	n/a
136.7765	0.15	273553	keystroke_c	c	n/a
136.9115	0.09	273823	keystroke_a	a	n/a
137.3615	0.09	274723	keystroke_p	p	n/a
138.1715	0.09	276343	keystroke_Key.backspace	Key.backspace	n/a
138.2765	0.075	276553	keystroke_b	b	n/a
139.1765	0.075	278353	keystroke_u	u	n/a
139.5515	0.06	279103	keystroke_l	l	n/a
139.7015	0.165	279403	keystroke_a	a	n/a
140.0615	0.075	280123	keystroke_r	r	n/a
140.1965	0.09	280393	keystroke_y	y	n/a
140.3915	0.09	280783	keystroke_Key.space	Key.space	n/a
140.6465	0.135	281293	keystroke_r	r	n/a
140.7665	0.075	281533	keystroke_e	e	n/a
140.8715	0.105	281743	keystroke_l	l	n/a
140.9915	0.105	281983	keystroke_a	a	n/a
141.0815	0.09	282163	keystroke_t	t	n/a
141.1865	0.12	282373	keystroke_i	i	n/a
141.2915	0.135	282583	keystroke_o	o	n/a
141.4265	0.06	282853	keystroke_n	n	n/a
141.6215	0.06	283243	keystroke_s	s	n/a
141.7265	0.105	283453	keystroke_h	h	n/a
142.2665	0.12	284533	keystroke_i	i	n/a
142.4915	0.06	284983	keystroke_i	i	n/a
143.0315	0.045	286063	keystroke_Key.backspace	Key.backspace	n/a
143.3015	0.045	286603	keystroke_p	p	n/a
144.6815	0.105	289363	keystroke_Key.space	Key.space	n/a
144.8465	0.105	289693	keystroke_a	a	n/a
145.0565	0.03	290113	keystroke_s	s	n/a
145.1765	0.075	290353	keystroke_s	s	n/a
145.2815	0.075	290563	keystroke_u	u	n/a
145.5065	0.135	291013	keystroke_m	m	n/a
145.6565	0.075	291313	keystroke_p	p	n/a
145.7465	0.06	291493	keystroke_t	t	n/a
145.8215	0.12	291643	keystroke_i	i	n/a
145.9715	0.165	291943	keystroke_o	o	n/a
146.1215	0.075	292243	keystroke_n	n	n/a
146.2415	0.09	292483	keystroke_s	s	n/a
146.3765	0.0895	292753	keystroke_Key.space	Key.space	n/a
146.751	0.06	293502	keystroke_s	s	n/a
147.126	0.06	294252	keystroke_Key.backspace	Key.backspace	n/a
147.276	0.06	294552	keystroke_c	c	n/a
147.396	0.15	294792	keystroke_o	o	n/a
147.501	0.09	295002	keystroke_n	n	n/a
148.041	0.03	296082	keystroke_s	s	n/a
148.161	0.075	296322	keystroke_o	o	n/a
148.356	0.06	296712	keystroke_l	l	n/a
148.431	0.075	296862	keystroke_e	e	n/a
148.611	0.09	297222	keystroke_Key.enter	Key.enter	n/a
148.7055	9.7315	297411	prompt	n/a	texture brass has kent\n
149.451	0.075	298902	keystroke_t	t	n/a
149.601	0.075	299202	keystroke_e	e	n/a
150.306	0.075	300612	keystroke_x	x	n/a
150.5155	0.105	301031	keystroke_t	t	n/a
150.7405	0.0605	301481	keystroke_u	u	n/a
150.8305	0.09	301661	keystroke_r	r	n/a
150.966	0.0745	301932	keystroke_e	e	n/a
151.116	0.105	302232	keystroke_Key.space	Key.space	n/a
151.7605	0.09	303521	keystroke_b	b	n/a
151.9255	0.135	303851	keystroke_r	r	n/a
152.001	0.12	304002	keystroke_e	e	n/a
152.616	0.06	305232	keystroke_Key.backspace	Key.backspace	n/a
152.721	0.075	305442	keystroke_a	a	n/a
152.9305	0.06	305861	keystroke_s	s	n/a
153.0805	0.0455	306161	keystroke_s	s	n/a
153.1705	0.09	306341	keystroke_Key.space	Key.space	n/a
153.5755	0.06	307151	keystroke_k	k	n/a
153.9955	0.075	307991	keystroke_a	a	n/a
154.2205	0.09	308441	keystroke_s	s	n/a
154.5655	0.12	309131	keystroke_Key.space	Key.space	n/a
154.8205	0.075	309641	keystroke_k	k	n/a
154.9405	0.075	309881	keystroke_e	e	n/a
155.0305	0.075	310061	keystroke_n	n	n/a
155.4805	0.06	310961	keystroke_Key.backspace	Key.backspace	n/a
155.6305	0.045	311261	keystroke_Key.backspace	Key.backspace	n/a
155.7655	0.06	311531	keystroke_Key.backspace	Key.backspace	n/a
155.9305	0.045	311861	keystroke_Key.backspace	Key.backspace	n/a
156.0805	0.045	312161	keystroke_Key.backspace	Key.backspace	n/a
156.2155	0.06	312431	keystroke_Key.backspace	Key.backspace	n/a
156.3655	0.045	312731	keystroke_Key.backspace	Key.backspace	n/a
157.0255	0.06	314051	keystroke_h	h	n/a
157.2505	0.12	314501	keystroke_a	a	n/a
157.4605	0.09	314921	keystroke_s	s	n/a
157.5655	0.135	315131	keystroke_Key.space	Key.space	n/a
157.7155	0.075	315431	keystroke_k	k	n/a
157.8055	0.075	315611	keystroke_e	e	n/a
157.9255	0.075	315851	keystroke_n	n	n/a
158.0755	0.06	316151	keystroke_t	t	n/a
158.3605	0.075	316721	keystroke_Key.enter	Key.enter	n/a
158.44	12.537	316880	prompt	n/a	experimental divine portsmouth prostores\n
159.6055	0.075	319211	keystroke_e	e	n/a
159.9205	0.06	319841	keystroke_x	x	n/a
160.1755	0.105	320351	keystroke_p	p	n/a
160.2955	0.165	320591	keystroke_e	e	n/a
160.4755	0.09	320951	keystroke_r	r	n/a
161.1055	0.09	322211	keystroke_i	i	n/a
161.3155	0.09	322631	keystroke_m	m	n/a
161.4655	0.045	322931	keystroke_e	e	n/a
161.5555	0.09	323111	keystroke_n	n	n/a
161.6305	0.09	323261	keystroke_t	t	n/a
161.7655	0.06	323531	keystroke_a	a	n/a
161.9005	0.135	323801	keystroke_l	l	n/a
162.0055	0.105	324011	keystroke_Key.space	Key.space	n/a
162.3355	0.09	324671	keystroke_d	d	n/a
162.4555	0.09	324911	keystroke_i	i	n/a
162.6805	0.165	325361	keystroke_v	v	n/a
163.4905	0.12	326981	keystroke_i	i	n/a
163.5805	0.105	327161	keystroke_n	n	n/a
163.7155	0.105	327431	keystroke_e	e	n/a
163.8655	0.09	327731	keystroke_Key.space	Key.space	n/a
164.2855	0.06	328571	keystroke_p	p	n/a
164.8705	0.03	329741	keystroke_o	o	n/a
165.1255	0.105	330251	keystroke_r	r	n/a
165.4855	0.075	330971	keystroke_t	t	n/a
165.8455	0.075	331691	keystroke_s	s	n/a
166.0705	0.09	332141	keystroke_m	m	n/a
166.1905	0.15	332381	keystroke_o	o	n/a
166.3555	0.075	332711	keystroke_u	u	n/a
166.5355	0.06	333071	keystroke_t	t	n/a
166.6255	0.105	333251	keystroke_h	h	n/a
166.8505	0.075	333701	keystroke_Key.space	Key.space	n/a
168.5005	0.045	337001	keystroke_p	p	n/a
168.6655	0.075	337331	keystroke_r	r	n/a
168.7705	0.09	337541	keystroke_o	o	n/a
169.1005	0.09	338201	keystroke_s	s	n/a
169.7155	0.105	339431	keystroke_t	t	n/a
169.8805	0.09	339761	keystroke_o	o	n/a
170.1055	0.06	340211	keystroke_r	r	n/a
170.2105	0.09	340421	keystroke_e	e	n/a
170.4205	0.075	340841	keystroke_s	s	n/a
170.8855	0.09	341771	keystroke_Key.enter	Key.enter	n/a
170.9805	6.2965	341961	prompt	n/a	knitting neil ebay acute\n
171.8905	0.09	343781	keystroke_k	k	n/a
172.1005	0.105	344201	keystroke_n	n	n/a
172.2065	0.074	344413	keystroke_i	i	n/a
172.3405	0.06	344681	keystroke_t	t	n/a
172.4605	0.06	344921	keystroke_t	t	n/a
172.5055	0.135	345011	keystroke_i	i	n/a
172.6105	0.105	345221	keystroke_n	n	n/a
172.7005	0.075	345401	keystroke_g	g	n/a
172.8355	0.075	345671	keystroke_Key.space	Key.space	n/a
172.9555	0.09	345911	keystroke_n	n	n/a
173.0605	0.075	346121	keystroke_e	e	n/a
173.1655	0.105	346331	keystroke_i	i	n/a
173.5715	0.149	347143	keystroke_l	l	n/a
173.7055	0.09	347411	keystroke_Key.space	Key.space	n/a
175.4305	0.09	350861	keystroke_e	e	n/a
175.6705	0.075	351341	keystroke_b	b	n/a
175.8205	0.09	351641	keystroke_a	a	n/a
176.0155	0.165	352031	keystroke_y	y	n/a
176.1355	0.12	352271	keystroke_Key.space	Key.space	n/a
176.2405	0.075	352481	keystroke_a	a	n/a
176.4205	0.105	352841	keystroke_c	c	n/a
176.5705	0.075	353141	keystroke_u	u	n/a
176.6605	0.09	353321	keystroke_t	t	n/a
176.8855	0.06	353771	keystroke_e	e	n/a
177.1705	0.105	354341	keystroke_Key.enter	Key.enter	n/a
177.28	7.737	354560	prompt	n/a	walls shadow themes return\n
178.0855	0.03	356171	keystroke_w	w	n/a
178.7605	0.15	357521	keystroke_a	a	n/a
178.9255	0.015	357851	keystroke_l	l	n/a
179.4355	0.135	358871	keystroke_l	l	n/a
179.6755	0.045	359351	keystroke_s	s	n/a
179.7805	0.075	359561	keystroke_Key.space	Key.space	n/a
179.9605	0.09	359921	keystroke_s	s	n/a
180.8755	0.09	361751	keystroke_h	h	n/a
180.9805	0.09	361961	keystroke_a	a	n/a
181.2655	0.09	362531	keystroke_d	d	n/a
181.3855	0.09	362771	keystroke_o	o	n/a
181.5655	0.075	363131	keystroke_w	w	n/a
182.1355	0.135	364271	keystroke_Key.space	Key.space	n/a
182.4355	0.075	364871	keystroke_t	t	n/a
182.5855	0.09	365171	keystroke_h	h	n/a
182.7355	0.06	365471	keystroke_e	e	n/a
182.9155	0.06	365831	keystroke_m	m	n/a
183.0055	0.075	366011	keystroke_e	e	n/a
183.1855	0.075	366371	keystroke_s	s	n/a
183.3055	0.075	366611	keystroke_Key.space	Key.space	n/a
183.6355	0.075	367271	keystroke_r	r	n/a
183.7705	0.09	367541	keystroke_e	e	n/a
183.9805	0.06	367961	keystroke_t	t	n/a
184.0855	0.09	368171	keystroke_u	u	n/a
184.1905	0.075	368381	keystroke_r	r	n/a
184.6855	0.06	369371	keystroke_n	n	n/a
184.9255	0.09	369851	keystroke_Key.enter	Key.enter	n/a
185.0195	8.863	370039	prompt	n/a	interracial ceiling narrative witnesses\n
186.3355	0.0745	372671	keystroke_i	i	n/a
186.5005	0.09	373001	keystroke_n	n	n/a
186.6505	0.075	373301	keystroke_t	t	n/a
186.8455	0.105	373691	keystroke_e	e	n/a
187.0255	0.06	374051	keystroke_r	r	n/a
187.16	0.0905	374320	keystroke_r	r	n/a
187.2955	0.075	374591	keystroke_a	a	n/a
187.4905	0.0745	374981	keystroke_c	c	n/a
187.595	0.0755	375190	keystroke_i	i	n/a
187.73	0.06	375460	keystroke_a	a	n/a
187.835	0.15	375670	keystroke_l	l	n/a
187.9705	0.105	375941	keystroke_Key.space	Key.space	n/a
188.255	0.0605	376510	keystroke_c	c	n/a
188.405	0.0455	376810	keystroke_e	e	n/a
188.81	0.075	377620	keystroke_i	i	n/a
189.11	0.0905	378220	keystroke_l	l	n/a
189.185	0.18	378370	keystroke_i	i	n/a
189.335	0.105	378670	keystroke_n	n	n/a
189.47	0.09	378940	keystroke_g	g	n/a
189.605	0.09	379210	keystroke_Key.space	Key.space	n/a
189.845	0.105	379690	keystroke_n	n	n/a
189.966	0.089	379932	keystroke_a	a	n/a
190.1	0.0605	380200	keystroke_r	r	n/a
190.235	0.06	380470	keystroke_r	r	n/a
190.34	0.06	380680	keystroke_a	a	n/a
190.55	0.06	381100	keystroke_t	t	n/a
190.6405	0.1195	381281	keystroke_i	i	n/a
190.79	0.15	381580	keystroke_v	v	n/a
190.955	0.09	381910	keystroke_e	e	n/a
191.075	0.12	382150	keystroke_Key.space	Key.space	n/a
191.69	0.09	383380	keystroke_w	w	n/a
191.825	0.15	383650	keystroke_i	i	n/a
192.26	0.06	384520	keystroke_t	t	n/a
192.875	0.09	385750	keystroke_n	n	n/a
193.01	0.075	386020	keystroke_e	e	n/a
193.25	0.06	386500	keystroke_s	s	n/a
193.4	0.06	386800	keystroke_s	s	n/a
193.505	0.105	387010	keystroke_e	e	n/a
193.67	0.06	387340	keystroke_s	s	n/a
193.82	0.06	387640	keystroke_Key.enter	Key.enter	n/a
193.886	6.116	387772	prompt	n/a	interaction cluster eminem madrid\n
194.69	0.075	389380	keystroke_i	i	n/a
194.825	0.105	389650	keystroke_n	n	n/a
194.931	0.059	389862	keystroke_t	t	n/a
195.095	0.135	390190	keystroke_e	e	n/a
195.185	0.075	390370	keystroke_r	r	n/a
195.335	0.105	390670	keystroke_a	a	n/a
195.5	0.076	391000	keystroke_c	c	n/a
195.695	0.045	391390	keystroke_t	t	n/a
195.755	0.12	391510	keystroke_i	i	n/a
195.845	0.12	391690	keystroke_o	o	n/a
195.92	0.135	391840	keystroke_n	n	n/a
196.04	0.09	392080	keystroke_Key.space	Key.space	n/a
196.175	0.09	392350	keystroke_c	c	n/a
196.28	0.09	392560	keystroke_l	l	n/a
196.4	0.105	392800	keystroke_u	u	n/a
196.49	0.075	392980	keystroke_s	s	n/a
196.64	0.075	393280	keystroke_t	t	n/a
196.805	0.105	393610	keystroke_e	e	n/a
196.91	0.09	393820	keystroke_r	r	n/a
197.001	0.104	394002	keystroke_Key.space	Key.space	n/a
197.15	0.075	394300	keystroke_e	e	n/a
197.285	0.105	394570	keystroke_m	m	n/a
197.42	0.105	394840	keystroke_i	i	n/a
197.585	0.075	395170	keystroke_n	n	n/a
197.75	0.06	395500	keystroke_e	e	n/a
197.945	0.06	395890	keystroke_m	m	n/a
198.635	0.105	397270	keystroke_Key.space	Key.space	n/a
198.95	0.106	397900	keystroke_m	m	n/a
199.071	0.074	398142	keystroke_a	a	n/a
199.281	0.089	398562	keystroke_d	d	n/a
199.491	0.074	398982	keystroke_r	r	n/a
199.61	0.061	399220	keystroke_i	i	n/a
199.76	0.06	399520	keystroke_d	d	n/a
199.925	0.075	399850	keystroke_Key.enter	Key.enter	n/a
200.0095	5.872	400019	prompt	n/a	feat edgar pace leone\n
200.841	0.104	401682	keystroke_f	f	n/a
201.185	0.135	402370	keystroke_e	e	n/a
201.335	0.09	402670	keystroke_a	a	n/a
201.455	0.09	402910	keystroke_t	t	n/a
201.575	0.09	403150	keystroke_Key.space	Key.space	n/a
202.7	0.0895	405400	keystroke_e	e	n/a
202.9405	0.059	405881	keystroke_d	d	n/a
203.1345	0.091	406269	keystroke_g	g	n/a
203.2845	0.151	406569	keystroke_a	a	n/a
203.4645	0.075	406929	keystroke_r	r	n/a
203.6445	0.12	407289	keystroke_Key.space	Key.space	n/a
203.8405	0.089	407681	keystroke_p	p	n/a
203.9445	0.105	407889	keystroke_a	a	n/a
204.0795	0.15	408159	keystroke_c	c	n/a
204.2005	0.075	408401	keystroke_e	e	n/a
204.7695	0.12	409539	keystroke_Key.space	Key.space	n/a
205.0395	0.09	410079	keystroke_l	l	n/a
205.2645	0.061	410529	keystroke_e	e	n/a
205.4295	0.105	410859	keystroke_o	o	n/a
205.5645	0.09	411129	keystroke_n	n	n/a
205.6845	0.045	411369	keystroke_e	e	n/a
205.8195	0.06	411639	keystroke_Key.enter	Key.enter	n/a
205.885	9.1915	411770	prompt	n/a	evaluate persistent teams conflicts\n
206.7505	0.075	413501	keystroke_e	e	n/a
208.4895	0.075	416979	keystroke_v	v	n/a
208.7595	0.106	417519	keystroke_a	a	n/a
209.0305	0.089	418061	keystroke_l	l	n/a
209.1505	0.089	418301	keystroke_u	u	n/a
209.3745	0.09	418749	keystroke_a	a	n/a
209.4505	0.075	418901	keystroke_t	t	n/a
209.6005	0.059	419201	keystroke_e	e	n/a
209.7645	0.075	419529	keystroke_Key.space	Key.space	n/a
210.2305	0.105	420461	keystroke_p	p	n/a
210.3505	0.15	420701	keystroke_e	e	n/a
210.5155	0.074	421031	keystroke_r	r	n/a
210.7255	0.089	421451	keystroke_s	s	n/a
210.8455	0.075	421691	keystroke_i	i	n/a
210.9505	0.06	421901	keystroke_s	s	n/a
211.0555	0.044	422111	keystroke_t	t	n/a
211.1895	0.06	422379	keystroke_e	e	n/a
211.2955	0.09	422591	keystroke_n	n	n/a
211.7895	0.061	423579	keystroke_t	t	n/a
211.8945	0.105	423789	keystroke_Key.space	Key.space	n/a
212.2555	0.059	424511	keystroke_t	t	n/a
212.4195	0.105	424839	keystroke_e	e	n/a
213.0645	0.075	426129	keystroke_r	r	n/a
213.1845	0.091	426369	keystroke_m	m	n/a
213.2905	0.104	426581	keystroke_s	s	n/a
213.4095	0.105	426819	keystroke_Key.space	Key.space	n/a
213.6805	0.075	427361	keystroke_c	c	n/a
213.8005	0.135	427601	keystroke_o	o	n/a
213.8755	0.12	427751	keystroke_n	n	n/a
214.1155	0.074	428231	keystroke_f	f	n/a
214.2505	0.12	428501	keystroke_l	l	n/a
214.3555	0.104	428711	keystroke_i	i	n/a
214.4905	0.074	428981	keystroke_c	c	n/a
214.6845	0.061	429369	keystroke_t	t	n/a
214.8505	0.06	429701	keystroke_s	s	n/a
215.0145	0.06	430029	keystroke_Key.enter	Key.enter	n/a
215.08	16.392	430160	prompt	n/a	invision incorporated brooklyn deck\n
216.0045	0.136	432009	keystroke_i	i	n/a
216.1255	0.105	432251	keystroke_n	n	n/a
216.4545	0.091	432909	keystroke_v	v	n/a
216.5455	0.074	433091	keystroke_i	i	n/a
216.6805	0.074	433361	keystroke_d	d	n/a
216.7405	0.134	433481	keystroke_i	i	n/a
216.8755	0.104	433751	keystroke_o	o	n/a
216.9505	0.104	433901	keystroke_n	n	n/a
217.3395	0.045	434679	keystroke_Key.backspace	Key.backspace	n/a
217.4895	0.03	434979	keystroke_Key.backspace	Key.backspace	n/a
217.6255	0.044	435251	keystroke_Key.backspace	Key.backspace	n/a
217.7445	0.06	435489	keystroke_Key.backspace	Key.backspace	n/a
218.9605	0.059	437921	keystroke_s	s	n/a
219.0505	0.15	438101	keystroke_i	i	n/a
219.2155	0.09	438431	keystroke_o	o	n/a
219.3055	0.209	438611	keystroke_n	n	n/a
219.5155	0.089	439031	keystroke_Key.space	Key.space	n/a
219.7705	0.089	439541	keystroke_i	i	n/a
219.8895	0.106	439779	keystroke_n	n	n/a
220.0705	0.09	440141	keystroke_c	c	n/a
220.1605	0.09	440321	keystroke_o	o	n/a
222.5025	0.028	445005	keystroke_f	f	n/a
222.7255	0.075	445451	keystroke_p	p	n/a
222.9355	0.045	445871	keystroke_o	o	n/a
223.0255	0.104	446051	keystroke_f	f	n/a
223.4895	0.046	446979	keystroke_Key.backspace	Key.backspace	n/a
223.6395	0.031	447279	keystroke_Key.backspace	Key.backspace	n/a
223.7595	0.045	447519	keystroke_Key.backspace	Key.backspace	n/a
223.8955	0.059	447791	keystroke_Key.backspace	Key.backspace	n/a
224.6455	0.06	449291	keystroke_r	r	n/a
225.0345	0.046	450069	keystroke_p	p	n/a
225.1855	0.075	450371	keystroke_o	o	n/a
225.2755	0.134	450551	keystroke_r	r	n/a
225.4405	0.075	450881	keystroke_a	a	n/a
225.665	0.075	451330	keystroke_t	t	n/a
225.83	0.075	451660	keystroke_e	e	n/a
226.025	0.06	452050	keystroke_d	d	n/a
226.16	0.09	452320	keystroke_Key.space	Key.space	n/a
226.535	0.075	453070	keystroke_b	b	n/a
226.94	0.09	453880	keystroke_r	r	n/a
227.225	0.075	454450	keystroke_o	o	n/a
227.375	0.105	454750	keystroke_o	o	n/a
229.1	0.045	458200	keystroke_k	k	n/a
229.475	0.06	458950	keystroke_l	l	n/a
229.88	0.075	459760	keystroke_y	y	n/a
230.15	0.135	460300	keystroke_n	n	n/a
230.285	0.09	460570	keystroke_Key.space	Key.space	n/a
230.495	0.06	460990	keystroke_d	d	n/a
230.645	0.06	461290	keystroke_e	e	n/a
230.825	0.09	461650	keystroke_c	c	n/a
231.095	0.09	462190	keystroke_k	k	n/a
231.38	0.09	462760	keystroke_Key.enter	Key.enter	n/a
231.475	8.6065	462950	prompt	n/a	metallica tremendous cover fraction\n
232.34	0.105	464680	keystroke_m	m	n/a
232.475	0.09	464950	keystroke_e	e	n/a
233.705	0.09	467410	keystroke_t	t	n/a
233.855	0.075	467710	keystroke_a	a	n/a
234.065	0.045	468130	keystroke_l	l	n/a
234.2	0.075	468400	keystroke_l	l	n/a
234.38	0.06	468760	keystroke_i	i	n/a
235.04	0.135	470080	keystroke_c	c	n/a
235.145	0.105	470290	keystroke_a	a	n/a
235.34	0.09	470680	keystroke_Key.space	Key.space	n/a
235.655	0.06	471310	keystroke_t	t	n/a
236.015	0.105	472030	keystroke_r	r	n/a
236.135	0.075	472270	keystroke_e	e	n/a
236.36	0.075	472720	keystroke_m	m	n/a
236.465	0.075	472930	keystroke_e	e	n/a
236.765	0.12	473530	keystroke_n	n	n/a
237.035	0.06	474070	keystroke_d	d	n/a
237.215	0.15	474430	keystroke_o	o	n/a
237.335	0.105	474670	keystroke_u	u	n/a
237.47	0.075	474940	keystroke_s	s	n/a
237.635	0.09	475270	keystroke_Key.space	Key.space	n/a
238.325	0.06	476650	keystroke_c	c	n/a
238.415	0.075	476830	keystroke_o	o	n/a
238.505	0.06	477010	keystroke_v	v	n/a
238.67	0.135	477340	keystroke_e	e	n/a
238.79	0.09	477580	keystroke_r	r	n/a
238.865	0.105	477730	keystroke_Key.space	Key.space	n/a
239.03	0.105	478060	keystroke_f	f	n/a
239.225	0.105	478450	keystroke_r	r	n/a
239.345	0.09	478690	keystroke_a	a	n/a
239.495	0.075	478990	keystroke_t	t	n/a
239.6	0.135	479200	keystroke_i	i	n/a
239.705	0.12	479410	keystroke_o	o	n/a
239.795	0.09	479590	keystroke_n	n	n/a
240.02	0.06	480040	keystroke_Key.enter	Key.enter	n/a
240.0845	10.0015	480169	prompt	n/a	bang noble marker essentially\n
243.832	0.001	487664	keystroke_b	b	n/a
243.92	0.075	487840	keystroke_a	a	n/a
244.025	0.075	488050	keystroke_n	n	n/a
245.075	0.09	490150	keystroke_g	g	n/a
245.225	0.09	490450	keystroke_Key.space	Key.space	n/a
245.405	0.075	490810	keystroke_b	b	n/a
245.81	0.09	491620	keystroke_Key.backspace	Key.backspace	n/a
246.08	0.105	492160	keystroke_n	n	n/a
246.245	0.09	492490	keystroke_o	o	n/a
246.395	0.105	492790	keystroke_b	b	n/a
246.605	0.075	493210	keystroke_l	l	n/a
246.815	0.105	493630	keystroke_e	e	n/a
246.965	0.15	493930	keystroke_Key.space	Key.space	n/a
247.31	0.075	494620	keystroke_m	m	n/a
247.415	0.075	494830	keystroke_a	a	n/a
247.61	0.075	495220	keystroke_r	r	n/a
247.715	0.06	495430	keystroke_k	k	n/a
247.835	0.15	495670	keystroke_e	e	n/a
247.955	0.09	495910	keystroke_r	r	n/a
248.075	0.09	496150	keystroke_Key.space	Key.space	n/a
248.225	0.075	496450	keystroke_e	e	n/a
248.45	0.075	496900	keystroke_s	s	n/a
248.585	0.06	497170	keystroke_s	s	n/a
248.675	0.12	497350	keystroke_e	e	n/a
248.915	0.09	497830	keystroke_n	n	n/a
249.155	0.06	498310	keystroke_t	t	n/a
249.245	0.09	498490	keystroke_i	i	n/a
249.365	0.06	498730	keystroke_a	a	n/a
249.47	0.045	498940	keystroke_l	l	n/a
249.605	0.045	499210	keystroke_l	l	n/a
249.785	0.075	499570	keystroke_y	y	n/a
250.01	0.075	500020	keystroke_Key.enter	Key.enter	n/a
250.09	11.9965	500180	prompt	n/a	reducing rewards recorder julian\n
250.835	0.1495	501670	keystroke_r	r	n/a
250.9695	0.06	501939	keystroke_e	e	n/a
251.1495	0.075	502299	keystroke_d	d	n/a
251.27	0.0895	502540	keystroke_u	u	n/a
251.3745	0.075	502749	keystroke_c	c	n/a
251.51	0.1045	503020	keystroke_i	i	n/a
251.57	0.1045	503140	keystroke_n	n	n/a
251.6755	0.074	503351	keystroke_g	g	n/a
251.7795	0.0905	503559	keystroke_Key.space	Key.space	n/a
251.8995	0.105	503799	keystroke_r	r	n/a
252.02	0.0895	504040	keystroke_e	e	n/a
252.1845	0.1805	504369	keystroke_a	a	n/a
252.32	0.1195	504640	keystroke_r	r	n/a
252.5445	0.18	505089	keystroke_d	d	n/a
252.6795	0.09	505359	keystroke_s	s	n/a
252.815	0.1045	505630	keystroke_Key.space	Key.space	n/a
253.0845	0.15	506169	keystroke_r	r	n/a
253.2045	0.09	506409	keystroke_e	e	n/a
253.43	0.0745	506860	keystroke_c	c	n/a
253.5345	0.075	507069	keystroke_o	o	n/a
253.8195	0.015	507639	keystroke_r	r	n/a
254.2845	0.045	508569	keystroke_Key.backspace	Key.backspace	n/a
254.4195	0.045	508839	keystroke_Key.backspace	Key.backspace	n/a
254.5395	0.06	509079	keystroke_Key.backspace	Key.backspace	n/a
254.7045	0.045	509409	keystroke_Key.backspace	Key.backspace	n/a
254.8695	0.03	509739	keystroke_Key.backspace	Key.backspace	n/a
255.0195	0.045	510039	keystroke_Key.backspace	Key.backspace	n/a
255.1845	0.03	510369	keystroke_Key.backspace	Key.backspace	n/a
255.3195	0.045	510639	keystroke_Key.backspace	Key.backspace	n/a
255.4995	0.03	510999	keystroke_Key.backspace	Key.backspace	n/a
255.8145	0.075	511629	keystroke_Key.backspace	Key.backspace	n/a
255.9345	0.12	511869	keystroke_w	w	n/a
256.0845	0.075	512169	keystroke_a	a	n/a
256.2645	0.105	512529	keystroke_r	r	n/a
256.4745	0.18	512949	keystroke_d	d	n/a
256.6395	0.075	513279	keystroke_s	s	n/a
256.7595	0.12	513519	keystroke_Key.space	Key.space	n/a
256.9095	0.136	513819	keystroke_r	r	n/a
257.0295	0.075	514059	keystroke_e	e	n/a
257.2095	0.09	514419	keystroke_c	c	n/a
257.3445	0.105	514689	keystroke_o	o	n/a
257.6445	0.075	515289	keystroke_r	r	n/a
258.3345	0.03	516669	keystroke_d	d	n/a
258.4545	0.105	516909	keystroke_e	e	n/a
258.5295	0.09	517059	keystroke_r	r	n/a
258.7695	0.135	517539	keystroke_Key.space	Key.space	n/a
260.0295	0.105	520059	keystroke_j	j	n/a
260.3745	0.045	520749	keystroke_u	u	n/a
261.3045	0.09	522609	keystroke_l	l	n/a
261.4395	0.105	522879	keystroke_i	i	n/a
261.5745	0.06	523149	keystroke_a	a	n/a
261.7095	0.09	523419	keystroke_n	n	n/a
262.0245	0.06	524049	keystroke_Key.enter	Key.enter	n/a
262.0895	6.822	524179	prompt	n/a	worth accurately adams system\n
262.7145	0.045	525429	keystroke_w	w	n/a
262.8195	0.105	525639	keystroke_o	o	n/a
262.9395	0.105	525879	keystroke_r	r	n/a
263.1945	0.09	526389	keystroke_t	t	n/a
263.9145	0.06	527829	keystroke_h	h	n/a
264.1095	0.09	528219	keystroke_Key.space	Key.space	n/a
264.5295	0.09	529059	keystroke_a	a	n/a
264.7395	0.06	529479	keystroke_c	c	n/a
264.9045	0.06	529809	keystroke_c	c	n/a
265.0095	0.09	530019	keystroke_u	u	n/a
265.1895	0.09	530379	keystroke_r	r	n/a
265.4895	0.075	530979	keystroke_a	a	n/a
265.6545	0.06	531309	keystroke_t	t	n/a
265.8195	0.075	531639	keystroke_e	e	n/a
265.9395	0.06	531879	keystroke_l	l	n/a
266.1495	0.15	532299	keystroke_y	y	n/a
266.2545	0.105	532509	keystroke_Key.space	Key.space	n/a
266.3745	0.06	532749	keystroke_a	a	n/a
266.5545	0.105	533109	keystroke_d	d	n/a
266.7045	0.075	533409	keystroke_a	a	n/a
266.8545	0.09	533709	keystroke_m	m	n/a
266.9895	0.075	533979	keystroke_s	s	n/a
267.0795	0.075	534159	keystroke_Key.space	Key.space	n/a
267.1995	0.06	534399	keystroke_s	s	n/a
267.3795	0.105	534759	keystroke_y	y	n/a
267.9055	0.089	535811	keystroke_s	s	n/a
268.4445	0.015	536889	keystroke_t	t	n/a
268.5345	0.075	537069	keystroke_e	e	n/a
268.6545	0.075	537309	keystroke_m	m	n/a
268.8345	0.075	537669	keystroke_Key.enter	Key.enter	n/a
268.9145	7.1065	537829	prompt	n/a	you're elect within saints\n
269.9145	0.105	539829	keystroke_y	y	n/a
270.0495	0.165	540099	keystroke_o	o	n/a
270.1695	0.12	540339	keystroke_u	u	n/a
270.3195	0.075	540639	keystroke_'	'	n/a
270.4695	0.135	540939	keystroke_r	r	n/a
270.5745	0.09	541149	keystroke_e	e	n/a
270.6795	0.09	541359	keystroke_Key.space	Key.space	n/a
270.8745	0.06	541749	keystroke_e	e	n/a
270.9645	0.075	541929	keystroke_l	l	n/a
271.0695	0.075	542139	keystroke_e	e	n/a
271.3545	0.091	542709	keystroke_c	c	n/a
271.5045	0.09	543009	keystroke_e	e	n/a
272.1945	0.09	544389	keystroke_Key.backspace	Key.backspace	n/a
272.4345	0.105	544869	keystroke_t	t	n/a
272.5845	0.075	545169	keystroke_Key.space	Key.space	n/a
272.9295	0.075	545859	keystroke_w	w	n/a
273.0345	0.105	546069	keystroke_i	i	n/a
273.2895	0.031	546579	keystroke_t	t	n/a
273.7095	0.09	547419	keystroke_h	h	n/a
273.8745	0.12	547749	keystroke_i	i	n/a
274.1295	0.105	548259	keystroke_n	n	n/a
274.3245	0.09	548649	keystroke_Key.space	Key.space	n/a
274.6545	0.075	549309	keystroke_s	s	n/a
274.8195	0.06	549639	keystroke_a	a	n/a
274.9245	0.105	549849	keystroke_i	i	n/a
275.1645	0.06	550329	keystroke_n	n	n/a
275.4495	0.075	550899	keystroke_t	t	n/a
275.7645	0.075	551529	keystroke_s	s	n/a
275.9595	0.06	551919	keystroke_Key.enter	Key.enter	n/a
276.024	10.887	552048	prompt	n/a	chrysler submission freeware russia\n
277.3845	0.12	554769	keystroke_c	c	n/a
277.5795	0.09	555159	keystroke_h	h	n/a
277.8645	0.06	555729	keystroke_r	r	n/a
279.0195	0.075	558039	keystroke_y	y	n/a
279.3795	0.105	558759	keystroke_s	s	n/a
279.6495	0.075	559299	keystroke_l	l	n/a
279.7695	0.15	559539	keystroke_e	e	n/a
280.4455	0.059	560891	keystroke_r	r	n/a
280.6845	0.105	561369	keystroke_Key.space	Key.space	n/a
282.1095	0.09	564219	keystroke_s	s	n/a
282.4245	0.09	564849	keystroke_u	u	n/a
282.7845	0.06	565569	keystroke_b	b	n/a
283.0245	0.15	566049	keystroke_m	m	n/a
283.1595	0.09	566319	keystroke_i	i	n/a
283.3545	0.076	566709	keystroke_s	s	n/a
283.4895	0.075	566979	keystroke_s	s	n/a
283.5495	0.12	567099	keystroke_i	i	n/a
283.6845	0.135	567369	keystroke_o	o	n/a
283.8045	0.15	567609	keystroke_n	n	n/a
283.9245	0.12	567849	keystroke_Key.space	Key.space	n/a
284.1495	0.075	568299	keystroke_f	f	n/a
284.3295	0.15	568659	keystroke_r	r	n/a
284.4645	0.09	568929	keystroke_e	e	n/a
284.6445	0.105	569289	keystroke_e	e	n/a
284.8995	0.09	569799	keystroke_w	w	n/a
285.0945	0.15	570189	keystroke_a	a	n/a
285.2295	0.09	570459	keystroke_r	r	n/a
285.2745	0.12	570549	keystroke_e	e	n/a
285.4845	0.105	570969	keystroke_Key.space	Key.space	n/a
285.7545	0.09	571509	keystroke_r	r	n/a
285.8745	0.075	571749	keystroke_u	u	n/a
286.0545	0.045	572109	keystroke_s	s	n/a
286.1745	0.06	572349	keystroke_s	s	n/a
286.2645	0.045	572529	keystroke_i	i	n/a
286.3695	0.09	572739	keystroke_a	a	n/a
286.8195	0.09	573639	keystroke_Key.enter	Key.enter	n/a
286.914	9.7475	573828	prompt	n/a	districts zambia orbit practitioners\n
287.9895	0.075	575979	keystroke_d	d	n/a
288.1845	0.075	576369	keystroke_i	i	n/a
288.4695	0.09	576939	keystroke_s	s	n/a
288.6645	0.06	577329	keystroke_t	t	n/a
288.8595	0.075	577719	keystroke_r	r	n/a
288.9945	0.076	577989	keystroke_i	i	n/a
289.1005	0.074	578201	keystroke_c	c	n/a
289.2945	0.075	578589	keystroke_t	t	n/a
289.4745	0.075	578949	keystroke_s	s	n/a
289.5645	0.105	579129	keystroke_Key.space	Key.space	n/a
290.3295	0.061	580659	keystroke_z	z	n/a
290.4945	0.06	580989	keystroke_a	a	n/a
290.6595	0.06	581319	keystroke_m	m	n/a
290.9295	0.075	581859	keystroke_b	b	n/a
291.8605	0.074	583721	keystroke_i	i	n/a
292.0105	0.089	584021	keystroke_a	a	n/a
292.1595	0.075	584319	keystroke_Key.space	Key.space	n/a
292.3995	0.075	584799	keystroke_o	o	n/a
292.5945	0.076	585189	keystroke_r	r	n/a
292.7295	0.09	585459	keystroke_b	b	n/a
292.8795	0.09	585759	keystroke_i	i	n/a
292.9995	0.06	585999	keystroke_t	t	n/a
293.1645	0.09	586329	keystroke_Key.space	Key.space	n/a
293.4955	0.075	586991	keystroke_p	p	n/a
293.6595	0.105	587319	keystroke_r	r	n/a
293.8095	0.09	587619	keystroke_a	a	n/a
294.0045	0.075	588009	keystroke_c	c	n/a
294.2145	0.075	588429	keystroke_t	t	n/a
294.3205	0.074	588641	keystroke_i	i	n/a
294.9355	0.074	589871	keystroke_t	t	n/a
295.7445	0.106	591489	keystroke_i	i	n/a
295.8505	0.165	591701	keystroke_o	o	n/a
296.0295	0.075	592059	keystroke_n	n	n/a
296.1345	0.166	592269	keystroke_e	e	n/a
296.2695	0.076	592539	keystroke_r	r	n/a
296.4345	0.076	592869	keystroke_s	s	n/a
296.6145	0.045	593229	keystroke_Key.enter	Key.enter	n/a
296.6645	10.602	593329	prompt	n/a	eminem plane burton opposed\n
297.5	0.0745	595000	keystroke_e	e	n/a
297.7095	0.06	595419	keystroke_m	m	n/a
297.8745	0.135	595749	keystroke_i	i	n/a
297.9955	0.105	595991	keystroke_n	n	n/a
298.1755	0.075	596351	keystroke_e	e	n/a
298.3845	0.075	596769	keystroke_d	d	n/a
298.9095	0.06	597819	keystroke_Key.backspace	Key.backspace	n/a
299.1355	0.074	598271	keystroke_m	m	n/a
299.5995	0.075	599199	keystroke_Key.space	Key.space	n/a
301.565	0.06	603130	keystroke_p	p	n/a
301.745	0.075	603490	keystroke_l	l	n/a
301.8945	0.046	603789	keystroke_a	a	n/a
301.985	0.0745	603970	keystroke_n	n	n/a
302.12	0.075	604240	keystroke_e	e	n/a
302.209	0.1055	604418	keystroke_Key.space	Key.space	n/a
303.515	0.014	607030	keystroke_b	b	n/a
303.635	0.075	607270	keystroke_u	u	n/a
304.144	0.06	608288	keystroke_r	r	n/a
304.73	0.075	609460	keystroke_t	t	n/a
304.879	0.136	609758	keystroke_o	o	n/a
305.1805	0.104	610361	keystroke_n	n	n/a
305.359	0.1205	610718	keystroke_Key.space	Key.space	n/a
305.63	0.06	611260	keystroke_o	o	n/a
305.855	0.06	611710	keystroke_p	p	n/a
306.005	0.059	612010	keystroke_p	p	n/a
306.59	0.089	613180	keystroke_o	o	n/a
306.769	0.1355	613538	keystroke_s	s	n/a
306.874	0.075	613748	keystroke_e	e	n/a
307.07	0.06	614140	keystroke_d	d	n/a
307.19	0.0745	614380	keystroke_Key.enter	Key.enter	n/a
307.2695	8.652	614539	prompt	n/a	trend notifications verbal considers\n
308.179	0.046	616358	keystroke_t	t	n/a
308.345	0.06	616690	keystroke_r	r	n/a
308.54	0.059	617080	keystroke_e	e	n/a
308.72	0.074	617440	keystroke_n	n	n/a
308.959	0.091	617918	keystroke_d	d	n/a
309.109	0.106	618218	keystroke_Key.space	Key.space	n/a
309.47	0.09	618940	keystroke_n	n	n/a
309.59	0.105	619180	keystroke_o	o	n/a
309.724	0.076	619448	keystroke_t	t	n/a
309.814	0.106	619628	keystroke_i	i	n/a
310.175	0.075	620350	keystroke_f	f	n/a
310.265	0.12	620530	keystroke_i	i	n/a
310.4	0.09	620800	keystroke_c	c	n/a
310.505	0.075	621010	keystroke_a	a	n/a
310.625	0.075	621250	keystroke_t	t	n/a
310.714	0.12	621428	keystroke_i	i	n/a
310.849	0.166	621698	keystroke_o	o	n/a
311	0.12	622000	keystroke_n	n	n/a
311.165	0.09	622330	keystroke_s	s	n/a
311.285	0.09	622570	keystroke_Key.space	Key.space	n/a
311.465	0.075	622930	keystroke_v	v	n/a
311.69	0.15	623380	keystroke_e	e	n/a
311.81	0.09	623620	keystroke_r	r	n/a
311.959	0.076	623918	keystroke_b	b	n/a
312.11	0.06	624220	keystroke_a	a	n/a
312.365	0.075	624730	keystroke_Key.space	Key.space	n/a
312.845	0.09	625690	keystroke_Key.backspace	Key.backspace	n/a
313.145	0.134	626290	keystroke_l	l	n/a
313.295	0.089	626590	keystroke_Key.space	Key.space	n/a
313.82	0.074	627640	keystroke_c	c	n/a
313.91	0.135	627820	keystroke_o	o	n/a
314.015	0.105	628030	keystroke_n	n	n/a
314.15	0.105	628300	keystroke_s	s	n/a
314.27	0.075	628540	keystroke_i	i	n/a
315.02	0.075	630040	keystroke_d	d	n/a
315.185	0.18	630370	keystroke_e	e	n/a
315.32	0.089	630640	keystroke_r	r	n/a
315.5	0.075	631000	keystroke_s	s	n/a
315.815	0.104	631630	keystroke_Key.enter	Key.enter	n/a
315.926	9.4755	631852	prompt	n/a	spears oriented vegetable musicians\n
317.405	0.09	634810	keystroke_s	s	n/a
317.704	0.076	635408	keystroke_p	p	n/a
317.81	0.15	635620	keystroke_e	e	n/a
317.975	0.12	635950	keystroke_a	a	n/a
318.17	0.09	636340	keystroke_r	r	n/a
318.56	0.105	637120	keystroke_s	s	n/a
318.65	0.105	637300	keystroke_Key.space	Key.space	n/a
318.785	0.105	637570	keystroke_o	o	n/a
318.98	0.09	637960	keystroke_r	r	n/a
319.76	0.09	639520	keystroke_i	i	n/a
319.865	0.09	639730	keystroke_e	e	n/a
319.985	0.06	639970	keystroke_n	n	n/a
320.105	0.075	640210	keystroke_t	t	n/a
320.27	0.06	640540	keystroke_e	e	n/a
320.45	0.075	640900	keystroke_d	d	n/a
320.54	0.105	641080	keystroke_Key.space	Key.space	n/a
320.72	0.09	641440	keystroke_v	v	n/a
320.93	0.09	641860	keystroke_e	e	n/a
321.575	0.06	643150	keystroke_g	g	n/a
321.725	0.075	643450	keystroke_e	e	n/a
321.905	0.06	643810	keystroke_t	t	n/a
322.07	0.06	644140	keystroke_a	a	n/a
322.145	0.075	644290	keystroke_b	b	n/a
322.325	0.075	644650	keystroke_l	l	n/a
322.415	0.09	644830	keystroke_e	e	n/a
322.55	0.09	645100	keystroke_Key.space	Key.space	n/a
322.82	0.075	645640	keystroke_m	m	n/a
323.015	0.06	646030	keystroke_u	u	n/a
323.195	0.105	646390	keystroke_s	s	n/a
323.84	0.045	647680	keystroke_i	i	n/a
323.99	0.089	647980	keystroke_c	c	n/a
324.11	0.09	648220	keystroke_i	i	n/a
324.89	0.075	649780	keystroke_a	a	n/a
325.025	0.075	650050	keystroke_n	n	n/a
325.145	0.06	650290	keystroke_s	s	n/a
325.34	0.06	650680	keystroke_Key.enter	Key.enter	n/a
325.4045	12.2515	650809	prompt	n/a	explains conditioning examination skating\n
326.63	0.06	653260	keystroke_e	e	n/a
326.93	0.075	653860	keystroke_x	x	n/a
327.17	0.06	654340	keystroke_p	p	n/a
327.365	0.075	654730	keystroke_l	l	n/a
327.5	0.06	655000	keystroke_a	a	n/a
327.59	0.12	655180	keystroke_i	i	n/a
327.68	0.105	655360	keystroke_n	n	n/a
327.815	0.09	655630	keystroke_s	s	n/a
327.92	0.105	655840	keystroke_Key.space	Key.space	n/a
328.22	0.105	656440	keystroke_c	c	n/a
328.355	0.15	656710	keystroke_o	o	n/a
328.445	0.105	656890	keystroke_n	n	n/a
328.61	0.09	657220	keystroke_d	d	n/a
328.715	0.075	657430	keystroke_i	i	n/a
328.835	0.06	657670	keystroke_t	t	n/a
328.925	0.12	657850	keystroke_i	i	n/a
329.015	0.165	658030	keystroke_o	o	n/a
329.15	0.105	658300	keystroke_n	n	n/a
329.33	0.12	658660	keystroke_i	i	n/a
329.39	0.12	658780	keystroke_n	n	n/a
329.54	0.09	659080	keystroke_g	g	n/a
329.645	0.12	659290	keystroke_Key.space	Key.space	n/a
330.35	0.075	660700	keystroke_e	e	n/a
330.605	0.09	661210	keystroke_x	x	n/a
330.71	0.105	661420	keystroke_p	p	n/a
331.625	0.075	663250	keystroke_Key.backspace	Key.backspace	n/a
331.925	0.075	663850	keystroke_a	a	n/a
332.48	0.06	664960	keystroke_m	m	n/a
332.63	0.09	665260	keystroke_i	i	n/a
333.26	0.12	666520	keystroke_n	n	n/a
333.395	0.105	666790	keystroke_a	a	n/a
333.545	0.105	667090	keystroke_t	t	n/a
333.65	0.12	667300	keystroke_i	i	n/a
333.74	0.225	667480	keystroke_o	o	n/a
334.955	0.075	669910	keystroke_n	n	n/a
335.24	0.075	670480	keystroke_Key.space	Key.space	n/a
336.245	0.075	672490	keystroke_s	s	n/a
336.335	0.09	672670	keystroke_k	k	n/a
336.47	0.075	672940	keystroke_a	a	n/a
336.635	0.06	673270	keystroke_t	t	n/a
336.71	0.21	673420	keystroke_i	i	n/a
336.905	0.165	673810	keystroke_n	n	n/a
337.085	0.075	674170	keystroke_g	g	n/a
337.535	0.12	675070	keystroke_Key.enter	Key.enter	n/a
337.659	7.3625	675318	prompt	n/a	debt terrain rider much\n
338.42	0.09	676840	keystroke_d	d	n/a
338.615	0.075	677230	keystroke_e	e	n/a
338.945	0.09	677890	keystroke_b	b	n/a
339.2	0.075	678400	keystroke_t	t	n/a
339.335	0.105	678670	keystroke_Key.space	Key.space	n/a
339.65	0.075	679300	keystroke_t	t	n/a
339.845	0.09	679690	keystroke_e	e	n/a
340.07	0.03	680140	keystroke_r	r	n/a
340.205	0.075	680410	keystroke_r	r	n/a
340.565	0.03	681130	keystroke_a	a	n/a
340.745	0.135	681490	keystroke_i	i	n/a
340.835	0.15	681670	keystroke_n	n	n/a
341.15	0.06	682300	keystroke_r	r	n/a
341.57	0.06	683140	keystroke_Key.backspace	Key.backspace	n/a
341.795	0.12	683590	keystroke_Key.space	Key.space	n/a
342.08	0.075	684160	keystroke_r	r	n/a
342.41	0.105	684820	keystroke_i	i	n/a
342.53	0.06	685060	keystroke_d	d	n/a
342.71	0.135	685420	keystroke_e	e	n/a
342.845	0.09	685690	keystroke_r	r	n/a
342.98	0.075	685960	keystroke_Key.space	Key.space	n/a
343.265	0.075	686530	keystroke_m	m	n/a
343.49	0.075	686980	keystroke_u	u	n/a
343.64	0.075	687280	keystroke_c	c	n/a
344.705	0.06	689410	keystroke_h	h	n/a
344.9	0.12	689800	keystroke_Key.enter	Key.enter	n/a
345.024	6.687	690048	prompt	n/a	contract gate richardson missions\n
345.83	0.075	691660	keystroke_c	c	n/a
345.92	0.12	691840	keystroke_o	o	n/a
346.01	0.135	692020	keystroke_n	n	n/a
346.1	0.075	692200	keystroke_t	t	n/a
346.25	0.105	692500	keystroke_r	r	n/a
346.385	0.135	692770	keystroke_a	a	n/a
346.565	0.045	693130	keystroke_c	c	n/a
346.73	0.075	693460	keystroke_t	t	n/a
346.82	0.12	693640	keystroke_Key.space	Key.space	n/a
346.985	0.075	693970	keystroke_g	g	n/a
347.36	0.12	694720	keystroke_a	a	n/a
347.495	0.075	694990	keystroke_t	t	n/a
347.66	0.075	695320	keystroke_e	e	n/a
348.185	0.09	696370	keystroke_Key.space	Key.space	n/a
349.265	0.06	698530	keystroke_r	r	n/a
349.355	0.09	698710	keystroke_i	i	n/a
349.46	0.09	698920	keystroke_c	c	n/a
349.55	0.09	699100	keystroke_h	h	n/a
349.67	0.15	699340	keystroke_a	a	n/a
349.76	0.09	699520	keystroke_r	r	n/a
349.97	0.075	699940	keystroke_d	d	n/a
350.165	0.075	700330	keystroke_s	s	n/a
350.27	0.15	700540	keystroke_o	o	n/a
350.405	0.135	700810	keystroke_n	n	n/a
350.495	0.135	700990	keystroke_Key.space	Key.space	n/a
350.69	0.135	701380	keystroke_m	m	n/a
350.81	0.075	701620	keystroke_i	i	n/a
350.915	0.06	701830	keystroke_s	s	n/a
351.065	0.06	702130	keystroke_s	s	n/a
351.125	0.075	702250	keystroke_i	i	n/a
351.185	0.15	702370	keystroke_o	o	n/a
351.29	0.105	702580	keystroke_n	n	n/a
351.425	0.075	702850	keystroke_s	s	n/a
351.635	0.075	703270	keystroke_Key.enter	Key.enter	n/a
351.714	8.712	703428	prompt	n/a	consistent they're thickness tribune\n
352.595	0.09	705190	keystroke_c	c	n/a
352.715	0.135	705430	keystroke_o	o	n/a
352.805	0.09	705610	keystroke_n	n	n/a
352.955	0.075	705910	keystroke_s	s	n/a
353.045	0.09	706090	keystroke_i	i	n/a
353.18	0.075	706360	keystroke_s	s	n/a
353.315	0.045	706630	keystroke_t	t	n/a
353.465	0.075	706930	keystroke_e	e	n/a
353.57	0.075	707140	keystroke_n	n	n/a
353.69	0.075	707380	keystroke_t	t	n/a
353.795	0.075	707590	keystroke_Key.space	Key.space	n/a
353.93	0.075	707860	keystroke_t	t	n/a
354.035	0.075	708070	keystroke_h	h	n/a
354.14	0.075	708280	keystroke_e	e	n/a
354.245	0.105	708490	keystroke_y	y	n/a
354.44	0.12	708880	keystroke_'	'	n/a
354.605	0.135	709210	keystroke_r	r	n/a
354.725	0.075	709450	keystroke_e	e	n/a
354.905	0.09	709810	keystroke_Key.space	Key.space	n/a
355.265	0.075	710530	keystroke_t	t	n/a
355.355	0.105	710710	keystroke_h	h	n/a
355.475	0.135	710950	keystroke_i	i	n/a
355.7	0.09	711400	keystroke_c	c	n/a
355.88	0.075	711760	keystroke_k	k	n/a
356.15	0.075	712300	keystroke_n	n	n/a
356.24	0.075	712480	keystroke_e	e	n/a
356.435	0.045	712870	keystroke_s	s	n/a
356.57	0.06	713140	keystroke_s	s	n/a
356.66	0.12	713320	keystroke_Key.space	Key.space	n/a
357.395	0.06	714790	keystroke_t	t	n/a
357.605	0.06	715210	keystroke_r	r	n/a
357.875	0.075	715750	keystroke_i	i	n/a
359.39	0.075	718780	keystroke_b	b	n/a
359.66	0.075	719320	keystroke_u	u	n/a
359.915	0.06	719830	keystroke_n	n	n/a
360.035	0.06	720070	keystroke_e	e	n/a
360.35	0.075	720700	keystroke_Key.enter	Key.enter	n/a
360.4295	7.0465	720859	prompt	n/a	relocation physician rope cycles\n
361.295	0.06	722590	keystroke_r	r	n/a
361.61	0.06	723220	keystroke_e	e	n/a
361.925	0.06	723850	keystroke_l	l	n/a
362.0895	0.06	724179	keystroke_o	o	n/a
362.3145	0.09	724629	keystroke_c	c	n/a
362.4195	0.09	724839	keystroke_a	a	n/a
362.5095	0.0905	725019	keystroke_t	t	n/a
362.615	0.075	725230	keystroke_i	i	n/a
362.675	0.135	725350	keystroke_o	o	n/a
362.75	0.165	725500	keystroke_n	n	n/a
362.885	0.1195	725770	keystroke_Key.space	Key.space	n/a
363.1545	0.06	726309	keystroke_p	p	n/a
363.3795	0.09	726759	keystroke_h	h	n/a
363.6045	0.06	727209	keystroke_y	y	n/a
364.0245	0.09	728049	keystroke_s	s	n/a
364.1445	0.06	728289	keystroke_i	i	n/a
364.8345	0.105	729669	keystroke_c	c	n/a
364.9545	0.09	729909	keystroke_i	i	n/a
365.1045	0.045	730209	keystroke_a	a	n/a
365.1945	0.135	730389	keystroke_n	n	n/a
365.3145	0.105	730629	keystroke_Key.space	Key.space	n/a
365.5545	0.105	731109	keystroke_r	r	n/a
365.6445	0.075	731289	keystroke_o	o	n/a
365.8245	0.075	731649	keystroke_p	p	n/a
365.9445	0.075	731889	keystroke_e	e	n/a
366.0645	0.075	732129	keystroke_Key.space	Key.space	n/a
366.2295	0.09	732459	keystroke_c	c	n/a
366.3945	0.03	732789	keystroke_y	y	n/a
366.5595	0.105	733119	keystroke_c	c	n/a
366.9195	0.06	733839	keystroke_l	l	n/a
367.0095	0.06	734019	keystroke_e	e	n/a
367.1745	0.06	734349	keystroke_s	s	n/a
367.4145	0.06	734829	keystroke_Key.enter	Key.enter	n/a
367.4805	7.96	734961	prompt	n/a	accredited jacob cheap mechanical\n
368.2995	0.075	736599	keystroke_a	a	n/a
368.5245	0.06	737049	keystroke_c	c	n/a
368.6595	0.06	737319	keystroke_c	c	n/a
368.8395	0.105	737679	keystroke_r	r	n/a
368.9445	0.075	737889	keystroke_e	e	n/a
369.1395	0.075	738279	keystroke_d	d	n/a
369.2295	0.075	738459	keystroke_i	i	n/a
369.3345	0.075	738669	keystroke_t	t	n/a
369.4545	0.075	738909	keystroke_e	e	n/a
369.6495	0.06	739299	keystroke_d	d	n/a
369.7395	0.12	739479	keystroke_Key.space	Key.space	n/a
370.4145	0.09	740829	keystroke_j	j	n/a
370.5195	0.075	741039	keystroke_a	a	n/a
370.8795	0.06	741759	keystroke_c	c	n/a
370.9845	0.075	741969	keystroke_o	o	n/a
371.3445	0.06	742689	keystroke_b	b	n/a
371.9145	0.12	743829	keystroke_Key.space	Key.space	n/a
372.1545	0.09	744309	keystroke_c	c	n/a
372.2745	0.075	744549	keystroke_h	h	n/a
372.3495	0.135	744699	keystroke_e	e	n/a
372.4845	0.075	744969	keystroke_a	a	n/a
373.2045	0.06	746409	keystroke_p	p	n/a
373.4295	0.09	746859	keystroke_Key.space	Key.space	n/a
373.7895	0.075	747579	keystroke_m	m	n/a
373.9245	0.06	747849	keystroke_e	e	n/a
374.1195	0.075	748239	keystroke_c	c	n/a
374.2095	0.075	748419	keystroke_h	h	n/a
374.3145	0.075	748629	keystroke_a	a	n/a
374.4345	0.12	748869	keystroke_n	n	n/a
374.5395	0.09	749079	keystroke_i	i	n/a
374.6445	0.12	749289	keystroke_c	c	n/a
374.7795	0.03	749559	keystroke_a	a	n/a
374.9295	0.045	749859	keystroke_l	l	n/a
375.3345	0.105	750669	keystroke_Key.enter	Key.enter	n/a
375.4435	16.6325	750887	prompt	n/a	ecological hungary oracle arrivals\n
376.7145	0.06	753429	keystroke_e	e	n/a
377.1645	0.075	754329	keystroke_c	c	n/a
377.9145	0.075	755829	keystroke_o	o	n/a
378.1395	0.075	756279	keystroke_l	l	n/a
378.3195	0.06	756639	keystroke_o	o	n/a
378.4245	0.06	756849	keystroke_g	g	n/a
378.5145	0.105	757029	keystroke_i	i	n/a
379.0095	0.12	758019	keystroke_c	c	n/a
379.1145	0.075	758229	keystroke_a	a	n/a
379.3395	0.15	758679	keystroke_l	l	n/a
379.5045	0.075	759009	keystroke_Key.space	Key.space	n/a
379.9545	0.06	759909	keystroke_h	h	n/a
380.1495	0.06	760299	keystroke_u	u	n/a
380.3595	0.075	760719	keystroke_n	n	n/a
381.5745	0.075	763149	keystroke_g	g	n/a
381.7095	0.075	763419	keystroke_a	a	n/a
381.9345	0.06	763869	keystroke_r	r	n/a
382.1295	0.09	764259	keystroke_y	y	n/a
382.5195	0.105	765039	keystroke_Key.space	Key.space	n/a
382.7145	0.075	765429	keystroke_o	o	n/a
382.8945	0.06	765789	keystroke_r	r	n/a
383.2695	0.045	766539	keystroke_c	c	n/a
383.3745	0.06	766749	keystroke_a	a	n/a
384.6195	0.03	769239	keystroke_Key.backspace	Key.backspace	n/a
384.7545	0.03	769509	keystroke_Key.backspace	Key.backspace	n/a
385.3395	0.09	770679	keystroke_a	a	n/a
386.1345	0.075	772269	keystroke_c	c	n/a
386.2695	0.06	772539	keystroke_l	l	n/a
386.3595	0.09	772719	keystroke_e	e	n/a
386.4795	0.075	772959	keystroke_Key.space	Key.space	n/a
386.8995	0.06	773799	keystroke_a	a	n/a
387.0645	0.06	774129	keystroke_r	r	n/a
387.1995	0.06	774399	keystroke_r	r	n/a
387.2895	0.09	774579	keystroke_i	i	n/a
387.5145	0.075	775029	keystroke_v	v	n/a
387.6645	0.09	775329	keystroke_a	a	n/a
391.8365	0.013	783673	keystroke_l	l	n/a
391.8645	0.09	783729	keystroke_s	s	n/a
392.0145	0.06	784029	keystroke_Key.enter	Key.enter	n/a
392.0785	5.608	784157	prompt	n/a	tend prev middle cisco\n
392.8695	0.075	785739	keystroke_t	t	n/a
393.1095	0.075	786219	keystroke_e	e	n/a
393.2295	0.09	786459	keystroke_n	n	n/a
393.3795	0.075	786759	keystroke_t	t	n/a
393.4995	0.105	786999	keystroke_Key.space	Key.space	n/a
394.1295	0.015	788259	keystroke_p	p	n/a
394.2195	0.075	788439	keystroke_r	r	n/a
394.3395	0.075	788679	keystroke_e	e	n/a
394.5345	0.09	789069	keystroke_v	v	n/a
394.6995	0.105	789399	keystroke_Key.space	Key.space	n/a
394.9695	0.09	789939	keystroke_m	m	n/a
395.0745	0.075	790149	keystroke_i	i	n/a
395.1795	0.06	790359	keystroke_d	d	n/a
395.3145	0.06	790629	keystroke_d	d	n/a
395.4045	0.075	790809	keystroke_l	l	n/a
395.5245	0.075	791049	keystroke_e	e	n/a
395.6295	0.075	791259	keystroke_Key.space	Key.space	n/a
396.7845	0.075	793569	keystroke_c	c	n/a
396.9045	0.06	793809	keystroke_i	i	n/a
397.1145	0.06	794229	keystroke_s	s	n/a
397.2795	0.06	794559	keystroke_c	c	n/a
397.3995	0.06	794799	keystroke_o	o	n/a
397.6245	0.06	795249	keystroke_Key.enter	Key.enter	n/a
397.689	7.857	795378	prompt	n/a	side chat fruits viewing\n
398.4645	0.075	796929	keystroke_s	s	n/a
398.5845	0.06	797169	keystroke_i	i	n/a
398.6595	0.06	797319	keystroke_d	d	n/a
398.8095	0.06	797619	keystroke_e	e	n/a
398.8845	0.09	797769	keystroke_Key.space	Key.space	n/a
399.0795	0.105	798159	keystroke_c	c	n/a
399.1695	0.075	798339	keystroke_h	h	n/a
399.2895	0.105	798579	keystroke_a	a	n/a
399.4245	0.075	798849	keystroke_t	t	n/a
399.5445	0.105	799089	keystroke_Key.space	Key.space	n/a
400.6245	0.075	801249	keystroke_f	f	n/a
400.7895	0.135	801579	keystroke_u	u	n/a
402.739	0.075	805478	keystroke_Key.backspace	Key.backspace	n/a
402.8745	0.0745	805749	keystroke_r	r	n/a
403.0995	0.105	806199	keystroke_u	u	n/a
403.2495	0.1195	806499	keystroke_i	i	n/a
403.399	0.075	806798	keystroke_t	t	n/a
403.594	0.075	807188	keystroke_s	s	n/a
403.729	0.1205	807458	keystroke_Key.space	Key.space	n/a
404.0295	0.075	808059	keystroke_v	v	n/a
404.1495	0.09	808299	keystroke_i	i	n/a
404.3145	0.075	808629	keystroke_e	e	n/a
404.8995	0.075	809799	keystroke_w	w	n/a
405.0495	0.165	810099	keystroke_i	i	n/a
405.1995	0.105	810399	keystroke_n	n	n/a
405.3195	0.045	810639	keystroke_g	g	n/a
405.4995	0.0445	810999	keystroke_Key.enter	Key.enter	n/a
405.551	6.22	811102	prompt	n/a	adrian focus reaction turns\n
406.309	0.0455	812618	keystroke_a	a	n/a
406.624	0.09	813248	keystroke_d	d	n/a
406.8345	0.1045	813669	keystroke_r	r	n/a
406.969	0.0905	813938	keystroke_i	i	n/a
407.089	0.075	814178	keystroke_a	a	n/a
407.194	0.12	814388	keystroke_n	n	n/a
407.2845	0.0895	814569	keystroke_Key.space	Key.space	n/a
408.364	0.045	816728	keystroke_f	f	n/a
408.469	0.0905	816938	keystroke_o	o	n/a
408.56	0.089	817120	keystroke_c	c	n/a
408.679	0.075	817358	keystroke_u	u	n/a
408.844	0.09	817688	keystroke_s	s	n/a
408.9795	0.12	817959	keystroke_Key.space	Key.space	n/a
409.5045	0.15	819009	keystroke_r	r	n/a
409.655	0.059	819310	keystroke_e	e	n/a
409.714	0.0905	819428	keystroke_a	a	n/a
409.924	0.0755	819848	keystroke_c	c	n/a
410.119	0.0755	820238	keystroke_t	t	n/a
410.2095	0.1345	820419	keystroke_i	i	n/a
410.3295	0.1345	820659	keystroke_o	o	n/a
410.449	0.12	820898	keystroke_n	n	n/a
410.525	0.119	821050	keystroke_Key.space	Key.space	n/a
410.689	0.075	821378	keystroke_t	t	n/a
410.794	0.09	821588	keystroke_u	u	n/a
410.944	0.09	821888	keystroke_r	r	n/a
411.139	0.09	822278	keystroke_n	n	n/a
411.574	0.075	823148	keystroke_s	s	n/a
411.709	0.06	823418	keystroke_Key.enter	Key.enter	n/a
411.774	8.892	823548	prompt	n/a	circle everyone plugins ready\n
414.007	0.001	828014	keystroke_c	c	n/a
414.514	0.105	829028	keystroke_i	i	n/a
414.634	0.015	829268	keystroke_r	r	n/a
414.814	0.09	829628	keystroke_c	c	n/a
414.949	0.06	829898	keystroke_l	l	n/a
415.114	0.075	830228	keystroke_e	e	n/a
415.234	0.135	830468	keystroke_Key.space	Key.space	n/a
415.579	0.06	831158	keystroke_e	e	n/a
415.744	0.075	831488	keystroke_v	v	n/a
415.969	0.09	831938	keystroke_e	e	n/a
416.074	0.075	832148	keystroke_r	r	n/a
416.224	0.09	832448	keystroke_y	y	n/a
416.419	0.15	832838	keystroke_o	o	n/a
416.599	0.105	833198	keystroke_n	n	n/a
416.734	0.09	833468	keystroke_e	e	n/a
416.8845	0.0895	833769	keystroke_Key.space	Key.space	n/a
417.859	0.045	835718	keystroke_p	p	n/a
418.039	0.076	836078	keystroke_l	l	n/a
418.354	0.09	836708	keystroke_u	u	n/a
418.924	0.075	837848	keystroke_g	g	n/a
419.104	0.165	838208	keystroke_i	i	n/a
419.209	0.12	838418	keystroke_n	n	n/a
419.389	0.09	838778	keystroke_s	s	n/a
419.524	0.105	839048	keystroke_Key.space	Key.space	n/a
419.719	0.165	839438	keystroke_r	r	n/a
419.824	0.135	839648	keystroke_e	e	n/a
419.944	0.105	839888	keystroke_a	a	n/a
420.169	0.075	840338	keystroke_d	d	n/a
420.304	0.09	840608	keystroke_y	y	n/a
420.574	0.09	841148	keystroke_Key.enter	Key.enter	n/a
420.669	5.367	841338	prompt	n/a	euro listed drops totally\n
422.029	0.075	844058	keystroke_e	e	n/a
422.314	0.12	844628	keystroke_u	u	n/a
422.599	0.045	845198	keystroke_r	r	n/a
422.719	0.165	845438	keystroke_o	o	n/a
422.869	0.135	845738	keystroke_Key.space	Key.space	n/a
423.124	0.135	846248	keystroke_l	l	n/a
423.274	0.09	846548	keystroke_i	i	n/a
423.379	0.09	846758	keystroke_s	s	n/a
423.484	0.075	846968	keystroke_t	t	n/a
423.619	0.075	847238	keystroke_e	e	n/a
423.814	0.06	847628	keystroke_d	d	n/a
423.889	0.135	847778	keystroke_Key.space	Key.space	n/a
424.054	0.075	848108	keystroke_d	d	n/a
424.234	0.075	848468	keystroke_r	r	n/a
424.354	0.075	848708	keystroke_o	o	n/a
424.549	0.09	849098	keystroke_p	p	n/a
424.714	0.09	849428	keystroke_s	s	n/a
424.789	0.105	849578	keystroke_Key.space	Key.space	n/a
424.939	0.06	849878	keystroke_t	t	n/a
425.044	0.09	850088	keystroke_o	o	n/a
425.149	0.06	850298	keystroke_t	t	n/a
425.254	0.06	850508	keystroke_a	a	n/a
425.374	0.045	850748	keystroke_l	l	n/a
425.524	0.045	851048	keystroke_l	l	n/a
425.704	0.075	851408	keystroke_y	y	n/a
425.944	0.09	851888	keystroke_Key.enter	Key.enter	n/a
426.0405	9.4605	852081	prompt	n/a	echo texts ratios resulting\n
426.604	0.09	853208	keystroke_e	e	n/a
426.814	0.09	853628	keystroke_c	c	n/a
426.934	0.075	853868	keystroke_h	h	n/a
427.114	0.045	854228	keystroke_o	o	n/a
427.249	0.06	854498	keystroke_Key.space	Key.space	n/a
427.384	0.06	854768	keystroke_t	t	n/a
427.534	0.045	855068	keystroke_e	e	n/a
427.789	0.09	855578	keystroke_x	x	n/a
427.999	0.06	855998	keystroke_t	t	n/a
428.179	0.075	856358	keystroke_s	s	n/a
428.374	0.075	856748	keystroke_Key.space	Key.space	n/a
428.899	0.09	857798	keystroke_t	t	n/a
429.064	0.075	858128	keystroke_a	a	n/a
429.214	0.06	858428	keystroke_t	t	n/a
429.319	0.12	858638	keystroke_i	i	n/a
429.424	0.165	858848	keystroke_o	o	n/a
429.559	0.06	859118	keystroke_n	n	n/a
429.994	0.0755	859988	keystroke_Key.backspace	Key.backspace	n/a
430.4745	0.06	860949	keystroke_Key.backspace	Key.backspace	n/a
430.6245	0.06	861249	keystroke_Key.backspace	Key.backspace	n/a
430.7745	0.045	861549	keystroke_Key.backspace	Key.backspace	n/a
430.9245	0.03	861849	keystroke_Key.backspace	Key.backspace	n/a
431.2395	0.075	862479	keystroke_Key.backspace	Key.backspace	n/a
431.3445	0.105	862689	keystroke_r	r	n/a
431.4345	0.075	862869	keystroke_a	a	n/a
431.5695	0.075	863139	keystroke_t	t	n/a
431.7195	0.075	863439	keystroke_i	i	n/a
432.1395	0.075	864279	keystroke_o	o	n/a
432.2895	0.09	864579	keystroke_s	s	n/a
432.4395	0.075	864879	keystroke_Key.space	Key.space	n/a
433.6395	0.045	867279	keystroke_r	r	n/a
433.7295	0.06	867459	keystroke_e	e	n/a
433.8795	0.075	867759	keystroke_s	s	n/a
434.0295	0.075	868059	keystroke_u	u	n/a
434.3895	0.09	868779	keystroke_l	l	n/a
434.5695	0.06	869139	keystroke_t	t	n/a
434.6445	0.15	869289	keystroke_i	i	n/a
434.7495	0.12	869499	keystroke_n	n	n/a
434.8545	0.075	869709	keystroke_g	g	n/a
435.3945	0.105	870789	keystroke_Key.enter	Key.enter	n/a
435.504	8.847	871008	prompt	n/a	sporting basin genuine illinois\n
437.0595	0.09	874119	keystroke_s	s	n/a
437.1795	0.075	874359	keystroke_p	p	n/a
437.3895	0.06	874779	keystroke_o	o	n/a
437.4795	0.06	874959	keystroke_r	r	n/a
437.6445	0.06	875289	keystroke_t	t	n/a
437.7345	0.135	875469	keystroke_i	i	n/a
437.8545	0.12	875709	keystroke_n	n	n/a
437.9895	0.075	875979	keystroke_g	g	n/a
438.0945	0.12	876189	keystroke_Key.space	Key.space	n/a
438.3345	0.09	876669	keystroke_b	b	n/a
438.4395	0.06	876879	keystroke_a	a	n/a
438.5895	0.06	877179	keystroke_s	s	n/a
438.6795	0.135	877359	keystroke_i	i	n/a
438.7695	0.135	877539	keystroke_n	n	n/a
438.9645	0.15	877929	keystroke_Key.space	Key.space	n/a
440.0295	0.075	880059	keystroke_g	g	n/a
440.2395	0.06	880479	keystroke_e	e	n/a
441.9495	0.075	883899	keystroke_n	n	n/a
442.2345	0.09	884469	keystroke_u	u	n/a
442.3545	0.105	884709	keystroke_i	i	n/a
442.5345	0.09	885069	keystroke_n	n	n/a
442.7145	0.075	885429	keystroke_e	e	n/a
442.8045	0.09	885609	keystroke_Key.space	Key.space	n/a
443.0895	0.075	886179	keystroke_i	i	n/a
443.2845	0.06	886569	keystroke_l	l	n/a
443.4345	0.075	886869	keystroke_l	l	n/a
443.5845	0.12	887169	keystroke_i	i	n/a
443.6595	0.165	887319	keystroke_n	n	n/a
443.8395	0.18	887679	keystroke_o	o	n/a
444.0045	0.075	888009	keystroke_i	i	n/a
444.1245	0.06	888249	keystroke_s	s	n/a
444.2895	0.06	888579	keystroke_Key.enter	Key.enter	n/a
444.3535	7.7525	888707	prompt	n/a	jake bulgaria flashers it's\n
445.5045	0.105	891009	keystroke_j	j	n/a
445.6395	0.06	891279	keystroke_a	a	n/a
445.7445	0.09	891489	keystroke_k	k	n/a
445.8645	0.075	891729	keystroke_e	e	n/a
445.9695	0.105	891939	keystroke_Key.space	Key.space	n/a
446.2245	0.06	892449	keystroke_b	b	n/a
446.4495	0.075	892899	keystroke_u	u	n/a
446.66	0.089	893320	keystroke_l	l	n/a
446.809	0.075	893618	keystroke_g	g	n/a
446.974	0.135	893948	keystroke_a	a	n/a
447.124	0.06	894248	keystroke_r	r	n/a
447.229	0.075	894458	keystroke_i	i	n/a
447.379	0.075	894758	keystroke_a	a	n/a
448.024	0.12	896048	keystroke_Key.space	Key.space	n/a
448.294	0.09	896588	keystroke_f	f	n/a
448.444	0.075	896888	keystroke_l	l	n/a
448.534	0.075	897068	keystroke_a	a	n/a
448.729	0.075	897458	keystroke_s	s	n/a
448.879	0.105	897758	keystroke_h	h	n/a
449.044	0.105	898088	keystroke_e	e	n/a
449.104	0.09	898208	keystroke_r	r	n/a
449.269	0.09	898538	keystroke_s	s	n/a
449.389	0.105	898778	keystroke_Key.space	Key.space	n/a
449.599	0.105	899198	keystroke_u	u	n/a
449.749	0.09	899498	keystroke_t	t	n/a
450.304	0.045	900608	keystroke_Key.backspace	Key.backspace	n/a
450.424	0.03	900848	keystroke_Key.backspace	Key.backspace	n/a
451.084	0.075	902168	keystroke_i	i	n/a
451.189	0.105	902378	keystroke_t	t	n/a
451.609	0.06	903218	keystroke_'	'	n/a
451.744	0.06	903488	keystroke_s	s	n/a
452.014	0.09	904028	keystroke_Key.enter	Key.enter	n/a
452.109	8.5315	904218	prompt	n/a	speech worlds victoria diesel\n
453.034	0.06	906068	keystroke_s	s	n/a
453.169	0.091	906338	keystroke_p	p	n/a
453.304	0.045	906608	keystroke_e	e	n/a
453.424	0.06	906848	keystroke_e	e	n/a
453.589	0.09	907178	keystroke_c	c	n/a
453.709	0.165	907418	keystroke_h	h	n/a
453.949	0.12	907898	keystroke_Key.space	Key.space	n/a
454.264	0.075	908528	keystroke_w	w	n/a
454.369	0.09	908738	keystroke_o	o	n/a
455.239	0.075	910478	keystroke_r	r	n/a
455.524	0.075	911048	keystroke_l	l	n/a
455.689	0.075	911378	keystroke_d	d	n/a
455.884	0.091	911768	keystroke_s	s	n/a
456.514	0.105	913028	keystroke_Key.space	Key.space	n/a
456.829	0.105	913658	keystroke_v	v	n/a
457.009	0.105	914018	keystroke_i	i	n/a
457.159	0.06	914318	keystroke_c	c	n/a
457.369	0.045	914738	keystroke_t	t	n/a
457.46	0.074	914920	keystroke_o	o	n/a
457.61	0.074	915220	keystroke_r	r	n/a
457.729	0.06	915458	keystroke_i	i	n/a
457.91	0.044	915820	keystroke_a	a	n/a
458.209	0.105	916418	keystroke_Key.space	Key.space	n/a
458.719	0.075	917438	keystroke_d	d	n/a
459.034	0.06	918068	keystroke_i	i	n/a
459.799	0.06	919598	keystroke_e	e	n/a
460.039	0.09	920078	keystroke_s	s	n/a
460.219	0.045	920438	keystroke_e	e	n/a
460.369	0.06	920738	keystroke_l	l	n/a
460.564	0.075	921128	keystroke_Key.enter	Key.enter	n/a
460.6435	5.922	921287	prompt	n/a	holy allocation monster stops\n
461.7045	0.0895	923409	keystroke_h	h	n/a
461.854	0.075	923708	keystroke_o	o	n/a
462.049	0.0605	924098	keystroke_l	l	n/a
462.2595	0.119	924519	keystroke_y	y	n/a
462.4085	0.105	924817	keystroke_Key.space	Key.space	n/a
462.9485	0.031	925897	keystroke_a	a	n/a
463.2195	0.06	926439	keystroke_l	l	n/a
463.3685	0.0605	926737	keystroke_l	l	n/a
463.5345	0.059	927069	keystroke_o	o	n/a
463.6085	0.091	927217	keystroke_c	c	n/a
463.7435	0.106	927487	keystroke_a	a	n/a
463.8345	0.074	927669	keystroke_t	t	n/a
463.8945	0.104	927789	keystroke_i	i	n/a
463.9835	0.135	927967	keystroke_o	o	n/a
464.1045	0.105	928209	keystroke_n	n	n/a
464.1785	0.105	928357	keystroke_Key.space	Key.space	n/a
464.3595	0.09	928719	keystroke_m	m	n/a
464.4935	0.135	928987	keystroke_o	o	n/a
464.5995	0.09	929199	keystroke_n	n	n/a
464.7195	0.075	929439	keystroke_s	s	n/a
464.9135	0.075	929827	keystroke_t	t	n/a
465.1095	0.119	930219	keystroke_e	e	n/a
465.2295	0.105	930459	keystroke_r	r	n/a
465.5585	0.105	931117	keystroke_Key.space	Key.space	n/a
465.6785	0.075	931357	keystroke_s	s	n/a
465.8735	0.045	931747	keystroke_t	t	n/a
465.9485	0.075	931897	keystroke_o	o	n/a
466.1435	0.045	932287	keystroke_p	p	n/a
466.2645	0.059	932529	keystroke_s	s	n/a
466.5035	0.06	933007	keystroke_Key.enter	Key.enter	n/a
466.568	7.4825	933136	prompt	n/a	medicaid lake precisely bent\n
467.2095	0.104	934419	keystroke_m	m	n/a
467.3285	0.06	934657	keystroke_e	e	n/a
467.4935	0.06	934987	keystroke_d	d	n/a
467.5845	0.059	935169	keystroke_i	i	n/a
467.6585	0.121	935317	keystroke_c	c	n/a
467.7645	0.075	935529	keystroke_a	a	n/a
467.8685	0.061	935737	keystroke_i	i	n/a
468.0185	0.076	936037	keystroke_d	d	n/a
468.1235	0.105	936247	keystroke_Key.space	Key.space	n/a
468.2595	0.09	936519	keystroke_l	l	n/a
468.3495	0.06	936699	keystroke_a	a	n/a
468.7095	0.059	937419	keystroke_k	k	n/a
468.8295	0.075	937659	keystroke_e	e	n/a
468.9485	0.09	937897	keystroke_Key.space	Key.space	n/a
470.1185	0.046	940237	keystroke_p	p	n/a
470.1935	0.18	940387	keystroke_r	r	n/a
470.3285	0.076	940657	keystroke_e	e	n/a
471.1095	0.06	942219	keystroke_c	c	n/a
471.1985	0.075	942397	keystroke_i	i	n/a
471.4235	0.136	942847	keystroke_s	s	n/a
471.6045	0.089	943209	keystroke_e	e	n/a
471.7245	0.06	943449	keystroke_l	l	n/a
471.9195	0.059	943839	keystroke_y	y	n/a
472.1435	0.12	944287	keystroke_Key.space	Key.space	n/a
473.0595	0.075	946119	keystroke_b	b	n/a
473.1785	0.076	946357	keystroke_e	e	n/a
473.3295	0.075	946659	keystroke_n	n	n/a
473.6145	0.06	947229	keystroke_t	t	n/a
473.9885	0.06	947977	keystroke_Key.enter	Key.enter	n/a
474.054	4.992	948108	prompt	n/a	report region islands models\n
474.9645	0.089	949929	keystroke_r	r	n/a
475.0995	0.06	950199	keystroke_e	e	n/a
475.1745	0.074	950349	keystroke_p	p	n/a
475.3695	0.059	950739	keystroke_o	o	n/a
475.4595	0.06	950919	keystroke_r	r	n/a
475.6545	0.03	951309	keystroke_t	t	n/a
475.6985	0.09	951397	keystroke_Key.space	Key.space	n/a
475.8645	0.089	951729	keystroke_r	r	n/a
476.0145	0.06	952029	keystroke_e	e	n/a
476.2095	0.089	952419	keystroke_g	g	n/a
476.3445	0.105	952689	keystroke_i	i	n/a
476.4635	0.136	952927	keystroke_o	o	n/a
476.5845	0.119	953169	keystroke_n	n	n/a
476.6885	0.105	953377	keystroke_Key.space	Key.space	n/a
476.8095	0.105	953619	keystroke_i	i	n/a
476.9735	0.076	953947	keystroke_s	s	n/a
477.1245	0.074	954249	keystroke_l	l	n/a
477.2295	0.06	954459	keystroke_a	a	n/a
477.3345	0.075	954669	keystroke_n	n	n/a
477.4695	0.12	954939	keystroke_d	d	n/a
477.6195	0.09	955239	keystroke_s	s	n/a
477.8135	0.105	955627	keystroke_Key.space	Key.space	n/a
478.0245	0.105	956049	keystroke_m	m	n/a
478.1895	0.075	956379	keystroke_o	o	n/a
478.4595	0.075	956919	keystroke_d	d	n/a
478.6245	0.075	957249	keystroke_e	e	n/a
478.7445	0.075	957489	keystroke_l	l	n/a
478.8495	0.075	957699	keystroke_s	s	n/a
478.9685	0.075	957937	keystroke_Key.enter	Key.enter	n/a
479.0515	4.704	958103	prompt	n/a	tuner paper should held\n
479.9295	0.06	959859	keystroke_t	t	n/a
480.0345	0.075	960069	keystroke_u	u	n/a
480.2595	0.06	960519	keystroke_n	n	n/a
480.3645	0.12	960729	keystroke_e	e	n/a
480.4695	0.09	960939	keystroke_r	r	n/a
480.5135	0.12	961027	keystroke_Key.space	Key.space	n/a
480.6795	0.03	961359	keystroke_p	p	n/a
480.7245	0.06	961449	keystroke_a	a	n/a
480.8445	0.075	961689	keystroke_p	p	n/a
480.9645	0.09	961929	keystroke_e	e	n/a
481.0095	0.105	962019	keystroke_r	r	n/a
481.1285	0.105	962257	keystroke_Key.space	Key.space	n/a
481.4285	0.031	962857	keystroke_s	s	n/a
481.4895	0.09	962979	keystroke_h	h	n/a
481.6395	0.09	963279	keystroke_o	o	n/a
481.7145	0.105	963429	keystroke_u	u	n/a
481.8495	0.105	963699	keystroke_l	l	n/a
481.9685	0.091	963937	keystroke_d	d	n/a
482.0435	0.12	964087	keystroke_Key.space	Key.space	n/a
482.1795	0.074	964359	keystroke_h	h	n/a
482.2695	0.059	964539	keystroke_e	e	n/a
482.3445	0.09	964689	keystroke_l	l	n/a
483.5295	0.09	967059	keystroke_d	d	n/a
483.6795	0.074	967359	keystroke_Key.enter	Key.enter	n/a
483.758	9.9275	967516	prompt	n/a	saudi addressing tiger researcher\n
484.9385	0.135	969877	keystroke_s	s	n/a
485.0435	0.105	970087	keystroke_a	a	n/a
485.1935	0.09	970387	keystroke_u	u	n/a
485.4335	0.045	970867	keystroke_d	d	n/a
485.5385	0.06	971077	keystroke_i	i	n/a
485.7185	0.105	971437	keystroke_Key.space	Key.space	n/a
485.8385	0.06	971677	keystroke_a	a	n/a
486.0185	0.06	972037	keystroke_d	d	n/a
486.1535	0.075	972307	keystroke_d	d	n/a
486.2885	0.121	972577	keystroke_r	r	n/a
486.3935	0.105	972787	keystroke_e	e	n/a
486.6185	0.075	973237	keystroke_s	s	n/a
486.7685	0.075	973537	keystroke_s	s	n/a
486.8585	0.12	973717	keystroke_i	i	n/a
486.9485	0.12	973897	keystroke_n	n	n/a
487.0535	0.075	974107	keystroke_g	g	n/a
487.1435	0.09	974287	keystroke_Key.space	Key.space	n/a
487.2785	0.06	974557	keystroke_t	t	n/a
487.3535	0.105	974707	keystroke_i	i	n/a
487.4885	0.06	974977	keystroke_g	g	n/a
487.6085	0.09	975217	keystroke_h	h	n/a
487.7885	0.135	975577	keystroke_e	e	n/a
487.9085	0.09	975817	keystroke_r	r	n/a
488.2385	0.06	976477	keystroke_Key.backspace	Key.backspace	n/a
488.3735	0.045	976747	keystroke_Key.backspace	Key.backspace	n/a
488.5085	0.075	977017	keystroke_Key.backspace	Key.backspace	n/a
488.6285	0.045	977257	keystroke_g	g	n/a
488.8835	0.12	977767	keystroke_e	e	n/a
489.1985	0.06	978397	keystroke_Key.backspace	Key.backspace	n/a
489.3185	0.06	978637	keystroke_Key.backspace	Key.backspace	n/a
489.3935	0.09	978787	keystroke_e	e	n/a
489.4385	0.09	978877	keystroke_r	r	n/a
489.6935	0.06	979387	keystroke_Key.space	Key.space	n/a
490.2335	0.075	980467	keystroke_r	r	n/a
490.3535	0.075	980707	keystroke_e	e	n/a
490.5485	0.15	981097	keystroke_s	s	n/a
490.6835	0.135	981367	keystroke_e	e	n/a
490.8335	0.15	981667	keystroke_r	r	n/a
491.5085	0.105	983017	keystroke_a	a	n/a
491.9585	0.045	983917	keystroke_Key.backspace	Key.backspace	n/a
492.1385	0.015	984277	keystroke_Key.backspace	Key.backspace	n/a
492.1685	0.09	984337	keystroke_a	a	n/a
492.7535	0.06	985507	keystroke_r	r	n/a
493.0235	0.12	986047	keystroke_c	c	n/a
493.1585	0.03	986317	keystroke_h	h	n/a
493.3685	0.09	986737	keystroke_e	e	n/a
493.4435	0.075	986887	keystroke_r	r	n/a
493.6085	0.075	987217	keystroke_Key.enter	Key.enter	n/a
493.691	13.5245	987382	prompt	n/a	africa evaluation votes compile\n
494.3885	0.12	988777	keystroke_a	a	n/a
494.5385	0.09	989077	keystroke_f	f	n/a
494.7935	0.075	989587	keystroke_r	r	n/a
494.9285	0.075	989857	keystroke_i	i	n/a
495.2135	0.03	990427	keystroke_a	a	n/a
495.6185	0.09	991237	keystroke_Key.backspace	Key.backspace	n/a
495.9335	0.135	991867	keystroke_c	c	n/a
496.0385	0.12	992077	keystroke_a	a	n/a
496.2635	0.105	992527	keystroke_Key.space	Key.space	n/a
496.8335	0.075	993667	keystroke_e	e	n/a
496.9685	0.09	993937	keystroke_v	v	n/a
497.1335	0.075	994267	keystroke_a	a	n/a
498.3035	0.135	996607	keystroke_l	l	n/a
498.5135	0.09	997027	keystroke_u	u	n/a
498.7835	0.075	997567	keystroke_a	a	n/a
498.8735	0.09	997747	keystroke_t	t	n/a
498.9935	0.15	997987	keystroke_i	i	n/a
499.1285	0.135	998257	keystroke_o	o	n/a
499.3235	0.165	998647	keystroke_n	n	n/a
499.5035	0.105	999007	keystroke_Key.space	Key.space	n/a
499.6685	0.075	999337	keystroke_v	v	n/a
499.7585	0.105	999517	keystroke_o	o	n/a
499.8935	0.09	999787	keystroke_t	t	n/a
500.0585	0.135	1000117	keystroke_e	e	n/a
500.2085	0.09	1000417	keystroke_s	s	n/a
500.6735	0.12	1001347	keystroke_Key.space	Key.space	n/a
500.9735	0.09	1001947	keystroke_c	c	n/a
501.0785	0.105	1002157	keystroke_o	o	n/a
501.5585	0.075	1003117	keystroke_m	m	n/a
501.7385	0.075	1003477	keystroke_p	p	n/a
501.9485	0.12	1003897	keystroke_l	l	n/a
502.0695	0.089	1004139	keystroke_i	i	n/a
504.3065	0	1008613	keystroke_Key.backspace	Key.backspace	n/a
504.3335	0.015	1008667	keystroke_Key.backspace	Key.backspace	n/a
504.5885	0.015	1009177	keystroke_o	o	n/a
504.7235	0.09	1009447	keystroke_l	l	n/a
504.9185	0.045	1009837	keystroke_e	e	n/a
505.2785	0.045	1010557	keystroke_Key.backspace	Key.backspace	n/a
505.4135	0.045	1010827	keystroke_Key.backspace	Key.backspace	n/a
505.5635	0.045	1011127	keystroke_Key.backspace	Key.backspace	n/a
506.5695	0.074	1013139	keystroke_i	i	n/a
506.7935	0.09	1013587	keystroke_l	l	n/a
506.9435	0.075	1013887	keystroke_e	e	n/a
507.1385	0.075	1014277	keystroke_Key.enter	Key.enter	n/a
507.219	10.9615	1014438	prompt	n/a	advisory humor beta restricted\n
508.0095	0.074	1016019	keystroke_a	a	n/a
508.2935	0.105	1016587	keystroke_d	d	n/a
509.1335	0.075	1018267	keystroke_v	v	n/a
509.2845	0.075	1018569	keystroke_i	i	n/a
509.3885	0.075	1018777	keystroke_s	s	n/a
509.5235	0.09	1019047	keystroke_o	o	n/a
509.7185	0.045	1019437	keystroke_r	r	n/a
509.9295	0.134	1019859	keystroke_y	y	n/a
510.1385	0.105	1020277	keystroke_Key.space	Key.space	n/a
510.7385	0.06	1021477	keystroke_h	h	n/a
510.9185	0.06	1021837	keystroke_u	u	n/a
511.0985	0.12	1022197	keystroke_m	m	n/a
511.2335	0.09	1022467	keystroke_o	o	n/a
511.4135	0.076	1022827	keystroke_r	r	n/a
511.6235	0.12	1023247	keystroke_Key.space	Key.space	n/a
511.9085	0.09	1023817	keystroke_b	b	n/a
512.1185	0.046	1024237	keystroke_e	e	n/a
512.3585	0.076	1024717	keystroke_t	t	n/a
512.5085	0.061	1025017	keystroke_a	a	n/a
512.6735	0.105	1025347	keystroke_Key.space	Key.space	n/a
512.9885	0.12	1025977	keystroke_r	r	n/a
513.1235	0.106	1026247	keystroke_e	e	n/a
513.3035	0.121	1026607	keystroke_s	s	n/a
513.4985	0.09	1026997	keystroke_t	t	n/a
513.7085	0.075	1027417	keystroke_r	r	n/a
514.3535	0.06	1028707	keystroke_c	c	n/a
514.5335	0.09	1029067	keystroke_t	t	n/a
514.6985	0.06	1029397	keystroke_e	e	n/a
514.8935	0.06	1029787	keystroke_d	d	n/a
515.3135	0.045	1030627	keystroke_Key.backspace	Key.backspace	n/a
515.4785	0.03	1030957	keystroke_Key.backspace	Key.backspace	n/a
515.5985	0.06	1031197	keystroke_Key.backspace	Key.backspace	n/a
515.7485	0.045	1031497	keystroke_Key.backspace	Key.backspace	n/a
515.8835	0.06	1031767	keystroke_Key.backspace	Key.backspace	n/a
516.5435	0.061	1033087	keystroke_r	r	n/a
516.6635	0.061	1033327	keystroke_i	i	n/a
516.8295	0.089	1033659	keystroke_c	c	n/a
517.4885	0.075	1034977	keystroke_t	t	n/a
517.6685	0.075	1035337	keystroke_e	e	n/a
517.8635	0.06	1035727	keystroke_d	d	n/a
518.1185	0.06	1036237	keystroke_Key.enter	Key.enter	n/a
518.1835	5.2615	1036367	prompt	n/a	fair mods hollow trial\n
519.0795	0.09	1038159	keystroke_f	f	n/a
519.2295	0.059	1038459	keystroke_a	a	n/a
519.3045	0.089	1038609	keystroke_i	i	n/a
520.6235	0.06	1041247	keystroke_r	r	n/a
520.7435	0.12	1041487	keystroke_Key.space	Key.space	n/a
520.8485	0.151	1041697	keystroke_m	m	n/a
521.0135	0.075	1042027	keystroke_o	o	n/a
521.1335	0.09	1042267	keystroke_d	d	n/a
521.3145	0.06	1042629	keystroke_s	s	n/a
521.4335	0.075	1042867	keystroke_Key.space	Key.space	n/a
521.6295	0.074	1043259	keystroke_h	h	n/a
521.7635	0.075	1043527	keystroke_o	o	n/a
521.9735	0.06	1043947	keystroke_l	l	n/a
522.1235	0.046	1044247	keystroke_l	l	n/a
522.2735	0.106	1044547	keystroke_o	o	n/a
522.3945	0.06	1044789	keystroke_w	w	n/a
522.4835	0.105	1044967	keystroke_Key.space	Key.space	n/a
522.6185	0.061	1045237	keystroke_t	t	n/a
522.8585	0.03	1045717	keystroke_r	r	n/a
522.9185	0.075	1045837	keystroke_i	i	n/a
523.0535	0.09	1046107	keystroke_a	a	n/a
523.1885	0.06	1046377	keystroke_l	l	n/a
523.3985	0.045	1046797	keystroke_Key.enter	Key.enter	n/a
523.448	7.0175	1046896	prompt	n/a	initial reality washer services\n
524.3295	0.059	1048659	keystroke_i	i	n/a
524.4635	0.09	1048927	keystroke_n	n	n/a
525.3935	0.061	1050787	keystroke_i	i	n/a
525.6045	0.059	1051209	keystroke_t	t	n/a
525.6785	0.09	1051357	keystroke_i	i	n/a
525.8135	0.061	1051627	keystroke_a	a	n/a
526.1595	0.059	1052319	keystroke_l	l	n/a
526.6695	0.089	1053339	keystroke_Key.space	Key.space	n/a
526.9095	0.12	1053819	keystroke_r	r	n/a
526.9845	0.12	1053969	keystroke_e	e	n/a
527.1185	0.075	1054237	keystroke_a	a	n/a
527.2545	0.135	1054509	keystroke_l	l	n/a
527.3595	0.105	1054719	keystroke_i	i	n/a
527.5095	0.075	1055019	keystroke_t	t	n/a
527.6295	0.075	1055259	keystroke_y	y	n/a
527.9735	0.075	1055947	keystroke_Key.space	Key.space	n/a
528.1095	0.06	1056219	keystroke_w	w	n/a
528.3045	0.165	1056609	keystroke_a	a	n/a
528.4845	0.059	1056969	keystroke_s	s	n/a
528.5585	0.091	1057117	keystroke_h	h	n/a
528.6795	0.165	1057359	keystroke_e	e	n/a
528.8145	0.09	1057629	keystroke_r	r	n/a
528.9185	0.09	1057837	keystroke_Key.space	Key.space	n/a
529.1135	0.136	1058227	keystroke_s	s	n/a
529.2185	0.165	1058437	keystroke_e	e	n/a
529.3385	0.106	1058677	keystroke_r	r	n/a
529.6985	0.091	1059397	keystroke_v	v	n/a
529.8345	0.089	1059669	keystroke_i	i	n/a
529.9685	0.106	1059937	keystroke_c	c	n/a
530.0885	0.105	1060177	keystroke_e	e	n/a
530.2235	0.061	1060447	keystroke_s	s	n/a
530.4035	0.06	1060807	keystroke_Key.enter	Key.enter	n/a
530.468	6.2075	1060936	prompt	n/a	state tooth disney greene\n
531.0495	0.074	1062099	keystroke_s	s	n/a
531.2295	0.06	1062459	keystroke_t	t	n/a
531.3045	0.089	1062609	keystroke_a	a	n/a
531.4085	0.105	1062817	keystroke_t	t	n/a
531.5435	0.061	1063087	keystroke_e	e	n/a
531.6485	0.09	1063297	keystroke_Key.space	Key.space	n/a
531.7545	0.06	1063509	keystroke_t	t	n/a
531.8595	0.06	1063719	keystroke_o	o	n/a
532.0085	0.075	1064017	keystroke_o	o	n/a
532.1595	0.06	1064319	keystroke_t	t	n/a
532.2345	0.135	1064469	keystroke_h	h	n/a
532.3535	0.106	1064707	keystroke_Key.space	Key.space	n/a
532.6845	0.09	1065369	keystroke_d	d	n/a
532.7895	0.06	1065579	keystroke_i	i	n/a
532.8945	0.089	1065789	keystroke_s	s	n/a
533.0445	0.075	1066089	keystroke_n	n	n/a
533.1795	0.044	1066359	keystroke_e	e	n/a
533.2685	0.076	1066537	keystroke_y	y	n/a
533.5985	0.09	1067197	keystroke_Key.space	Key.space	n/a
534.394	0.09	1068788	keystroke_g	g	n/a
534.634	0.045	1069268	keystroke_r	r	n/a
534.799	0.075	1069598	keystroke_e	e	n/a
534.964	0.06	1069928	keystroke_e	e	n/a
536.254	0.09	1072508	keystroke_n	n	n/a
536.389	0.06	1072778	keystroke_e	e	n/a
536.584	0.09	1073168	keystroke_Key.enter	Key.enter	n/a
536.68	9.9855	1073360	prompt	n/a	bind remix expressions mozambique\n
537.589	0.09	1075178	keystroke_b	b	n/a
537.799	0.135	1075598	keystroke_i	i	n/a
537.994	0.075	1075988	keystroke_n	n	n/a
538.399	0.075	1076798	keystroke_d	d	n/a
538.609	0.105	1077218	keystroke_Key.space	Key.space	n/a
538.924	0.12	1077848	keystroke_r	r	n/a
539.059	0.045	1078118	keystroke_e	e	n/a
539.164	0.105	1078328	keystroke_m	m	n/a
539.269	0.12	1078538	keystroke_i	i	n/a
540.124	0.06	1080248	keystroke_x	x	n/a
540.199	0.105	1080398	keystroke_Key.space	Key.space	n/a
540.379	0.09	1080758	keystroke_e	e	n/a
540.769	0.0445	1081538	keystroke_x	x	n/a
540.8885	0.105	1081777	keystroke_p	p	n/a
541.1135	0.105	1082227	keystroke_r	r	n/a
541.204	0.12	1082408	keystroke_e	e	n/a
541.4435	0.0755	1082887	keystroke_s	s	n/a
541.5935	0.0755	1083187	keystroke_s	s	n/a
541.7135	0.1055	1083427	keystroke_i	i	n/a
541.819	0.15	1083638	keystroke_o	o	n/a
541.939	0.09	1083878	keystroke_n	n	n/a
542.0885	0.1055	1084177	keystroke_s	s	n/a
542.2085	0.105	1084417	keystroke_Key.space	Key.space	n/a
542.4935	0.06	1084987	keystroke_m	m	n/a
543.1085	0.1055	1086217	keystroke_o	o	n/a
543.8285	0.0455	1087657	keystroke_z	z	n/a
543.9785	0.075	1087957	keystroke_a	a	n/a
544.3685	0.06	1088737	keystroke_m	m	n/a
544.5935	0.06	1089187	keystroke_b	b	n/a
544.7735	0.06	1089547	keystroke_u	u	n/a
545.3885	0.075	1090777	keystroke_Key.backspace	Key.backspace	n/a
545.6435	0.105	1091287	keystroke_i	i	n/a
546.0485	0.06	1092097	keystroke_q	q	n/a
546.3335	0.09	1092667	keystroke_u	u	n/a
546.4535	0.06	1092907	keystroke_e	e	n/a
546.5885	0.075	1093177	keystroke_Key.enter	Key.enter	n/a
546.6685	9.327	1093337	prompt	n/a	realize theorem cruises babes\n
548.5085	0.09	1097017	keystroke_r	r	n/a
548.6585	0.105	1097317	keystroke_e	e	n/a
548.7935	0.06	1097587	keystroke_a	a	n/a
548.9735	0.12	1097947	keystroke_l	l	n/a
549.0785	0.12	1098157	keystroke_i	i	n/a
549.3035	0.105	1098607	keystroke_z	z	n/a
549.5435	0.09	1099087	keystroke_e	e	n/a
549.6785	0.105	1099357	keystroke_Key.space	Key.space	n/a
549.8585	0.09	1099717	keystroke_t	t	n/a
549.9785	0.09	1099957	keystroke_h	h	n/a
550.1135	0.09	1100227	keystroke_e	e	n/a
550.2635	0.105	1100527	keystroke_o	o	n/a
550.5035	0.06	1101007	keystroke_r	r	n/a
550.6985	0.06	1101397	keystroke_e	e	n/a
550.8635	0.105	1101727	keystroke_m	m	n/a
550.9985	0.09	1101997	keystroke_Key.space	Key.space	n/a
551.2835	0.105	1102567	keystroke_c	c	n/a
551.4635	0.06	1102927	keystroke_u	u	n/a
552.1835	0.075	1104367	keystroke_Key.backspace	Key.backspace	n/a
552.3185	0.06	1104637	keystroke_r	r	n/a
552.4685	0.12	1104937	keystroke_u	u	n/a
553.3235	0.075	1106647	keystroke_i	i	n/a
553.5035	0.075	1107007	keystroke_s	s	n/a
553.6235	0.09	1107247	keystroke_e	e	n/a
554.0435	0.06	1108087	keystroke_s	s	n/a
554.1635	0.105	1108327	keystroke_Key.space	Key.space	n/a
554.8385	0.075	1109677	keystroke_b	b	n/a
554.9585	0.105	1109917	keystroke_a	a	n/a
555.1085	0.105	1110217	keystroke_b	b	n/a
555.2285	0.105	1110457	keystroke_e	e	n/a
555.4085	0.075	1110817	keystroke_s	s	n/a
555.9035	0.09	1111807	keystroke_Key.enter	Key.enter	n/a
555.999	9.326	1111998	prompt	n/a	vaccine township magazine concentrate\n
557.1635	0.12	1114327	keystroke_c	c	n/a
557.3285	0.06	1114657	keystroke_a	a	n/a
557.8235	0.045	1115647	keystroke_Key.backspace	Key.backspace	n/a
557.9585	0.045	1115917	keystroke_Key.backspace	Key.backspace	n/a
557.9735	0.105	1115947	keystroke_v	v	n/a
558.0935	0.075	1116187	keystroke_a	a	n/a
558.6785	0.12	1117357	keystroke_c	c	n/a
558.8135	0.06	1117627	keystroke_c	c	n/a
558.8585	0.135	1117717	keystroke_i	i	n/a
558.9635	0.09	1117927	keystroke_n	n	n/a
559.1135	0.075	1118227	keystroke_e	e	n/a
559.2635	0.165	1118527	keystroke_Key.space	Key.space	n/a
559.7285	0.045	1119457	keystroke_t	t	n/a
559.8635	0.09	1119727	keystroke_o	o	n/a
559.9385	0.075	1119877	keystroke_w	w	n/a
560.0735	0.105	1120147	keystroke_n	n	n/a
560.2835	0.045	1120567	keystroke_s	s	n/a
560.3735	0.135	1120747	keystroke_h	h	n/a
560.4935	0.135	1120987	keystroke_i	i	n/a
560.6585	0.09	1121317	keystroke_p	p	n/a
560.8685	0.075	1121737	keystroke_Key.space	Key.space	n/a
561.1835	0.075	1122367	keystroke_m	m	n/a
561.3035	0.045	1122607	keystroke_a	a	n/a
561.4535	0.075	1122907	keystroke_g	g	n/a
561.5735	0.075	1123147	keystroke_a	a	n/a
561.6785	0.075	1123357	keystroke_i	i	n/a
562.0835	0.075	1124167	keystroke_Key.backspace	Key.backspace	n/a
562.2185	0.09	1124437	keystroke_z	z	n/a
562.4135	0.12	1124827	keystroke_i	i	n/a
562.5035	0.09	1125007	keystroke_n	n	n/a
562.6085	0.075	1125217	keystroke_e	e	n/a
562.7735	0.045	1125547	keystroke_Key.space	Key.space	n/a
563.4785	0.105	1126957	keystroke_c	c	n/a
563.5985	0.12	1127197	keystroke_o	o	n/a
563.6735	0.09	1127347	keystroke_n	n	n/a
563.8835	0.045	1127767	keystroke_c	c	n/a
563.9585	0.09	1127917	keystroke_e	e	n/a
564.0785	0.075	1128157	keystroke_n	n	n/a
564.1685	0.06	1128337	keystroke_t	t	n/a
564.3335	0.075	1128667	keystroke_r	r	n/a
564.4685	0.105	1128937	keystroke_a	a	n/a
564.5885	0.09	1129177	keystroke_t	t	n/a
565.0085	0.075	1130017	keystroke_e	e	n/a
565.2485	0.075	1130497	keystroke_Key.enter	Key.enter	n/a
565.328	10.273	1130656	prompt	n/a	purpose prayers differently shaped\n
566.6585	0.09	1133317	keystroke_p	p	n/a
567.0185	0.045	1134037	keystroke_u	u	n/a
567.4535	0.06	1134907	keystroke_r	r	n/a
567.7385	0.075	1135477	keystroke_p	p	n/a
567.9335	0.06	1135867	keystroke_o	o	n/a
568.1135	0.105	1136227	keystroke_s	s	n/a
568.2035	0.075	1136407	keystroke_e	e	n/a
568.3385	0.105	1136677	keystroke_Key.space	Key.space	n/a
568.5185	0.105	1137037	keystroke_p	p	n/a
568.6835	0.09	1137367	keystroke_r	r	n/a
569.3435	0.045	1138687	keystroke_a	a	n/a
570.0185	0.015	1140037	keystroke_y	y	n/a
570.0485	0.135	1140097	keystroke_e	e	n/a
570.1235	0.105	1140247	keystroke_r	r	n/a
570.5735	0.075	1141147	keystroke_s	s	n/a
570.6935	0.105	1141387	keystroke_Key.space	Key.space	n/a
570.9335	0.075	1141867	keystroke_d	d	n/a
571.0235	0.045	1142047	keystroke_i	i	n/a
571.1285	0.045	1142257	keystroke_f	f	n/a
571.2635	0.075	1142527	keystroke_f	f	n/a
571.3985	0.135	1142797	keystroke_e	e	n/a
571.5485	0.135	1143097	keystroke_r	r	n/a
571.6985	0.075	1143397	keystroke_e	e	n/a
571.7585	0.075	1143517	keystroke_n	n	n/a
571.9085	0.075	1143817	keystroke_l	l	n/a
572.0135	0.12	1144027	keystroke_t	t	n/a
572.1485	0.09	1144297	keystroke_Key.space	Key.space	n/a
572.4185	0.09	1144837	keystroke_s	s	n/a
572.7485	0.06	1145497	keystroke_Key.backspace	Key.backspace	n/a
572.8835	0.06	1145767	keystroke_Key.backspace	Key.backspace	n/a
573.1985	0.06	1146397	keystroke_Key.backspace	Key.backspace	n/a
573.9035	0.09	1147807	keystroke_y	y	n/a
573.9785	0.06	1147957	keystroke_Key.space	Key.space	n/a
574.0685	0.105	1148137	keystroke_s	s	n/a
574.1285	0.09	1148257	keystroke_h	h	n/a
574.2635	0.075	1148527	keystroke_a	a	n/a
574.3535	0.075	1148707	keystroke_p	p	n/a
574.4885	0.075	1148977	keystroke_e	e	n/a
574.6685	0.06	1149337	keystroke_d	d	n/a
575.4935	0.105	1150987	keystroke_Key.enter	Key.enter	n/a
575.604	8.8465	1151208	prompt	n/a	nursing hunter detection closed\n
576.4685	0.09	1152937	keystroke_n	n	n/a
576.6935	0.06	1153387	keystroke_u	u	n/a
576.8135	0.09	1153627	keystroke_r	r	n/a
577.0535	0.075	1154107	keystroke_s	s	n/a
577.1435	0.135	1154287	keystroke_i	i	n/a
577.2485	0.105	1154497	keystroke_n	n	n/a
577.3685	0.06	1154737	keystroke_g	g	n/a
577.4435	0.105	1154887	keystroke_Key.space	Key.space	n/a
578.4785	0.06	1156957	keystroke_h	h	n/a
578.6285	0.075	1157257	keystroke_u	u	n/a
578.8235	0.09	1157647	keystroke_n	n	n/a
578.9735	0.06	1157947	keystroke_t	t	n/a
579.1385	0.165	1158277	keystroke_e	e	n/a
579.2885	0.075	1158577	keystroke_r	r	n/a
579.3935	0.105	1158787	keystroke_Key.space	Key.space	n/a
579.5435	0.06	1159087	keystroke_d	d	n/a
579.6935	0.075	1159387	keystroke_e	e	n/a
580.2935	0.06	1160587	keystroke_t	t	n/a
580.4435	0.075	1160887	keystroke_e	e	n/a
580.6235	0.06	1161247	keystroke_c	c	n/a
580.8035	0.06	1161607	keystroke_t	t	n/a
580.9085	0.075	1161817	keystroke_i	i	n/a
582.1535	0.075	1164307	keystroke_o	o	n/a
582.3035	0.075	1164607	keystroke_n	n	n/a
582.4685	0.075	1164937	keystroke_Key.space	Key.space	n/a
583.2635	0.12	1166527	keystroke_c	c	n/a
583.4135	0.075	1166827	keystroke_l	l	n/a
583.5935	0.045	1167187	keystroke_o	o	n/a
583.6835	0.135	1167367	keystroke_s	s	n/a
583.7885	0.09	1167577	keystroke_e	e	n/a
583.9835	0.075	1167967	keystroke_d	d	n/a
584.3585	0.09	1168717	keystroke_Key.enter	Key.enter	n/a
584.4535	8.127	1168907	prompt	n/a	knowing timothy trained imagination\n
585.1685	0.15	1170337	keystroke_k	k	n/a
585.2885	0.09	1170577	keystroke_n	n	n/a
585.3635	0.09	1170727	keystroke_o	o	n/a
585.4685	0.06	1170937	keystroke_w	w	n/a
585.5585	0.135	1171117	keystroke_i	i	n/a
585.6635	0.135	1171327	keystroke_n	n	n/a
585.8585	0.09	1171717	keystroke_g	g	n/a
585.9335	0.105	1171867	keystroke_Key.space	Key.space	n/a
586.0835	0.09	1172167	keystroke_t	t	n/a
586.2035	0.075	1172407	keystroke_i	i	n/a
586.2485	0.165	1172497	keystroke_m	m	n/a
586.3985	0.12	1172797	keystroke_o	o	n/a
587.5685	0.075	1175137	keystroke_t	t	n/a
587.6885	0.075	1175377	keystroke_h	h	n/a
587.8835	0.09	1175767	keystroke_y	y	n/a
588.1085	0.12	1176217	keystroke_Key.space	Key.space	n/a
588.6185	0.075	1177237	keystroke_t	t	n/a
588.8435	0.12	1177687	keystroke_r	r	n/a
588.9785	0.075	1177957	keystroke_a	a	n/a
589.0985	0.12	1178197	keystroke_i	i	n/a
589.2035	0.075	1178407	keystroke_n	n	n/a
589.2935	0.06	1178587	keystroke_e	e	n/a
589.7285	0.1045	1179457	keystroke_d	d	n/a
589.983	0.09	1179966	keystroke_Key.space	Key.space	n/a
590.178	0.0905	1180356	keystroke_i	i	n/a
590.3585	0.0745	1180717	keystroke_m	m	n/a
590.463	0.06	1180926	keystroke_a	a	n/a
590.958	0.06	1181916	keystroke_g	g	n/a
591.0935	0.0895	1182187	keystroke_i	i	n/a
591.3335	0.0745	1182667	keystroke_n	n	n/a
591.453	0.09	1182906	keystroke_a	a	n/a
591.588	0.045	1183176	keystroke_t	t	n/a
591.6635	0.105	1183327	keystroke_i	i	n/a
591.7695	0.1185	1183539	keystroke_o	o	n/a
591.8585	0.1045	1183717	keystroke_n	n	n/a
592.173	0.06	1184346	keystroke_Key.space	Key.space	n/a
592.519	0.0595	1185038	keystroke_Key.enter	Key.enter	n/a
592.5875	24.0225	1185175	prompt	n/a	careers characterization inspired develops\n
593.8385	0.09	1187677	keystroke_c	c	n/a
594.1085	0.105	1188217	keystroke_a	a	n/a
594.2285	0.165	1188457	keystroke_r	r	n/a
594.3785	0.075	1188757	keystroke_e	e	n/a
594.5735	0.06	1189147	keystroke_e	e	n/a
594.7235	0.09	1189447	keystroke_r	r	n/a
595.0685	0.075	1190137	keystroke_s	s	n/a
595.2335	0.06	1190467	keystroke_Key.space	Key.space	n/a
596.4785	0.09	1192957	keystroke_c	c	n/a
