onset	duration	sample	value	key	prompt_text
0.004	0.1185	8	keystroke_Key.enter	Key.enter	n/a
0.688	11.624	1376	prompt	n/a	the quick brown fox jumps over a lazy dog\n
4.083	0	8166	keystroke_t	t	n/a
4.084	0.1145	8168	keystroke_h	h	n/a
4.575	0.0595	9150	keystroke_e	e	n/a
4.6495	0.1035	9299	keystroke_Key.space	Key.space	n/a
5.154	0.1075	10308	keystroke_q	q	n/a
5.3505	0.1045	10701	keystroke_u	u	n/a
5.4105	0.104	10821	keystroke_i	i	n/a
5.8605	0.074	11721	keystroke_c	c	n/a
5.964	0.1525	11928	keystroke_k	k	n/a
6.086	0.06	12172	keystroke_Key.space	Key.space	n/a
6.1905	0.1335	12381	keystroke_b	b	n/a
6.3685	0.1355	12737	keystroke_r	r	n/a
6.5205	0.1645	13041	keystroke_o	o	n/a
6.67	0.074	13340	keystroke_w	w	n/a
6.789	0.1185	13578	keystroke_n	n	n/a
6.878	0.1525	13756	keystroke_Key.space	Key.space	n/a
7.2235	0.089	14447	keystroke_f	f	n/a
7.327	0.094	14654	keystroke_o	o	n/a
7.6145	0.0595	15229	keystroke_x	x	n/a
7.659	0.089	15318	keystroke_Key.space	Key.space	n/a
7.8995	0.074	15799	keystroke_j	j	n/a
8.107	0.0595	16214	keystroke_u	u	n/a
8.8895	0.089	17779	keystroke_m	m	n/a
9.0835	0.151	18167	keystroke_p	p	n/a
9.264	0.134	18528	keystroke_s	s	n/a
9.4125	0.0745	18825	keystroke_Key.space	Key.space	n/a
9.562	0.0915	19124	keystroke_o	o	n/a
9.6385	0.1485	19277	keystroke_v	v	n/a
9.861	0.151	19722	keystroke_e	e	n/a
9.9355	0.14	19871	keystroke_r	r	n/a
10.0605	0.0595	20121	keystroke_Key.space	Key.space	n/a
10.135	0.1185	20270	keystroke_a	a	n/a
10.239	0.0895	20478	keystroke_Key.space	Key.space	n/a
10.495	0.089	20990	keystroke_l	l	n/a
10.569	0.1635	21138	keystroke_a	a	n/a
10.7175	0.104	21435	keystroke_z	z	n/a
11.379	0.0595	22758	keystroke_y	y	n/a
11.424	0.104	22848	keystroke_Key.space	Key.space	n/a
11.889	0.0295	23778	keystroke_d	d	n/a
11.9335	0.104	23867	keystroke_o	o	n/a
12.082	0.0745	24164	keystroke_g	g	n/a
12.2045	0.1045	24409	keystroke_Key.enter	Key.enter	n/a
12.316	8.2415	24632	prompt	n/a	positive predictions checklist trackbacks\n
13.194	0.0595	26388	keystroke_o	o	n/a
13.718	0.135	27436	keystroke_o	o	n/a
13.837	0.078	27674	keystroke_s	s	n/a
13.9595	0.104	27919	keystroke_i	i	n/a
14.0785	0.0885	28157	keystroke_t	t	n/a
14.182	0.122	28364	keystroke_i	i	n/a
14.3055	0.0885	28611	keystroke_v	v	n/a
14.528	0.12	29056	keystroke_e	e	n/a
14.632	0.1075	29264	keystroke_Key.space	Key.space	n/a
14.8735	0.134	29747	keystroke_p	p	n/a
14.9775	0.104	29955	keystroke_r	r	n/a
15.037	0.091	30074	keystroke_e	e	n/a
15.2345	0.089	30469	keystroke_d	d	n/a
15.3385	0.104	30677	keystroke_i	i	n/a
15.5635	0.1205	31127	keystroke_c	c	n/a
15.9815	0.0615	31963	keystroke_t	t	n/a
16.1025	0.104	32205	keystroke_i	i	n/a
16.1915	0.0895	32383	keystroke_o	o	n/a
16.3405	0.091	32681	keystroke_n	n	n/a
16.464	0.104	32928	keystroke_s	s	n/a
16.583	0.089	33166	keystroke_Key.space	Key.space	n/a
17.257	0.0925	34514	keystroke_c	c	n/a
17.319	0.075	34638	keystroke_h	h	n/a
17.424	0.104	34848	keystroke_e	e	n/a
17.4835	0.104	34967	keystroke_c	c	n/a
17.6025	0.089	35205	keystroke_k	k	n/a
17.859	0.074	35718	keystroke_l	l	n/a
18.082	0.123	36164	keystroke_i	i	n/a
18.2495	0.119	36499	keystroke_s	s	n/a
18.324	0.0895	36648	keystroke_t	t	n/a
18.4435	0.089	36887	keystroke_Key.space	Key.space	n/a
18.743	0.119	37486	keystroke_t	t	n/a
18.773	0.104	37546	keystroke_r	r	n/a
19.029	0.105	38058	keystroke_a	a	n/a
19.0745	0.134	38149	keystroke_c	c	n/a
19.164	0.104	38328	keystroke_k	k	n/a
19.434	0.09	38868	keystroke_b	b	n/a
19.5685	0.134	39137	keystroke_a	a	n/a
19.628	0.1345	39256	keystroke_c	c	n/a
19.8695	0.1335	39739	keystroke_k	k	n/a
20.018	0.0595	40036	keystroke_s	s	n/a
20.482	0.074	40964	keystroke_Key.enter	Key.enter	n/a
20.5605	7.723	41121	prompt	n/a	migration deleted hospital pointer\n
21.381	0.0445	42762	keystroke_m	m	n/a
21.6065	0.075	43213	keystroke_i	i	n/a
21.875	0.119	43750	keystroke_g	g	n/a
21.9195	0.0895	43839	keystroke_r	r	n/a
22.1155	0.149	44231	keystroke_a	a	n/a
22.2495	0.0895	44499	keystroke_t	t	n/a
22.3685	0.105	44737	keystroke_i	i	n/a
22.443	0.1095	44886	keystroke_o	o	n/a
22.6415	0.0895	45283	keystroke_n	n	n/a
22.761	0.1955	45522	keystroke_Key.space	Key.space	n/a
23.4655	0.0445	46931	keystroke_d	d	n/a
23.541	0.0895	47082	keystroke_e	e	n/a
23.7185	0.138	47437	keystroke_l	l	n/a
23.8565	0.0745	47713	keystroke_e	e	n/a
23.9905	0.1195	47981	keystroke_t	t	n/a
24.08	0.1045	48160	keystroke_e	e	n/a
24.3675	0.0435	48735	keystroke_d	d	n/a
24.426	0.1195	48852	keystroke_Key.space	Key.space	n/a
25.0405	0.122	50081	keystroke_h	h	n/a
25.103	0.0895	50206	keystroke_o	o	n/a
25.222	0.1045	50444	keystroke_s	s	n/a
25.3415	0.03	50683	keystroke_p	p	n/a
25.431	0.1075	50862	keystroke_i	i	n/a
25.6135	0.089	51227	keystroke_t	t	n/a
25.792	0.1045	51584	keystroke_a	a	n/a
25.9585	0.09	51917	keystroke_l	l	n/a
26.093	0.1045	52186	keystroke_Key.space	Key.space	n/a
26.453	0.045	52906	keystroke_p	p	n/a
26.6615	0.0595	53323	keystroke_o	o	n/a
27.111	0.1215	54222	keystroke_i	i	n/a
27.441	0.0895	54882	keystroke_n	n	n/a
27.5155	0.105	55031	keystroke_t	t	n/a
27.772	0.0595	55544	keystroke_e	e	n/a
27.787	0.0895	55574	keystroke_r	r	n/a
28.162	0.119	56324	keystroke_Key.enter	Key.enter	n/a
28.287	6.2075	56574	prompt	n/a	insight fort adequate agree\n
28.973	0.134	57946	keystroke_i	i	n/a
29.0625	0.0895	58125	keystroke_n	n	n/a
29.1375	0.089	58275	keystroke_s	s	n/a
29.212	0.0745	58424	keystroke_i	i	n/a
29.3625	0.0895	58725	keystroke_g	g	n/a
29.467	0.0745	58934	keystroke_h	h	n/a
29.571	0.0745	59142	keystroke_t	t	n/a
29.6755	0.123	59351	keystroke_Key.space	Key.space	n/a
30.308	0.06	60616	keystroke_f	f	n/a
30.3975	0.0895	60795	keystroke_o	o	n/a
30.472	0.0895	60944	keystroke_r	r	n/a
30.6825	0.0895	61365	keystroke_t	t	n/a
30.817	0.1195	61634	keystroke_Key.space	Key.space	n/a
31.3125	0.1505	62625	keystroke_a	a	n/a
31.478	0.0745	62956	keystroke_d	d	n/a
31.657	0.1045	63314	keystroke_e	e	n/a
31.988	0.119	63976	keystroke_q	q	n/a
32.122	0.0745	64244	keystroke_u	u	n/a
32.2715	0.1215	64543	keystroke_a	a	n/a
32.572	0.134	65144	keystroke_t	t	n/a
32.661	0.107	65322	keystroke_e	e	n/a
32.8575	0.0895	65715	keystroke_Key.space	Key.space	n/a
33.608	0.0895	67216	keystroke_a	a	n/a
33.8165	0.075	67633	keystroke_g	g	n/a
34.0125	0.1195	68025	keystroke_r	r	n/a
34.0725	0.0745	68145	keystroke_e	e	n/a
34.2215	0.1345	68443	keystroke_e	e	n/a
34.371	0.122	68742	keystroke_Key.enter	Key.enter	n/a
34.499	5.4545	68998	prompt	n/a	camping kevin sure instrumental\n
35.257	0.1345	70514	keystroke_c	c	n/a
35.332	0.0895	70664	keystroke_a	a	n/a
35.3925	0.0885	70785	keystroke_m	m	n/a
35.541	0.105	71082	keystroke_p	p	n/a
35.842	0.1335	71684	keystroke_i	i	n/a
35.9305	0.076	71861	keystroke_n	n	n/a
35.9615	0.104	71923	keystroke_g	g	n/a
36.112	0.1045	72224	keystroke_Key.space	Key.space	n/a
36.352	0.1185	72704	keystroke_k	k	n/a
36.608	0.104	73216	keystroke_e	e	n/a
36.861	0.0755	73722	keystroke_v	v	n/a
36.953	0.149	73906	keystroke_i	i	n/a
37.027	0.105	74054	keystroke_n	n	n/a
37.117	0.1045	74234	keystroke_Key.space	Key.space	n/a
37.4615	0.09	74923	keystroke_s	s	n/a
37.596	0.1345	75192	keystroke_u	u	n/a
37.7155	0.1365	75431	keystroke_r	r	n/a
37.7755	0.1215	75551	keystroke_e	e	n/a
37.912	0.1195	75824	keystroke_Key.space	Key.space	n/a
38.196	0.166	76392	keystroke_i	i	n/a
38.287	0.105	76574	keystroke_n	n	n/a
38.347	0.1045	76694	keystroke_s	s	n/a
38.601	0.1055	77202	keystroke_t	t	n/a
38.647	0.0895	77294	keystroke_r	r	n/a
38.7965	0.0895	77593	keystroke_u	u	n/a
39.0355	0.0915	78071	keystroke_m	m	n/a
39.157	0.0895	78314	keystroke_e	e	n/a
39.2315	0.106	78463	keystroke_n	n	n/a
39.3215	0.0745	78643	keystroke_t	t	n/a
39.5175	0.1045	79035	keystroke_a	a	n/a
39.638	0.0885	79276	keystroke_l	l	n/a
39.891	0.061	79782	keystroke_Key.enter	Key.enter	n/a
39.96	9.6985	79920	prompt	n/a	observations merry discrimination hebrew\n
41.1655	0.121	82331	keystroke_o	o	n/a
41.451	0.015	82902	keystroke_b	b	n/a
41.4955	0.09	82991	keystroke_s	s	n/a
41.7075	0.1045	83415	keystroke_e	e	n/a
41.767	0.075	83534	keystroke_r	r	n/a
41.9615	0.0915	83923	keystroke_v	v	n/a
42.1275	0.0895	84255	keystroke_a	a	n/a
42.3815	0.151	84763	keystroke_i	i	n/a
42.741	0.1055	85482	keystroke_Key.backspace	Key.backspace	n/a
42.9665	0.09	85933	keystroke_t	t	n/a
43.131	0.1195	86262	keystroke_i	i	n/a
43.191	0.0895	86382	keystroke_o	o	n/a
43.386	0.0745	86772	keystroke_n	n	n/a
43.4755	0.1045	86951	keystroke_s	s	n/a
43.565	0.09	87130	keystroke_Key.space	Key.space	n/a
43.747	0.1045	87494	keystroke_m	m	n/a
43.8225	0.104	87645	keystroke_e	e	n/a
43.867	0.0895	87734	keystroke_r	r	n/a
44.0165	0.0895	88033	keystroke_r	r	n/a
44.2115	0.075	88423	keystroke_y	y	n/a
44.3165	0.0895	88633	keystroke_Key.space	Key.space	n/a
44.811	0.105	89622	keystroke_d	d	n/a
44.9305	0.091	89861	keystroke_i	i	n/a
45.0065	0.09	90013	keystroke_s	s	n/a
45.1565	0.0595	90313	keystroke_c	c	n/a
45.3805	0.106	90761	keystroke_r	r	n/a
45.5315	0.1645	91063	keystroke_i	i	n/a
45.5915	0.1645	91183	keystroke_m	m	n/a
45.8005	0.166	91601	keystroke_i	i	n/a
45.9065	0.105	91813	keystroke_n	n	n/a
46.101	0.105	92202	keystroke_a	a	n/a
46.206	0.091	92412	keystroke_t	t	n/a
46.342	0.164	92684	keystroke_i	i	n/a
46.4465	0.1195	92893	keystroke_o	o	n/a
46.626	0.1055	93252	keystroke_n	n	n/a
46.717	0.0895	93434	keystroke_Key.space	Key.space	n/a
47.1815	0.0745	94363	keystroke_h	h	n/a
47.271	0.06	94542	keystroke_e	e	n/a
47.4355	0.0905	94871	keystroke_b	b	n/a
47.871	0.181	95742	keystroke_r	r	n/a
47.9305	0.256	95861	keystroke_e	e	n/a
48.082	0.1645	96164	keystroke_w	w	n/a
49.551	0.1055	99102	keystroke_Key.enter	Key.enter	n/a
49.662	10.153	99324	prompt	n/a	titten presenting bridges decade\n
50.736	0.0745	101472	keystroke_t	t	n/a
50.8405	0.1065	101681	keystroke_i	i	n/a
51.877	0.0445	103754	keystroke_t	t	n/a
52.0265	0.045	104053	keystroke_t	t	n/a
52.252	0.105	104504	keystroke_e	e	n/a
52.447	0.0595	104894	keystroke_n	n	n/a
52.612	0.075	105224	keystroke_Key.space	Key.space	n/a
52.8215	0.104	105643	keystroke_p	p	n/a
52.866	0.136	105732	keystroke_r	r	n/a
52.9405	0.0765	105881	keystroke_e	e	n/a
53.1365	0.045	106273	keystroke_s	s	n/a
53.316	0.0895	106632	keystroke_e	e	n/a
53.4525	0.1045	106905	keystroke_n	n	n/a
53.602	0.09	107204	keystroke_t	t	n/a
53.722	0.1045	107444	keystroke_i	i	n/a
53.7815	0.076	107563	keystroke_n	n	n/a
53.8415	0.091	107683	keystroke_g	g	n/a
53.962	0.09	107924	keystroke_Key.space	Key.space	n/a
54.9965	0.105	109993	keystroke_b	b	n/a
55.1325	0.12	110265	keystroke_a	a	n/a
55.1925	0.1345	110385	keystroke_d	d	n/a
55.4915	0.1805	110983	keystroke_g	g	n/a
55.612	0.1195	111224	keystroke_e	e	n/a
56.001	0.105	112002	keystroke_Key.backspace	Key.backspace	n/a
56.166	0.0595	112332	keystroke_Key.backspace	Key.backspace	n/a
56.3305	0.0765	112661	keystroke_Key.backspace	Key.backspace	n/a
56.4815	0.075	112963	keystroke_Key.backspace	Key.backspace	n/a
57.081	0.075	114162	keystroke_r	r	n/a
57.2765	0.09	114553	keystroke_i	i	n/a
57.441	0.09	114882	keystroke_d	d	n/a
57.7115	0.1055	115423	keystroke_g	g	n/a
57.847	0.18	115694	keystroke_e	e	n/a
57.936	0.1345	115872	keystroke_s	s	n/a
58.056	0.105	116112	keystroke_Key.space	Key.space	n/a
58.3865	0.06	116773	keystroke_d	d	n/a
58.7465	0.0745	117493	keystroke_e	e	n/a
58.9715	0.12	117943	keystroke_c	c	n/a
59.0765	0.1495	118153	keystroke_a	a	n/a
59.227	0.1195	118454	keystroke_d	d	n/a
59.437	0.1045	118874	keystroke_e	e	n/a
59.691	0.121	119382	keystroke_Key.enter	Key.enter	n/a
59.82	10.313	119640	prompt	n/a	frame aquarium newest threaded\n
60.6215	0.1355	121243	keystroke_f	f	n/a
60.8465	0.075	121693	keystroke_r	r	n/a
60.9815	0.105	121963	keystroke_a	a	n/a
61.2215	0.12	122443	keystroke_m	m	n/a
61.3565	0.09	122713	keystroke_e	e	n/a
61.476	0.1215	122952	keystroke_Key.space	Key.space	n/a
61.627	0.12	123254	keystroke_a	a	n/a
61.882	0.12	123764	keystroke_q	q	n/a
62.1065	0.075	124213	keystroke_q	q	n/a
62.527	0.1045	125054	keystroke_Key.backspace	Key.backspace	n/a
62.9915	0.075	125983	keystroke_u	u	n/a
63.1125	0.1045	126225	keystroke_a	a	n/a
63.922	0.0895	127844	keystroke_r	r	n/a
64.4325	0.089	128865	keystroke_i	i	n/a
64.6415	0.075	129283	keystroke_u	u	n/a
64.972	0.0595	129944	keystroke_,	,	n/a
65.0615	0.105	130123	keystroke_Key.space	Key.space	n/a
65.8265	0.105	131653	keystroke_Key.backspace	Key.backspace	n/a
66.0065	0.09	132013	keystroke_Key.backspace	Key.backspace	n/a
66.8315	0.0895	133663	keystroke_m	m	n/a
66.876	0.075	133752	keystroke_Key.space	Key.space	n/a
67.086	0.045	134172	keystroke_n	n	n/a
67.191	0.1795	134382	keystroke_e	e	n/a
67.3405	0.121	134681	keystroke_w	w	n/a
67.566	0.12	135132	keystroke_e	e	n/a
67.912	0.09	135824	keystroke_s	s	n/a
68.0915	0.09	136183	keystroke_t	t	n/a
68.2115	0.075	136423	keystroke_Key.space	Key.space	n/a
68.6765	0.1355	137353	keystroke_t	t	n/a
68.752	0.105	137504	keystroke_h	h	n/a
69.0365	0.18	138073	keystroke_r	r	n/a
69.0665	0.12	138133	keystroke_e	e	n/a
69.2915	0.165	138583	keystroke_a	a	n/a
69.4115	0.12	138823	keystroke_d	d	n/a
69.6665	0.075	139333	keystroke_e	e	n/a
69.831	0.09	139662	keystroke_d	d	n/a
70.0265	0.105	140053	keystroke_Key.enter	Key.enter	n/a
70.137	9.942	140274	prompt	n/a	shipments dash bleeding containing\n
71.0475	0.09	142095	keystroke_s	s	n/a
71.182	0.135	142364	keystroke_h	h	n/a
71.242	0.09	142484	keystroke_i	i	n/a
71.452	0.075	142904	keystroke_p	p	n/a
71.662	0.09	143324	keystroke_m	m	n/a
71.767	0.0745	143534	keystroke_e	e	n/a
71.8715	0.12	143743	keystroke_n	n	n/a
71.9765	0.075	143953	keystroke_t	t	n/a
72.157	0.12	144314	keystroke_s	s	n/a
72.277	0.105	144554	keystroke_Key.space	Key.space	n/a
73.2525	0.0895	146505	keystroke_c	c	n/a
73.5815	0.105	147163	keystroke_Key.backspace	Key.backspace	n/a
74.4515	0.09	148903	keystroke_d	d	n/a
74.662	0.09	149324	keystroke_a	a	n/a
74.887	0.1195	149774	keystroke_s	s	n/a
75.0665	0.09	150133	keystroke_h	h	n/a
75.1865	0.075	150373	keystroke_Key.space	Key.space	n/a
75.9665	0.09	151933	keystroke_b	b	n/a
76.0865	0.105	152173	keystroke_l	l	n/a
76.2065	0.2105	152413	keystroke_e	e	n/a
76.912	0.09	153824	keystroke_e	e	n/a
77.152	0.0895	154304	keystroke_d	d	n/a
77.3465	0.18	154693	keystroke_i	i	n/a
77.4365	0.105	154873	keystroke_n	n	n/a
77.4815	0.105	154963	keystroke_g	g	n/a
77.6315	0.105	155263	keystroke_Key.space	Key.space	n/a
77.8415	0.075	155683	keystroke_c	c	n/a
77.9165	0.135	155833	keystroke_o	o	n/a
77.9915	0.1355	155983	keystroke_n	n	n/a
78.142	0.09	156284	keystroke_t	t	n/a
78.397	0.105	156794	keystroke_a	a	n/a
79.117	0.165	158234	keystroke_i	i	n/a
79.177	0.12	158354	keystroke_n	n	n/a
79.447	0.135	158894	keystroke_i	i	n/a
79.492	0.105	158984	keystroke_n	n	n/a
79.583	0.089	159166	keystroke_g	g	n/a
79.702	0.1355	159404	keystroke_Key.space	Key.space	n/a
79.987	0.09	159974	keystroke_Key.enter	Key.enter	n/a
80.0825	7.4965	160165	prompt	n/a	surface sections harley darkness\n
80.872	0.105	161744	keystroke_s	s	n/a
81.0215	0.0905	162043	keystroke_u	u	n/a
81.097	0.09	162194	keystroke_r	r	n/a
81.397	0.0905	162794	keystroke_f	f	n/a
81.622	0.12	163244	keystroke_a	a	n/a
81.667	0.195	163334	keystroke_c	c	n/a
81.802	0.105	163604	keystroke_e	e	n/a
82.192	0.12	164384	keystroke_Key.space	Key.space	n/a
82.342	0.1195	164684	keystroke_s	s	n/a
82.6415	0.09	165283	keystroke_e	e	n/a
82.822	0.09	165644	keystroke_c	c	n/a
83.062	0.045	166124	keystroke_t	t	n/a
83.197	0.1345	166394	keystroke_i	i	n/a
83.242	0.0905	166484	keystroke_o	o	n/a
83.4365	0.105	166873	keystroke_n	n	n/a
83.5265	0.0905	167053	keystroke_s	s	n/a
83.632	0.075	167264	keystroke_Key.space	Key.space	n/a
83.917	0.075	167834	keystroke_h	h	n/a
84.007	0.1345	168014	keystroke_a	a	n/a
84.097	0.1345	168194	keystroke_r	r	n/a
84.2765	0.105	168553	keystroke_l	l	n/a
84.4715	0.12	168943	keystroke_e	e	n/a
84.5615	0.075	169123	keystroke_y	y	n/a
84.6515	0.12	169303	keystroke_Key.space	Key.space	n/a
85.5675	0.06	171135	keystroke_a	a	n/a
85.897	0.09	171794	keystroke_Key.backspace	Key.backspace	n/a
86.017	0.15	172034	keystroke_d	d	n/a
86.077	0.105	172154	keystroke_a	a	n/a
86.5415	0.09	173083	keystroke_r	r	n/a
86.6915	0.105	173383	keystroke_k	k	n/a
86.8715	0.045	173743	keystroke_e	e	n/a
86.9915	0.0905	173983	keystroke_n	n	n/a
87.1425	0.075	174285	keystroke_s	s	n/a
87.2925	0.12	174585	keystroke_s	s	n/a
87.472	0.105	174944	keystroke_Key.enter	Key.enter	n/a
87.5815	6.357	175163	prompt	n/a	prices consumption genetic advisors\n
88.4925	0.089	176985	keystroke_p	p	n/a
88.5965	0.09	177193	keystroke_r	r	n/a
88.7475	0.105	177495	keystroke_i	i	n/a
88.8675	0.135	177735	keystroke_c	c	n/a
88.9125	0.105	177825	keystroke_e	e	n/a
89.1075	0.105	178215	keystroke_s	s	n/a
89.2135	0.1195	178427	keystroke_Key.space	Key.space	n/a
89.408	0.075	178816	keystroke_c	c	n/a
89.468	0.1195	178936	keystroke_o	o	n/a
89.543	0.1345	179086	keystroke_n	n	n/a
89.6625	0.105	179325	keystroke_s	s	n/a
89.8125	0.12	179625	keystroke_u	u	n/a
90.082	0.075	180164	keystroke_m	m	n/a
90.232	0.105	180464	keystroke_p	p	n/a
90.367	0.075	180734	keystroke_t	t	n/a
90.457	0.105	180914	keystroke_i	i	n/a
90.547	0.09	181094	keystroke_o	o	n/a
90.682	0.105	181364	keystroke_n	n	n/a
90.802	0.0905	181604	keystroke_Key.space	Key.space	n/a
91.4625	0.12	182925	keystroke_g	g	n/a
91.5225	0.0905	183045	keystroke_e	e	n/a
91.628	0.09	183256	keystroke_n	n	n/a
91.688	0.105	183376	keystroke_e	e	n/a
91.868	0.075	183736	keystroke_t	t	n/a
91.988	0.105	183976	keystroke_i	i	n/a
92.108	0.119	184216	keystroke_c	c	n/a
92.242	0.1205	184484	keystroke_Key.space	Key.space	n/a
92.5875	0.135	185175	keystroke_a	a	n/a
92.6475	0.1055	185295	keystroke_d	d	n/a
92.918	0.09	185836	keystroke_v	v	n/a
93.038	0.105	186076	keystroke_i	i	n/a
93.3375	0.12	186675	keystroke_s	s	n/a
93.4425	0.09	186885	keystroke_o	o	n/a
93.5625	0.06	187125	keystroke_r	r	n/a
93.7275	0.09	187455	keystroke_s	s	n/a
93.8465	0.091	187693	keystroke_Key.enter	Key.enter	n/a
93.9415	6.8235	187883	prompt	n/a	gray belly victims chips\n
94.807	0.135	189614	keystroke_g	g	n/a
94.852	0.105	189704	keystroke_r	r	n/a
95.047	0.136	190094	keystroke_a	a	n/a
95.303	0.06	190606	keystroke_y	y	n/a
95.4385	0.134	190877	keystroke_Key.space	Key.space	n/a
96.187	0.09	192374	keystroke_b	b	n/a
96.307	0.1055	192614	keystroke_e	e	n/a
96.4425	0.09	192885	keystroke_l	l	n/a
96.5625	0.105	193125	keystroke_l	l	n/a
97.223	0.075	194446	keystroke_y	y	n/a
97.373	0.0905	194746	keystroke_Key.space	Key.space	n/a
98.1225	0.045	196245	keystroke_v	v	n/a
98.2125	0.09	196425	keystroke_i	i	n/a
98.3175	0.09	196635	keystroke_c	c	n/a
98.5425	0.061	197085	keystroke_t	t	n/a
98.6485	0.089	197297	keystroke_i	i	n/a
98.8575	0.09	197715	keystroke_m	m	n/a
98.9635	0.105	197927	keystroke_s	s	n/a
99.0525	0.12	198105	keystroke_Key.space	Key.space	n/a
99.2775	0.1205	198555	keystroke_c	c	n/a
99.4125	0.15	198825	keystroke_h	h	n/a
99.5325	0.06	199065	keystroke_i	i	n/a
100.3125	0.06	200625	keystroke_p	p	n/a
100.4775	0.09	200955	keystroke_s	s	n/a
100.703	0.06	201406	keystroke_Key.enter	Key.enter	n/a
100.768	7.0915	201536	prompt	n/a	beijing father senator during\n
102.1585	0.149	204317	keystroke_b	b	n/a
102.233	0.1195	204466	keystroke_e	e	n/a
102.473	0.09	204946	keystroke_i	i	n/a
102.728	0.076	205456	keystroke_j	j	n/a
102.983	0.1945	205966	keystroke_i	i	n/a
103.117	0.1055	206234	keystroke_n	n	n/a
103.853	0.075	207706	keystroke_g	g	n/a
103.9425	0.1055	207885	keystroke_Key.space	Key.space	n/a
104.3035	0.1185	208607	keystroke_f	f	n/a
104.3335	0.1335	208667	keystroke_a	a	n/a
104.618	0.105	209236	keystroke_t	t	n/a
104.678	0.09	209356	keystroke_h	h	n/a
104.8885	0.12	209777	keystroke_e	e	n/a
104.9485	0.09	209897	keystroke_r	r	n/a
105.0385	0.1355	210077	keystroke_Key.space	Key.space	n/a
105.4885	0.09	210977	keystroke_s	s	n/a
105.698	0.09	211396	keystroke_e	e	n/a
105.803	0.1355	211606	keystroke_n	n	n/a
105.9085	0.1345	211817	keystroke_a	a	n/a
105.9985	0.104	211997	keystroke_t	t	n/a
106.1475	0.1055	212295	keystroke_o	o	n/a
106.253	0.105	212506	keystroke_r	r	n/a
106.403	0.09	212806	keystroke_Key.space	Key.space	n/a
107.017	0.091	214034	keystroke_d	d	n/a
107.122	0.09	214244	keystroke_u	u	n/a
107.272	0.0905	214544	keystroke_r	r	n/a
107.4075	0.18	214815	keystroke_i	i	n/a
107.4975	0.105	214995	keystroke_n	n	n/a
107.6035	0.119	215207	keystroke_g	g	n/a
107.7685	0.089	215537	keystroke_Key.enter	Key.enter	n/a
107.862	11.788	215724	prompt	n/a	auctions read occurring nominated\n
108.878	0.105	217756	keystroke_a	a	n/a
109.0125	0.0755	218025	keystroke_u	u	n/a
109.133	0.09	218266	keystroke_c	c	n/a
109.3585	0.06	218717	keystroke_t	t	n/a
109.5085	0.135	219017	keystroke_i	i	n/a
109.5535	0.105	219107	keystroke_o	o	n/a
109.7785	0.0895	219557	keystroke_n	n	n/a
110.423	0.12	220846	keystroke_s	s	n/a
110.558	0.135	221116	keystroke_Key.space	Key.space	n/a
110.768	0.135	221536	keystroke_r	r	n/a
110.828	0.09	221656	keystroke_e	e	n/a
110.978	0.15	221956	keystroke_a	a	n/a
111.068	0.105	222136	keystroke_d	d	n/a
111.203	0.12	222406	keystroke_Key.space	Key.space	n/a
111.713	0.105	223426	keystroke_o	o	n/a
111.893	0.06	223786	keystroke_c	c	n/a
112.0125	0.105	224025	keystroke_c	c	n/a
112.1475	0.075	224295	keystroke_u	u	n/a
112.253	0.075	224506	keystroke_r	r	n/a
112.373	0.12	224746	keystroke_i	i	n/a
112.418	0.09	224836	keystroke_n	n	n/a
112.478	0.0895	224956	keystroke_g	g	n/a
112.6125	0.09	225225	keystroke_Key.space	Key.space	n/a
114.413	0.0905	228826	keystroke_Key.backspace	Key.backspace	n/a
114.593	0.09	229186	keystroke_Key.backspace	Key.backspace	n/a
114.788	0.0455	229576	keystroke_Key.backspace	Key.backspace	n/a
114.9535	0.059	229907	keystroke_Key.backspace	Key.backspace	n/a
115.1175	0.12	230235	keystroke_Key.backspace	Key.backspace	n/a
115.2675	0.1205	230535	keystroke_Key.backspace	Key.backspace	n/a
117.338	0.045	234676	keystroke_u	u	n/a
117.518	0.0595	235036	keystroke_r	r	n/a
117.6375	0.0755	235275	keystroke_r	r	n/a
117.803	0.1355	235606	keystroke_i	i	n/a
117.848	0.0745	235696	keystroke_n	n	n/a
117.9385	0.0435	235877	keystroke_g	g	n/a
118.0285	0.105	236057	keystroke_Key.space	Key.space	n/a
118.3285	0.075	236657	keystroke_n	n	n/a
118.5085	0.1505	237017	keystroke_o	o	n/a
118.5985	0.1055	237197	keystroke_m	m	n/a
118.8085	0.15	237617	keystroke_i	i	n/a
118.8525	0.121	237705	keystroke_n	n	n/a
119.0185	0.12	238037	keystroke_a	a	n/a
119.1535	0.1345	238307	keystroke_t	t	n/a
119.2725	0.0755	238545	keystroke_e	e	n/a
119.439	0.104	238878	keystroke_d	d	n/a
119.558	0.09	239116	keystroke_Key.enter	Key.enter	n/a
119.6565	6.0085	239313	prompt	n/a	corps vehicle charter tables\n
120.384	0.104	240768	keystroke_c	c	n/a
120.5325	0.1055	241065	keystroke_o	o	n/a
120.669	0.0745	241338	keystroke_r	r	n/a
120.7735	0.12	241547	keystroke_p	p	n/a
120.9535	0.105	241907	keystroke_s	s	n/a
121.1185	0.09	242237	keystroke_Key.space	Key.space	n/a
121.6135	0.1355	243227	keystroke_v	v	n/a
121.704	0.075	243408	keystroke_e	e	n/a
122.0335	0.105	244067	keystroke_h	h	n/a
122.199	0.1195	244398	keystroke_i	i	n/a
122.3635	0.09	244727	keystroke_c	c	n/a
122.5585	0.105	245117	keystroke_l	l	n/a
122.7085	0.1355	245417	keystroke_e	e	n/a
122.829	0.12	245658	keystroke_Key.space	Key.space	n/a
123.114	0.12	246228	keystroke_c	c	n/a
123.249	0.09	246498	keystroke_h	h	n/a
123.369	0.1345	246738	keystroke_a	a	n/a
123.444	0.1045	246888	keystroke_r	r	n/a
123.6385	0.075	247277	keystroke_t	t	n/a
123.7585	0.1205	247517	keystroke_e	e	n/a
123.8185	0.09	247637	keystroke_r	r	n/a
123.9685	0.06	247937	keystroke_Key.space	Key.space	n/a
124.3735	0.105	248747	keystroke_t	t	n/a
124.5385	0.1045	249077	keystroke_a	a	n/a
124.7635	0.09	249527	keystroke_b	b	n/a
125.0935	0.12	250187	keystroke_l	l	n/a
125.2285	0.09	250457	keystroke_e	e	n/a
125.4085	0.1805	250817	keystroke_s	s	n/a
125.5585	0.105	251117	keystroke_Key.enter	Key.enter	n/a
125.676	5.4945	251352	prompt	n/a	chances readily dice bears\n
126.399	0.0895	252798	keystroke_c	c	n/a
126.5035	0.09	253007	keystroke_h	h	n/a
126.6085	0.075	253217	keystroke_a	a	n/a
126.7135	0.1505	253427	keystroke_n	n	n/a
126.849	0.1195	253698	keystroke_c	c	n/a
126.8935	0.105	253787	keystroke_e	e	n/a
127.074	0.12	254148	keystroke_s	s	n/a
127.164	0.12	254328	keystroke_Key.space	Key.space	n/a
127.5235	0.15	255047	keystroke_r	r	n/a
127.5385	0.15	255077	keystroke_e	e	n/a
127.7335	0.1655	255467	keystroke_a	a	n/a
128.124	0.0745	256248	keystroke_d	d	n/a
128.423	0.0755	256846	keystroke_i	i	n/a
128.6335	0.105	257267	keystroke_l	l	n/a
128.7235	0.0905	257447	keystroke_y	y	n/a
128.9045	0.0745	257809	keystroke_Key.space	Key.space	n/a
129.489	0.12	258978	keystroke_d	d	n/a
129.624	0.1055	259248	keystroke_i	i	n/a
129.9385	0.18	259877	keystroke_c	c	n/a
130.014	0.1345	260028	keystroke_e	e	n/a
130.2085	0.09	260417	keystroke_Key.space	Key.space	n/a
130.4485	0.075	260897	keystroke_b	b	n/a
130.5385	0.15	261077	keystroke_e	e	n/a
130.614	0.119	261228	keystroke_a	a	n/a
130.793	0.106	261586	keystroke_r	r	n/a
130.899	0.1195	261798	keystroke_s	s	n/a
131.0495	0.119	262099	keystroke_Key.enter	Key.enter	n/a
131.173	5.712	262346	prompt	n/a	remedies permits solar union\n
131.829	0.104	263658	keystroke_r	r	n/a
131.859	0.105	263718	keystroke_e	e	n/a
132.0085	0.135	264017	keystroke_m	m	n/a
132.0535	0.106	264107	keystroke_e	e	n/a
132.2335	0.1045	264467	keystroke_d	d	n/a
132.3985	0.135	264797	keystroke_i	i	n/a
132.6235	0.0905	265247	keystroke_e	e	n/a
132.7885	0.1505	265577	keystroke_s	s	n/a
132.909	0.0755	265818	keystroke_Key.space	Key.space	n/a
133.0745	0.09	266149	keystroke_p	p	n/a
133.194	0.135	266388	keystroke_e	e	n/a
133.269	0.105	266538	keystroke_r	r	n/a
133.359	0.0905	266718	keystroke_m	m	n/a
133.5545	0.09	267109	keystroke_i	i	n/a
133.659	0.135	267318	keystroke_t	t	n/a
133.749	0.09	267498	keystroke_e	e	n/a
134.0935	0.0905	268187	keystroke_Key.backspace	Key.backspace	n/a
134.229	0.12	268458	keystroke_s	s	n/a
134.379	0.0745	268758	keystroke_Key.space	Key.space	n/a
135.023	0.09	270046	keystroke_s	s	n/a
135.083	0.075	270166	keystroke_o	o	n/a
135.248	0.09	270496	keystroke_l	l	n/a
135.368	0.1355	270736	keystroke_a	a	n/a
135.4735	0.12	270947	keystroke_r	r	n/a
135.6085	0.1045	271217	keystroke_Key.space	Key.space	n/a
136.0735	0.135	272147	keystroke_u	u	n/a
136.1485	0.1355	272297	keystroke_n	n	n/a
136.4185	0.0905	272837	keystroke_i	i	n/a
136.4785	0.105	272957	keystroke_o	o	n/a
136.6135	0.1045	273227	keystroke_n	n	n/a
136.793	0.0905	273586	keystroke_Key.enter	Key.enter	n/a
136.8885	8.202	273777	prompt	n/a	ecommerce algorithms manchester node\n
137.6795	0.09	275359	keystroke_e	e	n/a
137.904	0.09	275808	keystroke_c	c	n/a
138.0245	0.12	276049	keystroke_o	o	n/a
138.0995	0.2245	276199	keystroke_m	m	n/a
138.429	0.045	276858	keystroke_m	m	n/a
138.5945	0.104	277189	keystroke_e	e	n/a
138.6395	0.0895	277279	keystroke_r	r	n/a
139.614	0.1505	279228	keystroke_c	c	n/a
139.6745	0.12	279349	keystroke_e	e	n/a
139.8995	0.075	279799	keystroke_Key.space	Key.space	n/a
140.424	0.0895	280848	keystroke_a	a	n/a
140.5285	0.105	281057	keystroke_l	l	n/a
140.8885	0.09	281777	keystroke_g	g	n/a
140.9635	0.09	281927	keystroke_o	o	n/a
141.2045	0.1045	282409	keystroke_r	r	n/a
141.4595	0.06	282919	keystroke_i	i	n/a
141.5945	0.1195	283189	keystroke_t	t	n/a
141.6545	0.1045	283309	keystroke_h	h	n/a
141.849	0.1355	283698	keystroke_m	m	n/a
142.0445	0.1495	284089	keystroke_s	s	n/a
142.209	0.1055	284418	keystroke_Key.space	Key.space	n/a
142.3895	0.0895	284779	keystroke_m	m	n/a
142.583	0.1055	285166	keystroke_a	a	n/a
142.7035	0.075	285407	keystroke_n	n	n/a
142.8245	0.104	285649	keystroke_c	c	n/a
143.1535	0.06	286307	keystroke_h	h	n/a
143.3935	0.105	286787	keystroke_e	e	n/a
143.5745	0.1495	287149	keystroke_s	s	n/a
143.739	0.105	287478	keystroke_t	t	n/a
143.9495	0.135	287899	keystroke_e	e	n/a
144.0085	0.106	288017	keystroke_r	r	n/a
144.0985	0.0605	288197	keystroke_Key.space	Key.space	n/a
144.384	0.03	288768	keystroke_n	n	n/a
144.609	0.0905	289218	keystroke_o	o	n/a
144.7285	0.075	289457	keystroke_d	d	n/a
144.894	0.09	289788	keystroke_e	e	n/a
144.999	0.0895	289998	keystroke_Key.enter	Key.enter	n/a
145.0945	6.071	290189	prompt	n/a	disks nutten proc pleased\n
146.394	0.09	292788	keystroke_d	d	n/a
146.484	0.0605	292968	keystroke_i	i	n/a
146.5745	0.105	293149	keystroke_s	s	n/a
146.7395	0.045	293479	keystroke_k	k	n/a
147.1145	0.119	294229	keystroke_s	s	n/a
147.2185	0.105	294437	keystroke_Key.space	Key.space	n/a
147.384	0.135	294768	keystroke_n	n	n/a
147.564	0.0895	295128	keystroke_u	u	n/a
147.6835	0.06	295367	keystroke_t	t	n/a
147.8335	0.1055	295667	keystroke_t	t	n/a
148.0135	0.105	296027	keystroke_e	e	n/a
148.1035	0.0755	296207	keystroke_n	n	n/a
148.284	0.09	296568	keystroke_Key.space	Key.space	n/a
148.494	0.0755	296988	keystroke_p	p	n/a
148.5995	0.0905	297199	keystroke_r	r	n/a
148.8395	0.135	297679	keystroke_o	o	n/a
149.0345	0.12	298069	keystroke_c	c	n/a
149.1695	0.09	298339	keystroke_Key.space	Key.space	n/a
149.9345	0.1045	299869	keystroke_p	p	n/a
150.144	0.105	300288	keystroke_l	l	n/a
150.264	0.1205	300528	keystroke_e	e	n/a
150.3545	0.165	300709	keystroke_a	a	n/a
150.4745	0.12	300949	keystroke_s	s	n/a
150.729	0.0605	301458	keystroke_e	e	n/a
150.8795	0.1045	301759	keystroke_d	d	n/a
151.044	0.12	302088	keystroke_Key.enter	Key.enter	n/a
151.168	10.963	302336	prompt	n/a	musician promising discretion structured\n
152.034	0.075	304068	keystroke_m	m	n/a
152.274	0.09	304548	keystroke_u	u	n/a
152.4695	0.105	304939	keystroke_s	s	n/a
152.6045	0.0895	305209	keystroke_i	i	n/a
152.754	0.06	305508	keystroke_c	c	n/a
152.8745	0.09	305749	keystroke_i	i	n/a
153.5945	0.105	307189	keystroke_a	a	n/a
153.7445	0.105	307489	keystroke_n	n	n/a
153.8795	0.1045	307759	keystroke_Key.space	Key.space	n/a
154.239	0.075	308478	keystroke_p	p	n/a
154.374	0.09	308748	keystroke_r	r	n/a
154.479	0.0905	308958	keystroke_o	o	n/a
154.524	0.0905	309048	keystroke_m	m	n/a
154.8695	0.12	309739	keystroke_i	i	n/a
155.155	0.104	310310	keystroke_s	s	n/a
155.5295	0.164	311059	keystroke_i	i	n/a
155.6495	0.06	311299	keystroke_n	n	n/a
155.7545	0.119	311509	keystroke_g	g	n/a
155.8885	0.1355	311777	keystroke_Key.space	Key.space	n/a
156.264	0.106	312528	keystroke_d	d	n/a
156.43	0.1195	312860	keystroke_i	i	n/a
156.5785	0.1055	313157	keystroke_s	s	n/a
156.8045	0.06	313609	keystroke_c	c	n/a
157.0135	0.1205	314027	keystroke_r	r	n/a
157.044	0.135	314088	keystroke_e	e	n/a
157.2385	0.0755	314477	keystroke_t	t	n/a
157.3735	0.12	314747	keystroke_i	i	n/a
157.4635	0.0905	314927	keystroke_o	o	n/a
157.614	0.105	315228	keystroke_n	n	n/a
157.734	0.0745	315468	keystroke_Key.space	Key.space	n/a
158.259	0.09	316518	keystroke_s	s	n/a
158.514	0.105	317028	keystroke_t	t	n/a
158.5595	0.089	317119	keystroke_r	r	n/a
158.694	0.09	317388	keystroke_u	u	n/a
158.7995	0.09	317599	keystroke_c	c	n/a
159.01	0.0595	318020	keystroke_t	t	n/a
159.0695	0.09	318139	keystroke_u	u	n/a
159.2645	0.0605	318529	keystroke_u	u	n/a
159.355	0.1495	318710	keystroke_r	r	n/a
159.445	0.1195	318890	keystroke_e	e	n/a
159.9695	0.105	319939	keystroke_Key.backspace	Key.backspace	n/a
160.1495	0.075	320299	keystroke_Key.backspace	Key.backspace	n/a
160.4485	0.135	320897	keystroke_Key.backspace	Key.backspace	n/a
161.094	0.1495	322188	keystroke_r	r	n/a
161.154	0.105	322308	keystroke_e	e	n/a
161.424	0.1055	322848	keystroke_d	d	n/a
161.9795	0.15	323959	keystroke_Key.enter	Key.enter	n/a
162.1335	14.1885	324267	prompt	n/a	hewlett angels spiritual using\n
163.089	0.135	326178	keystroke_h	h	n/a
163.2995	0.074	326599	keystroke_e	e	n/a
163.57	0.119	327140	keystroke_w	w	n/a
163.8385	0.0905	327677	keystroke_l	l	n/a
164.05	0.1185	328100	keystroke_e	e	n/a
164.394	0.09	328788	keystroke_t	t	n/a
164.544	0.1195	329088	keystroke_t	t	n/a
164.7085	0.1355	329417	keystroke_Key.space	Key.space	n/a
165.0535	0.1205	330107	keystroke_a	a	n/a
165.144	0.105	330288	keystroke_n	n	n/a
165.324	0.135	330648	keystroke_g	g	n/a
165.504	0.1205	331008	keystroke_l	l	n/a
165.7145	0.165	331429	keystroke_e	e	n/a
165.835	0.1195	331670	keystroke_t	t	n/a
166.449	0.075	332898	keystroke_Key.backspace	Key.backspace	n/a
166.599	0.06	333198	keystroke_Key.backspace	Key.backspace	n/a
166.7485	0.1055	333497	keystroke_Key.backspace	Key.backspace	n/a
167.14	0.119	334280	keystroke_e	e	n/a
167.199	0.09	334398	keystroke_t	t	n/a
167.304	0.1205	334608	keystroke_l	l	n/a
167.574	0.1205	335148	keystroke_s	s	n/a
168.1595	0.06	336319	keystroke_Key.backspace	Key.backspace	n/a
168.324	0.0605	336648	keystroke_Key.backspace	Key.backspace	n/a
168.894	0.12	337788	keystroke_Key.backspace	Key.backspace	n/a
169.1945	0.089	338389	keystroke_l	l	n/a
169.2985	0.1055	338597	keystroke_s	s	n/a
169.509	0.09	339018	keystroke_Key.space	Key.space	n/a
170.0945	0.0745	340189	keystroke_s	s	n/a
170.44	0.09	340880	keystroke_p	p	n/a
170.6195	0.075	341239	keystroke_i	i	n/a
170.8595	0.1055	341719	keystroke_r	r	n/a
171.0245	0.06	342049	keystroke_i	i	n/a
171.37	0.104	342740	keystroke_t	t	n/a
171.504	0.06	343008	keystroke_u	u	n/a
171.6845	0.075	343369	keystroke_a	a	n/a
171.849	0.09	343698	keystroke_l	l	n/a
171.954	0.1205	343908	keystroke_Key.space	Key.space	n/a
172.4195	0.09	344839	keystroke_i	i	n/a
172.749	0.076	345498	keystroke_=	=	n/a
172.75	0.089	345500	keystroke_Key.backspace	Key.backspace	n/a
172.96	0.0905	345920	keystroke_u	u	n/a
173.08	0.09	346160	keystroke_s	s	n/a
173.26	0.12	346520	keystroke_i	i	n/a
173.32	0.0905	346640	keystroke_n	n	n/a
173.395	0.0595	346790	keystroke_g	g	n/a
173.4855	0.118	346971	keystroke_Key.space	Key.space	n/a
174.084	0.0755	348168	keystroke_Key.backspace	Key.backspace	n/a
174.2195	0.09	348439	keystroke_Key.backspace	Key.backspace	n/a
174.3695	0.105	348739	keystroke_Key.backspace	Key.backspace	n/a
174.5045	0.075	349009	keystroke_Key.backspace	Key.backspace	n/a
174.655	0.09	349310	keystroke_Key.backspace	Key.backspace	n/a
174.7745	0.165	349549	keystroke_Key.backspace	Key.backspace	n/a
175.0445	0.0455	350089	keystroke_Key.backspace	Key.backspace	n/a
175.659	0.09	351318	keystroke_u	u	n/a
175.764	0.09	351528	keystroke_s	s	n/a
175.915	0.149	351830	keystroke_i	i	n/a
175.9895	0.0895	351979	keystroke_n	n	n/a
176.049	0.075	352098	keystroke_g	g	n/a
176.244	0.0755	352488	keystroke_Key.enter	Key.enter	n/a
176.3335	8.1635	352667	prompt	n/a	botswana suspended company molecular\n
177.3695	0.09	354739	keystroke_b	b	n/a
177.4895	0.0905	354979	keystroke_o	o	n/a
177.61	0.09	355220	keystroke_t	t	n/a
177.8345	0.105	355669	keystroke_s	s	n/a
178.06	0.0895	356120	keystroke_w	w	n/a
178.2695	0.135	356539	keystroke_a	a	n/a
178.4345	0.105	356869	keystroke_n	n	n/a
178.4945	0.1195	356989	keystroke_a	a	n/a
178.659	0.0905	357318	keystroke_Key.space	Key.space	n/a
179.634	0.075	359268	keystroke_s	s	n/a
179.724	0.0905	359448	keystroke_u	u	n/a
179.8295	0.105	359659	keystroke_s	s	n/a
179.9635	0.1055	359927	keystroke_p	p	n/a
180.174	0.1045	360348	keystroke_e	e	n/a
180.2935	0.0755	360587	keystroke_n	n	n/a
180.429	0.105	360858	keystroke_d	d	n/a
180.67	0.0295	361340	keystroke_e	e	n/a
180.7745	0.105	361549	keystroke_d	d	n/a
180.8495	0.0905	361699	keystroke_Key.space	Key.space	n/a
181.045	0.0895	362090	keystroke_c	c	n/a
181.075	0.1195	362150	keystroke_o	o	n/a
181.1495	0.09	362299	keystroke_m	m	n/a
181.2845	0.1055	362569	keystroke_p	p	n/a
181.405	0.075	362810	keystroke_a	a	n/a
181.539	0.1055	363078	keystroke_n	n	n/a
181.6595	0.09	363319	keystroke_y	y	n/a
181.7795	0.105	363559	keystroke_Key.space	Key.space	n/a
183.085	0.1345	366170	keystroke_m	m	n/a
183.205	0.0895	366410	keystroke_o	o	n/a
183.429	0.09	366858	keystroke_l	l	n/a
183.535	0.089	367070	keystroke_e	e	n/a
183.819	0.106	367638	keystroke_c	c	n/a
183.88	0.075	367760	keystroke_u	u	n/a
184.0595	0.1195	368119	keystroke_l	l	n/a
184.164	0.135	368328	keystroke_a	a	n/a
184.255	0.089	368510	keystroke_r	r	n/a
184.4055	0.0885	368811	keystroke_Key.enter	Key.enter	n/a
184.501	7.466	369002	prompt	n/a	estonia games kiss treo\n
185.3945	0.1645	370789	keystroke_e	e	n/a
185.514	0.0905	371028	keystroke_s	s	n/a
185.7095	0.0445	371419	keystroke_t	t	n/a
185.769	0.12	371538	keystroke_o	o	n/a
185.829	0.1055	371658	keystroke_n	n	n/a
186.4445	0.0755	372889	keystroke_i	i	n/a
186.565	0.1045	373130	keystroke_a	a	n/a
186.6845	0.1205	373369	keystroke_Key.space	Key.space	n/a
187.315	0.1345	374630	keystroke_g	g	n/a
187.435	0.1345	374870	keystroke_a	a	n/a
187.5845	0.0905	375169	keystroke_m	m	n/a
187.66	0.075	375320	keystroke_e	e	n/a
187.825	0.1195	375650	keystroke_s	s	n/a
187.9	0.1045	375800	keystroke_Key.space	Key.space	n/a
188.0645	0.105	376129	keystroke_k	k	n/a
188.26	0.0745	376520	keystroke_i	i	n/a
188.3645	0.075	376729	keystroke_s	s	n/a
188.4845	0.1055	376969	keystroke_s	s	n/a
188.605	0.105	377210	keystroke_Key.space	Key.space	n/a
188.7545	0.12	377509	keystroke_t	t	n/a
188.799	0.1055	377598	keystroke_h	h	n/a
189.0545	0.0755	378109	keystroke_e	e	n/a
189.1145	0.105	378229	keystroke_o	o	n/a
189.7445	0.2405	379489	keystroke_Key.backspace	Key.backspace	n/a
190.0595	0.2255	380119	keystroke_Key.backspace	Key.backspace	n/a
190.4345	0.1355	380869	keystroke_Key.backspace	Key.backspace	n/a
190.675	0.12	381350	keystroke_r	r	n/a
190.72	0.1055	381440	keystroke_e	e	n/a
190.9	0.09	381800	keystroke_o	o	n/a
191.875	0.0905	383750	keystroke_Key.enter	Key.enter	n/a
191.986	7.6605	383972	prompt	n/a	orchestra instrument governing definitions\n
193.6145	0.075	387229	keystroke_o	o	n/a
193.7045	0.0905	387409	keystroke_r	r	n/a
193.9145	0.105	387829	keystroke_c	c	n/a
194.0345	0.075	388069	keystroke_h	h	n/a
194.1245	0.075	388249	keystroke_e	e	n/a
194.275	0.105	388550	keystroke_s	s	n/a
194.53	0.15	389060	keystroke_t	t	n/a
194.5905	0.1195	389181	keystroke_r	r	n/a
194.815	0.105	389630	keystroke_a	a	n/a
194.95	0.105	389900	keystroke_Key.space	Key.space	n/a
195.174	0.1205	390348	keystroke_i	i	n/a
195.2345	0.09	390469	keystroke_n	n	n/a
195.3095	0.075	390619	keystroke_s	s	n/a
195.4895	0.12	390979	keystroke_t	t	n/a
195.549	0.1055	391098	keystroke_r	r	n/a
195.6395	0.09	391279	keystroke_u	u	n/a
195.8495	0.075	391699	keystroke_m	m	n/a
195.9545	0.09	391909	keystroke_e	e	n/a
196.0595	0.075	392119	keystroke_n	n	n/a
196.1495	0.0905	392299	keystroke_t	t	n/a
196.255	0.06	392510	keystroke_Key.space	Key.space	n/a
196.7945	0.075	393589	keystroke_g	g	n/a
196.8545	0.09	393709	keystroke_o	o	n/a
196.9595	0.105	393919	keystroke_v	v	n/a
197.14	0.1045	394280	keystroke_e	e	n/a
197.185	0.1045	394370	keystroke_r	r	n/a
197.2595	0.075	394519	keystroke_n	n	n/a
197.485	0.12	394970	keystroke_i	i	n/a
197.545	0.105	395090	keystroke_n	n	n/a
197.695	0.105	395390	keystroke_g	g	n/a
197.785	0.12	395570	keystroke_Key.space	Key.space	n/a
198.22	0.09	396440	keystroke_d	d	n/a
198.3845	0.1195	396769	keystroke_e	e	n/a
198.489	0.075	396978	keystroke_f	f	n/a
198.579	0.105	397158	keystroke_i	i	n/a
198.654	0.06	397308	keystroke_n	n	n/a
198.7895	0.105	397579	keystroke_i	i	n/a
198.984	0.06	397968	keystroke_t	t	n/a
199.059	0.1055	398118	keystroke_i	i	n/a
199.1795	0.12	398359	keystroke_o	o	n/a
199.2845	0.1045	398569	keystroke_n	n	n/a
199.419	0.1055	398838	keystroke_s	s	n/a
199.5845	0.06	399169	keystroke_Key.enter	Key.enter	n/a
199.649	9.2525	399298	prompt	n/a	typically wrap organizing prints\n
200.529	0.15	401058	keystroke_t	t	n/a
200.634	0.09	401268	keystroke_y	y	n/a
200.709	0.105	401418	keystroke_p	p	n/a
201.069	0.0755	402138	keystroke_c	c	n/a
201.3555	0.105	402711	keystroke_Key.backspace	Key.backspace	n/a
202.405	0.105	404810	keystroke_i	i	n/a
202.57	0.15	405140	keystroke_c	c	n/a
202.645	0.1495	405290	keystroke_a	a	n/a
202.8095	0.045	405619	keystroke_l	l	n/a
202.9445	0.0905	405889	keystroke_l	l	n/a
203.08	0.1045	406160	keystroke_y	y	n/a
203.2145	0.12	406429	keystroke_Key.space	Key.space	n/a
203.545	0.1345	407090	keystroke_w	w	n/a
203.6045	0.105	407209	keystroke_r	r	n/a
203.755	0.0905	407510	keystroke_a	a	n/a
203.9055	0.105	407811	keystroke_p	p	n/a
204.04	0.09	408080	keystroke_Key.space	Key.space	n/a
204.295	0.135	408590	keystroke_o	o	n/a
204.55	0.135	409100	keystroke_r	r	n/a
204.61	0.105	409220	keystroke_g	g	n/a
204.805	0.1045	409610	keystroke_a	a	n/a
204.8795	0.121	409759	keystroke_n	n	n/a
205.0145	0.1355	410029	keystroke_i	i	n/a
205.135	0.12	410270	keystroke_z	z	n/a
205.225	0.135	410450	keystroke_a	a	n/a
205.465	0.0905	410930	keystroke_t	t	n/a
205.6295	0.1195	411259	keystroke_i	i	n/a
205.6905	0.1035	411381	keystroke_o	o	n/a
205.884	0.1055	411768	keystroke_n	n	n/a
206.2905	0.089	412581	keystroke_Key.backspace	Key.backspace	n/a
206.4255	0.0745	412851	keystroke_Key.backspace	Key.backspace	n/a
206.589	0.091	413178	keystroke_Key.backspace	Key.backspace	n/a
206.7395	0.075	413479	keystroke_Key.backspace	Key.backspace	n/a
206.9495	0.091	413899	keystroke_Key.backspace	Key.backspace	n/a
207.4	0.1195	414800	keystroke_i	i	n/a
207.444	0.0905	414888	keystroke_n	n	n/a
207.5645	0.105	415129	keystroke_g	g	n/a
207.6845	0.12	415369	keystroke_Key.space	Key.space	n/a
208.015	0.105	416030	keystroke_p	p	n/a
208.1955	0.0895	416391	keystroke_r	r	n/a
208.375	0.1655	416750	keystroke_i	i	n/a
208.465	0.0905	416930	keystroke_n	n	n/a
208.525	0.1055	417050	keystroke_t	t	n/a
208.6605	0.1195	417321	keystroke_s	s	n/a
208.825	0.0755	417650	keystroke_Key.enter	Key.enter	n/a
208.9065	6.805	417813	prompt	n/a	assign career biographies actors\n
209.755	0.1495	419510	keystroke_a	a	n/a
209.815	0.1055	419630	keystroke_s	s	n/a
209.9655	0.135	419931	keystroke_s	s	n/a
210.1155	0.089	420231	keystroke_i	i	n/a
210.2355	0.09	420471	keystroke_g	g	n/a
210.3545	0.046	420709	keystroke_n	n	n/a
210.519	0.0905	421038	keystroke_Key.space	Key.space	n/a
210.6995	0.135	421399	keystroke_c	c	n/a
210.7745	0.12	421549	keystroke_a	a	n/a
210.9695	0.075	421939	keystroke_r	r	n/a
211.1045	0.0905	422209	keystroke_e	e	n/a
211.2845	0.12	422569	keystroke_e	e	n/a
211.3745	0.0905	422749	keystroke_r	r	n/a
211.495	0.1205	422990	keystroke_Key.space	Key.space	n/a
211.8395	0.105	423679	keystroke_b	b	n/a
212.1695	0.1055	424339	keystroke_i	i	n/a
212.245	0.09	424490	keystroke_o	o	n/a
212.56	0.15	425120	keystroke_g	g	n/a
212.62	0.12	425240	keystroke_r	r	n/a
212.9355	0.0895	425871	keystroke_a	a	n/a
213.13	0.105	426260	keystroke_p	p	n/a
214.12	0.075	428240	keystroke_h	h	n/a
214.24	0.089	428480	keystroke_i	i	n/a
214.374	0.1505	428748	keystroke_e	e	n/a
214.464	0.1205	428928	keystroke_s	s	n/a
214.5995	0.0755	429199	keystroke_Key.space	Key.space	n/a
214.7495	0.1505	429499	keystroke_a	a	n/a
214.855	0.135	429710	keystroke_c	c	n/a
215.11	0.075	430220	keystroke_t	t	n/a
215.2	0.09	430400	keystroke_o	o	n/a
215.305	0.1505	430610	keystroke_r	r	n/a
215.4105	0.135	430821	keystroke_s	s	n/a
215.59	0.12	431180	keystroke_Key.enter	Key.enter	n/a
215.714	6.7945	431428	prompt	n/a	iowa thee barriers park\n
216.625	0.12	433250	keystroke_i	i	n/a
217.1505	0.09	434301	keystroke_o	o	n/a
217.345	0.105	434690	keystroke_q	q	n/a
218.0055	0.1195	436011	keystroke_Key.backspace	Key.backspace	n/a
218.4555	0.075	436911	keystroke_w	w	n/a
218.68	0.1045	437360	keystroke_a	a	n/a
218.815	0.135	437630	keystroke_Key.space	Key.space	n/a
219.475	0.1205	438950	keystroke_t	t	n/a
219.55	0.1055	439100	keystroke_h	h	n/a
219.7755	0.0445	439551	keystroke_e	e	n/a
219.8955	0.12	439791	keystroke_e	e	n/a
220.0305	0.06	440061	keystroke_Key.space	Key.space	n/a
220.2105	0.0895	440421	keystroke_b	b	n/a
220.285	0.105	440570	keystroke_a	a	n/a
220.36	0.0755	440720	keystroke_r	r	n/a
220.5105	0.105	441021	keystroke_r	r	n/a
220.6305	0.1045	441261	keystroke_i	i	n/a
220.9455	0.1645	441891	keystroke_e	e	n/a
221.0055	0.1495	442011	keystroke_r	r	n/a
221.4705	0.104	442941	keystroke_s	s	n/a
221.635	0.09	443270	keystroke_Key.space	Key.space	n/a
221.845	0.09	443690	keystroke_p	p	n/a
221.92	0.105	443840	keystroke_a	a	n/a
222.07	0.075	444140	keystroke_r	r	n/a
222.205	0.1055	444410	keystroke_k	k	n/a
222.416	0.091	444832	keystroke_Key.enter	Key.enter	n/a
222.513	9.229	445026	prompt	n/a	scripting entities study granny\n
223.477	0.1215	446954	keystroke_s	s	n/a
223.5375	0.106	447075	keystroke_c	c	n/a
223.688	0.0305	447376	keystroke_i	i	n/a
224.4765	0.044	448953	keystroke_Key.backspace	Key.backspace	n/a
224.6265	0.1065	449253	keystroke_r	r	n/a
224.748	0.076	449496	keystroke_i	i	n/a
224.944	0.121	449888	keystroke_p	p	n/a
225.3235	0.1045	450647	keystroke_t	t	n/a
225.444	0.1215	450888	keystroke_i	i	n/a
225.52	0.0755	451040	keystroke_n	n	n/a
225.7475	0.0295	451495	keystroke_Key.space	Key.space	n/a
226.4435	0.0905	452887	keystroke_Key.backspace	Key.backspace	n/a
226.5655	0.0885	453131	keystroke_g	g	n/a
226.791	0.091	453582	keystroke_Key.space	Key.space	n/a
227.078	0.1215	454156	keystroke_e	e	n/a
227.154	0.106	454308	keystroke_n	n	n/a
227.2755	0.091	454551	keystroke_t	t	n/a
227.397	0.0745	454794	keystroke_i	i	n/a
227.4565	0.106	454913	keystroke_t	t	n/a
227.5475	0.076	455095	keystroke_i	i	n/a
228.6385	0.181	457277	keystroke_e	e	n/a
228.729	0.121	457458	keystroke_s	s	n/a
228.941	0.091	457882	keystroke_Key.space	Key.space	n/a
229.5165	0.09	459033	keystroke_s	s	n/a
229.7125	0.076	459425	keystroke_t	t	n/a
229.9855	0.121	459971	keystroke_u	u	n/a
230.167	0.106	460334	keystroke_d	d	n/a
230.349	0.075	460698	keystroke_y	y	n/a
230.424	0.1365	460848	keystroke_Key.space	Key.space	n/a
230.9845	0.136	461969	keystroke_g	g	n/a
231.0145	0.121	462029	keystroke_r	r	n/a
231.181	0.1205	462362	keystroke_a	a	n/a
231.317	0.0455	462634	keystroke_n	n	n/a
231.408	0.106	462816	keystroke_n	n	n/a
231.499	0.0755	462998	keystroke_y	y	n/a
231.6505	0.09	463301	keystroke_Key.enter	Key.enter	n/a
231.7465	5.839	463493	prompt	n/a	silicon hist french launch\n
232.4215	0.1215	464843	keystroke_s	s	n/a
232.573	0.1065	465146	keystroke_i	i	n/a
232.8005	0.091	465601	keystroke_l	l	n/a
233.0125	0.0905	466025	keystroke_i	i	n/a
233.194	0.076	466388	keystroke_c	c	n/a
233.3155	0.166	466631	keystroke_o	o	n/a
233.406	0.136	466812	keystroke_n	n	n/a
233.497	0.136	466994	keystroke_Key.space	Key.space	n/a
234.1935	0.1055	468387	keystroke_h	h	n/a
234.284	0.106	468568	keystroke_i	i	n/a
234.4355	0.1365	468871	keystroke_s	s	n/a
234.5415	0.0905	469083	keystroke_t	t	n/a
234.647	0.1055	469294	keystroke_Key.space	Key.space	n/a
234.799	0.1055	469598	keystroke_f	f	n/a
235.0405	0.1515	470081	keystroke_r	r	n/a
235.132	0.1205	470264	keystroke_e	e	n/a
235.3735	0.106	470747	keystroke_n	n	n/a
235.5855	0.106	471171	keystroke_c	c	n/a
235.7065	0.091	471413	keystroke_h	h	n/a
235.873	0.106	471746	keystroke_Key.space	Key.space	n/a
236.282	0.0905	472564	keystroke_l	l	n/a
236.3875	0.106	472775	keystroke_a	a	n/a
236.524	0.0605	473048	keystroke_u	u	n/a
236.7965	0.0755	473593	keystroke_n	n	n/a
237.19	0.0605	474380	keystroke_c	c	n/a
237.2655	0.076	474531	keystroke_h	h	n/a
237.493	0.0905	474986	keystroke_Key.enter	Key.enter	n/a
237.5885	7.837	475177	prompt	n/a	winner depth abuse property\n
238.31	0.106	476620	keystroke_w	w	n/a
238.401	0.091	476802	keystroke_i	i	n/a
238.613	0.0755	477226	keystroke_n	n	n/a
238.734	0.0755	477468	keystroke_n	n	n/a
238.825	0.0905	477650	keystroke_e	e	n/a
238.87	0.076	477740	keystroke_r	r	n/a
238.931	0.121	477862	keystroke_Key.space	Key.space	n/a
239.158	0.1215	478316	keystroke_d	d	n/a
239.34	0.0905	478680	keystroke_e	e	n/a
239.4455	0.0755	478891	keystroke_p	p	n/a
239.6575	0.106	479315	keystroke_t	t	n/a
239.718	0.0905	479436	keystroke_h	h	n/a
239.8845	0.121	479769	keystroke_Key.space	Key.space	n/a
240.823	0.0905	481646	keystroke_a	a	n/a
241.0195	0.1365	482039	keystroke_b	b	n/a
241.1105	0.106	482221	keystroke_u	u	n/a
241.2465	0.1365	482493	keystroke_s	s	n/a
241.3385	0.075	482677	keystroke_e	e	n/a
241.4435	0.121	482887	keystroke_Key.space	Key.space	n/a
241.8225	0.0905	483645	keystroke_p	p	n/a
242.1095	0.1065	484219	keystroke_o	o	n/a
242.4885	0.0905	484977	keystroke_Key.backspace	Key.backspace	n/a
242.6705	0.0905	485341	keystroke_r	r	n/a
242.957	0.0305	485914	keystroke_o	o	n/a
243.487	0.091	486974	keystroke_p	p	n/a
243.8045	0.1525	487609	keystroke_e	e	n/a
243.865	0.121	487730	keystroke_r	r	n/a
244.093	0.105	488186	keystroke_t	t	n/a
244.319	0.076	488638	keystroke_t	t	n/a
244.819	0.075	489638	keystroke_Key.backspace	Key.backspace	n/a
244.9405	0.0745	489881	keystroke_y	y	n/a
245.333	0.0915	490666	keystroke_Key.enter	Key.enter	n/a
245.43	7.682	490860	prompt	n/a	kidney bunch artist annotated\n
246.4235	0.0445	492847	keystroke_k	k	n/a
246.6195	0.0605	493239	keystroke_i	i	n/a
246.7255	0.106	493451	keystroke_d	d	n/a
246.8465	0.0455	493693	keystroke_n	n	n/a
247.21	0.182	494420	keystroke_e	e	n/a
247.3615	0.106	494723	keystroke_y	y	n/a
247.513	0.1355	495026	keystroke_Key.space	Key.space	n/a
247.936	0.136	495872	keystroke_b	b	n/a
248.057	0.0905	496114	keystroke_u	u	n/a
248.284	0.106	496568	keystroke_n	n	n/a
248.4505	0.0755	496901	keystroke_c	c	n/a
248.5715	0.091	497143	keystroke_h	h	n/a
248.6775	0.091	497355	keystroke_Key.space	Key.space	n/a
249.147	0.0905	498294	keystroke_a	a	n/a
249.4645	0.167	498929	keystroke_r	r	n/a
249.541	0.1355	499082	keystroke_t	t	n/a
249.707	0.1055	499414	keystroke_i	i	n/a
249.9795	0.106	499959	keystroke_s	s	n/a
249.9945	0.0755	499989	keystroke_a	a	n/a
250.3275	0.136	500655	keystroke_t	t	n/a
250.645	0.03	501290	keystroke_Key.backspace	Key.backspace	n/a
250.7515	0.0905	501503	keystroke_Key.backspace	Key.backspace	n/a
250.9325	0.075	501865	keystroke_t	t	n/a
251.28	0.121	502560	keystroke_Key.space	Key.space	n/a
251.764	0.106	503528	keystroke_a	a	n/a
251.915	0.0915	503830	keystroke_n	n	n/a
252.052	0.0755	504104	keystroke_n	n	n/a
252.188	0.1055	504376	keystroke_o	o	n/a
252.2635	0.1055	504527	keystroke_t	t	n/a
252.4605	0.151	504921	keystroke_a	a	n/a
252.551	0.136	505102	keystroke_t	t	n/a
252.717	0.0905	505434	keystroke_e	e	n/a
252.884	0.0905	505768	keystroke_d	d	n/a
253.05	0.0605	506100	keystroke_Key.enter	Key.enter	n/a
253.1155	7.1505	506231	prompt	n/a	tribune index center aren't\n
253.8975	0.121	507795	keystroke_t	t	n/a
254.1855	0.0905	508371	keystroke_r	r	n/a
254.457	0.091	508914	keystroke_i	i	n/a
254.5935	0.0905	509187	keystroke_b	b	n/a
254.714	0.0755	509428	keystroke_u	u	n/a
255.032	0.1055	510064	keystroke_n	n	n/a
255.153	0.166	510306	keystroke_e	e	n/a
255.3035	0.0305	510607	keystroke_Key.space	Key.space	n/a
255.4555	0.121	510911	keystroke_i	i	n/a
255.516	0.1205	511032	keystroke_n	n	n/a
255.6375	0.105	511275	keystroke_d	d	n/a
255.834	0.091	511668	keystroke_e	e	n/a
256.076	0.1055	512152	keystroke_x	x	n/a
256.1955	0.092	512391	keystroke_Key.space	Key.space	n/a
256.333	0.075	512666	keystroke_c	c	n/a
256.4535	0.0905	512907	keystroke_e	e	n/a
256.544	0.0905	513088	keystroke_n	n	n/a
256.6495	0.0915	513299	keystroke_t	t	n/a
256.7715	0.1055	513543	keystroke_e	e	n/a
256.847	0.0905	513694	keystroke_r	r	n/a
257.043	0.0915	514086	keystroke_Key.space	Key.space	n/a
257.196	0.0745	514392	keystroke_a	a	n/a
257.3455	0.151	514691	keystroke_r	r	n/a
257.421	0.106	514842	keystroke_e	e	n/a
258.253	0.0605	516506	keystroke_'	'	n/a
259.7805	0.0905	519561	keystroke_n	n	n/a
259.886	0.0755	519772	keystroke_t	t	n/a
260.1585	0.106	520317	keystroke_Key.enter	Key.enter	n/a
260.2695	7.1525	520539	prompt	n/a	legends delete espn albert\n
261.1115	0.06	522223	keystroke_l	l	n/a
261.217	0.03	522434	keystroke_e	e	n/a
261.277	0.1215	522554	keystroke_g	g	n/a
261.3225	0.061	522645	keystroke_e	e	n/a
262.018	0.0905	524036	keystroke_n	n	n/a
262.1685	0.182	524337	keystroke_d	d	n/a
262.2605	0.1205	524521	keystroke_s	s	n/a
262.366	0.075	524732	keystroke_Key.space	Key.space	n/a
262.9405	0.1215	525881	keystroke_d	d	n/a
263.1375	0.1205	526275	keystroke_e	e	n/a
263.3035	0.1055	526607	keystroke_l	l	n/a
263.531	0.1205	527062	keystroke_e	e	n/a
263.6665	0.135	527333	keystroke_t	t	n/a
263.9835	0.1205	527967	keystroke_e	e	n/a
264.24	0.091	528480	keystroke_Key.space	Key.space	n/a
264.9625	0.1205	529925	keystroke_e	e	n/a
265.038	0.1205	530076	keystroke_s	s	n/a
265.1435	0.118	530287	keystroke_p	p	n/a
265.412	0.1055	530824	keystroke_n	n	n/a
265.5325	0.1175	531065	keystroke_Key.space	Key.space	n/a
266.4015	0.1335	532803	keystroke_a	a	n/a
266.5195	0.0905	533039	keystroke_l	l	n/a
266.761	0.09	533522	keystroke_b	b	n/a
266.9845	0.1205	533969	keystroke_e	e	n/a
267.0295	0.1055	534059	keystroke_r	r	n/a
267.2255	0.0755	534451	keystroke_t	t	n/a
267.316	0.1035	534632	keystroke_Key.enter	Key.enter	n/a
267.4245	7.788	534849	prompt	n/a	quantity solutions tablet dress\n
268.589	0.104	537178	keystroke_q	q	n/a
268.723	0.0905	537446	keystroke_u	u	n/a
268.889	0.12	537778	keystroke_a	a	n/a
268.9945	0.103	537989	keystroke_n	n	n/a
269.218	0.1205	538436	keystroke_t	t	n/a
269.7735	0.0895	539547	keystroke_i	i	n/a
269.922	0.1655	539844	keystroke_t	t	n/a
270.0275	0.1055	540055	keystroke_y	y	n/a
270.3565	0.1055	540713	keystroke_Key.space	Key.space	n/a
270.7305	0.1205	541461	keystroke_s	s	n/a
270.836	0.0905	541672	keystroke_o	o	n/a
271.0015	0.1355	542003	keystroke_l	l	n/a
271.5115	0.088	543023	keystroke_u	u	n/a
272.305	0.0755	544610	keystroke_t	t	n/a
272.3945	0.074	544789	keystroke_i	i	n/a
272.4235	0.0905	544847	keystroke_o	o	n/a
272.619	0.0755	545238	keystroke_n	n	n/a
272.7245	0.1185	545449	keystroke_s	s	n/a
272.828	0.1055	545656	keystroke_Key.space	Key.space	n/a
273.2475	0.091	546495	keystroke_t	t	n/a
273.3235	0.09	546647	keystroke_a	a	n/a
273.549	0.0905	547098	keystroke_b	b	n/a
273.696	0.091	547392	keystroke_l	l	n/a
273.817	0.1355	547634	keystroke_e	e	n/a
273.9375	0.0905	547875	keystroke_t	t	n/a
274.058	0.1335	548116	keystroke_Key.space	Key.space	n/a
274.327	0.12	548654	keystroke_d	d	n/a
274.5955	0.1355	549191	keystroke_r	r	n/a
274.671	0.1055	549342	keystroke_e	e	n/a
274.8815	0.0455	549763	keystroke_s	s	n/a
274.9855	0.1505	549971	keystroke_s	s	n/a
275.121	0.09	550242	keystroke_Key.enter	Key.enter	n/a
275.2175	7.6655	550435	prompt	n/a	level minneapolis canal sync\n
275.914	0.0915	551828	keystroke_l	l	n/a
275.9895	0.1055	551979	keystroke_e	e	n/a
276.364	0.105	552728	keystroke_v	v	n/a
276.424	0.1205	552848	keystroke_e	e	n/a
276.5895	0.1035	553179	keystroke_l	l	n/a
276.7085	0.09	553417	keystroke_Key.space	Key.space	n/a
277.0845	0.1335	554169	keystroke_m	m	n/a
277.562	0.1205	555124	keystroke_i	i	n/a
277.6525	0.1205	555305	keystroke_n	n	n/a
277.938	0.0745	555876	keystroke_n	n	n/a
278.238	0.1205	556476	keystroke_e	e	n/a
278.4315	0.12	556863	keystroke_a	a	n/a
278.657	0.1935	557314	keystroke_p	p	n/a
278.8355	0.1355	557671	keystroke_o	o	n/a
279.3005	0.1055	558601	keystroke_l	l	n/a
279.586	0.058	559172	keystroke_i	i	n/a
279.719	0.0755	559438	keystroke_s	s	n/a
279.8395	0.09	559679	keystroke_Key.space	Key.space	n/a
280.455	0.1485	560910	keystroke_c	c	n/a
280.5585	0.1055	561117	keystroke_a	a	n/a
280.709	0.1205	561418	keystroke_n	n	n/a
280.8445	0.075	561689	keystroke_a	a	n/a
280.948	0.1055	561896	keystroke_Key.space	Key.space	n/a
281.458	0.0745	562916	keystroke_s	s	n/a
281.744	0.058	563488	keystroke_y	y	n/a
281.922	0.0905	563844	keystroke_n	n	n/a
282.0425	0.075	564085	keystroke_v	v	n/a
282.432	0.09	564864	keystroke_Key.backspace	Key.backspace	n/a
282.5825	0.0585	565165	keystroke_c	c	n/a
282.7915	0.09	565583	keystroke_Key.enter	Key.enter	n/a
282.8855	5.958	565771	prompt	n/a	reform moss moments pest\n
284.004	0.1205	568008	keystroke_r	r	n/a
284.064	0.0755	568128	keystroke_e	e	n/a
284.2145	0.0905	568429	keystroke_f	f	n/a
284.29	0.088	568580	keystroke_o	o	n/a
284.393	0.1055	568786	keystroke_r	r	n/a
284.4995	0.074	568999	keystroke_m	m	n/a
284.6785	0.089	569357	keystroke_Key.space	Key.space	n/a
284.888	0.105	569776	keystroke_m	m	n/a
285.0085	0.075	570017	keystroke_o	o	n/a
285.1135	0.2235	570227	keystroke_s	s	n/a
285.4275	0.045	570855	keystroke_s	s	n/a
285.967	0.0445	571934	keystroke_Key.backspace	Key.backspace	n/a
286.3265	0.1045	572653	keystroke_s	s	n/a
286.505	0.1055	573010	keystroke_Key.space	Key.space	n/a
286.7005	0.106	573401	keystroke_m	m	n/a
286.791	0.104	573582	keystroke_o	o	n/a
286.94	0.09	573880	keystroke_m	m	n/a
287.4335	0.105	574867	keystroke_e	e	n/a
287.5685	0.1055	575137	keystroke_n	n	n/a
287.689	0.043	575378	keystroke_t	t	n/a
287.8825	0.1055	575765	keystroke_s	s	n/a
287.958	0.09	575916	keystroke_Key.space	Key.space	n/a
288.198	0.03	576396	keystroke_p	p	n/a
288.3035	0.105	576607	keystroke_e	e	n/a
288.4835	0.059	576967	keystroke_s	s	n/a
288.602	0.0745	577204	keystroke_t	t	n/a
288.7965	0.0455	577593	keystroke_Key.enter	Key.enter	n/a
288.85	12.304	577700	prompt	n/a	visit temporarily illustrations geographic\n
290.2935	0.075	580587	keystroke_v	v	n/a
290.3835	0.0755	580767	keystroke_i	i	n/a
290.489	0.09	580978	keystroke_s	s	n/a
290.58	0.103	581160	keystroke_i	i	n/a
290.788	0.0905	581576	keystroke_t	t	n/a
290.9085	0.135	581817	keystroke_Key.space	Key.space	n/a
291.1325	0.1355	582265	keystroke_t	t	n/a
291.223	0.105	582446	keystroke_e	e	n/a
291.343	0.075	582686	keystroke_m	m	n/a
291.537	0.09	583074	keystroke_p	p	n/a
291.7325	0.12	583465	keystroke_o	o	n/a
291.8675	0.134	583735	keystroke_r	r	n/a
291.956	0.0905	583912	keystroke_t	t	n/a
293.26	0.105	586520	keystroke_Key.backspace	Key.backspace	n/a
293.4855	0.09	586971	keystroke_a	a	n/a
294.1435	0.09	588287	keystroke_r	r	n/a
294.2935	0.0905	588587	keystroke_i	i	n/a
294.4875	0.09	588975	keystroke_l	l	n/a
294.623	0.09	589246	keystroke_y	y	n/a
294.758	0.105	589516	keystroke_Key.space	Key.space	n/a
295.072	0.075	590144	keystroke_i	i	n/a
295.3105	0.1805	590621	keystroke_l	l	n/a
296.5255	0.1035	593051	keystroke_l	l	n/a
296.7645	0.06	593529	keystroke_u	u	n/a
296.93	0.072	593860	keystroke_s	s	n/a
297.137	0.1665	594274	keystroke_t	t	n/a
297.1975	0.12	594395	keystroke_r	r	n/a
297.4075	0.1205	594815	keystroke_a	a	n/a
297.483	0.1045	594966	keystroke_t	t	n/a
297.6175	0.0905	595235	keystroke_i	i	n/a
297.6475	0.1355	595295	keystroke_o	o	n/a
297.8275	0.09	595655	keystroke_n	n	n/a
297.9325	0.12	595865	keystroke_s	s	n/a
298.0525	0.1205	596105	keystroke_Key.space	Key.space	n/a
298.861	0.075	597722	keystroke_g	g	n/a
299.0115	0.0885	598023	keystroke_e	e	n/a
299.145	0.105	598290	keystroke_o	o	n/a
299.4	0.1645	598800	keystroke_g	g	n/a
299.4755	0.119	598951	keystroke_r	r	n/a
299.76	0.0895	599520	keystroke_a	a	n/a
299.9985	0.105	599997	keystroke_p	p	n/a
300.4325	0.1505	600865	keystroke_h	h	n/a
300.523	0.075	601046	keystroke_i	i	n/a
300.688	0.1335	601376	keystroke_c	c	n/a
301.047	0.105	602094	keystroke_Key.enter	Key.enter	n/a
301.165	10.741	602330	prompt	n/a	samba oecd buffalo facilities\n
302.1855	0.105	604371	keystroke_s	s	n/a
302.3805	0.06	604761	keystroke_m	m	n/a
302.4715	0.103	604943	keystroke_a	a	n/a
302.6045	0.12	605209	keystroke_b	b	n/a
302.7395	0.0905	605479	keystroke_a	a	n/a
302.845	0.059	605690	keystroke_Key.space	Key.space	n/a
303.443	0.06	606886	keystroke_Key.backspace	Key.backspace	n/a
303.578	0.075	607156	keystroke_Key.backspace	Key.backspace	n/a
303.728	0.0595	607456	keystroke_Key.backspace	Key.backspace	n/a
303.8775	0.045	607755	keystroke_Key.backspace	Key.backspace	n/a
304.0125	0.06	608025	keystroke_Key.backspace	Key.backspace	n/a
304.537	0.1035	609074	keystroke_a	a	n/a
304.6555	0.075	609311	keystroke_m	m	n/a
304.8655	0.075	609731	keystroke_b	b	n/a
304.9255	0.1045	609851	keystroke_a	a	n/a
305.045	0.09	610090	keystroke_Key.space	Key.space	n/a
306.4535	0.06	612907	keystroke_o	o	n/a
306.5585	0.09	613117	keystroke_e	e	n/a
307.547	0.059	615094	keystroke_c	c	n/a
307.9805	0.074	615961	keystroke_d	d	n/a
308.0695	0.0905	616139	keystroke_Key.space	Key.space	n/a
308.5785	0.0905	617157	keystroke_b	b	n/a
308.714	0.075	617428	keystroke_u	u	n/a
308.9385	0.031	617877	keystroke_f	f	n/a
309.06	0.059	618120	keystroke_f	f	n/a
309.224	0.075	618448	keystroke_a	a	n/a
309.344	0.0895	618688	keystroke_l	l	n/a
309.523	0.105	619046	keystroke_o	o	n/a
309.643	0.06	619286	keystroke_Key.space	Key.space	n/a
310.2275	0.105	620455	keystroke_f	f	n/a
310.3175	0.18	620635	keystroke_a	a	n/a
310.4375	0.104	620875	keystroke_c	c	n/a
310.601	0.075	621202	keystroke_i	i	n/a
310.811	0.045	621622	keystroke_l	l	n/a
310.961	0.074	621922	keystroke_i	i	n/a
311.0505	0.09	622101	keystroke_t	t	n/a
311.1555	0.105	622311	keystroke_i	i	n/a
311.2755	0.075	622551	keystroke_e	e	n/a
311.44	0.12	622880	keystroke_s	s	n/a
311.7855	0.119	623571	keystroke_Key.enter	Key.enter	n/a
311.91	7.559	623820	prompt	n/a	mario provided exports intel\n
312.728	0.12	625456	keystroke_m	m	n/a
312.818	0.09	625636	keystroke_a	a	n/a
312.938	0.075	625876	keystroke_r	r	n/a
313.1165	0.0895	626233	keystroke_i	i	n/a
313.176	0.09	626352	keystroke_o	o	n/a
313.3265	0.0895	626653	keystroke_Key.space	Key.space	n/a
313.7015	0.1045	627403	keystroke_p	p	n/a
313.821	0.075	627642	keystroke_r	r	n/a
313.9265	0.089	627853	keystroke_o	o	n/a
314.0455	0.12	628091	keystroke_v	v	n/a
314.1505	0.0755	628301	keystroke_i	i	n/a
314.286	0.09	628572	keystroke_d	d	n/a
314.45	0.09	628900	keystroke_e	e	n/a
314.6005	0.105	629201	keystroke_d	d	n/a
314.7065	0.118	629413	keystroke_Key.space	Key.space	n/a
314.96	0.105	629920	keystroke_e	e	n/a
315.185	0.074	630370	keystroke_z	z	n/a
315.304	0.2105	630608	keystroke_p	p	n/a
315.4695	0.105	630939	keystroke_o	o	n/a
316.1125	0.06	632225	keystroke_Key.backspace	Key.backspace	n/a
316.2775	0.06	632555	keystroke_Key.backspace	Key.backspace	n/a
316.4125	0.0455	632825	keystroke_Key.backspace	Key.backspace	n/a
317.146	0.06	634292	keystroke_x	x	n/a
317.386	0.12	634772	keystroke_p	p	n/a
317.521	0.105	635042	keystroke_o	o	n/a
317.686	0.134	635372	keystroke_r	r	n/a
317.791	0.074	635582	keystroke_t	t	n/a
318	0.1205	636000	keystroke_s	s	n/a
318.1355	0.1335	636271	keystroke_Key.space	Key.space	n/a
318.7785	0.15	637557	keystroke_i	i	n/a
318.8385	0.105	637677	keystroke_n	n	n/a
318.9135	0.1045	637827	keystroke_t	t	n/a
319.033	0.0895	638066	keystroke_e	e	n/a
319.137	0.12	638274	keystroke_l	l	n/a
319.3925	0.075	638785	keystroke_Key.enter	Key.enter	n/a
319.4735	7.588	638947	prompt	n/a	turner dynamic composer goat\n
320.5	0.0755	641000	keystroke_t	t	n/a
320.59	0.075	641180	keystroke_u	u	n/a
320.874	0.105	641748	keystroke_r	r	n/a
321.024	0.075	642048	keystroke_n	n	n/a
321.129	0.12	642258	keystroke_e	e	n/a
321.204	0.09	642408	keystroke_r	r	n/a
321.309	0.1045	642618	keystroke_Key.space	Key.space	n/a
322.0425	0.091	644085	keystroke_d	d	n/a
322.1335	0.09	644267	keystroke_y	y	n/a
322.3425	0.09	644685	keystroke_n	n	n/a
322.4475	0.0885	644895	keystroke_a	a	n/a
322.551	0.075	645102	keystroke_m	m	n/a
322.7315	0.09	645463	keystroke_i	i	n/a
322.8665	0.104	645733	keystroke_c	c	n/a
322.9855	0.09	645971	keystroke_Key.space	Key.space	n/a
323.4805	0.105	646961	keystroke_x	x	n/a
323.7055	0.074	647411	keystroke_o	o	n/a
324.0945	0.06	648189	keystroke_Key.backspace	Key.backspace	n/a
324.214	0.06	648428	keystroke_Key.backspace	Key.backspace	n/a
324.7385	0.06	649477	keystroke_c	c	n/a
324.7835	0.135	649567	keystroke_o	o	n/a
324.8735	0.105	649747	keystroke_m	m	n/a
325.0235	0.1045	650047	keystroke_p	p	n/a
325.3825	0.06	650765	keystroke_o	o	n/a
325.4725	0.1045	650945	keystroke_s	s	n/a
325.7575	0.135	651515	keystroke_e	e	n/a
325.8475	0.0895	651695	keystroke_r	r	n/a
326.0715	0.09	652143	keystroke_Key.space	Key.space	n/a
326.5355	0.09	653071	keystroke_g	g	n/a
326.6105	0.12	653221	keystroke_o	o	n/a
326.7155	0.134	653431	keystroke_a	a	n/a
326.8355	0.089	653671	keystroke_t	t	n/a
326.9695	0.09	653939	keystroke_Key.enter	Key.enter	n/a
327.0675	9.6985	654135	prompt	n/a	testing billing wagon manufacturers\n
327.943	0.1195	655886	keystroke_t	t	n/a
328.003	0.075	656006	keystroke_e	e	n/a
328.1975	0.18	656395	keystroke_s	s	n/a
328.3175	0.105	656635	keystroke_t	t	n/a
328.482	0.135	656964	keystroke_i	i	n/a
328.572	0.09	657144	keystroke_n	n	n/a
328.632	0.105	657264	keystroke_g	g	n/a
328.767	0.1195	657534	keystroke_Key.space	Key.space	n/a
329.4255	0.06	658851	keystroke_b	b	n/a
329.5005	0.12	659001	keystroke_i	i	n/a
329.7405	0.045	659481	keystroke_l	l	n/a
329.9505	0.015	659901	keystroke_l	l	n/a
330.0855	0.119	660171	keystroke_i	i	n/a
330.1595	0.03	660319	keystroke_n	n	n/a
330.1895	0.075	660379	keystroke_g	g	n/a
330.294	0.105	660588	keystroke_Key.space	Key.space	n/a
330.6385	0.105	661277	keystroke_w	w	n/a
330.8485	0.09	661697	keystroke_a	a	n/a
331.0425	0.0905	662085	keystroke_g	g	n/a
331.1625	0.15	662325	keystroke_o	o	n/a
331.2675	0.12	662535	keystroke_n	n	n/a
331.3725	0.089	662745	keystroke_Key.space	Key.space	n/a
331.762	0.075	663524	keystroke_m	m	n/a
331.852	0.075	663704	keystroke_a	a	n/a
331.972	0.0595	663944	keystroke_n	n	n/a
332.1515	0.0755	664303	keystroke_u	u	n/a
332.51	0.03	665020	keystroke_f	f	n/a
332.8545	0.135	665709	keystroke_a	a	n/a
332.9455	0.134	665891	keystroke_c	c	n/a
333.199	0.091	666398	keystroke_t	t	n/a
333.559	0.09	667118	keystroke_u	u	n/a
333.904	0.119	667808	keystroke_r	r	n/a
333.9785	0.059	667957	keystroke_e	e	n/a
334.143	0.104	668286	keystroke_s	s	n/a
334.907	0.06	669814	keystroke_Key.backspace	Key.backspace	n/a
335.986	0.075	671972	keystroke_r	r	n/a
336.285	0.09	672570	keystroke_s	s	n/a
336.6295	0.135	673259	keystroke_Key.enter	Key.enter	n/a
336.7685	9.8965	673537	prompt	n/a	multimedia styles produced reveal\n
337.588	0.075	675176	keystroke_m	m	n/a
337.798	0.0895	675596	keystroke_u	u	n/a
338.053	0.09	676106	keystroke_l	l	n/a
338.2325	0.0895	676465	keystroke_t	t	n/a
338.382	0.06	676764	keystroke_i	i	n/a
338.622	0.03	677244	keystroke_m	m	n/a
338.682	0.134	677364	keystroke_e	e	n/a
339.011	0.1195	678022	keystroke_d	d	n/a
339.1755	0.1195	678351	keystroke_i	i	n/a
339.31	0.12	678620	keystroke_a	a	n/a
339.46	0.12	678920	keystroke_Key.space	Key.space	n/a
339.9095	0.0895	679819	keystroke_s	s	n/a
340.149	0.091	680298	keystroke_t	t	n/a
340.3585	0.0895	680717	keystroke_y	y	n/a
340.478	0.09	680956	keystroke_l	l	n/a
340.583	0.0605	681166	keystroke_e	e	n/a
340.7485	0.104	681497	keystroke_s	s	n/a
340.8235	0.074	681647	keystroke_Key.space	Key.space	n/a
341.0325	0.06	682065	keystroke_p	p	n/a
341.1225	0.0905	682245	keystroke_r	r	n/a
341.722	0.09	683444	keystroke_Key.backspace	Key.backspace	n/a
342.201	0.105	684402	keystroke_p	p	n/a
342.321	0.045	684642	keystroke_r	r	n/a
342.62	0.045	685240	keystroke_Key.backspace	Key.backspace	n/a
342.7545	0.075	685509	keystroke_Key.backspace	Key.backspace	n/a
343.7735	0.0595	687547	keystroke_r	r	n/a
343.893	0.09	687786	keystroke_o	o	n/a
344.133	0.09	688266	keystroke_d	d	n/a
344.357	0.0745	688714	keystroke_u	u	n/a
344.4465	0.09	688893	keystroke_c	c	n/a
344.626	0.075	689252	keystroke_e	e	n/a
344.806	0.075	689612	keystroke_d	d	n/a
345.465	0.1045	690930	keystroke_Key.space	Key.space	n/a
345.7045	0.09	691409	keystroke_r	r	n/a
345.7645	0.09	691529	keystroke_e	e	n/a
345.9895	0.12	691979	keystroke_v	v	n/a
346.0495	0.105	692099	keystroke_e	e	n/a
346.2745	0.0745	692549	keystroke_a	a	n/a
346.379	0.09	692758	keystroke_l	l	n/a
346.574	0.0895	693148	keystroke_Key.enter	Key.enter	n/a
346.6695	5.641	693339	prompt	n/a	random hughes chess defend\n
347.457	0.075	694914	keystroke_r	r	n/a
347.547	0.119	695094	keystroke_a	a	n/a
347.651	0.0895	695302	keystroke_n	n	n/a
347.7555	0.045	695511	keystroke_d	d	n/a
347.8755	0.15	695751	keystroke_o	o	n/a
347.9805	0.09	695961	keystroke_m	m	n/a
348.0405	0.105	696081	keystroke_Key.space	Key.space	n/a
348.4155	0.09	696831	keystroke_h	h	n/a
348.49	0.0605	696980	keystroke_u	u	n/a
348.5805	0.09	697161	keystroke_g	g	n/a
348.6855	0.0595	697371	keystroke_h	h	n/a
349.389	0.075	698778	keystroke_e	e	n/a
349.554	0.1055	699108	keystroke_s	s	n/a
349.6595	0.104	699319	keystroke_Key.space	Key.space	n/a
349.883	0.105	699766	keystroke_c	c	n/a
349.973	0.09	699946	keystroke_h	h	n/a
350.078	0.06	700156	keystroke_e	e	n/a
350.242	0.045	700484	keystroke_s	s	n/a
350.362	0.105	700724	keystroke_s	s	n/a
350.482	0.1045	700964	keystroke_Key.space	Key.space	n/a
350.6615	0.135	701323	keystroke_d	d	n/a
350.9165	0.1045	701833	keystroke_e	e	n/a
350.9915	0.1495	701983	keystroke_f	f	n/a
351.096	0.105	702192	keystroke_e	e	n/a
351.216	0.09	702432	keystroke_n	n	n/a
351.321	0.1045	702642	keystroke_d	d	n/a
352.219	0.09	704438	keystroke_Key.enter	Key.enter	n/a
352.3125	11.4395	704625	prompt	n/a	worked reviewing tunisia edgar\n
353.0585	0.1045	706117	keystroke_w	w	n/a
353.2075	0.105	706415	keystroke_o	o	n/a
353.2975	0.09	706595	keystroke_r	r	n/a
353.4475	0.1045	706895	keystroke_k	k	n/a
353.5375	0.0745	707075	keystroke_e	e	n/a
353.672	0.1195	707344	keystroke_d	d	n/a
353.7765	0.105	707553	keystroke_Key.space	Key.space	n/a
354.226	0.075	708452	keystroke_r	r	n/a
354.256	0.105	708512	keystroke_e	e	n/a
354.5105	0.105	709021	keystroke_v	v	n/a
354.9295	0.075	709859	keystroke_e	e	n/a
355.214	0.105	710428	keystroke_i	i	n/a
355.379	0.1045	710758	keystroke_w	w	n/a
355.529	0.134	711058	keystroke_i	i	n/a
355.6185	0.0745	711237	keystroke_n	n	n/a
355.6495	0.1035	711299	keystroke_g	g	n/a
355.813	0.105	711626	keystroke_Key.space	Key.space	n/a
356.5915	0.06	713183	keystroke_Key.backspace	Key.backspace	n/a
356.727	0.075	713454	keystroke_Key.backspace	Key.backspace	n/a
356.8465	0.209	713693	keystroke_Key.backspace	Key.backspace	n/a
357.1305	0.075	714261	keystroke_Key.backspace	Key.backspace	n/a
357.2655	0.06	714531	keystroke_Key.backspace	Key.backspace	n/a
357.4005	0.075	714801	keystroke_Key.backspace	Key.backspace	n/a
357.55	0.09	715100	keystroke_Key.backspace	Key.backspace	n/a
358.239	0.045	716478	keystroke_i	i	n/a
358.4485	0.015	716897	keystroke_e	e	n/a
359.393	0.0745	718786	keystroke_w	w	n/a
360.201	0.1195	720402	keystroke_i	i	n/a
360.261	0.0745	720522	keystroke_n	n	n/a
360.306	0.0895	720612	keystroke_g	g	n/a
360.4255	0.105	720851	keystroke_Key.space	Key.space	n/a
361.19	0.045	722380	keystroke_t	t	n/a
361.28	0.1195	722560	keystroke_u	u	n/a
361.3545	0.09	722709	keystroke_n	n	n/a
361.579	0.0905	723158	keystroke_i	i	n/a
361.9985	0.1045	723997	keystroke_s	s	n/a
362.1175	0.0905	724235	keystroke_i	i	n/a
362.238	0.135	724476	keystroke_a	a	n/a
362.388	0.075	724776	keystroke_Key.space	Key.space	n/a
362.673	0.09	725346	keystroke_e	e	n/a
362.852	0.12	725704	keystroke_d	d	n/a
363.1665	0.1195	726333	keystroke_g	g	n/a
363.346	0.134	726692	keystroke_a	a	n/a
363.4505	0.12	726901	keystroke_r	r	n/a
363.6605	0.0895	727321	keystroke_Key.enter	Key.enter	n/a
363.7545	12.624	727509	prompt	n/a	jeep february apnic exceptional\n
365.054	0.045	730108	keystroke_j	j	n/a
365.159	0.105	730318	keystroke_e	e	n/a
365.324	0.1045	730648	keystroke_e	e	n/a
365.4585	0.0895	730917	keystroke_p	p	n/a
365.578	0.1045	731156	keystroke_Key.space	Key.space	n/a
366.1175	0.134	732235	keystroke_f	f	n/a
366.3565	0.105	732713	keystroke_e	e	n/a
366.5365	0.1045	733073	keystroke_b	b	n/a
366.7455	0.0895	733491	keystroke_r	r	n/a
366.97	0.105	733940	keystroke_u	u	n/a
367.12	0.165	734240	keystroke_a	a	n/a
367.286	0.1185	734572	keystroke_r	r	n/a
367.885	0.0745	735770	keystroke_y	y	n/a
368.0185	0.105	736037	keystroke_Key.space	Key.space	n/a
368.528	0.076	737056	keystroke_Key.backspace	Key.backspace	n/a
368.678	0.0605	737356	keystroke_Key.backspace	Key.backspace	n/a
368.8285	0.0595	737657	keystroke_Key.backspace	Key.backspace	n/a
368.993	0.03	737986	keystroke_Key.backspace	Key.backspace	n/a
369.098	0.06	738196	keystroke_Key.backspace	Key.backspace	n/a
369.2325	0.0595	738465	keystroke_Key.backspace	Key.backspace	n/a
370.7605	0.09	741521	keystroke_r	r	n/a
370.8655	0.075	741731	keystroke_u	u	n/a
370.9705	0.165	741941	keystroke_a	a	n/a
371.0755	0.135	742151	keystroke_r	r	n/a
371.4195	0.045	742839	keystroke_y	y	n/a
371.524	0.12	743048	keystroke_Key.space	Key.space	n/a
372.1385	0.105	744277	keystroke_a	a	n/a
372.348	0.105	744696	keystroke_p	p	n/a
372.483	0.075	744966	keystroke_r	r	n/a
373.4265	0.0895	746853	keystroke_Key.backspace	Key.backspace	n/a
374.206	0.12	748412	keystroke_n	n	n/a
374.266	0.104	748532	keystroke_i	i	n/a
374.385	0.075	748770	keystroke_c	c	n/a
374.475	0.09	748950	keystroke_Key.space	Key.space	n/a
374.8795	0.075	749759	keystroke_e	e	n/a
375.1045	0.105	750209	keystroke_x	x	n/a
375.329	0.09	750658	keystroke_c	c	n/a
375.373	0.135	750746	keystroke_e	e	n/a
375.494	0.075	750988	keystroke_p	p	n/a
375.6135	0.074	751227	keystroke_t	t	n/a
375.7175	0.105	751435	keystroke_i	i	n/a
375.7775	0.075	751555	keystroke_o	o	n/a
375.9125	0.119	751825	keystroke_n	n	n/a
376.0025	0.074	752005	keystroke_a	a	n/a
376.0925	0.089	752185	keystroke_l	l	n/a
376.3015	0.0745	752603	keystroke_Key.enter	Key.enter	n/a
376.39	7.343	752780	prompt	n/a	rocky programming basename fool\n
377.2005	0.06	754401	keystroke_r	r	n/a
377.2755	0.105	754551	keystroke_o	o	n/a
377.4555	0.105	754911	keystroke_c	c	n/a
377.5455	0.1195	755091	keystroke_k	k	n/a
377.7245	0.105	755449	keystroke_y	y	n/a
377.8745	0.12	755749	keystroke_Key.space	Key.space	n/a
378.459	0.09	756918	keystroke_p	p	n/a
378.8635	0.09	757727	keystroke_r	r	n/a
378.9835	0.0895	757967	keystroke_o	o	n/a
379.118	0.1345	758236	keystroke_g	g	n/a
379.1925	0.105	758385	keystroke_r	r	n/a
379.447	0.075	758894	keystroke_a	a	n/a
379.552	0.0755	759104	keystroke_m	m	n/a
379.6875	0.0595	759375	keystroke_m	m	n/a
379.942	0.1045	759884	keystroke_i	i	n/a
380.0015	0.075	760003	keystroke_n	n	n/a
380.0315	0.09	760063	keystroke_g	g	n/a
380.1815	0.105	760363	keystroke_Key.space	Key.space	n/a
380.586	0.135	761172	keystroke_b	b	n/a
380.706	0.165	761412	keystroke_a	a	n/a
380.781	0.1045	761562	keystroke_s	s	n/a
381.0205	0.12	762041	keystroke_e	e	n/a
381.4845	0.12	762969	keystroke_n	n	n/a
381.6195	0.135	763239	keystroke_a	a	n/a
381.7095	0.09	763419	keystroke_m	m	n/a
381.8145	0.1045	763629	keystroke_e	e	n/a
381.889	0.12	763778	keystroke_Key.space	Key.space	n/a
382.3085	0.06	764617	keystroke_f	f	n/a
382.3985	0.075	764797	keystroke_o	o	n/a
382.5635	0.0895	765127	keystroke_o	o	n/a
382.773	0.12	765546	keystroke_l	l	n/a
383.597	0.134	767194	keystroke_Key.enter	Key.enter	n/a
383.7355	16.042	767471	prompt	n/a	stays monica mixed explained\n
384.466	0.104	768932	keystroke_s	s	n/a
384.6755	0.09	769351	keystroke_t	t	n/a
384.8245	0.12	769649	keystroke_a	a	n/a
384.9295	0.1045	769859	keystroke_y	y	n/a
385.169	0.135	770338	keystroke_s	s	n/a
385.289	0.105	770578	keystroke_Key.space	Key.space	n/a
385.6485	0.075	771297	keystroke_m	m	n/a
385.7385	0.1345	771477	keystroke_o	o	n/a
385.843	0.12	771686	keystroke_n	n	n/a
385.993	0.105	771986	keystroke_i	i	n/a
386.2175	0.135	772435	keystroke_c	c	n/a
386.2775	0.105	772555	keystroke_a	a	n/a
386.4275	0.0595	772855	keystroke_Key.space	Key.space	n/a
386.577	0.0895	773154	keystroke_m	m	n/a
386.7115	0.105	773423	keystroke_i	i	n/a
386.9965	0.0895	773993	keystroke_x	x	n/a
387.221	0.06	774442	keystroke_r	r	n/a
387.401	0.12	774802	keystroke_d	d	n/a
387.506	0.12	775012	keystroke_Key.space	Key.space	n/a
387.9405	0.0595	775881	keystroke_r	r	n/a
388.165	0.105	776330	keystroke_x	x	n/a
388.255	0.1495	776510	keystroke_p	p	n/a
388.315	0.1195	776630	keystroke_l	l	n/a
388.4505	0.074	776901	keystroke_a	a	n/a
388.6005	0.1335	777201	keystroke_i	i	n/a
388.6895	0.1345	777379	keystroke_n	n	n/a
388.794	0.045	777588	keystroke_r	r	n/a
388.914	0.0895	777828	keystroke_d	d	n/a
389.753	0.09	779506	keystroke_Key.backspace	Key.backspace	n/a
389.918	0.075	779836	keystroke_Key.backspace	Key.backspace	n/a
390.0525	0.09	780105	keystroke_Key.backspace	Key.backspace	n/a
390.1875	0.06	780375	keystroke_Key.backspace	Key.backspace	n/a
390.307	0.045	780614	keystroke_Key.backspace	Key.backspace	n/a
390.397	0.0595	780794	keystroke_Key.backspace	Key.backspace	n/a
390.5165	0.075	781033	keystroke_Key.backspace	Key.backspace	n/a
390.7415	0.06	781483	keystroke_Key.backspace	Key.backspace	n/a
390.8615	0.0595	781723	keystroke_Key.backspace	Key.backspace	n/a
390.966	0.075	781932	keystroke_Key.backspace	Key.backspace	n/a
391.086	0.15	782172	keystroke_Key.backspace	Key.backspace	n/a
392.824	0.12	785648	keystroke_e	e	n/a
393.0485	0.105	786097	keystroke_d	d	n/a
393.723	0.015	787446	keystroke_Key.backspace	Key.backspace	n/a
393.903	0.03	787806	keystroke_Key.backspace	Key.backspace	n/a
394.0225	0.045	788045	keystroke_Key.backspace	Key.backspace	n/a
394.1875	0.075	788375	keystroke_e	e	n/a
394.3375	0.0745	788675	keystroke_d	d	n/a
394.547	0.075	789094	keystroke_n	n	n/a
395.5065	0.0745	791013	keystroke_Key.backspace	Key.backspace	n/a
396.7345	0.0895	793469	keystroke_Key.space	Key.space	n/a
398.4125	0.075	796825	keystroke_e	e	n/a
398.6525	0.075	797305	keystroke_x	x	n/a
398.832	0.149	797664	keystroke_p	p	n/a
398.8915	0.1045	797783	keystroke_l	l	n/a
399.011	0.105	798022	keystroke_a	a	n/a
399.296	0.0745	798592	keystroke_i	i	n/a
399.3405	0.12	798681	keystroke_n	n	n/a
399.3855	0.075	798771	keystroke_e	e	n/a
399.5205	0.09	799041	keystroke_d	d	n/a
399.6855	0.09	799371	keystroke_Key.enter	Key.enter	n/a
399.7885	8.4385	799577	prompt	n/a	edwards window subsidiary connection\n
400.45	0.075	800900	keystroke_e	e	n/a
400.7795	0.06	801559	keystroke_d	d	n/a
401.034	0.12	802068	keystroke_w	w	n/a
401.1845	0.1045	802369	keystroke_a	a	n/a
401.394	0.06	802788	keystroke_r	r	n/a
401.7085	0.135	803417	keystroke_d	d	n/a
401.8135	0.0745	803627	keystroke_s	s	n/a
401.963	0.105	803926	keystroke_Key.space	Key.space	n/a
402.3525	0.105	804705	keystroke_w	w	n/a
402.5175	0.135	805035	keystroke_i	i	n/a
402.5775	0.105	805155	keystroke_n	n	n/a
402.6375	0.0895	805275	keystroke_d	d	n/a
402.757	0.1355	805514	keystroke_o	o	n/a
402.8625	0.1045	805725	keystroke_w	w	n/a
403.027	0.105	806054	keystroke_Key.space	Key.space	n/a
403.401	0.09	806802	keystroke_s	s	n/a
403.6405	0.135	807281	keystroke_u	u	n/a
403.7005	0.105	807401	keystroke_b	b	n/a
403.8505	0.1045	807701	keystroke_s	s	n/a
403.97	0.105	807940	keystroke_i	i	n/a
404.165	0.0595	808330	keystroke_d	d	n/a
405.3485	0.045	810697	keystroke_i	i	n/a
406.0675	0.105	812135	keystroke_a	a	n/a
406.1575	0.09	812315	keystroke_r	r	n/a
406.427	0.075	812854	keystroke_y	y	n/a
406.547	0.135	813094	keystroke_Key.space	Key.space	n/a
406.9965	0.1205	813993	keystroke_c	c	n/a
407.072	0.105	814144	keystroke_o	o	n/a
407.132	0.075	814264	keystroke_n	n	n/a
407.282	0.1045	814564	keystroke_n	n	n/a
407.3715	0.105	814743	keystroke_e	e	n/a
407.4165	0.09	814833	keystroke_c	c	n/a
407.641	0.06	815282	keystroke_t	t	n/a
407.731	0.06	815462	keystroke_i	i	n/a
407.761	0.105	815522	keystroke_o	o	n/a
407.911	0.0745	815822	keystroke_n	n	n/a
408.1355	0.09	816271	keystroke_Key.enter	Key.enter	n/a
408.2315	7.622	816463	prompt	n/a	annoying indicates booking they'll\n
408.8095	0.075	817619	keystroke_a	a	n/a
408.9145	0.06	817829	keystroke_n	n	n/a
409.0645	0.06	818129	keystroke_n	n	n/a
409.1995	0.03	818399	keystroke_o	o	n/a
409.364	0.075	818728	keystroke_y	y	n/a
409.499	0.1355	818998	keystroke_i	i	n/a
409.5745	0.075	819149	keystroke_n	n	n/a
409.6195	0.09	819239	keystroke_g	g	n/a
409.7395	0.1035	819479	keystroke_Key.space	Key.space	n/a
410.308	0.09	820616	keystroke_i	i	n/a
410.338	0.105	820676	keystroke_n	n	n/a
410.458	0.09	820916	keystroke_d	d	n/a
410.563	0.135	821126	keystroke_i	i	n/a
410.7125	0.09	821425	keystroke_c	c	n/a
410.7725	0.075	821545	keystroke_a	a	n/a
410.9675	0.0895	821935	keystroke_t	t	n/a
411.042	0.075	822084	keystroke_e	e	n/a
411.2065	0.0895	822413	keystroke_s	s	n/a
411.326	0.12	822652	keystroke_Key.space	Key.space	n/a
411.8665	0.06	823733	keystroke_b	b	n/a
411.956	0.075	823912	keystroke_o	o	n/a
412.121	0.135	824242	keystroke_o	o	n/a
412.196	0.18	824392	keystroke_k	k	n/a
412.4955	0.1195	824991	keystroke_i	i	n/a
412.54	0.09	825080	keystroke_n	n	n/a
412.6	0.06	825200	keystroke_g	g	n/a
412.69	0.12	825380	keystroke_Key.space	Key.space	n/a
412.9445	0.105	825889	keystroke_t	t	n/a
412.9895	0.09	825979	keystroke_h	h	n/a
413.274	0.12	826548	keystroke_e	e	n/a
413.5735	0.015	827147	keystroke_y	y	n/a
414.623	0.06	829246	keystroke_'	'	n/a
415.2825	0.045	830565	keystroke_l	l	n/a
415.3875	0.075	830775	keystroke_l	l	n/a
415.776	0.075	831552	keystroke_Key.enter	Key.enter	n/a
415.857	5.944	831714	prompt	n/a	leslie fusion mainstream comes\n
416.8395	0.075	833679	keystroke_l	l	n/a
416.9155	0.134	833831	keystroke_e	e	n/a
416.9905	0.09	833981	keystroke_s	s	n/a
417.0805	0.0885	834161	keystroke_l	l	n/a
417.304	0.075	834608	keystroke_i	i	n/a
417.394	0.09	834788	keystroke_e	e	n/a
417.529	0.12	835058	keystroke_Key.space	Key.space	n/a
418.713	0.06	837426	keystroke_f	f	n/a
418.803	0.09	837606	keystroke_u	u	n/a
418.908	0.1045	837816	keystroke_s	s	n/a
419.028	0.0745	838056	keystroke_i	i	n/a
419.1175	0.1945	838235	keystroke_o	o	n/a
419.297	0.075	838594	keystroke_n	n	n/a
419.387	0.12	838774	keystroke_Key.space	Key.space	n/a
419.522	0.12	839044	keystroke_m	m	n/a
419.672	0.105	839344	keystroke_a	a	n/a
419.807	0.06	839614	keystroke_i	i	n/a
419.837	0.09	839674	keystroke_n	n	n/a
419.912	0.075	839824	keystroke_s	s	n/a
420.1365	0.12	840273	keystroke_t	t	n/a
420.1815	0.105	840363	keystroke_r	r	n/a
420.526	0.105	841052	keystroke_e	e	n/a
420.7505	0.105	841501	keystroke_a	a	n/a
420.8705	0.1045	841741	keystroke_m	m	n/a
420.99	0.06	841980	keystroke_Key.space	Key.space	n/a
421.23	0.0905	842460	keystroke_c	c	n/a
421.3355	0.1195	842671	keystroke_o	o	n/a
421.395	0.075	842790	keystroke_m	m	n/a
421.41	0.075	842820	keystroke_e	e	n/a
421.575	0.09	843150	keystroke_s	s	n/a
421.7245	0.075	843449	keystroke_Key.enter	Key.enter	n/a
421.804	6.305	843608	prompt	n/a	emacs mandate ordinance approval\n
422.624	0.075	845248	keystroke_e	e	n/a
422.744	0.075	845488	keystroke_m	m	n/a
422.834	0.075	845668	keystroke_a	a	n/a
423.1185	0.105	846237	keystroke_c	c	n/a
423.3135	0.105	846627	keystroke_s	s	n/a
423.4335	0.0745	846867	keystroke_Key.space	Key.space	n/a
423.6275	0.075	847255	keystroke_m	m	n/a
423.6875	0.1055	847375	keystroke_a	a	n/a
423.823	0.105	847646	keystroke_n	n	n/a
423.943	0.074	847886	keystroke_d	d	n/a
424.647	0.1045	849294	keystroke_a	a	n/a
424.8565	0.1195	849713	keystroke_t	t	n/a
424.991	0.105	849982	keystroke_e	e	n/a
425.141	0.1045	850282	keystroke_Key.space	Key.space	n/a
425.3805	0.09	850761	keystroke_o	o	n/a
425.4855	0.06	850971	keystroke_r	r	n/a
425.65	0.06	851300	keystroke_d	d	n/a
425.695	0.105	851390	keystroke_i	i	n/a
425.77	0.076	851540	keystroke_n	n	n/a
425.86	0.075	851720	keystroke_a	a	n/a
425.936	0.0885	851872	keystroke_n	n	n/a
426.0395	0.1505	852079	keystroke_c	c	n/a
426.145	0.09	852290	keystroke_e	e	n/a
426.2795	0.12	852559	keystroke_Key.space	Key.space	n/a
426.6845	0.0745	853369	keystroke_a	a	n/a
426.894	0.09	853788	keystroke_p	p	n/a
427.059	0.105	854118	keystroke_p	p	n/a
427.2235	0.09	854447	keystroke_r	r	n/a
427.3285	0.105	854657	keystroke_o	o	n/a
427.554	0.075	855108	keystroke_v	v	n/a
427.659	0.0895	855318	keystroke_a	a	n/a
427.7935	0.0895	855587	keystroke_l	l	n/a
427.898	0.06	855796	keystroke_Key.space	Key.space	n/a
428.033	0.075	856066	keystroke_Key.enter	Key.enter	n/a
428.1125	6.7995	856225	prompt	n/a	simon collapse throat coach\n
428.8565	0.09	857713	keystroke_s	s	n/a
428.9615	0.0905	857923	keystroke_i	i	n/a
429.037	0.075	858074	keystroke_m	m	n/a
429.4565	0.165	858913	keystroke_o	o	n/a
429.5465	0.105	859093	keystroke_n	n	n/a
429.6965	0.09	859393	keystroke_Key.space	Key.space	n/a
430.82	0.0895	861640	keystroke_c	c	n/a
430.8645	0.075	861729	keystroke_o	o	n/a
431.0595	0.03	862119	keystroke_l	l	n/a
431.1645	0.06	862329	keystroke_l	l	n/a
431.2395	0.1195	862479	keystroke_a	a	n/a
431.374	0.09	862748	keystroke_p	p	n/a
431.479	0.075	862958	keystroke_s	s	n/a
431.689	0.075	863378	keystroke_e	e	n/a
431.779	0.12	863558	keystroke_Key.space	Key.space	n/a
432.198	0.105	864396	keystroke_t	t	n/a
432.258	0.105	864516	keystroke_h	h	n/a
432.423	0.12	864846	keystroke_r	r	n/a
432.558	0.1195	865116	keystroke_o	o	n/a
432.7375	0.135	865475	keystroke_a	a	n/a
432.8275	0.0905	865655	keystroke_t	t	n/a
432.933	0.104	865866	keystroke_Key.space	Key.space	n/a
433.143	0.09	866286	keystroke_c	c	n/a
433.248	0.09	866496	keystroke_o	o	n/a
433.922	0.1345	867844	keystroke_a	a	n/a
434.0115	0.12	868023	keystroke_c	c	n/a
434.6705	0.0905	869341	keystroke_h	h	n/a
434.8055	0.105	869611	keystroke_Key.enter	Key.enter	n/a
434.9185	6.1515	869837	prompt	n/a	details merge determine citations\n
435.645	0.1195	871290	keystroke_d	d	n/a
435.8695	0.09	871739	keystroke_e	e	n/a
435.9745	0.09	871949	keystroke_t	t	n/a
436.0945	0.09	872189	keystroke_a	a	n/a
436.1995	0.09	872399	keystroke_i	i	n/a
436.3795	0.09	872759	keystroke_l	l	n/a
436.4545	0.12	872909	keystroke_s	s	n/a
436.5595	0.06	873119	keystroke_Key.space	Key.space	n/a
436.7245	0.1045	873449	keystroke_m	m	n/a
436.814	0.135	873628	keystroke_e	e	n/a
436.889	0.09	873778	keystroke_r	r	n/a
437.1285	0.15	874257	keystroke_g	g	n/a
437.368	0.12	874736	keystroke_e	e	n/a
437.5485	0.1045	875097	keystroke_Key.space	Key.space	n/a
437.953	0.0895	875906	keystroke_d	d	n/a
438.237	0.12	876474	keystroke_e	e	n/a
438.297	0.135	876594	keystroke_t	t	n/a
438.597	0.15	877194	keystroke_e	e	n/a
438.657	0.135	877314	keystroke_r	r	n/a
439.1065	0.0595	878213	keystroke_m	m	n/a
439.316	0.105	878632	keystroke_i	i	n/a
439.346	0.12	878692	keystroke_n	n	n/a
439.451	0.09	878902	keystroke_e	e	n/a
439.556	0.0895	879112	keystroke_Key.space	Key.space	n/a
439.676	0.1045	879352	keystroke_c	c	n/a
439.8405	0.105	879681	keystroke_i	i	n/a
439.9905	0.09	879981	keystroke_t	t	n/a
440.14	0.12	880280	keystroke_a	a	n/a
440.23	0.105	880460	keystroke_t	t	n/a
440.5145	0.12	881029	keystroke_i	i	n/a
440.6045	0.075	881209	keystroke_o	o	n/a
440.7695	0.1195	881539	keystroke_n	n	n/a
440.874	0.075	881748	keystroke_s	s	n/a
440.994	0.075	881988	keystroke_Key.enter	Key.enter	n/a
441.0725	17.727	882145	prompt	n/a	meet kids palestine prerequisite\n
441.773	0.0905	883546	keystroke_m	m	n/a
441.834	0.0895	883668	keystroke_e	e	n/a
441.9835	0.12	883967	keystroke_e	e	n/a
442.1635	0.06	884327	keystroke_t	t	n/a
442.2385	0.1195	884477	keystroke_Key.space	Key.space	n/a
442.418	0.105	884836	keystroke_k	k	n/a
442.628	0.104	885256	keystroke_i	i	n/a
442.673	0.165	885346	keystroke_d	d	n/a
442.763	0.119	885526	keystroke_s	s	n/a
442.852	0.105	885704	keystroke_Key.space	Key.space	n/a
443.212	0.0895	886424	keystroke_a	a	n/a
443.542	0.09	887084	keystroke_Key.backspace	Key.backspace	n/a
443.7965	0.0895	887593	keystroke_p	p	n/a
443.901	0.0915	887802	keystroke_a	a	n/a
444.096	0.105	888192	keystroke_l	l	n/a
444.261	0.0895	888522	keystroke_e	e	n/a
444.6205	0.075	889241	keystroke_s	s	n/a
444.815	0.075	889630	keystroke_t	t	n/a
444.965	0.165	889930	keystroke_i	i	n/a
445.0405	0.104	890081	keystroke_n	n	n/a
445.1595	0.105	890319	keystroke_e	e	n/a
445.2495	0.105	890499	keystroke_Key.space	Key.space	n/a
445.5045	0.1045	891009	keystroke_p	p	n/a
445.8785	0.12	891757	keystroke_r	r	n/a
445.9385	0.09	891877	keystroke_e	e	n/a
446.313	0.15	892626	keystroke_r	r	n/a
446.343	0.165	892686	keystroke_e	e	n/a
446.8085	0.105	893617	keystroke_q	q	n/a
446.8385	0.045	893677	keystroke_w	w	n/a
447.7225	0.105	895445	keystroke_Key.tab	Key.tab	n/a
449.191	0.105	898382	keystroke_Key.backspace	Key.backspace	n/a
449.7005	0.12	899401	keystroke_Key.backspace	Key.backspace	n/a
452.9855	0.057	905971	keystroke_Key.right	Key.right	n/a
453.147	0.045	906294	keystroke_Key.right	Key.right	n/a
453.312	0.06	906624	keystroke_Key.right	Key.right	n/a
453.462	0.09	906924	keystroke_Key.right	Key.right	n/a
453.627	0.06	907254	keystroke_Key.right	Key.right	n/a
453.7615	0.0605	907523	keystroke_Key.right	Key.right	n/a
453.897	0.27	907794	keystroke_Key.right	Key.right	n/a
454.287	0.0445	908574	keystroke_Key.right	Key.right	n/a
454.4215	0.045	908843	keystroke_Key.right	Key.right	n/a
454.5565	0.045	909113	keystroke_Key.right	Key.right	n/a
454.6915	0.06	909383	keystroke_Key.right	Key.right	n/a
455.635	0.06	911270	keystroke_Key.backspace	Key.backspace	n/a
457.388	0.09	914776	keystroke_u	u	n/a
457.448	0.06	914896	keystroke_i	i	n/a
457.599	0.1195	915198	keystroke_s	s	n/a
457.7335	0.09	915467	keystroke_i	i	n/a
457.9285	0.105	915857	keystroke_t	t	n/a
457.9885	0.0895	915977	keystroke_e	e	n/a
458.108	0.105	916216	keystroke_Key.space	Key.space	n/a
458.6775	0.12	917355	keystroke_Key.enter	Key.enter	n/a
458.8105	7.7815	917621	prompt	n/a	interests chemicals television straight\n
459.712	0.1645	919424	keystroke_i	i	n/a
459.8915	0.105	919783	keystroke_t	t	n/a
460.2805	0.06	920561	keystroke_Key.backspace	Key.backspace	n/a
460.745	0.12	921490	keystroke_n	n	n/a
460.881	0.1035	921762	keystroke_t	t	n/a
460.9995	0.1205	921999	keystroke_e	e	n/a
461.0895	0.1795	922179	keystroke_r	r	n/a
461.179	0.105	922358	keystroke_e	e	n/a
461.4045	0.1055	922809	keystroke_s	s	n/a
461.4645	0.1195	922929	keystroke_t	t	n/a
461.644	0.091	923288	keystroke_s	s	n/a
461.7495	0.105	923499	keystroke_Key.space	Key.space	n/a
461.9905	0.1335	923981	keystroke_c	c	n/a
462.1995	0.09	924399	keystroke_h	h	n/a
462.3195	0.0895	924639	keystroke_e	e	n/a
462.439	0.06	924878	keystroke_m	m	n/a
462.619	0.09	925238	keystroke_i	i	n/a
462.679	0.15	925358	keystroke_c	c	n/a
462.799	0.105	925598	keystroke_a	a	n/a
462.949	0.0895	925898	keystroke_l	l	n/a
463.218	0.105	926436	keystroke_s	s	n/a
463.3535	0.105	926707	keystroke_Key.space	Key.space	n/a
463.788	0.105	927576	keystroke_t	t	n/a
463.848	0.075	927696	keystroke_e	e	n/a
463.938	0.1045	927876	keystroke_l	l	n/a
464.0125	0.105	928025	keystroke_e	e	n/a
464.312	0.09	928624	keystroke_v	v	n/a
464.582	0.1195	929164	keystroke_i	i	n/a
464.7465	0.105	929493	keystroke_s	s	n/a
464.8815	0.105	929763	keystroke_i	i	n/a
464.9415	0.1795	929883	keystroke_o	o	n/a
465.106	0.135	930212	keystroke_n	n	n/a
465.226	0.12	930452	keystroke_Key.space	Key.space	n/a
465.541	0.0905	931082	keystroke_s	s	n/a
465.7815	0.1195	931563	keystroke_t	t	n/a
465.8115	0.1045	931623	keystroke_r	r	n/a
466.021	0.1055	932042	keystroke_a	a	n/a
466.0965	0.1045	932193	keystroke_i	i	n/a
466.216	0.075	932432	keystroke_g	g	n/a
466.306	0.075	932612	keystroke_h	h	n/a
466.381	0.09	932762	keystroke_t	t	n/a
466.486	0.1045	932972	keystroke_Key.enter	Key.enter	n/a
466.5945	7.6865	933189	prompt	n/a	metadata deluxe regarding diesel\n
467.1755	0.1195	934351	keystroke_m	m	n/a
467.28	0.0905	934560	keystroke_e	e	n/a
467.7895	0.09	935579	keystroke_t	t	n/a
467.954	0.09	935908	keystroke_a	a	n/a
468.224	0.1055	936448	keystroke_d	d	n/a
468.3745	0.1195	936749	keystroke_a	a	n/a
468.539	0.0905	937078	keystroke_t	t	n/a
468.6145	0.1045	937229	keystroke_a	a	n/a
468.794	0.135	937588	keystroke_Key.space	Key.space	n/a
468.974	0.12	937948	keystroke_d	d	n/a
469.169	0.0895	938338	keystroke_e	e	n/a
469.2885	0.075	938577	keystroke_l	l	n/a
469.6035	0.074	939207	keystroke_u	u	n/a
469.7225	0.09	939445	keystroke_x	x	n/a
470.217	0.09	940434	keystroke_r	r	n/a
470.592	0.0895	941184	keystroke_Key.backspace	Key.backspace	n/a
470.6665	0.0905	941333	keystroke_e	e	n/a
470.892	0.0745	941784	keystroke_Key.space	Key.space	n/a
471.1615	0.075	942323	keystroke_r	r	n/a
471.2065	0.09	942413	keystroke_e	e	n/a
471.656	0.1045	943312	keystroke_g	g	n/a
471.8805	0.12	943761	keystroke_a	a	n/a
471.9855	0.075	943971	keystroke_r	r	n/a
472.1505	0.075	944301	keystroke_d	d	n/a
472.2555	0.1345	944511	keystroke_i	i	n/a
472.3155	0.105	944631	keystroke_n	n	n/a
472.405	0.0605	944810	keystroke_g	g	n/a
472.4955	0.09	944991	keystroke_Key.space	Key.space	n/a
473.306	0.0595	946612	keystroke_d	d	n/a
473.3805	0.09	946761	keystroke_i	i	n/a
473.4855	0.09	946971	keystroke_e	e	n/a
473.6955	0.075	947391	keystroke_s	s	n/a
473.89	0.09	947780	keystroke_a	a	n/a
473.995	0.09	947990	keystroke_l	l	n/a
474.19	0.09	948380	keystroke_Key.enter	Key.enter	n/a
474.284	6.0225	948568	prompt	n/a	messages went marriage mixed\n
474.8495	0.09	949699	keystroke_m	m	n/a
474.9245	0.075	949849	keystroke_e	e	n/a
475.0895	0.105	950179	keystroke_e	e	n/a
475.389	0.135	950778	keystroke_s	s	n/a
475.734	0.0445	951468	keystroke_Key.backspace	Key.backspace	n/a
475.8985	0.09	951797	keystroke_Key.backspace	Key.backspace	n/a
475.9885	0.09	951977	keystroke_s	s	n/a
476.1385	0.075	952277	keystroke_s	s	n/a
476.3335	0.135	952667	keystroke_a	a	n/a
476.9925	0.165	953985	keystroke_g	g	n/a
477.0675	0.105	954135	keystroke_e	e	n/a
477.2625	0.105	954525	keystroke_s	s	n/a
477.3825	0.12	954765	keystroke_Key.space	Key.space	n/a
477.5325	0.135	955065	keystroke_w	w	n/a
477.5925	0.12	955185	keystroke_e	e	n/a
477.7275	0.075	955455	keystroke_n	n	n/a
477.832	0.075	955664	keystroke_t	t	n/a
477.892	0.105	955784	keystroke_Key.space	Key.space	n/a
478.1175	0.1045	956235	keystroke_m	m	n/a
478.162	0.12	956324	keystroke_a	a	n/a
478.252	0.06	956504	keystroke_r	r	n/a
478.402	0.075	956804	keystroke_r	r	n/a
478.462	0.09	956924	keystroke_i	i	n/a
478.567	0.09	957134	keystroke_a	a	n/a
478.8365	0.1345	957673	keystroke_g	g	n/a
478.941	0.12	957882	keystroke_e	e	n/a
479.076	0.06	958152	keystroke_Key.space	Key.space	n/a
479.2265	0.105	958453	keystroke_m	m	n/a
479.3615	0.075	958723	keystroke_i	i	n/a
479.706	0.075	959412	keystroke_x	x	n/a
479.9755	0.045	959951	keystroke_e	e	n/a
480.1255	0.1045	960251	keystroke_d	d	n/a
480.215	0.09	960430	keystroke_Key.enter	Key.enter	n/a
480.32	4.8435	960640	prompt	n/a	recover widescreen beam died\n
480.98	0.075	961960	keystroke_r	r	n/a
481.025	0.075	962050	keystroke_e	e	n/a
481.175	0.0895	962350	keystroke_c	c	n/a
481.2495	0.105	962499	keystroke_o	o	n/a
481.4445	0.09	962889	keystroke_v	v	n/a
481.6395	0.105	963279	keystroke_e	e	n/a
481.6995	0.09	963399	keystroke_r	r	n/a
481.804	0.1205	963608	keystroke_Key.space	Key.space	n/a
482.1195	0.089	964239	keystroke_w	w	n/a
482.2245	0.089	964449	keystroke_i	i	n/a
482.3595	0.0885	964719	keystroke_d	d	n/a
482.539	0.074	965078	keystroke_e	e	n/a
482.748	0.091	965496	keystroke_s	s	n/a
482.974	0.0895	965948	keystroke_c	c	n/a
483.2285	0.075	966457	keystroke_r	r	n/a
483.2735	0.105	966547	keystroke_e	e	n/a
483.4385	0.105	966877	keystroke_e	e	n/a
483.558	0.06	967116	keystroke_n	n	n/a
483.708	0.1045	967416	keystroke_Key.space	Key.space	n/a
483.9625	0.105	967925	keystroke_b	b	n/a
484.0375	0.09	968075	keystroke_e	e	n/a
484.1875	0.12	968375	keystroke_a	a	n/a
484.2925	0.09	968585	keystroke_m	m	n/a
484.4575	0.1195	968915	keystroke_Key.space	Key.space	n/a
484.578	0.1045	969156	keystroke_d	d	n/a
484.6825	0.105	969365	keystroke_i	i	n/a
484.8025	0.09	969605	keystroke_e	e	n/a
484.9675	0.1195	969935	keystroke_d	d	n/a
485.102	0.06	970204	keystroke_Key.enter	Key.enter	n/a
485.1675	13.8175	970335	prompt	n/a	bookstore corporation beginner hypothetical\n
485.9855	0.091	971971	keystroke_b	b	n/a
486.2255	0.076	972451	keystroke_o	o	n/a
486.361	0.075	972722	keystroke_o	o	n/a
486.481	0.104	972962	keystroke_k	k	n/a
486.7215	0.105	973443	keystroke_s	s	n/a
486.8865	0.0895	973773	keystroke_t	t	n/a
487.126	0.015	974252	keystroke_r	r	n/a
487.23	0.121	974460	keystroke_o	o	n/a
487.6355	0.075	975271	keystroke_Key.backspace	Key.backspace	n/a
487.7705	0.075	975541	keystroke_Key.backspace	Key.backspace	n/a
488.0855	0.105	976171	keystroke_o	o	n/a
488.2355	0.15	976471	keystroke_r	r	n/a
488.3255	0.0745	976651	keystroke_e	e	n/a
488.415	0.09	976830	keystroke_Key.space	Key.space	n/a
488.67	0.12	977340	keystroke_c	c	n/a
488.73	0.075	977460	keystroke_o	o	n/a
488.9245	0.06	977849	keystroke_p	p	n/a
488.999	0.105	977998	keystroke_r	r	n/a
489.7935	0.09	979587	keystroke_Key.backspace	Key.backspace	n/a
489.9435	0.075	979887	keystroke_Key.backspace	Key.backspace	n/a
490.0485	0.06	980097	keystroke_r	r	n/a
490.753	0.06	981506	keystroke_p	p	n/a
490.888	0.075	981776	keystroke_o	o	n/a
491.098	0.105	982196	keystroke_r	r	n/a
491.323	0.105	982646	keystroke_a	a	n/a
491.413	0.09	982826	keystroke_t	t	n/a
491.5325	0.091	983065	keystroke_i	i	n/a
491.5785	0.0895	983157	keystroke_o	o	n/a
491.743	0.12	983486	keystroke_n	n	n/a
491.848	0.06	983696	keystroke_Key.space	Key.space	n/a
492.6725	0.0745	985345	keystroke_b	b	n/a
492.762	0.089	985524	keystroke_e	e	n/a
492.882	0.09	985764	keystroke_g	g	n/a
493.002	0.09	986004	keystroke_i	i	n/a
493.062	0.075	986124	keystroke_n	n	n/a
493.212	0.075	986424	keystroke_n	n	n/a
493.362	0.045	986724	keystroke_n	n	n/a
493.467	0.105	986934	keystroke_e	e	n/a
493.512	0.105	987024	keystroke_r	r	n/a
493.631	0.1055	987262	keystroke_Key.space	Key.space	n/a
494.605	0.121	989210	keystroke_Key.backspace	Key.backspace	n/a
494.8	0.091	989600	keystroke_Key.backspace	Key.backspace	n/a
494.935	0.076	989870	keystroke_Key.backspace	Key.backspace	n/a
495.1145	0.03	990229	keystroke_Key.backspace	Key.backspace	n/a
495.4755	0.104	990951	keystroke_e	e	n/a
495.535	0.0745	991070	keystroke_r	r	n/a
495.6245	0.075	991249	keystroke_Key.space	Key.space	n/a
496.704	0.045	993408	keystroke_h	h	n/a
496.8695	0.0745	993739	keystroke_y	y	n/a
497.1685	0.1205	994337	keystroke_p	p	n/a
497.3935	0.075	994787	keystroke_o	o	n/a
497.738	0.09	995476	keystroke_t	t	n/a
497.783	0.105	995566	keystroke_h	h	n/a
498.038	0.12	996076	keystroke_e	e	n/a
498.128	0.075	996256	keystroke_t	t	n/a
498.3385	0.09	996677	keystroke_i	i	n/a
498.4735	0.12	996947	keystroke_c	c	n/a
498.5785	0.105	997157	keystroke_a	a	n/a
498.6985	0.0895	997397	keystroke_l	l	n/a
498.893	0.0895	997786	keystroke_Key.enter	Key.enter	n/a
498.9965	5.294	997993	prompt	n/a	reed statement stars contacting\n
499.6715	0.15	999343	keystroke_r	r	n/a
499.7325	0.105	999465	keystroke_e	e	n/a
499.8965	0.105	999793	keystroke_e	e	n/a
500.0765	0.105	1000153	keystroke_d	d	n/a
500.1365	0.135	1000273	keystroke_Key.space	Key.space	n/a
500.2565	0.09	1000513	keystroke_s	s	n/a
500.3915	0.0895	1000783	keystroke_t	t	n/a
500.496	0.091	1000992	keystroke_a	a	n/a
500.557	0.15	1001114	keystroke_t	t	n/a
500.692	0.09	1001384	keystroke_e	e	n/a
500.797	0.12	1001594	keystroke_m	m	n/a
500.902	0.0895	1001804	keystroke_e	e	n/a
501.0215	0.075	1002043	keystroke_n	n	n/a
501.0665	0.09	1002133	keystroke_t	t	n/a
501.3215	0.105	1002643	keystroke_Key.space	Key.space	n/a
501.5605	0.09	1003121	keystroke_s	s	n/a
501.7105	0.09	1003421	keystroke_t	t	n/a
501.8755	0.15	1003751	keystroke_a	a	n/a
501.9355	0.15	1003871	keystroke_r	r	n/a
502.6705	0.105	1005341	keystroke_s	s	n/a
502.7905	0.1345	1005581	keystroke_Key.space	Key.space	n/a
503.12	0.075	1006240	keystroke_c	c	n/a
503.21	0.1045	1006420	keystroke_o	o	n/a
503.255	0.1355	1006510	keystroke_n	n	n/a
503.3595	0.06	1006719	keystroke_t	t	n/a
503.4495	0.165	1006899	keystroke_a	a	n/a
503.5695	0.075	1007139	keystroke_c	c	n/a
503.7795	0.075	1007559	keystroke_t	t	n/a
503.8695	0.0895	1007739	keystroke_i	i	n/a
503.9145	0.09	1007829	keystroke_n	n	n/a
503.9745	0.06	1007949	keystroke_g	g	n/a
504.244	0.045	1008488	keystroke_Key.enter	Key.enter	n/a
504.294	6.923	1008588	prompt	n/a	fabric disorders msie glory\n
504.919	0.074	1009838	keystroke_t	t	n/a
505.2185	0.075	1010437	keystroke_Key.backspace	Key.backspace	n/a
505.3085	0.105	1010617	keystroke_f	f	n/a
505.9085	0.1045	1011817	keystroke_a	a	n/a
506.133	0.12	1012266	keystroke_b	b	n/a
506.313	0.075	1012626	keystroke_r	r	n/a
506.7475	0.105	1013495	keystroke_i	i	n/a
506.8375	0.105	1013675	keystroke_c	c	n/a
506.9725	0.105	1013945	keystroke_Key.space	Key.space	n/a
507.227	0.105	1014454	keystroke_d	d	n/a
507.347	0.075	1014694	keystroke_i	i	n/a
507.407	0.09	1014814	keystroke_s	s	n/a
507.527	0.105	1015054	keystroke_o	o	n/a
507.602	0.06	1015204	keystroke_r	r	n/a
507.767	0.12	1015534	keystroke_d	d	n/a
507.977	0.105	1015954	keystroke_e	e	n/a
508.052	0.075	1016104	keystroke_r	r	n/a
508.1715	0.135	1016343	keystroke_s	s	n/a
508.2915	0.12	1016583	keystroke_Key.space	Key.space	n/a
509.1765	0.1045	1018353	keystroke_m	m	n/a
509.267	0.09	1018534	keystroke_s	s	n/a
509.416	0.075	1018832	keystroke_i	i	n/a
509.536	0.105	1019072	keystroke_e	e	n/a
509.701	0.105	1019402	keystroke_Key.space	Key.space	n/a
510.451	0.09	1020902	keystroke_g	g	n/a
510.496	0.09	1020992	keystroke_l	l	n/a
510.691	0.075	1021382	keystroke_o	o	n/a
510.931	0.1345	1021862	keystroke_r	r	n/a
511.006	0.0895	1022012	keystroke_y	y	n/a
511.1105	0.105	1022221	keystroke_Key.enter	Key.enter	n/a
511.2195	6.563	1022439	prompt	n/a	swim common websites extraction\n
512.025	0.0895	1024050	keystroke_s	s	n/a
512.235	0.0895	1024470	keystroke_w	w	n/a
512.3845	0.135	1024769	keystroke_i	i	n/a
512.4595	0.105	1024919	keystroke_m	m	n/a
512.5945	0.105	1025189	keystroke_Key.space	Key.space	n/a
513.419	0.045	1026838	keystroke_c	c	n/a
513.449	0.12	1026898	keystroke_o	o	n/a
513.614	0.045	1027228	keystroke_m	m	n/a
513.749	0.0895	1027498	keystroke_m	m	n/a
514.273	0.12	1028546	keystroke_o	o	n/a
514.333	0.09	1028666	keystroke_n	n	n/a
514.438	0.105	1028876	keystroke_Key.space	Key.space	n/a
514.9025	0.105	1029805	keystroke_w	w	n/a
514.9625	0.09	1029925	keystroke_e	e	n/a
515.1125	0.09	1030225	keystroke_b	b	n/a
515.1725	0.105	1030345	keystroke_s	s	n/a
515.3225	0.09	1030645	keystroke_i	i	n/a
515.4275	0.09	1030855	keystroke_t	t	n/a
515.4725	0.075	1030945	keystroke_e	e	n/a
515.6525	0.105	1031305	keystroke_s	s	n/a
515.7425	0.1045	1031485	keystroke_Key.space	Key.space	n/a
515.9975	0.0755	1031995	keystroke_e	e	n/a
516.2225	0.09	1032445	keystroke_x	x	n/a
516.552	0.06	1033104	keystroke_t	t	n/a
516.567	0.09	1033134	keystroke_r	r	n/a
516.777	0.135	1033554	keystroke_a	a	n/a
516.837	0.105	1033674	keystroke_c	c	n/a
517.0765	0.06	1034153	keystroke_t	t	n/a
517.2265	0.075	1034453	keystroke_i	i	n/a
517.2565	0.1045	1034513	keystroke_o	o	n/a
517.406	0.12	1034812	keystroke_n	n	n/a
517.721	0.06	1035442	keystroke_Key.enter	Key.enter	n/a
517.787	5.304	1035574	prompt	n/a	asked blowing techno acid\n
518.4705	0.15	1036941	keystroke_a	a	n/a
518.5455	0.105	1037091	keystroke_s	s	n/a
518.726	0.105	1037452	keystroke_k	k	n/a
518.861	0.075	1037722	keystroke_e	e	n/a
519.011	0.0895	1038022	keystroke_d	d	n/a
519.1305	0.12	1038261	keystroke_Key.space	Key.space	n/a
519.4155	0.09	1038831	keystroke_b	b	n/a
519.611	0.075	1039222	keystroke_l	l	n/a
519.791	0.0895	1039582	keystroke_o	o	n/a
519.8955	0.075	1039791	keystroke_w	w	n/a
520.0005	0.1195	1040001	keystroke_i	i	n/a
520.0605	0.0895	1040121	keystroke_n	n	n/a
520.135	0.075	1040270	keystroke_g	g	n/a
520.24	0.135	1040480	keystroke_Key.space	Key.space	n/a
520.705	0.1045	1041410	keystroke_t	t	n/a
